headphoneResponse.keys,headphoneResponse.corr,headphoneResponse.rt,headphoneTrial.thisRepN,headphoneTrial.thisTrialN,headphoneTrial.thisN,headphoneTrial.thisIndex,headphoneTrial.ran,headphone_sound1,headphone_sound2,headphone_sound3,corrAns,participant,date,expName,psychopyVersion,OS,frameRate,trainSlider.response,trainSlider.rt,beepTrainResponse.keys,beepTrainResponse.corr,trainingTrials.thisRepN,trainingTrials.thisTrialN,trainingTrials.thisN,trainingTrials.thisIndex,trainingTrials.ran,trainAudioFile,beepTrainResponse.rt,readyReal_resp.keys,readyReal_resp.rt,ratingSlider.response,ratingSlider.rt,beepResp.keys,beepResp.corr,expTrials.thisRepN,expTrials.thisTrialN,expTrials.thisN,expTrials.thisIndex,expTrials.ran,audioFile,beepResp.rt,end_resp.keys,end_resp.rt
3,1,1.5171,0,0,0,0,1,stimuli/screen_antiphase.wav,stimuli/screen_origin.wav,stimuli/screen_quiet.wav,3,34212,2021-06-23_14h56.05.476,judgeSpeechMusic_20210519_logNormShiftAmp_mXs,2020.1.2,MacIntel,60,,,,,,,,,,,,,,,,,,,,,,,,,,
1,1,1.0854,0,1,1,4,1,stimuli/screen_quiet.wav,stimuli/screen_antiphase.wav,stimuli/screen_origin.wav,1,34212,2021-06-23_14h56.05.476,judgeSpeechMusic_20210519_logNormShiftAmp_mXs,2020.1.2,MacIntel,60,,,,,,,,,,,,,,,,,,,,,,,,,,
2,1,0.2865,0,2,2,1,1,stimuli/screen_antiphase.wav,stimuli/screen_quiet.wav,stimuli/screen_origin.wav,2,34212,2021-06-23_14h56.05.476,judgeSpeechMusic_20210519_logNormShiftAmp_mXs,2020.1.2,MacIntel,60,,,,,,,,,,,,,,,,,,,,,,,,,,
2,1,0.3036,0,3,3,3,1,stimuli/screen_origin.wav,stimuli/screen_quiet.wav,stimuli/screen_antiphase.wav,2,34212,2021-06-23_14h56.05.476,judgeSpeechMusic_20210519_logNormShiftAmp_mXs,2020.1.2,MacIntel,60,,,,,,,,,,,,,,,,,,,,,,,,,,
1,0,0.4014,0,4,4,2,1,stimuli/screen_origin.wav,stimuli/screen_antiphase.wav,stimuli/screen_quiet.wav,3,34212,2021-06-23_14h56.05.476,judgeSpeechMusic_20210519_logNormShiftAmp_mXs,2020.1.2,MacIntel,60,,,,,,,,,,,,,,,,,,,,,,,,,,
1,1,0.3333,0,5,5,5,1,stimuli/screen_quiet.wav,stimuli/screen_origin.wav,stimuli/screen_antiphase.wav,1,34212,2021-06-23_14h56.05.476,judgeSpeechMusic_20210519_logNormShiftAmp_mXs,2020.1.2,MacIntel,60,,,,,,,,,,,,,,,,,,,,,,,,,,
,,,,,,,,,,,,34212,2021-06-23_14h56.05.476,judgeSpeechMusic_20210519_logNormShiftAmp_mXs,2020.1.2,MacIntel,60,2,11.1567,,0,0,0,0,2,1,stimuli/stim_20210519_power2amp/equal_lnn_AM_training3.5Hz_s20.m4a,,,,,,,,,,,,,,,,
,,,,,,,,,,,,34212,2021-06-23_14h56.05.476,judgeSpeechMusic_20210519_logNormShiftAmp_mXs,2020.1.2,MacIntel,60,1,10.8595,,0,0,1,1,1,1,stimuli/stim_20210519_power2amp/equal_lnn_AM_training1.5Hz_s50.m4a,,,,,,,,,,,,,,,,
,,,,,,,,,,,,34212,2021-06-23_14h56.05.476,judgeSpeechMusic_20210519_logNormShiftAmp_mXs,2020.1.2,MacIntel,60,2,6.7315,2,1,0,2,2,3,1,stimuli/stim_20210519_power2amp/equal_lnn_AM_training3.5Hz_s50.m4a,0.6975,,,,,,,,,,,,,,,
,,,,,,,,,,,,34212,2021-06-23_14h56.05.476,judgeSpeechMusic_20210519_logNormShiftAmp_mXs,2020.1.2,MacIntel,60,1,6.1113,,0,0,3,3,0,1,stimuli/stim_20210519_power2amp/equal_lnn_AM_training1.5Hz_s20.m4a,,,,,,,,,,,,,,,,
,,,,,,,,,,,,34212,2021-06-23_14h56.05.476,judgeSpeechMusic_20210519_logNormShiftAmp_mXs,2020.1.2,MacIntel,60,,,,,,,,,,,,space,5.5821,1,8.0523,,0,0,0,0,6,1,stimuli/stim_20210519_power2amp/equal_lnn_AM1Hz_s15_8.m4a,,,
,,,,,,,,,,,,34212,2021-06-23_14h56.05.476,judgeSpeechMusic_20210519_logNormShiftAmp_mXs,2020.1.2,MacIntel,60,,,,,,,,,,,,,,2,10.0107,,0,0,1,1,48,1,stimuli/stim_20210519_power2amp/equal_lnn_AM1Hz_s55_27.m4a,,,
,,,,,,,,,,,,34212,2021-06-23_14h56.05.476,judgeSpeechMusic_20210519_logNormShiftAmp_mXs,2020.1.2,MacIntel,60,,,,,,,,,,,,,,2,5.7588,,0,0,2,2,99,1,stimuli/stim_20210519_power2amp/equal_lnn_AM2.5Hz_s55_17.m4a,,,
,,,,,,,,,,,,34212,2021-06-23_14h56.05.476,judgeSpeechMusic_20210519_logNormShiftAmp_mXs,2020.1.2,MacIntel,60,,,,,,,,,,,,,,2,5.663,,0,0,3,3,138,1,stimuli/stim_20210519_power2amp/equal_lnn_AM4Hz_s45_31.m4a,,,
,,,,,,,,,,,,34212,2021-06-23_14h56.05.476,judgeSpeechMusic_20210519_logNormShiftAmp_mXs,2020.1.2,MacIntel,60,,,,,,,,,,,,,,1,5.9934,,0,0,4,4,81,1,stimuli/stim_20210519_power2amp/equal_lnn_AM2.5Hz_s45_13.m4a,,,
,,,,,,,,,,,,34212,2021-06-23_14h56.05.476,judgeSpeechMusic_20210519_logNormShiftAmp_mXs,2020.1.2,MacIntel,60,,,,,,,,,,,,,,2,7.9265,,0,0,5,5,100,1,stimuli/stim_20210519_power2amp/equal_lnn_AM4Hz_s15_7.m4a,,,
,,,,,,,,,,,,34212,2021-06-23_14h56.05.476,judgeSpeechMusic_20210519_logNormShiftAmp_mXs,2020.1.2,MacIntel,60,,,,,,,,,,,,,,1,6.0264,,0,0,6,6,21,1,stimuli/stim_20210519_power2amp/equal_lnn_AM1Hz_s35_4.m4a,,,
,,,,,,,,,,,,34212,2021-06-23_14h56.05.476,judgeSpeechMusic_20210519_logNormShiftAmp_mXs,2020.1.2,MacIntel,60,,,,,,,,,,,,,,2,5.9481,,0,0,7,7,77,1,stimuli/stim_20210519_power2amp/equal_lnn_AM2.5Hz_s35_29.m4a,,,
,,,,,,,,,,,,34212,2021-06-23_14h56.05.476,judgeSpeechMusic_20210519_logNormShiftAmp_mXs,2020.1.2,MacIntel,60,,,,,,,,,,,,,,1,5.8303,,0,0,8,8,33,1,stimuli/stim_20210519_power2amp/equal_lnn_AM1Hz_s45_32.m4a,,,
,,,,,,,,,,,,34212,2021-06-23_14h56.05.476,judgeSpeechMusic_20210519_logNormShiftAmp_mXs,2020.1.2,MacIntel,60,,,,,,,,,,,,,,2,5.8484,,0,0,9,9,127,1,stimuli/stim_20210519_power2amp/equal_lnn_AM4Hz_s35_28.m4a,,,
,,,,,,,,,,,,34212,2021-06-23_14h56.05.476,judgeSpeechMusic_20210519_logNormShiftAmp_mXs,2020.1.2,MacIntel,60,,,,,,,,,,,,,,2,5.6311,,0,0,10,10,106,1,stimuli/stim_20210519_power2amp/equal_lnn_AM4Hz_s15_5.m4a,,,
,,,,,,,,,,,,34212,2021-06-23_14h56.05.476,judgeSpeechMusic_20210519_logNormShiftAmp_mXs,2020.1.2,MacIntel,60,,,,,,,,,,,,,,1,5.7571,,0,0,11,11,3,1,stimuli/stim_20210519_power2amp/equal_lnn_AM1Hz_s15_17.m4a,,,
,,,,,,,,,,,,34212,2021-06-23_14h56.05.476,judgeSpeechMusic_20210519_logNormShiftAmp_mXs,2020.1.2,MacIntel,60,,,,,,,,,,,,,,1,5.6589,,0,0,12,12,8,1,stimuli/stim_20210519_power2amp/equal_lnn_AM1Hz_s15_35.m4a,,,
,,,,,,,,,,,,34212,2021-06-23_14h56.05.476,judgeSpeechMusic_20210519_logNormShiftAmp_mXs,2020.1.2,MacIntel,60,,,,,,,,,,,,,,1,5.6585,,0,0,13,13,9,1,stimuli/stim_20210519_power2amp/equal_lnn_AM1Hz_s15_27.m4a,,,
,,,,,,,,,,,,34212,2021-06-23_14h56.05.476,judgeSpeechMusic_20210519_logNormShiftAmp_mXs,2020.1.2,MacIntel,60,,,,,,,,,,,,,,2,5.8608,,0,0,14,14,147,1,stimuli/stim_20210519_power2amp/equal_lnn_AM4Hz_s55_46.m4a,,,
,,,,,,,,,,,,34212,2021-06-23_14h56.05.476,judgeSpeechMusic_20210519_logNormShiftAmp_mXs,2020.1.2,MacIntel,60,,,,,,,,,,,,,,1,5.7117,,0,0,15,15,72,1,stimuli/stim_20210519_power2amp/equal_lnn_AM2.5Hz_s35_45.m4a,,,
,,,,,,,,,,,,34212,2021-06-23_14h56.05.476,judgeSpeechMusic_20210519_logNormShiftAmp_mXs,2020.1.2,MacIntel,60,,,,,,,,,,,,,,1,6.8085,,0,0,16,16,54,1,stimuli/stim_20210519_power2amp/equal_lnn_AM2.5Hz_s15_41.m4a,,,
,,,,,,,,,,,,34212,2021-06-23_14h56.05.476,judgeSpeechMusic_20210519_logNormShiftAmp_mXs,2020.1.2,MacIntel,60,,,,,,,,,,,,,,1,5.6338,,0,0,17,17,19,1,stimuli/stim_20210519_power2amp/equal_lnn_AM1Hz_s25_31.m4a,,,
,,,,,,,,,,,,34212,2021-06-23_14h56.05.476,judgeSpeechMusic_20210519_logNormShiftAmp_mXs,2020.1.2,MacIntel,60,,,,,,,,,,,,,,1,7.9592,,0,0,18,18,42,1,stimuli/stim_20210519_power2amp/equal_lnn_AM1Hz_s55_47.m4a,,,
,,,,,,,,,,,,34212,2021-06-23_14h56.05.476,judgeSpeechMusic_20210519_logNormShiftAmp_mXs,2020.1.2,MacIntel,60,,,,,,,,,,,,,,2,6.0043,,0,0,19,19,140,1,stimuli/stim_20210519_power2amp/equal_lnn_AM4Hz_s55_31.m4a,,,
,,,,,,,,,,,,34212,2021-06-23_14h56.05.476,judgeSpeechMusic_20210519_logNormShiftAmp_mXs,2020.1.2,MacIntel,60,,,,,,,,,,,,,,1,6.3316,,0,0,20,20,111,1,stimuli/stim_20210519_power2amp/equal_lnn_AM4Hz_s25_16.m4a,,,
,,,,,,,,,,,,34212,2021-06-23_14h56.05.476,judgeSpeechMusic_20210519_logNormShiftAmp_mXs,2020.1.2,MacIntel,60,,,,,,,,,,,,,,2,6.1761,,0,0,21,21,122,1,stimuli/stim_20210519_power2amp/equal_lnn_AM4Hz_s35_11.m4a,,,
,,,,,,,,,,,,34212,2021-06-23_14h56.05.476,judgeSpeechMusic_20210519_logNormShiftAmp_mXs,2020.1.2,MacIntel,60,,,,,,,,,,,,,,1,5.7586,,0,0,22,22,4,1,stimuli/stim_20210519_power2amp/equal_lnn_AM1Hz_s15_28.m4a,,,
,,,,,,,,,,,,34212,2021-06-23_14h56.05.476,judgeSpeechMusic_20210519_logNormShiftAmp_mXs,2020.1.2,MacIntel,60,,,,,,,,,,,,,,1,6.7777,,0,0,23,23,104,1,stimuli/stim_20210519_power2amp/equal_lnn_AM4Hz_s15_8.m4a,,,
,,,,,,,,,,,,34212,2021-06-23_14h56.05.476,judgeSpeechMusic_20210519_logNormShiftAmp_mXs,2020.1.2,MacIntel,60,,,,,,,,,,,,,,1,5.7431,,0,0,24,24,1,1,stimuli/stim_20210519_power2amp/equal_lnn_AM1Hz_s15_14.m4a,,,
,,,,,,,,,,,,34212,2021-06-23_14h56.05.476,judgeSpeechMusic_20210519_logNormShiftAmp_mXs,2020.1.2,MacIntel,60,,,,,,,,,,,,,,1,5.6952,,0,0,25,25,13,1,stimuli/stim_20210519_power2amp/equal_lnn_AM1Hz_s25_39.m4a,,,
,,,,,,,,,,,,34212,2021-06-23_14h56.05.476,judgeSpeechMusic_20210519_logNormShiftAmp_mXs,2020.1.2,MacIntel,60,,,,,,,,,,,,,,2,5.8253,,0,0,26,26,94,1,stimuli/stim_20210519_power2amp/equal_lnn_AM2.5Hz_s55_23.m4a,,,
,,,,,,,,,,,,34212,2021-06-23_14h56.05.476,judgeSpeechMusic_20210519_logNormShiftAmp_mXs,2020.1.2,MacIntel,60,,,,,,,,,,,,,,1,5.7413,,0,0,27,27,55,1,stimuli/stim_20210519_power2amp/equal_lnn_AM2.5Hz_s15_6.m4a,,,
,,,,,,,,,,,,34212,2021-06-23_14h56.05.476,judgeSpeechMusic_20210519_logNormShiftAmp_mXs,2020.1.2,MacIntel,60,,,,,,,,,,,,,,2,5.727,,0,0,28,28,144,1,stimuli/stim_20210519_power2amp/equal_lnn_AM4Hz_s55_36.m4a,,,
,,,,,,,,,,,,34212,2021-06-23_14h56.05.476,judgeSpeechMusic_20210519_logNormShiftAmp_mXs,2020.1.2,MacIntel,60,,,,,,,,,,,,,,1,5.5943,,0,0,29,29,89,1,stimuli/stim_20210519_power2amp/equal_lnn_AM2.5Hz_s45_24.m4a,,,
,,,,,,,,,,,,34212,2021-06-23_14h56.05.476,judgeSpeechMusic_20210519_logNormShiftAmp_mXs,2020.1.2,MacIntel,60,,,,,,,,,,,,,,1,8.619,,0,0,30,30,83,1,stimuli/stim_20210519_power2amp/equal_lnn_AM2.5Hz_s45_23.m4a,,,
,,,,,,,,,,,,34212,2021-06-23_14h56.05.476,judgeSpeechMusic_20210519_logNormShiftAmp_mXs,2020.1.2,MacIntel,60,,,,,,,,,,,,,,2,6.0892,,0,0,31,31,114,1,stimuli/stim_20210519_power2amp/equal_lnn_AM4Hz_s25_49.m4a,,,
,,,,,,,,,,,,34212,2021-06-23_14h56.05.476,judgeSpeechMusic_20210519_logNormShiftAmp_mXs,2020.1.2,MacIntel,60,,,,,,,,,,,,,,1,5.6777,,0,0,32,32,57,1,stimuli/stim_20210519_power2amp/equal_lnn_AM2.5Hz_s15_48.m4a,,,
,,,,,,,,,,,,34212,2021-06-23_14h56.05.476,judgeSpeechMusic_20210519_logNormShiftAmp_mXs,2020.1.2,MacIntel,60,,,,,,,,,,,,,,1,5.6952,,0,0,33,33,63,1,stimuli/stim_20210519_power2amp/equal_lnn_AM2.5Hz_s25_49.m4a,,,
,,,,,,,,,,,,34212,2021-06-23_14h56.05.476,judgeSpeechMusic_20210519_logNormShiftAmp_mXs,2020.1.2,MacIntel,60,,,,,,,,,,,,,,1,6.2702,,0,0,34,34,15,1,stimuli/stim_20210519_power2amp/equal_lnn_AM1Hz_s25_36.m4a,,,
,,,,,,,,,,,,34212,2021-06-23_14h56.05.476,judgeSpeechMusic_20210519_logNormShiftAmp_mXs,2020.1.2,MacIntel,60,,,,,,,,,,,,,,2,5.6096,,0,0,35,35,112,1,stimuli/stim_20210519_power2amp/equal_lnn_AM4Hz_s25_29.m4a,,,
,,,,,,,,,,,,34212,2021-06-23_14h56.05.476,judgeSpeechMusic_20210519_logNormShiftAmp_mXs,2020.1.2,MacIntel,60,,,,,,,,,,,,,,2,5.5939,3,1,0,36,36,96,1,stimuli/stim_20210519_power2amp/equal_lnn_AM2.5Hz_s55_10.m4a,0.461,,
,,,,,,,,,,,,34212,2021-06-23_14h56.05.476,judgeSpeechMusic_20210519_logNormShiftAmp_mXs,2020.1.2,MacIntel,60,,,,,,,,,,,,,,2,5.5934,,0,0,37,37,103,1,stimuli/stim_20210519_power2amp/equal_lnn_AM4Hz_s15_45.m4a,,,
,,,,,,,,,,,,34212,2021-06-23_14h56.05.476,judgeSpeechMusic_20210519_logNormShiftAmp_mXs,2020.1.2,MacIntel,60,,,,,,,,,,,,,,1,5.773,,0,0,38,38,34,1,stimuli/stim_20210519_power2amp/equal_lnn_AM1Hz_s45_8.m4a,,,
,,,,,,,,,,,,34212,2021-06-23_14h56.05.476,judgeSpeechMusic_20210519_logNormShiftAmp_mXs,2020.1.2,MacIntel,60,,,,,,,,,,,,,,2,5.9913,,0,0,39,39,102,1,stimuli/stim_20210519_power2amp/equal_lnn_AM4Hz_s15_44.m4a,,,
,,,,,,,,,,,,34212,2021-06-23_14h56.05.476,judgeSpeechMusic_20210519_logNormShiftAmp_mXs,2020.1.2,MacIntel,60,,,,,,,,,,,,,,1,5.6,,0,0,40,40,62,1,stimuli/stim_20210519_power2amp/equal_lnn_AM2.5Hz_s25_15.m4a,,,
,,,,,,,,,,,,34212,2021-06-23_14h56.05.476,judgeSpeechMusic_20210519_logNormShiftAmp_mXs,2020.1.2,MacIntel,60,,,,,,,,,,,,,,2,5.6269,,0,0,41,41,109,1,stimuli/stim_20210519_power2amp/equal_lnn_AM4Hz_s15_40.m4a,,,
,,,,,,,,,,,,34212,2021-06-23_14h56.05.476,judgeSpeechMusic_20210519_logNormShiftAmp_mXs,2020.1.2,MacIntel,60,,,,,,,,,,,,,,1,5.7809,,0,0,42,42,59,1,stimuli/stim_20210519_power2amp/equal_lnn_AM2.5Hz_s15_12.m4a,,,
,,,,,,,,,,,,34212,2021-06-23_14h56.05.476,judgeSpeechMusic_20210519_logNormShiftAmp_mXs,2020.1.2,MacIntel,60,,,,,,,,,,,,,,1,5.5951,,0,0,43,43,85,1,stimuli/stim_20210519_power2amp/equal_lnn_AM2.5Hz_s45_25.m4a,,,
,,,,,,,,,,,,34212,2021-06-23_14h56.05.476,judgeSpeechMusic_20210519_logNormShiftAmp_mXs,2020.1.2,MacIntel,60,,,,,,,,,,,,,,2,5.8939,,0,0,44,44,142,1,stimuli/stim_20210519_power2amp/equal_lnn_AM4Hz_s55_21.m4a,,,
,,,,,,,,,,,,34212,2021-06-23_14h56.05.476,judgeSpeechMusic_20210519_logNormShiftAmp_mXs,2020.1.2,MacIntel,60,,,,,,,,,,,,,,2,6.5791,,0,0,45,45,124,1,stimuli/stim_20210519_power2amp/equal_lnn_AM4Hz_s35_30.m4a,,,
,,,,,,,,,,,,34212,2021-06-23_14h56.05.476,judgeSpeechMusic_20210519_logNormShiftAmp_mXs,2020.1.2,MacIntel,60,,,,,,,,,,,,,,1,5.6448,,0,0,46,46,45,1,stimuli/stim_20210519_power2amp/equal_lnn_AM1Hz_s55_32.m4a,,,
,,,,,,,,,,,,34212,2021-06-23_14h56.05.476,judgeSpeechMusic_20210519_logNormShiftAmp_mXs,2020.1.2,MacIntel,60,,,,,,,,,,,,,,1,5.7241,,0,0,47,47,134,1,stimuli/stim_20210519_power2amp/equal_lnn_AM4Hz_s45_25.m4a,,,
,,,,,,,,,,,,34212,2021-06-23_14h56.05.476,judgeSpeechMusic_20210519_logNormShiftAmp_mXs,2020.1.2,MacIntel,60,,,,,,,,,,,,,,2,5.9624,,0,0,48,48,101,1,stimuli/stim_20210519_power2amp/equal_lnn_AM4Hz_s15_20.m4a,,,
,,,,,,,,,,,,34212,2021-06-23_14h56.05.476,judgeSpeechMusic_20210519_logNormShiftAmp_mXs,2020.1.2,MacIntel,60,,,,,,,,,,,,,,2,5.6433,,0,0,49,49,120,1,stimuli/stim_20210519_power2amp/equal_lnn_AM4Hz_s35_41.m4a,,,
,,,,,,,,,,,,34212,2021-06-23_14h56.05.476,judgeSpeechMusic_20210519_logNormShiftAmp_mXs,2020.1.2,MacIntel,60,,,,,,,,,,,,,,1,6.6132,,0,0,50,50,16,1,stimuli/stim_20210519_power2amp/equal_lnn_AM1Hz_s25_47.m4a,,,
,,,,,,,,,,,,34212,2021-06-23_14h56.05.476,judgeSpeechMusic_20210519_logNormShiftAmp_mXs,2020.1.2,MacIntel,60,,,,,,,,,,,,,,1,5.7613,,0,0,51,51,68,1,stimuli/stim_20210519_power2amp/equal_lnn_AM2.5Hz_s25_10.m4a,,,
,,,,,,,,,,,,34212,2021-06-23_14h56.05.476,judgeSpeechMusic_20210519_logNormShiftAmp_mXs,2020.1.2,MacIntel,60,,,,,,,,,,,,,,1,5.6596,,0,0,52,52,70,1,stimuli/stim_20210519_power2amp/equal_lnn_AM2.5Hz_s35_4.m4a,,,
,,,,,,,,,,,,34212,2021-06-23_14h56.05.476,judgeSpeechMusic_20210519_logNormShiftAmp_mXs,2020.1.2,MacIntel,60,,,,,,,,,,,,,,1,5.792,,0,0,53,53,74,1,stimuli/stim_20210519_power2amp/equal_lnn_AM2.5Hz_s35_44.m4a,,,
,,,,,,,,,,,,34212,2021-06-23_14h56.05.476,judgeSpeechMusic_20210519_logNormShiftAmp_mXs,2020.1.2,MacIntel,60,,,,,,,,,,,,,,2,5.7795,,0,0,54,54,113,1,stimuli/stim_20210519_power2amp/equal_lnn_AM4Hz_s25_19.m4a,,,
,,,,,,,,,,,,34212,2021-06-23_14h56.05.476,judgeSpeechMusic_20210519_logNormShiftAmp_mXs,2020.1.2,MacIntel,60,,,,,,,,,,,,,,1,6.0607,,0,0,55,55,29,1,stimuli/stim_20210519_power2amp/equal_lnn_AM1Hz_s35_34.m4a,,,
,,,,,,,,,,,,34212,2021-06-23_14h56.05.476,judgeSpeechMusic_20210519_logNormShiftAmp_mXs,2020.1.2,MacIntel,60,,,,,,,,,,,,,,2,5.6983,,0,0,56,56,130,1,stimuli/stim_20210519_power2amp/equal_lnn_AM4Hz_s45_43.m4a,,,
,,,,,,,,,,,,34212,2021-06-23_14h56.05.476,judgeSpeechMusic_20210519_logNormShiftAmp_mXs,2020.1.2,MacIntel,60,,,,,,,,,,,,,,1,5.76,1,1,0,57,57,51,1,stimuli/stim_20210519_power2amp/equal_lnn_AM2.5Hz_s15_26.m4a,1.1505,,
,,,,,,,,,,,,34212,2021-06-23_14h56.05.476,judgeSpeechMusic_20210519_logNormShiftAmp_mXs,2020.1.2,MacIntel,60,,,,,,,,,,,,,,2,5.8296,,0,0,58,58,135,1,stimuli/stim_20210519_power2amp/equal_lnn_AM4Hz_s45_45.m4a,,,
,,,,,,,,,,,,34212,2021-06-23_14h56.05.476,judgeSpeechMusic_20210519_logNormShiftAmp_mXs,2020.1.2,MacIntel,60,,,,,,,,,,,,,,1,6.2472,,0,0,59,59,79,1,stimuli/stim_20210519_power2amp/equal_lnn_AM2.5Hz_s35_11.m4a,,,
,,,,,,,,,,,,34212,2021-06-23_14h56.05.476,judgeSpeechMusic_20210519_logNormShiftAmp_mXs,2020.1.2,MacIntel,60,,,,,,,,,,,,,,1,5.6784,,0,0,60,60,31,1,stimuli/stim_20210519_power2amp/equal_lnn_AM1Hz_s45_16.m4a,,,
,,,,,,,,,,,,34212,2021-06-23_14h56.05.476,judgeSpeechMusic_20210519_logNormShiftAmp_mXs,2020.1.2,MacIntel,60,,,,,,,,,,,,,,2,5.9266,,0,0,61,61,146,1,stimuli/stim_20210519_power2amp/equal_lnn_AM4Hz_s55_40.m4a,,,
,,,,,,,,,,,,34212,2021-06-23_14h56.05.476,judgeSpeechMusic_20210519_logNormShiftAmp_mXs,2020.1.2,MacIntel,60,,,,,,,,,,,,,,2,5.7575,,0,0,62,62,40,1,stimuli/stim_20210519_power2amp/equal_lnn_AM1Hz_s55_15.m4a,,,
,,,,,,,,,,,,34212,2021-06-23_14h56.05.476,judgeSpeechMusic_20210519_logNormShiftAmp_mXs,2020.1.2,MacIntel,60,,,,,,,,,,,,,,2,5.6757,,0,0,63,63,115,1,stimuli/stim_20210519_power2amp/equal_lnn_AM4Hz_s25_35.m4a,,,
,,,,,,,,,,,,34212,2021-06-23_14h56.05.476,judgeSpeechMusic_20210519_logNormShiftAmp_mXs,2020.1.2,MacIntel,60,,,,,,,,,,,,,,1,5.6608,,0,0,64,64,14,1,stimuli/stim_20210519_power2amp/equal_lnn_AM1Hz_s25_8.m4a,,,
,,,,,,,,,,,,34212,2021-06-23_14h56.05.476,judgeSpeechMusic_20210519_logNormShiftAmp_mXs,2020.1.2,MacIntel,60,,,,,,,,,,,,,,1,5.6574,,0,0,65,65,25,1,stimuli/stim_20210519_power2amp/equal_lnn_AM1Hz_s35_28.m4a,,,
,,,,,,,,,,,,34212,2021-06-23_14h56.05.476,judgeSpeechMusic_20210519_logNormShiftAmp_mXs,2020.1.2,MacIntel,60,,,,,,,,,,,,,,2,5.714,,0,0,66,66,82,1,stimuli/stim_20210519_power2amp/equal_lnn_AM2.5Hz_s45_6.m4a,,,
,,,,,,,,,,,,34212,2021-06-23_14h56.05.476,judgeSpeechMusic_20210519_logNormShiftAmp_mXs,2020.1.2,MacIntel,60,,,,,,,,,,,,,,1,5.6429,,0,0,67,67,49,1,stimuli/stim_20210519_power2amp/equal_lnn_AM1Hz_s55_36.m4a,,,
,,,,,,,,,,,,34212,2021-06-23_14h56.05.476,judgeSpeechMusic_20210519_logNormShiftAmp_mXs,2020.1.2,MacIntel,60,,,,,,,,,,,,,,2,5.7606,,0,0,68,68,108,1,stimuli/stim_20210519_power2amp/equal_lnn_AM4Hz_s15_21.m4a,,,
,,,,,,,,,,,,34212,2021-06-23_14h56.05.476,judgeSpeechMusic_20210519_logNormShiftAmp_mXs,2020.1.2,MacIntel,60,,,,,,,,,,,,,,2,6.2968,,0,0,69,69,78,1,stimuli/stim_20210519_power2amp/equal_lnn_AM2.5Hz_s35_39.m4a,,,
,,,,,,,,,,,,34212,2021-06-23_14h56.05.476,judgeSpeechMusic_20210519_logNormShiftAmp_mXs,2020.1.2,MacIntel,60,,,,,,,,,,,,,,1,5.8598,,0,0,70,70,61,1,stimuli/stim_20210519_power2amp/equal_lnn_AM2.5Hz_s25_39.m4a,,,
,,,,,,,,,,,,34212,2021-06-23_14h56.05.476,judgeSpeechMusic_20210519_logNormShiftAmp_mXs,2020.1.2,MacIntel,60,,,,,,,,,,,,,,1,5.6736,,0,0,71,71,37,1,stimuli/stim_20210519_power2amp/equal_lnn_AM1Hz_s45_7.m4a,,,
,,,,,,,,,,,,34212,2021-06-23_14h56.05.476,judgeSpeechMusic_20210519_logNormShiftAmp_mXs,2020.1.2,MacIntel,60,,,,,,,,,,,,,,1,5.9474,,0,0,72,72,118,1,stimuli/stim_20210519_power2amp/equal_lnn_AM4Hz_s25_8.m4a,,,
,,,,,,,,,,,,34212,2021-06-23_14h56.05.476,judgeSpeechMusic_20210519_logNormShiftAmp_mXs,2020.1.2,MacIntel,60,,,,,,,,,,,,,,1,5.6459,,0,0,73,73,75,1,stimuli/stim_20210519_power2amp/equal_lnn_AM2.5Hz_s35_15.m4a,,,
,,,,,,,,,,,,34212,2021-06-23_14h56.05.476,judgeSpeechMusic_20210519_logNormShiftAmp_mXs,2020.1.2,MacIntel,60,,,,,,,,,,,,,,2,5.7434,,0,0,74,74,107,1,stimuli/stim_20210519_power2amp/equal_lnn_AM4Hz_s15_2.m4a,,,
,,,,,,,,,,,,34212,2021-06-23_14h56.05.476,judgeSpeechMusic_20210519_logNormShiftAmp_mXs,2020.1.2,MacIntel,60,,,,,,,,,,,,,,1,5.7142,,0,0,75,75,38,1,stimuli/stim_20210519_power2amp/equal_lnn_AM1Hz_s45_13.m4a,,,
,,,,,,,,,,,,34212,2021-06-23_14h56.05.476,judgeSpeechMusic_20210519_logNormShiftAmp_mXs,2020.1.2,MacIntel,60,,,,,,,,,,,,,,2,7.0614,,0,0,76,76,116,1,stimuli/stim_20210519_power2amp/equal_lnn_AM4Hz_s25_24.m4a,,,
,,,,,,,,,,,,34212,2021-06-23_14h56.05.476,judgeSpeechMusic_20210519_logNormShiftAmp_mXs,2020.1.2,MacIntel,60,,,,,,,,,,,,,,1,6.0767,,0,0,77,77,46,1,stimuli/stim_20210519_power2amp/equal_lnn_AM1Hz_s55_50.m4a,,,
,,,,,,,,,,,,34212,2021-06-23_14h56.05.476,judgeSpeechMusic_20210519_logNormShiftAmp_mXs,2020.1.2,MacIntel,60,,,,,,,,,,,,,,2,6.3949,,0,0,78,78,121,1,stimuli/stim_20210519_power2amp/equal_lnn_AM4Hz_s35_40.m4a,,,
,,,,,,,,,,,,34212,2021-06-23_14h56.05.476,judgeSpeechMusic_20210519_logNormShiftAmp_mXs,2020.1.2,MacIntel,60,,,,,,,,,,,,,,1,6.0532,4,1,0,79,79,44,1,stimuli/stim_20210519_power2amp/equal_lnn_AM1Hz_s55_28.m4a,0.9454,,
,,,,,,,,,,,,34212,2021-06-23_14h56.05.476,judgeSpeechMusic_20210519_logNormShiftAmp_mXs,2020.1.2,MacIntel,60,,,,,,,,,,,,,,1,8.3484,,0,0,80,80,17,1,stimuli/stim_20210519_power2amp/equal_lnn_AM1Hz_s25_23.m4a,,,
,,,,,,,,,,,,34212,2021-06-23_14h56.05.476,judgeSpeechMusic_20210519_logNormShiftAmp_mXs,2020.1.2,MacIntel,60,,,,,,,,,,,,,,1,6.9089,,0,0,81,81,7,1,stimuli/stim_20210519_power2amp/equal_lnn_AM1Hz_s15_2.m4a,,,
,,,,,,,,,,,,34212,2021-06-23_14h56.05.476,judgeSpeechMusic_20210519_logNormShiftAmp_mXs,2020.1.2,MacIntel,60,,,,,,,,,,,,,,1,5.6755,,0,0,82,82,56,1,stimuli/stim_20210519_power2amp/equal_lnn_AM2.5Hz_s15_2.m4a,,,
,,,,,,,,,,,,34212,2021-06-23_14h56.05.476,judgeSpeechMusic_20210519_logNormShiftAmp_mXs,2020.1.2,MacIntel,60,,,,,,,,,,,,,,2,5.7311,,0,0,83,83,47,1,stimuli/stim_20210519_power2amp/equal_lnn_AM1Hz_s55_4.m4a,,,
,,,,,,,,,,,,34212,2021-06-23_14h56.05.476,judgeSpeechMusic_20210519_logNormShiftAmp_mXs,2020.1.2,MacIntel,60,,,,,,,,,,,,,,2,5.5764,,0,0,84,84,117,1,stimuli/stim_20210519_power2amp/equal_lnn_AM4Hz_s25_34.m4a,,,
,,,,,,,,,,,,34212,2021-06-23_14h56.05.476,judgeSpeechMusic_20210519_logNormShiftAmp_mXs,2020.1.2,MacIntel,60,,,,,,,,,,,,,,2,5.7282,,0,0,85,85,148,1,stimuli/stim_20210519_power2amp/equal_lnn_AM4Hz_s55_10.m4a,,,
,,,,,,,,,,,,34212,2021-06-23_14h56.05.476,judgeSpeechMusic_20210519_logNormShiftAmp_mXs,2020.1.2,MacIntel,60,,,,,,,,,,,,,,1,5.827,,0,0,86,86,12,1,stimuli/stim_20210519_power2amp/equal_lnn_AM1Hz_s25_6.m4a,,,
,,,,,,,,,,,,34212,2021-06-23_14h56.05.476,judgeSpeechMusic_20210519_logNormShiftAmp_mXs,2020.1.2,MacIntel,60,,,,,,,,,,,,,,1,5.7415,,0,0,87,87,32,1,stimuli/stim_20210519_power2amp/equal_lnn_AM1Hz_s45_3.m4a,,,
,,,,,,,,,,,,34212,2021-06-23_14h56.05.476,judgeSpeechMusic_20210519_logNormShiftAmp_mXs,2020.1.2,MacIntel,60,,,,,,,,,,,,,,2,5.7586,,0,0,88,88,90,1,stimuli/stim_20210519_power2amp/equal_lnn_AM2.5Hz_s55_25.m4a,,,
,,,,,,,,,,,,34212,2021-06-23_14h56.05.476,judgeSpeechMusic_20210519_logNormShiftAmp_mXs,2020.1.2,MacIntel,60,,,,,,,,,,,,,,2,5.5467,,0,0,89,89,64,1,stimuli/stim_20210519_power2amp/equal_lnn_AM2.5Hz_s25_41.m4a,,,
,,,,,,,,,,,,34212,2021-06-23_14h56.05.476,judgeSpeechMusic_20210519_logNormShiftAmp_mXs,2020.1.2,MacIntel,60,,,,,,,,,,,,,,2,5.6295,,0,0,90,90,84,1,stimuli/stim_20210519_power2amp/equal_lnn_AM2.5Hz_s45_41.m4a,,,
,,,,,,,,,,,,34212,2021-06-23_14h56.05.476,judgeSpeechMusic_20210519_logNormShiftAmp_mXs,2020.1.2,MacIntel,60,,,,,,,,,,,,,,2,5.5802,,0,0,91,91,53,1,stimuli/stim_20210519_power2amp/equal_lnn_AM2.5Hz_s15_44.m4a,,,
,,,,,,,,,,,,34212,2021-06-23_14h56.05.476,judgeSpeechMusic_20210519_logNormShiftAmp_mXs,2020.1.2,MacIntel,60,,,,,,,,,,,,,,1,5.5799,,0,0,92,92,39,1,stimuli/stim_20210519_power2amp/equal_lnn_AM1Hz_s45_2.m4a,,,
,,,,,,,,,,,,34212,2021-06-23_14h56.05.476,judgeSpeechMusic_20210519_logNormShiftAmp_mXs,2020.1.2,MacIntel,60,,,,,,,,,,,,,,1,5.6121,,0,0,93,93,98,1,stimuli/stim_20210519_power2amp/equal_lnn_AM2.5Hz_s55_12.m4a,,,
,,,,,,,,,,,,34212,2021-06-23_14h56.05.476,judgeSpeechMusic_20210519_logNormShiftAmp_mXs,2020.1.2,MacIntel,60,,,,,,,,,,,,,,1,5.6263,,0,0,94,94,60,1,stimuli/stim_20210519_power2amp/equal_lnn_AM2.5Hz_s25_37.m4a,,,
,,,,,,,,,,,,34212,2021-06-23_14h56.05.476,judgeSpeechMusic_20210519_logNormShiftAmp_mXs,2020.1.2,MacIntel,60,,,,,,,,,,,,,,2,5.9111,,0,0,95,95,71,1,stimuli/stim_20210519_power2amp/equal_lnn_AM2.5Hz_s35_22.m4a,,,
,,,,,,,,,,,,34212,2021-06-23_14h56.05.476,judgeSpeechMusic_20210519_logNormShiftAmp_mXs,2020.1.2,MacIntel,60,,,,,,,,,,,,,,2,5.5779,,0,0,96,96,76,1,stimuli/stim_20210519_power2amp/equal_lnn_AM2.5Hz_s35_26.m4a,,,
,,,,,,,,,,,,34212,2021-06-23_14h56.05.476,judgeSpeechMusic_20210519_logNormShiftAmp_mXs,2020.1.2,MacIntel,60,,,,,,,,,,,,,,1,5.6129,,0,0,97,97,10,1,stimuli/stim_20210519_power2amp/equal_lnn_AM1Hz_s25_32.m4a,,,
,,,,,,,,,,,,34212,2021-06-23_14h56.05.476,judgeSpeechMusic_20210519_logNormShiftAmp_mXs,2020.1.2,MacIntel,60,,,,,,,,,,,,,,2,5.8943,,0,0,98,98,69,1,stimuli/stim_20210519_power2amp/equal_lnn_AM2.5Hz_s25_44.m4a,,,
,,,,,,,,,,,,34212,2021-06-23_14h56.05.476,judgeSpeechMusic_20210519_logNormShiftAmp_mXs,2020.1.2,MacIntel,60,,,,,,,,,,,,,,1,5.7779,,0,0,99,99,133,1,stimuli/stim_20210519_power2amp/equal_lnn_AM4Hz_s45_41.m4a,,,
,,,,,,,,,,,,34212,2021-06-23_14h56.05.476,judgeSpeechMusic_20210519_logNormShiftAmp_mXs,2020.1.2,MacIntel,60,,,,,,,,,,,,,,2,7.9572,,0,0,100,100,50,1,stimuli/stim_20210519_power2amp/equal_lnn_AM2.5Hz_s15_46.m4a,,,
,,,,,,,,,,,,34212,2021-06-23_14h56.05.476,judgeSpeechMusic_20210519_logNormShiftAmp_mXs,2020.1.2,MacIntel,60,,,,,,,,,,,,,,1,5.6194,,0,0,101,101,20,1,stimuli/stim_20210519_power2amp/equal_lnn_AM1Hz_s35_35.m4a,,,
,,,,,,,,,,,,34212,2021-06-23_14h56.05.476,judgeSpeechMusic_20210519_logNormShiftAmp_mXs,2020.1.2,MacIntel,60,,,,,,,,,,,,,,2,5.8249,,0,0,102,102,87,1,stimuli/stim_20210519_power2amp/equal_lnn_AM2.5Hz_s45_38.m4a,,,
,,,,,,,,,,,,34212,2021-06-23_14h56.05.476,judgeSpeechMusic_20210519_logNormShiftAmp_mXs,2020.1.2,MacIntel,60,,,,,,,,,,,,,,1,5.6595,1,1,0,103,103,11,1,stimuli/stim_20210519_power2amp/equal_lnn_AM1Hz_s25_7.m4a,0.9242,,
,,,,,,,,,,,,34212,2021-06-23_14h56.05.476,judgeSpeechMusic_20210519_logNormShiftAmp_mXs,2020.1.2,MacIntel,60,,,,,,,,,,,,,,1,5.6422,,0,0,104,104,92,1,stimuli/stim_20210519_power2amp/equal_lnn_AM2.5Hz_s55_32.m4a,,,
,,,,,,,,,,,,34212,2021-06-23_14h56.05.476,judgeSpeechMusic_20210519_logNormShiftAmp_mXs,2020.1.2,MacIntel,60,,,,,,,,,,,,,,2,5.5811,,0,0,105,105,91,1,stimuli/stim_20210519_power2amp/equal_lnn_AM2.5Hz_s55_28.m4a,,,
,,,,,,,,,,,,34212,2021-06-23_14h56.05.476,judgeSpeechMusic_20210519_logNormShiftAmp_mXs,2020.1.2,MacIntel,60,,,,,,,,,,,,,,2,5.6759,,0,0,106,106,67,1,stimuli/stim_20210519_power2amp/equal_lnn_AM2.5Hz_s25_5.m4a,,,
,,,,,,,,,,,,34212,2021-06-23_14h56.05.476,judgeSpeechMusic_20210519_logNormShiftAmp_mXs,2020.1.2,MacIntel,60,,,,,,,,,,,,,,2,5.5648,,0,0,107,107,97,1,stimuli/stim_20210519_power2amp/equal_lnn_AM2.5Hz_s55_45.m4a,,,
,,,,,,,,,,,,34212,2021-06-23_14h56.05.476,judgeSpeechMusic_20210519_logNormShiftAmp_mXs,2020.1.2,MacIntel,60,,,,,,,,,,,,,,2,5.8647,,0,0,108,108,129,1,stimuli/stim_20210519_power2amp/equal_lnn_AM4Hz_s35_9.m4a,,,
,,,,,,,,,,,,34212,2021-06-23_14h56.05.476,judgeSpeechMusic_20210519_logNormShiftAmp_mXs,2020.1.2,MacIntel,60,,,,,,,,,,,,,,1,5.7077,,0,0,109,109,0,1,stimuli/stim_20210519_power2amp/equal_lnn_AM1Hz_s15_36.m4a,,,
,,,,,,,,,,,,34212,2021-06-23_14h56.05.476,judgeSpeechMusic_20210519_logNormShiftAmp_mXs,2020.1.2,MacIntel,60,,,,,,,,,,,,,,2,6.5953,,0,0,110,110,137,1,stimuli/stim_20210519_power2amp/equal_lnn_AM4Hz_s45_32.m4a,,,
,,,,,,,,,,,,34212,2021-06-23_14h56.05.476,judgeSpeechMusic_20210519_logNormShiftAmp_mXs,2020.1.2,MacIntel,60,,,,,,,,,,,,,,2,5.592,,0,0,111,111,80,1,stimuli/stim_20210519_power2amp/equal_lnn_AM2.5Hz_s45_28.m4a,,,
,,,,,,,,,,,,34212,2021-06-23_14h56.05.476,judgeSpeechMusic_20210519_logNormShiftAmp_mXs,2020.1.2,MacIntel,60,,,,,,,,,,,,,,2,5.5443,,0,0,112,112,119,1,stimuli/stim_20210519_power2amp/equal_lnn_AM4Hz_s25_3.m4a,,,
,,,,,,,,,,,,34212,2021-06-23_14h56.05.476,judgeSpeechMusic_20210519_logNormShiftAmp_mXs,2020.1.2,MacIntel,60,,,,,,,,,,,,,,1,5.7726,,0,0,113,113,88,1,stimuli/stim_20210519_power2amp/equal_lnn_AM2.5Hz_s45_19.m4a,,,
,,,,,,,,,,,,34212,2021-06-23_14h56.05.476,judgeSpeechMusic_20210519_logNormShiftAmp_mXs,2020.1.2,MacIntel,60,,,,,,,,,,,,,,2,5.8283,,0,0,114,114,139,1,stimuli/stim_20210519_power2amp/equal_lnn_AM4Hz_s45_30.m4a,,,
,,,,,,,,,,,,34212,2021-06-23_14h56.05.476,judgeSpeechMusic_20210519_logNormShiftAmp_mXs,2020.1.2,MacIntel,60,,,,,,,,,,,,,,1,5.6085,,0,0,115,115,41,1,stimuli/stim_20210519_power2amp/equal_lnn_AM1Hz_s55_11.m4a,,,
,,,,,,,,,,,,34212,2021-06-23_14h56.05.476,judgeSpeechMusic_20210519_logNormShiftAmp_mXs,2020.1.2,MacIntel,60,,,,,,,,,,,,,,2,5.7255,,0,0,116,116,93,1,stimuli/stim_20210519_power2amp/equal_lnn_AM2.5Hz_s55_9.m4a,,,
,,,,,,,,,,,,34212,2021-06-23_14h56.05.476,judgeSpeechMusic_20210519_logNormShiftAmp_mXs,2020.1.2,MacIntel,60,,,,,,,,,,,,,,2,5.6222,,0,0,117,117,126,1,stimuli/stim_20210519_power2amp/equal_lnn_AM4Hz_s35_49.m4a,,,
,,,,,,,,,,,,34212,2021-06-23_14h56.05.476,judgeSpeechMusic_20210519_logNormShiftAmp_mXs,2020.1.2,MacIntel,60,,,,,,,,,,,,,,2,5.6619,,0,0,118,118,145,1,stimuli/stim_20210519_power2amp/equal_lnn_AM4Hz_s55_6.m4a,,,
,,,,,,,,,,,,34212,2021-06-23_14h56.05.476,judgeSpeechMusic_20210519_logNormShiftAmp_mXs,2020.1.2,MacIntel,60,,,,,,,,,,,,,,1,5.6244,,0,0,119,119,26,1,stimuli/stim_20210519_power2amp/equal_lnn_AM1Hz_s35_36.m4a,,,
,,,,,,,,,,,,34212,2021-06-23_14h56.05.476,judgeSpeechMusic_20210519_logNormShiftAmp_mXs,2020.1.2,MacIntel,60,,,,,,,,,,,,,,1,5.6431,,0,0,120,120,65,1,stimuli/stim_20210519_power2amp/equal_lnn_AM2.5Hz_s25_33.m4a,,,
,,,,,,,,,,,,34212,2021-06-23_14h56.05.476,judgeSpeechMusic_20210519_logNormShiftAmp_mXs,2020.1.2,MacIntel,60,,,,,,,,,,,,,,2,5.777,,0,0,121,121,141,1,stimuli/stim_20210519_power2amp/equal_lnn_AM4Hz_s55_12.m4a,,,
,,,,,,,,,,,,34212,2021-06-23_14h56.05.476,judgeSpeechMusic_20210519_logNormShiftAmp_mXs,2020.1.2,MacIntel,60,,,,,,,,,,,,,,1,5.7597,,0,0,122,122,143,1,stimuli/stim_20210519_power2amp/equal_lnn_AM4Hz_s55_24.m4a,,,
,,,,,,,,,,,,34212,2021-06-23_14h56.05.476,judgeSpeechMusic_20210519_logNormShiftAmp_mXs,2020.1.2,MacIntel,60,,,,,,,,,,,,,,1,5.661,1,1,0,123,123,58,1,stimuli/stim_20210519_power2amp/equal_lnn_AM2.5Hz_s15_37.m4a,1.4455,,
,,,,,,,,,,,,34212,2021-06-23_14h56.05.476,judgeSpeechMusic_20210519_logNormShiftAmp_mXs,2020.1.2,MacIntel,60,,,,,,,,,,,,,,1,5.5606,,0,0,124,124,5,1,stimuli/stim_20210519_power2amp/equal_lnn_AM1Hz_s15_15.m4a,,,
,,,,,,,,,,,,34212,2021-06-23_14h56.05.476,judgeSpeechMusic_20210519_logNormShiftAmp_mXs,2020.1.2,MacIntel,60,,,,,,,,,,,,,,1,5.6256,,0,0,125,125,24,1,stimuli/stim_20210519_power2amp/equal_lnn_AM1Hz_s35_43.m4a,,,
,,,,,,,,,,,,34212,2021-06-23_14h56.05.476,judgeSpeechMusic_20210519_logNormShiftAmp_mXs,2020.1.2,MacIntel,60,,,,,,,,,,,,,,2,5.9131,,0,0,126,126,105,1,stimuli/stim_20210519_power2amp/equal_lnn_AM4Hz_s15_16.m4a,,,
,,,,,,,,,,,,34212,2021-06-23_14h56.05.476,judgeSpeechMusic_20210519_logNormShiftAmp_mXs,2020.1.2,MacIntel,60,,,,,,,,,,,,,,1,5.9582,,0,0,127,127,36,1,stimuli/stim_20210519_power2amp/equal_lnn_AM1Hz_s45_4.m4a,,,
,,,,,,,,,,,,34212,2021-06-23_14h56.05.476,judgeSpeechMusic_20210519_logNormShiftAmp_mXs,2020.1.2,MacIntel,60,,,,,,,,,,,,,,2,5.5926,,0,0,128,128,73,1,stimuli/stim_20210519_power2amp/equal_lnn_AM2.5Hz_s35_17.m4a,,,
,,,,,,,,,,,,34212,2021-06-23_14h56.05.476,judgeSpeechMusic_20210519_logNormShiftAmp_mXs,2020.1.2,MacIntel,60,,,,,,,,,,,,,,2,5.6251,,0,0,129,129,149,1,stimuli/stim_20210519_power2amp/equal_lnn_AM4Hz_s55_22.m4a,,,
,,,,,,,,,,,,34212,2021-06-23_14h56.05.476,judgeSpeechMusic_20210519_logNormShiftAmp_mXs,2020.1.2,MacIntel,60,,,,,,,,,,,,,,2,5.6425,,0,0,130,130,95,1,stimuli/stim_20210519_power2amp/equal_lnn_AM2.5Hz_s55_33.m4a,,,
,,,,,,,,,,,,34212,2021-06-23_14h56.05.476,judgeSpeechMusic_20210519_logNormShiftAmp_mXs,2020.1.2,MacIntel,60,,,,,,,,,,,,,,1,6.0865,,0,0,131,131,66,1,stimuli/stim_20210519_power2amp/equal_lnn_AM2.5Hz_s25_6.m4a,,,
,,,,,,,,,,,,34212,2021-06-23_14h56.05.476,judgeSpeechMusic_20210519_logNormShiftAmp_mXs,2020.1.2,MacIntel,60,,,,,,,,,,,,,,1,5.6116,,0,0,132,132,22,1,stimuli/stim_20210519_power2amp/equal_lnn_AM1Hz_s35_46.m4a,,,
,,,,,,,,,,,,34212,2021-06-23_14h56.05.476,judgeSpeechMusic_20210519_logNormShiftAmp_mXs,2020.1.2,MacIntel,60,,,,,,,,,,,,,,1,5.527,,0,0,133,133,27,1,stimuli/stim_20210519_power2amp/equal_lnn_AM1Hz_s35_26.m4a,,,
,,,,,,,,,,,,34212,2021-06-23_14h56.05.476,judgeSpeechMusic_20210519_logNormShiftAmp_mXs,2020.1.2,MacIntel,60,,,,,,,,,,,,,,2,5.8899,,0,0,134,134,35,1,stimuli/stim_20210519_power2amp/equal_lnn_AM1Hz_s45_24.m4a,,,
,,,,,,,,,,,,34212,2021-06-23_14h56.05.476,judgeSpeechMusic_20210519_logNormShiftAmp_mXs,2020.1.2,MacIntel,60,,,,,,,,,,,,,,2,5.514,,0,0,135,135,128,1,stimuli/stim_20210519_power2amp/equal_lnn_AM4Hz_s35_21.m4a,,,
,,,,,,,,,,,,34212,2021-06-23_14h56.05.476,judgeSpeechMusic_20210519_logNormShiftAmp_mXs,2020.1.2,MacIntel,60,,,,,,,,,,,,,,2,5.8902,,0,0,136,136,125,1,stimuli/stim_20210519_power2amp/equal_lnn_AM4Hz_s35_47.m4a,,,
,,,,,,,,,,,,34212,2021-06-23_14h56.05.476,judgeSpeechMusic_20210519_logNormShiftAmp_mXs,2020.1.2,MacIntel,60,,,,,,,,,,,,,,1,5.5789,,0,0,137,137,23,1,stimuli/stim_20210519_power2amp/equal_lnn_AM1Hz_s35_21.m4a,,,
,,,,,,,,,,,,34212,2021-06-23_14h56.05.476,judgeSpeechMusic_20210519_logNormShiftAmp_mXs,2020.1.2,MacIntel,60,,,,,,,,,,,,,,1,5.5968,,0,0,138,138,2,1,stimuli/stim_20210519_power2amp/equal_lnn_AM1Hz_s15_50.m4a,,,
,,,,,,,,,,,,34212,2021-06-23_14h56.05.476,judgeSpeechMusic_20210519_logNormShiftAmp_mXs,2020.1.2,MacIntel,60,,,,,,,,,,,,,,2,6.0094,,0,0,139,139,123,1,stimuli/stim_20210519_power2amp/equal_lnn_AM4Hz_s35_24.m4a,,,
,,,,,,,,,,,,34212,2021-06-23_14h56.05.476,judgeSpeechMusic_20210519_logNormShiftAmp_mXs,2020.1.2,MacIntel,60,,,,,,,,,,,,,,1,5.5938,,0,0,140,140,30,1,stimuli/stim_20210519_power2amp/equal_lnn_AM1Hz_s45_49.m4a,,,
,,,,,,,,,,,,34212,2021-06-23_14h56.05.476,judgeSpeechMusic_20210519_logNormShiftAmp_mXs,2020.1.2,MacIntel,60,,,,,,,,,,,,,,1,5.6434,,0,0,141,141,18,1,stimuli/stim_20210519_power2amp/equal_lnn_AM1Hz_s25_40.m4a,,,
,,,,,,,,,,,,34212,2021-06-23_14h56.05.476,judgeSpeechMusic_20210519_logNormShiftAmp_mXs,2020.1.2,MacIntel,60,,,,,,,,,,,,,,1,5.6045,,0,0,142,142,28,1,stimuli/stim_20210519_power2amp/equal_lnn_AM1Hz_s35_44.m4a,,,
,,,,,,,,,,,,34212,2021-06-23_14h56.05.476,judgeSpeechMusic_20210519_logNormShiftAmp_mXs,2020.1.2,MacIntel,60,,,,,,,,,,,,,,2,5.7891,,0,0,143,143,86,1,stimuli/stim_20210519_power2amp/equal_lnn_AM2.5Hz_s45_11.m4a,,,
,,,,,,,,,,,,34212,2021-06-23_14h56.05.476,judgeSpeechMusic_20210519_logNormShiftAmp_mXs,2020.1.2,MacIntel,60,,,,,,,,,,,,,,1,5.9417,,0,0,144,144,43,1,stimuli/stim_20210519_power2amp/equal_lnn_AM1Hz_s55_19.m4a,,,
,,,,,,,,,,,,34212,2021-06-23_14h56.05.476,judgeSpeechMusic_20210519_logNormShiftAmp_mXs,2020.1.2,MacIntel,60,,,,,,,,,,,,,,2,5.6265,1,1,0,145,145,52,1,stimuli/stim_20210519_power2amp/equal_lnn_AM2.5Hz_s15_25.m4a,1.1039,,
,,,,,,,,,,,,34212,2021-06-23_14h56.05.476,judgeSpeechMusic_20210519_logNormShiftAmp_mXs,2020.1.2,MacIntel,60,,,,,,,,,,,,,,2,7.0943,,0,0,146,146,132,1,stimuli/stim_20210519_power2amp/equal_lnn_AM4Hz_s45_13.m4a,,,
,,,,,,,,,,,,34212,2021-06-23_14h56.05.476,judgeSpeechMusic_20210519_logNormShiftAmp_mXs,2020.1.2,MacIntel,60,,,,,,,,,,,,,,2,6.731,,0,0,147,147,131,1,stimuli/stim_20210519_power2amp/equal_lnn_AM4Hz_s45_33.m4a,,,
,,,,,,,,,,,,34212,2021-06-23_14h56.05.476,judgeSpeechMusic_20210519_logNormShiftAmp_mXs,2020.1.2,MacIntel,60,,,,,,,,,,,,,,2,5.6427,,0,0,148,148,110,1,stimuli/stim_20210519_power2amp/equal_lnn_AM4Hz_s25_43.m4a,,,
,,,,,,,,,,,,34212,2021-06-23_14h56.05.476,judgeSpeechMusic_20210519_logNormShiftAmp_mXs,2020.1.2,MacIntel,60,,,,,,,,,,,,,,2,5.6078,,0,0,149,149,136,1,stimuli/stim_20210519_power2amp/equal_lnn_AM4Hz_s45_27.m4a,,,
,,,,,,,,,,,,34212,2021-06-23_14h56.05.476,judgeSpeechMusic_20210519_logNormShiftAmp_mXs,2020.1.2,MacIntel,60,,,,,,,,,,,,,,2,5.5911,,0,1,0,150,76,1,stimuli/stim_20210519_power2amp/equal_lnn_AM2.5Hz_s35_26.m4a,,,
,,,,,,,,,,,,34212,2021-06-23_14h56.05.476,judgeSpeechMusic_20210519_logNormShiftAmp_mXs,2020.1.2,MacIntel,60,,,,,,,,,,,,,,1,5.7775,,0,1,1,151,73,1,stimuli/stim_20210519_power2amp/equal_lnn_AM2.5Hz_s35_17.m4a,,,
,,,,,,,,,,,,34212,2021-06-23_14h56.05.476,judgeSpeechMusic_20210519_logNormShiftAmp_mXs,2020.1.2,MacIntel,60,,,,,,,,,,,,,,2,5.6303,,0,1,2,152,108,1,stimuli/stim_20210519_power2amp/equal_lnn_AM4Hz_s15_21.m4a,,,
,,,,,,,,,,,,34212,2021-06-23_14h56.05.476,judgeSpeechMusic_20210519_logNormShiftAmp_mXs,2020.1.2,MacIntel,60,,,,,,,,,,,,,,1,5.6234,,0,1,3,153,11,1,stimuli/stim_20210519_power2amp/equal_lnn_AM1Hz_s25_7.m4a,,,
,,,,,,,,,,,,34212,2021-06-23_14h56.05.476,judgeSpeechMusic_20210519_logNormShiftAmp_mXs,2020.1.2,MacIntel,60,,,,,,,,,,,,,,2,5.6291,,0,1,4,154,105,1,stimuli/stim_20210519_power2amp/equal_lnn_AM4Hz_s15_16.m4a,,,
,,,,,,,,,,,,34212,2021-06-23_14h56.05.476,judgeSpeechMusic_20210519_logNormShiftAmp_mXs,2020.1.2,MacIntel,60,,,,,,,,,,,,,,1,5.78,,0,1,5,155,88,1,stimuli/stim_20210519_power2amp/equal_lnn_AM2.5Hz_s45_19.m4a,,,
,,,,,,,,,,,,34212,2021-06-23_14h56.05.476,judgeSpeechMusic_20210519_logNormShiftAmp_mXs,2020.1.2,MacIntel,60,,,,,,,,,,,,,,2,5.6118,,0,1,6,156,126,1,stimuli/stim_20210519_power2amp/equal_lnn_AM4Hz_s35_49.m4a,,,
,,,,,,,,,,,,34212,2021-06-23_14h56.05.476,judgeSpeechMusic_20210519_logNormShiftAmp_mXs,2020.1.2,MacIntel,60,,,,,,,,,,,,,,1,5.7181,,0,1,7,157,0,1,stimuli/stim_20210519_power2amp/equal_lnn_AM1Hz_s15_36.m4a,,,
,,,,,,,,,,,,34212,2021-06-23_14h56.05.476,judgeSpeechMusic_20210519_logNormShiftAmp_mXs,2020.1.2,MacIntel,60,,,,,,,,,,,,,,2,5.5581,,0,1,8,158,84,1,stimuli/stim_20210519_power2amp/equal_lnn_AM2.5Hz_s45_41.m4a,,,
,,,,,,,,,,,,34212,2021-06-23_14h56.05.476,judgeSpeechMusic_20210519_logNormShiftAmp_mXs,2020.1.2,MacIntel,60,,,,,,,,,,,,,,2,5.5924,,0,1,9,159,140,1,stimuli/stim_20210519_power2amp/equal_lnn_AM4Hz_s55_31.m4a,,,
,,,,,,,,,,,,34212,2021-06-23_14h56.05.476,judgeSpeechMusic_20210519_logNormShiftAmp_mXs,2020.1.2,MacIntel,60,,,,,,,,,,,,,,2,5.6117,,0,1,10,160,104,1,stimuli/stim_20210519_power2amp/equal_lnn_AM4Hz_s15_8.m4a,,,
,,,,,,,,,,,,34212,2021-06-23_14h56.05.476,judgeSpeechMusic_20210519_logNormShiftAmp_mXs,2020.1.2,MacIntel,60,,,,,,,,,,,,,,2,5.6414,,0,1,11,161,138,1,stimuli/stim_20210519_power2amp/equal_lnn_AM4Hz_s45_31.m4a,,,
,,,,,,,,,,,,34212,2021-06-23_14h56.05.476,judgeSpeechMusic_20210519_logNormShiftAmp_mXs,2020.1.2,MacIntel,60,,,,,,,,,,,,,,1,5.6166,,0,1,12,162,5,1,stimuli/stim_20210519_power2amp/equal_lnn_AM1Hz_s15_15.m4a,,,
,,,,,,,,,,,,34212,2021-06-23_14h56.05.476,judgeSpeechMusic_20210519_logNormShiftAmp_mXs,2020.1.2,MacIntel,60,,,,,,,,,,,,,,1,5.6735,,0,1,13,163,40,1,stimuli/stim_20210519_power2amp/equal_lnn_AM1Hz_s55_15.m4a,,,
,,,,,,,,,,,,34212,2021-06-23_14h56.05.476,judgeSpeechMusic_20210519_logNormShiftAmp_mXs,2020.1.2,MacIntel,60,,,,,,,,,,,,,,2,5.595,,0,1,14,164,52,1,stimuli/stim_20210519_power2amp/equal_lnn_AM2.5Hz_s15_25.m4a,,,
,,,,,,,,,,,,34212,2021-06-23_14h56.05.476,judgeSpeechMusic_20210519_logNormShiftAmp_mXs,2020.1.2,MacIntel,60,,,,,,,,,,,,,,2,5.5816,,0,1,15,165,125,1,stimuli/stim_20210519_power2amp/equal_lnn_AM4Hz_s35_47.m4a,,,
,,,,,,,,,,,,34212,2021-06-23_14h56.05.476,judgeSpeechMusic_20210519_logNormShiftAmp_mXs,2020.1.2,MacIntel,60,,,,,,,,,,,,,,2,6.1917,,0,1,16,166,106,1,stimuli/stim_20210519_power2amp/equal_lnn_AM4Hz_s15_5.m4a,,,
,,,,,,,,,,,,34212,2021-06-23_14h56.05.476,judgeSpeechMusic_20210519_logNormShiftAmp_mXs,2020.1.2,MacIntel,60,,,,,,,,,,,,,,2,5.7979,,0,1,17,167,142,1,stimuli/stim_20210519_power2amp/equal_lnn_AM4Hz_s55_21.m4a,,,
,,,,,,,,,,,,34212,2021-06-23_14h56.05.476,judgeSpeechMusic_20210519_logNormShiftAmp_mXs,2020.1.2,MacIntel,60,,,,,,,,,,,,,,1,6.8605,,0,1,18,168,9,1,stimuli/stim_20210519_power2amp/equal_lnn_AM1Hz_s15_27.m4a,,,
,,,,,,,,,,,,34212,2021-06-23_14h56.05.476,judgeSpeechMusic_20210519_logNormShiftAmp_mXs,2020.1.2,MacIntel,60,,,,,,,,,,,,,,2,6.7791,3,1,1,19,169,68,1,stimuli/stim_20210519_power2amp/equal_lnn_AM2.5Hz_s25_10.m4a,1.0583,,
,,,,,,,,,,,,34212,2021-06-23_14h56.05.476,judgeSpeechMusic_20210519_logNormShiftAmp_mXs,2020.1.2,MacIntel,60,,,,,,,,,,,,,,2,5.6595,,0,1,20,170,86,1,stimuli/stim_20210519_power2amp/equal_lnn_AM2.5Hz_s45_11.m4a,,,
,,,,,,,,,,,,34212,2021-06-23_14h56.05.476,judgeSpeechMusic_20210519_logNormShiftAmp_mXs,2020.1.2,MacIntel,60,,,,,,,,,,,,,,2,5.5933,,0,1,21,171,71,1,stimuli/stim_20210519_power2amp/equal_lnn_AM2.5Hz_s35_22.m4a,,,
,,,,,,,,,,,,34212,2021-06-23_14h56.05.476,judgeSpeechMusic_20210519_logNormShiftAmp_mXs,2020.1.2,MacIntel,60,,,,,,,,,,,,,,2,5.5758,,0,1,22,172,89,1,stimuli/stim_20210519_power2amp/equal_lnn_AM2.5Hz_s45_24.m4a,,,
,,,,,,,,,,,,34212,2021-06-23_14h56.05.476,judgeSpeechMusic_20210519_logNormShiftAmp_mXs,2020.1.2,MacIntel,60,,,,,,,,,,,,,,1,5.6107,,0,1,23,173,28,1,stimuli/stim_20210519_power2amp/equal_lnn_AM1Hz_s35_44.m4a,,,
,,,,,,,,,,,,34212,2021-06-23_14h56.05.476,judgeSpeechMusic_20210519_logNormShiftAmp_mXs,2020.1.2,MacIntel,60,,,,,,,,,,,,,,2,5.6102,,0,1,24,174,60,1,stimuli/stim_20210519_power2amp/equal_lnn_AM2.5Hz_s25_37.m4a,,,
,,,,,,,,,,,,34212,2021-06-23_14h56.05.476,judgeSpeechMusic_20210519_logNormShiftAmp_mXs,2020.1.2,MacIntel,60,,,,,,,,,,,,,,2,5.5916,,0,1,25,175,113,1,stimuli/stim_20210519_power2amp/equal_lnn_AM4Hz_s25_19.m4a,,,
,,,,,,,,,,,,34212,2021-06-23_14h56.05.476,judgeSpeechMusic_20210519_logNormShiftAmp_mXs,2020.1.2,MacIntel,60,,,,,,,,,,,,,,1,5.8267,,0,1,26,176,8,1,stimuli/stim_20210519_power2amp/equal_lnn_AM1Hz_s15_35.m4a,,,
,,,,,,,,,,,,34212,2021-06-23_14h56.05.476,judgeSpeechMusic_20210519_logNormShiftAmp_mXs,2020.1.2,MacIntel,60,,,,,,,,,,,,,,1,5.6732,,0,1,27,177,12,1,stimuli/stim_20210519_power2amp/equal_lnn_AM1Hz_s25_6.m4a,,,
,,,,,,,,,,,,34212,2021-06-23_14h56.05.476,judgeSpeechMusic_20210519_logNormShiftAmp_mXs,2020.1.2,MacIntel,60,,,,,,,,,,,,,,2,5.8271,,0,1,28,178,47,1,stimuli/stim_20210519_power2amp/equal_lnn_AM1Hz_s55_4.m4a,,,
,,,,,,,,,,,,34212,2021-06-23_14h56.05.476,judgeSpeechMusic_20210519_logNormShiftAmp_mXs,2020.1.2,MacIntel,60,,,,,,,,,,,,,,2,5.5926,,0,1,29,179,91,1,stimuli/stim_20210519_power2amp/equal_lnn_AM2.5Hz_s55_28.m4a,,,
,,,,,,,,,,,,34212,2021-06-23_14h56.05.476,judgeSpeechMusic_20210519_logNormShiftAmp_mXs,2020.1.2,MacIntel,60,,,,,,,,,,,,,,2,5.5649,,0,1,30,180,112,1,stimuli/stim_20210519_power2amp/equal_lnn_AM4Hz_s25_29.m4a,,,
,,,,,,,,,,,,34212,2021-06-23_14h56.05.476,judgeSpeechMusic_20210519_logNormShiftAmp_mXs,2020.1.2,MacIntel,60,,,,,,,,,,,,,,1,5.896,,0,1,31,181,42,1,stimuli/stim_20210519_power2amp/equal_lnn_AM1Hz_s55_47.m4a,,,
,,,,,,,,,,,,34212,2021-06-23_14h56.05.476,judgeSpeechMusic_20210519_logNormShiftAmp_mXs,2020.1.2,MacIntel,60,,,,,,,,,,,,,,1,5.691,,0,1,32,182,46,1,stimuli/stim_20210519_power2amp/equal_lnn_AM1Hz_s55_50.m4a,,,
,,,,,,,,,,,,34212,2021-06-23_14h56.05.476,judgeSpeechMusic_20210519_logNormShiftAmp_mXs,2020.1.2,MacIntel,60,,,,,,,,,,,,,,1,5.6455,,0,1,33,183,14,1,stimuli/stim_20210519_power2amp/equal_lnn_AM1Hz_s25_8.m4a,,,
,,,,,,,,,,,,34212,2021-06-23_14h56.05.476,judgeSpeechMusic_20210519_logNormShiftAmp_mXs,2020.1.2,MacIntel,60,,,,,,,,,,,,,,2,6.3776,,0,1,34,184,74,1,stimuli/stim_20210519_power2amp/equal_lnn_AM2.5Hz_s35_44.m4a,,,
,,,,,,,,,,,,34212,2021-06-23_14h56.05.476,judgeSpeechMusic_20210519_logNormShiftAmp_mXs,2020.1.2,MacIntel,60,,,,,,,,,,,,,,2,5.6081,,0,1,35,185,111,1,stimuli/stim_20210519_power2amp/equal_lnn_AM4Hz_s25_16.m4a,,,
,,,,,,,,,,,,34212,2021-06-23_14h56.05.476,judgeSpeechMusic_20210519_logNormShiftAmp_mXs,2020.1.2,MacIntel,60,,,,,,,,,,,,,,1,5.5958,,0,1,36,186,20,1,stimuli/stim_20210519_power2amp/equal_lnn_AM1Hz_s35_35.m4a,,,
,,,,,,,,,,,,34212,2021-06-23_14h56.05.476,judgeSpeechMusic_20210519_logNormShiftAmp_mXs,2020.1.2,MacIntel,60,,,,,,,,,,,,,,2,5.7097,,0,1,37,187,102,1,stimuli/stim_20210519_power2amp/equal_lnn_AM4Hz_s15_44.m4a,,,
,,,,,,,,,,,,34212,2021-06-23_14h56.05.476,judgeSpeechMusic_20210519_logNormShiftAmp_mXs,2020.1.2,MacIntel,60,,,,,,,,,,,,,,2,5.5792,,0,1,38,188,85,1,stimuli/stim_20210519_power2amp/equal_lnn_AM2.5Hz_s45_25.m4a,,,
,,,,,,,,,,,,34212,2021-06-23_14h56.05.476,judgeSpeechMusic_20210519_logNormShiftAmp_mXs,2020.1.2,MacIntel,60,,,,,,,,,,,,,,1,5.6069,,0,1,39,189,45,1,stimuli/stim_20210519_power2amp/equal_lnn_AM1Hz_s55_32.m4a,,,
,,,,,,,,,,,,34212,2021-06-23_14h56.05.476,judgeSpeechMusic_20210519_logNormShiftAmp_mXs,2020.1.2,MacIntel,60,,,,,,,,,,,,,,2,6.0288,,0,1,40,190,128,1,stimuli/stim_20210519_power2amp/equal_lnn_AM4Hz_s35_21.m4a,,,
,,,,,,,,,,,,34212,2021-06-23_14h56.05.476,judgeSpeechMusic_20210519_logNormShiftAmp_mXs,2020.1.2,MacIntel,60,,,,,,,,,,,,,,2,5.8973,,0,1,41,191,64,1,stimuli/stim_20210519_power2amp/equal_lnn_AM2.5Hz_s25_41.m4a,,,
,,,,,,,,,,,,34212,2021-06-23_14h56.05.476,judgeSpeechMusic_20210519_logNormShiftAmp_mXs,2020.1.2,MacIntel,60,,,,,,,,,,,,,,2,5.6059,4,1,1,42,192,134,1,stimuli/stim_20210519_power2amp/equal_lnn_AM4Hz_s45_25.m4a,2.4243,,
,,,,,,,,,,,,34212,2021-06-23_14h56.05.476,judgeSpeechMusic_20210519_logNormShiftAmp_mXs,2020.1.2,MacIntel,60,,,,,,,,,,,,,,1,6.0226,,0,1,43,193,63,1,stimuli/stim_20210519_power2amp/equal_lnn_AM2.5Hz_s25_49.m4a,,,
,,,,,,,,,,,,34212,2021-06-23_14h56.05.476,judgeSpeechMusic_20210519_logNormShiftAmp_mXs,2020.1.2,MacIntel,60,,,,,,,,,,,,,,2,5.6779,,0,1,44,194,133,1,stimuli/stim_20210519_power2amp/equal_lnn_AM4Hz_s45_41.m4a,,,
,,,,,,,,,,,,34212,2021-06-23_14h56.05.476,judgeSpeechMusic_20210519_logNormShiftAmp_mXs,2020.1.2,MacIntel,60,,,,,,,,,,,,,,2,6.3935,,0,1,45,195,92,1,stimuli/stim_20210519_power2amp/equal_lnn_AM2.5Hz_s55_32.m4a,,,
,,,,,,,,,,,,34212,2021-06-23_14h56.05.476,judgeSpeechMusic_20210519_logNormShiftAmp_mXs,2020.1.2,MacIntel,60,,,,,,,,,,,,,,1,5.7437,,0,1,46,196,37,1,stimuli/stim_20210519_power2amp/equal_lnn_AM1Hz_s45_7.m4a,,,
,,,,,,,,,,,,34212,2021-06-23_14h56.05.476,judgeSpeechMusic_20210519_logNormShiftAmp_mXs,2020.1.2,MacIntel,60,,,,,,,,,,,,,,1,5.679,,0,1,47,197,117,1,stimuli/stim_20210519_power2amp/equal_lnn_AM4Hz_s25_34.m4a,,,
,,,,,,,,,,,,34212,2021-06-23_14h56.05.476,judgeSpeechMusic_20210519_logNormShiftAmp_mXs,2020.1.2,MacIntel,60,,,,,,,,,,,,,,1,5.614,,0,1,48,198,35,1,stimuli/stim_20210519_power2amp/equal_lnn_AM1Hz_s45_24.m4a,,,
,,,,,,,,,,,,34212,2021-06-23_14h56.05.476,judgeSpeechMusic_20210519_logNormShiftAmp_mXs,2020.1.2,MacIntel,60,,,,,,,,,,,,,,2,5.7584,,0,1,49,199,148,1,stimuli/stim_20210519_power2amp/equal_lnn_AM4Hz_s55_10.m4a,,,
,,,,,,,,,,,,34212,2021-06-23_14h56.05.476,judgeSpeechMusic_20210519_logNormShiftAmp_mXs,2020.1.2,MacIntel,60,,,,,,,,,,,,,,2,7.2724,,0,1,50,200,44,1,stimuli/stim_20210519_power2amp/equal_lnn_AM1Hz_s55_28.m4a,,,
,,,,,,,,,,,,34212,2021-06-23_14h56.05.476,judgeSpeechMusic_20210519_logNormShiftAmp_mXs,2020.1.2,MacIntel,60,,,,,,,,,,,,,,2,5.8899,,0,1,51,201,59,1,stimuli/stim_20210519_power2amp/equal_lnn_AM2.5Hz_s15_12.m4a,,,
,,,,,,,,,,,,34212,2021-06-23_14h56.05.476,judgeSpeechMusic_20210519_logNormShiftAmp_mXs,2020.1.2,MacIntel,60,,,,,,,,,,,,,,2,5.6584,,0,1,52,202,94,1,stimuli/stim_20210519_power2amp/equal_lnn_AM2.5Hz_s55_23.m4a,,,
,,,,,,,,,,,,34212,2021-06-23_14h56.05.476,judgeSpeechMusic_20210519_logNormShiftAmp_mXs,2020.1.2,MacIntel,60,,,,,,,,,,,,,,1,5.9128,,0,1,53,203,48,1,stimuli/stim_20210519_power2amp/equal_lnn_AM1Hz_s55_27.m4a,,,
,,,,,,,,,,,,34212,2021-06-23_14h56.05.476,judgeSpeechMusic_20210519_logNormShiftAmp_mXs,2020.1.2,MacIntel,60,,,,,,,,,,,,,,1,5.6065,,0,1,54,204,1,1,stimuli/stim_20210519_power2amp/equal_lnn_AM1Hz_s15_14.m4a,,,
,,,,,,,,,,,,34212,2021-06-23_14h56.05.476,judgeSpeechMusic_20210519_logNormShiftAmp_mXs,2020.1.2,MacIntel,60,,,,,,,,,,,,,,1,5.6153,,0,1,55,205,10,1,stimuli/stim_20210519_power2amp/equal_lnn_AM1Hz_s25_32.m4a,,,
,,,,,,,,,,,,34212,2021-06-23_14h56.05.476,judgeSpeechMusic_20210519_logNormShiftAmp_mXs,2020.1.2,MacIntel,60,,,,,,,,,,,,,,2,5.6246,,0,1,56,206,70,1,stimuli/stim_20210519_power2amp/equal_lnn_AM2.5Hz_s35_4.m4a,,,
,,,,,,,,,,,,34212,2021-06-23_14h56.05.476,judgeSpeechMusic_20210519_logNormShiftAmp_mXs,2020.1.2,MacIntel,60,,,,,,,,,,,,,,2,5.6977,,0,1,57,207,137,1,stimuli/stim_20210519_power2amp/equal_lnn_AM4Hz_s45_32.m4a,,,
,,,,,,,,,,,,34212,2021-06-23_14h56.05.476,judgeSpeechMusic_20210519_logNormShiftAmp_mXs,2020.1.2,MacIntel,60,,,,,,,,,,,,,,2,5.6092,,0,1,58,208,121,1,stimuli/stim_20210519_power2amp/equal_lnn_AM4Hz_s35_40.m4a,,,
,,,,,,,,,,,,34212,2021-06-23_14h56.05.476,judgeSpeechMusic_20210519_logNormShiftAmp_mXs,2020.1.2,MacIntel,60,,,,,,,,,,,,,,2,5.7228,,0,1,59,209,147,1,stimuli/stim_20210519_power2amp/equal_lnn_AM4Hz_s55_46.m4a,,,
,,,,,,,,,,,,34212,2021-06-23_14h56.05.476,judgeSpeechMusic_20210519_logNormShiftAmp_mXs,2020.1.2,MacIntel,60,,,,,,,,,,,,,,2,5.6136,,0,1,60,210,135,1,stimuli/stim_20210519_power2amp/equal_lnn_AM4Hz_s45_45.m4a,,,
,,,,,,,,,,,,34212,2021-06-23_14h56.05.476,judgeSpeechMusic_20210519_logNormShiftAmp_mXs,2020.1.2,MacIntel,60,,,,,,,,,,,,,,2,5.9769,,0,1,61,211,78,1,stimuli/stim_20210519_power2amp/equal_lnn_AM2.5Hz_s35_39.m4a,,,
,,,,,,,,,,,,34212,2021-06-23_14h56.05.476,judgeSpeechMusic_20210519_logNormShiftAmp_mXs,2020.1.2,MacIntel,60,,,,,,,,,,,,,,1,6.9918,1,1,1,62,212,80,1,stimuli/stim_20210519_power2amp/equal_lnn_AM2.5Hz_s45_28.m4a,1.0941,,
,,,,,,,,,,,,34212,2021-06-23_14h56.05.476,judgeSpeechMusic_20210519_logNormShiftAmp_mXs,2020.1.2,MacIntel,60,,,,,,,,,,,,,,1,6.0369,,0,1,63,213,57,1,stimuli/stim_20210519_power2amp/equal_lnn_AM2.5Hz_s15_48.m4a,,,
,,,,,,,,,,,,34212,2021-06-23_14h56.05.476,judgeSpeechMusic_20210519_logNormShiftAmp_mXs,2020.1.2,MacIntel,60,,,,,,,,,,,,,,2,5.5957,,0,1,64,214,114,1,stimuli/stim_20210519_power2amp/equal_lnn_AM4Hz_s25_49.m4a,,,
,,,,,,,,,,,,34212,2021-06-23_14h56.05.476,judgeSpeechMusic_20210519_logNormShiftAmp_mXs,2020.1.2,MacIntel,60,,,,,,,,,,,,,,1,6.3903,,0,1,65,215,55,1,stimuli/stim_20210519_power2amp/equal_lnn_AM2.5Hz_s15_6.m4a,,,
,,,,,,,,,,,,34212,2021-06-23_14h56.05.476,judgeSpeechMusic_20210519_logNormShiftAmp_mXs,2020.1.2,MacIntel,60,,,,,,,,,,,,,,2,7.3929,,0,1,66,216,31,1,stimuli/stim_20210519_power2amp/equal_lnn_AM1Hz_s45_16.m4a,,,
,,,,,,,,,,,,34212,2021-06-23_14h56.05.476,judgeSpeechMusic_20210519_logNormShiftAmp_mXs,2020.1.2,MacIntel,60,,,,,,,,,,,,,,1,6.6929,,0,1,67,217,4,1,stimuli/stim_20210519_power2amp/equal_lnn_AM1Hz_s15_28.m4a,,,
,,,,,,,,,,,,34212,2021-06-23_14h56.05.476,judgeSpeechMusic_20210519_logNormShiftAmp_mXs,2020.1.2,MacIntel,60,,,,,,,,,,,,,,1,5.6121,,0,1,68,218,24,1,stimuli/stim_20210519_power2amp/equal_lnn_AM1Hz_s35_43.m4a,,,
,,,,,,,,,,,,34212,2021-06-23_14h56.05.476,judgeSpeechMusic_20210519_logNormShiftAmp_mXs,2020.1.2,MacIntel,60,,,,,,,,,,,,,,1,6.3204,,0,1,69,219,6,1,stimuli/stim_20210519_power2amp/equal_lnn_AM1Hz_s15_8.m4a,,,
,,,,,,,,,,,,34212,2021-06-23_14h56.05.476,judgeSpeechMusic_20210519_logNormShiftAmp_mXs,2020.1.2,MacIntel,60,,,,,,,,,,,,,,1,5.5967,,0,1,70,220,2,1,stimuli/stim_20210519_power2amp/equal_lnn_AM1Hz_s15_50.m4a,,,
,,,,,,,,,,,,34212,2021-06-23_14h56.05.476,judgeSpeechMusic_20210519_logNormShiftAmp_mXs,2020.1.2,MacIntel,60,,,,,,,,,,,,,,2,5.6715,,0,1,71,221,65,1,stimuli/stim_20210519_power2amp/equal_lnn_AM2.5Hz_s25_33.m4a,,,
,,,,,,,,,,,,34212,2021-06-23_14h56.05.476,judgeSpeechMusic_20210519_logNormShiftAmp_mXs,2020.1.2,MacIntel,60,,,,,,,,,,,,,,2,5.6279,,0,1,72,222,98,1,stimuli/stim_20210519_power2amp/equal_lnn_AM2.5Hz_s55_12.m4a,,,
,,,,,,,,,,,,34212,2021-06-23_14h56.05.476,judgeSpeechMusic_20210519_logNormShiftAmp_mXs,2020.1.2,MacIntel,60,,,,,,,,,,,,,,1,5.6258,,0,1,73,223,36,1,stimuli/stim_20210519_power2amp/equal_lnn_AM1Hz_s45_4.m4a,,,
,,,,,,,,,,,,34212,2021-06-23_14h56.05.476,judgeSpeechMusic_20210519_logNormShiftAmp_mXs,2020.1.2,MacIntel,60,,,,,,,,,,,,,,2,6.1899,,0,1,74,224,109,1,stimuli/stim_20210519_power2amp/equal_lnn_AM4Hz_s15_40.m4a,,,
,,,,,,,,,,,,34212,2021-06-23_14h56.05.476,judgeSpeechMusic_20210519_logNormShiftAmp_mXs,2020.1.2,MacIntel,60,,,,,,,,,,,,,,1,5.7086,,0,1,75,225,81,1,stimuli/stim_20210519_power2amp/equal_lnn_AM2.5Hz_s45_13.m4a,,,
,,,,,,,,,,,,34212,2021-06-23_14h56.05.476,judgeSpeechMusic_20210519_logNormShiftAmp_mXs,2020.1.2,MacIntel,60,,,,,,,,,,,,,,1,7.2276,,0,1,76,226,56,1,stimuli/stim_20210519_power2amp/equal_lnn_AM2.5Hz_s15_2.m4a,,,
,,,,,,,,,,,,34212,2021-06-23_14h56.05.476,judgeSpeechMusic_20210519_logNormShiftAmp_mXs,2020.1.2,MacIntel,60,,,,,,,,,,,,,,1,8.0812,,0,1,77,227,58,1,stimuli/stim_20210519_power2amp/equal_lnn_AM2.5Hz_s15_37.m4a,,,
,,,,,,,,,,,,34212,2021-06-23_14h56.05.476,judgeSpeechMusic_20210519_logNormShiftAmp_mXs,2020.1.2,MacIntel,60,,,,,,,,,,,,,,2,5.842,,0,1,78,228,77,1,stimuli/stim_20210519_power2amp/equal_lnn_AM2.5Hz_s35_29.m4a,,,
,,,,,,,,,,,,34212,2021-06-23_14h56.05.476,judgeSpeechMusic_20210519_logNormShiftAmp_mXs,2020.1.2,MacIntel,60,,,,,,,,,,,,,,1,5.6588,,0,1,79,229,23,1,stimuli/stim_20210519_power2amp/equal_lnn_AM1Hz_s35_21.m4a,,,
,,,,,,,,,,,,34212,2021-06-23_14h56.05.476,judgeSpeechMusic_20210519_logNormShiftAmp_mXs,2020.1.2,MacIntel,60,,,,,,,,,,,,,,1,5.6775,,0,1,80,230,25,1,stimuli/stim_20210519_power2amp/equal_lnn_AM1Hz_s35_28.m4a,,,
,,,,,,,,,,,,34212,2021-06-23_14h56.05.476,judgeSpeechMusic_20210519_logNormShiftAmp_mXs,2020.1.2,MacIntel,60,,,,,,,,,,,,,,2,5.6794,,0,1,81,231,62,1,stimuli/stim_20210519_power2amp/equal_lnn_AM2.5Hz_s25_15.m4a,,,
,,,,,,,,,,,,34212,2021-06-23_14h56.05.476,judgeSpeechMusic_20210519_logNormShiftAmp_mXs,2020.1.2,MacIntel,60,,,,,,,,,,,,,,2,5.6901,,0,1,82,232,141,1,stimuli/stim_20210519_power2amp/equal_lnn_AM4Hz_s55_12.m4a,,,
,,,,,,,,,,,,34212,2021-06-23_14h56.05.476,judgeSpeechMusic_20210519_logNormShiftAmp_mXs,2020.1.2,MacIntel,60,,,,,,,,,,,,,,2,5.6924,,0,1,83,233,124,1,stimuli/stim_20210519_power2amp/equal_lnn_AM4Hz_s35_30.m4a,,,
,,,,,,,,,,,,34212,2021-06-23_14h56.05.476,judgeSpeechMusic_20210519_logNormShiftAmp_mXs,2020.1.2,MacIntel,60,,,,,,,,,,,,,,2,5.9084,,0,1,84,234,145,1,stimuli/stim_20210519_power2amp/equal_lnn_AM4Hz_s55_6.m4a,,,
,,,,,,,,,,,,34212,2021-06-23_14h56.05.476,judgeSpeechMusic_20210519_logNormShiftAmp_mXs,2020.1.2,MacIntel,60,,,,,,,,,,,,,,1,5.9503,,0,1,85,235,26,1,stimuli/stim_20210519_power2amp/equal_lnn_AM1Hz_s35_36.m4a,,,
,,,,,,,,,,,,34212,2021-06-23_14h56.05.476,judgeSpeechMusic_20210519_logNormShiftAmp_mXs,2020.1.2,MacIntel,60,,,,,,,,,,,,,,2,7.9257,,0,1,86,236,54,1,stimuli/stim_20210519_power2amp/equal_lnn_AM2.5Hz_s15_41.m4a,,,
,,,,,,,,,,,,34212,2021-06-23_14h56.05.476,judgeSpeechMusic_20210519_logNormShiftAmp_mXs,2020.1.2,MacIntel,60,,,,,,,,,,,,,,2,8.6823,1,1,1,87,237,87,1,stimuli/stim_20210519_power2amp/equal_lnn_AM2.5Hz_s45_38.m4a,0.8026,,
,,,,,,,,,,,,34212,2021-06-23_14h56.05.476,judgeSpeechMusic_20210519_logNormShiftAmp_mXs,2020.1.2,MacIntel,60,,,,,,,,,,,,,,2,5.823,,0,1,88,238,79,1,stimuli/stim_20210519_power2amp/equal_lnn_AM2.5Hz_s35_11.m4a,,,
,,,,,,,,,,,,34212,2021-06-23_14h56.05.476,judgeSpeechMusic_20210519_logNormShiftAmp_mXs,2020.1.2,MacIntel,60,,,,,,,,,,,,,,1,5.746,,0,1,89,239,38,1,stimuli/stim_20210519_power2amp/equal_lnn_AM1Hz_s45_13.m4a,,,
,,,,,,,,,,,,34212,2021-06-23_14h56.05.476,judgeSpeechMusic_20210519_logNormShiftAmp_mXs,2020.1.2,MacIntel,60,,,,,,,,,,,,,,2,5.8486,,0,1,90,240,130,1,stimuli/stim_20210519_power2amp/equal_lnn_AM4Hz_s45_43.m4a,,,
,,,,,,,,,,,,34212,2021-06-23_14h56.05.476,judgeSpeechMusic_20210519_logNormShiftAmp_mXs,2020.1.2,MacIntel,60,,,,,,,,,,,,,,1,5.7422,,0,1,91,241,18,1,stimuli/stim_20210519_power2amp/equal_lnn_AM1Hz_s25_40.m4a,,,
,,,,,,,,,,,,34212,2021-06-23_14h56.05.476,judgeSpeechMusic_20210519_logNormShiftAmp_mXs,2020.1.2,MacIntel,60,,,,,,,,,,,,,,2,5.9271,,0,1,92,242,50,1,stimuli/stim_20210519_power2amp/equal_lnn_AM2.5Hz_s15_46.m4a,,,
,,,,,,,,,,,,34212,2021-06-23_14h56.05.476,judgeSpeechMusic_20210519_logNormShiftAmp_mXs,2020.1.2,MacIntel,60,,,,,,,,,,,,,,2,5.446,,0,1,93,243,66,1,stimuli/stim_20210519_power2amp/equal_lnn_AM2.5Hz_s25_6.m4a,,,
,,,,,,,,,,,,34212,2021-06-23_14h56.05.476,judgeSpeechMusic_20210519_logNormShiftAmp_mXs,2020.1.2,MacIntel,60,,,,,,,,,,,,,,2,5.565,,0,1,94,244,127,1,stimuli/stim_20210519_power2amp/equal_lnn_AM4Hz_s35_28.m4a,,,
,,,,,,,,,,,,34212,2021-06-23_14h56.05.476,judgeSpeechMusic_20210519_logNormShiftAmp_mXs,2020.1.2,MacIntel,60,,,,,,,,,,,,,,2,5.4439,,0,1,95,245,90,1,stimuli/stim_20210519_power2amp/equal_lnn_AM2.5Hz_s55_25.m4a,,,
,,,,,,,,,,,,34212,2021-06-23_14h56.05.476,judgeSpeechMusic_20210519_logNormShiftAmp_mXs,2020.1.2,MacIntel,60,,,,,,,,,,,,,,2,7.347,,0,1,96,246,67,1,stimuli/stim_20210519_power2amp/equal_lnn_AM2.5Hz_s25_5.m4a,,,
,,,,,,,,,,,,34212,2021-06-23_14h56.05.476,judgeSpeechMusic_20210519_logNormShiftAmp_mXs,2020.1.2,MacIntel,60,,,,,,,,,,,,,,1,5.6235,,0,1,97,247,97,1,stimuli/stim_20210519_power2amp/equal_lnn_AM2.5Hz_s55_45.m4a,,,
,,,,,,,,,,,,34212,2021-06-23_14h56.05.476,judgeSpeechMusic_20210519_logNormShiftAmp_mXs,2020.1.2,MacIntel,60,,,,,,,,,,,,,,1,5.5907,,0,1,98,248,29,1,stimuli/stim_20210519_power2amp/equal_lnn_AM1Hz_s35_34.m4a,,,
,,,,,,,,,,,,34212,2021-06-23_14h56.05.476,judgeSpeechMusic_20210519_logNormShiftAmp_mXs,2020.1.2,MacIntel,60,,,,,,,,,,,,,,2,5.6648,,0,1,99,249,96,1,stimuli/stim_20210519_power2amp/equal_lnn_AM2.5Hz_s55_10.m4a,,,
,,,,,,,,,,,,34212,2021-06-23_14h56.05.476,judgeSpeechMusic_20210519_logNormShiftAmp_mXs,2020.1.2,MacIntel,60,,,,,,,,,,,,,,1,6.0799,,0,1,100,250,17,1,stimuli/stim_20210519_power2amp/equal_lnn_AM1Hz_s25_23.m4a,,,
,,,,,,,,,,,,34212,2021-06-23_14h56.05.476,judgeSpeechMusic_20210519_logNormShiftAmp_mXs,2020.1.2,MacIntel,60,,,,,,,,,,,,,,1,5.6249,,0,1,101,251,22,1,stimuli/stim_20210519_power2amp/equal_lnn_AM1Hz_s35_46.m4a,,,
,,,,,,,,,,,,34212,2021-06-23_14h56.05.476,judgeSpeechMusic_20210519_logNormShiftAmp_mXs,2020.1.2,MacIntel,60,,,,,,,,,,,,,,1,5.2632,,0,1,102,252,33,1,stimuli/stim_20210519_power2amp/equal_lnn_AM1Hz_s45_32.m4a,,,
,,,,,,,,,,,,34212,2021-06-23_14h56.05.476,judgeSpeechMusic_20210519_logNormShiftAmp_mXs,2020.1.2,MacIntel,60,,,,,,,,,,,,,,2,5.776,,0,1,103,253,103,1,stimuli/stim_20210519_power2amp/equal_lnn_AM4Hz_s15_45.m4a,,,
,,,,,,,,,,,,34212,2021-06-23_14h56.05.476,judgeSpeechMusic_20210519_logNormShiftAmp_mXs,2020.1.2,MacIntel,60,,,,,,,,,,,,,,1,5.7373,,0,1,104,254,16,1,stimuli/stim_20210519_power2amp/equal_lnn_AM1Hz_s25_47.m4a,,,
,,,,,,,,,,,,34212,2021-06-23_14h56.05.476,judgeSpeechMusic_20210519_logNormShiftAmp_mXs,2020.1.2,MacIntel,60,,,,,,,,,,,,,,2,5.6036,,0,1,105,255,72,1,stimuli/stim_20210519_power2amp/equal_lnn_AM2.5Hz_s35_45.m4a,,,
,,,,,,,,,,,,34212,2021-06-23_14h56.05.476,judgeSpeechMusic_20210519_logNormShiftAmp_mXs,2020.1.2,MacIntel,60,,,,,,,,,,,,,,2,5.5944,,0,1,106,256,149,1,stimuli/stim_20210519_power2amp/equal_lnn_AM4Hz_s55_22.m4a,,,
,,,,,,,,,,,,34212,2021-06-23_14h56.05.476,judgeSpeechMusic_20210519_logNormShiftAmp_mXs,2020.1.2,MacIntel,60,,,,,,,,,,,,,,1,5.514,,0,1,107,257,27,1,stimuli/stim_20210519_power2amp/equal_lnn_AM1Hz_s35_26.m4a,,,
,,,,,,,,,,,,34212,2021-06-23_14h56.05.476,judgeSpeechMusic_20210519_logNormShiftAmp_mXs,2020.1.2,MacIntel,60,,,,,,,,,,,,,,2,5.7254,,0,1,108,258,120,1,stimuli/stim_20210519_power2amp/equal_lnn_AM4Hz_s35_41.m4a,,,
,,,,,,,,,,,,34212,2021-06-23_14h56.05.476,judgeSpeechMusic_20210519_logNormShiftAmp_mXs,2020.1.2,MacIntel,60,,,,,,,,,,,,,,1,5.9417,,0,1,109,259,34,1,stimuli/stim_20210519_power2amp/equal_lnn_AM1Hz_s45_8.m4a,,,
,,,,,,,,,,,,34212,2021-06-23_14h56.05.476,judgeSpeechMusic_20210519_logNormShiftAmp_mXs,2020.1.2,MacIntel,60,,,,,,,,,,,,,,2,5.7954,4,1,1,110,260,129,1,stimuli/stim_20210519_power2amp/equal_lnn_AM4Hz_s35_9.m4a,1.3672,,
,,,,,,,,,,,,34212,2021-06-23_14h56.05.476,judgeSpeechMusic_20210519_logNormShiftAmp_mXs,2020.1.2,MacIntel,60,,,,,,,,,,,,,,1,6.1082,,0,1,111,261,30,1,stimuli/stim_20210519_power2amp/equal_lnn_AM1Hz_s45_49.m4a,,,
,,,,,,,,,,,,34212,2021-06-23_14h56.05.476,judgeSpeechMusic_20210519_logNormShiftAmp_mXs,2020.1.2,MacIntel,60,,,,,,,,,,,,,,1,5.5432,,0,1,112,262,39,1,stimuli/stim_20210519_power2amp/equal_lnn_AM1Hz_s45_2.m4a,,,
,,,,,,,,,,,,34212,2021-06-23_14h56.05.476,judgeSpeechMusic_20210519_logNormShiftAmp_mXs,2020.1.2,MacIntel,60,,,,,,,,,,,,,,2,5.6739,,0,1,113,263,136,1,stimuli/stim_20210519_power2amp/equal_lnn_AM4Hz_s45_27.m4a,,,
,,,,,,,,,,,,34212,2021-06-23_14h56.05.476,judgeSpeechMusic_20210519_logNormShiftAmp_mXs,2020.1.2,MacIntel,60,,,,,,,,,,,,,,1,6.0437,,0,1,114,264,93,1,stimuli/stim_20210519_power2amp/equal_lnn_AM2.5Hz_s55_9.m4a,,,
,,,,,,,,,,,,34212,2021-06-23_14h56.05.476,judgeSpeechMusic_20210519_logNormShiftAmp_mXs,2020.1.2,MacIntel,60,,,,,,,,,,,,,,2,5.5485,,0,1,115,265,119,1,stimuli/stim_20210519_power2amp/equal_lnn_AM4Hz_s25_3.m4a,,,
,,,,,,,,,,,,34212,2021-06-23_14h56.05.476,judgeSpeechMusic_20210519_logNormShiftAmp_mXs,2020.1.2,MacIntel,60,,,,,,,,,,,,,,1,6.1794,,0,1,116,266,19,1,stimuli/stim_20210519_power2amp/equal_lnn_AM1Hz_s25_31.m4a,,,
,,,,,,,,,,,,34212,2021-06-23_14h56.05.476,judgeSpeechMusic_20210519_logNormShiftAmp_mXs,2020.1.2,MacIntel,60,,,,,,,,,,,,,,1,5.4908,,0,1,117,267,21,1,stimuli/stim_20210519_power2amp/equal_lnn_AM1Hz_s35_4.m4a,,,
,,,,,,,,,,,,34212,2021-06-23_14h56.05.476,judgeSpeechMusic_20210519_logNormShiftAmp_mXs,2020.1.2,MacIntel,60,,,,,,,,,,,,,,2,5.8752,,0,1,118,268,100,1,stimuli/stim_20210519_power2amp/equal_lnn_AM4Hz_s15_7.m4a,,,
,,,,,,,,,,,,34212,2021-06-23_14h56.05.476,judgeSpeechMusic_20210519_logNormShiftAmp_mXs,2020.1.2,MacIntel,60,,,,,,,,,,,,,,2,7.2426,,0,1,119,269,61,1,stimuli/stim_20210519_power2amp/equal_lnn_AM2.5Hz_s25_39.m4a,,,
,,,,,,,,,,,,34212,2021-06-23_14h56.05.476,judgeSpeechMusic_20210519_logNormShiftAmp_mXs,2020.1.2,MacIntel,60,,,,,,,,,,,,,,1,5.7067,,0,1,120,270,7,1,stimuli/stim_20210519_power2amp/equal_lnn_AM1Hz_s15_2.m4a,,,
,,,,,,,,,,,,34212,2021-06-23_14h56.05.476,judgeSpeechMusic_20210519_logNormShiftAmp_mXs,2020.1.2,MacIntel,60,,,,,,,,,,,,,,2,6.0751,,0,1,121,271,107,1,stimuli/stim_20210519_power2amp/equal_lnn_AM4Hz_s15_2.m4a,,,
,,,,,,,,,,,,34212,2021-06-23_14h56.05.476,judgeSpeechMusic_20210519_logNormShiftAmp_mXs,2020.1.2,MacIntel,60,,,,,,,,,,,,,,2,7.1907,,0,1,122,272,99,1,stimuli/stim_20210519_power2amp/equal_lnn_AM2.5Hz_s55_17.m4a,,,
,,,,,,,,,,,,34212,2021-06-23_14h56.05.476,judgeSpeechMusic_20210519_logNormShiftAmp_mXs,2020.1.2,MacIntel,60,,,,,,,,,,,,,,1,5.9094,,0,1,123,273,49,1,stimuli/stim_20210519_power2amp/equal_lnn_AM1Hz_s55_36.m4a,,,
,,,,,,,,,,,,34212,2021-06-23_14h56.05.476,judgeSpeechMusic_20210519_logNormShiftAmp_mXs,2020.1.2,MacIntel,60,,,,,,,,,,,,,,2,5.9564,,0,1,124,274,53,1,stimuli/stim_20210519_power2amp/equal_lnn_AM2.5Hz_s15_44.m4a,,,
,,,,,,,,,,,,34212,2021-06-23_14h56.05.476,judgeSpeechMusic_20210519_logNormShiftAmp_mXs,2020.1.2,MacIntel,60,,,,,,,,,,,,,,2,5.5427,,0,1,125,275,82,1,stimuli/stim_20210519_power2amp/equal_lnn_AM2.5Hz_s45_6.m4a,,,
,,,,,,,,,,,,34212,2021-06-23_14h56.05.476,judgeSpeechMusic_20210519_logNormShiftAmp_mXs,2020.1.2,MacIntel,60,,,,,,,,,,,,,,2,5.5774,,0,1,126,276,122,1,stimuli/stim_20210519_power2amp/equal_lnn_AM4Hz_s35_11.m4a,,,
,,,,,,,,,,,,34212,2021-06-23_14h56.05.476,judgeSpeechMusic_20210519_logNormShiftAmp_mXs,2020.1.2,MacIntel,60,,,,,,,,,,,,,,2,5.5929,,0,1,127,277,110,1,stimuli/stim_20210519_power2amp/equal_lnn_AM4Hz_s25_43.m4a,,,
,,,,,,,,,,,,34212,2021-06-23_14h56.05.476,judgeSpeechMusic_20210519_logNormShiftAmp_mXs,2020.1.2,MacIntel,60,,,,,,,,,,,,,,2,5.6097,,0,1,128,278,139,1,stimuli/stim_20210519_power2amp/equal_lnn_AM4Hz_s45_30.m4a,,,
,,,,,,,,,,,,34212,2021-06-23_14h56.05.476,judgeSpeechMusic_20210519_logNormShiftAmp_mXs,2020.1.2,MacIntel,60,,,,,,,,,,,,,,1,5.623,,0,1,129,279,3,1,stimuli/stim_20210519_power2amp/equal_lnn_AM1Hz_s15_17.m4a,,,
,,,,,,,,,,,,34212,2021-06-23_14h56.05.476,judgeSpeechMusic_20210519_logNormShiftAmp_mXs,2020.1.2,MacIntel,60,,,,,,,,,,,,,,1,5.6416,,0,1,130,280,41,1,stimuli/stim_20210519_power2amp/equal_lnn_AM1Hz_s55_11.m4a,,,
,,,,,,,,,,,,34212,2021-06-23_14h56.05.476,judgeSpeechMusic_20210519_logNormShiftAmp_mXs,2020.1.2,MacIntel,60,,,,,,,,,,,,,,1,5.5755,,0,1,131,281,13,1,stimuli/stim_20210519_power2amp/equal_lnn_AM1Hz_s25_39.m4a,,,
,,,,,,,,,,,,34212,2021-06-23_14h56.05.476,judgeSpeechMusic_20210519_logNormShiftAmp_mXs,2020.1.2,MacIntel,60,,,,,,,,,,,,,,2,5.5788,,0,1,132,282,75,1,stimuli/stim_20210519_power2amp/equal_lnn_AM2.5Hz_s35_15.m4a,,,
,,,,,,,,,,,,34212,2021-06-23_14h56.05.476,judgeSpeechMusic_20210519_logNormShiftAmp_mXs,2020.1.2,MacIntel,60,,,,,,,,,,,,,,1,5.7965,4,1,1,133,283,15,1,stimuli/stim_20210519_power2amp/equal_lnn_AM1Hz_s25_36.m4a,0.6797,,
,,,,,,,,,,,,34212,2021-06-23_14h56.05.476,judgeSpeechMusic_20210519_logNormShiftAmp_mXs,2020.1.2,MacIntel,60,,,,,,,,,,,,,,2,5.5821,,0,1,134,284,101,1,stimuli/stim_20210519_power2amp/equal_lnn_AM4Hz_s15_20.m4a,,,
,,,,,,,,,,,,34212,2021-06-23_14h56.05.476,judgeSpeechMusic_20210519_logNormShiftAmp_mXs,2020.1.2,MacIntel,60,,,,,,,,,,,,,,2,5.5241,,0,1,135,285,116,1,stimuli/stim_20210519_power2amp/equal_lnn_AM4Hz_s25_24.m4a,,,
,,,,,,,,,,,,34212,2021-06-23_14h56.05.476,judgeSpeechMusic_20210519_logNormShiftAmp_mXs,2020.1.2,MacIntel,60,,,,,,,,,,,,,,2,5.658,,0,1,136,286,118,1,stimuli/stim_20210519_power2amp/equal_lnn_AM4Hz_s25_8.m4a,,,
,,,,,,,,,,,,34212,2021-06-23_14h56.05.476,judgeSpeechMusic_20210519_logNormShiftAmp_mXs,2020.1.2,MacIntel,60,,,,,,,,,,,,,,2,5.6273,,0,1,137,287,143,1,stimuli/stim_20210519_power2amp/equal_lnn_AM4Hz_s55_24.m4a,,,
,,,,,,,,,,,,34212,2021-06-23_14h56.05.476,judgeSpeechMusic_20210519_logNormShiftAmp_mXs,2020.1.2,MacIntel,60,,,,,,,,,,,,,,2,5.6456,,0,1,138,288,144,1,stimuli/stim_20210519_power2amp/equal_lnn_AM4Hz_s55_36.m4a,,,
,,,,,,,,,,,,34212,2021-06-23_14h56.05.476,judgeSpeechMusic_20210519_logNormShiftAmp_mXs,2020.1.2,MacIntel,60,,,,,,,,,,,,,,2,5.6255,,0,1,139,289,146,1,stimuli/stim_20210519_power2amp/equal_lnn_AM4Hz_s55_40.m4a,,,
,,,,,,,,,,,,34212,2021-06-23_14h56.05.476,judgeSpeechMusic_20210519_logNormShiftAmp_mXs,2020.1.2,MacIntel,60,,,,,,,,,,,,,,1,6.0797,,0,1,140,290,131,1,stimuli/stim_20210519_power2amp/equal_lnn_AM4Hz_s45_33.m4a,,,
,,,,,,,,,,,,34212,2021-06-23_14h56.05.476,judgeSpeechMusic_20210519_logNormShiftAmp_mXs,2020.1.2,MacIntel,60,,,,,,,,,,,,,,1,5.6102,,0,1,141,291,32,1,stimuli/stim_20210519_power2amp/equal_lnn_AM1Hz_s45_3.m4a,,,
,,,,,,,,,,,,34212,2021-06-23_14h56.05.476,judgeSpeechMusic_20210519_logNormShiftAmp_mXs,2020.1.2,MacIntel,60,,,,,,,,,,,,,,2,5.5266,,0,1,142,292,115,1,stimuli/stim_20210519_power2amp/equal_lnn_AM4Hz_s25_35.m4a,,,
,,,,,,,,,,,,34212,2021-06-23_14h56.05.476,judgeSpeechMusic_20210519_logNormShiftAmp_mXs,2020.1.2,MacIntel,60,,,,,,,,,,,,,,1,6.88,,0,1,143,293,69,1,stimuli/stim_20210519_power2amp/equal_lnn_AM2.5Hz_s25_44.m4a,,,
,,,,,,,,,,,,34212,2021-06-23_14h56.05.476,judgeSpeechMusic_20210519_logNormShiftAmp_mXs,2020.1.2,MacIntel,60,,,,,,,,,,,,,,1,6.4624,,0,1,144,294,51,1,stimuli/stim_20210519_power2amp/equal_lnn_AM2.5Hz_s15_26.m4a,,,
,,,,,,,,,,,,34212,2021-06-23_14h56.05.476,judgeSpeechMusic_20210519_logNormShiftAmp_mXs,2020.1.2,MacIntel,60,,,,,,,,,,,,,,1,5.6572,,0,1,145,295,95,1,stimuli/stim_20210519_power2amp/equal_lnn_AM2.5Hz_s55_33.m4a,,,
,,,,,,,,,,,,34212,2021-06-23_14h56.05.476,judgeSpeechMusic_20210519_logNormShiftAmp_mXs,2020.1.2,MacIntel,60,,,,,,,,,,,,,,1,5.5611,,0,1,146,296,123,1,stimuli/stim_20210519_power2amp/equal_lnn_AM4Hz_s35_24.m4a,,,
,,,,,,,,,,,,34212,2021-06-23_14h56.05.476,judgeSpeechMusic_20210519_logNormShiftAmp_mXs,2020.1.2,MacIntel,60,,,,,,,,,,,,,,2,5.6457,,0,1,147,297,83,1,stimuli/stim_20210519_power2amp/equal_lnn_AM2.5Hz_s45_23.m4a,,,
,,,,,,,,,,,,34212,2021-06-23_14h56.05.476,judgeSpeechMusic_20210519_logNormShiftAmp_mXs,2020.1.2,MacIntel,60,,,,,,,,,,,,,,2,5.4798,,0,1,148,298,132,1,stimuli/stim_20210519_power2amp/equal_lnn_AM4Hz_s45_13.m4a,,,
,,,,,,,,,,,,34212,2021-06-23_14h56.05.476,judgeSpeechMusic_20210519_logNormShiftAmp_mXs,2020.1.2,MacIntel,60,,,,,,,,,,,,,,1,5.7577,,0,1,149,299,43,1,stimuli/stim_20210519_power2amp/equal_lnn_AM1Hz_s55_19.m4a,,,
,,,,,,,,,,,,34212,2021-06-23_14h56.05.476,judgeSpeechMusic_20210519_logNormShiftAmp_mXs,2020.1.2,MacIntel,60,,,,,,,,,,,,,,,,,,,,,,,,,space,1.1005
