headphoneResponse.keys,headphoneResponse.corr,headphoneResponse.rt,headphoneTrial.thisRepN,headphoneTrial.thisTrialN,headphoneTrial.thisN,headphoneTrial.thisIndex,headphoneTrial.ran,headphone_sound1,headphone_sound2,headphone_sound3,corrAns,participant,date,expName,psychopyVersion,OS,frameRate,trainSlider.response,trainSlider.rt,beepTrainResponse.keys,beepTrainResponse.corr,trainingTrials.thisRepN,trainingTrials.thisTrialN,trainingTrials.thisN,trainingTrials.thisIndex,trainingTrials.ran,trainAudioFile,beepTrainResponse.rt,readyReal_resp.keys,readyReal_resp.rt,ratingSlider.response,ratingSlider.rt,beepResp.keys,beepResp.corr,expTrials.thisRepN,expTrials.thisTrialN,expTrials.thisN,expTrials.thisIndex,expTrials.ran,audioFile,beepResp.rt,end_resp.keys,end_resp.rt
1,1,0.77797,0,0,0,5,1,stimuli/screen_quiet.wav,stimuli/screen_origin.wav,stimuli/screen_antiphase.wav,1,36156,2021-05-30_22h34.41.226,judgeSpeechMusic_20210519_logNormShiftAmp_mXs,2020.1.2,MacIntel,60,,,,,,,,,,,,,,,,,,,,,,,,,,
3,1,0.697,0,1,1,0,1,stimuli/screen_antiphase.wav,stimuli/screen_origin.wav,stimuli/screen_quiet.wav,3,36156,2021-05-30_22h34.41.226,judgeSpeechMusic_20210519_logNormShiftAmp_mXs,2020.1.2,MacIntel,60,,,,,,,,,,,,,,,,,,,,,,,,,,
1,1,0.871955,0,2,2,4,1,stimuli/screen_quiet.wav,stimuli/screen_antiphase.wav,stimuli/screen_origin.wav,1,36156,2021-05-30_22h34.41.226,judgeSpeechMusic_20210519_logNormShiftAmp_mXs,2020.1.2,MacIntel,60,,,,,,,,,,,,,,,,,,,,,,,,,,
3,1,0.740455,0,3,3,2,1,stimuli/screen_origin.wav,stimuli/screen_antiphase.wav,stimuli/screen_quiet.wav,3,36156,2021-05-30_22h34.41.226,judgeSpeechMusic_20210519_logNormShiftAmp_mXs,2020.1.2,MacIntel,60,,,,,,,,,,,,,,,,,,,,,,,,,,
2,1,0.600985,0,4,4,1,1,stimuli/screen_antiphase.wav,stimuli/screen_quiet.wav,stimuli/screen_origin.wav,2,36156,2021-05-30_22h34.41.226,judgeSpeechMusic_20210519_logNormShiftAmp_mXs,2020.1.2,MacIntel,60,,,,,,,,,,,,,,,,,,,,,,,,,,
2,1,0.58666,0,5,5,3,1,stimuli/screen_origin.wav,stimuli/screen_quiet.wav,stimuli/screen_antiphase.wav,2,36156,2021-05-30_22h34.41.226,judgeSpeechMusic_20210519_logNormShiftAmp_mXs,2020.1.2,MacIntel,60,,,,,,,,,,,,,,,,,,,,,,,,,,
,,,,,,,,,,,,36156,2021-05-30_22h34.41.226,judgeSpeechMusic_20210519_logNormShiftAmp_mXs,2020.1.2,MacIntel,60,1,14.260635,,0,0,0,0,3,1,stimuli/stim_20210519_power2amp/equal_lnn_AM_training3.5Hz_s50.m4a,,,,,,,,,,,,,,,,
,,,,,,,,,,,,36156,2021-05-30_22h34.41.226,judgeSpeechMusic_20210519_logNormShiftAmp_mXs,2020.1.2,MacIntel,60,2,7.041295,,0,0,1,1,2,1,stimuli/stim_20210519_power2amp/equal_lnn_AM_training3.5Hz_s20.m4a,,,,,,,,,,,,,,,,
,,,,,,,,,,,,36156,2021-05-30_22h34.41.226,judgeSpeechMusic_20210519_logNormShiftAmp_mXs,2020.1.2,MacIntel,60,2,7.16127,1,1,0,2,2,0,1,stimuli/stim_20210519_power2amp/equal_lnn_AM_training1.5Hz_s20.m4a,2.042795,,,,,,,,,,,,,,,
,,,,,,,,,,,,36156,2021-05-30_22h34.41.226,judgeSpeechMusic_20210519_logNormShiftAmp_mXs,2020.1.2,MacIntel,60,2,8.842255,,0,0,3,3,1,1,stimuli/stim_20210519_power2amp/equal_lnn_AM_training1.5Hz_s50.m4a,,,,,,,,,,,,,,,,
,,,,,,,,,,,,36156,2021-05-30_22h34.41.226,judgeSpeechMusic_20210519_logNormShiftAmp_mXs,2020.1.2,MacIntel,60,,,,,,,,,,,,space,5.41244,1,8.696745,,0,0,0,0,109,1,stimuli/stim_20210519_power2amp/equal_lnn_AM4Hz_s15_8.m4a,,,
,,,,,,,,,,,,36156,2021-05-30_22h34.41.226,judgeSpeechMusic_20210519_logNormShiftAmp_mXs,2020.1.2,MacIntel,60,,,,,,,,,,,,,,2,6.603825,,0,0,1,1,114,1,stimuli/stim_20210519_power2amp/equal_lnn_AM4Hz_s25_27.m4a,,,
,,,,,,,,,,,,36156,2021-05-30_22h34.41.226,judgeSpeechMusic_20210519_logNormShiftAmp_mXs,2020.1.2,MacIntel,60,,,,,,,,,,,,,,1,7.04289,,0,0,2,2,1,1,stimuli/stim_20210519_power2amp/equal_lnn_AM1Hz_s15_17.m4a,,,
,,,,,,,,,,,,36156,2021-05-30_22h34.41.226,judgeSpeechMusic_20210519_logNormShiftAmp_mXs,2020.1.2,MacIntel,60,,,,,,,,,,,,,,1,6.241435,,0,0,3,3,146,1,stimuli/stim_20210519_power2amp/equal_lnn_AM4Hz_s55_44.m4a,,,
,,,,,,,,,,,,36156,2021-05-30_22h34.41.226,judgeSpeechMusic_20210519_logNormShiftAmp_mXs,2020.1.2,MacIntel,60,,,,,,,,,,,,,,2,6.2078,,0,0,4,4,56,1,stimuli/stim_20210519_power2amp/equal_lnn_AM2.5Hz_s15_4.m4a,,,
,,,,,,,,,,,,36156,2021-05-30_22h34.41.226,judgeSpeechMusic_20210519_logNormShiftAmp_mXs,2020.1.2,MacIntel,60,,,,,,,,,,,,,,1,6.79138,,0,0,5,5,122,1,stimuli/stim_20210519_power2amp/equal_lnn_AM4Hz_s35_36.m4a,,,
,,,,,,,,,,,,36156,2021-05-30_22h34.41.226,judgeSpeechMusic_20210519_logNormShiftAmp_mXs,2020.1.2,MacIntel,60,,,,,,,,,,,,,,1,6.24272,,0,0,6,6,86,1,stimuli/stim_20210519_power2amp/equal_lnn_AM2.5Hz_s45_1.m4a,,,
,,,,,,,,,,,,36156,2021-05-30_22h34.41.226,judgeSpeechMusic_20210519_logNormShiftAmp_mXs,2020.1.2,MacIntel,60,,,,,,,,,,,,,,2,5.825475,,0,0,7,7,89,1,stimuli/stim_20210519_power2amp/equal_lnn_AM2.5Hz_s45_22.m4a,,,
,,,,,,,,,,,,36156,2021-05-30_22h34.41.226,judgeSpeechMusic_20210519_logNormShiftAmp_mXs,2020.1.2,MacIntel,60,,,,,,,,,,,,,,2,7.575085,,0,0,8,8,113,1,stimuli/stim_20210519_power2amp/equal_lnn_AM4Hz_s25_1.m4a,,,
,,,,,,,,,,,,36156,2021-05-30_22h34.41.226,judgeSpeechMusic_20210519_logNormShiftAmp_mXs,2020.1.2,MacIntel,60,,,,,,,,,,,,,,1,6.53609,,0,0,9,9,51,1,stimuli/stim_20210519_power2amp/equal_lnn_AM2.5Hz_s15_25.m4a,,,
,,,,,,,,,,,,36156,2021-05-30_22h34.41.226,judgeSpeechMusic_20210519_logNormShiftAmp_mXs,2020.1.2,MacIntel,60,,,,,,,,,,,,,,1,7.24519,,0,0,10,10,65,1,stimuli/stim_20210519_power2amp/equal_lnn_AM2.5Hz_s25_47.m4a,,,
,,,,,,,,,,,,36156,2021-05-30_22h34.41.226,judgeSpeechMusic_20210519_logNormShiftAmp_mXs,2020.1.2,MacIntel,60,,,,,,,,,,,,,,2,6.057565,,0,0,11,11,141,1,stimuli/stim_20210519_power2amp/equal_lnn_AM4Hz_s55_30.m4a,,,
,,,,,,,,,,,,36156,2021-05-30_22h34.41.226,judgeSpeechMusic_20210519_logNormShiftAmp_mXs,2020.1.2,MacIntel,60,,,,,,,,,,,,,,1,5.90613,,0,0,12,12,110,1,stimuli/stim_20210519_power2amp/equal_lnn_AM4Hz_s25_47.m4a,,,
,,,,,,,,,,,,36156,2021-05-30_22h34.41.226,judgeSpeechMusic_20210519_logNormShiftAmp_mXs,2020.1.2,MacIntel,60,,,,,,,,,,,,,,2,6.35946,,0,0,13,13,44,1,stimuli/stim_20210519_power2amp/equal_lnn_AM1Hz_s55_8.m4a,,,
,,,,,,,,,,,,36156,2021-05-30_22h34.41.226,judgeSpeechMusic_20210519_logNormShiftAmp_mXs,2020.1.2,MacIntel,60,,,,,,,,,,,,,,2,6.00784,,0,0,14,14,11,1,stimuli/stim_20210519_power2amp/equal_lnn_AM1Hz_s25_16.m4a,,,
,,,,,,,,,,,,36156,2021-05-30_22h34.41.226,judgeSpeechMusic_20210519_logNormShiftAmp_mXs,2020.1.2,MacIntel,60,,,,,,,,,,,,,,1,6.04407,,0,0,15,15,142,1,stimuli/stim_20210519_power2amp/equal_lnn_AM4Hz_s55_8.m4a,,,
,,,,,,,,,,,,36156,2021-05-30_22h34.41.226,judgeSpeechMusic_20210519_logNormShiftAmp_mXs,2020.1.2,MacIntel,60,,,,,,,,,,,,,,2,5.67766,,0,0,16,16,148,1,stimuli/stim_20210519_power2amp/equal_lnn_AM4Hz_s55_33.m4a,,,
,,,,,,,,,,,,36156,2021-05-30_22h34.41.226,judgeSpeechMusic_20210519_logNormShiftAmp_mXs,2020.1.2,MacIntel,60,,,,,,,,,,,,,,1,5.692085,,0,0,17,17,107,1,stimuli/stim_20210519_power2amp/equal_lnn_AM4Hz_s15_37.m4a,,,
,,,,,,,,,,,,36156,2021-05-30_22h34.41.226,judgeSpeechMusic_20210519_logNormShiftAmp_mXs,2020.1.2,MacIntel,60,,,,,,,,,,,,,,2,5.810805,,0,0,18,18,21,1,stimuli/stim_20210519_power2amp/equal_lnn_AM1Hz_s35_39.m4a,,,
,,,,,,,,,,,,36156,2021-05-30_22h34.41.226,judgeSpeechMusic_20210519_logNormShiftAmp_mXs,2020.1.2,MacIntel,60,,,,,,,,,,,,,,2,5.770615,,0,0,19,19,50,1,stimuli/stim_20210519_power2amp/equal_lnn_AM2.5Hz_s15_37.m4a,,,
,,,,,,,,,,,,36156,2021-05-30_22h34.41.226,judgeSpeechMusic_20210519_logNormShiftAmp_mXs,2020.1.2,MacIntel,60,,,,,,,,,,,,,,2,6.41009,,0,0,20,20,48,1,stimuli/stim_20210519_power2amp/equal_lnn_AM1Hz_s55_39.m4a,,,
,,,,,,,,,,,,36156,2021-05-30_22h34.41.226,judgeSpeechMusic_20210519_logNormShiftAmp_mXs,2020.1.2,MacIntel,60,,,,,,,,,,,,,,2,6.222295,,0,0,21,21,126,1,stimuli/stim_20210519_power2amp/equal_lnn_AM4Hz_s35_11.m4a,,,
,,,,,,,,,,,,36156,2021-05-30_22h34.41.226,judgeSpeechMusic_20210519_logNormShiftAmp_mXs,2020.1.2,MacIntel,60,,,,,,,,,,,,,,2,7.675635,,0,0,22,22,70,1,stimuli/stim_20210519_power2amp/equal_lnn_AM2.5Hz_s35_37.m4a,,,
,,,,,,,,,,,,36156,2021-05-30_22h34.41.226,judgeSpeechMusic_20210519_logNormShiftAmp_mXs,2020.1.2,MacIntel,60,,,,,,,,,,,,,,2,13.685995,,0,0,23,23,69,1,stimuli/stim_20210519_power2amp/equal_lnn_AM2.5Hz_s25_41.m4a,,,
,,,,,,,,,,,,36156,2021-05-30_22h34.41.226,judgeSpeechMusic_20210519_logNormShiftAmp_mXs,2020.1.2,MacIntel,60,,,,,,,,,,,,,,2,7.974335,,0,0,24,24,64,1,stimuli/stim_20210519_power2amp/equal_lnn_AM2.5Hz_s25_19.m4a,,,
,,,,,,,,,,,,36156,2021-05-30_22h34.41.226,judgeSpeechMusic_20210519_logNormShiftAmp_mXs,2020.1.2,MacIntel,60,,,,,,,,,,,,,,1,6.556075,,0,0,25,25,136,1,stimuli/stim_20210519_power2amp/equal_lnn_AM4Hz_s45_3.m4a,,,
,,,,,,,,,,,,36156,2021-05-30_22h34.41.226,judgeSpeechMusic_20210519_logNormShiftAmp_mXs,2020.1.2,MacIntel,60,,,,,,,,,,,,,,1,6.140295,,0,0,26,26,9,1,stimuli/stim_20210519_power2amp/equal_lnn_AM1Hz_s15_40.m4a,,,
,,,,,,,,,,,,36156,2021-05-30_22h34.41.226,judgeSpeechMusic_20210519_logNormShiftAmp_mXs,2020.1.2,MacIntel,60,,,,,,,,,,,,,,1,6.24409,,0,0,27,27,77,1,stimuli/stim_20210519_power2amp/equal_lnn_AM2.5Hz_s35_43.m4a,,,
,,,,,,,,,,,,36156,2021-05-30_22h34.41.226,judgeSpeechMusic_20210519_logNormShiftAmp_mXs,2020.1.2,MacIntel,60,,,,,,,,,,,,,,1,6.141645,,0,0,28,28,116,1,stimuli/stim_20210519_power2amp/equal_lnn_AM4Hz_s25_3.m4a,,,
,,,,,,,,,,,,36156,2021-05-30_22h34.41.226,judgeSpeechMusic_20210519_logNormShiftAmp_mXs,2020.1.2,MacIntel,60,,,,,,,,,,,,,,1,6.25839,,0,0,29,29,59,1,stimuli/stim_20210519_power2amp/equal_lnn_AM2.5Hz_s15_47.m4a,,,
,,,,,,,,,,,,36156,2021-05-30_22h34.41.226,judgeSpeechMusic_20210519_logNormShiftAmp_mXs,2020.1.2,MacIntel,60,,,,,,,,,,,,,,1,7.064515,,0,0,30,30,14,1,stimuli/stim_20210519_power2amp/equal_lnn_AM1Hz_s25_47.m4a,,,
,,,,,,,,,,,,36156,2021-05-30_22h34.41.226,judgeSpeechMusic_20210519_logNormShiftAmp_mXs,2020.1.2,MacIntel,60,,,,,,,,,,,,,,1,6.308985,,0,0,31,31,2,1,stimuli/stim_20210519_power2amp/equal_lnn_AM1Hz_s15_22.m4a,,,
,,,,,,,,,,,,36156,2021-05-30_22h34.41.226,judgeSpeechMusic_20210519_logNormShiftAmp_mXs,2020.1.2,MacIntel,60,,,,,,,,,,,,,,1,6.340125,,0,0,32,32,23,1,stimuli/stim_20210519_power2amp/equal_lnn_AM1Hz_s35_11.m4a,,,
,,,,,,,,,,,,36156,2021-05-30_22h34.41.226,judgeSpeechMusic_20210519_logNormShiftAmp_mXs,2020.1.2,MacIntel,60,,,,,,,,,,,,,,2,5.97024,,0,0,33,33,145,1,stimuli/stim_20210519_power2amp/equal_lnn_AM4Hz_s55_37.m4a,,,
,,,,,,,,,,,,36156,2021-05-30_22h34.41.226,judgeSpeechMusic_20210519_logNormShiftAmp_mXs,2020.1.2,MacIntel,60,,,,,,,,,,,,,,2,5.841975,,0,0,34,34,81,1,stimuli/stim_20210519_power2amp/equal_lnn_AM2.5Hz_s45_4.m4a,,,
,,,,,,,,,,,,36156,2021-05-30_22h34.41.226,judgeSpeechMusic_20210519_logNormShiftAmp_mXs,2020.1.2,MacIntel,60,,,,,,,,,,,,,,1,7.658655,,0,0,35,35,32,1,stimuli/stim_20210519_power2amp/equal_lnn_AM1Hz_s45_31.m4a,,,
,,,,,,,,,,,,36156,2021-05-30_22h34.41.226,judgeSpeechMusic_20210519_logNormShiftAmp_mXs,2020.1.2,MacIntel,60,,,,,,,,,,,,,,1,6.43952,,0,0,36,36,18,1,stimuli/stim_20210519_power2amp/equal_lnn_AM1Hz_s25_22.m4a,,,
,,,,,,,,,,,,36156,2021-05-30_22h34.41.226,judgeSpeechMusic_20210519_logNormShiftAmp_mXs,2020.1.2,MacIntel,60,,,,,,,,,,,,,,2,7.92329,,0,0,37,37,34,1,stimuli/stim_20210519_power2amp/equal_lnn_AM1Hz_s45_27.m4a,,,
,,,,,,,,,,,,36156,2021-05-30_22h34.41.226,judgeSpeechMusic_20210519_logNormShiftAmp_mXs,2020.1.2,MacIntel,60,,,,,,,,,,,,,,2,7.322785,,0,0,38,38,117,1,stimuli/stim_20210519_power2amp/equal_lnn_AM4Hz_s25_7.m4a,,,
,,,,,,,,,,,,36156,2021-05-30_22h34.41.226,judgeSpeechMusic_20210519_logNormShiftAmp_mXs,2020.1.2,MacIntel,60,,,,,,,,,,,,,,2,7.33751,,0,0,39,39,38,1,stimuli/stim_20210519_power2amp/equal_lnn_AM1Hz_s45_39.m4a,,,
,,,,,,,,,,,,36156,2021-05-30_22h34.41.226,judgeSpeechMusic_20210519_logNormShiftAmp_mXs,2020.1.2,MacIntel,60,,,,,,,,,,,,,,1,6.091955,2,1,0,40,40,104,1,stimuli/stim_20210519_power2amp/equal_lnn_AM4Hz_s15_13.m4a,1.24408,,
,,,,,,,,,,,,36156,2021-05-30_22h34.41.226,judgeSpeechMusic_20210519_logNormShiftAmp_mXs,2020.1.2,MacIntel,60,,,,,,,,,,,,,,2,7.137225,,0,0,41,41,29,1,stimuli/stim_20210519_power2amp/equal_lnn_AM1Hz_s35_32.m4a,,,
,,,,,,,,,,,,36156,2021-05-30_22h34.41.226,judgeSpeechMusic_20210519_logNormShiftAmp_mXs,2020.1.2,MacIntel,60,,,,,,,,,,,,,,2,6.2916,,0,0,42,42,149,1,stimuli/stim_20210519_power2amp/equal_lnn_AM4Hz_s55_25.m4a,,,
,,,,,,,,,,,,36156,2021-05-30_22h34.41.226,judgeSpeechMusic_20210519_logNormShiftAmp_mXs,2020.1.2,MacIntel,60,,,,,,,,,,,,,,2,9.104115,,0,0,43,43,47,1,stimuli/stim_20210519_power2amp/equal_lnn_AM1Hz_s55_3.m4a,,,
,,,,,,,,,,,,36156,2021-05-30_22h34.41.226,judgeSpeechMusic_20210519_logNormShiftAmp_mXs,2020.1.2,MacIntel,60,,,,,,,,,,,,,,2,8.494015,,0,0,44,44,78,1,stimuli/stim_20210519_power2amp/equal_lnn_AM2.5Hz_s35_41.m4a,,,
,,,,,,,,,,,,36156,2021-05-30_22h34.41.226,judgeSpeechMusic_20210519_logNormShiftAmp_mXs,2020.1.2,MacIntel,60,,,,,,,,,,,,,,2,6.322105,,0,0,45,45,95,1,stimuli/stim_20210519_power2amp/equal_lnn_AM2.5Hz_s55_38.m4a,,,
,,,,,,,,,,,,36156,2021-05-30_22h34.41.226,judgeSpeechMusic_20210519_logNormShiftAmp_mXs,2020.1.2,MacIntel,60,,,,,,,,,,,,,,1,6.42521,,0,0,46,46,19,1,stimuli/stim_20210519_power2amp/equal_lnn_AM1Hz_s25_39.m4a,,,
,,,,,,,,,,,,36156,2021-05-30_22h34.41.226,judgeSpeechMusic_20210519_logNormShiftAmp_mXs,2020.1.2,MacIntel,60,,,,,,,,,,,,,,2,6.39226,,0,0,47,47,127,1,stimuli/stim_20210519_power2amp/equal_lnn_AM4Hz_s35_7.m4a,,,
,,,,,,,,,,,,36156,2021-05-30_22h34.41.226,judgeSpeechMusic_20210519_logNormShiftAmp_mXs,2020.1.2,MacIntel,60,,,,,,,,,,,,,,2,8.008465,,0,0,48,48,131,1,stimuli/stim_20210519_power2amp/equal_lnn_AM4Hz_s45_37.m4a,,,
,,,,,,,,,,,,36156,2021-05-30_22h34.41.226,judgeSpeechMusic_20210519_logNormShiftAmp_mXs,2020.1.2,MacIntel,60,,,,,,,,,,,,,,2,11.059905,,0,0,49,49,37,1,stimuli/stim_20210519_power2amp/equal_lnn_AM1Hz_s45_7.m4a,,,
,,,,,,,,,,,,36156,2021-05-30_22h34.41.226,judgeSpeechMusic_20210519_logNormShiftAmp_mXs,2020.1.2,MacIntel,60,,,,,,,,,,,,,,1,6.71122,,0,0,50,50,54,1,stimuli/stim_20210519_power2amp/equal_lnn_AM2.5Hz_s15_12.m4a,,,
,,,,,,,,,,,,36156,2021-05-30_22h34.41.226,judgeSpeechMusic_20210519_logNormShiftAmp_mXs,2020.1.2,MacIntel,60,,,,,,,,,,,,,,2,8.591595,,0,0,51,51,62,1,stimuli/stim_20210519_power2amp/equal_lnn_AM2.5Hz_s25_20.m4a,,,
,,,,,,,,,,,,36156,2021-05-30_22h34.41.226,judgeSpeechMusic_20210519_logNormShiftAmp_mXs,2020.1.2,MacIntel,60,,,,,,,,,,,,,,1,8.126335,,0,0,52,52,35,1,stimuli/stim_20210519_power2amp/equal_lnn_AM1Hz_s45_42.m4a,,,
,,,,,,,,,,,,36156,2021-05-30_22h34.41.226,judgeSpeechMusic_20210519_logNormShiftAmp_mXs,2020.1.2,MacIntel,60,,,,,,,,,,,,,,1,6.35793,,0,0,53,53,120,1,stimuli/stim_20210519_power2amp/equal_lnn_AM4Hz_s35_47.m4a,,,
,,,,,,,,,,,,36156,2021-05-30_22h34.41.226,judgeSpeechMusic_20210519_logNormShiftAmp_mXs,2020.1.2,MacIntel,60,,,,,,,,,,,,,,2,6.27557,,0,0,54,54,76,1,stimuli/stim_20210519_power2amp/equal_lnn_AM2.5Hz_s35_49.m4a,,,
,,,,,,,,,,,,36156,2021-05-30_22h34.41.226,judgeSpeechMusic_20210519_logNormShiftAmp_mXs,2020.1.2,MacIntel,60,,,,,,,,,,,,,,2,6.024555,,0,0,55,55,88,1,stimuli/stim_20210519_power2amp/equal_lnn_AM2.5Hz_s45_21.m4a,,,
,,,,,,,,,,,,36156,2021-05-30_22h34.41.226,judgeSpeechMusic_20210519_logNormShiftAmp_mXs,2020.1.2,MacIntel,60,,,,,,,,,,,,,,2,6.957285,,0,0,56,56,98,1,stimuli/stim_20210519_power2amp/equal_lnn_AM2.5Hz_s55_41.m4a,,,
,,,,,,,,,,,,36156,2021-05-30_22h34.41.226,judgeSpeechMusic_20210519_logNormShiftAmp_mXs,2020.1.2,MacIntel,60,,,,,,,,,,,,,,2,6.42659,,0,0,57,57,137,1,stimuli/stim_20210519_power2amp/equal_lnn_AM4Hz_s45_1.m4a,,,
,,,,,,,,,,,,36156,2021-05-30_22h34.41.226,judgeSpeechMusic_20210519_logNormShiftAmp_mXs,2020.1.2,MacIntel,60,,,,,,,,,,,,,,2,6.144705,,0,0,58,58,5,1,stimuli/stim_20210519_power2amp/equal_lnn_AM1Hz_s15_43.m4a,,,
,,,,,,,,,,,,36156,2021-05-30_22h34.41.226,judgeSpeechMusic_20210519_logNormShiftAmp_mXs,2020.1.2,MacIntel,60,,,,,,,,,,,,,,2,8.07476,,0,0,59,59,4,1,stimuli/stim_20210519_power2amp/equal_lnn_AM1Hz_s15_12.m4a,,,
,,,,,,,,,,,,36156,2021-05-30_22h34.41.226,judgeSpeechMusic_20210519_logNormShiftAmp_mXs,2020.1.2,MacIntel,60,,,,,,,,,,,,,,2,7.22093,,0,0,60,60,60,1,stimuli/stim_20210519_power2amp/equal_lnn_AM2.5Hz_s25_22.m4a,,,
,,,,,,,,,,,,36156,2021-05-30_22h34.41.226,judgeSpeechMusic_20210519_logNormShiftAmp_mXs,2020.1.2,MacIntel,60,,,,,,,,,,,,,,2,6.96209,,0,0,61,61,8,1,stimuli/stim_20210519_power2amp/equal_lnn_AM1Hz_s15_4.m4a,,,
,,,,,,,,,,,,36156,2021-05-30_22h34.41.226,judgeSpeechMusic_20210519_logNormShiftAmp_mXs,2020.1.2,MacIntel,60,,,,,,,,,,,,,,2,6.42425,,0,0,62,62,75,1,stimuli/stim_20210519_power2amp/equal_lnn_AM2.5Hz_s35_50.m4a,,,
,,,,,,,,,,,,36156,2021-05-30_22h34.41.226,judgeSpeechMusic_20210519_logNormShiftAmp_mXs,2020.1.2,MacIntel,60,,,,,,,,,,,,,,1,6.39328,,0,0,63,63,16,1,stimuli/stim_20210519_power2amp/equal_lnn_AM1Hz_s25_48.m4a,,,
,,,,,,,,,,,,36156,2021-05-30_22h34.41.226,judgeSpeechMusic_20210519_logNormShiftAmp_mXs,2020.1.2,MacIntel,60,,,,,,,,,,,,,,1,6.41055,,0,0,64,64,0,1,stimuli/stim_20210519_power2amp/equal_lnn_AM1Hz_s15_35.m4a,,,
,,,,,,,,,,,,36156,2021-05-30_22h34.41.226,judgeSpeechMusic_20210519_logNormShiftAmp_mXs,2020.1.2,MacIntel,60,,,,,,,,,,,,,,2,6.70885,1,1,0,65,65,140,1,stimuli/stim_20210519_power2amp/equal_lnn_AM4Hz_s55_47.m4a,1.26084,,
,,,,,,,,,,,,36156,2021-05-30_22h34.41.226,judgeSpeechMusic_20210519_logNormShiftAmp_mXs,2020.1.2,MacIntel,60,,,,,,,,,,,,,,2,6.59181,,0,0,66,66,26,1,stimuli/stim_20210519_power2amp/equal_lnn_AM1Hz_s35_16.m4a,,,
,,,,,,,,,,,,36156,2021-05-30_22h34.41.226,judgeSpeechMusic_20210519_logNormShiftAmp_mXs,2020.1.2,MacIntel,60,,,,,,,,,,,,,,2,7.460365,,0,0,67,67,128,1,stimuli/stim_20210519_power2amp/equal_lnn_AM4Hz_s35_1.m4a,,,
,,,,,,,,,,,,36156,2021-05-30_22h34.41.226,judgeSpeechMusic_20210519_logNormShiftAmp_mXs,2020.1.2,MacIntel,60,,,,,,,,,,,,,,2,7.157025,,0,0,68,68,71,1,stimuli/stim_20210519_power2amp/equal_lnn_AM2.5Hz_s35_1.m4a,,,
,,,,,,,,,,,,36156,2021-05-30_22h34.41.226,judgeSpeechMusic_20210519_logNormShiftAmp_mXs,2020.1.2,MacIntel,60,,,,,,,,,,,,,,1,5.987025,,0,0,69,69,144,1,stimuli/stim_20210519_power2amp/equal_lnn_AM4Hz_s55_7.m4a,,,
,,,,,,,,,,,,36156,2021-05-30_22h34.41.226,judgeSpeechMusic_20210519_logNormShiftAmp_mXs,2020.1.2,MacIntel,60,,,,,,,,,,,,,,2,7.32432,,0,0,70,70,132,1,stimuli/stim_20210519_power2amp/equal_lnn_AM4Hz_s45_16.m4a,,,
,,,,,,,,,,,,36156,2021-05-30_22h34.41.226,judgeSpeechMusic_20210519_logNormShiftAmp_mXs,2020.1.2,MacIntel,60,,,,,,,,,,,,,,1,7.94077,,0,0,71,71,121,1,stimuli/stim_20210519_power2amp/equal_lnn_AM4Hz_s35_33.m4a,,,
,,,,,,,,,,,,36156,2021-05-30_22h34.41.226,judgeSpeechMusic_20210519_logNormShiftAmp_mXs,2020.1.2,MacIntel,60,,,,,,,,,,,,,,1,6.260655,,0,0,72,72,100,1,stimuli/stim_20210519_power2amp/equal_lnn_AM4Hz_s15_29.m4a,,,
,,,,,,,,,,,,36156,2021-05-30_22h34.41.226,judgeSpeechMusic_20210519_logNormShiftAmp_mXs,2020.1.2,MacIntel,60,,,,,,,,,,,,,,2,7.128265,,0,0,73,73,66,1,stimuli/stim_20210519_power2amp/equal_lnn_AM2.5Hz_s25_16.m4a,,,
,,,,,,,,,,,,36156,2021-05-30_22h34.41.226,judgeSpeechMusic_20210519_logNormShiftAmp_mXs,2020.1.2,MacIntel,60,,,,,,,,,,,,,,2,6.16115,,0,0,74,74,93,1,stimuli/stim_20210519_power2amp/equal_lnn_AM2.5Hz_s55_25.m4a,,,
,,,,,,,,,,,,36156,2021-05-30_22h34.41.226,judgeSpeechMusic_20210519_logNormShiftAmp_mXs,2020.1.2,MacIntel,60,,,,,,,,,,,,,,2,7.26249,,0,0,75,75,52,1,stimuli/stim_20210519_power2amp/equal_lnn_AM2.5Hz_s15_39.m4a,,,
,,,,,,,,,,,,36156,2021-05-30_22h34.41.226,judgeSpeechMusic_20210519_logNormShiftAmp_mXs,2020.1.2,MacIntel,60,,,,,,,,,,,,,,1,7.50512,,0,0,76,76,125,1,stimuli/stim_20210519_power2amp/equal_lnn_AM4Hz_s35_32.m4a,,,
,,,,,,,,,,,,36156,2021-05-30_22h34.41.226,judgeSpeechMusic_20210519_logNormShiftAmp_mXs,2020.1.2,MacIntel,60,,,,,,,,,,,,,,2,6.60738,,0,0,77,77,129,1,stimuli/stim_20210519_power2amp/equal_lnn_AM4Hz_s35_29.m4a,,,
,,,,,,,,,,,,36156,2021-05-30_22h34.41.226,judgeSpeechMusic_20210519_logNormShiftAmp_mXs,2020.1.2,MacIntel,60,,,,,,,,,,,,,,2,8.09005,,0,0,78,78,133,1,stimuli/stim_20210519_power2amp/equal_lnn_AM4Hz_s45_22.m4a,,,
,,,,,,,,,,,,36156,2021-05-30_22h34.41.226,judgeSpeechMusic_20210519_logNormShiftAmp_mXs,2020.1.2,MacIntel,60,,,,,,,,,,,,,,1,6.091725,,0,0,79,79,130,1,stimuli/stim_20210519_power2amp/equal_lnn_AM4Hz_s45_2.m4a,,,
,,,,,,,,,,,,36156,2021-05-30_22h34.41.226,judgeSpeechMusic_20210519_logNormShiftAmp_mXs,2020.1.2,MacIntel,60,,,,,,,,,,,,,,1,6.36014,,0,0,80,80,80,1,stimuli/stim_20210519_power2amp/equal_lnn_AM2.5Hz_s45_38.m4a,,,
,,,,,,,,,,,,36156,2021-05-30_22h34.41.226,judgeSpeechMusic_20210519_logNormShiftAmp_mXs,2020.1.2,MacIntel,60,,,,,,,,,,,,,,2,5.825575,,0,0,81,81,139,1,stimuli/stim_20210519_power2amp/equal_lnn_AM4Hz_s45_8.m4a,,,
,,,,,,,,,,,,36156,2021-05-30_22h34.41.226,judgeSpeechMusic_20210519_logNormShiftAmp_mXs,2020.1.2,MacIntel,60,,,,,,,,,,,,,,1,7.344675,,0,0,82,82,10,1,stimuli/stim_20210519_power2amp/equal_lnn_AM1Hz_s25_35.m4a,,,
,,,,,,,,,,,,36156,2021-05-30_22h34.41.226,judgeSpeechMusic_20210519_logNormShiftAmp_mXs,2020.1.2,MacIntel,60,,,,,,,,,,,,,,2,7.471725,,0,0,83,83,83,1,stimuli/stim_20210519_power2amp/equal_lnn_AM2.5Hz_s45_44.m4a,,,
,,,,,,,,,,,,36156,2021-05-30_22h34.41.226,judgeSpeechMusic_20210519_logNormShiftAmp_mXs,2020.1.2,MacIntel,60,,,,,,,,,,,,,,2,6.58984,,0,0,84,84,6,1,stimuli/stim_20210519_power2amp/equal_lnn_AM1Hz_s15_25.m4a,,,
,,,,,,,,,,,,36156,2021-05-30_22h34.41.226,judgeSpeechMusic_20210519_logNormShiftAmp_mXs,2020.1.2,MacIntel,60,,,,,,,,,,,,,,2,6.59095,,0,0,85,85,39,1,stimuli/stim_20210519_power2amp/equal_lnn_AM1Hz_s45_46.m4a,,,
,,,,,,,,,,,,36156,2021-05-30_22h34.41.226,judgeSpeechMusic_20210519_logNormShiftAmp_mXs,2020.1.2,MacIntel,60,,,,,,,,,,,,,,2,6.560745,,0,0,86,86,24,1,stimuli/stim_20210519_power2amp/equal_lnn_AM1Hz_s35_20.m4a,,,
,,,,,,,,,,,,36156,2021-05-30_22h34.41.226,judgeSpeechMusic_20210519_logNormShiftAmp_mXs,2020.1.2,MacIntel,60,,,,,,,,,,,,,,1,5.808265,,0,0,87,87,92,1,stimuli/stim_20210519_power2amp/equal_lnn_AM2.5Hz_s55_7.m4a,,,
,,,,,,,,,,,,36156,2021-05-30_22h34.41.226,judgeSpeechMusic_20210519_logNormShiftAmp_mXs,2020.1.2,MacIntel,60,,,,,,,,,,,,,,2,7.754615,,0,0,88,88,74,1,stimuli/stim_20210519_power2amp/equal_lnn_AM2.5Hz_s35_31.m4a,,,
,,,,,,,,,,,,36156,2021-05-30_22h34.41.226,judgeSpeechMusic_20210519_logNormShiftAmp_mXs,2020.1.2,MacIntel,60,,,,,,,,,,,,,,1,6.64287,3,1,0,89,89,85,1,stimuli/stim_20210519_power2amp/equal_lnn_AM2.5Hz_s45_29.m4a,1.18096,,
,,,,,,,,,,,,36156,2021-05-30_22h34.41.226,judgeSpeechMusic_20210519_logNormShiftAmp_mXs,2020.1.2,MacIntel,60,,,,,,,,,,,,,,1,6.527495,,0,0,90,90,147,1,stimuli/stim_20210519_power2amp/equal_lnn_AM4Hz_s55_49.m4a,,,
,,,,,,,,,,,,36156,2021-05-30_22h34.41.226,judgeSpeechMusic_20210519_logNormShiftAmp_mXs,2020.1.2,MacIntel,60,,,,,,,,,,,,,,1,6.235555,,0,0,91,91,102,1,stimuli/stim_20210519_power2amp/equal_lnn_AM4Hz_s15_25.m4a,,,
,,,,,,,,,,,,36156,2021-05-30_22h34.41.226,judgeSpeechMusic_20210519_logNormShiftAmp_mXs,2020.1.2,MacIntel,60,,,,,,,,,,,,,,2,6.45935,,0,0,92,92,99,1,stimuli/stim_20210519_power2amp/equal_lnn_AM2.5Hz_s55_14.m4a,,,
,,,,,,,,,,,,36156,2021-05-30_22h34.41.226,judgeSpeechMusic_20210519_logNormShiftAmp_mXs,2020.1.2,MacIntel,60,,,,,,,,,,,,,,1,6.141735,,0,0,93,93,63,1,stimuli/stim_20210519_power2amp/equal_lnn_AM2.5Hz_s25_32.m4a,,,
,,,,,,,,,,,,36156,2021-05-30_22h34.41.226,judgeSpeechMusic_20210519_logNormShiftAmp_mXs,2020.1.2,MacIntel,60,,,,,,,,,,,,,,2,5.875695,,0,0,94,94,123,1,stimuli/stim_20210519_power2amp/equal_lnn_AM4Hz_s35_14.m4a,,,
,,,,,,,,,,,,36156,2021-05-30_22h34.41.226,judgeSpeechMusic_20210519_logNormShiftAmp_mXs,2020.1.2,MacIntel,60,,,,,,,,,,,,,,1,5.72709,,0,0,95,95,118,1,stimuli/stim_20210519_power2amp/equal_lnn_AM4Hz_s25_30.m4a,,,
,,,,,,,,,,,,36156,2021-05-30_22h34.41.226,judgeSpeechMusic_20210519_logNormShiftAmp_mXs,2020.1.2,MacIntel,60,,,,,,,,,,,,,,2,5.925875,,0,0,96,96,42,1,stimuli/stim_20210519_power2amp/equal_lnn_AM1Hz_s55_45.m4a,,,
,,,,,,,,,,,,36156,2021-05-30_22h34.41.226,judgeSpeechMusic_20210519_logNormShiftAmp_mXs,2020.1.2,MacIntel,60,,,,,,,,,,,,,,2,6.30556,,0,0,97,97,28,1,stimuli/stim_20210519_power2amp/equal_lnn_AM1Hz_s35_12.m4a,,,
,,,,,,,,,,,,36156,2021-05-30_22h34.41.226,judgeSpeechMusic_20210519_logNormShiftAmp_mXs,2020.1.2,MacIntel,60,,,,,,,,,,,,,,1,6.27981,,0,0,98,98,119,1,stimuli/stim_20210519_power2amp/equal_lnn_AM4Hz_s25_34.m4a,,,
,,,,,,,,,,,,36156,2021-05-30_22h34.41.226,judgeSpeechMusic_20210519_logNormShiftAmp_mXs,2020.1.2,MacIntel,60,,,,,,,,,,,,,,1,6.52308,,0,0,99,99,15,1,stimuli/stim_20210519_power2amp/equal_lnn_AM1Hz_s25_41.m4a,,,
,,,,,,,,,,,,36156,2021-05-30_22h34.41.226,judgeSpeechMusic_20210519_logNormShiftAmp_mXs,2020.1.2,MacIntel,60,,,,,,,,,,,,,,1,6.896475,,0,0,100,100,87,1,stimuli/stim_20210519_power2amp/equal_lnn_AM2.5Hz_s45_2.m4a,,,
,,,,,,,,,,,,36156,2021-05-30_22h34.41.226,judgeSpeechMusic_20210519_logNormShiftAmp_mXs,2020.1.2,MacIntel,60,,,,,,,,,,,,,,2,7.27592,,0,0,101,101,49,1,stimuli/stim_20210519_power2amp/equal_lnn_AM1Hz_s55_16.m4a,,,
,,,,,,,,,,,,36156,2021-05-30_22h34.41.226,judgeSpeechMusic_20210519_logNormShiftAmp_mXs,2020.1.2,MacIntel,60,,,,,,,,,,,,,,2,7.67481,,0,0,102,102,31,1,stimuli/stim_20210519_power2amp/equal_lnn_AM1Hz_s45_26.m4a,,,
,,,,,,,,,,,,36156,2021-05-30_22h34.41.226,judgeSpeechMusic_20210519_logNormShiftAmp_mXs,2020.1.2,MacIntel,60,,,,,,,,,,,,,,2,7.70799,,0,0,103,103,17,1,stimuli/stim_20210519_power2amp/equal_lnn_AM1Hz_s25_19.m4a,,,
,,,,,,,,,,,,36156,2021-05-30_22h34.41.226,judgeSpeechMusic_20210519_logNormShiftAmp_mXs,2020.1.2,MacIntel,60,,,,,,,,,,,,,,2,5.81075,,0,0,104,104,36,1,stimuli/stim_20210519_power2amp/equal_lnn_AM1Hz_s45_28.m4a,,,
,,,,,,,,,,,,36156,2021-05-30_22h34.41.226,judgeSpeechMusic_20210519_logNormShiftAmp_mXs,2020.1.2,MacIntel,60,,,,,,,,,,,,,,1,5.84301,,0,0,105,105,112,1,stimuli/stim_20210519_power2amp/equal_lnn_AM4Hz_s25_32.m4a,,,
,,,,,,,,,,,,36156,2021-05-30_22h34.41.226,judgeSpeechMusic_20210519_logNormShiftAmp_mXs,2020.1.2,MacIntel,60,,,,,,,,,,,,,,2,7.175265,,0,0,106,106,41,1,stimuli/stim_20210519_power2amp/equal_lnn_AM1Hz_s55_36.m4a,,,
,,,,,,,,,,,,36156,2021-05-30_22h34.41.226,judgeSpeechMusic_20210519_logNormShiftAmp_mXs,2020.1.2,MacIntel,60,,,,,,,,,,,,,,2,6.677635,,0,0,107,107,58,1,stimuli/stim_20210519_power2amp/equal_lnn_AM2.5Hz_s15_43.m4a,,,
,,,,,,,,,,,,36156,2021-05-30_22h34.41.226,judgeSpeechMusic_20210519_logNormShiftAmp_mXs,2020.1.2,MacIntel,60,,,,,,,,,,,,,,2,7.80709,,0,0,108,108,134,1,stimuli/stim_20210519_power2amp/equal_lnn_AM4Hz_s45_21.m4a,,,
,,,,,,,,,,,,36156,2021-05-30_22h34.41.226,judgeSpeechMusic_20210519_logNormShiftAmp_mXs,2020.1.2,MacIntel,60,,,,,,,,,,,,,,2,6.809125,,0,0,109,109,33,1,stimuli/stim_20210519_power2amp/equal_lnn_AM1Hz_s45_6.m4a,,,
,,,,,,,,,,,,36156,2021-05-30_22h34.41.226,judgeSpeechMusic_20210519_logNormShiftAmp_mXs,2020.1.2,MacIntel,60,,,,,,,,,,,,,,2,7.131695,,0,0,110,110,20,1,stimuli/stim_20210519_power2amp/equal_lnn_AM1Hz_s35_7.m4a,,,
,,,,,,,,,,,,36156,2021-05-30_22h34.41.226,judgeSpeechMusic_20210519_logNormShiftAmp_mXs,2020.1.2,MacIntel,60,,,,,,,,,,,,,,1,7.275835,2,1,0,111,111,57,1,stimuli/stim_20210519_power2amp/equal_lnn_AM2.5Hz_s15_2.m4a,1.3665,,
,,,,,,,,,,,,36156,2021-05-30_22h34.41.226,judgeSpeechMusic_20210519_logNormShiftAmp_mXs,2020.1.2,MacIntel,60,,,,,,,,,,,,,,1,6.809175,,0,0,112,112,91,1,stimuli/stim_20210519_power2amp/equal_lnn_AM2.5Hz_s55_32.m4a,,,
,,,,,,,,,,,,36156,2021-05-30_22h34.41.226,judgeSpeechMusic_20210519_logNormShiftAmp_mXs,2020.1.2,MacIntel,60,,,,,,,,,,,,,,1,5.98735,,0,0,113,113,55,1,stimuli/stim_20210519_power2amp/equal_lnn_AM2.5Hz_s15_32.m4a,,,
,,,,,,,,,,,,36156,2021-05-30_22h34.41.226,judgeSpeechMusic_20210519_logNormShiftAmp_mXs,2020.1.2,MacIntel,60,,,,,,,,,,,,,,1,6.225635,,0,0,114,114,53,1,stimuli/stim_20210519_power2amp/equal_lnn_AM2.5Hz_s15_30.m4a,,,
,,,,,,,,,,,,36156,2021-05-30_22h34.41.226,judgeSpeechMusic_20210519_logNormShiftAmp_mXs,2020.1.2,MacIntel,60,,,,,,,,,,,,,,1,6.39587,,0,0,115,115,101,1,stimuli/stim_20210519_power2amp/equal_lnn_AM4Hz_s15_43.m4a,,,
,,,,,,,,,,,,36156,2021-05-30_22h34.41.226,judgeSpeechMusic_20210519_logNormShiftAmp_mXs,2020.1.2,MacIntel,60,,,,,,,,,,,,,,2,7.52466,,0,0,116,116,73,1,stimuli/stim_20210519_power2amp/equal_lnn_AM2.5Hz_s35_5.m4a,,,
,,,,,,,,,,,,36156,2021-05-30_22h34.41.226,judgeSpeechMusic_20210519_logNormShiftAmp_mXs,2020.1.2,MacIntel,60,,,,,,,,,,,,,,2,7.759545,,0,0,117,117,67,1,stimuli/stim_20210519_power2amp/equal_lnn_AM2.5Hz_s25_10.m4a,,,
,,,,,,,,,,,,36156,2021-05-30_22h34.41.226,judgeSpeechMusic_20210519_logNormShiftAmp_mXs,2020.1.2,MacIntel,60,,,,,,,,,,,,,,2,6.52932,,0,0,118,118,46,1,stimuli/stim_20210519_power2amp/equal_lnn_AM1Hz_s55_28.m4a,,,
,,,,,,,,,,,,36156,2021-05-30_22h34.41.226,judgeSpeechMusic_20210519_logNormShiftAmp_mXs,2020.1.2,MacIntel,60,,,,,,,,,,,,,,2,8.541175,,0,0,119,119,25,1,stimuli/stim_20210519_power2amp/equal_lnn_AM1Hz_s35_50.m4a,,,
,,,,,,,,,,,,36156,2021-05-30_22h34.41.226,judgeSpeechMusic_20210519_logNormShiftAmp_mXs,2020.1.2,MacIntel,60,,,,,,,,,,,,,,1,6.043365,,0,0,120,120,111,1,stimuli/stim_20210519_power2amp/equal_lnn_AM4Hz_s25_50.m4a,,,
,,,,,,,,,,,,36156,2021-05-30_22h34.41.226,judgeSpeechMusic_20210519_logNormShiftAmp_mXs,2020.1.2,MacIntel,60,,,,,,,,,,,,,,1,6.46062,,0,0,121,121,72,1,stimuli/stim_20210519_power2amp/equal_lnn_AM2.5Hz_s35_32.m4a,,,
,,,,,,,,,,,,36156,2021-05-30_22h34.41.226,judgeSpeechMusic_20210519_logNormShiftAmp_mXs,2020.1.2,MacIntel,60,,,,,,,,,,,,,,2,6.65963,,0,0,122,122,12,1,stimuli/stim_20210519_power2amp/equal_lnn_AM1Hz_s25_34.m4a,,,
,,,,,,,,,,,,36156,2021-05-30_22h34.41.226,judgeSpeechMusic_20210519_logNormShiftAmp_mXs,2020.1.2,MacIntel,60,,,,,,,,,,,,,,2,7.60772,,0,0,123,123,68,1,stimuli/stim_20210519_power2amp/equal_lnn_AM2.5Hz_s25_21.m4a,,,
,,,,,,,,,,,,36156,2021-05-30_22h34.41.226,judgeSpeechMusic_20210519_logNormShiftAmp_mXs,2020.1.2,MacIntel,60,,,,,,,,,,,,,,2,6.25787,,0,0,124,124,108,1,stimuli/stim_20210519_power2amp/equal_lnn_AM4Hz_s15_6.m4a,,,
,,,,,,,,,,,,36156,2021-05-30_22h34.41.226,judgeSpeechMusic_20210519_logNormShiftAmp_mXs,2020.1.2,MacIntel,60,,,,,,,,,,,,,,1,5.68707,,0,0,125,125,106,1,stimuli/stim_20210519_power2amp/equal_lnn_AM4Hz_s15_28.m4a,,,
,,,,,,,,,,,,36156,2021-05-30_22h34.41.226,judgeSpeechMusic_20210519_logNormShiftAmp_mXs,2020.1.2,MacIntel,60,,,,,,,,,,,,,,2,8.805225,,0,0,126,126,79,1,stimuli/stim_20210519_power2amp/equal_lnn_AM2.5Hz_s35_28.m4a,,,
,,,,,,,,,,,,36156,2021-05-30_22h34.41.226,judgeSpeechMusic_20210519_logNormShiftAmp_mXs,2020.1.2,MacIntel,60,,,,,,,,,,,,,,1,6.157845,,0,0,127,127,105,1,stimuli/stim_20210519_power2amp/equal_lnn_AM4Hz_s15_47.m4a,,,
,,,,,,,,,,,,36156,2021-05-30_22h34.41.226,judgeSpeechMusic_20210519_logNormShiftAmp_mXs,2020.1.2,MacIntel,60,,,,,,,,,,,,,,2,6.140165,,0,0,128,128,22,1,stimuli/stim_20210519_power2amp/equal_lnn_AM1Hz_s35_9.m4a,,,
,,,,,,,,,,,,36156,2021-05-30_22h34.41.226,judgeSpeechMusic_20210519_logNormShiftAmp_mXs,2020.1.2,MacIntel,60,,,,,,,,,,,,,,2,6.99222,,0,0,129,129,82,1,stimuli/stim_20210519_power2amp/equal_lnn_AM2.5Hz_s45_18.m4a,,,
,,,,,,,,,,,,36156,2021-05-30_22h34.41.226,judgeSpeechMusic_20210519_logNormShiftAmp_mXs,2020.1.2,MacIntel,60,,,,,,,,,,,,,,1,5.773335,,0,0,130,130,135,1,stimuli/stim_20210519_power2amp/equal_lnn_AM4Hz_s45_47.m4a,,,
,,,,,,,,,,,,36156,2021-05-30_22h34.41.226,judgeSpeechMusic_20210519_logNormShiftAmp_mXs,2020.1.2,MacIntel,60,,,,,,,,,,,,,,1,6.92947,,0,0,131,131,94,1,stimuli/stim_20210519_power2amp/equal_lnn_AM2.5Hz_s55_1.m4a,,,
,,,,,,,,,,,,36156,2021-05-30_22h34.41.226,judgeSpeechMusic_20210519_logNormShiftAmp_mXs,2020.1.2,MacIntel,60,,,,,,,,,,,,,,1,5.84668,,0,0,132,132,103,1,stimuli/stim_20210519_power2amp/equal_lnn_AM4Hz_s15_40.m4a,,,
,,,,,,,,,,,,36156,2021-05-30_22h34.41.226,judgeSpeechMusic_20210519_logNormShiftAmp_mXs,2020.1.2,MacIntel,60,,,,,,,,,,,,,,1,7.126365,,0,0,133,133,45,1,stimuli/stim_20210519_power2amp/equal_lnn_AM1Hz_s55_1.m4a,,,
,,,,,,,,,,,,36156,2021-05-30_22h34.41.226,judgeSpeechMusic_20210519_logNormShiftAmp_mXs,2020.1.2,MacIntel,60,,,,,,,,,,,,,,2,6.86144,,0,0,134,134,97,1,stimuli/stim_20210519_power2amp/equal_lnn_AM2.5Hz_s55_37.m4a,,,
,,,,,,,,,,,,36156,2021-05-30_22h34.41.226,judgeSpeechMusic_20210519_logNormShiftAmp_mXs,2020.1.2,MacIntel,60,,,,,,,,,,,,,,2,6.74095,3,1,0,135,135,13,1,stimuli/stim_20210519_power2amp/equal_lnn_AM1Hz_s25_11.m4a,1.428215,,
,,,,,,,,,,,,36156,2021-05-30_22h34.41.226,judgeSpeechMusic_20210519_logNormShiftAmp_mXs,2020.1.2,MacIntel,60,,,,,,,,,,,,,,2,6.071795,,0,0,136,136,124,1,stimuli/stim_20210519_power2amp/equal_lnn_AM4Hz_s35_43.m4a,,,
,,,,,,,,,,,,36156,2021-05-30_22h34.41.226,judgeSpeechMusic_20210519_logNormShiftAmp_mXs,2020.1.2,MacIntel,60,,,,,,,,,,,,,,2,6.57471,,0,0,137,137,43,1,stimuli/stim_20210519_power2amp/equal_lnn_AM1Hz_s55_46.m4a,,,
,,,,,,,,,,,,36156,2021-05-30_22h34.41.226,judgeSpeechMusic_20210519_logNormShiftAmp_mXs,2020.1.2,MacIntel,60,,,,,,,,,,,,,,2,5.95443,,0,0,138,138,90,1,stimuli/stim_20210519_power2amp/equal_lnn_AM2.5Hz_s55_27.m4a,,,
,,,,,,,,,,,,36156,2021-05-30_22h34.41.226,judgeSpeechMusic_20210519_logNormShiftAmp_mXs,2020.1.2,MacIntel,60,,,,,,,,,,,,,,2,6.607505,,0,0,139,139,27,1,stimuli/stim_20210519_power2amp/equal_lnn_AM1Hz_s35_23.m4a,,,
,,,,,,,,,,,,36156,2021-05-30_22h34.41.226,judgeSpeechMusic_20210519_logNormShiftAmp_mXs,2020.1.2,MacIntel,60,,,,,,,,,,,,,,2,6.1965,,0,0,140,140,30,1,stimuli/stim_20210519_power2amp/equal_lnn_AM1Hz_s45_1.m4a,,,
,,,,,,,,,,,,36156,2021-05-30_22h34.41.226,judgeSpeechMusic_20210519_logNormShiftAmp_mXs,2020.1.2,MacIntel,60,,,,,,,,,,,,,,2,6.797985,,0,0,141,141,7,1,stimuli/stim_20210519_power2amp/equal_lnn_AM1Hz_s15_8.m4a,,,
,,,,,,,,,,,,36156,2021-05-30_22h34.41.226,judgeSpeechMusic_20210519_logNormShiftAmp_mXs,2020.1.2,MacIntel,60,,,,,,,,,,,,,,2,6.70799,,0,0,142,142,40,1,stimuli/stim_20210519_power2amp/equal_lnn_AM1Hz_s55_4.m4a,,,
,,,,,,,,,,,,36156,2021-05-30_22h34.41.226,judgeSpeechMusic_20210519_logNormShiftAmp_mXs,2020.1.2,MacIntel,60,,,,,,,,,,,,,,2,6.39216,,0,0,143,143,3,1,stimuli/stim_20210519_power2amp/equal_lnn_AM1Hz_s15_13.m4a,,,
,,,,,,,,,,,,36156,2021-05-30_22h34.41.226,judgeSpeechMusic_20210519_logNormShiftAmp_mXs,2020.1.2,MacIntel,60,,,,,,,,,,,,,,1,5.92405,,0,0,144,144,143,1,stimuli/stim_20210519_power2amp/equal_lnn_AM4Hz_s55_36.m4a,,,
,,,,,,,,,,,,36156,2021-05-30_22h34.41.226,judgeSpeechMusic_20210519_logNormShiftAmp_mXs,2020.1.2,MacIntel,60,,,,,,,,,,,,,,1,8.511625,,0,0,145,145,115,1,stimuli/stim_20210519_power2amp/equal_lnn_AM4Hz_s25_5.m4a,,,
,,,,,,,,,,,,36156,2021-05-30_22h34.41.226,judgeSpeechMusic_20210519_logNormShiftAmp_mXs,2020.1.2,MacIntel,60,,,,,,,,,,,,,,2,6.754905,,0,0,146,146,96,1,stimuli/stim_20210519_power2amp/equal_lnn_AM2.5Hz_s55_49.m4a,,,
,,,,,,,,,,,,36156,2021-05-30_22h34.41.226,judgeSpeechMusic_20210519_logNormShiftAmp_mXs,2020.1.2,MacIntel,60,,,,,,,,,,,,,,2,7.16733,,0,0,147,147,84,1,stimuli/stim_20210519_power2amp/equal_lnn_AM2.5Hz_s45_32.m4a,,,
,,,,,,,,,,,,36156,2021-05-30_22h34.41.226,judgeSpeechMusic_20210519_logNormShiftAmp_mXs,2020.1.2,MacIntel,60,,,,,,,,,,,,,,1,6.990235,,0,0,148,148,61,1,stimuli/stim_20210519_power2amp/equal_lnn_AM2.5Hz_s25_7.m4a,,,
,,,,,,,,,,,,36156,2021-05-30_22h34.41.226,judgeSpeechMusic_20210519_logNormShiftAmp_mXs,2020.1.2,MacIntel,60,,,,,,,,,,,,,,2,6.972535,,0,0,149,149,138,1,stimuli/stim_20210519_power2amp/equal_lnn_AM4Hz_s45_10.m4a,,,
,,,,,,,,,,,,36156,2021-05-30_22h34.41.226,judgeSpeechMusic_20210519_logNormShiftAmp_mXs,2020.1.2,MacIntel,60,,,,,,,,,,,,,,1,5.85763,,0,1,0,150,50,1,stimuli/stim_20210519_power2amp/equal_lnn_AM2.5Hz_s15_37.m4a,,,
,,,,,,,,,,,,36156,2021-05-30_22h34.41.226,judgeSpeechMusic_20210519_logNormShiftAmp_mXs,2020.1.2,MacIntel,60,,,,,,,,,,,,,,2,6.377305,,0,1,1,151,42,1,stimuli/stim_20210519_power2amp/equal_lnn_AM1Hz_s55_45.m4a,,,
,,,,,,,,,,,,36156,2021-05-30_22h34.41.226,judgeSpeechMusic_20210519_logNormShiftAmp_mXs,2020.1.2,MacIntel,60,,,,,,,,,,,,,,1,6.090955,,0,1,2,152,105,1,stimuli/stim_20210519_power2amp/equal_lnn_AM4Hz_s15_47.m4a,,,
,,,,,,,,,,,,36156,2021-05-30_22h34.41.226,judgeSpeechMusic_20210519_logNormShiftAmp_mXs,2020.1.2,MacIntel,60,,,,,,,,,,,,,,1,7.14185,,0,1,3,153,66,1,stimuli/stim_20210519_power2amp/equal_lnn_AM2.5Hz_s25_16.m4a,,,
,,,,,,,,,,,,36156,2021-05-30_22h34.41.226,judgeSpeechMusic_20210519_logNormShiftAmp_mXs,2020.1.2,MacIntel,60,,,,,,,,,,,,,,1,7.05887,,0,1,4,154,74,1,stimuli/stim_20210519_power2amp/equal_lnn_AM2.5Hz_s35_31.m4a,,,
,,,,,,,,,,,,36156,2021-05-30_22h34.41.226,judgeSpeechMusic_20210519_logNormShiftAmp_mXs,2020.1.2,MacIntel,60,,,,,,,,,,,,,,1,5.81144,,0,1,5,155,52,1,stimuli/stim_20210519_power2amp/equal_lnn_AM2.5Hz_s15_39.m4a,,,
,,,,,,,,,,,,36156,2021-05-30_22h34.41.226,judgeSpeechMusic_20210519_logNormShiftAmp_mXs,2020.1.2,MacIntel,60,,,,,,,,,,,,,,2,8.72851,,0,1,6,156,97,1,stimuli/stim_20210519_power2amp/equal_lnn_AM2.5Hz_s55_37.m4a,,,
,,,,,,,,,,,,36156,2021-05-30_22h34.41.226,judgeSpeechMusic_20210519_logNormShiftAmp_mXs,2020.1.2,MacIntel,60,,,,,,,,,,,,,,2,6.645615,,0,1,7,157,8,1,stimuli/stim_20210519_power2amp/equal_lnn_AM1Hz_s15_4.m4a,,,
,,,,,,,,,,,,36156,2021-05-30_22h34.41.226,judgeSpeechMusic_20210519_logNormShiftAmp_mXs,2020.1.2,MacIntel,60,,,,,,,,,,,,,,2,6.19309,,0,1,8,158,98,1,stimuli/stim_20210519_power2amp/equal_lnn_AM2.5Hz_s55_41.m4a,,,
,,,,,,,,,,,,36156,2021-05-30_22h34.41.226,judgeSpeechMusic_20210519_logNormShiftAmp_mXs,2020.1.2,MacIntel,60,,,,,,,,,,,,,,1,7.15524,,0,1,9,159,41,1,stimuli/stim_20210519_power2amp/equal_lnn_AM1Hz_s55_36.m4a,,,
,,,,,,,,,,,,36156,2021-05-30_22h34.41.226,judgeSpeechMusic_20210519_logNormShiftAmp_mXs,2020.1.2,MacIntel,60,,,,,,,,,,,,,,1,6.037965,1,1,1,10,160,133,1,stimuli/stim_20210519_power2amp/equal_lnn_AM4Hz_s45_22.m4a,1.242765,,
,,,,,,,,,,,,36156,2021-05-30_22h34.41.226,judgeSpeechMusic_20210519_logNormShiftAmp_mXs,2020.1.2,MacIntel,60,,,,,,,,,,,,,,2,7.5633,,0,1,11,161,31,1,stimuli/stim_20210519_power2amp/equal_lnn_AM1Hz_s45_26.m4a,,,
,,,,,,,,,,,,36156,2021-05-30_22h34.41.226,judgeSpeechMusic_20210519_logNormShiftAmp_mXs,2020.1.2,MacIntel,60,,,,,,,,,,,,,,1,6.438105,,0,1,12,162,86,1,stimuli/stim_20210519_power2amp/equal_lnn_AM2.5Hz_s45_1.m4a,,,
,,,,,,,,,,,,36156,2021-05-30_22h34.41.226,judgeSpeechMusic_20210519_logNormShiftAmp_mXs,2020.1.2,MacIntel,60,,,,,,,,,,,,,,1,8.408235,,0,1,13,163,72,1,stimuli/stim_20210519_power2amp/equal_lnn_AM2.5Hz_s35_32.m4a,,,
,,,,,,,,,,,,36156,2021-05-30_22h34.41.226,judgeSpeechMusic_20210519_logNormShiftAmp_mXs,2020.1.2,MacIntel,60,,,,,,,,,,,,,,1,6.862115,,0,1,14,164,55,1,stimuli/stim_20210519_power2amp/equal_lnn_AM2.5Hz_s15_32.m4a,,,
,,,,,,,,,,,,36156,2021-05-30_22h34.41.226,judgeSpeechMusic_20210519_logNormShiftAmp_mXs,2020.1.2,MacIntel,60,,,,,,,,,,,,,,2,6.79072,,0,1,15,165,95,1,stimuli/stim_20210519_power2amp/equal_lnn_AM2.5Hz_s55_38.m4a,,,
,,,,,,,,,,,,36156,2021-05-30_22h34.41.226,judgeSpeechMusic_20210519_logNormShiftAmp_mXs,2020.1.2,MacIntel,60,,,,,,,,,,,,,,1,7.009595,,0,1,16,166,122,1,stimuli/stim_20210519_power2amp/equal_lnn_AM4Hz_s35_36.m4a,,,
,,,,,,,,,,,,36156,2021-05-30_22h34.41.226,judgeSpeechMusic_20210519_logNormShiftAmp_mXs,2020.1.2,MacIntel,60,,,,,,,,,,,,,,2,5.82531,,0,1,17,167,80,1,stimuli/stim_20210519_power2amp/equal_lnn_AM2.5Hz_s45_38.m4a,,,
,,,,,,,,,,,,36156,2021-05-30_22h34.41.226,judgeSpeechMusic_20210519_logNormShiftAmp_mXs,2020.1.2,MacIntel,60,,,,,,,,,,,,,,2,6.275215,,0,1,18,168,88,1,stimuli/stim_20210519_power2amp/equal_lnn_AM2.5Hz_s45_21.m4a,,,
,,,,,,,,,,,,36156,2021-05-30_22h34.41.226,judgeSpeechMusic_20210519_logNormShiftAmp_mXs,2020.1.2,MacIntel,60,,,,,,,,,,,,,,2,7.608125,,0,1,19,169,113,1,stimuli/stim_20210519_power2amp/equal_lnn_AM4Hz_s25_1.m4a,,,
,,,,,,,,,,,,36156,2021-05-30_22h34.41.226,judgeSpeechMusic_20210519_logNormShiftAmp_mXs,2020.1.2,MacIntel,60,,,,,,,,,,,,,,2,5.77485,,0,1,20,170,29,1,stimuli/stim_20210519_power2amp/equal_lnn_AM1Hz_s35_32.m4a,,,
,,,,,,,,,,,,36156,2021-05-30_22h34.41.226,judgeSpeechMusic_20210519_logNormShiftAmp_mXs,2020.1.2,MacIntel,60,,,,,,,,,,,,,,2,7.45854,,0,1,21,171,69,1,stimuli/stim_20210519_power2amp/equal_lnn_AM2.5Hz_s25_41.m4a,,,
,,,,,,,,,,,,36156,2021-05-30_22h34.41.226,judgeSpeechMusic_20210519_logNormShiftAmp_mXs,2020.1.2,MacIntel,60,,,,,,,,,,,,,,1,6.29195,,0,1,22,172,114,1,stimuli/stim_20210519_power2amp/equal_lnn_AM4Hz_s25_27.m4a,,,
,,,,,,,,,,,,36156,2021-05-30_22h34.41.226,judgeSpeechMusic_20210519_logNormShiftAmp_mXs,2020.1.2,MacIntel,60,,,,,,,,,,,,,,2,8.27559,,0,1,23,173,22,1,stimuli/stim_20210519_power2amp/equal_lnn_AM1Hz_s35_9.m4a,,,
,,,,,,,,,,,,36156,2021-05-30_22h34.41.226,judgeSpeechMusic_20210519_logNormShiftAmp_mXs,2020.1.2,MacIntel,60,,,,,,,,,,,,,,2,6.714195,,0,1,24,174,68,1,stimuli/stim_20210519_power2amp/equal_lnn_AM2.5Hz_s25_21.m4a,,,
,,,,,,,,,,,,36156,2021-05-30_22h34.41.226,judgeSpeechMusic_20210519_logNormShiftAmp_mXs,2020.1.2,MacIntel,60,,,,,,,,,,,,,,1,5.974075,,0,1,25,175,104,1,stimuli/stim_20210519_power2amp/equal_lnn_AM4Hz_s15_13.m4a,,,
,,,,,,,,,,,,36156,2021-05-30_22h34.41.226,judgeSpeechMusic_20210519_logNormShiftAmp_mXs,2020.1.2,MacIntel,60,,,,,,,,,,,,,,2,6.06011,,0,1,26,176,85,1,stimuli/stim_20210519_power2amp/equal_lnn_AM2.5Hz_s45_29.m4a,,,
,,,,,,,,,,,,36156,2021-05-30_22h34.41.226,judgeSpeechMusic_20210519_logNormShiftAmp_mXs,2020.1.2,MacIntel,60,,,,,,,,,,,,,,1,6.488495,,0,1,27,177,108,1,stimuli/stim_20210519_power2amp/equal_lnn_AM4Hz_s15_6.m4a,,,
,,,,,,,,,,,,36156,2021-05-30_22h34.41.226,judgeSpeechMusic_20210519_logNormShiftAmp_mXs,2020.1.2,MacIntel,60,,,,,,,,,,,,,,1,6.244235,,0,1,28,178,142,1,stimuli/stim_20210519_power2amp/equal_lnn_AM4Hz_s55_8.m4a,,,
,,,,,,,,,,,,36156,2021-05-30_22h34.41.226,judgeSpeechMusic_20210519_logNormShiftAmp_mXs,2020.1.2,MacIntel,60,,,,,,,,,,,,,,1,7.478075,,0,1,29,179,70,1,stimuli/stim_20210519_power2amp/equal_lnn_AM2.5Hz_s35_37.m4a,,,
,,,,,,,,,,,,36156,2021-05-30_22h34.41.226,judgeSpeechMusic_20210519_logNormShiftAmp_mXs,2020.1.2,MacIntel,60,,,,,,,,,,,,,,1,6.144035,,0,1,30,180,120,1,stimuli/stim_20210519_power2amp/equal_lnn_AM4Hz_s35_47.m4a,,,
,,,,,,,,,,,,36156,2021-05-30_22h34.41.226,judgeSpeechMusic_20210519_logNormShiftAmp_mXs,2020.1.2,MacIntel,60,,,,,,,,,,,,,,2,6.72809,,0,1,31,181,6,1,stimuli/stim_20210519_power2amp/equal_lnn_AM1Hz_s15_25.m4a,,,
,,,,,,,,,,,,36156,2021-05-30_22h34.41.226,judgeSpeechMusic_20210519_logNormShiftAmp_mXs,2020.1.2,MacIntel,60,,,,,,,,,,,,,,2,6.725415,,0,1,32,182,62,1,stimuli/stim_20210519_power2amp/equal_lnn_AM2.5Hz_s25_20.m4a,,,
,,,,,,,,,,,,36156,2021-05-30_22h34.41.226,judgeSpeechMusic_20210519_logNormShiftAmp_mXs,2020.1.2,MacIntel,60,,,,,,,,,,,,,,1,7.47816,,0,1,33,183,92,1,stimuli/stim_20210519_power2amp/equal_lnn_AM2.5Hz_s55_7.m4a,,,
,,,,,,,,,,,,36156,2021-05-30_22h34.41.226,judgeSpeechMusic_20210519_logNormShiftAmp_mXs,2020.1.2,MacIntel,60,,,,,,,,,,,,,,2,7.50496,2,1,1,34,184,99,1,stimuli/stim_20210519_power2amp/equal_lnn_AM2.5Hz_s55_14.m4a,0.64157,,
,,,,,,,,,,,,36156,2021-05-30_22h34.41.226,judgeSpeechMusic_20210519_logNormShiftAmp_mXs,2020.1.2,MacIntel,60,,,,,,,,,,,,,,1,6.47611,,0,1,35,185,107,1,stimuli/stim_20210519_power2amp/equal_lnn_AM4Hz_s15_37.m4a,,,
,,,,,,,,,,,,36156,2021-05-30_22h34.41.226,judgeSpeechMusic_20210519_logNormShiftAmp_mXs,2020.1.2,MacIntel,60,,,,,,,,,,,,,,2,6.264905,,0,1,36,186,10,1,stimuli/stim_20210519_power2amp/equal_lnn_AM1Hz_s25_35.m4a,,,
,,,,,,,,,,,,36156,2021-05-30_22h34.41.226,judgeSpeechMusic_20210519_logNormShiftAmp_mXs,2020.1.2,MacIntel,60,,,,,,,,,,,,,,2,7.728375,,0,1,37,187,111,1,stimuli/stim_20210519_power2amp/equal_lnn_AM4Hz_s25_50.m4a,,,
,,,,,,,,,,,,36156,2021-05-30_22h34.41.226,judgeSpeechMusic_20210519_logNormShiftAmp_mXs,2020.1.2,MacIntel,60,,,,,,,,,,,,,,2,8.504825,,0,1,38,188,30,1,stimuli/stim_20210519_power2amp/equal_lnn_AM1Hz_s45_1.m4a,,,
,,,,,,,,,,,,36156,2021-05-30_22h34.41.226,judgeSpeechMusic_20210519_logNormShiftAmp_mXs,2020.1.2,MacIntel,60,,,,,,,,,,,,,,2,6.493165,,0,1,39,189,39,1,stimuli/stim_20210519_power2amp/equal_lnn_AM1Hz_s45_46.m4a,,,
,,,,,,,,,,,,36156,2021-05-30_22h34.41.226,judgeSpeechMusic_20210519_logNormShiftAmp_mXs,2020.1.2,MacIntel,60,,,,,,,,,,,,,,1,5.94388,,0,1,40,190,87,1,stimuli/stim_20210519_power2amp/equal_lnn_AM2.5Hz_s45_2.m4a,,,
,,,,,,,,,,,,36156,2021-05-30_22h34.41.226,judgeSpeechMusic_20210519_logNormShiftAmp_mXs,2020.1.2,MacIntel,60,,,,,,,,,,,,,,2,8.655835,,0,1,41,191,15,1,stimuli/stim_20210519_power2amp/equal_lnn_AM1Hz_s25_41.m4a,,,
,,,,,,,,,,,,36156,2021-05-30_22h34.41.226,judgeSpeechMusic_20210519_logNormShiftAmp_mXs,2020.1.2,MacIntel,60,,,,,,,,,,,,,,2,7.71992,,0,1,42,192,33,1,stimuli/stim_20210519_power2amp/equal_lnn_AM1Hz_s45_6.m4a,,,
,,,,,,,,,,,,36156,2021-05-30_22h34.41.226,judgeSpeechMusic_20210519_logNormShiftAmp_mXs,2020.1.2,MacIntel,60,,,,,,,,,,,,,,2,5.9081,,0,1,43,193,21,1,stimuli/stim_20210519_power2amp/equal_lnn_AM1Hz_s35_39.m4a,,,
,,,,,,,,,,,,36156,2021-05-30_22h34.41.226,judgeSpeechMusic_20210519_logNormShiftAmp_mXs,2020.1.2,MacIntel,60,,,,,,,,,,,,,,1,5.992465,,0,1,44,194,64,1,stimuli/stim_20210519_power2amp/equal_lnn_AM2.5Hz_s25_19.m4a,,,
,,,,,,,,,,,,36156,2021-05-30_22h34.41.226,judgeSpeechMusic_20210519_logNormShiftAmp_mXs,2020.1.2,MacIntel,60,,,,,,,,,,,,,,2,6.52511,,0,1,45,195,13,1,stimuli/stim_20210519_power2amp/equal_lnn_AM1Hz_s25_11.m4a,,,
,,,,,,,,,,,,36156,2021-05-30_22h34.41.226,judgeSpeechMusic_20210519_logNormShiftAmp_mXs,2020.1.2,MacIntel,60,,,,,,,,,,,,,,1,6.94076,,0,1,46,196,125,1,stimuli/stim_20210519_power2amp/equal_lnn_AM4Hz_s35_32.m4a,,,
,,,,,,,,,,,,36156,2021-05-30_22h34.41.226,judgeSpeechMusic_20210519_logNormShiftAmp_mXs,2020.1.2,MacIntel,60,,,,,,,,,,,,,,1,7.47915,,0,1,47,197,45,1,stimuli/stim_20210519_power2amp/equal_lnn_AM1Hz_s55_1.m4a,,,
,,,,,,,,,,,,36156,2021-05-30_22h34.41.226,judgeSpeechMusic_20210519_logNormShiftAmp_mXs,2020.1.2,MacIntel,60,,,,,,,,,,,,,,1,5.791275,,0,1,48,198,54,1,stimuli/stim_20210519_power2amp/equal_lnn_AM2.5Hz_s15_12.m4a,,,
,,,,,,,,,,,,36156,2021-05-30_22h34.41.226,judgeSpeechMusic_20210519_logNormShiftAmp_mXs,2020.1.2,MacIntel,60,,,,,,,,,,,,,,1,7.842105,,0,1,49,199,46,1,stimuli/stim_20210519_power2amp/equal_lnn_AM1Hz_s55_28.m4a,,,
,,,,,,,,,,,,36156,2021-05-30_22h34.41.226,judgeSpeechMusic_20210519_logNormShiftAmp_mXs,2020.1.2,MacIntel,60,,,,,,,,,,,,,,2,6.976885,,0,1,50,200,109,1,stimuli/stim_20210519_power2amp/equal_lnn_AM4Hz_s15_8.m4a,,,
,,,,,,,,,,,,36156,2021-05-30_22h34.41.226,judgeSpeechMusic_20210519_logNormShiftAmp_mXs,2020.1.2,MacIntel,60,,,,,,,,,,,,,,2,8.75995,,0,1,51,201,7,1,stimuli/stim_20210519_power2amp/equal_lnn_AM1Hz_s15_8.m4a,,,
,,,,,,,,,,,,36156,2021-05-30_22h34.41.226,judgeSpeechMusic_20210519_logNormShiftAmp_mXs,2020.1.2,MacIntel,60,,,,,,,,,,,,,,2,5.69404,,0,1,52,202,138,1,stimuli/stim_20210519_power2amp/equal_lnn_AM4Hz_s45_10.m4a,,,
,,,,,,,,,,,,36156,2021-05-30_22h34.41.226,judgeSpeechMusic_20210519_logNormShiftAmp_mXs,2020.1.2,MacIntel,60,,,,,,,,,,,,,,2,6.561345,,0,1,53,203,11,1,stimuli/stim_20210519_power2amp/equal_lnn_AM1Hz_s25_16.m4a,,,
,,,,,,,,,,,,36156,2021-05-30_22h34.41.226,judgeSpeechMusic_20210519_logNormShiftAmp_mXs,2020.1.2,MacIntel,60,,,,,,,,,,,,,,2,7.661605,,0,1,54,204,126,1,stimuli/stim_20210519_power2amp/equal_lnn_AM4Hz_s35_11.m4a,,,
,,,,,,,,,,,,36156,2021-05-30_22h34.41.226,judgeSpeechMusic_20210519_logNormShiftAmp_mXs,2020.1.2,MacIntel,60,,,,,,,,,,,,,,1,8.55972,,0,1,55,205,117,1,stimuli/stim_20210519_power2amp/equal_lnn_AM4Hz_s25_7.m4a,,,
,,,,,,,,,,,,36156,2021-05-30_22h34.41.226,judgeSpeechMusic_20210519_logNormShiftAmp_mXs,2020.1.2,MacIntel,60,,,,,,,,,,,,,,2,7.941255,,0,1,56,206,139,1,stimuli/stim_20210519_power2amp/equal_lnn_AM4Hz_s45_8.m4a,,,
,,,,,,,,,,,,36156,2021-05-30_22h34.41.226,judgeSpeechMusic_20210519_logNormShiftAmp_mXs,2020.1.2,MacIntel,60,,,,,,,,,,,,,,2,7.3767,,0,1,57,207,106,1,stimuli/stim_20210519_power2amp/equal_lnn_AM4Hz_s15_28.m4a,,,
,,,,,,,,,,,,36156,2021-05-30_22h34.41.226,judgeSpeechMusic_20210519_logNormShiftAmp_mXs,2020.1.2,MacIntel,60,,,,,,,,,,,,,,2,6.344045,,0,1,58,208,35,1,stimuli/stim_20210519_power2amp/equal_lnn_AM1Hz_s45_42.m4a,,,
,,,,,,,,,,,,36156,2021-05-30_22h34.41.226,judgeSpeechMusic_20210519_logNormShiftAmp_mXs,2020.1.2,MacIntel,60,,,,,,,,,,,,,,2,6.40763,2,1,1,59,209,65,1,stimuli/stim_20210519_power2amp/equal_lnn_AM2.5Hz_s25_47.m4a,0.67743,,
,,,,,,,,,,,,36156,2021-05-30_22h34.41.226,judgeSpeechMusic_20210519_logNormShiftAmp_mXs,2020.1.2,MacIntel,60,,,,,,,,,,,,,,2,5.775085,,0,1,60,210,96,1,stimuli/stim_20210519_power2amp/equal_lnn_AM2.5Hz_s55_49.m4a,,,
,,,,,,,,,,,,36156,2021-05-30_22h34.41.226,judgeSpeechMusic_20210519_logNormShiftAmp_mXs,2020.1.2,MacIntel,60,,,,,,,,,,,,,,2,7.042075,,0,1,61,211,129,1,stimuli/stim_20210519_power2amp/equal_lnn_AM4Hz_s35_29.m4a,,,
,,,,,,,,,,,,36156,2021-05-30_22h34.41.226,judgeSpeechMusic_20210519_logNormShiftAmp_mXs,2020.1.2,MacIntel,60,,,,,,,,,,,,,,1,6.12503,,0,1,62,212,135,1,stimuli/stim_20210519_power2amp/equal_lnn_AM4Hz_s45_47.m4a,,,
,,,,,,,,,,,,36156,2021-05-30_22h34.41.226,judgeSpeechMusic_20210519_logNormShiftAmp_mXs,2020.1.2,MacIntel,60,,,,,,,,,,,,,,1,6.774885,,0,1,63,213,51,1,stimuli/stim_20210519_power2amp/equal_lnn_AM2.5Hz_s15_25.m4a,,,
,,,,,,,,,,,,36156,2021-05-30_22h34.41.226,judgeSpeechMusic_20210519_logNormShiftAmp_mXs,2020.1.2,MacIntel,60,,,,,,,,,,,,,,2,6.99461,,0,1,64,214,83,1,stimuli/stim_20210519_power2amp/equal_lnn_AM2.5Hz_s45_44.m4a,,,
,,,,,,,,,,,,36156,2021-05-30_22h34.41.226,judgeSpeechMusic_20210519_logNormShiftAmp_mXs,2020.1.2,MacIntel,60,,,,,,,,,,,,,,2,6.924125,,0,1,65,215,123,1,stimuli/stim_20210519_power2amp/equal_lnn_AM4Hz_s35_14.m4a,,,
,,,,,,,,,,,,36156,2021-05-30_22h34.41.226,judgeSpeechMusic_20210519_logNormShiftAmp_mXs,2020.1.2,MacIntel,60,,,,,,,,,,,,,,2,6.408095,,0,1,66,216,53,1,stimuli/stim_20210519_power2amp/equal_lnn_AM2.5Hz_s15_30.m4a,,,
,,,,,,,,,,,,36156,2021-05-30_22h34.41.226,judgeSpeechMusic_20210519_logNormShiftAmp_mXs,2020.1.2,MacIntel,60,,,,,,,,,,,,,,2,7.324555,,0,1,67,217,16,1,stimuli/stim_20210519_power2amp/equal_lnn_AM1Hz_s25_48.m4a,,,
,,,,,,,,,,,,36156,2021-05-30_22h34.41.226,judgeSpeechMusic_20210519_logNormShiftAmp_mXs,2020.1.2,MacIntel,60,,,,,,,,,,,,,,2,6.214025,,0,1,68,218,91,1,stimuli/stim_20210519_power2amp/equal_lnn_AM2.5Hz_s55_32.m4a,,,
,,,,,,,,,,,,36156,2021-05-30_22h34.41.226,judgeSpeechMusic_20210519_logNormShiftAmp_mXs,2020.1.2,MacIntel,60,,,,,,,,,,,,,,2,5.74323,,0,1,69,219,115,1,stimuli/stim_20210519_power2amp/equal_lnn_AM4Hz_s25_5.m4a,,,
,,,,,,,,,,,,36156,2021-05-30_22h34.41.226,judgeSpeechMusic_20210519_logNormShiftAmp_mXs,2020.1.2,MacIntel,60,,,,,,,,,,,,,,2,6.924825,,0,1,70,220,67,1,stimuli/stim_20210519_power2amp/equal_lnn_AM2.5Hz_s25_10.m4a,,,
,,,,,,,,,,,,36156,2021-05-30_22h34.41.226,judgeSpeechMusic_20210519_logNormShiftAmp_mXs,2020.1.2,MacIntel,60,,,,,,,,,,,,,,2,6.69493,,0,1,71,221,102,1,stimuli/stim_20210519_power2amp/equal_lnn_AM4Hz_s15_25.m4a,,,
,,,,,,,,,,,,36156,2021-05-30_22h34.41.226,judgeSpeechMusic_20210519_logNormShiftAmp_mXs,2020.1.2,MacIntel,60,,,,,,,,,,,,,,1,5.760735,,0,1,72,222,143,1,stimuli/stim_20210519_power2amp/equal_lnn_AM4Hz_s55_36.m4a,,,
,,,,,,,,,,,,36156,2021-05-30_22h34.41.226,judgeSpeechMusic_20210519_logNormShiftAmp_mXs,2020.1.2,MacIntel,60,,,,,,,,,,,,,,2,8.663085,,0,1,73,223,28,1,stimuli/stim_20210519_power2amp/equal_lnn_AM1Hz_s35_12.m4a,,,
,,,,,,,,,,,,36156,2021-05-30_22h34.41.226,judgeSpeechMusic_20210519_logNormShiftAmp_mXs,2020.1.2,MacIntel,60,,,,,,,,,,,,,,1,5.69139,,0,1,74,224,136,1,stimuli/stim_20210519_power2amp/equal_lnn_AM4Hz_s45_3.m4a,,,
,,,,,,,,,,,,36156,2021-05-30_22h34.41.226,judgeSpeechMusic_20210519_logNormShiftAmp_mXs,2020.1.2,MacIntel,60,,,,,,,,,,,,,,1,7.22762,,0,1,75,225,144,1,stimuli/stim_20210519_power2amp/equal_lnn_AM4Hz_s55_7.m4a,,,
,,,,,,,,,,,,36156,2021-05-30_22h34.41.226,judgeSpeechMusic_20210519_logNormShiftAmp_mXs,2020.1.2,MacIntel,60,,,,,,,,,,,,,,1,6.04499,,0,1,76,226,130,1,stimuli/stim_20210519_power2amp/equal_lnn_AM4Hz_s45_2.m4a,,,
,,,,,,,,,,,,36156,2021-05-30_22h34.41.226,judgeSpeechMusic_20210519_logNormShiftAmp_mXs,2020.1.2,MacIntel,60,,,,,,,,,,,,,,2,5.793485,,0,1,77,227,112,1,stimuli/stim_20210519_power2amp/equal_lnn_AM4Hz_s25_32.m4a,,,
,,,,,,,,,,,,36156,2021-05-30_22h34.41.226,judgeSpeechMusic_20210519_logNormShiftAmp_mXs,2020.1.2,MacIntel,60,,,,,,,,,,,,,,1,5.89598,,0,1,78,228,0,1,stimuli/stim_20210519_power2amp/equal_lnn_AM1Hz_s15_35.m4a,,,
,,,,,,,,,,,,36156,2021-05-30_22h34.41.226,judgeSpeechMusic_20210519_logNormShiftAmp_mXs,2020.1.2,MacIntel,60,,,,,,,,,,,,,,2,5.87475,,0,1,79,229,26,1,stimuli/stim_20210519_power2amp/equal_lnn_AM1Hz_s35_16.m4a,,,
,,,,,,,,,,,,36156,2021-05-30_22h34.41.226,judgeSpeechMusic_20210519_logNormShiftAmp_mXs,2020.1.2,MacIntel,60,,,,,,,,,,,,,,2,9.530805,,0,1,80,230,37,1,stimuli/stim_20210519_power2amp/equal_lnn_AM1Hz_s45_7.m4a,,,
,,,,,,,,,,,,36156,2021-05-30_22h34.41.226,judgeSpeechMusic_20210519_logNormShiftAmp_mXs,2020.1.2,MacIntel,60,,,,,,,,,,,,,,2,7.74261,,0,1,81,231,44,1,stimuli/stim_20210519_power2amp/equal_lnn_AM1Hz_s55_8.m4a,,,
,,,,,,,,,,,,36156,2021-05-30_22h34.41.226,judgeSpeechMusic_20210519_logNormShiftAmp_mXs,2020.1.2,MacIntel,60,,,,,,,,,,,,,,1,6.528865,4,1,1,82,232,118,1,stimuli/stim_20210519_power2amp/equal_lnn_AM4Hz_s25_30.m4a,1.328065,,
,,,,,,,,,,,,36156,2021-05-30_22h34.41.226,judgeSpeechMusic_20210519_logNormShiftAmp_mXs,2020.1.2,MacIntel,60,,,,,,,,,,,,,,2,7.64274,,0,1,83,233,14,1,stimuli/stim_20210519_power2amp/equal_lnn_AM1Hz_s25_47.m4a,,,
,,,,,,,,,,,,36156,2021-05-30_22h34.41.226,judgeSpeechMusic_20210519_logNormShiftAmp_mXs,2020.1.2,MacIntel,60,,,,,,,,,,,,,,1,9.92018,,0,1,84,234,71,1,stimuli/stim_20210519_power2amp/equal_lnn_AM2.5Hz_s35_1.m4a,,,
,,,,,,,,,,,,36156,2021-05-30_22h34.41.226,judgeSpeechMusic_20210519_logNormShiftAmp_mXs,2020.1.2,MacIntel,60,,,,,,,,,,,,,,2,5.94177,,0,1,85,235,124,1,stimuli/stim_20210519_power2amp/equal_lnn_AM4Hz_s35_43.m4a,,,
,,,,,,,,,,,,36156,2021-05-30_22h34.41.226,judgeSpeechMusic_20210519_logNormShiftAmp_mXs,2020.1.2,MacIntel,60,,,,,,,,,,,,,,1,7.74786,,0,1,86,236,19,1,stimuli/stim_20210519_power2amp/equal_lnn_AM1Hz_s25_39.m4a,,,
,,,,,,,,,,,,36156,2021-05-30_22h34.41.226,judgeSpeechMusic_20210519_logNormShiftAmp_mXs,2020.1.2,MacIntel,60,,,,,,,,,,,,,,2,6.6233,,0,1,87,237,121,1,stimuli/stim_20210519_power2amp/equal_lnn_AM4Hz_s35_33.m4a,,,
,,,,,,,,,,,,36156,2021-05-30_22h34.41.226,judgeSpeechMusic_20210519_logNormShiftAmp_mXs,2020.1.2,MacIntel,60,,,,,,,,,,,,,,2,8.79205,,0,1,88,238,73,1,stimuli/stim_20210519_power2amp/equal_lnn_AM2.5Hz_s35_5.m4a,,,
,,,,,,,,,,,,36156,2021-05-30_22h34.41.226,judgeSpeechMusic_20210519_logNormShiftAmp_mXs,2020.1.2,MacIntel,60,,,,,,,,,,,,,,2,6.64039,,0,1,89,239,84,1,stimuli/stim_20210519_power2amp/equal_lnn_AM2.5Hz_s45_32.m4a,,,
,,,,,,,,,,,,36156,2021-05-30_22h34.41.226,judgeSpeechMusic_20210519_logNormShiftAmp_mXs,2020.1.2,MacIntel,60,,,,,,,,,,,,,,2,8.876565,,0,1,90,240,36,1,stimuli/stim_20210519_power2amp/equal_lnn_AM1Hz_s45_28.m4a,,,
,,,,,,,,,,,,36156,2021-05-30_22h34.41.226,judgeSpeechMusic_20210519_logNormShiftAmp_mXs,2020.1.2,MacIntel,60,,,,,,,,,,,,,,2,6.675175,,0,1,91,241,81,1,stimuli/stim_20210519_power2amp/equal_lnn_AM2.5Hz_s45_4.m4a,,,
,,,,,,,,,,,,36156,2021-05-30_22h34.41.226,judgeSpeechMusic_20210519_logNormShiftAmp_mXs,2020.1.2,MacIntel,60,,,,,,,,,,,,,,2,7.74144,,0,1,92,242,89,1,stimuli/stim_20210519_power2amp/equal_lnn_AM2.5Hz_s45_22.m4a,,,
,,,,,,,,,,,,36156,2021-05-30_22h34.41.226,judgeSpeechMusic_20210519_logNormShiftAmp_mXs,2020.1.2,MacIntel,60,,,,,,,,,,,,,,2,5.771295,,0,1,93,243,32,1,stimuli/stim_20210519_power2amp/equal_lnn_AM1Hz_s45_31.m4a,,,
,,,,,,,,,,,,36156,2021-05-30_22h34.41.226,judgeSpeechMusic_20210519_logNormShiftAmp_mXs,2020.1.2,MacIntel,60,,,,,,,,,,,,,,1,5.689185,,0,1,94,244,59,1,stimuli/stim_20210519_power2amp/equal_lnn_AM2.5Hz_s15_47.m4a,,,
,,,,,,,,,,,,36156,2021-05-30_22h34.41.226,judgeSpeechMusic_20210519_logNormShiftAmp_mXs,2020.1.2,MacIntel,60,,,,,,,,,,,,,,1,6.290105,,0,1,95,245,43,1,stimuli/stim_20210519_power2amp/equal_lnn_AM1Hz_s55_46.m4a,,,
,,,,,,,,,,,,36156,2021-05-30_22h34.41.226,judgeSpeechMusic_20210519_logNormShiftAmp_mXs,2020.1.2,MacIntel,60,,,,,,,,,,,,,,1,6.24282,,0,1,96,246,90,1,stimuli/stim_20210519_power2amp/equal_lnn_AM2.5Hz_s55_27.m4a,,,
,,,,,,,,,,,,36156,2021-05-30_22h34.41.226,judgeSpeechMusic_20210519_logNormShiftAmp_mXs,2020.1.2,MacIntel,60,,,,,,,,,,,,,,2,7.52633,,0,1,97,247,24,1,stimuli/stim_20210519_power2amp/equal_lnn_AM1Hz_s35_20.m4a,,,
,,,,,,,,,,,,36156,2021-05-30_22h34.41.226,judgeSpeechMusic_20210519_logNormShiftAmp_mXs,2020.1.2,MacIntel,60,,,,,,,,,,,,,,1,6.274125,,0,1,98,248,141,1,stimuli/stim_20210519_power2amp/equal_lnn_AM4Hz_s55_30.m4a,,,
,,,,,,,,,,,,36156,2021-05-30_22h34.41.226,judgeSpeechMusic_20210519_logNormShiftAmp_mXs,2020.1.2,MacIntel,60,,,,,,,,,,,,,,1,6.69387,,0,1,99,249,9,1,stimuli/stim_20210519_power2amp/equal_lnn_AM1Hz_s15_40.m4a,,,
,,,,,,,,,,,,36156,2021-05-30_22h34.41.226,judgeSpeechMusic_20210519_logNormShiftAmp_mXs,2020.1.2,MacIntel,60,,,,,,,,,,,,,,1,6.37823,,0,1,100,250,110,1,stimuli/stim_20210519_power2amp/equal_lnn_AM4Hz_s25_47.m4a,,,
,,,,,,,,,,,,36156,2021-05-30_22h34.41.226,judgeSpeechMusic_20210519_logNormShiftAmp_mXs,2020.1.2,MacIntel,60,,,,,,,,,,,,,,2,6.603645,,0,1,101,251,25,1,stimuli/stim_20210519_power2amp/equal_lnn_AM1Hz_s35_50.m4a,,,
,,,,,,,,,,,,36156,2021-05-30_22h34.41.226,judgeSpeechMusic_20210519_logNormShiftAmp_mXs,2020.1.2,MacIntel,60,,,,,,,,,,,,,,1,5.68955,4,1,1,102,252,100,1,stimuli/stim_20210519_power2amp/equal_lnn_AM4Hz_s15_29.m4a,1.211615,,
,,,,,,,,,,,,36156,2021-05-30_22h34.41.226,judgeSpeechMusic_20210519_logNormShiftAmp_mXs,2020.1.2,MacIntel,60,,,,,,,,,,,,,,1,6.75887,,0,1,103,253,131,1,stimuli/stim_20210519_power2amp/equal_lnn_AM4Hz_s45_37.m4a,,,
,,,,,,,,,,,,36156,2021-05-30_22h34.41.226,judgeSpeechMusic_20210519_logNormShiftAmp_mXs,2020.1.2,MacIntel,60,,,,,,,,,,,,,,2,7.4769,,0,1,104,254,40,1,stimuli/stim_20210519_power2amp/equal_lnn_AM1Hz_s55_4.m4a,,,
,,,,,,,,,,,,36156,2021-05-30_22h34.41.226,judgeSpeechMusic_20210519_logNormShiftAmp_mXs,2020.1.2,MacIntel,60,,,,,,,,,,,,,,1,7.357005,,0,1,105,255,119,1,stimuli/stim_20210519_power2amp/equal_lnn_AM4Hz_s25_34.m4a,,,
,,,,,,,,,,,,36156,2021-05-30_22h34.41.226,judgeSpeechMusic_20210519_logNormShiftAmp_mXs,2020.1.2,MacIntel,60,,,,,,,,,,,,,,1,6.322365,,0,1,106,256,103,1,stimuli/stim_20210519_power2amp/equal_lnn_AM4Hz_s15_40.m4a,,,
,,,,,,,,,,,,36156,2021-05-30_22h34.41.226,judgeSpeechMusic_20210519_logNormShiftAmp_mXs,2020.1.2,MacIntel,60,,,,,,,,,,,,,,1,6.541985,,0,1,107,257,127,1,stimuli/stim_20210519_power2amp/equal_lnn_AM4Hz_s35_7.m4a,,,
,,,,,,,,,,,,36156,2021-05-30_22h34.41.226,judgeSpeechMusic_20210519_logNormShiftAmp_mXs,2020.1.2,MacIntel,60,,,,,,,,,,,,,,2,7.678475,,0,1,108,258,27,1,stimuli/stim_20210519_power2amp/equal_lnn_AM1Hz_s35_23.m4a,,,
,,,,,,,,,,,,36156,2021-05-30_22h34.41.226,judgeSpeechMusic_20210519_logNormShiftAmp_mXs,2020.1.2,MacIntel,60,,,,,,,,,,,,,,1,7.14214,,0,1,109,259,56,1,stimuli/stim_20210519_power2amp/equal_lnn_AM2.5Hz_s15_4.m4a,,,
,,,,,,,,,,,,36156,2021-05-30_22h34.41.226,judgeSpeechMusic_20210519_logNormShiftAmp_mXs,2020.1.2,MacIntel,60,,,,,,,,,,,,,,2,7.125205,,0,1,110,260,49,1,stimuli/stim_20210519_power2amp/equal_lnn_AM1Hz_s55_16.m4a,,,
,,,,,,,,,,,,36156,2021-05-30_22h34.41.226,judgeSpeechMusic_20210519_logNormShiftAmp_mXs,2020.1.2,MacIntel,60,,,,,,,,,,,,,,1,5.84631,,0,1,111,261,57,1,stimuli/stim_20210519_power2amp/equal_lnn_AM2.5Hz_s15_2.m4a,,,
,,,,,,,,,,,,36156,2021-05-30_22h34.41.226,judgeSpeechMusic_20210519_logNormShiftAmp_mXs,2020.1.2,MacIntel,60,,,,,,,,,,,,,,1,5.70714,,0,1,112,262,63,1,stimuli/stim_20210519_power2amp/equal_lnn_AM2.5Hz_s25_32.m4a,,,
,,,,,,,,,,,,36156,2021-05-30_22h34.41.226,judgeSpeechMusic_20210519_logNormShiftAmp_mXs,2020.1.2,MacIntel,60,,,,,,,,,,,,,,2,5.82525,,0,1,113,263,23,1,stimuli/stim_20210519_power2amp/equal_lnn_AM1Hz_s35_11.m4a,,,
,,,,,,,,,,,,36156,2021-05-30_22h34.41.226,judgeSpeechMusic_20210519_logNormShiftAmp_mXs,2020.1.2,MacIntel,60,,,,,,,,,,,,,,2,6.090145,,0,1,114,264,38,1,stimuli/stim_20210519_power2amp/equal_lnn_AM1Hz_s45_39.m4a,,,
,,,,,,,,,,,,36156,2021-05-30_22h34.41.226,judgeSpeechMusic_20210519_logNormShiftAmp_mXs,2020.1.2,MacIntel,60,,,,,,,,,,,,,,1,5.72487,,0,1,115,265,140,1,stimuli/stim_20210519_power2amp/equal_lnn_AM4Hz_s55_47.m4a,,,
,,,,,,,,,,,,36156,2021-05-30_22h34.41.226,judgeSpeechMusic_20210519_logNormShiftAmp_mXs,2020.1.2,MacIntel,60,,,,,,,,,,,,,,2,7.195125,,0,1,116,266,4,1,stimuli/stim_20210519_power2amp/equal_lnn_AM1Hz_s15_12.m4a,,,
,,,,,,,,,,,,36156,2021-05-30_22h34.41.226,judgeSpeechMusic_20210519_logNormShiftAmp_mXs,2020.1.2,MacIntel,60,,,,,,,,,,,,,,1,7.741315,,0,1,117,267,149,1,stimuli/stim_20210519_power2amp/equal_lnn_AM4Hz_s55_25.m4a,,,
,,,,,,,,,,,,36156,2021-05-30_22h34.41.226,judgeSpeechMusic_20210519_logNormShiftAmp_mXs,2020.1.2,MacIntel,60,,,,,,,,,,,,,,2,9.25907,,0,1,118,268,18,1,stimuli/stim_20210519_power2amp/equal_lnn_AM1Hz_s25_22.m4a,,,
,,,,,,,,,,,,36156,2021-05-30_22h34.41.226,judgeSpeechMusic_20210519_logNormShiftAmp_mXs,2020.1.2,MacIntel,60,,,,,,,,,,,,,,2,8.09401,,0,1,119,269,1,1,stimuli/stim_20210519_power2amp/equal_lnn_AM1Hz_s15_17.m4a,,,
,,,,,,,,,,,,36156,2021-05-30_22h34.41.226,judgeSpeechMusic_20210519_logNormShiftAmp_mXs,2020.1.2,MacIntel,60,,,,,,,,,,,,,,1,6.061135,,0,1,120,270,61,1,stimuli/stim_20210519_power2amp/equal_lnn_AM2.5Hz_s25_7.m4a,,,
,,,,,,,,,,,,36156,2021-05-30_22h34.41.226,judgeSpeechMusic_20210519_logNormShiftAmp_mXs,2020.1.2,MacIntel,60,,,,,,,,,,,,,,1,5.67804,,0,1,121,271,148,1,stimuli/stim_20210519_power2amp/equal_lnn_AM4Hz_s55_33.m4a,,,
,,,,,,,,,,,,36156,2021-05-30_22h34.41.226,judgeSpeechMusic_20210519_logNormShiftAmp_mXs,2020.1.2,MacIntel,60,,,,,,,,,,,,,,1,5.80789,,0,1,122,272,132,1,stimuli/stim_20210519_power2amp/equal_lnn_AM4Hz_s45_16.m4a,,,
,,,,,,,,,,,,36156,2021-05-30_22h34.41.226,judgeSpeechMusic_20210519_logNormShiftAmp_mXs,2020.1.2,MacIntel,60,,,,,,,,,,,,,,1,6.092595,,0,1,123,273,94,1,stimuli/stim_20210519_power2amp/equal_lnn_AM2.5Hz_s55_1.m4a,,,
,,,,,,,,,,,,36156,2021-05-30_22h34.41.226,judgeSpeechMusic_20210519_logNormShiftAmp_mXs,2020.1.2,MacIntel,60,,,,,,,,,,,,,,1,11.14151,,0,1,124,274,128,1,stimuli/stim_20210519_power2amp/equal_lnn_AM4Hz_s35_1.m4a,,,
,,,,,,,,,,,,36156,2021-05-30_22h34.41.226,judgeSpeechMusic_20210519_logNormShiftAmp_mXs,2020.1.2,MacIntel,60,,,,,,,,,,,,,,2,6.12517,,0,1,125,275,147,1,stimuli/stim_20210519_power2amp/equal_lnn_AM4Hz_s55_49.m4a,,,
,,,,,,,,,,,,36156,2021-05-30_22h34.41.226,judgeSpeechMusic_20210519_logNormShiftAmp_mXs,2020.1.2,MacIntel,60,,,,,,,,,,,,,,2,7.07412,,0,1,126,276,20,1,stimuli/stim_20210519_power2amp/equal_lnn_AM1Hz_s35_7.m4a,,,
,,,,,,,,,,,,36156,2021-05-30_22h34.41.226,judgeSpeechMusic_20210519_logNormShiftAmp_mXs,2020.1.2,MacIntel,60,,,,,,,,,,,,,,2,7.474585,1,1,1,127,277,60,1,stimuli/stim_20210519_power2amp/equal_lnn_AM2.5Hz_s25_22.m4a,1.476855,,
,,,,,,,,,,,,36156,2021-05-30_22h34.41.226,judgeSpeechMusic_20210519_logNormShiftAmp_mXs,2020.1.2,MacIntel,60,,,,,,,,,,,,,,2,6.50714,,0,1,128,278,134,1,stimuli/stim_20210519_power2amp/equal_lnn_AM4Hz_s45_21.m4a,,,
,,,,,,,,,,,,36156,2021-05-30_22h34.41.226,judgeSpeechMusic_20210519_logNormShiftAmp_mXs,2020.1.2,MacIntel,60,,,,,,,,,,,,,,2,7.488195,,0,1,129,279,146,1,stimuli/stim_20210519_power2amp/equal_lnn_AM4Hz_s55_44.m4a,,,
,,,,,,,,,,,,36156,2021-05-30_22h34.41.226,judgeSpeechMusic_20210519_logNormShiftAmp_mXs,2020.1.2,MacIntel,60,,,,,,,,,,,,,,2,6.37452,,0,1,130,280,101,1,stimuli/stim_20210519_power2amp/equal_lnn_AM4Hz_s15_43.m4a,,,
,,,,,,,,,,,,36156,2021-05-30_22h34.41.226,judgeSpeechMusic_20210519_logNormShiftAmp_mXs,2020.1.2,MacIntel,60,,,,,,,,,,,,,,2,6.913055,,0,1,131,281,47,1,stimuli/stim_20210519_power2amp/equal_lnn_AM1Hz_s55_3.m4a,,,
,,,,,,,,,,,,36156,2021-05-30_22h34.41.226,judgeSpeechMusic_20210519_logNormShiftAmp_mXs,2020.1.2,MacIntel,60,,,,,,,,,,,,,,2,6.55939,,0,1,132,282,58,1,stimuli/stim_20210519_power2amp/equal_lnn_AM2.5Hz_s15_43.m4a,,,
,,,,,,,,,,,,36156,2021-05-30_22h34.41.226,judgeSpeechMusic_20210519_logNormShiftAmp_mXs,2020.1.2,MacIntel,60,,,,,,,,,,,,,,1,8.487435,,0,1,133,283,75,1,stimuli/stim_20210519_power2amp/equal_lnn_AM2.5Hz_s35_50.m4a,,,
,,,,,,,,,,,,36156,2021-05-30_22h34.41.226,judgeSpeechMusic_20210519_logNormShiftAmp_mXs,2020.1.2,MacIntel,60,,,,,,,,,,,,,,1,6.34248,,0,1,134,284,79,1,stimuli/stim_20210519_power2amp/equal_lnn_AM2.5Hz_s35_28.m4a,,,
,,,,,,,,,,,,36156,2021-05-30_22h34.41.226,judgeSpeechMusic_20210519_logNormShiftAmp_mXs,2020.1.2,MacIntel,60,,,,,,,,,,,,,,1,9.35684,,0,1,135,285,78,1,stimuli/stim_20210519_power2amp/equal_lnn_AM2.5Hz_s35_41.m4a,,,
,,,,,,,,,,,,36156,2021-05-30_22h34.41.226,judgeSpeechMusic_20210519_logNormShiftAmp_mXs,2020.1.2,MacIntel,60,,,,,,,,,,,,,,2,6.929055,,0,1,136,286,145,1,stimuli/stim_20210519_power2amp/equal_lnn_AM4Hz_s55_37.m4a,,,
,,,,,,,,,,,,36156,2021-05-30_22h34.41.226,judgeSpeechMusic_20210519_logNormShiftAmp_mXs,2020.1.2,MacIntel,60,,,,,,,,,,,,,,1,7.243095,,0,1,137,287,116,1,stimuli/stim_20210519_power2amp/equal_lnn_AM4Hz_s25_3.m4a,,,
,,,,,,,,,,,,36156,2021-05-30_22h34.41.226,judgeSpeechMusic_20210519_logNormShiftAmp_mXs,2020.1.2,MacIntel,60,,,,,,,,,,,,,,2,8.23834,,0,1,138,288,2,1,stimuli/stim_20210519_power2amp/equal_lnn_AM1Hz_s15_22.m4a,,,
,,,,,,,,,,,,36156,2021-05-30_22h34.41.226,judgeSpeechMusic_20210519_logNormShiftAmp_mXs,2020.1.2,MacIntel,60,,,,,,,,,,,,,,2,5.68769,,0,1,139,289,82,1,stimuli/stim_20210519_power2amp/equal_lnn_AM2.5Hz_s45_18.m4a,,,
,,,,,,,,,,,,36156,2021-05-30_22h34.41.226,judgeSpeechMusic_20210519_logNormShiftAmp_mXs,2020.1.2,MacIntel,60,,,,,,,,,,,,,,2,6.122935,,0,1,140,290,76,1,stimuli/stim_20210519_power2amp/equal_lnn_AM2.5Hz_s35_49.m4a,,,
,,,,,,,,,,,,36156,2021-05-30_22h34.41.226,judgeSpeechMusic_20210519_logNormShiftAmp_mXs,2020.1.2,MacIntel,60,,,,,,,,,,,,,,2,6.376265,,0,1,141,291,17,1,stimuli/stim_20210519_power2amp/equal_lnn_AM1Hz_s25_19.m4a,,,
,,,,,,,,,,,,36156,2021-05-30_22h34.41.226,judgeSpeechMusic_20210519_logNormShiftAmp_mXs,2020.1.2,MacIntel,60,,,,,,,,,,,,,,2,9.91261,,0,1,142,292,34,1,stimuli/stim_20210519_power2amp/equal_lnn_AM1Hz_s45_27.m4a,,,
,,,,,,,,,,,,36156,2021-05-30_22h34.41.226,judgeSpeechMusic_20210519_logNormShiftAmp_mXs,2020.1.2,MacIntel,60,,,,,,,,,,,,,,2,8.3415,,0,1,143,293,137,1,stimuli/stim_20210519_power2amp/equal_lnn_AM4Hz_s45_1.m4a,,,
,,,,,,,,,,,,36156,2021-05-30_22h34.41.226,judgeSpeechMusic_20210519_logNormShiftAmp_mXs,2020.1.2,MacIntel,60,,,,,,,,,,,,,,2,6.942745,,0,1,144,294,3,1,stimuli/stim_20210519_power2amp/equal_lnn_AM1Hz_s15_13.m4a,,,
,,,,,,,,,,,,36156,2021-05-30_22h34.41.226,judgeSpeechMusic_20210519_logNormShiftAmp_mXs,2020.1.2,MacIntel,60,,,,,,,,,,,,,,2,6.34389,,0,1,145,295,48,1,stimuli/stim_20210519_power2amp/equal_lnn_AM1Hz_s55_39.m4a,,,
,,,,,,,,,,,,36156,2021-05-30_22h34.41.226,judgeSpeechMusic_20210519_logNormShiftAmp_mXs,2020.1.2,MacIntel,60,,,,,,,,,,,,,,2,6.07531,,0,1,146,296,93,1,stimuli/stim_20210519_power2amp/equal_lnn_AM2.5Hz_s55_25.m4a,,,
,,,,,,,,,,,,36156,2021-05-30_22h34.41.226,judgeSpeechMusic_20210519_logNormShiftAmp_mXs,2020.1.2,MacIntel,60,,,,,,,,,,,,,,1,5.660275,2,1,1,147,297,77,1,stimuli/stim_20210519_power2amp/equal_lnn_AM2.5Hz_s35_43.m4a,0.812135,,
,,,,,,,,,,,,36156,2021-05-30_22h34.41.226,judgeSpeechMusic_20210519_logNormShiftAmp_mXs,2020.1.2,MacIntel,60,,,,,,,,,,,,,,2,7.809255,,0,1,148,298,5,1,stimuli/stim_20210519_power2amp/equal_lnn_AM1Hz_s15_43.m4a,,,
,,,,,,,,,,,,36156,2021-05-30_22h34.41.226,judgeSpeechMusic_20210519_logNormShiftAmp_mXs,2020.1.2,MacIntel,60,,,,,,,,,,,,,,2,6.091225,,0,1,149,299,12,1,stimuli/stim_20210519_power2amp/equal_lnn_AM1Hz_s25_34.m4a,,,
,,,,,,,,,,,,36156,2021-05-30_22h34.41.226,judgeSpeechMusic_20210519_logNormShiftAmp_mXs,2020.1.2,MacIntel,60,,,,,,,,,,,,,,,,,,,,,,,,,space,10.584785
