headphoneResponse.keys,headphoneResponse.corr,headphoneResponse.rt,headphoneTrial.thisRepN,headphoneTrial.thisTrialN,headphoneTrial.thisN,headphoneTrial.thisIndex,headphoneTrial.ran,headphone_sound1,headphone_sound2,headphone_sound3,corrAns,participant,date,expName,psychopyVersion,OS,frameRate,trainSlider.response,trainSlider.rt,beepTrainResponse.keys,beepTrainResponse.corr,trainingTrials.thisRepN,trainingTrials.thisTrialN,trainingTrials.thisN,trainingTrials.thisIndex,trainingTrials.ran,trainAudioFile,beepTrainResponse.rt,readyReal_resp.keys,readyReal_resp.rt,ratingSlider.response,ratingSlider.rt,beepResp.keys,beepResp.corr,expTrials.thisRepN,expTrials.thisTrialN,expTrials.thisN,expTrials.thisIndex,expTrials.ran,audioFile,beepResp.rt,end_resp.keys,end_resp.rt
3,1,0.81546,0,0,0,0,1,stimuli/screen_antiphase.wav,stimuli/screen_origin.wav,stimuli/screen_quiet.wav,3,37157,2021-05-25_08h07.55.662,judgeSpeechMusic_20210519_logNormShiftAmp_mXs,2020.1.2,MacIntel,60,,,,,,,,,,,,,,,,,,,,,,,,,,
3,1,0.61031,0,1,1,2,1,stimuli/screen_origin.wav,stimuli/screen_antiphase.wav,stimuli/screen_quiet.wav,3,37157,2021-05-25_08h07.55.662,judgeSpeechMusic_20210519_logNormShiftAmp_mXs,2020.1.2,MacIntel,60,,,,,,,,,,,,,,,,,,,,,,,,,,
2,1,1.11499,0,2,2,1,1,stimuli/screen_antiphase.wav,stimuli/screen_quiet.wav,stimuli/screen_origin.wav,2,37157,2021-05-25_08h07.55.662,judgeSpeechMusic_20210519_logNormShiftAmp_mXs,2020.1.2,MacIntel,60,,,,,,,,,,,,,,,,,,,,,,,,,,
2,1,0.467245,0,3,3,3,1,stimuli/screen_origin.wav,stimuli/screen_quiet.wav,stimuli/screen_antiphase.wav,2,37157,2021-05-25_08h07.55.662,judgeSpeechMusic_20210519_logNormShiftAmp_mXs,2020.1.2,MacIntel,60,,,,,,,,,,,,,,,,,,,,,,,,,,
1,1,0.357335,0,4,4,4,1,stimuli/screen_quiet.wav,stimuli/screen_antiphase.wav,stimuli/screen_origin.wav,1,37157,2021-05-25_08h07.55.662,judgeSpeechMusic_20210519_logNormShiftAmp_mXs,2020.1.2,MacIntel,60,,,,,,,,,,,,,,,,,,,,,,,,,,
1,1,0.32177,0,5,5,5,1,stimuli/screen_quiet.wav,stimuli/screen_origin.wav,stimuli/screen_antiphase.wav,1,37157,2021-05-25_08h07.55.662,judgeSpeechMusic_20210519_logNormShiftAmp_mXs,2020.1.2,MacIntel,60,,,,,,,,,,,,,,,,,,,,,,,,,,
,,,,,,,,,,,,37157,2021-05-25_08h07.55.662,judgeSpeechMusic_20210519_logNormShiftAmp_mXs,2020.1.2,MacIntel,60,2,10.265285,,0,0,0,0,2,1,stimuli/stim_20210519_power2amp/equal_lnn_AM_training3.5Hz_s20.m4a,,,,,,,,,,,,,,,,
,,,,,,,,,,,,37157,2021-05-25_08h07.55.662,judgeSpeechMusic_20210519_logNormShiftAmp_mXs,2020.1.2,MacIntel,60,2,5.931,,0,0,1,1,3,1,stimuli/stim_20210519_power2amp/equal_lnn_AM_training3.5Hz_s50.m4a,,,,,,,,,,,,,,,,
,,,,,,,,,,,,37157,2021-05-25_08h07.55.662,judgeSpeechMusic_20210519_logNormShiftAmp_mXs,2020.1.2,MacIntel,60,2,5.62346,2,1,0,2,2,0,1,stimuli/stim_20210519_power2amp/equal_lnn_AM_training1.5Hz_s20.m4a,1.408585,,,,,,,,,,,,,,,
,,,,,,,,,,,,37157,2021-05-25_08h07.55.662,judgeSpeechMusic_20210519_logNormShiftAmp_mXs,2020.1.2,MacIntel,60,2,5.671875,,0,0,3,3,1,1,stimuli/stim_20210519_power2amp/equal_lnn_AM_training1.5Hz_s50.m4a,,,,,,,,,,,,,,,,
,,,,,,,,,,,,37157,2021-05-25_08h07.55.662,judgeSpeechMusic_20210519_logNormShiftAmp_mXs,2020.1.2,MacIntel,60,,,,,,,,,,,,space,2.08506,2,6.587035,,0,0,0,0,16,1,stimuli/stim_20210519_power2amp/equal_lnn_AM1Hz_s25_10.m4a,,,
,,,,,,,,,,,,37157,2021-05-25_08h07.55.662,judgeSpeechMusic_20210519_logNormShiftAmp_mXs,2020.1.2,MacIntel,60,,,,,,,,,,,,,,2,5.72379,,0,0,1,1,48,1,stimuli/stim_20210519_power2amp/equal_lnn_AM1Hz_s55_24.m4a,,,
,,,,,,,,,,,,37157,2021-05-25_08h07.55.662,judgeSpeechMusic_20210519_logNormShiftAmp_mXs,2020.1.2,MacIntel,60,,,,,,,,,,,,,,2,5.601475,,0,0,2,2,21,1,stimuli/stim_20210519_power2amp/equal_lnn_AM1Hz_s35_41.m4a,,,
,,,,,,,,,,,,37157,2021-05-25_08h07.55.662,judgeSpeechMusic_20210519_logNormShiftAmp_mXs,2020.1.2,MacIntel,60,,,,,,,,,,,,,,2,5.360265,,0,0,3,3,8,1,stimuli/stim_20210519_power2amp/equal_lnn_AM1Hz_s15_18.m4a,,,
,,,,,,,,,,,,37157,2021-05-25_08h07.55.662,judgeSpeechMusic_20210519_logNormShiftAmp_mXs,2020.1.2,MacIntel,60,,,,,,,,,,,,,,1,6.243885,,0,0,4,4,116,1,stimuli/stim_20210519_power2amp/equal_lnn_AM4Hz_s25_45.m4a,,,
,,,,,,,,,,,,37157,2021-05-25_08h07.55.662,judgeSpeechMusic_20210519_logNormShiftAmp_mXs,2020.1.2,MacIntel,60,,,,,,,,,,,,,,1,5.634325,,0,0,5,5,121,1,stimuli/stim_20210519_power2amp/equal_lnn_AM4Hz_s35_47.m4a,,,
,,,,,,,,,,,,37157,2021-05-25_08h07.55.662,judgeSpeechMusic_20210519_logNormShiftAmp_mXs,2020.1.2,MacIntel,60,,,,,,,,,,,,,,2,5.732995,,0,0,6,6,9,1,stimuli/stim_20210519_power2amp/equal_lnn_AM1Hz_s15_32.m4a,,,
,,,,,,,,,,,,37157,2021-05-25_08h07.55.662,judgeSpeechMusic_20210519_logNormShiftAmp_mXs,2020.1.2,MacIntel,60,,,,,,,,,,,,,,2,5.951175,,0,0,7,7,72,1,stimuli/stim_20210519_power2amp/equal_lnn_AM2.5Hz_s35_1.m4a,,,
,,,,,,,,,,,,37157,2021-05-25_08h07.55.662,judgeSpeechMusic_20210519_logNormShiftAmp_mXs,2020.1.2,MacIntel,60,,,,,,,,,,,,,,2,5.372425,,0,0,8,8,129,1,stimuli/stim_20210519_power2amp/equal_lnn_AM4Hz_s35_19.m4a,,,
,,,,,,,,,,,,37157,2021-05-25_08h07.55.662,judgeSpeechMusic_20210519_logNormShiftAmp_mXs,2020.1.2,MacIntel,60,,,,,,,,,,,,,,2,5.900155,,0,0,9,9,34,1,stimuli/stim_20210519_power2amp/equal_lnn_AM1Hz_s45_44.m4a,,,
,,,,,,,,,,,,37157,2021-05-25_08h07.55.662,judgeSpeechMusic_20210519_logNormShiftAmp_mXs,2020.1.2,MacIntel,60,,,,,,,,,,,,,,2,5.85425,,0,0,10,10,148,1,stimuli/stim_20210519_power2amp/equal_lnn_AM4Hz_s55_42.m4a,,,
,,,,,,,,,,,,37157,2021-05-25_08h07.55.662,judgeSpeechMusic_20210519_logNormShiftAmp_mXs,2020.1.2,MacIntel,60,,,,,,,,,,,,,,2,5.574515,,0,0,11,11,145,1,stimuli/stim_20210519_power2amp/equal_lnn_AM4Hz_s55_14.m4a,,,
,,,,,,,,,,,,37157,2021-05-25_08h07.55.662,judgeSpeechMusic_20210519_logNormShiftAmp_mXs,2020.1.2,MacIntel,60,,,,,,,,,,,,,,2,5.539505,,0,0,12,12,3,1,stimuli/stim_20210519_power2amp/equal_lnn_AM1Hz_s15_27.m4a,,,
,,,,,,,,,,,,37157,2021-05-25_08h07.55.662,judgeSpeechMusic_20210519_logNormShiftAmp_mXs,2020.1.2,MacIntel,60,,,,,,,,,,,,,,2,5.260075,,0,0,13,13,46,1,stimuli/stim_20210519_power2amp/equal_lnn_AM1Hz_s55_42.m4a,,,
,,,,,,,,,,,,37157,2021-05-25_08h07.55.662,judgeSpeechMusic_20210519_logNormShiftAmp_mXs,2020.1.2,MacIntel,60,,,,,,,,,,,,,,2,5.22451,,0,0,14,14,122,1,stimuli/stim_20210519_power2amp/equal_lnn_AM4Hz_s35_48.m4a,,,
,,,,,,,,,,,,37157,2021-05-25_08h07.55.662,judgeSpeechMusic_20210519_logNormShiftAmp_mXs,2020.1.2,MacIntel,60,,,,,,,,,,,,,,2,5.315,,0,0,15,15,28,1,stimuli/stim_20210519_power2amp/equal_lnn_AM1Hz_s35_34.m4a,,,
,,,,,,,,,,,,37157,2021-05-25_08h07.55.662,judgeSpeechMusic_20210519_logNormShiftAmp_mXs,2020.1.2,MacIntel,60,,,,,,,,,,,,,,2,5.256745,,0,0,16,16,112,1,stimuli/stim_20210519_power2amp/equal_lnn_AM4Hz_s25_48.m4a,,,
,,,,,,,,,,,,37157,2021-05-25_08h07.55.662,judgeSpeechMusic_20210519_logNormShiftAmp_mXs,2020.1.2,MacIntel,60,,,,,,,,,,,,,,2,5.60145,,0,0,17,17,37,1,stimuli/stim_20210519_power2amp/equal_lnn_AM1Hz_s45_48.m4a,,,
,,,,,,,,,,,,37157,2021-05-25_08h07.55.662,judgeSpeechMusic_20210519_logNormShiftAmp_mXs,2020.1.2,MacIntel,60,,,,,,,,,,,,,,2,5.544815,,0,0,18,18,80,1,stimuli/stim_20210519_power2amp/equal_lnn_AM2.5Hz_s45_28.m4a,,,
,,,,,,,,,,,,37157,2021-05-25_08h07.55.662,judgeSpeechMusic_20210519_logNormShiftAmp_mXs,2020.1.2,MacIntel,60,,,,,,,,,,,,,,2,5.558155,,0,0,19,19,92,1,stimuli/stim_20210519_power2amp/equal_lnn_AM2.5Hz_s55_41.m4a,,,
,,,,,,,,,,,,37157,2021-05-25_08h07.55.662,judgeSpeechMusic_20210519_logNormShiftAmp_mXs,2020.1.2,MacIntel,60,,,,,,,,,,,,,,2,5.7231,,0,0,20,20,138,1,stimuli/stim_20210519_power2amp/equal_lnn_AM4Hz_s45_33.m4a,,,
,,,,,,,,,,,,37157,2021-05-25_08h07.55.662,judgeSpeechMusic_20210519_logNormShiftAmp_mXs,2020.1.2,MacIntel,60,,,,,,,,,,,,,,2,5.254675,,0,0,21,21,52,1,stimuli/stim_20210519_power2amp/equal_lnn_AM2.5Hz_s15_24.m4a,,,
,,,,,,,,,,,,37157,2021-05-25_08h07.55.662,judgeSpeechMusic_20210519_logNormShiftAmp_mXs,2020.1.2,MacIntel,60,,,,,,,,,,,,,,2,5.441475,,0,0,22,22,13,1,stimuli/stim_20210519_power2amp/equal_lnn_AM1Hz_s25_41.m4a,,,
,,,,,,,,,,,,37157,2021-05-25_08h07.55.662,judgeSpeechMusic_20210519_logNormShiftAmp_mXs,2020.1.2,MacIntel,60,,,,,,,,,,,,,,2,5.45937,,0,0,23,23,127,1,stimuli/stim_20210519_power2amp/equal_lnn_AM4Hz_s35_33.m4a,,,
,,,,,,,,,,,,37157,2021-05-25_08h07.55.662,judgeSpeechMusic_20210519_logNormShiftAmp_mXs,2020.1.2,MacIntel,60,,,,,,,,,,,,,,2,5.25287,,0,0,24,24,115,1,stimuli/stim_20210519_power2amp/equal_lnn_AM4Hz_s25_34.m4a,,,
,,,,,,,,,,,,37157,2021-05-25_08h07.55.662,judgeSpeechMusic_20210519_logNormShiftAmp_mXs,2020.1.2,MacIntel,60,,,,,,,,,,,,,,2,5.49982,,0,0,25,25,146,1,stimuli/stim_20210519_power2amp/equal_lnn_AM4Hz_s55_49.m4a,,,
,,,,,,,,,,,,37157,2021-05-25_08h07.55.662,judgeSpeechMusic_20210519_logNormShiftAmp_mXs,2020.1.2,MacIntel,60,,,,,,,,,,,,,,2,5.48962,,0,0,26,26,87,1,stimuli/stim_20210519_power2amp/equal_lnn_AM2.5Hz_s45_49.m4a,,,
,,,,,,,,,,,,37157,2021-05-25_08h07.55.662,judgeSpeechMusic_20210519_logNormShiftAmp_mXs,2020.1.2,MacIntel,60,,,,,,,,,,,,,,2,5.49342,,0,0,27,27,137,1,stimuli/stim_20210519_power2amp/equal_lnn_AM4Hz_s45_45.m4a,,,
,,,,,,,,,,,,37157,2021-05-25_08h07.55.662,judgeSpeechMusic_20210519_logNormShiftAmp_mXs,2020.1.2,MacIntel,60,,,,,,,,,,,,,,2,5.48661,,0,0,28,28,6,1,stimuli/stim_20210519_power2amp/equal_lnn_AM1Hz_s15_25.m4a,,,
,,,,,,,,,,,,37157,2021-05-25_08h07.55.662,judgeSpeechMusic_20210519_logNormShiftAmp_mXs,2020.1.2,MacIntel,60,,,,,,,,,,,,,,2,5.420435,,0,0,29,29,54,1,stimuli/stim_20210519_power2amp/equal_lnn_AM2.5Hz_s15_3.m4a,,,
,,,,,,,,,,,,37157,2021-05-25_08h07.55.662,judgeSpeechMusic_20210519_logNormShiftAmp_mXs,2020.1.2,MacIntel,60,,,,,,,,,,,,,,2,5.86959,,0,0,30,30,97,1,stimuli/stim_20210519_power2amp/equal_lnn_AM2.5Hz_s55_4.m4a,,,
,,,,,,,,,,,,37157,2021-05-25_08h07.55.662,judgeSpeechMusic_20210519_logNormShiftAmp_mXs,2020.1.2,MacIntel,60,,,,,,,,,,,,,,2,5.61843,,0,0,31,31,125,1,stimuli/stim_20210519_power2amp/equal_lnn_AM4Hz_s35_6.m4a,,,
,,,,,,,,,,,,37157,2021-05-25_08h07.55.662,judgeSpeechMusic_20210519_logNormShiftAmp_mXs,2020.1.2,MacIntel,60,,,,,,,,,,,,,,2,5.602865,,0,0,32,32,117,1,stimuli/stim_20210519_power2amp/equal_lnn_AM4Hz_s25_32.m4a,,,
,,,,,,,,,,,,37157,2021-05-25_08h07.55.662,judgeSpeechMusic_20210519_logNormShiftAmp_mXs,2020.1.2,MacIntel,60,,,,,,,,,,,,,,2,5.732875,,0,0,33,33,25,1,stimuli/stim_20210519_power2amp/equal_lnn_AM1Hz_s35_33.m4a,,,
,,,,,,,,,,,,37157,2021-05-25_08h07.55.662,judgeSpeechMusic_20210519_logNormShiftAmp_mXs,2020.1.2,MacIntel,60,,,,,,,,,,,,,,2,5.251715,,0,0,34,34,104,1,stimuli/stim_20210519_power2amp/equal_lnn_AM4Hz_s15_14.m4a,,,
,,,,,,,,,,,,37157,2021-05-25_08h07.55.662,judgeSpeechMusic_20210519_logNormShiftAmp_mXs,2020.1.2,MacIntel,60,,,,,,,,,,,,,,2,5.449935,3,1,0,35,35,59,1,stimuli/stim_20210519_power2amp/equal_lnn_AM2.5Hz_s15_39.m4a,1.395935,,
,,,,,,,,,,,,37157,2021-05-25_08h07.55.662,judgeSpeechMusic_20210519_logNormShiftAmp_mXs,2020.1.2,MacIntel,60,,,,,,,,,,,,,,2,5.5346,,0,0,36,36,96,1,stimuli/stim_20210519_power2amp/equal_lnn_AM2.5Hz_s55_20.m4a,,,
,,,,,,,,,,,,37157,2021-05-25_08h07.55.662,judgeSpeechMusic_20210519_logNormShiftAmp_mXs,2020.1.2,MacIntel,60,,,,,,,,,,,,,,2,5.23394,,0,0,37,37,68,1,stimuli/stim_20210519_power2amp/equal_lnn_AM2.5Hz_s25_10.m4a,,,
,,,,,,,,,,,,37157,2021-05-25_08h07.55.662,judgeSpeechMusic_20210519_logNormShiftAmp_mXs,2020.1.2,MacIntel,60,,,,,,,,,,,,,,2,5.526815,,0,0,38,38,27,1,stimuli/stim_20210519_power2amp/equal_lnn_AM1Hz_s35_43.m4a,,,
,,,,,,,,,,,,37157,2021-05-25_08h07.55.662,judgeSpeechMusic_20210519_logNormShiftAmp_mXs,2020.1.2,MacIntel,60,,,,,,,,,,,,,,2,5.38403,,0,0,39,39,49,1,stimuli/stim_20210519_power2amp/equal_lnn_AM1Hz_s55_7.m4a,,,
,,,,,,,,,,,,37157,2021-05-25_08h07.55.662,judgeSpeechMusic_20210519_logNormShiftAmp_mXs,2020.1.2,MacIntel,60,,,,,,,,,,,,,,2,5.375045,,0,0,40,40,14,1,stimuli/stim_20210519_power2amp/equal_lnn_AM1Hz_s25_33.m4a,,,
,,,,,,,,,,,,37157,2021-05-25_08h07.55.662,judgeSpeechMusic_20210519_logNormShiftAmp_mXs,2020.1.2,MacIntel,60,,,,,,,,,,,,,,2,5.400765,,0,0,41,41,53,1,stimuli/stim_20210519_power2amp/equal_lnn_AM2.5Hz_s15_21.m4a,,,
,,,,,,,,,,,,37157,2021-05-25_08h07.55.662,judgeSpeechMusic_20210519_logNormShiftAmp_mXs,2020.1.2,MacIntel,60,,,,,,,,,,,,,,2,5.60244,,0,0,42,42,100,1,stimuli/stim_20210519_power2amp/equal_lnn_AM4Hz_s15_21.m4a,,,
,,,,,,,,,,,,37157,2021-05-25_08h07.55.662,judgeSpeechMusic_20210519_logNormShiftAmp_mXs,2020.1.2,MacIntel,60,,,,,,,,,,,,,,2,5.484805,,0,0,43,43,133,1,stimuli/stim_20210519_power2amp/equal_lnn_AM4Hz_s45_44.m4a,,,
,,,,,,,,,,,,37157,2021-05-25_08h07.55.662,judgeSpeechMusic_20210519_logNormShiftAmp_mXs,2020.1.2,MacIntel,60,,,,,,,,,,,,,,2,5.52002,,0,0,44,44,70,1,stimuli/stim_20210519_power2amp/equal_lnn_AM2.5Hz_s35_18.m4a,,,
,,,,,,,,,,,,37157,2021-05-25_08h07.55.662,judgeSpeechMusic_20210519_logNormShiftAmp_mXs,2020.1.2,MacIntel,60,,,,,,,,,,,,,,2,5.569515,,0,0,45,45,23,1,stimuli/stim_20210519_power2amp/equal_lnn_AM1Hz_s35_48.m4a,,,
,,,,,,,,,,,,37157,2021-05-25_08h07.55.662,judgeSpeechMusic_20210519_logNormShiftAmp_mXs,2020.1.2,MacIntel,60,,,,,,,,,,,,,,2,5.51743,,0,0,46,46,51,1,stimuli/stim_20210519_power2amp/equal_lnn_AM2.5Hz_s15_43.m4a,,,
,,,,,,,,,,,,37157,2021-05-25_08h07.55.662,judgeSpeechMusic_20210519_logNormShiftAmp_mXs,2020.1.2,MacIntel,60,,,,,,,,,,,,,,2,5.38498,,0,0,47,47,41,1,stimuli/stim_20210519_power2amp/equal_lnn_AM1Hz_s55_39.m4a,,,
,,,,,,,,,,,,37157,2021-05-25_08h07.55.662,judgeSpeechMusic_20210519_logNormShiftAmp_mXs,2020.1.2,MacIntel,60,,,,,,,,,,,,,,2,5.22682,,0,0,48,48,128,1,stimuli/stim_20210519_power2amp/equal_lnn_AM4Hz_s35_24.m4a,,,
,,,,,,,,,,,,37157,2021-05-25_08h07.55.662,judgeSpeechMusic_20210519_logNormShiftAmp_mXs,2020.1.2,MacIntel,60,,,,,,,,,,,,,,2,5.52914,,0,0,49,49,26,1,stimuli/stim_20210519_power2amp/equal_lnn_AM1Hz_s35_29.m4a,,,
,,,,,,,,,,,,37157,2021-05-25_08h07.55.662,judgeSpeechMusic_20210519_logNormShiftAmp_mXs,2020.1.2,MacIntel,60,,,,,,,,,,,,,,2,5.39239,,0,0,50,50,99,1,stimuli/stim_20210519_power2amp/equal_lnn_AM2.5Hz_s55_22.m4a,,,
,,,,,,,,,,,,37157,2021-05-25_08h07.55.662,judgeSpeechMusic_20210519_logNormShiftAmp_mXs,2020.1.2,MacIntel,60,,,,,,,,,,,,,,2,5.51923,,0,0,51,51,62,1,stimuli/stim_20210519_power2amp/equal_lnn_AM2.5Hz_s25_19.m4a,,,
,,,,,,,,,,,,37157,2021-05-25_08h07.55.662,judgeSpeechMusic_20210519_logNormShiftAmp_mXs,2020.1.2,MacIntel,60,,,,,,,,,,,,,,2,5.4522,,0,0,52,52,140,1,stimuli/stim_20210519_power2amp/equal_lnn_AM4Hz_s55_22.m4a,,,
,,,,,,,,,,,,37157,2021-05-25_08h07.55.662,judgeSpeechMusic_20210519_logNormShiftAmp_mXs,2020.1.2,MacIntel,60,,,,,,,,,,,,,,2,5.32347,,0,0,53,53,91,1,stimuli/stim_20210519_power2amp/equal_lnn_AM2.5Hz_s55_36.m4a,,,
,,,,,,,,,,,,37157,2021-05-25_08h07.55.662,judgeSpeechMusic_20210519_logNormShiftAmp_mXs,2020.1.2,MacIntel,60,,,,,,,,,,,,,,2,5.38748,,0,0,54,54,110,1,stimuli/stim_20210519_power2amp/equal_lnn_AM4Hz_s25_10.m4a,,,
,,,,,,,,,,,,37157,2021-05-25_08h07.55.662,judgeSpeechMusic_20210519_logNormShiftAmp_mXs,2020.1.2,MacIntel,60,,,,,,,,,,,,,,2,5.74445,,0,0,55,55,85,1,stimuli/stim_20210519_power2amp/equal_lnn_AM2.5Hz_s45_22.m4a,,,
,,,,,,,,,,,,37157,2021-05-25_08h07.55.662,judgeSpeechMusic_20210519_logNormShiftAmp_mXs,2020.1.2,MacIntel,60,,,,,,,,,,,,,,2,5.46152,,0,0,56,56,102,1,stimuli/stim_20210519_power2amp/equal_lnn_AM4Hz_s15_42.m4a,,,
,,,,,,,,,,,,37157,2021-05-25_08h07.55.662,judgeSpeechMusic_20210519_logNormShiftAmp_mXs,2020.1.2,MacIntel,60,,,,,,,,,,,,,,2,5.435,2,1,0,57,57,50,1,stimuli/stim_20210519_power2amp/equal_lnn_AM2.5Hz_s15_46.m4a,0.23953,,
,,,,,,,,,,,,37157,2021-05-25_08h07.55.662,judgeSpeechMusic_20210519_logNormShiftAmp_mXs,2020.1.2,MacIntel,60,,,,,,,,,,,,,,2,5.616045,,0,0,58,58,31,1,stimuli/stim_20210519_power2amp/equal_lnn_AM1Hz_s45_18.m4a,,,
,,,,,,,,,,,,37157,2021-05-25_08h07.55.662,judgeSpeechMusic_20210519_logNormShiftAmp_mXs,2020.1.2,MacIntel,60,,,,,,,,,,,,,,2,5.751015,,0,0,59,59,29,1,stimuli/stim_20210519_power2amp/equal_lnn_AM1Hz_s35_24.m4a,,,
,,,,,,,,,,,,37157,2021-05-25_08h07.55.662,judgeSpeechMusic_20210519_logNormShiftAmp_mXs,2020.1.2,MacIntel,60,,,,,,,,,,,,,,2,5.352575,,0,0,60,60,119,1,stimuli/stim_20210519_power2amp/equal_lnn_AM4Hz_s25_47.m4a,,,
,,,,,,,,,,,,37157,2021-05-25_08h07.55.662,judgeSpeechMusic_20210519_logNormShiftAmp_mXs,2020.1.2,MacIntel,60,,,,,,,,,,,,,,2,5.30837,,0,0,61,61,98,1,stimuli/stim_20210519_power2amp/equal_lnn_AM2.5Hz_s55_2.m4a,,,
,,,,,,,,,,,,37157,2021-05-25_08h07.55.662,judgeSpeechMusic_20210519_logNormShiftAmp_mXs,2020.1.2,MacIntel,60,,,,,,,,,,,,,,2,5.258725,,0,0,62,62,47,1,stimuli/stim_20210519_power2amp/equal_lnn_AM1Hz_s55_29.m4a,,,
,,,,,,,,,,,,37157,2021-05-25_08h07.55.662,judgeSpeechMusic_20210519_logNormShiftAmp_mXs,2020.1.2,MacIntel,60,,,,,,,,,,,,,,2,5.275455,,0,0,63,63,109,1,stimuli/stim_20210519_power2amp/equal_lnn_AM4Hz_s15_6.m4a,,,
,,,,,,,,,,,,37157,2021-05-25_08h07.55.662,judgeSpeechMusic_20210519_logNormShiftAmp_mXs,2020.1.2,MacIntel,60,,,,,,,,,,,,,,2,5.27202,,0,0,64,64,126,1,stimuli/stim_20210519_power2amp/equal_lnn_AM4Hz_s35_17.m4a,,,
,,,,,,,,,,,,37157,2021-05-25_08h07.55.662,judgeSpeechMusic_20210519_logNormShiftAmp_mXs,2020.1.2,MacIntel,60,,,,,,,,,,,,,,2,5.483245,,0,0,65,65,56,1,stimuli/stim_20210519_power2amp/equal_lnn_AM2.5Hz_s15_37.m4a,,,
,,,,,,,,,,,,37157,2021-05-25_08h07.55.662,judgeSpeechMusic_20210519_logNormShiftAmp_mXs,2020.1.2,MacIntel,60,,,,,,,,,,,,,,2,5.417695,,0,0,66,66,88,1,stimuli/stim_20210519_power2amp/equal_lnn_AM2.5Hz_s45_42.m4a,,,
,,,,,,,,,,,,37157,2021-05-25_08h07.55.662,judgeSpeechMusic_20210519_logNormShiftAmp_mXs,2020.1.2,MacIntel,60,,,,,,,,,,,,,,2,5.417875,,0,0,67,67,131,1,stimuli/stim_20210519_power2amp/equal_lnn_AM4Hz_s45_42.m4a,,,
,,,,,,,,,,,,37157,2021-05-25_08h07.55.662,judgeSpeechMusic_20210519_logNormShiftAmp_mXs,2020.1.2,MacIntel,60,,,,,,,,,,,,,,2,5.50181,,0,0,68,68,5,1,stimuli/stim_20210519_power2amp/equal_lnn_AM1Hz_s15_4.m4a,,,
,,,,,,,,,,,,37157,2021-05-25_08h07.55.662,judgeSpeechMusic_20210519_logNormShiftAmp_mXs,2020.1.2,MacIntel,60,,,,,,,,,,,,,,2,5.64269,,0,0,69,69,40,1,stimuli/stim_20210519_power2amp/equal_lnn_AM1Hz_s55_34.m4a,,,
,,,,,,,,,,,,37157,2021-05-25_08h07.55.662,judgeSpeechMusic_20210519_logNormShiftAmp_mXs,2020.1.2,MacIntel,60,,,,,,,,,,,,,,2,5.502065,,0,0,70,70,36,1,stimuli/stim_20210519_power2amp/equal_lnn_AM1Hz_s45_46.m4a,,,
,,,,,,,,,,,,37157,2021-05-25_08h07.55.662,judgeSpeechMusic_20210519_logNormShiftAmp_mXs,2020.1.2,MacIntel,60,,,,,,,,,,,,,,2,5.28295,,0,0,71,71,0,1,stimuli/stim_20210519_power2amp/equal_lnn_AM1Hz_s15_35.m4a,,,
,,,,,,,,,,,,37157,2021-05-25_08h07.55.662,judgeSpeechMusic_20210519_logNormShiftAmp_mXs,2020.1.2,MacIntel,60,,,,,,,,,,,,,,2,5.572375,,0,0,72,72,15,1,stimuli/stim_20210519_power2amp/equal_lnn_AM1Hz_s25_2.m4a,,,
,,,,,,,,,,,,37157,2021-05-25_08h07.55.662,judgeSpeechMusic_20210519_logNormShiftAmp_mXs,2020.1.2,MacIntel,60,,,,,,,,,,,,,,2,5.32126,,0,0,73,73,30,1,stimuli/stim_20210519_power2amp/equal_lnn_AM1Hz_s45_38.m4a,,,
,,,,,,,,,,,,37157,2021-05-25_08h07.55.662,judgeSpeechMusic_20210519_logNormShiftAmp_mXs,2020.1.2,MacIntel,60,,,,,,,,,,,,,,2,5.265825,,0,0,74,74,42,1,stimuli/stim_20210519_power2amp/equal_lnn_AM1Hz_s55_12.m4a,,,
,,,,,,,,,,,,37157,2021-05-25_08h07.55.662,judgeSpeechMusic_20210519_logNormShiftAmp_mXs,2020.1.2,MacIntel,60,,,,,,,,,,,,,,2,5.440795,,0,0,75,75,7,1,stimuli/stim_20210519_power2amp/equal_lnn_AM1Hz_s15_38.m4a,,,
,,,,,,,,,,,,37157,2021-05-25_08h07.55.662,judgeSpeechMusic_20210519_logNormShiftAmp_mXs,2020.1.2,MacIntel,60,,,,,,,,,,,,,,2,5.673215,,0,0,76,76,111,1,stimuli/stim_20210519_power2amp/equal_lnn_AM4Hz_s25_18.m4a,,,
,,,,,,,,,,,,37157,2021-05-25_08h07.55.662,judgeSpeechMusic_20210519_logNormShiftAmp_mXs,2020.1.2,MacIntel,60,,,,,,,,,,,,,,2,5.617615,,0,0,77,77,58,1,stimuli/stim_20210519_power2amp/equal_lnn_AM2.5Hz_s15_22.m4a,,,
,,,,,,,,,,,,37157,2021-05-25_08h07.55.662,judgeSpeechMusic_20210519_logNormShiftAmp_mXs,2020.1.2,MacIntel,60,,,,,,,,,,,,,,2,5.58854,,0,0,78,78,17,1,stimuli/stim_20210519_power2amp/equal_lnn_AM1Hz_s25_50.m4a,,,
,,,,,,,,,,,,37157,2021-05-25_08h07.55.662,judgeSpeechMusic_20210519_logNormShiftAmp_mXs,2020.1.2,MacIntel,60,,,,,,,,,,,,,,2,5.48632,3,0,0,79,79,33,1,stimuli/stim_20210519_power2amp/equal_lnn_AM1Hz_s45_4.m4a,0.560515,,
,,,,,,,,,,,,37157,2021-05-25_08h07.55.662,judgeSpeechMusic_20210519_logNormShiftAmp_mXs,2020.1.2,MacIntel,60,,,,,,,,,,,,,,1,6.029155,,0,0,80,80,60,1,stimuli/stim_20210519_power2amp/equal_lnn_AM2.5Hz_s25_17.m4a,,,
,,,,,,,,,,,,37157,2021-05-25_08h07.55.662,judgeSpeechMusic_20210519_logNormShiftAmp_mXs,2020.1.2,MacIntel,60,,,,,,,,,,,,,,1,5.50554,,0,0,81,81,106,1,stimuli/stim_20210519_power2amp/equal_lnn_AM4Hz_s15_35.m4a,,,
,,,,,,,,,,,,37157,2021-05-25_08h07.55.662,judgeSpeechMusic_20210519_logNormShiftAmp_mXs,2020.1.2,MacIntel,60,,,,,,,,,,,,,,1,5.50563,,0,0,82,82,149,1,stimuli/stim_20210519_power2amp/equal_lnn_AM4Hz_s55_4.m4a,,,
,,,,,,,,,,,,37157,2021-05-25_08h07.55.662,judgeSpeechMusic_20210519_logNormShiftAmp_mXs,2020.1.2,MacIntel,60,,,,,,,,,,,,,,1,5.53594,,0,0,83,83,74,1,stimuli/stim_20210519_power2amp/equal_lnn_AM2.5Hz_s35_25.m4a,,,
,,,,,,,,,,,,37157,2021-05-25_08h07.55.662,judgeSpeechMusic_20210519_logNormShiftAmp_mXs,2020.1.2,MacIntel,60,,,,,,,,,,,,,,1,5.589405,,0,0,84,84,113,1,stimuli/stim_20210519_power2amp/equal_lnn_AM4Hz_s25_42.m4a,,,
,,,,,,,,,,,,37157,2021-05-25_08h07.55.662,judgeSpeechMusic_20210519_logNormShiftAmp_mXs,2020.1.2,MacIntel,60,,,,,,,,,,,,,,1,5.607325,,0,0,85,85,118,1,stimuli/stim_20210519_power2amp/equal_lnn_AM4Hz_s25_17.m4a,,,
,,,,,,,,,,,,37157,2021-05-25_08h07.55.662,judgeSpeechMusic_20210519_logNormShiftAmp_mXs,2020.1.2,MacIntel,60,,,,,,,,,,,,,,1,5.48498,,0,0,86,86,82,1,stimuli/stim_20210519_power2amp/equal_lnn_AM2.5Hz_s45_40.m4a,,,
,,,,,,,,,,,,37157,2021-05-25_08h07.55.662,judgeSpeechMusic_20210519_logNormShiftAmp_mXs,2020.1.2,MacIntel,60,,,,,,,,,,,,,,1,5.700985,,0,0,87,87,45,1,stimuli/stim_20210519_power2amp/equal_lnn_AM1Hz_s55_10.m4a,,,
,,,,,,,,,,,,37157,2021-05-25_08h07.55.662,judgeSpeechMusic_20210519_logNormShiftAmp_mXs,2020.1.2,MacIntel,60,,,,,,,,,,,,,,1,5.443085,,0,0,88,88,1,1,stimuli/stim_20210519_power2amp/equal_lnn_AM1Hz_s15_26.m4a,,,
,,,,,,,,,,,,37157,2021-05-25_08h07.55.662,judgeSpeechMusic_20210519_logNormShiftAmp_mXs,2020.1.2,MacIntel,60,,,,,,,,,,,,,,1,5.52025,,0,0,89,89,18,1,stimuli/stim_20210519_power2amp/equal_lnn_AM1Hz_s25_46.m4a,,,
,,,,,,,,,,,,37157,2021-05-25_08h07.55.662,judgeSpeechMusic_20210519_logNormShiftAmp_mXs,2020.1.2,MacIntel,60,,,,,,,,,,,,,,1,5.501435,,0,0,90,90,103,1,stimuli/stim_20210519_power2amp/equal_lnn_AM4Hz_s15_8.m4a,,,
,,,,,,,,,,,,37157,2021-05-25_08h07.55.662,judgeSpeechMusic_20210519_logNormShiftAmp_mXs,2020.1.2,MacIntel,60,,,,,,,,,,,,,,1,5.499795,,0,0,91,91,44,1,stimuli/stim_20210519_power2amp/equal_lnn_AM1Hz_s55_8.m4a,,,
,,,,,,,,,,,,37157,2021-05-25_08h07.55.662,judgeSpeechMusic_20210519_logNormShiftAmp_mXs,2020.1.2,MacIntel,60,,,,,,,,,,,,,,1,5.25736,,0,0,92,92,20,1,stimuli/stim_20210519_power2amp/equal_lnn_AM1Hz_s35_17.m4a,,,
,,,,,,,,,,,,37157,2021-05-25_08h07.55.662,judgeSpeechMusic_20210519_logNormShiftAmp_mXs,2020.1.2,MacIntel,60,,,,,,,,,,,,,,1,5.449005,,0,0,93,93,83,1,stimuli/stim_20210519_power2amp/equal_lnn_AM2.5Hz_s45_23.m4a,,,
,,,,,,,,,,,,37157,2021-05-25_08h07.55.662,judgeSpeechMusic_20210519_logNormShiftAmp_mXs,2020.1.2,MacIntel,60,,,,,,,,,,,,,,1,5.505865,,0,0,94,94,55,1,stimuli/stim_20210519_power2amp/equal_lnn_AM2.5Hz_s15_49.m4a,,,
,,,,,,,,,,,,37157,2021-05-25_08h07.55.662,judgeSpeechMusic_20210519_logNormShiftAmp_mXs,2020.1.2,MacIntel,60,,,,,,,,,,,,,,1,5.66969,,0,0,95,95,39,1,stimuli/stim_20210519_power2amp/equal_lnn_AM1Hz_s45_20.m4a,,,
,,,,,,,,,,,,37157,2021-05-25_08h07.55.662,judgeSpeechMusic_20210519_logNormShiftAmp_mXs,2020.1.2,MacIntel,60,,,,,,,,,,,,,,1,6.069805,,0,0,96,96,77,1,stimuli/stim_20210519_power2amp/equal_lnn_AM2.5Hz_s35_43.m4a,,,
,,,,,,,,,,,,37157,2021-05-25_08h07.55.662,judgeSpeechMusic_20210519_logNormShiftAmp_mXs,2020.1.2,MacIntel,60,,,,,,,,,,,,,,1,5.571035,,0,0,97,97,136,1,stimuli/stim_20210519_power2amp/equal_lnn_AM4Hz_s45_31.m4a,,,
,,,,,,,,,,,,37157,2021-05-25_08h07.55.662,judgeSpeechMusic_20210519_logNormShiftAmp_mXs,2020.1.2,MacIntel,60,,,,,,,,,,,,,,1,6.03949,,0,0,98,98,64,1,stimuli/stim_20210519_power2amp/equal_lnn_AM2.5Hz_s25_40.m4a,,,
,,,,,,,,,,,,37157,2021-05-25_08h07.55.662,judgeSpeechMusic_20210519_logNormShiftAmp_mXs,2020.1.2,MacIntel,60,,,,,,,,,,,,,,1,5.418155,,0,0,99,99,135,1,stimuli/stim_20210519_power2amp/equal_lnn_AM4Hz_s45_20.m4a,,,
,,,,,,,,,,,,37157,2021-05-25_08h07.55.662,judgeSpeechMusic_20210519_logNormShiftAmp_mXs,2020.1.2,MacIntel,60,,,,,,,,,,,,,,1,5.483765,,0,0,100,100,107,1,stimuli/stim_20210519_power2amp/equal_lnn_AM4Hz_s15_28.m4a,,,
,,,,,,,,,,,,37157,2021-05-25_08h07.55.662,judgeSpeechMusic_20210519_logNormShiftAmp_mXs,2020.1.2,MacIntel,60,,,,,,,,,,,,,,1,5.503165,3,1,0,101,101,57,1,stimuli/stim_20210519_power2amp/equal_lnn_AM2.5Hz_s15_14.m4a,0.561665,,
,,,,,,,,,,,,37157,2021-05-25_08h07.55.662,judgeSpeechMusic_20210519_logNormShiftAmp_mXs,2020.1.2,MacIntel,60,,,,,,,,,,,,,,1,5.432835,,0,0,102,102,73,1,stimuli/stim_20210519_power2amp/equal_lnn_AM2.5Hz_s35_13.m4a,,,
,,,,,,,,,,,,37157,2021-05-25_08h07.55.662,judgeSpeechMusic_20210519_logNormShiftAmp_mXs,2020.1.2,MacIntel,60,,,,,,,,,,,,,,1,5.21669,,0,0,103,103,143,1,stimuli/stim_20210519_power2amp/equal_lnn_AM4Hz_s55_24.m4a,,,
,,,,,,,,,,,,37157,2021-05-25_08h07.55.662,judgeSpeechMusic_20210519_logNormShiftAmp_mXs,2020.1.2,MacIntel,60,,,,,,,,,,,,,,1,5.70146,,0,0,104,104,63,1,stimuli/stim_20210519_power2amp/equal_lnn_AM2.5Hz_s25_7.m4a,,,
,,,,,,,,,,,,37157,2021-05-25_08h07.55.662,judgeSpeechMusic_20210519_logNormShiftAmp_mXs,2020.1.2,MacIntel,60,,,,,,,,,,,,,,1,5.24426,,0,0,105,105,108,1,stimuli/stim_20210519_power2amp/equal_lnn_AM4Hz_s15_39.m4a,,,
,,,,,,,,,,,,37157,2021-05-25_08h07.55.662,judgeSpeechMusic_20210519_logNormShiftAmp_mXs,2020.1.2,MacIntel,60,,,,,,,,,,,,,,1,5.359515,,0,0,106,106,144,1,stimuli/stim_20210519_power2amp/equal_lnn_AM4Hz_s55_19.m4a,,,
,,,,,,,,,,,,37157,2021-05-25_08h07.55.662,judgeSpeechMusic_20210519_logNormShiftAmp_mXs,2020.1.2,MacIntel,60,,,,,,,,,,,,,,1,5.28747,,0,0,107,107,38,1,stimuli/stim_20210519_power2amp/equal_lnn_AM1Hz_s45_22.m4a,,,
,,,,,,,,,,,,37157,2021-05-25_08h07.55.662,judgeSpeechMusic_20210519_logNormShiftAmp_mXs,2020.1.2,MacIntel,60,,,,,,,,,,,,,,1,5.551115,,0,0,108,108,65,1,stimuli/stim_20210519_power2amp/equal_lnn_AM2.5Hz_s25_5.m4a,,,
,,,,,,,,,,,,37157,2021-05-25_08h07.55.662,judgeSpeechMusic_20210519_logNormShiftAmp_mXs,2020.1.2,MacIntel,60,,,,,,,,,,,,,,1,5.838815,,0,0,109,109,78,1,stimuli/stim_20210519_power2amp/equal_lnn_AM2.5Hz_s35_27.m4a,,,
,,,,,,,,,,,,37157,2021-05-25_08h07.55.662,judgeSpeechMusic_20210519_logNormShiftAmp_mXs,2020.1.2,MacIntel,60,,,,,,,,,,,,,,1,5.454435,,0,0,110,110,69,1,stimuli/stim_20210519_power2amp/equal_lnn_AM2.5Hz_s25_47.m4a,,,
,,,,,,,,,,,,37157,2021-05-25_08h07.55.662,judgeSpeechMusic_20210519_logNormShiftAmp_mXs,2020.1.2,MacIntel,60,,,,,,,,,,,,,,1,5.584925,,0,0,111,111,81,1,stimuli/stim_20210519_power2amp/equal_lnn_AM2.5Hz_s45_35.m4a,,,
,,,,,,,,,,,,37157,2021-05-25_08h07.55.662,judgeSpeechMusic_20210519_logNormShiftAmp_mXs,2020.1.2,MacIntel,60,,,,,,,,,,,,,,1,5.55814,,0,0,112,112,86,1,stimuli/stim_20210519_power2amp/equal_lnn_AM2.5Hz_s45_26.m4a,,,
,,,,,,,,,,,,37157,2021-05-25_08h07.55.662,judgeSpeechMusic_20210519_logNormShiftAmp_mXs,2020.1.2,MacIntel,60,,,,,,,,,,,,,,1,5.482965,,0,0,113,113,130,1,stimuli/stim_20210519_power2amp/equal_lnn_AM4Hz_s45_26.m4a,,,
,,,,,,,,,,,,37157,2021-05-25_08h07.55.662,judgeSpeechMusic_20210519_logNormShiftAmp_mXs,2020.1.2,MacIntel,60,,,,,,,,,,,,,,1,5.81924,,0,0,114,114,22,1,stimuli/stim_20210519_power2amp/equal_lnn_AM1Hz_s35_10.m4a,,,
,,,,,,,,,,,,37157,2021-05-25_08h07.55.662,judgeSpeechMusic_20210519_logNormShiftAmp_mXs,2020.1.2,MacIntel,60,,,,,,,,,,,,,,1,5.434445,,0,0,115,115,32,1,stimuli/stim_20210519_power2amp/equal_lnn_AM1Hz_s45_47.m4a,,,
,,,,,,,,,,,,37157,2021-05-25_08h07.55.662,judgeSpeechMusic_20210519_logNormShiftAmp_mXs,2020.1.2,MacIntel,60,,,,,,,,,,,,,,1,5.48563,,0,0,116,116,120,1,stimuli/stim_20210519_power2amp/equal_lnn_AM4Hz_s35_8.m4a,,,
,,,,,,,,,,,,37157,2021-05-25_08h07.55.662,judgeSpeechMusic_20210519_logNormShiftAmp_mXs,2020.1.2,MacIntel,60,,,,,,,,,,,,,,1,5.29861,,0,0,117,117,114,1,stimuli/stim_20210519_power2amp/equal_lnn_AM4Hz_s25_20.m4a,,,
,,,,,,,,,,,,37157,2021-05-25_08h07.55.662,judgeSpeechMusic_20210519_logNormShiftAmp_mXs,2020.1.2,MacIntel,60,,,,,,,,,,,,,,1,5.58364,,0,0,118,118,76,1,stimuli/stim_20210519_power2amp/equal_lnn_AM2.5Hz_s35_31.m4a,,,
,,,,,,,,,,,,37157,2021-05-25_08h07.55.662,judgeSpeechMusic_20210519_logNormShiftAmp_mXs,2020.1.2,MacIntel,60,,,,,,,,,,,,,,1,5.449775,,0,0,119,119,90,1,stimuli/stim_20210519_power2amp/equal_lnn_AM2.5Hz_s55_3.m4a,,,
,,,,,,,,,,,,37157,2021-05-25_08h07.55.662,judgeSpeechMusic_20210519_logNormShiftAmp_mXs,2020.1.2,MacIntel,60,,,,,,,,,,,,,,1,5.521775,,0,0,120,120,141,1,stimuli/stim_20210519_power2amp/equal_lnn_AM4Hz_s55_36.m4a,,,
,,,,,,,,,,,,37157,2021-05-25_08h07.55.662,judgeSpeechMusic_20210519_logNormShiftAmp_mXs,2020.1.2,MacIntel,60,,,,,,,,,,,,,,1,5.50096,,0,0,121,121,142,1,stimuli/stim_20210519_power2amp/equal_lnn_AM4Hz_s55_15.m4a,,,
,,,,,,,,,,,,37157,2021-05-25_08h07.55.662,judgeSpeechMusic_20210519_logNormShiftAmp_mXs,2020.1.2,MacIntel,60,,,,,,,,,,,,,,1,5.536235,,0,0,122,122,66,1,stimuli/stim_20210519_power2amp/equal_lnn_AM2.5Hz_s25_12.m4a,,,
,,,,,,,,,,,,37157,2021-05-25_08h07.55.662,judgeSpeechMusic_20210519_logNormShiftAmp_mXs,2020.1.2,MacIntel,60,,,,,,,,,,,,,,1,5.51652,,0,0,123,123,4,1,stimuli/stim_20210519_power2amp/equal_lnn_AM1Hz_s15_37.m4a,,,
,,,,,,,,,,,,37157,2021-05-25_08h07.55.662,judgeSpeechMusic_20210519_logNormShiftAmp_mXs,2020.1.2,MacIntel,60,,,,,,,,,,,,,,1,5.70826,,0,0,124,124,11,1,stimuli/stim_20210519_power2amp/equal_lnn_AM1Hz_s25_18.m4a,,,
,,,,,,,,,,,,37157,2021-05-25_08h07.55.662,judgeSpeechMusic_20210519_logNormShiftAmp_mXs,2020.1.2,MacIntel,60,,,,,,,,,,,,,,1,5.713275,4,1,0,125,125,71,1,stimuli/stim_20210519_power2amp/equal_lnn_AM2.5Hz_s35_9.m4a,0.36339,,
,,,,,,,,,,,,37157,2021-05-25_08h07.55.662,judgeSpeechMusic_20210519_logNormShiftAmp_mXs,2020.1.2,MacIntel,60,,,,,,,,,,,,,,1,5.370415,,0,0,126,126,43,1,stimuli/stim_20210519_power2amp/equal_lnn_AM1Hz_s55_46.m4a,,,
,,,,,,,,,,,,37157,2021-05-25_08h07.55.662,judgeSpeechMusic_20210519_logNormShiftAmp_mXs,2020.1.2,MacIntel,60,,,,,,,,,,,,,,1,5.452185,,0,0,127,127,147,1,stimuli/stim_20210519_power2amp/equal_lnn_AM4Hz_s55_16.m4a,,,
,,,,,,,,,,,,37157,2021-05-25_08h07.55.662,judgeSpeechMusic_20210519_logNormShiftAmp_mXs,2020.1.2,MacIntel,60,,,,,,,,,,,,,,1,5.348915,,0,0,128,128,93,1,stimuli/stim_20210519_power2amp/equal_lnn_AM2.5Hz_s55_33.m4a,,,
,,,,,,,,,,,,37157,2021-05-25_08h07.55.662,judgeSpeechMusic_20210519_logNormShiftAmp_mXs,2020.1.2,MacIntel,60,,,,,,,,,,,,,,1,5.707915,,0,0,129,129,35,1,stimuli/stim_20210519_power2amp/equal_lnn_AM1Hz_s45_25.m4a,,,
,,,,,,,,,,,,37157,2021-05-25_08h07.55.662,judgeSpeechMusic_20210519_logNormShiftAmp_mXs,2020.1.2,MacIntel,60,,,,,,,,,,,,,,1,5.40994,,0,0,130,130,134,1,stimuli/stim_20210519_power2amp/equal_lnn_AM4Hz_s45_37.m4a,,,
,,,,,,,,,,,,37157,2021-05-25_08h07.55.662,judgeSpeechMusic_20210519_logNormShiftAmp_mXs,2020.1.2,MacIntel,60,,,,,,,,,,,,,,1,5.335245,,0,0,131,131,61,1,stimuli/stim_20210519_power2amp/equal_lnn_AM2.5Hz_s25_27.m4a,,,
,,,,,,,,,,,,37157,2021-05-25_08h07.55.662,judgeSpeechMusic_20210519_logNormShiftAmp_mXs,2020.1.2,MacIntel,60,,,,,,,,,,,,,,1,5.233495,,0,0,132,132,19,1,stimuli/stim_20210519_power2amp/equal_lnn_AM1Hz_s25_28.m4a,,,
,,,,,,,,,,,,37157,2021-05-25_08h07.55.662,judgeSpeechMusic_20210519_logNormShiftAmp_mXs,2020.1.2,MacIntel,60,,,,,,,,,,,,,,1,5.601765,,0,0,133,133,75,1,stimuli/stim_20210519_power2amp/equal_lnn_AM2.5Hz_s35_3.m4a,,,
,,,,,,,,,,,,37157,2021-05-25_08h07.55.662,judgeSpeechMusic_20210519_logNormShiftAmp_mXs,2020.1.2,MacIntel,60,,,,,,,,,,,,,,1,5.603435,,0,0,134,134,10,1,stimuli/stim_20210519_power2amp/equal_lnn_AM1Hz_s25_29.m4a,,,
,,,,,,,,,,,,37157,2021-05-25_08h07.55.662,judgeSpeechMusic_20210519_logNormShiftAmp_mXs,2020.1.2,MacIntel,60,,,,,,,,,,,,,,1,5.43516,,0,0,135,135,12,1,stimuli/stim_20210519_power2amp/equal_lnn_AM1Hz_s25_30.m4a,,,
,,,,,,,,,,,,37157,2021-05-25_08h07.55.662,judgeSpeechMusic_20210519_logNormShiftAmp_mXs,2020.1.2,MacIntel,60,,,,,,,,,,,,,,1,5.29123,,0,0,136,136,79,1,stimuli/stim_20210519_power2amp/equal_lnn_AM2.5Hz_s35_46.m4a,,,
,,,,,,,,,,,,37157,2021-05-25_08h07.55.662,judgeSpeechMusic_20210519_logNormShiftAmp_mXs,2020.1.2,MacIntel,60,,,,,,,,,,,,,,1,5.40147,,0,0,137,137,24,1,stimuli/stim_20210519_power2amp/equal_lnn_AM1Hz_s35_16.m4a,,,
,,,,,,,,,,,,37157,2021-05-25_08h07.55.662,judgeSpeechMusic_20210519_logNormShiftAmp_mXs,2020.1.2,MacIntel,60,,,,,,,,,,,,,,1,5.551525,,0,0,138,138,101,1,stimuli/stim_20210519_power2amp/equal_lnn_AM4Hz_s15_43.m4a,,,
,,,,,,,,,,,,37157,2021-05-25_08h07.55.662,judgeSpeechMusic_20210519_logNormShiftAmp_mXs,2020.1.2,MacIntel,60,,,,,,,,,,,,,,1,5.46532,,0,0,139,139,84,1,stimuli/stim_20210519_power2amp/equal_lnn_AM2.5Hz_s45_21.m4a,,,
,,,,,,,,,,,,37157,2021-05-25_08h07.55.662,judgeSpeechMusic_20210519_logNormShiftAmp_mXs,2020.1.2,MacIntel,60,,,,,,,,,,,,,,1,5.270555,,0,0,140,140,124,1,stimuli/stim_20210519_power2amp/equal_lnn_AM4Hz_s35_27.m4a,,,
,,,,,,,,,,,,37157,2021-05-25_08h07.55.662,judgeSpeechMusic_20210519_logNormShiftAmp_mXs,2020.1.2,MacIntel,60,,,,,,,,,,,,,,1,5.318125,,0,0,141,141,105,1,stimuli/stim_20210519_power2amp/equal_lnn_AM4Hz_s15_9.m4a,,,
,,,,,,,,,,,,37157,2021-05-25_08h07.55.662,judgeSpeechMusic_20210519_logNormShiftAmp_mXs,2020.1.2,MacIntel,60,,,,,,,,,,,,,,1,5.23245,,0,0,142,142,132,1,stimuli/stim_20210519_power2amp/equal_lnn_AM4Hz_s45_23.m4a,,,
,,,,,,,,,,,,37157,2021-05-25_08h07.55.662,judgeSpeechMusic_20210519_logNormShiftAmp_mXs,2020.1.2,MacIntel,60,,,,,,,,,,,,,,1,5.37603,,0,0,143,143,95,1,stimuli/stim_20210519_power2amp/equal_lnn_AM2.5Hz_s55_17.m4a,,,
,,,,,,,,,,,,37157,2021-05-25_08h07.55.662,judgeSpeechMusic_20210519_logNormShiftAmp_mXs,2020.1.2,MacIntel,60,,,,,,,,,,,,,,1,5.28446,,0,0,144,144,123,1,stimuli/stim_20210519_power2amp/equal_lnn_AM4Hz_s35_9.m4a,,,
,,,,,,,,,,,,37157,2021-05-25_08h07.55.662,judgeSpeechMusic_20210519_logNormShiftAmp_mXs,2020.1.2,MacIntel,60,,,,,,,,,,,,,,1,5.257945,4,1,0,145,145,67,1,stimuli/stim_20210519_power2amp/equal_lnn_AM2.5Hz_s25_38.m4a,0.32421,,
,,,,,,,,,,,,37157,2021-05-25_08h07.55.662,judgeSpeechMusic_20210519_logNormShiftAmp_mXs,2020.1.2,MacIntel,60,,,,,,,,,,,,,,1,5.33037,,0,0,146,146,139,1,stimuli/stim_20210519_power2amp/equal_lnn_AM4Hz_s45_34.m4a,,,
,,,,,,,,,,,,37157,2021-05-25_08h07.55.662,judgeSpeechMusic_20210519_logNormShiftAmp_mXs,2020.1.2,MacIntel,60,,,,,,,,,,,,,,1,5.24988,,0,0,147,147,89,1,stimuli/stim_20210519_power2amp/equal_lnn_AM2.5Hz_s45_16.m4a,,,
,,,,,,,,,,,,37157,2021-05-25_08h07.55.662,judgeSpeechMusic_20210519_logNormShiftAmp_mXs,2020.1.2,MacIntel,60,,,,,,,,,,,,,,1,5.52225,,0,0,148,148,2,1,stimuli/stim_20210519_power2amp/equal_lnn_AM1Hz_s15_21.m4a,,,
,,,,,,,,,,,,37157,2021-05-25_08h07.55.662,judgeSpeechMusic_20210519_logNormShiftAmp_mXs,2020.1.2,MacIntel,60,,,,,,,,,,,,,,1,5.33538,,0,0,149,149,94,1,stimuli/stim_20210519_power2amp/equal_lnn_AM2.5Hz_s55_31.m4a,,,
,,,,,,,,,,,,37157,2021-05-25_08h07.55.662,judgeSpeechMusic_20210519_logNormShiftAmp_mXs,2020.1.2,MacIntel,60,,,,,,,,,,,,,,1,5.32636,,0,1,0,150,35,1,stimuli/stim_20210519_power2amp/equal_lnn_AM1Hz_s45_25.m4a,,,
,,,,,,,,,,,,37157,2021-05-25_08h07.55.662,judgeSpeechMusic_20210519_logNormShiftAmp_mXs,2020.1.2,MacIntel,60,,,,,,,,,,,,,,1,5.26525,,0,1,1,151,119,1,stimuli/stim_20210519_power2amp/equal_lnn_AM4Hz_s25_47.m4a,,,
,,,,,,,,,,,,37157,2021-05-25_08h07.55.662,judgeSpeechMusic_20210519_logNormShiftAmp_mXs,2020.1.2,MacIntel,60,,,,,,,,,,,,,,1,5.41782,,0,1,2,152,9,1,stimuli/stim_20210519_power2amp/equal_lnn_AM1Hz_s15_32.m4a,,,
,,,,,,,,,,,,37157,2021-05-25_08h07.55.662,judgeSpeechMusic_20210519_logNormShiftAmp_mXs,2020.1.2,MacIntel,60,,,,,,,,,,,,,,1,5.42022,,0,1,3,153,65,1,stimuli/stim_20210519_power2amp/equal_lnn_AM2.5Hz_s25_5.m4a,,,
,,,,,,,,,,,,37157,2021-05-25_08h07.55.662,judgeSpeechMusic_20210519_logNormShiftAmp_mXs,2020.1.2,MacIntel,60,,,,,,,,,,,,,,1,5.239865,,0,1,4,154,117,1,stimuli/stim_20210519_power2amp/equal_lnn_AM4Hz_s25_32.m4a,,,
,,,,,,,,,,,,37157,2021-05-25_08h07.55.662,judgeSpeechMusic_20210519_logNormShiftAmp_mXs,2020.1.2,MacIntel,60,,,,,,,,,,,,,,1,5.81902,,0,1,5,155,4,1,stimuli/stim_20210519_power2amp/equal_lnn_AM1Hz_s15_37.m4a,,,
,,,,,,,,,,,,37157,2021-05-25_08h07.55.662,judgeSpeechMusic_20210519_logNormShiftAmp_mXs,2020.1.2,MacIntel,60,,,,,,,,,,,,,,1,5.282345,,0,1,6,156,125,1,stimuli/stim_20210519_power2amp/equal_lnn_AM4Hz_s35_6.m4a,,,
,,,,,,,,,,,,37157,2021-05-25_08h07.55.662,judgeSpeechMusic_20210519_logNormShiftAmp_mXs,2020.1.2,MacIntel,60,,,,,,,,,,,,,,1,5.476995,,0,1,7,157,36,1,stimuli/stim_20210519_power2amp/equal_lnn_AM1Hz_s45_46.m4a,,,
,,,,,,,,,,,,37157,2021-05-25_08h07.55.662,judgeSpeechMusic_20210519_logNormShiftAmp_mXs,2020.1.2,MacIntel,60,,,,,,,,,,,,,,1,5.34202,,0,1,8,158,81,1,stimuli/stim_20210519_power2amp/equal_lnn_AM2.5Hz_s45_35.m4a,,,
,,,,,,,,,,,,37157,2021-05-25_08h07.55.662,judgeSpeechMusic_20210519_logNormShiftAmp_mXs,2020.1.2,MacIntel,60,,,,,,,,,,,,,,1,5.341995,,0,1,9,159,83,1,stimuli/stim_20210519_power2amp/equal_lnn_AM2.5Hz_s45_23.m4a,,,
,,,,,,,,,,,,37157,2021-05-25_08h07.55.662,judgeSpeechMusic_20210519_logNormShiftAmp_mXs,2020.1.2,MacIntel,60,,,,,,,,,,,,,,1,5.416725,,0,1,10,160,68,1,stimuli/stim_20210519_power2amp/equal_lnn_AM2.5Hz_s25_10.m4a,,,
,,,,,,,,,,,,37157,2021-05-25_08h07.55.662,judgeSpeechMusic_20210519_logNormShiftAmp_mXs,2020.1.2,MacIntel,60,,,,,,,,,,,,,,1,5.35134,,0,1,11,161,138,1,stimuli/stim_20210519_power2amp/equal_lnn_AM4Hz_s45_33.m4a,,,
,,,,,,,,,,,,37157,2021-05-25_08h07.55.662,judgeSpeechMusic_20210519_logNormShiftAmp_mXs,2020.1.2,MacIntel,60,,,,,,,,,,,,,,1,5.33695,,0,1,12,162,108,1,stimuli/stim_20210519_power2amp/equal_lnn_AM4Hz_s15_39.m4a,,,
,,,,,,,,,,,,37157,2021-05-25_08h07.55.662,judgeSpeechMusic_20210519_logNormShiftAmp_mXs,2020.1.2,MacIntel,60,,,,,,,,,,,,,,1,5.376825,,0,1,13,163,77,1,stimuli/stim_20210519_power2amp/equal_lnn_AM2.5Hz_s35_43.m4a,,,
,,,,,,,,,,,,37157,2021-05-25_08h07.55.662,judgeSpeechMusic_20210519_logNormShiftAmp_mXs,2020.1.2,MacIntel,60,,,,,,,,,,,,,,1,5.27339,,0,1,14,164,146,1,stimuli/stim_20210519_power2amp/equal_lnn_AM4Hz_s55_49.m4a,,,
,,,,,,,,,,,,37157,2021-05-25_08h07.55.662,judgeSpeechMusic_20210519_logNormShiftAmp_mXs,2020.1.2,MacIntel,60,,,,,,,,,,,,,,1,5.708145,1,1,1,15,165,111,1,stimuli/stim_20210519_power2amp/equal_lnn_AM4Hz_s25_18.m4a,0.29381,,
,,,,,,,,,,,,37157,2021-05-25_08h07.55.662,judgeSpeechMusic_20210519_logNormShiftAmp_mXs,2020.1.2,MacIntel,60,,,,,,,,,,,,,,1,6.673375,,0,1,16,166,70,1,stimuli/stim_20210519_power2amp/equal_lnn_AM2.5Hz_s35_18.m4a,,,
,,,,,,,,,,,,37157,2021-05-25_08h07.55.662,judgeSpeechMusic_20210519_logNormShiftAmp_mXs,2020.1.2,MacIntel,60,,,,,,,,,,,,,,1,5.82511,,0,1,17,167,6,1,stimuli/stim_20210519_power2amp/equal_lnn_AM1Hz_s15_25.m4a,,,
,,,,,,,,,,,,37157,2021-05-25_08h07.55.662,judgeSpeechMusic_20210519_logNormShiftAmp_mXs,2020.1.2,MacIntel,60,,,,,,,,,,,,,,1,5.41756,,0,1,18,168,120,1,stimuli/stim_20210519_power2amp/equal_lnn_AM4Hz_s35_8.m4a,,,
,,,,,,,,,,,,37157,2021-05-25_08h07.55.662,judgeSpeechMusic_20210519_logNormShiftAmp_mXs,2020.1.2,MacIntel,60,,,,,,,,,,,,,,1,5.339475,,0,1,19,169,82,1,stimuli/stim_20210519_power2amp/equal_lnn_AM2.5Hz_s45_40.m4a,,,
,,,,,,,,,,,,37157,2021-05-25_08h07.55.662,judgeSpeechMusic_20210519_logNormShiftAmp_mXs,2020.1.2,MacIntel,60,,,,,,,,,,,,,,1,5.234065,,0,1,20,170,136,1,stimuli/stim_20210519_power2amp/equal_lnn_AM4Hz_s45_31.m4a,,,
,,,,,,,,,,,,37157,2021-05-25_08h07.55.662,judgeSpeechMusic_20210519_logNormShiftAmp_mXs,2020.1.2,MacIntel,60,,,,,,,,,,,,,,1,5.350885,,0,1,21,171,134,1,stimuli/stim_20210519_power2amp/equal_lnn_AM4Hz_s45_37.m4a,,,
,,,,,,,,,,,,37157,2021-05-25_08h07.55.662,judgeSpeechMusic_20210519_logNormShiftAmp_mXs,2020.1.2,MacIntel,60,,,,,,,,,,,,,,1,5.251075,,0,1,22,172,58,1,stimuli/stim_20210519_power2amp/equal_lnn_AM2.5Hz_s15_22.m4a,,,
,,,,,,,,,,,,37157,2021-05-25_08h07.55.662,judgeSpeechMusic_20210519_logNormShiftAmp_mXs,2020.1.2,MacIntel,60,,,,,,,,,,,,,,1,5.350745,,0,1,23,173,11,1,stimuli/stim_20210519_power2amp/equal_lnn_AM1Hz_s25_18.m4a,,,
,,,,,,,,,,,,37157,2021-05-25_08h07.55.662,judgeSpeechMusic_20210519_logNormShiftAmp_mXs,2020.1.2,MacIntel,60,,,,,,,,,,,,,,1,5.488335,,0,1,24,174,13,1,stimuli/stim_20210519_power2amp/equal_lnn_AM1Hz_s25_41.m4a,,,
,,,,,,,,,,,,37157,2021-05-25_08h07.55.662,judgeSpeechMusic_20210519_logNormShiftAmp_mXs,2020.1.2,MacIntel,60,,,,,,,,,,,,,,1,5.89719,,0,1,25,175,37,1,stimuli/stim_20210519_power2amp/equal_lnn_AM1Hz_s45_48.m4a,,,
,,,,,,,,,,,,37157,2021-05-25_08h07.55.662,judgeSpeechMusic_20210519_logNormShiftAmp_mXs,2020.1.2,MacIntel,60,,,,,,,,,,,,,,1,5.875075,,0,1,26,176,127,1,stimuli/stim_20210519_power2amp/equal_lnn_AM4Hz_s35_33.m4a,,,
,,,,,,,,,,,,37157,2021-05-25_08h07.55.662,judgeSpeechMusic_20210519_logNormShiftAmp_mXs,2020.1.2,MacIntel,60,,,,,,,,,,,,,,1,5.38639,,0,1,27,177,135,1,stimuli/stim_20210519_power2amp/equal_lnn_AM4Hz_s45_20.m4a,,,
,,,,,,,,,,,,37157,2021-05-25_08h07.55.662,judgeSpeechMusic_20210519_logNormShiftAmp_mXs,2020.1.2,MacIntel,60,,,,,,,,,,,,,,1,5.34365,,0,1,28,178,66,1,stimuli/stim_20210519_power2amp/equal_lnn_AM2.5Hz_s25_12.m4a,,,
,,,,,,,,,,,,37157,2021-05-25_08h07.55.662,judgeSpeechMusic_20210519_logNormShiftAmp_mXs,2020.1.2,MacIntel,60,,,,,,,,,,,,,,1,5.23419,,0,1,29,179,132,1,stimuli/stim_20210519_power2amp/equal_lnn_AM4Hz_s45_23.m4a,,,
,,,,,,,,,,,,37157,2021-05-25_08h07.55.662,judgeSpeechMusic_20210519_logNormShiftAmp_mXs,2020.1.2,MacIntel,60,,,,,,,,,,,,,,1,5.306435,,0,1,30,180,32,1,stimuli/stim_20210519_power2amp/equal_lnn_AM1Hz_s45_47.m4a,,,
,,,,,,,,,,,,37157,2021-05-25_08h07.55.662,judgeSpeechMusic_20210519_logNormShiftAmp_mXs,2020.1.2,MacIntel,60,,,,,,,,,,,,,,1,5.318975,,0,1,31,181,96,1,stimuli/stim_20210519_power2amp/equal_lnn_AM2.5Hz_s55_20.m4a,,,
,,,,,,,,,,,,37157,2021-05-25_08h07.55.662,judgeSpeechMusic_20210519_logNormShiftAmp_mXs,2020.1.2,MacIntel,60,,,,,,,,,,,,,,1,5.33268,,0,1,32,182,97,1,stimuli/stim_20210519_power2amp/equal_lnn_AM2.5Hz_s55_4.m4a,,,
,,,,,,,,,,,,37157,2021-05-25_08h07.55.662,judgeSpeechMusic_20210519_logNormShiftAmp_mXs,2020.1.2,MacIntel,60,,,,,,,,,,,,,,1,5.420005,,0,1,33,183,100,1,stimuli/stim_20210519_power2amp/equal_lnn_AM4Hz_s15_21.m4a,,,
,,,,,,,,,,,,37157,2021-05-25_08h07.55.662,judgeSpeechMusic_20210519_logNormShiftAmp_mXs,2020.1.2,MacIntel,60,,,,,,,,,,,,,,1,5.31636,,0,1,34,184,52,1,stimuli/stim_20210519_power2amp/equal_lnn_AM2.5Hz_s15_24.m4a,,,
,,,,,,,,,,,,37157,2021-05-25_08h07.55.662,judgeSpeechMusic_20210519_logNormShiftAmp_mXs,2020.1.2,MacIntel,60,,,,,,,,,,,,,,1,5.36684,,0,1,35,185,114,1,stimuli/stim_20210519_power2amp/equal_lnn_AM4Hz_s25_20.m4a,,,
,,,,,,,,,,,,37157,2021-05-25_08h07.55.662,judgeSpeechMusic_20210519_logNormShiftAmp_mXs,2020.1.2,MacIntel,60,,,,,,,,,,,,,,1,5.38831,,0,1,36,186,29,1,stimuli/stim_20210519_power2amp/equal_lnn_AM1Hz_s35_24.m4a,,,
,,,,,,,,,,,,37157,2021-05-25_08h07.55.662,judgeSpeechMusic_20210519_logNormShiftAmp_mXs,2020.1.2,MacIntel,60,,,,,,,,,,,,,,1,5.40735,4,1,1,37,187,63,1,stimuli/stim_20210519_power2amp/equal_lnn_AM2.5Hz_s25_7.m4a,0.228125,,
,,,,,,,,,,,,37157,2021-05-25_08h07.55.662,judgeSpeechMusic_20210519_logNormShiftAmp_mXs,2020.1.2,MacIntel,60,,,,,,,,,,,,,,1,5.334645,,0,1,38,188,89,1,stimuli/stim_20210519_power2amp/equal_lnn_AM2.5Hz_s45_16.m4a,,,
,,,,,,,,,,,,37157,2021-05-25_08h07.55.662,judgeSpeechMusic_20210519_logNormShiftAmp_mXs,2020.1.2,MacIntel,60,,,,,,,,,,,,,,1,5.558745,,0,1,39,189,16,1,stimuli/stim_20210519_power2amp/equal_lnn_AM1Hz_s25_10.m4a,,,
,,,,,,,,,,,,37157,2021-05-25_08h07.55.662,judgeSpeechMusic_20210519_logNormShiftAmp_mXs,2020.1.2,MacIntel,60,,,,,,,,,,,,,,1,5.235775,,0,1,40,190,10,1,stimuli/stim_20210519_power2amp/equal_lnn_AM1Hz_s25_29.m4a,,,
,,,,,,,,,,,,37157,2021-05-25_08h07.55.662,judgeSpeechMusic_20210519_logNormShiftAmp_mXs,2020.1.2,MacIntel,60,,,,,,,,,,,,,,1,5.38767,,0,1,41,191,109,1,stimuli/stim_20210519_power2amp/equal_lnn_AM4Hz_s15_6.m4a,,,
,,,,,,,,,,,,37157,2021-05-25_08h07.55.662,judgeSpeechMusic_20210519_logNormShiftAmp_mXs,2020.1.2,MacIntel,60,,,,,,,,,,,,,,1,5.341675,,0,1,42,192,112,1,stimuli/stim_20210519_power2amp/equal_lnn_AM4Hz_s25_48.m4a,,,
,,,,,,,,,,,,37157,2021-05-25_08h07.55.662,judgeSpeechMusic_20210519_logNormShiftAmp_mXs,2020.1.2,MacIntel,60,,,,,,,,,,,,,,1,5.559465,,0,1,43,193,42,1,stimuli/stim_20210519_power2amp/equal_lnn_AM1Hz_s55_12.m4a,,,
,,,,,,,,,,,,37157,2021-05-25_08h07.55.662,judgeSpeechMusic_20210519_logNormShiftAmp_mXs,2020.1.2,MacIntel,60,,,,,,,,,,,,,,1,5.342615,,0,1,44,194,142,1,stimuli/stim_20210519_power2amp/equal_lnn_AM4Hz_s55_15.m4a,,,
,,,,,,,,,,,,37157,2021-05-25_08h07.55.662,judgeSpeechMusic_20210519_logNormShiftAmp_mXs,2020.1.2,MacIntel,60,,,,,,,,,,,,,,1,5.37533,,0,1,45,195,92,1,stimuli/stim_20210519_power2amp/equal_lnn_AM2.5Hz_s55_41.m4a,,,
,,,,,,,,,,,,37157,2021-05-25_08h07.55.662,judgeSpeechMusic_20210519_logNormShiftAmp_mXs,2020.1.2,MacIntel,60,,,,,,,,,,,,,,1,5.24945,,0,1,46,196,145,1,stimuli/stim_20210519_power2amp/equal_lnn_AM4Hz_s55_14.m4a,,,
,,,,,,,,,,,,37157,2021-05-25_08h07.55.662,judgeSpeechMusic_20210519_logNormShiftAmp_mXs,2020.1.2,MacIntel,60,,,,,,,,,,,,,,1,5.299825,,0,1,47,197,105,1,stimuli/stim_20210519_power2amp/equal_lnn_AM4Hz_s15_9.m4a,,,
,,,,,,,,,,,,37157,2021-05-25_08h07.55.662,judgeSpeechMusic_20210519_logNormShiftAmp_mXs,2020.1.2,MacIntel,60,,,,,,,,,,,,,,1,5.37298,,0,1,48,198,103,1,stimuli/stim_20210519_power2amp/equal_lnn_AM4Hz_s15_8.m4a,,,
,,,,,,,,,,,,37157,2021-05-25_08h07.55.662,judgeSpeechMusic_20210519_logNormShiftAmp_mXs,2020.1.2,MacIntel,60,,,,,,,,,,,,,,1,5.426445,,0,1,49,199,30,1,stimuli/stim_20210519_power2amp/equal_lnn_AM1Hz_s45_38.m4a,,,
,,,,,,,,,,,,37157,2021-05-25_08h07.55.662,judgeSpeechMusic_20210519_logNormShiftAmp_mXs,2020.1.2,MacIntel,60,,,,,,,,,,,,,,1,5.40391,,0,1,50,200,140,1,stimuli/stim_20210519_power2amp/equal_lnn_AM4Hz_s55_22.m4a,,,
,,,,,,,,,,,,37157,2021-05-25_08h07.55.662,judgeSpeechMusic_20210519_logNormShiftAmp_mXs,2020.1.2,MacIntel,60,,,,,,,,,,,,,,1,5.3242,,0,1,51,201,94,1,stimuli/stim_20210519_power2amp/equal_lnn_AM2.5Hz_s55_31.m4a,,,
,,,,,,,,,,,,37157,2021-05-25_08h07.55.662,judgeSpeechMusic_20210519_logNormShiftAmp_mXs,2020.1.2,MacIntel,60,,,,,,,,,,,,,,1,5.40056,,0,1,52,202,88,1,stimuli/stim_20210519_power2amp/equal_lnn_AM2.5Hz_s45_42.m4a,,,
,,,,,,,,,,,,37157,2021-05-25_08h07.55.662,judgeSpeechMusic_20210519_logNormShiftAmp_mXs,2020.1.2,MacIntel,60,,,,,,,,,,,,,,1,5.64963,,0,1,53,203,133,1,stimuli/stim_20210519_power2amp/equal_lnn_AM4Hz_s45_44.m4a,,,
,,,,,,,,,,,,37157,2021-05-25_08h07.55.662,judgeSpeechMusic_20210519_logNormShiftAmp_mXs,2020.1.2,MacIntel,60,,,,,,,,,,,,,,1,5.382455,,0,1,54,204,147,1,stimuli/stim_20210519_power2amp/equal_lnn_AM4Hz_s55_16.m4a,,,
,,,,,,,,,,,,37157,2021-05-25_08h07.55.662,judgeSpeechMusic_20210519_logNormShiftAmp_mXs,2020.1.2,MacIntel,60,,,,,,,,,,,,,,1,5.440625,,0,1,55,205,17,1,stimuli/stim_20210519_power2amp/equal_lnn_AM1Hz_s25_50.m4a,,,
,,,,,,,,,,,,37157,2021-05-25_08h07.55.662,judgeSpeechMusic_20210519_logNormShiftAmp_mXs,2020.1.2,MacIntel,60,,,,,,,,,,,,,,1,5.573115,,0,1,56,206,143,1,stimuli/stim_20210519_power2amp/equal_lnn_AM4Hz_s55_24.m4a,,,
,,,,,,,,,,,,37157,2021-05-25_08h07.55.662,judgeSpeechMusic_20210519_logNormShiftAmp_mXs,2020.1.2,MacIntel,60,,,,,,,,,,,,,,1,5.29014,,0,1,57,207,46,1,stimuli/stim_20210519_power2amp/equal_lnn_AM1Hz_s55_42.m4a,,,
,,,,,,,,,,,,37157,2021-05-25_08h07.55.662,judgeSpeechMusic_20210519_logNormShiftAmp_mXs,2020.1.2,MacIntel,60,,,,,,,,,,,,,,1,5.444045,4,1,1,58,208,1,1,stimuli/stim_20210519_power2amp/equal_lnn_AM1Hz_s15_26.m4a,0.078255,,
,,,,,,,,,,,,37157,2021-05-25_08h07.55.662,judgeSpeechMusic_20210519_logNormShiftAmp_mXs,2020.1.2,MacIntel,60,,,,,,,,,,,,,,1,6.141925,,0,1,59,209,137,1,stimuli/stim_20210519_power2amp/equal_lnn_AM4Hz_s45_45.m4a,,,
,,,,,,,,,,,,37157,2021-05-25_08h07.55.662,judgeSpeechMusic_20210519_logNormShiftAmp_mXs,2020.1.2,MacIntel,60,,,,,,,,,,,,,,1,5.278055,,0,1,60,210,104,1,stimuli/stim_20210519_power2amp/equal_lnn_AM4Hz_s15_14.m4a,,,
,,,,,,,,,,,,37157,2021-05-25_08h07.55.662,judgeSpeechMusic_20210519_logNormShiftAmp_mXs,2020.1.2,MacIntel,60,,,,,,,,,,,,,,1,5.437265,,0,1,61,211,123,1,stimuli/stim_20210519_power2amp/equal_lnn_AM4Hz_s35_9.m4a,,,
,,,,,,,,,,,,37157,2021-05-25_08h07.55.662,judgeSpeechMusic_20210519_logNormShiftAmp_mXs,2020.1.2,MacIntel,60,,,,,,,,,,,,,,1,5.36768,,0,1,62,212,40,1,stimuli/stim_20210519_power2amp/equal_lnn_AM1Hz_s55_34.m4a,,,
,,,,,,,,,,,,37157,2021-05-25_08h07.55.662,judgeSpeechMusic_20210519_logNormShiftAmp_mXs,2020.1.2,MacIntel,60,,,,,,,,,,,,,,1,5.322295,,0,1,63,213,69,1,stimuli/stim_20210519_power2amp/equal_lnn_AM2.5Hz_s25_47.m4a,,,
,,,,,,,,,,,,37157,2021-05-25_08h07.55.662,judgeSpeechMusic_20210519_logNormShiftAmp_mXs,2020.1.2,MacIntel,60,,,,,,,,,,,,,,1,5.570365,,0,1,64,214,85,1,stimuli/stim_20210519_power2amp/equal_lnn_AM2.5Hz_s45_22.m4a,,,
,,,,,,,,,,,,37157,2021-05-25_08h07.55.662,judgeSpeechMusic_20210519_logNormShiftAmp_mXs,2020.1.2,MacIntel,60,,,,,,,,,,,,,,1,5.32677,,0,1,65,215,124,1,stimuli/stim_20210519_power2amp/equal_lnn_AM4Hz_s35_27.m4a,,,
,,,,,,,,,,,,37157,2021-05-25_08h07.55.662,judgeSpeechMusic_20210519_logNormShiftAmp_mXs,2020.1.2,MacIntel,60,,,,,,,,,,,,,,1,5.383765,,0,1,66,216,73,1,stimuli/stim_20210519_power2amp/equal_lnn_AM2.5Hz_s35_13.m4a,,,
,,,,,,,,,,,,37157,2021-05-25_08h07.55.662,judgeSpeechMusic_20210519_logNormShiftAmp_mXs,2020.1.2,MacIntel,60,,,,,,,,,,,,,,1,5.219425,,0,1,67,217,56,1,stimuli/stim_20210519_power2amp/equal_lnn_AM2.5Hz_s15_37.m4a,,,
,,,,,,,,,,,,37157,2021-05-25_08h07.55.662,judgeSpeechMusic_20210519_logNormShiftAmp_mXs,2020.1.2,MacIntel,60,,,,,,,,,,,,,,1,5.26751,,0,1,68,218,39,1,stimuli/stim_20210519_power2amp/equal_lnn_AM1Hz_s45_20.m4a,,,
,,,,,,,,,,,,37157,2021-05-25_08h07.55.662,judgeSpeechMusic_20210519_logNormShiftAmp_mXs,2020.1.2,MacIntel,60,,,,,,,,,,,,,,1,5.371995,,0,1,69,219,38,1,stimuli/stim_20210519_power2amp/equal_lnn_AM1Hz_s45_22.m4a,,,
,,,,,,,,,,,,37157,2021-05-25_08h07.55.662,judgeSpeechMusic_20210519_logNormShiftAmp_mXs,2020.1.2,MacIntel,60,,,,,,,,,,,,,,1,5.238565,,0,1,70,220,28,1,stimuli/stim_20210519_power2amp/equal_lnn_AM1Hz_s35_34.m4a,,,
,,,,,,,,,,,,37157,2021-05-25_08h07.55.662,judgeSpeechMusic_20210519_logNormShiftAmp_mXs,2020.1.2,MacIntel,60,,,,,,,,,,,,,,1,5.3153,,0,1,71,221,101,1,stimuli/stim_20210519_power2amp/equal_lnn_AM4Hz_s15_43.m4a,,,
,,,,,,,,,,,,37157,2021-05-25_08h07.55.662,judgeSpeechMusic_20210519_logNormShiftAmp_mXs,2020.1.2,MacIntel,60,,,,,,,,,,,,,,1,5.401075,,0,1,72,222,118,1,stimuli/stim_20210519_power2amp/equal_lnn_AM4Hz_s25_17.m4a,,,
,,,,,,,,,,,,37157,2021-05-25_08h07.55.662,judgeSpeechMusic_20210519_logNormShiftAmp_mXs,2020.1.2,MacIntel,60,,,,,,,,,,,,,,1,5.227605,,0,1,73,223,79,1,stimuli/stim_20210519_power2amp/equal_lnn_AM2.5Hz_s35_46.m4a,,,
,,,,,,,,,,,,37157,2021-05-25_08h07.55.662,judgeSpeechMusic_20210519_logNormShiftAmp_mXs,2020.1.2,MacIntel,60,,,,,,,,,,,,,,1,5.232105,,0,1,74,224,130,1,stimuli/stim_20210519_power2amp/equal_lnn_AM4Hz_s45_26.m4a,,,
,,,,,,,,,,,,37157,2021-05-25_08h07.55.662,judgeSpeechMusic_20210519_logNormShiftAmp_mXs,2020.1.2,MacIntel,60,,,,,,,,,,,,,,1,5.40809,,0,1,75,225,23,1,stimuli/stim_20210519_power2amp/equal_lnn_AM1Hz_s35_48.m4a,,,
,,,,,,,,,,,,37157,2021-05-25_08h07.55.662,judgeSpeechMusic_20210519_logNormShiftAmp_mXs,2020.1.2,MacIntel,60,,,,,,,,,,,,,,1,5.25242,,0,1,76,226,72,1,stimuli/stim_20210519_power2amp/equal_lnn_AM2.5Hz_s35_1.m4a,,,
,,,,,,,,,,,,37157,2021-05-25_08h07.55.662,judgeSpeechMusic_20210519_logNormShiftAmp_mXs,2020.1.2,MacIntel,60,,,,,,,,,,,,,,1,5.3661,,0,1,77,227,49,1,stimuli/stim_20210519_power2amp/equal_lnn_AM1Hz_s55_7.m4a,,,
,,,,,,,,,,,,37157,2021-05-25_08h07.55.662,judgeSpeechMusic_20210519_logNormShiftAmp_mXs,2020.1.2,MacIntel,60,,,,,,,,,,,,,,1,5.351115,,0,1,78,228,74,1,stimuli/stim_20210519_power2amp/equal_lnn_AM2.5Hz_s35_25.m4a,,,
,,,,,,,,,,,,37157,2021-05-25_08h07.55.662,judgeSpeechMusic_20210519_logNormShiftAmp_mXs,2020.1.2,MacIntel,60,,,,,,,,,,,,,,1,5.34116,,0,1,79,229,148,1,stimuli/stim_20210519_power2amp/equal_lnn_AM4Hz_s55_42.m4a,,,
,,,,,,,,,,,,37157,2021-05-25_08h07.55.662,judgeSpeechMusic_20210519_logNormShiftAmp_mXs,2020.1.2,MacIntel,60,,,,,,,,,,,,,,1,5.368885,,0,1,80,230,128,1,stimuli/stim_20210519_power2amp/equal_lnn_AM4Hz_s35_24.m4a,,,
,,,,,,,,,,,,37157,2021-05-25_08h07.55.662,judgeSpeechMusic_20210519_logNormShiftAmp_mXs,2020.1.2,MacIntel,60,,,,,,,,,,,,,,1,5.384745,,0,1,81,231,87,1,stimuli/stim_20210519_power2amp/equal_lnn_AM2.5Hz_s45_49.m4a,,,
,,,,,,,,,,,,37157,2021-05-25_08h07.55.662,judgeSpeechMusic_20210519_logNormShiftAmp_mXs,2020.1.2,MacIntel,60,,,,,,,,,,,,,,1,5.485275,,0,1,82,232,107,1,stimuli/stim_20210519_power2amp/equal_lnn_AM4Hz_s15_28.m4a,,,
,,,,,,,,,,,,37157,2021-05-25_08h07.55.662,judgeSpeechMusic_20210519_logNormShiftAmp_mXs,2020.1.2,MacIntel,60,,,,,,,,,,,,,,1,5.302675,3,0,1,83,233,50,1,stimuli/stim_20210519_power2amp/equal_lnn_AM2.5Hz_s15_46.m4a,0.338765,,
,,,,,,,,,,,,37157,2021-05-25_08h07.55.662,judgeSpeechMusic_20210519_logNormShiftAmp_mXs,2020.1.2,MacIntel,60,,,,,,,,,,,,,,1,5.268365,,0,1,84,234,75,1,stimuli/stim_20210519_power2amp/equal_lnn_AM2.5Hz_s35_3.m4a,,,
,,,,,,,,,,,,37157,2021-05-25_08h07.55.662,judgeSpeechMusic_20210519_logNormShiftAmp_mXs,2020.1.2,MacIntel,60,,,,,,,,,,,,,,1,5.45819,,0,1,85,235,27,1,stimuli/stim_20210519_power2amp/equal_lnn_AM1Hz_s35_43.m4a,,,
,,,,,,,,,,,,37157,2021-05-25_08h07.55.662,judgeSpeechMusic_20210519_logNormShiftAmp_mXs,2020.1.2,MacIntel,60,,,,,,,,,,,,,,1,5.3502,,0,1,86,236,18,1,stimuli/stim_20210519_power2amp/equal_lnn_AM1Hz_s25_46.m4a,,,
,,,,,,,,,,,,37157,2021-05-25_08h07.55.662,judgeSpeechMusic_20210519_logNormShiftAmp_mXs,2020.1.2,MacIntel,60,,,,,,,,,,,,,,1,5.316765,,0,1,87,237,33,1,stimuli/stim_20210519_power2amp/equal_lnn_AM1Hz_s45_4.m4a,,,
,,,,,,,,,,,,37157,2021-05-25_08h07.55.662,judgeSpeechMusic_20210519_logNormShiftAmp_mXs,2020.1.2,MacIntel,60,,,,,,,,,,,,,,1,5.53802,,0,1,88,238,47,1,stimuli/stim_20210519_power2amp/equal_lnn_AM1Hz_s55_29.m4a,,,
,,,,,,,,,,,,37157,2021-05-25_08h07.55.662,judgeSpeechMusic_20210519_logNormShiftAmp_mXs,2020.1.2,MacIntel,60,,,,,,,,,,,,,,1,5.225185,,0,1,89,239,20,1,stimuli/stim_20210519_power2amp/equal_lnn_AM1Hz_s35_17.m4a,,,
,,,,,,,,,,,,37157,2021-05-25_08h07.55.662,judgeSpeechMusic_20210519_logNormShiftAmp_mXs,2020.1.2,MacIntel,60,,,,,,,,,,,,,,1,5.26852,,0,1,90,240,59,1,stimuli/stim_20210519_power2amp/equal_lnn_AM2.5Hz_s15_39.m4a,,,
,,,,,,,,,,,,37157,2021-05-25_08h07.55.662,judgeSpeechMusic_20210519_logNormShiftAmp_mXs,2020.1.2,MacIntel,60,,,,,,,,,,,,,,1,5.31943,,0,1,91,241,102,1,stimuli/stim_20210519_power2amp/equal_lnn_AM4Hz_s15_42.m4a,,,
,,,,,,,,,,,,37157,2021-05-25_08h07.55.662,judgeSpeechMusic_20210519_logNormShiftAmp_mXs,2020.1.2,MacIntel,60,,,,,,,,,,,,,,1,5.384215,,0,1,92,242,144,1,stimuli/stim_20210519_power2amp/equal_lnn_AM4Hz_s55_19.m4a,,,
,,,,,,,,,,,,37157,2021-05-25_08h07.55.662,judgeSpeechMusic_20210519_logNormShiftAmp_mXs,2020.1.2,MacIntel,60,,,,,,,,,,,,,,1,5.424505,,0,1,93,243,116,1,stimuli/stim_20210519_power2amp/equal_lnn_AM4Hz_s25_45.m4a,,,
,,,,,,,,,,,,37157,2021-05-25_08h07.55.662,judgeSpeechMusic_20210519_logNormShiftAmp_mXs,2020.1.2,MacIntel,60,,,,,,,,,,,,,,1,5.25023,,0,1,94,244,14,1,stimuli/stim_20210519_power2amp/equal_lnn_AM1Hz_s25_33.m4a,,,
,,,,,,,,,,,,37157,2021-05-25_08h07.55.662,judgeSpeechMusic_20210519_logNormShiftAmp_mXs,2020.1.2,MacIntel,60,,,,,,,,,,,,,,1,5.28652,,0,1,95,245,2,1,stimuli/stim_20210519_power2amp/equal_lnn_AM1Hz_s15_21.m4a,,,
,,,,,,,,,,,,37157,2021-05-25_08h07.55.662,judgeSpeechMusic_20210519_logNormShiftAmp_mXs,2020.1.2,MacIntel,60,,,,,,,,,,,,,,1,5.303605,,0,1,96,246,91,1,stimuli/stim_20210519_power2amp/equal_lnn_AM2.5Hz_s55_36.m4a,,,
,,,,,,,,,,,,37157,2021-05-25_08h07.55.662,judgeSpeechMusic_20210519_logNormShiftAmp_mXs,2020.1.2,MacIntel,60,,,,,,,,,,,,,,1,5.22056,,0,1,97,247,44,1,stimuli/stim_20210519_power2amp/equal_lnn_AM1Hz_s55_8.m4a,,,
,,,,,,,,,,,,37157,2021-05-25_08h07.55.662,judgeSpeechMusic_20210519_logNormShiftAmp_mXs,2020.1.2,MacIntel,60,,,,,,,,,,,,,,1,5.24988,,0,1,98,248,121,1,stimuli/stim_20210519_power2amp/equal_lnn_AM4Hz_s35_47.m4a,,,
,,,,,,,,,,,,37157,2021-05-25_08h07.55.662,judgeSpeechMusic_20210519_logNormShiftAmp_mXs,2020.1.2,MacIntel,60,,,,,,,,,,,,,,1,5.26673,,0,1,99,249,139,1,stimuli/stim_20210519_power2amp/equal_lnn_AM4Hz_s45_34.m4a,,,
,,,,,,,,,,,,37157,2021-05-25_08h07.55.662,judgeSpeechMusic_20210519_logNormShiftAmp_mXs,2020.1.2,MacIntel,60,,,,,,,,,,,,,,1,5.268825,,0,1,100,250,0,1,stimuli/stim_20210519_power2amp/equal_lnn_AM1Hz_s15_35.m4a,,,
,,,,,,,,,,,,37157,2021-05-25_08h07.55.662,judgeSpeechMusic_20210519_logNormShiftAmp_mXs,2020.1.2,MacIntel,60,,,,,,,,,,,,,,1,5.418,,0,1,101,251,106,1,stimuli/stim_20210519_power2amp/equal_lnn_AM4Hz_s15_35.m4a,,,
,,,,,,,,,,,,37157,2021-05-25_08h07.55.662,judgeSpeechMusic_20210519_logNormShiftAmp_mXs,2020.1.2,MacIntel,60,,,,,,,,,,,,,,1,5.40233,,0,1,102,252,43,1,stimuli/stim_20210519_power2amp/equal_lnn_AM1Hz_s55_46.m4a,,,
,,,,,,,,,,,,37157,2021-05-25_08h07.55.662,judgeSpeechMusic_20210519_logNormShiftAmp_mXs,2020.1.2,MacIntel,60,,,,,,,,,,,,,,1,5.37478,1,1,1,103,253,22,1,stimuli/stim_20210519_power2amp/equal_lnn_AM1Hz_s35_10.m4a,0.015505,,
,,,,,,,,,,,,37157,2021-05-25_08h07.55.662,judgeSpeechMusic_20210519_logNormShiftAmp_mXs,2020.1.2,MacIntel,60,,,,,,,,,,,,,,1,5.21716,,0,1,104,254,54,1,stimuli/stim_20210519_power2amp/equal_lnn_AM2.5Hz_s15_3.m4a,,,
,,,,,,,,,,,,37157,2021-05-25_08h07.55.662,judgeSpeechMusic_20210519_logNormShiftAmp_mXs,2020.1.2,MacIntel,60,,,,,,,,,,,,,,1,5.26651,,0,1,105,255,8,1,stimuli/stim_20210519_power2amp/equal_lnn_AM1Hz_s15_18.m4a,,,
,,,,,,,,,,,,37157,2021-05-25_08h07.55.662,judgeSpeechMusic_20210519_logNormShiftAmp_mXs,2020.1.2,MacIntel,60,,,,,,,,,,,,,,1,5.267405,,0,1,106,256,31,1,stimuli/stim_20210519_power2amp/equal_lnn_AM1Hz_s45_18.m4a,,,
,,,,,,,,,,,,37157,2021-05-25_08h07.55.662,judgeSpeechMusic_20210519_logNormShiftAmp_mXs,2020.1.2,MacIntel,60,,,,,,,,,,,,,,1,5.272765,,0,1,107,257,53,1,stimuli/stim_20210519_power2amp/equal_lnn_AM2.5Hz_s15_21.m4a,,,
,,,,,,,,,,,,37157,2021-05-25_08h07.55.662,judgeSpeechMusic_20210519_logNormShiftAmp_mXs,2020.1.2,MacIntel,60,,,,,,,,,,,,,,1,5.353195,,0,1,108,258,86,1,stimuli/stim_20210519_power2amp/equal_lnn_AM2.5Hz_s45_26.m4a,,,
,,,,,,,,,,,,37157,2021-05-25_08h07.55.662,judgeSpeechMusic_20210519_logNormShiftAmp_mXs,2020.1.2,MacIntel,60,,,,,,,,,,,,,,1,5.334055,,0,1,109,259,19,1,stimuli/stim_20210519_power2amp/equal_lnn_AM1Hz_s25_28.m4a,,,
,,,,,,,,,,,,37157,2021-05-25_08h07.55.662,judgeSpeechMusic_20210519_logNormShiftAmp_mXs,2020.1.2,MacIntel,60,,,,,,,,,,,,,,1,5.25796,,0,1,110,260,126,1,stimuli/stim_20210519_power2amp/equal_lnn_AM4Hz_s35_17.m4a,,,
,,,,,,,,,,,,37157,2021-05-25_08h07.55.662,judgeSpeechMusic_20210519_logNormShiftAmp_mXs,2020.1.2,MacIntel,60,,,,,,,,,,,,,,1,5.41975,,0,1,111,261,51,1,stimuli/stim_20210519_power2amp/equal_lnn_AM2.5Hz_s15_43.m4a,,,
,,,,,,,,,,,,37157,2021-05-25_08h07.55.662,judgeSpeechMusic_20210519_logNormShiftAmp_mXs,2020.1.2,MacIntel,60,,,,,,,,,,,,,,1,5.359305,,0,1,112,262,12,1,stimuli/stim_20210519_power2amp/equal_lnn_AM1Hz_s25_30.m4a,,,
,,,,,,,,,,,,37157,2021-05-25_08h07.55.662,judgeSpeechMusic_20210519_logNormShiftAmp_mXs,2020.1.2,MacIntel,60,,,,,,,,,,,,,,1,5.270475,,0,1,113,263,41,1,stimuli/stim_20210519_power2amp/equal_lnn_AM1Hz_s55_39.m4a,,,
,,,,,,,,,,,,37157,2021-05-25_08h07.55.662,judgeSpeechMusic_20210519_logNormShiftAmp_mXs,2020.1.2,MacIntel,60,,,,,,,,,,,,,,1,5.301015,,0,1,114,264,149,1,stimuli/stim_20210519_power2amp/equal_lnn_AM4Hz_s55_4.m4a,,,
,,,,,,,,,,,,37157,2021-05-25_08h07.55.662,judgeSpeechMusic_20210519_logNormShiftAmp_mXs,2020.1.2,MacIntel,60,,,,,,,,,,,,,,1,5.49098,,0,1,115,265,71,1,stimuli/stim_20210519_power2amp/equal_lnn_AM2.5Hz_s35_9.m4a,,,
,,,,,,,,,,,,37157,2021-05-25_08h07.55.662,judgeSpeechMusic_20210519_logNormShiftAmp_mXs,2020.1.2,MacIntel,60,,,,,,,,,,,,,,1,5.3005,,0,1,116,266,122,1,stimuli/stim_20210519_power2amp/equal_lnn_AM4Hz_s35_48.m4a,,,
,,,,,,,,,,,,37157,2021-05-25_08h07.55.662,judgeSpeechMusic_20210519_logNormShiftAmp_mXs,2020.1.2,MacIntel,60,,,,,,,,,,,,,,1,5.316085,,0,1,117,267,25,1,stimuli/stim_20210519_power2amp/equal_lnn_AM1Hz_s35_33.m4a,,,
,,,,,,,,,,,,37157,2021-05-25_08h07.55.662,judgeSpeechMusic_20210519_logNormShiftAmp_mXs,2020.1.2,MacIntel,60,,,,,,,,,,,,,,1,5.38771,,0,1,118,268,34,1,stimuli/stim_20210519_power2amp/equal_lnn_AM1Hz_s45_44.m4a,,,
,,,,,,,,,,,,37157,2021-05-25_08h07.55.662,judgeSpeechMusic_20210519_logNormShiftAmp_mXs,2020.1.2,MacIntel,60,,,,,,,,,,,,,,1,5.591595,,0,1,119,269,129,1,stimuli/stim_20210519_power2amp/equal_lnn_AM4Hz_s35_19.m4a,,,
,,,,,,,,,,,,37157,2021-05-25_08h07.55.662,judgeSpeechMusic_20210519_logNormShiftAmp_mXs,2020.1.2,MacIntel,60,,,,,,,,,,,,,,1,5.252705,,0,1,120,270,84,1,stimuli/stim_20210519_power2amp/equal_lnn_AM2.5Hz_s45_21.m4a,,,
,,,,,,,,,,,,37157,2021-05-25_08h07.55.662,judgeSpeechMusic_20210519_logNormShiftAmp_mXs,2020.1.2,MacIntel,60,,,,,,,,,,,,,,1,5.46665,,0,1,121,271,98,1,stimuli/stim_20210519_power2amp/equal_lnn_AM2.5Hz_s55_2.m4a,,,
,,,,,,,,,,,,37157,2021-05-25_08h07.55.662,judgeSpeechMusic_20210519_logNormShiftAmp_mXs,2020.1.2,MacIntel,60,,,,,,,,,,,,,,1,5.36167,,0,1,122,272,62,1,stimuli/stim_20210519_power2amp/equal_lnn_AM2.5Hz_s25_19.m4a,,,
,,,,,,,,,,,,37157,2021-05-25_08h07.55.662,judgeSpeechMusic_20210519_logNormShiftAmp_mXs,2020.1.2,MacIntel,60,,,,,,,,,,,,,,1,5.226215,,0,1,123,273,80,1,stimuli/stim_20210519_power2amp/equal_lnn_AM2.5Hz_s45_28.m4a,,,
,,,,,,,,,,,,37157,2021-05-25_08h07.55.662,judgeSpeechMusic_20210519_logNormShiftAmp_mXs,2020.1.2,MacIntel,60,,,,,,,,,,,,,,1,5.436595,,0,1,124,274,61,1,stimuli/stim_20210519_power2amp/equal_lnn_AM2.5Hz_s25_27.m4a,,,
,,,,,,,,,,,,37157,2021-05-25_08h07.55.662,judgeSpeechMusic_20210519_logNormShiftAmp_mXs,2020.1.2,MacIntel,60,,,,,,,,,,,,,,1,5.268065,2,0,1,125,275,93,1,stimuli/stim_20210519_power2amp/equal_lnn_AM2.5Hz_s55_33.m4a,0.49667,,
,,,,,,,,,,,,37157,2021-05-25_08h07.55.662,judgeSpeechMusic_20210519_logNormShiftAmp_mXs,2020.1.2,MacIntel,60,,,,,,,,,,,,,,1,5.266445,,0,1,126,276,24,1,stimuli/stim_20210519_power2amp/equal_lnn_AM1Hz_s35_16.m4a,,,
,,,,,,,,,,,,37157,2021-05-25_08h07.55.662,judgeSpeechMusic_20210519_logNormShiftAmp_mXs,2020.1.2,MacIntel,60,,,,,,,,,,,,,,1,5.233815,,0,1,127,277,113,1,stimuli/stim_20210519_power2amp/equal_lnn_AM4Hz_s25_42.m4a,,,
,,,,,,,,,,,,37157,2021-05-25_08h07.55.662,judgeSpeechMusic_20210519_logNormShiftAmp_mXs,2020.1.2,MacIntel,60,,,,,,,,,,,,,,1,5.316295,,0,1,128,278,45,1,stimuli/stim_20210519_power2amp/equal_lnn_AM1Hz_s55_10.m4a,,,
,,,,,,,,,,,,37157,2021-05-25_08h07.55.662,judgeSpeechMusic_20210519_logNormShiftAmp_mXs,2020.1.2,MacIntel,60,,,,,,,,,,,,,,1,5.6793,,0,1,129,279,131,1,stimuli/stim_20210519_power2amp/equal_lnn_AM4Hz_s45_42.m4a,,,
,,,,,,,,,,,,37157,2021-05-25_08h07.55.662,judgeSpeechMusic_20210519_logNormShiftAmp_mXs,2020.1.2,MacIntel,60,,,,,,,,,,,,,,1,5.56198,,0,1,130,280,7,1,stimuli/stim_20210519_power2amp/equal_lnn_AM1Hz_s15_38.m4a,,,
,,,,,,,,,,,,37157,2021-05-25_08h07.55.662,judgeSpeechMusic_20210519_logNormShiftAmp_mXs,2020.1.2,MacIntel,60,,,,,,,,,,,,,,1,5.487895,,0,1,131,281,95,1,stimuli/stim_20210519_power2amp/equal_lnn_AM2.5Hz_s55_17.m4a,,,
,,,,,,,,,,,,37157,2021-05-25_08h07.55.662,judgeSpeechMusic_20210519_logNormShiftAmp_mXs,2020.1.2,MacIntel,60,,,,,,,,,,,,,,1,5.69174,,0,1,132,282,115,1,stimuli/stim_20210519_power2amp/equal_lnn_AM4Hz_s25_34.m4a,,,
,,,,,,,,,,,,37157,2021-05-25_08h07.55.662,judgeSpeechMusic_20210519_logNormShiftAmp_mXs,2020.1.2,MacIntel,60,,,,,,,,,,,,,,1,5.786965,,0,1,133,283,60,1,stimuli/stim_20210519_power2amp/equal_lnn_AM2.5Hz_s25_17.m4a,,,
,,,,,,,,,,,,37157,2021-05-25_08h07.55.662,judgeSpeechMusic_20210519_logNormShiftAmp_mXs,2020.1.2,MacIntel,60,,,,,,,,,,,,,,1,5.34151,,0,1,134,284,5,1,stimuli/stim_20210519_power2amp/equal_lnn_AM1Hz_s15_4.m4a,,,
,,,,,,,,,,,,37157,2021-05-25_08h07.55.662,judgeSpeechMusic_20210519_logNormShiftAmp_mXs,2020.1.2,MacIntel,60,,,,,,,,,,,,,,1,5.64963,,0,1,135,285,55,1,stimuli/stim_20210519_power2amp/equal_lnn_AM2.5Hz_s15_49.m4a,,,
,,,,,,,,,,,,37157,2021-05-25_08h07.55.662,judgeSpeechMusic_20210519_logNormShiftAmp_mXs,2020.1.2,MacIntel,60,,,,,,,,,,,,,,1,5.286525,,0,1,136,286,48,1,stimuli/stim_20210519_power2amp/equal_lnn_AM1Hz_s55_24.m4a,,,
,,,,,,,,,,,,37157,2021-05-25_08h07.55.662,judgeSpeechMusic_20210519_logNormShiftAmp_mXs,2020.1.2,MacIntel,60,,,,,,,,,,,,,,1,5.28851,,0,1,137,287,90,1,stimuli/stim_20210519_power2amp/equal_lnn_AM2.5Hz_s55_3.m4a,,,
,,,,,,,,,,,,37157,2021-05-25_08h07.55.662,judgeSpeechMusic_20210519_logNormShiftAmp_mXs,2020.1.2,MacIntel,60,,,,,,,,,,,,,,1,5.351925,,0,1,138,288,67,1,stimuli/stim_20210519_power2amp/equal_lnn_AM2.5Hz_s25_38.m4a,,,
,,,,,,,,,,,,37157,2021-05-25_08h07.55.662,judgeSpeechMusic_20210519_logNormShiftAmp_mXs,2020.1.2,MacIntel,60,,,,,,,,,,,,,,1,5.38681,,0,1,139,289,110,1,stimuli/stim_20210519_power2amp/equal_lnn_AM4Hz_s25_10.m4a,,,
,,,,,,,,,,,,37157,2021-05-25_08h07.55.662,judgeSpeechMusic_20210519_logNormShiftAmp_mXs,2020.1.2,MacIntel,60,,,,,,,,,,,,,,1,5.28433,,0,1,140,290,57,1,stimuli/stim_20210519_power2amp/equal_lnn_AM2.5Hz_s15_14.m4a,,,
,,,,,,,,,,,,37157,2021-05-25_08h07.55.662,judgeSpeechMusic_20210519_logNormShiftAmp_mXs,2020.1.2,MacIntel,60,,,,,,,,,,,,,,1,5.35009,,0,1,141,291,21,1,stimuli/stim_20210519_power2amp/equal_lnn_AM1Hz_s35_41.m4a,,,
,,,,,,,,,,,,37157,2021-05-25_08h07.55.662,judgeSpeechMusic_20210519_logNormShiftAmp_mXs,2020.1.2,MacIntel,60,,,,,,,,,,,,,,1,5.51088,,0,1,142,292,26,1,stimuli/stim_20210519_power2amp/equal_lnn_AM1Hz_s35_29.m4a,,,
,,,,,,,,,,,,37157,2021-05-25_08h07.55.662,judgeSpeechMusic_20210519_logNormShiftAmp_mXs,2020.1.2,MacIntel,60,,,,,,,,,,,,,,1,5.352485,,0,1,143,293,3,1,stimuli/stim_20210519_power2amp/equal_lnn_AM1Hz_s15_27.m4a,,,
,,,,,,,,,,,,37157,2021-05-25_08h07.55.662,judgeSpeechMusic_20210519_logNormShiftAmp_mXs,2020.1.2,MacIntel,60,,,,,,,,,,,,,,1,5.249765,,0,1,144,294,99,1,stimuli/stim_20210519_power2amp/equal_lnn_AM2.5Hz_s55_22.m4a,,,
,,,,,,,,,,,,37157,2021-05-25_08h07.55.662,judgeSpeechMusic_20210519_logNormShiftAmp_mXs,2020.1.2,MacIntel,60,,,,,,,,,,,,,,1,5.317235,,0,1,145,295,64,1,stimuli/stim_20210519_power2amp/equal_lnn_AM2.5Hz_s25_40.m4a,,,
,,,,,,,,,,,,37157,2021-05-25_08h07.55.662,judgeSpeechMusic_20210519_logNormShiftAmp_mXs,2020.1.2,MacIntel,60,,,,,,,,,,,,,,1,5.26717,,0,1,146,296,76,1,stimuli/stim_20210519_power2amp/equal_lnn_AM2.5Hz_s35_31.m4a,,,
,,,,,,,,,,,,37157,2021-05-25_08h07.55.662,judgeSpeechMusic_20210519_logNormShiftAmp_mXs,2020.1.2,MacIntel,60,,,,,,,,,,,,,,1,5.600735,,0,1,147,297,15,1,stimuli/stim_20210519_power2amp/equal_lnn_AM1Hz_s25_2.m4a,,,
,,,,,,,,,,,,37157,2021-05-25_08h07.55.662,judgeSpeechMusic_20210519_logNormShiftAmp_mXs,2020.1.2,MacIntel,60,,,,,,,,,,,,,,1,5.31836,,0,1,148,298,78,1,stimuli/stim_20210519_power2amp/equal_lnn_AM2.5Hz_s35_27.m4a,,,
,,,,,,,,,,,,37157,2021-05-25_08h07.55.662,judgeSpeechMusic_20210519_logNormShiftAmp_mXs,2020.1.2,MacIntel,60,,,,,,,,,,,,,,1,5.324725,,0,1,149,299,141,1,stimuli/stim_20210519_power2amp/equal_lnn_AM4Hz_s55_36.m4a,,,
,,,,,,,,,,,,37157,2021-05-25_08h07.55.662,judgeSpeechMusic_20210519_logNormShiftAmp_mXs,2020.1.2,MacIntel,60,,,,,,,,,,,,,,,,,,,,,,,,,space,3.880895
