headphoneResponse.keys,headphoneResponse.corr,headphoneResponse.rt,headphoneTrial.thisRepN,headphoneTrial.thisTrialN,headphoneTrial.thisN,headphoneTrial.thisIndex,headphoneTrial.ran,headphone_sound1,headphone_sound2,headphone_sound3,corrAns,participant,date,expName,psychopyVersion,OS,frameRate,trainSlider.response,trainSlider.rt,beepTrainResponse.keys,beepTrainResponse.corr,trainingTrials.thisRepN,trainingTrials.thisTrialN,trainingTrials.thisN,trainingTrials.thisIndex,trainingTrials.ran,trainAudioFile,beepTrainResponse.rt,readyReal_resp.keys,readyReal_resp.rt,ratingSlider.response,ratingSlider.rt,beepResp.keys,beepResp.corr,expTrials.thisRepN,expTrials.thisTrialN,expTrials.thisN,expTrials.thisIndex,expTrials.ran,audioFile,beepResp.rt,end_resp.keys,end_resp.rt
3,0,106.0135,0,0,0,3,1,stimuli/screen_origin.wav,stimuli/screen_quiet.wav,stimuli/screen_antiphase.wav,2,38064,2021-06-20_22h07.08.481,judgeSpeechMusic_20210519_logNormShiftAmp_mXs,2020.1.2,MacIntel,60,,,,,,,,,,,,,,,,,,,,,,,,,,
1,1,1.1781,0,1,1,4,1,stimuli/screen_quiet.wav,stimuli/screen_antiphase.wav,stimuli/screen_origin.wav,1,38064,2021-06-20_22h07.08.481,judgeSpeechMusic_20210519_logNormShiftAmp_mXs,2020.1.2,MacIntel,60,,,,,,,,,,,,,,,,,,,,,,,,,,
2,1,0.9141,0,2,2,1,1,stimuli/screen_antiphase.wav,stimuli/screen_quiet.wav,stimuli/screen_origin.wav,2,38064,2021-06-20_22h07.08.481,judgeSpeechMusic_20210519_logNormShiftAmp_mXs,2020.1.2,MacIntel,60,,,,,,,,,,,,,,,,,,,,,,,,,,
3,1,0.5361,0,3,3,0,1,stimuli/screen_antiphase.wav,stimuli/screen_origin.wav,stimuli/screen_quiet.wav,3,38064,2021-06-20_22h07.08.481,judgeSpeechMusic_20210519_logNormShiftAmp_mXs,2020.1.2,MacIntel,60,,,,,,,,,,,,,,,,,,,,,,,,,,
1,1,0.4381,0,4,4,5,1,stimuli/screen_quiet.wav,stimuli/screen_origin.wav,stimuli/screen_antiphase.wav,1,38064,2021-06-20_22h07.08.481,judgeSpeechMusic_20210519_logNormShiftAmp_mXs,2020.1.2,MacIntel,60,,,,,,,,,,,,,,,,,,,,,,,,,,
3,1,0.3174,0,5,5,2,1,stimuli/screen_origin.wav,stimuli/screen_antiphase.wav,stimuli/screen_quiet.wav,3,38064,2021-06-20_22h07.08.481,judgeSpeechMusic_20210519_logNormShiftAmp_mXs,2020.1.2,MacIntel,60,,,,,,,,,,,,,,,,,,,,,,,,,,
,,,,,,,,,,,,38064,2021-06-20_22h07.08.481,judgeSpeechMusic_20210519_logNormShiftAmp_mXs,2020.1.2,MacIntel,60,2,11.6537,,0,0,0,0,1,1,stimuli/stim_20210519_power2amp/equal_lnn_AM_training1.5Hz_s50.m4a,,,,,,,,,,,,,,,,
,,,,,,,,,,,,38064,2021-06-20_22h07.08.481,judgeSpeechMusic_20210519_logNormShiftAmp_mXs,2020.1.2,MacIntel,60,2,8.3578,,0,0,1,1,0,1,stimuli/stim_20210519_power2amp/equal_lnn_AM_training1.5Hz_s20.m4a,,,,,,,,,,,,,,,,
,,,,,,,,,,,,38064,2021-06-20_22h07.08.481,judgeSpeechMusic_20210519_logNormShiftAmp_mXs,2020.1.2,MacIntel,60,2,9.4544,1,1,0,2,2,3,1,stimuli/stim_20210519_power2amp/equal_lnn_AM_training3.5Hz_s50.m4a,1.9847,,,,,,,,,,,,,,,
,,,,,,,,,,,,38064,2021-06-20_22h07.08.481,judgeSpeechMusic_20210519_logNormShiftAmp_mXs,2020.1.2,MacIntel,60,1,6.4012,,0,0,3,3,2,1,stimuli/stim_20210519_power2amp/equal_lnn_AM_training3.5Hz_s20.m4a,,,,,,,,,,,,,,,,
,,,,,,,,,,,,38064,2021-06-20_22h07.08.481,judgeSpeechMusic_20210519_logNormShiftAmp_mXs,2020.1.2,MacIntel,60,,,,,,,,,,,,space,6.7905,2,7.6072,,0,0,0,0,120,1,stimuli/stim_20210519_power2amp/equal_lnn_AM4Hz_s35_13.m4a,,,
,,,,,,,,,,,,38064,2021-06-20_22h07.08.481,judgeSpeechMusic_20210519_logNormShiftAmp_mXs,2020.1.2,MacIntel,60,,,,,,,,,,,,,,1,5.9179,,0,0,1,1,101,1,stimuli/stim_20210519_power2amp/equal_lnn_AM4Hz_s15_5.m4a,,,
,,,,,,,,,,,,38064,2021-06-20_22h07.08.481,judgeSpeechMusic_20210519_logNormShiftAmp_mXs,2020.1.2,MacIntel,60,,,,,,,,,,,,,,2,7.2805,,0,0,2,2,59,1,stimuli/stim_20210519_power2amp/equal_lnn_AM2.5Hz_s15_26.m4a,,,
,,,,,,,,,,,,38064,2021-06-20_22h07.08.481,judgeSpeechMusic_20210519_logNormShiftAmp_mXs,2020.1.2,MacIntel,60,,,,,,,,,,,,,,1,5.8174,,0,0,3,3,66,1,stimuli/stim_20210519_power2amp/equal_lnn_AM2.5Hz_s25_28.m4a,,,
,,,,,,,,,,,,38064,2021-06-20_22h07.08.481,judgeSpeechMusic_20210519_logNormShiftAmp_mXs,2020.1.2,MacIntel,60,,,,,,,,,,,,,,2,6.5135,,0,0,4,4,93,1,stimuli/stim_20210519_power2amp/equal_lnn_AM2.5Hz_s55_32.m4a,,,
,,,,,,,,,,,,38064,2021-06-20_22h07.08.481,judgeSpeechMusic_20210519_logNormShiftAmp_mXs,2020.1.2,MacIntel,60,,,,,,,,,,,,,,2,6.106,,0,0,5,5,109,1,stimuli/stim_20210519_power2amp/equal_lnn_AM4Hz_s15_41.m4a,,,
,,,,,,,,,,,,38064,2021-06-20_22h07.08.481,judgeSpeechMusic_20210519_logNormShiftAmp_mXs,2020.1.2,MacIntel,60,,,,,,,,,,,,,,2,5.7177,,0,0,6,6,140,1,stimuli/stim_20210519_power2amp/equal_lnn_AM4Hz_s55_39.m4a,,,
,,,,,,,,,,,,38064,2021-06-20_22h07.08.481,judgeSpeechMusic_20210519_logNormShiftAmp_mXs,2020.1.2,MacIntel,60,,,,,,,,,,,,,,1,5.8311,,0,0,7,7,82,1,stimuli/stim_20210519_power2amp/equal_lnn_AM2.5Hz_s45_30.m4a,,,
,,,,,,,,,,,,38064,2021-06-20_22h07.08.481,judgeSpeechMusic_20210519_logNormShiftAmp_mXs,2020.1.2,MacIntel,60,,,,,,,,,,,,,,1,6.6104,,0,0,8,8,3,1,stimuli/stim_20210519_power2amp/equal_lnn_AM1Hz_s15_1.m4a,,,
,,,,,,,,,,,,38064,2021-06-20_22h07.08.481,judgeSpeechMusic_20210519_logNormShiftAmp_mXs,2020.1.2,MacIntel,60,,,,,,,,,,,,,,2,6.0779,,0,0,9,9,79,1,stimuli/stim_20210519_power2amp/equal_lnn_AM2.5Hz_s35_10.m4a,,,
,,,,,,,,,,,,38064,2021-06-20_22h07.08.481,judgeSpeechMusic_20210519_logNormShiftAmp_mXs,2020.1.2,MacIntel,60,,,,,,,,,,,,,,2,5.8401,,0,0,10,10,43,1,stimuli/stim_20210519_power2amp/equal_lnn_AM1Hz_s55_33.m4a,,,
,,,,,,,,,,,,38064,2021-06-20_22h07.08.481,judgeSpeechMusic_20210519_logNormShiftAmp_mXs,2020.1.2,MacIntel,60,,,,,,,,,,,,,,1,6.2674,,0,0,11,11,34,1,stimuli/stim_20210519_power2amp/equal_lnn_AM1Hz_s45_21.m4a,,,
,,,,,,,,,,,,38064,2021-06-20_22h07.08.481,judgeSpeechMusic_20210519_logNormShiftAmp_mXs,2020.1.2,MacIntel,60,,,,,,,,,,,,,,2,6.4781,,0,0,12,12,110,1,stimuli/stim_20210519_power2amp/equal_lnn_AM4Hz_s25_1.m4a,,,
,,,,,,,,,,,,38064,2021-06-20_22h07.08.481,judgeSpeechMusic_20210519_logNormShiftAmp_mXs,2020.1.2,MacIntel,60,,,,,,,,,,,,,,2,7.4367,,0,0,13,13,42,1,stimuli/stim_20210519_power2amp/equal_lnn_AM1Hz_s55_5.m4a,,,
,,,,,,,,,,,,38064,2021-06-20_22h07.08.481,judgeSpeechMusic_20210519_logNormShiftAmp_mXs,2020.1.2,MacIntel,60,,,,,,,,,,,,,,2,6.7261,,0,0,14,14,44,1,stimuli/stim_20210519_power2amp/equal_lnn_AM1Hz_s55_4.m4a,,,
,,,,,,,,,,,,38064,2021-06-20_22h07.08.481,judgeSpeechMusic_20210519_logNormShiftAmp_mXs,2020.1.2,MacIntel,60,,,,,,,,,,,,,,1,6.729,,0,0,15,15,15,1,stimuli/stim_20210519_power2amp/equal_lnn_AM1Hz_s25_6.m4a,,,
,,,,,,,,,,,,38064,2021-06-20_22h07.08.481,judgeSpeechMusic_20210519_logNormShiftAmp_mXs,2020.1.2,MacIntel,60,,,,,,,,,,,,,,2,6.3687,,0,0,16,16,114,1,stimuli/stim_20210519_power2amp/equal_lnn_AM4Hz_s25_33.m4a,,,
,,,,,,,,,,,,38064,2021-06-20_22h07.08.481,judgeSpeechMusic_20210519_logNormShiftAmp_mXs,2020.1.2,MacIntel,60,,,,,,,,,,,,,,2,5.5282,,0,0,17,17,119,1,stimuli/stim_20210519_power2amp/equal_lnn_AM4Hz_s25_44.m4a,,,
,,,,,,,,,,,,38064,2021-06-20_22h07.08.481,judgeSpeechMusic_20210519_logNormShiftAmp_mXs,2020.1.2,MacIntel,60,,,,,,,,,,,,,,2,7.5021,,0,0,18,18,111,1,stimuli/stim_20210519_power2amp/equal_lnn_AM4Hz_s25_20.m4a,,,
,,,,,,,,,,,,38064,2021-06-20_22h07.08.481,judgeSpeechMusic_20210519_logNormShiftAmp_mXs,2020.1.2,MacIntel,60,,,,,,,,,,,,,,1,6.1418,,0,0,19,19,55,1,stimuli/stim_20210519_power2amp/equal_lnn_AM2.5Hz_s15_9.m4a,,,
,,,,,,,,,,,,38064,2021-06-20_22h07.08.481,judgeSpeechMusic_20210519_logNormShiftAmp_mXs,2020.1.2,MacIntel,60,,,,,,,,,,,,,,1,6.8356,,0,0,20,20,38,1,stimuli/stim_20210519_power2amp/equal_lnn_AM1Hz_s45_11.m4a,,,
,,,,,,,,,,,,38064,2021-06-20_22h07.08.481,judgeSpeechMusic_20210519_logNormShiftAmp_mXs,2020.1.2,MacIntel,60,,,,,,,,,,,,,,2,6.5891,,0,0,21,21,97,1,stimuli/stim_20210519_power2amp/equal_lnn_AM2.5Hz_s55_23.m4a,,,
,,,,,,,,,,,,38064,2021-06-20_22h07.08.481,judgeSpeechMusic_20210519_logNormShiftAmp_mXs,2020.1.2,MacIntel,60,,,,,,,,,,,,,,1,5.6911,,0,0,22,22,76,1,stimuli/stim_20210519_power2amp/equal_lnn_AM2.5Hz_s35_44.m4a,,,
,,,,,,,,,,,,38064,2021-06-20_22h07.08.481,judgeSpeechMusic_20210519_logNormShiftAmp_mXs,2020.1.2,MacIntel,60,,,,,,,,,,,,,,1,6.0231,,0,0,23,23,83,1,stimuli/stim_20210519_power2amp/equal_lnn_AM2.5Hz_s45_9.m4a,,,
,,,,,,,,,,,,38064,2021-06-20_22h07.08.481,judgeSpeechMusic_20210519_logNormShiftAmp_mXs,2020.1.2,MacIntel,60,,,,,,,,,,,,,,1,5.5589,,0,0,24,24,6,1,stimuli/stim_20210519_power2amp/equal_lnn_AM1Hz_s15_38.m4a,,,
,,,,,,,,,,,,38064,2021-06-20_22h07.08.481,judgeSpeechMusic_20210519_logNormShiftAmp_mXs,2020.1.2,MacIntel,60,,,,,,,,,,,,,,2,5.9239,,0,0,25,25,89,1,stimuli/stim_20210519_power2amp/equal_lnn_AM2.5Hz_s45_5.m4a,,,
,,,,,,,,,,,,38064,2021-06-20_22h07.08.481,judgeSpeechMusic_20210519_logNormShiftAmp_mXs,2020.1.2,MacIntel,60,,,,,,,,,,,,,,1,5.65,,0,0,26,26,99,1,stimuli/stim_20210519_power2amp/equal_lnn_AM2.5Hz_s55_12.m4a,,,
,,,,,,,,,,,,38064,2021-06-20_22h07.08.481,judgeSpeechMusic_20210519_logNormShiftAmp_mXs,2020.1.2,MacIntel,60,,,,,,,,,,,,,,1,7.4941,,0,0,27,27,17,1,stimuli/stim_20210519_power2amp/equal_lnn_AM1Hz_s25_47.m4a,,,
,,,,,,,,,,,,38064,2021-06-20_22h07.08.481,judgeSpeechMusic_20210519_logNormShiftAmp_mXs,2020.1.2,MacIntel,60,,,,,,,,,,,,,,1,6.1374,,0,0,28,28,11,1,stimuli/stim_20210519_power2amp/equal_lnn_AM1Hz_s25_10.m4a,,,
,,,,,,,,,,,,38064,2021-06-20_22h07.08.481,judgeSpeechMusic_20210519_logNormShiftAmp_mXs,2020.1.2,MacIntel,60,,,,,,,,,,,,,,1,5.6783,,0,0,29,29,41,1,stimuli/stim_20210519_power2amp/equal_lnn_AM1Hz_s55_12.m4a,,,
,,,,,,,,,,,,38064,2021-06-20_22h07.08.481,judgeSpeechMusic_20210519_logNormShiftAmp_mXs,2020.1.2,MacIntel,60,,,,,,,,,,,,,,2,5.7927,,0,0,30,30,18,1,stimuli/stim_20210519_power2amp/equal_lnn_AM1Hz_s25_25.m4a,,,
,,,,,,,,,,,,38064,2021-06-20_22h07.08.481,judgeSpeechMusic_20210519_logNormShiftAmp_mXs,2020.1.2,MacIntel,60,,,,,,,,,,,,,,2,5.359,,0,0,31,31,70,1,stimuli/stim_20210519_power2amp/equal_lnn_AM2.5Hz_s35_39.m4a,,,
,,,,,,,,,,,,38064,2021-06-20_22h07.08.481,judgeSpeechMusic_20210519_logNormShiftAmp_mXs,2020.1.2,MacIntel,60,,,,,,,,,,,,,,2,5.6386,,0,0,32,32,84,1,stimuli/stim_20210519_power2amp/equal_lnn_AM2.5Hz_s45_22.m4a,,,
,,,,,,,,,,,,38064,2021-06-20_22h07.08.481,judgeSpeechMusic_20210519_logNormShiftAmp_mXs,2020.1.2,MacIntel,60,,,,,,,,,,,,,,1,5.6748,,0,0,33,33,112,1,stimuli/stim_20210519_power2amp/equal_lnn_AM4Hz_s25_28.m4a,,,
,,,,,,,,,,,,38064,2021-06-20_22h07.08.481,judgeSpeechMusic_20210519_logNormShiftAmp_mXs,2020.1.2,MacIntel,60,,,,,,,,,,,,,,1,5.607,,0,0,34,34,75,1,stimuli/stim_20210519_power2amp/equal_lnn_AM2.5Hz_s35_33.m4a,,,
,,,,,,,,,,,,38064,2021-06-20_22h07.08.481,judgeSpeechMusic_20210519_logNormShiftAmp_mXs,2020.1.2,MacIntel,60,,,,,,,,,,,,,,1,5.7544,,0,0,35,35,72,1,stimuli/stim_20210519_power2amp/equal_lnn_AM2.5Hz_s35_26.m4a,,,
,,,,,,,,,,,,38064,2021-06-20_22h07.08.481,judgeSpeechMusic_20210519_logNormShiftAmp_mXs,2020.1.2,MacIntel,60,,,,,,,,,,,,,,1,6.1426,,0,0,36,36,50,1,stimuli/stim_20210519_power2amp/equal_lnn_AM2.5Hz_s15_11.m4a,,,
,,,,,,,,,,,,38064,2021-06-20_22h07.08.481,judgeSpeechMusic_20210519_logNormShiftAmp_mXs,2020.1.2,MacIntel,60,,,,,,,,,,,,,,2,5.7903,,0,0,37,37,53,1,stimuli/stim_20210519_power2amp/equal_lnn_AM2.5Hz_s15_48.m4a,,,
,,,,,,,,,,,,38064,2021-06-20_22h07.08.481,judgeSpeechMusic_20210519_logNormShiftAmp_mXs,2020.1.2,MacIntel,60,,,,,,,,,,,,,,1,5.5724,,0,0,38,38,56,1,stimuli/stim_20210519_power2amp/equal_lnn_AM2.5Hz_s15_16.m4a,,,
,,,,,,,,,,,,38064,2021-06-20_22h07.08.481,judgeSpeechMusic_20210519_logNormShiftAmp_mXs,2020.1.2,MacIntel,60,,,,,,,,,,,,,,2,5.6592,,0,0,39,39,133,1,stimuli/stim_20210519_power2amp/equal_lnn_AM4Hz_s45_17.m4a,,,
,,,,,,,,,,,,38064,2021-06-20_22h07.08.481,judgeSpeechMusic_20210519_logNormShiftAmp_mXs,2020.1.2,MacIntel,60,,,,,,,,,,,,,,1,7.9626,4,1,0,40,40,12,1,stimuli/stim_20210519_power2amp/equal_lnn_AM1Hz_s25_34.m4a,4.5101,,
,,,,,,,,,,,,38064,2021-06-20_22h07.08.481,judgeSpeechMusic_20210519_logNormShiftAmp_mXs,2020.1.2,MacIntel,60,,,,,,,,,,,,,,1,5.8217,,0,0,41,41,104,1,stimuli/stim_20210519_power2amp/equal_lnn_AM4Hz_s15_25.m4a,,,
,,,,,,,,,,,,38064,2021-06-20_22h07.08.481,judgeSpeechMusic_20210519_logNormShiftAmp_mXs,2020.1.2,MacIntel,60,,,,,,,,,,,,,,2,5.8565,,0,0,42,42,51,1,stimuli/stim_20210519_power2amp/equal_lnn_AM2.5Hz_s15_21.m4a,,,
,,,,,,,,,,,,38064,2021-06-20_22h07.08.481,judgeSpeechMusic_20210519_logNormShiftAmp_mXs,2020.1.2,MacIntel,60,,,,,,,,,,,,,,1,5.622,,0,0,43,43,33,1,stimuli/stim_20210519_power2amp/equal_lnn_AM1Hz_s45_39.m4a,,,
,,,,,,,,,,,,38064,2021-06-20_22h07.08.481,judgeSpeechMusic_20210519_logNormShiftAmp_mXs,2020.1.2,MacIntel,60,,,,,,,,,,,,,,1,5.3789,,0,0,44,44,88,1,stimuli/stim_20210519_power2amp/equal_lnn_AM2.5Hz_s45_1.m4a,,,
,,,,,,,,,,,,38064,2021-06-20_22h07.08.481,judgeSpeechMusic_20210519_logNormShiftAmp_mXs,2020.1.2,MacIntel,60,,,,,,,,,,,,,,2,5.8055,,0,0,45,45,80,1,stimuli/stim_20210519_power2amp/equal_lnn_AM2.5Hz_s45_44.m4a,,,
,,,,,,,,,,,,38064,2021-06-20_22h07.08.481,judgeSpeechMusic_20210519_logNormShiftAmp_mXs,2020.1.2,MacIntel,60,,,,,,,,,,,,,,1,5.6776,,0,0,46,46,100,1,stimuli/stim_20210519_power2amp/equal_lnn_AM4Hz_s15_21.m4a,,,
,,,,,,,,,,,,38064,2021-06-20_22h07.08.481,judgeSpeechMusic_20210519_logNormShiftAmp_mXs,2020.1.2,MacIntel,60,,,,,,,,,,,,,,2,5.8043,,0,0,47,47,96,1,stimuli/stim_20210519_power2amp/equal_lnn_AM2.5Hz_s55_44.m4a,,,
,,,,,,,,,,,,38064,2021-06-20_22h07.08.481,judgeSpeechMusic_20210519_logNormShiftAmp_mXs,2020.1.2,MacIntel,60,,,,,,,,,,,,,,2,6.3779,,0,0,48,48,22,1,stimuli/stim_20210519_power2amp/equal_lnn_AM1Hz_s35_29.m4a,,,
,,,,,,,,,,,,38064,2021-06-20_22h07.08.481,judgeSpeechMusic_20210519_logNormShiftAmp_mXs,2020.1.2,MacIntel,60,,,,,,,,,,,,,,2,5.8035,,0,0,49,49,45,1,stimuli/stim_20210519_power2amp/equal_lnn_AM1Hz_s55_45.m4a,,,
,,,,,,,,,,,,38064,2021-06-20_22h07.08.481,judgeSpeechMusic_20210519_logNormShiftAmp_mXs,2020.1.2,MacIntel,60,,,,,,,,,,,,,,1,6.0583,,0,0,50,50,123,1,stimuli/stim_20210519_power2amp/equal_lnn_AM4Hz_s35_34.m4a,,,
,,,,,,,,,,,,38064,2021-06-20_22h07.08.481,judgeSpeechMusic_20210519_logNormShiftAmp_mXs,2020.1.2,MacIntel,60,,,,,,,,,,,,,,1,6.574,,0,0,51,51,73,1,stimuli/stim_20210519_power2amp/equal_lnn_AM2.5Hz_s35_19.m4a,,,
,,,,,,,,,,,,38064,2021-06-20_22h07.08.481,judgeSpeechMusic_20210519_logNormShiftAmp_mXs,2020.1.2,MacIntel,60,,,,,,,,,,,,,,2,5.8596,,0,0,52,52,27,1,stimuli/stim_20210519_power2amp/equal_lnn_AM1Hz_s35_43.m4a,,,
,,,,,,,,,,,,38064,2021-06-20_22h07.08.481,judgeSpeechMusic_20210519_logNormShiftAmp_mXs,2020.1.2,MacIntel,60,,,,,,,,,,,,,,2,5.6265,,0,0,53,53,113,1,stimuli/stim_20210519_power2amp/equal_lnn_AM4Hz_s25_23.m4a,,,
,,,,,,,,,,,,38064,2021-06-20_22h07.08.481,judgeSpeechMusic_20210519_logNormShiftAmp_mXs,2020.1.2,MacIntel,60,,,,,,,,,,,,,,1,5.7708,,0,0,54,54,92,1,stimuli/stim_20210519_power2amp/equal_lnn_AM2.5Hz_s55_8.m4a,,,
,,,,,,,,,,,,38064,2021-06-20_22h07.08.481,judgeSpeechMusic_20210519_logNormShiftAmp_mXs,2020.1.2,MacIntel,60,,,,,,,,,,,,,,1,6.0086,,0,0,55,55,29,1,stimuli/stim_20210519_power2amp/equal_lnn_AM1Hz_s35_6.m4a,,,
,,,,,,,,,,,,38064,2021-06-20_22h07.08.481,judgeSpeechMusic_20210519_logNormShiftAmp_mXs,2020.1.2,MacIntel,60,,,,,,,,,,,,,,2,5.8368,,0,0,56,56,125,1,stimuli/stim_20210519_power2amp/equal_lnn_AM4Hz_s35_2.m4a,,,
,,,,,,,,,,,,38064,2021-06-20_22h07.08.481,judgeSpeechMusic_20210519_logNormShiftAmp_mXs,2020.1.2,MacIntel,60,,,,,,,,,,,,,,1,5.5908,,0,0,57,57,67,1,stimuli/stim_20210519_power2amp/equal_lnn_AM2.5Hz_s25_5.m4a,,,
,,,,,,,,,,,,38064,2021-06-20_22h07.08.481,judgeSpeechMusic_20210519_logNormShiftAmp_mXs,2020.1.2,MacIntel,60,,,,,,,,,,,,,,1,5.6933,,0,0,58,58,57,1,stimuli/stim_20210519_power2amp/equal_lnn_AM2.5Hz_s15_10.m4a,,,
,,,,,,,,,,,,38064,2021-06-20_22h07.08.481,judgeSpeechMusic_20210519_logNormShiftAmp_mXs,2020.1.2,MacIntel,60,,,,,,,,,,,,,,1,6.4952,,0,0,59,59,63,1,stimuli/stim_20210519_power2amp/equal_lnn_AM2.5Hz_s25_39.m4a,,,
,,,,,,,,,,,,38064,2021-06-20_22h07.08.481,judgeSpeechMusic_20210519_logNormShiftAmp_mXs,2020.1.2,MacIntel,60,,,,,,,,,,,,,,2,5.6111,2,1,0,60,60,139,1,stimuli/stim_20210519_power2amp/equal_lnn_AM4Hz_s45_4.m4a,0.6428,,
,,,,,,,,,,,,38064,2021-06-20_22h07.08.481,judgeSpeechMusic_20210519_logNormShiftAmp_mXs,2020.1.2,MacIntel,60,,,,,,,,,,,,,,2,6.1745,,0,0,61,61,148,1,stimuli/stim_20210519_power2amp/equal_lnn_AM4Hz_s55_4.m4a,,,
,,,,,,,,,,,,38064,2021-06-20_22h07.08.481,judgeSpeechMusic_20210519_logNormShiftAmp_mXs,2020.1.2,MacIntel,60,,,,,,,,,,,,,,1,5.6944,,0,0,62,62,24,1,stimuli/stim_20210519_power2amp/equal_lnn_AM1Hz_s35_9.m4a,,,
,,,,,,,,,,,,38064,2021-06-20_22h07.08.481,judgeSpeechMusic_20210519_logNormShiftAmp_mXs,2020.1.2,MacIntel,60,,,,,,,,,,,,,,2,5.712,,0,0,63,63,146,1,stimuli/stim_20210519_power2amp/equal_lnn_AM4Hz_s55_11.m4a,,,
,,,,,,,,,,,,38064,2021-06-20_22h07.08.481,judgeSpeechMusic_20210519_logNormShiftAmp_mXs,2020.1.2,MacIntel,60,,,,,,,,,,,,,,2,5.8777,,0,0,64,64,147,1,stimuli/stim_20210519_power2amp/equal_lnn_AM4Hz_s55_25.m4a,,,
,,,,,,,,,,,,38064,2021-06-20_22h07.08.481,judgeSpeechMusic_20210519_logNormShiftAmp_mXs,2020.1.2,MacIntel,60,,,,,,,,,,,,,,1,6.2429,,0,0,65,65,62,1,stimuli/stim_20210519_power2amp/equal_lnn_AM2.5Hz_s25_27.m4a,,,
,,,,,,,,,,,,38064,2021-06-20_22h07.08.481,judgeSpeechMusic_20210519_logNormShiftAmp_mXs,2020.1.2,MacIntel,60,,,,,,,,,,,,,,1,5.658,,0,0,66,66,61,1,stimuli/stim_20210519_power2amp/equal_lnn_AM2.5Hz_s25_2.m4a,,,
,,,,,,,,,,,,38064,2021-06-20_22h07.08.481,judgeSpeechMusic_20210519_logNormShiftAmp_mXs,2020.1.2,MacIntel,60,,,,,,,,,,,,,,2,5.8591,,0,0,67,67,127,1,stimuli/stim_20210519_power2amp/equal_lnn_AM4Hz_s35_36.m4a,,,
,,,,,,,,,,,,38064,2021-06-20_22h07.08.481,judgeSpeechMusic_20210519_logNormShiftAmp_mXs,2020.1.2,MacIntel,60,,,,,,,,,,,,,,1,7.9913,,0,0,68,68,26,1,stimuli/stim_20210519_power2amp/equal_lnn_AM1Hz_s35_50.m4a,,,
,,,,,,,,,,,,38064,2021-06-20_22h07.08.481,judgeSpeechMusic_20210519_logNormShiftAmp_mXs,2020.1.2,MacIntel,60,,,,,,,,,,,,,,1,7.1755,,0,0,69,69,39,1,stimuli/stim_20210519_power2amp/equal_lnn_AM1Hz_s45_27.m4a,,,
,,,,,,,,,,,,38064,2021-06-20_22h07.08.481,judgeSpeechMusic_20210519_logNormShiftAmp_mXs,2020.1.2,MacIntel,60,,,,,,,,,,,,,,2,6.2426,,0,0,70,70,54,1,stimuli/stim_20210519_power2amp/equal_lnn_AM2.5Hz_s15_27.m4a,,,
,,,,,,,,,,,,38064,2021-06-20_22h07.08.481,judgeSpeechMusic_20210519_logNormShiftAmp_mXs,2020.1.2,MacIntel,60,,,,,,,,,,,,,,2,5.8416,,0,0,71,71,94,1,stimuli/stim_20210519_power2amp/equal_lnn_AM2.5Hz_s55_33.m4a,,,
,,,,,,,,,,,,38064,2021-06-20_22h07.08.481,judgeSpeechMusic_20210519_logNormShiftAmp_mXs,2020.1.2,MacIntel,60,,,,,,,,,,,,,,1,5.6415,,0,0,72,72,31,1,stimuli/stim_20210519_power2amp/equal_lnn_AM1Hz_s45_42.m4a,,,
,,,,,,,,,,,,38064,2021-06-20_22h07.08.481,judgeSpeechMusic_20210519_logNormShiftAmp_mXs,2020.1.2,MacIntel,60,,,,,,,,,,,,,,2,6.9558,,0,0,73,73,107,1,stimuli/stim_20210519_power2amp/equal_lnn_AM4Hz_s15_49.m4a,,,
,,,,,,,,,,,,38064,2021-06-20_22h07.08.481,judgeSpeechMusic_20210519_logNormShiftAmp_mXs,2020.1.2,MacIntel,60,,,,,,,,,,,,,,2,6.2283,,0,0,74,74,47,1,stimuli/stim_20210519_power2amp/equal_lnn_AM1Hz_s55_19.m4a,,,
,,,,,,,,,,,,38064,2021-06-20_22h07.08.481,judgeSpeechMusic_20210519_logNormShiftAmp_mXs,2020.1.2,MacIntel,60,,,,,,,,,,,,,,1,5.6213,,0,0,75,75,25,1,stimuli/stim_20210519_power2amp/equal_lnn_AM1Hz_s35_7.m4a,,,
,,,,,,,,,,,,38064,2021-06-20_22h07.08.481,judgeSpeechMusic_20210519_logNormShiftAmp_mXs,2020.1.2,MacIntel,60,,,,,,,,,,,,,,1,6.0413,,0,0,76,76,117,1,stimuli/stim_20210519_power2amp/equal_lnn_AM4Hz_s25_21.m4a,,,
,,,,,,,,,,,,38064,2021-06-20_22h07.08.481,judgeSpeechMusic_20210519_logNormShiftAmp_mXs,2020.1.2,MacIntel,60,,,,,,,,,,,,,,2,7.2056,,0,0,77,77,8,1,stimuli/stim_20210519_power2amp/equal_lnn_AM1Hz_s15_15.m4a,,,
,,,,,,,,,,,,38064,2021-06-20_22h07.08.481,judgeSpeechMusic_20210519_logNormShiftAmp_mXs,2020.1.2,MacIntel,60,,,,,,,,,,,,,,2,6.1298,,0,0,78,78,9,1,stimuli/stim_20210519_power2amp/equal_lnn_AM1Hz_s15_18.m4a,,,
,,,,,,,,,,,,38064,2021-06-20_22h07.08.481,judgeSpeechMusic_20210519_logNormShiftAmp_mXs,2020.1.2,MacIntel,60,,,,,,,,,,,,,,1,5.7229,,0,0,79,79,71,1,stimuli/stim_20210519_power2amp/equal_lnn_AM2.5Hz_s35_48.m4a,,,
,,,,,,,,,,,,38064,2021-06-20_22h07.08.481,judgeSpeechMusic_20210519_logNormShiftAmp_mXs,2020.1.2,MacIntel,60,,,,,,,,,,,,,,2,6.1616,,0,0,80,80,32,1,stimuli/stim_20210519_power2amp/equal_lnn_AM1Hz_s45_6.m4a,,,
,,,,,,,,,,,,38064,2021-06-20_22h07.08.481,judgeSpeechMusic_20210519_logNormShiftAmp_mXs,2020.1.2,MacIntel,60,,,,,,,,,,,,,,1,6.0252,,0,0,81,81,98,1,stimuli/stim_20210519_power2amp/equal_lnn_AM2.5Hz_s55_9.m4a,,,
,,,,,,,,,,,,38064,2021-06-20_22h07.08.481,judgeSpeechMusic_20210519_logNormShiftAmp_mXs,2020.1.2,MacIntel,60,,,,,,,,,,,,,,1,5.4421,,0,0,82,82,144,1,stimuli/stim_20210519_power2amp/equal_lnn_AM4Hz_s55_20.m4a,,,
,,,,,,,,,,,,38064,2021-06-20_22h07.08.481,judgeSpeechMusic_20210519_logNormShiftAmp_mXs,2020.1.2,MacIntel,60,,,,,,,,,,,,,,2,5.2753,,0,0,83,83,103,1,stimuli/stim_20210519_power2amp/equal_lnn_AM4Hz_s15_50.m4a,,,
,,,,,,,,,,,,38064,2021-06-20_22h07.08.481,judgeSpeechMusic_20210519_logNormShiftAmp_mXs,2020.1.2,MacIntel,60,,,,,,,,,,,,,,2,5.4277,3,1,0,84,84,87,1,stimuli/stim_20210519_power2amp/equal_lnn_AM2.5Hz_s45_4.m4a,0.5144,,
,,,,,,,,,,,,38064,2021-06-20_22h07.08.481,judgeSpeechMusic_20210519_logNormShiftAmp_mXs,2020.1.2,MacIntel,60,,,,,,,,,,,,,,1,5.5393,,0,0,85,85,60,1,stimuli/stim_20210519_power2amp/equal_lnn_AM2.5Hz_s25_29.m4a,,,
,,,,,,,,,,,,38064,2021-06-20_22h07.08.481,judgeSpeechMusic_20210519_logNormShiftAmp_mXs,2020.1.2,MacIntel,60,,,,,,,,,,,,,,1,5.4401,,0,0,86,86,102,1,stimuli/stim_20210519_power2amp/equal_lnn_AM4Hz_s15_48.m4a,,,
,,,,,,,,,,,,38064,2021-06-20_22h07.08.481,judgeSpeechMusic_20210519_logNormShiftAmp_mXs,2020.1.2,MacIntel,60,,,,,,,,,,,,,,1,5.3608,,0,0,87,87,131,1,stimuli/stim_20210519_power2amp/equal_lnn_AM4Hz_s45_32.m4a,,,
,,,,,,,,,,,,38064,2021-06-20_22h07.08.481,judgeSpeechMusic_20210519_logNormShiftAmp_mXs,2020.1.2,MacIntel,60,,,,,,,,,,,,,,1,5.6241,,0,0,88,88,16,1,stimuli/stim_20210519_power2amp/equal_lnn_AM1Hz_s25_2.m4a,,,
,,,,,,,,,,,,38064,2021-06-20_22h07.08.481,judgeSpeechMusic_20210519_logNormShiftAmp_mXs,2020.1.2,MacIntel,60,,,,,,,,,,,,,,1,5.9091,,0,0,89,89,122,1,stimuli/stim_20210519_power2amp/equal_lnn_AM4Hz_s35_41.m4a,,,
,,,,,,,,,,,,38064,2021-06-20_22h07.08.481,judgeSpeechMusic_20210519_logNormShiftAmp_mXs,2020.1.2,MacIntel,60,,,,,,,,,,,,,,1,5.8809,,0,0,90,90,21,1,stimuli/stim_20210519_power2amp/equal_lnn_AM1Hz_s35_35.m4a,,,
,,,,,,,,,,,,38064,2021-06-20_22h07.08.481,judgeSpeechMusic_20210519_logNormShiftAmp_mXs,2020.1.2,MacIntel,60,,,,,,,,,,,,,,2,5.3244,,0,0,91,91,13,1,stimuli/stim_20210519_power2amp/equal_lnn_AM1Hz_s25_36.m4a,,,
,,,,,,,,,,,,38064,2021-06-20_22h07.08.481,judgeSpeechMusic_20210519_logNormShiftAmp_mXs,2020.1.2,MacIntel,60,,,,,,,,,,,,,,1,5.3887,,0,0,92,92,141,1,stimuli/stim_20210519_power2amp/equal_lnn_AM4Hz_s55_2.m4a,,,
,,,,,,,,,,,,38064,2021-06-20_22h07.08.481,judgeSpeechMusic_20210519_logNormShiftAmp_mXs,2020.1.2,MacIntel,60,,,,,,,,,,,,,,2,5.7916,,0,0,93,93,116,1,stimuli/stim_20210519_power2amp/equal_lnn_AM4Hz_s25_37.m4a,,,
,,,,,,,,,,,,38064,2021-06-20_22h07.08.481,judgeSpeechMusic_20210519_logNormShiftAmp_mXs,2020.1.2,MacIntel,60,,,,,,,,,,,,,,1,5.6248,,0,0,94,94,90,1,stimuli/stim_20210519_power2amp/equal_lnn_AM2.5Hz_s55_16.m4a,,,
,,,,,,,,,,,,38064,2021-06-20_22h07.08.481,judgeSpeechMusic_20210519_logNormShiftAmp_mXs,2020.1.2,MacIntel,60,,,,,,,,,,,,,,2,6.8575,,0,0,95,95,64,1,stimuli/stim_20210519_power2amp/equal_lnn_AM2.5Hz_s25_47.m4a,,,
,,,,,,,,,,,,38064,2021-06-20_22h07.08.481,judgeSpeechMusic_20210519_logNormShiftAmp_mXs,2020.1.2,MacIntel,60,,,,,,,,,,,,,,2,5.8101,,0,0,96,96,40,1,stimuli/stim_20210519_power2amp/equal_lnn_AM1Hz_s55_22.m4a,,,
,,,,,,,,,,,,38064,2021-06-20_22h07.08.481,judgeSpeechMusic_20210519_logNormShiftAmp_mXs,2020.1.2,MacIntel,60,,,,,,,,,,,,,,1,6.0071,,0,0,97,97,23,1,stimuli/stim_20210519_power2amp/equal_lnn_AM1Hz_s35_42.m4a,,,
,,,,,,,,,,,,38064,2021-06-20_22h07.08.481,judgeSpeechMusic_20210519_logNormShiftAmp_mXs,2020.1.2,MacIntel,60,,,,,,,,,,,,,,2,6.0742,,0,0,98,98,5,1,stimuli/stim_20210519_power2amp/equal_lnn_AM1Hz_s15_24.m4a,,,
,,,,,,,,,,,,38064,2021-06-20_22h07.08.481,judgeSpeechMusic_20210519_logNormShiftAmp_mXs,2020.1.2,MacIntel,60,,,,,,,,,,,,,,1,5.7924,,0,0,99,99,85,1,stimuli/stim_20210519_power2amp/equal_lnn_AM2.5Hz_s45_39.m4a,,,
,,,,,,,,,,,,38064,2021-06-20_22h07.08.481,judgeSpeechMusic_20210519_logNormShiftAmp_mXs,2020.1.2,MacIntel,60,,,,,,,,,,,,,,2,5.8934,,0,0,100,100,65,1,stimuli/stim_20210519_power2amp/equal_lnn_AM2.5Hz_s25_17.m4a,,,
,,,,,,,,,,,,38064,2021-06-20_22h07.08.481,judgeSpeechMusic_20210519_logNormShiftAmp_mXs,2020.1.2,MacIntel,60,,,,,,,,,,,,,,1,5.8245,,0,0,101,101,69,1,stimuli/stim_20210519_power2amp/equal_lnn_AM2.5Hz_s25_22.m4a,,,
,,,,,,,,,,,,38064,2021-06-20_22h07.08.481,judgeSpeechMusic_20210519_logNormShiftAmp_mXs,2020.1.2,MacIntel,60,,,,,,,,,,,,,,1,6.6218,,0,0,102,102,52,1,stimuli/stim_20210519_power2amp/equal_lnn_AM2.5Hz_s15_50.m4a,,,
,,,,,,,,,,,,38064,2021-06-20_22h07.08.481,judgeSpeechMusic_20210519_logNormShiftAmp_mXs,2020.1.2,MacIntel,60,,,,,,,,,,,,,,1,6.0421,,0,0,103,103,121,1,stimuli/stim_20210519_power2amp/equal_lnn_AM4Hz_s35_23.m4a,,,
,,,,,,,,,,,,38064,2021-06-20_22h07.08.481,judgeSpeechMusic_20210519_logNormShiftAmp_mXs,2020.1.2,MacIntel,60,,,,,,,,,,,,,,2,5.7927,,0,0,104,104,36,1,stimuli/stim_20210519_power2amp/equal_lnn_AM1Hz_s45_37.m4a,,,
,,,,,,,,,,,,38064,2021-06-20_22h07.08.481,judgeSpeechMusic_20210519_logNormShiftAmp_mXs,2020.1.2,MacIntel,60,,,,,,,,,,,,,,2,5.6738,,0,0,105,105,30,1,stimuli/stim_20210519_power2amp/equal_lnn_AM1Hz_s45_18.m4a,,,
,,,,,,,,,,,,38064,2021-06-20_22h07.08.481,judgeSpeechMusic_20210519_logNormShiftAmp_mXs,2020.1.2,MacIntel,60,,,,,,,,,,,,,,1,6.6909,1,1,0,106,106,77,1,stimuli/stim_20210519_power2amp/equal_lnn_AM2.5Hz_s35_45.m4a,0.4968,,
,,,,,,,,,,,,38064,2021-06-20_22h07.08.481,judgeSpeechMusic_20210519_logNormShiftAmp_mXs,2020.1.2,MacIntel,60,,,,,,,,,,,,,,2,6.2041,,0,0,107,107,48,1,stimuli/stim_20210519_power2amp/equal_lnn_AM1Hz_s55_8.m4a,,,
,,,,,,,,,,,,38064,2021-06-20_22h07.08.481,judgeSpeechMusic_20210519_logNormShiftAmp_mXs,2020.1.2,MacIntel,60,,,,,,,,,,,,,,1,5.6614,,0,0,108,108,46,1,stimuli/stim_20210519_power2amp/equal_lnn_AM1Hz_s55_42.m4a,,,
,,,,,,,,,,,,38064,2021-06-20_22h07.08.481,judgeSpeechMusic_20210519_logNormShiftAmp_mXs,2020.1.2,MacIntel,60,,,,,,,,,,,,,,1,5.5187,,0,0,109,109,81,1,stimuli/stim_20210519_power2amp/equal_lnn_AM2.5Hz_s45_34.m4a,,,
,,,,,,,,,,,,38064,2021-06-20_22h07.08.481,judgeSpeechMusic_20210519_logNormShiftAmp_mXs,2020.1.2,MacIntel,60,,,,,,,,,,,,,,1,6.0239,,0,0,110,110,78,1,stimuli/stim_20210519_power2amp/equal_lnn_AM2.5Hz_s35_18.m4a,,,
,,,,,,,,,,,,38064,2021-06-20_22h07.08.481,judgeSpeechMusic_20210519_logNormShiftAmp_mXs,2020.1.2,MacIntel,60,,,,,,,,,,,,,,2,5.6236,,0,0,111,111,2,1,stimuli/stim_20210519_power2amp/equal_lnn_AM1Hz_s15_9.m4a,,,
,,,,,,,,,,,,38064,2021-06-20_22h07.08.481,judgeSpeechMusic_20210519_logNormShiftAmp_mXs,2020.1.2,MacIntel,60,,,,,,,,,,,,,,1,5.5423,,0,0,112,112,105,1,stimuli/stim_20210519_power2amp/equal_lnn_AM4Hz_s15_27.m4a,,,
,,,,,,,,,,,,38064,2021-06-20_22h07.08.481,judgeSpeechMusic_20210519_logNormShiftAmp_mXs,2020.1.2,MacIntel,60,,,,,,,,,,,,,,2,6.058,,0,0,113,113,10,1,stimuli/stim_20210519_power2amp/equal_lnn_AM1Hz_s25_4.m4a,,,
,,,,,,,,,,,,38064,2021-06-20_22h07.08.481,judgeSpeechMusic_20210519_logNormShiftAmp_mXs,2020.1.2,MacIntel,60,,,,,,,,,,,,,,1,5.5905,,0,0,114,114,132,1,stimuli/stim_20210519_power2amp/equal_lnn_AM4Hz_s45_24.m4a,,,
,,,,,,,,,,,,38064,2021-06-20_22h07.08.481,judgeSpeechMusic_20210519_logNormShiftAmp_mXs,2020.1.2,MacIntel,60,,,,,,,,,,,,,,1,5.5439,,0,0,115,115,149,1,stimuli/stim_20210519_power2amp/equal_lnn_AM4Hz_s55_18.m4a,,,
,,,,,,,,,,,,38064,2021-06-20_22h07.08.481,judgeSpeechMusic_20210519_logNormShiftAmp_mXs,2020.1.2,MacIntel,60,,,,,,,,,,,,,,2,5.7049,,0,0,116,116,91,1,stimuli/stim_20210519_power2amp/equal_lnn_AM2.5Hz_s55_26.m4a,,,
,,,,,,,,,,,,38064,2021-06-20_22h07.08.481,judgeSpeechMusic_20210519_logNormShiftAmp_mXs,2020.1.2,MacIntel,60,,,,,,,,,,,,,,1,5.442,,0,0,117,117,58,1,stimuli/stim_20210519_power2amp/equal_lnn_AM2.5Hz_s15_43.m4a,,,
,,,,,,,,,,,,38064,2021-06-20_22h07.08.481,judgeSpeechMusic_20210519_logNormShiftAmp_mXs,2020.1.2,MacIntel,60,,,,,,,,,,,,,,1,5.3733,,0,0,118,118,28,1,stimuli/stim_20210519_power2amp/equal_lnn_AM1Hz_s35_4.m4a,,,
,,,,,,,,,,,,38064,2021-06-20_22h07.08.481,judgeSpeechMusic_20210519_logNormShiftAmp_mXs,2020.1.2,MacIntel,60,,,,,,,,,,,,,,1,5.6294,,0,0,119,119,145,1,stimuli/stim_20210519_power2amp/equal_lnn_AM4Hz_s55_30.m4a,,,
,,,,,,,,,,,,38064,2021-06-20_22h07.08.481,judgeSpeechMusic_20210519_logNormShiftAmp_mXs,2020.1.2,MacIntel,60,,,,,,,,,,,,,,2,6.4951,,0,0,120,120,115,1,stimuli/stim_20210519_power2amp/equal_lnn_AM4Hz_s25_48.m4a,,,
,,,,,,,,,,,,38064,2021-06-20_22h07.08.481,judgeSpeechMusic_20210519_logNormShiftAmp_mXs,2020.1.2,MacIntel,60,,,,,,,,,,,,,,1,5.9589,,0,0,121,121,49,1,stimuli/stim_20210519_power2amp/equal_lnn_AM1Hz_s55_2.m4a,,,
,,,,,,,,,,,,38064,2021-06-20_22h07.08.481,judgeSpeechMusic_20210519_logNormShiftAmp_mXs,2020.1.2,MacIntel,60,,,,,,,,,,,,,,1,5.307,,0,0,122,122,4,1,stimuli/stim_20210519_power2amp/equal_lnn_AM1Hz_s15_26.m4a,,,
,,,,,,,,,,,,38064,2021-06-20_22h07.08.481,judgeSpeechMusic_20210519_logNormShiftAmp_mXs,2020.1.2,MacIntel,60,,,,,,,,,,,,,,2,5.4233,,0,0,123,123,14,1,stimuli/stim_20210519_power2amp/equal_lnn_AM1Hz_s25_38.m4a,,,
,,,,,,,,,,,,38064,2021-06-20_22h07.08.481,judgeSpeechMusic_20210519_logNormShiftAmp_mXs,2020.1.2,MacIntel,60,,,,,,,,,,,,,,1,5.5238,,0,0,124,124,138,1,stimuli/stim_20210519_power2amp/equal_lnn_AM4Hz_s45_33.m4a,,,
,,,,,,,,,,,,38064,2021-06-20_22h07.08.481,judgeSpeechMusic_20210519_logNormShiftAmp_mXs,2020.1.2,MacIntel,60,,,,,,,,,,,,,,2,5.7232,,0,0,125,125,20,1,stimuli/stim_20210519_power2amp/equal_lnn_AM1Hz_s35_45.m4a,,,
,,,,,,,,,,,,38064,2021-06-20_22h07.08.481,judgeSpeechMusic_20210519_logNormShiftAmp_mXs,2020.1.2,MacIntel,60,,,,,,,,,,,,,,2,5.4275,,0,0,126,126,128,1,stimuli/stim_20210519_power2amp/equal_lnn_AM4Hz_s35_26.m4a,,,
,,,,,,,,,,,,38064,2021-06-20_22h07.08.481,judgeSpeechMusic_20210519_logNormShiftAmp_mXs,2020.1.2,MacIntel,60,,,,,,,,,,,,,,1,5.9234,,0,0,127,127,37,1,stimuli/stim_20210519_power2amp/equal_lnn_AM1Hz_s45_48.m4a,,,
,,,,,,,,,,,,38064,2021-06-20_22h07.08.481,judgeSpeechMusic_20210519_logNormShiftAmp_mXs,2020.1.2,MacIntel,60,,,,,,,,,,,,,,2,5.8205,,0,0,128,128,86,1,stimuli/stim_20210519_power2amp/equal_lnn_AM2.5Hz_s45_7.m4a,,,
,,,,,,,,,,,,38064,2021-06-20_22h07.08.481,judgeSpeechMusic_20210519_logNormShiftAmp_mXs,2020.1.2,MacIntel,60,,,,,,,,,,,,,,2,6.0974,1,1,0,129,129,143,1,stimuli/stim_20210519_power2amp/equal_lnn_AM4Hz_s55_33.m4a,0.8041,,
,,,,,,,,,,,,38064,2021-06-20_22h07.08.481,judgeSpeechMusic_20210519_logNormShiftAmp_mXs,2020.1.2,MacIntel,60,,,,,,,,,,,,,,1,5.4414,,0,0,130,130,95,1,stimuli/stim_20210519_power2amp/equal_lnn_AM2.5Hz_s55_19.m4a,,,
,,,,,,,,,,,,38064,2021-06-20_22h07.08.481,judgeSpeechMusic_20210519_logNormShiftAmp_mXs,2020.1.2,MacIntel,60,,,,,,,,,,,,,,1,5.7955,,0,0,131,131,142,1,stimuli/stim_20210519_power2amp/equal_lnn_AM4Hz_s55_23.m4a,,,
,,,,,,,,,,,,38064,2021-06-20_22h07.08.481,judgeSpeechMusic_20210519_logNormShiftAmp_mXs,2020.1.2,MacIntel,60,,,,,,,,,,,,,,2,5.6725,,0,0,132,132,130,1,stimuli/stim_20210519_power2amp/equal_lnn_AM4Hz_s45_9.m4a,,,
,,,,,,,,,,,,38064,2021-06-20_22h07.08.481,judgeSpeechMusic_20210519_logNormShiftAmp_mXs,2020.1.2,MacIntel,60,,,,,,,,,,,,,,1,6.0099,,0,0,133,133,124,1,stimuli/stim_20210519_power2amp/equal_lnn_AM4Hz_s35_4.m4a,,,
,,,,,,,,,,,,38064,2021-06-20_22h07.08.481,judgeSpeechMusic_20210519_logNormShiftAmp_mXs,2020.1.2,MacIntel,60,,,,,,,,,,,,,,1,5.9628,,0,0,134,134,126,1,stimuli/stim_20210519_power2amp/equal_lnn_AM4Hz_s35_50.m4a,,,
,,,,,,,,,,,,38064,2021-06-20_22h07.08.481,judgeSpeechMusic_20210519_logNormShiftAmp_mXs,2020.1.2,MacIntel,60,,,,,,,,,,,,,,2,5.8089,,0,0,135,135,129,1,stimuli/stim_20210519_power2amp/equal_lnn_AM4Hz_s35_45.m4a,,,
,,,,,,,,,,,,38064,2021-06-20_22h07.08.481,judgeSpeechMusic_20210519_logNormShiftAmp_mXs,2020.1.2,MacIntel,60,,,,,,,,,,,,,,1,5.7411,,0,0,136,136,137,1,stimuli/stim_20210519_power2amp/equal_lnn_AM4Hz_s45_11.m4a,,,
,,,,,,,,,,,,38064,2021-06-20_22h07.08.481,judgeSpeechMusic_20210519_logNormShiftAmp_mXs,2020.1.2,MacIntel,60,,,,,,,,,,,,,,1,5.4422,,0,0,137,137,0,1,stimuli/stim_20210519_power2amp/equal_lnn_AM1Hz_s15_48.m4a,,,
,,,,,,,,,,,,38064,2021-06-20_22h07.08.481,judgeSpeechMusic_20210519_logNormShiftAmp_mXs,2020.1.2,MacIntel,60,,,,,,,,,,,,,,2,6.2393,,0,0,138,138,118,1,stimuli/stim_20210519_power2amp/equal_lnn_AM4Hz_s25_12.m4a,,,
,,,,,,,,,,,,38064,2021-06-20_22h07.08.481,judgeSpeechMusic_20210519_logNormShiftAmp_mXs,2020.1.2,MacIntel,60,,,,,,,,,,,,,,2,5.7928,,0,0,139,139,135,1,stimuli/stim_20210519_power2amp/equal_lnn_AM4Hz_s45_49.m4a,,,
,,,,,,,,,,,,38064,2021-06-20_22h07.08.481,judgeSpeechMusic_20210519_logNormShiftAmp_mXs,2020.1.2,MacIntel,60,,,,,,,,,,,,,,2,5.9086,,0,0,140,140,134,1,stimuli/stim_20210519_power2amp/equal_lnn_AM4Hz_s45_2.m4a,,,
,,,,,,,,,,,,38064,2021-06-20_22h07.08.481,judgeSpeechMusic_20210519_logNormShiftAmp_mXs,2020.1.2,MacIntel,60,,,,,,,,,,,,,,2,5.8425,,0,0,141,141,108,1,stimuli/stim_20210519_power2amp/equal_lnn_AM4Hz_s15_34.m4a,,,
,,,,,,,,,,,,38064,2021-06-20_22h07.08.481,judgeSpeechMusic_20210519_logNormShiftAmp_mXs,2020.1.2,MacIntel,60,,,,,,,,,,,,,,1,5.7232,,0,0,142,142,74,1,stimuli/stim_20210519_power2amp/equal_lnn_AM2.5Hz_s35_16.m4a,,,
,,,,,,,,,,,,38064,2021-06-20_22h07.08.481,judgeSpeechMusic_20210519_logNormShiftAmp_mXs,2020.1.2,MacIntel,60,,,,,,,,,,,,,,1,5.4577,,0,0,143,143,7,1,stimuli/stim_20210519_power2amp/equal_lnn_AM1Hz_s15_10.m4a,,,
,,,,,,,,,,,,38064,2021-06-20_22h07.08.481,judgeSpeechMusic_20210519_logNormShiftAmp_mXs,2020.1.2,MacIntel,60,,,,,,,,,,,,,,1,5.7401,,0,0,144,144,35,1,stimuli/stim_20210519_power2amp/equal_lnn_AM1Hz_s45_12.m4a,,,
,,,,,,,,,,,,38064,2021-06-20_22h07.08.481,judgeSpeechMusic_20210519_logNormShiftAmp_mXs,2020.1.2,MacIntel,60,,,,,,,,,,,,,,2,6.1907,,0,0,145,145,106,1,stimuli/stim_20210519_power2amp/equal_lnn_AM4Hz_s15_45.m4a,,,
,,,,,,,,,,,,38064,2021-06-20_22h07.08.481,judgeSpeechMusic_20210519_logNormShiftAmp_mXs,2020.1.2,MacIntel,60,,,,,,,,,,,,,,2,6.526,,0,0,146,146,136,1,stimuli/stim_20210519_power2amp/equal_lnn_AM4Hz_s45_16.m4a,,,
,,,,,,,,,,,,38064,2021-06-20_22h07.08.481,judgeSpeechMusic_20210519_logNormShiftAmp_mXs,2020.1.2,MacIntel,60,,,,,,,,,,,,,,1,5.5418,,0,0,147,147,19,1,stimuli/stim_20210519_power2amp/equal_lnn_AM1Hz_s25_33.m4a,,,
,,,,,,,,,,,,38064,2021-06-20_22h07.08.481,judgeSpeechMusic_20210519_logNormShiftAmp_mXs,2020.1.2,MacIntel,60,,,,,,,,,,,,,,2,5.8428,,0,0,148,148,68,1,stimuli/stim_20210519_power2amp/equal_lnn_AM2.5Hz_s25_44.m4a,,,
,,,,,,,,,,,,38064,2021-06-20_22h07.08.481,judgeSpeechMusic_20210519_logNormShiftAmp_mXs,2020.1.2,MacIntel,60,,,,,,,,,,,,,,1,5.4272,3,1,0,149,149,1,1,stimuli/stim_20210519_power2amp/equal_lnn_AM1Hz_s15_2.m4a,0.2965,,
,,,,,,,,,,,,38064,2021-06-20_22h07.08.481,judgeSpeechMusic_20210519_logNormShiftAmp_mXs,2020.1.2,MacIntel,60,,,,,,,,,,,,,,2,5.643,,0,1,0,150,107,1,stimuli/stim_20210519_power2amp/equal_lnn_AM4Hz_s15_49.m4a,,,
,,,,,,,,,,,,38064,2021-06-20_22h07.08.481,judgeSpeechMusic_20210519_logNormShiftAmp_mXs,2020.1.2,MacIntel,60,,,,,,,,,,,,,,2,5.5074,,0,1,1,151,66,1,stimuli/stim_20210519_power2amp/equal_lnn_AM2.5Hz_s25_28.m4a,,,
,,,,,,,,,,,,38064,2021-06-20_22h07.08.481,judgeSpeechMusic_20210519_logNormShiftAmp_mXs,2020.1.2,MacIntel,60,,,,,,,,,,,,,,2,5.3878,,0,1,2,152,78,1,stimuli/stim_20210519_power2amp/equal_lnn_AM2.5Hz_s35_18.m4a,,,
,,,,,,,,,,,,38064,2021-06-20_22h07.08.481,judgeSpeechMusic_20210519_logNormShiftAmp_mXs,2020.1.2,MacIntel,60,,,,,,,,,,,,,,1,5.827,,0,1,3,153,77,1,stimuli/stim_20210519_power2amp/equal_lnn_AM2.5Hz_s35_45.m4a,,,
,,,,,,,,,,,,38064,2021-06-20_22h07.08.481,judgeSpeechMusic_20210519_logNormShiftAmp_mXs,2020.1.2,MacIntel,60,,,,,,,,,,,,,,1,5.5745,,0,1,4,154,44,1,stimuli/stim_20210519_power2amp/equal_lnn_AM1Hz_s55_4.m4a,,,
,,,,,,,,,,,,38064,2021-06-20_22h07.08.481,judgeSpeechMusic_20210519_logNormShiftAmp_mXs,2020.1.2,MacIntel,60,,,,,,,,,,,,,,1,5.5094,,0,1,5,155,148,1,stimuli/stim_20210519_power2amp/equal_lnn_AM4Hz_s55_4.m4a,,,
,,,,,,,,,,,,38064,2021-06-20_22h07.08.481,judgeSpeechMusic_20210519_logNormShiftAmp_mXs,2020.1.2,MacIntel,60,,,,,,,,,,,,,,2,6.5452,,0,1,6,156,97,1,stimuli/stim_20210519_power2amp/equal_lnn_AM2.5Hz_s55_23.m4a,,,
,,,,,,,,,,,,38064,2021-06-20_22h07.08.481,judgeSpeechMusic_20210519_logNormShiftAmp_mXs,2020.1.2,MacIntel,60,,,,,,,,,,,,,,2,5.9736,,0,1,7,157,71,1,stimuli/stim_20210519_power2amp/equal_lnn_AM2.5Hz_s35_48.m4a,,,
,,,,,,,,,,,,38064,2021-06-20_22h07.08.481,judgeSpeechMusic_20210519_logNormShiftAmp_mXs,2020.1.2,MacIntel,60,,,,,,,,,,,,,,2,7.1595,,0,1,8,158,90,1,stimuli/stim_20210519_power2amp/equal_lnn_AM2.5Hz_s55_16.m4a,,,
,,,,,,,,,,,,38064,2021-06-20_22h07.08.481,judgeSpeechMusic_20210519_logNormShiftAmp_mXs,2020.1.2,MacIntel,60,,,,,,,,,,,,,,2,6.6595,,0,1,9,159,33,1,stimuli/stim_20210519_power2amp/equal_lnn_AM1Hz_s45_39.m4a,,,
,,,,,,,,,,,,38064,2021-06-20_22h07.08.481,judgeSpeechMusic_20210519_logNormShiftAmp_mXs,2020.1.2,MacIntel,60,,,,,,,,,,,,,,1,6.3127,,0,1,10,160,142,1,stimuli/stim_20210519_power2amp/equal_lnn_AM4Hz_s55_23.m4a,,,
,,,,,,,,,,,,38064,2021-06-20_22h07.08.481,judgeSpeechMusic_20210519_logNormShiftAmp_mXs,2020.1.2,MacIntel,60,,,,,,,,,,,,,,1,5.7288,,0,1,11,161,56,1,stimuli/stim_20210519_power2amp/equal_lnn_AM2.5Hz_s15_16.m4a,,,
,,,,,,,,,,,,38064,2021-06-20_22h07.08.481,judgeSpeechMusic_20210519_logNormShiftAmp_mXs,2020.1.2,MacIntel,60,,,,,,,,,,,,,,1,5.9573,,0,1,12,162,69,1,stimuli/stim_20210519_power2amp/equal_lnn_AM2.5Hz_s25_22.m4a,,,
,,,,,,,,,,,,38064,2021-06-20_22h07.08.481,judgeSpeechMusic_20210519_logNormShiftAmp_mXs,2020.1.2,MacIntel,60,,,,,,,,,,,,,,2,6.4571,,0,1,13,163,92,1,stimuli/stim_20210519_power2amp/equal_lnn_AM2.5Hz_s55_8.m4a,,,
,,,,,,,,,,,,38064,2021-06-20_22h07.08.481,judgeSpeechMusic_20210519_logNormShiftAmp_mXs,2020.1.2,MacIntel,60,,,,,,,,,,,,,,2,5.4118,,0,1,14,164,111,1,stimuli/stim_20210519_power2amp/equal_lnn_AM4Hz_s25_20.m4a,,,
,,,,,,,,,,,,38064,2021-06-20_22h07.08.481,judgeSpeechMusic_20210519_logNormShiftAmp_mXs,2020.1.2,MacIntel,60,,,,,,,,,,,,,,2,5.9753,,0,1,15,165,60,1,stimuli/stim_20210519_power2amp/equal_lnn_AM2.5Hz_s25_29.m4a,,,
,,,,,,,,,,,,38064,2021-06-20_22h07.08.481,judgeSpeechMusic_20210519_logNormShiftAmp_mXs,2020.1.2,MacIntel,60,,,,,,,,,,,,,,2,6.1945,,0,1,16,166,81,1,stimuli/stim_20210519_power2amp/equal_lnn_AM2.5Hz_s45_34.m4a,,,
,,,,,,,,,,,,38064,2021-06-20_22h07.08.481,judgeSpeechMusic_20210519_logNormShiftAmp_mXs,2020.1.2,MacIntel,60,,,,,,,,,,,,,,1,5.8389,,0,1,17,167,49,1,stimuli/stim_20210519_power2amp/equal_lnn_AM1Hz_s55_2.m4a,,,
,,,,,,,,,,,,38064,2021-06-20_22h07.08.481,judgeSpeechMusic_20210519_logNormShiftAmp_mXs,2020.1.2,MacIntel,60,,,,,,,,,,,,,,2,5.7239,,0,1,18,168,131,1,stimuli/stim_20210519_power2amp/equal_lnn_AM4Hz_s45_32.m4a,,,
,,,,,,,,,,,,38064,2021-06-20_22h07.08.481,judgeSpeechMusic_20210519_logNormShiftAmp_mXs,2020.1.2,MacIntel,60,,,,,,,,,,,,,,2,5.6272,,0,1,19,169,79,1,stimuli/stim_20210519_power2amp/equal_lnn_AM2.5Hz_s35_10.m4a,,,
,,,,,,,,,,,,38064,2021-06-20_22h07.08.481,judgeSpeechMusic_20210519_logNormShiftAmp_mXs,2020.1.2,MacIntel,60,,,,,,,,,,,,,,1,5.8425,,0,1,20,170,55,1,stimuli/stim_20210519_power2amp/equal_lnn_AM2.5Hz_s15_9.m4a,,,
,,,,,,,,,,,,38064,2021-06-20_22h07.08.481,judgeSpeechMusic_20210519_logNormShiftAmp_mXs,2020.1.2,MacIntel,60,,,,,,,,,,,,,,1,5.7749,,0,1,21,171,116,1,stimuli/stim_20210519_power2amp/equal_lnn_AM4Hz_s25_37.m4a,,,
,,,,,,,,,,,,38064,2021-06-20_22h07.08.481,judgeSpeechMusic_20210519_logNormShiftAmp_mXs,2020.1.2,MacIntel,60,,,,,,,,,,,,,,1,5.374,,0,1,22,172,147,1,stimuli/stim_20210519_power2amp/equal_lnn_AM4Hz_s55_25.m4a,,,
,,,,,,,,,,,,38064,2021-06-20_22h07.08.481,judgeSpeechMusic_20210519_logNormShiftAmp_mXs,2020.1.2,MacIntel,60,,,,,,,,,,,,,,2,5.559,2,1,1,23,173,102,1,stimuli/stim_20210519_power2amp/equal_lnn_AM4Hz_s15_48.m4a,0.2965,,
,,,,,,,,,,,,38064,2021-06-20_22h07.08.481,judgeSpeechMusic_20210519_logNormShiftAmp_mXs,2020.1.2,MacIntel,60,,,,,,,,,,,,,,1,5.6423,,0,1,24,174,98,1,stimuli/stim_20210519_power2amp/equal_lnn_AM2.5Hz_s55_9.m4a,,,
,,,,,,,,,,,,38064,2021-06-20_22h07.08.481,judgeSpeechMusic_20210519_logNormShiftAmp_mXs,2020.1.2,MacIntel,60,,,,,,,,,,,,,,1,5.542,,0,1,25,175,10,1,stimuli/stim_20210519_power2amp/equal_lnn_AM1Hz_s25_4.m4a,,,
,,,,,,,,,,,,38064,2021-06-20_22h07.08.481,judgeSpeechMusic_20210519_logNormShiftAmp_mXs,2020.1.2,MacIntel,60,,,,,,,,,,,,,,2,5.3933,,0,1,26,176,141,1,stimuli/stim_20210519_power2amp/equal_lnn_AM4Hz_s55_2.m4a,,,
,,,,,,,,,,,,38064,2021-06-20_22h07.08.481,judgeSpeechMusic_20210519_logNormShiftAmp_mXs,2020.1.2,MacIntel,60,,,,,,,,,,,,,,1,5.3257,,0,1,27,177,53,1,stimuli/stim_20210519_power2amp/equal_lnn_AM2.5Hz_s15_48.m4a,,,
,,,,,,,,,,,,38064,2021-06-20_22h07.08.481,judgeSpeechMusic_20210519_logNormShiftAmp_mXs,2020.1.2,MacIntel,60,,,,,,,,,,,,,,1,5.292,,0,1,28,178,13,1,stimuli/stim_20210519_power2amp/equal_lnn_AM1Hz_s25_36.m4a,,,
,,,,,,,,,,,,38064,2021-06-20_22h07.08.481,judgeSpeechMusic_20210519_logNormShiftAmp_mXs,2020.1.2,MacIntel,60,,,,,,,,,,,,,,2,5.3758,,0,1,29,179,120,1,stimuli/stim_20210519_power2amp/equal_lnn_AM4Hz_s35_13.m4a,,,
,,,,,,,,,,,,38064,2021-06-20_22h07.08.481,judgeSpeechMusic_20210519_logNormShiftAmp_mXs,2020.1.2,MacIntel,60,,,,,,,,,,,,,,1,5.5603,,0,1,30,180,9,1,stimuli/stim_20210519_power2amp/equal_lnn_AM1Hz_s15_18.m4a,,,
,,,,,,,,,,,,38064,2021-06-20_22h07.08.481,judgeSpeechMusic_20210519_logNormShiftAmp_mXs,2020.1.2,MacIntel,60,,,,,,,,,,,,,,2,5.4765,,0,1,31,181,82,1,stimuli/stim_20210519_power2amp/equal_lnn_AM2.5Hz_s45_30.m4a,,,
,,,,,,,,,,,,38064,2021-06-20_22h07.08.481,judgeSpeechMusic_20210519_logNormShiftAmp_mXs,2020.1.2,MacIntel,60,,,,,,,,,,,,,,1,5.4075,,0,1,32,182,83,1,stimuli/stim_20210519_power2amp/equal_lnn_AM2.5Hz_s45_9.m4a,,,
,,,,,,,,,,,,38064,2021-06-20_22h07.08.481,judgeSpeechMusic_20210519_logNormShiftAmp_mXs,2020.1.2,MacIntel,60,,,,,,,,,,,,,,1,5.6751,,0,1,33,183,99,1,stimuli/stim_20210519_power2amp/equal_lnn_AM2.5Hz_s55_12.m4a,,,
,,,,,,,,,,,,38064,2021-06-20_22h07.08.481,judgeSpeechMusic_20210519_logNormShiftAmp_mXs,2020.1.2,MacIntel,60,,,,,,,,,,,,,,1,5.6083,,0,1,34,184,138,1,stimuli/stim_20210519_power2amp/equal_lnn_AM4Hz_s45_33.m4a,,,
,,,,,,,,,,,,38064,2021-06-20_22h07.08.481,judgeSpeechMusic_20210519_logNormShiftAmp_mXs,2020.1.2,MacIntel,60,,,,,,,,,,,,,,1,5.5423,,0,1,35,185,41,1,stimuli/stim_20210519_power2amp/equal_lnn_AM1Hz_s55_12.m4a,,,
,,,,,,,,,,,,38064,2021-06-20_22h07.08.481,judgeSpeechMusic_20210519_logNormShiftAmp_mXs,2020.1.2,MacIntel,60,,,,,,,,,,,,,,2,6.0432,,0,1,36,186,91,1,stimuli/stim_20210519_power2amp/equal_lnn_AM2.5Hz_s55_26.m4a,,,
,,,,,,,,,,,,38064,2021-06-20_22h07.08.481,judgeSpeechMusic_20210519_logNormShiftAmp_mXs,2020.1.2,MacIntel,60,,,,,,,,,,,,,,2,6.0594,,0,1,37,187,74,1,stimuli/stim_20210519_power2amp/equal_lnn_AM2.5Hz_s35_16.m4a,,,
,,,,,,,,,,,,38064,2021-06-20_22h07.08.481,judgeSpeechMusic_20210519_logNormShiftAmp_mXs,2020.1.2,MacIntel,60,,,,,,,,,,,,,,1,5.3578,,0,1,38,188,19,1,stimuli/stim_20210519_power2amp/equal_lnn_AM1Hz_s25_33.m4a,,,
,,,,,,,,,,,,38064,2021-06-20_22h07.08.481,judgeSpeechMusic_20210519_logNormShiftAmp_mXs,2020.1.2,MacIntel,60,,,,,,,,,,,,,,1,5.2768,,0,1,39,189,95,1,stimuli/stim_20210519_power2amp/equal_lnn_AM2.5Hz_s55_19.m4a,,,
,,,,,,,,,,,,38064,2021-06-20_22h07.08.481,judgeSpeechMusic_20210519_logNormShiftAmp_mXs,2020.1.2,MacIntel,60,,,,,,,,,,,,,,1,6.3946,,0,1,40,190,28,1,stimuli/stim_20210519_power2amp/equal_lnn_AM1Hz_s35_4.m4a,,,
,,,,,,,,,,,,38064,2021-06-20_22h07.08.481,judgeSpeechMusic_20210519_logNormShiftAmp_mXs,2020.1.2,MacIntel,60,,,,,,,,,,,,,,1,5.4915,,0,1,41,191,5,1,stimuli/stim_20210519_power2amp/equal_lnn_AM1Hz_s15_24.m4a,,,
,,,,,,,,,,,,38064,2021-06-20_22h07.08.481,judgeSpeechMusic_20210519_logNormShiftAmp_mXs,2020.1.2,MacIntel,60,,,,,,,,,,,,,,2,5.4606,,0,1,42,192,135,1,stimuli/stim_20210519_power2amp/equal_lnn_AM4Hz_s45_49.m4a,,,
,,,,,,,,,,,,38064,2021-06-20_22h07.08.481,judgeSpeechMusic_20210519_logNormShiftAmp_mXs,2020.1.2,MacIntel,60,,,,,,,,,,,,,,1,5.6475,3,1,1,43,193,84,1,stimuli/stim_20210519_power2amp/equal_lnn_AM2.5Hz_s45_22.m4a,0.6456,,
,,,,,,,,,,,,38064,2021-06-20_22h07.08.481,judgeSpeechMusic_20210519_logNormShiftAmp_mXs,2020.1.2,MacIntel,60,,,,,,,,,,,,,,2,5.8771,,0,1,44,194,89,1,stimuli/stim_20210519_power2amp/equal_lnn_AM2.5Hz_s45_5.m4a,,,
,,,,,,,,,,,,38064,2021-06-20_22h07.08.481,judgeSpeechMusic_20210519_logNormShiftAmp_mXs,2020.1.2,MacIntel,60,,,,,,,,,,,,,,1,6.6738,,0,1,45,195,134,1,stimuli/stim_20210519_power2amp/equal_lnn_AM4Hz_s45_2.m4a,,,
,,,,,,,,,,,,38064,2021-06-20_22h07.08.481,judgeSpeechMusic_20210519_logNormShiftAmp_mXs,2020.1.2,MacIntel,60,,,,,,,,,,,,,,2,6.7264,,0,1,46,196,62,1,stimuli/stim_20210519_power2amp/equal_lnn_AM2.5Hz_s25_27.m4a,,,
,,,,,,,,,,,,38064,2021-06-20_22h07.08.481,judgeSpeechMusic_20210519_logNormShiftAmp_mXs,2020.1.2,MacIntel,60,,,,,,,,,,,,,,1,5.6003,,0,1,47,197,85,1,stimuli/stim_20210519_power2amp/equal_lnn_AM2.5Hz_s45_39.m4a,,,
,,,,,,,,,,,,38064,2021-06-20_22h07.08.481,judgeSpeechMusic_20210519_logNormShiftAmp_mXs,2020.1.2,MacIntel,60,,,,,,,,,,,,,,2,6.967,,0,1,48,198,145,1,stimuli/stim_20210519_power2amp/equal_lnn_AM4Hz_s55_30.m4a,,,
,,,,,,,,,,,,38064,2021-06-20_22h07.08.481,judgeSpeechMusic_20210519_logNormShiftAmp_mXs,2020.1.2,MacIntel,60,,,,,,,,,,,,,,1,6.6303,,0,1,49,199,3,1,stimuli/stim_20210519_power2amp/equal_lnn_AM1Hz_s15_1.m4a,,,
,,,,,,,,,,,,38064,2021-06-20_22h07.08.481,judgeSpeechMusic_20210519_logNormShiftAmp_mXs,2020.1.2,MacIntel,60,,,,,,,,,,,,,,1,6.8121,,0,1,50,200,47,1,stimuli/stim_20210519_power2amp/equal_lnn_AM1Hz_s55_19.m4a,,,
,,,,,,,,,,,,38064,2021-06-20_22h07.08.481,judgeSpeechMusic_20210519_logNormShiftAmp_mXs,2020.1.2,MacIntel,60,,,,,,,,,,,,,,2,5.9397,,0,1,51,201,104,1,stimuli/stim_20210519_power2amp/equal_lnn_AM4Hz_s15_25.m4a,,,
,,,,,,,,,,,,38064,2021-06-20_22h07.08.481,judgeSpeechMusic_20210519_logNormShiftAmp_mXs,2020.1.2,MacIntel,60,,,,,,,,,,,,,,1,6.6053,,0,1,52,202,31,1,stimuli/stim_20210519_power2amp/equal_lnn_AM1Hz_s45_42.m4a,,,
,,,,,,,,,,,,38064,2021-06-20_22h07.08.481,judgeSpeechMusic_20210519_logNormShiftAmp_mXs,2020.1.2,MacIntel,60,,,,,,,,,,,,,,1,5.5732,,0,1,53,203,0,1,stimuli/stim_20210519_power2amp/equal_lnn_AM1Hz_s15_48.m4a,,,
,,,,,,,,,,,,38064,2021-06-20_22h07.08.481,judgeSpeechMusic_20210519_logNormShiftAmp_mXs,2020.1.2,MacIntel,60,,,,,,,,,,,,,,1,5.9223,,0,1,54,204,108,1,stimuli/stim_20210519_power2amp/equal_lnn_AM4Hz_s15_34.m4a,,,
,,,,,,,,,,,,38064,2021-06-20_22h07.08.481,judgeSpeechMusic_20210519_logNormShiftAmp_mXs,2020.1.2,MacIntel,60,,,,,,,,,,,,,,1,6.2252,,0,1,55,205,29,1,stimuli/stim_20210519_power2amp/equal_lnn_AM1Hz_s35_6.m4a,,,
,,,,,,,,,,,,38064,2021-06-20_22h07.08.481,judgeSpeechMusic_20210519_logNormShiftAmp_mXs,2020.1.2,MacIntel,60,,,,,,,,,,,,,,1,5.957,,0,1,56,206,27,1,stimuli/stim_20210519_power2amp/equal_lnn_AM1Hz_s35_43.m4a,,,
,,,,,,,,,,,,38064,2021-06-20_22h07.08.481,judgeSpeechMusic_20210519_logNormShiftAmp_mXs,2020.1.2,MacIntel,60,,,,,,,,,,,,,,2,5.5596,,0,1,57,207,65,1,stimuli/stim_20210519_power2amp/equal_lnn_AM2.5Hz_s25_17.m4a,,,
,,,,,,,,,,,,38064,2021-06-20_22h07.08.481,judgeSpeechMusic_20210519_logNormShiftAmp_mXs,2020.1.2,MacIntel,60,,,,,,,,,,,,,,1,6.2421,,0,1,58,208,86,1,stimuli/stim_20210519_power2amp/equal_lnn_AM2.5Hz_s45_7.m4a,,,
,,,,,,,,,,,,38064,2021-06-20_22h07.08.481,judgeSpeechMusic_20210519_logNormShiftAmp_mXs,2020.1.2,MacIntel,60,,,,,,,,,,,,,,2,5.726,,0,1,59,209,140,1,stimuli/stim_20210519_power2amp/equal_lnn_AM4Hz_s55_39.m4a,,,
,,,,,,,,,,,,38064,2021-06-20_22h07.08.481,judgeSpeechMusic_20210519_logNormShiftAmp_mXs,2020.1.2,MacIntel,60,,,,,,,,,,,,,,1,5.477,,0,1,60,210,51,1,stimuli/stim_20210519_power2amp/equal_lnn_AM2.5Hz_s15_21.m4a,,,
,,,,,,,,,,,,38064,2021-06-20_22h07.08.481,judgeSpeechMusic_20210519_logNormShiftAmp_mXs,2020.1.2,MacIntel,60,,,,,,,,,,,,,,2,5.4237,,0,1,61,211,132,1,stimuli/stim_20210519_power2amp/equal_lnn_AM4Hz_s45_24.m4a,,,
,,,,,,,,,,,,38064,2021-06-20_22h07.08.481,judgeSpeechMusic_20210519_logNormShiftAmp_mXs,2020.1.2,MacIntel,60,,,,,,,,,,,,,,1,5.542,,0,1,62,212,25,1,stimuli/stim_20210519_power2amp/equal_lnn_AM1Hz_s35_7.m4a,,,
,,,,,,,,,,,,38064,2021-06-20_22h07.08.481,judgeSpeechMusic_20210519_logNormShiftAmp_mXs,2020.1.2,MacIntel,60,,,,,,,,,,,,,,2,6.2911,,0,1,63,213,101,1,stimuli/stim_20210519_power2amp/equal_lnn_AM4Hz_s15_5.m4a,,,
,,,,,,,,,,,,38064,2021-06-20_22h07.08.481,judgeSpeechMusic_20210519_logNormShiftAmp_mXs,2020.1.2,MacIntel,60,,,,,,,,,,,,,,1,6.5752,1,1,1,64,214,63,1,stimuli/stim_20210519_power2amp/equal_lnn_AM2.5Hz_s25_39.m4a,0.6625,,
,,,,,,,,,,,,38064,2021-06-20_22h07.08.481,judgeSpeechMusic_20210519_logNormShiftAmp_mXs,2020.1.2,MacIntel,60,,,,,,,,,,,,,,2,5.9048,,0,1,65,215,76,1,stimuli/stim_20210519_power2amp/equal_lnn_AM2.5Hz_s35_44.m4a,,,
,,,,,,,,,,,,38064,2021-06-20_22h07.08.481,judgeSpeechMusic_20210519_logNormShiftAmp_mXs,2020.1.2,MacIntel,60,,,,,,,,,,,,,,1,6.0763,,0,1,66,216,6,1,stimuli/stim_20210519_power2amp/equal_lnn_AM1Hz_s15_38.m4a,,,
,,,,,,,,,,,,38064,2021-06-20_22h07.08.481,judgeSpeechMusic_20210519_logNormShiftAmp_mXs,2020.1.2,MacIntel,60,,,,,,,,,,,,,,2,5.9604,,0,1,67,217,129,1,stimuli/stim_20210519_power2amp/equal_lnn_AM4Hz_s35_45.m4a,,,
,,,,,,,,,,,,38064,2021-06-20_22h07.08.481,judgeSpeechMusic_20210519_logNormShiftAmp_mXs,2020.1.2,MacIntel,60,,,,,,,,,,,,,,1,6.0905,,0,1,68,218,93,1,stimuli/stim_20210519_power2amp/equal_lnn_AM2.5Hz_s55_32.m4a,,,
,,,,,,,,,,,,38064,2021-06-20_22h07.08.481,judgeSpeechMusic_20210519_logNormShiftAmp_mXs,2020.1.2,MacIntel,60,,,,,,,,,,,,,,2,6.2811,,0,1,69,219,121,1,stimuli/stim_20210519_power2amp/equal_lnn_AM4Hz_s35_23.m4a,,,
,,,,,,,,,,,,38064,2021-06-20_22h07.08.481,judgeSpeechMusic_20210519_logNormShiftAmp_mXs,2020.1.2,MacIntel,60,,,,,,,,,,,,,,2,6.0086,,0,1,70,220,123,1,stimuli/stim_20210519_power2amp/equal_lnn_AM4Hz_s35_34.m4a,,,
,,,,,,,,,,,,38064,2021-06-20_22h07.08.481,judgeSpeechMusic_20210519_logNormShiftAmp_mXs,2020.1.2,MacIntel,60,,,,,,,,,,,,,,1,5.6062,,0,1,71,221,7,1,stimuli/stim_20210519_power2amp/equal_lnn_AM1Hz_s15_10.m4a,,,
,,,,,,,,,,,,38064,2021-06-20_22h07.08.481,judgeSpeechMusic_20210519_logNormShiftAmp_mXs,2020.1.2,MacIntel,60,,,,,,,,,,,,,,1,5.5622,,0,1,72,222,67,1,stimuli/stim_20210519_power2amp/equal_lnn_AM2.5Hz_s25_5.m4a,,,
,,,,,,,,,,,,38064,2021-06-20_22h07.08.481,judgeSpeechMusic_20210519_logNormShiftAmp_mXs,2020.1.2,MacIntel,60,,,,,,,,,,,,,,2,5.4564,,0,1,73,223,103,1,stimuli/stim_20210519_power2amp/equal_lnn_AM4Hz_s15_50.m4a,,,
,,,,,,,,,,,,38064,2021-06-20_22h07.08.481,judgeSpeechMusic_20210519_logNormShiftAmp_mXs,2020.1.2,MacIntel,60,,,,,,,,,,,,,,2,5.3741,,0,1,74,224,136,1,stimuli/stim_20210519_power2amp/equal_lnn_AM4Hz_s45_16.m4a,,,
,,,,,,,,,,,,38064,2021-06-20_22h07.08.481,judgeSpeechMusic_20210519_logNormShiftAmp_mXs,2020.1.2,MacIntel,60,,,,,,,,,,,,,,1,5.8737,,0,1,75,225,149,1,stimuli/stim_20210519_power2amp/equal_lnn_AM4Hz_s55_18.m4a,,,
,,,,,,,,,,,,38064,2021-06-20_22h07.08.481,judgeSpeechMusic_20210519_logNormShiftAmp_mXs,2020.1.2,MacIntel,60,,,,,,,,,,,,,,1,5.5722,,0,1,76,226,30,1,stimuli/stim_20210519_power2amp/equal_lnn_AM1Hz_s45_18.m4a,,,
,,,,,,,,,,,,38064,2021-06-20_22h07.08.481,judgeSpeechMusic_20210519_logNormShiftAmp_mXs,2020.1.2,MacIntel,60,,,,,,,,,,,,,,2,5.6769,,0,1,77,227,80,1,stimuli/stim_20210519_power2amp/equal_lnn_AM2.5Hz_s45_44.m4a,,,
,,,,,,,,,,,,38064,2021-06-20_22h07.08.481,judgeSpeechMusic_20210519_logNormShiftAmp_mXs,2020.1.2,MacIntel,60,,,,,,,,,,,,,,1,5.4424,,0,1,78,228,12,1,stimuli/stim_20210519_power2amp/equal_lnn_AM1Hz_s25_34.m4a,,,
,,,,,,,,,,,,38064,2021-06-20_22h07.08.481,judgeSpeechMusic_20210519_logNormShiftAmp_mXs,2020.1.2,MacIntel,60,,,,,,,,,,,,,,1,5.3554,,0,1,79,229,48,1,stimuli/stim_20210519_power2amp/equal_lnn_AM1Hz_s55_8.m4a,,,
,,,,,,,,,,,,38064,2021-06-20_22h07.08.481,judgeSpeechMusic_20210519_logNormShiftAmp_mXs,2020.1.2,MacIntel,60,,,,,,,,,,,,,,1,5.6885,,0,1,80,230,2,1,stimuli/stim_20210519_power2amp/equal_lnn_AM1Hz_s15_9.m4a,,,
,,,,,,,,,,,,38064,2021-06-20_22h07.08.481,judgeSpeechMusic_20210519_logNormShiftAmp_mXs,2020.1.2,MacIntel,60,,,,,,,,,,,,,,1,5.816,,0,1,81,231,52,1,stimuli/stim_20210519_power2amp/equal_lnn_AM2.5Hz_s15_50.m4a,,,
,,,,,,,,,,,,38064,2021-06-20_22h07.08.481,judgeSpeechMusic_20210519_logNormShiftAmp_mXs,2020.1.2,MacIntel,60,,,,,,,,,,,,,,2,5.7985,,0,1,82,232,114,1,stimuli/stim_20210519_power2amp/equal_lnn_AM4Hz_s25_33.m4a,,,
,,,,,,,,,,,,38064,2021-06-20_22h07.08.481,judgeSpeechMusic_20210519_logNormShiftAmp_mXs,2020.1.2,MacIntel,60,,,,,,,,,,,,,,2,5.6414,,0,1,83,233,133,1,stimuli/stim_20210519_power2amp/equal_lnn_AM4Hz_s45_17.m4a,,,
,,,,,,,,,,,,38064,2021-06-20_22h07.08.481,judgeSpeechMusic_20210519_logNormShiftAmp_mXs,2020.1.2,MacIntel,60,,,,,,,,,,,,,,2,5.7227,,0,1,84,234,137,1,stimuli/stim_20210519_power2amp/equal_lnn_AM4Hz_s45_11.m4a,,,
,,,,,,,,,,,,38064,2021-06-20_22h07.08.481,judgeSpeechMusic_20210519_logNormShiftAmp_mXs,2020.1.2,MacIntel,60,,,,,,,,,,,,,,1,5.4245,,0,1,85,235,36,1,stimuli/stim_20210519_power2amp/equal_lnn_AM1Hz_s45_37.m4a,,,
,,,,,,,,,,,,38064,2021-06-20_22h07.08.481,judgeSpeechMusic_20210519_logNormShiftAmp_mXs,2020.1.2,MacIntel,60,,,,,,,,,,,,,,1,5.5894,4,1,1,86,236,17,1,stimuli/stim_20210519_power2amp/equal_lnn_AM1Hz_s25_47.m4a,0.2942,,
,,,,,,,,,,,,38064,2021-06-20_22h07.08.481,judgeSpeechMusic_20210519_logNormShiftAmp_mXs,2020.1.2,MacIntel,60,,,,,,,,,,,,,,1,5.4571,,0,1,87,237,42,1,stimuli/stim_20210519_power2amp/equal_lnn_AM1Hz_s55_5.m4a,,,
,,,,,,,,,,,,38064,2021-06-20_22h07.08.481,judgeSpeechMusic_20210519_logNormShiftAmp_mXs,2020.1.2,MacIntel,60,,,,,,,,,,,,,,1,5.3759,,0,1,88,238,23,1,stimuli/stim_20210519_power2amp/equal_lnn_AM1Hz_s35_42.m4a,,,
,,,,,,,,,,,,38064,2021-06-20_22h07.08.481,judgeSpeechMusic_20210519_logNormShiftAmp_mXs,2020.1.2,MacIntel,60,,,,,,,,,,,,,,1,5.659,,0,1,89,239,4,1,stimuli/stim_20210519_power2amp/equal_lnn_AM1Hz_s15_26.m4a,,,
,,,,,,,,,,,,38064,2021-06-20_22h07.08.481,judgeSpeechMusic_20210519_logNormShiftAmp_mXs,2020.1.2,MacIntel,60,,,,,,,,,,,,,,2,5.8915,,0,1,90,240,115,1,stimuli/stim_20210519_power2amp/equal_lnn_AM4Hz_s25_48.m4a,,,
,,,,,,,,,,,,38064,2021-06-20_22h07.08.481,judgeSpeechMusic_20210519_logNormShiftAmp_mXs,2020.1.2,MacIntel,60,,,,,,,,,,,,,,1,5.6061,,0,1,91,241,21,1,stimuli/stim_20210519_power2amp/equal_lnn_AM1Hz_s35_35.m4a,,,
,,,,,,,,,,,,38064,2021-06-20_22h07.08.481,judgeSpeechMusic_20210519_logNormShiftAmp_mXs,2020.1.2,MacIntel,60,,,,,,,,,,,,,,2,5.5939,,0,1,92,242,96,1,stimuli/stim_20210519_power2amp/equal_lnn_AM2.5Hz_s55_44.m4a,,,
,,,,,,,,,,,,38064,2021-06-20_22h07.08.481,judgeSpeechMusic_20210519_logNormShiftAmp_mXs,2020.1.2,MacIntel,60,,,,,,,,,,,,,,2,5.3557,,0,1,93,243,127,1,stimuli/stim_20210519_power2amp/equal_lnn_AM4Hz_s35_36.m4a,,,
,,,,,,,,,,,,38064,2021-06-20_22h07.08.481,judgeSpeechMusic_20210519_logNormShiftAmp_mXs,2020.1.2,MacIntel,60,,,,,,,,,,,,,,1,5.5581,,0,1,94,244,105,1,stimuli/stim_20210519_power2amp/equal_lnn_AM4Hz_s15_27.m4a,,,
,,,,,,,,,,,,38064,2021-06-20_22h07.08.481,judgeSpeechMusic_20210519_logNormShiftAmp_mXs,2020.1.2,MacIntel,60,,,,,,,,,,,,,,2,5.9568,,0,1,95,245,88,1,stimuli/stim_20210519_power2amp/equal_lnn_AM2.5Hz_s45_1.m4a,,,
,,,,,,,,,,,,38064,2021-06-20_22h07.08.481,judgeSpeechMusic_20210519_logNormShiftAmp_mXs,2020.1.2,MacIntel,60,,,,,,,,,,,,,,1,5.5755,,0,1,96,246,130,1,stimuli/stim_20210519_power2amp/equal_lnn_AM4Hz_s45_9.m4a,,,
,,,,,,,,,,,,38064,2021-06-20_22h07.08.481,judgeSpeechMusic_20210519_logNormShiftAmp_mXs,2020.1.2,MacIntel,60,,,,,,,,,,,,,,2,7.1257,,0,1,97,247,58,1,stimuli/stim_20210519_power2amp/equal_lnn_AM2.5Hz_s15_43.m4a,,,
,,,,,,,,,,,,38064,2021-06-20_22h07.08.481,judgeSpeechMusic_20210519_logNormShiftAmp_mXs,2020.1.2,MacIntel,60,,,,,,,,,,,,,,1,5.9423,,0,1,98,248,59,1,stimuli/stim_20210519_power2amp/equal_lnn_AM2.5Hz_s15_26.m4a,,,
,,,,,,,,,,,,38064,2021-06-20_22h07.08.481,judgeSpeechMusic_20210519_logNormShiftAmp_mXs,2020.1.2,MacIntel,60,,,,,,,,,,,,,,1,6.1751,,0,1,99,249,125,1,stimuli/stim_20210519_power2amp/equal_lnn_AM4Hz_s35_2.m4a,,,
,,,,,,,,,,,,38064,2021-06-20_22h07.08.481,judgeSpeechMusic_20210519_logNormShiftAmp_mXs,2020.1.2,MacIntel,60,,,,,,,,,,,,,,1,5.4915,,0,1,100,250,139,1,stimuli/stim_20210519_power2amp/equal_lnn_AM4Hz_s45_4.m4a,,,
,,,,,,,,,,,,38064,2021-06-20_22h07.08.481,judgeSpeechMusic_20210519_logNormShiftAmp_mXs,2020.1.2,MacIntel,60,,,,,,,,,,,,,,2,6.8576,,0,1,101,251,73,1,stimuli/stim_20210519_power2amp/equal_lnn_AM2.5Hz_s35_19.m4a,,,
,,,,,,,,,,,,38064,2021-06-20_22h07.08.481,judgeSpeechMusic_20210519_logNormShiftAmp_mXs,2020.1.2,MacIntel,60,,,,,,,,,,,,,,2,6.1115,,0,1,102,252,118,1,stimuli/stim_20210519_power2amp/equal_lnn_AM4Hz_s25_12.m4a,,,
,,,,,,,,,,,,38064,2021-06-20_22h07.08.481,judgeSpeechMusic_20210519_logNormShiftAmp_mXs,2020.1.2,MacIntel,60,,,,,,,,,,,,,,2,7.3053,,0,1,103,253,15,1,stimuli/stim_20210519_power2amp/equal_lnn_AM1Hz_s25_6.m4a,,,
,,,,,,,,,,,,38064,2021-06-20_22h07.08.481,judgeSpeechMusic_20210519_logNormShiftAmp_mXs,2020.1.2,MacIntel,60,,,,,,,,,,,,,,1,5.5914,,0,1,104,254,75,1,stimuli/stim_20210519_power2amp/equal_lnn_AM2.5Hz_s35_33.m4a,,,
,,,,,,,,,,,,38064,2021-06-20_22h07.08.481,judgeSpeechMusic_20210519_logNormShiftAmp_mXs,2020.1.2,MacIntel,60,,,,,,,,,,,,,,2,7.1908,,0,1,105,255,8,1,stimuli/stim_20210519_power2amp/equal_lnn_AM1Hz_s15_15.m4a,,,
,,,,,,,,,,,,38064,2021-06-20_22h07.08.481,judgeSpeechMusic_20210519_logNormShiftAmp_mXs,2020.1.2,MacIntel,60,,,,,,,,,,,,,,2,7.9917,,0,1,106,256,94,1,stimuli/stim_20210519_power2amp/equal_lnn_AM2.5Hz_s55_33.m4a,,,
,,,,,,,,,,,,38064,2021-06-20_22h07.08.481,judgeSpeechMusic_20210519_logNormShiftAmp_mXs,2020.1.2,MacIntel,60,,,,,,,,,,,,,,2,8.827,,0,1,107,257,24,1,stimuli/stim_20210519_power2amp/equal_lnn_AM1Hz_s35_9.m4a,,,
,,,,,,,,,,,,38064,2021-06-20_22h07.08.481,judgeSpeechMusic_20210519_logNormShiftAmp_mXs,2020.1.2,MacIntel,60,,,,,,,,,,,,,,1,6.0865,,0,1,108,258,38,1,stimuli/stim_20210519_power2amp/equal_lnn_AM1Hz_s45_11.m4a,,,
,,,,,,,,,,,,38064,2021-06-20_22h07.08.481,judgeSpeechMusic_20210519_logNormShiftAmp_mXs,2020.1.2,MacIntel,60,,,,,,,,,,,,,,1,5.9048,,0,1,109,259,50,1,stimuli/stim_20210519_power2amp/equal_lnn_AM2.5Hz_s15_11.m4a,,,
,,,,,,,,,,,,38064,2021-06-20_22h07.08.481,judgeSpeechMusic_20210519_logNormShiftAmp_mXs,2020.1.2,MacIntel,60,,,,,,,,,,,,,,2,6.2092,2,1,1,110,260,113,1,stimuli/stim_20210519_power2amp/equal_lnn_AM4Hz_s25_23.m4a,0.3299,,
,,,,,,,,,,,,38064,2021-06-20_22h07.08.481,judgeSpeechMusic_20210519_logNormShiftAmp_mXs,2020.1.2,MacIntel,60,,,,,,,,,,,,,,1,6.0597,,0,1,111,261,37,1,stimuli/stim_20210519_power2amp/equal_lnn_AM1Hz_s45_48.m4a,,,
,,,,,,,,,,,,38064,2021-06-20_22h07.08.481,judgeSpeechMusic_20210519_logNormShiftAmp_mXs,2020.1.2,MacIntel,60,,,,,,,,,,,,,,2,5.842,,0,1,112,262,57,1,stimuli/stim_20210519_power2amp/equal_lnn_AM2.5Hz_s15_10.m4a,,,
,,,,,,,,,,,,38064,2021-06-20_22h07.08.481,judgeSpeechMusic_20210519_logNormShiftAmp_mXs,2020.1.2,MacIntel,60,,,,,,,,,,,,,,1,5.8084,,0,1,113,263,35,1,stimuli/stim_20210519_power2amp/equal_lnn_AM1Hz_s45_12.m4a,,,
,,,,,,,,,,,,38064,2021-06-20_22h07.08.481,judgeSpeechMusic_20210519_logNormShiftAmp_mXs,2020.1.2,MacIntel,60,,,,,,,,,,,,,,1,5.3598,,0,1,114,264,26,1,stimuli/stim_20210519_power2amp/equal_lnn_AM1Hz_s35_50.m4a,,,
,,,,,,,,,,,,38064,2021-06-20_22h07.08.481,judgeSpeechMusic_20210519_logNormShiftAmp_mXs,2020.1.2,MacIntel,60,,,,,,,,,,,,,,1,5.3988,,0,1,115,265,32,1,stimuli/stim_20210519_power2amp/equal_lnn_AM1Hz_s45_6.m4a,,,
,,,,,,,,,,,,38064,2021-06-20_22h07.08.481,judgeSpeechMusic_20210519_logNormShiftAmp_mXs,2020.1.2,MacIntel,60,,,,,,,,,,,,,,2,6.0859,,0,1,116,266,46,1,stimuli/stim_20210519_power2amp/equal_lnn_AM1Hz_s55_42.m4a,,,
,,,,,,,,,,,,38064,2021-06-20_22h07.08.481,judgeSpeechMusic_20210519_logNormShiftAmp_mXs,2020.1.2,MacIntel,60,,,,,,,,,,,,,,2,5.3113,,0,1,117,267,144,1,stimuli/stim_20210519_power2amp/equal_lnn_AM4Hz_s55_20.m4a,,,
,,,,,,,,,,,,38064,2021-06-20_22h07.08.481,judgeSpeechMusic_20210519_logNormShiftAmp_mXs,2020.1.2,MacIntel,60,,,,,,,,,,,,,,2,5.5067,,0,1,118,268,122,1,stimuli/stim_20210519_power2amp/equal_lnn_AM4Hz_s35_41.m4a,,,
,,,,,,,,,,,,38064,2021-06-20_22h07.08.481,judgeSpeechMusic_20210519_logNormShiftAmp_mXs,2020.1.2,MacIntel,60,,,,,,,,,,,,,,1,6.1933,,0,1,119,269,106,1,stimuli/stim_20210519_power2amp/equal_lnn_AM4Hz_s15_45.m4a,,,
,,,,,,,,,,,,38064,2021-06-20_22h07.08.481,judgeSpeechMusic_20210519_logNormShiftAmp_mXs,2020.1.2,MacIntel,60,,,,,,,,,,,,,,1,6.4611,,0,1,120,270,143,1,stimuli/stim_20210519_power2amp/equal_lnn_AM4Hz_s55_33.m4a,,,
,,,,,,,,,,,,38064,2021-06-20_22h07.08.481,judgeSpeechMusic_20210519_logNormShiftAmp_mXs,2020.1.2,MacIntel,60,,,,,,,,,,,,,,1,5.5405,,0,1,121,271,45,1,stimuli/stim_20210519_power2amp/equal_lnn_AM1Hz_s55_45.m4a,,,
,,,,,,,,,,,,38064,2021-06-20_22h07.08.481,judgeSpeechMusic_20210519_logNormShiftAmp_mXs,2020.1.2,MacIntel,60,,,,,,,,,,,,,,1,6.0745,,0,1,122,272,87,1,stimuli/stim_20210519_power2amp/equal_lnn_AM2.5Hz_s45_4.m4a,,,
,,,,,,,,,,,,38064,2021-06-20_22h07.08.481,judgeSpeechMusic_20210519_logNormShiftAmp_mXs,2020.1.2,MacIntel,60,,,,,,,,,,,,,,2,6.3283,,0,1,123,273,128,1,stimuli/stim_20210519_power2amp/equal_lnn_AM4Hz_s35_26.m4a,,,
,,,,,,,,,,,,38064,2021-06-20_22h07.08.481,judgeSpeechMusic_20210519_logNormShiftAmp_mXs,2020.1.2,MacIntel,60,,,,,,,,,,,,,,2,5.4421,,0,1,124,274,117,1,stimuli/stim_20210519_power2amp/equal_lnn_AM4Hz_s25_21.m4a,,,
,,,,,,,,,,,,38064,2021-06-20_22h07.08.481,judgeSpeechMusic_20210519_logNormShiftAmp_mXs,2020.1.2,MacIntel,60,,,,,,,,,,,,,,1,5.4612,,0,1,125,275,34,1,stimuli/stim_20210519_power2amp/equal_lnn_AM1Hz_s45_21.m4a,,,
,,,,,,,,,,,,38064,2021-06-20_22h07.08.481,judgeSpeechMusic_20210519_logNormShiftAmp_mXs,2020.1.2,MacIntel,60,,,,,,,,,,,,,,1,6.3404,,0,1,126,276,39,1,stimuli/stim_20210519_power2amp/equal_lnn_AM1Hz_s45_27.m4a,,,
,,,,,,,,,,,,38064,2021-06-20_22h07.08.481,judgeSpeechMusic_20210519_logNormShiftAmp_mXs,2020.1.2,MacIntel,60,,,,,,,,,,,,,,1,7.4426,,0,1,127,277,14,1,stimuli/stim_20210519_power2amp/equal_lnn_AM1Hz_s25_38.m4a,,,
,,,,,,,,,,,,38064,2021-06-20_22h07.08.481,judgeSpeechMusic_20210519_logNormShiftAmp_mXs,2020.1.2,MacIntel,60,,,,,,,,,,,,,,2,5.4733,,0,1,128,278,146,1,stimuli/stim_20210519_power2amp/equal_lnn_AM4Hz_s55_11.m4a,,,
,,,,,,,,,,,,38064,2021-06-20_22h07.08.481,judgeSpeechMusic_20210519_logNormShiftAmp_mXs,2020.1.2,MacIntel,60,,,,,,,,,,,,,,1,5.3555,,0,1,129,279,1,1,stimuli/stim_20210519_power2amp/equal_lnn_AM1Hz_s15_2.m4a,,,
,,,,,,,,,,,,38064,2021-06-20_22h07.08.481,judgeSpeechMusic_20210519_logNormShiftAmp_mXs,2020.1.2,MacIntel,60,,,,,,,,,,,,,,1,5.8127,,0,1,130,280,18,1,stimuli/stim_20210519_power2amp/equal_lnn_AM1Hz_s25_25.m4a,,,
,,,,,,,,,,,,38064,2021-06-20_22h07.08.481,judgeSpeechMusic_20210519_logNormShiftAmp_mXs,2020.1.2,MacIntel,60,,,,,,,,,,,,,,2,5.8396,,0,1,131,281,70,1,stimuli/stim_20210519_power2amp/equal_lnn_AM2.5Hz_s35_39.m4a,,,
,,,,,,,,,,,,38064,2021-06-20_22h07.08.481,judgeSpeechMusic_20210519_logNormShiftAmp_mXs,2020.1.2,MacIntel,60,,,,,,,,,,,,,,1,5.6088,3,1,1,132,282,20,1,stimuli/stim_20210519_power2amp/equal_lnn_AM1Hz_s35_45.m4a,0.5165,,
,,,,,,,,,,,,38064,2021-06-20_22h07.08.481,judgeSpeechMusic_20210519_logNormShiftAmp_mXs,2020.1.2,MacIntel,60,,,,,,,,,,,,,,1,6.4511,,0,1,133,283,64,1,stimuli/stim_20210519_power2amp/equal_lnn_AM2.5Hz_s25_47.m4a,,,
,,,,,,,,,,,,38064,2021-06-20_22h07.08.481,judgeSpeechMusic_20210519_logNormShiftAmp_mXs,2020.1.2,MacIntel,60,,,,,,,,,,,,,,1,5.4811,,0,1,134,284,16,1,stimuli/stim_20210519_power2amp/equal_lnn_AM1Hz_s25_2.m4a,,,
,,,,,,,,,,,,38064,2021-06-20_22h07.08.481,judgeSpeechMusic_20210519_logNormShiftAmp_mXs,2020.1.2,MacIntel,60,,,,,,,,,,,,,,1,5.7405,,0,1,135,285,22,1,stimuli/stim_20210519_power2amp/equal_lnn_AM1Hz_s35_29.m4a,,,
,,,,,,,,,,,,38064,2021-06-20_22h07.08.481,judgeSpeechMusic_20210519_logNormShiftAmp_mXs,2020.1.2,MacIntel,60,,,,,,,,,,,,,,1,5.79,,0,1,136,286,100,1,stimuli/stim_20210519_power2amp/equal_lnn_AM4Hz_s15_21.m4a,,,
,,,,,,,,,,,,38064,2021-06-20_22h07.08.481,judgeSpeechMusic_20210519_logNormShiftAmp_mXs,2020.1.2,MacIntel,60,,,,,,,,,,,,,,2,6.0081,,0,1,137,287,110,1,stimuli/stim_20210519_power2amp/equal_lnn_AM4Hz_s25_1.m4a,,,
,,,,,,,,,,,,38064,2021-06-20_22h07.08.481,judgeSpeechMusic_20210519_logNormShiftAmp_mXs,2020.1.2,MacIntel,60,,,,,,,,,,,,,,2,5.5732,,0,1,138,288,124,1,stimuli/stim_20210519_power2amp/equal_lnn_AM4Hz_s35_4.m4a,,,
,,,,,,,,,,,,38064,2021-06-20_22h07.08.481,judgeSpeechMusic_20210519_logNormShiftAmp_mXs,2020.1.2,MacIntel,60,,,,,,,,,,,,,,1,5.4939,,0,1,139,289,61,1,stimuli/stim_20210519_power2amp/equal_lnn_AM2.5Hz_s25_2.m4a,,,
,,,,,,,,,,,,38064,2021-06-20_22h07.08.481,judgeSpeechMusic_20210519_logNormShiftAmp_mXs,2020.1.2,MacIntel,60,,,,,,,,,,,,,,2,6.2597,,0,1,140,290,72,1,stimuli/stim_20210519_power2amp/equal_lnn_AM2.5Hz_s35_26.m4a,,,
,,,,,,,,,,,,38064,2021-06-20_22h07.08.481,judgeSpeechMusic_20210519_logNormShiftAmp_mXs,2020.1.2,MacIntel,60,,,,,,,,,,,,,,2,5.5245,,0,1,141,291,43,1,stimuli/stim_20210519_power2amp/equal_lnn_AM1Hz_s55_33.m4a,,,
,,,,,,,,,,,,38064,2021-06-20_22h07.08.481,judgeSpeechMusic_20210519_logNormShiftAmp_mXs,2020.1.2,MacIntel,60,,,,,,,,,,,,,,1,5.5591,,0,1,142,292,112,1,stimuli/stim_20210519_power2amp/equal_lnn_AM4Hz_s25_28.m4a,,,
,,,,,,,,,,,,38064,2021-06-20_22h07.08.481,judgeSpeechMusic_20210519_logNormShiftAmp_mXs,2020.1.2,MacIntel,60,,,,,,,,,,,,,,1,5.5044,,0,1,143,293,119,1,stimuli/stim_20210519_power2amp/equal_lnn_AM4Hz_s25_44.m4a,,,
,,,,,,,,,,,,38064,2021-06-20_22h07.08.481,judgeSpeechMusic_20210519_logNormShiftAmp_mXs,2020.1.2,MacIntel,60,,,,,,,,,,,,,,1,6.336,,0,1,144,294,54,1,stimuli/stim_20210519_power2amp/equal_lnn_AM2.5Hz_s15_27.m4a,,,
,,,,,,,,,,,,38064,2021-06-20_22h07.08.481,judgeSpeechMusic_20210519_logNormShiftAmp_mXs,2020.1.2,MacIntel,60,,,,,,,,,,,,,,2,6.0602,,0,1,145,295,126,1,stimuli/stim_20210519_power2amp/equal_lnn_AM4Hz_s35_50.m4a,,,
,,,,,,,,,,,,38064,2021-06-20_22h07.08.481,judgeSpeechMusic_20210519_logNormShiftAmp_mXs,2020.1.2,MacIntel,60,,,,,,,,,,,,,,1,5.2226,,0,1,146,296,68,1,stimuli/stim_20210519_power2amp/equal_lnn_AM2.5Hz_s25_44.m4a,,,
,,,,,,,,,,,,38064,2021-06-20_22h07.08.481,judgeSpeechMusic_20210519_logNormShiftAmp_mXs,2020.1.2,MacIntel,60,,,,,,,,,,,,,,1,6.0275,,0,1,147,297,40,1,stimuli/stim_20210519_power2amp/equal_lnn_AM1Hz_s55_22.m4a,,,
,,,,,,,,,,,,38064,2021-06-20_22h07.08.481,judgeSpeechMusic_20210519_logNormShiftAmp_mXs,2020.1.2,MacIntel,60,,,,,,,,,,,,,,2,5.5721,,0,1,148,298,109,1,stimuli/stim_20210519_power2amp/equal_lnn_AM4Hz_s15_41.m4a,,,
,,,,,,,,,,,,38064,2021-06-20_22h07.08.481,judgeSpeechMusic_20210519_logNormShiftAmp_mXs,2020.1.2,MacIntel,60,,,,,,,,,,,,,,1,5.8393,,0,1,149,299,11,1,stimuli/stim_20210519_power2amp/equal_lnn_AM1Hz_s25_10.m4a,,,
,,,,,,,,,,,,38064,2021-06-20_22h07.08.481,judgeSpeechMusic_20210519_logNormShiftAmp_mXs,2020.1.2,MacIntel,60,,,,,,,,,,,,,,,,,,,,,,,,,space,3.7645
