volAdjustRep.thisRepN,volAdjustRep.thisTrialN,volAdjustRep.thisN,volAdjustRep.thisIndex,volAdjustRep.ran,participant,date,expName,psychopyVersion,OS,frameRate,headphoneResponse.keys,headphoneResponse.corr,headphoneResponse.rt,headphoneTrial.thisRepN,headphoneTrial.thisTrialN,headphoneTrial.thisN,headphoneTrial.thisIndex,headphoneTrial.ran,headphone_sound1,headphone_sound2,headphone_sound3,corrAns,trainSlider.response,trainSlider.rt,beepTrainResponse.keys,beepTrainResponse.corr,trainingTrials.thisRepN,trainingTrials.thisTrialN,trainingTrials.thisN,trainingTrials.thisIndex,trainingTrials.ran,trainAudioFile,beepTrainResponse.rt,readyReal_resp.keys,readyReal_resp.rt,ratingSlider.response,ratingSlider.rt,beepResp.keys,beepResp.corr,expTrials.thisRepN,expTrials.thisTrialN,expTrials.thisN,expTrials.thisIndex,expTrials.ran,audioFile,beepResp.rt,end_resp.keys,end_resp.rt
0,0,0,0,1,38258,2021-06-07_17h38.17.002,judgeSpeechMusic_20210519_logNormShiftAmp_mXs,2020.1.2,MacIntel,60,,,,,,,,,,,,,,,,,,,,,,,,,,,,,,,,,,,,,,
1,0,1,0,1,38258,2021-06-07_17h38.17.002,judgeSpeechMusic_20210519_logNormShiftAmp_mXs,2020.1.2,MacIntel,60,,,,,,,,,,,,,,,,,,,,,,,,,,,,,,,,,,,,,,
2,0,2,0,1,38258,2021-06-07_17h38.17.002,judgeSpeechMusic_20210519_logNormShiftAmp_mXs,2020.1.2,MacIntel,60,,,,,,,,,,,,,,,,,,,,,,,,,,,,,,,,,,,,,,
,,,,,38258,2021-06-07_17h38.17.002,judgeSpeechMusic_20210519_logNormShiftAmp_mXs,2020.1.2,MacIntel,60,3,1,2.3119,0,0,0,0,1,stimuli/screen_antiphase.wav,stimuli/screen_origin.wav,stimuli/screen_quiet.wav,3,,,,,,,,,,,,,,,,,,,,,,,,,,
,,,,,38258,2021-06-07_17h38.17.002,judgeSpeechMusic_20210519_logNormShiftAmp_mXs,2020.1.2,MacIntel,60,2,1,0.8907,0,1,1,3,1,stimuli/screen_origin.wav,stimuli/screen_quiet.wav,stimuli/screen_antiphase.wav,2,,,,,,,,,,,,,,,,,,,,,,,,,,
,,,,,38258,2021-06-07_17h38.17.002,judgeSpeechMusic_20210519_logNormShiftAmp_mXs,2020.1.2,MacIntel,60,1,1,0.7043,0,2,2,5,1,stimuli/screen_quiet.wav,stimuli/screen_origin.wav,stimuli/screen_antiphase.wav,1,,,,,,,,,,,,,,,,,,,,,,,,,,
,,,,,38258,2021-06-07_17h38.17.002,judgeSpeechMusic_20210519_logNormShiftAmp_mXs,2020.1.2,MacIntel,60,3,1,0.672,0,3,3,2,1,stimuli/screen_origin.wav,stimuli/screen_antiphase.wav,stimuli/screen_quiet.wav,3,,,,,,,,,,,,,,,,,,,,,,,,,,
,,,,,38258,2021-06-07_17h38.17.002,judgeSpeechMusic_20210519_logNormShiftAmp_mXs,2020.1.2,MacIntel,60,1,1,0.7686,0,4,4,4,1,stimuli/screen_quiet.wav,stimuli/screen_antiphase.wav,stimuli/screen_origin.wav,1,,,,,,,,,,,,,,,,,,,,,,,,,,
,,,,,38258,2021-06-07_17h38.17.002,judgeSpeechMusic_20210519_logNormShiftAmp_mXs,2020.1.2,MacIntel,60,2,1,0.6342,0,5,5,1,1,stimuli/screen_antiphase.wav,stimuli/screen_quiet.wav,stimuli/screen_origin.wav,2,,,,,,,,,,,,,,,,,,,,,,,,,,
,,,,,38258,2021-06-07_17h38.17.002,judgeSpeechMusic_20210519_logNormShiftAmp_mXs,2020.1.2,MacIntel,60,,,,,,,,,,,,,1,10.3281,,0,0,0,0,3,1,stimuli/stim_20210519_power2amp/equal_lnn_AM_training3.5Hz_s50.m4a,,,,,,,,,,,,,,,,
,,,,,38258,2021-06-07_17h38.17.002,judgeSpeechMusic_20210519_logNormShiftAmp_mXs,2020.1.2,MacIntel,60,,,,,,,,,,,,,1,6.5689,,0,0,1,1,2,1,stimuli/stim_20210519_power2amp/equal_lnn_AM_training3.5Hz_s20.m4a,,,,,,,,,,,,,,,,
,,,,,38258,2021-06-07_17h38.17.002,judgeSpeechMusic_20210519_logNormShiftAmp_mXs,2020.1.2,MacIntel,60,,,,,,,,,,,,,2,6.207,3,1,0,2,2,1,1,stimuli/stim_20210519_power2amp/equal_lnn_AM_training1.5Hz_s50.m4a,1.462,,,,,,,,,,,,,,,
,,,,,38258,2021-06-07_17h38.17.002,judgeSpeechMusic_20210519_logNormShiftAmp_mXs,2020.1.2,MacIntel,60,,,,,,,,,,,,,1,6.2711,,0,0,3,3,0,1,stimuli/stim_20210519_power2amp/equal_lnn_AM_training1.5Hz_s20.m4a,,,,,,,,,,,,,,,,
,,,,,38258,2021-06-07_17h38.17.002,judgeSpeechMusic_20210519_logNormShiftAmp_mXs,2020.1.2,MacIntel,60,,,,,,,,,,,,,,,,,,,,,,,,space,7.5097,1,6.5718,,0,0,0,0,123,1,stimuli/stim_20210519_power2amp/equal_lnn_AM4Hz_s35_50.m4a,,,
,,,,,38258,2021-06-07_17h38.17.002,judgeSpeechMusic_20210519_logNormShiftAmp_mXs,2020.1.2,MacIntel,60,,,,,,,,,,,,,,,,,,,,,,,,,,2,6.8516,,0,0,1,1,88,1,stimuli/stim_20210519_power2amp/equal_lnn_AM2.5Hz_s45_21.m4a,,,
,,,,,38258,2021-06-07_17h38.17.002,judgeSpeechMusic_20210519_logNormShiftAmp_mXs,2020.1.2,MacIntel,60,,,,,,,,,,,,,,,,,,,,,,,,,,1,6.2727,,0,0,2,2,139,1,stimuli/stim_20210519_power2amp/equal_lnn_AM4Hz_s45_34.m4a,,,
,,,,,38258,2021-06-07_17h38.17.002,judgeSpeechMusic_20210519_logNormShiftAmp_mXs,2020.1.2,MacIntel,60,,,,,,,,,,,,,,,,,,,,,,,,,,2,6.5913,,0,0,3,3,75,1,stimuli/stim_20210519_power2amp/equal_lnn_AM2.5Hz_s35_21.m4a,,,
,,,,,38258,2021-06-07_17h38.17.002,judgeSpeechMusic_20210519_logNormShiftAmp_mXs,2020.1.2,MacIntel,60,,,,,,,,,,,,,,,,,,,,,,,,,,1,6.3374,,0,0,4,4,5,1,stimuli/stim_20210519_power2amp/equal_lnn_AM1Hz_s15_38.m4a,,,
,,,,,38258,2021-06-07_17h38.17.002,judgeSpeechMusic_20210519_logNormShiftAmp_mXs,2020.1.2,MacIntel,60,,,,,,,,,,,,,,,,,,,,,,,,,,2,6.2383,,0,0,5,5,89,1,stimuli/stim_20210519_power2amp/equal_lnn_AM2.5Hz_s45_23.m4a,,,
,,,,,38258,2021-06-07_17h38.17.002,judgeSpeechMusic_20210519_logNormShiftAmp_mXs,2020.1.2,MacIntel,60,,,,,,,,,,,,,,,,,,,,,,,,,,2,6.1532,,0,0,6,6,94,1,stimuli/stim_20210519_power2amp/equal_lnn_AM2.5Hz_s55_6.m4a,,,
,,,,,38258,2021-06-07_17h38.17.002,judgeSpeechMusic_20210519_logNormShiftAmp_mXs,2020.1.2,MacIntel,60,,,,,,,,,,,,,,,,,,,,,,,,,,1,6.4208,,0,0,7,7,84,1,stimuli/stim_20210519_power2amp/equal_lnn_AM2.5Hz_s45_40.m4a,,,
,,,,,38258,2021-06-07_17h38.17.002,judgeSpeechMusic_20210519_logNormShiftAmp_mXs,2020.1.2,MacIntel,60,,,,,,,,,,,,,,,,,,,,,,,,,,2,5.8724,,0,0,8,8,70,1,stimuli/stim_20210519_power2amp/equal_lnn_AM2.5Hz_s35_45.m4a,,,
,,,,,38258,2021-06-07_17h38.17.002,judgeSpeechMusic_20210519_logNormShiftAmp_mXs,2020.1.2,MacIntel,60,,,,,,,,,,,,,,,,,,,,,,,,,,2,6.7715,,0,0,9,9,86,1,stimuli/stim_20210519_power2amp/equal_lnn_AM2.5Hz_s45_33.m4a,,,
,,,,,38258,2021-06-07_17h38.17.002,judgeSpeechMusic_20210519_logNormShiftAmp_mXs,2020.1.2,MacIntel,60,,,,,,,,,,,,,,,,,,,,,,,,,,1,6.3031,,0,0,10,10,3,1,stimuli/stim_20210519_power2amp/equal_lnn_AM1Hz_s15_33.m4a,,,
,,,,,38258,2021-06-07_17h38.17.002,judgeSpeechMusic_20210519_logNormShiftAmp_mXs,2020.1.2,MacIntel,60,,,,,,,,,,,,,,,,,,,,,,,,,,2,6.6058,,0,0,11,11,25,1,stimuli/stim_20210519_power2amp/equal_lnn_AM1Hz_s35_12.m4a,,,
,,,,,38258,2021-06-07_17h38.17.002,judgeSpeechMusic_20210519_logNormShiftAmp_mXs,2020.1.2,MacIntel,60,,,,,,,,,,,,,,,,,,,,,,,,,,2,6.505,,0,0,12,12,14,1,stimuli/stim_20210519_power2amp/equal_lnn_AM1Hz_s25_15.m4a,,,
,,,,,38258,2021-06-07_17h38.17.002,judgeSpeechMusic_20210519_logNormShiftAmp_mXs,2020.1.2,MacIntel,60,,,,,,,,,,,,,,,,,,,,,,,,,,1,5.8891,,0,0,13,13,57,1,stimuli/stim_20210519_power2amp/equal_lnn_AM2.5Hz_s15_33.m4a,,,
,,,,,38258,2021-06-07_17h38.17.002,judgeSpeechMusic_20210519_logNormShiftAmp_mXs,2020.1.2,MacIntel,60,,,,,,,,,,,,,,,,,,,,,,,,,,2,6.0456,,0,0,14,14,15,1,stimuli/stim_20210519_power2amp/equal_lnn_AM1Hz_s25_18.m4a,,,
,,,,,38258,2021-06-07_17h38.17.002,judgeSpeechMusic_20210519_logNormShiftAmp_mXs,2020.1.2,MacIntel,60,,,,,,,,,,,,,,,,,,,,,,,,,,2,5.8546,,0,0,15,15,26,1,stimuli/stim_20210519_power2amp/equal_lnn_AM1Hz_s35_3.m4a,,,
,,,,,38258,2021-06-07_17h38.17.002,judgeSpeechMusic_20210519_logNormShiftAmp_mXs,2020.1.2,MacIntel,60,,,,,,,,,,,,,,,,,,,,,,,,,,1,5.7275,,0,0,16,16,105,1,stimuli/stim_20210519_power2amp/equal_lnn_AM4Hz_s15_35.m4a,,,
,,,,,38258,2021-06-07_17h38.17.002,judgeSpeechMusic_20210519_logNormShiftAmp_mXs,2020.1.2,MacIntel,60,,,,,,,,,,,,,,,,,,,,,,,,,,2,6.0405,,0,0,17,17,31,1,stimuli/stim_20210519_power2amp/equal_lnn_AM1Hz_s45_46.m4a,,,
,,,,,38258,2021-06-07_17h38.17.002,judgeSpeechMusic_20210519_logNormShiftAmp_mXs,2020.1.2,MacIntel,60,,,,,,,,,,,,,,,,,,,,,,,,,,1,5.6225,,0,0,18,18,133,1,stimuli/stim_20210519_power2amp/equal_lnn_AM4Hz_s45_44.m4a,,,
,,,,,38258,2021-06-07_17h38.17.002,judgeSpeechMusic_20210519_logNormShiftAmp_mXs,2020.1.2,MacIntel,60,,,,,,,,,,,,,,,,,,,,,,,,,,1,5.9906,,0,0,19,19,118,1,stimuli/stim_20210519_power2amp/equal_lnn_AM4Hz_s25_50.m4a,,,
,,,,,38258,2021-06-07_17h38.17.002,judgeSpeechMusic_20210519_logNormShiftAmp_mXs,2020.1.2,MacIntel,60,,,,,,,,,,,,,,,,,,,,,,,,,,2,6.1048,,0,0,20,20,85,1,stimuli/stim_20210519_power2amp/equal_lnn_AM2.5Hz_s45_43.m4a,,,
,,,,,38258,2021-06-07_17h38.17.002,judgeSpeechMusic_20210519_logNormShiftAmp_mXs,2020.1.2,MacIntel,60,,,,,,,,,,,,,,,,,,,,,,,,,,1,6.4714,,0,0,21,21,95,1,stimuli/stim_20210519_power2amp/equal_lnn_AM2.5Hz_s55_50.m4a,,,
,,,,,38258,2021-06-07_17h38.17.002,judgeSpeechMusic_20210519_logNormShiftAmp_mXs,2020.1.2,MacIntel,60,,,,,,,,,,,,,,,,,,,,,,,,,,1,6.4632,,0,0,22,22,7,1,stimuli/stim_20210519_power2amp/equal_lnn_AM1Hz_s15_32.m4a,,,
,,,,,38258,2021-06-07_17h38.17.002,judgeSpeechMusic_20210519_logNormShiftAmp_mXs,2020.1.2,MacIntel,60,,,,,,,,,,,,,,,,,,,,,,,,,,1,5.7551,,0,0,23,23,2,1,stimuli/stim_20210519_power2amp/equal_lnn_AM1Hz_s15_29.m4a,,,
,,,,,38258,2021-06-07_17h38.17.002,judgeSpeechMusic_20210519_logNormShiftAmp_mXs,2020.1.2,MacIntel,60,,,,,,,,,,,,,,,,,,,,,,,,,,1,6.1044,,0,0,24,24,99,1,stimuli/stim_20210519_power2amp/equal_lnn_AM2.5Hz_s55_23.m4a,,,
,,,,,38258,2021-06-07_17h38.17.002,judgeSpeechMusic_20210519_logNormShiftAmp_mXs,2020.1.2,MacIntel,60,,,,,,,,,,,,,,,,,,,,,,,,,,1,6.0049,,0,0,25,25,90,1,stimuli/stim_20210519_power2amp/equal_lnn_AM2.5Hz_s55_33.m4a,,,
,,,,,38258,2021-06-07_17h38.17.002,judgeSpeechMusic_20210519_logNormShiftAmp_mXs,2020.1.2,MacIntel,60,,,,,,,,,,,,,,,,,,,,,,,,,,1,5.8961,,0,0,26,26,127,1,stimuli/stim_20210519_power2amp/equal_lnn_AM4Hz_s35_6.m4a,,,
,,,,,38258,2021-06-07_17h38.17.002,judgeSpeechMusic_20210519_logNormShiftAmp_mXs,2020.1.2,MacIntel,60,,,,,,,,,,,,,,,,,,,,,,,,,,2,5.71,,0,0,27,27,45,1,stimuli/stim_20210519_power2amp/equal_lnn_AM1Hz_s55_9.m4a,,,
,,,,,38258,2021-06-07_17h38.17.002,judgeSpeechMusic_20210519_logNormShiftAmp_mXs,2020.1.2,MacIntel,60,,,,,,,,,,,,,,,,,,,,,,,,,,1,6.1401,,0,0,28,28,138,1,stimuli/stim_20210519_power2amp/equal_lnn_AM4Hz_s45_31.m4a,,,
,,,,,38258,2021-06-07_17h38.17.002,judgeSpeechMusic_20210519_logNormShiftAmp_mXs,2020.1.2,MacIntel,60,,,,,,,,,,,,,,,,,,,,,,,,,,1,5.6078,,0,0,29,29,149,1,stimuli/stim_20210519_power2amp/equal_lnn_AM4Hz_s55_25.m4a,,,
,,,,,38258,2021-06-07_17h38.17.002,judgeSpeechMusic_20210519_logNormShiftAmp_mXs,2020.1.2,MacIntel,60,,,,,,,,,,,,,,,,,,,,,,,,,,1,6.5723,,0,0,30,30,27,1,stimuli/stim_20210519_power2amp/equal_lnn_AM1Hz_s35_10.m4a,,,
,,,,,38258,2021-06-07_17h38.17.002,judgeSpeechMusic_20210519_logNormShiftAmp_mXs,2020.1.2,MacIntel,60,,,,,,,,,,,,,,,,,,,,,,,,,,2,6.0873,,0,0,31,31,104,1,stimuli/stim_20210519_power2amp/equal_lnn_AM4Hz_s15_34.m4a,,,
,,,,,38258,2021-06-07_17h38.17.002,judgeSpeechMusic_20210519_logNormShiftAmp_mXs,2020.1.2,MacIntel,60,,,,,,,,,,,,,,,,,,,,,,,,,,1,5.6387,,0,0,32,32,128,1,stimuli/stim_20210519_power2amp/equal_lnn_AM4Hz_s35_30.m4a,,,
,,,,,38258,2021-06-07_17h38.17.002,judgeSpeechMusic_20210519_logNormShiftAmp_mXs,2020.1.2,MacIntel,60,,,,,,,,,,,,,,,,,,,,,,,,,,2,5.6885,,0,0,33,33,147,1,stimuli/stim_20210519_power2amp/equal_lnn_AM4Hz_s55_12.m4a,,,
,,,,,38258,2021-06-07_17h38.17.002,judgeSpeechMusic_20210519_logNormShiftAmp_mXs,2020.1.2,MacIntel,60,,,,,,,,,,,,,,,,,,,,,,,,,,1,5.7225,,0,0,34,34,37,1,stimuli/stim_20210519_power2amp/equal_lnn_AM1Hz_s45_23.m4a,,,
,,,,,38258,2021-06-07_17h38.17.002,judgeSpeechMusic_20210519_logNormShiftAmp_mXs,2020.1.2,MacIntel,60,,,,,,,,,,,,,,,,,,,,,,,,,,2,5.9399,,0,0,35,35,32,1,stimuli/stim_20210519_power2amp/equal_lnn_AM1Hz_s45_14.m4a,,,
,,,,,38258,2021-06-07_17h38.17.002,judgeSpeechMusic_20210519_logNormShiftAmp_mXs,2020.1.2,MacIntel,60,,,,,,,,,,,,,,,,,,,,,,,,,,2,7.2719,,0,0,36,36,40,1,stimuli/stim_20210519_power2amp/equal_lnn_AM1Hz_s55_32.m4a,,,
,,,,,38258,2021-06-07_17h38.17.002,judgeSpeechMusic_20210519_logNormShiftAmp_mXs,2020.1.2,MacIntel,60,,,,,,,,,,,,,,,,,,,,,,,,,,2,6.6538,,0,0,37,37,43,1,stimuli/stim_20210519_power2amp/equal_lnn_AM1Hz_s55_45.m4a,,,
,,,,,38258,2021-06-07_17h38.17.002,judgeSpeechMusic_20210519_logNormShiftAmp_mXs,2020.1.2,MacIntel,60,,,,,,,,,,,,,,,,,,,,,,,,,,2,6.689,,0,0,38,38,42,1,stimuli/stim_20210519_power2amp/equal_lnn_AM1Hz_s55_26.m4a,,,
,,,,,38258,2021-06-07_17h38.17.002,judgeSpeechMusic_20210519_logNormShiftAmp_mXs,2020.1.2,MacIntel,60,,,,,,,,,,,,,,,,,,,,,,,,,,1,7.7862,4,1,0,39,39,30,1,stimuli/stim_20210519_power2amp/equal_lnn_AM1Hz_s45_11.m4a,1.5882,,
,,,,,38258,2021-06-07_17h38.17.002,judgeSpeechMusic_20210519_logNormShiftAmp_mXs,2020.1.2,MacIntel,60,,,,,,,,,,,,,,,,,,,,,,,,,,1,5.862,,0,0,40,40,1,1,stimuli/stim_20210519_power2amp/equal_lnn_AM1Hz_s15_35.m4a,,,
,,,,,38258,2021-06-07_17h38.17.002,judgeSpeechMusic_20210519_logNormShiftAmp_mXs,2020.1.2,MacIntel,60,,,,,,,,,,,,,,,,,,,,,,,,,,2,6.1865,,0,0,41,41,55,1,stimuli/stim_20210519_power2amp/equal_lnn_AM2.5Hz_s15_26.m4a,,,
,,,,,38258,2021-06-07_17h38.17.002,judgeSpeechMusic_20210519_logNormShiftAmp_mXs,2020.1.2,MacIntel,60,,,,,,,,,,,,,,,,,,,,,,,,,,1,6.4758,,0,0,42,42,19,1,stimuli/stim_20210519_power2amp/equal_lnn_AM1Hz_s25_12.m4a,,,
,,,,,38258,2021-06-07_17h38.17.002,judgeSpeechMusic_20210519_logNormShiftAmp_mXs,2020.1.2,MacIntel,60,,,,,,,,,,,,,,,,,,,,,,,,,,1,5.6556,,0,0,43,43,11,1,stimuli/stim_20210519_power2amp/equal_lnn_AM1Hz_s25_2.m4a,,,
,,,,,38258,2021-06-07_17h38.17.002,judgeSpeechMusic_20210519_logNormShiftAmp_mXs,2020.1.2,MacIntel,60,,,,,,,,,,,,,,,,,,,,,,,,,,2,5.6084,,0,0,44,44,80,1,stimuli/stim_20210519_power2amp/equal_lnn_AM2.5Hz_s45_17.m4a,,,
,,,,,38258,2021-06-07_17h38.17.002,judgeSpeechMusic_20210519_logNormShiftAmp_mXs,2020.1.2,MacIntel,60,,,,,,,,,,,,,,,,,,,,,,,,,,1,6.706,,0,0,45,45,92,1,stimuli/stim_20210519_power2amp/equal_lnn_AM2.5Hz_s55_16.m4a,,,
,,,,,38258,2021-06-07_17h38.17.002,judgeSpeechMusic_20210519_logNormShiftAmp_mXs,2020.1.2,MacIntel,60,,,,,,,,,,,,,,,,,,,,,,,,,,1,5.845,,0,0,46,46,50,1,stimuli/stim_20210519_power2amp/equal_lnn_AM2.5Hz_s15_14.m4a,,,
,,,,,38258,2021-06-07_17h38.17.002,judgeSpeechMusic_20210519_logNormShiftAmp_mXs,2020.1.2,MacIntel,60,,,,,,,,,,,,,,,,,,,,,,,,,,2,6.419,,0,0,47,47,36,1,stimuli/stim_20210519_power2amp/equal_lnn_AM1Hz_s45_2.m4a,,,
,,,,,38258,2021-06-07_17h38.17.002,judgeSpeechMusic_20210519_logNormShiftAmp_mXs,2020.1.2,MacIntel,60,,,,,,,,,,,,,,,,,,,,,,,,,,1,6.1899,,0,0,48,48,22,1,stimuli/stim_20210519_power2amp/equal_lnn_AM1Hz_s35_36.m4a,,,
,,,,,38258,2021-06-07_17h38.17.002,judgeSpeechMusic_20210519_logNormShiftAmp_mXs,2020.1.2,MacIntel,60,,,,,,,,,,,,,,,,,,,,,,,,,,1,5.653,,0,0,49,49,148,1,stimuli/stim_20210519_power2amp/equal_lnn_AM4Hz_s55_46.m4a,,,
,,,,,38258,2021-06-07_17h38.17.002,judgeSpeechMusic_20210519_logNormShiftAmp_mXs,2020.1.2,MacIntel,60,,,,,,,,,,,,,,,,,,,,,,,,,,1,6.5742,,0,0,50,50,4,1,stimuli/stim_20210519_power2amp/equal_lnn_AM1Hz_s15_47.m4a,,,
,,,,,38258,2021-06-07_17h38.17.002,judgeSpeechMusic_20210519_logNormShiftAmp_mXs,2020.1.2,MacIntel,60,,,,,,,,,,,,,,,,,,,,,,,,,,2,7.2754,,0,0,51,51,131,1,stimuli/stim_20210519_power2amp/equal_lnn_AM4Hz_s45_17.m4a,,,
,,,,,38258,2021-06-07_17h38.17.002,judgeSpeechMusic_20210519_logNormShiftAmp_mXs,2020.1.2,MacIntel,60,,,,,,,,,,,,,,,,,,,,,,,,,,2,6.4711,,0,0,52,52,61,1,stimuli/stim_20210519_power2amp/equal_lnn_AM2.5Hz_s25_45.m4a,,,
,,,,,38258,2021-06-07_17h38.17.002,judgeSpeechMusic_20210519_logNormShiftAmp_mXs,2020.1.2,MacIntel,60,,,,,,,,,,,,,,,,,,,,,,,,,,1,5.6219,,0,0,53,53,16,1,stimuli/stim_20210519_power2amp/equal_lnn_AM1Hz_s25_22.m4a,,,
,,,,,38258,2021-06-07_17h38.17.002,judgeSpeechMusic_20210519_logNormShiftAmp_mXs,2020.1.2,MacIntel,60,,,,,,,,,,,,,,,,,,,,,,,,,,2,5.8803,,0,0,54,54,56,1,stimuli/stim_20210519_power2amp/equal_lnn_AM2.5Hz_s15_50.m4a,,,
,,,,,38258,2021-06-07_17h38.17.002,judgeSpeechMusic_20210519_logNormShiftAmp_mXs,2020.1.2,MacIntel,60,,,,,,,,,,,,,,,,,,,,,,,,,,1,7.2598,,0,0,55,55,121,1,stimuli/stim_20210519_power2amp/equal_lnn_AM4Hz_s35_13.m4a,,,
,,,,,38258,2021-06-07_17h38.17.002,judgeSpeechMusic_20210519_logNormShiftAmp_mXs,2020.1.2,MacIntel,60,,,,,,,,,,,,,,,,,,,,,,,,,,1,6.9218,,0,0,56,56,79,1,stimuli/stim_20210519_power2amp/equal_lnn_AM2.5Hz_s35_16.m4a,,,
,,,,,38258,2021-06-07_17h38.17.002,judgeSpeechMusic_20210519_logNormShiftAmp_mXs,2020.1.2,MacIntel,60,,,,,,,,,,,,,,,,,,,,,,,,,,1,7.7404,,0,0,57,57,24,1,stimuli/stim_20210519_power2amp/equal_lnn_AM1Hz_s35_18.m4a,,,
,,,,,38258,2021-06-07_17h38.17.002,judgeSpeechMusic_20210519_logNormShiftAmp_mXs,2020.1.2,MacIntel,60,,,,,,,,,,,,,,,,,,,,,,,,,,2,7.1376,,0,0,58,58,101,1,stimuli/stim_20210519_power2amp/equal_lnn_AM4Hz_s15_19.m4a,,,
,,,,,38258,2021-06-07_17h38.17.002,judgeSpeechMusic_20210519_logNormShiftAmp_mXs,2020.1.2,MacIntel,60,,,,,,,,,,,,,,,,,,,,,,,,,,2,5.5384,,0,0,59,59,68,1,stimuli/stim_20210519_power2amp/equal_lnn_AM2.5Hz_s25_37.m4a,,,
,,,,,38258,2021-06-07_17h38.17.002,judgeSpeechMusic_20210519_logNormShiftAmp_mXs,2020.1.2,MacIntel,60,,,,,,,,,,,,,,,,,,,,,,,,,,2,5.5623,4,1,0,60,60,47,1,stimuli/stim_20210519_power2amp/equal_lnn_AM1Hz_s55_31.m4a,1.2252,,
,,,,,38258,2021-06-07_17h38.17.002,judgeSpeechMusic_20210519_logNormShiftAmp_mXs,2020.1.2,MacIntel,60,,,,,,,,,,,,,,,,,,,,,,,,,,1,5.7538,,0,0,61,61,8,1,stimuli/stim_20210519_power2amp/equal_lnn_AM1Hz_s15_25.m4a,,,
,,,,,38258,2021-06-07_17h38.17.002,judgeSpeechMusic_20210519_logNormShiftAmp_mXs,2020.1.2,MacIntel,60,,,,,,,,,,,,,,,,,,,,,,,,,,1,5.4531,,0,0,62,62,116,1,stimuli/stim_20210519_power2amp/equal_lnn_AM4Hz_s25_41.m4a,,,
,,,,,38258,2021-06-07_17h38.17.002,judgeSpeechMusic_20210519_logNormShiftAmp_mXs,2020.1.2,MacIntel,60,,,,,,,,,,,,,,,,,,,,,,,,,,1,6.2099,,0,0,63,63,65,1,stimuli/stim_20210519_power2amp/equal_lnn_AM2.5Hz_s25_12.m4a,,,
,,,,,38258,2021-06-07_17h38.17.002,judgeSpeechMusic_20210519_logNormShiftAmp_mXs,2020.1.2,MacIntel,60,,,,,,,,,,,,,,,,,,,,,,,,,,2,6.3911,,0,0,64,64,93,1,stimuli/stim_20210519_power2amp/equal_lnn_AM2.5Hz_s55_31.m4a,,,
,,,,,38258,2021-06-07_17h38.17.002,judgeSpeechMusic_20210519_logNormShiftAmp_mXs,2020.1.2,MacIntel,60,,,,,,,,,,,,,,,,,,,,,,,,,,1,6.0094,,0,0,65,65,71,1,stimuli/stim_20210519_power2amp/equal_lnn_AM2.5Hz_s35_15.m4a,,,
,,,,,38258,2021-06-07_17h38.17.002,judgeSpeechMusic_20210519_logNormShiftAmp_mXs,2020.1.2,MacIntel,60,,,,,,,,,,,,,,,,,,,,,,,,,,1,5.5726,,0,0,66,66,136,1,stimuli/stim_20210519_power2amp/equal_lnn_AM4Hz_s45_47.m4a,,,
,,,,,38258,2021-06-07_17h38.17.002,judgeSpeechMusic_20210519_logNormShiftAmp_mXs,2020.1.2,MacIntel,60,,,,,,,,,,,,,,,,,,,,,,,,,,2,5.8227,,0,0,67,67,106,1,stimuli/stim_20210519_power2amp/equal_lnn_AM4Hz_s15_17.m4a,,,
,,,,,38258,2021-06-07_17h38.17.002,judgeSpeechMusic_20210519_logNormShiftAmp_mXs,2020.1.2,MacIntel,60,,,,,,,,,,,,,,,,,,,,,,,,,,1,5.5273,,0,0,68,68,135,1,stimuli/stim_20210519_power2amp/equal_lnn_AM4Hz_s45_9.m4a,,,
,,,,,38258,2021-06-07_17h38.17.002,judgeSpeechMusic_20210519_logNormShiftAmp_mXs,2020.1.2,MacIntel,60,,,,,,,,,,,,,,,,,,,,,,,,,,1,5.6878,,0,0,69,69,67,1,stimuli/stim_20210519_power2amp/equal_lnn_AM2.5Hz_s25_32.m4a,,,
,,,,,38258,2021-06-07_17h38.17.002,judgeSpeechMusic_20210519_logNormShiftAmp_mXs,2020.1.2,MacIntel,60,,,,,,,,,,,,,,,,,,,,,,,,,,1,5.6063,,0,0,70,70,21,1,stimuli/stim_20210519_power2amp/equal_lnn_AM1Hz_s35_11.m4a,,,
,,,,,38258,2021-06-07_17h38.17.002,judgeSpeechMusic_20210519_logNormShiftAmp_mXs,2020.1.2,MacIntel,60,,,,,,,,,,,,,,,,,,,,,,,,,,1,6.404,,0,0,71,71,137,1,stimuli/stim_20210519_power2amp/equal_lnn_AM4Hz_s45_5.m4a,,,
,,,,,38258,2021-06-07_17h38.17.002,judgeSpeechMusic_20210519_logNormShiftAmp_mXs,2020.1.2,MacIntel,60,,,,,,,,,,,,,,,,,,,,,,,,,,2,6.1888,,0,0,72,72,59,1,stimuli/stim_20210519_power2amp/equal_lnn_AM2.5Hz_s15_47.m4a,,,
,,,,,38258,2021-06-07_17h38.17.002,judgeSpeechMusic_20210519_logNormShiftAmp_mXs,2020.1.2,MacIntel,60,,,,,,,,,,,,,,,,,,,,,,,,,,1,5.6422,,0,0,73,73,39,1,stimuli/stim_20210519_power2amp/equal_lnn_AM1Hz_s45_37.m4a,,,
,,,,,38258,2021-06-07_17h38.17.002,judgeSpeechMusic_20210519_logNormShiftAmp_mXs,2020.1.2,MacIntel,60,,,,,,,,,,,,,,,,,,,,,,,,,,1,6.0128,,0,0,74,74,108,1,stimuli/stim_20210519_power2amp/equal_lnn_AM4Hz_s15_46.m4a,,,
,,,,,38258,2021-06-07_17h38.17.002,judgeSpeechMusic_20210519_logNormShiftAmp_mXs,2020.1.2,MacIntel,60,,,,,,,,,,,,,,,,,,,,,,,,,,2,6.0689,,0,0,75,75,60,1,stimuli/stim_20210519_power2amp/equal_lnn_AM2.5Hz_s25_1.m4a,,,
,,,,,38258,2021-06-07_17h38.17.002,judgeSpeechMusic_20210519_logNormShiftAmp_mXs,2020.1.2,MacIntel,60,,,,,,,,,,,,,,,,,,,,,,,,,,2,6.3223,,0,0,76,76,72,1,stimuli/stim_20210519_power2amp/equal_lnn_AM2.5Hz_s35_48.m4a,,,
,,,,,38258,2021-06-07_17h38.17.002,judgeSpeechMusic_20210519_logNormShiftAmp_mXs,2020.1.2,MacIntel,60,,,,,,,,,,,,,,,,,,,,,,,,,,1,5.6562,,0,0,77,77,112,1,stimuli/stim_20210519_power2amp/equal_lnn_AM4Hz_s25_13.m4a,,,
,,,,,38258,2021-06-07_17h38.17.002,judgeSpeechMusic_20210519_logNormShiftAmp_mXs,2020.1.2,MacIntel,60,,,,,,,,,,,,,,,,,,,,,,,,,,1,5.6544,,0,0,78,78,100,1,stimuli/stim_20210519_power2amp/equal_lnn_AM4Hz_s15_44.m4a,,,
,,,,,38258,2021-06-07_17h38.17.002,judgeSpeechMusic_20210519_logNormShiftAmp_mXs,2020.1.2,MacIntel,60,,,,,,,,,,,,,,,,,,,,,,,,,,1,5.8048,,0,0,79,79,129,1,stimuli/stim_20210519_power2amp/equal_lnn_AM4Hz_s35_11.m4a,,,
,,,,,38258,2021-06-07_17h38.17.002,judgeSpeechMusic_20210519_logNormShiftAmp_mXs,2020.1.2,MacIntel,60,,,,,,,,,,,,,,,,,,,,,,,,,,2,5.5549,,0,0,80,80,66,1,stimuli/stim_20210519_power2amp/equal_lnn_AM2.5Hz_s25_23.m4a,,,
,,,,,38258,2021-06-07_17h38.17.002,judgeSpeechMusic_20210519_logNormShiftAmp_mXs,2020.1.2,MacIntel,60,,,,,,,,,,,,,,,,,,,,,,,,,,1,6.0383,2,1,0,81,81,122,1,stimuli/stim_20210519_power2amp/equal_lnn_AM4Hz_s35_40.m4a,0.7088,,
,,,,,38258,2021-06-07_17h38.17.002,judgeSpeechMusic_20210519_logNormShiftAmp_mXs,2020.1.2,MacIntel,60,,,,,,,,,,,,,,,,,,,,,,,,,,1,5.6886,,0,0,82,82,142,1,stimuli/stim_20210519_power2amp/equal_lnn_AM4Hz_s55_20.m4a,,,
,,,,,38258,2021-06-07_17h38.17.002,judgeSpeechMusic_20210519_logNormShiftAmp_mXs,2020.1.2,MacIntel,60,,,,,,,,,,,,,,,,,,,,,,,,,,2,6.557,,0,0,83,83,73,1,stimuli/stim_20210519_power2amp/equal_lnn_AM2.5Hz_s35_42.m4a,,,
,,,,,38258,2021-06-07_17h38.17.002,judgeSpeechMusic_20210519_logNormShiftAmp_mXs,2020.1.2,MacIntel,60,,,,,,,,,,,,,,,,,,,,,,,,,,1,5.822,,0,0,84,84,23,1,stimuli/stim_20210519_power2amp/equal_lnn_AM1Hz_s35_32.m4a,,,
,,,,,38258,2021-06-07_17h38.17.002,judgeSpeechMusic_20210519_logNormShiftAmp_mXs,2020.1.2,MacIntel,60,,,,,,,,,,,,,,,,,,,,,,,,,,1,5.5912,,0,0,85,85,132,1,stimuli/stim_20210519_power2amp/equal_lnn_AM4Hz_s45_32.m4a,,,
,,,,,38258,2021-06-07_17h38.17.002,judgeSpeechMusic_20210519_logNormShiftAmp_mXs,2020.1.2,MacIntel,60,,,,,,,,,,,,,,,,,,,,,,,,,,1,5.6721,,0,0,86,86,35,1,stimuli/stim_20210519_power2amp/equal_lnn_AM1Hz_s45_18.m4a,,,
,,,,,38258,2021-06-07_17h38.17.002,judgeSpeechMusic_20210519_logNormShiftAmp_mXs,2020.1.2,MacIntel,60,,,,,,,,,,,,,,,,,,,,,,,,,,1,6.0046,,0,0,87,87,146,1,stimuli/stim_20210519_power2amp/equal_lnn_AM4Hz_s55_41.m4a,,,
,,,,,38258,2021-06-07_17h38.17.002,judgeSpeechMusic_20210519_logNormShiftAmp_mXs,2020.1.2,MacIntel,60,,,,,,,,,,,,,,,,,,,,,,,,,,2,6.0906,,0,0,88,88,113,1,stimuli/stim_20210519_power2amp/equal_lnn_AM4Hz_s25_20.m4a,,,
,,,,,38258,2021-06-07_17h38.17.002,judgeSpeechMusic_20210519_logNormShiftAmp_mXs,2020.1.2,MacIntel,60,,,,,,,,,,,,,,,,,,,,,,,,,,2,6.0207,,0,0,89,89,110,1,stimuli/stim_20210519_power2amp/equal_lnn_AM4Hz_s25_28.m4a,,,
,,,,,38258,2021-06-07_17h38.17.002,judgeSpeechMusic_20210519_logNormShiftAmp_mXs,2020.1.2,MacIntel,60,,,,,,,,,,,,,,,,,,,,,,,,,,1,5.9904,,0,0,90,90,28,1,stimuli/stim_20210519_power2amp/equal_lnn_AM1Hz_s35_35.m4a,,,
,,,,,38258,2021-06-07_17h38.17.002,judgeSpeechMusic_20210519_logNormShiftAmp_mXs,2020.1.2,MacIntel,60,,,,,,,,,,,,,,,,,,,,,,,,,,2,5.7381,,0,0,91,91,58,1,stimuli/stim_20210519_power2amp/equal_lnn_AM2.5Hz_s15_19.m4a,,,
,,,,,38258,2021-06-07_17h38.17.002,judgeSpeechMusic_20210519_logNormShiftAmp_mXs,2020.1.2,MacIntel,60,,,,,,,,,,,,,,,,,,,,,,,,,,2,6.075,,0,0,92,92,114,1,stimuli/stim_20210519_power2amp/equal_lnn_AM4Hz_s25_5.m4a,,,
,,,,,38258,2021-06-07_17h38.17.002,judgeSpeechMusic_20210519_logNormShiftAmp_mXs,2020.1.2,MacIntel,60,,,,,,,,,,,,,,,,,,,,,,,,,,2,6.8768,,0,0,93,93,119,1,stimuli/stim_20210519_power2amp/equal_lnn_AM4Hz_s25_46.m4a,,,
,,,,,38258,2021-06-07_17h38.17.002,judgeSpeechMusic_20210519_logNormShiftAmp_mXs,2020.1.2,MacIntel,60,,,,,,,,,,,,,,,,,,,,,,,,,,1,6.688,,0,0,94,94,91,1,stimuli/stim_20210519_power2amp/equal_lnn_AM2.5Hz_s55_41.m4a,,,
,,,,,38258,2021-06-07_17h38.17.002,judgeSpeechMusic_20210519_logNormShiftAmp_mXs,2020.1.2,MacIntel,60,,,,,,,,,,,,,,,,,,,,,,,,,,2,6.8576,,0,0,95,95,81,1,stimuli/stim_20210519_power2amp/equal_lnn_AM2.5Hz_s45_38.m4a,,,
,,,,,38258,2021-06-07_17h38.17.002,judgeSpeechMusic_20210519_logNormShiftAmp_mXs,2020.1.2,MacIntel,60,,,,,,,,,,,,,,,,,,,,,,,,,,2,7.1199,,0,0,96,96,145,1,stimuli/stim_20210519_power2amp/equal_lnn_AM4Hz_s55_4.m4a,,,
,,,,,38258,2021-06-07_17h38.17.002,judgeSpeechMusic_20210519_logNormShiftAmp_mXs,2020.1.2,MacIntel,60,,,,,,,,,,,,,,,,,,,,,,,,,,2,6.9876,,0,0,97,97,97,1,stimuli/stim_20210519_power2amp/equal_lnn_AM2.5Hz_s55_28.m4a,,,
,,,,,38258,2021-06-07_17h38.17.002,judgeSpeechMusic_20210519_logNormShiftAmp_mXs,2020.1.2,MacIntel,60,,,,,,,,,,,,,,,,,,,,,,,,,,1,5.8387,,0,0,98,98,96,1,stimuli/stim_20210519_power2amp/equal_lnn_AM2.5Hz_s55_9.m4a,,,
,,,,,38258,2021-06-07_17h38.17.002,judgeSpeechMusic_20210519_logNormShiftAmp_mXs,2020.1.2,MacIntel,60,,,,,,,,,,,,,,,,,,,,,,,,,,1,5.8703,,0,0,99,99,74,1,stimuli/stim_20210519_power2amp/equal_lnn_AM2.5Hz_s35_44.m4a,,,
,,,,,38258,2021-06-07_17h38.17.002,judgeSpeechMusic_20210519_logNormShiftAmp_mXs,2020.1.2,MacIntel,60,,,,,,,,,,,,,,,,,,,,,,,,,,1,5.7873,,0,0,100,100,98,1,stimuli/stim_20210519_power2amp/equal_lnn_AM2.5Hz_s55_2.m4a,,,
,,,,,38258,2021-06-07_17h38.17.002,judgeSpeechMusic_20210519_logNormShiftAmp_mXs,2020.1.2,MacIntel,60,,,,,,,,,,,,,,,,,,,,,,,,,,2,6.9548,,0,0,101,101,143,1,stimuli/stim_20210519_power2amp/equal_lnn_AM4Hz_s55_10.m4a,,,
,,,,,38258,2021-06-07_17h38.17.002,judgeSpeechMusic_20210519_logNormShiftAmp_mXs,2020.1.2,MacIntel,60,,,,,,,,,,,,,,,,,,,,,,,,,,1,6.5709,,0,0,102,102,9,1,stimuli/stim_20210519_power2amp/equal_lnn_AM1Hz_s15_43.m4a,,,
,,,,,38258,2021-06-07_17h38.17.002,judgeSpeechMusic_20210519_logNormShiftAmp_mXs,2020.1.2,MacIntel,60,,,,,,,,,,,,,,,,,,,,,,,,,,2,6.4593,,0,0,103,103,63,1,stimuli/stim_20210519_power2amp/equal_lnn_AM2.5Hz_s25_29.m4a,,,
,,,,,38258,2021-06-07_17h38.17.002,judgeSpeechMusic_20210519_logNormShiftAmp_mXs,2020.1.2,MacIntel,60,,,,,,,,,,,,,,,,,,,,,,,,,,1,5.5247,,0,0,104,104,17,1,stimuli/stim_20210519_power2amp/equal_lnn_AM1Hz_s25_35.m4a,,,
,,,,,38258,2021-06-07_17h38.17.002,judgeSpeechMusic_20210519_logNormShiftAmp_mXs,2020.1.2,MacIntel,60,,,,,,,,,,,,,,,,,,,,,,,,,,1,5.5604,,0,0,105,105,120,1,stimuli/stim_20210519_power2amp/equal_lnn_AM4Hz_s35_28.m4a,,,
,,,,,38258,2021-06-07_17h38.17.002,judgeSpeechMusic_20210519_logNormShiftAmp_mXs,2020.1.2,MacIntel,60,,,,,,,,,,,,,,,,,,,,,,,,,,2,5.8891,4,1,0,106,106,64,1,stimuli/stim_20210519_power2amp/equal_lnn_AM2.5Hz_s25_36.m4a,0.8802,,
,,,,,38258,2021-06-07_17h38.17.002,judgeSpeechMusic_20210519_logNormShiftAmp_mXs,2020.1.2,MacIntel,60,,,,,,,,,,,,,,,,,,,,,,,,,,1,5.5579,,0,0,107,107,126,1,stimuli/stim_20210519_power2amp/equal_lnn_AM4Hz_s35_16.m4a,,,
,,,,,38258,2021-06-07_17h38.17.002,judgeSpeechMusic_20210519_logNormShiftAmp_mXs,2020.1.2,MacIntel,60,,,,,,,,,,,,,,,,,,,,,,,,,,1,5.6054,,0,0,108,108,144,1,stimuli/stim_20210519_power2amp/equal_lnn_AM4Hz_s55_7.m4a,,,
,,,,,38258,2021-06-07_17h38.17.002,judgeSpeechMusic_20210519_logNormShiftAmp_mXs,2020.1.2,MacIntel,60,,,,,,,,,,,,,,,,,,,,,,,,,,1,5.6877,,0,0,109,109,10,1,stimuli/stim_20210519_power2amp/equal_lnn_AM1Hz_s25_21.m4a,,,
,,,,,38258,2021-06-07_17h38.17.002,judgeSpeechMusic_20210519_logNormShiftAmp_mXs,2020.1.2,MacIntel,60,,,,,,,,,,,,,,,,,,,,,,,,,,2,6.7437,,0,0,110,110,130,1,stimuli/stim_20210519_power2amp/equal_lnn_AM4Hz_s45_50.m4a,,,
,,,,,38258,2021-06-07_17h38.17.002,judgeSpeechMusic_20210519_logNormShiftAmp_mXs,2020.1.2,MacIntel,60,,,,,,,,,,,,,,,,,,,,,,,,,,1,5.5918,,0,0,111,111,78,1,stimuli/stim_20210519_power2amp/equal_lnn_AM2.5Hz_s35_6.m4a,,,
,,,,,38258,2021-06-07_17h38.17.002,judgeSpeechMusic_20210519_logNormShiftAmp_mXs,2020.1.2,MacIntel,60,,,,,,,,,,,,,,,,,,,,,,,,,,1,5.6062,,0,0,112,112,109,1,stimuli/stim_20210519_power2amp/equal_lnn_AM4Hz_s15_26.m4a,,,
,,,,,38258,2021-06-07_17h38.17.002,judgeSpeechMusic_20210519_logNormShiftAmp_mXs,2020.1.2,MacIntel,60,,,,,,,,,,,,,,,,,,,,,,,,,,1,5.5586,,0,0,113,113,18,1,stimuli/stim_20210519_power2amp/equal_lnn_AM1Hz_s25_42.m4a,,,
,,,,,38258,2021-06-07_17h38.17.002,judgeSpeechMusic_20210519_logNormShiftAmp_mXs,2020.1.2,MacIntel,60,,,,,,,,,,,,,,,,,,,,,,,,,,2,6.923,,0,0,114,114,77,1,stimuli/stim_20210519_power2amp/equal_lnn_AM2.5Hz_s35_33.m4a,,,
,,,,,38258,2021-06-07_17h38.17.002,judgeSpeechMusic_20210519_logNormShiftAmp_mXs,2020.1.2,MacIntel,60,,,,,,,,,,,,,,,,,,,,,,,,,,2,5.6065,,0,0,115,115,82,1,stimuli/stim_20210519_power2amp/equal_lnn_AM2.5Hz_s45_11.m4a,,,
,,,,,38258,2021-06-07_17h38.17.002,judgeSpeechMusic_20210519_logNormShiftAmp_mXs,2020.1.2,MacIntel,60,,,,,,,,,,,,,,,,,,,,,,,,,,2,7.57,,0,0,116,116,111,1,stimuli/stim_20210519_power2amp/equal_lnn_AM4Hz_s25_44.m4a,,,
,,,,,38258,2021-06-07_17h38.17.002,judgeSpeechMusic_20210519_logNormShiftAmp_mXs,2020.1.2,MacIntel,60,,,,,,,,,,,,,,,,,,,,,,,,,,1,6.3387,,0,0,117,117,48,1,stimuli/stim_20210519_power2amp/equal_lnn_AM1Hz_s55_16.m4a,,,
,,,,,38258,2021-06-07_17h38.17.002,judgeSpeechMusic_20210519_logNormShiftAmp_mXs,2020.1.2,MacIntel,60,,,,,,,,,,,,,,,,,,,,,,,,,,1,5.99,,0,0,118,118,20,1,stimuli/stim_20210519_power2amp/equal_lnn_AM1Hz_s35_27.m4a,,,
,,,,,38258,2021-06-07_17h38.17.002,judgeSpeechMusic_20210519_logNormShiftAmp_mXs,2020.1.2,MacIntel,60,,,,,,,,,,,,,,,,,,,,,,,,,,1,5.5542,,0,0,119,119,46,1,stimuli/stim_20210519_power2amp/equal_lnn_AM1Hz_s55_12.m4a,,,
,,,,,38258,2021-06-07_17h38.17.002,judgeSpeechMusic_20210519_logNormShiftAmp_mXs,2020.1.2,MacIntel,60,,,,,,,,,,,,,,,,,,,,,,,,,,2,6.4629,,0,0,120,120,87,1,stimuli/stim_20210519_power2amp/equal_lnn_AM2.5Hz_s45_32.m4a,,,
,,,,,38258,2021-06-07_17h38.17.002,judgeSpeechMusic_20210519_logNormShiftAmp_mXs,2020.1.2,MacIntel,60,,,,,,,,,,,,,,,,,,,,,,,,,,1,5.5553,,0,0,121,121,41,1,stimuli/stim_20210519_power2amp/equal_lnn_AM1Hz_s55_14.m4a,,,
,,,,,38258,2021-06-07_17h38.17.002,judgeSpeechMusic_20210519_logNormShiftAmp_mXs,2020.1.2,MacIntel,60,,,,,,,,,,,,,,,,,,,,,,,,,,1,6.1288,,0,0,122,122,124,1,stimuli/stim_20210519_power2amp/equal_lnn_AM4Hz_s35_46.m4a,,,
,,,,,38258,2021-06-07_17h38.17.002,judgeSpeechMusic_20210519_logNormShiftAmp_mXs,2020.1.2,MacIntel,60,,,,,,,,,,,,,,,,,,,,,,,,,,1,6.1203,,0,0,123,123,33,1,stimuli/stim_20210519_power2amp/equal_lnn_AM1Hz_s45_22.m4a,,,
,,,,,38258,2021-06-07_17h38.17.002,judgeSpeechMusic_20210519_logNormShiftAmp_mXs,2020.1.2,MacIntel,60,,,,,,,,,,,,,,,,,,,,,,,,,,2,5.874,,0,0,124,124,54,1,stimuli/stim_20210519_power2amp/equal_lnn_AM2.5Hz_s15_29.m4a,,,
,,,,,38258,2021-06-07_17h38.17.002,judgeSpeechMusic_20210519_logNormShiftAmp_mXs,2020.1.2,MacIntel,60,,,,,,,,,,,,,,,,,,,,,,,,,,2,5.8048,,0,0,125,125,53,1,stimuli/stim_20210519_power2amp/equal_lnn_AM2.5Hz_s15_42.m4a,,,
,,,,,38258,2021-06-07_17h38.17.002,judgeSpeechMusic_20210519_logNormShiftAmp_mXs,2020.1.2,MacIntel,60,,,,,,,,,,,,,,,,,,,,,,,,,,1,5.7283,,0,0,126,126,107,1,stimuli/stim_20210519_power2amp/equal_lnn_AM4Hz_s15_22.m4a,,,
,,,,,38258,2021-06-07_17h38.17.002,judgeSpeechMusic_20210519_logNormShiftAmp_mXs,2020.1.2,MacIntel,60,,,,,,,,,,,,,,,,,,,,,,,,,,1,5.7045,,0,0,127,127,0,1,stimuli/stim_20210519_power2amp/equal_lnn_AM1Hz_s15_22.m4a,,,
,,,,,38258,2021-06-07_17h38.17.002,judgeSpeechMusic_20210519_logNormShiftAmp_mXs,2020.1.2,MacIntel,60,,,,,,,,,,,,,,,,,,,,,,,,,,1,5.7365,4,1,0,128,128,12,1,stimuli/stim_20210519_power2amp/equal_lnn_AM1Hz_s25_9.m4a,0.5751,,
,,,,,38258,2021-06-07_17h38.17.002,judgeSpeechMusic_20210519_logNormShiftAmp_mXs,2020.1.2,MacIntel,60,,,,,,,,,,,,,,,,,,,,,,,,,,1,5.6081,,0,0,129,129,13,1,stimuli/stim_20210519_power2amp/equal_lnn_AM1Hz_s25_31.m4a,,,
,,,,,38258,2021-06-07_17h38.17.002,judgeSpeechMusic_20210519_logNormShiftAmp_mXs,2020.1.2,MacIntel,60,,,,,,,,,,,,,,,,,,,,,,,,,,2,5.8765,,0,0,130,130,51,1,stimuli/stim_20210519_power2amp/equal_lnn_AM2.5Hz_s15_49.m4a,,,
,,,,,38258,2021-06-07_17h38.17.002,judgeSpeechMusic_20210519_logNormShiftAmp_mXs,2020.1.2,MacIntel,60,,,,,,,,,,,,,,,,,,,,,,,,,,1,5.6387,,0,0,131,131,38,1,stimuli/stim_20210519_power2amp/equal_lnn_AM1Hz_s45_10.m4a,,,
,,,,,38258,2021-06-07_17h38.17.002,judgeSpeechMusic_20210519_logNormShiftAmp_mXs,2020.1.2,MacIntel,60,,,,,,,,,,,,,,,,,,,,,,,,,,1,5.6385,,0,0,132,132,141,1,stimuli/stim_20210519_power2amp/equal_lnn_AM4Hz_s55_33.m4a,,,
,,,,,38258,2021-06-07_17h38.17.002,judgeSpeechMusic_20210519_logNormShiftAmp_mXs,2020.1.2,MacIntel,60,,,,,,,,,,,,,,,,,,,,,,,,,,1,5.7551,,0,0,133,133,125,1,stimuli/stim_20210519_power2amp/equal_lnn_AM4Hz_s35_4.m4a,,,
,,,,,38258,2021-06-07_17h38.17.002,judgeSpeechMusic_20210519_logNormShiftAmp_mXs,2020.1.2,MacIntel,60,,,,,,,,,,,,,,,,,,,,,,,,,,2,6.2296,,0,0,134,134,76,1,stimuli/stim_20210519_power2amp/equal_lnn_AM2.5Hz_s35_30.m4a,,,
,,,,,38258,2021-06-07_17h38.17.002,judgeSpeechMusic_20210519_logNormShiftAmp_mXs,2020.1.2,MacIntel,60,,,,,,,,,,,,,,,,,,,,,,,,,,1,6.136,,0,0,135,135,34,1,stimuli/stim_20210519_power2amp/equal_lnn_AM1Hz_s45_49.m4a,,,
,,,,,38258,2021-06-07_17h38.17.002,judgeSpeechMusic_20210519_logNormShiftAmp_mXs,2020.1.2,MacIntel,60,,,,,,,,,,,,,,,,,,,,,,,,,,2,6.5541,,0,0,136,136,29,1,stimuli/stim_20210519_power2amp/equal_lnn_AM1Hz_s35_21.m4a,,,
,,,,,38258,2021-06-07_17h38.17.002,judgeSpeechMusic_20210519_logNormShiftAmp_mXs,2020.1.2,MacIntel,60,,,,,,,,,,,,,,,,,,,,,,,,,,1,6.3389,,0,0,137,137,44,1,stimuli/stim_20210519_power2amp/equal_lnn_AM1Hz_s55_20.m4a,,,
,,,,,38258,2021-06-07_17h38.17.002,judgeSpeechMusic_20210519_logNormShiftAmp_mXs,2020.1.2,MacIntel,60,,,,,,,,,,,,,,,,,,,,,,,,,,1,7.2037,,0,0,138,138,117,1,stimuli/stim_20210519_power2amp/equal_lnn_AM4Hz_s25_31.m4a,,,
,,,,,38258,2021-06-07_17h38.17.002,judgeSpeechMusic_20210519_logNormShiftAmp_mXs,2020.1.2,MacIntel,60,,,,,,,,,,,,,,,,,,,,,,,,,,2,5.862,,0,0,139,139,69,1,stimuli/stim_20210519_power2amp/equal_lnn_AM2.5Hz_s25_33.m4a,,,
,,,,,38258,2021-06-07_17h38.17.002,judgeSpeechMusic_20210519_logNormShiftAmp_mXs,2020.1.2,MacIntel,60,,,,,,,,,,,,,,,,,,,,,,,,,,1,6.1569,,0,0,140,140,140,1,stimuli/stim_20210519_power2amp/equal_lnn_AM4Hz_s55_5.m4a,,,
,,,,,38258,2021-06-07_17h38.17.002,judgeSpeechMusic_20210519_logNormShiftAmp_mXs,2020.1.2,MacIntel,60,,,,,,,,,,,,,,,,,,,,,,,,,,1,5.6888,,0,0,141,141,103,1,stimuli/stim_20210519_power2amp/equal_lnn_AM4Hz_s15_10.m4a,,,
,,,,,38258,2021-06-07_17h38.17.002,judgeSpeechMusic_20210519_logNormShiftAmp_mXs,2020.1.2,MacIntel,60,,,,,,,,,,,,,,,,,,,,,,,,,,2,6.361,,0,0,142,142,49,1,stimuli/stim_20210519_power2amp/equal_lnn_AM1Hz_s55_30.m4a,,,
,,,,,38258,2021-06-07_17h38.17.002,judgeSpeechMusic_20210519_logNormShiftAmp_mXs,2020.1.2,MacIntel,60,,,,,,,,,,,,,,,,,,,,,,,,,,2,5.545,,0,0,143,143,52,1,stimuli/stim_20210519_power2amp/equal_lnn_AM2.5Hz_s15_22.m4a,,,
,,,,,38258,2021-06-07_17h38.17.002,judgeSpeechMusic_20210519_logNormShiftAmp_mXs,2020.1.2,MacIntel,60,,,,,,,,,,,,,,,,,,,,,,,,,,1,6.4686,,0,0,144,144,83,1,stimuli/stim_20210519_power2amp/equal_lnn_AM2.5Hz_s45_12.m4a,,,
,,,,,38258,2021-06-07_17h38.17.002,judgeSpeechMusic_20210519_logNormShiftAmp_mXs,2020.1.2,MacIntel,60,,,,,,,,,,,,,,,,,,,,,,,,,,1,6.6386,,0,0,145,145,102,1,stimuli/stim_20210519_power2amp/equal_lnn_AM4Hz_s15_1.m4a,,,
,,,,,38258,2021-06-07_17h38.17.002,judgeSpeechMusic_20210519_logNormShiftAmp_mXs,2020.1.2,MacIntel,60,,,,,,,,,,,,,,,,,,,,,,,,,,2,5.9624,,0,0,146,146,115,1,stimuli/stim_20210519_power2amp/equal_lnn_AM4Hz_s25_17.m4a,,,
,,,,,38258,2021-06-07_17h38.17.002,judgeSpeechMusic_20210519_logNormShiftAmp_mXs,2020.1.2,MacIntel,60,,,,,,,,,,,,,,,,,,,,,,,,,,1,5.604,,0,0,147,147,134,1,stimuli/stim_20210519_power2amp/equal_lnn_AM4Hz_s45_8.m4a,,,
,,,,,38258,2021-06-07_17h38.17.002,judgeSpeechMusic_20210519_logNormShiftAmp_mXs,2020.1.2,MacIntel,60,,,,,,,,,,,,,,,,,,,,,,,,,,1,5.4247,,0,0,148,148,6,1,stimuli/stim_20210519_power2amp/equal_lnn_AM1Hz_s15_4.m4a,,,
,,,,,38258,2021-06-07_17h38.17.002,judgeSpeechMusic_20210519_logNormShiftAmp_mXs,2020.1.2,MacIntel,60,,,,,,,,,,,,,,,,,,,,,,,,,,2,5.5207,,0,0,149,149,62,1,stimuli/stim_20210519_power2amp/equal_lnn_AM2.5Hz_s25_17.m4a,,,
,,,,,38258,2021-06-07_17h38.17.002,judgeSpeechMusic_20210519_logNormShiftAmp_mXs,2020.1.2,MacIntel,60,,,,,,,,,,,,,,,,,,,,,,,,,,1,5.5751,,0,1,0,150,28,1,stimuli/stim_20210519_power2amp/equal_lnn_AM1Hz_s35_35.m4a,,,
,,,,,38258,2021-06-07_17h38.17.002,judgeSpeechMusic_20210519_logNormShiftAmp_mXs,2020.1.2,MacIntel,60,,,,,,,,,,,,,,,,,,,,,,,,,,1,5.5915,3,1,1,1,151,2,1,stimuli/stim_20210519_power2amp/equal_lnn_AM1Hz_s15_29.m4a,1.1085,,
,,,,,38258,2021-06-07_17h38.17.002,judgeSpeechMusic_20210519_logNormShiftAmp_mXs,2020.1.2,MacIntel,60,,,,,,,,,,,,,,,,,,,,,,,,,,2,6.3935,,0,1,2,152,92,1,stimuli/stim_20210519_power2amp/equal_lnn_AM2.5Hz_s55_16.m4a,,,
,,,,,38258,2021-06-07_17h38.17.002,judgeSpeechMusic_20210519_logNormShiftAmp_mXs,2020.1.2,MacIntel,60,,,,,,,,,,,,,,,,,,,,,,,,,,2,5.7699,,0,1,3,153,74,1,stimuli/stim_20210519_power2amp/equal_lnn_AM2.5Hz_s35_44.m4a,,,
,,,,,38258,2021-06-07_17h38.17.002,judgeSpeechMusic_20210519_logNormShiftAmp_mXs,2020.1.2,MacIntel,60,,,,,,,,,,,,,,,,,,,,,,,,,,2,6.1468,,0,1,4,154,68,1,stimuli/stim_20210519_power2amp/equal_lnn_AM2.5Hz_s25_37.m4a,,,
,,,,,38258,2021-06-07_17h38.17.002,judgeSpeechMusic_20210519_logNormShiftAmp_mXs,2020.1.2,MacIntel,60,,,,,,,,,,,,,,,,,,,,,,,,,,1,5.9539,,0,1,5,155,4,1,stimuli/stim_20210519_power2amp/equal_lnn_AM1Hz_s15_47.m4a,,,
,,,,,38258,2021-06-07_17h38.17.002,judgeSpeechMusic_20210519_logNormShiftAmp_mXs,2020.1.2,MacIntel,60,,,,,,,,,,,,,,,,,,,,,,,,,,1,5.8062,,0,1,6,156,118,1,stimuli/stim_20210519_power2amp/equal_lnn_AM4Hz_s25_50.m4a,,,
,,,,,38258,2021-06-07_17h38.17.002,judgeSpeechMusic_20210519_logNormShiftAmp_mXs,2020.1.2,MacIntel,60,,,,,,,,,,,,,,,,,,,,,,,,,,1,5.5224,,0,1,7,157,129,1,stimuli/stim_20210519_power2amp/equal_lnn_AM4Hz_s35_11.m4a,,,
,,,,,38258,2021-06-07_17h38.17.002,judgeSpeechMusic_20210519_logNormShiftAmp_mXs,2020.1.2,MacIntel,60,,,,,,,,,,,,,,,,,,,,,,,,,,2,5.6051,,0,1,8,158,97,1,stimuli/stim_20210519_power2amp/equal_lnn_AM2.5Hz_s55_28.m4a,,,
,,,,,38258,2021-06-07_17h38.17.002,judgeSpeechMusic_20210519_logNormShiftAmp_mXs,2020.1.2,MacIntel,60,,,,,,,,,,,,,,,,,,,,,,,,,,2,6.5564,,0,1,9,159,125,1,stimuli/stim_20210519_power2amp/equal_lnn_AM4Hz_s35_4.m4a,,,
,,,,,38258,2021-06-07_17h38.17.002,judgeSpeechMusic_20210519_logNormShiftAmp_mXs,2020.1.2,MacIntel,60,,,,,,,,,,,,,,,,,,,,,,,,,,1,7.939,,0,1,10,160,113,1,stimuli/stim_20210519_power2amp/equal_lnn_AM4Hz_s25_20.m4a,,,
,,,,,38258,2021-06-07_17h38.17.002,judgeSpeechMusic_20210519_logNormShiftAmp_mXs,2020.1.2,MacIntel,60,,,,,,,,,,,,,,,,,,,,,,,,,,1,5.6362,,0,1,11,161,29,1,stimuli/stim_20210519_power2amp/equal_lnn_AM1Hz_s35_21.m4a,,,
,,,,,38258,2021-06-07_17h38.17.002,judgeSpeechMusic_20210519_logNormShiftAmp_mXs,2020.1.2,MacIntel,60,,,,,,,,,,,,,,,,,,,,,,,,,,1,5.5071,,0,1,12,162,141,1,stimuli/stim_20210519_power2amp/equal_lnn_AM4Hz_s55_33.m4a,,,
,,,,,38258,2021-06-07_17h38.17.002,judgeSpeechMusic_20210519_logNormShiftAmp_mXs,2020.1.2,MacIntel,60,,,,,,,,,,,,,,,,,,,,,,,,,,1,5.8259,,0,1,13,163,32,1,stimuli/stim_20210519_power2amp/equal_lnn_AM1Hz_s45_14.m4a,,,
,,,,,38258,2021-06-07_17h38.17.002,judgeSpeechMusic_20210519_logNormShiftAmp_mXs,2020.1.2,MacIntel,60,,,,,,,,,,,,,,,,,,,,,,,,,,2,5.7049,,0,1,14,164,116,1,stimuli/stim_20210519_power2amp/equal_lnn_AM4Hz_s25_41.m4a,,,
,,,,,38258,2021-06-07_17h38.17.002,judgeSpeechMusic_20210519_logNormShiftAmp_mXs,2020.1.2,MacIntel,60,,,,,,,,,,,,,,,,,,,,,,,,,,1,7.0703,,0,1,15,165,86,1,stimuli/stim_20210519_power2amp/equal_lnn_AM2.5Hz_s45_33.m4a,,,
,,,,,38258,2021-06-07_17h38.17.002,judgeSpeechMusic_20210519_logNormShiftAmp_mXs,2020.1.2,MacIntel,60,,,,,,,,,,,,,,,,,,,,,,,,,,1,5.6913,,0,1,16,166,108,1,stimuli/stim_20210519_power2amp/equal_lnn_AM4Hz_s15_46.m4a,,,
,,,,,38258,2021-06-07_17h38.17.002,judgeSpeechMusic_20210519_logNormShiftAmp_mXs,2020.1.2,MacIntel,60,,,,,,,,,,,,,,,,,,,,,,,,,,2,6.1743,,0,1,17,167,114,1,stimuli/stim_20210519_power2amp/equal_lnn_AM4Hz_s25_5.m4a,,,
,,,,,38258,2021-06-07_17h38.17.002,judgeSpeechMusic_20210519_logNormShiftAmp_mXs,2020.1.2,MacIntel,60,,,,,,,,,,,,,,,,,,,,,,,,,,2,6.0374,,0,1,18,168,95,1,stimuli/stim_20210519_power2amp/equal_lnn_AM2.5Hz_s55_50.m4a,,,
,,,,,38258,2021-06-07_17h38.17.002,judgeSpeechMusic_20210519_logNormShiftAmp_mXs,2020.1.2,MacIntel,60,,,,,,,,,,,,,,,,,,,,,,,,,,1,5.7449,,0,1,19,169,50,1,stimuli/stim_20210519_power2amp/equal_lnn_AM2.5Hz_s15_14.m4a,,,
,,,,,38258,2021-06-07_17h38.17.002,judgeSpeechMusic_20210519_logNormShiftAmp_mXs,2020.1.2,MacIntel,60,,,,,,,,,,,,,,,,,,,,,,,,,,2,7.9564,,0,1,20,170,61,1,stimuli/stim_20210519_power2amp/equal_lnn_AM2.5Hz_s25_45.m4a,,,
,,,,,38258,2021-06-07_17h38.17.002,judgeSpeechMusic_20210519_logNormShiftAmp_mXs,2020.1.2,MacIntel,60,,,,,,,,,,,,,,,,,,,,,,,,,,2,5.7714,1,1,1,21,171,139,1,stimuli/stim_20210519_power2amp/equal_lnn_AM4Hz_s45_34.m4a,1.2147,,
,,,,,38258,2021-06-07_17h38.17.002,judgeSpeechMusic_20210519_logNormShiftAmp_mXs,2020.1.2,MacIntel,60,,,,,,,,,,,,,,,,,,,,,,,,,,2,6.0044,,0,1,22,172,131,1,stimuli/stim_20210519_power2amp/equal_lnn_AM4Hz_s45_17.m4a,,,
,,,,,38258,2021-06-07_17h38.17.002,judgeSpeechMusic_20210519_logNormShiftAmp_mXs,2020.1.2,MacIntel,60,,,,,,,,,,,,,,,,,,,,,,,,,,1,5.6262,,0,1,23,173,128,1,stimuli/stim_20210519_power2amp/equal_lnn_AM4Hz_s35_30.m4a,,,
,,,,,38258,2021-06-07_17h38.17.002,judgeSpeechMusic_20210519_logNormShiftAmp_mXs,2020.1.2,MacIntel,60,,,,,,,,,,,,,,,,,,,,,,,,,,2,5.8376,,0,1,24,174,148,1,stimuli/stim_20210519_power2amp/equal_lnn_AM4Hz_s55_46.m4a,,,
,,,,,38258,2021-06-07_17h38.17.002,judgeSpeechMusic_20210519_logNormShiftAmp_mXs,2020.1.2,MacIntel,60,,,,,,,,,,,,,,,,,,,,,,,,,,1,5.6736,,0,1,25,175,60,1,stimuli/stim_20210519_power2amp/equal_lnn_AM2.5Hz_s25_1.m4a,,,
,,,,,38258,2021-06-07_17h38.17.002,judgeSpeechMusic_20210519_logNormShiftAmp_mXs,2020.1.2,MacIntel,60,,,,,,,,,,,,,,,,,,,,,,,,,,1,5.5379,,0,1,26,176,123,1,stimuli/stim_20210519_power2amp/equal_lnn_AM4Hz_s35_50.m4a,,,
,,,,,38258,2021-06-07_17h38.17.002,judgeSpeechMusic_20210519_logNormShiftAmp_mXs,2020.1.2,MacIntel,60,,,,,,,,,,,,,,,,,,,,,,,,,,2,6.4716,,0,1,27,177,93,1,stimuli/stim_20210519_power2amp/equal_lnn_AM2.5Hz_s55_31.m4a,,,
,,,,,38258,2021-06-07_17h38.17.002,judgeSpeechMusic_20210519_logNormShiftAmp_mXs,2020.1.2,MacIntel,60,,,,,,,,,,,,,,,,,,,,,,,,,,2,5.2904,,0,1,28,178,133,1,stimuli/stim_20210519_power2amp/equal_lnn_AM4Hz_s45_44.m4a,,,
,,,,,38258,2021-06-07_17h38.17.002,judgeSpeechMusic_20210519_logNormShiftAmp_mXs,2020.1.2,MacIntel,60,,,,,,,,,,,,,,,,,,,,,,,,,,1,5.4712,,0,1,29,179,136,1,stimuli/stim_20210519_power2amp/equal_lnn_AM4Hz_s45_47.m4a,,,
,,,,,38258,2021-06-07_17h38.17.002,judgeSpeechMusic_20210519_logNormShiftAmp_mXs,2020.1.2,MacIntel,60,,,,,,,,,,,,,,,,,,,,,,,,,,1,5.6634,,0,1,30,180,13,1,stimuli/stim_20210519_power2amp/equal_lnn_AM1Hz_s25_31.m4a,,,
,,,,,38258,2021-06-07_17h38.17.002,judgeSpeechMusic_20210519_logNormShiftAmp_mXs,2020.1.2,MacIntel,60,,,,,,,,,,,,,,,,,,,,,,,,,,1,5.3204,,0,1,31,181,111,1,stimuli/stim_20210519_power2amp/equal_lnn_AM4Hz_s25_44.m4a,,,
,,,,,38258,2021-06-07_17h38.17.002,judgeSpeechMusic_20210519_logNormShiftAmp_mXs,2020.1.2,MacIntel,60,,,,,,,,,,,,,,,,,,,,,,,,,,1,5.5058,,0,1,32,182,30,1,stimuli/stim_20210519_power2amp/equal_lnn_AM1Hz_s45_11.m4a,,,
,,,,,38258,2021-06-07_17h38.17.002,judgeSpeechMusic_20210519_logNormShiftAmp_mXs,2020.1.2,MacIntel,60,,,,,,,,,,,,,,,,,,,,,,,,,,1,5.4909,,0,1,33,183,5,1,stimuli/stim_20210519_power2amp/equal_lnn_AM1Hz_s15_38.m4a,,,
,,,,,38258,2021-06-07_17h38.17.002,judgeSpeechMusic_20210519_logNormShiftAmp_mXs,2020.1.2,MacIntel,60,,,,,,,,,,,,,,,,,,,,,,,,,,2,5.3698,,0,1,34,184,62,1,stimuli/stim_20210519_power2amp/equal_lnn_AM2.5Hz_s25_17.m4a,,,
,,,,,38258,2021-06-07_17h38.17.002,judgeSpeechMusic_20210519_logNormShiftAmp_mXs,2020.1.2,MacIntel,60,,,,,,,,,,,,,,,,,,,,,,,,,,1,6.6749,,0,1,35,185,26,1,stimuli/stim_20210519_power2amp/equal_lnn_AM1Hz_s35_3.m4a,,,
,,,,,38258,2021-06-07_17h38.17.002,judgeSpeechMusic_20210519_logNormShiftAmp_mXs,2020.1.2,MacIntel,60,,,,,,,,,,,,,,,,,,,,,,,,,,1,5.5725,,0,1,36,186,58,1,stimuli/stim_20210519_power2amp/equal_lnn_AM2.5Hz_s15_19.m4a,,,
,,,,,38258,2021-06-07_17h38.17.002,judgeSpeechMusic_20210519_logNormShiftAmp_mXs,2020.1.2,MacIntel,60,,,,,,,,,,,,,,,,,,,,,,,,,,2,6.089,,0,1,37,187,110,1,stimuli/stim_20210519_power2amp/equal_lnn_AM4Hz_s25_28.m4a,,,
,,,,,38258,2021-06-07_17h38.17.002,judgeSpeechMusic_20210519_logNormShiftAmp_mXs,2020.1.2,MacIntel,60,,,,,,,,,,,,,,,,,,,,,,,,,,1,6.0894,,0,1,38,188,66,1,stimuli/stim_20210519_power2amp/equal_lnn_AM2.5Hz_s25_23.m4a,,,
,,,,,38258,2021-06-07_17h38.17.002,judgeSpeechMusic_20210519_logNormShiftAmp_mXs,2020.1.2,MacIntel,60,,,,,,,,,,,,,,,,,,,,,,,,,,1,5.3278,,0,1,39,189,143,1,stimuli/stim_20210519_power2amp/equal_lnn_AM4Hz_s55_10.m4a,,,
,,,,,38258,2021-06-07_17h38.17.002,judgeSpeechMusic_20210519_logNormShiftAmp_mXs,2020.1.2,MacIntel,60,,,,,,,,,,,,,,,,,,,,,,,,,,2,5.5239,,0,1,40,190,40,1,stimuli/stim_20210519_power2amp/equal_lnn_AM1Hz_s55_32.m4a,,,
,,,,,38258,2021-06-07_17h38.17.002,judgeSpeechMusic_20210519_logNormShiftAmp_mXs,2020.1.2,MacIntel,60,,,,,,,,,,,,,,,,,,,,,,,,,,2,5.5389,,0,1,41,191,89,1,stimuli/stim_20210519_power2amp/equal_lnn_AM2.5Hz_s45_23.m4a,,,
,,,,,38258,2021-06-07_17h38.17.002,judgeSpeechMusic_20210519_logNormShiftAmp_mXs,2020.1.2,MacIntel,60,,,,,,,,,,,,,,,,,,,,,,,,,,1,5.5392,,0,1,42,192,0,1,stimuli/stim_20210519_power2amp/equal_lnn_AM1Hz_s15_22.m4a,,,
,,,,,38258,2021-06-07_17h38.17.002,judgeSpeechMusic_20210519_logNormShiftAmp_mXs,2020.1.2,MacIntel,60,,,,,,,,,,,,,,,,,,,,,,,,,,1,5.6595,4,1,1,43,193,78,1,stimuli/stim_20210519_power2amp/equal_lnn_AM2.5Hz_s35_6.m4a,0.5426,,
,,,,,38258,2021-06-07_17h38.17.002,judgeSpeechMusic_20210519_logNormShiftAmp_mXs,2020.1.2,MacIntel,60,,,,,,,,,,,,,,,,,,,,,,,,,,1,5.9551,,0,1,44,194,103,1,stimuli/stim_20210519_power2amp/equal_lnn_AM4Hz_s15_10.m4a,,,
,,,,,38258,2021-06-07_17h38.17.002,judgeSpeechMusic_20210519_logNormShiftAmp_mXs,2020.1.2,MacIntel,60,,,,,,,,,,,,,,,,,,,,,,,,,,1,5.6736,,0,1,45,195,25,1,stimuli/stim_20210519_power2amp/equal_lnn_AM1Hz_s35_12.m4a,,,
,,,,,38258,2021-06-07_17h38.17.002,judgeSpeechMusic_20210519_logNormShiftAmp_mXs,2020.1.2,MacIntel,60,,,,,,,,,,,,,,,,,,,,,,,,,,2,6.5755,,0,1,46,196,31,1,stimuli/stim_20210519_power2amp/equal_lnn_AM1Hz_s45_46.m4a,,,
,,,,,38258,2021-06-07_17h38.17.002,judgeSpeechMusic_20210519_logNormShiftAmp_mXs,2020.1.2,MacIntel,60,,,,,,,,,,,,,,,,,,,,,,,,,,1,5.4373,,0,1,47,197,124,1,stimuli/stim_20210519_power2amp/equal_lnn_AM4Hz_s35_46.m4a,,,
,,,,,38258,2021-06-07_17h38.17.002,judgeSpeechMusic_20210519_logNormShiftAmp_mXs,2020.1.2,MacIntel,60,,,,,,,,,,,,,,,,,,,,,,,,,,1,5.3544,,0,1,48,198,27,1,stimuli/stim_20210519_power2amp/equal_lnn_AM1Hz_s35_10.m4a,,,
,,,,,38258,2021-06-07_17h38.17.002,judgeSpeechMusic_20210519_logNormShiftAmp_mXs,2020.1.2,MacIntel,60,,,,,,,,,,,,,,,,,,,,,,,,,,1,5.4789,,0,1,49,199,120,1,stimuli/stim_20210519_power2amp/equal_lnn_AM4Hz_s35_28.m4a,,,
,,,,,38258,2021-06-07_17h38.17.002,judgeSpeechMusic_20210519_logNormShiftAmp_mXs,2020.1.2,MacIntel,60,,,,,,,,,,,,,,,,,,,,,,,,,,1,5.4725,,0,1,50,200,17,1,stimuli/stim_20210519_power2amp/equal_lnn_AM1Hz_s25_35.m4a,,,
,,,,,38258,2021-06-07_17h38.17.002,judgeSpeechMusic_20210519_logNormShiftAmp_mXs,2020.1.2,MacIntel,60,,,,,,,,,,,,,,,,,,,,,,,,,,2,5.4897,,0,1,51,201,127,1,stimuli/stim_20210519_power2amp/equal_lnn_AM4Hz_s35_6.m4a,,,
,,,,,38258,2021-06-07_17h38.17.002,judgeSpeechMusic_20210519_logNormShiftAmp_mXs,2020.1.2,MacIntel,60,,,,,,,,,,,,,,,,,,,,,,,,,,2,5.5076,,0,1,52,202,147,1,stimuli/stim_20210519_power2amp/equal_lnn_AM4Hz_s55_12.m4a,,,
,,,,,38258,2021-06-07_17h38.17.002,judgeSpeechMusic_20210519_logNormShiftAmp_mXs,2020.1.2,MacIntel,60,,,,,,,,,,,,,,,,,,,,,,,,,,1,5.2726,,0,1,53,203,22,1,stimuli/stim_20210519_power2amp/equal_lnn_AM1Hz_s35_36.m4a,,,
,,,,,38258,2021-06-07_17h38.17.002,judgeSpeechMusic_20210519_logNormShiftAmp_mXs,2020.1.2,MacIntel,60,,,,,,,,,,,,,,,,,,,,,,,,,,2,5.4372,,0,1,54,204,94,1,stimuli/stim_20210519_power2amp/equal_lnn_AM2.5Hz_s55_6.m4a,,,
,,,,,38258,2021-06-07_17h38.17.002,judgeSpeechMusic_20210519_logNormShiftAmp_mXs,2020.1.2,MacIntel,60,,,,,,,,,,,,,,,,,,,,,,,,,,1,5.5585,,0,1,55,205,8,1,stimuli/stim_20210519_power2amp/equal_lnn_AM1Hz_s15_25.m4a,,,
,,,,,38258,2021-06-07_17h38.17.002,judgeSpeechMusic_20210519_logNormShiftAmp_mXs,2020.1.2,MacIntel,60,,,,,,,,,,,,,,,,,,,,,,,,,,1,6.2714,,0,1,56,206,70,1,stimuli/stim_20210519_power2amp/equal_lnn_AM2.5Hz_s35_45.m4a,,,
,,,,,38258,2021-06-07_17h38.17.002,judgeSpeechMusic_20210519_logNormShiftAmp_mXs,2020.1.2,MacIntel,60,,,,,,,,,,,,,,,,,,,,,,,,,,2,5.2221,,0,1,57,207,75,1,stimuli/stim_20210519_power2amp/equal_lnn_AM2.5Hz_s35_21.m4a,,,
,,,,,38258,2021-06-07_17h38.17.002,judgeSpeechMusic_20210519_logNormShiftAmp_mXs,2020.1.2,MacIntel,60,,,,,,,,,,,,,,,,,,,,,,,,,,1,5.5301,,0,1,58,208,146,1,stimuli/stim_20210519_power2amp/equal_lnn_AM4Hz_s55_41.m4a,,,
,,,,,38258,2021-06-07_17h38.17.002,judgeSpeechMusic_20210519_logNormShiftAmp_mXs,2020.1.2,MacIntel,60,,,,,,,,,,,,,,,,,,,,,,,,,,1,6.5037,,0,1,59,209,91,1,stimuli/stim_20210519_power2amp/equal_lnn_AM2.5Hz_s55_41.m4a,,,
,,,,,38258,2021-06-07_17h38.17.002,judgeSpeechMusic_20210519_logNormShiftAmp_mXs,2020.1.2,MacIntel,60,,,,,,,,,,,,,,,,,,,,,,,,,,2,6.0921,,0,1,60,210,57,1,stimuli/stim_20210519_power2amp/equal_lnn_AM2.5Hz_s15_33.m4a,,,
,,,,,38258,2021-06-07_17h38.17.002,judgeSpeechMusic_20210519_logNormShiftAmp_mXs,2020.1.2,MacIntel,60,,,,,,,,,,,,,,,,,,,,,,,,,,2,7.2736,,0,1,61,211,18,1,stimuli/stim_20210519_power2amp/equal_lnn_AM1Hz_s25_42.m4a,,,
,,,,,38258,2021-06-07_17h38.17.002,judgeSpeechMusic_20210519_logNormShiftAmp_mXs,2020.1.2,MacIntel,60,,,,,,,,,,,,,,,,,,,,,,,,,,1,5.6462,,0,1,62,212,37,1,stimuli/stim_20210519_power2amp/equal_lnn_AM1Hz_s45_23.m4a,,,
,,,,,38258,2021-06-07_17h38.17.002,judgeSpeechMusic_20210519_logNormShiftAmp_mXs,2020.1.2,MacIntel,60,,,,,,,,,,,,,,,,,,,,,,,,,,2,6.8227,,0,1,63,213,44,1,stimuli/stim_20210519_power2amp/equal_lnn_AM1Hz_s55_20.m4a,,,
,,,,,38258,2021-06-07_17h38.17.002,judgeSpeechMusic_20210519_logNormShiftAmp_mXs,2020.1.2,MacIntel,60,,,,,,,,,,,,,,,,,,,,,,,,,,1,6.2454,,0,1,64,214,138,1,stimuli/stim_20210519_power2amp/equal_lnn_AM4Hz_s45_31.m4a,,,
,,,,,38258,2021-06-07_17h38.17.002,judgeSpeechMusic_20210519_logNormShiftAmp_mXs,2020.1.2,MacIntel,60,,,,,,,,,,,,,,,,,,,,,,,,,,1,5.6708,,0,1,65,215,107,1,stimuli/stim_20210519_power2amp/equal_lnn_AM4Hz_s15_22.m4a,,,
,,,,,38258,2021-06-07_17h38.17.002,judgeSpeechMusic_20210519_logNormShiftAmp_mXs,2020.1.2,MacIntel,60,,,,,,,,,,,,,,,,,,,,,,,,,,1,5.9209,3,1,1,66,216,3,1,stimuli/stim_20210519_power2amp/equal_lnn_AM1Hz_s15_33.m4a,0.6076,,
,,,,,38258,2021-06-07_17h38.17.002,judgeSpeechMusic_20210519_logNormShiftAmp_mXs,2020.1.2,MacIntel,60,,,,,,,,,,,,,,,,,,,,,,,,,,1,5.5533,,0,1,67,217,42,1,stimuli/stim_20210519_power2amp/equal_lnn_AM1Hz_s55_26.m4a,,,
,,,,,38258,2021-06-07_17h38.17.002,judgeSpeechMusic_20210519_logNormShiftAmp_mXs,2020.1.2,MacIntel,60,,,,,,,,,,,,,,,,,,,,,,,,,,1,5.4402,,0,1,68,218,21,1,stimuli/stim_20210519_power2amp/equal_lnn_AM1Hz_s35_11.m4a,,,
,,,,,38258,2021-06-07_17h38.17.002,judgeSpeechMusic_20210519_logNormShiftAmp_mXs,2020.1.2,MacIntel,60,,,,,,,,,,,,,,,,,,,,,,,,,,2,5.6453,,0,1,69,219,90,1,stimuli/stim_20210519_power2amp/equal_lnn_AM2.5Hz_s55_33.m4a,,,
,,,,,38258,2021-06-07_17h38.17.002,judgeSpeechMusic_20210519_logNormShiftAmp_mXs,2020.1.2,MacIntel,60,,,,,,,,,,,,,,,,,,,,,,,,,,2,6.3227,,0,1,70,220,54,1,stimuli/stim_20210519_power2amp/equal_lnn_AM2.5Hz_s15_29.m4a,,,
,,,,,38258,2021-06-07_17h38.17.002,judgeSpeechMusic_20210519_logNormShiftAmp_mXs,2020.1.2,MacIntel,60,,,,,,,,,,,,,,,,,,,,,,,,,,2,5.7896,,0,1,71,221,130,1,stimuli/stim_20210519_power2amp/equal_lnn_AM4Hz_s45_50.m4a,,,
,,,,,38258,2021-06-07_17h38.17.002,judgeSpeechMusic_20210519_logNormShiftAmp_mXs,2020.1.2,MacIntel,60,,,,,,,,,,,,,,,,,,,,,,,,,,1,6.1383,,0,1,72,222,64,1,stimuli/stim_20210519_power2amp/equal_lnn_AM2.5Hz_s25_36.m4a,,,
,,,,,38258,2021-06-07_17h38.17.002,judgeSpeechMusic_20210519_logNormShiftAmp_mXs,2020.1.2,MacIntel,60,,,,,,,,,,,,,,,,,,,,,,,,,,1,5.4786,,0,1,73,223,6,1,stimuli/stim_20210519_power2amp/equal_lnn_AM1Hz_s15_4.m4a,,,
,,,,,38258,2021-06-07_17h38.17.002,judgeSpeechMusic_20210519_logNormShiftAmp_mXs,2020.1.2,MacIntel,60,,,,,,,,,,,,,,,,,,,,,,,,,,1,5.6226,,0,1,74,224,96,1,stimuli/stim_20210519_power2amp/equal_lnn_AM2.5Hz_s55_9.m4a,,,
,,,,,38258,2021-06-07_17h38.17.002,judgeSpeechMusic_20210519_logNormShiftAmp_mXs,2020.1.2,MacIntel,60,,,,,,,,,,,,,,,,,,,,,,,,,,1,5.623,,0,1,75,225,33,1,stimuli/stim_20210519_power2amp/equal_lnn_AM1Hz_s45_22.m4a,,,
,,,,,38258,2021-06-07_17h38.17.002,judgeSpeechMusic_20210519_logNormShiftAmp_mXs,2020.1.2,MacIntel,60,,,,,,,,,,,,,,,,,,,,,,,,,,1,5.4881,,0,1,76,226,39,1,stimuli/stim_20210519_power2amp/equal_lnn_AM1Hz_s45_37.m4a,,,
,,,,,38258,2021-06-07_17h38.17.002,judgeSpeechMusic_20210519_logNormShiftAmp_mXs,2020.1.2,MacIntel,60,,,,,,,,,,,,,,,,,,,,,,,,,,1,5.5236,,0,1,77,227,15,1,stimuli/stim_20210519_power2amp/equal_lnn_AM1Hz_s25_18.m4a,,,
,,,,,38258,2021-06-07_17h38.17.002,judgeSpeechMusic_20210519_logNormShiftAmp_mXs,2020.1.2,MacIntel,60,,,,,,,,,,,,,,,,,,,,,,,,,,1,5.5212,,0,1,78,228,145,1,stimuli/stim_20210519_power2amp/equal_lnn_AM4Hz_s55_4.m4a,,,
,,,,,38258,2021-06-07_17h38.17.002,judgeSpeechMusic_20210519_logNormShiftAmp_mXs,2020.1.2,MacIntel,60,,,,,,,,,,,,,,,,,,,,,,,,,,1,5.5254,,0,1,79,229,122,1,stimuli/stim_20210519_power2amp/equal_lnn_AM4Hz_s35_40.m4a,,,
,,,,,38258,2021-06-07_17h38.17.002,judgeSpeechMusic_20210519_logNormShiftAmp_mXs,2020.1.2,MacIntel,60,,,,,,,,,,,,,,,,,,,,,,,,,,2,5.6056,,0,1,80,230,41,1,stimuli/stim_20210519_power2amp/equal_lnn_AM1Hz_s55_14.m4a,,,
,,,,,38258,2021-06-07_17h38.17.002,judgeSpeechMusic_20210519_logNormShiftAmp_mXs,2020.1.2,MacIntel,60,,,,,,,,,,,,,,,,,,,,,,,,,,1,5.6713,,0,1,81,231,1,1,stimuli/stim_20210519_power2amp/equal_lnn_AM1Hz_s15_35.m4a,,,
,,,,,38258,2021-06-07_17h38.17.002,judgeSpeechMusic_20210519_logNormShiftAmp_mXs,2020.1.2,MacIntel,60,,,,,,,,,,,,,,,,,,,,,,,,,,1,5.2243,,0,1,82,232,112,1,stimuli/stim_20210519_power2amp/equal_lnn_AM4Hz_s25_13.m4a,,,
,,,,,38258,2021-06-07_17h38.17.002,judgeSpeechMusic_20210519_logNormShiftAmp_mXs,2020.1.2,MacIntel,60,,,,,,,,,,,,,,,,,,,,,,,,,,1,5.6386,,0,1,83,233,48,1,stimuli/stim_20210519_power2amp/equal_lnn_AM1Hz_s55_16.m4a,,,
,,,,,38258,2021-06-07_17h38.17.002,judgeSpeechMusic_20210519_logNormShiftAmp_mXs,2020.1.2,MacIntel,60,,,,,,,,,,,,,,,,,,,,,,,,,,2,5.6085,,0,1,84,234,56,1,stimuli/stim_20210519_power2amp/equal_lnn_AM2.5Hz_s15_50.m4a,,,
,,,,,38258,2021-06-07_17h38.17.002,judgeSpeechMusic_20210519_logNormShiftAmp_mXs,2020.1.2,MacIntel,60,,,,,,,,,,,,,,,,,,,,,,,,,,2,7.1546,,0,1,85,235,34,1,stimuli/stim_20210519_power2amp/equal_lnn_AM1Hz_s45_49.m4a,,,
,,,,,38258,2021-06-07_17h38.17.002,judgeSpeechMusic_20210519_logNormShiftAmp_mXs,2020.1.2,MacIntel,60,,,,,,,,,,,,,,,,,,,,,,,,,,2,5.5218,,0,1,86,236,137,1,stimuli/stim_20210519_power2amp/equal_lnn_AM4Hz_s45_5.m4a,,,
,,,,,38258,2021-06-07_17h38.17.002,judgeSpeechMusic_20210519_logNormShiftAmp_mXs,2020.1.2,MacIntel,60,,,,,,,,,,,,,,,,,,,,,,,,,,1,5.5782,,0,1,87,237,71,1,stimuli/stim_20210519_power2amp/equal_lnn_AM2.5Hz_s35_15.m4a,,,
,,,,,38258,2021-06-07_17h38.17.002,judgeSpeechMusic_20210519_logNormShiftAmp_mXs,2020.1.2,MacIntel,60,,,,,,,,,,,,,,,,,,,,,,,,,,1,5.4898,,0,1,88,238,59,1,stimuli/stim_20210519_power2amp/equal_lnn_AM2.5Hz_s15_47.m4a,,,
,,,,,38258,2021-06-07_17h38.17.002,judgeSpeechMusic_20210519_logNormShiftAmp_mXs,2020.1.2,MacIntel,60,,,,,,,,,,,,,,,,,,,,,,,,,,1,5.5711,,0,1,89,239,46,1,stimuli/stim_20210519_power2amp/equal_lnn_AM1Hz_s55_12.m4a,,,
,,,,,38258,2021-06-07_17h38.17.002,judgeSpeechMusic_20210519_logNormShiftAmp_mXs,2020.1.2,MacIntel,60,,,,,,,,,,,,,,,,,,,,,,,,,,1,5.3562,,0,1,90,240,76,1,stimuli/stim_20210519_power2amp/equal_lnn_AM2.5Hz_s35_30.m4a,,,
,,,,,38258,2021-06-07_17h38.17.002,judgeSpeechMusic_20210519_logNormShiftAmp_mXs,2020.1.2,MacIntel,60,,,,,,,,,,,,,,,,,,,,,,,,,,2,5.4892,1,1,1,91,241,98,1,stimuli/stim_20210519_power2amp/equal_lnn_AM2.5Hz_s55_2.m4a,0.4996,,
,,,,,38258,2021-06-07_17h38.17.002,judgeSpeechMusic_20210519_logNormShiftAmp_mXs,2020.1.2,MacIntel,60,,,,,,,,,,,,,,,,,,,,,,,,,,1,6.3707,,0,1,92,242,69,1,stimuli/stim_20210519_power2amp/equal_lnn_AM2.5Hz_s25_33.m4a,,,
,,,,,38258,2021-06-07_17h38.17.002,judgeSpeechMusic_20210519_logNormShiftAmp_mXs,2020.1.2,MacIntel,60,,,,,,,,,,,,,,,,,,,,,,,,,,2,5.7269,,0,1,93,243,80,1,stimuli/stim_20210519_power2amp/equal_lnn_AM2.5Hz_s45_17.m4a,,,
,,,,,38258,2021-06-07_17h38.17.002,judgeSpeechMusic_20210519_logNormShiftAmp_mXs,2020.1.2,MacIntel,60,,,,,,,,,,,,,,,,,,,,,,,,,,2,5.9575,,0,1,94,244,81,1,stimuli/stim_20210519_power2amp/equal_lnn_AM2.5Hz_s45_38.m4a,,,
,,,,,38258,2021-06-07_17h38.17.002,judgeSpeechMusic_20210519_logNormShiftAmp_mXs,2020.1.2,MacIntel,60,,,,,,,,,,,,,,,,,,,,,,,,,,1,5.5884,,0,1,95,245,149,1,stimuli/stim_20210519_power2amp/equal_lnn_AM4Hz_s55_25.m4a,,,
,,,,,38258,2021-06-07_17h38.17.002,judgeSpeechMusic_20210519_logNormShiftAmp_mXs,2020.1.2,MacIntel,60,,,,,,,,,,,,,,,,,,,,,,,,,,1,5.4392,,0,1,96,246,35,1,stimuli/stim_20210519_power2amp/equal_lnn_AM1Hz_s45_18.m4a,,,
,,,,,38258,2021-06-07_17h38.17.002,judgeSpeechMusic_20210519_logNormShiftAmp_mXs,2020.1.2,MacIntel,60,,,,,,,,,,,,,,,,,,,,,,,,,,1,5.3404,,0,1,97,247,7,1,stimuli/stim_20210519_power2amp/equal_lnn_AM1Hz_s15_32.m4a,,,
,,,,,38258,2021-06-07_17h38.17.002,judgeSpeechMusic_20210519_logNormShiftAmp_mXs,2020.1.2,MacIntel,60,,,,,,,,,,,,,,,,,,,,,,,,,,2,5.5538,,0,1,98,248,73,1,stimuli/stim_20210519_power2amp/equal_lnn_AM2.5Hz_s35_42.m4a,,,
,,,,,38258,2021-06-07_17h38.17.002,judgeSpeechMusic_20210519_logNormShiftAmp_mXs,2020.1.2,MacIntel,60,,,,,,,,,,,,,,,,,,,,,,,,,,2,5.507,,0,1,99,249,82,1,stimuli/stim_20210519_power2amp/equal_lnn_AM2.5Hz_s45_11.m4a,,,
,,,,,38258,2021-06-07_17h38.17.002,judgeSpeechMusic_20210519_logNormShiftAmp_mXs,2020.1.2,MacIntel,60,,,,,,,,,,,,,,,,,,,,,,,,,,2,5.5909,,0,1,100,250,88,1,stimuli/stim_20210519_power2amp/equal_lnn_AM2.5Hz_s45_21.m4a,,,
,,,,,38258,2021-06-07_17h38.17.002,judgeSpeechMusic_20210519_logNormShiftAmp_mXs,2020.1.2,MacIntel,60,,,,,,,,,,,,,,,,,,,,,,,,,,2,5.4225,,0,1,101,251,72,1,stimuli/stim_20210519_power2amp/equal_lnn_AM2.5Hz_s35_48.m4a,,,
,,,,,38258,2021-06-07_17h38.17.002,judgeSpeechMusic_20210519_logNormShiftAmp_mXs,2020.1.2,MacIntel,60,,,,,,,,,,,,,,,,,,,,,,,,,,1,6.005,,0,1,102,252,52,1,stimuli/stim_20210519_power2amp/equal_lnn_AM2.5Hz_s15_22.m4a,,,
,,,,,38258,2021-06-07_17h38.17.002,judgeSpeechMusic_20210519_logNormShiftAmp_mXs,2020.1.2,MacIntel,60,,,,,,,,,,,,,,,,,,,,,,,,,,1,5.5427,,0,1,103,253,135,1,stimuli/stim_20210519_power2amp/equal_lnn_AM4Hz_s45_9.m4a,,,
,,,,,38258,2021-06-07_17h38.17.002,judgeSpeechMusic_20210519_logNormShiftAmp_mXs,2020.1.2,MacIntel,60,,,,,,,,,,,,,,,,,,,,,,,,,,2,6.0561,,0,1,104,254,77,1,stimuli/stim_20210519_power2amp/equal_lnn_AM2.5Hz_s35_33.m4a,,,
,,,,,38258,2021-06-07_17h38.17.002,judgeSpeechMusic_20210519_logNormShiftAmp_mXs,2020.1.2,MacIntel,60,,,,,,,,,,,,,,,,,,,,,,,,,,1,5.6219,,0,1,105,255,55,1,stimuli/stim_20210519_power2amp/equal_lnn_AM2.5Hz_s15_26.m4a,,,
,,,,,38258,2021-06-07_17h38.17.002,judgeSpeechMusic_20210519_logNormShiftAmp_mXs,2020.1.2,MacIntel,60,,,,,,,,,,,,,,,,,,,,,,,,,,1,5.7381,,0,1,106,256,9,1,stimuli/stim_20210519_power2amp/equal_lnn_AM1Hz_s15_43.m4a,,,
,,,,,38258,2021-06-07_17h38.17.002,judgeSpeechMusic_20210519_logNormShiftAmp_mXs,2020.1.2,MacIntel,60,,,,,,,,,,,,,,,,,,,,,,,,,,1,5.6888,,0,1,107,257,47,1,stimuli/stim_20210519_power2amp/equal_lnn_AM1Hz_s55_31.m4a,,,
,,,,,38258,2021-06-07_17h38.17.002,judgeSpeechMusic_20210519_logNormShiftAmp_mXs,2020.1.2,MacIntel,60,,,,,,,,,,,,,,,,,,,,,,,,,,1,5.7564,,0,1,108,258,11,1,stimuli/stim_20210519_power2amp/equal_lnn_AM1Hz_s25_2.m4a,,,
,,,,,38258,2021-06-07_17h38.17.002,judgeSpeechMusic_20210519_logNormShiftAmp_mXs,2020.1.2,MacIntel,60,,,,,,,,,,,,,,,,,,,,,,,,,,1,5.2946,,0,1,109,259,142,1,stimuli/stim_20210519_power2amp/equal_lnn_AM4Hz_s55_20.m4a,,,
,,,,,38258,2021-06-07_17h38.17.002,judgeSpeechMusic_20210519_logNormShiftAmp_mXs,2020.1.2,MacIntel,60,,,,,,,,,,,,,,,,,,,,,,,,,,1,5.6056,,0,1,110,260,23,1,stimuli/stim_20210519_power2amp/equal_lnn_AM1Hz_s35_32.m4a,,,
,,,,,38258,2021-06-07_17h38.17.002,judgeSpeechMusic_20210519_logNormShiftAmp_mXs,2020.1.2,MacIntel,60,,,,,,,,,,,,,,,,,,,,,,,,,,1,5.2882,3,1,1,111,261,134,1,stimuli/stim_20210519_power2amp/equal_lnn_AM4Hz_s45_8.m4a,0.8607,,
,,,,,38258,2021-06-07_17h38.17.002,judgeSpeechMusic_20210519_logNormShiftAmp_mXs,2020.1.2,MacIntel,60,,,,,,,,,,,,,,,,,,,,,,,,,,2,5.3609,,0,1,112,262,79,1,stimuli/stim_20210519_power2amp/equal_lnn_AM2.5Hz_s35_16.m4a,,,
,,,,,38258,2021-06-07_17h38.17.002,judgeSpeechMusic_20210519_logNormShiftAmp_mXs,2020.1.2,MacIntel,60,,,,,,,,,,,,,,,,,,,,,,,,,,1,5.8711,,0,1,113,263,87,1,stimuli/stim_20210519_power2amp/equal_lnn_AM2.5Hz_s45_32.m4a,,,
,,,,,38258,2021-06-07_17h38.17.002,judgeSpeechMusic_20210519_logNormShiftAmp_mXs,2020.1.2,MacIntel,60,,,,,,,,,,,,,,,,,,,,,,,,,,1,5.804,,0,1,114,264,109,1,stimuli/stim_20210519_power2amp/equal_lnn_AM4Hz_s15_26.m4a,,,
,,,,,38258,2021-06-07_17h38.17.002,judgeSpeechMusic_20210519_logNormShiftAmp_mXs,2020.1.2,MacIntel,60,,,,,,,,,,,,,,,,,,,,,,,,,,1,5.5906,,0,1,115,265,10,1,stimuli/stim_20210519_power2amp/equal_lnn_AM1Hz_s25_21.m4a,,,
,,,,,38258,2021-06-07_17h38.17.002,judgeSpeechMusic_20210519_logNormShiftAmp_mXs,2020.1.2,MacIntel,60,,,,,,,,,,,,,,,,,,,,,,,,,,2,6.6604,,0,1,116,266,100,1,stimuli/stim_20210519_power2amp/equal_lnn_AM4Hz_s15_44.m4a,,,
,,,,,38258,2021-06-07_17h38.17.002,judgeSpeechMusic_20210519_logNormShiftAmp_mXs,2020.1.2,MacIntel,60,,,,,,,,,,,,,,,,,,,,,,,,,,1,5.9884,,0,1,117,267,24,1,stimuli/stim_20210519_power2amp/equal_lnn_AM1Hz_s35_18.m4a,,,
,,,,,38258,2021-06-07_17h38.17.002,judgeSpeechMusic_20210519_logNormShiftAmp_mXs,2020.1.2,MacIntel,60,,,,,,,,,,,,,,,,,,,,,,,,,,1,6.326,,0,1,118,268,67,1,stimuli/stim_20210519_power2amp/equal_lnn_AM2.5Hz_s25_32.m4a,,,
,,,,,38258,2021-06-07_17h38.17.002,judgeSpeechMusic_20210519_logNormShiftAmp_mXs,2020.1.2,MacIntel,60,,,,,,,,,,,,,,,,,,,,,,,,,,1,5.9381,,0,1,119,269,83,1,stimuli/stim_20210519_power2amp/equal_lnn_AM2.5Hz_s45_12.m4a,,,
,,,,,38258,2021-06-07_17h38.17.002,judgeSpeechMusic_20210519_logNormShiftAmp_mXs,2020.1.2,MacIntel,60,,,,,,,,,,,,,,,,,,,,,,,,,,2,5.5066,,0,1,120,270,65,1,stimuli/stim_20210519_power2amp/equal_lnn_AM2.5Hz_s25_12.m4a,,,
,,,,,38258,2021-06-07_17h38.17.002,judgeSpeechMusic_20210519_logNormShiftAmp_mXs,2020.1.2,MacIntel,60,,,,,,,,,,,,,,,,,,,,,,,,,,1,6.2391,,0,1,121,271,99,1,stimuli/stim_20210519_power2amp/equal_lnn_AM2.5Hz_s55_23.m4a,,,
,,,,,38258,2021-06-07_17h38.17.002,judgeSpeechMusic_20210519_logNormShiftAmp_mXs,2020.1.2,MacIntel,60,,,,,,,,,,,,,,,,,,,,,,,,,,2,6.443,,0,1,122,272,126,1,stimuli/stim_20210519_power2amp/equal_lnn_AM4Hz_s35_16.m4a,,,
,,,,,38258,2021-06-07_17h38.17.002,judgeSpeechMusic_20210519_logNormShiftAmp_mXs,2020.1.2,MacIntel,60,,,,,,,,,,,,,,,,,,,,,,,,,,1,5.8731,,0,1,123,273,121,1,stimuli/stim_20210519_power2amp/equal_lnn_AM4Hz_s35_13.m4a,,,
,,,,,38258,2021-06-07_17h38.17.002,judgeSpeechMusic_20210519_logNormShiftAmp_mXs,2020.1.2,MacIntel,60,,,,,,,,,,,,,,,,,,,,,,,,,,2,6.2128,,0,1,124,274,104,1,stimuli/stim_20210519_power2amp/equal_lnn_AM4Hz_s15_34.m4a,,,
,,,,,38258,2021-06-07_17h38.17.002,judgeSpeechMusic_20210519_logNormShiftAmp_mXs,2020.1.2,MacIntel,60,,,,,,,,,,,,,,,,,,,,,,,,,,2,6.2183,,0,1,125,275,84,1,stimuli/stim_20210519_power2amp/equal_lnn_AM2.5Hz_s45_40.m4a,,,
,,,,,38258,2021-06-07_17h38.17.002,judgeSpeechMusic_20210519_logNormShiftAmp_mXs,2020.1.2,MacIntel,60,,,,,,,,,,,,,,,,,,,,,,,,,,1,5.6394,,0,1,126,276,14,1,stimuli/stim_20210519_power2amp/equal_lnn_AM1Hz_s25_15.m4a,,,
,,,,,38258,2021-06-07_17h38.17.002,judgeSpeechMusic_20210519_logNormShiftAmp_mXs,2020.1.2,MacIntel,60,,,,,,,,,,,,,,,,,,,,,,,,,,1,5.4381,,0,1,127,277,106,1,stimuli/stim_20210519_power2amp/equal_lnn_AM4Hz_s15_17.m4a,,,
,,,,,38258,2021-06-07_17h38.17.002,judgeSpeechMusic_20210519_logNormShiftAmp_mXs,2020.1.2,MacIntel,60,,,,,,,,,,,,,,,,,,,,,,,,,,2,6.4887,,0,1,128,278,63,1,stimuli/stim_20210519_power2amp/equal_lnn_AM2.5Hz_s25_29.m4a,,,
,,,,,38258,2021-06-07_17h38.17.002,judgeSpeechMusic_20210519_logNormShiftAmp_mXs,2020.1.2,MacIntel,60,,,,,,,,,,,,,,,,,,,,,,,,,,1,5.5904,,0,1,129,279,102,1,stimuli/stim_20210519_power2amp/equal_lnn_AM4Hz_s15_1.m4a,,,
,,,,,38258,2021-06-07_17h38.17.002,judgeSpeechMusic_20210519_logNormShiftAmp_mXs,2020.1.2,MacIntel,60,,,,,,,,,,,,,,,,,,,,,,,,,,2,5.5761,,0,1,130,280,49,1,stimuli/stim_20210519_power2amp/equal_lnn_AM1Hz_s55_30.m4a,,,
,,,,,38258,2021-06-07_17h38.17.002,judgeSpeechMusic_20210519_logNormShiftAmp_mXs,2020.1.2,MacIntel,60,,,,,,,,,,,,,,,,,,,,,,,,,,1,5.894,,0,1,131,281,144,1,stimuli/stim_20210519_power2amp/equal_lnn_AM4Hz_s55_7.m4a,,,
,,,,,38258,2021-06-07_17h38.17.002,judgeSpeechMusic_20210519_logNormShiftAmp_mXs,2020.1.2,MacIntel,60,,,,,,,,,,,,,,,,,,,,,,,,,,1,5.5613,3,1,1,132,282,140,1,stimuli/stim_20210519_power2amp/equal_lnn_AM4Hz_s55_5.m4a,0.475,,
,,,,,38258,2021-06-07_17h38.17.002,judgeSpeechMusic_20210519_logNormShiftAmp_mXs,2020.1.2,MacIntel,60,,,,,,,,,,,,,,,,,,,,,,,,,,1,5.3385,,0,1,133,283,43,1,stimuli/stim_20210519_power2amp/equal_lnn_AM1Hz_s55_45.m4a,,,
,,,,,38258,2021-06-07_17h38.17.002,judgeSpeechMusic_20210519_logNormShiftAmp_mXs,2020.1.2,MacIntel,60,,,,,,,,,,,,,,,,,,,,,,,,,,2,5.8203,,0,1,134,284,115,1,stimuli/stim_20210519_power2amp/equal_lnn_AM4Hz_s25_17.m4a,,,
,,,,,38258,2021-06-07_17h38.17.002,judgeSpeechMusic_20210519_logNormShiftAmp_mXs,2020.1.2,MacIntel,60,,,,,,,,,,,,,,,,,,,,,,,,,,2,5.5224,,0,1,135,285,117,1,stimuli/stim_20210519_power2amp/equal_lnn_AM4Hz_s25_31.m4a,,,
,,,,,38258,2021-06-07_17h38.17.002,judgeSpeechMusic_20210519_logNormShiftAmp_mXs,2020.1.2,MacIntel,60,,,,,,,,,,,,,,,,,,,,,,,,,,1,5.622,,0,1,136,286,51,1,stimuli/stim_20210519_power2amp/equal_lnn_AM2.5Hz_s15_49.m4a,,,
,,,,,38258,2021-06-07_17h38.17.002,judgeSpeechMusic_20210519_logNormShiftAmp_mXs,2020.1.2,MacIntel,60,,,,,,,,,,,,,,,,,,,,,,,,,,1,5.5531,,0,1,137,287,132,1,stimuli/stim_20210519_power2amp/equal_lnn_AM4Hz_s45_32.m4a,,,
,,,,,38258,2021-06-07_17h38.17.002,judgeSpeechMusic_20210519_logNormShiftAmp_mXs,2020.1.2,MacIntel,60,,,,,,,,,,,,,,,,,,,,,,,,,,1,6.0807,,0,1,138,288,36,1,stimuli/stim_20210519_power2amp/equal_lnn_AM1Hz_s45_2.m4a,,,
,,,,,38258,2021-06-07_17h38.17.002,judgeSpeechMusic_20210519_logNormShiftAmp_mXs,2020.1.2,MacIntel,60,,,,,,,,,,,,,,,,,,,,,,,,,,2,5.884,,0,1,139,289,119,1,stimuli/stim_20210519_power2amp/equal_lnn_AM4Hz_s25_46.m4a,,,
,,,,,38258,2021-06-07_17h38.17.002,judgeSpeechMusic_20210519_logNormShiftAmp_mXs,2020.1.2,MacIntel,60,,,,,,,,,,,,,,,,,,,,,,,,,,1,5.9965,,0,1,140,290,19,1,stimuli/stim_20210519_power2amp/equal_lnn_AM1Hz_s25_12.m4a,,,
,,,,,38258,2021-06-07_17h38.17.002,judgeSpeechMusic_20210519_logNormShiftAmp_mXs,2020.1.2,MacIntel,60,,,,,,,,,,,,,,,,,,,,,,,,,,2,7.7051,,0,1,141,291,53,1,stimuli/stim_20210519_power2amp/equal_lnn_AM2.5Hz_s15_42.m4a,,,
,,,,,38258,2021-06-07_17h38.17.002,judgeSpeechMusic_20210519_logNormShiftAmp_mXs,2020.1.2,MacIntel,60,,,,,,,,,,,,,,,,,,,,,,,,,,1,5.723,,0,1,142,292,45,1,stimuli/stim_20210519_power2amp/equal_lnn_AM1Hz_s55_9.m4a,,,
,,,,,38258,2021-06-07_17h38.17.002,judgeSpeechMusic_20210519_logNormShiftAmp_mXs,2020.1.2,MacIntel,60,,,,,,,,,,,,,,,,,,,,,,,,,,1,5.4893,,0,1,143,293,12,1,stimuli/stim_20210519_power2amp/equal_lnn_AM1Hz_s25_9.m4a,,,
,,,,,38258,2021-06-07_17h38.17.002,judgeSpeechMusic_20210519_logNormShiftAmp_mXs,2020.1.2,MacIntel,60,,,,,,,,,,,,,,,,,,,,,,,,,,1,5.4886,,0,1,144,294,16,1,stimuli/stim_20210519_power2amp/equal_lnn_AM1Hz_s25_22.m4a,,,
,,,,,38258,2021-06-07_17h38.17.002,judgeSpeechMusic_20210519_logNormShiftAmp_mXs,2020.1.2,MacIntel,60,,,,,,,,,,,,,,,,,,,,,,,,,,1,5.6559,,0,1,145,295,20,1,stimuli/stim_20210519_power2amp/equal_lnn_AM1Hz_s35_27.m4a,,,
,,,,,38258,2021-06-07_17h38.17.002,judgeSpeechMusic_20210519_logNormShiftAmp_mXs,2020.1.2,MacIntel,60,,,,,,,,,,,,,,,,,,,,,,,,,,1,5.4444,,0,1,146,296,105,1,stimuli/stim_20210519_power2amp/equal_lnn_AM4Hz_s15_35.m4a,,,
,,,,,38258,2021-06-07_17h38.17.002,judgeSpeechMusic_20210519_logNormShiftAmp_mXs,2020.1.2,MacIntel,60,,,,,,,,,,,,,,,,,,,,,,,,,,1,5.4584,,0,1,147,297,38,1,stimuli/stim_20210519_power2amp/equal_lnn_AM1Hz_s45_10.m4a,,,
,,,,,38258,2021-06-07_17h38.17.002,judgeSpeechMusic_20210519_logNormShiftAmp_mXs,2020.1.2,MacIntel,60,,,,,,,,,,,,,,,,,,,,,,,,,,2,5.9395,,0,1,148,298,85,1,stimuli/stim_20210519_power2amp/equal_lnn_AM2.5Hz_s45_43.m4a,,,
,,,,,38258,2021-06-07_17h38.17.002,judgeSpeechMusic_20210519_logNormShiftAmp_mXs,2020.1.2,MacIntel,60,,,,,,,,,,,,,,,,,,,,,,,,,,2,5.5462,,0,1,149,299,101,1,stimuli/stim_20210519_power2amp/equal_lnn_AM4Hz_s15_19.m4a,,,
,,,,,38258,2021-06-07_17h38.17.002,judgeSpeechMusic_20210519_logNormShiftAmp_mXs,2020.1.2,MacIntel,60,,,,,,,,,,,,,,,,,,,,,,,,,,,,,,,,,,,,,space,6.9892
