headphoneResponse.keys,headphoneResponse.corr,headphoneResponse.rt,headphoneTrial.thisRepN,headphoneTrial.thisTrialN,headphoneTrial.thisN,headphoneTrial.thisIndex,headphoneTrial.ran,headphone_sound1,headphone_sound2,headphone_sound3,corrAns,participant,date,expName,psychopyVersion,OS,frameRate,trainSlider.response,trainSlider.rt,beepTrainResponse.keys,beepTrainResponse.corr,trainingTrials.thisRepN,trainingTrials.thisTrialN,trainingTrials.thisN,trainingTrials.thisIndex,trainingTrials.ran,trainAudioFile,beepTrainResponse.rt,readyReal_resp.keys,readyReal_resp.rt,ratingSlider.response,ratingSlider.rt,beepResp.keys,beepResp.corr,expTrials.thisRepN,expTrials.thisTrialN,expTrials.thisN,expTrials.thisIndex,expTrials.ran,audioFile,beepResp.rt,end_resp.keys,end_resp.rt
3,1,1.9931,0,0,0,2,1,stimuli/screen_origin.wav,stimuli/screen_antiphase.wav,stimuli/screen_quiet.wav,3,38482,2021-05-26_08h21.27.250,judgeSpeechMusic_20210519_logNormShiftAmp_mXs,2020.1.2,MacIntel,60,,,,,,,,,,,,,,,,,,,,,,,,,,
2,1,0.887,0,1,1,1,1,stimuli/screen_antiphase.wav,stimuli/screen_quiet.wav,stimuli/screen_origin.wav,2,38482,2021-05-26_08h21.27.250,judgeSpeechMusic_20210519_logNormShiftAmp_mXs,2020.1.2,MacIntel,60,,,,,,,,,,,,,,,,,,,,,,,,,,
3,1,0.6857,0,2,2,0,1,stimuli/screen_antiphase.wav,stimuli/screen_origin.wav,stimuli/screen_quiet.wav,3,38482,2021-05-26_08h21.27.250,judgeSpeechMusic_20210519_logNormShiftAmp_mXs,2020.1.2,MacIntel,60,,,,,,,,,,,,,,,,,,,,,,,,,,
2,1,0.8846,0,3,3,3,1,stimuli/screen_origin.wav,stimuli/screen_quiet.wav,stimuli/screen_antiphase.wav,2,38482,2021-05-26_08h21.27.250,judgeSpeechMusic_20210519_logNormShiftAmp_mXs,2020.1.2,MacIntel,60,,,,,,,,,,,,,,,,,,,,,,,,,,
1,1,0.9676,0,4,4,4,1,stimuli/screen_quiet.wav,stimuli/screen_antiphase.wav,stimuli/screen_origin.wav,1,38482,2021-05-26_08h21.27.250,judgeSpeechMusic_20210519_logNormShiftAmp_mXs,2020.1.2,MacIntel,60,,,,,,,,,,,,,,,,,,,,,,,,,,
1,1,0.9753,0,5,5,5,1,stimuli/screen_quiet.wav,stimuli/screen_origin.wav,stimuli/screen_antiphase.wav,1,38482,2021-05-26_08h21.27.250,judgeSpeechMusic_20210519_logNormShiftAmp_mXs,2020.1.2,MacIntel,60,,,,,,,,,,,,,,,,,,,,,,,,,,
,,,,,,,,,,,,38482,2021-05-26_08h21.27.250,judgeSpeechMusic_20210519_logNormShiftAmp_mXs,2020.1.2,MacIntel,60,1,21.9446,,0,0,0,0,2,1,stimuli/stim_20210519_power2amp/equal_lnn_AM_training3.5Hz_s20.m4a,,,,,,,,,,,,,,,,
,,,,,,,,,,,,38482,2021-05-26_08h21.27.250,judgeSpeechMusic_20210519_logNormShiftAmp_mXs,2020.1.2,MacIntel,60,2,8.4195,,0,0,1,1,0,1,stimuli/stim_20210519_power2amp/equal_lnn_AM_training1.5Hz_s20.m4a,,,,,,,,,,,,,,,,
,,,,,,,,,,,,38482,2021-05-26_08h21.27.250,judgeSpeechMusic_20210519_logNormShiftAmp_mXs,2020.1.2,MacIntel,60,2,19.6765,3,1,0,2,2,1,1,stimuli/stim_20210519_power2amp/equal_lnn_AM_training1.5Hz_s50.m4a,3.8079,,,,,,,,,,,,,,,
,,,,,,,,,,,,38482,2021-05-26_08h21.27.250,judgeSpeechMusic_20210519_logNormShiftAmp_mXs,2020.1.2,MacIntel,60,1,8.0702,,0,0,3,3,3,1,stimuli/stim_20210519_power2amp/equal_lnn_AM_training3.5Hz_s50.m4a,,,,,,,,,,,,,,,,
,,,,,,,,,,,,38482,2021-05-26_08h21.27.250,judgeSpeechMusic_20210519_logNormShiftAmp_mXs,2020.1.2,MacIntel,60,,,,,,,,,,,,space,8.0404,1,7.6899,,0,0,0,0,14,1,stimuli/stim_20210519_power2amp/equal_lnn_AM1Hz_s25_20.m4a,,,
,,,,,,,,,,,,38482,2021-05-26_08h21.27.250,judgeSpeechMusic_20210519_logNormShiftAmp_mXs,2020.1.2,MacIntel,60,,,,,,,,,,,,,,1,15.703,,0,0,1,1,135,1,stimuli/stim_20210519_power2amp/equal_lnn_AM4Hz_s45_44.m4a,,,
,,,,,,,,,,,,38482,2021-05-26_08h21.27.250,judgeSpeechMusic_20210519_logNormShiftAmp_mXs,2020.1.2,MacIntel,60,,,,,,,,,,,,,,1,11.7434,,0,0,2,2,90,1,stimuli/stim_20210519_power2amp/equal_lnn_AM2.5Hz_s55_30.m4a,,,
,,,,,,,,,,,,38482,2021-05-26_08h21.27.250,judgeSpeechMusic_20210519_logNormShiftAmp_mXs,2020.1.2,MacIntel,60,,,,,,,,,,,,,,2,6.3411,,0,0,3,3,91,1,stimuli/stim_20210519_power2amp/equal_lnn_AM2.5Hz_s55_50.m4a,,,
,,,,,,,,,,,,38482,2021-05-26_08h21.27.250,judgeSpeechMusic_20210519_logNormShiftAmp_mXs,2020.1.2,MacIntel,60,,,,,,,,,,,,,,2,8.0891,,0,0,4,4,96,1,stimuli/stim_20210519_power2amp/equal_lnn_AM2.5Hz_s55_13.m4a,,,
,,,,,,,,,,,,38482,2021-05-26_08h21.27.250,judgeSpeechMusic_20210519_logNormShiftAmp_mXs,2020.1.2,MacIntel,60,,,,,,,,,,,,,,2,7.9051,,0,0,5,5,75,1,stimuli/stim_20210519_power2amp/equal_lnn_AM2.5Hz_s35_8.m4a,,,
,,,,,,,,,,,,38482,2021-05-26_08h21.27.250,judgeSpeechMusic_20210519_logNormShiftAmp_mXs,2020.1.2,MacIntel,60,,,,,,,,,,,,,,1,12.1723,,0,0,6,6,143,1,stimuli/stim_20210519_power2amp/equal_lnn_AM4Hz_s55_10.m4a,,,
,,,,,,,,,,,,38482,2021-05-26_08h21.27.250,judgeSpeechMusic_20210519_logNormShiftAmp_mXs,2020.1.2,MacIntel,60,,,,,,,,,,,,,,1,8.2713,,0,0,7,7,54,1,stimuli/stim_20210519_power2amp/equal_lnn_AM2.5Hz_s15_24.m4a,,,
,,,,,,,,,,,,38482,2021-05-26_08h21.27.250,judgeSpeechMusic_20210519_logNormShiftAmp_mXs,2020.1.2,MacIntel,60,,,,,,,,,,,,,,2,13.3046,,0,0,8,8,121,1,stimuli/stim_20210519_power2amp/equal_lnn_AM4Hz_s35_23.m4a,,,
,,,,,,,,,,,,38482,2021-05-26_08h21.27.250,judgeSpeechMusic_20210519_logNormShiftAmp_mXs,2020.1.2,MacIntel,60,,,,,,,,,,,,,,2,6.9555,,0,0,9,9,130,1,stimuli/stim_20210519_power2amp/equal_lnn_AM4Hz_s45_24.m4a,,,
,,,,,,,,,,,,38482,2021-05-26_08h21.27.250,judgeSpeechMusic_20210519_logNormShiftAmp_mXs,2020.1.2,MacIntel,60,,,,,,,,,,,,,,1,8.3917,,0,0,10,10,17,1,stimuli/stim_20210519_power2amp/equal_lnn_AM1Hz_s25_3.m4a,,,
,,,,,,,,,,,,38482,2021-05-26_08h21.27.250,judgeSpeechMusic_20210519_logNormShiftAmp_mXs,2020.1.2,MacIntel,60,,,,,,,,,,,,,,1,8.34,,0,0,11,11,93,1,stimuli/stim_20210519_power2amp/equal_lnn_AM2.5Hz_s55_3.m4a,,,
,,,,,,,,,,,,38482,2021-05-26_08h21.27.250,judgeSpeechMusic_20210519_logNormShiftAmp_mXs,2020.1.2,MacIntel,60,,,,,,,,,,,,,,2,9.143,,0,0,12,12,101,1,stimuli/stim_20210519_power2amp/equal_lnn_AM4Hz_s15_25.m4a,,,
,,,,,,,,,,,,38482,2021-05-26_08h21.27.250,judgeSpeechMusic_20210519_logNormShiftAmp_mXs,2020.1.2,MacIntel,60,,,,,,,,,,,,,,1,6.6051,,0,0,13,13,32,1,stimuli/stim_20210519_power2amp/equal_lnn_AM1Hz_s45_31.m4a,,,
,,,,,,,,,,,,38482,2021-05-26_08h21.27.250,judgeSpeechMusic_20210519_logNormShiftAmp_mXs,2020.1.2,MacIntel,60,,,,,,,,,,,,,,1,7.7938,,0,0,14,14,5,1,stimuli/stim_20210519_power2amp/equal_lnn_AM1Hz_s15_6.m4a,,,
,,,,,,,,,,,,38482,2021-05-26_08h21.27.250,judgeSpeechMusic_20210519_logNormShiftAmp_mXs,2020.1.2,MacIntel,60,,,,,,,,,,,,,,1,6.9459,,0,0,15,15,89,1,stimuli/stim_20210519_power2amp/equal_lnn_AM2.5Hz_s45_45.m4a,,,
,,,,,,,,,,,,38482,2021-05-26_08h21.27.250,judgeSpeechMusic_20210519_logNormShiftAmp_mXs,2020.1.2,MacIntel,60,,,,,,,,,,,,,,2,10.5544,,0,0,16,16,6,1,stimuli/stim_20210519_power2amp/equal_lnn_AM1Hz_s15_44.m4a,,,
,,,,,,,,,,,,38482,2021-05-26_08h21.27.250,judgeSpeechMusic_20210519_logNormShiftAmp_mXs,2020.1.2,MacIntel,60,,,,,,,,,,,,,,1,13.1421,,0,0,17,17,22,1,stimuli/stim_20210519_power2amp/equal_lnn_AM1Hz_s35_23.m4a,,,
,,,,,,,,,,,,38482,2021-05-26_08h21.27.250,judgeSpeechMusic_20210519_logNormShiftAmp_mXs,2020.1.2,MacIntel,60,,,,,,,,,,,,,,2,6.903,,0,0,18,18,131,1,stimuli/stim_20210519_power2amp/equal_lnn_AM4Hz_s45_38.m4a,,,
,,,,,,,,,,,,38482,2021-05-26_08h21.27.250,judgeSpeechMusic_20210519_logNormShiftAmp_mXs,2020.1.2,MacIntel,60,,,,,,,,,,,,,,1,8.7767,,0,0,19,19,112,1,stimuli/stim_20210519_power2amp/equal_lnn_AM4Hz_s25_47.m4a,,,
,,,,,,,,,,,,38482,2021-05-26_08h21.27.250,judgeSpeechMusic_20210519_logNormShiftAmp_mXs,2020.1.2,MacIntel,60,,,,,,,,,,,,,,2,7.3122,,0,0,20,20,118,1,stimuli/stim_20210519_power2amp/equal_lnn_AM4Hz_s25_13.m4a,,,
,,,,,,,,,,,,38482,2021-05-26_08h21.27.250,judgeSpeechMusic_20210519_logNormShiftAmp_mXs,2020.1.2,MacIntel,60,,,,,,,,,,,,,,2,7.7066,,0,0,21,21,147,1,stimuli/stim_20210519_power2amp/equal_lnn_AM4Hz_s55_16.m4a,,,
,,,,,,,,,,,,38482,2021-05-26_08h21.27.250,judgeSpeechMusic_20210519_logNormShiftAmp_mXs,2020.1.2,MacIntel,60,,,,,,,,,,,,,,1,7.1757,,0,0,22,22,20,1,stimuli/stim_20210519_power2amp/equal_lnn_AM1Hz_s35_34.m4a,,,
,,,,,,,,,,,,38482,2021-05-26_08h21.27.250,judgeSpeechMusic_20210519_logNormShiftAmp_mXs,2020.1.2,MacIntel,60,,,,,,,,,,,,,,1,7.3615,,0,0,23,23,79,1,stimuli/stim_20210519_power2amp/equal_lnn_AM2.5Hz_s35_25.m4a,,,
,,,,,,,,,,,,38482,2021-05-26_08h21.27.250,judgeSpeechMusic_20210519_logNormShiftAmp_mXs,2020.1.2,MacIntel,60,,,,,,,,,,,,,,1,6.5258,,0,0,24,24,26,1,stimuli/stim_20210519_power2amp/equal_lnn_AM1Hz_s35_1.m4a,,,
,,,,,,,,,,,,38482,2021-05-26_08h21.27.250,judgeSpeechMusic_20210519_logNormShiftAmp_mXs,2020.1.2,MacIntel,60,,,,,,,,,,,,,,1,8.7467,,0,0,25,25,9,1,stimuli/stim_20210519_power2amp/equal_lnn_AM1Hz_s15_37.m4a,,,
,,,,,,,,,,,,38482,2021-05-26_08h21.27.250,judgeSpeechMusic_20210519_logNormShiftAmp_mXs,2020.1.2,MacIntel,60,,,,,,,,,,,,,,1,6.6715,,0,0,26,26,107,1,stimuli/stim_20210519_power2amp/equal_lnn_AM4Hz_s15_19.m4a,,,
,,,,,,,,,,,,38482,2021-05-26_08h21.27.250,judgeSpeechMusic_20210519_logNormShiftAmp_mXs,2020.1.2,MacIntel,60,,,,,,,,,,,,,,2,5.975,,0,0,27,27,109,1,stimuli/stim_20210519_power2amp/equal_lnn_AM4Hz_s15_1.m4a,,,
,,,,,,,,,,,,38482,2021-05-26_08h21.27.250,judgeSpeechMusic_20210519_logNormShiftAmp_mXs,2020.1.2,MacIntel,60,,,,,,,,,,,,,,2,6.7114,,0,0,28,28,102,1,stimuli/stim_20210519_power2amp/equal_lnn_AM4Hz_s15_40.m4a,,,
,,,,,,,,,,,,38482,2021-05-26_08h21.27.250,judgeSpeechMusic_20210519_logNormShiftAmp_mXs,2020.1.2,MacIntel,60,,,,,,,,,,,,,,1,6.1557,,0,0,29,29,4,1,stimuli/stim_20210519_power2amp/equal_lnn_AM1Hz_s15_14.m4a,,,
,,,,,,,,,,,,38482,2021-05-26_08h21.27.250,judgeSpeechMusic_20210519_logNormShiftAmp_mXs,2020.1.2,MacIntel,60,,,,,,,,,,,,,,2,9.2973,,0,0,30,30,126,1,stimuli/stim_20210519_power2amp/equal_lnn_AM4Hz_s35_9.m4a,,,
,,,,,,,,,,,,38482,2021-05-26_08h21.27.250,judgeSpeechMusic_20210519_logNormShiftAmp_mXs,2020.1.2,MacIntel,60,,,,,,,,,,,,,,1,9.7707,,0,0,31,31,63,1,stimuli/stim_20210519_power2amp/equal_lnn_AM2.5Hz_s25_28.m4a,,,
,,,,,,,,,,,,38482,2021-05-26_08h21.27.250,judgeSpeechMusic_20210519_logNormShiftAmp_mXs,2020.1.2,MacIntel,60,,,,,,,,,,,,,,2,7.0625,1,1,0,32,32,134,1,stimuli/stim_20210519_power2amp/equal_lnn_AM4Hz_s45_6.m4a,1.7736,,
,,,,,,,,,,,,38482,2021-05-26_08h21.27.250,judgeSpeechMusic_20210519_logNormShiftAmp_mXs,2020.1.2,MacIntel,60,,,,,,,,,,,,,,1,13.3552,,0,0,33,33,85,1,stimuli/stim_20210519_power2amp/equal_lnn_AM2.5Hz_s45_2.m4a,,,
,,,,,,,,,,,,38482,2021-05-26_08h21.27.250,judgeSpeechMusic_20210519_logNormShiftAmp_mXs,2020.1.2,MacIntel,60,,,,,,,,,,,,,,1,8.487,,0,0,34,34,52,1,stimuli/stim_20210519_power2amp/equal_lnn_AM2.5Hz_s15_42.m4a,,,
,,,,,,,,,,,,38482,2021-05-26_08h21.27.250,judgeSpeechMusic_20210519_logNormShiftAmp_mXs,2020.1.2,MacIntel,60,,,,,,,,,,,,,,2,6.3887,,0,0,35,35,138,1,stimuli/stim_20210519_power2amp/equal_lnn_AM4Hz_s45_48.m4a,,,
,,,,,,,,,,,,38482,2021-05-26_08h21.27.250,judgeSpeechMusic_20210519_logNormShiftAmp_mXs,2020.1.2,MacIntel,60,,,,,,,,,,,,,,2,5.8255,,0,0,36,36,81,1,stimuli/stim_20210519_power2amp/equal_lnn_AM2.5Hz_s45_21.m4a,,,
,,,,,,,,,,,,38482,2021-05-26_08h21.27.250,judgeSpeechMusic_20210519_logNormShiftAmp_mXs,2020.1.2,MacIntel,60,,,,,,,,,,,,,,1,8.5086,,0,0,37,37,33,1,stimuli/stim_20210519_power2amp/equal_lnn_AM1Hz_s45_47.m4a,,,
,,,,,,,,,,,,38482,2021-05-26_08h21.27.250,judgeSpeechMusic_20210519_logNormShiftAmp_mXs,2020.1.2,MacIntel,60,,,,,,,,,,,,,,1,11.2611,,0,0,38,38,8,1,stimuli/stim_20210519_power2amp/equal_lnn_AM1Hz_s15_33.m4a,,,
,,,,,,,,,,,,38482,2021-05-26_08h21.27.250,judgeSpeechMusic_20210519_logNormShiftAmp_mXs,2020.1.2,MacIntel,60,,,,,,,,,,,,,,1,7.1058,,0,0,39,39,47,1,stimuli/stim_20210519_power2amp/equal_lnn_AM1Hz_s55_41.m4a,,,
,,,,,,,,,,,,38482,2021-05-26_08h21.27.250,judgeSpeechMusic_20210519_logNormShiftAmp_mXs,2020.1.2,MacIntel,60,,,,,,,,,,,,,,1,6.9636,,0,0,40,40,43,1,stimuli/stim_20210519_power2amp/equal_lnn_AM1Hz_s55_27.m4a,,,
,,,,,,,,,,,,38482,2021-05-26_08h21.27.250,judgeSpeechMusic_20210519_logNormShiftAmp_mXs,2020.1.2,MacIntel,60,,,,,,,,,,,,,,2,10.7967,,0,0,41,41,1,1,stimuli/stim_20210519_power2amp/equal_lnn_AM1Hz_s15_32.m4a,,,
,,,,,,,,,,,,38482,2021-05-26_08h21.27.250,judgeSpeechMusic_20210519_logNormShiftAmp_mXs,2020.1.2,MacIntel,60,,,,,,,,,,,,,,2,6.4407,,0,0,42,42,142,1,stimuli/stim_20210519_power2amp/equal_lnn_AM4Hz_s55_38.m4a,,,
,,,,,,,,,,,,38482,2021-05-26_08h21.27.250,judgeSpeechMusic_20210519_logNormShiftAmp_mXs,2020.1.2,MacIntel,60,,,,,,,,,,,,,,2,7.742,,0,0,43,43,100,1,stimuli/stim_20210519_power2amp/equal_lnn_AM4Hz_s15_5.m4a,,,
,,,,,,,,,,,,38482,2021-05-26_08h21.27.250,judgeSpeechMusic_20210519_logNormShiftAmp_mXs,2020.1.2,MacIntel,60,,,,,,,,,,,,,,2,6.1557,,0,0,44,44,56,1,stimuli/stim_20210519_power2amp/equal_lnn_AM2.5Hz_s15_19.m4a,,,
,,,,,,,,,,,,38482,2021-05-26_08h21.27.250,judgeSpeechMusic_20210519_logNormShiftAmp_mXs,2020.1.2,MacIntel,60,,,,,,,,,,,,,,1,6.3227,,0,0,45,45,30,1,stimuli/stim_20210519_power2amp/equal_lnn_AM1Hz_s45_10.m4a,,,
,,,,,,,,,,,,38482,2021-05-26_08h21.27.250,judgeSpeechMusic_20210519_logNormShiftAmp_mXs,2020.1.2,MacIntel,60,,,,,,,,,,,,,,1,13.0062,,0,0,46,46,13,1,stimuli/stim_20210519_power2amp/equal_lnn_AM1Hz_s25_47.m4a,,,
,,,,,,,,,,,,38482,2021-05-26_08h21.27.250,judgeSpeechMusic_20210519_logNormShiftAmp_mXs,2020.1.2,MacIntel,60,,,,,,,,,,,,,,2,6.4284,,0,0,47,47,108,1,stimuli/stim_20210519_power2amp/equal_lnn_AM4Hz_s15_14.m4a,,,
,,,,,,,,,,,,38482,2021-05-26_08h21.27.250,judgeSpeechMusic_20210519_logNormShiftAmp_mXs,2020.1.2,MacIntel,60,,,,,,,,,,,,,,2,5.8233,,0,0,48,48,72,1,stimuli/stim_20210519_power2amp/equal_lnn_AM2.5Hz_s35_9.m4a,,,
,,,,,,,,,,,,38482,2021-05-26_08h21.27.250,judgeSpeechMusic_20210519_logNormShiftAmp_mXs,2020.1.2,MacIntel,60,,,,,,,,,,,,,,1,7.3395,,0,0,49,49,10,1,stimuli/stim_20210519_power2amp/equal_lnn_AM1Hz_s25_34.m4a,,,
,,,,,,,,,,,,38482,2021-05-26_08h21.27.250,judgeSpeechMusic_20210519_logNormShiftAmp_mXs,2020.1.2,MacIntel,60,,,,,,,,,,,,,,2,6.1386,,0,0,50,50,29,1,stimuli/stim_20210519_power2amp/equal_lnn_AM1Hz_s35_4.m4a,,,
,,,,,,,,,,,,38482,2021-05-26_08h21.27.250,judgeSpeechMusic_20210519_logNormShiftAmp_mXs,2020.1.2,MacIntel,60,,,,,,,,,,,,,,2,11.1961,,0,0,51,51,144,1,stimuli/stim_20210519_power2amp/equal_lnn_AM4Hz_s55_29.m4a,,,
,,,,,,,,,,,,38482,2021-05-26_08h21.27.250,judgeSpeechMusic_20210519_logNormShiftAmp_mXs,2020.1.2,MacIntel,60,,,,,,,,,,,,,,1,6.2543,,0,0,52,52,128,1,stimuli/stim_20210519_power2amp/equal_lnn_AM4Hz_s35_1.m4a,,,
,,,,,,,,,,,,38482,2021-05-26_08h21.27.250,judgeSpeechMusic_20210519_logNormShiftAmp_mXs,2020.1.2,MacIntel,60,,,,,,,,,,,,,,1,6.0763,,0,0,53,53,140,1,stimuli/stim_20210519_power2amp/equal_lnn_AM4Hz_s55_33.m4a,,,
,,,,,,,,,,,,38482,2021-05-26_08h21.27.250,judgeSpeechMusic_20210519_logNormShiftAmp_mXs,2020.1.2,MacIntel,60,,,,,,,,,,,,,,1,5.9545,,0,0,54,54,3,1,stimuli/stim_20210519_power2amp/equal_lnn_AM1Hz_s15_46.m4a,,,
,,,,,,,,,,,,38482,2021-05-26_08h21.27.250,judgeSpeechMusic_20210519_logNormShiftAmp_mXs,2020.1.2,MacIntel,60,,,,,,,,,,,,,,2,8.0567,,0,0,55,55,148,1,stimuli/stim_20210519_power2amp/equal_lnn_AM4Hz_s55_32.m4a,,,
,,,,,,,,,,,,38482,2021-05-26_08h21.27.250,judgeSpeechMusic_20210519_logNormShiftAmp_mXs,2020.1.2,MacIntel,60,,,,,,,,,,,,,,2,5.905,,0,0,56,56,76,1,stimuli/stim_20210519_power2amp/equal_lnn_AM2.5Hz_s35_24.m4a,,,
,,,,,,,,,,,,38482,2021-05-26_08h21.27.250,judgeSpeechMusic_20210519_logNormShiftAmp_mXs,2020.1.2,MacIntel,60,,,,,,,,,,,,,,1,5.9385,2,1,0,57,57,25,1,stimuli/stim_20210519_power2amp/equal_lnn_AM1Hz_s35_31.m4a,0.9431,,
,,,,,,,,,,,,38482,2021-05-26_08h21.27.250,judgeSpeechMusic_20210519_logNormShiftAmp_mXs,2020.1.2,MacIntel,60,,,,,,,,,,,,,,1,11.3208,,0,0,58,58,117,1,stimuli/stim_20210519_power2amp/equal_lnn_AM4Hz_s25_20.m4a,,,
,,,,,,,,,,,,38482,2021-05-26_08h21.27.250,judgeSpeechMusic_20210519_logNormShiftAmp_mXs,2020.1.2,MacIntel,60,,,,,,,,,,,,,,1,18.9055,,0,0,59,59,149,1,stimuli/stim_20210519_power2amp/equal_lnn_AM4Hz_s55_3.m4a,,,
,,,,,,,,,,,,38482,2021-05-26_08h21.27.250,judgeSpeechMusic_20210519_logNormShiftAmp_mXs,2020.1.2,MacIntel,60,,,,,,,,,,,,,,1,8.9733,,0,0,60,60,7,1,stimuli/stim_20210519_power2amp/equal_lnn_AM1Hz_s15_18.m4a,,,
,,,,,,,,,,,,38482,2021-05-26_08h21.27.250,judgeSpeechMusic_20210519_logNormShiftAmp_mXs,2020.1.2,MacIntel,60,,,,,,,,,,,,,,2,6.3825,,0,0,61,61,55,1,stimuli/stim_20210519_power2amp/equal_lnn_AM2.5Hz_s15_3.m4a,,,
,,,,,,,,,,,,38482,2021-05-26_08h21.27.250,judgeSpeechMusic_20210519_logNormShiftAmp_mXs,2020.1.2,MacIntel,60,,,,,,,,,,,,,,1,10.1233,,0,0,62,62,122,1,stimuli/stim_20210519_power2amp/equal_lnn_AM4Hz_s35_47.m4a,,,
,,,,,,,,,,,,38482,2021-05-26_08h21.27.250,judgeSpeechMusic_20210519_logNormShiftAmp_mXs,2020.1.2,MacIntel,60,,,,,,,,,,,,,,2,11.5412,,0,0,63,63,60,1,stimuli/stim_20210519_power2amp/equal_lnn_AM2.5Hz_s25_17.m4a,,,
,,,,,,,,,,,,38482,2021-05-26_08h21.27.250,judgeSpeechMusic_20210519_logNormShiftAmp_mXs,2020.1.2,MacIntel,60,,,,,,,,,,,,,,2,7.7387,,0,0,64,64,78,1,stimuli/stim_20210519_power2amp/equal_lnn_AM2.5Hz_s35_19.m4a,,,
,,,,,,,,,,,,38482,2021-05-26_08h21.27.250,judgeSpeechMusic_20210519_logNormShiftAmp_mXs,2020.1.2,MacIntel,60,,,,,,,,,,,,,,2,9.6061,,0,0,65,65,80,1,stimuli/stim_20210519_power2amp/equal_lnn_AM2.5Hz_s45_36.m4a,,,
,,,,,,,,,,,,38482,2021-05-26_08h21.27.250,judgeSpeechMusic_20210519_logNormShiftAmp_mXs,2020.1.2,MacIntel,60,,,,,,,,,,,,,,1,7.4984,,0,0,66,66,116,1,stimuli/stim_20210519_power2amp/equal_lnn_AM4Hz_s25_18.m4a,,,
,,,,,,,,,,,,38482,2021-05-26_08h21.27.250,judgeSpeechMusic_20210519_logNormShiftAmp_mXs,2020.1.2,MacIntel,60,,,,,,,,,,,,,,1,9.0783,,0,0,67,67,67,1,stimuli/stim_20210519_power2amp/equal_lnn_AM2.5Hz_s25_32.m4a,,,
,,,,,,,,,,,,38482,2021-05-26_08h21.27.250,judgeSpeechMusic_20210519_logNormShiftAmp_mXs,2020.1.2,MacIntel,60,,,,,,,,,,,,,,2,7.4044,,0,0,68,68,105,1,stimuli/stim_20210519_power2amp/equal_lnn_AM4Hz_s15_27.m4a,,,
,,,,,,,,,,,,38482,2021-05-26_08h21.27.250,judgeSpeechMusic_20210519_logNormShiftAmp_mXs,2020.1.2,MacIntel,60,,,,,,,,,,,,,,2,8.3935,,0,0,69,69,70,1,stimuli/stim_20210519_power2amp/equal_lnn_AM2.5Hz_s35_48.m4a,,,
,,,,,,,,,,,,38482,2021-05-26_08h21.27.250,judgeSpeechMusic_20210519_logNormShiftAmp_mXs,2020.1.2,MacIntel,60,,,,,,,,,,,,,,2,9.7585,,0,0,70,70,146,1,stimuli/stim_20210519_power2amp/equal_lnn_AM4Hz_s55_35.m4a,,,
,,,,,,,,,,,,38482,2021-05-26_08h21.27.250,judgeSpeechMusic_20210519_logNormShiftAmp_mXs,2020.1.2,MacIntel,60,,,,,,,,,,,,,,1,7.3216,,0,0,71,71,87,1,stimuli/stim_20210519_power2amp/equal_lnn_AM2.5Hz_s45_14.m4a,,,
,,,,,,,,,,,,38482,2021-05-26_08h21.27.250,judgeSpeechMusic_20210519_logNormShiftAmp_mXs,2020.1.2,MacIntel,60,,,,,,,,,,,,,,1,11.3553,,0,0,72,72,53,1,stimuli/stim_20210519_power2amp/equal_lnn_AM2.5Hz_s15_15.m4a,,,
,,,,,,,,,,,,38482,2021-05-26_08h21.27.250,judgeSpeechMusic_20210519_logNormShiftAmp_mXs,2020.1.2,MacIntel,60,,,,,,,,,,,,,,2,7.606,,0,0,73,73,104,1,stimuli/stim_20210519_power2amp/equal_lnn_AM4Hz_s15_44.m4a,,,
,,,,,,,,,,,,38482,2021-05-26_08h21.27.250,judgeSpeechMusic_20210519_logNormShiftAmp_mXs,2020.1.2,MacIntel,60,,,,,,,,,,,,,,2,6.372,,0,0,74,74,16,1,stimuli/stim_20210519_power2amp/equal_lnn_AM1Hz_s25_50.m4a,,,
,,,,,,,,,,,,38482,2021-05-26_08h21.27.250,judgeSpeechMusic_20210519_logNormShiftAmp_mXs,2020.1.2,MacIntel,60,,,,,,,,,,,,,,1,6.7868,,0,0,75,75,21,1,stimuli/stim_20210519_power2amp/equal_lnn_AM1Hz_s35_38.m4a,,,
,,,,,,,,,,,,38482,2021-05-26_08h21.27.250,judgeSpeechMusic_20210519_logNormShiftAmp_mXs,2020.1.2,MacIntel,60,,,,,,,,,,,,,,2,7.727,,0,0,76,76,95,1,stimuli/stim_20210519_power2amp/equal_lnn_AM2.5Hz_s55_26.m4a,,,
,,,,,,,,,,,,38482,2021-05-26_08h21.27.250,judgeSpeechMusic_20210519_logNormShiftAmp_mXs,2020.1.2,MacIntel,60,,,,,,,,,,,,,,2,7.3558,2,1,0,77,77,65,1,stimuli/stim_20210519_power2amp/equal_lnn_AM2.5Hz_s25_2.m4a,1.8076,,
,,,,,,,,,,,,38482,2021-05-26_08h21.27.250,judgeSpeechMusic_20210519_logNormShiftAmp_mXs,2020.1.2,MacIntel,60,,,,,,,,,,,,,,2,14.9213,,0,0,78,78,28,1,stimuli/stim_20210519_power2amp/equal_lnn_AM1Hz_s35_5.m4a,,,
,,,,,,,,,,,,38482,2021-05-26_08h21.27.250,judgeSpeechMusic_20210519_logNormShiftAmp_mXs,2020.1.2,MacIntel,60,,,,,,,,,,,,,,1,5.8089,,0,0,79,79,58,1,stimuli/stim_20210519_power2amp/equal_lnn_AM2.5Hz_s15_26.m4a,,,
,,,,,,,,,,,,38482,2021-05-26_08h21.27.250,judgeSpeechMusic_20210519_logNormShiftAmp_mXs,2020.1.2,MacIntel,60,,,,,,,,,,,,,,1,10.4423,,0,0,80,80,68,1,stimuli/stim_20210519_power2amp/equal_lnn_AM2.5Hz_s25_1.m4a,,,
,,,,,,,,,,,,38482,2021-05-26_08h21.27.250,judgeSpeechMusic_20210519_logNormShiftAmp_mXs,2020.1.2,MacIntel,60,,,,,,,,,,,,,,1,6.8459,,0,0,81,81,62,1,stimuli/stim_20210519_power2amp/equal_lnn_AM2.5Hz_s25_36.m4a,,,
,,,,,,,,,,,,38482,2021-05-26_08h21.27.250,judgeSpeechMusic_20210519_logNormShiftAmp_mXs,2020.1.2,MacIntel,60,,,,,,,,,,,,,,1,9.8923,,0,0,82,82,73,1,stimuli/stim_20210519_power2amp/equal_lnn_AM2.5Hz_s35_44.m4a,,,
,,,,,,,,,,,,38482,2021-05-26_08h21.27.250,judgeSpeechMusic_20210519_logNormShiftAmp_mXs,2020.1.2,MacIntel,60,,,,,,,,,,,,,,2,6.7074,,0,0,83,83,71,1,stimuli/stim_20210519_power2amp/equal_lnn_AM2.5Hz_s35_2.m4a,,,
,,,,,,,,,,,,38482,2021-05-26_08h21.27.250,judgeSpeechMusic_20210519_logNormShiftAmp_mXs,2020.1.2,MacIntel,60,,,,,,,,,,,,,,2,6.0574,,0,0,84,84,64,1,stimuli/stim_20210519_power2amp/equal_lnn_AM2.5Hz_s25_44.m4a,,,
,,,,,,,,,,,,38482,2021-05-26_08h21.27.250,judgeSpeechMusic_20210519_logNormShiftAmp_mXs,2020.1.2,MacIntel,60,,,,,,,,,,,,,,1,8.3725,,0,0,85,85,42,1,stimuli/stim_20210519_power2amp/equal_lnn_AM1Hz_s55_48.m4a,,,
,,,,,,,,,,,,38482,2021-05-26_08h21.27.250,judgeSpeechMusic_20210519_logNormShiftAmp_mXs,2020.1.2,MacIntel,60,,,,,,,,,,,,,,2,11.2968,,0,0,86,86,57,1,stimuli/stim_20210519_power2amp/equal_lnn_AM2.5Hz_s15_1.m4a,,,
,,,,,,,,,,,,38482,2021-05-26_08h21.27.250,judgeSpeechMusic_20210519_logNormShiftAmp_mXs,2020.1.2,MacIntel,60,,,,,,,,,,,,,,1,9.221,,0,0,87,87,2,1,stimuli/stim_20210519_power2amp/equal_lnn_AM1Hz_s15_12.m4a,,,
,,,,,,,,,,,,38482,2021-05-26_08h21.27.250,judgeSpeechMusic_20210519_logNormShiftAmp_mXs,2020.1.2,MacIntel,60,,,,,,,,,,,,,,1,7.7615,,0,0,88,88,66,1,stimuli/stim_20210519_power2amp/equal_lnn_AM2.5Hz_s25_49.m4a,,,
,,,,,,,,,,,,38482,2021-05-26_08h21.27.250,judgeSpeechMusic_20210519_logNormShiftAmp_mXs,2020.1.2,MacIntel,60,,,,,,,,,,,,,,1,6.2067,,0,0,89,89,115,1,stimuli/stim_20210519_power2amp/equal_lnn_AM4Hz_s25_30.m4a,,,
,,,,,,,,,,,,38482,2021-05-26_08h21.27.250,judgeSpeechMusic_20210519_logNormShiftAmp_mXs,2020.1.2,MacIntel,60,,,,,,,,,,,,,,2,11.1589,,0,0,90,90,114,1,stimuli/stim_20210519_power2amp/equal_lnn_AM4Hz_s25_39.m4a,,,
,,,,,,,,,,,,38482,2021-05-26_08h21.27.250,judgeSpeechMusic_20210519_logNormShiftAmp_mXs,2020.1.2,MacIntel,60,,,,,,,,,,,,,,2,10.9734,,0,0,91,91,139,1,stimuli/stim_20210519_power2amp/equal_lnn_AM4Hz_s45_7.m4a,,,
,,,,,,,,,,,,38482,2021-05-26_08h21.27.250,judgeSpeechMusic_20210519_logNormShiftAmp_mXs,2020.1.2,MacIntel,60,,,,,,,,,,,,,,1,11.0458,,0,0,92,92,46,1,stimuli/stim_20210519_power2amp/equal_lnn_AM1Hz_s55_44.m4a,,,
,,,,,,,,,,,,38482,2021-05-26_08h21.27.250,judgeSpeechMusic_20210519_logNormShiftAmp_mXs,2020.1.2,MacIntel,60,,,,,,,,,,,,,,2,5.9813,,0,0,93,93,124,1,stimuli/stim_20210519_power2amp/equal_lnn_AM4Hz_s35_20.m4a,,,
,,,,,,,,,,,,38482,2021-05-26_08h21.27.250,judgeSpeechMusic_20210519_logNormShiftAmp_mXs,2020.1.2,MacIntel,60,,,,,,,,,,,,,,1,8.4892,,0,0,94,94,44,1,stimuli/stim_20210519_power2amp/equal_lnn_AM1Hz_s55_31.m4a,,,
,,,,,,,,,,,,38482,2021-05-26_08h21.27.250,judgeSpeechMusic_20210519_logNormShiftAmp_mXs,2020.1.2,MacIntel,60,,,,,,,,,,,,,,1,5.8943,,0,0,95,95,88,1,stimuli/stim_20210519_power2amp/equal_lnn_AM2.5Hz_s45_33.m4a,,,
,,,,,,,,,,,,38482,2021-05-26_08h21.27.250,judgeSpeechMusic_20210519_logNormShiftAmp_mXs,2020.1.2,MacIntel,60,,,,,,,,,,,,,,1,14.8384,,0,0,96,96,0,1,stimuli/stim_20210519_power2amp/equal_lnn_AM1Hz_s15_28.m4a,,,
,,,,,,,,,,,,38482,2021-05-26_08h21.27.250,judgeSpeechMusic_20210519_logNormShiftAmp_mXs,2020.1.2,MacIntel,60,,,,,,,,,,,,,,1,11.1551,,0,0,97,97,132,1,stimuli/stim_20210519_power2amp/equal_lnn_AM4Hz_s45_46.m4a,,,
,,,,,,,,,,,,38482,2021-05-26_08h21.27.250,judgeSpeechMusic_20210519_logNormShiftAmp_mXs,2020.1.2,MacIntel,60,,,,,,,,,,,,,,2,8.8972,1,1,0,98,98,19,1,stimuli/stim_20210519_power2amp/equal_lnn_AM1Hz_s25_41.m4a,1.9947,,
,,,,,,,,,,,,38482,2021-05-26_08h21.27.250,judgeSpeechMusic_20210519_logNormShiftAmp_mXs,2020.1.2,MacIntel,60,,,,,,,,,,,,,,2,10.9204,,0,0,99,99,50,1,stimuli/stim_20210519_power2amp/equal_lnn_AM2.5Hz_s15_44.m4a,,,
,,,,,,,,,,,,38482,2021-05-26_08h21.27.250,judgeSpeechMusic_20210519_logNormShiftAmp_mXs,2020.1.2,MacIntel,60,,,,,,,,,,,,,,2,13.4087,,0,0,100,100,12,1,stimuli/stim_20210519_power2amp/equal_lnn_AM1Hz_s25_24.m4a,,,
,,,,,,,,,,,,38482,2021-05-26_08h21.27.250,judgeSpeechMusic_20210519_logNormShiftAmp_mXs,2020.1.2,MacIntel,60,,,,,,,,,,,,,,1,6.9388,,0,0,101,101,86,1,stimuli/stim_20210519_power2amp/equal_lnn_AM2.5Hz_s45_28.m4a,,,
,,,,,,,,,,,,38482,2021-05-26_08h21.27.250,judgeSpeechMusic_20210519_logNormShiftAmp_mXs,2020.1.2,MacIntel,60,,,,,,,,,,,,,,2,6.4223,,0,0,102,102,125,1,stimuli/stim_20210519_power2amp/equal_lnn_AM4Hz_s35_22.m4a,,,
,,,,,,,,,,,,38482,2021-05-26_08h21.27.250,judgeSpeechMusic_20210519_logNormShiftAmp_mXs,2020.1.2,MacIntel,60,,,,,,,,,,,,,,2,9.7714,,0,0,103,103,45,1,stimuli/stim_20210519_power2amp/equal_lnn_AM1Hz_s55_21.m4a,,,
,,,,,,,,,,,,38482,2021-05-26_08h21.27.250,judgeSpeechMusic_20210519_logNormShiftAmp_mXs,2020.1.2,MacIntel,60,,,,,,,,,,,,,,1,8.5233,,0,0,104,104,24,1,stimuli/stim_20210519_power2amp/equal_lnn_AM1Hz_s35_26.m4a,,,
,,,,,,,,,,,,38482,2021-05-26_08h21.27.250,judgeSpeechMusic_20210519_logNormShiftAmp_mXs,2020.1.2,MacIntel,60,,,,,,,,,,,,,,1,8.8371,,0,0,105,105,34,1,stimuli/stim_20210519_power2amp/equal_lnn_AM1Hz_s45_24.m4a,,,
,,,,,,,,,,,,38482,2021-05-26_08h21.27.250,judgeSpeechMusic_20210519_logNormShiftAmp_mXs,2020.1.2,MacIntel,60,,,,,,,,,,,,,,2,13.4892,,0,0,106,106,37,1,stimuli/stim_20210519_power2amp/equal_lnn_AM1Hz_s45_32.m4a,,,
,,,,,,,,,,,,38482,2021-05-26_08h21.27.250,judgeSpeechMusic_20210519_logNormShiftAmp_mXs,2020.1.2,MacIntel,60,,,,,,,,,,,,,,1,7.3558,,0,0,107,107,106,1,stimuli/stim_20210519_power2amp/equal_lnn_AM4Hz_s15_10.m4a,,,
,,,,,,,,,,,,38482,2021-05-26_08h21.27.250,judgeSpeechMusic_20210519_logNormShiftAmp_mXs,2020.1.2,MacIntel,60,,,,,,,,,,,,,,1,9.1049,,0,0,108,108,82,1,stimuli/stim_20210519_power2amp/equal_lnn_AM2.5Hz_s45_7.m4a,,,
,,,,,,,,,,,,38482,2021-05-26_08h21.27.250,judgeSpeechMusic_20210519_logNormShiftAmp_mXs,2020.1.2,MacIntel,60,,,,,,,,,,,,,,2,8.3886,,0,0,109,109,99,1,stimuli/stim_20210519_power2amp/equal_lnn_AM2.5Hz_s55_1.m4a,,,
,,,,,,,,,,,,38482,2021-05-26_08h21.27.250,judgeSpeechMusic_20210519_logNormShiftAmp_mXs,2020.1.2,MacIntel,60,,,,,,,,,,,,,,2,7.1241,,0,0,110,110,27,1,stimuli/stim_20210519_power2amp/equal_lnn_AM1Hz_s35_47.m4a,,,
,,,,,,,,,,,,38482,2021-05-26_08h21.27.250,judgeSpeechMusic_20210519_logNormShiftAmp_mXs,2020.1.2,MacIntel,60,,,,,,,,,,,,,,2,7.4213,,0,0,111,111,137,1,stimuli/stim_20210519_power2amp/equal_lnn_AM4Hz_s45_20.m4a,,,
,,,,,,,,,,,,38482,2021-05-26_08h21.27.250,judgeSpeechMusic_20210519_logNormShiftAmp_mXs,2020.1.2,MacIntel,60,,,,,,,,,,,,,,2,6.2895,,0,0,112,112,48,1,stimuli/stim_20210519_power2amp/equal_lnn_AM1Hz_s55_33.m4a,,,
,,,,,,,,,,,,38482,2021-05-26_08h21.27.250,judgeSpeechMusic_20210519_logNormShiftAmp_mXs,2020.1.2,MacIntel,60,,,,,,,,,,,,,,1,7.3055,,0,0,113,113,69,1,stimuli/stim_20210519_power2amp/equal_lnn_AM2.5Hz_s25_14.m4a,,,
,,,,,,,,,,,,38482,2021-05-26_08h21.27.250,judgeSpeechMusic_20210519_logNormShiftAmp_mXs,2020.1.2,MacIntel,60,,,,,,,,,,,,,,2,7.6775,,0,0,114,114,110,1,stimuli/stim_20210519_power2amp/equal_lnn_AM4Hz_s25_43.m4a,,,
,,,,,,,,,,,,38482,2021-05-26_08h21.27.250,judgeSpeechMusic_20210519_logNormShiftAmp_mXs,2020.1.2,MacIntel,60,,,,,,,,,,,,,,2,6.2598,,0,0,115,115,136,1,stimuli/stim_20210519_power2amp/equal_lnn_AM4Hz_s45_47.m4a,,,
,,,,,,,,,,,,38482,2021-05-26_08h21.27.250,judgeSpeechMusic_20210519_logNormShiftAmp_mXs,2020.1.2,MacIntel,60,,,,,,,,,,,,,,1,6.9617,,0,0,116,116,11,1,stimuli/stim_20210519_power2amp/equal_lnn_AM1Hz_s25_33.m4a,,,
,,,,,,,,,,,,38482,2021-05-26_08h21.27.250,judgeSpeechMusic_20210519_logNormShiftAmp_mXs,2020.1.2,MacIntel,60,,,,,,,,,,,,,,2,9.2261,,0,0,117,117,61,1,stimuli/stim_20210519_power2amp/equal_lnn_AM2.5Hz_s25_43.m4a,,,
,,,,,,,,,,,,38482,2021-05-26_08h21.27.250,judgeSpeechMusic_20210519_logNormShiftAmp_mXs,2020.1.2,MacIntel,60,,,,,,,,,,,,,,2,7.7287,,0,0,118,118,15,1,stimuli/stim_20210519_power2amp/equal_lnn_AM1Hz_s25_19.m4a,,,
,,,,,,,,,,,,38482,2021-05-26_08h21.27.250,judgeSpeechMusic_20210519_logNormShiftAmp_mXs,2020.1.2,MacIntel,60,,,,,,,,,,,,,,1,9.8631,,0,0,119,119,141,1,stimuli/stim_20210519_power2amp/equal_lnn_AM4Hz_s55_23.m4a,,,
,,,,,,,,,,,,38482,2021-05-26_08h21.27.250,judgeSpeechMusic_20210519_logNormShiftAmp_mXs,2020.1.2,MacIntel,60,,,,,,,,,,,,,,1,7.1743,4,1,0,120,120,41,1,stimuli/stim_20210519_power2amp/equal_lnn_AM1Hz_s55_39.m4a,1.5603,,
,,,,,,,,,,,,38482,2021-05-26_08h21.27.250,judgeSpeechMusic_20210519_logNormShiftAmp_mXs,2020.1.2,MacIntel,60,,,,,,,,,,,,,,1,7.3134,,0,0,121,121,123,1,stimuli/stim_20210519_power2amp/equal_lnn_AM4Hz_s35_43.m4a,,,
,,,,,,,,,,,,38482,2021-05-26_08h21.27.250,judgeSpeechMusic_20210519_logNormShiftAmp_mXs,2020.1.2,MacIntel,60,,,,,,,,,,,,,,1,8.5614,,0,0,122,122,31,1,stimuli/stim_20210519_power2amp/equal_lnn_AM1Hz_s45_14.m4a,,,
,,,,,,,,,,,,38482,2021-05-26_08h21.27.250,judgeSpeechMusic_20210519_logNormShiftAmp_mXs,2020.1.2,MacIntel,60,,,,,,,,,,,,,,1,6.5051,,0,0,123,123,38,1,stimuli/stim_20210519_power2amp/equal_lnn_AM1Hz_s45_44.m4a,,,
,,,,,,,,,,,,38482,2021-05-26_08h21.27.250,judgeSpeechMusic_20210519_logNormShiftAmp_mXs,2020.1.2,MacIntel,60,,,,,,,,,,,,,,2,7.2277,,0,0,124,124,127,1,stimuli/stim_20210519_power2amp/equal_lnn_AM4Hz_s35_31.m4a,,,
,,,,,,,,,,,,38482,2021-05-26_08h21.27.250,judgeSpeechMusic_20210519_logNormShiftAmp_mXs,2020.1.2,MacIntel,60,,,,,,,,,,,,,,2,7.073,,0,0,125,125,145,1,stimuli/stim_20210519_power2amp/equal_lnn_AM4Hz_s55_31.m4a,,,
,,,,,,,,,,,,38482,2021-05-26_08h21.27.250,judgeSpeechMusic_20210519_logNormShiftAmp_mXs,2020.1.2,MacIntel,60,,,,,,,,,,,,,,1,7.0431,,0,0,126,126,74,1,stimuli/stim_20210519_power2amp/equal_lnn_AM2.5Hz_s35_38.m4a,,,
,,,,,,,,,,,,38482,2021-05-26_08h21.27.250,judgeSpeechMusic_20210519_logNormShiftAmp_mXs,2020.1.2,MacIntel,60,,,,,,,,,,,,,,1,9.5898,,0,0,127,127,111,1,stimuli/stim_20210519_power2amp/equal_lnn_AM4Hz_s25_22.m4a,,,
,,,,,,,,,,,,38482,2021-05-26_08h21.27.250,judgeSpeechMusic_20210519_logNormShiftAmp_mXs,2020.1.2,MacIntel,60,,,,,,,,,,,,,,1,14.1896,,0,0,128,128,51,1,stimuli/stim_20210519_power2amp/equal_lnn_AM2.5Hz_s15_18.m4a,,,
,,,,,,,,,,,,38482,2021-05-26_08h21.27.250,judgeSpeechMusic_20210519_logNormShiftAmp_mXs,2020.1.2,MacIntel,60,,,,,,,,,,,,,,1,11.4288,,0,0,129,129,39,1,stimuli/stim_20210519_power2amp/equal_lnn_AM1Hz_s45_39.m4a,,,
,,,,,,,,,,,,38482,2021-05-26_08h21.27.250,judgeSpeechMusic_20210519_logNormShiftAmp_mXs,2020.1.2,MacIntel,60,,,,,,,,,,,,,,1,8.092,,0,0,130,130,36,1,stimuli/stim_20210519_power2amp/equal_lnn_AM1Hz_s45_23.m4a,,,
,,,,,,,,,,,,38482,2021-05-26_08h21.27.250,judgeSpeechMusic_20210519_logNormShiftAmp_mXs,2020.1.2,MacIntel,60,,,,,,,,,,,,,,2,7.7634,,0,0,131,131,129,1,stimuli/stim_20210519_power2amp/equal_lnn_AM4Hz_s35_16.m4a,,,
,,,,,,,,,,,,38482,2021-05-26_08h21.27.250,judgeSpeechMusic_20210519_logNormShiftAmp_mXs,2020.1.2,MacIntel,60,,,,,,,,,,,,,,2,8.7954,,0,0,132,132,18,1,stimuli/stim_20210519_power2amp/equal_lnn_AM1Hz_s25_7.m4a,,,
,,,,,,,,,,,,38482,2021-05-26_08h21.27.250,judgeSpeechMusic_20210519_logNormShiftAmp_mXs,2020.1.2,MacIntel,60,,,,,,,,,,,,,,2,6.1545,,0,0,133,133,35,1,stimuli/stim_20210519_power2amp/equal_lnn_AM1Hz_s45_33.m4a,,,
,,,,,,,,,,,,38482,2021-05-26_08h21.27.250,judgeSpeechMusic_20210519_logNormShiftAmp_mXs,2020.1.2,MacIntel,60,,,,,,,,,,,,,,2,5.9123,,0,0,134,134,119,1,stimuli/stim_20210519_power2amp/equal_lnn_AM4Hz_s25_37.m4a,,,
,,,,,,,,,,,,38482,2021-05-26_08h21.27.250,judgeSpeechMusic_20210519_logNormShiftAmp_mXs,2020.1.2,MacIntel,60,,,,,,,,,,,,,,2,6.5281,,0,0,135,135,120,1,stimuli/stim_20210519_power2amp/equal_lnn_AM4Hz_s35_10.m4a,,,
,,,,,,,,,,,,38482,2021-05-26_08h21.27.250,judgeSpeechMusic_20210519_logNormShiftAmp_mXs,2020.1.2,MacIntel,60,,,,,,,,,,,,,,2,5.9094,,0,0,136,136,83,1,stimuli/stim_20210519_power2amp/equal_lnn_AM2.5Hz_s45_8.m4a,,,
,,,,,,,,,,,,38482,2021-05-26_08h21.27.250,judgeSpeechMusic_20210519_logNormShiftAmp_mXs,2020.1.2,MacIntel,60,,,,,,,,,,,,,,1,8.0615,,0,0,137,137,133,1,stimuli/stim_20210519_power2amp/equal_lnn_AM4Hz_s45_37.m4a,,,
,,,,,,,,,,,,38482,2021-05-26_08h21.27.250,judgeSpeechMusic_20210519_logNormShiftAmp_mXs,2020.1.2,MacIntel,60,,,,,,,,,,,,,,1,10.3142,,0,0,138,138,103,1,stimuli/stim_20210519_power2amp/equal_lnn_AM4Hz_s15_42.m4a,,,
,,,,,,,,,,,,38482,2021-05-26_08h21.27.250,judgeSpeechMusic_20210519_logNormShiftAmp_mXs,2020.1.2,MacIntel,60,,,,,,,,,,,,,,2,7.0439,,0,0,139,139,94,1,stimuli/stim_20210519_power2amp/equal_lnn_AM2.5Hz_s55_43.m4a,,,
,,,,,,,,,,,,38482,2021-05-26_08h21.27.250,judgeSpeechMusic_20210519_logNormShiftAmp_mXs,2020.1.2,MacIntel,60,,,,,,,,,,,,,,2,10.709,,0,0,140,140,84,1,stimuli/stim_20210519_power2amp/equal_lnn_AM2.5Hz_s45_35.m4a,,,
,,,,,,,,,,,,38482,2021-05-26_08h21.27.250,judgeSpeechMusic_20210519_logNormShiftAmp_mXs,2020.1.2,MacIntel,60,,,,,,,,,,,,,,2,9.6772,1,1,0,141,141,49,1,stimuli/stim_20210519_power2amp/equal_lnn_AM1Hz_s55_18.m4a,1.1645,,
,,,,,,,,,,,,38482,2021-05-26_08h21.27.250,judgeSpeechMusic_20210519_logNormShiftAmp_mXs,2020.1.2,MacIntel,60,,,,,,,,,,,,,,2,20.5766,,0,0,142,142,23,1,stimuli/stim_20210519_power2amp/equal_lnn_AM1Hz_s35_20.m4a,,,
,,,,,,,,,,,,38482,2021-05-26_08h21.27.250,judgeSpeechMusic_20210519_logNormShiftAmp_mXs,2020.1.2,MacIntel,60,,,,,,,,,,,,,,2,9.5369,,0,0,143,143,92,1,stimuli/stim_20210519_power2amp/equal_lnn_AM2.5Hz_s55_18.m4a,,,
,,,,,,,,,,,,38482,2021-05-26_08h21.27.250,judgeSpeechMusic_20210519_logNormShiftAmp_mXs,2020.1.2,MacIntel,60,,,,,,,,,,,,,,1,6.2098,,0,0,144,144,97,1,stimuli/stim_20210519_power2amp/equal_lnn_AM2.5Hz_s55_8.m4a,,,
,,,,,,,,,,,,38482,2021-05-26_08h21.27.250,judgeSpeechMusic_20210519_logNormShiftAmp_mXs,2020.1.2,MacIntel,60,,,,,,,,,,,,,,1,10.6249,,0,0,145,145,77,1,stimuli/stim_20210519_power2amp/equal_lnn_AM2.5Hz_s35_37.m4a,,,
,,,,,,,,,,,,38482,2021-05-26_08h21.27.250,judgeSpeechMusic_20210519_logNormShiftAmp_mXs,2020.1.2,MacIntel,60,,,,,,,,,,,,,,2,11.8746,,0,0,146,146,40,1,stimuli/stim_20210519_power2amp/equal_lnn_AM1Hz_s55_37.m4a,,,
,,,,,,,,,,,,38482,2021-05-26_08h21.27.250,judgeSpeechMusic_20210519_logNormShiftAmp_mXs,2020.1.2,MacIntel,60,,,,,,,,,,,,,,2,7.1873,,0,0,147,147,98,1,stimuli/stim_20210519_power2amp/equal_lnn_AM2.5Hz_s55_34.m4a,,,
,,,,,,,,,,,,38482,2021-05-26_08h21.27.250,judgeSpeechMusic_20210519_logNormShiftAmp_mXs,2020.1.2,MacIntel,60,,,,,,,,,,,,,,1,5.8726,,0,0,148,148,59,1,stimuli/stim_20210519_power2amp/equal_lnn_AM2.5Hz_s15_4.m4a,,,
,,,,,,,,,,,,38482,2021-05-26_08h21.27.250,judgeSpeechMusic_20210519_logNormShiftAmp_mXs,2020.1.2,MacIntel,60,,,,,,,,,,,,,,1,5.7929,,0,0,149,149,113,1,stimuli/stim_20210519_power2amp/equal_lnn_AM4Hz_s25_29.m4a,,,
,,,,,,,,,,,,38482,2021-05-26_08h21.27.250,judgeSpeechMusic_20210519_logNormShiftAmp_mXs,2020.1.2,MacIntel,60,,,,,,,,,,,,,,2,10.4408,,0,1,0,150,134,1,stimuli/stim_20210519_power2amp/equal_lnn_AM4Hz_s45_6.m4a,,,
,,,,,,,,,,,,38482,2021-05-26_08h21.27.250,judgeSpeechMusic_20210519_logNormShiftAmp_mXs,2020.1.2,MacIntel,60,,,,,,,,,,,,,,2,8.6771,,0,1,1,151,54,1,stimuli/stim_20210519_power2amp/equal_lnn_AM2.5Hz_s15_24.m4a,,,
,,,,,,,,,,,,38482,2021-05-26_08h21.27.250,judgeSpeechMusic_20210519_logNormShiftAmp_mXs,2020.1.2,MacIntel,60,,,,,,,,,,,,,,2,5.7781,,0,1,2,152,84,1,stimuli/stim_20210519_power2amp/equal_lnn_AM2.5Hz_s45_35.m4a,,,
,,,,,,,,,,,,38482,2021-05-26_08h21.27.250,judgeSpeechMusic_20210519_logNormShiftAmp_mXs,2020.1.2,MacIntel,60,,,,,,,,,,,,,,1,10.2088,,0,1,3,153,65,1,stimuli/stim_20210519_power2amp/equal_lnn_AM2.5Hz_s25_2.m4a,,,
,,,,,,,,,,,,38482,2021-05-26_08h21.27.250,judgeSpeechMusic_20210519_logNormShiftAmp_mXs,2020.1.2,MacIntel,60,,,,,,,,,,,,,,1,7.1757,,0,1,4,154,78,1,stimuli/stim_20210519_power2amp/equal_lnn_AM2.5Hz_s35_19.m4a,,,
,,,,,,,,,,,,38482,2021-05-26_08h21.27.250,judgeSpeechMusic_20210519_logNormShiftAmp_mXs,2020.1.2,MacIntel,60,,,,,,,,,,,,,,1,6.3222,,0,1,5,155,113,1,stimuli/stim_20210519_power2amp/equal_lnn_AM4Hz_s25_29.m4a,,,
,,,,,,,,,,,,38482,2021-05-26_08h21.27.250,judgeSpeechMusic_20210519_logNormShiftAmp_mXs,2020.1.2,MacIntel,60,,,,,,,,,,,,,,1,7.4546,,0,1,6,156,121,1,stimuli/stim_20210519_power2amp/equal_lnn_AM4Hz_s35_23.m4a,,,
,,,,,,,,,,,,38482,2021-05-26_08h21.27.250,judgeSpeechMusic_20210519_logNormShiftAmp_mXs,2020.1.2,MacIntel,60,,,,,,,,,,,,,,1,6.7886,,0,1,7,157,7,1,stimuli/stim_20210519_power2amp/equal_lnn_AM1Hz_s15_18.m4a,,,
,,,,,,,,,,,,38482,2021-05-26_08h21.27.250,judgeSpeechMusic_20210519_logNormShiftAmp_mXs,2020.1.2,MacIntel,60,,,,,,,,,,,,,,1,6.3266,,0,1,8,158,20,1,stimuli/stim_20210519_power2amp/equal_lnn_AM1Hz_s35_34.m4a,,,
,,,,,,,,,,,,38482,2021-05-26_08h21.27.250,judgeSpeechMusic_20210519_logNormShiftAmp_mXs,2020.1.2,MacIntel,60,,,,,,,,,,,,,,1,6.422,,0,1,9,159,45,1,stimuli/stim_20210519_power2amp/equal_lnn_AM1Hz_s55_21.m4a,,,
,,,,,,,,,,,,38482,2021-05-26_08h21.27.250,judgeSpeechMusic_20210519_logNormShiftAmp_mXs,2020.1.2,MacIntel,60,,,,,,,,,,,,,,1,8.1789,,0,1,10,160,92,1,stimuli/stim_20210519_power2amp/equal_lnn_AM2.5Hz_s55_18.m4a,,,
,,,,,,,,,,,,38482,2021-05-26_08h21.27.250,judgeSpeechMusic_20210519_logNormShiftAmp_mXs,2020.1.2,MacIntel,60,,,,,,,,,,,,,,1,6.7147,,0,1,11,161,66,1,stimuli/stim_20210519_power2amp/equal_lnn_AM2.5Hz_s25_49.m4a,,,
,,,,,,,,,,,,38482,2021-05-26_08h21.27.250,judgeSpeechMusic_20210519_logNormShiftAmp_mXs,2020.1.2,MacIntel,60,,,,,,,,,,,,,,2,8.1903,,0,1,12,162,141,1,stimuli/stim_20210519_power2amp/equal_lnn_AM4Hz_s55_23.m4a,,,
,,,,,,,,,,,,38482,2021-05-26_08h21.27.250,judgeSpeechMusic_20210519_logNormShiftAmp_mXs,2020.1.2,MacIntel,60,,,,,,,,,,,,,,2,6.9563,,0,1,13,163,138,1,stimuli/stim_20210519_power2amp/equal_lnn_AM4Hz_s45_48.m4a,,,
,,,,,,,,,,,,38482,2021-05-26_08h21.27.250,judgeSpeechMusic_20210519_logNormShiftAmp_mXs,2020.1.2,MacIntel,60,,,,,,,,,,,,,,1,8.506,,0,1,14,164,142,1,stimuli/stim_20210519_power2amp/equal_lnn_AM4Hz_s55_38.m4a,,,
,,,,,,,,,,,,38482,2021-05-26_08h21.27.250,judgeSpeechMusic_20210519_logNormShiftAmp_mXs,2020.1.2,MacIntel,60,,,,,,,,,,,,,,1,7.1968,,0,1,15,165,8,1,stimuli/stim_20210519_power2amp/equal_lnn_AM1Hz_s15_33.m4a,,,
,,,,,,,,,,,,38482,2021-05-26_08h21.27.250,judgeSpeechMusic_20210519_logNormShiftAmp_mXs,2020.1.2,MacIntel,60,,,,,,,,,,,,,,2,9.0051,3,1,1,16,166,100,1,stimuli/stim_20210519_power2amp/equal_lnn_AM4Hz_s15_5.m4a,1.4431,,
,,,,,,,,,,,,38482,2021-05-26_08h21.27.250,judgeSpeechMusic_20210519_logNormShiftAmp_mXs,2020.1.2,MacIntel,60,,,,,,,,,,,,,,1,11.4265,,0,1,17,167,145,1,stimuli/stim_20210519_power2amp/equal_lnn_AM4Hz_s55_31.m4a,,,
,,,,,,,,,,,,38482,2021-05-26_08h21.27.250,judgeSpeechMusic_20210519_logNormShiftAmp_mXs,2020.1.2,MacIntel,60,,,,,,,,,,,,,,1,10.4264,,0,1,18,168,24,1,stimuli/stim_20210519_power2amp/equal_lnn_AM1Hz_s35_26.m4a,,,
,,,,,,,,,,,,38482,2021-05-26_08h21.27.250,judgeSpeechMusic_20210519_logNormShiftAmp_mXs,2020.1.2,MacIntel,60,,,,,,,,,,,,,,2,7.3052,,0,1,19,169,52,1,stimuli/stim_20210519_power2amp/equal_lnn_AM2.5Hz_s15_42.m4a,,,
,,,,,,,,,,,,38482,2021-05-26_08h21.27.250,judgeSpeechMusic_20210519_logNormShiftAmp_mXs,2020.1.2,MacIntel,60,,,,,,,,,,,,,,2,8.3786,,0,1,20,170,36,1,stimuli/stim_20210519_power2amp/equal_lnn_AM1Hz_s45_23.m4a,,,
,,,,,,,,,,,,38482,2021-05-26_08h21.27.250,judgeSpeechMusic_20210519_logNormShiftAmp_mXs,2020.1.2,MacIntel,60,,,,,,,,,,,,,,2,7.6891,,0,1,21,171,128,1,stimuli/stim_20210519_power2amp/equal_lnn_AM4Hz_s35_1.m4a,,,
,,,,,,,,,,,,38482,2021-05-26_08h21.27.250,judgeSpeechMusic_20210519_logNormShiftAmp_mXs,2020.1.2,MacIntel,60,,,,,,,,,,,,,,2,6.3589,,0,1,22,172,60,1,stimuli/stim_20210519_power2amp/equal_lnn_AM2.5Hz_s25_17.m4a,,,
,,,,,,,,,,,,38482,2021-05-26_08h21.27.250,judgeSpeechMusic_20210519_logNormShiftAmp_mXs,2020.1.2,MacIntel,60,,,,,,,,,,,,,,1,7.7561,,0,1,23,173,32,1,stimuli/stim_20210519_power2amp/equal_lnn_AM1Hz_s45_31.m4a,,,
,,,,,,,,,,,,38482,2021-05-26_08h21.27.250,judgeSpeechMusic_20210519_logNormShiftAmp_mXs,2020.1.2,MacIntel,60,,,,,,,,,,,,,,2,6.3899,,0,1,24,174,124,1,stimuli/stim_20210519_power2amp/equal_lnn_AM4Hz_s35_20.m4a,,,
,,,,,,,,,,,,38482,2021-05-26_08h21.27.250,judgeSpeechMusic_20210519_logNormShiftAmp_mXs,2020.1.2,MacIntel,60,,,,,,,,,,,,,,2,6.894,,0,1,25,175,55,1,stimuli/stim_20210519_power2amp/equal_lnn_AM2.5Hz_s15_3.m4a,,,
,,,,,,,,,,,,38482,2021-05-26_08h21.27.250,judgeSpeechMusic_20210519_logNormShiftAmp_mXs,2020.1.2,MacIntel,60,,,,,,,,,,,,,,2,6.1893,,0,1,26,176,77,1,stimuli/stim_20210519_power2amp/equal_lnn_AM2.5Hz_s35_37.m4a,,,
,,,,,,,,,,,,38482,2021-05-26_08h21.27.250,judgeSpeechMusic_20210519_logNormShiftAmp_mXs,2020.1.2,MacIntel,60,,,,,,,,,,,,,,1,7.4888,,0,1,27,177,11,1,stimuli/stim_20210519_power2amp/equal_lnn_AM1Hz_s25_33.m4a,,,
,,,,,,,,,,,,38482,2021-05-26_08h21.27.250,judgeSpeechMusic_20210519_logNormShiftAmp_mXs,2020.1.2,MacIntel,60,,,,,,,,,,,,,,2,7.1947,,0,1,28,178,118,1,stimuli/stim_20210519_power2amp/equal_lnn_AM4Hz_s25_13.m4a,,,
,,,,,,,,,,,,38482,2021-05-26_08h21.27.250,judgeSpeechMusic_20210519_logNormShiftAmp_mXs,2020.1.2,MacIntel,60,,,,,,,,,,,,,,1,12.1721,,0,1,29,179,25,1,stimuli/stim_20210519_power2amp/equal_lnn_AM1Hz_s35_31.m4a,,,
,,,,,,,,,,,,38482,2021-05-26_08h21.27.250,judgeSpeechMusic_20210519_logNormShiftAmp_mXs,2020.1.2,MacIntel,60,,,,,,,,,,,,,,1,10.2474,,0,1,30,180,106,1,stimuli/stim_20210519_power2amp/equal_lnn_AM4Hz_s15_10.m4a,,,
,,,,,,,,,,,,38482,2021-05-26_08h21.27.250,judgeSpeechMusic_20210519_logNormShiftAmp_mXs,2020.1.2,MacIntel,60,,,,,,,,,,,,,,1,8.0907,,0,1,31,181,27,1,stimuli/stim_20210519_power2amp/equal_lnn_AM1Hz_s35_47.m4a,,,
,,,,,,,,,,,,38482,2021-05-26_08h21.27.250,judgeSpeechMusic_20210519_logNormShiftAmp_mXs,2020.1.2,MacIntel,60,,,,,,,,,,,,,,1,9.3561,,0,1,32,182,42,1,stimuli/stim_20210519_power2amp/equal_lnn_AM1Hz_s55_48.m4a,,,
,,,,,,,,,,,,38482,2021-05-26_08h21.27.250,judgeSpeechMusic_20210519_logNormShiftAmp_mXs,2020.1.2,MacIntel,60,,,,,,,,,,,,,,1,7.0726,,0,1,33,183,105,1,stimuli/stim_20210519_power2amp/equal_lnn_AM4Hz_s15_27.m4a,,,
,,,,,,,,,,,,38482,2021-05-26_08h21.27.250,judgeSpeechMusic_20210519_logNormShiftAmp_mXs,2020.1.2,MacIntel,60,,,,,,,,,,,,,,1,10.4439,,0,1,34,184,5,1,stimuli/stim_20210519_power2amp/equal_lnn_AM1Hz_s15_6.m4a,,,
,,,,,,,,,,,,38482,2021-05-26_08h21.27.250,judgeSpeechMusic_20210519_logNormShiftAmp_mXs,2020.1.2,MacIntel,60,,,,,,,,,,,,,,2,11.2731,,0,1,35,185,1,1,stimuli/stim_20210519_power2amp/equal_lnn_AM1Hz_s15_32.m4a,,,
,,,,,,,,,,,,38482,2021-05-26_08h21.27.250,judgeSpeechMusic_20210519_logNormShiftAmp_mXs,2020.1.2,MacIntel,60,,,,,,,,,,,,,,2,9.9718,,0,1,36,186,12,1,stimuli/stim_20210519_power2amp/equal_lnn_AM1Hz_s25_24.m4a,,,
,,,,,,,,,,,,38482,2021-05-26_08h21.27.250,judgeSpeechMusic_20210519_logNormShiftAmp_mXs,2020.1.2,MacIntel,60,,,,,,,,,,,,,,2,14.5715,,0,1,37,187,37,1,stimuli/stim_20210519_power2amp/equal_lnn_AM1Hz_s45_32.m4a,,,
,,,,,,,,,,,,38482,2021-05-26_08h21.27.250,judgeSpeechMusic_20210519_logNormShiftAmp_mXs,2020.1.2,MacIntel,60,,,,,,,,,,,,,,2,7.7045,,0,1,38,188,28,1,stimuli/stim_20210519_power2amp/equal_lnn_AM1Hz_s35_5.m4a,,,
,,,,,,,,,,,,38482,2021-05-26_08h21.27.250,judgeSpeechMusic_20210519_logNormShiftAmp_mXs,2020.1.2,MacIntel,60,,,,,,,,,,,,,,2,9.8902,,0,1,39,189,31,1,stimuli/stim_20210519_power2amp/equal_lnn_AM1Hz_s45_14.m4a,,,
,,,,,,,,,,,,38482,2021-05-26_08h21.27.250,judgeSpeechMusic_20210519_logNormShiftAmp_mXs,2020.1.2,MacIntel,60,,,,,,,,,,,,,,1,10.1076,,0,1,40,190,104,1,stimuli/stim_20210519_power2amp/equal_lnn_AM4Hz_s15_44.m4a,,,
,,,,,,,,,,,,38482,2021-05-26_08h21.27.250,judgeSpeechMusic_20210519_logNormShiftAmp_mXs,2020.1.2,MacIntel,60,,,,,,,,,,,,,,1,7.8218,4,1,1,41,191,68,1,stimuli/stim_20210519_power2amp/equal_lnn_AM2.5Hz_s25_1.m4a,2.2142,,
,,,,,,,,,,,,38482,2021-05-26_08h21.27.250,judgeSpeechMusic_20210519_logNormShiftAmp_mXs,2020.1.2,MacIntel,60,,,,,,,,,,,,,,2,7.5923,,0,1,42,192,127,1,stimuli/stim_20210519_power2amp/equal_lnn_AM4Hz_s35_31.m4a,,,
,,,,,,,,,,,,38482,2021-05-26_08h21.27.250,judgeSpeechMusic_20210519_logNormShiftAmp_mXs,2020.1.2,MacIntel,60,,,,,,,,,,,,,,2,11.363,,0,1,43,193,79,1,stimuli/stim_20210519_power2amp/equal_lnn_AM2.5Hz_s35_25.m4a,,,
,,,,,,,,,,,,38482,2021-05-26_08h21.27.250,judgeSpeechMusic_20210519_logNormShiftAmp_mXs,2020.1.2,MacIntel,60,,,,,,,,,,,,,,2,7.2714,,0,1,44,194,93,1,stimuli/stim_20210519_power2amp/equal_lnn_AM2.5Hz_s55_3.m4a,,,
,,,,,,,,,,,,38482,2021-05-26_08h21.27.250,judgeSpeechMusic_20210519_logNormShiftAmp_mXs,2020.1.2,MacIntel,60,,,,,,,,,,,,,,2,5.8776,,0,1,45,195,72,1,stimuli/stim_20210519_power2amp/equal_lnn_AM2.5Hz_s35_9.m4a,,,
,,,,,,,,,,,,38482,2021-05-26_08h21.27.250,judgeSpeechMusic_20210519_logNormShiftAmp_mXs,2020.1.2,MacIntel,60,,,,,,,,,,,,,,2,6.3775,,0,1,46,196,102,1,stimuli/stim_20210519_power2amp/equal_lnn_AM4Hz_s15_40.m4a,,,
,,,,,,,,,,,,38482,2021-05-26_08h21.27.250,judgeSpeechMusic_20210519_logNormShiftAmp_mXs,2020.1.2,MacIntel,60,,,,,,,,,,,,,,2,13.2467,,0,1,47,197,57,1,stimuli/stim_20210519_power2amp/equal_lnn_AM2.5Hz_s15_1.m4a,,,
,,,,,,,,,,,,38482,2021-05-26_08h21.27.250,judgeSpeechMusic_20210519_logNormShiftAmp_mXs,2020.1.2,MacIntel,60,,,,,,,,,,,,,,1,6.5716,,0,1,48,198,10,1,stimuli/stim_20210519_power2amp/equal_lnn_AM1Hz_s25_34.m4a,,,
,,,,,,,,,,,,38482,2021-05-26_08h21.27.250,judgeSpeechMusic_20210519_logNormShiftAmp_mXs,2020.1.2,MacIntel,60,,,,,,,,,,,,,,2,8.911,,0,1,49,199,133,1,stimuli/stim_20210519_power2amp/equal_lnn_AM4Hz_s45_37.m4a,,,
,,,,,,,,,,,,38482,2021-05-26_08h21.27.250,judgeSpeechMusic_20210519_logNormShiftAmp_mXs,2020.1.2,MacIntel,60,,,,,,,,,,,,,,1,8.8064,,0,1,50,200,86,1,stimuli/stim_20210519_power2amp/equal_lnn_AM2.5Hz_s45_28.m4a,,,
,,,,,,,,,,,,38482,2021-05-26_08h21.27.250,judgeSpeechMusic_20210519_logNormShiftAmp_mXs,2020.1.2,MacIntel,60,,,,,,,,,,,,,,2,10.3894,,0,1,51,201,64,1,stimuli/stim_20210519_power2amp/equal_lnn_AM2.5Hz_s25_44.m4a,,,
,,,,,,,,,,,,38482,2021-05-26_08h21.27.250,judgeSpeechMusic_20210519_logNormShiftAmp_mXs,2020.1.2,MacIntel,60,,,,,,,,,,,,,,1,6.6638,,0,1,52,202,41,1,stimuli/stim_20210519_power2amp/equal_lnn_AM1Hz_s55_39.m4a,,,
,,,,,,,,,,,,38482,2021-05-26_08h21.27.250,judgeSpeechMusic_20210519_logNormShiftAmp_mXs,2020.1.2,MacIntel,60,,,,,,,,,,,,,,1,7.9035,,0,1,53,203,69,1,stimuli/stim_20210519_power2amp/equal_lnn_AM2.5Hz_s25_14.m4a,,,
,,,,,,,,,,,,38482,2021-05-26_08h21.27.250,judgeSpeechMusic_20210519_logNormShiftAmp_mXs,2020.1.2,MacIntel,60,,,,,,,,,,,,,,1,5.8725,,0,1,54,204,40,1,stimuli/stim_20210519_power2amp/equal_lnn_AM1Hz_s55_37.m4a,,,
,,,,,,,,,,,,38482,2021-05-26_08h21.27.250,judgeSpeechMusic_20210519_logNormShiftAmp_mXs,2020.1.2,MacIntel,60,,,,,,,,,,,,,,2,6.6552,,0,1,55,205,99,1,stimuli/stim_20210519_power2amp/equal_lnn_AM2.5Hz_s55_1.m4a,,,
,,,,,,,,,,,,38482,2021-05-26_08h21.27.250,judgeSpeechMusic_20210519_logNormShiftAmp_mXs,2020.1.2,MacIntel,60,,,,,,,,,,,,,,1,8.7253,,0,1,56,206,9,1,stimuli/stim_20210519_power2amp/equal_lnn_AM1Hz_s15_37.m4a,,,
,,,,,,,,,,,,38482,2021-05-26_08h21.27.250,judgeSpeechMusic_20210519_logNormShiftAmp_mXs,2020.1.2,MacIntel,60,,,,,,,,,,,,,,2,9.8221,,0,1,57,207,135,1,stimuli/stim_20210519_power2amp/equal_lnn_AM4Hz_s45_44.m4a,,,
,,,,,,,,,,,,38482,2021-05-26_08h21.27.250,judgeSpeechMusic_20210519_logNormShiftAmp_mXs,2020.1.2,MacIntel,60,,,,,,,,,,,,,,1,8.526,,0,1,58,208,50,1,stimuli/stim_20210519_power2amp/equal_lnn_AM2.5Hz_s15_44.m4a,,,
,,,,,,,,,,,,38482,2021-05-26_08h21.27.250,judgeSpeechMusic_20210519_logNormShiftAmp_mXs,2020.1.2,MacIntel,60,,,,,,,,,,,,,,1,10.6722,,0,1,59,209,146,1,stimuli/stim_20210519_power2amp/equal_lnn_AM4Hz_s55_35.m4a,,,
,,,,,,,,,,,,38482,2021-05-26_08h21.27.250,judgeSpeechMusic_20210519_logNormShiftAmp_mXs,2020.1.2,MacIntel,60,,,,,,,,,,,,,,1,9.0244,,0,1,60,210,89,1,stimuli/stim_20210519_power2amp/equal_lnn_AM2.5Hz_s45_45.m4a,,,
,,,,,,,,,,,,38482,2021-05-26_08h21.27.250,judgeSpeechMusic_20210519_logNormShiftAmp_mXs,2020.1.2,MacIntel,60,,,,,,,,,,,,,,2,14.7059,,0,1,61,211,17,1,stimuli/stim_20210519_power2amp/equal_lnn_AM1Hz_s25_3.m4a,,,
,,,,,,,,,,,,38482,2021-05-26_08h21.27.250,judgeSpeechMusic_20210519_logNormShiftAmp_mXs,2020.1.2,MacIntel,60,,,,,,,,,,,,,,2,8.326,,0,1,62,212,122,1,stimuli/stim_20210519_power2amp/equal_lnn_AM4Hz_s35_47.m4a,,,
,,,,,,,,,,,,38482,2021-05-26_08h21.27.250,judgeSpeechMusic_20210519_logNormShiftAmp_mXs,2020.1.2,MacIntel,60,,,,,,,,,,,,,,2,6.7256,2,1,1,63,213,80,1,stimuli/stim_20210519_power2amp/equal_lnn_AM2.5Hz_s45_36.m4a,1.1768,,
,,,,,,,,,,,,38482,2021-05-26_08h21.27.250,judgeSpeechMusic_20210519_logNormShiftAmp_mXs,2020.1.2,MacIntel,60,,,,,,,,,,,,,,2,5.6776,,0,1,64,214,115,1,stimuli/stim_20210519_power2amp/equal_lnn_AM4Hz_s25_30.m4a,,,
,,,,,,,,,,,,38482,2021-05-26_08h21.27.250,judgeSpeechMusic_20210519_logNormShiftAmp_mXs,2020.1.2,MacIntel,60,,,,,,,,,,,,,,1,5.7106,,0,1,65,215,34,1,stimuli/stim_20210519_power2amp/equal_lnn_AM1Hz_s45_24.m4a,,,
,,,,,,,,,,,,38482,2021-05-26_08h21.27.250,judgeSpeechMusic_20210519_logNormShiftAmp_mXs,2020.1.2,MacIntel,60,,,,,,,,,,,,,,2,5.795,,0,1,66,216,61,1,stimuli/stim_20210519_power2amp/equal_lnn_AM2.5Hz_s25_43.m4a,,,
,,,,,,,,,,,,38482,2021-05-26_08h21.27.250,judgeSpeechMusic_20210519_logNormShiftAmp_mXs,2020.1.2,MacIntel,60,,,,,,,,,,,,,,1,7.4414,,0,1,67,217,119,1,stimuli/stim_20210519_power2amp/equal_lnn_AM4Hz_s25_37.m4a,,,
,,,,,,,,,,,,38482,2021-05-26_08h21.27.250,judgeSpeechMusic_20210519_logNormShiftAmp_mXs,2020.1.2,MacIntel,60,,,,,,,,,,,,,,1,8.3708,,0,1,68,218,88,1,stimuli/stim_20210519_power2amp/equal_lnn_AM2.5Hz_s45_33.m4a,,,
,,,,,,,,,,,,38482,2021-05-26_08h21.27.250,judgeSpeechMusic_20210519_logNormShiftAmp_mXs,2020.1.2,MacIntel,60,,,,,,,,,,,,,,1,10.9761,,0,1,69,219,149,1,stimuli/stim_20210519_power2amp/equal_lnn_AM4Hz_s55_3.m4a,,,
,,,,,,,,,,,,38482,2021-05-26_08h21.27.250,judgeSpeechMusic_20210519_logNormShiftAmp_mXs,2020.1.2,MacIntel,60,,,,,,,,,,,,,,1,8.256,,0,1,70,220,33,1,stimuli/stim_20210519_power2amp/equal_lnn_AM1Hz_s45_47.m4a,,,
,,,,,,,,,,,,38482,2021-05-26_08h21.27.250,judgeSpeechMusic_20210519_logNormShiftAmp_mXs,2020.1.2,MacIntel,60,,,,,,,,,,,,,,1,10.3719,,0,1,71,221,87,1,stimuli/stim_20210519_power2amp/equal_lnn_AM2.5Hz_s45_14.m4a,,,
,,,,,,,,,,,,38482,2021-05-26_08h21.27.250,judgeSpeechMusic_20210519_logNormShiftAmp_mXs,2020.1.2,MacIntel,60,,,,,,,,,,,,,,2,7.5466,,0,1,72,222,125,1,stimuli/stim_20210519_power2amp/equal_lnn_AM4Hz_s35_22.m4a,,,
,,,,,,,,,,,,38482,2021-05-26_08h21.27.250,judgeSpeechMusic_20210519_logNormShiftAmp_mXs,2020.1.2,MacIntel,60,,,,,,,,,,,,,,2,5.7413,,0,1,73,223,103,1,stimuli/stim_20210519_power2amp/equal_lnn_AM4Hz_s15_42.m4a,,,
,,,,,,,,,,,,38482,2021-05-26_08h21.27.250,judgeSpeechMusic_20210519_logNormShiftAmp_mXs,2020.1.2,MacIntel,60,,,,,,,,,,,,,,2,5.9758,,0,1,74,224,82,1,stimuli/stim_20210519_power2amp/equal_lnn_AM2.5Hz_s45_7.m4a,,,
,,,,,,,,,,,,38482,2021-05-26_08h21.27.250,judgeSpeechMusic_20210519_logNormShiftAmp_mXs,2020.1.2,MacIntel,60,,,,,,,,,,,,,,1,6.6252,,0,1,75,225,46,1,stimuli/stim_20210519_power2amp/equal_lnn_AM1Hz_s55_44.m4a,,,
,,,,,,,,,,,,38482,2021-05-26_08h21.27.250,judgeSpeechMusic_20210519_logNormShiftAmp_mXs,2020.1.2,MacIntel,60,,,,,,,,,,,,,,1,7.6049,,0,1,76,226,3,1,stimuli/stim_20210519_power2amp/equal_lnn_AM1Hz_s15_46.m4a,,,
,,,,,,,,,,,,38482,2021-05-26_08h21.27.250,judgeSpeechMusic_20210519_logNormShiftAmp_mXs,2020.1.2,MacIntel,60,,,,,,,,,,,,,,1,8.2083,,0,1,77,227,94,1,stimuli/stim_20210519_power2amp/equal_lnn_AM2.5Hz_s55_43.m4a,,,
,,,,,,,,,,,,38482,2021-05-26_08h21.27.250,judgeSpeechMusic_20210519_logNormShiftAmp_mXs,2020.1.2,MacIntel,60,,,,,,,,,,,,,,2,6.9549,,0,1,78,228,53,1,stimuli/stim_20210519_power2amp/equal_lnn_AM2.5Hz_s15_15.m4a,,,
,,,,,,,,,,,,38482,2021-05-26_08h21.27.250,judgeSpeechMusic_20210519_logNormShiftAmp_mXs,2020.1.2,MacIntel,60,,,,,,,,,,,,,,2,9.8419,,0,1,79,229,96,1,stimuli/stim_20210519_power2amp/equal_lnn_AM2.5Hz_s55_13.m4a,,,
,,,,,,,,,,,,38482,2021-05-26_08h21.27.250,judgeSpeechMusic_20210519_logNormShiftAmp_mXs,2020.1.2,MacIntel,60,,,,,,,,,,,,,,2,8.5923,,0,1,80,230,85,1,stimuli/stim_20210519_power2amp/equal_lnn_AM2.5Hz_s45_2.m4a,,,
,,,,,,,,,,,,38482,2021-05-26_08h21.27.250,judgeSpeechMusic_20210519_logNormShiftAmp_mXs,2020.1.2,MacIntel,60,,,,,,,,,,,,,,1,7.9549,,0,1,81,231,136,1,stimuli/stim_20210519_power2amp/equal_lnn_AM4Hz_s45_47.m4a,,,
,,,,,,,,,,,,38482,2021-05-26_08h21.27.250,judgeSpeechMusic_20210519_logNormShiftAmp_mXs,2020.1.2,MacIntel,60,,,,,,,,,,,,,,2,8.9426,,0,1,82,232,18,1,stimuli/stim_20210519_power2amp/equal_lnn_AM1Hz_s25_7.m4a,,,
,,,,,,,,,,,,38482,2021-05-26_08h21.27.250,judgeSpeechMusic_20210519_logNormShiftAmp_mXs,2020.1.2,MacIntel,60,,,,,,,,,,,,,,2,6.1938,,0,1,83,233,58,1,stimuli/stim_20210519_power2amp/equal_lnn_AM2.5Hz_s15_26.m4a,,,
,,,,,,,,,,,,38482,2021-05-26_08h21.27.250,judgeSpeechMusic_20210519_logNormShiftAmp_mXs,2020.1.2,MacIntel,60,,,,,,,,,,,,,,2,6.2294,,0,1,84,234,56,1,stimuli/stim_20210519_power2amp/equal_lnn_AM2.5Hz_s15_19.m4a,,,
,,,,,,,,,,,,38482,2021-05-26_08h21.27.250,judgeSpeechMusic_20210519_logNormShiftAmp_mXs,2020.1.2,MacIntel,60,,,,,,,,,,,,,,2,7.6051,,0,1,85,235,2,1,stimuli/stim_20210519_power2amp/equal_lnn_AM1Hz_s15_12.m4a,,,
,,,,,,,,,,,,38482,2021-05-26_08h21.27.250,judgeSpeechMusic_20210519_logNormShiftAmp_mXs,2020.1.2,MacIntel,60,,,,,,,,,,,,,,2,7.4637,,0,1,86,236,83,1,stimuli/stim_20210519_power2amp/equal_lnn_AM2.5Hz_s45_8.m4a,,,
,,,,,,,,,,,,38482,2021-05-26_08h21.27.250,judgeSpeechMusic_20210519_logNormShiftAmp_mXs,2020.1.2,MacIntel,60,,,,,,,,,,,,,,1,6.3372,4,1,1,87,237,90,1,stimuli/stim_20210519_power2amp/equal_lnn_AM2.5Hz_s55_30.m4a,0.9595,,
,,,,,,,,,,,,38482,2021-05-26_08h21.27.250,judgeSpeechMusic_20210519_logNormShiftAmp_mXs,2020.1.2,MacIntel,60,,,,,,,,,,,,,,1,5.8053,,0,1,88,238,126,1,stimuli/stim_20210519_power2amp/equal_lnn_AM4Hz_s35_9.m4a,,,
,,,,,,,,,,,,38482,2021-05-26_08h21.27.250,judgeSpeechMusic_20210519_logNormShiftAmp_mXs,2020.1.2,MacIntel,60,,,,,,,,,,,,,,2,7.4288,,0,1,89,239,101,1,stimuli/stim_20210519_power2amp/equal_lnn_AM4Hz_s15_25.m4a,,,
,,,,,,,,,,,,38482,2021-05-26_08h21.27.250,judgeSpeechMusic_20210519_logNormShiftAmp_mXs,2020.1.2,MacIntel,60,,,,,,,,,,,,,,2,7.3906,,0,1,90,240,51,1,stimuli/stim_20210519_power2amp/equal_lnn_AM2.5Hz_s15_18.m4a,,,
,,,,,,,,,,,,38482,2021-05-26_08h21.27.250,judgeSpeechMusic_20210519_logNormShiftAmp_mXs,2020.1.2,MacIntel,60,,,,,,,,,,,,,,1,7.3931,,0,1,91,241,43,1,stimuli/stim_20210519_power2amp/equal_lnn_AM1Hz_s55_27.m4a,,,
,,,,,,,,,,,,38482,2021-05-26_08h21.27.250,judgeSpeechMusic_20210519_logNormShiftAmp_mXs,2020.1.2,MacIntel,60,,,,,,,,,,,,,,1,10.2074,,0,1,92,242,14,1,stimuli/stim_20210519_power2amp/equal_lnn_AM1Hz_s25_20.m4a,,,
,,,,,,,,,,,,38482,2021-05-26_08h21.27.250,judgeSpeechMusic_20210519_logNormShiftAmp_mXs,2020.1.2,MacIntel,60,,,,,,,,,,,,,,2,9.4896,,0,1,93,243,62,1,stimuli/stim_20210519_power2amp/equal_lnn_AM2.5Hz_s25_36.m4a,,,
,,,,,,,,,,,,38482,2021-05-26_08h21.27.250,judgeSpeechMusic_20210519_logNormShiftAmp_mXs,2020.1.2,MacIntel,60,,,,,,,,,,,,,,1,7.7109,,0,1,94,244,107,1,stimuli/stim_20210519_power2amp/equal_lnn_AM4Hz_s15_19.m4a,,,
,,,,,,,,,,,,38482,2021-05-26_08h21.27.250,judgeSpeechMusic_20210519_logNormShiftAmp_mXs,2020.1.2,MacIntel,60,,,,,,,,,,,,,,1,9.3145,,0,1,95,245,143,1,stimuli/stim_20210519_power2amp/equal_lnn_AM4Hz_s55_10.m4a,,,
,,,,,,,,,,,,38482,2021-05-26_08h21.27.250,judgeSpeechMusic_20210519_logNormShiftAmp_mXs,2020.1.2,MacIntel,60,,,,,,,,,,,,,,1,9.7704,,0,1,96,246,49,1,stimuli/stim_20210519_power2amp/equal_lnn_AM1Hz_s55_18.m4a,,,
,,,,,,,,,,,,38482,2021-05-26_08h21.27.250,judgeSpeechMusic_20210519_logNormShiftAmp_mXs,2020.1.2,MacIntel,60,,,,,,,,,,,,,,2,6.9561,,0,1,97,247,70,1,stimuli/stim_20210519_power2amp/equal_lnn_AM2.5Hz_s35_48.m4a,,,
,,,,,,,,,,,,38482,2021-05-26_08h21.27.250,judgeSpeechMusic_20210519_logNormShiftAmp_mXs,2020.1.2,MacIntel,60,,,,,,,,,,,,,,2,5.6205,,0,1,98,248,109,1,stimuli/stim_20210519_power2amp/equal_lnn_AM4Hz_s15_1.m4a,,,
,,,,,,,,,,,,38482,2021-05-26_08h21.27.250,judgeSpeechMusic_20210519_logNormShiftAmp_mXs,2020.1.2,MacIntel,60,,,,,,,,,,,,,,1,6.7383,,0,1,99,249,26,1,stimuli/stim_20210519_power2amp/equal_lnn_AM1Hz_s35_1.m4a,,,
,,,,,,,,,,,,38482,2021-05-26_08h21.27.250,judgeSpeechMusic_20210519_logNormShiftAmp_mXs,2020.1.2,MacIntel,60,,,,,,,,,,,,,,2,9.3142,,0,1,100,250,140,1,stimuli/stim_20210519_power2amp/equal_lnn_AM4Hz_s55_33.m4a,,,
,,,,,,,,,,,,38482,2021-05-26_08h21.27.250,judgeSpeechMusic_20210519_logNormShiftAmp_mXs,2020.1.2,MacIntel,60,,,,,,,,,,,,,,1,11.0597,,0,1,101,251,4,1,stimuli/stim_20210519_power2amp/equal_lnn_AM1Hz_s15_14.m4a,,,
,,,,,,,,,,,,38482,2021-05-26_08h21.27.250,judgeSpeechMusic_20210519_logNormShiftAmp_mXs,2020.1.2,MacIntel,60,,,,,,,,,,,,,,2,7.4546,,0,1,102,252,98,1,stimuli/stim_20210519_power2amp/equal_lnn_AM2.5Hz_s55_34.m4a,,,
,,,,,,,,,,,,38482,2021-05-26_08h21.27.250,judgeSpeechMusic_20210519_logNormShiftAmp_mXs,2020.1.2,MacIntel,60,,,,,,,,,,,,,,1,11.1886,,0,1,103,253,95,1,stimuli/stim_20210519_power2amp/equal_lnn_AM2.5Hz_s55_26.m4a,,,
,,,,,,,,,,,,38482,2021-05-26_08h21.27.250,judgeSpeechMusic_20210519_logNormShiftAmp_mXs,2020.1.2,MacIntel,60,,,,,,,,,,,,,,2,10.3949,,0,1,104,254,19,1,stimuli/stim_20210519_power2amp/equal_lnn_AM1Hz_s25_41.m4a,,,
,,,,,,,,,,,,38482,2021-05-26_08h21.27.250,judgeSpeechMusic_20210519_logNormShiftAmp_mXs,2020.1.2,MacIntel,60,,,,,,,,,,,,,,2,9.3105,,0,1,105,255,97,1,stimuli/stim_20210519_power2amp/equal_lnn_AM2.5Hz_s55_8.m4a,,,
,,,,,,,,,,,,38482,2021-05-26_08h21.27.250,judgeSpeechMusic_20210519_logNormShiftAmp_mXs,2020.1.2,MacIntel,60,,,,,,,,,,,,,,2,6.7055,,0,1,106,256,63,1,stimuli/stim_20210519_power2amp/equal_lnn_AM2.5Hz_s25_28.m4a,,,
,,,,,,,,,,,,38482,2021-05-26_08h21.27.250,judgeSpeechMusic_20210519_logNormShiftAmp_mXs,2020.1.2,MacIntel,60,,,,,,,,,,,,,,1,7.7431,,0,1,107,257,16,1,stimuli/stim_20210519_power2amp/equal_lnn_AM1Hz_s25_50.m4a,,,
,,,,,,,,,,,,38482,2021-05-26_08h21.27.250,judgeSpeechMusic_20210519_logNormShiftAmp_mXs,2020.1.2,MacIntel,60,,,,,,,,,,,,,,2,7.9063,,0,1,108,258,131,1,stimuli/stim_20210519_power2amp/equal_lnn_AM4Hz_s45_38.m4a,,,
,,,,,,,,,,,,38482,2021-05-26_08h21.27.250,judgeSpeechMusic_20210519_logNormShiftAmp_mXs,2020.1.2,MacIntel,60,,,,,,,,,,,,,,1,11.1759,,0,1,109,259,137,1,stimuli/stim_20210519_power2amp/equal_lnn_AM4Hz_s45_20.m4a,,,
,,,,,,,,,,,,38482,2021-05-26_08h21.27.250,judgeSpeechMusic_20210519_logNormShiftAmp_mXs,2020.1.2,MacIntel,60,,,,,,,,,,,,,,1,9.2067,,0,1,110,260,59,1,stimuli/stim_20210519_power2amp/equal_lnn_AM2.5Hz_s15_4.m4a,,,
,,,,,,,,,,,,38482,2021-05-26_08h21.27.250,judgeSpeechMusic_20210519_logNormShiftAmp_mXs,2020.1.2,MacIntel,60,,,,,,,,,,,,,,2,9.2306,1,1,1,111,261,35,1,stimuli/stim_20210519_power2amp/equal_lnn_AM1Hz_s45_33.m4a,0.977,,
,,,,,,,,,,,,38482,2021-05-26_08h21.27.250,judgeSpeechMusic_20210519_logNormShiftAmp_mXs,2020.1.2,MacIntel,60,,,,,,,,,,,,,,2,11.9888,,0,1,112,262,132,1,stimuli/stim_20210519_power2amp/equal_lnn_AM4Hz_s45_46.m4a,,,
,,,,,,,,,,,,38482,2021-05-26_08h21.27.250,judgeSpeechMusic_20210519_logNormShiftAmp_mXs,2020.1.2,MacIntel,60,,,,,,,,,,,,,,2,7.3049,,0,1,113,263,117,1,stimuli/stim_20210519_power2amp/equal_lnn_AM4Hz_s25_20.m4a,,,
,,,,,,,,,,,,38482,2021-05-26_08h21.27.250,judgeSpeechMusic_20210519_logNormShiftAmp_mXs,2020.1.2,MacIntel,60,,,,,,,,,,,,,,1,6.328,,0,1,114,264,130,1,stimuli/stim_20210519_power2amp/equal_lnn_AM4Hz_s45_24.m4a,,,
,,,,,,,,,,,,38482,2021-05-26_08h21.27.250,judgeSpeechMusic_20210519_logNormShiftAmp_mXs,2020.1.2,MacIntel,60,,,,,,,,,,,,,,1,9.6221,,0,1,115,265,111,1,stimuli/stim_20210519_power2amp/equal_lnn_AM4Hz_s25_22.m4a,,,
,,,,,,,,,,,,38482,2021-05-26_08h21.27.250,judgeSpeechMusic_20210519_logNormShiftAmp_mXs,2020.1.2,MacIntel,60,,,,,,,,,,,,,,2,7.7711,,0,1,116,266,112,1,stimuli/stim_20210519_power2amp/equal_lnn_AM4Hz_s25_47.m4a,,,
,,,,,,,,,,,,38482,2021-05-26_08h21.27.250,judgeSpeechMusic_20210519_logNormShiftAmp_mXs,2020.1.2,MacIntel,60,,,,,,,,,,,,,,2,9.6061,,0,1,117,267,75,1,stimuli/stim_20210519_power2amp/equal_lnn_AM2.5Hz_s35_8.m4a,,,
,,,,,,,,,,,,38482,2021-05-26_08h21.27.250,judgeSpeechMusic_20210519_logNormShiftAmp_mXs,2020.1.2,MacIntel,60,,,,,,,,,,,,,,2,10.8205,,0,1,118,268,148,1,stimuli/stim_20210519_power2amp/equal_lnn_AM4Hz_s55_32.m4a,,,
,,,,,,,,,,,,38482,2021-05-26_08h21.27.250,judgeSpeechMusic_20210519_logNormShiftAmp_mXs,2020.1.2,MacIntel,60,,,,,,,,,,,,,,1,7.7383,,0,1,119,269,147,1,stimuli/stim_20210519_power2amp/equal_lnn_AM4Hz_s55_16.m4a,,,
,,,,,,,,,,,,38482,2021-05-26_08h21.27.250,judgeSpeechMusic_20210519_logNormShiftAmp_mXs,2020.1.2,MacIntel,60,,,,,,,,,,,,,,2,8.2043,,0,1,120,270,73,1,stimuli/stim_20210519_power2amp/equal_lnn_AM2.5Hz_s35_44.m4a,,,
,,,,,,,,,,,,38482,2021-05-26_08h21.27.250,judgeSpeechMusic_20210519_logNormShiftAmp_mXs,2020.1.2,MacIntel,60,,,,,,,,,,,,,,1,8.3727,,0,1,121,271,139,1,stimuli/stim_20210519_power2amp/equal_lnn_AM4Hz_s45_7.m4a,,,
,,,,,,,,,,,,38482,2021-05-26_08h21.27.250,judgeSpeechMusic_20210519_logNormShiftAmp_mXs,2020.1.2,MacIntel,60,,,,,,,,,,,,,,2,7.0433,,0,1,122,272,47,1,stimuli/stim_20210519_power2amp/equal_lnn_AM1Hz_s55_41.m4a,,,
,,,,,,,,,,,,38482,2021-05-26_08h21.27.250,judgeSpeechMusic_20210519_logNormShiftAmp_mXs,2020.1.2,MacIntel,60,,,,,,,,,,,,,,1,5.9608,,0,1,123,273,71,1,stimuli/stim_20210519_power2amp/equal_lnn_AM2.5Hz_s35_2.m4a,,,
,,,,,,,,,,,,38482,2021-05-26_08h21.27.250,judgeSpeechMusic_20210519_logNormShiftAmp_mXs,2020.1.2,MacIntel,60,,,,,,,,,,,,,,1,5.8399,,0,1,124,274,123,1,stimuli/stim_20210519_power2amp/equal_lnn_AM4Hz_s35_43.m4a,,,
,,,,,,,,,,,,38482,2021-05-26_08h21.27.250,judgeSpeechMusic_20210519_logNormShiftAmp_mXs,2020.1.2,MacIntel,60,,,,,,,,,,,,,,1,5.6787,,0,1,125,275,23,1,stimuli/stim_20210519_power2amp/equal_lnn_AM1Hz_s35_20.m4a,,,
,,,,,,,,,,,,38482,2021-05-26_08h21.27.250,judgeSpeechMusic_20210519_logNormShiftAmp_mXs,2020.1.2,MacIntel,60,,,,,,,,,,,,,,2,5.7402,,0,1,126,276,48,1,stimuli/stim_20210519_power2amp/equal_lnn_AM1Hz_s55_33.m4a,,,
,,,,,,,,,,,,38482,2021-05-26_08h21.27.250,judgeSpeechMusic_20210519_logNormShiftAmp_mXs,2020.1.2,MacIntel,60,,,,,,,,,,,,,,1,8.4126,,0,1,127,277,44,1,stimuli/stim_20210519_power2amp/equal_lnn_AM1Hz_s55_31.m4a,,,
,,,,,,,,,,,,38482,2021-05-26_08h21.27.250,judgeSpeechMusic_20210519_logNormShiftAmp_mXs,2020.1.2,MacIntel,60,,,,,,,,,,,,,,2,7.9888,,0,1,128,278,13,1,stimuli/stim_20210519_power2amp/equal_lnn_AM1Hz_s25_47.m4a,,,
,,,,,,,,,,,,38482,2021-05-26_08h21.27.250,judgeSpeechMusic_20210519_logNormShiftAmp_mXs,2020.1.2,MacIntel,60,,,,,,,,,,,,,,2,15.1571,,0,1,129,279,144,1,stimuli/stim_20210519_power2amp/equal_lnn_AM4Hz_s55_29.m4a,,,
,,,,,,,,,,,,38482,2021-05-26_08h21.27.250,judgeSpeechMusic_20210519_logNormShiftAmp_mXs,2020.1.2,MacIntel,60,,,,,,,,,,,,,,1,10.7073,,0,1,130,280,6,1,stimuli/stim_20210519_power2amp/equal_lnn_AM1Hz_s15_44.m4a,,,
,,,,,,,,,,,,38482,2021-05-26_08h21.27.250,judgeSpeechMusic_20210519_logNormShiftAmp_mXs,2020.1.2,MacIntel,60,,,,,,,,,,,,,,1,9.306,2,1,1,131,281,0,1,stimuli/stim_20210519_power2amp/equal_lnn_AM1Hz_s15_28.m4a,1.2073,,
,,,,,,,,,,,,38482,2021-05-26_08h21.27.250,judgeSpeechMusic_20210519_logNormShiftAmp_mXs,2020.1.2,MacIntel,60,,,,,,,,,,,,,,1,8.6418,,0,1,132,282,120,1,stimuli/stim_20210519_power2amp/equal_lnn_AM4Hz_s35_10.m4a,,,
,,,,,,,,,,,,38482,2021-05-26_08h21.27.250,judgeSpeechMusic_20210519_logNormShiftAmp_mXs,2020.1.2,MacIntel,60,,,,,,,,,,,,,,1,7.6731,,0,1,133,283,67,1,stimuli/stim_20210519_power2amp/equal_lnn_AM2.5Hz_s25_32.m4a,,,
,,,,,,,,,,,,38482,2021-05-26_08h21.27.250,judgeSpeechMusic_20210519_logNormShiftAmp_mXs,2020.1.2,MacIntel,60,,,,,,,,,,,,,,1,7.8043,,0,1,134,284,38,1,stimuli/stim_20210519_power2amp/equal_lnn_AM1Hz_s45_44.m4a,,,
,,,,,,,,,,,,38482,2021-05-26_08h21.27.250,judgeSpeechMusic_20210519_logNormShiftAmp_mXs,2020.1.2,MacIntel,60,,,,,,,,,,,,,,2,8.276,,0,1,135,285,110,1,stimuli/stim_20210519_power2amp/equal_lnn_AM4Hz_s25_43.m4a,,,
,,,,,,,,,,,,38482,2021-05-26_08h21.27.250,judgeSpeechMusic_20210519_logNormShiftAmp_mXs,2020.1.2,MacIntel,60,,,,,,,,,,,,,,1,15.1056,,0,1,136,286,81,1,stimuli/stim_20210519_power2amp/equal_lnn_AM2.5Hz_s45_21.m4a,,,
,,,,,,,,,,,,38482,2021-05-26_08h21.27.250,judgeSpeechMusic_20210519_logNormShiftAmp_mXs,2020.1.2,MacIntel,60,,,,,,,,,,,,,,1,6.5926,,0,1,137,287,74,1,stimuli/stim_20210519_power2amp/equal_lnn_AM2.5Hz_s35_38.m4a,,,
,,,,,,,,,,,,38482,2021-05-26_08h21.27.250,judgeSpeechMusic_20210519_logNormShiftAmp_mXs,2020.1.2,MacIntel,60,,,,,,,,,,,,,,1,5.8026,,0,1,138,288,108,1,stimuli/stim_20210519_power2amp/equal_lnn_AM4Hz_s15_14.m4a,,,
,,,,,,,,,,,,38482,2021-05-26_08h21.27.250,judgeSpeechMusic_20210519_logNormShiftAmp_mXs,2020.1.2,MacIntel,60,,,,,,,,,,,,,,1,6.6124,,0,1,139,289,91,1,stimuli/stim_20210519_power2amp/equal_lnn_AM2.5Hz_s55_50.m4a,,,
,,,,,,,,,,,,38482,2021-05-26_08h21.27.250,judgeSpeechMusic_20210519_logNormShiftAmp_mXs,2020.1.2,MacIntel,60,,,,,,,,,,,,,,2,5.9234,,0,1,140,290,114,1,stimuli/stim_20210519_power2amp/equal_lnn_AM4Hz_s25_39.m4a,,,
,,,,,,,,,,,,38482,2021-05-26_08h21.27.250,judgeSpeechMusic_20210519_logNormShiftAmp_mXs,2020.1.2,MacIntel,60,,,,,,,,,,,,,,2,9.7233,,0,1,141,291,22,1,stimuli/stim_20210519_power2amp/equal_lnn_AM1Hz_s35_23.m4a,,,
,,,,,,,,,,,,38482,2021-05-26_08h21.27.250,judgeSpeechMusic_20210519_logNormShiftAmp_mXs,2020.1.2,MacIntel,60,,,,,,,,,,,,,,2,7.3061,,0,1,142,292,29,1,stimuli/stim_20210519_power2amp/equal_lnn_AM1Hz_s35_4.m4a,,,
,,,,,,,,,,,,38482,2021-05-26_08h21.27.250,judgeSpeechMusic_20210519_logNormShiftAmp_mXs,2020.1.2,MacIntel,60,,,,,,,,,,,,,,1,7.4389,,0,1,143,293,76,1,stimuli/stim_20210519_power2amp/equal_lnn_AM2.5Hz_s35_24.m4a,,,
,,,,,,,,,,,,38482,2021-05-26_08h21.27.250,judgeSpeechMusic_20210519_logNormShiftAmp_mXs,2020.1.2,MacIntel,60,,,,,,,,,,,,,,2,7.9103,,0,1,144,294,15,1,stimuli/stim_20210519_power2amp/equal_lnn_AM1Hz_s25_19.m4a,,,
,,,,,,,,,,,,38482,2021-05-26_08h21.27.250,judgeSpeechMusic_20210519_logNormShiftAmp_mXs,2020.1.2,MacIntel,60,,,,,,,,,,,,,,2,9.3093,,0,1,145,295,129,1,stimuli/stim_20210519_power2amp/equal_lnn_AM4Hz_s35_16.m4a,,,
,,,,,,,,,,,,38482,2021-05-26_08h21.27.250,judgeSpeechMusic_20210519_logNormShiftAmp_mXs,2020.1.2,MacIntel,60,,,,,,,,,,,,,,2,6.8231,,0,1,146,296,39,1,stimuli/stim_20210519_power2amp/equal_lnn_AM1Hz_s45_39.m4a,,,
,,,,,,,,,,,,38482,2021-05-26_08h21.27.250,judgeSpeechMusic_20210519_logNormShiftAmp_mXs,2020.1.2,MacIntel,60,,,,,,,,,,,,,,2,8.5893,,0,1,147,297,21,1,stimuli/stim_20210519_power2amp/equal_lnn_AM1Hz_s35_38.m4a,,,
,,,,,,,,,,,,38482,2021-05-26_08h21.27.250,judgeSpeechMusic_20210519_logNormShiftAmp_mXs,2020.1.2,MacIntel,60,,,,,,,,,,,,,,2,9.0388,,0,1,148,298,116,1,stimuli/stim_20210519_power2amp/equal_lnn_AM4Hz_s25_18.m4a,,,
,,,,,,,,,,,,38482,2021-05-26_08h21.27.250,judgeSpeechMusic_20210519_logNormShiftAmp_mXs,2020.1.2,MacIntel,60,,,,,,,,,,,,,,1,5.891,,0,1,149,299,30,1,stimuli/stim_20210519_power2amp/equal_lnn_AM1Hz_s45_10.m4a,,,
,,,,,,,,,,,,38482,2021-05-26_08h21.27.250,judgeSpeechMusic_20210519_logNormShiftAmp_mXs,2020.1.2,MacIntel,60,,,,,,,,,,,,,,,,,,,,,,,,,space,7.5944
