headphoneResponse.keys,headphoneResponse.corr,headphoneResponse.rt,headphoneTrial.thisRepN,headphoneTrial.thisTrialN,headphoneTrial.thisN,headphoneTrial.thisIndex,headphoneTrial.ran,headphone_sound1,headphone_sound2,headphone_sound3,corrAns,participant,date,expName,psychopyVersion,OS,frameRate,trainSlider.response,trainSlider.rt,beepTrainResponse.keys,beepTrainResponse.corr,trainingTrials.thisRepN,trainingTrials.thisTrialN,trainingTrials.thisN,trainingTrials.thisIndex,trainingTrials.ran,trainAudioFile,beepTrainResponse.rt,readyReal_resp.keys,readyReal_resp.rt,ratingSlider.response,ratingSlider.rt,beepResp.keys,beepResp.corr,expTrials.thisRepN,expTrials.thisTrialN,expTrials.thisN,expTrials.thisIndex,expTrials.ran,audioFile,beepResp.rt,end_resp.keys,end_resp.rt
1,0,5.1773,0,0,0,3,1,stimuli/screen_origin.wav,stimuli/screen_quiet.wav,stimuli/screen_antiphase.wav,2,38860,2021-06-16_15h35.55.603,judgeSpeechMusic_20210519_logNormShiftAmp_mXs,2020.1.2,Win32,60,,,,,,,,,,,,,,,,,,,,,,,,,,
1,1,1.3221,0,1,1,4,1,stimuli/screen_quiet.wav,stimuli/screen_antiphase.wav,stimuli/screen_origin.wav,1,38860,2021-06-16_15h35.55.603,judgeSpeechMusic_20210519_logNormShiftAmp_mXs,2020.1.2,Win32,60,,,,,,,,,,,,,,,,,,,,,,,,,,
3,1,1.1174,0,2,2,0,1,stimuli/screen_antiphase.wav,stimuli/screen_origin.wav,stimuli/screen_quiet.wav,3,38860,2021-06-16_15h35.55.603,judgeSpeechMusic_20210519_logNormShiftAmp_mXs,2020.1.2,Win32,60,,,,,,,,,,,,,,,,,,,,,,,,,,
1,1,0.6705,0,3,3,5,1,stimuli/screen_quiet.wav,stimuli/screen_origin.wav,stimuli/screen_antiphase.wav,1,38860,2021-06-16_15h35.55.603,judgeSpeechMusic_20210519_logNormShiftAmp_mXs,2020.1.2,Win32,60,,,,,,,,,,,,,,,,,,,,,,,,,,
2,1,0.5343,0,4,4,1,1,stimuli/screen_antiphase.wav,stimuli/screen_quiet.wav,stimuli/screen_origin.wav,2,38860,2021-06-16_15h35.55.603,judgeSpeechMusic_20210519_logNormShiftAmp_mXs,2020.1.2,Win32,60,,,,,,,,,,,,,,,,,,,,,,,,,,
3,1,0.4682,0,5,5,2,1,stimuli/screen_origin.wav,stimuli/screen_antiphase.wav,stimuli/screen_quiet.wav,3,38860,2021-06-16_15h35.55.603,judgeSpeechMusic_20210519_logNormShiftAmp_mXs,2020.1.2,Win32,60,,,,,,,,,,,,,,,,,,,,,,,,,,
,,,,,,,,,,,,38860,2021-06-16_15h35.55.603,judgeSpeechMusic_20210519_logNormShiftAmp_mXs,2020.1.2,Win32,60,1,11.8182,,0,0,0,0,0,1,stimuli/stim_20210519_power2amp/equal_lnn_AM_training1.5Hz_s20.m4a,,,,,,,,,,,,,,,,
,,,,,,,,,,,,38860,2021-06-16_15h35.55.603,judgeSpeechMusic_20210519_logNormShiftAmp_mXs,2020.1.2,Win32,60,1,9.0156,,0,0,1,1,1,1,stimuli/stim_20210519_power2amp/equal_lnn_AM_training1.5Hz_s50.m4a,,,,,,,,,,,,,,,,
,,,,,,,,,,,,38860,2021-06-16_15h35.55.603,judgeSpeechMusic_20210519_logNormShiftAmp_mXs,2020.1.2,Win32,60,1,7.3659,4,1,0,2,2,3,1,stimuli/stim_20210519_power2amp/equal_lnn_AM_training3.5Hz_s50.m4a,3.3695,,,,,,,,,,,,,,,
,,,,,,,,,,,,38860,2021-06-16_15h35.55.603,judgeSpeechMusic_20210519_logNormShiftAmp_mXs,2020.1.2,Win32,60,2,7.563,,0,0,3,3,2,1,stimuli/stim_20210519_power2amp/equal_lnn_AM_training3.5Hz_s20.m4a,,,,,,,,,,,,,,,,
,,,,,,,,,,,,38860,2021-06-16_15h35.55.603,judgeSpeechMusic_20210519_logNormShiftAmp_mXs,2020.1.2,Win32,60,,,,,,,,,,,,space,4.4926,2,7.8328,,0,0,0,0,70,1,stimuli/stim_20210519_power2amp/equal_lnn_AM2.5Hz_s35_16.m4a,,,
,,,,,,,,,,,,38860,2021-06-16_15h35.55.603,judgeSpeechMusic_20210519_logNormShiftAmp_mXs,2020.1.2,Win32,60,,,,,,,,,,,,,,2,6.4818,,0,0,1,1,92,1,stimuli/stim_20210519_power2amp/equal_lnn_AM2.5Hz_s55_32.m4a,,,
,,,,,,,,,,,,38860,2021-06-16_15h35.55.603,judgeSpeechMusic_20210519_logNormShiftAmp_mXs,2020.1.2,Win32,60,,,,,,,,,,,,,,2,6.0301,,0,0,2,2,93,1,stimuli/stim_20210519_power2amp/equal_lnn_AM2.5Hz_s55_35.m4a,,,
,,,,,,,,,,,,38860,2021-06-16_15h35.55.603,judgeSpeechMusic_20210519_logNormShiftAmp_mXs,2020.1.2,Win32,60,,,,,,,,,,,,,,2,6.099,,0,0,3,3,87,1,stimuli/stim_20210519_power2amp/equal_lnn_AM2.5Hz_s45_48.m4a,,,
,,,,,,,,,,,,38860,2021-06-16_15h35.55.603,judgeSpeechMusic_20210519_logNormShiftAmp_mXs,2020.1.2,Win32,60,,,,,,,,,,,,,,1,6.7834,,0,0,4,4,43,1,stimuli/stim_20210519_power2amp/equal_lnn_AM1Hz_s55_27.m4a,,,
,,,,,,,,,,,,38860,2021-06-16_15h35.55.603,judgeSpeechMusic_20210519_logNormShiftAmp_mXs,2020.1.2,Win32,60,,,,,,,,,,,,,,2,5.9718,,0,0,5,5,113,1,stimuli/stim_20210519_power2amp/equal_lnn_AM4Hz_s25_33.m4a,,,
,,,,,,,,,,,,38860,2021-06-16_15h35.55.603,judgeSpeechMusic_20210519_logNormShiftAmp_mXs,2020.1.2,Win32,60,,,,,,,,,,,,,,1,8.1121,,0,0,6,6,41,1,stimuli/stim_20210519_power2amp/equal_lnn_AM1Hz_s55_17.m4a,,,
,,,,,,,,,,,,38860,2021-06-16_15h35.55.603,judgeSpeechMusic_20210519_logNormShiftAmp_mXs,2020.1.2,Win32,60,,,,,,,,,,,,,,2,7.1821,,0,0,7,7,136,1,stimuli/stim_20210519_power2amp/equal_lnn_AM4Hz_s45_3.m4a,,,
,,,,,,,,,,,,38860,2021-06-16_15h35.55.603,judgeSpeechMusic_20210519_logNormShiftAmp_mXs,2020.1.2,Win32,60,,,,,,,,,,,,,,1,5.9592,,0,0,8,8,83,1,stimuli/stim_20210519_power2amp/equal_lnn_AM2.5Hz_s45_4.m4a,,,
,,,,,,,,,,,,38860,2021-06-16_15h35.55.603,judgeSpeechMusic_20210519_logNormShiftAmp_mXs,2020.1.2,Win32,60,,,,,,,,,,,,,,1,6.3783,,0,0,9,9,123,1,stimuli/stim_20210519_power2amp/equal_lnn_AM4Hz_s35_29.m4a,,,
,,,,,,,,,,,,38860,2021-06-16_15h35.55.603,judgeSpeechMusic_20210519_logNormShiftAmp_mXs,2020.1.2,Win32,60,,,,,,,,,,,,,,1,6.3934,,0,0,10,10,13,1,stimuli/stim_20210519_power2amp/equal_lnn_AM1Hz_s25_26.m4a,,,
,,,,,,,,,,,,38860,2021-06-16_15h35.55.603,judgeSpeechMusic_20210519_logNormShiftAmp_mXs,2020.1.2,Win32,60,,,,,,,,,,,,,,2,6.9532,,0,0,11,11,112,1,stimuli/stim_20210519_power2amp/equal_lnn_AM4Hz_s25_27.m4a,,,
,,,,,,,,,,,,38860,2021-06-16_15h35.55.603,judgeSpeechMusic_20210519_logNormShiftAmp_mXs,2020.1.2,Win32,60,,,,,,,,,,,,,,2,8.4998,,0,0,12,12,52,1,stimuli/stim_20210519_power2amp/equal_lnn_AM2.5Hz_s15_39.m4a,,,
,,,,,,,,,,,,38860,2021-06-16_15h35.55.603,judgeSpeechMusic_20210519_logNormShiftAmp_mXs,2020.1.2,Win32,60,,,,,,,,,,,,,,2,5.8008,,0,0,13,13,80,1,stimuli/stim_20210519_power2amp/equal_lnn_AM2.5Hz_s45_31.m4a,,,
,,,,,,,,,,,,38860,2021-06-16_15h35.55.603,judgeSpeechMusic_20210519_logNormShiftAmp_mXs,2020.1.2,Win32,60,,,,,,,,,,,,,,1,6.0292,,0,0,14,14,34,1,stimuli/stim_20210519_power2amp/equal_lnn_AM1Hz_s45_36.m4a,,,
,,,,,,,,,,,,38860,2021-06-16_15h35.55.603,judgeSpeechMusic_20210519_logNormShiftAmp_mXs,2020.1.2,Win32,60,,,,,,,,,,,,,,1,5.9905,,0,0,15,15,44,1,stimuli/stim_20210519_power2amp/equal_lnn_AM1Hz_s55_49.m4a,,,
,,,,,,,,,,,,38860,2021-06-16_15h35.55.603,judgeSpeechMusic_20210519_logNormShiftAmp_mXs,2020.1.2,Win32,60,,,,,,,,,,,,,,2,6.0892,,0,0,16,16,66,1,stimuli/stim_20210519_power2amp/equal_lnn_AM2.5Hz_s25_34.m4a,,,
,,,,,,,,,,,,38860,2021-06-16_15h35.55.603,judgeSpeechMusic_20210519_logNormShiftAmp_mXs,2020.1.2,Win32,60,,,,,,,,,,,,,,2,7.4573,,0,0,17,17,61,1,stimuli/stim_20210519_power2amp/equal_lnn_AM2.5Hz_s25_19.m4a,,,
,,,,,,,,,,,,38860,2021-06-16_15h35.55.603,judgeSpeechMusic_20210519_logNormShiftAmp_mXs,2020.1.2,Win32,60,,,,,,,,,,,,,,1,5.918,,0,0,18,18,54,1,stimuli/stim_20210519_power2amp/equal_lnn_AM2.5Hz_s15_5.m4a,,,
,,,,,,,,,,,,38860,2021-06-16_15h35.55.603,judgeSpeechMusic_20210519_logNormShiftAmp_mXs,2020.1.2,Win32,60,,,,,,,,,,,,,,2,7.6792,,0,0,19,19,101,1,stimuli/stim_20210519_power2amp/equal_lnn_AM4Hz_s15_25.m4a,,,
,,,,,,,,,,,,38860,2021-06-16_15h35.55.603,judgeSpeechMusic_20210519_logNormShiftAmp_mXs,2020.1.2,Win32,60,,,,,,,,,,,,,,1,7.6064,,0,0,20,20,9,1,stimuli/stim_20210519_power2amp/equal_lnn_AM1Hz_s15_49.m4a,,,
,,,,,,,,,,,,38860,2021-06-16_15h35.55.603,judgeSpeechMusic_20210519_logNormShiftAmp_mXs,2020.1.2,Win32,60,,,,,,,,,,,,,,1,9.7237,,0,0,21,21,36,1,stimuli/stim_20210519_power2amp/equal_lnn_AM1Hz_s45_50.m4a,,,
,,,,,,,,,,,,38860,2021-06-16_15h35.55.603,judgeSpeechMusic_20210519_logNormShiftAmp_mXs,2020.1.2,Win32,60,,,,,,,,,,,,,,1,5.8847,,0,0,22,22,125,1,stimuli/stim_20210519_power2amp/equal_lnn_AM4Hz_s35_44.m4a,,,
,,,,,,,,,,,,38860,2021-06-16_15h35.55.603,judgeSpeechMusic_20210519_logNormShiftAmp_mXs,2020.1.2,Win32,60,,,,,,,,,,,,,,1,6.3242,,0,0,23,23,102,1,stimuli/stim_20210519_power2amp/equal_lnn_AM4Hz_s15_38.m4a,,,
,,,,,,,,,,,,38860,2021-06-16_15h35.55.603,judgeSpeechMusic_20210519_logNormShiftAmp_mXs,2020.1.2,Win32,60,,,,,,,,,,,,,,1,11.3364,,0,0,24,24,82,1,stimuli/stim_20210519_power2amp/equal_lnn_AM2.5Hz_s45_10.m4a,,,
,,,,,,,,,,,,38860,2021-06-16_15h35.55.603,judgeSpeechMusic_20210519_logNormShiftAmp_mXs,2020.1.2,Win32,60,,,,,,,,,,,,,,2,6.9605,,0,0,25,25,4,1,stimuli/stim_20210519_power2amp/equal_lnn_AM1Hz_s15_40.m4a,,,
,,,,,,,,,,,,38860,2021-06-16_15h35.55.603,judgeSpeechMusic_20210519_logNormShiftAmp_mXs,2020.1.2,Win32,60,,,,,,,,,,,,,,1,5.9048,,0,0,26,26,27,1,stimuli/stim_20210519_power2amp/equal_lnn_AM1Hz_s35_43.m4a,,,
,,,,,,,,,,,,38860,2021-06-16_15h35.55.603,judgeSpeechMusic_20210519_logNormShiftAmp_mXs,2020.1.2,Win32,60,,,,,,,,,,,,,,1,5.7771,,0,0,27,27,16,1,stimuli/stim_20210519_power2amp/equal_lnn_AM1Hz_s25_30.m4a,,,
,,,,,,,,,,,,38860,2021-06-16_15h35.55.603,judgeSpeechMusic_20210519_logNormShiftAmp_mXs,2020.1.2,Win32,60,,,,,,,,,,,,,,1,5.9692,,0,0,28,28,142,1,stimuli/stim_20210519_power2amp/equal_lnn_AM4Hz_s55_38.m4a,,,
,,,,,,,,,,,,38860,2021-06-16_15h35.55.603,judgeSpeechMusic_20210519_logNormShiftAmp_mXs,2020.1.2,Win32,60,,,,,,,,,,,,,,2,6.0084,,0,0,29,29,139,1,stimuli/stim_20210519_power2amp/equal_lnn_AM4Hz_s45_17.m4a,,,
,,,,,,,,,,,,38860,2021-06-16_15h35.55.603,judgeSpeechMusic_20210519_logNormShiftAmp_mXs,2020.1.2,Win32,60,,,,,,,,,,,,,,2,6.2392,,0,0,30,30,146,1,stimuli/stim_20210519_power2amp/equal_lnn_AM4Hz_s55_14.m4a,,,
,,,,,,,,,,,,38860,2021-06-16_15h35.55.603,judgeSpeechMusic_20210519_logNormShiftAmp_mXs,2020.1.2,Win32,60,,,,,,,,,,,,,,2,5.8524,,0,0,31,31,53,1,stimuli/stim_20210519_power2amp/equal_lnn_AM2.5Hz_s15_1.m4a,,,
,,,,,,,,,,,,38860,2021-06-16_15h35.55.603,judgeSpeechMusic_20210519_logNormShiftAmp_mXs,2020.1.2,Win32,60,,,,,,,,,,,,,,1,5.7417,,0,0,32,32,117,1,stimuli/stim_20210519_power2amp/equal_lnn_AM4Hz_s25_40.m4a,,,
,,,,,,,,,,,,38860,2021-06-16_15h35.55.603,judgeSpeechMusic_20210519_logNormShiftAmp_mXs,2020.1.2,Win32,60,,,,,,,,,,,,,,1,7.1186,,0,0,33,33,79,1,stimuli/stim_20210519_power2amp/equal_lnn_AM2.5Hz_s35_36.m4a,,,
,,,,,,,,,,,,38860,2021-06-16_15h35.55.603,judgeSpeechMusic_20210519_logNormShiftAmp_mXs,2020.1.2,Win32,60,,,,,,,,,,,,,,1,6.7395,4,1,0,34,34,143,1,stimuli/stim_20210519_power2amp/equal_lnn_AM4Hz_s55_31.m4a,3.8037,,
,,,,,,,,,,,,38860,2021-06-16_15h35.55.603,judgeSpeechMusic_20210519_logNormShiftAmp_mXs,2020.1.2,Win32,60,,,,,,,,,,,,,,1,8.1829,,0,0,35,35,15,1,stimuli/stim_20210519_power2amp/equal_lnn_AM1Hz_s25_49.m4a,,,
,,,,,,,,,,,,38860,2021-06-16_15h35.55.603,judgeSpeechMusic_20210519_logNormShiftAmp_mXs,2020.1.2,Win32,60,,,,,,,,,,,,,,2,5.8658,,0,0,36,36,58,1,stimuli/stim_20210519_power2amp/equal_lnn_AM2.5Hz_s15_25.m4a,,,
,,,,,,,,,,,,38860,2021-06-16_15h35.55.603,judgeSpeechMusic_20210519_logNormShiftAmp_mXs,2020.1.2,Win32,60,,,,,,,,,,,,,,1,5.8667,,0,0,37,37,149,1,stimuli/stim_20210519_power2amp/equal_lnn_AM4Hz_s55_26.m4a,,,
,,,,,,,,,,,,38860,2021-06-16_15h35.55.603,judgeSpeechMusic_20210519_logNormShiftAmp_mXs,2020.1.2,Win32,60,,,,,,,,,,,,,,1,7.4448,,0,0,38,38,37,1,stimuli/stim_20210519_power2amp/equal_lnn_AM1Hz_s45_46.m4a,,,
,,,,,,,,,,,,38860,2021-06-16_15h35.55.603,judgeSpeechMusic_20210519_logNormShiftAmp_mXs,2020.1.2,Win32,60,,,,,,,,,,,,,,1,8.4969,,0,0,39,39,6,1,stimuli/stim_20210519_power2amp/equal_lnn_AM1Hz_s15_10.m4a,,,
,,,,,,,,,,,,38860,2021-06-16_15h35.55.603,judgeSpeechMusic_20210519_logNormShiftAmp_mXs,2020.1.2,Win32,60,,,,,,,,,,,,,,2,5.7548,,0,0,40,40,115,1,stimuli/stim_20210519_power2amp/equal_lnn_AM4Hz_s25_10.m4a,,,
,,,,,,,,,,,,38860,2021-06-16_15h35.55.603,judgeSpeechMusic_20210519_logNormShiftAmp_mXs,2020.1.2,Win32,60,,,,,,,,,,,,,,2,6.2776,,0,0,41,41,100,1,stimuli/stim_20210519_power2amp/equal_lnn_AM4Hz_s15_33.m4a,,,
,,,,,,,,,,,,38860,2021-06-16_15h35.55.603,judgeSpeechMusic_20210519_logNormShiftAmp_mXs,2020.1.2,Win32,60,,,,,,,,,,,,,,1,8.8889,,0,0,42,42,148,1,stimuli/stim_20210519_power2amp/equal_lnn_AM4Hz_s55_27.m4a,,,
,,,,,,,,,,,,38860,2021-06-16_15h35.55.603,judgeSpeechMusic_20210519_logNormShiftAmp_mXs,2020.1.2,Win32,60,,,,,,,,,,,,,,1,6.5557,,0,0,43,43,98,1,stimuli/stim_20210519_power2amp/equal_lnn_AM2.5Hz_s55_40.m4a,,,
,,,,,,,,,,,,38860,2021-06-16_15h35.55.603,judgeSpeechMusic_20210519_logNormShiftAmp_mXs,2020.1.2,Win32,60,,,,,,,,,,,,,,2,5.9579,,0,0,44,44,105,1,stimuli/stim_20210519_power2amp/equal_lnn_AM4Hz_s15_11.m4a,,,
,,,,,,,,,,,,38860,2021-06-16_15h35.55.603,judgeSpeechMusic_20210519_logNormShiftAmp_mXs,2020.1.2,Win32,60,,,,,,,,,,,,,,1,6.4061,,0,0,45,45,64,1,stimuli/stim_20210519_power2amp/equal_lnn_AM2.5Hz_s25_43.m4a,,,
,,,,,,,,,,,,38860,2021-06-16_15h35.55.603,judgeSpeechMusic_20210519_logNormShiftAmp_mXs,2020.1.2,Win32,60,,,,,,,,,,,,,,2,5.9379,,0,0,46,46,75,1,stimuli/stim_20210519_power2amp/equal_lnn_AM2.5Hz_s35_29.m4a,,,
,,,,,,,,,,,,38860,2021-06-16_15h35.55.603,judgeSpeechMusic_20210519_logNormShiftAmp_mXs,2020.1.2,Win32,60,,,,,,,,,,,,,,2,5.7532,,0,0,47,47,131,1,stimuli/stim_20210519_power2amp/equal_lnn_AM4Hz_s45_4.m4a,,,
,,,,,,,,,,,,38860,2021-06-16_15h35.55.603,judgeSpeechMusic_20210519_logNormShiftAmp_mXs,2020.1.2,Win32,60,,,,,,,,,,,,,,2,5.6205,,0,0,48,48,126,1,stimuli/stim_20210519_power2amp/equal_lnn_AM4Hz_s35_41.m4a,,,
,,,,,,,,,,,,38860,2021-06-16_15h35.55.603,judgeSpeechMusic_20210519_logNormShiftAmp_mXs,2020.1.2,Win32,60,,,,,,,,,,,,,,1,5.7558,,0,0,49,49,7,1,stimuli/stim_20210519_power2amp/equal_lnn_AM1Hz_s15_36.m4a,,,
,,,,,,,,,,,,38860,2021-06-16_15h35.55.603,judgeSpeechMusic_20210519_logNormShiftAmp_mXs,2020.1.2,Win32,60,,,,,,,,,,,,,,1,8.5824,,0,0,50,50,63,1,stimuli/stim_20210519_power2amp/equal_lnn_AM2.5Hz_s25_47.m4a,,,
,,,,,,,,,,,,38860,2021-06-16_15h35.55.603,judgeSpeechMusic_20210519_logNormShiftAmp_mXs,2020.1.2,Win32,60,,,,,,,,,,,,,,2,5.7963,,0,0,51,51,144,1,stimuli/stim_20210519_power2amp/equal_lnn_AM4Hz_s55_20.m4a,,,
,,,,,,,,,,,,38860,2021-06-16_15h35.55.603,judgeSpeechMusic_20210519_logNormShiftAmp_mXs,2020.1.2,Win32,60,,,,,,,,,,,,,,1,6.1463,,0,0,52,52,48,1,stimuli/stim_20210519_power2amp/equal_lnn_AM1Hz_s55_12.m4a,,,
,,,,,,,,,,,,38860,2021-06-16_15h35.55.603,judgeSpeechMusic_20210519_logNormShiftAmp_mXs,2020.1.2,Win32,60,,,,,,,,,,,,,,2,11.4776,,0,0,53,53,147,1,stimuli/stim_20210519_power2amp/equal_lnn_AM4Hz_s55_5.m4a,,,
,,,,,,,,,,,,38860,2021-06-16_15h35.55.603,judgeSpeechMusic_20210519_logNormShiftAmp_mXs,2020.1.2,Win32,60,,,,,,,,,,,,,,2,11.3182,,0,0,54,54,78,1,stimuli/stim_20210519_power2amp/equal_lnn_AM2.5Hz_s35_24.m4a,,,
,,,,,,,,,,,,38860,2021-06-16_15h35.55.603,judgeSpeechMusic_20210519_logNormShiftAmp_mXs,2020.1.2,Win32,60,,,,,,,,,,,,,,1,7.9715,2,1,0,55,55,39,1,stimuli/stim_20210519_power2amp/equal_lnn_AM1Hz_s45_39.m4a,1.4867,,
,,,,,,,,,,,,38860,2021-06-16_15h35.55.603,judgeSpeechMusic_20210519_logNormShiftAmp_mXs,2020.1.2,Win32,60,,,,,,,,,,,,,,1,5.8504,,0,0,56,56,56,1,stimuli/stim_20210519_power2amp/equal_lnn_AM2.5Hz_s15_36.m4a,,,
,,,,,,,,,,,,38860,2021-06-16_15h35.55.603,judgeSpeechMusic_20210519_logNormShiftAmp_mXs,2020.1.2,Win32,60,,,,,,,,,,,,,,1,5.8288,,0,0,57,57,25,1,stimuli/stim_20210519_power2amp/equal_lnn_AM1Hz_s35_30.m4a,,,
,,,,,,,,,,,,38860,2021-06-16_15h35.55.603,judgeSpeechMusic_20210519_logNormShiftAmp_mXs,2020.1.2,Win32,60,,,,,,,,,,,,,,2,5.6934,,0,0,58,58,135,1,stimuli/stim_20210519_power2amp/equal_lnn_AM4Hz_s45_18.m4a,,,
,,,,,,,,,,,,38860,2021-06-16_15h35.55.603,judgeSpeechMusic_20210519_logNormShiftAmp_mXs,2020.1.2,Win32,60,,,,,,,,,,,,,,1,5.9999,,0,0,59,59,72,1,stimuli/stim_20210519_power2amp/equal_lnn_AM2.5Hz_s35_4.m4a,,,
,,,,,,,,,,,,38860,2021-06-16_15h35.55.603,judgeSpeechMusic_20210519_logNormShiftAmp_mXs,2020.1.2,Win32,60,,,,,,,,,,,,,,1,8.7642,,0,0,60,60,99,1,stimuli/stim_20210519_power2amp/equal_lnn_AM2.5Hz_s55_26.m4a,,,
,,,,,,,,,,,,38860,2021-06-16_15h35.55.603,judgeSpeechMusic_20210519_logNormShiftAmp_mXs,2020.1.2,Win32,60,,,,,,,,,,,,,,1,5.6997,,0,0,61,61,132,1,stimuli/stim_20210519_power2amp/equal_lnn_AM4Hz_s45_5.m4a,,,
,,,,,,,,,,,,38860,2021-06-16_15h35.55.603,judgeSpeechMusic_20210519_logNormShiftAmp_mXs,2020.1.2,Win32,60,,,,,,,,,,,,,,1,8.5326,,0,0,62,62,35,1,stimuli/stim_20210519_power2amp/equal_lnn_AM1Hz_s45_3.m4a,,,
,,,,,,,,,,,,38860,2021-06-16_15h35.55.603,judgeSpeechMusic_20210519_logNormShiftAmp_mXs,2020.1.2,Win32,60,,,,,,,,,,,,,,1,5.5958,,0,0,63,63,32,1,stimuli/stim_20210519_power2amp/equal_lnn_AM1Hz_s45_32.m4a,,,
,,,,,,,,,,,,38860,2021-06-16_15h35.55.603,judgeSpeechMusic_20210519_logNormShiftAmp_mXs,2020.1.2,Win32,60,,,,,,,,,,,,,,1,9.0111,,0,0,64,64,91,1,stimuli/stim_20210519_power2amp/equal_lnn_AM2.5Hz_s55_41.m4a,,,
,,,,,,,,,,,,38860,2021-06-16_15h35.55.603,judgeSpeechMusic_20210519_logNormShiftAmp_mXs,2020.1.2,Win32,60,,,,,,,,,,,,,,2,5.9803,,0,0,65,65,94,1,stimuli/stim_20210519_power2amp/equal_lnn_AM2.5Hz_s55_10.m4a,,,
,,,,,,,,,,,,38860,2021-06-16_15h35.55.603,judgeSpeechMusic_20210519_logNormShiftAmp_mXs,2020.1.2,Win32,60,,,,,,,,,,,,,,1,6.4477,,0,0,66,66,145,1,stimuli/stim_20210519_power2amp/equal_lnn_AM4Hz_s55_4.m4a,,,
,,,,,,,,,,,,38860,2021-06-16_15h35.55.603,judgeSpeechMusic_20210519_logNormShiftAmp_mXs,2020.1.2,Win32,60,,,,,,,,,,,,,,1,6.0459,,0,0,67,67,46,1,stimuli/stim_20210519_power2amp/equal_lnn_AM1Hz_s55_39.m4a,,,
,,,,,,,,,,,,38860,2021-06-16_15h35.55.603,judgeSpeechMusic_20210519_logNormShiftAmp_mXs,2020.1.2,Win32,60,,,,,,,,,,,,,,1,6.2954,,0,0,68,68,19,1,stimuli/stim_20210519_power2amp/equal_lnn_AM1Hz_s25_23.m4a,,,
,,,,,,,,,,,,38860,2021-06-16_15h35.55.603,judgeSpeechMusic_20210519_logNormShiftAmp_mXs,2020.1.2,Win32,60,,,,,,,,,,,,,,1,6.9296,,0,0,69,69,42,1,stimuli/stim_20210519_power2amp/equal_lnn_AM1Hz_s55_50.m4a,,,
,,,,,,,,,,,,38860,2021-06-16_15h35.55.603,judgeSpeechMusic_20210519_logNormShiftAmp_mXs,2020.1.2,Win32,60,,,,,,,,,,,,,,2,6.2344,,0,0,70,70,114,1,stimuli/stim_20210519_power2amp/equal_lnn_AM4Hz_s25_15.m4a,,,
,,,,,,,,,,,,38860,2021-06-16_15h35.55.603,judgeSpeechMusic_20210519_logNormShiftAmp_mXs,2020.1.2,Win32,60,,,,,,,,,,,,,,2,8.5218,,0,0,71,71,109,1,stimuli/stim_20210519_power2amp/equal_lnn_AM4Hz_s15_41.m4a,,,
,,,,,,,,,,,,38860,2021-06-16_15h35.55.603,judgeSpeechMusic_20210519_logNormShiftAmp_mXs,2020.1.2,Win32,60,,,,,,,,,,,,,,1,5.792,,0,0,72,72,129,1,stimuli/stim_20210519_power2amp/equal_lnn_AM4Hz_s35_20.m4a,,,
,,,,,,,,,,,,38860,2021-06-16_15h35.55.603,judgeSpeechMusic_20210519_logNormShiftAmp_mXs,2020.1.2,Win32,60,,,,,,,,,,,,,,1,8.1018,,0,0,73,73,20,1,stimuli/stim_20210519_power2amp/equal_lnn_AM1Hz_s35_6.m4a,,,
,,,,,,,,,,,,38860,2021-06-16_15h35.55.603,judgeSpeechMusic_20210519_logNormShiftAmp_mXs,2020.1.2,Win32,60,,,,,,,,,,,,,,2,8.1566,,0,0,74,74,133,1,stimuli/stim_20210519_power2amp/equal_lnn_AM4Hz_s45_22.m4a,,,
,,,,,,,,,,,,38860,2021-06-16_15h35.55.603,judgeSpeechMusic_20210519_logNormShiftAmp_mXs,2020.1.2,Win32,60,,,,,,,,,,,,,,1,5.877,,0,0,75,75,5,1,stimuli/stim_20210519_power2amp/equal_lnn_AM1Hz_s15_30.m4a,,,
,,,,,,,,,,,,38860,2021-06-16_15h35.55.603,judgeSpeechMusic_20210519_logNormShiftAmp_mXs,2020.1.2,Win32,60,,,,,,,,,,,,,,2,5.6672,,0,0,76,76,134,1,stimuli/stim_20210519_power2amp/equal_lnn_AM4Hz_s45_30.m4a,,,
,,,,,,,,,,,,38860,2021-06-16_15h35.55.603,judgeSpeechMusic_20210519_logNormShiftAmp_mXs,2020.1.2,Win32,60,,,,,,,,,,,,,,1,7.7516,,0,0,77,77,22,1,stimuli/stim_20210519_power2amp/equal_lnn_AM1Hz_s35_8.m4a,,,
,,,,,,,,,,,,38860,2021-06-16_15h35.55.603,judgeSpeechMusic_20210519_logNormShiftAmp_mXs,2020.1.2,Win32,60,,,,,,,,,,,,,,2,6.9249,,0,0,78,78,107,1,stimuli/stim_20210519_power2amp/equal_lnn_AM4Hz_s15_35.m4a,,,
,,,,,,,,,,,,38860,2021-06-16_15h35.55.603,judgeSpeechMusic_20210519_logNormShiftAmp_mXs,2020.1.2,Win32,60,,,,,,,,,,,,,,2,6.7419,4,1,0,79,79,65,1,stimuli/stim_20210519_power2amp/equal_lnn_AM2.5Hz_s25_27.m4a,2.1317,,
,,,,,,,,,,,,38860,2021-06-16_15h35.55.603,judgeSpeechMusic_20210519_logNormShiftAmp_mXs,2020.1.2,Win32,60,,,,,,,,,,,,,,2,6.3201,,0,0,80,80,103,1,stimuli/stim_20210519_power2amp/equal_lnn_AM4Hz_s15_30.m4a,,,
,,,,,,,,,,,,38860,2021-06-16_15h35.55.603,judgeSpeechMusic_20210519_logNormShiftAmp_mXs,2020.1.2,Win32,60,,,,,,,,,,,,,,2,10.4877,,0,0,81,81,120,1,stimuli/stim_20210519_power2amp/equal_lnn_AM4Hz_s35_33.m4a,,,
,,,,,,,,,,,,38860,2021-06-16_15h35.55.603,judgeSpeechMusic_20210519_logNormShiftAmp_mXs,2020.1.2,Win32,60,,,,,,,,,,,,,,1,6.8579,,0,0,82,82,21,1,stimuli/stim_20210519_power2amp/equal_lnn_AM1Hz_s35_22.m4a,,,
,,,,,,,,,,,,38860,2021-06-16_15h35.55.603,judgeSpeechMusic_20210519_logNormShiftAmp_mXs,2020.1.2,Win32,60,,,,,,,,,,,,,,1,5.6598,,0,0,83,83,38,1,stimuli/stim_20210519_power2amp/equal_lnn_AM1Hz_s45_24.m4a,,,
,,,,,,,,,,,,38860,2021-06-16_15h35.55.603,judgeSpeechMusic_20210519_logNormShiftAmp_mXs,2020.1.2,Win32,60,,,,,,,,,,,,,,2,6.609,,0,0,84,84,110,1,stimuli/stim_20210519_power2amp/equal_lnn_AM4Hz_s25_30.m4a,,,
,,,,,,,,,,,,38860,2021-06-16_15h35.55.603,judgeSpeechMusic_20210519_logNormShiftAmp_mXs,2020.1.2,Win32,60,,,,,,,,,,,,,,2,6.034,,0,0,85,85,116,1,stimuli/stim_20210519_power2amp/equal_lnn_AM4Hz_s25_49.m4a,,,
,,,,,,,,,,,,38860,2021-06-16_15h35.55.603,judgeSpeechMusic_20210519_logNormShiftAmp_mXs,2020.1.2,Win32,60,,,,,,,,,,,,,,1,7.6028,,0,0,86,86,51,1,stimuli/stim_20210519_power2amp/equal_lnn_AM2.5Hz_s15_31.m4a,,,
,,,,,,,,,,,,38860,2021-06-16_15h35.55.603,judgeSpeechMusic_20210519_logNormShiftAmp_mXs,2020.1.2,Win32,60,,,,,,,,,,,,,,1,7.8844,,0,0,87,87,23,1,stimuli/stim_20210519_power2amp/equal_lnn_AM1Hz_s35_37.m4a,,,
,,,,,,,,,,,,38860,2021-06-16_15h35.55.603,judgeSpeechMusic_20210519_logNormShiftAmp_mXs,2020.1.2,Win32,60,,,,,,,,,,,,,,1,6.9394,,0,0,88,88,18,1,stimuli/stim_20210519_power2amp/equal_lnn_AM1Hz_s25_20.m4a,,,
,,,,,,,,,,,,38860,2021-06-16_15h35.55.603,judgeSpeechMusic_20210519_logNormShiftAmp_mXs,2020.1.2,Win32,60,,,,,,,,,,,,,,1,6.8538,,0,0,89,89,29,1,stimuli/stim_20210519_power2amp/equal_lnn_AM1Hz_s35_46.m4a,,,
,,,,,,,,,,,,38860,2021-06-16_15h35.55.603,judgeSpeechMusic_20210519_logNormShiftAmp_mXs,2020.1.2,Win32,60,,,,,,,,,,,,,,2,5.7179,,0,0,90,90,122,1,stimuli/stim_20210519_power2amp/equal_lnn_AM4Hz_s35_37.m4a,,,
,,,,,,,,,,,,38860,2021-06-16_15h35.55.603,judgeSpeechMusic_20210519_logNormShiftAmp_mXs,2020.1.2,Win32,60,,,,,,,,,,,,,,1,5.8371,,0,0,91,91,69,1,stimuli/stim_20210519_power2amp/equal_lnn_AM2.5Hz_s25_37.m4a,,,
,,,,,,,,,,,,38860,2021-06-16_15h35.55.603,judgeSpeechMusic_20210519_logNormShiftAmp_mXs,2020.1.2,Win32,60,,,,,,,,,,,,,,1,5.6994,,0,0,92,92,33,1,stimuli/stim_20210519_power2amp/equal_lnn_AM1Hz_s45_47.m4a,,,
,,,,,,,,,,,,38860,2021-06-16_15h35.55.603,judgeSpeechMusic_20210519_logNormShiftAmp_mXs,2020.1.2,Win32,60,,,,,,,,,,,,,,1,6.8893,,0,0,93,93,85,1,stimuli/stim_20210519_power2amp/equal_lnn_AM2.5Hz_s45_19.m4a,,,
,,,,,,,,,,,,38860,2021-06-16_15h35.55.603,judgeSpeechMusic_20210519_logNormShiftAmp_mXs,2020.1.2,Win32,60,,,,,,,,,,,,,,2,5.9006,,0,0,94,94,141,1,stimuli/stim_20210519_power2amp/equal_lnn_AM4Hz_s55_17.m4a,,,
,,,,,,,,,,,,38860,2021-06-16_15h35.55.603,judgeSpeechMusic_20210519_logNormShiftAmp_mXs,2020.1.2,Win32,60,,,,,,,,,,,,,,1,6.1996,,0,0,95,95,60,1,stimuli/stim_20210519_power2amp/equal_lnn_AM2.5Hz_s25_20.m4a,,,
,,,,,,,,,,,,38860,2021-06-16_15h35.55.603,judgeSpeechMusic_20210519_logNormShiftAmp_mXs,2020.1.2,Win32,60,,,,,,,,,,,,,,1,5.7529,,0,0,96,96,11,1,stimuli/stim_20210519_power2amp/equal_lnn_AM1Hz_s25_4.m4a,,,
,,,,,,,,,,,,38860,2021-06-16_15h35.55.603,judgeSpeechMusic_20210519_logNormShiftAmp_mXs,2020.1.2,Win32,60,,,,,,,,,,,,,,1,6.5062,,0,0,97,97,28,1,stimuli/stim_20210519_power2amp/equal_lnn_AM1Hz_s35_40.m4a,,,
,,,,,,,,,,,,38860,2021-06-16_15h35.55.603,judgeSpeechMusic_20210519_logNormShiftAmp_mXs,2020.1.2,Win32,60,,,,,,,,,,,,,,2,6.2408,,0,0,98,98,108,1,stimuli/stim_20210519_power2amp/equal_lnn_AM4Hz_s15_28.m4a,,,
,,,,,,,,,,,,38860,2021-06-16_15h35.55.603,judgeSpeechMusic_20210519_logNormShiftAmp_mXs,2020.1.2,Win32,60,,,,,,,,,,,,,,1,6.2203,,0,0,99,99,17,1,stimuli/stim_20210519_power2amp/equal_lnn_AM1Hz_s25_7.m4a,,,
,,,,,,,,,,,,38860,2021-06-16_15h35.55.603,judgeSpeechMusic_20210519_logNormShiftAmp_mXs,2020.1.2,Win32,60,,,,,,,,,,,,,,1,5.9182,2,1,0,100,100,8,1,stimuli/stim_20210519_power2amp/equal_lnn_AM1Hz_s15_19.m4a,1.1743,,
,,,,,,,,,,,,38860,2021-06-16_15h35.55.603,judgeSpeechMusic_20210519_logNormShiftAmp_mXs,2020.1.2,Win32,60,,,,,,,,,,,,,,1,6.1132,,0,0,101,101,47,1,stimuli/stim_20210519_power2amp/equal_lnn_AM1Hz_s55_15.m4a,,,
,,,,,,,,,,,,38860,2021-06-16_15h35.55.603,judgeSpeechMusic_20210519_logNormShiftAmp_mXs,2020.1.2,Win32,60,,,,,,,,,,,,,,2,7.2742,,0,0,102,102,96,1,stimuli/stim_20210519_power2amp/equal_lnn_AM2.5Hz_s55_21.m4a,,,
,,,,,,,,,,,,38860,2021-06-16_15h35.55.603,judgeSpeechMusic_20210519_logNormShiftAmp_mXs,2020.1.2,Win32,60,,,,,,,,,,,,,,2,5.7928,,0,0,103,103,59,1,stimuli/stim_20210519_power2amp/equal_lnn_AM2.5Hz_s15_46.m4a,,,
,,,,,,,,,,,,38860,2021-06-16_15h35.55.603,judgeSpeechMusic_20210519_logNormShiftAmp_mXs,2020.1.2,Win32,60,,,,,,,,,,,,,,1,7.2102,,0,0,104,104,14,1,stimuli/stim_20210519_power2amp/equal_lnn_AM1Hz_s25_32.m4a,,,
,,,,,,,,,,,,38860,2021-06-16_15h35.55.603,judgeSpeechMusic_20210519_logNormShiftAmp_mXs,2020.1.2,Win32,60,,,,,,,,,,,,,,1,7.4994,,0,0,105,105,2,1,stimuli/stim_20210519_power2amp/equal_lnn_AM1Hz_s15_15.m4a,,,
,,,,,,,,,,,,38860,2021-06-16_15h35.55.603,judgeSpeechMusic_20210519_logNormShiftAmp_mXs,2020.1.2,Win32,60,,,,,,,,,,,,,,2,6.0687,,0,0,106,106,84,1,stimuli/stim_20210519_power2amp/equal_lnn_AM2.5Hz_s45_43.m4a,,,
,,,,,,,,,,,,38860,2021-06-16_15h35.55.603,judgeSpeechMusic_20210519_logNormShiftAmp_mXs,2020.1.2,Win32,60,,,,,,,,,,,,,,1,6.4169,,0,0,107,107,68,1,stimuli/stim_20210519_power2amp/equal_lnn_AM2.5Hz_s25_24.m4a,,,
,,,,,,,,,,,,38860,2021-06-16_15h35.55.603,judgeSpeechMusic_20210519_logNormShiftAmp_mXs,2020.1.2,Win32,60,,,,,,,,,,,,,,1,6.7284,,0,0,108,108,49,1,stimuli/stim_20210519_power2amp/equal_lnn_AM1Hz_s55_21.m4a,,,
,,,,,,,,,,,,38860,2021-06-16_15h35.55.603,judgeSpeechMusic_20210519_logNormShiftAmp_mXs,2020.1.2,Win32,60,,,,,,,,,,,,,,1,5.8638,,0,0,109,109,3,1,stimuli/stim_20210519_power2amp/equal_lnn_AM1Hz_s15_24.m4a,,,
,,,,,,,,,,,,38860,2021-06-16_15h35.55.603,judgeSpeechMusic_20210519_logNormShiftAmp_mXs,2020.1.2,Win32,60,,,,,,,,,,,,,,2,6.8888,,0,0,110,110,104,1,stimuli/stim_20210519_power2amp/equal_lnn_AM4Hz_s15_50.m4a,,,
,,,,,,,,,,,,38860,2021-06-16_15h35.55.603,judgeSpeechMusic_20210519_logNormShiftAmp_mXs,2020.1.2,Win32,60,,,,,,,,,,,,,,1,7.9009,,0,0,111,111,10,1,stimuli/stim_20210519_power2amp/equal_lnn_AM1Hz_s25_47.m4a,,,
,,,,,,,,,,,,38860,2021-06-16_15h35.55.603,judgeSpeechMusic_20210519_logNormShiftAmp_mXs,2020.1.2,Win32,60,,,,,,,,,,,,,,2,6.5908,,0,0,112,112,128,1,stimuli/stim_20210519_power2amp/equal_lnn_AM4Hz_s35_22.m4a,,,
,,,,,,,,,,,,38860,2021-06-16_15h35.55.603,judgeSpeechMusic_20210519_logNormShiftAmp_mXs,2020.1.2,Win32,60,,,,,,,,,,,,,,2,5.6933,,0,0,113,113,106,1,stimuli/stim_20210519_power2amp/equal_lnn_AM4Hz_s15_7.m4a,,,
,,,,,,,,,,,,38860,2021-06-16_15h35.55.603,judgeSpeechMusic_20210519_logNormShiftAmp_mXs,2020.1.2,Win32,60,,,,,,,,,,,,,,1,5.7898,,0,0,114,114,30,1,stimuli/stim_20210519_power2amp/equal_lnn_AM1Hz_s45_49.m4a,,,
,,,,,,,,,,,,38860,2021-06-16_15h35.55.603,judgeSpeechMusic_20210519_logNormShiftAmp_mXs,2020.1.2,Win32,60,,,,,,,,,,,,,,1,5.7795,,0,0,115,115,140,1,stimuli/stim_20210519_power2amp/equal_lnn_AM4Hz_s55_24.m4a,,,
,,,,,,,,,,,,38860,2021-06-16_15h35.55.603,judgeSpeechMusic_20210519_logNormShiftAmp_mXs,2020.1.2,Win32,60,,,,,,,,,,,,,,1,6.1014,,0,0,116,116,57,1,stimuli/stim_20210519_power2amp/equal_lnn_AM2.5Hz_s15_14.m4a,,,
,,,,,,,,,,,,38860,2021-06-16_15h35.55.603,judgeSpeechMusic_20210519_logNormShiftAmp_mXs,2020.1.2,Win32,60,,,,,,,,,,,,,,2,5.8515,,0,0,117,117,127,1,stimuli/stim_20210519_power2amp/equal_lnn_AM4Hz_s35_8.m4a,,,
,,,,,,,,,,,,38860,2021-06-16_15h35.55.603,judgeSpeechMusic_20210519_logNormShiftAmp_mXs,2020.1.2,Win32,60,,,,,,,,,,,,,,2,7.5055,,0,0,118,118,121,1,stimuli/stim_20210519_power2amp/equal_lnn_AM4Hz_s35_43.m4a,,,
,,,,,,,,,,,,38860,2021-06-16_15h35.55.603,judgeSpeechMusic_20210519_logNormShiftAmp_mXs,2020.1.2,Win32,60,,,,,,,,,,,,,,2,9.8768,,0,0,119,119,89,1,stimuli/stim_20210519_power2amp/equal_lnn_AM2.5Hz_s45_11.m4a,,,
,,,,,,,,,,,,38860,2021-06-16_15h35.55.603,judgeSpeechMusic_20210519_logNormShiftAmp_mXs,2020.1.2,Win32,60,,,,,,,,,,,,,,2,6.5094,,0,0,120,120,71,1,stimuli/stim_20210519_power2amp/equal_lnn_AM2.5Hz_s35_44.m4a,,,
,,,,,,,,,,,,38860,2021-06-16_15h35.55.603,judgeSpeechMusic_20210519_logNormShiftAmp_mXs,2020.1.2,Win32,60,,,,,,,,,,,,,,1,6.2792,,0,0,121,121,137,1,stimuli/stim_20210519_power2amp/equal_lnn_AM4Hz_s45_50.m4a,,,
,,,,,,,,,,,,38860,2021-06-16_15h35.55.603,judgeSpeechMusic_20210519_logNormShiftAmp_mXs,2020.1.2,Win32,60,,,,,,,,,,,,,,2,5.691,,0,0,122,122,73,1,stimuli/stim_20210519_power2amp/equal_lnn_AM2.5Hz_s35_17.m4a,,,
,,,,,,,,,,,,38860,2021-06-16_15h35.55.603,judgeSpeechMusic_20210519_logNormShiftAmp_mXs,2020.1.2,Win32,60,,,,,,,,,,,,,,1,5.8115,,0,0,123,123,40,1,stimuli/stim_20210519_power2amp/equal_lnn_AM1Hz_s55_10.m4a,,,
,,,,,,,,,,,,38860,2021-06-16_15h35.55.603,judgeSpeechMusic_20210519_logNormShiftAmp_mXs,2020.1.2,Win32,60,,,,,,,,,,,,,,1,5.6504,,0,0,124,124,26,1,stimuli/stim_20210519_power2amp/equal_lnn_AM1Hz_s35_45.m4a,,,
,,,,,,,,,,,,38860,2021-06-16_15h35.55.603,judgeSpeechMusic_20210519_logNormShiftAmp_mXs,2020.1.2,Win32,60,,,,,,,,,,,,,,2,7.2672,1,1,0,125,125,74,1,stimuli/stim_20210519_power2amp/equal_lnn_AM2.5Hz_s35_32.m4a,1.2665,,
,,,,,,,,,,,,38860,2021-06-16_15h35.55.603,judgeSpeechMusic_20210519_logNormShiftAmp_mXs,2020.1.2,Win32,60,,,,,,,,,,,,,,1,10.3841,,0,0,126,126,31,1,stimuli/stim_20210519_power2amp/equal_lnn_AM1Hz_s45_45.m4a,,,
,,,,,,,,,,,,38860,2021-06-16_15h35.55.603,judgeSpeechMusic_20210519_logNormShiftAmp_mXs,2020.1.2,Win32,60,,,,,,,,,,,,,,1,8.0872,,0,0,127,127,45,1,stimuli/stim_20210519_power2amp/equal_lnn_AM1Hz_s55_46.m4a,,,
,,,,,,,,,,,,38860,2021-06-16_15h35.55.603,judgeSpeechMusic_20210519_logNormShiftAmp_mXs,2020.1.2,Win32,60,,,,,,,,,,,,,,2,6.9928,,0,0,128,128,95,1,stimuli/stim_20210519_power2amp/equal_lnn_AM2.5Hz_s55_27.m4a,,,
,,,,,,,,,,,,38860,2021-06-16_15h35.55.603,judgeSpeechMusic_20210519_logNormShiftAmp_mXs,2020.1.2,Win32,60,,,,,,,,,,,,,,2,7.1933,,0,0,129,129,62,1,stimuli/stim_20210519_power2amp/equal_lnn_AM2.5Hz_s25_26.m4a,,,
,,,,,,,,,,,,38860,2021-06-16_15h35.55.603,judgeSpeechMusic_20210519_logNormShiftAmp_mXs,2020.1.2,Win32,60,,,,,,,,,,,,,,1,5.8689,,0,0,130,130,111,1,stimuli/stim_20210519_power2amp/equal_lnn_AM4Hz_s25_50.m4a,,,
,,,,,,,,,,,,38860,2021-06-16_15h35.55.603,judgeSpeechMusic_20210519_logNormShiftAmp_mXs,2020.1.2,Win32,60,,,,,,,,,,,,,,1,6.1303,,0,0,131,131,77,1,stimuli/stim_20210519_power2amp/equal_lnn_AM2.5Hz_s35_25.m4a,,,
,,,,,,,,,,,,38860,2021-06-16_15h35.55.603,judgeSpeechMusic_20210519_logNormShiftAmp_mXs,2020.1.2,Win32,60,,,,,,,,,,,,,,1,8.2682,,0,0,132,132,1,1,stimuli/stim_20210519_power2amp/equal_lnn_AM1Hz_s15_9.m4a,,,
,,,,,,,,,,,,38860,2021-06-16_15h35.55.603,judgeSpeechMusic_20210519_logNormShiftAmp_mXs,2020.1.2,Win32,60,,,,,,,,,,,,,,2,7.9409,,0,0,133,133,118,1,stimuli/stim_20210519_power2amp/equal_lnn_AM4Hz_s25_43.m4a,,,
,,,,,,,,,,,,38860,2021-06-16_15h35.55.603,judgeSpeechMusic_20210519_logNormShiftAmp_mXs,2020.1.2,Win32,60,,,,,,,,,,,,,,2,5.8269,,0,0,134,134,130,1,stimuli/stim_20210519_power2amp/equal_lnn_AM4Hz_s45_11.m4a,,,
,,,,,,,,,,,,38860,2021-06-16_15h35.55.603,judgeSpeechMusic_20210519_logNormShiftAmp_mXs,2020.1.2,Win32,60,,,,,,,,,,,,,,1,5.9064,,0,0,135,135,12,1,stimuli/stim_20210519_power2amp/equal_lnn_AM1Hz_s25_16.m4a,,,
,,,,,,,,,,,,38860,2021-06-16_15h35.55.603,judgeSpeechMusic_20210519_logNormShiftAmp_mXs,2020.1.2,Win32,60,,,,,,,,,,,,,,1,5.787,,0,0,136,136,67,1,stimuli/stim_20210519_power2amp/equal_lnn_AM2.5Hz_s25_31.m4a,,,
,,,,,,,,,,,,38860,2021-06-16_15h35.55.603,judgeSpeechMusic_20210519_logNormShiftAmp_mXs,2020.1.2,Win32,60,,,,,,,,,,,,,,2,5.9496,,0,0,137,137,50,1,stimuli/stim_20210519_power2amp/equal_lnn_AM2.5Hz_s15_2.m4a,,,
,,,,,,,,,,,,38860,2021-06-16_15h35.55.603,judgeSpeechMusic_20210519_logNormShiftAmp_mXs,2020.1.2,Win32,60,,,,,,,,,,,,,,2,6.9798,,0,0,138,138,55,1,stimuli/stim_20210519_power2amp/equal_lnn_AM2.5Hz_s15_7.m4a,,,
,,,,,,,,,,,,38860,2021-06-16_15h35.55.603,judgeSpeechMusic_20210519_logNormShiftAmp_mXs,2020.1.2,Win32,60,,,,,,,,,,,,,,2,7.6083,,0,0,139,139,119,1,stimuli/stim_20210519_power2amp/equal_lnn_AM4Hz_s25_24.m4a,,,
,,,,,,,,,,,,38860,2021-06-16_15h35.55.603,judgeSpeechMusic_20210519_logNormShiftAmp_mXs,2020.1.2,Win32,60,,,,,,,,,,,,,,2,5.8061,,0,0,140,140,124,1,stimuli/stim_20210519_power2amp/equal_lnn_AM4Hz_s35_10.m4a,,,
,,,,,,,,,,,,38860,2021-06-16_15h35.55.603,judgeSpeechMusic_20210519_logNormShiftAmp_mXs,2020.1.2,Win32,60,,,,,,,,,,,,,,2,5.7522,,0,0,141,141,97,1,stimuli/stim_20210519_power2amp/equal_lnn_AM2.5Hz_s55_24.m4a,,,
,,,,,,,,,,,,38860,2021-06-16_15h35.55.603,judgeSpeechMusic_20210519_logNormShiftAmp_mXs,2020.1.2,Win32,60,,,,,,,,,,,,,,1,7.9429,,0,0,142,142,0,1,stimuli/stim_20210519_power2amp/equal_lnn_AM1Hz_s15_17.m4a,,,
,,,,,,,,,,,,38860,2021-06-16_15h35.55.603,judgeSpeechMusic_20210519_logNormShiftAmp_mXs,2020.1.2,Win32,60,,,,,,,,,,,,,,2,5.7997,,0,0,143,143,90,1,stimuli/stim_20210519_power2amp/equal_lnn_AM2.5Hz_s55_50.m4a,,,
,,,,,,,,,,,,38860,2021-06-16_15h35.55.603,judgeSpeechMusic_20210519_logNormShiftAmp_mXs,2020.1.2,Win32,60,,,,,,,,,,,,,,2,15.6028,,0,0,144,144,76,1,stimuli/stim_20210519_power2amp/equal_lnn_AM2.5Hz_s35_35.m4a,,,
,,,,,,,,,,,,38860,2021-06-16_15h35.55.603,judgeSpeechMusic_20210519_logNormShiftAmp_mXs,2020.1.2,Win32,60,,,,,,,,,,,,,,2,9.2701,,0,0,145,145,86,1,stimuli/stim_20210519_power2amp/equal_lnn_AM2.5Hz_s45_36.m4a,,,
,,,,,,,,,,,,38860,2021-06-16_15h35.55.603,judgeSpeechMusic_20210519_logNormShiftAmp_mXs,2020.1.2,Win32,60,,,,,,,,,,,,,,1,5.7588,,0,0,146,146,138,1,stimuli/stim_20210519_power2amp/equal_lnn_AM4Hz_s45_36.m4a,,,
,,,,,,,,,,,,38860,2021-06-16_15h35.55.603,judgeSpeechMusic_20210519_logNormShiftAmp_mXs,2020.1.2,Win32,60,,,,,,,,,,,,,,1,6.9993,,0,0,147,147,24,1,stimuli/stim_20210519_power2amp/equal_lnn_AM1Hz_s35_5.m4a,,,
,,,,,,,,,,,,38860,2021-06-16_15h35.55.603,judgeSpeechMusic_20210519_logNormShiftAmp_mXs,2020.1.2,Win32,60,,,,,,,,,,,,,,1,5.7752,3,1,0,148,148,81,1,stimuli/stim_20210519_power2amp/equal_lnn_AM2.5Hz_s45_42.m4a,1.7043,,
,,,,,,,,,,,,38860,2021-06-16_15h35.55.603,judgeSpeechMusic_20210519_logNormShiftAmp_mXs,2020.1.2,Win32,60,,,,,,,,,,,,,,2,7.0673,,0,0,149,149,88,1,stimuli/stim_20210519_power2amp/equal_lnn_AM2.5Hz_s45_12.m4a,,,
,,,,,,,,,,,,38860,2021-06-16_15h35.55.603,judgeSpeechMusic_20210519_logNormShiftAmp_mXs,2020.1.2,Win32,60,,,,,,,,,,,,,,2,6.6065,,0,1,0,150,55,1,stimuli/stim_20210519_power2amp/equal_lnn_AM2.5Hz_s15_7.m4a,,,
,,,,,,,,,,,,38860,2021-06-16_15h35.55.603,judgeSpeechMusic_20210519_logNormShiftAmp_mXs,2020.1.2,Win32,60,,,,,,,,,,,,,,1,5.849,,0,1,1,151,92,1,stimuli/stim_20210519_power2amp/equal_lnn_AM2.5Hz_s55_32.m4a,,,
,,,,,,,,,,,,38860,2021-06-16_15h35.55.603,judgeSpeechMusic_20210519_logNormShiftAmp_mXs,2020.1.2,Win32,60,,,,,,,,,,,,,,2,6.1179,,0,1,2,152,131,1,stimuli/stim_20210519_power2amp/equal_lnn_AM4Hz_s45_4.m4a,,,
,,,,,,,,,,,,38860,2021-06-16_15h35.55.603,judgeSpeechMusic_20210519_logNormShiftAmp_mXs,2020.1.2,Win32,60,,,,,,,,,,,,,,2,8.4821,,0,1,3,153,129,1,stimuli/stim_20210519_power2amp/equal_lnn_AM4Hz_s35_20.m4a,,,
,,,,,,,,,,,,38860,2021-06-16_15h35.55.603,judgeSpeechMusic_20210519_logNormShiftAmp_mXs,2020.1.2,Win32,60,,,,,,,,,,,,,,1,8.0116,,0,1,4,154,98,1,stimuli/stim_20210519_power2amp/equal_lnn_AM2.5Hz_s55_40.m4a,,,
,,,,,,,,,,,,38860,2021-06-16_15h35.55.603,judgeSpeechMusic_20210519_logNormShiftAmp_mXs,2020.1.2,Win32,60,,,,,,,,,,,,,,2,5.8361,,0,1,5,155,114,1,stimuli/stim_20210519_power2amp/equal_lnn_AM4Hz_s25_15.m4a,,,
,,,,,,,,,,,,38860,2021-06-16_15h35.55.603,judgeSpeechMusic_20210519_logNormShiftAmp_mXs,2020.1.2,Win32,60,,,,,,,,,,,,,,2,11.1791,,0,1,6,156,79,1,stimuli/stim_20210519_power2amp/equal_lnn_AM2.5Hz_s35_36.m4a,,,
,,,,,,,,,,,,38860,2021-06-16_15h35.55.603,judgeSpeechMusic_20210519_logNormShiftAmp_mXs,2020.1.2,Win32,60,,,,,,,,,,,,,,1,7.0039,,0,1,7,157,34,1,stimuli/stim_20210519_power2amp/equal_lnn_AM1Hz_s45_36.m4a,,,
,,,,,,,,,,,,38860,2021-06-16_15h35.55.603,judgeSpeechMusic_20210519_logNormShiftAmp_mXs,2020.1.2,Win32,60,,,,,,,,,,,,,,1,6.605,,0,1,8,158,46,1,stimuli/stim_20210519_power2amp/equal_lnn_AM1Hz_s55_39.m4a,,,
,,,,,,,,,,,,38860,2021-06-16_15h35.55.603,judgeSpeechMusic_20210519_logNormShiftAmp_mXs,2020.1.2,Win32,60,,,,,,,,,,,,,,1,5.668,,0,1,9,159,140,1,stimuli/stim_20210519_power2amp/equal_lnn_AM4Hz_s55_24.m4a,,,
,,,,,,,,,,,,38860,2021-06-16_15h35.55.603,judgeSpeechMusic_20210519_logNormShiftAmp_mXs,2020.1.2,Win32,60,,,,,,,,,,,,,,1,5.8026,,0,1,10,160,99,1,stimuli/stim_20210519_power2amp/equal_lnn_AM2.5Hz_s55_26.m4a,,,
,,,,,,,,,,,,38860,2021-06-16_15h35.55.603,judgeSpeechMusic_20210519_logNormShiftAmp_mXs,2020.1.2,Win32,60,,,,,,,,,,,,,,2,6.1411,,0,1,11,161,83,1,stimuli/stim_20210519_power2amp/equal_lnn_AM2.5Hz_s45_4.m4a,,,
,,,,,,,,,,,,38860,2021-06-16_15h35.55.603,judgeSpeechMusic_20210519_logNormShiftAmp_mXs,2020.1.2,Win32,60,,,,,,,,,,,,,,1,9.9396,,0,1,12,162,39,1,stimuli/stim_20210519_power2amp/equal_lnn_AM1Hz_s45_39.m4a,,,
,,,,,,,,,,,,38860,2021-06-16_15h35.55.603,judgeSpeechMusic_20210519_logNormShiftAmp_mXs,2020.1.2,Win32,60,,,,,,,,,,,,,,1,8.6755,,0,1,13,163,1,1,stimuli/stim_20210519_power2amp/equal_lnn_AM1Hz_s15_9.m4a,,,
,,,,,,,,,,,,38860,2021-06-16_15h35.55.603,judgeSpeechMusic_20210519_logNormShiftAmp_mXs,2020.1.2,Win32,60,,,,,,,,,,,,,,2,7.6556,,0,1,14,164,101,1,stimuli/stim_20210519_power2amp/equal_lnn_AM4Hz_s15_25.m4a,,,
,,,,,,,,,,,,38860,2021-06-16_15h35.55.603,judgeSpeechMusic_20210519_logNormShiftAmp_mXs,2020.1.2,Win32,60,,,,,,,,,,,,,,2,8.9162,,0,1,15,165,74,1,stimuli/stim_20210519_power2amp/equal_lnn_AM2.5Hz_s35_32.m4a,,,
,,,,,,,,,,,,38860,2021-06-16_15h35.55.603,judgeSpeechMusic_20210519_logNormShiftAmp_mXs,2020.1.2,Win32,60,,,,,,,,,,,,,,1,6.0491,,0,1,16,166,37,1,stimuli/stim_20210519_power2amp/equal_lnn_AM1Hz_s45_46.m4a,,,
,,,,,,,,,,,,38860,2021-06-16_15h35.55.603,judgeSpeechMusic_20210519_logNormShiftAmp_mXs,2020.1.2,Win32,60,,,,,,,,,,,,,,1,7.5844,,0,1,17,167,124,1,stimuli/stim_20210519_power2amp/equal_lnn_AM4Hz_s35_10.m4a,,,
,,,,,,,,,,,,38860,2021-06-16_15h35.55.603,judgeSpeechMusic_20210519_logNormShiftAmp_mXs,2020.1.2,Win32,60,,,,,,,,,,,,,,2,6.7022,,0,1,18,168,58,1,stimuli/stim_20210519_power2amp/equal_lnn_AM2.5Hz_s15_25.m4a,,,
,,,,,,,,,,,,38860,2021-06-16_15h35.55.603,judgeSpeechMusic_20210519_logNormShiftAmp_mXs,2020.1.2,Win32,60,,,,,,,,,,,,,,2,9.0885,,0,1,19,169,85,1,stimuli/stim_20210519_power2amp/equal_lnn_AM2.5Hz_s45_19.m4a,,,
,,,,,,,,,,,,38860,2021-06-16_15h35.55.603,judgeSpeechMusic_20210519_logNormShiftAmp_mXs,2020.1.2,Win32,60,,,,,,,,,,,,,,1,6.6363,4,1,1,20,170,147,1,stimuli/stim_20210519_power2amp/equal_lnn_AM4Hz_s55_5.m4a,1.2878,,
,,,,,,,,,,,,38860,2021-06-16_15h35.55.603,judgeSpeechMusic_20210519_logNormShiftAmp_mXs,2020.1.2,Win32,60,,,,,,,,,,,,,,1,5.8828,,0,1,21,171,15,1,stimuli/stim_20210519_power2amp/equal_lnn_AM1Hz_s25_49.m4a,,,
,,,,,,,,,,,,38860,2021-06-16_15h35.55.603,judgeSpeechMusic_20210519_logNormShiftAmp_mXs,2020.1.2,Win32,60,,,,,,,,,,,,,,2,10.5849,,0,1,22,172,89,1,stimuli/stim_20210519_power2amp/equal_lnn_AM2.5Hz_s45_11.m4a,,,
,,,,,,,,,,,,38860,2021-06-16_15h35.55.603,judgeSpeechMusic_20210519_logNormShiftAmp_mXs,2020.1.2,Win32,60,,,,,,,,,,,,,,1,5.8169,,0,1,23,173,20,1,stimuli/stim_20210519_power2amp/equal_lnn_AM1Hz_s35_6.m4a,,,
,,,,,,,,,,,,38860,2021-06-16_15h35.55.603,judgeSpeechMusic_20210519_logNormShiftAmp_mXs,2020.1.2,Win32,60,,,,,,,,,,,,,,2,15.3657,,0,1,24,174,72,1,stimuli/stim_20210519_power2amp/equal_lnn_AM2.5Hz_s35_4.m4a,,,
,,,,,,,,,,,,38860,2021-06-16_15h35.55.603,judgeSpeechMusic_20210519_logNormShiftAmp_mXs,2020.1.2,Win32,60,,,,,,,,,,,,,,1,5.949,,0,1,25,175,86,1,stimuli/stim_20210519_power2amp/equal_lnn_AM2.5Hz_s45_36.m4a,,,
,,,,,,,,,,,,38860,2021-06-16_15h35.55.603,judgeSpeechMusic_20210519_logNormShiftAmp_mXs,2020.1.2,Win32,60,,,,,,,,,,,,,,1,11.0812,,0,1,26,176,30,1,stimuli/stim_20210519_power2amp/equal_lnn_AM1Hz_s45_49.m4a,,,
,,,,,,,,,,,,38860,2021-06-16_15h35.55.603,judgeSpeechMusic_20210519_logNormShiftAmp_mXs,2020.1.2,Win32,60,,,,,,,,,,,,,,2,8.541,,0,1,27,177,112,1,stimuli/stim_20210519_power2amp/equal_lnn_AM4Hz_s25_27.m4a,,,
,,,,,,,,,,,,38860,2021-06-16_15h35.55.603,judgeSpeechMusic_20210519_logNormShiftAmp_mXs,2020.1.2,Win32,60,,,,,,,,,,,,,,1,9.1578,,0,1,28,178,22,1,stimuli/stim_20210519_power2amp/equal_lnn_AM1Hz_s35_8.m4a,,,
,,,,,,,,,,,,38860,2021-06-16_15h35.55.603,judgeSpeechMusic_20210519_logNormShiftAmp_mXs,2020.1.2,Win32,60,,,,,,,,,,,,,,2,5.6189,,0,1,29,179,108,1,stimuli/stim_20210519_power2amp/equal_lnn_AM4Hz_s15_28.m4a,,,
,,,,,,,,,,,,38860,2021-06-16_15h35.55.603,judgeSpeechMusic_20210519_logNormShiftAmp_mXs,2020.1.2,Win32,60,,,,,,,,,,,,,,1,5.7306,,0,1,30,180,33,1,stimuli/stim_20210519_power2amp/equal_lnn_AM1Hz_s45_47.m4a,,,
,,,,,,,,,,,,38860,2021-06-16_15h35.55.603,judgeSpeechMusic_20210519_logNormShiftAmp_mXs,2020.1.2,Win32,60,,,,,,,,,,,,,,2,6.0349,,0,1,31,181,122,1,stimuli/stim_20210519_power2amp/equal_lnn_AM4Hz_s35_37.m4a,,,
,,,,,,,,,,,,38860,2021-06-16_15h35.55.603,judgeSpeechMusic_20210519_logNormShiftAmp_mXs,2020.1.2,Win32,60,,,,,,,,,,,,,,2,5.9866,,0,1,32,182,138,1,stimuli/stim_20210519_power2amp/equal_lnn_AM4Hz_s45_36.m4a,,,
,,,,,,,,,,,,38860,2021-06-16_15h35.55.603,judgeSpeechMusic_20210519_logNormShiftAmp_mXs,2020.1.2,Win32,60,,,,,,,,,,,,,,2,6.4927,,0,1,33,183,126,1,stimuli/stim_20210519_power2amp/equal_lnn_AM4Hz_s35_41.m4a,,,
,,,,,,,,,,,,38860,2021-06-16_15h35.55.603,judgeSpeechMusic_20210519_logNormShiftAmp_mXs,2020.1.2,Win32,60,,,,,,,,,,,,,,1,7.6088,,0,1,34,184,0,1,stimuli/stim_20210519_power2amp/equal_lnn_AM1Hz_s15_17.m4a,,,
,,,,,,,,,,,,38860,2021-06-16_15h35.55.603,judgeSpeechMusic_20210519_logNormShiftAmp_mXs,2020.1.2,Win32,60,,,,,,,,,,,,,,1,9.671,,0,1,35,185,63,1,stimuli/stim_20210519_power2amp/equal_lnn_AM2.5Hz_s25_47.m4a,,,
,,,,,,,,,,,,38860,2021-06-16_15h35.55.603,judgeSpeechMusic_20210519_logNormShiftAmp_mXs,2020.1.2,Win32,60,,,,,,,,,,,,,,1,7.3342,,0,1,36,186,59,1,stimuli/stim_20210519_power2amp/equal_lnn_AM2.5Hz_s15_46.m4a,,,
,,,,,,,,,,,,38860,2021-06-16_15h35.55.603,judgeSpeechMusic_20210519_logNormShiftAmp_mXs,2020.1.2,Win32,60,,,,,,,,,,,,,,1,6.6717,,0,1,37,187,48,1,stimuli/stim_20210519_power2amp/equal_lnn_AM1Hz_s55_12.m4a,,,
,,,,,,,,,,,,38860,2021-06-16_15h35.55.603,judgeSpeechMusic_20210519_logNormShiftAmp_mXs,2020.1.2,Win32,60,,,,,,,,,,,,,,1,6.139,,0,1,38,188,56,1,stimuli/stim_20210519_power2amp/equal_lnn_AM2.5Hz_s15_36.m4a,,,
,,,,,,,,,,,,38860,2021-06-16_15h35.55.603,judgeSpeechMusic_20210519_logNormShiftAmp_mXs,2020.1.2,Win32,60,,,,,,,,,,,,,,1,8.9879,,0,1,39,189,25,1,stimuli/stim_20210519_power2amp/equal_lnn_AM1Hz_s35_30.m4a,,,
,,,,,,,,,,,,38860,2021-06-16_15h35.55.603,judgeSpeechMusic_20210519_logNormShiftAmp_mXs,2020.1.2,Win32,60,,,,,,,,,,,,,,2,5.7295,,0,1,40,190,146,1,stimuli/stim_20210519_power2amp/equal_lnn_AM4Hz_s55_14.m4a,,,
,,,,,,,,,,,,38860,2021-06-16_15h35.55.603,judgeSpeechMusic_20210519_logNormShiftAmp_mXs,2020.1.2,Win32,60,,,,,,,,,,,,,,1,5.8555,,0,1,41,191,47,1,stimuli/stim_20210519_power2amp/equal_lnn_AM1Hz_s55_15.m4a,,,
,,,,,,,,,,,,38860,2021-06-16_15h35.55.603,judgeSpeechMusic_20210519_logNormShiftAmp_mXs,2020.1.2,Win32,60,,,,,,,,,,,,,,1,6.2211,,0,1,42,192,13,1,stimuli/stim_20210519_power2amp/equal_lnn_AM1Hz_s25_26.m4a,,,
,,,,,,,,,,,,38860,2021-06-16_15h35.55.603,judgeSpeechMusic_20210519_logNormShiftAmp_mXs,2020.1.2,Win32,60,,,,,,,,,,,,,,2,5.726,,0,1,43,193,90,1,stimuli/stim_20210519_power2amp/equal_lnn_AM2.5Hz_s55_50.m4a,,,
,,,,,,,,,,,,38860,2021-06-16_15h35.55.603,judgeSpeechMusic_20210519_logNormShiftAmp_mXs,2020.1.2,Win32,60,,,,,,,,,,,,,,2,7.7377,4,1,1,44,194,87,1,stimuli/stim_20210519_power2amp/equal_lnn_AM2.5Hz_s45_48.m4a,1.2534,,
,,,,,,,,,,,,38860,2021-06-16_15h35.55.603,judgeSpeechMusic_20210519_logNormShiftAmp_mXs,2020.1.2,Win32,60,,,,,,,,,,,,,,2,5.7163,,0,1,45,195,88,1,stimuli/stim_20210519_power2amp/equal_lnn_AM2.5Hz_s45_12.m4a,,,
,,,,,,,,,,,,38860,2021-06-16_15h35.55.603,judgeSpeechMusic_20210519_logNormShiftAmp_mXs,2020.1.2,Win32,60,,,,,,,,,,,,,,1,5.7393,,0,1,46,196,93,1,stimuli/stim_20210519_power2amp/equal_lnn_AM2.5Hz_s55_35.m4a,,,
,,,,,,,,,,,,38860,2021-06-16_15h35.55.603,judgeSpeechMusic_20210519_logNormShiftAmp_mXs,2020.1.2,Win32,60,,,,,,,,,,,,,,2,6.1605,,0,1,47,197,119,1,stimuli/stim_20210519_power2amp/equal_lnn_AM4Hz_s25_24.m4a,,,
,,,,,,,,,,,,38860,2021-06-16_15h35.55.603,judgeSpeechMusic_20210519_logNormShiftAmp_mXs,2020.1.2,Win32,60,,,,,,,,,,,,,,1,6.1587,,0,1,48,198,57,1,stimuli/stim_20210519_power2amp/equal_lnn_AM2.5Hz_s15_14.m4a,,,
,,,,,,,,,,,,38860,2021-06-16_15h35.55.603,judgeSpeechMusic_20210519_logNormShiftAmp_mXs,2020.1.2,Win32,60,,,,,,,,,,,,,,1,5.6516,,0,1,49,199,12,1,stimuli/stim_20210519_power2amp/equal_lnn_AM1Hz_s25_16.m4a,,,
,,,,,,,,,,,,38860,2021-06-16_15h35.55.603,judgeSpeechMusic_20210519_logNormShiftAmp_mXs,2020.1.2,Win32,60,,,,,,,,,,,,,,1,5.7713,,0,1,50,200,143,1,stimuli/stim_20210519_power2amp/equal_lnn_AM4Hz_s55_31.m4a,,,
,,,,,,,,,,,,38860,2021-06-16_15h35.55.603,judgeSpeechMusic_20210519_logNormShiftAmp_mXs,2020.1.2,Win32,60,,,,,,,,,,,,,,1,6.8784,,0,1,51,201,42,1,stimuli/stim_20210519_power2amp/equal_lnn_AM1Hz_s55_50.m4a,,,
,,,,,,,,,,,,38860,2021-06-16_15h35.55.603,judgeSpeechMusic_20210519_logNormShiftAmp_mXs,2020.1.2,Win32,60,,,,,,,,,,,,,,1,5.8235,,0,1,52,202,62,1,stimuli/stim_20210519_power2amp/equal_lnn_AM2.5Hz_s25_26.m4a,,,
,,,,,,,,,,,,38860,2021-06-16_15h35.55.603,judgeSpeechMusic_20210519_logNormShiftAmp_mXs,2020.1.2,Win32,60,,,,,,,,,,,,,,2,5.6279,,0,1,53,203,53,1,stimuli/stim_20210519_power2amp/equal_lnn_AM2.5Hz_s15_1.m4a,,,
,,,,,,,,,,,,38860,2021-06-16_15h35.55.603,judgeSpeechMusic_20210519_logNormShiftAmp_mXs,2020.1.2,Win32,60,,,,,,,,,,,,,,1,5.6896,,0,1,54,204,9,1,stimuli/stim_20210519_power2amp/equal_lnn_AM1Hz_s15_49.m4a,,,
,,,,,,,,,,,,38860,2021-06-16_15h35.55.603,judgeSpeechMusic_20210519_logNormShiftAmp_mXs,2020.1.2,Win32,60,,,,,,,,,,,,,,1,5.6775,,0,1,55,205,137,1,stimuli/stim_20210519_power2amp/equal_lnn_AM4Hz_s45_50.m4a,,,
,,,,,,,,,,,,38860,2021-06-16_15h35.55.603,judgeSpeechMusic_20210519_logNormShiftAmp_mXs,2020.1.2,Win32,60,,,,,,,,,,,,,,2,5.7405,,0,1,56,206,100,1,stimuli/stim_20210519_power2amp/equal_lnn_AM4Hz_s15_33.m4a,,,
,,,,,,,,,,,,38860,2021-06-16_15h35.55.603,judgeSpeechMusic_20210519_logNormShiftAmp_mXs,2020.1.2,Win32,60,,,,,,,,,,,,,,1,6.7754,,0,1,57,207,84,1,stimuli/stim_20210519_power2amp/equal_lnn_AM2.5Hz_s45_43.m4a,,,
,,,,,,,,,,,,38860,2021-06-16_15h35.55.603,judgeSpeechMusic_20210519_logNormShiftAmp_mXs,2020.1.2,Win32,60,,,,,,,,,,,,,,1,5.6287,,0,1,58,208,40,1,stimuli/stim_20210519_power2amp/equal_lnn_AM1Hz_s55_10.m4a,,,
,,,,,,,,,,,,38860,2021-06-16_15h35.55.603,judgeSpeechMusic_20210519_logNormShiftAmp_mXs,2020.1.2,Win32,60,,,,,,,,,,,,,,1,5.6446,,0,1,59,209,27,1,stimuli/stim_20210519_power2amp/equal_lnn_AM1Hz_s35_43.m4a,,,
,,,,,,,,,,,,38860,2021-06-16_15h35.55.603,judgeSpeechMusic_20210519_logNormShiftAmp_mXs,2020.1.2,Win32,60,,,,,,,,,,,,,,1,5.7851,,0,1,60,210,26,1,stimuli/stim_20210519_power2amp/equal_lnn_AM1Hz_s35_45.m4a,,,
,,,,,,,,,,,,38860,2021-06-16_15h35.55.603,judgeSpeechMusic_20210519_logNormShiftAmp_mXs,2020.1.2,Win32,60,,,,,,,,,,,,,,1,5.851,,0,1,61,211,5,1,stimuli/stim_20210519_power2amp/equal_lnn_AM1Hz_s15_30.m4a,,,
,,,,,,,,,,,,38860,2021-06-16_15h35.55.603,judgeSpeechMusic_20210519_logNormShiftAmp_mXs,2020.1.2,Win32,60,,,,,,,,,,,,,,2,5.9709,,0,1,62,212,110,1,stimuli/stim_20210519_power2amp/equal_lnn_AM4Hz_s25_30.m4a,,,
,,,,,,,,,,,,38860,2021-06-16_15h35.55.603,judgeSpeechMusic_20210519_logNormShiftAmp_mXs,2020.1.2,Win32,60,,,,,,,,,,,,,,2,6.322,,0,1,63,213,130,1,stimuli/stim_20210519_power2amp/equal_lnn_AM4Hz_s45_11.m4a,,,
,,,,,,,,,,,,38860,2021-06-16_15h35.55.603,judgeSpeechMusic_20210519_logNormShiftAmp_mXs,2020.1.2,Win32,60,,,,,,,,,,,,,,2,6.3612,,0,1,64,214,107,1,stimuli/stim_20210519_power2amp/equal_lnn_AM4Hz_s15_35.m4a,,,
,,,,,,,,,,,,38860,2021-06-16_15h35.55.603,judgeSpeechMusic_20210519_logNormShiftAmp_mXs,2020.1.2,Win32,60,,,,,,,,,,,,,,2,5.7008,,0,1,65,215,115,1,stimuli/stim_20210519_power2amp/equal_lnn_AM4Hz_s25_10.m4a,,,
,,,,,,,,,,,,38860,2021-06-16_15h35.55.603,judgeSpeechMusic_20210519_logNormShiftAmp_mXs,2020.1.2,Win32,60,,,,,,,,,,,,,,1,8.0345,,0,1,66,216,71,1,stimuli/stim_20210519_power2amp/equal_lnn_AM2.5Hz_s35_44.m4a,,,
,,,,,,,,,,,,38860,2021-06-16_15h35.55.603,judgeSpeechMusic_20210519_logNormShiftAmp_mXs,2020.1.2,Win32,60,,,,,,,,,,,,,,2,7.513,,0,1,67,217,104,1,stimuli/stim_20210519_power2amp/equal_lnn_AM4Hz_s15_50.m4a,,,
,,,,,,,,,,,,38860,2021-06-16_15h35.55.603,judgeSpeechMusic_20210519_logNormShiftAmp_mXs,2020.1.2,Win32,60,,,,,,,,,,,,,,1,6.8844,,0,1,68,218,29,1,stimuli/stim_20210519_power2amp/equal_lnn_AM1Hz_s35_46.m4a,,,
,,,,,,,,,,,,38860,2021-06-16_15h35.55.603,judgeSpeechMusic_20210519_logNormShiftAmp_mXs,2020.1.2,Win32,60,,,,,,,,,,,,,,1,9.6491,4,1,1,69,219,121,1,stimuli/stim_20210519_power2amp/equal_lnn_AM4Hz_s35_43.m4a,1.1116,,
,,,,,,,,,,,,38860,2021-06-16_15h35.55.603,judgeSpeechMusic_20210519_logNormShiftAmp_mXs,2020.1.2,Win32,60,,,,,,,,,,,,,,1,5.7844,,0,1,70,220,41,1,stimuli/stim_20210519_power2amp/equal_lnn_AM1Hz_s55_17.m4a,,,
,,,,,,,,,,,,38860,2021-06-16_15h35.55.603,judgeSpeechMusic_20210519_logNormShiftAmp_mXs,2020.1.2,Win32,60,,,,,,,,,,,,,,1,8.3516,,0,1,71,221,80,1,stimuli/stim_20210519_power2amp/equal_lnn_AM2.5Hz_s45_31.m4a,,,
,,,,,,,,,,,,38860,2021-06-16_15h35.55.603,judgeSpeechMusic_20210519_logNormShiftAmp_mXs,2020.1.2,Win32,60,,,,,,,,,,,,,,2,8.2349,,0,1,72,222,139,1,stimuli/stim_20210519_power2amp/equal_lnn_AM4Hz_s45_17.m4a,,,
,,,,,,,,,,,,38860,2021-06-16_15h35.55.603,judgeSpeechMusic_20210519_logNormShiftAmp_mXs,2020.1.2,Win32,60,,,,,,,,,,,,,,1,5.7931,,0,1,73,223,117,1,stimuli/stim_20210519_power2amp/equal_lnn_AM4Hz_s25_40.m4a,,,
,,,,,,,,,,,,38860,2021-06-16_15h35.55.603,judgeSpeechMusic_20210519_logNormShiftAmp_mXs,2020.1.2,Win32,60,,,,,,,,,,,,,,1,6.1042,,0,1,74,224,2,1,stimuli/stim_20210519_power2amp/equal_lnn_AM1Hz_s15_15.m4a,,,
,,,,,,,,,,,,38860,2021-06-16_15h35.55.603,judgeSpeechMusic_20210519_logNormShiftAmp_mXs,2020.1.2,Win32,60,,,,,,,,,,,,,,1,6.8329,,0,1,75,225,136,1,stimuli/stim_20210519_power2amp/equal_lnn_AM4Hz_s45_3.m4a,,,
,,,,,,,,,,,,38860,2021-06-16_15h35.55.603,judgeSpeechMusic_20210519_logNormShiftAmp_mXs,2020.1.2,Win32,60,,,,,,,,,,,,,,2,6.0732,,0,1,76,226,103,1,stimuli/stim_20210519_power2amp/equal_lnn_AM4Hz_s15_30.m4a,,,
,,,,,,,,,,,,38860,2021-06-16_15h35.55.603,judgeSpeechMusic_20210519_logNormShiftAmp_mXs,2020.1.2,Win32,60,,,,,,,,,,,,,,1,5.7134,,0,1,77,227,43,1,stimuli/stim_20210519_power2amp/equal_lnn_AM1Hz_s55_27.m4a,,,
,,,,,,,,,,,,38860,2021-06-16_15h35.55.603,judgeSpeechMusic_20210519_logNormShiftAmp_mXs,2020.1.2,Win32,60,,,,,,,,,,,,,,1,6.3049,,0,1,78,228,23,1,stimuli/stim_20210519_power2amp/equal_lnn_AM1Hz_s35_37.m4a,,,
,,,,,,,,,,,,38860,2021-06-16_15h35.55.603,judgeSpeechMusic_20210519_logNormShiftAmp_mXs,2020.1.2,Win32,60,,,,,,,,,,,,,,1,7.6122,,0,1,79,229,65,1,stimuli/stim_20210519_power2amp/equal_lnn_AM2.5Hz_s25_27.m4a,,,
,,,,,,,,,,,,38860,2021-06-16_15h35.55.603,judgeSpeechMusic_20210519_logNormShiftAmp_mXs,2020.1.2,Win32,60,,,,,,,,,,,,,,1,5.7673,,0,1,80,230,128,1,stimuli/stim_20210519_power2amp/equal_lnn_AM4Hz_s35_22.m4a,,,
,,,,,,,,,,,,38860,2021-06-16_15h35.55.603,judgeSpeechMusic_20210519_logNormShiftAmp_mXs,2020.1.2,Win32,60,,,,,,,,,,,,,,1,5.935,,0,1,81,231,127,1,stimuli/stim_20210519_power2amp/equal_lnn_AM4Hz_s35_8.m4a,,,
,,,,,,,,,,,,38860,2021-06-16_15h35.55.603,judgeSpeechMusic_20210519_logNormShiftAmp_mXs,2020.1.2,Win32,60,,,,,,,,,,,,,,2,8.5196,,0,1,82,232,54,1,stimuli/stim_20210519_power2amp/equal_lnn_AM2.5Hz_s15_5.m4a,,,
,,,,,,,,,,,,38860,2021-06-16_15h35.55.603,judgeSpeechMusic_20210519_logNormShiftAmp_mXs,2020.1.2,Win32,60,,,,,,,,,,,,,,1,16.1584,,0,1,83,233,35,1,stimuli/stim_20210519_power2amp/equal_lnn_AM1Hz_s45_3.m4a,,,
,,,,,,,,,,,,38860,2021-06-16_15h35.55.603,judgeSpeechMusic_20210519_logNormShiftAmp_mXs,2020.1.2,Win32,60,,,,,,,,,,,,,,1,5.7056,,0,1,84,234,16,1,stimuli/stim_20210519_power2amp/equal_lnn_AM1Hz_s25_30.m4a,,,
,,,,,,,,,,,,38860,2021-06-16_15h35.55.603,judgeSpeechMusic_20210519_logNormShiftAmp_mXs,2020.1.2,Win32,60,,,,,,,,,,,,,,1,6.1015,,0,1,85,235,125,1,stimuli/stim_20210519_power2amp/equal_lnn_AM4Hz_s35_44.m4a,,,
,,,,,,,,,,,,38860,2021-06-16_15h35.55.603,judgeSpeechMusic_20210519_logNormShiftAmp_mXs,2020.1.2,Win32,60,,,,,,,,,,,,,,2,8.9044,,0,1,86,236,31,1,stimuli/stim_20210519_power2amp/equal_lnn_AM1Hz_s45_45.m4a,,,
,,,,,,,,,,,,38860,2021-06-16_15h35.55.603,judgeSpeechMusic_20210519_logNormShiftAmp_mXs,2020.1.2,Win32,60,,,,,,,,,,,,,,1,9.7428,,0,1,87,237,76,1,stimuli/stim_20210519_power2amp/equal_lnn_AM2.5Hz_s35_35.m4a,,,
,,,,,,,,,,,,38860,2021-06-16_15h35.55.603,judgeSpeechMusic_20210519_logNormShiftAmp_mXs,2020.1.2,Win32,60,,,,,,,,,,,,,,1,6.6745,,0,1,88,238,142,1,stimuli/stim_20210519_power2amp/equal_lnn_AM4Hz_s55_38.m4a,,,
,,,,,,,,,,,,38860,2021-06-16_15h35.55.603,judgeSpeechMusic_20210519_logNormShiftAmp_mXs,2020.1.2,Win32,60,,,,,,,,,,,,,,2,6.4843,2,1,1,89,239,78,1,stimuli/stim_20210519_power2amp/equal_lnn_AM2.5Hz_s35_24.m4a,1.1863,,
,,,,,,,,,,,,38860,2021-06-16_15h35.55.603,judgeSpeechMusic_20210519_logNormShiftAmp_mXs,2020.1.2,Win32,60,,,,,,,,,,,,,,1,6.9084,,0,1,90,240,135,1,stimuli/stim_20210519_power2amp/equal_lnn_AM4Hz_s45_18.m4a,,,
,,,,,,,,,,,,38860,2021-06-16_15h35.55.603,judgeSpeechMusic_20210519_logNormShiftAmp_mXs,2020.1.2,Win32,60,,,,,,,,,,,,,,1,6.9019,,0,1,91,241,7,1,stimuli/stim_20210519_power2amp/equal_lnn_AM1Hz_s15_36.m4a,,,
,,,,,,,,,,,,38860,2021-06-16_15h35.55.603,judgeSpeechMusic_20210519_logNormShiftAmp_mXs,2020.1.2,Win32,60,,,,,,,,,,,,,,2,8.7361,,0,1,92,242,134,1,stimuli/stim_20210519_power2amp/equal_lnn_AM4Hz_s45_30.m4a,,,
,,,,,,,,,,,,38860,2021-06-16_15h35.55.603,judgeSpeechMusic_20210519_logNormShiftAmp_mXs,2020.1.2,Win32,60,,,,,,,,,,,,,,2,8.6668,,0,1,93,243,132,1,stimuli/stim_20210519_power2amp/equal_lnn_AM4Hz_s45_5.m4a,,,
,,,,,,,,,,,,38860,2021-06-16_15h35.55.603,judgeSpeechMusic_20210519_logNormShiftAmp_mXs,2020.1.2,Win32,60,,,,,,,,,,,,,,1,7.3169,,0,1,94,244,14,1,stimuli/stim_20210519_power2amp/equal_lnn_AM1Hz_s25_32.m4a,,,
,,,,,,,,,,,,38860,2021-06-16_15h35.55.603,judgeSpeechMusic_20210519_logNormShiftAmp_mXs,2020.1.2,Win32,60,,,,,,,,,,,,,,2,7.7395,,0,1,95,245,75,1,stimuli/stim_20210519_power2amp/equal_lnn_AM2.5Hz_s35_29.m4a,,,
,,,,,,,,,,,,38860,2021-06-16_15h35.55.603,judgeSpeechMusic_20210519_logNormShiftAmp_mXs,2020.1.2,Win32,60,,,,,,,,,,,,,,1,10.4621,,0,1,96,246,11,1,stimuli/stim_20210519_power2amp/equal_lnn_AM1Hz_s25_4.m4a,,,
,,,,,,,,,,,,38860,2021-06-16_15h35.55.603,judgeSpeechMusic_20210519_logNormShiftAmp_mXs,2020.1.2,Win32,60,,,,,,,,,,,,,,2,11.9697,,0,1,97,247,111,1,stimuli/stim_20210519_power2amp/equal_lnn_AM4Hz_s25_50.m4a,,,
,,,,,,,,,,,,38860,2021-06-16_15h35.55.603,judgeSpeechMusic_20210519_logNormShiftAmp_mXs,2020.1.2,Win32,60,,,,,,,,,,,,,,1,5.8772,,0,1,98,248,4,1,stimuli/stim_20210519_power2amp/equal_lnn_AM1Hz_s15_40.m4a,,,
,,,,,,,,,,,,38860,2021-06-16_15h35.55.603,judgeSpeechMusic_20210519_logNormShiftAmp_mXs,2020.1.2,Win32,60,,,,,,,,,,,,,,2,6.9175,,0,1,99,249,61,1,stimuli/stim_20210519_power2amp/equal_lnn_AM2.5Hz_s25_19.m4a,,,
,,,,,,,,,,,,38860,2021-06-16_15h35.55.603,judgeSpeechMusic_20210519_logNormShiftAmp_mXs,2020.1.2,Win32,60,,,,,,,,,,,,,,1,9.9809,,0,1,100,250,96,1,stimuli/stim_20210519_power2amp/equal_lnn_AM2.5Hz_s55_21.m4a,,,
,,,,,,,,,,,,38860,2021-06-16_15h35.55.603,judgeSpeechMusic_20210519_logNormShiftAmp_mXs,2020.1.2,Win32,60,,,,,,,,,,,,,,1,6.196,,0,1,101,251,3,1,stimuli/stim_20210519_power2amp/equal_lnn_AM1Hz_s15_24.m4a,,,
,,,,,,,,,,,,38860,2021-06-16_15h35.55.603,judgeSpeechMusic_20210519_logNormShiftAmp_mXs,2020.1.2,Win32,60,,,,,,,,,,,,,,1,5.5787,,0,1,102,252,32,1,stimuli/stim_20210519_power2amp/equal_lnn_AM1Hz_s45_32.m4a,,,
,,,,,,,,,,,,38860,2021-06-16_15h35.55.603,judgeSpeechMusic_20210519_logNormShiftAmp_mXs,2020.1.2,Win32,60,,,,,,,,,,,,,,1,6.0647,,0,1,103,253,18,1,stimuli/stim_20210519_power2amp/equal_lnn_AM1Hz_s25_20.m4a,,,
,,,,,,,,,,,,38860,2021-06-16_15h35.55.603,judgeSpeechMusic_20210519_logNormShiftAmp_mXs,2020.1.2,Win32,60,,,,,,,,,,,,,,2,5.7125,,0,1,104,254,82,1,stimuli/stim_20210519_power2amp/equal_lnn_AM2.5Hz_s45_10.m4a,,,
,,,,,,,,,,,,38860,2021-06-16_15h35.55.603,judgeSpeechMusic_20210519_logNormShiftAmp_mXs,2020.1.2,Win32,60,,,,,,,,,,,,,,2,10.0785,,0,1,105,255,148,1,stimuli/stim_20210519_power2amp/equal_lnn_AM4Hz_s55_27.m4a,,,
,,,,,,,,,,,,38860,2021-06-16_15h35.55.603,judgeSpeechMusic_20210519_logNormShiftAmp_mXs,2020.1.2,Win32,60,,,,,,,,,,,,,,2,12.3787,,0,1,106,256,81,1,stimuli/stim_20210519_power2amp/equal_lnn_AM2.5Hz_s45_42.m4a,,,
,,,,,,,,,,,,38860,2021-06-16_15h35.55.603,judgeSpeechMusic_20210519_logNormShiftAmp_mXs,2020.1.2,Win32,60,,,,,,,,,,,,,,1,8.4286,,0,1,107,257,68,1,stimuli/stim_20210519_power2amp/equal_lnn_AM2.5Hz_s25_24.m4a,,,
,,,,,,,,,,,,38860,2021-06-16_15h35.55.603,judgeSpeechMusic_20210519_logNormShiftAmp_mXs,2020.1.2,Win32,60,,,,,,,,,,,,,,2,6.1965,,0,1,108,258,116,1,stimuli/stim_20210519_power2amp/equal_lnn_AM4Hz_s25_49.m4a,,,
,,,,,,,,,,,,38860,2021-06-16_15h35.55.603,judgeSpeechMusic_20210519_logNormShiftAmp_mXs,2020.1.2,Win32,60,,,,,,,,,,,,,,1,5.9307,,0,1,109,259,69,1,stimuli/stim_20210519_power2amp/equal_lnn_AM2.5Hz_s25_37.m4a,,,
,,,,,,,,,,,,38860,2021-06-16_15h35.55.603,judgeSpeechMusic_20210519_logNormShiftAmp_mXs,2020.1.2,Win32,60,,,,,,,,,,,,,,1,9.9644,,0,1,110,260,21,1,stimuli/stim_20210519_power2amp/equal_lnn_AM1Hz_s35_22.m4a,,,
,,,,,,,,,,,,38860,2021-06-16_15h35.55.603,judgeSpeechMusic_20210519_logNormShiftAmp_mXs,2020.1.2,Win32,60,,,,,,,,,,,,,,1,17.3944,,0,1,111,261,38,1,stimuli/stim_20210519_power2amp/equal_lnn_AM1Hz_s45_24.m4a,,,
,,,,,,,,,,,,38860,2021-06-16_15h35.55.603,judgeSpeechMusic_20210519_logNormShiftAmp_mXs,2020.1.2,Win32,60,,,,,,,,,,,,,,2,9.1974,4,1,1,112,262,52,1,stimuli/stim_20210519_power2amp/equal_lnn_AM2.5Hz_s15_39.m4a,0.8679,,
,,,,,,,,,,,,38860,2021-06-16_15h35.55.603,judgeSpeechMusic_20210519_logNormShiftAmp_mXs,2020.1.2,Win32,60,,,,,,,,,,,,,,2,7.029,,0,1,113,263,123,1,stimuli/stim_20210519_power2amp/equal_lnn_AM4Hz_s35_29.m4a,,,
,,,,,,,,,,,,38860,2021-06-16_15h35.55.603,judgeSpeechMusic_20210519_logNormShiftAmp_mXs,2020.1.2,Win32,60,,,,,,,,,,,,,,1,6.8136,,0,1,114,264,51,1,stimuli/stim_20210519_power2amp/equal_lnn_AM2.5Hz_s15_31.m4a,,,
,,,,,,,,,,,,38860,2021-06-16_15h35.55.603,judgeSpeechMusic_20210519_logNormShiftAmp_mXs,2020.1.2,Win32,60,,,,,,,,,,,,,,1,6.9957,,0,1,115,265,44,1,stimuli/stim_20210519_power2amp/equal_lnn_AM1Hz_s55_49.m4a,,,
,,,,,,,,,,,,38860,2021-06-16_15h35.55.603,judgeSpeechMusic_20210519_logNormShiftAmp_mXs,2020.1.2,Win32,60,,,,,,,,,,,,,,1,14.0123,,0,1,116,266,36,1,stimuli/stim_20210519_power2amp/equal_lnn_AM1Hz_s45_50.m4a,,,
,,,,,,,,,,,,38860,2021-06-16_15h35.55.603,judgeSpeechMusic_20210519_logNormShiftAmp_mXs,2020.1.2,Win32,60,,,,,,,,,,,,,,2,15.9457,,0,1,117,267,91,1,stimuli/stim_20210519_power2amp/equal_lnn_AM2.5Hz_s55_41.m4a,,,
,,,,,,,,,,,,38860,2021-06-16_15h35.55.603,judgeSpeechMusic_20210519_logNormShiftAmp_mXs,2020.1.2,Win32,60,,,,,,,,,,,,,,1,10.1964,,0,1,118,268,64,1,stimuli/stim_20210519_power2amp/equal_lnn_AM2.5Hz_s25_43.m4a,,,
,,,,,,,,,,,,38860,2021-06-16_15h35.55.603,judgeSpeechMusic_20210519_logNormShiftAmp_mXs,2020.1.2,Win32,60,,,,,,,,,,,,,,2,12.5769,,0,1,119,269,149,1,stimuli/stim_20210519_power2amp/equal_lnn_AM4Hz_s55_26.m4a,,,
,,,,,,,,,,,,38860,2021-06-16_15h35.55.603,judgeSpeechMusic_20210519_logNormShiftAmp_mXs,2020.1.2,Win32,60,,,,,,,,,,,,,,1,6.3158,,0,1,120,270,60,1,stimuli/stim_20210519_power2amp/equal_lnn_AM2.5Hz_s25_20.m4a,,,
,,,,,,,,,,,,38860,2021-06-16_15h35.55.603,judgeSpeechMusic_20210519_logNormShiftAmp_mXs,2020.1.2,Win32,60,,,,,,,,,,,,,,1,6.4785,,0,1,121,271,28,1,stimuli/stim_20210519_power2amp/equal_lnn_AM1Hz_s35_40.m4a,,,
,,,,,,,,,,,,38860,2021-06-16_15h35.55.603,judgeSpeechMusic_20210519_logNormShiftAmp_mXs,2020.1.2,Win32,60,,,,,,,,,,,,,,1,9.3962,,0,1,122,272,19,1,stimuli/stim_20210519_power2amp/equal_lnn_AM1Hz_s25_23.m4a,,,
,,,,,,,,,,,,38860,2021-06-16_15h35.55.603,judgeSpeechMusic_20210519_logNormShiftAmp_mXs,2020.1.2,Win32,60,,,,,,,,,,,,,,1,5.7961,,0,1,123,273,49,1,stimuli/stim_20210519_power2amp/equal_lnn_AM1Hz_s55_21.m4a,,,
,,,,,,,,,,,,38860,2021-06-16_15h35.55.603,judgeSpeechMusic_20210519_logNormShiftAmp_mXs,2020.1.2,Win32,60,,,,,,,,,,,,,,2,5.7458,,0,1,124,274,118,1,stimuli/stim_20210519_power2amp/equal_lnn_AM4Hz_s25_43.m4a,,,
,,,,,,,,,,,,38860,2021-06-16_15h35.55.603,judgeSpeechMusic_20210519_logNormShiftAmp_mXs,2020.1.2,Win32,60,,,,,,,,,,,,,,2,5.7304,,0,1,125,275,102,1,stimuli/stim_20210519_power2amp/equal_lnn_AM4Hz_s15_38.m4a,,,
,,,,,,,,,,,,38860,2021-06-16_15h35.55.603,judgeSpeechMusic_20210519_logNormShiftAmp_mXs,2020.1.2,Win32,60,,,,,,,,,,,,,,2,5.7303,,0,1,126,276,73,1,stimuli/stim_20210519_power2amp/equal_lnn_AM2.5Hz_s35_17.m4a,,,
,,,,,,,,,,,,38860,2021-06-16_15h35.55.603,judgeSpeechMusic_20210519_logNormShiftAmp_mXs,2020.1.2,Win32,60,,,,,,,,,,,,,,1,9.0461,,0,1,127,277,10,1,stimuli/stim_20210519_power2amp/equal_lnn_AM1Hz_s25_47.m4a,,,
,,,,,,,,,,,,38860,2021-06-16_15h35.55.603,judgeSpeechMusic_20210519_logNormShiftAmp_mXs,2020.1.2,Win32,60,,,,,,,,,,,,,,1,7.3797,,0,1,128,278,133,1,stimuli/stim_20210519_power2amp/equal_lnn_AM4Hz_s45_22.m4a,,,
,,,,,,,,,,,,38860,2021-06-16_15h35.55.603,judgeSpeechMusic_20210519_logNormShiftAmp_mXs,2020.1.2,Win32,60,,,,,,,,,,,,,,1,5.7129,,0,1,129,279,45,1,stimuli/stim_20210519_power2amp/equal_lnn_AM1Hz_s55_46.m4a,,,
,,,,,,,,,,,,38860,2021-06-16_15h35.55.603,judgeSpeechMusic_20210519_logNormShiftAmp_mXs,2020.1.2,Win32,60,,,,,,,,,,,,,,2,5.9649,,0,1,130,280,70,1,stimuli/stim_20210519_power2amp/equal_lnn_AM2.5Hz_s35_16.m4a,,,
,,,,,,,,,,,,38860,2021-06-16_15h35.55.603,judgeSpeechMusic_20210519_logNormShiftAmp_mXs,2020.1.2,Win32,60,,,,,,,,,,,,,,2,5.5972,,0,1,131,281,109,1,stimuli/stim_20210519_power2amp/equal_lnn_AM4Hz_s15_41.m4a,,,
,,,,,,,,,,,,38860,2021-06-16_15h35.55.603,judgeSpeechMusic_20210519_logNormShiftAmp_mXs,2020.1.2,Win32,60,,,,,,,,,,,,,,2,5.7453,,0,1,132,282,106,1,stimuli/stim_20210519_power2amp/equal_lnn_AM4Hz_s15_7.m4a,,,
,,,,,,,,,,,,38860,2021-06-16_15h35.55.603,judgeSpeechMusic_20210519_logNormShiftAmp_mXs,2020.1.2,Win32,60,,,,,,,,,,,,,,2,5.6975,,0,1,133,283,113,1,stimuli/stim_20210519_power2amp/equal_lnn_AM4Hz_s25_33.m4a,,,
,,,,,,,,,,,,38860,2021-06-16_15h35.55.603,judgeSpeechMusic_20210519_logNormShiftAmp_mXs,2020.1.2,Win32,60,,,,,,,,,,,,,,2,6.5293,,0,1,134,284,144,1,stimuli/stim_20210519_power2amp/equal_lnn_AM4Hz_s55_20.m4a,,,
,,,,,,,,,,,,38860,2021-06-16_15h35.55.603,judgeSpeechMusic_20210519_logNormShiftAmp_mXs,2020.1.2,Win32,60,,,,,,,,,,,,,,2,5.8793,,0,1,135,285,120,1,stimuli/stim_20210519_power2amp/equal_lnn_AM4Hz_s35_33.m4a,,,
,,,,,,,,,,,,38860,2021-06-16_15h35.55.603,judgeSpeechMusic_20210519_logNormShiftAmp_mXs,2020.1.2,Win32,60,,,,,,,,,,,,,,2,6.6806,,0,1,136,286,50,1,stimuli/stim_20210519_power2amp/equal_lnn_AM2.5Hz_s15_2.m4a,,,
,,,,,,,,,,,,38860,2021-06-16_15h35.55.603,judgeSpeechMusic_20210519_logNormShiftAmp_mXs,2020.1.2,Win32,60,,,,,,,,,,,,,,1,7.0299,4,1,1,137,287,6,1,stimuli/stim_20210519_power2amp/equal_lnn_AM1Hz_s15_10.m4a,0.8174,,
,,,,,,,,,,,,38860,2021-06-16_15h35.55.603,judgeSpeechMusic_20210519_logNormShiftAmp_mXs,2020.1.2,Win32,60,,,,,,,,,,,,,,1,6.9616,,0,1,138,288,17,1,stimuli/stim_20210519_power2amp/equal_lnn_AM1Hz_s25_7.m4a,,,
,,,,,,,,,,,,38860,2021-06-16_15h35.55.603,judgeSpeechMusic_20210519_logNormShiftAmp_mXs,2020.1.2,Win32,60,,,,,,,,,,,,,,1,5.9973,,0,1,139,289,77,1,stimuli/stim_20210519_power2amp/equal_lnn_AM2.5Hz_s35_25.m4a,,,
,,,,,,,,,,,,38860,2021-06-16_15h35.55.603,judgeSpeechMusic_20210519_logNormShiftAmp_mXs,2020.1.2,Win32,60,,,,,,,,,,,,,,2,5.7151,,0,1,140,290,97,1,stimuli/stim_20210519_power2amp/equal_lnn_AM2.5Hz_s55_24.m4a,,,
,,,,,,,,,,,,38860,2021-06-16_15h35.55.603,judgeSpeechMusic_20210519_logNormShiftAmp_mXs,2020.1.2,Win32,60,,,,,,,,,,,,,,2,5.6132,,0,1,141,291,105,1,stimuli/stim_20210519_power2amp/equal_lnn_AM4Hz_s15_11.m4a,,,
,,,,,,,,,,,,38860,2021-06-16_15h35.55.603,judgeSpeechMusic_20210519_logNormShiftAmp_mXs,2020.1.2,Win32,60,,,,,,,,,,,,,,1,5.8305,,0,1,142,292,95,1,stimuli/stim_20210519_power2amp/equal_lnn_AM2.5Hz_s55_27.m4a,,,
,,,,,,,,,,,,38860,2021-06-16_15h35.55.603,judgeSpeechMusic_20210519_logNormShiftAmp_mXs,2020.1.2,Win32,60,,,,,,,,,,,,,,1,5.8794,,0,1,143,293,8,1,stimuli/stim_20210519_power2amp/equal_lnn_AM1Hz_s15_19.m4a,,,
,,,,,,,,,,,,38860,2021-06-16_15h35.55.603,judgeSpeechMusic_20210519_logNormShiftAmp_mXs,2020.1.2,Win32,60,,,,,,,,,,,,,,1,5.9131,,0,1,144,294,145,1,stimuli/stim_20210519_power2amp/equal_lnn_AM4Hz_s55_4.m4a,,,
,,,,,,,,,,,,38860,2021-06-16_15h35.55.603,judgeSpeechMusic_20210519_logNormShiftAmp_mXs,2020.1.2,Win32,60,,,,,,,,,,,,,,1,6.0124,,0,1,145,295,24,1,stimuli/stim_20210519_power2amp/equal_lnn_AM1Hz_s35_5.m4a,,,
,,,,,,,,,,,,38860,2021-06-16_15h35.55.603,judgeSpeechMusic_20210519_logNormShiftAmp_mXs,2020.1.2,Win32,60,,,,,,,,,,,,,,1,5.6134,,0,1,146,296,141,1,stimuli/stim_20210519_power2amp/equal_lnn_AM4Hz_s55_17.m4a,,,
,,,,,,,,,,,,38860,2021-06-16_15h35.55.603,judgeSpeechMusic_20210519_logNormShiftAmp_mXs,2020.1.2,Win32,60,,,,,,,,,,,,,,1,5.6808,,0,1,147,297,66,1,stimuli/stim_20210519_power2amp/equal_lnn_AM2.5Hz_s25_34.m4a,,,
,,,,,,,,,,,,38860,2021-06-16_15h35.55.603,judgeSpeechMusic_20210519_logNormShiftAmp_mXs,2020.1.2,Win32,60,,,,,,,,,,,,,,1,5.7295,,0,1,148,298,67,1,stimuli/stim_20210519_power2amp/equal_lnn_AM2.5Hz_s25_31.m4a,,,
,,,,,,,,,,,,38860,2021-06-16_15h35.55.603,judgeSpeechMusic_20210519_logNormShiftAmp_mXs,2020.1.2,Win32,60,,,,,,,,,,,,,,2,5.7795,,0,1,149,299,94,1,stimuli/stim_20210519_power2amp/equal_lnn_AM2.5Hz_s55_10.m4a,,,
,,,,,,,,,,,,38860,2021-06-16_15h35.55.603,judgeSpeechMusic_20210519_logNormShiftAmp_mXs,2020.1.2,Win32,60,,,,,,,,,,,,,,,,,,,,,,,,,space,7.7324
