volAdjustRep.thisRepN,volAdjustRep.thisTrialN,volAdjustRep.thisN,volAdjustRep.thisIndex,volAdjustRep.ran,participant,date,expName,psychopyVersion,OS,frameRate,headphoneResponse.keys,headphoneResponse.corr,headphoneResponse.rt,headphoneTrial.thisRepN,headphoneTrial.thisTrialN,headphoneTrial.thisN,headphoneTrial.thisIndex,headphoneTrial.ran,headphone_sound1,headphone_sound2,headphone_sound3,corrAns,trainSlider.response,trainSlider.rt,beepTrainResponse.keys,beepTrainResponse.corr,trainingTrials.thisRepN,trainingTrials.thisTrialN,trainingTrials.thisN,trainingTrials.thisIndex,trainingTrials.ran,trainAudioFile,beepTrainResponse.rt,readyReal_resp.keys,readyReal_resp.rt,ratingSlider.response,ratingSlider.rt,beepResp.keys,beepResp.corr,expTrials.thisRepN,expTrials.thisTrialN,expTrials.thisN,expTrials.thisIndex,expTrials.ran,audioFile,beepResp.rt,end_resp.keys,end_resp.rt
0,0,0,0,1,39007,2021-05-26_12h02.52.010,judgeSpeechMusic_20210519_logNormShiftAmp_mXs,2020.1.2,MacIntel,60,,,,,,,,,,,,,,,,,,,,,,,,,,,,,,,,,,,,,,
,,,,,39007,2021-05-26_12h02.52.010,judgeSpeechMusic_20210519_logNormShiftAmp_mXs,2020.1.2,MacIntel,60,3,0,2.322,0,0,0,5,1,stimuli/screen_quiet.wav,stimuli/screen_origin.wav,stimuli/screen_antiphase.wav,1,,,,,,,,,,,,,,,,,,,,,,,,,,
,,,,,39007,2021-05-26_12h02.52.010,judgeSpeechMusic_20210519_logNormShiftAmp_mXs,2020.1.2,MacIntel,60,2,1,0.545,0,1,1,3,1,stimuli/screen_origin.wav,stimuli/screen_quiet.wav,stimuli/screen_antiphase.wav,2,,,,,,,,,,,,,,,,,,,,,,,,,,
,,,,,39007,2021-05-26_12h02.52.010,judgeSpeechMusic_20210519_logNormShiftAmp_mXs,2020.1.2,MacIntel,60,1,1,0.634,0,2,2,4,1,stimuli/screen_quiet.wav,stimuli/screen_antiphase.wav,stimuli/screen_origin.wav,1,,,,,,,,,,,,,,,,,,,,,,,,,,
,,,,,39007,2021-05-26_12h02.52.010,judgeSpeechMusic_20210519_logNormShiftAmp_mXs,2020.1.2,MacIntel,60,3,1,0.542,0,3,3,2,1,stimuli/screen_origin.wav,stimuli/screen_antiphase.wav,stimuli/screen_quiet.wav,3,,,,,,,,,,,,,,,,,,,,,,,,,,
,,,,,39007,2021-05-26_12h02.52.010,judgeSpeechMusic_20210519_logNormShiftAmp_mXs,2020.1.2,MacIntel,60,2,1,0.779,0,4,4,1,1,stimuli/screen_antiphase.wav,stimuli/screen_quiet.wav,stimuli/screen_origin.wav,2,,,,,,,,,,,,,,,,,,,,,,,,,,
,,,,,39007,2021-05-26_12h02.52.010,judgeSpeechMusic_20210519_logNormShiftAmp_mXs,2020.1.2,MacIntel,60,3,1,0.309,0,5,5,0,1,stimuli/screen_antiphase.wav,stimuli/screen_origin.wav,stimuli/screen_quiet.wav,3,,,,,,,,,,,,,,,,,,,,,,,,,,
,,,,,39007,2021-05-26_12h02.52.010,judgeSpeechMusic_20210519_logNormShiftAmp_mXs,2020.1.2,MacIntel,60,,,,,,,,,,,,,2,12.203,,0,0,0,0,2,1,stimuli/stim_20210519_power2amp/equal_lnn_AM_training3.5Hz_s20.m4a,,,,,,,,,,,,,,,,
,,,,,39007,2021-05-26_12h02.52.010,judgeSpeechMusic_20210519_logNormShiftAmp_mXs,2020.1.2,MacIntel,60,,,,,,,,,,,,,2,9.702,,0,0,1,1,1,1,stimuli/stim_20210519_power2amp/equal_lnn_AM_training1.5Hz_s50.m4a,,,,,,,,,,,,,,,,
,,,,,39007,2021-05-26_12h02.52.010,judgeSpeechMusic_20210519_logNormShiftAmp_mXs,2020.1.2,MacIntel,60,,,,,,,,,,,,,2,7.203,3,1,0,2,2,0,1,stimuli/stim_20210519_power2amp/equal_lnn_AM_training1.5Hz_s20.m4a,1.87,,,,,,,,,,,,,,,
,,,,,39007,2021-05-26_12h02.52.010,judgeSpeechMusic_20210519_logNormShiftAmp_mXs,2020.1.2,MacIntel,60,,,,,,,,,,,,,2,9.444,,0,0,3,3,3,1,stimuli/stim_20210519_power2amp/equal_lnn_AM_training3.5Hz_s50.m4a,,,,,,,,,,,,,,,,
,,,,,39007,2021-05-26_12h02.52.010,judgeSpeechMusic_20210519_logNormShiftAmp_mXs,2020.1.2,MacIntel,60,,,,,,,,,,,,,,,,,,,,,,,,space,6.544,1,10.91,,0,0,0,0,112,1,stimuli/stim_20210519_power2amp/equal_lnn_AM4Hz_s25_29.m4a,,,
,,,,,39007,2021-05-26_12h02.52.010,judgeSpeechMusic_20210519_logNormShiftAmp_mXs,2020.1.2,MacIntel,60,,,,,,,,,,,,,,,,,,,,,,,,,,2,6.115,,0,0,1,1,92,1,stimuli/stim_20210519_power2amp/equal_lnn_AM2.5Hz_s55_11.m4a,,,
,,,,,39007,2021-05-26_12h02.52.010,judgeSpeechMusic_20210519_logNormShiftAmp_mXs,2020.1.2,MacIntel,60,,,,,,,,,,,,,,,,,,,,,,,,,,1,7.574,,0,0,2,2,11,1,stimuli/stim_20210519_power2amp/equal_lnn_AM1Hz_s25_36.m4a,,,
,,,,,39007,2021-05-26_12h02.52.010,judgeSpeechMusic_20210519_logNormShiftAmp_mXs,2020.1.2,MacIntel,60,,,,,,,,,,,,,,,,,,,,,,,,,,1,6.544,,0,0,3,3,19,1,stimuli/stim_20210519_power2amp/equal_lnn_AM1Hz_s25_29.m4a,,,
,,,,,39007,2021-05-26_12h02.52.010,judgeSpeechMusic_20210519_logNormShiftAmp_mXs,2020.1.2,MacIntel,60,,,,,,,,,,,,,,,,,,,,,,,,,,1,6.159,,0,0,4,4,126,1,stimuli/stim_20210519_power2amp/equal_lnn_AM4Hz_s35_28.m4a,,,
,,,,,39007,2021-05-26_12h02.52.010,judgeSpeechMusic_20210519_logNormShiftAmp_mXs,2020.1.2,MacIntel,60,,,,,,,,,,,,,,,,,,,,,,,,,,2,6.643,,0,0,5,5,1,1,stimuli/stim_20210519_power2amp/equal_lnn_AM1Hz_s15_9.m4a,,,
,,,,,39007,2021-05-26_12h02.52.010,judgeSpeechMusic_20210519_logNormShiftAmp_mXs,2020.1.2,MacIntel,60,,,,,,,,,,,,,,,,,,,,,,,,,,2,7.227,,0,0,6,6,62,1,stimuli/stim_20210519_power2amp/equal_lnn_AM2.5Hz_s25_27.m4a,,,
,,,,,39007,2021-05-26_12h02.52.010,judgeSpeechMusic_20210519_logNormShiftAmp_mXs,2020.1.2,MacIntel,60,,,,,,,,,,,,,,,,,,,,,,,,,,1,6.323,,0,0,7,7,23,1,stimuli/stim_20210519_power2amp/equal_lnn_AM1Hz_s35_45.m4a,,,
,,,,,39007,2021-05-26_12h02.52.010,judgeSpeechMusic_20210519_logNormShiftAmp_mXs,2020.1.2,MacIntel,60,,,,,,,,,,,,,,,,,,,,,,,,,,1,6.02,,0,0,8,8,121,1,stimuli/stim_20210519_power2amp/equal_lnn_AM4Hz_s35_15.m4a,,,
,,,,,39007,2021-05-26_12h02.52.010,judgeSpeechMusic_20210519_logNormShiftAmp_mXs,2020.1.2,MacIntel,60,,,,,,,,,,,,,,,,,,,,,,,,,,1,5.988,,0,0,9,9,149,1,stimuli/stim_20210519_power2amp/equal_lnn_AM4Hz_s55_6.m4a,,,
,,,,,39007,2021-05-26_12h02.52.010,judgeSpeechMusic_20210519_logNormShiftAmp_mXs,2020.1.2,MacIntel,60,,,,,,,,,,,,,,,,,,,,,,,,,,1,5.872,,0,0,10,10,148,1,stimuli/stim_20210519_power2amp/equal_lnn_AM4Hz_s55_24.m4a,,,
,,,,,39007,2021-05-26_12h02.52.010,judgeSpeechMusic_20210519_logNormShiftAmp_mXs,2020.1.2,MacIntel,60,,,,,,,,,,,,,,,,,,,,,,,,,,2,6.735,,0,0,11,11,65,1,stimuli/stim_20210519_power2amp/equal_lnn_AM2.5Hz_s25_49.m4a,,,
,,,,,39007,2021-05-26_12h02.52.010,judgeSpeechMusic_20210519_logNormShiftAmp_mXs,2020.1.2,MacIntel,60,,,,,,,,,,,,,,,,,,,,,,,,,,2,7.578,,0,0,12,12,16,1,stimuli/stim_20210519_power2amp/equal_lnn_AM1Hz_s25_22.m4a,,,
,,,,,39007,2021-05-26_12h02.52.010,judgeSpeechMusic_20210519_logNormShiftAmp_mXs,2020.1.2,MacIntel,60,,,,,,,,,,,,,,,,,,,,,,,,,,2,7.127,,0,0,13,13,146,1,stimuli/stim_20210519_power2amp/equal_lnn_AM4Hz_s55_36.m4a,,,
,,,,,39007,2021-05-26_12h02.52.010,judgeSpeechMusic_20210519_logNormShiftAmp_mXs,2020.1.2,MacIntel,60,,,,,,,,,,,,,,,,,,,,,,,,,,2,5.742,,0,0,14,14,88,1,stimuli/stim_20210519_power2amp/equal_lnn_AM2.5Hz_s45_14.m4a,,,
,,,,,39007,2021-05-26_12h02.52.010,judgeSpeechMusic_20210519_logNormShiftAmp_mXs,2020.1.2,MacIntel,60,,,,,,,,,,,,,,,,,,,,,,,,,,1,6.847,,0,0,15,15,54,1,stimuli/stim_20210519_power2amp/equal_lnn_AM2.5Hz_s15_2.m4a,,,
,,,,,39007,2021-05-26_12h02.52.010,judgeSpeechMusic_20210519_logNormShiftAmp_mXs,2020.1.2,MacIntel,60,,,,,,,,,,,,,,,,,,,,,,,,,,2,6.652,,0,0,16,16,13,1,stimuli/stim_20210519_power2amp/equal_lnn_AM1Hz_s25_25.m4a,,,
,,,,,39007,2021-05-26_12h02.52.010,judgeSpeechMusic_20210519_logNormShiftAmp_mXs,2020.1.2,MacIntel,60,,,,,,,,,,,,,,,,,,,,,,,,,,2,6.802,,0,0,17,17,76,1,stimuli/stim_20210519_power2amp/equal_lnn_AM2.5Hz_s35_22.m4a,,,
,,,,,39007,2021-05-26_12h02.52.010,judgeSpeechMusic_20210519_logNormShiftAmp_mXs,2020.1.2,MacIntel,60,,,,,,,,,,,,,,,,,,,,,,,,,,2,6.752,,0,0,18,18,44,1,stimuli/stim_20210519_power2amp/equal_lnn_AM1Hz_s55_2.m4a,,,
,,,,,39007,2021-05-26_12h02.52.010,judgeSpeechMusic_20210519_logNormShiftAmp_mXs,2020.1.2,MacIntel,60,,,,,,,,,,,,,,,,,,,,,,,,,,1,6.429,,0,0,19,19,131,1,stimuli/stim_20210519_power2amp/equal_lnn_AM4Hz_s45_41.m4a,,,
,,,,,39007,2021-05-26_12h02.52.010,judgeSpeechMusic_20210519_logNormShiftAmp_mXs,2020.1.2,MacIntel,60,,,,,,,,,,,,,,,,,,,,,,,,,,2,7.906,,0,0,20,20,69,1,stimuli/stim_20210519_power2amp/equal_lnn_AM2.5Hz_s25_32.m4a,,,
,,,,,39007,2021-05-26_12h02.52.010,judgeSpeechMusic_20210519_logNormShiftAmp_mXs,2020.1.2,MacIntel,60,,,,,,,,,,,,,,,,,,,,,,,,,,2,6.471,,0,0,21,21,27,1,stimuli/stim_20210519_power2amp/equal_lnn_AM1Hz_s35_12.m4a,,,
,,,,,39007,2021-05-26_12h02.52.010,judgeSpeechMusic_20210519_logNormShiftAmp_mXs,2020.1.2,MacIntel,60,,,,,,,,,,,,,,,,,,,,,,,,,,1,6.03,,0,0,22,22,144,1,stimuli/stim_20210519_power2amp/equal_lnn_AM4Hz_s55_21.m4a,,,
,,,,,39007,2021-05-26_12h02.52.010,judgeSpeechMusic_20210519_logNormShiftAmp_mXs,2020.1.2,MacIntel,60,,,,,,,,,,,,,,,,,,,,,,,,,,2,6.397,,0,0,23,23,140,1,stimuli/stim_20210519_power2amp/equal_lnn_AM4Hz_s55_40.m4a,,,
,,,,,39007,2021-05-26_12h02.52.010,judgeSpeechMusic_20210519_logNormShiftAmp_mXs,2020.1.2,MacIntel,60,,,,,,,,,,,,,,,,,,,,,,,,,,2,7.07,,0,0,24,24,127,1,stimuli/stim_20210519_power2amp/equal_lnn_AM4Hz_s35_7.m4a,,,
,,,,,39007,2021-05-26_12h02.52.010,judgeSpeechMusic_20210519_logNormShiftAmp_mXs,2020.1.2,MacIntel,60,,,,,,,,,,,,,,,,,,,,,,,,,,1,6.053,,0,0,25,25,109,1,stimuli/stim_20210519_power2amp/equal_lnn_AM4Hz_s15_37.m4a,,,
,,,,,39007,2021-05-26_12h02.52.010,judgeSpeechMusic_20210519_logNormShiftAmp_mXs,2020.1.2,MacIntel,60,,,,,,,,,,,,,,,,,,,,,,,,,,1,5.904,,0,0,26,26,136,1,stimuli/stim_20210519_power2amp/equal_lnn_AM4Hz_s45_45.m4a,,,
,,,,,39007,2021-05-26_12h02.52.010,judgeSpeechMusic_20210519_logNormShiftAmp_mXs,2020.1.2,MacIntel,60,,,,,,,,,,,,,,,,,,,,,,,,,,2,7.086,,0,0,27,27,119,1,stimuli/stim_20210519_power2amp/equal_lnn_AM4Hz_s25_15.m4a,,,
,,,,,39007,2021-05-26_12h02.52.010,judgeSpeechMusic_20210519_logNormShiftAmp_mXs,2020.1.2,MacIntel,60,,,,,,,,,,,,,,,,,,,,,,,,,,2,9.588,,0,0,28,28,33,1,stimuli/stim_20210519_power2amp/equal_lnn_AM1Hz_s45_23.m4a,,,
,,,,,39007,2021-05-26_12h02.52.010,judgeSpeechMusic_20210519_logNormShiftAmp_mXs,2020.1.2,MacIntel,60,,,,,,,,,,,,,,,,,,,,,,,,,,2,7.557,,0,0,29,29,108,1,stimuli/stim_20210519_power2amp/equal_lnn_AM4Hz_s15_26.m4a,,,
,,,,,39007,2021-05-26_12h02.52.010,judgeSpeechMusic_20210519_logNormShiftAmp_mXs,2020.1.2,MacIntel,60,,,,,,,,,,,,,,,,,,,,,,,,,,2,7.628,,0,0,30,30,142,1,stimuli/stim_20210519_power2amp/equal_lnn_AM4Hz_s55_33.m4a,,,
,,,,,39007,2021-05-26_12h02.52.010,judgeSpeechMusic_20210519_logNormShiftAmp_mXs,2020.1.2,MacIntel,60,,,,,,,,,,,,,,,,,,,,,,,,,,2,5.683,,0,0,31,31,42,1,stimuli/stim_20210519_power2amp/equal_lnn_AM1Hz_s55_37.m4a,,,
,,,,,39007,2021-05-26_12h02.52.010,judgeSpeechMusic_20210519_logNormShiftAmp_mXs,2020.1.2,MacIntel,60,,,,,,,,,,,,,,,,,,,,,,,,,,2,7.208,,0,0,32,32,97,1,stimuli/stim_20210519_power2amp/equal_lnn_AM2.5Hz_s55_46.m4a,,,
,,,,,39007,2021-05-26_12h02.52.010,judgeSpeechMusic_20210519_logNormShiftAmp_mXs,2020.1.2,MacIntel,60,,,,,,,,,,,,,,,,,,,,,,,,,,2,64.291,,0,0,33,33,102,1,stimuli/stim_20210519_power2amp/equal_lnn_AM4Hz_s15_3.m4a,,,
,,,,,39007,2021-05-26_12h02.52.010,judgeSpeechMusic_20210519_logNormShiftAmp_mXs,2020.1.2,MacIntel,60,,,,,,,,,,,,,,,,,,,,,,,,,,2,5.851,,0,0,34,34,52,1,stimuli/stim_20210519_power2amp/equal_lnn_AM2.5Hz_s15_8.m4a,,,
,,,,,39007,2021-05-26_12h02.52.010,judgeSpeechMusic_20210519_logNormShiftAmp_mXs,2020.1.2,MacIntel,60,,,,,,,,,,,,,,,,,,,,,,,,,,1,5.754,,0,0,35,35,137,1,stimuli/stim_20210519_power2amp/equal_lnn_AM4Hz_s45_18.m4a,,,
,,,,,39007,2021-05-26_12h02.52.010,judgeSpeechMusic_20210519_logNormShiftAmp_mXs,2020.1.2,MacIntel,60,,,,,,,,,,,,,,,,,,,,,,,,,,1,5.654,2,1,0,36,36,125,1,stimuli/stim_20210519_power2amp/equal_lnn_AM4Hz_s35_11.m4a,1.637,,
,,,,,39007,2021-05-26_12h02.52.010,judgeSpeechMusic_20210519_logNormShiftAmp_mXs,2020.1.2,MacIntel,60,,,,,,,,,,,,,,,,,,,,,,,,,,1,5.923,,0,0,37,37,113,1,stimuli/stim_20210519_power2amp/equal_lnn_AM4Hz_s25_32.m4a,,,
,,,,,39007,2021-05-26_12h02.52.010,judgeSpeechMusic_20210519_logNormShiftAmp_mXs,2020.1.2,MacIntel,60,,,,,,,,,,,,,,,,,,,,,,,,,,2,7.105,,0,0,38,38,70,1,stimuli/stim_20210519_power2amp/equal_lnn_AM2.5Hz_s35_37.m4a,,,
,,,,,39007,2021-05-26_12h02.52.010,judgeSpeechMusic_20210519_logNormShiftAmp_mXs,2020.1.2,MacIntel,60,,,,,,,,,,,,,,,,,,,,,,,,,,2,7.885,,0,0,39,39,71,1,stimuli/stim_20210519_power2amp/equal_lnn_AM2.5Hz_s35_24.m4a,,,
,,,,,39007,2021-05-26_12h02.52.010,judgeSpeechMusic_20210519_logNormShiftAmp_mXs,2020.1.2,MacIntel,60,,,,,,,,,,,,,,,,,,,,,,,,,,2,10.829,,0,0,40,40,56,1,stimuli/stim_20210519_power2amp/equal_lnn_AM2.5Hz_s15_47.m4a,,,
,,,,,39007,2021-05-26_12h02.52.010,judgeSpeechMusic_20210519_logNormShiftAmp_mXs,2020.1.2,MacIntel,60,,,,,,,,,,,,,,,,,,,,,,,,,,2,5.818,,0,0,41,41,6,1,stimuli/stim_20210519_power2amp/equal_lnn_AM1Hz_s15_36.m4a,,,
,,,,,39007,2021-05-26_12h02.52.010,judgeSpeechMusic_20210519_logNormShiftAmp_mXs,2020.1.2,MacIntel,60,,,,,,,,,,,,,,,,,,,,,,,,,,1,5.98,,0,0,42,42,120,1,stimuli/stim_20210519_power2amp/equal_lnn_AM4Hz_s35_38.m4a,,,
,,,,,39007,2021-05-26_12h02.52.010,judgeSpeechMusic_20210519_logNormShiftAmp_mXs,2020.1.2,MacIntel,60,,,,,,,,,,,,,,,,,,,,,,,,,,2,5.669,,0,0,43,43,79,1,stimuli/stim_20210519_power2amp/equal_lnn_AM2.5Hz_s35_2.m4a,,,
,,,,,39007,2021-05-26_12h02.52.010,judgeSpeechMusic_20210519_logNormShiftAmp_mXs,2020.1.2,MacIntel,60,,,,,,,,,,,,,,,,,,,,,,,,,,1,6.915,,0,0,44,44,143,1,stimuli/stim_20210519_power2amp/equal_lnn_AM4Hz_s55_50.m4a,,,
,,,,,39007,2021-05-26_12h02.52.010,judgeSpeechMusic_20210519_logNormShiftAmp_mXs,2020.1.2,MacIntel,60,,,,,,,,,,,,,,,,,,,,,,,,,,2,5.74,,0,0,45,45,41,1,stimuli/stim_20210519_power2amp/equal_lnn_AM1Hz_s55_13.m4a,,,
,,,,,39007,2021-05-26_12h02.52.010,judgeSpeechMusic_20210519_logNormShiftAmp_mXs,2020.1.2,MacIntel,60,,,,,,,,,,,,,,,,,,,,,,,,,,2,6.033,,0,0,46,46,24,1,stimuli/stim_20210519_power2amp/equal_lnn_AM1Hz_s35_18.m4a,,,
,,,,,39007,2021-05-26_12h02.52.010,judgeSpeechMusic_20210519_logNormShiftAmp_mXs,2020.1.2,MacIntel,60,,,,,,,,,,,,,,,,,,,,,,,,,,2,10.435,,0,0,47,47,2,1,stimuli/stim_20210519_power2amp/equal_lnn_AM1Hz_s15_11.m4a,,,
,,,,,39007,2021-05-26_12h02.52.010,judgeSpeechMusic_20210519_logNormShiftAmp_mXs,2020.1.2,MacIntel,60,,,,,,,,,,,,,,,,,,,,,,,,,,2,12.745,,0,0,48,48,28,1,stimuli/stim_20210519_power2amp/equal_lnn_AM1Hz_s35_13.m4a,,,
,,,,,39007,2021-05-26_12h02.52.010,judgeSpeechMusic_20210519_logNormShiftAmp_mXs,2020.1.2,MacIntel,60,,,,,,,,,,,,,,,,,,,,,,,,,,2,8.226,,0,0,49,49,99,1,stimuli/stim_20210519_power2amp/equal_lnn_AM2.5Hz_s55_4.m4a,,,
,,,,,39007,2021-05-26_12h02.52.010,judgeSpeechMusic_20210519_logNormShiftAmp_mXs,2020.1.2,MacIntel,60,,,,,,,,,,,,,,,,,,,,,,,,,,2,7.931,,0,0,50,50,72,1,stimuli/stim_20210519_power2amp/equal_lnn_AM2.5Hz_s35_28.m4a,,,
,,,,,39007,2021-05-26_12h02.52.010,judgeSpeechMusic_20210519_logNormShiftAmp_mXs,2020.1.2,MacIntel,60,,,,,,,,,,,,,,,,,,,,,,,,,,1,7.553,,0,0,51,51,123,1,stimuli/stim_20210519_power2amp/equal_lnn_AM4Hz_s35_14.m4a,,,
,,,,,39007,2021-05-26_12h02.52.010,judgeSpeechMusic_20210519_logNormShiftAmp_mXs,2020.1.2,MacIntel,60,,,,,,,,,,,,,,,,,,,,,,,,,,2,6.629,,0,0,52,52,9,1,stimuli/stim_20210519_power2amp/equal_lnn_AM1Hz_s15_14.m4a,,,
,,,,,39007,2021-05-26_12h02.52.010,judgeSpeechMusic_20210519_logNormShiftAmp_mXs,2020.1.2,MacIntel,60,,,,,,,,,,,,,,,,,,,,,,,,,,2,6.966,,0,0,53,53,101,1,stimuli/stim_20210519_power2amp/equal_lnn_AM4Hz_s15_16.m4a,,,
,,,,,39007,2021-05-26_12h02.52.010,judgeSpeechMusic_20210519_logNormShiftAmp_mXs,2020.1.2,MacIntel,60,,,,,,,,,,,,,,,,,,,,,,,,,,2,6.264,,0,0,54,54,129,1,stimuli/stim_20210519_power2amp/equal_lnn_AM4Hz_s35_16.m4a,,,
,,,,,39007,2021-05-26_12h02.52.010,judgeSpeechMusic_20210519_logNormShiftAmp_mXs,2020.1.2,MacIntel,60,,,,,,,,,,,,,,,,,,,,,,,,,,2,7.385,,0,0,55,55,0,1,stimuli/stim_20210519_power2amp/equal_lnn_AM1Hz_s15_30.m4a,,,
,,,,,39007,2021-05-26_12h02.52.010,judgeSpeechMusic_20210519_logNormShiftAmp_mXs,2020.1.2,MacIntel,60,,,,,,,,,,,,,,,,,,,,,,,,,,2,5.731,,0,0,56,56,77,1,stimuli/stim_20210519_power2amp/equal_lnn_AM2.5Hz_s35_29.m4a,,,
,,,,,39007,2021-05-26_12h02.52.010,judgeSpeechMusic_20210519_logNormShiftAmp_mXs,2020.1.2,MacIntel,60,,,,,,,,,,,,,,,,,,,,,,,,,,2,6.944,,0,0,57,57,66,1,stimuli/stim_20210519_power2amp/equal_lnn_AM2.5Hz_s25_22.m4a,,,
,,,,,39007,2021-05-26_12h02.52.010,judgeSpeechMusic_20210519_logNormShiftAmp_mXs,2020.1.2,MacIntel,60,,,,,,,,,,,,,,,,,,,,,,,,,,2,6.742,,0,0,58,58,75,1,stimuli/stim_20210519_power2amp/equal_lnn_AM2.5Hz_s35_9.m4a,,,
,,,,,39007,2021-05-26_12h02.52.010,judgeSpeechMusic_20210519_logNormShiftAmp_mXs,2020.1.2,MacIntel,60,,,,,,,,,,,,,,,,,,,,,,,,,,2,8.793,,0,0,59,59,91,1,stimuli/stim_20210519_power2amp/equal_lnn_AM2.5Hz_s55_19.m4a,,,
,,,,,39007,2021-05-26_12h02.52.010,judgeSpeechMusic_20210519_logNormShiftAmp_mXs,2020.1.2,MacIntel,60,,,,,,,,,,,,,,,,,,,,,,,,,,1,5.862,3,1,0,60,60,51,1,stimuli/stim_20210519_power2amp/equal_lnn_AM2.5Hz_s15_24.m4a,1.157,,
,,,,,39007,2021-05-26_12h02.52.010,judgeSpeechMusic_20210519_logNormShiftAmp_mXs,2020.1.2,MacIntel,60,,,,,,,,,,,,,,,,,,,,,,,,,,2,6.856,,0,0,61,61,38,1,stimuli/stim_20210519_power2amp/equal_lnn_AM1Hz_s45_4.m4a,,,
,,,,,39007,2021-05-26_12h02.52.010,judgeSpeechMusic_20210519_logNormShiftAmp_mXs,2020.1.2,MacIntel,60,,,,,,,,,,,,,,,,,,,,,,,,,,2,7.785,,0,0,62,62,17,1,stimuli/stim_20210519_power2amp/equal_lnn_AM1Hz_s25_21.m4a,,,
,,,,,39007,2021-05-26_12h02.52.010,judgeSpeechMusic_20210519_logNormShiftAmp_mXs,2020.1.2,MacIntel,60,,,,,,,,,,,,,,,,,,,,,,,,,,2,12.917,,0,0,63,63,14,1,stimuli/stim_20210519_power2amp/equal_lnn_AM1Hz_s25_30.m4a,,,
,,,,,39007,2021-05-26_12h02.52.010,judgeSpeechMusic_20210519_logNormShiftAmp_mXs,2020.1.2,MacIntel,60,,,,,,,,,,,,,,,,,,,,,,,,,,2,6.981,,0,0,64,64,58,1,stimuli/stim_20210519_power2amp/equal_lnn_AM2.5Hz_s15_13.m4a,,,
,,,,,39007,2021-05-26_12h02.52.010,judgeSpeechMusic_20210519_logNormShiftAmp_mXs,2020.1.2,MacIntel,60,,,,,,,,,,,,,,,,,,,,,,,,,,2,6.916,,0,0,65,65,21,1,stimuli/stim_20210519_power2amp/equal_lnn_AM1Hz_s35_34.m4a,,,
,,,,,39007,2021-05-26_12h02.52.010,judgeSpeechMusic_20210519_logNormShiftAmp_mXs,2020.1.2,MacIntel,60,,,,,,,,,,,,,,,,,,,,,,,,,,2,8.006,,0,0,66,66,12,1,stimuli/stim_20210519_power2amp/equal_lnn_AM1Hz_s25_7.m4a,,,
,,,,,39007,2021-05-26_12h02.52.010,judgeSpeechMusic_20210519_logNormShiftAmp_mXs,2020.1.2,MacIntel,60,,,,,,,,,,,,,,,,,,,,,,,,,,2,6.358,,0,0,67,67,98,1,stimuli/stim_20210519_power2amp/equal_lnn_AM2.5Hz_s55_48.m4a,,,
,,,,,39007,2021-05-26_12h02.52.010,judgeSpeechMusic_20210519_logNormShiftAmp_mXs,2020.1.2,MacIntel,60,,,,,,,,,,,,,,,,,,,,,,,,,,1,5.915,,0,0,68,68,45,1,stimuli/stim_20210519_power2amp/equal_lnn_AM1Hz_s55_23.m4a,,,
,,,,,39007,2021-05-26_12h02.52.010,judgeSpeechMusic_20210519_logNormShiftAmp_mXs,2020.1.2,MacIntel,60,,,,,,,,,,,,,,,,,,,,,,,,,,2,6.734,,0,0,69,69,26,1,stimuli/stim_20210519_power2amp/equal_lnn_AM1Hz_s35_29.m4a,,,
,,,,,39007,2021-05-26_12h02.52.010,judgeSpeechMusic_20210519_logNormShiftAmp_mXs,2020.1.2,MacIntel,60,,,,,,,,,,,,,,,,,,,,,,,,,,2,10.929,,0,0,70,70,117,1,stimuli/stim_20210519_power2amp/equal_lnn_AM4Hz_s25_34.m4a,,,
,,,,,39007,2021-05-26_12h02.52.010,judgeSpeechMusic_20210519_logNormShiftAmp_mXs,2020.1.2,MacIntel,60,,,,,,,,,,,,,,,,,,,,,,,,,,2,6.524,,0,0,71,71,134,1,stimuli/stim_20210519_power2amp/equal_lnn_AM4Hz_s45_33.m4a,,,
,,,,,39007,2021-05-26_12h02.52.010,judgeSpeechMusic_20210519_logNormShiftAmp_mXs,2020.1.2,MacIntel,60,,,,,,,,,,,,,,,,,,,,,,,,,,2,7.011,,0,0,72,72,48,1,stimuli/stim_20210519_power2amp/equal_lnn_AM1Hz_s55_20.m4a,,,
,,,,,39007,2021-05-26_12h02.52.010,judgeSpeechMusic_20210519_logNormShiftAmp_mXs,2020.1.2,MacIntel,60,,,,,,,,,,,,,,,,,,,,,,,,,,2,11.192,,0,0,73,73,116,1,stimuli/stim_20210519_power2amp/equal_lnn_AM4Hz_s25_7.m4a,,,
,,,,,39007,2021-05-26_12h02.52.010,judgeSpeechMusic_20210519_logNormShiftAmp_mXs,2020.1.2,MacIntel,60,,,,,,,,,,,,,,,,,,,,,,,,,,2,8.971,,0,0,74,74,61,1,stimuli/stim_20210519_power2amp/equal_lnn_AM2.5Hz_s25_34.m4a,,,
,,,,,39007,2021-05-26_12h02.52.010,judgeSpeechMusic_20210519_logNormShiftAmp_mXs,2020.1.2,MacIntel,60,,,,,,,,,,,,,,,,,,,,,,,,,,2,7.394,,0,0,75,75,84,1,stimuli/stim_20210519_power2amp/equal_lnn_AM2.5Hz_s45_2.m4a,,,
,,,,,39007,2021-05-26_12h02.52.010,judgeSpeechMusic_20210519_logNormShiftAmp_mXs,2020.1.2,MacIntel,60,,,,,,,,,,,,,,,,,,,,,,,,,,1,5.957,,0,0,76,76,18,1,stimuli/stim_20210519_power2amp/equal_lnn_AM1Hz_s25_35.m4a,,,
,,,,,39007,2021-05-26_12h02.52.010,judgeSpeechMusic_20210519_logNormShiftAmp_mXs,2020.1.2,MacIntel,60,,,,,,,,,,,,,,,,,,,,,,,,,,1,5.821,,0,0,77,77,132,1,stimuli/stim_20210519_power2amp/equal_lnn_AM4Hz_s45_26.m4a,,,
,,,,,39007,2021-05-26_12h02.52.010,judgeSpeechMusic_20210519_logNormShiftAmp_mXs,2020.1.2,MacIntel,60,,,,,,,,,,,,,,,,,,,,,,,,,,1,6.243,,0,0,78,78,37,1,stimuli/stim_20210519_power2amp/equal_lnn_AM1Hz_s45_28.m4a,,,
,,,,,39007,2021-05-26_12h02.52.010,judgeSpeechMusic_20210519_logNormShiftAmp_mXs,2020.1.2,MacIntel,60,,,,,,,,,,,,,,,,,,,,,,,,,,2,6.182,,0,0,79,79,3,1,stimuli/stim_20210519_power2amp/equal_lnn_AM1Hz_s15_2.m4a,,,
,,,,,39007,2021-05-26_12h02.52.010,judgeSpeechMusic_20210519_logNormShiftAmp_mXs,2020.1.2,MacIntel,60,,,,,,,,,,,,,,,,,,,,,,,,,,1,5.646,,0,0,80,80,100,1,stimuli/stim_20210519_power2amp/equal_lnn_AM4Hz_s15_10.m4a,,,
,,,,,39007,2021-05-26_12h02.52.010,judgeSpeechMusic_20210519_logNormShiftAmp_mXs,2020.1.2,MacIntel,60,,,,,,,,,,,,,,,,,,,,,,,,,,2,9.359,,0,0,81,81,20,1,stimuli/stim_20210519_power2amp/equal_lnn_AM1Hz_s35_39.m4a,,,
,,,,,39007,2021-05-26_12h02.52.010,judgeSpeechMusic_20210519_logNormShiftAmp_mXs,2020.1.2,MacIntel,60,,,,,,,,,,,,,,,,,,,,,,,,,,2,13.952,,0,0,82,82,8,1,stimuli/stim_20210519_power2amp/equal_lnn_AM1Hz_s15_38.m4a,,,
,,,,,39007,2021-05-26_12h02.52.010,judgeSpeechMusic_20210519_logNormShiftAmp_mXs,2020.1.2,MacIntel,60,,,,,,,,,,,,,,,,,,,,,,,,,,2,14.895,,0,0,83,83,90,1,stimuli/stim_20210519_power2amp/equal_lnn_AM2.5Hz_s55_40.m4a,,,
,,,,,39007,2021-05-26_12h02.52.010,judgeSpeechMusic_20210519_logNormShiftAmp_mXs,2020.1.2,MacIntel,60,,,,,,,,,,,,,,,,,,,,,,,,,,2,6.217,1,1,0,84,84,80,1,stimuli/stim_20210519_power2amp/equal_lnn_AM2.5Hz_s45_39.m4a,1.201,,
,,,,,39007,2021-05-26_12h02.52.010,judgeSpeechMusic_20210519_logNormShiftAmp_mXs,2020.1.2,MacIntel,60,,,,,,,,,,,,,,,,,,,,,,,,,,2,6.247,,0,0,85,85,82,1,stimuli/stim_20210519_power2amp/equal_lnn_AM2.5Hz_s45_37.m4a,,,
,,,,,39007,2021-05-26_12h02.52.010,judgeSpeechMusic_20210519_logNormShiftAmp_mXs,2020.1.2,MacIntel,60,,,,,,,,,,,,,,,,,,,,,,,,,,1,5.591,,0,0,86,86,59,1,stimuli/stim_20210519_power2amp/equal_lnn_AM2.5Hz_s15_48.m4a,,,
,,,,,39007,2021-05-26_12h02.52.010,judgeSpeechMusic_20210519_logNormShiftAmp_mXs,2020.1.2,MacIntel,60,,,,,,,,,,,,,,,,,,,,,,,,,,1,6.483,,0,0,87,87,34,1,stimuli/stim_20210519_power2amp/equal_lnn_AM1Hz_s45_6.m4a,,,
,,,,,39007,2021-05-26_12h02.52.010,judgeSpeechMusic_20210519_logNormShiftAmp_mXs,2020.1.2,MacIntel,60,,,,,,,,,,,,,,,,,,,,,,,,,,1,5.634,,0,0,88,88,124,1,stimuli/stim_20210519_power2amp/equal_lnn_AM4Hz_s35_49.m4a,,,
,,,,,39007,2021-05-26_12h02.52.010,judgeSpeechMusic_20210519_logNormShiftAmp_mXs,2020.1.2,MacIntel,60,,,,,,,,,,,,,,,,,,,,,,,,,,1,6.634,,0,0,89,89,55,1,stimuli/stim_20210519_power2amp/equal_lnn_AM2.5Hz_s15_39.m4a,,,
,,,,,39007,2021-05-26_12h02.52.010,judgeSpeechMusic_20210519_logNormShiftAmp_mXs,2020.1.2,MacIntel,60,,,,,,,,,,,,,,,,,,,,,,,,,,2,18.312,,0,0,90,90,93,1,stimuli/stim_20210519_power2amp/equal_lnn_AM2.5Hz_s55_30.m4a,,,
,,,,,39007,2021-05-26_12h02.52.010,judgeSpeechMusic_20210519_logNormShiftAmp_mXs,2020.1.2,MacIntel,60,,,,,,,,,,,,,,,,,,,,,,,,,,2,15.575,,0,0,91,91,86,1,stimuli/stim_20210519_power2amp/equal_lnn_AM2.5Hz_s45_47.m4a,,,
,,,,,39007,2021-05-26_12h02.52.010,judgeSpeechMusic_20210519_logNormShiftAmp_mXs,2020.1.2,MacIntel,60,,,,,,,,,,,,,,,,,,,,,,,,,,2,6.138,,0,0,92,92,31,1,stimuli/stim_20210519_power2amp/equal_lnn_AM1Hz_s45_48.m4a,,,
,,,,,39007,2021-05-26_12h02.52.010,judgeSpeechMusic_20210519_logNormShiftAmp_mXs,2020.1.2,MacIntel,60,,,,,,,,,,,,,,,,,,,,,,,,,,2,9.315,,0,0,93,93,68,1,stimuli/stim_20210519_power2amp/equal_lnn_AM2.5Hz_s25_21.m4a,,,
,,,,,39007,2021-05-26_12h02.52.010,judgeSpeechMusic_20210519_logNormShiftAmp_mXs,2020.1.2,MacIntel,60,,,,,,,,,,,,,,,,,,,,,,,,,,1,6.143,,0,0,94,94,145,1,stimuli/stim_20210519_power2amp/equal_lnn_AM4Hz_s55_2.m4a,,,
,,,,,39007,2021-05-26_12h02.52.010,judgeSpeechMusic_20210519_logNormShiftAmp_mXs,2020.1.2,MacIntel,60,,,,,,,,,,,,,,,,,,,,,,,,,,1,10.591,,0,0,95,95,114,1,stimuli/stim_20210519_power2amp/equal_lnn_AM4Hz_s25_12.m4a,,,
,,,,,39007,2021-05-26_12h02.52.010,judgeSpeechMusic_20210519_logNormShiftAmp_mXs,2020.1.2,MacIntel,60,,,,,,,,,,,,,,,,,,,,,,,,,,2,9.05,,0,0,96,96,115,1,stimuli/stim_20210519_power2amp/equal_lnn_AM4Hz_s25_18.m4a,,,
,,,,,39007,2021-05-26_12h02.52.010,judgeSpeechMusic_20210519_logNormShiftAmp_mXs,2020.1.2,MacIntel,60,,,,,,,,,,,,,,,,,,,,,,,,,,2,7.154,,0,0,97,97,10,1,stimuli/stim_20210519_power2amp/equal_lnn_AM1Hz_s25_20.m4a,,,
,,,,,39007,2021-05-26_12h02.52.010,judgeSpeechMusic_20210519_logNormShiftAmp_mXs,2020.1.2,MacIntel,60,,,,,,,,,,,,,,,,,,,,,,,,,,1,6.307,,0,0,98,98,105,1,stimuli/stim_20210519_power2amp/equal_lnn_AM4Hz_s15_7.m4a,,,
,,,,,39007,2021-05-26_12h02.52.010,judgeSpeechMusic_20210519_logNormShiftAmp_mXs,2020.1.2,MacIntel,60,,,,,,,,,,,,,,,,,,,,,,,,,,1,5.852,,0,0,99,99,43,1,stimuli/stim_20210519_power2amp/equal_lnn_AM1Hz_s55_50.m4a,,,
,,,,,39007,2021-05-26_12h02.52.010,judgeSpeechMusic_20210519_logNormShiftAmp_mXs,2020.1.2,MacIntel,60,,,,,,,,,,,,,,,,,,,,,,,,,,2,8.553,,0,0,100,100,78,1,stimuli/stim_20210519_power2amp/equal_lnn_AM2.5Hz_s35_40.m4a,,,
,,,,,39007,2021-05-26_12h02.52.010,judgeSpeechMusic_20210519_logNormShiftAmp_mXs,2020.1.2,MacIntel,60,,,,,,,,,,,,,,,,,,,,,,,,,,1,9.203,,0,0,101,101,22,1,stimuli/stim_20210519_power2amp/equal_lnn_AM1Hz_s35_19.m4a,,,
,,,,,39007,2021-05-26_12h02.52.010,judgeSpeechMusic_20210519_logNormShiftAmp_mXs,2020.1.2,MacIntel,60,,,,,,,,,,,,,,,,,,,,,,,,,,1,7.191,,0,0,102,102,104,1,stimuli/stim_20210519_power2amp/equal_lnn_AM4Hz_s15_20.m4a,,,
,,,,,39007,2021-05-26_12h02.52.010,judgeSpeechMusic_20210519_logNormShiftAmp_mXs,2020.1.2,MacIntel,60,,,,,,,,,,,,,,,,,,,,,,,,,,2,8.438,,0,0,103,103,128,1,stimuli/stim_20210519_power2amp/equal_lnn_AM4Hz_s35_18.m4a,,,
,,,,,39007,2021-05-26_12h02.52.010,judgeSpeechMusic_20210519_logNormShiftAmp_mXs,2020.1.2,MacIntel,60,,,,,,,,,,,,,,,,,,,,,,,,,,2,6.271,,0,0,104,104,46,1,stimuli/stim_20210519_power2amp/equal_lnn_AM1Hz_s55_12.m4a,,,
,,,,,39007,2021-05-26_12h02.52.010,judgeSpeechMusic_20210519_logNormShiftAmp_mXs,2020.1.2,MacIntel,60,,,,,,,,,,,,,,,,,,,,,,,,,,1,7.109,,0,0,105,105,141,1,stimuli/stim_20210519_power2amp/equal_lnn_AM4Hz_s55_25.m4a,,,
,,,,,39007,2021-05-26_12h02.52.010,judgeSpeechMusic_20210519_logNormShiftAmp_mXs,2020.1.2,MacIntel,60,,,,,,,,,,,,,,,,,,,,,,,,,,2,31.968,,0,0,106,106,57,1,stimuli/stim_20210519_power2amp/equal_lnn_AM2.5Hz_s15_28.m4a,,,
,,,,,39007,2021-05-26_12h02.52.010,judgeSpeechMusic_20210519_logNormShiftAmp_mXs,2020.1.2,MacIntel,60,,,,,,,,,,,,,,,,,,,,,,,,,,1,5.781,,0,0,107,107,95,1,stimuli/stim_20210519_power2amp/equal_lnn_AM2.5Hz_s55_45.m4a,,,
,,,,,39007,2021-05-26_12h02.52.010,judgeSpeechMusic_20210519_logNormShiftAmp_mXs,2020.1.2,MacIntel,60,,,,,,,,,,,,,,,,,,,,,,,,,,2,5.881,,0,0,108,108,29,1,stimuli/stim_20210519_power2amp/equal_lnn_AM1Hz_s35_28.m4a,,,
,,,,,39007,2021-05-26_12h02.52.010,judgeSpeechMusic_20210519_logNormShiftAmp_mXs,2020.1.2,MacIntel,60,,,,,,,,,,,,,,,,,,,,,,,,,,1,5.625,4,1,0,109,109,138,1,stimuli/stim_20210519_power2amp/equal_lnn_AM4Hz_s45_27.m4a,1.258,,
,,,,,39007,2021-05-26_12h02.52.010,judgeSpeechMusic_20210519_logNormShiftAmp_mXs,2020.1.2,MacIntel,60,,,,,,,,,,,,,,,,,,,,,,,,,,2,25.119,,0,0,110,110,64,1,stimuli/stim_20210519_power2amp/equal_lnn_AM2.5Hz_s25_10.m4a,,,
,,,,,39007,2021-05-26_12h02.52.010,judgeSpeechMusic_20210519_logNormShiftAmp_mXs,2020.1.2,MacIntel,60,,,,,,,,,,,,,,,,,,,,,,,,,,2,6.08,,0,0,111,111,135,1,stimuli/stim_20210519_power2amp/equal_lnn_AM4Hz_s45_40.m4a,,,
,,,,,39007,2021-05-26_12h02.52.010,judgeSpeechMusic_20210519_logNormShiftAmp_mXs,2020.1.2,MacIntel,60,,,,,,,,,,,,,,,,,,,,,,,,,,2,6.653,,0,0,112,112,110,1,stimuli/stim_20210519_power2amp/equal_lnn_AM4Hz_s25_28.m4a,,,
,,,,,39007,2021-05-26_12h02.52.010,judgeSpeechMusic_20210519_logNormShiftAmp_mXs,2020.1.2,MacIntel,60,,,,,,,,,,,,,,,,,,,,,,,,,,2,9.352,,0,0,113,113,111,1,stimuli/stim_20210519_power2amp/equal_lnn_AM4Hz_s25_25.m4a,,,
,,,,,39007,2021-05-26_12h02.52.010,judgeSpeechMusic_20210519_logNormShiftAmp_mXs,2020.1.2,MacIntel,60,,,,,,,,,,,,,,,,,,,,,,,,,,2,7.384,,0,0,114,114,15,1,stimuli/stim_20210519_power2amp/equal_lnn_AM1Hz_s25_26.m4a,,,
,,,,,39007,2021-05-26_12h02.52.010,judgeSpeechMusic_20210519_logNormShiftAmp_mXs,2020.1.2,MacIntel,60,,,,,,,,,,,,,,,,,,,,,,,,,,2,5.802,,0,0,115,115,73,1,stimuli/stim_20210519_power2amp/equal_lnn_AM2.5Hz_s35_12.m4a,,,
,,,,,39007,2021-05-26_12h02.52.010,judgeSpeechMusic_20210519_logNormShiftAmp_mXs,2020.1.2,MacIntel,60,,,,,,,,,,,,,,,,,,,,,,,,,,2,6.238,,0,0,116,116,60,1,stimuli/stim_20210519_power2amp/equal_lnn_AM2.5Hz_s25_50.m4a,,,
,,,,,39007,2021-05-26_12h02.52.010,judgeSpeechMusic_20210519_logNormShiftAmp_mXs,2020.1.2,MacIntel,60,,,,,,,,,,,,,,,,,,,,,,,,,,2,6.215,,0,0,117,117,53,1,stimuli/stim_20210519_power2amp/equal_lnn_AM2.5Hz_s15_38.m4a,,,
,,,,,39007,2021-05-26_12h02.52.010,judgeSpeechMusic_20210519_logNormShiftAmp_mXs,2020.1.2,MacIntel,60,,,,,,,,,,,,,,,,,,,,,,,,,,2,7.7,,0,0,118,118,103,1,stimuli/stim_20210519_power2amp/equal_lnn_AM4Hz_s15_33.m4a,,,
,,,,,39007,2021-05-26_12h02.52.010,judgeSpeechMusic_20210519_logNormShiftAmp_mXs,2020.1.2,MacIntel,60,,,,,,,,,,,,,,,,,,,,,,,,,,2,7.903,,0,0,119,119,7,1,stimuli/stim_20210519_power2amp/equal_lnn_AM1Hz_s15_45.m4a,,,
,,,,,39007,2021-05-26_12h02.52.010,judgeSpeechMusic_20210519_logNormShiftAmp_mXs,2020.1.2,MacIntel,60,,,,,,,,,,,,,,,,,,,,,,,,,,2,8.458,,0,0,120,120,81,1,stimuli/stim_20210519_power2amp/equal_lnn_AM2.5Hz_s45_36.m4a,,,
,,,,,39007,2021-05-26_12h02.52.010,judgeSpeechMusic_20210519_logNormShiftAmp_mXs,2020.1.2,MacIntel,60,,,,,,,,,,,,,,,,,,,,,,,,,,2,6.534,,0,0,121,121,67,1,stimuli/stim_20210519_power2amp/equal_lnn_AM2.5Hz_s25_38.m4a,,,
,,,,,39007,2021-05-26_12h02.52.010,judgeSpeechMusic_20210519_logNormShiftAmp_mXs,2020.1.2,MacIntel,60,,,,,,,,,,,,,,,,,,,,,,,,,,1,5.732,,0,0,122,122,5,1,stimuli/stim_20210519_power2amp/equal_lnn_AM1Hz_s15_8.m4a,,,
,,,,,39007,2021-05-26_12h02.52.010,judgeSpeechMusic_20210519_logNormShiftAmp_mXs,2020.1.2,MacIntel,60,,,,,,,,,,,,,,,,,,,,,,,,,,2,7.47,,0,0,123,123,94,1,stimuli/stim_20210519_power2amp/equal_lnn_AM2.5Hz_s55_36.m4a,,,
,,,,,39007,2021-05-26_12h02.52.010,judgeSpeechMusic_20210519_logNormShiftAmp_mXs,2020.1.2,MacIntel,60,,,,,,,,,,,,,,,,,,,,,,,,,,2,6.292,,0,0,124,124,49,1,stimuli/stim_20210519_power2amp/equal_lnn_AM1Hz_s55_19.m4a,,,
,,,,,39007,2021-05-26_12h02.52.010,judgeSpeechMusic_20210519_logNormShiftAmp_mXs,2020.1.2,MacIntel,60,,,,,,,,,,,,,,,,,,,,,,,,,,2,7.027,,0,0,125,125,89,1,stimuli/stim_20210519_power2amp/equal_lnn_AM2.5Hz_s45_18.m4a,,,
,,,,,39007,2021-05-26_12h02.52.010,judgeSpeechMusic_20210519_logNormShiftAmp_mXs,2020.1.2,MacIntel,60,,,,,,,,,,,,,,,,,,,,,,,,,,2,7.47,,0,0,126,126,139,1,stimuli/stim_20210519_power2amp/equal_lnn_AM4Hz_s45_24.m4a,,,
,,,,,39007,2021-05-26_12h02.52.010,judgeSpeechMusic_20210519_logNormShiftAmp_mXs,2020.1.2,MacIntel,60,,,,,,,,,,,,,,,,,,,,,,,,,,2,6.751,,0,0,127,127,122,1,stimuli/stim_20210519_power2amp/equal_lnn_AM4Hz_s35_2.m4a,,,
,,,,,39007,2021-05-26_12h02.52.010,judgeSpeechMusic_20210519_logNormShiftAmp_mXs,2020.1.2,MacIntel,60,,,,,,,,,,,,,,,,,,,,,,,,,,2,6.814,,0,0,128,128,4,1,stimuli/stim_20210519_power2amp/equal_lnn_AM1Hz_s15_19.m4a,,,
,,,,,39007,2021-05-26_12h02.52.010,judgeSpeechMusic_20210519_logNormShiftAmp_mXs,2020.1.2,MacIntel,60,,,,,,,,,,,,,,,,,,,,,,,,,,2,7.128,,0,0,129,129,147,1,stimuli/stim_20210519_power2amp/equal_lnn_AM4Hz_s55_45.m4a,,,
,,,,,39007,2021-05-26_12h02.52.010,judgeSpeechMusic_20210519_logNormShiftAmp_mXs,2020.1.2,MacIntel,60,,,,,,,,,,,,,,,,,,,,,,,,,,2,6.885,,0,0,130,130,85,1,stimuli/stim_20210519_power2amp/equal_lnn_AM2.5Hz_s45_19.m4a,,,
,,,,,39007,2021-05-26_12h02.52.010,judgeSpeechMusic_20210519_logNormShiftAmp_mXs,2020.1.2,MacIntel,60,,,,,,,,,,,,,,,,,,,,,,,,,,2,6.827,,0,0,131,131,87,1,stimuli/stim_20210519_power2amp/equal_lnn_AM2.5Hz_s45_29.m4a,,,
,,,,,39007,2021-05-26_12h02.52.010,judgeSpeechMusic_20210519_logNormShiftAmp_mXs,2020.1.2,MacIntel,60,,,,,,,,,,,,,,,,,,,,,,,,,,2,6.944,,0,0,132,132,32,1,stimuli/stim_20210519_power2amp/equal_lnn_AM1Hz_s45_49.m4a,,,
,,,,,39007,2021-05-26_12h02.52.010,judgeSpeechMusic_20210519_logNormShiftAmp_mXs,2020.1.2,MacIntel,60,,,,,,,,,,,,,,,,,,,,,,,,,,1,5.725,,0,0,133,133,35,1,stimuli/stim_20210519_power2amp/equal_lnn_AM1Hz_s45_14.m4a,,,
,,,,,39007,2021-05-26_12h02.52.010,judgeSpeechMusic_20210519_logNormShiftAmp_mXs,2020.1.2,MacIntel,60,,,,,,,,,,,,,,,,,,,,,,,,,,1,6.293,4,1,0,134,134,130,1,stimuli/stim_20210519_power2amp/equal_lnn_AM4Hz_s45_19.m4a,0.949,,
,,,,,39007,2021-05-26_12h02.52.010,judgeSpeechMusic_20210519_logNormShiftAmp_mXs,2020.1.2,MacIntel,60,,,,,,,,,,,,,,,,,,,,,,,,,,2,8.018,,0,0,135,135,39,1,stimuli/stim_20210519_power2amp/equal_lnn_AM1Hz_s45_30.m4a,,,
,,,,,39007,2021-05-26_12h02.52.010,judgeSpeechMusic_20210519_logNormShiftAmp_mXs,2020.1.2,MacIntel,60,,,,,,,,,,,,,,,,,,,,,,,,,,2,9.642,,0,0,136,136,118,1,stimuli/stim_20210519_power2amp/equal_lnn_AM4Hz_s25_36.m4a,,,
,,,,,39007,2021-05-26_12h02.52.010,judgeSpeechMusic_20210519_logNormShiftAmp_mXs,2020.1.2,MacIntel,60,,,,,,,,,,,,,,,,,,,,,,,,,,2,7.709,,0,0,137,137,47,1,stimuli/stim_20210519_power2amp/equal_lnn_AM1Hz_s55_27.m4a,,,
,,,,,39007,2021-05-26_12h02.52.010,judgeSpeechMusic_20210519_logNormShiftAmp_mXs,2020.1.2,MacIntel,60,,,,,,,,,,,,,,,,,,,,,,,,,,2,14.711,,0,0,138,138,96,1,stimuli/stim_20210519_power2amp/equal_lnn_AM2.5Hz_s55_16.m4a,,,
,,,,,39007,2021-05-26_12h02.52.010,judgeSpeechMusic_20210519_logNormShiftAmp_mXs,2020.1.2,MacIntel,60,,,,,,,,,,,,,,,,,,,,,,,,,,2,8.713,,0,0,139,139,63,1,stimuli/stim_20210519_power2amp/equal_lnn_AM2.5Hz_s25_7.m4a,,,
,,,,,39007,2021-05-26_12h02.52.010,judgeSpeechMusic_20210519_logNormShiftAmp_mXs,2020.1.2,MacIntel,60,,,,,,,,,,,,,,,,,,,,,,,,,,2,27.694,,0,0,140,140,107,1,stimuli/stim_20210519_power2amp/equal_lnn_AM4Hz_s15_6.m4a,,,
,,,,,39007,2021-05-26_12h02.52.010,judgeSpeechMusic_20210519_logNormShiftAmp_mXs,2020.1.2,MacIntel,60,,,,,,,,,,,,,,,,,,,,,,,,,,2,6.592,,0,0,141,141,83,1,stimuli/stim_20210519_power2amp/equal_lnn_AM2.5Hz_s45_31.m4a,,,
,,,,,39007,2021-05-26_12h02.52.010,judgeSpeechMusic_20210519_logNormShiftAmp_mXs,2020.1.2,MacIntel,60,,,,,,,,,,,,,,,,,,,,,,,,,,1,5.537,,0,0,142,142,106,1,stimuli/stim_20210519_power2amp/equal_lnn_AM4Hz_s15_32.m4a,,,
,,,,,39007,2021-05-26_12h02.52.010,judgeSpeechMusic_20210519_logNormShiftAmp_mXs,2020.1.2,MacIntel,60,,,,,,,,,,,,,,,,,,,,,,,,,,1,5.584,,0,0,143,143,50,1,stimuli/stim_20210519_power2amp/equal_lnn_AM2.5Hz_s15_36.m4a,,,
,,,,,39007,2021-05-26_12h02.52.010,judgeSpeechMusic_20210519_logNormShiftAmp_mXs,2020.1.2,MacIntel,60,,,,,,,,,,,,,,,,,,,,,,,,,,2,5.885,,0,0,144,144,40,1,stimuli/stim_20210519_power2amp/equal_lnn_AM1Hz_s55_47.m4a,,,
,,,,,39007,2021-05-26_12h02.52.010,judgeSpeechMusic_20210519_logNormShiftAmp_mXs,2020.1.2,MacIntel,60,,,,,,,,,,,,,,,,,,,,,,,,,,2,6.735,,0,0,145,145,30,1,stimuli/stim_20210519_power2amp/equal_lnn_AM1Hz_s45_26.m4a,,,
,,,,,39007,2021-05-26_12h02.52.010,judgeSpeechMusic_20210519_logNormShiftAmp_mXs,2020.1.2,MacIntel,60,,,,,,,,,,,,,,,,,,,,,,,,,,2,6.068,,0,0,146,146,25,1,stimuli/stim_20210519_power2amp/equal_lnn_AM1Hz_s35_40.m4a,,,
,,,,,39007,2021-05-26_12h02.52.010,judgeSpeechMusic_20210519_logNormShiftAmp_mXs,2020.1.2,MacIntel,60,,,,,,,,,,,,,,,,,,,,,,,,,,2,5.966,,0,0,147,147,74,1,stimuli/stim_20210519_power2amp/equal_lnn_AM2.5Hz_s35_50.m4a,,,
,,,,,39007,2021-05-26_12h02.52.010,judgeSpeechMusic_20210519_logNormShiftAmp_mXs,2020.1.2,MacIntel,60,,,,,,,,,,,,,,,,,,,,,,,,,,2,6.476,,0,0,148,148,36,1,stimuli/stim_20210519_power2amp/equal_lnn_AM1Hz_s45_11.m4a,,,
,,,,,39007,2021-05-26_12h02.52.010,judgeSpeechMusic_20210519_logNormShiftAmp_mXs,2020.1.2,MacIntel,60,,,,,,,,,,,,,,,,,,,,,,,,,,2,6.538,,0,0,149,149,133,1,stimuli/stim_20210519_power2amp/equal_lnn_AM4Hz_s45_10.m4a,,,
,,,,,39007,2021-05-26_12h02.52.010,judgeSpeechMusic_20210519_logNormShiftAmp_mXs,2020.1.2,MacIntel,60,,,,,,,,,,,,,,,,,,,,,,,,,,1,6.128,,0,1,0,150,123,1,stimuli/stim_20210519_power2amp/equal_lnn_AM4Hz_s35_14.m4a,,,
,,,,,39007,2021-05-26_12h02.52.010,judgeSpeechMusic_20210519_logNormShiftAmp_mXs,2020.1.2,MacIntel,60,,,,,,,,,,,,,,,,,,,,,,,,,,1,5.551,,0,1,1,151,108,1,stimuli/stim_20210519_power2amp/equal_lnn_AM4Hz_s15_26.m4a,,,
,,,,,39007,2021-05-26_12h02.52.010,judgeSpeechMusic_20210519_logNormShiftAmp_mXs,2020.1.2,MacIntel,60,,,,,,,,,,,,,,,,,,,,,,,,,,2,8.065,,0,1,2,152,22,1,stimuli/stim_20210519_power2amp/equal_lnn_AM1Hz_s35_19.m4a,,,
,,,,,39007,2021-05-26_12h02.52.010,judgeSpeechMusic_20210519_logNormShiftAmp_mXs,2020.1.2,MacIntel,60,,,,,,,,,,,,,,,,,,,,,,,,,,2,6.66,,0,1,3,153,56,1,stimuli/stim_20210519_power2amp/equal_lnn_AM2.5Hz_s15_47.m4a,,,
,,,,,39007,2021-05-26_12h02.52.010,judgeSpeechMusic_20210519_logNormShiftAmp_mXs,2020.1.2,MacIntel,60,,,,,,,,,,,,,,,,,,,,,,,,,,2,6.414,3,1,1,4,154,25,1,stimuli/stim_20210519_power2amp/equal_lnn_AM1Hz_s35_40.m4a,1.164,,
,,,,,39007,2021-05-26_12h02.52.010,judgeSpeechMusic_20210519_logNormShiftAmp_mXs,2020.1.2,MacIntel,60,,,,,,,,,,,,,,,,,,,,,,,,,,2,6.685,,0,1,5,155,127,1,stimuli/stim_20210519_power2amp/equal_lnn_AM4Hz_s35_7.m4a,,,
,,,,,39007,2021-05-26_12h02.52.010,judgeSpeechMusic_20210519_logNormShiftAmp_mXs,2020.1.2,MacIntel,60,,,,,,,,,,,,,,,,,,,,,,,,,,2,9.443,,0,1,6,156,83,1,stimuli/stim_20210519_power2amp/equal_lnn_AM2.5Hz_s45_31.m4a,,,
,,,,,39007,2021-05-26_12h02.52.010,judgeSpeechMusic_20210519_logNormShiftAmp_mXs,2020.1.2,MacIntel,60,,,,,,,,,,,,,,,,,,,,,,,,,,2,6.495,,0,1,7,157,66,1,stimuli/stim_20210519_power2amp/equal_lnn_AM2.5Hz_s25_22.m4a,,,
,,,,,39007,2021-05-26_12h02.52.010,judgeSpeechMusic_20210519_logNormShiftAmp_mXs,2020.1.2,MacIntel,60,,,,,,,,,,,,,,,,,,,,,,,,,,2,8.085,,0,1,8,158,7,1,stimuli/stim_20210519_power2amp/equal_lnn_AM1Hz_s15_45.m4a,,,
,,,,,39007,2021-05-26_12h02.52.010,judgeSpeechMusic_20210519_logNormShiftAmp_mXs,2020.1.2,MacIntel,60,,,,,,,,,,,,,,,,,,,,,,,,,,2,9.342,,0,1,9,159,19,1,stimuli/stim_20210519_power2amp/equal_lnn_AM1Hz_s25_29.m4a,,,
,,,,,39007,2021-05-26_12h02.52.010,judgeSpeechMusic_20210519_logNormShiftAmp_mXs,2020.1.2,MacIntel,60,,,,,,,,,,,,,,,,,,,,,,,,,,2,5.682,,0,1,10,160,61,1,stimuli/stim_20210519_power2amp/equal_lnn_AM2.5Hz_s25_34.m4a,,,
,,,,,39007,2021-05-26_12h02.52.010,judgeSpeechMusic_20210519_logNormShiftAmp_mXs,2020.1.2,MacIntel,60,,,,,,,,,,,,,,,,,,,,,,,,,,1,5.612,,0,1,11,161,41,1,stimuli/stim_20210519_power2amp/equal_lnn_AM1Hz_s55_13.m4a,,,
,,,,,39007,2021-05-26_12h02.52.010,judgeSpeechMusic_20210519_logNormShiftAmp_mXs,2020.1.2,MacIntel,60,,,,,,,,,,,,,,,,,,,,,,,,,,1,5.555,,0,1,12,162,104,1,stimuli/stim_20210519_power2amp/equal_lnn_AM4Hz_s15_20.m4a,,,
,,,,,39007,2021-05-26_12h02.52.010,judgeSpeechMusic_20210519_logNormShiftAmp_mXs,2020.1.2,MacIntel,60,,,,,,,,,,,,,,,,,,,,,,,,,,1,5.687,,0,1,13,163,59,1,stimuli/stim_20210519_power2amp/equal_lnn_AM2.5Hz_s15_48.m4a,,,
,,,,,39007,2021-05-26_12h02.52.010,judgeSpeechMusic_20210519_logNormShiftAmp_mXs,2020.1.2,MacIntel,60,,,,,,,,,,,,,,,,,,,,,,,,,,1,5.619,,0,1,14,164,116,1,stimuli/stim_20210519_power2amp/equal_lnn_AM4Hz_s25_7.m4a,,,
,,,,,39007,2021-05-26_12h02.52.010,judgeSpeechMusic_20210519_logNormShiftAmp_mXs,2020.1.2,MacIntel,60,,,,,,,,,,,,,,,,,,,,,,,,,,2,6.304,,0,1,15,165,3,1,stimuli/stim_20210519_power2amp/equal_lnn_AM1Hz_s15_2.m4a,,,
,,,,,39007,2021-05-26_12h02.52.010,judgeSpeechMusic_20210519_logNormShiftAmp_mXs,2020.1.2,MacIntel,60,,,,,,,,,,,,,,,,,,,,,,,,,,1,6.498,,0,1,16,166,138,1,stimuli/stim_20210519_power2amp/equal_lnn_AM4Hz_s45_27.m4a,,,
,,,,,39007,2021-05-26_12h02.52.010,judgeSpeechMusic_20210519_logNormShiftAmp_mXs,2020.1.2,MacIntel,60,,,,,,,,,,,,,,,,,,,,,,,,,,2,10.388,,0,1,17,167,12,1,stimuli/stim_20210519_power2amp/equal_lnn_AM1Hz_s25_7.m4a,,,
,,,,,39007,2021-05-26_12h02.52.010,judgeSpeechMusic_20210519_logNormShiftAmp_mXs,2020.1.2,MacIntel,60,,,,,,,,,,,,,,,,,,,,,,,,,,2,6.51,,0,1,18,168,21,1,stimuli/stim_20210519_power2amp/equal_lnn_AM1Hz_s35_34.m4a,,,
,,,,,39007,2021-05-26_12h02.52.010,judgeSpeechMusic_20210519_logNormShiftAmp_mXs,2020.1.2,MacIntel,60,,,,,,,,,,,,,,,,,,,,,,,,,,2,5.967,,0,1,19,169,10,1,stimuli/stim_20210519_power2amp/equal_lnn_AM1Hz_s25_20.m4a,,,
,,,,,39007,2021-05-26_12h02.52.010,judgeSpeechMusic_20210519_logNormShiftAmp_mXs,2020.1.2,MacIntel,60,,,,,,,,,,,,,,,,,,,,,,,,,,1,5.554,,0,1,20,170,109,1,stimuli/stim_20210519_power2amp/equal_lnn_AM4Hz_s15_37.m4a,,,
,,,,,39007,2021-05-26_12h02.52.010,judgeSpeechMusic_20210519_logNormShiftAmp_mXs,2020.1.2,MacIntel,60,,,,,,,,,,,,,,,,,,,,,,,,,,2,7.238,,0,1,21,171,64,1,stimuli/stim_20210519_power2amp/equal_lnn_AM2.5Hz_s25_10.m4a,,,
,,,,,39007,2021-05-26_12h02.52.010,judgeSpeechMusic_20210519_logNormShiftAmp_mXs,2020.1.2,MacIntel,60,,,,,,,,,,,,,,,,,,,,,,,,,,2,6.277,,0,1,22,172,43,1,stimuli/stim_20210519_power2amp/equal_lnn_AM1Hz_s55_50.m4a,,,
,,,,,39007,2021-05-26_12h02.52.010,judgeSpeechMusic_20210519_logNormShiftAmp_mXs,2020.1.2,MacIntel,60,,,,,,,,,,,,,,,,,,,,,,,,,,2,7.043,,0,1,23,173,44,1,stimuli/stim_20210519_power2amp/equal_lnn_AM1Hz_s55_2.m4a,,,
,,,,,39007,2021-05-26_12h02.52.010,judgeSpeechMusic_20210519_logNormShiftAmp_mXs,2020.1.2,MacIntel,60,,,,,,,,,,,,,,,,,,,,,,,,,,2,7.223,,0,1,24,174,26,1,stimuli/stim_20210519_power2amp/equal_lnn_AM1Hz_s35_29.m4a,,,
,,,,,39007,2021-05-26_12h02.52.010,judgeSpeechMusic_20210519_logNormShiftAmp_mXs,2020.1.2,MacIntel,60,,,,,,,,,,,,,,,,,,,,,,,,,,2,6.622,,0,1,25,175,88,1,stimuli/stim_20210519_power2amp/equal_lnn_AM2.5Hz_s45_14.m4a,,,
,,,,,39007,2021-05-26_12h02.52.010,judgeSpeechMusic_20210519_logNormShiftAmp_mXs,2020.1.2,MacIntel,60,,,,,,,,,,,,,,,,,,,,,,,,,,2,6.239,,0,1,26,176,126,1,stimuli/stim_20210519_power2amp/equal_lnn_AM4Hz_s35_28.m4a,,,
,,,,,39007,2021-05-26_12h02.52.010,judgeSpeechMusic_20210519_logNormShiftAmp_mXs,2020.1.2,MacIntel,60,,,,,,,,,,,,,,,,,,,,,,,,,,1,6.852,3,1,1,27,177,130,1,stimuli/stim_20210519_power2amp/equal_lnn_AM4Hz_s45_19.m4a,1.833,,
,,,,,39007,2021-05-26_12h02.52.010,judgeSpeechMusic_20210519_logNormShiftAmp_mXs,2020.1.2,MacIntel,60,,,,,,,,,,,,,,,,,,,,,,,,,,1,6.748,,0,1,28,178,144,1,stimuli/stim_20210519_power2amp/equal_lnn_AM4Hz_s55_21.m4a,,,
,,,,,39007,2021-05-26_12h02.52.010,judgeSpeechMusic_20210519_logNormShiftAmp_mXs,2020.1.2,MacIntel,60,,,,,,,,,,,,,,,,,,,,,,,,,,1,5.536,,0,1,29,179,117,1,stimuli/stim_20210519_power2amp/equal_lnn_AM4Hz_s25_34.m4a,,,
,,,,,39007,2021-05-26_12h02.52.010,judgeSpeechMusic_20210519_logNormShiftAmp_mXs,2020.1.2,MacIntel,60,,,,,,,,,,,,,,,,,,,,,,,,,,1,7.377,,0,1,30,180,67,1,stimuli/stim_20210519_power2amp/equal_lnn_AM2.5Hz_s25_38.m4a,,,
,,,,,39007,2021-05-26_12h02.52.010,judgeSpeechMusic_20210519_logNormShiftAmp_mXs,2020.1.2,MacIntel,60,,,,,,,,,,,,,,,,,,,,,,,,,,2,7.067,,0,1,31,181,45,1,stimuli/stim_20210519_power2amp/equal_lnn_AM1Hz_s55_23.m4a,,,
,,,,,39007,2021-05-26_12h02.52.010,judgeSpeechMusic_20210519_logNormShiftAmp_mXs,2020.1.2,MacIntel,60,,,,,,,,,,,,,,,,,,,,,,,,,,2,6.201,,0,1,32,182,125,1,stimuli/stim_20210519_power2amp/equal_lnn_AM4Hz_s35_11.m4a,,,
,,,,,39007,2021-05-26_12h02.52.010,judgeSpeechMusic_20210519_logNormShiftAmp_mXs,2020.1.2,MacIntel,60,,,,,,,,,,,,,,,,,,,,,,,,,,2,6.36,,0,1,33,183,52,1,stimuli/stim_20210519_power2amp/equal_lnn_AM2.5Hz_s15_8.m4a,,,
,,,,,39007,2021-05-26_12h02.52.010,judgeSpeechMusic_20210519_logNormShiftAmp_mXs,2020.1.2,MacIntel,60,,,,,,,,,,,,,,,,,,,,,,,,,,2,6.642,,0,1,34,184,98,1,stimuli/stim_20210519_power2amp/equal_lnn_AM2.5Hz_s55_48.m4a,,,
,,,,,39007,2021-05-26_12h02.52.010,judgeSpeechMusic_20210519_logNormShiftAmp_mXs,2020.1.2,MacIntel,60,,,,,,,,,,,,,,,,,,,,,,,,,,2,6.244,,0,1,35,185,70,1,stimuli/stim_20210519_power2amp/equal_lnn_AM2.5Hz_s35_37.m4a,,,
,,,,,39007,2021-05-26_12h02.52.010,judgeSpeechMusic_20210519_logNormShiftAmp_mXs,2020.1.2,MacIntel,60,,,,,,,,,,,,,,,,,,,,,,,,,,2,6.719,,0,1,36,186,107,1,stimuli/stim_20210519_power2amp/equal_lnn_AM4Hz_s15_6.m4a,,,
,,,,,39007,2021-05-26_12h02.52.010,judgeSpeechMusic_20210519_logNormShiftAmp_mXs,2020.1.2,MacIntel,60,,,,,,,,,,,,,,,,,,,,,,,,,,1,6.668,,0,1,37,187,115,1,stimuli/stim_20210519_power2amp/equal_lnn_AM4Hz_s25_18.m4a,,,
,,,,,39007,2021-05-26_12h02.52.010,judgeSpeechMusic_20210519_logNormShiftAmp_mXs,2020.1.2,MacIntel,60,,,,,,,,,,,,,,,,,,,,,,,,,,2,5.718,,0,1,38,188,2,1,stimuli/stim_20210519_power2amp/equal_lnn_AM1Hz_s15_11.m4a,,,
,,,,,39007,2021-05-26_12h02.52.010,judgeSpeechMusic_20210519_logNormShiftAmp_mXs,2020.1.2,MacIntel,60,,,,,,,,,,,,,,,,,,,,,,,,,,1,6.846,,0,1,39,189,99,1,stimuli/stim_20210519_power2amp/equal_lnn_AM2.5Hz_s55_4.m4a,,,
,,,,,39007,2021-05-26_12h02.52.010,judgeSpeechMusic_20210519_logNormShiftAmp_mXs,2020.1.2,MacIntel,60,,,,,,,,,,,,,,,,,,,,,,,,,,2,7.589,,0,1,40,190,31,1,stimuli/stim_20210519_power2amp/equal_lnn_AM1Hz_s45_48.m4a,,,
,,,,,39007,2021-05-26_12h02.52.010,judgeSpeechMusic_20210519_logNormShiftAmp_mXs,2020.1.2,MacIntel,60,,,,,,,,,,,,,,,,,,,,,,,,,,2,6.376,,0,1,41,191,0,1,stimuli/stim_20210519_power2amp/equal_lnn_AM1Hz_s15_30.m4a,,,
,,,,,39007,2021-05-26_12h02.52.010,judgeSpeechMusic_20210519_logNormShiftAmp_mXs,2020.1.2,MacIntel,60,,,,,,,,,,,,,,,,,,,,,,,,,,2,7.676,,0,1,42,192,47,1,stimuli/stim_20210519_power2amp/equal_lnn_AM1Hz_s55_27.m4a,,,
,,,,,39007,2021-05-26_12h02.52.010,judgeSpeechMusic_20210519_logNormShiftAmp_mXs,2020.1.2,MacIntel,60,,,,,,,,,,,,,,,,,,,,,,,,,,2,6.036,,0,1,43,193,134,1,stimuli/stim_20210519_power2amp/equal_lnn_AM4Hz_s45_33.m4a,,,
,,,,,39007,2021-05-26_12h02.52.010,judgeSpeechMusic_20210519_logNormShiftAmp_mXs,2020.1.2,MacIntel,60,,,,,,,,,,,,,,,,,,,,,,,,,,2,7.154,,0,1,44,194,89,1,stimuli/stim_20210519_power2amp/equal_lnn_AM2.5Hz_s45_18.m4a,,,
,,,,,39007,2021-05-26_12h02.52.010,judgeSpeechMusic_20210519_logNormShiftAmp_mXs,2020.1.2,MacIntel,60,,,,,,,,,,,,,,,,,,,,,,,,,,2,6.275,,0,1,45,195,114,1,stimuli/stim_20210519_power2amp/equal_lnn_AM4Hz_s25_12.m4a,,,
,,,,,39007,2021-05-26_12h02.52.010,judgeSpeechMusic_20210519_logNormShiftAmp_mXs,2020.1.2,MacIntel,60,,,,,,,,,,,,,,,,,,,,,,,,,,2,6.302,,0,1,46,196,5,1,stimuli/stim_20210519_power2amp/equal_lnn_AM1Hz_s15_8.m4a,,,
,,,,,39007,2021-05-26_12h02.52.010,judgeSpeechMusic_20210519_logNormShiftAmp_mXs,2020.1.2,MacIntel,60,,,,,,,,,,,,,,,,,,,,,,,,,,2,6.552,,0,1,47,197,53,1,stimuli/stim_20210519_power2amp/equal_lnn_AM2.5Hz_s15_38.m4a,,,
,,,,,39007,2021-05-26_12h02.52.010,judgeSpeechMusic_20210519_logNormShiftAmp_mXs,2020.1.2,MacIntel,60,,,,,,,,,,,,,,,,,,,,,,,,,,2,6.245,,0,1,48,198,91,1,stimuli/stim_20210519_power2amp/equal_lnn_AM2.5Hz_s55_19.m4a,,,
,,,,,39007,2021-05-26_12h02.52.010,judgeSpeechMusic_20210519_logNormShiftAmp_mXs,2020.1.2,MacIntel,60,,,,,,,,,,,,,,,,,,,,,,,,,,2,6.138,,0,1,49,199,62,1,stimuli/stim_20210519_power2amp/equal_lnn_AM2.5Hz_s25_27.m4a,,,
,,,,,39007,2021-05-26_12h02.52.010,judgeSpeechMusic_20210519_logNormShiftAmp_mXs,2020.1.2,MacIntel,60,,,,,,,,,,,,,,,,,,,,,,,,,,1,5.651,,0,1,50,200,132,1,stimuli/stim_20210519_power2amp/equal_lnn_AM4Hz_s45_26.m4a,,,
,,,,,39007,2021-05-26_12h02.52.010,judgeSpeechMusic_20210519_logNormShiftAmp_mXs,2020.1.2,MacIntel,60,,,,,,,,,,,,,,,,,,,,,,,,,,1,5.604,,0,1,51,201,142,1,stimuli/stim_20210519_power2amp/equal_lnn_AM4Hz_s55_33.m4a,,,
,,,,,39007,2021-05-26_12h02.52.010,judgeSpeechMusic_20210519_logNormShiftAmp_mXs,2020.1.2,MacIntel,60,,,,,,,,,,,,,,,,,,,,,,,,,,2,5.845,3,1,1,52,202,14,1,stimuli/stim_20210519_power2amp/equal_lnn_AM1Hz_s25_30.m4a,0.465,,
,,,,,39007,2021-05-26_12h02.52.010,judgeSpeechMusic_20210519_logNormShiftAmp_mXs,2020.1.2,MacIntel,60,,,,,,,,,,,,,,,,,,,,,,,,,,2,5.708,,0,1,53,203,38,1,stimuli/stim_20210519_power2amp/equal_lnn_AM1Hz_s45_4.m4a,,,
,,,,,39007,2021-05-26_12h02.52.010,judgeSpeechMusic_20210519_logNormShiftAmp_mXs,2020.1.2,MacIntel,60,,,,,,,,,,,,,,,,,,,,,,,,,,2,6.892,,0,1,54,204,33,1,stimuli/stim_20210519_power2amp/equal_lnn_AM1Hz_s45_23.m4a,,,
,,,,,39007,2021-05-26_12h02.52.010,judgeSpeechMusic_20210519_logNormShiftAmp_mXs,2020.1.2,MacIntel,60,,,,,,,,,,,,,,,,,,,,,,,,,,2,5.793,,0,1,55,205,20,1,stimuli/stim_20210519_power2amp/equal_lnn_AM1Hz_s35_39.m4a,,,
,,,,,39007,2021-05-26_12h02.52.010,judgeSpeechMusic_20210519_logNormShiftAmp_mXs,2020.1.2,MacIntel,60,,,,,,,,,,,,,,,,,,,,,,,,,,2,6.626,,0,1,56,206,121,1,stimuli/stim_20210519_power2amp/equal_lnn_AM4Hz_s35_15.m4a,,,
,,,,,39007,2021-05-26_12h02.52.010,judgeSpeechMusic_20210519_logNormShiftAmp_mXs,2020.1.2,MacIntel,60,,,,,,,,,,,,,,,,,,,,,,,,,,2,7.023,,0,1,57,207,35,1,stimuli/stim_20210519_power2amp/equal_lnn_AM1Hz_s45_14.m4a,,,
,,,,,39007,2021-05-26_12h02.52.010,judgeSpeechMusic_20210519_logNormShiftAmp_mXs,2020.1.2,MacIntel,60,,,,,,,,,,,,,,,,,,,,,,,,,,2,6.642,,0,1,58,208,95,1,stimuli/stim_20210519_power2amp/equal_lnn_AM2.5Hz_s55_45.m4a,,,
,,,,,39007,2021-05-26_12h02.52.010,judgeSpeechMusic_20210519_logNormShiftAmp_mXs,2020.1.2,MacIntel,60,,,,,,,,,,,,,,,,,,,,,,,,,,2,5.768,,0,1,59,209,42,1,stimuli/stim_20210519_power2amp/equal_lnn_AM1Hz_s55_37.m4a,,,
,,,,,39007,2021-05-26_12h02.52.010,judgeSpeechMusic_20210519_logNormShiftAmp_mXs,2020.1.2,MacIntel,60,,,,,,,,,,,,,,,,,,,,,,,,,,2,5.822,,0,1,60,210,93,1,stimuli/stim_20210519_power2amp/equal_lnn_AM2.5Hz_s55_30.m4a,,,
,,,,,39007,2021-05-26_12h02.52.010,judgeSpeechMusic_20210519_logNormShiftAmp_mXs,2020.1.2,MacIntel,60,,,,,,,,,,,,,,,,,,,,,,,,,,2,5.995,,0,1,61,211,122,1,stimuli/stim_20210519_power2amp/equal_lnn_AM4Hz_s35_2.m4a,,,
,,,,,39007,2021-05-26_12h02.52.010,judgeSpeechMusic_20210519_logNormShiftAmp_mXs,2020.1.2,MacIntel,60,,,,,,,,,,,,,,,,,,,,,,,,,,2,5.636,,0,1,62,212,97,1,stimuli/stim_20210519_power2amp/equal_lnn_AM2.5Hz_s55_46.m4a,,,
,,,,,39007,2021-05-26_12h02.52.010,judgeSpeechMusic_20210519_logNormShiftAmp_mXs,2020.1.2,MacIntel,60,,,,,,,,,,,,,,,,,,,,,,,,,,2,6.119,,0,1,63,213,17,1,stimuli/stim_20210519_power2amp/equal_lnn_AM1Hz_s25_21.m4a,,,
,,,,,39007,2021-05-26_12h02.52.010,judgeSpeechMusic_20210519_logNormShiftAmp_mXs,2020.1.2,MacIntel,60,,,,,,,,,,,,,,,,,,,,,,,,,,2,6.026,,0,1,64,214,71,1,stimuli/stim_20210519_power2amp/equal_lnn_AM2.5Hz_s35_24.m4a,,,
,,,,,39007,2021-05-26_12h02.52.010,judgeSpeechMusic_20210519_logNormShiftAmp_mXs,2020.1.2,MacIntel,60,,,,,,,,,,,,,,,,,,,,,,,,,,2,6.052,,0,1,65,215,50,1,stimuli/stim_20210519_power2amp/equal_lnn_AM2.5Hz_s15_36.m4a,,,
,,,,,39007,2021-05-26_12h02.52.010,judgeSpeechMusic_20210519_logNormShiftAmp_mXs,2020.1.2,MacIntel,60,,,,,,,,,,,,,,,,,,,,,,,,,,1,5.701,,0,1,66,216,140,1,stimuli/stim_20210519_power2amp/equal_lnn_AM4Hz_s55_40.m4a,,,
,,,,,39007,2021-05-26_12h02.52.010,judgeSpeechMusic_20210519_logNormShiftAmp_mXs,2020.1.2,MacIntel,60,,,,,,,,,,,,,,,,,,,,,,,,,,1,6.269,,0,1,67,217,120,1,stimuli/stim_20210519_power2amp/equal_lnn_AM4Hz_s35_38.m4a,,,
,,,,,39007,2021-05-26_12h02.52.010,judgeSpeechMusic_20210519_logNormShiftAmp_mXs,2020.1.2,MacIntel,60,,,,,,,,,,,,,,,,,,,,,,,,,,1,5.596,,0,1,68,218,103,1,stimuli/stim_20210519_power2amp/equal_lnn_AM4Hz_s15_33.m4a,,,
,,,,,39007,2021-05-26_12h02.52.010,judgeSpeechMusic_20210519_logNormShiftAmp_mXs,2020.1.2,MacIntel,60,,,,,,,,,,,,,,,,,,,,,,,,,,1,6.035,,0,1,69,219,135,1,stimuli/stim_20210519_power2amp/equal_lnn_AM4Hz_s45_40.m4a,,,
,,,,,39007,2021-05-26_12h02.52.010,judgeSpeechMusic_20210519_logNormShiftAmp_mXs,2020.1.2,MacIntel,60,,,,,,,,,,,,,,,,,,,,,,,,,,1,6.646,,0,1,70,220,84,1,stimuli/stim_20210519_power2amp/equal_lnn_AM2.5Hz_s45_2.m4a,,,
,,,,,39007,2021-05-26_12h02.52.010,judgeSpeechMusic_20210519_logNormShiftAmp_mXs,2020.1.2,MacIntel,60,,,,,,,,,,,,,,,,,,,,,,,,,,1,11.707,,0,1,71,221,148,1,stimuli/stim_20210519_power2amp/equal_lnn_AM4Hz_s55_24.m4a,,,
,,,,,39007,2021-05-26_12h02.52.010,judgeSpeechMusic_20210519_logNormShiftAmp_mXs,2020.1.2,MacIntel,60,,,,,,,,,,,,,,,,,,,,,,,,,,2,8.311,,0,1,72,222,86,1,stimuli/stim_20210519_power2amp/equal_lnn_AM2.5Hz_s45_47.m4a,,,
,,,,,39007,2021-05-26_12h02.52.010,judgeSpeechMusic_20210519_logNormShiftAmp_mXs,2020.1.2,MacIntel,60,,,,,,,,,,,,,,,,,,,,,,,,,,2,7.22,,0,1,73,223,118,1,stimuli/stim_20210519_power2amp/equal_lnn_AM4Hz_s25_36.m4a,,,
,,,,,39007,2021-05-26_12h02.52.010,judgeSpeechMusic_20210519_logNormShiftAmp_mXs,2020.1.2,MacIntel,60,,,,,,,,,,,,,,,,,,,,,,,,,,2,6.093,2,1,1,74,224,57,1,stimuli/stim_20210519_power2amp/equal_lnn_AM2.5Hz_s15_28.m4a,1.529,,
,,,,,39007,2021-05-26_12h02.52.010,judgeSpeechMusic_20210519_logNormShiftAmp_mXs,2020.1.2,MacIntel,60,,,,,,,,,,,,,,,,,,,,,,,,,,1,6.512,,0,1,75,225,28,1,stimuli/stim_20210519_power2amp/equal_lnn_AM1Hz_s35_13.m4a,,,
,,,,,39007,2021-05-26_12h02.52.010,judgeSpeechMusic_20210519_logNormShiftAmp_mXs,2020.1.2,MacIntel,60,,,,,,,,,,,,,,,,,,,,,,,,,,2,7.264,,0,1,76,226,15,1,stimuli/stim_20210519_power2amp/equal_lnn_AM1Hz_s25_26.m4a,,,
,,,,,39007,2021-05-26_12h02.52.010,judgeSpeechMusic_20210519_logNormShiftAmp_mXs,2020.1.2,MacIntel,60,,,,,,,,,,,,,,,,,,,,,,,,,,2,8.204,,0,1,77,227,39,1,stimuli/stim_20210519_power2amp/equal_lnn_AM1Hz_s45_30.m4a,,,
,,,,,39007,2021-05-26_12h02.52.010,judgeSpeechMusic_20210519_logNormShiftAmp_mXs,2020.1.2,MacIntel,60,,,,,,,,,,,,,,,,,,,,,,,,,,1,5.55,,0,1,78,228,137,1,stimuli/stim_20210519_power2amp/equal_lnn_AM4Hz_s45_18.m4a,,,
,,,,,39007,2021-05-26_12h02.52.010,judgeSpeechMusic_20210519_logNormShiftAmp_mXs,2020.1.2,MacIntel,60,,,,,,,,,,,,,,,,,,,,,,,,,,2,6.573,,0,1,79,229,85,1,stimuli/stim_20210519_power2amp/equal_lnn_AM2.5Hz_s45_19.m4a,,,
,,,,,39007,2021-05-26_12h02.52.010,judgeSpeechMusic_20210519_logNormShiftAmp_mXs,2020.1.2,MacIntel,60,,,,,,,,,,,,,,,,,,,,,,,,,,2,5.995,,0,1,80,230,76,1,stimuli/stim_20210519_power2amp/equal_lnn_AM2.5Hz_s35_22.m4a,,,
,,,,,39007,2021-05-26_12h02.52.010,judgeSpeechMusic_20210519_logNormShiftAmp_mXs,2020.1.2,MacIntel,60,,,,,,,,,,,,,,,,,,,,,,,,,,1,5.839,,0,1,81,231,40,1,stimuli/stim_20210519_power2amp/equal_lnn_AM1Hz_s55_47.m4a,,,
,,,,,39007,2021-05-26_12h02.52.010,judgeSpeechMusic_20210519_logNormShiftAmp_mXs,2020.1.2,MacIntel,60,,,,,,,,,,,,,,,,,,,,,,,,,,2,6.293,,0,1,82,232,92,1,stimuli/stim_20210519_power2amp/equal_lnn_AM2.5Hz_s55_11.m4a,,,
,,,,,39007,2021-05-26_12h02.52.010,judgeSpeechMusic_20210519_logNormShiftAmp_mXs,2020.1.2,MacIntel,60,,,,,,,,,,,,,,,,,,,,,,,,,,2,6.578,,0,1,83,233,74,1,stimuli/stim_20210519_power2amp/equal_lnn_AM2.5Hz_s35_50.m4a,,,
,,,,,39007,2021-05-26_12h02.52.010,judgeSpeechMusic_20210519_logNormShiftAmp_mXs,2020.1.2,MacIntel,60,,,,,,,,,,,,,,,,,,,,,,,,,,1,6.183,,0,1,84,234,16,1,stimuli/stim_20210519_power2amp/equal_lnn_AM1Hz_s25_22.m4a,,,
,,,,,39007,2021-05-26_12h02.52.010,judgeSpeechMusic_20210519_logNormShiftAmp_mXs,2020.1.2,MacIntel,60,,,,,,,,,,,,,,,,,,,,,,,,,,1,5.634,,0,1,85,235,11,1,stimuli/stim_20210519_power2amp/equal_lnn_AM1Hz_s25_36.m4a,,,
,,,,,39007,2021-05-26_12h02.52.010,judgeSpeechMusic_20210519_logNormShiftAmp_mXs,2020.1.2,MacIntel,60,,,,,,,,,,,,,,,,,,,,,,,,,,1,5.605,,0,1,86,236,78,1,stimuli/stim_20210519_power2amp/equal_lnn_AM2.5Hz_s35_40.m4a,,,
,,,,,39007,2021-05-26_12h02.52.010,judgeSpeechMusic_20210519_logNormShiftAmp_mXs,2020.1.2,MacIntel,60,,,,,,,,,,,,,,,,,,,,,,,,,,2,5.67,,0,1,87,237,32,1,stimuli/stim_20210519_power2amp/equal_lnn_AM1Hz_s45_49.m4a,,,
,,,,,39007,2021-05-26_12h02.52.010,judgeSpeechMusic_20210519_logNormShiftAmp_mXs,2020.1.2,MacIntel,60,,,,,,,,,,,,,,,,,,,,,,,,,,1,7.017,,0,1,88,238,102,1,stimuli/stim_20210519_power2amp/equal_lnn_AM4Hz_s15_3.m4a,,,
,,,,,39007,2021-05-26_12h02.52.010,judgeSpeechMusic_20210519_logNormShiftAmp_mXs,2020.1.2,MacIntel,60,,,,,,,,,,,,,,,,,,,,,,,,,,2,5.553,,0,1,89,239,75,1,stimuli/stim_20210519_power2amp/equal_lnn_AM2.5Hz_s35_9.m4a,,,
,,,,,39007,2021-05-26_12h02.52.010,judgeSpeechMusic_20210519_logNormShiftAmp_mXs,2020.1.2,MacIntel,60,,,,,,,,,,,,,,,,,,,,,,,,,,2,6.004,,0,1,90,240,68,1,stimuli/stim_20210519_power2amp/equal_lnn_AM2.5Hz_s25_21.m4a,,,
,,,,,39007,2021-05-26_12h02.52.010,judgeSpeechMusic_20210519_logNormShiftAmp_mXs,2020.1.2,MacIntel,60,,,,,,,,,,,,,,,,,,,,,,,,,,2,5.716,,0,1,91,241,133,1,stimuli/stim_20210519_power2amp/equal_lnn_AM4Hz_s45_10.m4a,,,
,,,,,39007,2021-05-26_12h02.52.010,judgeSpeechMusic_20210519_logNormShiftAmp_mXs,2020.1.2,MacIntel,60,,,,,,,,,,,,,,,,,,,,,,,,,,2,5.684,,0,1,92,242,37,1,stimuli/stim_20210519_power2amp/equal_lnn_AM1Hz_s45_28.m4a,,,
,,,,,39007,2021-05-26_12h02.52.010,judgeSpeechMusic_20210519_logNormShiftAmp_mXs,2020.1.2,MacIntel,60,,,,,,,,,,,,,,,,,,,,,,,,,,2,5.7,,0,1,93,243,65,1,stimuli/stim_20210519_power2amp/equal_lnn_AM2.5Hz_s25_49.m4a,,,
,,,,,39007,2021-05-26_12h02.52.010,judgeSpeechMusic_20210519_logNormShiftAmp_mXs,2020.1.2,MacIntel,60,,,,,,,,,,,,,,,,,,,,,,,,,,2,6.057,1,1,1,94,244,29,1,stimuli/stim_20210519_power2amp/equal_lnn_AM1Hz_s35_28.m4a,0.523,,
,,,,,39007,2021-05-26_12h02.52.010,judgeSpeechMusic_20210519_logNormShiftAmp_mXs,2020.1.2,MacIntel,60,,,,,,,,,,,,,,,,,,,,,,,,,,1,5.539,,0,1,95,245,128,1,stimuli/stim_20210519_power2amp/equal_lnn_AM4Hz_s35_18.m4a,,,
,,,,,39007,2021-05-26_12h02.52.010,judgeSpeechMusic_20210519_logNormShiftAmp_mXs,2020.1.2,MacIntel,60,,,,,,,,,,,,,,,,,,,,,,,,,,2,5.924,,0,1,96,246,82,1,stimuli/stim_20210519_power2amp/equal_lnn_AM2.5Hz_s45_37.m4a,,,
,,,,,39007,2021-05-26_12h02.52.010,judgeSpeechMusic_20210519_logNormShiftAmp_mXs,2020.1.2,MacIntel,60,,,,,,,,,,,,,,,,,,,,,,,,,,2,6.024,,0,1,97,247,81,1,stimuli/stim_20210519_power2amp/equal_lnn_AM2.5Hz_s45_36.m4a,,,
,,,,,39007,2021-05-26_12h02.52.010,judgeSpeechMusic_20210519_logNormShiftAmp_mXs,2020.1.2,MacIntel,60,,,,,,,,,,,,,,,,,,,,,,,,,,2,6.279,,0,1,98,248,13,1,stimuli/stim_20210519_power2amp/equal_lnn_AM1Hz_s25_25.m4a,,,
,,,,,39007,2021-05-26_12h02.52.010,judgeSpeechMusic_20210519_logNormShiftAmp_mXs,2020.1.2,MacIntel,60,,,,,,,,,,,,,,,,,,,,,,,,,,2,6.386,,0,1,99,249,46,1,stimuli/stim_20210519_power2amp/equal_lnn_AM1Hz_s55_12.m4a,,,
,,,,,39007,2021-05-26_12h02.52.010,judgeSpeechMusic_20210519_logNormShiftAmp_mXs,2020.1.2,MacIntel,60,,,,,,,,,,,,,,,,,,,,,,,,,,1,9.305,,0,1,100,250,55,1,stimuli/stim_20210519_power2amp/equal_lnn_AM2.5Hz_s15_39.m4a,,,
,,,,,39007,2021-05-26_12h02.52.010,judgeSpeechMusic_20210519_logNormShiftAmp_mXs,2020.1.2,MacIntel,60,,,,,,,,,,,,,,,,,,,,,,,,,,2,6.767,,0,1,101,251,27,1,stimuli/stim_20210519_power2amp/equal_lnn_AM1Hz_s35_12.m4a,,,
,,,,,39007,2021-05-26_12h02.52.010,judgeSpeechMusic_20210519_logNormShiftAmp_mXs,2020.1.2,MacIntel,60,,,,,,,,,,,,,,,,,,,,,,,,,,2,6.698,,0,1,102,252,8,1,stimuli/stim_20210519_power2amp/equal_lnn_AM1Hz_s15_38.m4a,,,
,,,,,39007,2021-05-26_12h02.52.010,judgeSpeechMusic_20210519_logNormShiftAmp_mXs,2020.1.2,MacIntel,60,,,,,,,,,,,,,,,,,,,,,,,,,,2,8.782,,0,1,103,253,36,1,stimuli/stim_20210519_power2amp/equal_lnn_AM1Hz_s45_11.m4a,,,
,,,,,39007,2021-05-26_12h02.52.010,judgeSpeechMusic_20210519_logNormShiftAmp_mXs,2020.1.2,MacIntel,60,,,,,,,,,,,,,,,,,,,,,,,,,,1,7.624,,0,1,104,254,23,1,stimuli/stim_20210519_power2amp/equal_lnn_AM1Hz_s35_45.m4a,,,
,,,,,39007,2021-05-26_12h02.52.010,judgeSpeechMusic_20210519_logNormShiftAmp_mXs,2020.1.2,MacIntel,60,,,,,,,,,,,,,,,,,,,,,,,,,,1,6.058,,0,1,105,255,105,1,stimuli/stim_20210519_power2amp/equal_lnn_AM4Hz_s15_7.m4a,,,
,,,,,39007,2021-05-26_12h02.52.010,judgeSpeechMusic_20210519_logNormShiftAmp_mXs,2020.1.2,MacIntel,60,,,,,,,,,,,,,,,,,,,,,,,,,,1,5.63,,0,1,106,256,113,1,stimuli/stim_20210519_power2amp/equal_lnn_AM4Hz_s25_32.m4a,,,
,,,,,39007,2021-05-26_12h02.52.010,judgeSpeechMusic_20210519_logNormShiftAmp_mXs,2020.1.2,MacIntel,60,,,,,,,,,,,,,,,,,,,,,,,,,,1,7.627,,0,1,107,257,110,1,stimuli/stim_20210519_power2amp/equal_lnn_AM4Hz_s25_28.m4a,,,
,,,,,39007,2021-05-26_12h02.52.010,judgeSpeechMusic_20210519_logNormShiftAmp_mXs,2020.1.2,MacIntel,60,,,,,,,,,,,,,,,,,,,,,,,,,,1,7.271,,0,1,108,258,111,1,stimuli/stim_20210519_power2amp/equal_lnn_AM4Hz_s25_25.m4a,,,
,,,,,39007,2021-05-26_12h02.52.010,judgeSpeechMusic_20210519_logNormShiftAmp_mXs,2020.1.2,MacIntel,60,,,,,,,,,,,,,,,,,,,,,,,,,,1,8.802,,0,1,109,259,147,1,stimuli/stim_20210519_power2amp/equal_lnn_AM4Hz_s55_45.m4a,,,
,,,,,39007,2021-05-26_12h02.52.010,judgeSpeechMusic_20210519_logNormShiftAmp_mXs,2020.1.2,MacIntel,60,,,,,,,,,,,,,,,,,,,,,,,,,,1,9.521,,0,1,110,260,4,1,stimuli/stim_20210519_power2amp/equal_lnn_AM1Hz_s15_19.m4a,,,
,,,,,39007,2021-05-26_12h02.52.010,judgeSpeechMusic_20210519_logNormShiftAmp_mXs,2020.1.2,MacIntel,60,,,,,,,,,,,,,,,,,,,,,,,,,,2,49.907,,0,1,111,261,18,1,stimuli/stim_20210519_power2amp/equal_lnn_AM1Hz_s25_35.m4a,,,
,,,,,39007,2021-05-26_12h02.52.010,judgeSpeechMusic_20210519_logNormShiftAmp_mXs,2020.1.2,MacIntel,60,,,,,,,,,,,,,,,,,,,,,,,,,,1,7.514,,0,1,112,262,143,1,stimuli/stim_20210519_power2amp/equal_lnn_AM4Hz_s55_50.m4a,,,
,,,,,39007,2021-05-26_12h02.52.010,judgeSpeechMusic_20210519_logNormShiftAmp_mXs,2020.1.2,MacIntel,60,,,,,,,,,,,,,,,,,,,,,,,,,,1,5.639,,0,1,113,263,100,1,stimuli/stim_20210519_power2amp/equal_lnn_AM4Hz_s15_10.m4a,,,
,,,,,39007,2021-05-26_12h02.52.010,judgeSpeechMusic_20210519_logNormShiftAmp_mXs,2020.1.2,MacIntel,60,,,,,,,,,,,,,,,,,,,,,,,,,,2,6.514,,0,1,114,264,60,1,stimuli/stim_20210519_power2amp/equal_lnn_AM2.5Hz_s25_50.m4a,,,
,,,,,39007,2021-05-26_12h02.52.010,judgeSpeechMusic_20210519_logNormShiftAmp_mXs,2020.1.2,MacIntel,60,,,,,,,,,,,,,,,,,,,,,,,,,,1,8.608,,0,1,115,265,96,1,stimuli/stim_20210519_power2amp/equal_lnn_AM2.5Hz_s55_16.m4a,,,
,,,,,39007,2021-05-26_12h02.52.010,judgeSpeechMusic_20210519_logNormShiftAmp_mXs,2020.1.2,MacIntel,60,,,,,,,,,,,,,,,,,,,,,,,,,,2,6.842,,0,1,116,266,48,1,stimuli/stim_20210519_power2amp/equal_lnn_AM1Hz_s55_20.m4a,,,
,,,,,39007,2021-05-26_12h02.52.010,judgeSpeechMusic_20210519_logNormShiftAmp_mXs,2020.1.2,MacIntel,60,,,,,,,,,,,,,,,,,,,,,,,,,,2,6.702,,0,1,117,267,1,1,stimuli/stim_20210519_power2amp/equal_lnn_AM1Hz_s15_9.m4a,,,
,,,,,39007,2021-05-26_12h02.52.010,judgeSpeechMusic_20210519_logNormShiftAmp_mXs,2020.1.2,MacIntel,60,,,,,,,,,,,,,,,,,,,,,,,,,,2,6.747,4,1,1,118,268,101,1,stimuli/stim_20210519_power2amp/equal_lnn_AM4Hz_s15_16.m4a,2.487,,
,,,,,39007,2021-05-26_12h02.52.010,judgeSpeechMusic_20210519_logNormShiftAmp_mXs,2020.1.2,MacIntel,60,,,,,,,,,,,,,,,,,,,,,,,,,,1,7.205,,0,1,119,269,136,1,stimuli/stim_20210519_power2amp/equal_lnn_AM4Hz_s45_45.m4a,,,
,,,,,39007,2021-05-26_12h02.52.010,judgeSpeechMusic_20210519_logNormShiftAmp_mXs,2020.1.2,MacIntel,60,,,,,,,,,,,,,,,,,,,,,,,,,,1,5.828,,0,1,120,270,131,1,stimuli/stim_20210519_power2amp/equal_lnn_AM4Hz_s45_41.m4a,,,
,,,,,39007,2021-05-26_12h02.52.010,judgeSpeechMusic_20210519_logNormShiftAmp_mXs,2020.1.2,MacIntel,60,,,,,,,,,,,,,,,,,,,,,,,,,,2,7.019,,0,1,121,271,58,1,stimuli/stim_20210519_power2amp/equal_lnn_AM2.5Hz_s15_13.m4a,,,
,,,,,39007,2021-05-26_12h02.52.010,judgeSpeechMusic_20210519_logNormShiftAmp_mXs,2020.1.2,MacIntel,60,,,,,,,,,,,,,,,,,,,,,,,,,,2,8.66,,0,1,122,272,79,1,stimuli/stim_20210519_power2amp/equal_lnn_AM2.5Hz_s35_2.m4a,,,
,,,,,39007,2021-05-26_12h02.52.010,judgeSpeechMusic_20210519_logNormShiftAmp_mXs,2020.1.2,MacIntel,60,,,,,,,,,,,,,,,,,,,,,,,,,,2,5.837,,0,1,123,273,87,1,stimuli/stim_20210519_power2amp/equal_lnn_AM2.5Hz_s45_29.m4a,,,
,,,,,39007,2021-05-26_12h02.52.010,judgeSpeechMusic_20210519_logNormShiftAmp_mXs,2020.1.2,MacIntel,60,,,,,,,,,,,,,,,,,,,,,,,,,,1,9.067,,0,1,124,274,112,1,stimuli/stim_20210519_power2amp/equal_lnn_AM4Hz_s25_29.m4a,,,
,,,,,39007,2021-05-26_12h02.52.010,judgeSpeechMusic_20210519_logNormShiftAmp_mXs,2020.1.2,MacIntel,60,,,,,,,,,,,,,,,,,,,,,,,,,,2,8.656,,0,1,125,275,145,1,stimuli/stim_20210519_power2amp/equal_lnn_AM4Hz_s55_2.m4a,,,
,,,,,39007,2021-05-26_12h02.52.010,judgeSpeechMusic_20210519_logNormShiftAmp_mXs,2020.1.2,MacIntel,60,,,,,,,,,,,,,,,,,,,,,,,,,,2,6.403,,0,1,126,276,24,1,stimuli/stim_20210519_power2amp/equal_lnn_AM1Hz_s35_18.m4a,,,
,,,,,39007,2021-05-26_12h02.52.010,judgeSpeechMusic_20210519_logNormShiftAmp_mXs,2020.1.2,MacIntel,60,,,,,,,,,,,,,,,,,,,,,,,,,,1,9.325,,0,1,127,277,139,1,stimuli/stim_20210519_power2amp/equal_lnn_AM4Hz_s45_24.m4a,,,
,,,,,39007,2021-05-26_12h02.52.010,judgeSpeechMusic_20210519_logNormShiftAmp_mXs,2020.1.2,MacIntel,60,,,,,,,,,,,,,,,,,,,,,,,,,,2,8.912,,0,1,128,278,73,1,stimuli/stim_20210519_power2amp/equal_lnn_AM2.5Hz_s35_12.m4a,,,
,,,,,39007,2021-05-26_12h02.52.010,judgeSpeechMusic_20210519_logNormShiftAmp_mXs,2020.1.2,MacIntel,60,,,,,,,,,,,,,,,,,,,,,,,,,,1,5.799,,0,1,129,279,9,1,stimuli/stim_20210519_power2amp/equal_lnn_AM1Hz_s15_14.m4a,,,
,,,,,39007,2021-05-26_12h02.52.010,judgeSpeechMusic_20210519_logNormShiftAmp_mXs,2020.1.2,MacIntel,60,,,,,,,,,,,,,,,,,,,,,,,,,,1,5.781,,0,1,130,280,54,1,stimuli/stim_20210519_power2amp/equal_lnn_AM2.5Hz_s15_2.m4a,,,
,,,,,39007,2021-05-26_12h02.52.010,judgeSpeechMusic_20210519_logNormShiftAmp_mXs,2020.1.2,MacIntel,60,,,,,,,,,,,,,,,,,,,,,,,,,,1,7.475,,0,1,131,281,69,1,stimuli/stim_20210519_power2amp/equal_lnn_AM2.5Hz_s25_32.m4a,,,
,,,,,39007,2021-05-26_12h02.52.010,judgeSpeechMusic_20210519_logNormShiftAmp_mXs,2020.1.2,MacIntel,60,,,,,,,,,,,,,,,,,,,,,,,,,,1,6.293,,0,1,132,282,72,1,stimuli/stim_20210519_power2amp/equal_lnn_AM2.5Hz_s35_28.m4a,,,
,,,,,39007,2021-05-26_12h02.52.010,judgeSpeechMusic_20210519_logNormShiftAmp_mXs,2020.1.2,MacIntel,60,,,,,,,,,,,,,,,,,,,,,,,,,,1,5.676,,0,1,133,283,90,1,stimuli/stim_20210519_power2amp/equal_lnn_AM2.5Hz_s55_40.m4a,,,
,,,,,39007,2021-05-26_12h02.52.010,judgeSpeechMusic_20210519_logNormShiftAmp_mXs,2020.1.2,MacIntel,60,,,,,,,,,,,,,,,,,,,,,,,,,,1,5.593,,0,1,134,284,149,1,stimuli/stim_20210519_power2amp/equal_lnn_AM4Hz_s55_6.m4a,,,
,,,,,39007,2021-05-26_12h02.52.010,judgeSpeechMusic_20210519_logNormShiftAmp_mXs,2020.1.2,MacIntel,60,,,,,,,,,,,,,,,,,,,,,,,,,,1,6.971,,0,1,135,285,146,1,stimuli/stim_20210519_power2amp/equal_lnn_AM4Hz_s55_36.m4a,,,
,,,,,39007,2021-05-26_12h02.52.010,judgeSpeechMusic_20210519_logNormShiftAmp_mXs,2020.1.2,MacIntel,60,,,,,,,,,,,,,,,,,,,,,,,,,,2,11.238,,0,1,136,286,49,1,stimuli/stim_20210519_power2amp/equal_lnn_AM1Hz_s55_19.m4a,,,
,,,,,39007,2021-05-26_12h02.52.010,judgeSpeechMusic_20210519_logNormShiftAmp_mXs,2020.1.2,MacIntel,60,,,,,,,,,,,,,,,,,,,,,,,,,,2,10.382,,0,1,137,287,129,1,stimuli/stim_20210519_power2amp/equal_lnn_AM4Hz_s35_16.m4a,,,
,,,,,39007,2021-05-26_12h02.52.010,judgeSpeechMusic_20210519_logNormShiftAmp_mXs,2020.1.2,MacIntel,60,,,,,,,,,,,,,,,,,,,,,,,,,,2,7.109,,0,1,138,288,30,1,stimuli/stim_20210519_power2amp/equal_lnn_AM1Hz_s45_26.m4a,,,
,,,,,39007,2021-05-26_12h02.52.010,judgeSpeechMusic_20210519_logNormShiftAmp_mXs,2020.1.2,MacIntel,60,,,,,,,,,,,,,,,,,,,,,,,,,,1,6.108,,0,1,139,289,77,1,stimuli/stim_20210519_power2amp/equal_lnn_AM2.5Hz_s35_29.m4a,,,
,,,,,39007,2021-05-26_12h02.52.010,judgeSpeechMusic_20210519_logNormShiftAmp_mXs,2020.1.2,MacIntel,60,,,,,,,,,,,,,,,,,,,,,,,,,,2,9.154,4,1,1,140,290,94,1,stimuli/stim_20210519_power2amp/equal_lnn_AM2.5Hz_s55_36.m4a,1.059,,
,,,,,39007,2021-05-26_12h02.52.010,judgeSpeechMusic_20210519_logNormShiftAmp_mXs,2020.1.2,MacIntel,60,,,,,,,,,,,,,,,,,,,,,,,,,,2,6.613,,0,1,141,291,34,1,stimuli/stim_20210519_power2amp/equal_lnn_AM1Hz_s45_6.m4a,,,
,,,,,39007,2021-05-26_12h02.52.010,judgeSpeechMusic_20210519_logNormShiftAmp_mXs,2020.1.2,MacIntel,60,,,,,,,,,,,,,,,,,,,,,,,,,,1,7.38,,0,1,142,292,80,1,stimuli/stim_20210519_power2amp/equal_lnn_AM2.5Hz_s45_39.m4a,,,
,,,,,39007,2021-05-26_12h02.52.010,judgeSpeechMusic_20210519_logNormShiftAmp_mXs,2020.1.2,MacIntel,60,,,,,,,,,,,,,,,,,,,,,,,,,,2,161.34,,0,1,143,293,51,1,stimuli/stim_20210519_power2amp/equal_lnn_AM2.5Hz_s15_24.m4a,,,
,,,,,39007,2021-05-26_12h02.52.010,judgeSpeechMusic_20210519_logNormShiftAmp_mXs,2020.1.2,MacIntel,60,,,,,,,,,,,,,,,,,,,,,,,,,,1,5.685,,0,1,144,294,63,1,stimuli/stim_20210519_power2amp/equal_lnn_AM2.5Hz_s25_7.m4a,,,
,,,,,39007,2021-05-26_12h02.52.010,judgeSpeechMusic_20210519_logNormShiftAmp_mXs,2020.1.2,MacIntel,60,,,,,,,,,,,,,,,,,,,,,,,,,,2,6.907,,0,1,145,295,106,1,stimuli/stim_20210519_power2amp/equal_lnn_AM4Hz_s15_32.m4a,,,
,,,,,39007,2021-05-26_12h02.52.010,judgeSpeechMusic_20210519_logNormShiftAmp_mXs,2020.1.2,MacIntel,60,,,,,,,,,,,,,,,,,,,,,,,,,,2,6.79,,0,1,146,296,119,1,stimuli/stim_20210519_power2amp/equal_lnn_AM4Hz_s25_15.m4a,,,
,,,,,39007,2021-05-26_12h02.52.010,judgeSpeechMusic_20210519_logNormShiftAmp_mXs,2020.1.2,MacIntel,60,,,,,,,,,,,,,,,,,,,,,,,,,,2,7.042,,0,1,147,297,124,1,stimuli/stim_20210519_power2amp/equal_lnn_AM4Hz_s35_49.m4a,,,
,,,,,39007,2021-05-26_12h02.52.010,judgeSpeechMusic_20210519_logNormShiftAmp_mXs,2020.1.2,MacIntel,60,,,,,,,,,,,,,,,,,,,,,,,,,,2,84.273,,0,1,148,298,141,1,stimuli/stim_20210519_power2amp/equal_lnn_AM4Hz_s55_25.m4a,,,
,,,,,39007,2021-05-26_12h02.52.010,judgeSpeechMusic_20210519_logNormShiftAmp_mXs,2020.1.2,MacIntel,60,,,,,,,,,,,,,,,,,,,,,,,,,,2,36.432,,0,1,149,299,6,1,stimuli/stim_20210519_power2amp/equal_lnn_AM1Hz_s15_36.m4a,,,
,,,,,39007,2021-05-26_12h02.52.010,judgeSpeechMusic_20210519_logNormShiftAmp_mXs,2020.1.2,MacIntel,60,,,,,,,,,,,,,,,,,,,,,,,,,,,,,,,,,,,,,space,113.629
