headphoneResponse.keys,headphoneResponse.corr,headphoneResponse.rt,headphoneTrial.thisRepN,headphoneTrial.thisTrialN,headphoneTrial.thisN,headphoneTrial.thisIndex,headphoneTrial.ran,headphone_sound1,headphone_sound2,headphone_sound3,corrAns,participant,date,expName,psychopyVersion,OS,frameRate,trainSlider.response,trainSlider.rt,beepTrainResponse.keys,beepTrainResponse.corr,trainingTrials.thisRepN,trainingTrials.thisTrialN,trainingTrials.thisN,trainingTrials.thisIndex,trainingTrials.ran,trainAudioFile,beepTrainResponse.rt,readyReal_resp.keys,readyReal_resp.rt,ratingSlider.response,ratingSlider.rt,beepResp.keys,beepResp.corr,expTrials.thisRepN,expTrials.thisTrialN,expTrials.thisN,expTrials.thisIndex,expTrials.ran,audioFile,beepResp.rt,end_resp.keys,end_resp.rt
3,1,1.05716,0,0,0,2,1,stimuli/screen_origin.wav,stimuli/screen_antiphase.wav,stimuli/screen_quiet.wav,3,40062,2021-05-24_19h00.52.771,judgeSpeechMusic_20210519_logNormShiftAmp_mXs,2020.1.2,MacIntel,60,,,,,,,,,,,,,,,,,,,,,,,,,,
2,1,0.57478,0,1,1,3,1,stimuli/screen_origin.wav,stimuli/screen_quiet.wav,stimuli/screen_antiphase.wav,2,40062,2021-05-24_19h00.52.771,judgeSpeechMusic_20210519_logNormShiftAmp_mXs,2020.1.2,MacIntel,60,,,,,,,,,,,,,,,,,,,,,,,,,,
2,1,0.73155,0,2,2,1,1,stimuli/screen_antiphase.wav,stimuli/screen_quiet.wav,stimuli/screen_origin.wav,2,40062,2021-05-24_19h00.52.771,judgeSpeechMusic_20210519_logNormShiftAmp_mXs,2020.1.2,MacIntel,60,,,,,,,,,,,,,,,,,,,,,,,,,,
3,1,0.6321,0,3,3,0,1,stimuli/screen_antiphase.wav,stimuli/screen_origin.wav,stimuli/screen_quiet.wav,3,40062,2021-05-24_19h00.52.771,judgeSpeechMusic_20210519_logNormShiftAmp_mXs,2020.1.2,MacIntel,60,,,,,,,,,,,,,,,,,,,,,,,,,,
1,1,0.614025,0,4,4,5,1,stimuli/screen_quiet.wav,stimuli/screen_origin.wav,stimuli/screen_antiphase.wav,1,40062,2021-05-24_19h00.52.771,judgeSpeechMusic_20210519_logNormShiftAmp_mXs,2020.1.2,MacIntel,60,,,,,,,,,,,,,,,,,,,,,,,,,,
1,1,0.85086,0,5,5,4,1,stimuli/screen_quiet.wav,stimuli/screen_antiphase.wav,stimuli/screen_origin.wav,1,40062,2021-05-24_19h00.52.771,judgeSpeechMusic_20210519_logNormShiftAmp_mXs,2020.1.2,MacIntel,60,,,,,,,,,,,,,,,,,,,,,,,,,,
,,,,,,,,,,,,40062,2021-05-24_19h00.52.771,judgeSpeechMusic_20210519_logNormShiftAmp_mXs,2020.1.2,MacIntel,60,2,12.14365,,0,0,0,0,0,1,stimuli/stim_20210519_power2amp/equal_lnn_AM_training1.5Hz_s20.m4a,,,,,,,,,,,,,,,,
,,,,,,,,,,,,40062,2021-05-24_19h00.52.771,judgeSpeechMusic_20210519_logNormShiftAmp_mXs,2020.1.2,MacIntel,60,1,7.059375,,0,0,1,1,2,1,stimuli/stim_20210519_power2amp/equal_lnn_AM_training3.5Hz_s20.m4a,,,,,,,,,,,,,,,,
,,,,,,,,,,,,40062,2021-05-24_19h00.52.771,judgeSpeechMusic_20210519_logNormShiftAmp_mXs,2020.1.2,MacIntel,60,2,6.462555,1,1,0,2,2,1,1,stimuli/stim_20210519_power2amp/equal_lnn_AM_training1.5Hz_s50.m4a,3.27193,,,,,,,,,,,,,,,
,,,,,,,,,,,,40062,2021-05-24_19h00.52.771,judgeSpeechMusic_20210519_logNormShiftAmp_mXs,2020.1.2,MacIntel,60,2,7.060645,,0,0,3,3,3,1,stimuli/stim_20210519_power2amp/equal_lnn_AM_training3.5Hz_s50.m4a,,,,,,,,,,,,,,,,
,,,,,,,,,,,,40062,2021-05-24_19h00.52.771,judgeSpeechMusic_20210519_logNormShiftAmp_mXs,2020.1.2,MacIntel,60,,,,,,,,,,,,space,12.86642,1,8.908885,,0,0,0,0,140,1,stimuli/stim_20210519_power2amp/equal_lnn_AM4Hz_s55_19.m4a,,,
,,,,,,,,,,,,40062,2021-05-24_19h00.52.771,judgeSpeechMusic_20210519_logNormShiftAmp_mXs,2020.1.2,MacIntel,60,,,,,,,,,,,,,,1,6.705955,,0,0,1,1,58,1,stimuli/stim_20210519_power2amp/equal_lnn_AM2.5Hz_s15_19.m4a,,,
,,,,,,,,,,,,40062,2021-05-24_19h00.52.771,judgeSpeechMusic_20210519_logNormShiftAmp_mXs,2020.1.2,MacIntel,60,,,,,,,,,,,,,,2,6.26341,,0,0,2,2,69,1,stimuli/stim_20210519_power2amp/equal_lnn_AM2.5Hz_s25_25.m4a,,,
,,,,,,,,,,,,40062,2021-05-24_19h00.52.771,judgeSpeechMusic_20210519_logNormShiftAmp_mXs,2020.1.2,MacIntel,60,,,,,,,,,,,,,,2,5.84418,,0,0,3,3,133,1,stimuli/stim_20210519_power2amp/equal_lnn_AM4Hz_s45_10.m4a,,,
,,,,,,,,,,,,40062,2021-05-24_19h00.52.771,judgeSpeechMusic_20210519_logNormShiftAmp_mXs,2020.1.2,MacIntel,60,,,,,,,,,,,,,,2,6.12656,,0,0,4,4,145,1,stimuli/stim_20210519_power2amp/equal_lnn_AM4Hz_s55_25.m4a,,,
,,,,,,,,,,,,40062,2021-05-24_19h00.52.771,judgeSpeechMusic_20210519_logNormShiftAmp_mXs,2020.1.2,MacIntel,60,,,,,,,,,,,,,,1,6.11389,,0,0,5,5,23,1,stimuli/stim_20210519_power2amp/equal_lnn_AM1Hz_s35_25.m4a,,,
,,,,,,,,,,,,40062,2021-05-24_19h00.52.771,judgeSpeechMusic_20210519_logNormShiftAmp_mXs,2020.1.2,MacIntel,60,,,,,,,,,,,,,,1,6.70948,,0,0,6,6,135,1,stimuli/stim_20210519_power2amp/equal_lnn_AM4Hz_s45_47.m4a,,,
,,,,,,,,,,,,40062,2021-05-24_19h00.52.771,judgeSpeechMusic_20210519_logNormShiftAmp_mXs,2020.1.2,MacIntel,60,,,,,,,,,,,,,,2,6.210255,,0,0,7,7,3,1,stimuli/stim_20210519_power2amp/equal_lnn_AM1Hz_s15_11.m4a,,,
,,,,,,,,,,,,40062,2021-05-24_19h00.52.771,judgeSpeechMusic_20210519_logNormShiftAmp_mXs,2020.1.2,MacIntel,60,,,,,,,,,,,,,,2,7.310535,,0,0,8,8,148,1,stimuli/stim_20210519_power2amp/equal_lnn_AM4Hz_s55_11.m4a,,,
,,,,,,,,,,,,40062,2021-05-24_19h00.52.771,judgeSpeechMusic_20210519_logNormShiftAmp_mXs,2020.1.2,MacIntel,60,,,,,,,,,,,,,,2,6.86227,,0,0,9,9,139,1,stimuli/stim_20210519_power2amp/equal_lnn_AM4Hz_s45_35.m4a,,,
,,,,,,,,,,,,40062,2021-05-24_19h00.52.771,judgeSpeechMusic_20210519_logNormShiftAmp_mXs,2020.1.2,MacIntel,60,,,,,,,,,,,,,,2,6.120845,,0,0,10,10,22,1,stimuli/stim_20210519_power2amp/equal_lnn_AM1Hz_s35_35.m4a,,,
,,,,,,,,,,,,40062,2021-05-24_19h00.52.771,judgeSpeechMusic_20210519_logNormShiftAmp_mXs,2020.1.2,MacIntel,60,,,,,,,,,,,,,,1,5.85994,,0,0,11,11,121,1,stimuli/stim_20210519_power2amp/equal_lnn_AM4Hz_s35_25.m4a,,,
,,,,,,,,,,,,40062,2021-05-24_19h00.52.771,judgeSpeechMusic_20210519_logNormShiftAmp_mXs,2020.1.2,MacIntel,60,,,,,,,,,,,,,,2,6.99384,,0,0,12,12,52,1,stimuli/stim_20210519_power2amp/equal_lnn_AM2.5Hz_s15_17.m4a,,,
,,,,,,,,,,,,40062,2021-05-24_19h00.52.771,judgeSpeechMusic_20210519_logNormShiftAmp_mXs,2020.1.2,MacIntel,60,,,,,,,,,,,,,,2,6.696565,,0,0,13,13,24,1,stimuli/stim_20210519_power2amp/equal_lnn_AM1Hz_s35_26.m4a,,,
,,,,,,,,,,,,40062,2021-05-24_19h00.52.771,judgeSpeechMusic_20210519_logNormShiftAmp_mXs,2020.1.2,MacIntel,60,,,,,,,,,,,,,,2,7.241845,,0,0,14,14,1,1,stimuli/stim_20210519_power2amp/equal_lnn_AM1Hz_s15_13.m4a,,,
,,,,,,,,,,,,40062,2021-05-24_19h00.52.771,judgeSpeechMusic_20210519_logNormShiftAmp_mXs,2020.1.2,MacIntel,60,,,,,,,,,,,,,,2,6.07966,,0,0,15,15,15,1,stimuli/stim_20210519_power2amp/equal_lnn_AM1Hz_s25_20.m4a,,,
,,,,,,,,,,,,40062,2021-05-24_19h00.52.771,judgeSpeechMusic_20210519_logNormShiftAmp_mXs,2020.1.2,MacIntel,60,,,,,,,,,,,,,,2,38.576335,,0,0,16,16,18,1,stimuli/stim_20210519_power2amp/equal_lnn_AM1Hz_s25_10.m4a,,,
,,,,,,,,,,,,40062,2021-05-24_19h00.52.771,judgeSpeechMusic_20210519_logNormShiftAmp_mXs,2020.1.2,MacIntel,60,,,,,,,,,,,,,,2,13.51164,,0,0,17,17,68,1,stimuli/stim_20210519_power2amp/equal_lnn_AM2.5Hz_s25_4.m4a,,,
,,,,,,,,,,,,40062,2021-05-24_19h00.52.771,judgeSpeechMusic_20210519_logNormShiftAmp_mXs,2020.1.2,MacIntel,60,,,,,,,,,,,,,,1,12.292675,,0,0,18,18,57,1,stimuli/stim_20210519_power2amp/equal_lnn_AM2.5Hz_s15_2.m4a,,,
,,,,,,,,,,,,40062,2021-05-24_19h00.52.771,judgeSpeechMusic_20210519_logNormShiftAmp_mXs,2020.1.2,MacIntel,60,,,,,,,,,,,,,,2,8.17694,,0,0,19,19,81,1,stimuli/stim_20210519_power2amp/equal_lnn_AM2.5Hz_s45_46.m4a,,,
,,,,,,,,,,,,40062,2021-05-24_19h00.52.771,judgeSpeechMusic_20210519_logNormShiftAmp_mXs,2020.1.2,MacIntel,60,,,,,,,,,,,,,,2,6.66305,,0,0,20,20,71,1,stimuli/stim_20210519_power2amp/equal_lnn_AM2.5Hz_s35_9.m4a,,,
,,,,,,,,,,,,40062,2021-05-24_19h00.52.771,judgeSpeechMusic_20210519_logNormShiftAmp_mXs,2020.1.2,MacIntel,60,,,,,,,,,,,,,,2,31.358195,,0,0,21,21,70,1,stimuli/stim_20210519_power2amp/equal_lnn_AM2.5Hz_s35_31.m4a,,,
,,,,,,,,,,,,40062,2021-05-24_19h00.52.771,judgeSpeechMusic_20210519_logNormShiftAmp_mXs,2020.1.2,MacIntel,60,,,,,,,,,,,,,,2,6.226975,,0,0,22,22,38,1,stimuli/stim_20210519_power2amp/equal_lnn_AM1Hz_s45_15.m4a,,,
,,,,,,,,,,,,40062,2021-05-24_19h00.52.771,judgeSpeechMusic_20210519_logNormShiftAmp_mXs,2020.1.2,MacIntel,60,,,,,,,,,,,,,,2,5.74535,,0,0,23,23,16,1,stimuli/stim_20210519_power2amp/equal_lnn_AM1Hz_s25_24.m4a,,,
,,,,,,,,,,,,40062,2021-05-24_19h00.52.771,judgeSpeechMusic_20210519_logNormShiftAmp_mXs,2020.1.2,MacIntel,60,,,,,,,,,,,,,,2,5.92767,,0,0,24,24,31,1,stimuli/stim_20210519_power2amp/equal_lnn_AM1Hz_s45_32.m4a,,,
,,,,,,,,,,,,40062,2021-05-24_19h00.52.771,judgeSpeechMusic_20210519_logNormShiftAmp_mXs,2020.1.2,MacIntel,60,,,,,,,,,,,,,,2,5.84837,,0,0,25,25,20,1,stimuli/stim_20210519_power2amp/equal_lnn_AM1Hz_s35_33.m4a,,,
,,,,,,,,,,,,40062,2021-05-24_19h00.52.771,judgeSpeechMusic_20210519_logNormShiftAmp_mXs,2020.1.2,MacIntel,60,,,,,,,,,,,,,,2,10.111135,,0,0,26,26,65,1,stimuli/stim_20210519_power2amp/equal_lnn_AM2.5Hz_s25_39.m4a,,,
,,,,,,,,,,,,40062,2021-05-24_19h00.52.771,judgeSpeechMusic_20210519_logNormShiftAmp_mXs,2020.1.2,MacIntel,60,,,,,,,,,,,,,,2,7.197245,,0,0,27,27,9,1,stimuli/stim_20210519_power2amp/equal_lnn_AM1Hz_s15_8.m4a,,,
,,,,,,,,,,,,40062,2021-05-24_19h00.52.771,judgeSpeechMusic_20210519_logNormShiftAmp_mXs,2020.1.2,MacIntel,60,,,,,,,,,,,,,,2,5.8048,,0,0,28,28,14,1,stimuli/stim_20210519_power2amp/equal_lnn_AM1Hz_s25_12.m4a,,,
,,,,,,,,,,,,40062,2021-05-24_19h00.52.771,judgeSpeechMusic_20210519_logNormShiftAmp_mXs,2020.1.2,MacIntel,60,,,,,,,,,,,,,,1,6.40739,,0,0,29,29,55,1,stimuli/stim_20210519_power2amp/equal_lnn_AM2.5Hz_s15_37.m4a,,,
,,,,,,,,,,,,40062,2021-05-24_19h00.52.771,judgeSpeechMusic_20210519_logNormShiftAmp_mXs,2020.1.2,MacIntel,60,,,,,,,,,,,,,,1,7.30699,,0,0,30,30,80,1,stimuli/stim_20210519_power2amp/equal_lnn_AM2.5Hz_s45_6.m4a,,,
,,,,,,,,,,,,40062,2021-05-24_19h00.52.771,judgeSpeechMusic_20210519_logNormShiftAmp_mXs,2020.1.2,MacIntel,60,,,,,,,,,,,,,,1,7.554485,2,1,0,31,31,85,1,stimuli/stim_20210519_power2amp/equal_lnn_AM2.5Hz_s45_35.m4a,1.63182,,
,,,,,,,,,,,,40062,2021-05-24_19h00.52.771,judgeSpeechMusic_20210519_logNormShiftAmp_mXs,2020.1.2,MacIntel,60,,,,,,,,,,,,,,2,8.52735,,0,0,32,32,91,1,stimuli/stim_20210519_power2amp/equal_lnn_AM2.5Hz_s55_43.m4a,,,
,,,,,,,,,,,,40062,2021-05-24_19h00.52.771,judgeSpeechMusic_20210519_logNormShiftAmp_mXs,2020.1.2,MacIntel,60,,,,,,,,,,,,,,2,6.488355,,0,0,33,33,123,1,stimuli/stim_20210519_power2amp/equal_lnn_AM4Hz_s35_5.m4a,,,
,,,,,,,,,,,,40062,2021-05-24_19h00.52.771,judgeSpeechMusic_20210519_logNormShiftAmp_mXs,2020.1.2,MacIntel,60,,,,,,,,,,,,,,2,6.723965,,0,0,34,34,17,1,stimuli/stim_20210519_power2amp/equal_lnn_AM1Hz_s25_8.m4a,,,
,,,,,,,,,,,,40062,2021-05-24_19h00.52.771,judgeSpeechMusic_20210519_logNormShiftAmp_mXs,2020.1.2,MacIntel,60,,,,,,,,,,,,,,1,6.44585,,0,0,35,35,143,1,stimuli/stim_20210519_power2amp/equal_lnn_AM4Hz_s55_4.m4a,,,
,,,,,,,,,,,,40062,2021-05-24_19h00.52.771,judgeSpeechMusic_20210519_logNormShiftAmp_mXs,2020.1.2,MacIntel,60,,,,,,,,,,,,,,2,6.724805,,0,0,36,36,115,1,stimuli/stim_20210519_power2amp/equal_lnn_AM4Hz_s25_1.m4a,,,
,,,,,,,,,,,,40062,2021-05-24_19h00.52.771,judgeSpeechMusic_20210519_logNormShiftAmp_mXs,2020.1.2,MacIntel,60,,,,,,,,,,,,,,2,7.1309,,0,0,37,37,63,1,stimuli/stim_20210519_power2amp/equal_lnn_AM2.5Hz_s25_40.m4a,,,
,,,,,,,,,,,,40062,2021-05-24_19h00.52.771,judgeSpeechMusic_20210519_logNormShiftAmp_mXs,2020.1.2,MacIntel,60,,,,,,,,,,,,,,1,6.29579,,0,0,38,38,11,1,stimuli/stim_20210519_power2amp/equal_lnn_AM1Hz_s25_33.m4a,,,
,,,,,,,,,,,,40062,2021-05-24_19h00.52.771,judgeSpeechMusic_20210519_logNormShiftAmp_mXs,2020.1.2,MacIntel,60,,,,,,,,,,,,,,1,6.92961,,0,0,39,39,28,1,stimuli/stim_20210519_power2amp/equal_lnn_AM1Hz_s35_11.m4a,,,
,,,,,,,,,,,,40062,2021-05-24_19h00.52.771,judgeSpeechMusic_20210519_logNormShiftAmp_mXs,2020.1.2,MacIntel,60,,,,,,,,,,,,,,2,6.074045,,0,0,40,40,75,1,stimuli/stim_20210519_power2amp/equal_lnn_AM2.5Hz_s35_6.m4a,,,
,,,,,,,,,,,,40062,2021-05-24_19h00.52.771,judgeSpeechMusic_20210519_logNormShiftAmp_mXs,2020.1.2,MacIntel,60,,,,,,,,,,,,,,1,6.40589,,0,0,41,41,113,1,stimuli/stim_20210519_power2amp/equal_lnn_AM4Hz_s25_24.m4a,,,
,,,,,,,,,,,,40062,2021-05-24_19h00.52.771,judgeSpeechMusic_20210519_logNormShiftAmp_mXs,2020.1.2,MacIntel,60,,,,,,,,,,,,,,2,7.62693,,0,0,42,42,66,1,stimuli/stim_20210519_power2amp/equal_lnn_AM2.5Hz_s25_44.m4a,,,
,,,,,,,,,,,,40062,2021-05-24_19h00.52.771,judgeSpeechMusic_20210519_logNormShiftAmp_mXs,2020.1.2,MacIntel,60,,,,,,,,,,,,,,2,9.81068,,0,0,43,43,73,1,stimuli/stim_20210519_power2amp/equal_lnn_AM2.5Hz_s35_29.m4a,,,
,,,,,,,,,,,,40062,2021-05-24_19h00.52.771,judgeSpeechMusic_20210519_logNormShiftAmp_mXs,2020.1.2,MacIntel,60,,,,,,,,,,,,,,2,9.054535,,0,0,44,44,147,1,stimuli/stim_20210519_power2amp/equal_lnn_AM4Hz_s55_10.m4a,,,
,,,,,,,,,,,,40062,2021-05-24_19h00.52.771,judgeSpeechMusic_20210519_logNormShiftAmp_mXs,2020.1.2,MacIntel,60,,,,,,,,,,,,,,2,6.44434,,0,0,45,45,36,1,stimuli/stim_20210519_power2amp/equal_lnn_AM1Hz_s45_36.m4a,,,
,,,,,,,,,,,,40062,2021-05-24_19h00.52.771,judgeSpeechMusic_20210519_logNormShiftAmp_mXs,2020.1.2,MacIntel,60,,,,,,,,,,,,,,2,14.83778,,0,0,46,46,64,1,stimuli/stim_20210519_power2amp/equal_lnn_AM2.5Hz_s25_42.m4a,,,
,,,,,,,,,,,,40062,2021-05-24_19h00.52.771,judgeSpeechMusic_20210519_logNormShiftAmp_mXs,2020.1.2,MacIntel,60,,,,,,,,,,,,,,2,16.34204,,0,0,47,47,45,1,stimuli/stim_20210519_power2amp/equal_lnn_AM1Hz_s55_15.m4a,,,
,,,,,,,,,,,,40062,2021-05-24_19h00.52.771,judgeSpeechMusic_20210519_logNormShiftAmp_mXs,2020.1.2,MacIntel,60,,,,,,,,,,,,,,2,6.989845,,0,0,48,48,106,1,stimuli/stim_20210519_power2amp/equal_lnn_AM4Hz_s15_40.m4a,,,
,,,,,,,,,,,,40062,2021-05-24_19h00.52.771,judgeSpeechMusic_20210519_logNormShiftAmp_mXs,2020.1.2,MacIntel,60,,,,,,,,,,,,,,2,6.890765,,0,0,49,49,109,1,stimuli/stim_20210519_power2amp/equal_lnn_AM4Hz_s15_6.m4a,,,
,,,,,,,,,,,,40062,2021-05-24_19h00.52.771,judgeSpeechMusic_20210519_logNormShiftAmp_mXs,2020.1.2,MacIntel,60,,,,,,,,,,,,,,1,11.22612,,0,0,50,50,51,1,stimuli/stim_20210519_power2amp/equal_lnn_AM2.5Hz_s15_1.m4a,,,
,,,,,,,,,,,,40062,2021-05-24_19h00.52.771,judgeSpeechMusic_20210519_logNormShiftAmp_mXs,2020.1.2,MacIntel,60,,,,,,,,,,,,,,2,6.277675,,0,0,51,51,61,1,stimuli/stim_20210519_power2amp/equal_lnn_AM2.5Hz_s25_17.m4a,,,
,,,,,,,,,,,,40062,2021-05-24_19h00.52.771,judgeSpeechMusic_20210519_logNormShiftAmp_mXs,2020.1.2,MacIntel,60,,,,,,,,,,,,,,2,6.24232,,0,0,52,52,129,1,stimuli/stim_20210519_power2amp/equal_lnn_AM4Hz_s35_42.m4a,,,
,,,,,,,,,,,,40062,2021-05-24_19h00.52.771,judgeSpeechMusic_20210519_logNormShiftAmp_mXs,2020.1.2,MacIntel,60,,,,,,,,,,,,,,2,6.36383,,0,0,53,53,21,1,stimuli/stim_20210519_power2amp/equal_lnn_AM1Hz_s35_30.m4a,,,
,,,,,,,,,,,,40062,2021-05-24_19h00.52.771,judgeSpeechMusic_20210519_logNormShiftAmp_mXs,2020.1.2,MacIntel,60,,,,,,,,,,,,,,2,13.90694,,0,0,54,54,95,1,stimuli/stim_20210519_power2amp/equal_lnn_AM2.5Hz_s55_45.m4a,,,
,,,,,,,,,,,,40062,2021-05-24_19h00.52.771,judgeSpeechMusic_20210519_logNormShiftAmp_mXs,2020.1.2,MacIntel,60,,,,,,,,,,,,,,2,7.81416,,0,0,55,55,29,1,stimuli/stim_20210519_power2amp/equal_lnn_AM1Hz_s35_43.m4a,,,
,,,,,,,,,,,,40062,2021-05-24_19h00.52.771,judgeSpeechMusic_20210519_logNormShiftAmp_mXs,2020.1.2,MacIntel,60,,,,,,,,,,,,,,2,7.42524,2,1,0,56,56,42,1,stimuli/stim_20210519_power2amp/equal_lnn_AM1Hz_s55_3.m4a,1.86451,,
,,,,,,,,,,,,40062,2021-05-24_19h00.52.771,judgeSpeechMusic_20210519_logNormShiftAmp_mXs,2020.1.2,MacIntel,60,,,,,,,,,,,,,,1,6.12852,,0,0,57,57,124,1,stimuli/stim_20210519_power2amp/equal_lnn_AM4Hz_s35_50.m4a,,,
,,,,,,,,,,,,40062,2021-05-24_19h00.52.771,judgeSpeechMusic_20210519_logNormShiftAmp_mXs,2020.1.2,MacIntel,60,,,,,,,,,,,,,,2,7.895505,,0,0,58,58,30,1,stimuli/stim_20210519_power2amp/equal_lnn_AM1Hz_s45_25.m4a,,,
,,,,,,,,,,,,40062,2021-05-24_19h00.52.771,judgeSpeechMusic_20210519_logNormShiftAmp_mXs,2020.1.2,MacIntel,60,,,,,,,,,,,,,,1,6.242385,,0,0,59,59,132,1,stimuli/stim_20210519_power2amp/equal_lnn_AM4Hz_s45_6.m4a,,,
,,,,,,,,,,,,40062,2021-05-24_19h00.52.771,judgeSpeechMusic_20210519_logNormShiftAmp_mXs,2020.1.2,MacIntel,60,,,,,,,,,,,,,,2,9.452845,,0,0,60,60,54,1,stimuli/stim_20210519_power2amp/equal_lnn_AM2.5Hz_s15_36.m4a,,,
,,,,,,,,,,,,40062,2021-05-24_19h00.52.771,judgeSpeechMusic_20210519_logNormShiftAmp_mXs,2020.1.2,MacIntel,60,,,,,,,,,,,,,,2,7.360455,,0,0,61,61,0,1,stimuli/stim_20210519_power2amp/equal_lnn_AM1Hz_s15_37.m4a,,,
,,,,,,,,,,,,40062,2021-05-24_19h00.52.771,judgeSpeechMusic_20210519_logNormShiftAmp_mXs,2020.1.2,MacIntel,60,,,,,,,,,,,,,,1,6.974215,,0,0,62,62,49,1,stimuli/stim_20210519_power2amp/equal_lnn_AM1Hz_s55_50.m4a,,,
,,,,,,,,,,,,40062,2021-05-24_19h00.52.771,judgeSpeechMusic_20210519_logNormShiftAmp_mXs,2020.1.2,MacIntel,60,,,,,,,,,,,,,,1,16.03158,,0,0,63,63,119,1,stimuli/stim_20210519_power2amp/equal_lnn_AM4Hz_s25_2.m4a,,,
,,,,,,,,,,,,40062,2021-05-24_19h00.52.771,judgeSpeechMusic_20210519_logNormShiftAmp_mXs,2020.1.2,MacIntel,60,,,,,,,,,,,,,,2,13.34253,,0,0,64,64,12,1,stimuli/stim_20210519_power2amp/equal_lnn_AM1Hz_s25_43.m4a,,,
,,,,,,,,,,,,40062,2021-05-24_19h00.52.771,judgeSpeechMusic_20210519_logNormShiftAmp_mXs,2020.1.2,MacIntel,60,,,,,,,,,,,,,,1,9.810365,,0,0,65,65,137,1,stimuli/stim_20210519_power2amp/equal_lnn_AM4Hz_s45_37.m4a,,,
,,,,,,,,,,,,40062,2021-05-24_19h00.52.771,judgeSpeechMusic_20210519_logNormShiftAmp_mXs,2020.1.2,MacIntel,60,,,,,,,,,,,,,,2,14.110045,,0,0,66,66,47,1,stimuli/stim_20210519_power2amp/equal_lnn_AM1Hz_s55_26.m4a,,,
,,,,,,,,,,,,40062,2021-05-24_19h00.52.771,judgeSpeechMusic_20210519_logNormShiftAmp_mXs,2020.1.2,MacIntel,60,,,,,,,,,,,,,,1,7.095145,,0,0,67,67,90,1,stimuli/stim_20210519_power2amp/equal_lnn_AM2.5Hz_s55_38.m4a,,,
,,,,,,,,,,,,40062,2021-05-24_19h00.52.771,judgeSpeechMusic_20210519_logNormShiftAmp_mXs,2020.1.2,MacIntel,60,,,,,,,,,,,,,,2,18.738645,,0,0,68,68,13,1,stimuli/stim_20210519_power2amp/equal_lnn_AM1Hz_s25_49.m4a,,,
,,,,,,,,,,,,40062,2021-05-24_19h00.52.771,judgeSpeechMusic_20210519_logNormShiftAmp_mXs,2020.1.2,MacIntel,60,,,,,,,,,,,,,,2,6.514635,,0,0,69,69,7,1,stimuli/stim_20210519_power2amp/equal_lnn_AM1Hz_s15_33.m4a,,,
,,,,,,,,,,,,40062,2021-05-24_19h00.52.771,judgeSpeechMusic_20210519_logNormShiftAmp_mXs,2020.1.2,MacIntel,60,,,,,,,,,,,,,,2,9.496655,,0,0,70,70,41,1,stimuli/stim_20210519_power2amp/equal_lnn_AM1Hz_s55_11.m4a,,,
,,,,,,,,,,,,40062,2021-05-24_19h00.52.771,judgeSpeechMusic_20210519_logNormShiftAmp_mXs,2020.1.2,MacIntel,60,,,,,,,,,,,,,,1,6.42818,,0,0,71,71,84,1,stimuli/stim_20210519_power2amp/equal_lnn_AM2.5Hz_s45_12.m4a,,,
,,,,,,,,,,,,40062,2021-05-24_19h00.52.771,judgeSpeechMusic_20210519_logNormShiftAmp_mXs,2020.1.2,MacIntel,60,,,,,,,,,,,,,,1,7.79302,,0,0,72,72,112,1,stimuli/stim_20210519_power2amp/equal_lnn_AM4Hz_s25_35.m4a,,,
,,,,,,,,,,,,40062,2021-05-24_19h00.52.771,judgeSpeechMusic_20210519_logNormShiftAmp_mXs,2020.1.2,MacIntel,60,,,,,,,,,,,,,,2,6.39266,,0,0,73,73,103,1,stimuli/stim_20210519_power2amp/equal_lnn_AM4Hz_s15_7.m4a,,,
,,,,,,,,,,,,40062,2021-05-24_19h00.52.771,judgeSpeechMusic_20210519_logNormShiftAmp_mXs,2020.1.2,MacIntel,60,,,,,,,,,,,,,,2,6.35779,,0,0,74,74,120,1,stimuli/stim_20210519_power2amp/equal_lnn_AM4Hz_s35_4.m4a,,,
,,,,,,,,,,,,40062,2021-05-24_19h00.52.771,judgeSpeechMusic_20210519_logNormShiftAmp_mXs,2020.1.2,MacIntel,60,,,,,,,,,,,,,,2,5.76161,,0,0,75,75,8,1,stimuli/stim_20210519_power2amp/equal_lnn_AM1Hz_s15_50.m4a,,,
,,,,,,,,,,,,40062,2021-05-24_19h00.52.771,judgeSpeechMusic_20210519_logNormShiftAmp_mXs,2020.1.2,MacIntel,60,,,,,,,,,,,,,,1,6.072315,1,1,0,76,76,101,1,stimuli/stim_20210519_power2amp/equal_lnn_AM4Hz_s15_19.m4a,1.19822,,
,,,,,,,,,,,,40062,2021-05-24_19h00.52.771,judgeSpeechMusic_20210519_logNormShiftAmp_mXs,2020.1.2,MacIntel,60,,,,,,,,,,,,,,2,7.07619,,0,0,77,77,141,1,stimuli/stim_20210519_power2amp/equal_lnn_AM4Hz_s55_23.m4a,,,
,,,,,,,,,,,,40062,2021-05-24_19h00.52.771,judgeSpeechMusic_20210519_logNormShiftAmp_mXs,2020.1.2,MacIntel,60,,,,,,,,,,,,,,2,6.612135,,0,0,78,78,59,1,stimuli/stim_20210519_power2amp/equal_lnn_AM2.5Hz_s15_26.m4a,,,
,,,,,,,,,,,,40062,2021-05-24_19h00.52.771,judgeSpeechMusic_20210519_logNormShiftAmp_mXs,2020.1.2,MacIntel,60,,,,,,,,,,,,,,2,7.059235,,0,0,79,79,35,1,stimuli/stim_20210519_power2amp/equal_lnn_AM1Hz_s45_47.m4a,,,
,,,,,,,,,,,,40062,2021-05-24_19h00.52.771,judgeSpeechMusic_20210519_logNormShiftAmp_mXs,2020.1.2,MacIntel,60,,,,,,,,,,,,,,2,8.091145,,0,0,80,80,110,1,stimuli/stim_20210519_power2amp/equal_lnn_AM4Hz_s25_34.m4a,,,
,,,,,,,,,,,,40062,2021-05-24_19h00.52.771,judgeSpeechMusic_20210519_logNormShiftAmp_mXs,2020.1.2,MacIntel,60,,,,,,,,,,,,,,2,6.72741,,0,0,81,81,117,1,stimuli/stim_20210519_power2amp/equal_lnn_AM4Hz_s25_44.m4a,,,
,,,,,,,,,,,,40062,2021-05-24_19h00.52.771,judgeSpeechMusic_20210519_logNormShiftAmp_mXs,2020.1.2,MacIntel,60,,,,,,,,,,,,,,2,6.691865,,0,0,82,82,89,1,stimuli/stim_20210519_power2amp/equal_lnn_AM2.5Hz_s45_2.m4a,,,
,,,,,,,,,,,,40062,2021-05-24_19h00.52.771,judgeSpeechMusic_20210519_logNormShiftAmp_mXs,2020.1.2,MacIntel,60,,,,,,,,,,,,,,2,6.09115,,0,0,83,83,79,1,stimuli/stim_20210519_power2amp/equal_lnn_AM2.5Hz_s35_18.m4a,,,
,,,,,,,,,,,,40062,2021-05-24_19h00.52.771,judgeSpeechMusic_20210519_logNormShiftAmp_mXs,2020.1.2,MacIntel,60,,,,,,,,,,,,,,2,6.442775,,0,0,84,84,43,1,stimuli/stim_20210519_power2amp/equal_lnn_AM1Hz_s55_14.m4a,,,
,,,,,,,,,,,,40062,2021-05-24_19h00.52.771,judgeSpeechMusic_20210519_logNormShiftAmp_mXs,2020.1.2,MacIntel,60,,,,,,,,,,,,,,1,5.87884,,0,0,85,85,100,1,stimuli/stim_20210519_power2amp/equal_lnn_AM4Hz_s15_43.m4a,,,
,,,,,,,,,,,,40062,2021-05-24_19h00.52.771,judgeSpeechMusic_20210519_logNormShiftAmp_mXs,2020.1.2,MacIntel,60,,,,,,,,,,,,,,2,7.35799,,0,0,86,86,92,1,stimuli/stim_20210519_power2amp/equal_lnn_AM2.5Hz_s55_49.m4a,,,
,,,,,,,,,,,,40062,2021-05-24_19h00.52.771,judgeSpeechMusic_20210519_logNormShiftAmp_mXs,2020.1.2,MacIntel,60,,,,,,,,,,,,,,2,8.77556,,0,0,87,87,88,1,stimuli/stim_20210519_power2amp/equal_lnn_AM2.5Hz_s45_15.m4a,,,
,,,,,,,,,,,,40062,2021-05-24_19h00.52.771,judgeSpeechMusic_20210519_logNormShiftAmp_mXs,2020.1.2,MacIntel,60,,,,,,,,,,,,,,2,6.9429,,0,0,88,88,39,1,stimuli/stim_20210519_power2amp/equal_lnn_AM1Hz_s45_45.m4a,,,
,,,,,,,,,,,,40062,2021-05-24_19h00.52.771,judgeSpeechMusic_20210519_logNormShiftAmp_mXs,2020.1.2,MacIntel,60,,,,,,,,,,,,,,1,5.85943,,0,0,89,89,74,1,stimuli/stim_20210519_power2amp/equal_lnn_AM2.5Hz_s35_43.m4a,,,
,,,,,,,,,,,,40062,2021-05-24_19h00.52.771,judgeSpeechMusic_20210519_logNormShiftAmp_mXs,2020.1.2,MacIntel,60,,,,,,,,,,,,,,1,6.338455,,0,0,90,90,114,1,stimuli/stim_20210519_power2amp/equal_lnn_AM4Hz_s25_48.m4a,,,
,,,,,,,,,,,,40062,2021-05-24_19h00.52.771,judgeSpeechMusic_20210519_logNormShiftAmp_mXs,2020.1.2,MacIntel,60,,,,,,,,,,,,,,2,18.665635,,0,0,91,91,136,1,stimuli/stim_20210519_power2amp/equal_lnn_AM4Hz_s45_24.m4a,,,
,,,,,,,,,,,,40062,2021-05-24_19h00.52.771,judgeSpeechMusic_20210519_logNormShiftAmp_mXs,2020.1.2,MacIntel,60,,,,,,,,,,,,,,2,9.59662,,0,0,92,92,144,1,stimuli/stim_20210519_power2amp/equal_lnn_AM4Hz_s55_1.m4a,,,
,,,,,,,,,,,,40062,2021-05-24_19h00.52.771,judgeSpeechMusic_20210519_logNormShiftAmp_mXs,2020.1.2,MacIntel,60,,,,,,,,,,,,,,2,11.991895,,0,0,93,93,32,1,stimuli/stim_20210519_power2amp/equal_lnn_AM1Hz_s45_11.m4a,,,
,,,,,,,,,,,,40062,2021-05-24_19h00.52.771,judgeSpeechMusic_20210519_logNormShiftAmp_mXs,2020.1.2,MacIntel,60,,,,,,,,,,,,,,2,18.39805,,0,0,94,94,93,1,stimuli/stim_20210519_power2amp/equal_lnn_AM2.5Hz_s55_22.m4a,,,
,,,,,,,,,,,,40062,2021-05-24_19h00.52.771,judgeSpeechMusic_20210519_logNormShiftAmp_mXs,2020.1.2,MacIntel,60,,,,,,,,,,,,,,2,28.99623,,0,0,95,95,6,1,stimuli/stim_20210519_power2amp/equal_lnn_AM1Hz_s15_26.m4a,,,
,,,,,,,,,,,,40062,2021-05-24_19h00.52.771,judgeSpeechMusic_20210519_logNormShiftAmp_mXs,2020.1.2,MacIntel,60,,,,,,,,,,,,,,2,6.54558,,0,0,96,96,48,1,stimuli/stim_20210519_power2amp/equal_lnn_AM1Hz_s55_23.m4a,,,
,,,,,,,,,,,,40062,2021-05-24_19h00.52.771,judgeSpeechMusic_20210519_logNormShiftAmp_mXs,2020.1.2,MacIntel,60,,,,,,,,,,,,,,2,10.126895,,0,0,97,97,98,1,stimuli/stim_20210519_power2amp/equal_lnn_AM2.5Hz_s55_1.m4a,,,
,,,,,,,,,,,,40062,2021-05-24_19h00.52.771,judgeSpeechMusic_20210519_logNormShiftAmp_mXs,2020.1.2,MacIntel,60,,,,,,,,,,,,,,1,7.92163,,0,0,98,98,118,1,stimuli/stim_20210519_power2amp/equal_lnn_AM4Hz_s25_6.m4a,,,
,,,,,,,,,,,,40062,2021-05-24_19h00.52.771,judgeSpeechMusic_20210519_logNormShiftAmp_mXs,2020.1.2,MacIntel,60,,,,,,,,,,,,,,2,7.29619,4,1,0,99,99,105,1,stimuli/stim_20210519_power2amp/equal_lnn_AM4Hz_s15_41.m4a,2.35775,,
,,,,,,,,,,,,40062,2021-05-24_19h00.52.771,judgeSpeechMusic_20210519_logNormShiftAmp_mXs,2020.1.2,MacIntel,60,,,,,,,,,,,,,,2,5.722665,,0,0,100,100,44,1,stimuli/stim_20210519_power2amp/equal_lnn_AM1Hz_s55_25.m4a,,,
,,,,,,,,,,,,40062,2021-05-24_19h00.52.771,judgeSpeechMusic_20210519_logNormShiftAmp_mXs,2020.1.2,MacIntel,60,,,,,,,,,,,,,,2,5.874905,,0,0,101,101,97,1,stimuli/stim_20210519_power2amp/equal_lnn_AM2.5Hz_s55_33.m4a,,,
,,,,,,,,,,,,40062,2021-05-24_19h00.52.771,judgeSpeechMusic_20210519_logNormShiftAmp_mXs,2020.1.2,MacIntel,60,,,,,,,,,,,,,,2,6.613015,,0,0,102,102,50,1,stimuli/stim_20210519_power2amp/equal_lnn_AM2.5Hz_s15_49.m4a,,,
,,,,,,,,,,,,40062,2021-05-24_19h00.52.771,judgeSpeechMusic_20210519_logNormShiftAmp_mXs,2020.1.2,MacIntel,60,,,,,,,,,,,,,,2,6.161255,,0,0,103,103,111,1,stimuli/stim_20210519_power2amp/equal_lnn_AM4Hz_s25_45.m4a,,,
,,,,,,,,,,,,40062,2021-05-24_19h00.52.771,judgeSpeechMusic_20210519_logNormShiftAmp_mXs,2020.1.2,MacIntel,60,,,,,,,,,,,,,,2,7.28391,,0,0,104,104,33,1,stimuli/stim_20210519_power2amp/equal_lnn_AM1Hz_s45_44.m4a,,,
,,,,,,,,,,,,40062,2021-05-24_19h00.52.771,judgeSpeechMusic_20210519_logNormShiftAmp_mXs,2020.1.2,MacIntel,60,,,,,,,,,,,,,,1,5.9851,,0,0,105,105,127,1,stimuli/stim_20210519_power2amp/equal_lnn_AM4Hz_s35_26.m4a,,,
,,,,,,,,,,,,40062,2021-05-24_19h00.52.771,judgeSpeechMusic_20210519_logNormShiftAmp_mXs,2020.1.2,MacIntel,60,,,,,,,,,,,,,,2,6.5947,,0,0,106,106,107,1,stimuli/stim_20210519_power2amp/equal_lnn_AM4Hz_s15_18.m4a,,,
,,,,,,,,,,,,40062,2021-05-24_19h00.52.771,judgeSpeechMusic_20210519_logNormShiftAmp_mXs,2020.1.2,MacIntel,60,,,,,,,,,,,,,,2,8.99394,,0,0,107,107,131,1,stimuli/stim_20210519_power2amp/equal_lnn_AM4Hz_s45_7.m4a,,,
,,,,,,,,,,,,40062,2021-05-24_19h00.52.771,judgeSpeechMusic_20210519_logNormShiftAmp_mXs,2020.1.2,MacIntel,60,,,,,,,,,,,,,,2,9.84898,,0,0,108,108,138,1,stimuli/stim_20210519_power2amp/equal_lnn_AM4Hz_s45_50.m4a,,,
,,,,,,,,,,,,40062,2021-05-24_19h00.52.771,judgeSpeechMusic_20210519_logNormShiftAmp_mXs,2020.1.2,MacIntel,60,,,,,,,,,,,,,,2,18.99171,,0,0,109,109,122,1,stimuli/stim_20210519_power2amp/equal_lnn_AM4Hz_s35_9.m4a,,,
,,,,,,,,,,,,40062,2021-05-24_19h00.52.771,judgeSpeechMusic_20210519_logNormShiftAmp_mXs,2020.1.2,MacIntel,60,,,,,,,,,,,,,,2,7.54561,,0,0,110,110,125,1,stimuli/stim_20210519_power2amp/equal_lnn_AM4Hz_s35_41.m4a,,,
,,,,,,,,,,,,40062,2021-05-24_19h00.52.771,judgeSpeechMusic_20210519_logNormShiftAmp_mXs,2020.1.2,MacIntel,60,,,,,,,,,,,,,,2,5.88256,,0,0,111,111,60,1,stimuli/stim_20210519_power2amp/equal_lnn_AM2.5Hz_s25_15.m4a,,,
,,,,,,,,,,,,40062,2021-05-24_19h00.52.771,judgeSpeechMusic_20210519_logNormShiftAmp_mXs,2020.1.2,MacIntel,60,,,,,,,,,,,,,,2,7.625385,,0,0,112,112,76,1,stimuli/stim_20210519_power2amp/equal_lnn_AM2.5Hz_s35_37.m4a,,,
,,,,,,,,,,,,40062,2021-05-24_19h00.52.771,judgeSpeechMusic_20210519_logNormShiftAmp_mXs,2020.1.2,MacIntel,60,,,,,,,,,,,,,,2,13.60982,,0,0,113,113,5,1,stimuli/stim_20210519_power2amp/equal_lnn_AM1Hz_s15_21.m4a,,,
,,,,,,,,,,,,40062,2021-05-24_19h00.52.771,judgeSpeechMusic_20210519_logNormShiftAmp_mXs,2020.1.2,MacIntel,60,,,,,,,,,,,,,,2,8.560635,,0,0,114,114,142,1,stimuli/stim_20210519_power2amp/equal_lnn_AM4Hz_s55_49.m4a,,,
,,,,,,,,,,,,40062,2021-05-24_19h00.52.771,judgeSpeechMusic_20210519_logNormShiftAmp_mXs,2020.1.2,MacIntel,60,,,,,,,,,,,,,,2,6.098515,,0,0,115,115,96,1,stimuli/stim_20210519_power2amp/equal_lnn_AM2.5Hz_s55_27.m4a,,,
,,,,,,,,,,,,40062,2021-05-24_19h00.52.771,judgeSpeechMusic_20210519_logNormShiftAmp_mXs,2020.1.2,MacIntel,60,,,,,,,,,,,,,,2,5.980255,,0,0,116,116,87,1,stimuli/stim_20210519_power2amp/equal_lnn_AM2.5Hz_s45_1.m4a,,,
,,,,,,,,,,,,40062,2021-05-24_19h00.52.771,judgeSpeechMusic_20210519_logNormShiftAmp_mXs,2020.1.2,MacIntel,60,,,,,,,,,,,,,,2,5.995805,,0,0,117,117,128,1,stimuli/stim_20210519_power2amp/equal_lnn_AM4Hz_s35_39.m4a,,,
,,,,,,,,,,,,40062,2021-05-24_19h00.52.771,judgeSpeechMusic_20210519_logNormShiftAmp_mXs,2020.1.2,MacIntel,60,,,,,,,,,,,,,,2,5.996255,,0,0,118,118,34,1,stimuli/stim_20210519_power2amp/equal_lnn_AM1Hz_s45_1.m4a,,,
,,,,,,,,,,,,40062,2021-05-24_19h00.52.771,judgeSpeechMusic_20210519_logNormShiftAmp_mXs,2020.1.2,MacIntel,60,,,,,,,,,,,,,,2,5.873085,,0,0,119,119,62,1,stimuli/stim_20210519_power2amp/equal_lnn_AM2.5Hz_s25_38.m4a,,,
,,,,,,,,,,,,40062,2021-05-24_19h00.52.771,judgeSpeechMusic_20210519_logNormShiftAmp_mXs,2020.1.2,MacIntel,60,,,,,,,,,,,,,,2,6.028935,,0,0,120,120,86,1,stimuli/stim_20210519_power2amp/equal_lnn_AM2.5Hz_s45_29.m4a,,,
,,,,,,,,,,,,40062,2021-05-24_19h00.52.771,judgeSpeechMusic_20210519_logNormShiftAmp_mXs,2020.1.2,MacIntel,60,,,,,,,,,,,,,,2,8.171605,,0,0,121,121,78,1,stimuli/stim_20210519_power2amp/equal_lnn_AM2.5Hz_s35_25.m4a,,,
,,,,,,,,,,,,40062,2021-05-24_19h00.52.771,judgeSpeechMusic_20210519_logNormShiftAmp_mXs,2020.1.2,MacIntel,60,,,,,,,,,,,,,,2,10.764095,4,1,0,122,122,53,1,stimuli/stim_20210519_power2amp/equal_lnn_AM2.5Hz_s15_4.m4a,1.70022,,
,,,,,,,,,,,,40062,2021-05-24_19h00.52.771,judgeSpeechMusic_20210519_logNormShiftAmp_mXs,2020.1.2,MacIntel,60,,,,,,,,,,,,,,2,7.060635,,0,0,123,123,83,1,stimuli/stim_20210519_power2amp/equal_lnn_AM2.5Hz_s45_36.m4a,,,
,,,,,,,,,,,,40062,2021-05-24_19h00.52.771,judgeSpeechMusic_20210519_logNormShiftAmp_mXs,2020.1.2,MacIntel,60,,,,,,,,,,,,,,2,6.049025,,0,0,124,124,19,1,stimuli/stim_20210519_power2amp/equal_lnn_AM1Hz_s25_28.m4a,,,
,,,,,,,,,,,,40062,2021-05-24_19h00.52.771,judgeSpeechMusic_20210519_logNormShiftAmp_mXs,2020.1.2,MacIntel,60,,,,,,,,,,,,,,2,6.37105,,0,0,125,125,149,1,stimuli/stim_20210519_power2amp/equal_lnn_AM4Hz_s55_47.m4a,,,
,,,,,,,,,,,,40062,2021-05-24_19h00.52.771,judgeSpeechMusic_20210519_logNormShiftAmp_mXs,2020.1.2,MacIntel,60,,,,,,,,,,,,,,2,6.439195,,0,0,126,126,77,1,stimuli/stim_20210519_power2amp/equal_lnn_AM2.5Hz_s35_40.m4a,,,
,,,,,,,,,,,,40062,2021-05-24_19h00.52.771,judgeSpeechMusic_20210519_logNormShiftAmp_mXs,2020.1.2,MacIntel,60,,,,,,,,,,,,,,2,7.223965,,0,0,127,127,26,1,stimuli/stim_20210519_power2amp/equal_lnn_AM1Hz_s35_16.m4a,,,
,,,,,,,,,,,,40062,2021-05-24_19h00.52.771,judgeSpeechMusic_20210519_logNormShiftAmp_mXs,2020.1.2,MacIntel,60,,,,,,,,,,,,,,1,7.559955,,0,0,128,128,56,1,stimuli/stim_20210519_power2amp/equal_lnn_AM2.5Hz_s15_27.m4a,,,
,,,,,,,,,,,,40062,2021-05-24_19h00.52.771,judgeSpeechMusic_20210519_logNormShiftAmp_mXs,2020.1.2,MacIntel,60,,,,,,,,,,,,,,2,8.128675,,0,0,129,129,25,1,stimuli/stim_20210519_power2amp/equal_lnn_AM1Hz_s35_46.m4a,,,
,,,,,,,,,,,,40062,2021-05-24_19h00.52.771,judgeSpeechMusic_20210519_logNormShiftAmp_mXs,2020.1.2,MacIntel,60,,,,,,,,,,,,,,2,6.449205,,0,0,130,130,104,1,stimuli/stim_20210519_power2amp/equal_lnn_AM4Hz_s15_45.m4a,,,
,,,,,,,,,,,,40062,2021-05-24_19h00.52.771,judgeSpeechMusic_20210519_logNormShiftAmp_mXs,2020.1.2,MacIntel,60,,,,,,,,,,,,,,2,7.662275,,0,0,131,131,72,1,stimuli/stim_20210519_power2amp/equal_lnn_AM2.5Hz_s35_11.m4a,,,
,,,,,,,,,,,,40062,2021-05-24_19h00.52.771,judgeSpeechMusic_20210519_logNormShiftAmp_mXs,2020.1.2,MacIntel,60,,,,,,,,,,,,,,2,6.058595,,0,0,132,132,82,1,stimuli/stim_20210519_power2amp/equal_lnn_AM2.5Hz_s45_14.m4a,,,
,,,,,,,,,,,,40062,2021-05-24_19h00.52.771,judgeSpeechMusic_20210519_logNormShiftAmp_mXs,2020.1.2,MacIntel,60,,,,,,,,,,,,,,2,7.061425,,0,0,133,133,108,1,stimuli/stim_20210519_power2amp/equal_lnn_AM4Hz_s15_47.m4a,,,
,,,,,,,,,,,,40062,2021-05-24_19h00.52.771,judgeSpeechMusic_20210519_logNormShiftAmp_mXs,2020.1.2,MacIntel,60,,,,,,,,,,,,,,2,6.86321,,0,0,134,134,126,1,stimuli/stim_20210519_power2amp/equal_lnn_AM4Hz_s35_24.m4a,,,
,,,,,,,,,,,,40062,2021-05-24_19h00.52.771,judgeSpeechMusic_20210519_logNormShiftAmp_mXs,2020.1.2,MacIntel,60,,,,,,,,,,,,,,2,6.614365,,0,0,135,135,27,1,stimuli/stim_20210519_power2amp/equal_lnn_AM1Hz_s35_19.m4a,,,
,,,,,,,,,,,,40062,2021-05-24_19h00.52.771,judgeSpeechMusic_20210519_logNormShiftAmp_mXs,2020.1.2,MacIntel,60,,,,,,,,,,,,,,1,7.90844,,0,0,136,136,4,1,stimuli/stim_20210519_power2amp/equal_lnn_AM1Hz_s15_9.m4a,,,
,,,,,,,,,,,,40062,2021-05-24_19h00.52.771,judgeSpeechMusic_20210519_logNormShiftAmp_mXs,2020.1.2,MacIntel,60,,,,,,,,,,,,,,1,6.609475,,0,0,137,137,102,1,stimuli/stim_20210519_power2amp/equal_lnn_AM4Hz_s15_34.m4a,,,
,,,,,,,,,,,,40062,2021-05-24_19h00.52.771,judgeSpeechMusic_20210519_logNormShiftAmp_mXs,2020.1.2,MacIntel,60,,,,,,,,,,,,,,2,7.740855,,0,0,138,138,99,1,stimuli/stim_20210519_power2amp/equal_lnn_AM2.5Hz_s55_26.m4a,,,
,,,,,,,,,,,,40062,2021-05-24_19h00.52.771,judgeSpeechMusic_20210519_logNormShiftAmp_mXs,2020.1.2,MacIntel,60,,,,,,,,,,,,,,2,42.964245,,0,0,139,139,146,1,stimuli/stim_20210519_power2amp/equal_lnn_AM4Hz_s55_38.m4a,,,
,,,,,,,,,,,,40062,2021-05-24_19h00.52.771,judgeSpeechMusic_20210519_logNormShiftAmp_mXs,2020.1.2,MacIntel,60,,,,,,,,,,,,,,2,6.39285,,0,0,140,140,130,1,stimuli/stim_20210519_power2amp/equal_lnn_AM4Hz_s45_17.m4a,,,
,,,,,,,,,,,,40062,2021-05-24_19h00.52.771,judgeSpeechMusic_20210519_logNormShiftAmp_mXs,2020.1.2,MacIntel,60,,,,,,,,,,,,,,2,6.314825,,0,0,141,141,40,1,stimuli/stim_20210519_power2amp/equal_lnn_AM1Hz_s55_5.m4a,,,
,,,,,,,,,,,,40062,2021-05-24_19h00.52.771,judgeSpeechMusic_20210519_logNormShiftAmp_mXs,2020.1.2,MacIntel,60,,,,,,,,,,,,,,2,141.093755,,0,0,142,142,94,1,stimuli/stim_20210519_power2amp/equal_lnn_AM2.5Hz_s55_42.m4a,,,
,,,,,,,,,,,,40062,2021-05-24_19h00.52.771,judgeSpeechMusic_20210519_logNormShiftAmp_mXs,2020.1.2,MacIntel,60,,,,,,,,,,,,,,2,6.452205,,0,0,143,143,10,1,stimuli/stim_20210519_power2amp/equal_lnn_AM1Hz_s25_31.m4a,,,
,,,,,,,,,,,,40062,2021-05-24_19h00.52.771,judgeSpeechMusic_20210519_logNormShiftAmp_mXs,2020.1.2,MacIntel,60,,,,,,,,,,,,,,1,9.126705,,0,0,144,144,37,1,stimuli/stim_20210519_power2amp/equal_lnn_AM1Hz_s45_49.m4a,,,
,,,,,,,,,,,,40062,2021-05-24_19h00.52.771,judgeSpeechMusic_20210519_logNormShiftAmp_mXs,2020.1.2,MacIntel,60,,,,,,,,,,,,,,2,7.544715,2,1,0,145,145,2,1,stimuli/stim_20210519_power2amp/equal_lnn_AM1Hz_s15_49.m4a,1.51407,,
,,,,,,,,,,,,40062,2021-05-24_19h00.52.771,judgeSpeechMusic_20210519_logNormShiftAmp_mXs,2020.1.2,MacIntel,60,,,,,,,,,,,,,,2,9.726515,,0,0,146,146,46,1,stimuli/stim_20210519_power2amp/equal_lnn_AM1Hz_s55_37.m4a,,,
,,,,,,,,,,,,40062,2021-05-24_19h00.52.771,judgeSpeechMusic_20210519_logNormShiftAmp_mXs,2020.1.2,MacIntel,60,,,,,,,,,,,,,,1,26.74236,,0,0,147,147,134,1,stimuli/stim_20210519_power2amp/equal_lnn_AM4Hz_s45_38.m4a,,,
,,,,,,,,,,,,40062,2021-05-24_19h00.52.771,judgeSpeechMusic_20210519_logNormShiftAmp_mXs,2020.1.2,MacIntel,60,,,,,,,,,,,,,,2,7.26503,,0,0,148,148,116,1,stimuli/stim_20210519_power2amp/equal_lnn_AM4Hz_s25_43.m4a,,,
,,,,,,,,,,,,40062,2021-05-24_19h00.52.771,judgeSpeechMusic_20210519_logNormShiftAmp_mXs,2020.1.2,MacIntel,60,,,,,,,,,,,,,,2,11.70797,,0,0,149,149,67,1,stimuli/stim_20210519_power2amp/equal_lnn_AM2.5Hz_s25_13.m4a,,,
,,,,,,,,,,,,40062,2021-05-24_19h00.52.771,judgeSpeechMusic_20210519_logNormShiftAmp_mXs,2020.1.2,MacIntel,60,,,,,,,,,,,,,,2,6.25686,,0,1,0,150,126,1,stimuli/stim_20210519_power2amp/equal_lnn_AM4Hz_s35_24.m4a,,,
,,,,,,,,,,,,40062,2021-05-24_19h00.52.771,judgeSpeechMusic_20210519_logNormShiftAmp_mXs,2020.1.2,MacIntel,60,,,,,,,,,,,,,,1,27.49624,,0,1,1,151,50,1,stimuli/stim_20210519_power2amp/equal_lnn_AM2.5Hz_s15_49.m4a,,,
,,,,,,,,,,,,40062,2021-05-24_19h00.52.771,judgeSpeechMusic_20210519_logNormShiftAmp_mXs,2020.1.2,MacIntel,60,,,,,,,,,,,,,,2,13.20977,,0,1,2,152,8,1,stimuli/stim_20210519_power2amp/equal_lnn_AM1Hz_s15_50.m4a,,,
,,,,,,,,,,,,40062,2021-05-24_19h00.52.771,judgeSpeechMusic_20210519_logNormShiftAmp_mXs,2020.1.2,MacIntel,60,,,,,,,,,,,,,,2,6.458045,,0,1,3,153,22,1,stimuli/stim_20210519_power2amp/equal_lnn_AM1Hz_s35_35.m4a,,,
,,,,,,,,,,,,40062,2021-05-24_19h00.52.771,judgeSpeechMusic_20210519_logNormShiftAmp_mXs,2020.1.2,MacIntel,60,,,,,,,,,,,,,,2,9.01363,,0,1,4,154,136,1,stimuli/stim_20210519_power2amp/equal_lnn_AM4Hz_s45_24.m4a,,,
,,,,,,,,,,,,40062,2021-05-24_19h00.52.771,judgeSpeechMusic_20210519_logNormShiftAmp_mXs,2020.1.2,MacIntel,60,,,,,,,,,,,,,,1,6.01413,,0,1,5,155,135,1,stimuli/stim_20210519_power2amp/equal_lnn_AM4Hz_s45_47.m4a,,,
,,,,,,,,,,,,40062,2021-05-24_19h00.52.771,judgeSpeechMusic_20210519_logNormShiftAmp_mXs,2020.1.2,MacIntel,60,,,,,,,,,,,,,,2,7.006065,,0,1,6,156,88,1,stimuli/stim_20210519_power2amp/equal_lnn_AM2.5Hz_s45_15.m4a,,,
,,,,,,,,,,,,40062,2021-05-24_19h00.52.771,judgeSpeechMusic_20210519_logNormShiftAmp_mXs,2020.1.2,MacIntel,60,,,,,,,,,,,,,,2,7.461195,,0,1,7,157,83,1,stimuli/stim_20210519_power2amp/equal_lnn_AM2.5Hz_s45_36.m4a,,,
,,,,,,,,,,,,40062,2021-05-24_19h00.52.771,judgeSpeechMusic_20210519_logNormShiftAmp_mXs,2020.1.2,MacIntel,60,,,,,,,,,,,,,,2,9.995695,,0,1,8,158,33,1,stimuli/stim_20210519_power2amp/equal_lnn_AM1Hz_s45_44.m4a,,,
,,,,,,,,,,,,40062,2021-05-24_19h00.52.771,judgeSpeechMusic_20210519_logNormShiftAmp_mXs,2020.1.2,MacIntel,60,,,,,,,,,,,,,,1,6.77663,,0,1,9,159,133,1,stimuli/stim_20210519_power2amp/equal_lnn_AM4Hz_s45_10.m4a,,,
,,,,,,,,,,,,40062,2021-05-24_19h00.52.771,judgeSpeechMusic_20210519_logNormShiftAmp_mXs,2020.1.2,MacIntel,60,,,,,,,,,,,,,,2,8.54306,,0,1,10,160,137,1,stimuli/stim_20210519_power2amp/equal_lnn_AM4Hz_s45_37.m4a,,,
,,,,,,,,,,,,40062,2021-05-24_19h00.52.771,judgeSpeechMusic_20210519_logNormShiftAmp_mXs,2020.1.2,MacIntel,60,,,,,,,,,,,,,,2,64.648745,,0,1,11,161,42,1,stimuli/stim_20210519_power2amp/equal_lnn_AM1Hz_s55_3.m4a,,,
,,,,,,,,,,,,40062,2021-05-24_19h00.52.771,judgeSpeechMusic_20210519_logNormShiftAmp_mXs,2020.1.2,MacIntel,60,,,,,,,,,,,,,,2,7.54341,,0,1,12,162,45,1,stimuli/stim_20210519_power2amp/equal_lnn_AM1Hz_s55_15.m4a,,,
,,,,,,,,,,,,40062,2021-05-24_19h00.52.771,judgeSpeechMusic_20210519_logNormShiftAmp_mXs,2020.1.2,MacIntel,60,,,,,,,,,,,,,,1,5.85891,,0,1,13,163,73,1,stimuli/stim_20210519_power2amp/equal_lnn_AM2.5Hz_s35_29.m4a,,,
,,,,,,,,,,,,40062,2021-05-24_19h00.52.771,judgeSpeechMusic_20210519_logNormShiftAmp_mXs,2020.1.2,MacIntel,60,,,,,,,,,,,,,,1,5.74849,,0,1,14,164,90,1,stimuli/stim_20210519_power2amp/equal_lnn_AM2.5Hz_s55_38.m4a,,,
,,,,,,,,,,,,40062,2021-05-24_19h00.52.771,judgeSpeechMusic_20210519_logNormShiftAmp_mXs,2020.1.2,MacIntel,60,,,,,,,,,,,,,,2,6.84773,,0,1,15,165,36,1,stimuli/stim_20210519_power2amp/equal_lnn_AM1Hz_s45_36.m4a,,,
,,,,,,,,,,,,40062,2021-05-24_19h00.52.771,judgeSpeechMusic_20210519_logNormShiftAmp_mXs,2020.1.2,MacIntel,60,,,,,,,,,,,,,,2,7.87111,,0,1,16,166,12,1,stimuli/stim_20210519_power2amp/equal_lnn_AM1Hz_s25_43.m4a,,,
,,,,,,,,,,,,40062,2021-05-24_19h00.52.771,judgeSpeechMusic_20210519_logNormShiftAmp_mXs,2020.1.2,MacIntel,60,,,,,,,,,,,,,,2,7.441585,3,1,1,17,167,13,1,stimuli/stim_20210519_power2amp/equal_lnn_AM1Hz_s25_49.m4a,2.929835,,
,,,,,,,,,,,,40062,2021-05-24_19h00.52.771,judgeSpeechMusic_20210519_logNormShiftAmp_mXs,2020.1.2,MacIntel,60,,,,,,,,,,,,,,2,6.76319,,0,1,18,168,0,1,stimuli/stim_20210519_power2amp/equal_lnn_AM1Hz_s15_37.m4a,,,
,,,,,,,,,,,,40062,2021-05-24_19h00.52.771,judgeSpeechMusic_20210519_logNormShiftAmp_mXs,2020.1.2,MacIntel,60,,,,,,,,,,,,,,2,7.47565,,0,1,19,169,34,1,stimuli/stim_20210519_power2amp/equal_lnn_AM1Hz_s45_1.m4a,,,
,,,,,,,,,,,,40062,2021-05-24_19h00.52.771,judgeSpeechMusic_20210519_logNormShiftAmp_mXs,2020.1.2,MacIntel,60,,,,,,,,,,,,,,2,6.52849,,0,1,20,170,63,1,stimuli/stim_20210519_power2amp/equal_lnn_AM2.5Hz_s25_40.m4a,,,
,,,,,,,,,,,,40062,2021-05-24_19h00.52.771,judgeSpeechMusic_20210519_logNormShiftAmp_mXs,2020.1.2,MacIntel,60,,,,,,,,,,,,,,1,7.22706,,0,1,21,171,54,1,stimuli/stim_20210519_power2amp/equal_lnn_AM2.5Hz_s15_36.m4a,,,
,,,,,,,,,,,,40062,2021-05-24_19h00.52.771,judgeSpeechMusic_20210519_logNormShiftAmp_mXs,2020.1.2,MacIntel,60,,,,,,,,,,,,,,1,8.67888,,0,1,22,172,81,1,stimuli/stim_20210519_power2amp/equal_lnn_AM2.5Hz_s45_46.m4a,,,
,,,,,,,,,,,,40062,2021-05-24_19h00.52.771,judgeSpeechMusic_20210519_logNormShiftAmp_mXs,2020.1.2,MacIntel,60,,,,,,,,,,,,,,2,82.93026,,0,1,23,173,141,1,stimuli/stim_20210519_power2amp/equal_lnn_AM4Hz_s55_23.m4a,,,
,,,,,,,,,,,,40062,2021-05-24_19h00.52.771,judgeSpeechMusic_20210519_logNormShiftAmp_mXs,2020.1.2,MacIntel,60,,,,,,,,,,,,,,2,6.137435,,0,1,24,174,35,1,stimuli/stim_20210519_power2amp/equal_lnn_AM1Hz_s45_47.m4a,,,
,,,,,,,,,,,,40062,2021-05-24_19h00.52.771,judgeSpeechMusic_20210519_logNormShiftAmp_mXs,2020.1.2,MacIntel,60,,,,,,,,,,,,,,2,6.880715,,0,1,25,175,25,1,stimuli/stim_20210519_power2amp/equal_lnn_AM1Hz_s35_46.m4a,,,
,,,,,,,,,,,,40062,2021-05-24_19h00.52.771,judgeSpeechMusic_20210519_logNormShiftAmp_mXs,2020.1.2,MacIntel,60,,,,,,,,,,,,,,2,12.256085,,0,1,26,176,134,1,stimuli/stim_20210519_power2amp/equal_lnn_AM4Hz_s45_38.m4a,,,
,,,,,,,,,,,,40062,2021-05-24_19h00.52.771,judgeSpeechMusic_20210519_logNormShiftAmp_mXs,2020.1.2,MacIntel,60,,,,,,,,,,,,,,2,6.14931,,0,1,27,177,27,1,stimuli/stim_20210519_power2amp/equal_lnn_AM1Hz_s35_19.m4a,,,
,,,,,,,,,,,,40062,2021-05-24_19h00.52.771,judgeSpeechMusic_20210519_logNormShiftAmp_mXs,2020.1.2,MacIntel,60,,,,,,,,,,,,,,2,9.88004,,0,1,28,178,120,1,stimuli/stim_20210519_power2amp/equal_lnn_AM4Hz_s35_4.m4a,,,
,,,,,,,,,,,,40062,2021-05-24_19h00.52.771,judgeSpeechMusic_20210519_logNormShiftAmp_mXs,2020.1.2,MacIntel,60,,,,,,,,,,,,,,2,7.34608,,0,1,29,179,119,1,stimuli/stim_20210519_power2amp/equal_lnn_AM4Hz_s25_2.m4a,,,
,,,,,,,,,,,,40062,2021-05-24_19h00.52.771,judgeSpeechMusic_20210519_logNormShiftAmp_mXs,2020.1.2,MacIntel,60,,,,,,,,,,,,,,2,10.24008,,0,1,30,180,43,1,stimuli/stim_20210519_power2amp/equal_lnn_AM1Hz_s55_14.m4a,,,
,,,,,,,,,,,,40062,2021-05-24_19h00.52.771,judgeSpeechMusic_20210519_logNormShiftAmp_mXs,2020.1.2,MacIntel,60,,,,,,,,,,,,,,2,6.494865,,0,1,31,181,145,1,stimuli/stim_20210519_power2amp/equal_lnn_AM4Hz_s55_25.m4a,,,
,,,,,,,,,,,,40062,2021-05-24_19h00.52.771,judgeSpeechMusic_20210519_logNormShiftAmp_mXs,2020.1.2,MacIntel,60,,,,,,,,,,,,,,2,7.629,,0,1,32,182,84,1,stimuli/stim_20210519_power2amp/equal_lnn_AM2.5Hz_s45_12.m4a,,,
,,,,,,,,,,,,40062,2021-05-24_19h00.52.771,judgeSpeechMusic_20210519_logNormShiftAmp_mXs,2020.1.2,MacIntel,60,,,,,,,,,,,,,,2,6.27344,,0,1,33,183,91,1,stimuli/stim_20210519_power2amp/equal_lnn_AM2.5Hz_s55_43.m4a,,,
,,,,,,,,,,,,40062,2021-05-24_19h00.52.771,judgeSpeechMusic_20210519_logNormShiftAmp_mXs,2020.1.2,MacIntel,60,,,,,,,,,,,,,,2,9.21042,,0,1,34,184,26,1,stimuli/stim_20210519_power2amp/equal_lnn_AM1Hz_s35_16.m4a,,,
,,,,,,,,,,,,40062,2021-05-24_19h00.52.771,judgeSpeechMusic_20210519_logNormShiftAmp_mXs,2020.1.2,MacIntel,60,,,,,,,,,,,,,,2,57.946635,,0,1,35,185,30,1,stimuli/stim_20210519_power2amp/equal_lnn_AM1Hz_s45_25.m4a,,,
,,,,,,,,,,,,40062,2021-05-24_19h00.52.771,judgeSpeechMusic_20210519_logNormShiftAmp_mXs,2020.1.2,MacIntel,60,,,,,,,,,,,,,,2,29.73725,,0,1,36,186,117,1,stimuli/stim_20210519_power2amp/equal_lnn_AM4Hz_s25_44.m4a,,,
,,,,,,,,,,,,40062,2021-05-24_19h00.52.771,judgeSpeechMusic_20210519_logNormShiftAmp_mXs,2020.1.2,MacIntel,60,,,,,,,,,,,,,,2,6.36298,,0,1,37,187,140,1,stimuli/stim_20210519_power2amp/equal_lnn_AM4Hz_s55_19.m4a,,,
,,,,,,,,,,,,40062,2021-05-24_19h00.52.771,judgeSpeechMusic_20210519_logNormShiftAmp_mXs,2020.1.2,MacIntel,60,,,,,,,,,,,,,,2,66.430555,,0,1,38,188,29,1,stimuli/stim_20210519_power2amp/equal_lnn_AM1Hz_s35_43.m4a,,,
,,,,,,,,,,,,40062,2021-05-24_19h00.52.771,judgeSpeechMusic_20210519_logNormShiftAmp_mXs,2020.1.2,MacIntel,60,,,,,,,,,,,,,,2,20.84418,2,1,1,39,189,47,1,stimuli/stim_20210519_power2amp/equal_lnn_AM1Hz_s55_26.m4a,1.851665,,
,,,,,,,,,,,,40062,2021-05-24_19h00.52.771,judgeSpeechMusic_20210519_logNormShiftAmp_mXs,2020.1.2,MacIntel,60,,,,,,,,,,,,,,2,7.59274,,0,1,40,190,1,1,stimuli/stim_20210519_power2amp/equal_lnn_AM1Hz_s15_13.m4a,,,
,,,,,,,,,,,,40062,2021-05-24_19h00.52.771,judgeSpeechMusic_20210519_logNormShiftAmp_mXs,2020.1.2,MacIntel,60,,,,,,,,,,,,,,2,19.23086,,0,1,41,191,68,1,stimuli/stim_20210519_power2amp/equal_lnn_AM2.5Hz_s25_4.m4a,,,
,,,,,,,,,,,,40062,2021-05-24_19h00.52.771,judgeSpeechMusic_20210519_logNormShiftAmp_mXs,2020.1.2,MacIntel,60,,,,,,,,,,,,,,2,112.545405,,0,1,42,192,82,1,stimuli/stim_20210519_power2amp/equal_lnn_AM2.5Hz_s45_14.m4a,,,
,,,,,,,,,,,,40062,2021-05-24_19h00.52.771,judgeSpeechMusic_20210519_logNormShiftAmp_mXs,2020.1.2,MacIntel,60,,,,,,,,,,,,,,1,6.310485,,0,1,43,193,23,1,stimuli/stim_20210519_power2amp/equal_lnn_AM1Hz_s35_25.m4a,,,
,,,,,,,,,,,,40062,2021-05-24_19h00.52.771,judgeSpeechMusic_20210519_logNormShiftAmp_mXs,2020.1.2,MacIntel,60,,,,,,,,,,,,,,1,6.05979,,0,1,44,194,70,1,stimuli/stim_20210519_power2amp/equal_lnn_AM2.5Hz_s35_31.m4a,,,
,,,,,,,,,,,,40062,2021-05-24_19h00.52.771,judgeSpeechMusic_20210519_logNormShiftAmp_mXs,2020.1.2,MacIntel,60,,,,,,,,,,,,,,2,6.47788,,0,1,45,195,110,1,stimuli/stim_20210519_power2amp/equal_lnn_AM4Hz_s25_34.m4a,,,
,,,,,,,,,,,,40062,2021-05-24_19h00.52.771,judgeSpeechMusic_20210519_logNormShiftAmp_mXs,2020.1.2,MacIntel,60,,,,,,,,,,,,,,2,6.557005,,0,1,46,196,40,1,stimuli/stim_20210519_power2amp/equal_lnn_AM1Hz_s55_5.m4a,,,
,,,,,,,,,,,,40062,2021-05-24_19h00.52.771,judgeSpeechMusic_20210519_logNormShiftAmp_mXs,2020.1.2,MacIntel,60,,,,,,,,,,,,,,2,6.35771,,0,1,47,197,93,1,stimuli/stim_20210519_power2amp/equal_lnn_AM2.5Hz_s55_22.m4a,,,
,,,,,,,,,,,,40062,2021-05-24_19h00.52.771,judgeSpeechMusic_20210519_logNormShiftAmp_mXs,2020.1.2,MacIntel,60,,,,,,,,,,,,,,2,9.92486,,0,1,48,198,87,1,stimuli/stim_20210519_power2amp/equal_lnn_AM2.5Hz_s45_1.m4a,,,
,,,,,,,,,,,,40062,2021-05-24_19h00.52.771,judgeSpeechMusic_20210519_logNormShiftAmp_mXs,2020.1.2,MacIntel,60,,,,,,,,,,,,,,1,24.40613,,0,1,49,199,143,1,stimuli/stim_20210519_power2amp/equal_lnn_AM4Hz_s55_4.m4a,,,
,,,,,,,,,,,,40062,2021-05-24_19h00.52.771,judgeSpeechMusic_20210519_logNormShiftAmp_mXs,2020.1.2,MacIntel,60,,,,,,,,,,,,,,1,7.00659,,0,1,50,200,53,1,stimuli/stim_20210519_power2amp/equal_lnn_AM2.5Hz_s15_4.m4a,,,
,,,,,,,,,,,,40062,2021-05-24_19h00.52.771,judgeSpeechMusic_20210519_logNormShiftAmp_mXs,2020.1.2,MacIntel,60,,,,,,,,,,,,,,2,10.81079,,0,1,51,201,24,1,stimuli/stim_20210519_power2amp/equal_lnn_AM1Hz_s35_26.m4a,,,
,,,,,,,,,,,,40062,2021-05-24_19h00.52.771,judgeSpeechMusic_20210519_logNormShiftAmp_mXs,2020.1.2,MacIntel,60,,,,,,,,,,,,,,2,10.011,,0,1,52,202,89,1,stimuli/stim_20210519_power2amp/equal_lnn_AM2.5Hz_s45_2.m4a,,,
,,,,,,,,,,,,40062,2021-05-24_19h00.52.771,judgeSpeechMusic_20210519_logNormShiftAmp_mXs,2020.1.2,MacIntel,60,,,,,,,,,,,,,,2,38.864355,,0,1,53,203,111,1,stimuli/stim_20210519_power2amp/equal_lnn_AM4Hz_s25_45.m4a,,,
,,,,,,,,,,,,40062,2021-05-24_19h00.52.771,judgeSpeechMusic_20210519_logNormShiftAmp_mXs,2020.1.2,MacIntel,60,,,,,,,,,,,,,,2,6.81196,,0,1,54,204,62,1,stimuli/stim_20210519_power2amp/equal_lnn_AM2.5Hz_s25_38.m4a,,,
,,,,,,,,,,,,40062,2021-05-24_19h00.52.771,judgeSpeechMusic_20210519_logNormShiftAmp_mXs,2020.1.2,MacIntel,60,,,,,,,,,,,,,,2,7.178185,,0,1,55,205,38,1,stimuli/stim_20210519_power2amp/equal_lnn_AM1Hz_s45_15.m4a,,,
,,,,,,,,,,,,40062,2021-05-24_19h00.52.771,judgeSpeechMusic_20210519_logNormShiftAmp_mXs,2020.1.2,MacIntel,60,,,,,,,,,,,,,,2,6.09465,,0,1,56,206,11,1,stimuli/stim_20210519_power2amp/equal_lnn_AM1Hz_s25_33.m4a,,,
,,,,,,,,,,,,40062,2021-05-24_19h00.52.771,judgeSpeechMusic_20210519_logNormShiftAmp_mXs,2020.1.2,MacIntel,60,,,,,,,,,,,,,,2,7.771955,,0,1,57,207,75,1,stimuli/stim_20210519_power2amp/equal_lnn_AM2.5Hz_s35_6.m4a,,,
,,,,,,,,,,,,40062,2021-05-24_19h00.52.771,judgeSpeechMusic_20210519_logNormShiftAmp_mXs,2020.1.2,MacIntel,60,,,,,,,,,,,,,,2,7.882085,,0,1,58,208,16,1,stimuli/stim_20210519_power2amp/equal_lnn_AM1Hz_s25_24.m4a,,,
,,,,,,,,,,,,40062,2021-05-24_19h00.52.771,judgeSpeechMusic_20210519_logNormShiftAmp_mXs,2020.1.2,MacIntel,60,,,,,,,,,,,,,,2,6.7803,,0,1,59,209,95,1,stimuli/stim_20210519_power2amp/equal_lnn_AM2.5Hz_s55_45.m4a,,,
,,,,,,,,,,,,40062,2021-05-24_19h00.52.771,judgeSpeechMusic_20210519_logNormShiftAmp_mXs,2020.1.2,MacIntel,60,,,,,,,,,,,,,,2,6.710945,,0,1,60,210,52,1,stimuli/stim_20210519_power2amp/equal_lnn_AM2.5Hz_s15_17.m4a,,,
,,,,,,,,,,,,40062,2021-05-24_19h00.52.771,judgeSpeechMusic_20210519_logNormShiftAmp_mXs,2020.1.2,MacIntel,60,,,,,,,,,,,,,,2,6.611725,,0,1,61,211,123,1,stimuli/stim_20210519_power2amp/equal_lnn_AM4Hz_s35_5.m4a,,,
,,,,,,,,,,,,40062,2021-05-24_19h00.52.771,judgeSpeechMusic_20210519_logNormShiftAmp_mXs,2020.1.2,MacIntel,60,,,,,,,,,,,,,,2,6.358145,,0,1,62,212,37,1,stimuli/stim_20210519_power2amp/equal_lnn_AM1Hz_s45_49.m4a,,,
,,,,,,,,,,,,40062,2021-05-24_19h00.52.771,judgeSpeechMusic_20210519_logNormShiftAmp_mXs,2020.1.2,MacIntel,60,,,,,,,,,,,,,,2,22.989885,1,1,1,63,213,48,1,stimuli/stim_20210519_power2amp/equal_lnn_AM1Hz_s55_23.m4a,2.319565,,
,,,,,,,,,,,,40062,2021-05-24_19h00.52.771,judgeSpeechMusic_20210519_logNormShiftAmp_mXs,2020.1.2,MacIntel,60,,,,,,,,,,,,,,1,9.104645,,0,1,64,214,127,1,stimuli/stim_20210519_power2amp/equal_lnn_AM4Hz_s35_26.m4a,,,
,,,,,,,,,,,,40062,2021-05-24_19h00.52.771,judgeSpeechMusic_20210519_logNormShiftAmp_mXs,2020.1.2,MacIntel,60,,,,,,,,,,,,,,2,8.74636,,0,1,65,215,128,1,stimuli/stim_20210519_power2amp/equal_lnn_AM4Hz_s35_39.m4a,,,
,,,,,,,,,,,,40062,2021-05-24_19h00.52.771,judgeSpeechMusic_20210519_logNormShiftAmp_mXs,2020.1.2,MacIntel,60,,,,,,,,,,,,,,2,7.514325,,0,1,66,216,77,1,stimuli/stim_20210519_power2amp/equal_lnn_AM2.5Hz_s35_40.m4a,,,
,,,,,,,,,,,,40062,2021-05-24_19h00.52.771,judgeSpeechMusic_20210519_logNormShiftAmp_mXs,2020.1.2,MacIntel,60,,,,,,,,,,,,,,2,6.5926,,0,1,67,217,57,1,stimuli/stim_20210519_power2amp/equal_lnn_AM2.5Hz_s15_2.m4a,,,
,,,,,,,,,,,,40062,2021-05-24_19h00.52.771,judgeSpeechMusic_20210519_logNormShiftAmp_mXs,2020.1.2,MacIntel,60,,,,,,,,,,,,,,2,8.462215,,0,1,68,218,131,1,stimuli/stim_20210519_power2amp/equal_lnn_AM4Hz_s45_7.m4a,,,
,,,,,,,,,,,,40062,2021-05-24_19h00.52.771,judgeSpeechMusic_20210519_logNormShiftAmp_mXs,2020.1.2,MacIntel,60,,,,,,,,,,,,,,2,8.572495,,0,1,69,219,132,1,stimuli/stim_20210519_power2amp/equal_lnn_AM4Hz_s45_6.m4a,,,
,,,,,,,,,,,,40062,2021-05-24_19h00.52.771,judgeSpeechMusic_20210519_logNormShiftAmp_mXs,2020.1.2,MacIntel,60,,,,,,,,,,,,,,2,5.96111,,0,1,70,220,4,1,stimuli/stim_20210519_power2amp/equal_lnn_AM1Hz_s15_9.m4a,,,
,,,,,,,,,,,,40062,2021-05-24_19h00.52.771,judgeSpeechMusic_20210519_logNormShiftAmp_mXs,2020.1.2,MacIntel,60,,,,,,,,,,,,,,2,6.07327,,0,1,71,221,147,1,stimuli/stim_20210519_power2amp/equal_lnn_AM4Hz_s55_10.m4a,,,
,,,,,,,,,,,,40062,2021-05-24_19h00.52.771,judgeSpeechMusic_20210519_logNormShiftAmp_mXs,2020.1.2,MacIntel,60,,,,,,,,,,,,,,2,6.9157,,0,1,72,222,10,1,stimuli/stim_20210519_power2amp/equal_lnn_AM1Hz_s25_31.m4a,,,
,,,,,,,,,,,,40062,2021-05-24_19h00.52.771,judgeSpeechMusic_20210519_logNormShiftAmp_mXs,2020.1.2,MacIntel,60,,,,,,,,,,,,,,2,9.7269,,0,1,73,223,19,1,stimuli/stim_20210519_power2amp/equal_lnn_AM1Hz_s25_28.m4a,,,
,,,,,,,,,,,,40062,2021-05-24_19h00.52.771,judgeSpeechMusic_20210519_logNormShiftAmp_mXs,2020.1.2,MacIntel,60,,,,,,,,,,,,,,2,6.330145,,0,1,74,224,44,1,stimuli/stim_20210519_power2amp/equal_lnn_AM1Hz_s55_25.m4a,,,
,,,,,,,,,,,,40062,2021-05-24_19h00.52.771,judgeSpeechMusic_20210519_logNormShiftAmp_mXs,2020.1.2,MacIntel,60,,,,,,,,,,,,,,2,7.41983,,0,1,75,225,56,1,stimuli/stim_20210519_power2amp/equal_lnn_AM2.5Hz_s15_27.m4a,,,
,,,,,,,,,,,,40062,2021-05-24_19h00.52.771,judgeSpeechMusic_20210519_logNormShiftAmp_mXs,2020.1.2,MacIntel,60,,,,,,,,,,,,,,2,7.494105,,0,1,76,226,20,1,stimuli/stim_20210519_power2amp/equal_lnn_AM1Hz_s35_33.m4a,,,
,,,,,,,,,,,,40062,2021-05-24_19h00.52.771,judgeSpeechMusic_20210519_logNormShiftAmp_mXs,2020.1.2,MacIntel,60,,,,,,,,,,,,,,1,6.074035,,0,1,77,227,79,1,stimuli/stim_20210519_power2amp/equal_lnn_AM2.5Hz_s35_18.m4a,,,
,,,,,,,,,,,,40062,2021-05-24_19h00.52.771,judgeSpeechMusic_20210519_logNormShiftAmp_mXs,2020.1.2,MacIntel,60,,,,,,,,,,,,,,2,10.51027,,0,1,78,228,118,1,stimuli/stim_20210519_power2amp/equal_lnn_AM4Hz_s25_6.m4a,,,
,,,,,,,,,,,,40062,2021-05-24_19h00.52.771,judgeSpeechMusic_20210519_logNormShiftAmp_mXs,2020.1.2,MacIntel,60,,,,,,,,,,,,,,2,6.3816,,0,1,79,229,46,1,stimuli/stim_20210519_power2amp/equal_lnn_AM1Hz_s55_37.m4a,,,
,,,,,,,,,,,,40062,2021-05-24_19h00.52.771,judgeSpeechMusic_20210519_logNormShiftAmp_mXs,2020.1.2,MacIntel,60,,,,,,,,,,,,,,2,9.56372,,0,1,80,230,9,1,stimuli/stim_20210519_power2amp/equal_lnn_AM1Hz_s15_8.m4a,,,
,,,,,,,,,,,,40062,2021-05-24_19h00.52.771,judgeSpeechMusic_20210519_logNormShiftAmp_mXs,2020.1.2,MacIntel,60,,,,,,,,,,,,,,2,7.029095,,0,1,81,231,7,1,stimuli/stim_20210519_power2amp/equal_lnn_AM1Hz_s15_33.m4a,,,
,,,,,,,,,,,,40062,2021-05-24_19h00.52.771,judgeSpeechMusic_20210519_logNormShiftAmp_mXs,2020.1.2,MacIntel,60,,,,,,,,,,,,,,1,7.32267,,0,1,82,232,142,1,stimuli/stim_20210519_power2amp/equal_lnn_AM4Hz_s55_49.m4a,,,
,,,,,,,,,,,,40062,2021-05-24_19h00.52.771,judgeSpeechMusic_20210519_logNormShiftAmp_mXs,2020.1.2,MacIntel,60,,,,,,,,,,,,,,1,6.165475,1,1,1,83,233,69,1,stimuli/stim_20210519_power2amp/equal_lnn_AM2.5Hz_s25_25.m4a,1.657415,,
,,,,,,,,,,,,40062,2021-05-24_19h00.52.771,judgeSpeechMusic_20210519_logNormShiftAmp_mXs,2020.1.2,MacIntel,60,,,,,,,,,,,,,,1,13.33988,,0,1,84,234,114,1,stimuli/stim_20210519_power2amp/equal_lnn_AM4Hz_s25_48.m4a,,,
,,,,,,,,,,,,40062,2021-05-24_19h00.52.771,judgeSpeechMusic_20210519_logNormShiftAmp_mXs,2020.1.2,MacIntel,60,,,,,,,,,,,,,,2,49.84583,,0,1,85,235,74,1,stimuli/stim_20210519_power2amp/equal_lnn_AM2.5Hz_s35_43.m4a,,,
,,,,,,,,,,,,40062,2021-05-24_19h00.52.771,judgeSpeechMusic_20210519_logNormShiftAmp_mXs,2020.1.2,MacIntel,60,,,,,,,,,,,,,,2,13.608655,,0,1,86,236,15,1,stimuli/stim_20210519_power2amp/equal_lnn_AM1Hz_s25_20.m4a,,,
,,,,,,,,,,,,40062,2021-05-24_19h00.52.771,judgeSpeechMusic_20210519_logNormShiftAmp_mXs,2020.1.2,MacIntel,60,,,,,,,,,,,,,,1,6.729235,,0,1,87,237,86,1,stimuli/stim_20210519_power2amp/equal_lnn_AM2.5Hz_s45_29.m4a,,,
,,,,,,,,,,,,40062,2021-05-24_19h00.52.771,judgeSpeechMusic_20210519_logNormShiftAmp_mXs,2020.1.2,MacIntel,60,,,,,,,,,,,,,,1,11.34267,,0,1,88,238,130,1,stimuli/stim_20210519_power2amp/equal_lnn_AM4Hz_s45_17.m4a,,,
,,,,,,,,,,,,40062,2021-05-24_19h00.52.771,judgeSpeechMusic_20210519_logNormShiftAmp_mXs,2020.1.2,MacIntel,60,,,,,,,,,,,,,,1,6.313935,,0,1,89,239,96,1,stimuli/stim_20210519_power2amp/equal_lnn_AM2.5Hz_s55_27.m4a,,,
,,,,,,,,,,,,40062,2021-05-24_19h00.52.771,judgeSpeechMusic_20210519_logNormShiftAmp_mXs,2020.1.2,MacIntel,60,,,,,,,,,,,,,,1,14.009285,,0,1,90,240,113,1,stimuli/stim_20210519_power2amp/equal_lnn_AM4Hz_s25_24.m4a,,,
,,,,,,,,,,,,40062,2021-05-24_19h00.52.771,judgeSpeechMusic_20210519_logNormShiftAmp_mXs,2020.1.2,MacIntel,60,,,,,,,,,,,,,,2,7.65867,,0,1,91,241,60,1,stimuli/stim_20210519_power2amp/equal_lnn_AM2.5Hz_s25_15.m4a,,,
,,,,,,,,,,,,40062,2021-05-24_19h00.52.771,judgeSpeechMusic_20210519_logNormShiftAmp_mXs,2020.1.2,MacIntel,60,,,,,,,,,,,,,,2,20.19499,,0,1,92,242,39,1,stimuli/stim_20210519_power2amp/equal_lnn_AM1Hz_s45_45.m4a,,,
,,,,,,,,,,,,40062,2021-05-24_19h00.52.771,judgeSpeechMusic_20210519_logNormShiftAmp_mXs,2020.1.2,MacIntel,60,,,,,,,,,,,,,,2,7.322135,,0,1,93,243,80,1,stimuli/stim_20210519_power2amp/equal_lnn_AM2.5Hz_s45_6.m4a,,,
,,,,,,,,,,,,40062,2021-05-24_19h00.52.771,judgeSpeechMusic_20210519_logNormShiftAmp_mXs,2020.1.2,MacIntel,60,,,,,,,,,,,,,,2,9.73022,,0,1,94,244,98,1,stimuli/stim_20210519_power2amp/equal_lnn_AM2.5Hz_s55_1.m4a,,,
,,,,,,,,,,,,40062,2021-05-24_19h00.52.771,judgeSpeechMusic_20210519_logNormShiftAmp_mXs,2020.1.2,MacIntel,60,,,,,,,,,,,,,,2,13.57657,,0,1,95,245,107,1,stimuli/stim_20210519_power2amp/equal_lnn_AM4Hz_s15_18.m4a,,,
,,,,,,,,,,,,40062,2021-05-24_19h00.52.771,judgeSpeechMusic_20210519_logNormShiftAmp_mXs,2020.1.2,MacIntel,60,,,,,,,,,,,,,,2,91.27908,,0,1,96,246,146,1,stimuli/stim_20210519_power2amp/equal_lnn_AM4Hz_s55_38.m4a,,,
,,,,,,,,,,,,40062,2021-05-24_19h00.52.771,judgeSpeechMusic_20210519_logNormShiftAmp_mXs,2020.1.2,MacIntel,60,,,,,,,,,,,,,,1,6.425105,,0,1,97,247,65,1,stimuli/stim_20210519_power2amp/equal_lnn_AM2.5Hz_s25_39.m4a,,,
,,,,,,,,,,,,40062,2021-05-24_19h00.52.771,judgeSpeechMusic_20210519_logNormShiftAmp_mXs,2020.1.2,MacIntel,60,,,,,,,,,,,,,,2,14.093125,,0,1,98,248,3,1,stimuli/stim_20210519_power2amp/equal_lnn_AM1Hz_s15_11.m4a,,,
,,,,,,,,,,,,40062,2021-05-24_19h00.52.771,judgeSpeechMusic_20210519_logNormShiftAmp_mXs,2020.1.2,MacIntel,60,,,,,,,,,,,,,,1,8.08257,,0,1,99,249,21,1,stimuli/stim_20210519_power2amp/equal_lnn_AM1Hz_s35_30.m4a,,,
,,,,,,,,,,,,40062,2021-05-24_19h00.52.771,judgeSpeechMusic_20210519_logNormShiftAmp_mXs,2020.1.2,MacIntel,60,,,,,,,,,,,,,,2,12.727925,,0,1,100,250,17,1,stimuli/stim_20210519_power2amp/equal_lnn_AM1Hz_s25_8.m4a,,,
,,,,,,,,,,,,40062,2021-05-24_19h00.52.771,judgeSpeechMusic_20210519_logNormShiftAmp_mXs,2020.1.2,MacIntel,60,,,,,,,,,,,,,,2,20.531125,,0,1,101,251,76,1,stimuli/stim_20210519_power2amp/equal_lnn_AM2.5Hz_s35_37.m4a,,,
,,,,,,,,,,,,40062,2021-05-24_19h00.52.771,judgeSpeechMusic_20210519_logNormShiftAmp_mXs,2020.1.2,MacIntel,60,,,,,,,,,,,,,,1,6.99207,,0,1,102,252,100,1,stimuli/stim_20210519_power2amp/equal_lnn_AM4Hz_s15_43.m4a,,,
,,,,,,,,,,,,40062,2021-05-24_19h00.52.771,judgeSpeechMusic_20210519_logNormShiftAmp_mXs,2020.1.2,MacIntel,60,,,,,,,,,,,,,,1,6.16292,,0,1,103,253,101,1,stimuli/stim_20210519_power2amp/equal_lnn_AM4Hz_s15_19.m4a,,,
,,,,,,,,,,,,40062,2021-05-24_19h00.52.771,judgeSpeechMusic_20210519_logNormShiftAmp_mXs,2020.1.2,MacIntel,60,,,,,,,,,,,,,,1,6.24858,,0,1,104,254,85,1,stimuli/stim_20210519_power2amp/equal_lnn_AM2.5Hz_s45_35.m4a,,,
,,,,,,,,,,,,40062,2021-05-24_19h00.52.771,judgeSpeechMusic_20210519_logNormShiftAmp_mXs,2020.1.2,MacIntel,60,,,,,,,,,,,,,,1,7.52884,2,1,1,105,255,103,1,stimuli/stim_20210519_power2amp/equal_lnn_AM4Hz_s15_7.m4a,1.702035,,
,,,,,,,,,,,,40062,2021-05-24_19h00.52.771,judgeSpeechMusic_20210519_logNormShiftAmp_mXs,2020.1.2,MacIntel,60,,,,,,,,,,,,,,2,10.642755,,0,1,106,256,18,1,stimuli/stim_20210519_power2amp/equal_lnn_AM1Hz_s25_10.m4a,,,
,,,,,,,,,,,,40062,2021-05-24_19h00.52.771,judgeSpeechMusic_20210519_logNormShiftAmp_mXs,2020.1.2,MacIntel,60,,,,,,,,,,,,,,2,7.964,,0,1,107,257,78,1,stimuli/stim_20210519_power2amp/equal_lnn_AM2.5Hz_s35_25.m4a,,,
,,,,,,,,,,,,40062,2021-05-24_19h00.52.771,judgeSpeechMusic_20210519_logNormShiftAmp_mXs,2020.1.2,MacIntel,60,,,,,,,,,,,,,,2,6.7605,,0,1,108,258,139,1,stimuli/stim_20210519_power2amp/equal_lnn_AM4Hz_s45_35.m4a,,,
,,,,,,,,,,,,40062,2021-05-24_19h00.52.771,judgeSpeechMusic_20210519_logNormShiftAmp_mXs,2020.1.2,MacIntel,60,,,,,,,,,,,,,,2,7.293775,,0,1,109,259,109,1,stimuli/stim_20210519_power2amp/equal_lnn_AM4Hz_s15_6.m4a,,,
,,,,,,,,,,,,40062,2021-05-24_19h00.52.771,judgeSpeechMusic_20210519_logNormShiftAmp_mXs,2020.1.2,MacIntel,60,,,,,,,,,,,,,,2,6.201375,,0,1,110,260,116,1,stimuli/stim_20210519_power2amp/equal_lnn_AM4Hz_s25_43.m4a,,,
,,,,,,,,,,,,40062,2021-05-24_19h00.52.771,judgeSpeechMusic_20210519_logNormShiftAmp_mXs,2020.1.2,MacIntel,60,,,,,,,,,,,,,,2,6.845465,,0,1,111,261,122,1,stimuli/stim_20210519_power2amp/equal_lnn_AM4Hz_s35_9.m4a,,,
,,,,,,,,,,,,40062,2021-05-24_19h00.52.771,judgeSpeechMusic_20210519_logNormShiftAmp_mXs,2020.1.2,MacIntel,60,,,,,,,,,,,,,,2,6.013255,,0,1,112,262,112,1,stimuli/stim_20210519_power2amp/equal_lnn_AM4Hz_s25_35.m4a,,,
,,,,,,,,,,,,40062,2021-05-24_19h00.52.771,judgeSpeechMusic_20210519_logNormShiftAmp_mXs,2020.1.2,MacIntel,60,,,,,,,,,,,,,,2,6.390335,,0,1,113,263,72,1,stimuli/stim_20210519_power2amp/equal_lnn_AM2.5Hz_s35_11.m4a,,,
,,,,,,,,,,,,40062,2021-05-24_19h00.52.771,judgeSpeechMusic_20210519_logNormShiftAmp_mXs,2020.1.2,MacIntel,60,,,,,,,,,,,,,,2,7.13819,,0,1,114,264,31,1,stimuli/stim_20210519_power2amp/equal_lnn_AM1Hz_s45_32.m4a,,,
,,,,,,,,,,,,40062,2021-05-24_19h00.52.771,judgeSpeechMusic_20210519_logNormShiftAmp_mXs,2020.1.2,MacIntel,60,,,,,,,,,,,,,,1,6.844845,,0,1,115,265,61,1,stimuli/stim_20210519_power2amp/equal_lnn_AM2.5Hz_s25_17.m4a,,,
,,,,,,,,,,,,40062,2021-05-24_19h00.52.771,judgeSpeechMusic_20210519_logNormShiftAmp_mXs,2020.1.2,MacIntel,60,,,,,,,,,,,,,,2,59.808745,,0,1,116,266,149,1,stimuli/stim_20210519_power2amp/equal_lnn_AM4Hz_s55_47.m4a,,,
,,,,,,,,,,,,40062,2021-05-24_19h00.52.771,judgeSpeechMusic_20210519_logNormShiftAmp_mXs,2020.1.2,MacIntel,60,,,,,,,,,,,,,,2,164.69449,,0,1,117,267,102,1,stimuli/stim_20210519_power2amp/equal_lnn_AM4Hz_s15_34.m4a,,,
,,,,,,,,,,,,40062,2021-05-24_19h00.52.771,judgeSpeechMusic_20210519_logNormShiftAmp_mXs,2020.1.2,MacIntel,60,,,,,,,,,,,,,,2,6.041065,,0,1,118,268,106,1,stimuli/stim_20210519_power2amp/equal_lnn_AM4Hz_s15_40.m4a,,,
,,,,,,,,,,,,40062,2021-05-24_19h00.52.771,judgeSpeechMusic_20210519_logNormShiftAmp_mXs,2020.1.2,MacIntel,60,,,,,,,,,,,,,,2,6.295785,,0,1,119,269,138,1,stimuli/stim_20210519_power2amp/equal_lnn_AM4Hz_s45_50.m4a,,,
,,,,,,,,,,,,40062,2021-05-24_19h00.52.771,judgeSpeechMusic_20210519_logNormShiftAmp_mXs,2020.1.2,MacIntel,60,,,,,,,,,,,,,,2,8.13989,,0,1,120,270,148,1,stimuli/stim_20210519_power2amp/equal_lnn_AM4Hz_s55_11.m4a,,,
,,,,,,,,,,,,40062,2021-05-24_19h00.52.771,judgeSpeechMusic_20210519_logNormShiftAmp_mXs,2020.1.2,MacIntel,60,,,,,,,,,,,,,,2,8.99222,,0,1,121,271,124,1,stimuli/stim_20210519_power2amp/equal_lnn_AM4Hz_s35_50.m4a,,,
,,,,,,,,,,,,40062,2021-05-24_19h00.52.771,judgeSpeechMusic_20210519_logNormShiftAmp_mXs,2020.1.2,MacIntel,60,,,,,,,,,,,,,,2,8.907695,,0,1,122,272,97,1,stimuli/stim_20210519_power2amp/equal_lnn_AM2.5Hz_s55_33.m4a,,,
,,,,,,,,,,,,40062,2021-05-24_19h00.52.771,judgeSpeechMusic_20210519_logNormShiftAmp_mXs,2020.1.2,MacIntel,60,,,,,,,,,,,,,,2,8.1779,,0,1,123,273,32,1,stimuli/stim_20210519_power2amp/equal_lnn_AM1Hz_s45_11.m4a,,,
,,,,,,,,,,,,40062,2021-05-24_19h00.52.771,judgeSpeechMusic_20210519_logNormShiftAmp_mXs,2020.1.2,MacIntel,60,,,,,,,,,,,,,,2,288.875955,,0,1,124,274,99,1,stimuli/stim_20210519_power2amp/equal_lnn_AM2.5Hz_s55_26.m4a,,,
,,,,,,,,,,,,40062,2021-05-24_19h00.52.771,judgeSpeechMusic_20210519_logNormShiftAmp_mXs,2020.1.2,MacIntel,60,,,,,,,,,,,,,,2,6.21249,,0,1,125,275,104,1,stimuli/stim_20210519_power2amp/equal_lnn_AM4Hz_s15_45.m4a,,,
,,,,,,,,,,,,40062,2021-05-24_19h00.52.771,judgeSpeechMusic_20210519_logNormShiftAmp_mXs,2020.1.2,MacIntel,60,,,,,,,,,,,,,,2,5.77292,,0,1,126,276,2,1,stimuli/stim_20210519_power2amp/equal_lnn_AM1Hz_s15_49.m4a,,,
,,,,,,,,,,,,40062,2021-05-24_19h00.52.771,judgeSpeechMusic_20210519_logNormShiftAmp_mXs,2020.1.2,MacIntel,60,,,,,,,,,,,,,,2,6.1067,1,1,1,127,277,67,1,stimuli/stim_20210519_power2amp/equal_lnn_AM2.5Hz_s25_13.m4a,1.61438,,
,,,,,,,,,,,,40062,2021-05-24_19h00.52.771,judgeSpeechMusic_20210519_logNormShiftAmp_mXs,2020.1.2,MacIntel,60,,,,,,,,,,,,,,1,6.961,,0,1,128,278,129,1,stimuli/stim_20210519_power2amp/equal_lnn_AM4Hz_s35_42.m4a,,,
,,,,,,,,,,,,40062,2021-05-24_19h00.52.771,judgeSpeechMusic_20210519_logNormShiftAmp_mXs,2020.1.2,MacIntel,60,,,,,,,,,,,,,,1,7.24668,,0,1,129,279,105,1,stimuli/stim_20210519_power2amp/equal_lnn_AM4Hz_s15_41.m4a,,,
,,,,,,,,,,,,40062,2021-05-24_19h00.52.771,judgeSpeechMusic_20210519_logNormShiftAmp_mXs,2020.1.2,MacIntel,60,,,,,,,,,,,,,,2,5.999015,,0,1,130,280,28,1,stimuli/stim_20210519_power2amp/equal_lnn_AM1Hz_s35_11.m4a,,,
,,,,,,,,,,,,40062,2021-05-24_19h00.52.771,judgeSpeechMusic_20210519_logNormShiftAmp_mXs,2020.1.2,MacIntel,60,,,,,,,,,,,,,,2,6.489045,,0,1,131,281,49,1,stimuli/stim_20210519_power2amp/equal_lnn_AM1Hz_s55_50.m4a,,,
,,,,,,,,,,,,40062,2021-05-24_19h00.52.771,judgeSpeechMusic_20210519_logNormShiftAmp_mXs,2020.1.2,MacIntel,60,,,,,,,,,,,,,,2,11.14375,,0,1,132,282,5,1,stimuli/stim_20210519_power2amp/equal_lnn_AM1Hz_s15_21.m4a,,,
,,,,,,,,,,,,40062,2021-05-24_19h00.52.771,judgeSpeechMusic_20210519_logNormShiftAmp_mXs,2020.1.2,MacIntel,60,,,,,,,,,,,,,,1,6.911385,,0,1,133,283,51,1,stimuli/stim_20210519_power2amp/equal_lnn_AM2.5Hz_s15_1.m4a,,,
,,,,,,,,,,,,40062,2021-05-24_19h00.52.771,judgeSpeechMusic_20210519_logNormShiftAmp_mXs,2020.1.2,MacIntel,60,,,,,,,,,,,,,,2,23.226025,,0,1,134,284,59,1,stimuli/stim_20210519_power2amp/equal_lnn_AM2.5Hz_s15_26.m4a,,,
,,,,,,,,,,,,40062,2021-05-24_19h00.52.771,judgeSpeechMusic_20210519_logNormShiftAmp_mXs,2020.1.2,MacIntel,60,,,,,,,,,,,,,,2,17.112435,,0,1,135,285,92,1,stimuli/stim_20210519_power2amp/equal_lnn_AM2.5Hz_s55_49.m4a,,,
,,,,,,,,,,,,40062,2021-05-24_19h00.52.771,judgeSpeechMusic_20210519_logNormShiftAmp_mXs,2020.1.2,MacIntel,60,,,,,,,,,,,,,,2,5.72871,,0,1,136,286,115,1,stimuli/stim_20210519_power2amp/equal_lnn_AM4Hz_s25_1.m4a,,,
,,,,,,,,,,,,40062,2021-05-24_19h00.52.771,judgeSpeechMusic_20210519_logNormShiftAmp_mXs,2020.1.2,MacIntel,60,,,,,,,,,,,,,,2,6.12776,,0,1,137,287,41,1,stimuli/stim_20210519_power2amp/equal_lnn_AM1Hz_s55_11.m4a,,,
,,,,,,,,,,,,40062,2021-05-24_19h00.52.771,judgeSpeechMusic_20210519_logNormShiftAmp_mXs,2020.1.2,MacIntel,60,,,,,,,,,,,,,,2,7.3123,,0,1,138,288,64,1,stimuli/stim_20210519_power2amp/equal_lnn_AM2.5Hz_s25_42.m4a,,,
,,,,,,,,,,,,40062,2021-05-24_19h00.52.771,judgeSpeechMusic_20210519_logNormShiftAmp_mXs,2020.1.2,MacIntel,60,,,,,,,,,,,,,,2,8.231035,,0,1,139,289,121,1,stimuli/stim_20210519_power2amp/equal_lnn_AM4Hz_s35_25.m4a,,,
,,,,,,,,,,,,40062,2021-05-24_19h00.52.771,judgeSpeechMusic_20210519_logNormShiftAmp_mXs,2020.1.2,MacIntel,60,,,,,,,,,,,,,,2,7.32931,,0,1,140,290,55,1,stimuli/stim_20210519_power2amp/equal_lnn_AM2.5Hz_s15_37.m4a,,,
,,,,,,,,,,,,40062,2021-05-24_19h00.52.771,judgeSpeechMusic_20210519_logNormShiftAmp_mXs,2020.1.2,MacIntel,60,,,,,,,,,,,,,,2,7.396885,,0,1,141,291,58,1,stimuli/stim_20210519_power2amp/equal_lnn_AM2.5Hz_s15_19.m4a,,,
,,,,,,,,,,,,40062,2021-05-24_19h00.52.771,judgeSpeechMusic_20210519_logNormShiftAmp_mXs,2020.1.2,MacIntel,60,,,,,,,,,,,,,,1,6.654905,,0,1,142,292,144,1,stimuli/stim_20210519_power2amp/equal_lnn_AM4Hz_s55_1.m4a,,,
,,,,,,,,,,,,40062,2021-05-24_19h00.52.771,judgeSpeechMusic_20210519_logNormShiftAmp_mXs,2020.1.2,MacIntel,60,,,,,,,,,,,,,,2,9.045935,,0,1,143,293,14,1,stimuli/stim_20210519_power2amp/equal_lnn_AM1Hz_s25_12.m4a,,,
,,,,,,,,,,,,40062,2021-05-24_19h00.52.771,judgeSpeechMusic_20210519_logNormShiftAmp_mXs,2020.1.2,MacIntel,60,,,,,,,,,,,,,,2,6.91235,,0,1,144,294,71,1,stimuli/stim_20210519_power2amp/equal_lnn_AM2.5Hz_s35_9.m4a,,,
,,,,,,,,,,,,40062,2021-05-24_19h00.52.771,judgeSpeechMusic_20210519_logNormShiftAmp_mXs,2020.1.2,MacIntel,60,,,,,,,,,,,,,,2,12.69525,,0,1,145,295,66,1,stimuli/stim_20210519_power2amp/equal_lnn_AM2.5Hz_s25_44.m4a,,,
,,,,,,,,,,,,40062,2021-05-24_19h00.52.771,judgeSpeechMusic_20210519_logNormShiftAmp_mXs,2020.1.2,MacIntel,60,,,,,,,,,,,,,,2,7.24383,,0,1,146,296,125,1,stimuli/stim_20210519_power2amp/equal_lnn_AM4Hz_s35_41.m4a,,,
,,,,,,,,,,,,40062,2021-05-24_19h00.52.771,judgeSpeechMusic_20210519_logNormShiftAmp_mXs,2020.1.2,MacIntel,60,,,,,,,,,,,,,,2,7.59322,,0,1,147,297,94,1,stimuli/stim_20210519_power2amp/equal_lnn_AM2.5Hz_s55_42.m4a,,,
,,,,,,,,,,,,40062,2021-05-24_19h00.52.771,judgeSpeechMusic_20210519_logNormShiftAmp_mXs,2020.1.2,MacIntel,60,,,,,,,,,,,,,,2,6.94524,,0,1,148,298,6,1,stimuli/stim_20210519_power2amp/equal_lnn_AM1Hz_s15_26.m4a,,,
,,,,,,,,,,,,40062,2021-05-24_19h00.52.771,judgeSpeechMusic_20210519_logNormShiftAmp_mXs,2020.1.2,MacIntel,60,,,,,,,,,,,,,,2,6.40652,,0,1,149,299,108,1,stimuli/stim_20210519_power2amp/equal_lnn_AM4Hz_s15_47.m4a,,,
,,,,,,,,,,,,40062,2021-05-24_19h00.52.771,judgeSpeechMusic_20210519_logNormShiftAmp_mXs,2020.1.2,MacIntel,60,,,,,,,,,,,,,,,,,,,,,,,,,space,11.29094
