headphoneResponse.keys,headphoneResponse.corr,headphoneResponse.rt,headphoneTrial.thisRepN,headphoneTrial.thisTrialN,headphoneTrial.thisN,headphoneTrial.thisIndex,headphoneTrial.ran,headphone_sound1,headphone_sound2,headphone_sound3,corrAns,participant,date,expName,psychopyVersion,OS,frameRate,trainSlider.response,trainSlider.rt,beepTrainResponse.keys,beepTrainResponse.corr,trainingTrials.thisRepN,trainingTrials.thisTrialN,trainingTrials.thisN,trainingTrials.thisIndex,trainingTrials.ran,trainAudioFile,beepTrainResponse.rt,readyReal_resp.keys,readyReal_resp.rt,ratingSlider.response,ratingSlider.rt,beepResp.keys,beepResp.corr,expTrials.thisRepN,expTrials.thisTrialN,expTrials.thisN,expTrials.thisIndex,expTrials.ran,audioFile,beepResp.rt,end_resp.keys,end_resp.rt
2,1,0.760215,0,0,0,1,1,stimuli/screen_antiphase.wav,stimuli/screen_quiet.wav,stimuli/screen_origin.wav,2,40448,2021-06-13_16h25.30.137,judgeSpeechMusic_20210519_logNormShiftAmp_mXs,2020.1.2,MacIntel,60,,,,,,,,,,,,,,,,,,,,,,,,,,
2,1,0.452925,0,1,1,3,1,stimuli/screen_origin.wav,stimuli/screen_quiet.wav,stimuli/screen_antiphase.wav,2,40448,2021-06-13_16h25.30.137,judgeSpeechMusic_20210519_logNormShiftAmp_mXs,2020.1.2,MacIntel,60,,,,,,,,,,,,,,,,,,,,,,,,,,
1,1,0.75084,0,2,2,5,1,stimuli/screen_quiet.wav,stimuli/screen_origin.wav,stimuli/screen_antiphase.wav,1,40448,2021-06-13_16h25.30.137,judgeSpeechMusic_20210519_logNormShiftAmp_mXs,2020.1.2,MacIntel,60,,,,,,,,,,,,,,,,,,,,,,,,,,
3,1,2.591475,0,3,3,2,1,stimuli/screen_origin.wav,stimuli/screen_antiphase.wav,stimuli/screen_quiet.wav,3,40448,2021-06-13_16h25.30.137,judgeSpeechMusic_20210519_logNormShiftAmp_mXs,2020.1.2,MacIntel,60,,,,,,,,,,,,,,,,,,,,,,,,,,
3,1,0.871975,0,4,4,0,1,stimuli/screen_antiphase.wav,stimuli/screen_origin.wav,stimuli/screen_quiet.wav,3,40448,2021-06-13_16h25.30.137,judgeSpeechMusic_20210519_logNormShiftAmp_mXs,2020.1.2,MacIntel,60,,,,,,,,,,,,,,,,,,,,,,,,,,
1,1,0.917565,0,5,5,4,1,stimuli/screen_quiet.wav,stimuli/screen_antiphase.wav,stimuli/screen_origin.wav,1,40448,2021-06-13_16h25.30.137,judgeSpeechMusic_20210519_logNormShiftAmp_mXs,2020.1.2,MacIntel,60,,,,,,,,,,,,,,,,,,,,,,,,,,
,,,,,,,,,,,,40448,2021-06-13_16h25.30.137,judgeSpeechMusic_20210519_logNormShiftAmp_mXs,2020.1.2,MacIntel,60,2,16.405805,,0,0,0,0,1,1,stimuli/stim_20210519_power2amp/equal_lnn_AM_training1.5Hz_s50.m4a,,,,,,,,,,,,,,,,
,,,,,,,,,,,,40448,2021-06-13_16h25.30.137,judgeSpeechMusic_20210519_logNormShiftAmp_mXs,2020.1.2,MacIntel,60,2,7.08376,,0,0,1,1,3,1,stimuli/stim_20210519_power2amp/equal_lnn_AM_training3.5Hz_s50.m4a,,,,,,,,,,,,,,,,
,,,,,,,,,,,,40448,2021-06-13_16h25.30.137,judgeSpeechMusic_20210519_logNormShiftAmp_mXs,2020.1.2,MacIntel,60,1,7.89565,4,1,0,2,2,2,1,stimuli/stim_20210519_power2amp/equal_lnn_AM_training3.5Hz_s20.m4a,4.01,,,,,,,,,,,,,,,
,,,,,,,,,,,,40448,2021-06-13_16h25.30.137,judgeSpeechMusic_20210519_logNormShiftAmp_mXs,2020.1.2,MacIntel,60,1,24.205165,,0,0,3,3,0,1,stimuli/stim_20210519_power2amp/equal_lnn_AM_training1.5Hz_s20.m4a,,,,,,,,,,,,,,,,
,,,,,,,,,,,,40448,2021-06-13_16h25.30.137,judgeSpeechMusic_20210519_logNormShiftAmp_mXs,2020.1.2,MacIntel,60,,,,,,,,,,,,space,5.04749,1,8.931335,,0,0,0,0,7,1,stimuli/stim_20210519_power2amp/equal_lnn_AM1Hz_s15_46.m4a,,,
,,,,,,,,,,,,40448,2021-06-13_16h25.30.137,judgeSpeechMusic_20210519_logNormShiftAmp_mXs,2020.1.2,MacIntel,60,,,,,,,,,,,,,,1,6.22863,,0,0,1,1,66,1,stimuli/stim_20210519_power2amp/equal_lnn_AM2.5Hz_s25_46.m4a,,,
,,,,,,,,,,,,40448,2021-06-13_16h25.30.137,judgeSpeechMusic_20210519_logNormShiftAmp_mXs,2020.1.2,MacIntel,60,,,,,,,,,,,,,,2,6.452125,,0,0,2,2,70,1,stimuli/stim_20210519_power2amp/equal_lnn_AM2.5Hz_s35_15.m4a,,,
,,,,,,,,,,,,40448,2021-06-13_16h25.30.137,judgeSpeechMusic_20210519_logNormShiftAmp_mXs,2020.1.2,MacIntel,60,,,,,,,,,,,,,,1,6.827815,,0,0,3,3,90,1,stimuli/stim_20210519_power2amp/equal_lnn_AM2.5Hz_s55_49.m4a,,,
,,,,,,,,,,,,40448,2021-06-13_16h25.30.137,judgeSpeechMusic_20210519_logNormShiftAmp_mXs,2020.1.2,MacIntel,60,,,,,,,,,,,,,,1,6.101715,,0,0,4,4,65,1,stimuli/stim_20210519_power2amp/equal_lnn_AM2.5Hz_s25_20.m4a,,,
,,,,,,,,,,,,40448,2021-06-13_16h25.30.137,judgeSpeechMusic_20210519_logNormShiftAmp_mXs,2020.1.2,MacIntel,60,,,,,,,,,,,,,,2,6.571325,,0,0,5,5,132,1,stimuli/stim_20210519_power2amp/equal_lnn_AM4Hz_s45_14.m4a,,,
,,,,,,,,,,,,40448,2021-06-13_16h25.30.137,judgeSpeechMusic_20210519_logNormShiftAmp_mXs,2020.1.2,MacIntel,60,,,,,,,,,,,,,,2,5.82273,,0,0,6,6,92,1,stimuli/stim_20210519_power2amp/equal_lnn_AM2.5Hz_s55_6.m4a,,,
,,,,,,,,,,,,40448,2021-06-13_16h25.30.137,judgeSpeechMusic_20210519_logNormShiftAmp_mXs,2020.1.2,MacIntel,60,,,,,,,,,,,,,,1,12.555305,,0,0,7,7,69,1,stimuli/stim_20210519_power2amp/equal_lnn_AM2.5Hz_s25_22.m4a,,,
,,,,,,,,,,,,40448,2021-06-13_16h25.30.137,judgeSpeechMusic_20210519_logNormShiftAmp_mXs,2020.1.2,MacIntel,60,,,,,,,,,,,,,,2,12.151675,,0,0,8,8,121,1,stimuli/stim_20210519_power2amp/equal_lnn_AM4Hz_s35_32.m4a,,,
,,,,,,,,,,,,40448,2021-06-13_16h25.30.137,judgeSpeechMusic_20210519_logNormShiftAmp_mXs,2020.1.2,MacIntel,60,,,,,,,,,,,,,,2,12.11735,,0,0,9,9,40,1,stimuli/stim_20210519_power2amp/equal_lnn_AM1Hz_s55_41.m4a,,,
,,,,,,,,,,,,40448,2021-06-13_16h25.30.137,judgeSpeechMusic_20210519_logNormShiftAmp_mXs,2020.1.2,MacIntel,60,,,,,,,,,,,,,,1,6.58879,,0,0,10,10,140,1,stimuli/stim_20210519_power2amp/equal_lnn_AM4Hz_s55_45.m4a,,,
,,,,,,,,,,,,40448,2021-06-13_16h25.30.137,judgeSpeechMusic_20210519_logNormShiftAmp_mXs,2020.1.2,MacIntel,60,,,,,,,,,,,,,,1,6.10344,,0,0,11,11,109,1,stimuli/stim_20210519_power2amp/equal_lnn_AM4Hz_s15_33.m4a,,,
,,,,,,,,,,,,40448,2021-06-13_16h25.30.137,judgeSpeechMusic_20210519_logNormShiftAmp_mXs,2020.1.2,MacIntel,60,,,,,,,,,,,,,,2,6.92747,,0,0,12,12,60,1,stimuli/stim_20210519_power2amp/equal_lnn_AM2.5Hz_s25_31.m4a,,,
,,,,,,,,,,,,40448,2021-06-13_16h25.30.137,judgeSpeechMusic_20210519_logNormShiftAmp_mXs,2020.1.2,MacIntel,60,,,,,,,,,,,,,,1,8.11241,,0,0,13,13,39,1,stimuli/stim_20210519_power2amp/equal_lnn_AM1Hz_s45_26.m4a,,,
,,,,,,,,,,,,40448,2021-06-13_16h25.30.137,judgeSpeechMusic_20210519_logNormShiftAmp_mXs,2020.1.2,MacIntel,60,,,,,,,,,,,,,,1,9.148685,,0,0,14,14,80,1,stimuli/stim_20210519_power2amp/equal_lnn_AM2.5Hz_s45_7.m4a,,,
,,,,,,,,,,,,40448,2021-06-13_16h25.30.137,judgeSpeechMusic_20210519_logNormShiftAmp_mXs,2020.1.2,MacIntel,60,,,,,,,,,,,,,,2,6.689415,,0,0,15,15,99,1,stimuli/stim_20210519_power2amp/equal_lnn_AM2.5Hz_s55_17.m4a,,,
,,,,,,,,,,,,40448,2021-06-13_16h25.30.137,judgeSpeechMusic_20210519_logNormShiftAmp_mXs,2020.1.2,MacIntel,60,,,,,,,,,,,,,,1,7.15038,,0,0,16,16,137,1,stimuli/stim_20210519_power2amp/equal_lnn_AM4Hz_s45_22.m4a,,,
,,,,,,,,,,,,40448,2021-06-13_16h25.30.137,judgeSpeechMusic_20210519_logNormShiftAmp_mXs,2020.1.2,MacIntel,60,,,,,,,,,,,,,,1,6.96999,,0,0,17,17,63,1,stimuli/stim_20210519_power2amp/equal_lnn_AM2.5Hz_s25_44.m4a,,,
,,,,,,,,,,,,40448,2021-06-13_16h25.30.137,judgeSpeechMusic_20210519_logNormShiftAmp_mXs,2020.1.2,MacIntel,60,,,,,,,,,,,,,,1,5.774045,,0,0,18,18,0,1,stimuli/stim_20210519_power2amp/equal_lnn_AM1Hz_s15_31.m4a,,,
,,,,,,,,,,,,40448,2021-06-13_16h25.30.137,judgeSpeechMusic_20210519_logNormShiftAmp_mXs,2020.1.2,MacIntel,60,,,,,,,,,,,,,,1,5.73882,,0,0,19,19,29,1,stimuli/stim_20210519_power2amp/equal_lnn_AM1Hz_s35_38.m4a,,,
,,,,,,,,,,,,40448,2021-06-13_16h25.30.137,judgeSpeechMusic_20210519_logNormShiftAmp_mXs,2020.1.2,MacIntel,60,,,,,,,,,,,,,,1,6.17697,,0,0,20,20,135,1,stimuli/stim_20210519_power2amp/equal_lnn_AM4Hz_s45_44.m4a,,,
,,,,,,,,,,,,40448,2021-06-13_16h25.30.137,judgeSpeechMusic_20210519_logNormShiftAmp_mXs,2020.1.2,MacIntel,60,,,,,,,,,,,,,,1,7.74682,,0,0,21,21,50,1,stimuli/stim_20210519_power2amp/equal_lnn_AM2.5Hz_s15_11.m4a,,,
,,,,,,,,,,,,40448,2021-06-13_16h25.30.137,judgeSpeechMusic_20210519_logNormShiftAmp_mXs,2020.1.2,MacIntel,60,,,,,,,,,,,,,,2,5.923025,,0,0,22,22,35,1,stimuli/stim_20210519_power2amp/equal_lnn_AM1Hz_s45_28.m4a,,,
,,,,,,,,,,,,40448,2021-06-13_16h25.30.137,judgeSpeechMusic_20210519_logNormShiftAmp_mXs,2020.1.2,MacIntel,60,,,,,,,,,,,,,,2,5.8012,,0,0,23,23,89,1,stimuli/stim_20210519_power2amp/equal_lnn_AM2.5Hz_s45_45.m4a,,,
,,,,,,,,,,,,40448,2021-06-13_16h25.30.137,judgeSpeechMusic_20210519_logNormShiftAmp_mXs,2020.1.2,MacIntel,60,,,,,,,,,,,,,,2,6.67025,,0,0,24,24,103,1,stimuli/stim_20210519_power2amp/equal_lnn_AM4Hz_s15_30.m4a,,,
,,,,,,,,,,,,40448,2021-06-13_16h25.30.137,judgeSpeechMusic_20210519_logNormShiftAmp_mXs,2020.1.2,MacIntel,60,,,,,,,,,,,,,,1,6.17319,,0,0,25,25,9,1,stimuli/stim_20210519_power2amp/equal_lnn_AM1Hz_s15_10.m4a,,,
,,,,,,,,,,,,40448,2021-06-13_16h25.30.137,judgeSpeechMusic_20210519_logNormShiftAmp_mXs,2020.1.2,MacIntel,60,,,,,,,,,,,,,,1,5.64306,,0,0,26,26,51,1,stimuli/stim_20210519_power2amp/equal_lnn_AM2.5Hz_s15_14.m4a,,,
,,,,,,,,,,,,40448,2021-06-13_16h25.30.137,judgeSpeechMusic_20210519_logNormShiftAmp_mXs,2020.1.2,MacIntel,60,,,,,,,,,,,,,,1,5.7166,,0,0,27,27,119,1,stimuli/stim_20210519_power2amp/equal_lnn_AM4Hz_s25_9.m4a,,,
,,,,,,,,,,,,40448,2021-06-13_16h25.30.137,judgeSpeechMusic_20210519_logNormShiftAmp_mXs,2020.1.2,MacIntel,60,,,,,,,,,,,,,,2,7.085525,,0,0,28,28,84,1,stimuli/stim_20210519_power2amp/equal_lnn_AM2.5Hz_s45_9.m4a,,,
,,,,,,,,,,,,40448,2021-06-13_16h25.30.137,judgeSpeechMusic_20210519_logNormShiftAmp_mXs,2020.1.2,MacIntel,60,,,,,,,,,,,,,,1,6.36818,,0,0,29,29,44,1,stimuli/stim_20210519_power2amp/equal_lnn_AM1Hz_s55_3.m4a,,,
,,,,,,,,,,,,40448,2021-06-13_16h25.30.137,judgeSpeechMusic_20210519_logNormShiftAmp_mXs,2020.1.2,MacIntel,60,,,,,,,,,,,,,,1,6.77104,,0,0,30,30,48,1,stimuli/stim_20210519_power2amp/equal_lnn_AM1Hz_s55_31.m4a,,,
,,,,,,,,,,,,40448,2021-06-13_16h25.30.137,judgeSpeechMusic_20210519_logNormShiftAmp_mXs,2020.1.2,MacIntel,60,,,,,,,,,,,,,,1,5.908145,,0,0,31,31,21,1,stimuli/stim_20210519_power2amp/equal_lnn_AM1Hz_s35_13.m4a,,,
,,,,,,,,,,,,40448,2021-06-13_16h25.30.137,judgeSpeechMusic_20210519_logNormShiftAmp_mXs,2020.1.2,MacIntel,60,,,,,,,,,,,,,,2,6.625065,,0,0,32,32,18,1,stimuli/stim_20210519_power2amp/equal_lnn_AM1Hz_s25_43.m4a,,,
,,,,,,,,,,,,40448,2021-06-13_16h25.30.137,judgeSpeechMusic_20210519_logNormShiftAmp_mXs,2020.1.2,MacIntel,60,,,,,,,,,,,,,,2,10.16959,,0,0,33,33,79,1,stimuli/stim_20210519_power2amp/equal_lnn_AM2.5Hz_s35_27.m4a,,,
,,,,,,,,,,,,40448,2021-06-13_16h25.30.137,judgeSpeechMusic_20210519_logNormShiftAmp_mXs,2020.1.2,MacIntel,60,,,,,,,,,,,,,,2,6.1551,,0,0,34,34,122,1,stimuli/stim_20210519_power2amp/equal_lnn_AM4Hz_s35_37.m4a,,,
,,,,,,,,,,,,40448,2021-06-13_16h25.30.137,judgeSpeechMusic_20210519_logNormShiftAmp_mXs,2020.1.2,MacIntel,60,,,,,,,,,,,,,,1,7.77443,,0,0,35,35,82,1,stimuli/stim_20210519_power2amp/equal_lnn_AM2.5Hz_s45_8.m4a,,,
,,,,,,,,,,,,40448,2021-06-13_16h25.30.137,judgeSpeechMusic_20210519_logNormShiftAmp_mXs,2020.1.2,MacIntel,60,,,,,,,,,,,,,,1,5.70261,,0,0,36,36,139,1,stimuli/stim_20210519_power2amp/equal_lnn_AM4Hz_s45_47.m4a,,,
,,,,,,,,,,,,40448,2021-06-13_16h25.30.137,judgeSpeechMusic_20210519_logNormShiftAmp_mXs,2020.1.2,MacIntel,60,,,,,,,,,,,,,,2,6.116925,4,1,0,37,37,86,1,stimuli/stim_20210519_power2amp/equal_lnn_AM2.5Hz_s45_20.m4a,2.99041,,
,,,,,,,,,,,,40448,2021-06-13_16h25.30.137,judgeSpeechMusic_20210519_logNormShiftAmp_mXs,2020.1.2,MacIntel,60,,,,,,,,,,,,,,2,8.47186,,0,0,38,38,75,1,stimuli/stim_20210519_power2amp/equal_lnn_AM2.5Hz_s35_31.m4a,,,
,,,,,,,,,,,,40448,2021-06-13_16h25.30.137,judgeSpeechMusic_20210519_logNormShiftAmp_mXs,2020.1.2,MacIntel,60,,,,,,,,,,,,,,2,16.636705,,0,0,39,39,141,1,stimuli/stim_20210519_power2amp/equal_lnn_AM4Hz_s55_2.m4a,,,
,,,,,,,,,,,,40448,2021-06-13_16h25.30.137,judgeSpeechMusic_20210519_logNormShiftAmp_mXs,2020.1.2,MacIntel,60,,,,,,,,,,,,,,1,9.605995,,0,0,40,40,131,1,stimuli/stim_20210519_power2amp/equal_lnn_AM4Hz_s45_42.m4a,,,
,,,,,,,,,,,,40448,2021-06-13_16h25.30.137,judgeSpeechMusic_20210519_logNormShiftAmp_mXs,2020.1.2,MacIntel,60,,,,,,,,,,,,,,1,8.19128,,0,0,41,41,147,1,stimuli/stim_20210519_power2amp/equal_lnn_AM4Hz_s55_19.m4a,,,
,,,,,,,,,,,,40448,2021-06-13_16h25.30.137,judgeSpeechMusic_20210519_logNormShiftAmp_mXs,2020.1.2,MacIntel,60,,,,,,,,,,,,,,2,6.152605,,0,0,42,42,114,1,stimuli/stim_20210519_power2amp/equal_lnn_AM4Hz_s25_50.m4a,,,
,,,,,,,,,,,,40448,2021-06-13_16h25.30.137,judgeSpeechMusic_20210519_logNormShiftAmp_mXs,2020.1.2,MacIntel,60,,,,,,,,,,,,,,1,13.892365,,0,0,43,43,76,1,stimuli/stim_20210519_power2amp/equal_lnn_AM2.5Hz_s35_7.m4a,,,
,,,,,,,,,,,,40448,2021-06-13_16h25.30.137,judgeSpeechMusic_20210519_logNormShiftAmp_mXs,2020.1.2,MacIntel,60,,,,,,,,,,,,,,2,7.892225,,0,0,44,44,55,1,stimuli/stim_20210519_power2amp/equal_lnn_AM2.5Hz_s15_5.m4a,,,
,,,,,,,,,,,,40448,2021-06-13_16h25.30.137,judgeSpeechMusic_20210519_logNormShiftAmp_mXs,2020.1.2,MacIntel,60,,,,,,,,,,,,,,1,9.392625,,0,0,45,45,113,1,stimuli/stim_20210519_power2amp/equal_lnn_AM4Hz_s25_24.m4a,,,
,,,,,,,,,,,,40448,2021-06-13_16h25.30.137,judgeSpeechMusic_20210519_logNormShiftAmp_mXs,2020.1.2,MacIntel,60,,,,,,,,,,,,,,2,7.199865,,0,0,46,46,42,1,stimuli/stim_20210519_power2amp/equal_lnn_AM1Hz_s55_28.m4a,,,
,,,,,,,,,,,,40448,2021-06-13_16h25.30.137,judgeSpeechMusic_20210519_logNormShiftAmp_mXs,2020.1.2,MacIntel,60,,,,,,,,,,,,,,2,6.402955,,0,0,47,47,59,1,stimuli/stim_20210519_power2amp/equal_lnn_AM2.5Hz_s15_41.m4a,,,
,,,,,,,,,,,,40448,2021-06-13_16h25.30.137,judgeSpeechMusic_20210519_logNormShiftAmp_mXs,2020.1.2,MacIntel,60,,,,,,,,,,,,,,2,5.78917,,0,0,48,48,56,1,stimuli/stim_20210519_power2amp/equal_lnn_AM2.5Hz_s15_8.m4a,,,
,,,,,,,,,,,,40448,2021-06-13_16h25.30.137,judgeSpeechMusic_20210519_logNormShiftAmp_mXs,2020.1.2,MacIntel,60,,,,,,,,,,,,,,1,9.083455,,0,0,49,49,23,1,stimuli/stim_20210519_power2amp/equal_lnn_AM1Hz_s35_22.m4a,,,
,,,,,,,,,,,,40448,2021-06-13_16h25.30.137,judgeSpeechMusic_20210519_logNormShiftAmp_mXs,2020.1.2,MacIntel,60,,,,,,,,,,,,,,2,14.03852,,0,0,50,50,128,1,stimuli/stim_20210519_power2amp/equal_lnn_AM4Hz_s35_21.m4a,,,
,,,,,,,,,,,,40448,2021-06-13_16h25.30.137,judgeSpeechMusic_20210519_logNormShiftAmp_mXs,2020.1.2,MacIntel,60,,,,,,,,,,,,,,2,7.292075,,0,0,51,51,67,1,stimuli/stim_20210519_power2amp/equal_lnn_AM2.5Hz_s25_3.m4a,,,
,,,,,,,,,,,,40448,2021-06-13_16h25.30.137,judgeSpeechMusic_20210519_logNormShiftAmp_mXs,2020.1.2,MacIntel,60,,,,,,,,,,,,,,2,17.65337,,0,0,52,52,138,1,stimuli/stim_20210519_power2amp/equal_lnn_AM4Hz_s45_15.m4a,,,
,,,,,,,,,,,,40448,2021-06-13_16h25.30.137,judgeSpeechMusic_20210519_logNormShiftAmp_mXs,2020.1.2,MacIntel,60,,,,,,,,,,,,,,1,10.70319,,0,0,53,53,1,1,stimuli/stim_20210519_power2amp/equal_lnn_AM1Hz_s15_24.m4a,,,
,,,,,,,,,,,,40448,2021-06-13_16h25.30.137,judgeSpeechMusic_20210519_logNormShiftAmp_mXs,2020.1.2,MacIntel,60,,,,,,,,,,,,,,1,10.259035,,0,0,54,54,143,1,stimuli/stim_20210519_power2amp/equal_lnn_AM4Hz_s55_28.m4a,,,
,,,,,,,,,,,,40448,2021-06-13_16h25.30.137,judgeSpeechMusic_20210519_logNormShiftAmp_mXs,2020.1.2,MacIntel,60,,,,,,,,,,,,,,1,6.718645,,0,0,55,55,115,1,stimuli/stim_20210519_power2amp/equal_lnn_AM4Hz_s25_23.m4a,,,
,,,,,,,,,,,,40448,2021-06-13_16h25.30.137,judgeSpeechMusic_20210519_logNormShiftAmp_mXs,2020.1.2,MacIntel,60,,,,,,,,,,,,,,2,33.66984,,0,0,56,56,142,1,stimuli/stim_20210519_power2amp/equal_lnn_AM4Hz_s55_5.m4a,,,
,,,,,,,,,,,,40448,2021-06-13_16h25.30.137,judgeSpeechMusic_20210519_logNormShiftAmp_mXs,2020.1.2,MacIntel,60,,,,,,,,,,,,,,1,16.85052,,0,0,57,57,123,1,stimuli/stim_20210519_power2amp/equal_lnn_AM4Hz_s35_26.m4a,,,
,,,,,,,,,,,,40448,2021-06-13_16h25.30.137,judgeSpeechMusic_20210519_logNormShiftAmp_mXs,2020.1.2,MacIntel,60,,,,,,,,,,,,,,2,9.43347,,0,0,58,58,10,1,stimuli/stim_20210519_power2amp/equal_lnn_AM1Hz_s25_38.m4a,,,
,,,,,,,,,,,,40448,2021-06-13_16h25.30.137,judgeSpeechMusic_20210519_logNormShiftAmp_mXs,2020.1.2,MacIntel,60,,,,,,,,,,,,,,2,10.635725,,0,0,59,59,144,1,stimuli/stim_20210519_power2amp/equal_lnn_AM4Hz_s55_7.m4a,,,
,,,,,,,,,,,,40448,2021-06-13_16h25.30.137,judgeSpeechMusic_20210519_logNormShiftAmp_mXs,2020.1.2,MacIntel,60,,,,,,,,,,,,,,1,6.55679,,0,0,60,60,26,1,stimuli/stim_20210519_power2amp/equal_lnn_AM1Hz_s35_44.m4a,,,
,,,,,,,,,,,,40448,2021-06-13_16h25.30.137,judgeSpeechMusic_20210519_logNormShiftAmp_mXs,2020.1.2,MacIntel,60,,,,,,,,,,,,,,2,6.572435,2,1,0,61,61,96,1,stimuli/stim_20210519_power2amp/equal_lnn_AM2.5Hz_s55_31.m4a,1.658835,,
,,,,,,,,,,,,40448,2021-06-13_16h25.30.137,judgeSpeechMusic_20210519_logNormShiftAmp_mXs,2020.1.2,MacIntel,60,,,,,,,,,,,,,,2,5.7416,,0,0,62,62,83,1,stimuli/stim_20210519_power2amp/equal_lnn_AM2.5Hz_s45_42.m4a,,,
,,,,,,,,,,,,40448,2021-06-13_16h25.30.137,judgeSpeechMusic_20210519_logNormShiftAmp_mXs,2020.1.2,MacIntel,60,,,,,,,,,,,,,,1,8.55112,,0,0,63,63,11,1,stimuli/stim_20210519_power2amp/equal_lnn_AM1Hz_s25_34.m4a,,,
,,,,,,,,,,,,40448,2021-06-13_16h25.30.137,judgeSpeechMusic_20210519_logNormShiftAmp_mXs,2020.1.2,MacIntel,60,,,,,,,,,,,,,,2,7.08839,,0,0,64,64,148,1,stimuli/stim_20210519_power2amp/equal_lnn_AM4Hz_s55_34.m4a,,,
,,,,,,,,,,,,40448,2021-06-13_16h25.30.137,judgeSpeechMusic_20210519_logNormShiftAmp_mXs,2020.1.2,MacIntel,60,,,,,,,,,,,,,,1,6.49129,,0,0,65,65,108,1,stimuli/stim_20210519_power2amp/equal_lnn_AM4Hz_s15_46.m4a,,,
,,,,,,,,,,,,40448,2021-06-13_16h25.30.137,judgeSpeechMusic_20210519_logNormShiftAmp_mXs,2020.1.2,MacIntel,60,,,,,,,,,,,,,,1,5.72021,,0,0,66,66,36,1,stimuli/stim_20210519_power2amp/equal_lnn_AM1Hz_s45_8.m4a,,,
,,,,,,,,,,,,40448,2021-06-13_16h25.30.137,judgeSpeechMusic_20210519_logNormShiftAmp_mXs,2020.1.2,MacIntel,60,,,,,,,,,,,,,,1,6.42161,,0,0,67,67,22,1,stimuli/stim_20210519_power2amp/equal_lnn_AM1Hz_s35_36.m4a,,,
,,,,,,,,,,,,40448,2021-06-13_16h25.30.137,judgeSpeechMusic_20210519_logNormShiftAmp_mXs,2020.1.2,MacIntel,60,,,,,,,,,,,,,,2,5.90269,,0,0,68,68,94,1,stimuli/stim_20210519_power2amp/equal_lnn_AM2.5Hz_s55_41.m4a,,,
,,,,,,,,,,,,40448,2021-06-13_16h25.30.137,judgeSpeechMusic_20210519_logNormShiftAmp_mXs,2020.1.2,MacIntel,60,,,,,,,,,,,,,,2,5.692035,,0,0,69,69,54,1,stimuli/stim_20210519_power2amp/equal_lnn_AM2.5Hz_s15_21.m4a,,,
,,,,,,,,,,,,40448,2021-06-13_16h25.30.137,judgeSpeechMusic_20210519_logNormShiftAmp_mXs,2020.1.2,MacIntel,60,,,,,,,,,,,,,,2,6.56011,,0,0,70,70,37,1,stimuli/stim_20210519_power2amp/equal_lnn_AM1Hz_s45_30.m4a,,,
,,,,,,,,,,,,40448,2021-06-13_16h25.30.137,judgeSpeechMusic_20210519_logNormShiftAmp_mXs,2020.1.2,MacIntel,60,,,,,,,,,,,,,,1,9.420855,,0,0,71,71,125,1,stimuli/stim_20210519_power2amp/equal_lnn_AM4Hz_s35_38.m4a,,,
,,,,,,,,,,,,40448,2021-06-13_16h25.30.137,judgeSpeechMusic_20210519_logNormShiftAmp_mXs,2020.1.2,MacIntel,60,,,,,,,,,,,,,,1,5.783005,,0,0,72,72,120,1,stimuli/stim_20210519_power2amp/equal_lnn_AM4Hz_s35_15.m4a,,,
,,,,,,,,,,,,40448,2021-06-13_16h25.30.137,judgeSpeechMusic_20210519_logNormShiftAmp_mXs,2020.1.2,MacIntel,60,,,,,,,,,,,,,,2,8.51905,,0,0,73,73,62,1,stimuli/stim_20210519_power2amp/equal_lnn_AM2.5Hz_s25_23.m4a,,,
,,,,,,,,,,,,40448,2021-06-13_16h25.30.137,judgeSpeechMusic_20210519_logNormShiftAmp_mXs,2020.1.2,MacIntel,60,,,,,,,,,,,,,,2,7.602265,,0,0,74,74,49,1,stimuli/stim_20210519_power2amp/equal_lnn_AM1Hz_s55_38.m4a,,,
,,,,,,,,,,,,40448,2021-06-13_16h25.30.137,judgeSpeechMusic_20210519_logNormShiftAmp_mXs,2020.1.2,MacIntel,60,,,,,,,,,,,,,,2,5.502375,,0,0,75,75,97,1,stimuli/stim_20210519_power2amp/equal_lnn_AM2.5Hz_s55_21.m4a,,,
,,,,,,,,,,,,40448,2021-06-13_16h25.30.137,judgeSpeechMusic_20210519_logNormShiftAmp_mXs,2020.1.2,MacIntel,60,,,,,,,,,,,,,,1,6.752575,,0,0,76,76,91,1,stimuli/stim_20210519_power2amp/equal_lnn_AM2.5Hz_s55_20.m4a,,,
,,,,,,,,,,,,40448,2021-06-13_16h25.30.137,judgeSpeechMusic_20210519_logNormShiftAmp_mXs,2020.1.2,MacIntel,60,,,,,,,,,,,,,,2,8.626405,,0,0,77,77,45,1,stimuli/stim_20210519_power2amp/equal_lnn_AM1Hz_s55_30.m4a,,,
,,,,,,,,,,,,40448,2021-06-13_16h25.30.137,judgeSpeechMusic_20210519_logNormShiftAmp_mXs,2020.1.2,MacIntel,60,,,,,,,,,,,,,,2,12.56521,,0,0,78,78,47,1,stimuli/stim_20210519_power2amp/equal_lnn_AM1Hz_s55_43.m4a,,,
,,,,,,,,,,,,40448,2021-06-13_16h25.30.137,judgeSpeechMusic_20210519_logNormShiftAmp_mXs,2020.1.2,MacIntel,60,,,,,,,,,,,,,,1,6.553305,,0,0,79,79,6,1,stimuli/stim_20210519_power2amp/equal_lnn_AM1Hz_s15_35.m4a,,,
,,,,,,,,,,,,40448,2021-06-13_16h25.30.137,judgeSpeechMusic_20210519_logNormShiftAmp_mXs,2020.1.2,MacIntel,60,,,,,,,,,,,,,,2,6.22336,,0,0,80,80,20,1,stimuli/stim_20210519_power2amp/equal_lnn_AM1Hz_s35_43.m4a,,,
,,,,,,,,,,,,40448,2021-06-13_16h25.30.137,judgeSpeechMusic_20210519_logNormShiftAmp_mXs,2020.1.2,MacIntel,60,,,,,,,,,,,,,,2,5.834725,,0,0,81,81,95,1,stimuli/stim_20210519_power2amp/equal_lnn_AM2.5Hz_s55_23.m4a,,,
,,,,,,,,,,,,40448,2021-06-13_16h25.30.137,judgeSpeechMusic_20210519_logNormShiftAmp_mXs,2020.1.2,MacIntel,60,,,,,,,,,,,,,,1,6.05456,,0,0,82,82,14,1,stimuli/stim_20210519_power2amp/equal_lnn_AM1Hz_s25_49.m4a,,,
,,,,,,,,,,,,40448,2021-06-13_16h25.30.137,judgeSpeechMusic_20210519_logNormShiftAmp_mXs,2020.1.2,MacIntel,60,,,,,,,,,,,,,,1,6.52707,,0,0,83,83,116,1,stimuli/stim_20210519_power2amp/equal_lnn_AM4Hz_s25_25.m4a,,,
,,,,,,,,,,,,40448,2021-06-13_16h25.30.137,judgeSpeechMusic_20210519_logNormShiftAmp_mXs,2020.1.2,MacIntel,60,,,,,,,,,,,,,,2,6.737505,2,1,0,84,84,134,1,stimuli/stim_20210519_power2amp/equal_lnn_AM4Hz_s45_10.m4a,10.080095,,
,,,,,,,,,,,,40448,2021-06-13_16h25.30.137,judgeSpeechMusic_20210519_logNormShiftAmp_mXs,2020.1.2,MacIntel,60,,,,,,,,,,,,,,2,10.518965,,0,0,85,85,72,1,stimuli/stim_20210519_power2amp/equal_lnn_AM2.5Hz_s35_21.m4a,,,
,,,,,,,,,,,,40448,2021-06-13_16h25.30.137,judgeSpeechMusic_20210519_logNormShiftAmp_mXs,2020.1.2,MacIntel,60,,,,,,,,,,,,,,2,14.802725,,0,0,86,86,102,1,stimuli/stim_20210519_power2amp/equal_lnn_AM4Hz_s15_47.m4a,,,
,,,,,,,,,,,,40448,2021-06-13_16h25.30.137,judgeSpeechMusic_20210519_logNormShiftAmp_mXs,2020.1.2,MacIntel,60,,,,,,,,,,,,,,1,7.152625,,0,0,87,87,17,1,stimuli/stim_20210519_power2amp/equal_lnn_AM1Hz_s25_42.m4a,,,
,,,,,,,,,,,,40448,2021-06-13_16h25.30.137,judgeSpeechMusic_20210519_logNormShiftAmp_mXs,2020.1.2,MacIntel,60,,,,,,,,,,,,,,2,6.80395,,0,0,88,88,101,1,stimuli/stim_20210519_power2amp/equal_lnn_AM4Hz_s15_16.m4a,,,
,,,,,,,,,,,,40448,2021-06-13_16h25.30.137,judgeSpeechMusic_20210519_logNormShiftAmp_mXs,2020.1.2,MacIntel,60,,,,,,,,,,,,,,2,6.587075,,0,0,89,89,71,1,stimuli/stim_20210519_power2amp/equal_lnn_AM2.5Hz_s35_3.m4a,,,
,,,,,,,,,,,,40448,2021-06-13_16h25.30.137,judgeSpeechMusic_20210519_logNormShiftAmp_mXs,2020.1.2,MacIntel,60,,,,,,,,,,,,,,2,6.330335,,0,0,90,90,32,1,stimuli/stim_20210519_power2amp/equal_lnn_AM1Hz_s45_22.m4a,,,
,,,,,,,,,,,,40448,2021-06-13_16h25.30.137,judgeSpeechMusic_20210519_logNormShiftAmp_mXs,2020.1.2,MacIntel,60,,,,,,,,,,,,,,1,6.449555,,0,0,91,91,133,1,stimuli/stim_20210519_power2amp/equal_lnn_AM4Hz_s45_4.m4a,,,
,,,,,,,,,,,,40448,2021-06-13_16h25.30.137,judgeSpeechMusic_20210519_logNormShiftAmp_mXs,2020.1.2,MacIntel,60,,,,,,,,,,,,,,2,6.718525,,0,0,92,92,52,1,stimuli/stim_20210519_power2amp/equal_lnn_AM2.5Hz_s15_50.m4a,,,
,,,,,,,,,,,,40448,2021-06-13_16h25.30.137,judgeSpeechMusic_20210519_logNormShiftAmp_mXs,2020.1.2,MacIntel,60,,,,,,,,,,,,,,1,8.304795,,0,0,93,93,106,1,stimuli/stim_20210519_power2amp/equal_lnn_AM4Hz_s15_31.m4a,,,
,,,,,,,,,,,,40448,2021-06-13_16h25.30.137,judgeSpeechMusic_20210519_logNormShiftAmp_mXs,2020.1.2,MacIntel,60,,,,,,,,,,,,,,2,25.87312,,0,0,94,94,145,1,stimuli/stim_20210519_power2amp/equal_lnn_AM4Hz_s55_17.m4a,,,
,,,,,,,,,,,,40448,2021-06-13_16h25.30.137,judgeSpeechMusic_20210519_logNormShiftAmp_mXs,2020.1.2,MacIntel,60,,,,,,,,,,,,,,1,9.304955,,0,0,95,95,27,1,stimuli/stim_20210519_power2amp/equal_lnn_AM1Hz_s35_23.m4a,,,
,,,,,,,,,,,,40448,2021-06-13_16h25.30.137,judgeSpeechMusic_20210519_logNormShiftAmp_mXs,2020.1.2,MacIntel,60,,,,,,,,,,,,,,2,9.559875,,0,0,96,96,118,1,stimuli/stim_20210519_power2amp/equal_lnn_AM4Hz_s25_14.m4a,,,
,,,,,,,,,,,,40448,2021-06-13_16h25.30.137,judgeSpeechMusic_20210519_logNormShiftAmp_mXs,2020.1.2,MacIntel,60,,,,,,,,,,,,,,1,10.542365,,0,0,97,97,41,1,stimuli/stim_20210519_power2amp/equal_lnn_AM1Hz_s55_4.m4a,,,
,,,,,,,,,,,,40448,2021-06-13_16h25.30.137,judgeSpeechMusic_20210519_logNormShiftAmp_mXs,2020.1.2,MacIntel,60,,,,,,,,,,,,,,2,16.64154,,0,0,98,98,78,1,stimuli/stim_20210519_power2amp/equal_lnn_AM2.5Hz_s35_29.m4a,,,
,,,,,,,,,,,,40448,2021-06-13_16h25.30.137,judgeSpeechMusic_20210519_logNormShiftAmp_mXs,2020.1.2,MacIntel,60,,,,,,,,,,,,,,2,7.618815,,0,0,99,99,149,1,stimuli/stim_20210519_power2amp/equal_lnn_AM4Hz_s55_8.m4a,,,
,,,,,,,,,,,,40448,2021-06-13_16h25.30.137,judgeSpeechMusic_20210519_logNormShiftAmp_mXs,2020.1.2,MacIntel,60,,,,,,,,,,,,,,2,15.00811,,0,0,100,100,73,1,stimuli/stim_20210519_power2amp/equal_lnn_AM2.5Hz_s35_19.m4a,,,
,,,,,,,,,,,,40448,2021-06-13_16h25.30.137,judgeSpeechMusic_20210519_logNormShiftAmp_mXs,2020.1.2,MacIntel,60,,,,,,,,,,,,,,2,6.00946,,0,0,101,101,129,1,stimuli/stim_20210519_power2amp/equal_lnn_AM4Hz_s35_35.m4a,,,
,,,,,,,,,,,,40448,2021-06-13_16h25.30.137,judgeSpeechMusic_20210519_logNormShiftAmp_mXs,2020.1.2,MacIntel,60,,,,,,,,,,,,,,2,19.391735,,0,0,102,102,110,1,stimuli/stim_20210519_power2amp/equal_lnn_AM4Hz_s25_4.m4a,,,
,,,,,,,,,,,,40448,2021-06-13_16h25.30.137,judgeSpeechMusic_20210519_logNormShiftAmp_mXs,2020.1.2,MacIntel,60,,,,,,,,,,,,,,1,9.78904,,0,0,103,103,58,1,stimuli/stim_20210519_power2amp/equal_lnn_AM2.5Hz_s15_2.m4a,,,
,,,,,,,,,,,,40448,2021-06-13_16h25.30.137,judgeSpeechMusic_20210519_logNormShiftAmp_mXs,2020.1.2,MacIntel,60,,,,,,,,,,,,,,1,12.78994,,0,0,104,104,57,1,stimuli/stim_20210519_power2amp/equal_lnn_AM2.5Hz_s15_23.m4a,,,
,,,,,,,,,,,,40448,2021-06-13_16h25.30.137,judgeSpeechMusic_20210519_logNormShiftAmp_mXs,2020.1.2,MacIntel,60,,,,,,,,,,,,,,1,7.27395,,0,0,105,105,88,1,stimuli/stim_20210519_power2amp/equal_lnn_AM2.5Hz_s45_1.m4a,,,
,,,,,,,,,,,,40448,2021-06-13_16h25.30.137,judgeSpeechMusic_20210519_logNormShiftAmp_mXs,2020.1.2,MacIntel,60,,,,,,,,,,,,,,2,6.059255,,0,0,106,106,81,1,stimuli/stim_20210519_power2amp/equal_lnn_AM2.5Hz_s45_12.m4a,,,
,,,,,,,,,,,,40448,2021-06-13_16h25.30.137,judgeSpeechMusic_20210519_logNormShiftAmp_mXs,2020.1.2,MacIntel,60,,,,,,,,,,,,,,2,5.58584,,0,0,107,107,98,1,stimuli/stim_20210519_power2amp/equal_lnn_AM2.5Hz_s55_50.m4a,,,
,,,,,,,,,,,,40448,2021-06-13_16h25.30.137,judgeSpeechMusic_20210519_logNormShiftAmp_mXs,2020.1.2,MacIntel,60,,,,,,,,,,,,,,2,6.11996,1,1,0,108,108,126,1,stimuli/stim_20210519_power2amp/equal_lnn_AM4Hz_s35_5.m4a,1.029195,,
,,,,,,,,,,,,40448,2021-06-13_16h25.30.137,judgeSpeechMusic_20210519_logNormShiftAmp_mXs,2020.1.2,MacIntel,60,,,,,,,,,,,,,,1,7.10105,,0,0,109,109,34,1,stimuli/stim_20210519_power2amp/equal_lnn_AM1Hz_s45_11.m4a,,,
,,,,,,,,,,,,40448,2021-06-13_16h25.30.137,judgeSpeechMusic_20210519_logNormShiftAmp_mXs,2020.1.2,MacIntel,60,,,,,,,,,,,,,,1,7.92141,,0,0,110,110,43,1,stimuli/stim_20210519_power2amp/equal_lnn_AM1Hz_s55_22.m4a,,,
,,,,,,,,,,,,40448,2021-06-13_16h25.30.137,judgeSpeechMusic_20210519_logNormShiftAmp_mXs,2020.1.2,MacIntel,60,,,,,,,,,,,,,,1,5.63305,,0,0,111,111,87,1,stimuli/stim_20210519_power2amp/equal_lnn_AM2.5Hz_s45_4.m4a,,,
,,,,,,,,,,,,40448,2021-06-13_16h25.30.137,judgeSpeechMusic_20210519_logNormShiftAmp_mXs,2020.1.2,MacIntel,60,,,,,,,,,,,,,,1,6.76933,,0,0,112,112,85,1,stimuli/stim_20210519_power2amp/equal_lnn_AM2.5Hz_s45_31.m4a,,,
,,,,,,,,,,,,40448,2021-06-13_16h25.30.137,judgeSpeechMusic_20210519_logNormShiftAmp_mXs,2020.1.2,MacIntel,60,,,,,,,,,,,,,,1,5.785725,,0,0,113,113,5,1,stimuli/stim_20210519_power2amp/equal_lnn_AM1Hz_s15_22.m4a,,,
,,,,,,,,,,,,40448,2021-06-13_16h25.30.137,judgeSpeechMusic_20210519_logNormShiftAmp_mXs,2020.1.2,MacIntel,60,,,,,,,,,,,,,,1,7.185745,,0,0,114,114,68,1,stimuli/stim_20210519_power2amp/equal_lnn_AM2.5Hz_s25_4.m4a,,,
,,,,,,,,,,,,40448,2021-06-13_16h25.30.137,judgeSpeechMusic_20210519_logNormShiftAmp_mXs,2020.1.2,MacIntel,60,,,,,,,,,,,,,,2,7.06858,,0,0,115,115,61,1,stimuli/stim_20210519_power2amp/equal_lnn_AM2.5Hz_s25_9.m4a,,,
,,,,,,,,,,,,40448,2021-06-13_16h25.30.137,judgeSpeechMusic_20210519_logNormShiftAmp_mXs,2020.1.2,MacIntel,60,,,,,,,,,,,,,,1,25.85755,,0,0,116,116,33,1,stimuli/stim_20210519_power2amp/equal_lnn_AM1Hz_s45_24.m4a,,,
,,,,,,,,,,,,40448,2021-06-13_16h25.30.137,judgeSpeechMusic_20210519_logNormShiftAmp_mXs,2020.1.2,MacIntel,60,,,,,,,,,,,,,,2,21.53736,,0,0,117,117,2,1,stimuli/stim_20210519_power2amp/equal_lnn_AM1Hz_s15_29.m4a,,,
,,,,,,,,,,,,40448,2021-06-13_16h25.30.137,judgeSpeechMusic_20210519_logNormShiftAmp_mXs,2020.1.2,MacIntel,60,,,,,,,,,,,,,,2,10.38642,,0,0,118,118,16,1,stimuli/stim_20210519_power2amp/equal_lnn_AM1Hz_s25_21.m4a,,,
,,,,,,,,,,,,40448,2021-06-13_16h25.30.137,judgeSpeechMusic_20210519_logNormShiftAmp_mXs,2020.1.2,MacIntel,60,,,,,,,,,,,,,,2,14.12047,,0,0,119,119,30,1,stimuli/stim_20210519_power2amp/equal_lnn_AM1Hz_s45_47.m4a,,,
,,,,,,,,,,,,40448,2021-06-13_16h25.30.137,judgeSpeechMusic_20210519_logNormShiftAmp_mXs,2020.1.2,MacIntel,60,,,,,,,,,,,,,,1,6.90991,,0,0,120,120,15,1,stimuli/stim_20210519_power2amp/equal_lnn_AM1Hz_s25_31.m4a,,,
,,,,,,,,,,,,40448,2021-06-13_16h25.30.137,judgeSpeechMusic_20210519_logNormShiftAmp_mXs,2020.1.2,MacIntel,60,,,,,,,,,,,,,,1,8.92266,,0,0,121,121,12,1,stimuli/stim_20210519_power2amp/equal_lnn_AM1Hz_s25_40.m4a,,,
,,,,,,,,,,,,40448,2021-06-13_16h25.30.137,judgeSpeechMusic_20210519_logNormShiftAmp_mXs,2020.1.2,MacIntel,60,,,,,,,,,,,,,,2,8.82421,,0,0,122,122,25,1,stimuli/stim_20210519_power2amp/equal_lnn_AM1Hz_s35_39.m4a,,,
,,,,,,,,,,,,40448,2021-06-13_16h25.30.137,judgeSpeechMusic_20210519_logNormShiftAmp_mXs,2020.1.2,MacIntel,60,,,,,,,,,,,,,,1,12.694755,,0,0,123,123,38,1,stimuli/stim_20210519_power2amp/equal_lnn_AM1Hz_s45_36.m4a,,,
,,,,,,,,,,,,40448,2021-06-13_16h25.30.137,judgeSpeechMusic_20210519_logNormShiftAmp_mXs,2020.1.2,MacIntel,60,,,,,,,,,,,,,,2,11.041415,,0,0,124,124,53,1,stimuli/stim_20210519_power2amp/equal_lnn_AM2.5Hz_s15_47.m4a,,,
,,,,,,,,,,,,40448,2021-06-13_16h25.30.137,judgeSpeechMusic_20210519_logNormShiftAmp_mXs,2020.1.2,MacIntel,60,,,,,,,,,,,,,,2,8.743035,,0,0,125,125,117,1,stimuli/stim_20210519_power2amp/equal_lnn_AM4Hz_s25_19.m4a,,,
,,,,,,,,,,,,40448,2021-06-13_16h25.30.137,judgeSpeechMusic_20210519_logNormShiftAmp_mXs,2020.1.2,MacIntel,60,,,,,,,,,,,,,,1,9.62502,,0,0,126,126,111,1,stimuli/stim_20210519_power2amp/equal_lnn_AM4Hz_s25_34.m4a,,,
,,,,,,,,,,,,40448,2021-06-13_16h25.30.137,judgeSpeechMusic_20210519_logNormShiftAmp_mXs,2020.1.2,MacIntel,60,,,,,,,,,,,,,,1,5.718025,,0,0,127,127,31,1,stimuli/stim_20210519_power2amp/equal_lnn_AM1Hz_s45_2.m4a,,,
,,,,,,,,,,,,40448,2021-06-13_16h25.30.137,judgeSpeechMusic_20210519_logNormShiftAmp_mXs,2020.1.2,MacIntel,60,,,,,,,,,,,,,,1,7.05209,,0,0,128,128,136,1,stimuli/stim_20210519_power2amp/equal_lnn_AM4Hz_s45_39.m4a,,,
,,,,,,,,,,,,40448,2021-06-13_16h25.30.137,judgeSpeechMusic_20210519_logNormShiftAmp_mXs,2020.1.2,MacIntel,60,,,,,,,,,,,,,,1,7.35249,,0,0,129,129,127,1,stimuli/stim_20210519_power2amp/equal_lnn_AM4Hz_s35_29.m4a,,,
,,,,,,,,,,,,40448,2021-06-13_16h25.30.137,judgeSpeechMusic_20210519_logNormShiftAmp_mXs,2020.1.2,MacIntel,60,,,,,,,,,,,,,,1,6.242985,,0,0,130,130,107,1,stimuli/stim_20210519_power2amp/equal_lnn_AM4Hz_s15_14.m4a,,,
,,,,,,,,,,,,40448,2021-06-13_16h25.30.137,judgeSpeechMusic_20210519_logNormShiftAmp_mXs,2020.1.2,MacIntel,60,,,,,,,,,,,,,,1,5.968205,,0,0,131,131,46,1,stimuli/stim_20210519_power2amp/equal_lnn_AM1Hz_s55_16.m4a,,,
,,,,,,,,,,,,40448,2021-06-13_16h25.30.137,judgeSpeechMusic_20210519_logNormShiftAmp_mXs,2020.1.2,MacIntel,60,,,,,,,,,,,,,,2,6.23457,,0,0,132,132,74,1,stimuli/stim_20210519_power2amp/equal_lnn_AM2.5Hz_s35_2.m4a,,,
,,,,,,,,,,,,40448,2021-06-13_16h25.30.137,judgeSpeechMusic_20210519_logNormShiftAmp_mXs,2020.1.2,MacIntel,60,,,,,,,,,,,,,,1,7.20651,1,1,0,133,133,24,1,stimuli/stim_20210519_power2amp/equal_lnn_AM1Hz_s35_7.m4a,1.130165,,
,,,,,,,,,,,,40448,2021-06-13_16h25.30.137,judgeSpeechMusic_20210519_logNormShiftAmp_mXs,2020.1.2,MacIntel,60,,,,,,,,,,,,,,1,5.70271,,0,0,134,134,105,1,stimuli/stim_20210519_power2amp/equal_lnn_AM4Hz_s15_45.m4a,,,
,,,,,,,,,,,,40448,2021-06-13_16h25.30.137,judgeSpeechMusic_20210519_logNormShiftAmp_mXs,2020.1.2,MacIntel,60,,,,,,,,,,,,,,1,6.97037,,0,0,135,135,64,1,stimuli/stim_20210519_power2amp/equal_lnn_AM2.5Hz_s25_30.m4a,,,
,,,,,,,,,,,,40448,2021-06-13_16h25.30.137,judgeSpeechMusic_20210519_logNormShiftAmp_mXs,2020.1.2,MacIntel,60,,,,,,,,,,,,,,1,7.058465,,0,0,136,136,100,1,stimuli/stim_20210519_power2amp/equal_lnn_AM4Hz_s15_13.m4a,,,
,,,,,,,,,,,,40448,2021-06-13_16h25.30.137,judgeSpeechMusic_20210519_logNormShiftAmp_mXs,2020.1.2,MacIntel,60,,,,,,,,,,,,,,2,10.810845,,0,0,137,137,28,1,stimuli/stim_20210519_power2amp/equal_lnn_AM1Hz_s35_25.m4a,,,
,,,,,,,,,,,,40448,2021-06-13_16h25.30.137,judgeSpeechMusic_20210519_logNormShiftAmp_mXs,2020.1.2,MacIntel,60,,,,,,,,,,,,,,2,7.45882,,0,0,138,138,124,1,stimuli/stim_20210519_power2amp/equal_lnn_AM4Hz_s35_17.m4a,,,
,,,,,,,,,,,,40448,2021-06-13_16h25.30.137,judgeSpeechMusic_20210519_logNormShiftAmp_mXs,2020.1.2,MacIntel,60,,,,,,,,,,,,,,1,33.465595,,0,0,139,139,3,1,stimuli/stim_20210519_power2amp/equal_lnn_AM1Hz_s15_27.m4a,,,
,,,,,,,,,,,,40448,2021-06-13_16h25.30.137,judgeSpeechMusic_20210519_logNormShiftAmp_mXs,2020.1.2,MacIntel,60,,,,,,,,,,,,,,2,6.78778,,0,0,140,140,112,1,stimuli/stim_20210519_power2amp/equal_lnn_AM4Hz_s25_7.m4a,,,
,,,,,,,,,,,,40448,2021-06-13_16h25.30.137,judgeSpeechMusic_20210519_logNormShiftAmp_mXs,2020.1.2,MacIntel,60,,,,,,,,,,,,,,1,11.09287,,0,0,141,141,104,1,stimuli/stim_20210519_power2amp/equal_lnn_AM4Hz_s15_12.m4a,,,
,,,,,,,,,,,,40448,2021-06-13_16h25.30.137,judgeSpeechMusic_20210519_logNormShiftAmp_mXs,2020.1.2,MacIntel,60,,,,,,,,,,,,,,1,36.50173,,0,0,142,142,8,1,stimuli/stim_20210519_power2amp/equal_lnn_AM1Hz_s15_5.m4a,,,
,,,,,,,,,,,,40448,2021-06-13_16h25.30.137,judgeSpeechMusic_20210519_logNormShiftAmp_mXs,2020.1.2,MacIntel,60,,,,,,,,,,,,,,1,23.001515,,0,0,143,143,13,1,stimuli/stim_20210519_power2amp/equal_lnn_AM1Hz_s25_29.m4a,,,
,,,,,,,,,,,,40448,2021-06-13_16h25.30.137,judgeSpeechMusic_20210519_logNormShiftAmp_mXs,2020.1.2,MacIntel,60,,,,,,,,,,,,,,2,6.686425,,0,0,144,144,146,1,stimuli/stim_20210519_power2amp/equal_lnn_AM4Hz_s55_42.m4a,,,
,,,,,,,,,,,,40448,2021-06-13_16h25.30.137,judgeSpeechMusic_20210519_logNormShiftAmp_mXs,2020.1.2,MacIntel,60,,,,,,,,,,,,,,1,6.18485,,0,0,145,145,19,1,stimuli/stim_20210519_power2amp/equal_lnn_AM1Hz_s25_2.m4a,,,
,,,,,,,,,,,,40448,2021-06-13_16h25.30.137,judgeSpeechMusic_20210519_logNormShiftAmp_mXs,2020.1.2,MacIntel,60,,,,,,,,,,,,,,1,6.436425,,0,0,146,146,130,1,stimuli/stim_20210519_power2amp/equal_lnn_AM4Hz_s45_49.m4a,,,
,,,,,,,,,,,,40448,2021-06-13_16h25.30.137,judgeSpeechMusic_20210519_logNormShiftAmp_mXs,2020.1.2,MacIntel,60,,,,,,,,,,,,,,1,7.617385,,0,0,147,147,77,1,stimuli/stim_20210519_power2amp/equal_lnn_AM2.5Hz_s35_22.m4a,,,
,,,,,,,,,,,,40448,2021-06-13_16h25.30.137,judgeSpeechMusic_20210519_logNormShiftAmp_mXs,2020.1.2,MacIntel,60,,,,,,,,,,,,,,1,7.72418,,0,0,148,148,4,1,stimuli/stim_20210519_power2amp/equal_lnn_AM1Hz_s15_44.m4a,,,
,,,,,,,,,,,,40448,2021-06-13_16h25.30.137,judgeSpeechMusic_20210519_logNormShiftAmp_mXs,2020.1.2,MacIntel,60,,,,,,,,,,,,,,1,6.39009,,0,0,149,149,93,1,stimuli/stim_20210519_power2amp/equal_lnn_AM2.5Hz_s55_1.m4a,,,
,,,,,,,,,,,,40448,2021-06-13_16h25.30.137,judgeSpeechMusic_20210519_logNormShiftAmp_mXs,2020.1.2,MacIntel,60,,,,,,,,,,,,,,2,6.391295,,0,1,0,150,83,1,stimuli/stim_20210519_power2amp/equal_lnn_AM2.5Hz_s45_42.m4a,,,
,,,,,,,,,,,,40448,2021-06-13_16h25.30.137,judgeSpeechMusic_20210519_logNormShiftAmp_mXs,2020.1.2,MacIntel,60,,,,,,,,,,,,,,2,6.8349,,0,1,1,151,39,1,stimuli/stim_20210519_power2amp/equal_lnn_AM1Hz_s45_26.m4a,,,
,,,,,,,,,,,,40448,2021-06-13_16h25.30.137,judgeSpeechMusic_20210519_logNormShiftAmp_mXs,2020.1.2,MacIntel,60,,,,,,,,,,,,,,2,6.151515,,0,1,2,152,35,1,stimuli/stim_20210519_power2amp/equal_lnn_AM1Hz_s45_28.m4a,,,
,,,,,,,,,,,,40448,2021-06-13_16h25.30.137,judgeSpeechMusic_20210519_logNormShiftAmp_mXs,2020.1.2,MacIntel,60,,,,,,,,,,,,,,2,5.650755,,0,1,3,153,99,1,stimuli/stim_20210519_power2amp/equal_lnn_AM2.5Hz_s55_17.m4a,,,
,,,,,,,,,,,,40448,2021-06-13_16h25.30.137,judgeSpeechMusic_20210519_logNormShiftAmp_mXs,2020.1.2,MacIntel,60,,,,,,,,,,,,,,2,6.23363,,0,1,4,154,36,1,stimuli/stim_20210519_power2amp/equal_lnn_AM1Hz_s45_8.m4a,,,
,,,,,,,,,,,,40448,2021-06-13_16h25.30.137,judgeSpeechMusic_20210519_logNormShiftAmp_mXs,2020.1.2,MacIntel,60,,,,,,,,,,,,,,2,5.691575,,0,1,5,155,148,1,stimuli/stim_20210519_power2amp/equal_lnn_AM4Hz_s55_34.m4a,,,
,,,,,,,,,,,,40448,2021-06-13_16h25.30.137,judgeSpeechMusic_20210519_logNormShiftAmp_mXs,2020.1.2,MacIntel,60,,,,,,,,,,,,,,1,6.30115,1,1,1,6,156,144,1,stimuli/stim_20210519_power2amp/equal_lnn_AM4Hz_s55_7.m4a,1.789395,,
,,,,,,,,,,,,40448,2021-06-13_16h25.30.137,judgeSpeechMusic_20210519_logNormShiftAmp_mXs,2020.1.2,MacIntel,60,,,,,,,,,,,,,,1,6.809945,,0,1,7,157,103,1,stimuli/stim_20210519_power2amp/equal_lnn_AM4Hz_s15_30.m4a,,,
,,,,,,,,,,,,40448,2021-06-13_16h25.30.137,judgeSpeechMusic_20210519_logNormShiftAmp_mXs,2020.1.2,MacIntel,60,,,,,,,,,,,,,,1,8.253515,,0,1,8,158,68,1,stimuli/stim_20210519_power2amp/equal_lnn_AM2.5Hz_s25_4.m4a,,,
,,,,,,,,,,,,40448,2021-06-13_16h25.30.137,judgeSpeechMusic_20210519_logNormShiftAmp_mXs,2020.1.2,MacIntel,60,,,,,,,,,,,,,,1,6.62459,,0,1,9,159,89,1,stimuli/stim_20210519_power2amp/equal_lnn_AM2.5Hz_s45_45.m4a,,,
,,,,,,,,,,,,40448,2021-06-13_16h25.30.137,judgeSpeechMusic_20210519_logNormShiftAmp_mXs,2020.1.2,MacIntel,60,,,,,,,,,,,,,,1,9.22184,,0,1,10,160,21,1,stimuli/stim_20210519_power2amp/equal_lnn_AM1Hz_s35_13.m4a,,,
,,,,,,,,,,,,40448,2021-06-13_16h25.30.137,judgeSpeechMusic_20210519_logNormShiftAmp_mXs,2020.1.2,MacIntel,60,,,,,,,,,,,,,,2,8.34303,,0,1,11,161,120,1,stimuli/stim_20210519_power2amp/equal_lnn_AM4Hz_s35_15.m4a,,,
,,,,,,,,,,,,40448,2021-06-13_16h25.30.137,judgeSpeechMusic_20210519_logNormShiftAmp_mXs,2020.1.2,MacIntel,60,,,,,,,,,,,,,,1,8.07128,,0,1,12,162,75,1,stimuli/stim_20210519_power2amp/equal_lnn_AM2.5Hz_s35_31.m4a,,,
,,,,,,,,,,,,40448,2021-06-13_16h25.30.137,judgeSpeechMusic_20210519_logNormShiftAmp_mXs,2020.1.2,MacIntel,60,,,,,,,,,,,,,,2,7.78505,,0,1,13,163,97,1,stimuli/stim_20210519_power2amp/equal_lnn_AM2.5Hz_s55_21.m4a,,,
,,,,,,,,,,,,40448,2021-06-13_16h25.30.137,judgeSpeechMusic_20210519_logNormShiftAmp_mXs,2020.1.2,MacIntel,60,,,,,,,,,,,,,,2,5.58513,,0,1,14,164,78,1,stimuli/stim_20210519_power2amp/equal_lnn_AM2.5Hz_s35_29.m4a,,,
,,,,,,,,,,,,40448,2021-06-13_16h25.30.137,judgeSpeechMusic_20210519_logNormShiftAmp_mXs,2020.1.2,MacIntel,60,,,,,,,,,,,,,,2,9.75432,,0,1,15,165,85,1,stimuli/stim_20210519_power2amp/equal_lnn_AM2.5Hz_s45_31.m4a,,,
,,,,,,,,,,,,40448,2021-06-13_16h25.30.137,judgeSpeechMusic_20210519_logNormShiftAmp_mXs,2020.1.2,MacIntel,60,,,,,,,,,,,,,,1,8.158865,,0,1,16,166,136,1,stimuli/stim_20210519_power2amp/equal_lnn_AM4Hz_s45_39.m4a,,,
,,,,,,,,,,,,40448,2021-06-13_16h25.30.137,judgeSpeechMusic_20210519_logNormShiftAmp_mXs,2020.1.2,MacIntel,60,,,,,,,,,,,,,,1,11.90194,,0,1,17,167,115,1,stimuli/stim_20210519_power2amp/equal_lnn_AM4Hz_s25_23.m4a,,,
,,,,,,,,,,,,40448,2021-06-13_16h25.30.137,judgeSpeechMusic_20210519_logNormShiftAmp_mXs,2020.1.2,MacIntel,60,,,,,,,,,,,,,,1,7.70395,,0,1,18,168,65,1,stimuli/stim_20210519_power2amp/equal_lnn_AM2.5Hz_s25_20.m4a,,,
,,,,,,,,,,,,40448,2021-06-13_16h25.30.137,judgeSpeechMusic_20210519_logNormShiftAmp_mXs,2020.1.2,MacIntel,60,,,,,,,,,,,,,,2,10.203605,,0,1,19,169,49,1,stimuli/stim_20210519_power2amp/equal_lnn_AM1Hz_s55_38.m4a,,,
,,,,,,,,,,,,40448,2021-06-13_16h25.30.137,judgeSpeechMusic_20210519_logNormShiftAmp_mXs,2020.1.2,MacIntel,60,,,,,,,,,,,,,,2,7.720035,,0,1,20,170,79,1,stimuli/stim_20210519_power2amp/equal_lnn_AM2.5Hz_s35_27.m4a,,,
,,,,,,,,,,,,40448,2021-06-13_16h25.30.137,judgeSpeechMusic_20210519_logNormShiftAmp_mXs,2020.1.2,MacIntel,60,,,,,,,,,,,,,,1,6.685565,,0,1,21,171,47,1,stimuli/stim_20210519_power2amp/equal_lnn_AM1Hz_s55_43.m4a,,,
,,,,,,,,,,,,40448,2021-06-13_16h25.30.137,judgeSpeechMusic_20210519_logNormShiftAmp_mXs,2020.1.2,MacIntel,60,,,,,,,,,,,,,,1,6.88554,,0,1,22,172,142,1,stimuli/stim_20210519_power2amp/equal_lnn_AM4Hz_s55_5.m4a,,,
,,,,,,,,,,,,40448,2021-06-13_16h25.30.137,judgeSpeechMusic_20210519_logNormShiftAmp_mXs,2020.1.2,MacIntel,60,,,,,,,,,,,,,,1,14.725615,,0,1,23,173,30,1,stimuli/stim_20210519_power2amp/equal_lnn_AM1Hz_s45_47.m4a,,,
,,,,,,,,,,,,40448,2021-06-13_16h25.30.137,judgeSpeechMusic_20210519_logNormShiftAmp_mXs,2020.1.2,MacIntel,60,,,,,,,,,,,,,,1,7.383785,,0,1,24,174,139,1,stimuli/stim_20210519_power2amp/equal_lnn_AM4Hz_s45_47.m4a,,,
,,,,,,,,,,,,40448,2021-06-13_16h25.30.137,judgeSpeechMusic_20210519_logNormShiftAmp_mXs,2020.1.2,MacIntel,60,,,,,,,,,,,,,,2,6.29061,,0,1,25,175,121,1,stimuli/stim_20210519_power2amp/equal_lnn_AM4Hz_s35_32.m4a,,,
,,,,,,,,,,,,40448,2021-06-13_16h25.30.137,judgeSpeechMusic_20210519_logNormShiftAmp_mXs,2020.1.2,MacIntel,60,,,,,,,,,,,,,,1,17.63672,,0,1,26,176,57,1,stimuli/stim_20210519_power2amp/equal_lnn_AM2.5Hz_s15_23.m4a,,,
,,,,,,,,,,,,40448,2021-06-13_16h25.30.137,judgeSpeechMusic_20210519_logNormShiftAmp_mXs,2020.1.2,MacIntel,60,,,,,,,,,,,,,,1,7.3939,,0,1,27,177,140,1,stimuli/stim_20210519_power2amp/equal_lnn_AM4Hz_s55_45.m4a,,,
,,,,,,,,,,,,40448,2021-06-13_16h25.30.137,judgeSpeechMusic_20210519_logNormShiftAmp_mXs,2020.1.2,MacIntel,60,,,,,,,,,,,,,,2,8.051045,,0,1,28,178,5,1,stimuli/stim_20210519_power2amp/equal_lnn_AM1Hz_s15_22.m4a,,,
,,,,,,,,,,,,40448,2021-06-13_16h25.30.137,judgeSpeechMusic_20210519_logNormShiftAmp_mXs,2020.1.2,MacIntel,60,,,,,,,,,,,,,,1,21.73942,4,1,1,29,179,4,1,stimuli/stim_20210519_power2amp/equal_lnn_AM1Hz_s15_44.m4a,0.994595,,
,,,,,,,,,,,,40448,2021-06-13_16h25.30.137,judgeSpeechMusic_20210519_logNormShiftAmp_mXs,2020.1.2,MacIntel,60,,,,,,,,,,,,,,1,24.15825,,0,1,30,180,45,1,stimuli/stim_20210519_power2amp/equal_lnn_AM1Hz_s55_30.m4a,,,
,,,,,,,,,,,,40448,2021-06-13_16h25.30.137,judgeSpeechMusic_20210519_logNormShiftAmp_mXs,2020.1.2,MacIntel,60,,,,,,,,,,,,,,2,7.44331,,0,1,31,181,105,1,stimuli/stim_20210519_power2amp/equal_lnn_AM4Hz_s15_45.m4a,,,
,,,,,,,,,,,,40448,2021-06-13_16h25.30.137,judgeSpeechMusic_20210519_logNormShiftAmp_mXs,2020.1.2,MacIntel,60,,,,,,,,,,,,,,2,7.10331,,0,1,32,182,132,1,stimuli/stim_20210519_power2amp/equal_lnn_AM4Hz_s45_14.m4a,,,
,,,,,,,,,,,,40448,2021-06-13_16h25.30.137,judgeSpeechMusic_20210519_logNormShiftAmp_mXs,2020.1.2,MacIntel,60,,,,,,,,,,,,,,2,17.269365,,0,1,33,183,117,1,stimuli/stim_20210519_power2amp/equal_lnn_AM4Hz_s25_19.m4a,,,
,,,,,,,,,,,,40448,2021-06-13_16h25.30.137,judgeSpeechMusic_20210519_logNormShiftAmp_mXs,2020.1.2,MacIntel,60,,,,,,,,,,,,,,1,6.36984,,0,1,34,184,67,1,stimuli/stim_20210519_power2amp/equal_lnn_AM2.5Hz_s25_3.m4a,,,
,,,,,,,,,,,,40448,2021-06-13_16h25.30.137,judgeSpeechMusic_20210519_logNormShiftAmp_mXs,2020.1.2,MacIntel,60,,,,,,,,,,,,,,1,10.901605,,0,1,35,185,24,1,stimuli/stim_20210519_power2amp/equal_lnn_AM1Hz_s35_7.m4a,,,
,,,,,,,,,,,,40448,2021-06-13_16h25.30.137,judgeSpeechMusic_20210519_logNormShiftAmp_mXs,2020.1.2,MacIntel,60,,,,,,,,,,,,,,2,6.83889,,0,1,36,186,54,1,stimuli/stim_20210519_power2amp/equal_lnn_AM2.5Hz_s15_21.m4a,,,
,,,,,,,,,,,,40448,2021-06-13_16h25.30.137,judgeSpeechMusic_20210519_logNormShiftAmp_mXs,2020.1.2,MacIntel,60,,,,,,,,,,,,,,1,7.833885,,0,1,37,187,40,1,stimuli/stim_20210519_power2amp/equal_lnn_AM1Hz_s55_41.m4a,,,
,,,,,,,,,,,,40448,2021-06-13_16h25.30.137,judgeSpeechMusic_20210519_logNormShiftAmp_mXs,2020.1.2,MacIntel,60,,,,,,,,,,,,,,1,5.74081,,0,1,38,188,13,1,stimuli/stim_20210519_power2amp/equal_lnn_AM1Hz_s25_29.m4a,,,
,,,,,,,,,,,,40448,2021-06-13_16h25.30.137,judgeSpeechMusic_20210519_logNormShiftAmp_mXs,2020.1.2,MacIntel,60,,,,,,,,,,,,,,1,6.18502,,0,1,39,189,22,1,stimuli/stim_20210519_power2amp/equal_lnn_AM1Hz_s35_36.m4a,,,
,,,,,,,,,,,,40448,2021-06-13_16h25.30.137,judgeSpeechMusic_20210519_logNormShiftAmp_mXs,2020.1.2,MacIntel,60,,,,,,,,,,,,,,2,13.088965,,0,1,40,190,133,1,stimuli/stim_20210519_power2amp/equal_lnn_AM4Hz_s45_4.m4a,,,
,,,,,,,,,,,,40448,2021-06-13_16h25.30.137,judgeSpeechMusic_20210519_logNormShiftAmp_mXs,2020.1.2,MacIntel,60,,,,,,,,,,,,,,2,22.85213,,0,1,41,191,50,1,stimuli/stim_20210519_power2amp/equal_lnn_AM2.5Hz_s15_11.m4a,,,
,,,,,,,,,,,,40448,2021-06-13_16h25.30.137,judgeSpeechMusic_20210519_logNormShiftAmp_mXs,2020.1.2,MacIntel,60,,,,,,,,,,,,,,1,21.43806,,0,1,42,192,9,1,stimuli/stim_20210519_power2amp/equal_lnn_AM1Hz_s15_10.m4a,,,
,,,,,,,,,,,,40448,2021-06-13_16h25.30.137,judgeSpeechMusic_20210519_logNormShiftAmp_mXs,2020.1.2,MacIntel,60,,,,,,,,,,,,,,1,28.26849,,0,1,43,193,108,1,stimuli/stim_20210519_power2amp/equal_lnn_AM4Hz_s15_46.m4a,,,
,,,,,,,,,,,,40448,2021-06-13_16h25.30.137,judgeSpeechMusic_20210519_logNormShiftAmp_mXs,2020.1.2,MacIntel,60,,,,,,,,,,,,,,2,8.39169,,0,1,44,194,43,1,stimuli/stim_20210519_power2amp/equal_lnn_AM1Hz_s55_22.m4a,,,
,,,,,,,,,,,,40448,2021-06-13_16h25.30.137,judgeSpeechMusic_20210519_logNormShiftAmp_mXs,2020.1.2,MacIntel,60,,,,,,,,,,,,,,1,6.87576,,0,1,45,195,60,1,stimuli/stim_20210519_power2amp/equal_lnn_AM2.5Hz_s25_31.m4a,,,
,,,,,,,,,,,,40448,2021-06-13_16h25.30.137,judgeSpeechMusic_20210519_logNormShiftAmp_mXs,2020.1.2,MacIntel,60,,,,,,,,,,,,,,2,8.50202,,0,1,46,196,86,1,stimuli/stim_20210519_power2amp/equal_lnn_AM2.5Hz_s45_20.m4a,,,
,,,,,,,,,,,,40448,2021-06-13_16h25.30.137,judgeSpeechMusic_20210519_logNormShiftAmp_mXs,2020.1.2,MacIntel,60,,,,,,,,,,,,,,1,13.65338,,0,1,47,197,111,1,stimuli/stim_20210519_power2amp/equal_lnn_AM4Hz_s25_34.m4a,,,
,,,,,,,,,,,,40448,2021-06-13_16h25.30.137,judgeSpeechMusic_20210519_logNormShiftAmp_mXs,2020.1.2,MacIntel,60,,,,,,,,,,,,,,1,10.071,,0,1,48,198,55,1,stimuli/stim_20210519_power2amp/equal_lnn_AM2.5Hz_s15_5.m4a,,,
,,,,,,,,,,,,40448,2021-06-13_16h25.30.137,judgeSpeechMusic_20210519_logNormShiftAmp_mXs,2020.1.2,MacIntel,60,,,,,,,,,,,,,,1,7.15415,,0,1,49,199,34,1,stimuli/stim_20210519_power2amp/equal_lnn_AM1Hz_s45_11.m4a,,,
,,,,,,,,,,,,40448,2021-06-13_16h25.30.137,judgeSpeechMusic_20210519_logNormShiftAmp_mXs,2020.1.2,MacIntel,60,,,,,,,,,,,,,,1,7.2915,,0,1,50,200,38,1,stimuli/stim_20210519_power2amp/equal_lnn_AM1Hz_s45_36.m4a,,,
,,,,,,,,,,,,40448,2021-06-13_16h25.30.137,judgeSpeechMusic_20210519_logNormShiftAmp_mXs,2020.1.2,MacIntel,60,,,,,,,,,,,,,,2,6.67568,4,1,1,51,201,29,1,stimuli/stim_20210519_power2amp/equal_lnn_AM1Hz_s35_38.m4a,0.97458,,
,,,,,,,,,,,,40448,2021-06-13_16h25.30.137,judgeSpeechMusic_20210519_logNormShiftAmp_mXs,2020.1.2,MacIntel,60,,,,,,,,,,,,,,1,7.18726,,0,1,52,202,80,1,stimuli/stim_20210519_power2amp/equal_lnn_AM2.5Hz_s45_7.m4a,,,
,,,,,,,,,,,,40448,2021-06-13_16h25.30.137,judgeSpeechMusic_20210519_logNormShiftAmp_mXs,2020.1.2,MacIntel,60,,,,,,,,,,,,,,1,5.73661,,0,1,53,203,8,1,stimuli/stim_20210519_power2amp/equal_lnn_AM1Hz_s15_5.m4a,,,
,,,,,,,,,,,,40448,2021-06-13_16h25.30.137,judgeSpeechMusic_20210519_logNormShiftAmp_mXs,2020.1.2,MacIntel,60,,,,,,,,,,,,,,2,5.86886,,0,1,54,204,106,1,stimuli/stim_20210519_power2amp/equal_lnn_AM4Hz_s15_31.m4a,,,
,,,,,,,,,,,,40448,2021-06-13_16h25.30.137,judgeSpeechMusic_20210519_logNormShiftAmp_mXs,2020.1.2,MacIntel,60,,,,,,,,,,,,,,1,8.052585,,0,1,55,205,0,1,stimuli/stim_20210519_power2amp/equal_lnn_AM1Hz_s15_31.m4a,,,
,,,,,,,,,,,,40448,2021-06-13_16h25.30.137,judgeSpeechMusic_20210519_logNormShiftAmp_mXs,2020.1.2,MacIntel,60,,,,,,,,,,,,,,1,9.009275,,0,1,56,206,76,1,stimuli/stim_20210519_power2amp/equal_lnn_AM2.5Hz_s35_7.m4a,,,
,,,,,,,,,,,,40448,2021-06-13_16h25.30.137,judgeSpeechMusic_20210519_logNormShiftAmp_mXs,2020.1.2,MacIntel,60,,,,,,,,,,,,,,2,6.0693,,0,1,57,207,137,1,stimuli/stim_20210519_power2amp/equal_lnn_AM4Hz_s45_22.m4a,,,
,,,,,,,,,,,,40448,2021-06-13_16h25.30.137,judgeSpeechMusic_20210519_logNormShiftAmp_mXs,2020.1.2,MacIntel,60,,,,,,,,,,,,,,1,6.72574,,0,1,58,208,98,1,stimuli/stim_20210519_power2amp/equal_lnn_AM2.5Hz_s55_50.m4a,,,
,,,,,,,,,,,,40448,2021-06-13_16h25.30.137,judgeSpeechMusic_20210519_logNormShiftAmp_mXs,2020.1.2,MacIntel,60,,,,,,,,,,,,,,1,6.337085,,0,1,59,209,26,1,stimuli/stim_20210519_power2amp/equal_lnn_AM1Hz_s35_44.m4a,,,
,,,,,,,,,,,,40448,2021-06-13_16h25.30.137,judgeSpeechMusic_20210519_logNormShiftAmp_mXs,2020.1.2,MacIntel,60,,,,,,,,,,,,,,2,5.689155,,0,1,60,210,114,1,stimuli/stim_20210519_power2amp/equal_lnn_AM4Hz_s25_50.m4a,,,
,,,,,,,,,,,,40448,2021-06-13_16h25.30.137,judgeSpeechMusic_20210519_logNormShiftAmp_mXs,2020.1.2,MacIntel,60,,,,,,,,,,,,,,1,6.636085,,0,1,61,211,104,1,stimuli/stim_20210519_power2amp/equal_lnn_AM4Hz_s15_12.m4a,,,
,,,,,,,,,,,,40448,2021-06-13_16h25.30.137,judgeSpeechMusic_20210519_logNormShiftAmp_mXs,2020.1.2,MacIntel,60,,,,,,,,,,,,,,2,17.271505,,0,1,62,212,130,1,stimuli/stim_20210519_power2amp/equal_lnn_AM4Hz_s45_49.m4a,,,
,,,,,,,,,,,,40448,2021-06-13_16h25.30.137,judgeSpeechMusic_20210519_logNormShiftAmp_mXs,2020.1.2,MacIntel,60,,,,,,,,,,,,,,1,6.720075,,0,1,63,213,84,1,stimuli/stim_20210519_power2amp/equal_lnn_AM2.5Hz_s45_9.m4a,,,
,,,,,,,,,,,,40448,2021-06-13_16h25.30.137,judgeSpeechMusic_20210519_logNormShiftAmp_mXs,2020.1.2,MacIntel,60,,,,,,,,,,,,,,2,7.403915,,0,1,64,214,37,1,stimuli/stim_20210519_power2amp/equal_lnn_AM1Hz_s45_30.m4a,,,
,,,,,,,,,,,,40448,2021-06-13_16h25.30.137,judgeSpeechMusic_20210519_logNormShiftAmp_mXs,2020.1.2,MacIntel,60,,,,,,,,,,,,,,1,6.05184,,0,1,65,215,31,1,stimuli/stim_20210519_power2amp/equal_lnn_AM1Hz_s45_2.m4a,,,
,,,,,,,,,,,,40448,2021-06-13_16h25.30.137,judgeSpeechMusic_20210519_logNormShiftAmp_mXs,2020.1.2,MacIntel,60,,,,,,,,,,,,,,1,7.45664,,0,1,66,216,109,1,stimuli/stim_20210519_power2amp/equal_lnn_AM4Hz_s15_33.m4a,,,
,,,,,,,,,,,,40448,2021-06-13_16h25.30.137,judgeSpeechMusic_20210519_logNormShiftAmp_mXs,2020.1.2,MacIntel,60,,,,,,,,,,,,,,2,10.840945,,0,1,67,217,74,1,stimuli/stim_20210519_power2amp/equal_lnn_AM2.5Hz_s35_2.m4a,,,
,,,,,,,,,,,,40448,2021-06-13_16h25.30.137,judgeSpeechMusic_20210519_logNormShiftAmp_mXs,2020.1.2,MacIntel,60,,,,,,,,,,,,,,2,8.63683,,0,1,68,218,90,1,stimuli/stim_20210519_power2amp/equal_lnn_AM2.5Hz_s55_49.m4a,,,
,,,,,,,,,,,,40448,2021-06-13_16h25.30.137,judgeSpeechMusic_20210519_logNormShiftAmp_mXs,2020.1.2,MacIntel,60,,,,,,,,,,,,,,1,6.937405,,0,1,69,219,126,1,stimuli/stim_20210519_power2amp/equal_lnn_AM4Hz_s35_5.m4a,,,
,,,,,,,,,,,,40448,2021-06-13_16h25.30.137,judgeSpeechMusic_20210519_logNormShiftAmp_mXs,2020.1.2,MacIntel,60,,,,,,,,,,,,,,2,8.10625,,0,1,70,220,82,1,stimuli/stim_20210519_power2amp/equal_lnn_AM2.5Hz_s45_8.m4a,,,
,,,,,,,,,,,,40448,2021-06-13_16h25.30.137,judgeSpeechMusic_20210519_logNormShiftAmp_mXs,2020.1.2,MacIntel,60,,,,,,,,,,,,,,1,5.803565,,0,1,71,221,93,1,stimuli/stim_20210519_power2amp/equal_lnn_AM2.5Hz_s55_1.m4a,,,
,,,,,,,,,,,,40448,2021-06-13_16h25.30.137,judgeSpeechMusic_20210519_logNormShiftAmp_mXs,2020.1.2,MacIntel,60,,,,,,,,,,,,,,1,5.76593,4,1,1,72,222,127,1,stimuli/stim_20210519_power2amp/equal_lnn_AM4Hz_s35_29.m4a,1.22646,,
,,,,,,,,,,,,40448,2021-06-13_16h25.30.137,judgeSpeechMusic_20210519_logNormShiftAmp_mXs,2020.1.2,MacIntel,60,,,,,,,,,,,,,,2,6.270955,,0,1,73,223,63,1,stimuli/stim_20210519_power2amp/equal_lnn_AM2.5Hz_s25_44.m4a,,,
,,,,,,,,,,,,40448,2021-06-13_16h25.30.137,judgeSpeechMusic_20210519_logNormShiftAmp_mXs,2020.1.2,MacIntel,60,,,,,,,,,,,,,,1,6.074985,,0,1,74,224,116,1,stimuli/stim_20210519_power2amp/equal_lnn_AM4Hz_s25_25.m4a,,,
,,,,,,,,,,,,40448,2021-06-13_16h25.30.137,judgeSpeechMusic_20210519_logNormShiftAmp_mXs,2020.1.2,MacIntel,60,,,,,,,,,,,,,,2,6.252985,,0,1,75,225,7,1,stimuli/stim_20210519_power2amp/equal_lnn_AM1Hz_s15_46.m4a,,,
,,,,,,,,,,,,40448,2021-06-13_16h25.30.137,judgeSpeechMusic_20210519_logNormShiftAmp_mXs,2020.1.2,MacIntel,60,,,,,,,,,,,,,,2,6.019935,,0,1,76,226,123,1,stimuli/stim_20210519_power2amp/equal_lnn_AM4Hz_s35_26.m4a,,,
,,,,,,,,,,,,40448,2021-06-13_16h25.30.137,judgeSpeechMusic_20210519_logNormShiftAmp_mXs,2020.1.2,MacIntel,60,,,,,,,,,,,,,,1,13.64232,,0,1,77,227,61,1,stimuli/stim_20210519_power2amp/equal_lnn_AM2.5Hz_s25_9.m4a,,,
,,,,,,,,,,,,40448,2021-06-13_16h25.30.137,judgeSpeechMusic_20210519_logNormShiftAmp_mXs,2020.1.2,MacIntel,60,,,,,,,,,,,,,,1,6.78919,,0,1,78,228,102,1,stimuli/stim_20210519_power2amp/equal_lnn_AM4Hz_s15_47.m4a,,,
,,,,,,,,,,,,40448,2021-06-13_16h25.30.137,judgeSpeechMusic_20210519_logNormShiftAmp_mXs,2020.1.2,MacIntel,60,,,,,,,,,,,,,,2,7.85515,,0,1,79,229,52,1,stimuli/stim_20210519_power2amp/equal_lnn_AM2.5Hz_s15_50.m4a,,,
,,,,,,,,,,,,40448,2021-06-13_16h25.30.137,judgeSpeechMusic_20210519_logNormShiftAmp_mXs,2020.1.2,MacIntel,60,,,,,,,,,,,,,,1,6.754865,,0,1,80,230,27,1,stimuli/stim_20210519_power2amp/equal_lnn_AM1Hz_s35_23.m4a,,,
,,,,,,,,,,,,40448,2021-06-13_16h25.30.137,judgeSpeechMusic_20210519_logNormShiftAmp_mXs,2020.1.2,MacIntel,60,,,,,,,,,,,,,,1,10.31974,,0,1,81,231,28,1,stimuli/stim_20210519_power2amp/equal_lnn_AM1Hz_s35_25.m4a,,,
,,,,,,,,,,,,40448,2021-06-13_16h25.30.137,judgeSpeechMusic_20210519_logNormShiftAmp_mXs,2020.1.2,MacIntel,60,,,,,,,,,,,,,,2,7.06964,,0,1,82,232,58,1,stimuli/stim_20210519_power2amp/equal_lnn_AM2.5Hz_s15_2.m4a,,,
,,,,,,,,,,,,40448,2021-06-13_16h25.30.137,judgeSpeechMusic_20210519_logNormShiftAmp_mXs,2020.1.2,MacIntel,60,,,,,,,,,,,,,,1,7.238145,,0,1,83,233,143,1,stimuli/stim_20210519_power2amp/equal_lnn_AM4Hz_s55_28.m4a,,,
,,,,,,,,,,,,40448,2021-06-13_16h25.30.137,judgeSpeechMusic_20210519_logNormShiftAmp_mXs,2020.1.2,MacIntel,60,,,,,,,,,,,,,,2,8.06941,,0,1,84,234,41,1,stimuli/stim_20210519_power2amp/equal_lnn_AM1Hz_s55_4.m4a,,,
,,,,,,,,,,,,40448,2021-06-13_16h25.30.137,judgeSpeechMusic_20210519_logNormShiftAmp_mXs,2020.1.2,MacIntel,60,,,,,,,,,,,,,,2,15.719935,,0,1,85,235,87,1,stimuli/stim_20210519_power2amp/equal_lnn_AM2.5Hz_s45_4.m4a,,,
,,,,,,,,,,,,40448,2021-06-13_16h25.30.137,judgeSpeechMusic_20210519_logNormShiftAmp_mXs,2020.1.2,MacIntel,60,,,,,,,,,,,,,,1,6.822865,,0,1,86,236,71,1,stimuli/stim_20210519_power2amp/equal_lnn_AM2.5Hz_s35_3.m4a,,,
,,,,,,,,,,,,40448,2021-06-13_16h25.30.137,judgeSpeechMusic_20210519_logNormShiftAmp_mXs,2020.1.2,MacIntel,60,,,,,,,,,,,,,,1,6.820275,,0,1,87,237,53,1,stimuli/stim_20210519_power2amp/equal_lnn_AM2.5Hz_s15_47.m4a,,,
,,,,,,,,,,,,40448,2021-06-13_16h25.30.137,judgeSpeechMusic_20210519_logNormShiftAmp_mXs,2020.1.2,MacIntel,60,,,,,,,,,,,,,,1,5.82205,,0,1,88,238,147,1,stimuli/stim_20210519_power2amp/equal_lnn_AM4Hz_s55_19.m4a,,,
,,,,,,,,,,,,40448,2021-06-13_16h25.30.137,judgeSpeechMusic_20210519_logNormShiftAmp_mXs,2020.1.2,MacIntel,60,,,,,,,,,,,,,,2,6.386835,,0,1,89,239,141,1,stimuli/stim_20210519_power2amp/equal_lnn_AM4Hz_s55_2.m4a,,,
,,,,,,,,,,,,40448,2021-06-13_16h25.30.137,judgeSpeechMusic_20210519_logNormShiftAmp_mXs,2020.1.2,MacIntel,60,,,,,,,,,,,,,,2,8.04538,,0,1,90,240,73,1,stimuli/stim_20210519_power2amp/equal_lnn_AM2.5Hz_s35_19.m4a,,,
,,,,,,,,,,,,40448,2021-06-13_16h25.30.137,judgeSpeechMusic_20210519_logNormShiftAmp_mXs,2020.1.2,MacIntel,60,,,,,,,,,,,,,,1,6.80259,,0,1,91,241,23,1,stimuli/stim_20210519_power2amp/equal_lnn_AM1Hz_s35_22.m4a,,,
,,,,,,,,,,,,40448,2021-06-13_16h25.30.137,judgeSpeechMusic_20210519_logNormShiftAmp_mXs,2020.1.2,MacIntel,60,,,,,,,,,,,,,,2,8.143285,,0,1,92,242,19,1,stimuli/stim_20210519_power2amp/equal_lnn_AM1Hz_s25_2.m4a,,,
,,,,,,,,,,,,40448,2021-06-13_16h25.30.137,judgeSpeechMusic_20210519_logNormShiftAmp_mXs,2020.1.2,MacIntel,60,,,,,,,,,,,,,,1,7.017965,,0,1,93,243,145,1,stimuli/stim_20210519_power2amp/equal_lnn_AM4Hz_s55_17.m4a,,,
,,,,,,,,,,,,40448,2021-06-13_16h25.30.137,judgeSpeechMusic_20210519_logNormShiftAmp_mXs,2020.1.2,MacIntel,60,,,,,,,,,,,,,,1,13.301645,2,1,1,94,244,131,1,stimuli/stim_20210519_power2amp/equal_lnn_AM4Hz_s45_42.m4a,2.17529,,
,,,,,,,,,,,,40448,2021-06-13_16h25.30.137,judgeSpeechMusic_20210519_logNormShiftAmp_mXs,2020.1.2,MacIntel,60,,,,,,,,,,,,,,1,9.81814,,0,1,95,245,92,1,stimuli/stim_20210519_power2amp/equal_lnn_AM2.5Hz_s55_6.m4a,,,
,,,,,,,,,,,,40448,2021-06-13_16h25.30.137,judgeSpeechMusic_20210519_logNormShiftAmp_mXs,2020.1.2,MacIntel,60,,,,,,,,,,,,,,1,7.16787,,0,1,96,246,1,1,stimuli/stim_20210519_power2amp/equal_lnn_AM1Hz_s15_24.m4a,,,
,,,,,,,,,,,,40448,2021-06-13_16h25.30.137,judgeSpeechMusic_20210519_logNormShiftAmp_mXs,2020.1.2,MacIntel,60,,,,,,,,,,,,,,2,7.035555,,0,1,97,247,128,1,stimuli/stim_20210519_power2amp/equal_lnn_AM4Hz_s35_21.m4a,,,
,,,,,,,,,,,,40448,2021-06-13_16h25.30.137,judgeSpeechMusic_20210519_logNormShiftAmp_mXs,2020.1.2,MacIntel,60,,,,,,,,,,,,,,1,7.81882,,0,1,98,248,100,1,stimuli/stim_20210519_power2amp/equal_lnn_AM4Hz_s15_13.m4a,,,
,,,,,,,,,,,,40448,2021-06-13_16h25.30.137,judgeSpeechMusic_20210519_logNormShiftAmp_mXs,2020.1.2,MacIntel,60,,,,,,,,,,,,,,1,6.05554,,0,1,99,249,119,1,stimuli/stim_20210519_power2amp/equal_lnn_AM4Hz_s25_9.m4a,,,
,,,,,,,,,,,,40448,2021-06-13_16h25.30.137,judgeSpeechMusic_20210519_logNormShiftAmp_mXs,2020.1.2,MacIntel,60,,,,,,,,,,,,,,2,7.304865,,0,1,100,250,81,1,stimuli/stim_20210519_power2amp/equal_lnn_AM2.5Hz_s45_12.m4a,,,
,,,,,,,,,,,,40448,2021-06-13_16h25.30.137,judgeSpeechMusic_20210519_logNormShiftAmp_mXs,2020.1.2,MacIntel,60,,,,,,,,,,,,,,1,6.653565,,0,1,101,251,15,1,stimuli/stim_20210519_power2amp/equal_lnn_AM1Hz_s25_31.m4a,,,
,,,,,,,,,,,,40448,2021-06-13_16h25.30.137,judgeSpeechMusic_20210519_logNormShiftAmp_mXs,2020.1.2,MacIntel,60,,,,,,,,,,,,,,1,6.986975,,0,1,102,252,107,1,stimuli/stim_20210519_power2amp/equal_lnn_AM4Hz_s15_14.m4a,,,
,,,,,,,,,,,,40448,2021-06-13_16h25.30.137,judgeSpeechMusic_20210519_logNormShiftAmp_mXs,2020.1.2,MacIntel,60,,,,,,,,,,,,,,1,11.18739,,0,1,103,253,110,1,stimuli/stim_20210519_power2amp/equal_lnn_AM4Hz_s25_4.m4a,,,
,,,,,,,,,,,,40448,2021-06-13_16h25.30.137,judgeSpeechMusic_20210519_logNormShiftAmp_mXs,2020.1.2,MacIntel,60,,,,,,,,,,,,,,1,34.149745,,0,1,104,254,113,1,stimuli/stim_20210519_power2amp/equal_lnn_AM4Hz_s25_24.m4a,,,
,,,,,,,,,,,,40448,2021-06-13_16h25.30.137,judgeSpeechMusic_20210519_logNormShiftAmp_mXs,2020.1.2,MacIntel,60,,,,,,,,,,,,,,2,11.88713,,0,1,105,255,3,1,stimuli/stim_20210519_power2amp/equal_lnn_AM1Hz_s15_27.m4a,,,
,,,,,,,,,,,,40448,2021-06-13_16h25.30.137,judgeSpeechMusic_20210519_logNormShiftAmp_mXs,2020.1.2,MacIntel,60,,,,,,,,,,,,,,1,7.63955,,0,1,106,256,46,1,stimuli/stim_20210519_power2amp/equal_lnn_AM1Hz_s55_16.m4a,,,
,,,,,,,,,,,,40448,2021-06-13_16h25.30.137,judgeSpeechMusic_20210519_logNormShiftAmp_mXs,2020.1.2,MacIntel,60,,,,,,,,,,,,,,1,21.91714,,0,1,107,257,62,1,stimuli/stim_20210519_power2amp/equal_lnn_AM2.5Hz_s25_23.m4a,,,
,,,,,,,,,,,,40448,2021-06-13_16h25.30.137,judgeSpeechMusic_20210519_logNormShiftAmp_mXs,2020.1.2,MacIntel,60,,,,,,,,,,,,,,2,7.306515,,0,1,108,258,56,1,stimuli/stim_20210519_power2amp/equal_lnn_AM2.5Hz_s15_8.m4a,,,
,,,,,,,,,,,,40448,2021-06-13_16h25.30.137,judgeSpeechMusic_20210519_logNormShiftAmp_mXs,2020.1.2,MacIntel,60,,,,,,,,,,,,,,1,11.768755,,0,1,109,259,48,1,stimuli/stim_20210519_power2amp/equal_lnn_AM1Hz_s55_31.m4a,,,
,,,,,,,,,,,,40448,2021-06-13_16h25.30.137,judgeSpeechMusic_20210519_logNormShiftAmp_mXs,2020.1.2,MacIntel,60,,,,,,,,,,,,,,2,7.08794,,0,1,110,260,95,1,stimuli/stim_20210519_power2amp/equal_lnn_AM2.5Hz_s55_23.m4a,,,
,,,,,,,,,,,,40448,2021-06-13_16h25.30.137,judgeSpeechMusic_20210519_logNormShiftAmp_mXs,2020.1.2,MacIntel,60,,,,,,,,,,,,,,1,6.353955,,0,1,111,261,59,1,stimuli/stim_20210519_power2amp/equal_lnn_AM2.5Hz_s15_41.m4a,,,
,,,,,,,,,,,,40448,2021-06-13_16h25.30.137,judgeSpeechMusic_20210519_logNormShiftAmp_mXs,2020.1.2,MacIntel,60,,,,,,,,,,,,,,2,6.834965,,0,1,112,262,134,1,stimuli/stim_20210519_power2amp/equal_lnn_AM4Hz_s45_10.m4a,,,
,,,,,,,,,,,,40448,2021-06-13_16h25.30.137,judgeSpeechMusic_20210519_logNormShiftAmp_mXs,2020.1.2,MacIntel,60,,,,,,,,,,,,,,1,6.624035,,0,1,113,263,112,1,stimuli/stim_20210519_power2amp/equal_lnn_AM4Hz_s25_7.m4a,,,
,,,,,,,,,,,,40448,2021-06-13_16h25.30.137,judgeSpeechMusic_20210519_logNormShiftAmp_mXs,2020.1.2,MacIntel,60,,,,,,,,,,,,,,1,5.273065,,0,1,114,264,51,1,stimuli/stim_20210519_power2amp/equal_lnn_AM2.5Hz_s15_14.m4a,,,
,,,,,,,,,,,,40448,2021-06-13_16h25.30.137,judgeSpeechMusic_20210519_logNormShiftAmp_mXs,2020.1.2,MacIntel,60,,,,,,,,,,,,,,2,6.65866,,0,1,115,265,149,1,stimuli/stim_20210519_power2amp/equal_lnn_AM4Hz_s55_8.m4a,,,
,,,,,,,,,,,,40448,2021-06-13_16h25.30.137,judgeSpeechMusic_20210519_logNormShiftAmp_mXs,2020.1.2,MacIntel,60,,,,,,,,,,,,,,1,6.86956,1,1,1,116,266,129,1,stimuli/stim_20210519_power2amp/equal_lnn_AM4Hz_s35_35.m4a,10.697165,,
,,,,,,,,,,,,40448,2021-06-13_16h25.30.137,judgeSpeechMusic_20210519_logNormShiftAmp_mXs,2020.1.2,MacIntel,60,,,,,,,,,,,,,,2,7.470325,,0,1,117,267,17,1,stimuli/stim_20210519_power2amp/equal_lnn_AM1Hz_s25_42.m4a,,,
,,,,,,,,,,,,40448,2021-06-13_16h25.30.137,judgeSpeechMusic_20210519_logNormShiftAmp_mXs,2020.1.2,MacIntel,60,,,,,,,,,,,,,,2,8.70344,,0,1,118,268,77,1,stimuli/stim_20210519_power2amp/equal_lnn_AM2.5Hz_s35_22.m4a,,,
,,,,,,,,,,,,40448,2021-06-13_16h25.30.137,judgeSpeechMusic_20210519_logNormShiftAmp_mXs,2020.1.2,MacIntel,60,,,,,,,,,,,,,,1,8.006205,,0,1,119,269,25,1,stimuli/stim_20210519_power2amp/equal_lnn_AM1Hz_s35_39.m4a,,,
,,,,,,,,,,,,40448,2021-06-13_16h25.30.137,judgeSpeechMusic_20210519_logNormShiftAmp_mXs,2020.1.2,MacIntel,60,,,,,,,,,,,,,,2,7.072825,,0,1,120,270,91,1,stimuli/stim_20210519_power2amp/equal_lnn_AM2.5Hz_s55_20.m4a,,,
,,,,,,,,,,,,40448,2021-06-13_16h25.30.137,judgeSpeechMusic_20210519_logNormShiftAmp_mXs,2020.1.2,MacIntel,60,,,,,,,,,,,,,,2,17.31824,,0,1,121,271,88,1,stimuli/stim_20210519_power2amp/equal_lnn_AM2.5Hz_s45_1.m4a,,,
,,,,,,,,,,,,40448,2021-06-13_16h25.30.137,judgeSpeechMusic_20210519_logNormShiftAmp_mXs,2020.1.2,MacIntel,60,,,,,,,,,,,,,,1,9.06956,,0,1,122,272,10,1,stimuli/stim_20210519_power2amp/equal_lnn_AM1Hz_s25_38.m4a,,,
,,,,,,,,,,,,40448,2021-06-13_16h25.30.137,judgeSpeechMusic_20210519_logNormShiftAmp_mXs,2020.1.2,MacIntel,60,,,,,,,,,,,,,,1,11.269715,,0,1,123,273,72,1,stimuli/stim_20210519_power2amp/equal_lnn_AM2.5Hz_s35_21.m4a,,,
,,,,,,,,,,,,40448,2021-06-13_16h25.30.137,judgeSpeechMusic_20210519_logNormShiftAmp_mXs,2020.1.2,MacIntel,60,,,,,,,,,,,,,,2,8.551145,,0,1,124,274,42,1,stimuli/stim_20210519_power2amp/equal_lnn_AM1Hz_s55_28.m4a,,,
,,,,,,,,,,,,40448,2021-06-13_16h25.30.137,judgeSpeechMusic_20210519_logNormShiftAmp_mXs,2020.1.2,MacIntel,60,,,,,,,,,,,,,,2,7.284155,,0,1,125,275,94,1,stimuli/stim_20210519_power2amp/equal_lnn_AM2.5Hz_s55_41.m4a,,,
,,,,,,,,,,,,40448,2021-06-13_16h25.30.137,judgeSpeechMusic_20210519_logNormShiftAmp_mXs,2020.1.2,MacIntel,60,,,,,,,,,,,,,,1,8.670845,,0,1,126,276,118,1,stimuli/stim_20210519_power2amp/equal_lnn_AM4Hz_s25_14.m4a,,,
,,,,,,,,,,,,40448,2021-06-13_16h25.30.137,judgeSpeechMusic_20210519_logNormShiftAmp_mXs,2020.1.2,MacIntel,60,,,,,,,,,,,,,,2,7.53715,,0,1,127,277,101,1,stimuli/stim_20210519_power2amp/equal_lnn_AM4Hz_s15_16.m4a,,,
,,,,,,,,,,,,40448,2021-06-13_16h25.30.137,judgeSpeechMusic_20210519_logNormShiftAmp_mXs,2020.1.2,MacIntel,60,,,,,,,,,,,,,,2,6.14901,,0,1,128,278,96,1,stimuli/stim_20210519_power2amp/equal_lnn_AM2.5Hz_s55_31.m4a,,,
,,,,,,,,,,,,40448,2021-06-13_16h25.30.137,judgeSpeechMusic_20210519_logNormShiftAmp_mXs,2020.1.2,MacIntel,60,,,,,,,,,,,,,,2,6.071655,,0,1,129,279,64,1,stimuli/stim_20210519_power2amp/equal_lnn_AM2.5Hz_s25_30.m4a,,,
,,,,,,,,,,,,40448,2021-06-13_16h25.30.137,judgeSpeechMusic_20210519_logNormShiftAmp_mXs,2020.1.2,MacIntel,60,,,,,,,,,,,,,,2,5.594775,,0,1,130,280,12,1,stimuli/stim_20210519_power2amp/equal_lnn_AM1Hz_s25_40.m4a,,,
,,,,,,,,,,,,40448,2021-06-13_16h25.30.137,judgeSpeechMusic_20210519_logNormShiftAmp_mXs,2020.1.2,MacIntel,60,,,,,,,,,,,,,,2,5.32084,,0,1,131,281,70,1,stimuli/stim_20210519_power2amp/equal_lnn_AM2.5Hz_s35_15.m4a,,,
,,,,,,,,,,,,40448,2021-06-13_16h25.30.137,judgeSpeechMusic_20210519_logNormShiftAmp_mXs,2020.1.2,MacIntel,60,,,,,,,,,,,,,,2,6.05381,,0,1,132,282,125,1,stimuli/stim_20210519_power2amp/equal_lnn_AM4Hz_s35_38.m4a,,,
,,,,,,,,,,,,40448,2021-06-13_16h25.30.137,judgeSpeechMusic_20210519_logNormShiftAmp_mXs,2020.1.2,MacIntel,60,,,,,,,,,,,,,,1,7.10258,,0,1,133,283,16,1,stimuli/stim_20210519_power2amp/equal_lnn_AM1Hz_s25_21.m4a,,,
,,,,,,,,,,,,40448,2021-06-13_16h25.30.137,judgeSpeechMusic_20210519_logNormShiftAmp_mXs,2020.1.2,MacIntel,60,,,,,,,,,,,,,,2,16.00206,,0,1,134,284,2,1,stimuli/stim_20210519_power2amp/equal_lnn_AM1Hz_s15_29.m4a,,,
,,,,,,,,,,,,40448,2021-06-13_16h25.30.137,judgeSpeechMusic_20210519_logNormShiftAmp_mXs,2020.1.2,MacIntel,60,,,,,,,,,,,,,,1,7.78328,,0,1,135,285,135,1,stimuli/stim_20210519_power2amp/equal_lnn_AM4Hz_s45_44.m4a,,,
,,,,,,,,,,,,40448,2021-06-13_16h25.30.137,judgeSpeechMusic_20210519_logNormShiftAmp_mXs,2020.1.2,MacIntel,60,,,,,,,,,,,,,,2,6.953845,,0,1,136,286,18,1,stimuli/stim_20210519_power2amp/equal_lnn_AM1Hz_s25_43.m4a,,,
,,,,,,,,,,,,40448,2021-06-13_16h25.30.137,judgeSpeechMusic_20210519_logNormShiftAmp_mXs,2020.1.2,MacIntel,60,,,,,,,,,,,,,,2,6.270715,1,1,1,137,287,124,1,stimuli/stim_20210519_power2amp/equal_lnn_AM4Hz_s35_17.m4a,1.133055,,
,,,,,,,,,,,,40448,2021-06-13_16h25.30.137,judgeSpeechMusic_20210519_logNormShiftAmp_mXs,2020.1.2,MacIntel,60,,,,,,,,,,,,,,1,6.13846,,0,1,138,288,6,1,stimuli/stim_20210519_power2amp/equal_lnn_AM1Hz_s15_35.m4a,,,
,,,,,,,,,,,,40448,2021-06-13_16h25.30.137,judgeSpeechMusic_20210519_logNormShiftAmp_mXs,2020.1.2,MacIntel,60,,,,,,,,,,,,,,1,5.954445,,0,1,139,289,20,1,stimuli/stim_20210519_power2amp/equal_lnn_AM1Hz_s35_43.m4a,,,
,,,,,,,,,,,,40448,2021-06-13_16h25.30.137,judgeSpeechMusic_20210519_logNormShiftAmp_mXs,2020.1.2,MacIntel,60,,,,,,,,,,,,,,1,14.838505,,0,1,140,290,32,1,stimuli/stim_20210519_power2amp/equal_lnn_AM1Hz_s45_22.m4a,,,
,,,,,,,,,,,,40448,2021-06-13_16h25.30.137,judgeSpeechMusic_20210519_logNormShiftAmp_mXs,2020.1.2,MacIntel,60,,,,,,,,,,,,,,1,7.75271,,0,1,141,291,44,1,stimuli/stim_20210519_power2amp/equal_lnn_AM1Hz_s55_3.m4a,,,
,,,,,,,,,,,,40448,2021-06-13_16h25.30.137,judgeSpeechMusic_20210519_logNormShiftAmp_mXs,2020.1.2,MacIntel,60,,,,,,,,,,,,,,1,14.553835,,0,1,142,292,146,1,stimuli/stim_20210519_power2amp/equal_lnn_AM4Hz_s55_42.m4a,,,
,,,,,,,,,,,,40448,2021-06-13_16h25.30.137,judgeSpeechMusic_20210519_logNormShiftAmp_mXs,2020.1.2,MacIntel,60,,,,,,,,,,,,,,2,7.903215,,0,1,143,293,138,1,stimuli/stim_20210519_power2amp/equal_lnn_AM4Hz_s45_15.m4a,,,
,,,,,,,,,,,,40448,2021-06-13_16h25.30.137,judgeSpeechMusic_20210519_logNormShiftAmp_mXs,2020.1.2,MacIntel,60,,,,,,,,,,,,,,2,5.984145,,0,1,144,294,66,1,stimuli/stim_20210519_power2amp/equal_lnn_AM2.5Hz_s25_46.m4a,,,
,,,,,,,,,,,,40448,2021-06-13_16h25.30.137,judgeSpeechMusic_20210519_logNormShiftAmp_mXs,2020.1.2,MacIntel,60,,,,,,,,,,,,,,2,37.903005,,0,1,145,295,33,1,stimuli/stim_20210519_power2amp/equal_lnn_AM1Hz_s45_24.m4a,,,
,,,,,,,,,,,,40448,2021-06-13_16h25.30.137,judgeSpeechMusic_20210519_logNormShiftAmp_mXs,2020.1.2,MacIntel,60,,,,,,,,,,,,,,1,6.873685,,0,1,146,296,14,1,stimuli/stim_20210519_power2amp/equal_lnn_AM1Hz_s25_49.m4a,,,
,,,,,,,,,,,,40448,2021-06-13_16h25.30.137,judgeSpeechMusic_20210519_logNormShiftAmp_mXs,2020.1.2,MacIntel,60,,,,,,,,,,,,,,2,7.493805,,0,1,147,297,122,1,stimuli/stim_20210519_power2amp/equal_lnn_AM4Hz_s35_37.m4a,,,
,,,,,,,,,,,,40448,2021-06-13_16h25.30.137,judgeSpeechMusic_20210519_logNormShiftAmp_mXs,2020.1.2,MacIntel,60,,,,,,,,,,,,,,1,6.022015,,0,1,148,298,11,1,stimuli/stim_20210519_power2amp/equal_lnn_AM1Hz_s25_34.m4a,,,
,,,,,,,,,,,,40448,2021-06-13_16h25.30.137,judgeSpeechMusic_20210519_logNormShiftAmp_mXs,2020.1.2,MacIntel,60,,,,,,,,,,,,,,1,5.54271,,0,1,149,299,69,1,stimuli/stim_20210519_power2amp/equal_lnn_AM2.5Hz_s25_22.m4a,,,
,,,,,,,,,,,,40448,2021-06-13_16h25.30.137,judgeSpeechMusic_20210519_logNormShiftAmp_mXs,2020.1.2,MacIntel,60,,,,,,,,,,,,,,,,,,,,,,,,,space,5.904555
