headphoneResponse.keys,headphoneResponse.corr,headphoneResponse.rt,headphoneTrial.thisRepN,headphoneTrial.thisTrialN,headphoneTrial.thisN,headphoneTrial.thisIndex,headphoneTrial.ran,headphone_sound1,headphone_sound2,headphone_sound3,corrAns,participant,date,expName,psychopyVersion,OS,frameRate,trainSlider.response,trainSlider.rt,beepTrainResponse.keys,beepTrainResponse.corr,trainingTrials.thisRepN,trainingTrials.thisTrialN,trainingTrials.thisN,trainingTrials.thisIndex,trainingTrials.ran,trainAudioFile,beepTrainResponse.rt,readyReal_resp.keys,readyReal_resp.rt,ratingSlider.response,ratingSlider.rt,beepResp.keys,beepResp.corr,expTrials.thisRepN,expTrials.thisTrialN,expTrials.thisN,expTrials.thisIndex,expTrials.ran,audioFile,beepResp.rt,end_resp.keys,end_resp.rt
2,1,0.86525,0,0,0,3,1,stimuli/screen_origin.wav,stimuli/screen_quiet.wav,stimuli/screen_antiphase.wav,2,40680,2021-05-24_15h16.58.928,judgeSpeechMusic_20210519_logNormShiftAmp_mXs,2020.1.2,MacIntel,60,,,,,,,,,,,,,,,,,,,,,,,,,,
1,1,0.452875,0,1,1,4,1,stimuli/screen_quiet.wav,stimuli/screen_antiphase.wav,stimuli/screen_origin.wav,1,40680,2021-05-24_15h16.58.928,judgeSpeechMusic_20210519_logNormShiftAmp_mXs,2020.1.2,MacIntel,60,,,,,,,,,,,,,,,,,,,,,,,,,,
1,1,0.337375,0,2,2,5,1,stimuli/screen_quiet.wav,stimuli/screen_origin.wav,stimuli/screen_antiphase.wav,1,40680,2021-05-24_15h16.58.928,judgeSpeechMusic_20210519_logNormShiftAmp_mXs,2020.1.2,MacIntel,60,,,,,,,,,,,,,,,,,,,,,,,,,,
2,1,0.380775,0,3,3,1,1,stimuli/screen_antiphase.wav,stimuli/screen_quiet.wav,stimuli/screen_origin.wav,2,40680,2021-05-24_15h16.58.928,judgeSpeechMusic_20210519_logNormShiftAmp_mXs,2020.1.2,MacIntel,60,,,,,,,,,,,,,,,,,,,,,,,,,,
3,1,0.42981,0,4,4,2,1,stimuli/screen_origin.wav,stimuli/screen_antiphase.wav,stimuli/screen_quiet.wav,3,40680,2021-05-24_15h16.58.928,judgeSpeechMusic_20210519_logNormShiftAmp_mXs,2020.1.2,MacIntel,60,,,,,,,,,,,,,,,,,,,,,,,,,,
3,1,0.371755,0,5,5,0,1,stimuli/screen_antiphase.wav,stimuli/screen_origin.wav,stimuli/screen_quiet.wav,3,40680,2021-05-24_15h16.58.928,judgeSpeechMusic_20210519_logNormShiftAmp_mXs,2020.1.2,MacIntel,60,,,,,,,,,,,,,,,,,,,,,,,,,,
,,,,,,,,,,,,40680,2021-05-24_15h16.58.928,judgeSpeechMusic_20210519_logNormShiftAmp_mXs,2020.1.2,MacIntel,60,1,10.39195,,0,0,0,0,0,1,stimuli/stim_20210519_power2amp/equal_lnn_AM_training1.5Hz_s20.m4a,,,,,,,,,,,,,,,,
,,,,,,,,,,,,40680,2021-05-24_15h16.58.928,judgeSpeechMusic_20210519_logNormShiftAmp_mXs,2020.1.2,MacIntel,60,1,6.00361,,0,0,1,1,1,1,stimuli/stim_20210519_power2amp/equal_lnn_AM_training1.5Hz_s50.m4a,,,,,,,,,,,,,,,,
,,,,,,,,,,,,40680,2021-05-24_15h16.58.928,judgeSpeechMusic_20210519_logNormShiftAmp_mXs,2020.1.2,MacIntel,60,2,9.66155,3,1,0,2,2,2,1,stimuli/stim_20210519_power2amp/equal_lnn_AM_training3.5Hz_s20.m4a,2.17545,,,,,,,,,,,,,,,
,,,,,,,,,,,,40680,2021-05-24_15h16.58.928,judgeSpeechMusic_20210519_logNormShiftAmp_mXs,2020.1.2,MacIntel,60,1,6.486745,,0,0,3,3,3,1,stimuli/stim_20210519_power2amp/equal_lnn_AM_training3.5Hz_s50.m4a,,,,,,,,,,,,,,,,
,,,,,,,,,,,,40680,2021-05-24_15h16.58.928,judgeSpeechMusic_20210519_logNormShiftAmp_mXs,2020.1.2,MacIntel,60,,,,,,,,,,,,space,8.442995,2,9.98709,,0,0,0,0,81,1,stimuli/stim_20210519_power2amp/equal_lnn_AM2.5Hz_s45_14.m4a,,,
,,,,,,,,,,,,40680,2021-05-24_15h16.58.928,judgeSpeechMusic_20210519_logNormShiftAmp_mXs,2020.1.2,MacIntel,60,,,,,,,,,,,,,,1,6.10448,,0,0,1,1,77,1,stimuli/stim_20210519_power2amp/equal_lnn_AM2.5Hz_s35_48.m4a,,,
,,,,,,,,,,,,40680,2021-05-24_15h16.58.928,judgeSpeechMusic_20210519_logNormShiftAmp_mXs,2020.1.2,MacIntel,60,,,,,,,,,,,,,,1,6.305305,,0,0,2,2,29,1,stimuli/stim_20210519_power2amp/equal_lnn_AM1Hz_s35_37.m4a,,,
,,,,,,,,,,,,40680,2021-05-24_15h16.58.928,judgeSpeechMusic_20210519_logNormShiftAmp_mXs,2020.1.2,MacIntel,60,,,,,,,,,,,,,,1,6.27002,,0,0,3,3,12,1,stimuli/stim_20210519_power2amp/equal_lnn_AM1Hz_s25_13.m4a,,,
,,,,,,,,,,,,40680,2021-05-24_15h16.58.928,judgeSpeechMusic_20210519_logNormShiftAmp_mXs,2020.1.2,MacIntel,60,,,,,,,,,,,,,,1,6.60797,,0,0,4,4,15,1,stimuli/stim_20210519_power2amp/equal_lnn_AM1Hz_s25_19.m4a,,,
,,,,,,,,,,,,40680,2021-05-24_15h16.58.928,judgeSpeechMusic_20210519_logNormShiftAmp_mXs,2020.1.2,MacIntel,60,,,,,,,,,,,,,,1,6.637565,,0,0,5,5,135,1,stimuli/stim_20210519_power2amp/equal_lnn_AM4Hz_s45_49.m4a,,,
,,,,,,,,,,,,40680,2021-05-24_15h16.58.928,judgeSpeechMusic_20210519_logNormShiftAmp_mXs,2020.1.2,MacIntel,60,,,,,,,,,,,,,,1,6.408445,,0,0,6,6,144,1,stimuli/stim_20210519_power2amp/equal_lnn_AM4Hz_s55_43.m4a,,,
,,,,,,,,,,,,40680,2021-05-24_15h16.58.928,judgeSpeechMusic_20210519_logNormShiftAmp_mXs,2020.1.2,MacIntel,60,,,,,,,,,,,,,,1,6.127895,,0,0,7,7,44,1,stimuli/stim_20210519_power2amp/equal_lnn_AM1Hz_s55_2.m4a,,,
,,,,,,,,,,,,40680,2021-05-24_15h16.58.928,judgeSpeechMusic_20210519_logNormShiftAmp_mXs,2020.1.2,MacIntel,60,,,,,,,,,,,,,,1,5.828255,,0,0,8,8,140,1,stimuli/stim_20210519_power2amp/equal_lnn_AM4Hz_s55_17.m4a,,,
,,,,,,,,,,,,40680,2021-05-24_15h16.58.928,judgeSpeechMusic_20210519_logNormShiftAmp_mXs,2020.1.2,MacIntel,60,,,,,,,,,,,,,,2,6.222345,,0,0,9,9,50,1,stimuli/stim_20210519_power2amp/equal_lnn_AM2.5Hz_s15_35.m4a,,,
,,,,,,,,,,,,40680,2021-05-24_15h16.58.928,judgeSpeechMusic_20210519_logNormShiftAmp_mXs,2020.1.2,MacIntel,60,,,,,,,,,,,,,,2,5.80554,,0,0,10,10,136,1,stimuli/stim_20210519_power2amp/equal_lnn_AM4Hz_s45_35.m4a,,,
,,,,,,,,,,,,40680,2021-05-24_15h16.58.928,judgeSpeechMusic_20210519_logNormShiftAmp_mXs,2020.1.2,MacIntel,60,,,,,,,,,,,,,,2,7.00605,,0,0,11,11,31,1,stimuli/stim_20210519_power2amp/equal_lnn_AM1Hz_s45_11.m4a,,,
,,,,,,,,,,,,40680,2021-05-24_15h16.58.928,judgeSpeechMusic_20210519_logNormShiftAmp_mXs,2020.1.2,MacIntel,60,,,,,,,,,,,,,,1,6.47335,,0,0,12,12,16,1,stimuli/stim_20210519_power2amp/equal_lnn_AM1Hz_s25_25.m4a,,,
,,,,,,,,,,,,40680,2021-05-24_15h16.58.928,judgeSpeechMusic_20210519_logNormShiftAmp_mXs,2020.1.2,MacIntel,60,,,,,,,,,,,,,,2,6.1608,,0,0,13,13,74,1,stimuli/stim_20210519_power2amp/equal_lnn_AM2.5Hz_s35_16.m4a,,,
,,,,,,,,,,,,40680,2021-05-24_15h16.58.928,judgeSpeechMusic_20210519_logNormShiftAmp_mXs,2020.1.2,MacIntel,60,,,,,,,,,,,,,,1,6.17349,,0,0,14,14,25,1,stimuli/stim_20210519_power2amp/equal_lnn_AM1Hz_s35_10.m4a,,,
,,,,,,,,,,,,40680,2021-05-24_15h16.58.928,judgeSpeechMusic_20210519_logNormShiftAmp_mXs,2020.1.2,MacIntel,60,,,,,,,,,,,,,,1,6.121805,,0,0,15,15,62,1,stimuli/stim_20210519_power2amp/equal_lnn_AM2.5Hz_s25_49.m4a,,,
,,,,,,,,,,,,40680,2021-05-24_15h16.58.928,judgeSpeechMusic_20210519_logNormShiftAmp_mXs,2020.1.2,MacIntel,60,,,,,,,,,,,,,,1,6.5896,,0,0,16,16,10,1,stimuli/stim_20210519_power2amp/equal_lnn_AM1Hz_s25_12.m4a,,,
,,,,,,,,,,,,40680,2021-05-24_15h16.58.928,judgeSpeechMusic_20210519_logNormShiftAmp_mXs,2020.1.2,MacIntel,60,,,,,,,,,,,,,,2,7.491755,,0,0,17,17,67,1,stimuli/stim_20210519_power2amp/equal_lnn_AM2.5Hz_s25_29.m4a,,,
,,,,,,,,,,,,40680,2021-05-24_15h16.58.928,judgeSpeechMusic_20210519_logNormShiftAmp_mXs,2020.1.2,MacIntel,60,,,,,,,,,,,,,,2,5.906475,,0,0,18,18,100,1,stimuli/stim_20210519_power2amp/equal_lnn_AM4Hz_s15_10.m4a,,,
,,,,,,,,,,,,40680,2021-05-24_15h16.58.928,judgeSpeechMusic_20210519_logNormShiftAmp_mXs,2020.1.2,MacIntel,60,,,,,,,,,,,,,,2,5.772785,,0,0,19,19,118,1,stimuli/stim_20210519_power2amp/equal_lnn_AM4Hz_s25_15.m4a,,,
,,,,,,,,,,,,40680,2021-05-24_15h16.58.928,judgeSpeechMusic_20210519_logNormShiftAmp_mXs,2020.1.2,MacIntel,60,,,,,,,,,,,,,,1,7.592955,,0,0,20,20,70,1,stimuli/stim_20210519_power2amp/equal_lnn_AM2.5Hz_s35_9.m4a,,,
,,,,,,,,,,,,40680,2021-05-24_15h16.58.928,judgeSpeechMusic_20210519_logNormShiftAmp_mXs,2020.1.2,MacIntel,60,,,,,,,,,,,,,,2,6.121055,,0,0,21,21,148,1,stimuli/stim_20210519_power2amp/equal_lnn_AM4Hz_s55_50.m4a,,,
,,,,,,,,,,,,40680,2021-05-24_15h16.58.928,judgeSpeechMusic_20210519_logNormShiftAmp_mXs,2020.1.2,MacIntel,60,,,,,,,,,,,,,,2,5.692455,,0,0,22,22,147,1,stimuli/stim_20210519_power2amp/equal_lnn_AM4Hz_s55_6.m4a,,,
,,,,,,,,,,,,40680,2021-05-24_15h16.58.928,judgeSpeechMusic_20210519_logNormShiftAmp_mXs,2020.1.2,MacIntel,60,,,,,,,,,,,,,,2,7.47272,,0,0,23,23,134,1,stimuli/stim_20210519_power2amp/equal_lnn_AM4Hz_s45_31.m4a,,,
,,,,,,,,,,,,40680,2021-05-24_15h16.58.928,judgeSpeechMusic_20210519_logNormShiftAmp_mXs,2020.1.2,MacIntel,60,,,,,,,,,,,,,,2,6.974485,,0,0,24,24,149,1,stimuli/stim_20210519_power2amp/equal_lnn_AM4Hz_s55_3.m4a,,,
,,,,,,,,,,,,40680,2021-05-24_15h16.58.928,judgeSpeechMusic_20210519_logNormShiftAmp_mXs,2020.1.2,MacIntel,60,,,,,,,,,,,,,,1,6.006985,,0,0,25,25,65,1,stimuli/stim_20210519_power2amp/equal_lnn_AM2.5Hz_s25_23.m4a,,,
,,,,,,,,,,,,40680,2021-05-24_15h16.58.928,judgeSpeechMusic_20210519_logNormShiftAmp_mXs,2020.1.2,MacIntel,60,,,,,,,,,,,,,,2,7.88797,,0,0,26,26,75,1,stimuli/stim_20210519_power2amp/equal_lnn_AM2.5Hz_s35_31.m4a,,,
,,,,,,,,,,,,40680,2021-05-24_15h16.58.928,judgeSpeechMusic_20210519_logNormShiftAmp_mXs,2020.1.2,MacIntel,60,,,,,,,,,,,,,,1,7.697265,,0,0,27,27,14,1,stimuli/stim_20210519_power2amp/equal_lnn_AM1Hz_s25_38.m4a,,,
,,,,,,,,,,,,40680,2021-05-24_15h16.58.928,judgeSpeechMusic_20210519_logNormShiftAmp_mXs,2020.1.2,MacIntel,60,,,,,,,,,,,,,,1,5.803165,,0,0,28,28,52,1,stimuli/stim_20210519_power2amp/equal_lnn_AM2.5Hz_s15_18.m4a,,,
,,,,,,,,,,,,40680,2021-05-24_15h16.58.928,judgeSpeechMusic_20210519_logNormShiftAmp_mXs,2020.1.2,MacIntel,60,,,,,,,,,,,,,,1,5.756895,,0,0,29,29,34,1,stimuli/stim_20210519_power2amp/equal_lnn_AM1Hz_s45_32.m4a,,,
,,,,,,,,,,,,40680,2021-05-24_15h16.58.928,judgeSpeechMusic_20210519_logNormShiftAmp_mXs,2020.1.2,MacIntel,60,,,,,,,,,,,,,,1,7.55771,1,1,0,30,30,13,1,stimuli/stim_20210519_power2amp/equal_lnn_AM1Hz_s25_4.m4a,1.44036,,
,,,,,,,,,,,,40680,2021-05-24_15h16.58.928,judgeSpeechMusic_20210519_logNormShiftAmp_mXs,2020.1.2,MacIntel,60,,,,,,,,,,,,,,2,6.768795,,0,0,31,31,137,1,stimuli/stim_20210519_power2amp/equal_lnn_AM4Hz_s45_46.m4a,,,
,,,,,,,,,,,,40680,2021-05-24_15h16.58.928,judgeSpeechMusic_20210519_logNormShiftAmp_mXs,2020.1.2,MacIntel,60,,,,,,,,,,,,,,2,6.34041,,0,0,32,32,32,1,stimuli/stim_20210519_power2amp/equal_lnn_AM1Hz_s45_15.m4a,,,
,,,,,,,,,,,,40680,2021-05-24_15h16.58.928,judgeSpeechMusic_20210519_logNormShiftAmp_mXs,2020.1.2,MacIntel,60,,,,,,,,,,,,,,2,6.6954,,0,0,33,33,108,1,stimuli/stim_20210519_power2amp/equal_lnn_AM4Hz_s15_43.m4a,,,
,,,,,,,,,,,,40680,2021-05-24_15h16.58.928,judgeSpeechMusic_20210519_logNormShiftAmp_mXs,2020.1.2,MacIntel,60,,,,,,,,,,,,,,1,6.173525,,0,0,34,34,47,1,stimuli/stim_20210519_power2amp/equal_lnn_AM1Hz_s55_34.m4a,,,
,,,,,,,,,,,,40680,2021-05-24_15h16.58.928,judgeSpeechMusic_20210519_logNormShiftAmp_mXs,2020.1.2,MacIntel,60,,,,,,,,,,,,,,2,6.23699,,0,0,35,35,87,1,stimuli/stim_20210519_power2amp/equal_lnn_AM2.5Hz_s45_33.m4a,,,
,,,,,,,,,,,,40680,2021-05-24_15h16.58.928,judgeSpeechMusic_20210519_logNormShiftAmp_mXs,2020.1.2,MacIntel,60,,,,,,,,,,,,,,2,5.773965,,0,0,36,36,104,1,stimuli/stim_20210519_power2amp/equal_lnn_AM4Hz_s15_38.m4a,,,
,,,,,,,,,,,,40680,2021-05-24_15h16.58.928,judgeSpeechMusic_20210519_logNormShiftAmp_mXs,2020.1.2,MacIntel,60,,,,,,,,,,,,,,1,6.373835,,0,0,37,37,41,1,stimuli/stim_20210519_power2amp/equal_lnn_AM1Hz_s55_10.m4a,,,
,,,,,,,,,,,,40680,2021-05-24_15h16.58.928,judgeSpeechMusic_20210519_logNormShiftAmp_mXs,2020.1.2,MacIntel,60,,,,,,,,,,,,,,1,5.77623,,0,0,38,38,143,1,stimuli/stim_20210519_power2amp/equal_lnn_AM4Hz_s55_44.m4a,,,
,,,,,,,,,,,,40680,2021-05-24_15h16.58.928,judgeSpeechMusic_20210519_logNormShiftAmp_mXs,2020.1.2,MacIntel,60,,,,,,,,,,,,,,2,5.907805,,0,0,39,39,132,1,stimuli/stim_20210519_power2amp/equal_lnn_AM4Hz_s45_21.m4a,,,
,,,,,,,,,,,,40680,2021-05-24_15h16.58.928,judgeSpeechMusic_20210519_logNormShiftAmp_mXs,2020.1.2,MacIntel,60,,,,,,,,,,,,,,2,5.824255,,0,0,40,40,80,1,stimuli/stim_20210519_power2amp/equal_lnn_AM2.5Hz_s45_48.m4a,,,
,,,,,,,,,,,,40680,2021-05-24_15h16.58.928,judgeSpeechMusic_20210519_logNormShiftAmp_mXs,2020.1.2,MacIntel,60,,,,,,,,,,,,,,2,7.359405,,0,0,41,41,46,1,stimuli/stim_20210519_power2amp/equal_lnn_AM1Hz_s55_35.m4a,,,
,,,,,,,,,,,,40680,2021-05-24_15h16.58.928,judgeSpeechMusic_20210519_logNormShiftAmp_mXs,2020.1.2,MacIntel,60,,,,,,,,,,,,,,1,5.842075,,0,0,42,42,27,1,stimuli/stim_20210519_power2amp/equal_lnn_AM1Hz_s35_6.m4a,,,
,,,,,,,,,,,,40680,2021-05-24_15h16.58.928,judgeSpeechMusic_20210519_logNormShiftAmp_mXs,2020.1.2,MacIntel,60,,,,,,,,,,,,,,2,5.73886,,0,0,43,43,129,1,stimuli/stim_20210519_power2amp/equal_lnn_AM4Hz_s35_38.m4a,,,
,,,,,,,,,,,,40680,2021-05-24_15h16.58.928,judgeSpeechMusic_20210519_logNormShiftAmp_mXs,2020.1.2,MacIntel,60,,,,,,,,,,,,,,1,5.821705,,0,0,44,44,58,1,stimuli/stim_20210519_power2amp/equal_lnn_AM2.5Hz_s15_8.m4a,,,
,,,,,,,,,,,,40680,2021-05-24_15h16.58.928,judgeSpeechMusic_20210519_logNormShiftAmp_mXs,2020.1.2,MacIntel,60,,,,,,,,,,,,,,1,7.14232,,0,0,45,45,21,1,stimuli/stim_20210519_power2amp/equal_lnn_AM1Hz_s35_4.m4a,,,
,,,,,,,,,,,,40680,2021-05-24_15h16.58.928,judgeSpeechMusic_20210519_logNormShiftAmp_mXs,2020.1.2,MacIntel,60,,,,,,,,,,,,,,1,7.92326,,0,0,46,46,63,1,stimuli/stim_20210519_power2amp/equal_lnn_AM2.5Hz_s25_24.m4a,,,
,,,,,,,,,,,,40680,2021-05-24_15h16.58.928,judgeSpeechMusic_20210519_logNormShiftAmp_mXs,2020.1.2,MacIntel,60,,,,,,,,,,,,,,2,5.821375,,0,0,47,47,55,1,stimuli/stim_20210519_power2amp/equal_lnn_AM2.5Hz_s15_31.m4a,,,
,,,,,,,,,,,,40680,2021-05-24_15h16.58.928,judgeSpeechMusic_20210519_logNormShiftAmp_mXs,2020.1.2,MacIntel,60,,,,,,,,,,,,,,1,6.32139,,0,0,48,48,128,1,stimuli/stim_20210519_power2amp/equal_lnn_AM4Hz_s35_10.m4a,,,
,,,,,,,,,,,,40680,2021-05-24_15h16.58.928,judgeSpeechMusic_20210519_logNormShiftAmp_mXs,2020.1.2,MacIntel,60,,,,,,,,,,,,,,1,5.72984,,0,0,49,49,0,1,stimuli/stim_20210519_power2amp/equal_lnn_AM1Hz_s15_12.m4a,,,
,,,,,,,,,,,,40680,2021-05-24_15h16.58.928,judgeSpeechMusic_20210519_logNormShiftAmp_mXs,2020.1.2,MacIntel,60,,,,,,,,,,,,,,1,5.753155,,0,0,50,50,38,1,stimuli/stim_20210519_power2amp/equal_lnn_AM1Hz_s45_25.m4a,,,
,,,,,,,,,,,,40680,2021-05-24_15h16.58.928,judgeSpeechMusic_20210519_logNormShiftAmp_mXs,2020.1.2,MacIntel,60,,,,,,,,,,,,,,1,5.5066,1,1,0,51,51,3,1,stimuli/stim_20210519_power2amp/equal_lnn_AM1Hz_s15_14.m4a,1.344015,,
,,,,,,,,,,,,40680,2021-05-24_15h16.58.928,judgeSpeechMusic_20210519_logNormShiftAmp_mXs,2020.1.2,MacIntel,60,,,,,,,,,,,,,,2,5.99282,,0,0,52,52,59,1,stimuli/stim_20210519_power2amp/equal_lnn_AM2.5Hz_s15_14.m4a,,,
,,,,,,,,,,,,40680,2021-05-24_15h16.58.928,judgeSpeechMusic_20210519_logNormShiftAmp_mXs,2020.1.2,MacIntel,60,,,,,,,,,,,,,,2,5.742335,,0,0,53,53,113,1,stimuli/stim_20210519_power2amp/equal_lnn_AM4Hz_s25_48.m4a,,,
,,,,,,,,,,,,40680,2021-05-24_15h16.58.928,judgeSpeechMusic_20210519_logNormShiftAmp_mXs,2020.1.2,MacIntel,60,,,,,,,,,,,,,,1,6.622705,,0,0,54,54,2,1,stimuli/stim_20210519_power2amp/equal_lnn_AM1Hz_s15_24.m4a,,,
,,,,,,,,,,,,40680,2021-05-24_15h16.58.928,judgeSpeechMusic_20210519_logNormShiftAmp_mXs,2020.1.2,MacIntel,60,,,,,,,,,,,,,,2,6.038115,,0,0,55,55,126,1,stimuli/stim_20210519_power2amp/equal_lnn_AM4Hz_s35_33.m4a,,,
,,,,,,,,,,,,40680,2021-05-24_15h16.58.928,judgeSpeechMusic_20210519_logNormShiftAmp_mXs,2020.1.2,MacIntel,60,,,,,,,,,,,,,,2,5.68803,,0,0,56,56,85,1,stimuli/stim_20210519_power2amp/equal_lnn_AM2.5Hz_s45_28.m4a,,,
,,,,,,,,,,,,40680,2021-05-24_15h16.58.928,judgeSpeechMusic_20210519_logNormShiftAmp_mXs,2020.1.2,MacIntel,60,,,,,,,,,,,,,,1,7.42375,,0,0,57,57,117,1,stimuli/stim_20210519_power2amp/equal_lnn_AM4Hz_s25_30.m4a,,,
,,,,,,,,,,,,40680,2021-05-24_15h16.58.928,judgeSpeechMusic_20210519_logNormShiftAmp_mXs,2020.1.2,MacIntel,60,,,,,,,,,,,,,,2,6.10357,,0,0,58,58,86,1,stimuli/stim_20210519_power2amp/equal_lnn_AM2.5Hz_s45_24.m4a,,,
,,,,,,,,,,,,40680,2021-05-24_15h16.58.928,judgeSpeechMusic_20210519_logNormShiftAmp_mXs,2020.1.2,MacIntel,60,,,,,,,,,,,,,,2,5.556235,,0,0,59,59,119,1,stimuli/stim_20210519_power2amp/equal_lnn_AM4Hz_s25_24.m4a,,,
,,,,,,,,,,,,40680,2021-05-24_15h16.58.928,judgeSpeechMusic_20210519_logNormShiftAmp_mXs,2020.1.2,MacIntel,60,,,,,,,,,,,,,,2,6.291455,,0,0,60,60,109,1,stimuli/stim_20210519_power2amp/equal_lnn_AM4Hz_s15_42.m4a,,,
,,,,,,,,,,,,40680,2021-05-24_15h16.58.928,judgeSpeechMusic_20210519_logNormShiftAmp_mXs,2020.1.2,MacIntel,60,,,,,,,,,,,,,,1,5.87254,,0,0,61,61,24,1,stimuli/stim_20210519_power2amp/equal_lnn_AM1Hz_s35_48.m4a,,,
,,,,,,,,,,,,40680,2021-05-24_15h16.58.928,judgeSpeechMusic_20210519_logNormShiftAmp_mXs,2020.1.2,MacIntel,60,,,,,,,,,,,,,,2,5.708885,,0,0,62,62,116,1,stimuli/stim_20210519_power2amp/equal_lnn_AM4Hz_s25_46.m4a,,,
,,,,,,,,,,,,40680,2021-05-24_15h16.58.928,judgeSpeechMusic_20210519_logNormShiftAmp_mXs,2020.1.2,MacIntel,60,,,,,,,,,,,,,,2,5.679875,,0,0,63,63,121,1,stimuli/stim_20210519_power2amp/equal_lnn_AM4Hz_s35_9.m4a,,,
,,,,,,,,,,,,40680,2021-05-24_15h16.58.928,judgeSpeechMusic_20210519_logNormShiftAmp_mXs,2020.1.2,MacIntel,60,,,,,,,,,,,,,,1,5.793215,,0,0,64,64,48,1,stimuli/stim_20210519_power2amp/equal_lnn_AM1Hz_s55_43.m4a,,,
,,,,,,,,,,,,40680,2021-05-24_15h16.58.928,judgeSpeechMusic_20210519_logNormShiftAmp_mXs,2020.1.2,MacIntel,60,,,,,,,,,,,,,,1,5.70577,,0,0,65,65,33,1,stimuli/stim_20210519_power2amp/equal_lnn_AM1Hz_s45_6.m4a,,,
,,,,,,,,,,,,40680,2021-05-24_15h16.58.928,judgeSpeechMusic_20210519_logNormShiftAmp_mXs,2020.1.2,MacIntel,60,,,,,,,,,,,,,,1,5.574455,,0,0,66,66,93,1,stimuli/stim_20210519_power2amp/equal_lnn_AM2.5Hz_s55_8.m4a,,,
,,,,,,,,,,,,40680,2021-05-24_15h16.58.928,judgeSpeechMusic_20210519_logNormShiftAmp_mXs,2020.1.2,MacIntel,60,,,,,,,,,,,,,,1,5.65638,,0,0,67,67,19,1,stimuli/stim_20210519_power2amp/equal_lnn_AM1Hz_s25_32.m4a,,,
,,,,,,,,,,,,40680,2021-05-24_15h16.58.928,judgeSpeechMusic_20210519_logNormShiftAmp_mXs,2020.1.2,MacIntel,60,,,,,,,,,,,,,,2,6.08752,,0,0,68,68,130,1,stimuli/stim_20210519_power2amp/equal_lnn_AM4Hz_s45_2.m4a,,,
,,,,,,,,,,,,40680,2021-05-24_15h16.58.928,judgeSpeechMusic_20210519_logNormShiftAmp_mXs,2020.1.2,MacIntel,60,,,,,,,,,,,,,,2,6.30436,,0,0,69,69,69,1,stimuli/stim_20210519_power2amp/equal_lnn_AM2.5Hz_s25_5.m4a,,,
,,,,,,,,,,,,40680,2021-05-24_15h16.58.928,judgeSpeechMusic_20210519_logNormShiftAmp_mXs,2020.1.2,MacIntel,60,,,,,,,,,,,,,,2,6.738755,,0,0,70,70,127,1,stimuli/stim_20210519_power2amp/equal_lnn_AM4Hz_s35_48.m4a,,,
,,,,,,,,,,,,40680,2021-05-24_15h16.58.928,judgeSpeechMusic_20210519_logNormShiftAmp_mXs,2020.1.2,MacIntel,60,,,,,,,,,,,,,,2,6.57315,,0,0,71,71,94,1,stimuli/stim_20210519_power2amp/equal_lnn_AM2.5Hz_s55_20.m4a,,,
,,,,,,,,,,,,40680,2021-05-24_15h16.58.928,judgeSpeechMusic_20210519_logNormShiftAmp_mXs,2020.1.2,MacIntel,60,,,,,,,,,,,,,,2,6.41128,,0,0,72,72,111,1,stimuli/stim_20210519_power2amp/equal_lnn_AM4Hz_s25_37.m4a,,,
,,,,,,,,,,,,40680,2021-05-24_15h16.58.928,judgeSpeechMusic_20210519_logNormShiftAmp_mXs,2020.1.2,MacIntel,60,,,,,,,,,,,,,,1,6.4732,4,1,0,73,73,51,1,stimuli/stim_20210519_power2amp/equal_lnn_AM2.5Hz_s15_6.m4a,1.72812,,
,,,,,,,,,,,,40680,2021-05-24_15h16.58.928,judgeSpeechMusic_20210519_logNormShiftAmp_mXs,2020.1.2,MacIntel,60,,,,,,,,,,,,,,2,6.93703,,0,0,74,74,103,1,stimuli/stim_20210519_power2amp/equal_lnn_AM4Hz_s15_44.m4a,,,
,,,,,,,,,,,,40680,2021-05-24_15h16.58.928,judgeSpeechMusic_20210519_logNormShiftAmp_mXs,2020.1.2,MacIntel,60,,,,,,,,,,,,,,2,6.257135,,0,0,75,75,92,1,stimuli/stim_20210519_power2amp/equal_lnn_AM2.5Hz_s55_4.m4a,,,
,,,,,,,,,,,,40680,2021-05-24_15h16.58.928,judgeSpeechMusic_20210519_logNormShiftAmp_mXs,2020.1.2,MacIntel,60,,,,,,,,,,,,,,2,5.909215,,0,0,76,76,97,1,stimuli/stim_20210519_power2amp/equal_lnn_AM2.5Hz_s55_11.m4a,,,
,,,,,,,,,,,,40680,2021-05-24_15h16.58.928,judgeSpeechMusic_20210519_logNormShiftAmp_mXs,2020.1.2,MacIntel,60,,,,,,,,,,,,,,2,6.70269,,0,0,77,77,82,1,stimuli/stim_20210519_power2amp/equal_lnn_AM2.5Hz_s45_45.m4a,,,
,,,,,,,,,,,,40680,2021-05-24_15h16.58.928,judgeSpeechMusic_20210519_logNormShiftAmp_mXs,2020.1.2,MacIntel,60,,,,,,,,,,,,,,1,6.476575,,0,0,78,78,37,1,stimuli/stim_20210519_power2amp/equal_lnn_AM1Hz_s45_5.m4a,,,
,,,,,,,,,,,,40680,2021-05-24_15h16.58.928,judgeSpeechMusic_20210519_logNormShiftAmp_mXs,2020.1.2,MacIntel,60,,,,,,,,,,,,,,1,6.24235,,0,0,79,79,96,1,stimuli/stim_20210519_power2amp/equal_lnn_AM2.5Hz_s55_43.m4a,,,
,,,,,,,,,,,,40680,2021-05-24_15h16.58.928,judgeSpeechMusic_20210519_logNormShiftAmp_mXs,2020.1.2,MacIntel,60,,,,,,,,,,,,,,1,7.039595,,0,0,80,80,35,1,stimuli/stim_20210519_power2amp/equal_lnn_AM1Hz_s45_7.m4a,,,
,,,,,,,,,,,,40680,2021-05-24_15h16.58.928,judgeSpeechMusic_20210519_logNormShiftAmp_mXs,2020.1.2,MacIntel,60,,,,,,,,,,,,,,2,7.740095,,0,0,81,81,115,1,stimuli/stim_20210519_power2amp/equal_lnn_AM4Hz_s25_10.m4a,,,
,,,,,,,,,,,,40680,2021-05-24_15h16.58.928,judgeSpeechMusic_20210519_logNormShiftAmp_mXs,2020.1.2,MacIntel,60,,,,,,,,,,,,,,2,5.77034,,0,0,82,82,138,1,stimuli/stim_20210519_power2amp/equal_lnn_AM4Hz_s45_32.m4a,,,
,,,,,,,,,,,,40680,2021-05-24_15h16.58.928,judgeSpeechMusic_20210519_logNormShiftAmp_mXs,2020.1.2,MacIntel,60,,,,,,,,,,,,,,2,6.19125,,0,0,83,83,91,1,stimuli/stim_20210519_power2amp/equal_lnn_AM2.5Hz_s55_14.m4a,,,
,,,,,,,,,,,,40680,2021-05-24_15h16.58.928,judgeSpeechMusic_20210519_logNormShiftAmp_mXs,2020.1.2,MacIntel,60,,,,,,,,,,,,,,1,6.257345,,0,0,84,84,5,1,stimuli/stim_20210519_power2amp/equal_lnn_AM1Hz_s15_21.m4a,,,
,,,,,,,,,,,,40680,2021-05-24_15h16.58.928,judgeSpeechMusic_20210519_logNormShiftAmp_mXs,2020.1.2,MacIntel,60,,,,,,,,,,,,,,1,5.712125,,0,0,85,85,66,1,stimuli/stim_20210519_power2amp/equal_lnn_AM2.5Hz_s25_43.m4a,,,
,,,,,,,,,,,,40680,2021-05-24_15h16.58.928,judgeSpeechMusic_20210519_logNormShiftAmp_mXs,2020.1.2,MacIntel,60,,,,,,,,,,,,,,1,5.88788,,0,0,86,86,42,1,stimuli/stim_20210519_power2amp/equal_lnn_AM1Hz_s55_19.m4a,,,
,,,,,,,,,,,,40680,2021-05-24_15h16.58.928,judgeSpeechMusic_20210519_logNormShiftAmp_mXs,2020.1.2,MacIntel,60,,,,,,,,,,,,,,1,5.707085,,0,0,87,87,40,1,stimuli/stim_20210519_power2amp/equal_lnn_AM1Hz_s55_38.m4a,,,
,,,,,,,,,,,,40680,2021-05-24_15h16.58.928,judgeSpeechMusic_20210519_logNormShiftAmp_mXs,2020.1.2,MacIntel,60,,,,,,,,,,,,,,1,5.89236,,0,0,88,88,90,1,stimuli/stim_20210519_power2amp/equal_lnn_AM2.5Hz_s55_3.m4a,,,
,,,,,,,,,,,,40680,2021-05-24_15h16.58.928,judgeSpeechMusic_20210519_logNormShiftAmp_mXs,2020.1.2,MacIntel,60,,,,,,,,,,,,,,1,5.79033,,0,0,89,89,6,1,stimuli/stim_20210519_power2amp/equal_lnn_AM1Hz_s15_36.m4a,,,
,,,,,,,,,,,,40680,2021-05-24_15h16.58.928,judgeSpeechMusic_20210519_logNormShiftAmp_mXs,2020.1.2,MacIntel,60,,,,,,,,,,,,,,2,5.98632,,0,0,90,90,122,1,stimuli/stim_20210519_power2amp/equal_lnn_AM4Hz_s35_14.m4a,,,
,,,,,,,,,,,,40680,2021-05-24_15h16.58.928,judgeSpeechMusic_20210519_logNormShiftAmp_mXs,2020.1.2,MacIntel,60,,,,,,,,,,,,,,2,6.94727,,0,0,91,91,84,1,stimuli/stim_20210519_power2amp/equal_lnn_AM2.5Hz_s45_8.m4a,,,
,,,,,,,,,,,,40680,2021-05-24_15h16.58.928,judgeSpeechMusic_20210519_logNormShiftAmp_mXs,2020.1.2,MacIntel,60,,,,,,,,,,,,,,2,6.23699,,0,0,92,92,68,1,stimuli/stim_20210519_power2amp/equal_lnn_AM2.5Hz_s25_36.m4a,,,
,,,,,,,,,,,,40680,2021-05-24_15h16.58.928,judgeSpeechMusic_20210519_logNormShiftAmp_mXs,2020.1.2,MacIntel,60,,,,,,,,,,,,,,2,7.0425,,0,0,93,93,39,1,stimuli/stim_20210519_power2amp/equal_lnn_AM1Hz_s45_39.m4a,,,
,,,,,,,,,,,,40680,2021-05-24_15h16.58.928,judgeSpeechMusic_20210519_logNormShiftAmp_mXs,2020.1.2,MacIntel,60,,,,,,,,,,,,,,2,11.08969,,0,0,94,94,22,1,stimuli/stim_20210519_power2amp/equal_lnn_AM1Hz_s35_39.m4a,,,
,,,,,,,,,,,,40680,2021-05-24_15h16.58.928,judgeSpeechMusic_20210519_logNormShiftAmp_mXs,2020.1.2,MacIntel,60,,,,,,,,,,,,,,2,5.690355,,0,0,95,95,114,1,stimuli/stim_20210519_power2amp/equal_lnn_AM4Hz_s25_20.m4a,,,
,,,,,,,,,,,,40680,2021-05-24_15h16.58.928,judgeSpeechMusic_20210519_logNormShiftAmp_mXs,2020.1.2,MacIntel,60,,,,,,,,,,,,,,1,6.006905,,0,0,96,96,28,1,stimuli/stim_20210519_power2amp/equal_lnn_AM1Hz_s35_11.m4a,,,
,,,,,,,,,,,,40680,2021-05-24_15h16.58.928,judgeSpeechMusic_20210519_logNormShiftAmp_mXs,2020.1.2,MacIntel,60,,,,,,,,,,,,,,2,6.68867,2,1,0,97,97,83,1,stimuli/stim_20210519_power2amp/equal_lnn_AM2.5Hz_s45_41.m4a,1.365155,,
,,,,,,,,,,,,40680,2021-05-24_15h16.58.928,judgeSpeechMusic_20210519_logNormShiftAmp_mXs,2020.1.2,MacIntel,60,,,,,,,,,,,,,,1,6.80856,,0,0,98,98,26,1,stimuli/stim_20210519_power2amp/equal_lnn_AM1Hz_s35_1.m4a,,,
,,,,,,,,,,,,40680,2021-05-24_15h16.58.928,judgeSpeechMusic_20210519_logNormShiftAmp_mXs,2020.1.2,MacIntel,60,,,,,,,,,,,,,,1,5.608035,,0,0,99,99,18,1,stimuli/stim_20210519_power2amp/equal_lnn_AM1Hz_s25_44.m4a,,,
,,,,,,,,,,,,40680,2021-05-24_15h16.58.928,judgeSpeechMusic_20210519_logNormShiftAmp_mXs,2020.1.2,MacIntel,60,,,,,,,,,,,,,,1,6.27338,,0,0,100,100,64,1,stimuli/stim_20210519_power2amp/equal_lnn_AM2.5Hz_s25_28.m4a,,,
,,,,,,,,,,,,40680,2021-05-24_15h16.58.928,judgeSpeechMusic_20210519_logNormShiftAmp_mXs,2020.1.2,MacIntel,60,,,,,,,,,,,,,,2,6.352755,,0,0,101,101,131,1,stimuli/stim_20210519_power2amp/equal_lnn_AM4Hz_s45_10.m4a,,,
,,,,,,,,,,,,40680,2021-05-24_15h16.58.928,judgeSpeechMusic_20210519_logNormShiftAmp_mXs,2020.1.2,MacIntel,60,,,,,,,,,,,,,,2,9.14485,,0,0,102,102,43,1,stimuli/stim_20210519_power2amp/equal_lnn_AM1Hz_s55_45.m4a,,,
,,,,,,,,,,,,40680,2021-05-24_15h16.58.928,judgeSpeechMusic_20210519_logNormShiftAmp_mXs,2020.1.2,MacIntel,60,,,,,,,,,,,,,,2,6.872635,,0,0,103,103,142,1,stimuli/stim_20210519_power2amp/equal_lnn_AM4Hz_s55_30.m4a,,,
,,,,,,,,,,,,40680,2021-05-24_15h16.58.928,judgeSpeechMusic_20210519_logNormShiftAmp_mXs,2020.1.2,MacIntel,60,,,,,,,,,,,,,,2,6.24112,,0,0,104,104,106,1,stimuli/stim_20210519_power2amp/equal_lnn_AM4Hz_s15_34.m4a,,,
,,,,,,,,,,,,40680,2021-05-24_15h16.58.928,judgeSpeechMusic_20210519_logNormShiftAmp_mXs,2020.1.2,MacIntel,60,,,,,,,,,,,,,,2,5.75771,,0,0,105,105,146,1,stimuli/stim_20210519_power2amp/equal_lnn_AM4Hz_s55_34.m4a,,,
,,,,,,,,,,,,40680,2021-05-24_15h16.58.928,judgeSpeechMusic_20210519_logNormShiftAmp_mXs,2020.1.2,MacIntel,60,,,,,,,,,,,,,,2,6.358775,,0,0,106,106,99,1,stimuli/stim_20210519_power2amp/equal_lnn_AM2.5Hz_s55_47.m4a,,,
,,,,,,,,,,,,40680,2021-05-24_15h16.58.928,judgeSpeechMusic_20210519_logNormShiftAmp_mXs,2020.1.2,MacIntel,60,,,,,,,,,,,,,,2,5.854115,,0,0,107,107,145,1,stimuli/stim_20210519_power2amp/equal_lnn_AM4Hz_s55_2.m4a,,,
,,,,,,,,,,,,40680,2021-05-24_15h16.58.928,judgeSpeechMusic_20210519_logNormShiftAmp_mXs,2020.1.2,MacIntel,60,,,,,,,,,,,,,,1,5.69147,,0,0,108,108,61,1,stimuli/stim_20210519_power2amp/equal_lnn_AM2.5Hz_s25_18.m4a,,,
,,,,,,,,,,,,40680,2021-05-24_15h16.58.928,judgeSpeechMusic_20210519_logNormShiftAmp_mXs,2020.1.2,MacIntel,60,,,,,,,,,,,,,,2,6.47863,,0,0,109,109,141,1,stimuli/stim_20210519_power2amp/equal_lnn_AM4Hz_s55_7.m4a,,,
,,,,,,,,,,,,40680,2021-05-24_15h16.58.928,judgeSpeechMusic_20210519_logNormShiftAmp_mXs,2020.1.2,MacIntel,60,,,,,,,,,,,,,,2,6.372355,,0,0,110,110,95,1,stimuli/stim_20210519_power2amp/equal_lnn_AM2.5Hz_s55_46.m4a,,,
,,,,,,,,,,,,40680,2021-05-24_15h16.58.928,judgeSpeechMusic_20210519_logNormShiftAmp_mXs,2020.1.2,MacIntel,60,,,,,,,,,,,,,,2,7.02072,,0,0,111,111,105,1,stimuli/stim_20210519_power2amp/equal_lnn_AM4Hz_s15_49.m4a,,,
,,,,,,,,,,,,40680,2021-05-24_15h16.58.928,judgeSpeechMusic_20210519_logNormShiftAmp_mXs,2020.1.2,MacIntel,60,,,,,,,,,,,,,,2,7.39009,,0,0,112,112,53,1,stimuli/stim_20210519_power2amp/equal_lnn_AM2.5Hz_s15_19.m4a,,,
,,,,,,,,,,,,40680,2021-05-24_15h16.58.928,judgeSpeechMusic_20210519_logNormShiftAmp_mXs,2020.1.2,MacIntel,60,,,,,,,,,,,,,,1,5.9742,,0,0,113,113,9,1,stimuli/stim_20210519_power2amp/equal_lnn_AM1Hz_s15_40.m4a,,,
,,,,,,,,,,,,40680,2021-05-24_15h16.58.928,judgeSpeechMusic_20210519_logNormShiftAmp_mXs,2020.1.2,MacIntel,60,,,,,,,,,,,,,,1,5.706325,,0,0,114,114,4,1,stimuli/stim_20210519_power2amp/equal_lnn_AM1Hz_s15_25.m4a,,,
,,,,,,,,,,,,40680,2021-05-24_15h16.58.928,judgeSpeechMusic_20210519_logNormShiftAmp_mXs,2020.1.2,MacIntel,60,,,,,,,,,,,,,,1,5.708075,,0,0,115,115,30,1,stimuli/stim_20210519_power2amp/equal_lnn_AM1Hz_s45_29.m4a,,,
,,,,,,,,,,,,40680,2021-05-24_15h16.58.928,judgeSpeechMusic_20210519_logNormShiftAmp_mXs,2020.1.2,MacIntel,60,,,,,,,,,,,,,,2,7.67075,,0,0,116,116,54,1,stimuli/stim_20210519_power2amp/equal_lnn_AM2.5Hz_s15_40.m4a,,,
,,,,,,,,,,,,40680,2021-05-24_15h16.58.928,judgeSpeechMusic_20210519_logNormShiftAmp_mXs,2020.1.2,MacIntel,60,,,,,,,,,,,,,,2,6.640045,,0,0,117,117,72,1,stimuli/stim_20210519_power2amp/equal_lnn_AM2.5Hz_s35_33.m4a,,,
,,,,,,,,,,,,40680,2021-05-24_15h16.58.928,judgeSpeechMusic_20210519_logNormShiftAmp_mXs,2020.1.2,MacIntel,60,,,,,,,,,,,,,,2,6.026715,3,1,0,118,118,112,1,stimuli/stim_20210519_power2amp/equal_lnn_AM4Hz_s25_28.m4a,1.094345,,
,,,,,,,,,,,,40680,2021-05-24_15h16.58.928,judgeSpeechMusic_20210519_logNormShiftAmp_mXs,2020.1.2,MacIntel,60,,,,,,,,,,,,,,2,6.088825,,0,0,119,119,125,1,stimuli/stim_20210519_power2amp/equal_lnn_AM4Hz_s35_2.m4a,,,
,,,,,,,,,,,,40680,2021-05-24_15h16.58.928,judgeSpeechMusic_20210519_logNormShiftAmp_mXs,2020.1.2,MacIntel,60,,,,,,,,,,,,,,2,6.907725,,0,0,120,120,60,1,stimuli/stim_20210519_power2amp/equal_lnn_AM2.5Hz_s25_46.m4a,,,
,,,,,,,,,,,,40680,2021-05-24_15h16.58.928,judgeSpeechMusic_20210519_logNormShiftAmp_mXs,2020.1.2,MacIntel,60,,,,,,,,,,,,,,2,7.619755,,0,0,121,121,102,1,stimuli/stim_20210519_power2amp/equal_lnn_AM4Hz_s15_26.m4a,,,
,,,,,,,,,,,,40680,2021-05-24_15h16.58.928,judgeSpeechMusic_20210519_logNormShiftAmp_mXs,2020.1.2,MacIntel,60,,,,,,,,,,,,,,1,7.02304,,0,0,122,122,57,1,stimuli/stim_20210519_power2amp/equal_lnn_AM2.5Hz_s15_16.m4a,,,
,,,,,,,,,,,,40680,2021-05-24_15h16.58.928,judgeSpeechMusic_20210519_logNormShiftAmp_mXs,2020.1.2,MacIntel,60,,,,,,,,,,,,,,1,7.68966,,0,0,123,123,23,1,stimuli/stim_20210519_power2amp/equal_lnn_AM1Hz_s35_32.m4a,,,
,,,,,,,,,,,,40680,2021-05-24_15h16.58.928,judgeSpeechMusic_20210519_logNormShiftAmp_mXs,2020.1.2,MacIntel,60,,,,,,,,,,,,,,1,5.845325,,0,0,124,124,1,1,stimuli/stim_20210519_power2amp/equal_lnn_AM1Hz_s15_5.m4a,,,
,,,,,,,,,,,,40680,2021-05-24_15h16.58.928,judgeSpeechMusic_20210519_logNormShiftAmp_mXs,2020.1.2,MacIntel,60,,,,,,,,,,,,,,1,5.76065,,0,0,125,125,76,1,stimuli/stim_20210519_power2amp/equal_lnn_AM2.5Hz_s35_46.m4a,,,
,,,,,,,,,,,,40680,2021-05-24_15h16.58.928,judgeSpeechMusic_20210519_logNormShiftAmp_mXs,2020.1.2,MacIntel,60,,,,,,,,,,,,,,2,5.856135,,0,0,126,126,123,1,stimuli/stim_20210519_power2amp/equal_lnn_AM4Hz_s35_28.m4a,,,
,,,,,,,,,,,,40680,2021-05-24_15h16.58.928,judgeSpeechMusic_20210519_logNormShiftAmp_mXs,2020.1.2,MacIntel,60,,,,,,,,,,,,,,1,8.306955,,0,0,127,127,7,1,stimuli/stim_20210519_power2amp/equal_lnn_AM1Hz_s15_28.m4a,,,
,,,,,,,,,,,,40680,2021-05-24_15h16.58.928,judgeSpeechMusic_20210519_logNormShiftAmp_mXs,2020.1.2,MacIntel,60,,,,,,,,,,,,,,1,5.675915,,0,0,128,128,8,1,stimuli/stim_20210519_power2amp/equal_lnn_AM1Hz_s15_19.m4a,,,
,,,,,,,,,,,,40680,2021-05-24_15h16.58.928,judgeSpeechMusic_20210519_logNormShiftAmp_mXs,2020.1.2,MacIntel,60,,,,,,,,,,,,,,1,6.09151,,0,0,129,129,79,1,stimuli/stim_20210519_power2amp/equal_lnn_AM2.5Hz_s35_50.m4a,,,
,,,,,,,,,,,,40680,2021-05-24_15h16.58.928,judgeSpeechMusic_20210519_logNormShiftAmp_mXs,2020.1.2,MacIntel,60,,,,,,,,,,,,,,2,6.972815,,0,0,130,130,98,1,stimuli/stim_20210519_power2amp/equal_lnn_AM2.5Hz_s55_5.m4a,,,
,,,,,,,,,,,,40680,2021-05-24_15h16.58.928,judgeSpeechMusic_20210519_logNormShiftAmp_mXs,2020.1.2,MacIntel,60,,,,,,,,,,,,,,1,5.8931,,0,0,131,131,11,1,stimuli/stim_20210519_power2amp/equal_lnn_AM1Hz_s25_35.m4a,,,
,,,,,,,,,,,,40680,2021-05-24_15h16.58.928,judgeSpeechMusic_20210519_logNormShiftAmp_mXs,2020.1.2,MacIntel,60,,,,,,,,,,,,,,2,6.72444,,0,0,132,132,73,1,stimuli/stim_20210519_power2amp/equal_lnn_AM2.5Hz_s35_43.m4a,,,
,,,,,,,,,,,,40680,2021-05-24_15h16.58.928,judgeSpeechMusic_20210519_logNormShiftAmp_mXs,2020.1.2,MacIntel,60,,,,,,,,,,,,,,2,5.841355,,0,0,133,133,139,1,stimuli/stim_20210519_power2amp/equal_lnn_AM4Hz_s45_26.m4a,,,
,,,,,,,,,,,,40680,2021-05-24_15h16.58.928,judgeSpeechMusic_20210519_logNormShiftAmp_mXs,2020.1.2,MacIntel,60,,,,,,,,,,,,,,1,7.675245,,0,0,134,134,17,1,stimuli/stim_20210519_power2amp/equal_lnn_AM1Hz_s25_17.m4a,,,
,,,,,,,,,,,,40680,2021-05-24_15h16.58.928,judgeSpeechMusic_20210519_logNormShiftAmp_mXs,2020.1.2,MacIntel,60,,,,,,,,,,,,,,2,5.90365,,0,0,135,135,124,1,stimuli/stim_20210519_power2amp/equal_lnn_AM4Hz_s35_46.m4a,,,
,,,,,,,,,,,,40680,2021-05-24_15h16.58.928,judgeSpeechMusic_20210519_logNormShiftAmp_mXs,2020.1.2,MacIntel,60,,,,,,,,,,,,,,2,6.192695,,0,0,136,136,107,1,stimuli/stim_20210519_power2amp/equal_lnn_AM4Hz_s15_27.m4a,,,
,,,,,,,,,,,,40680,2021-05-24_15h16.58.928,judgeSpeechMusic_20210519_logNormShiftAmp_mXs,2020.1.2,MacIntel,60,,,,,,,,,,,,,,2,5.87411,,0,0,137,137,101,1,stimuli/stim_20210519_power2amp/equal_lnn_AM4Hz_s15_17.m4a,,,
,,,,,,,,,,,,40680,2021-05-24_15h16.58.928,judgeSpeechMusic_20210519_logNormShiftAmp_mXs,2020.1.2,MacIntel,60,,,,,,,,,,,,,,2,5.790745,,0,0,138,138,88,1,stimuli/stim_20210519_power2amp/equal_lnn_AM2.5Hz_s45_2.m4a,,,
,,,,,,,,,,,,40680,2021-05-24_15h16.58.928,judgeSpeechMusic_20210519_logNormShiftAmp_mXs,2020.1.2,MacIntel,60,,,,,,,,,,,,,,1,6.70784,,0,0,139,139,20,1,stimuli/stim_20210519_power2amp/equal_lnn_AM1Hz_s35_28.m4a,,,
,,,,,,,,,,,,40680,2021-05-24_15h16.58.928,judgeSpeechMusic_20210519_logNormShiftAmp_mXs,2020.1.2,MacIntel,60,,,,,,,,,,,,,,2,9.85803,,0,0,140,140,49,1,stimuli/stim_20210519_power2amp/equal_lnn_AM1Hz_s55_5.m4a,,,
,,,,,,,,,,,,40680,2021-05-24_15h16.58.928,judgeSpeechMusic_20210519_logNormShiftAmp_mXs,2020.1.2,MacIntel,60,,,,,,,,,,,,,,1,6.007015,,0,0,141,141,36,1,stimuli/stim_20210519_power2amp/equal_lnn_AM1Hz_s45_19.m4a,,,
,,,,,,,,,,,,40680,2021-05-24_15h16.58.928,judgeSpeechMusic_20210519_logNormShiftAmp_mXs,2020.1.2,MacIntel,60,,,,,,,,,,,,,,2,6.57291,,0,0,142,142,110,1,stimuli/stim_20210519_power2amp/equal_lnn_AM4Hz_s25_39.m4a,,,
,,,,,,,,,,,,40680,2021-05-24_15h16.58.928,judgeSpeechMusic_20210519_logNormShiftAmp_mXs,2020.1.2,MacIntel,60,,,,,,,,,,,,,,2,7.027955,1,1,0,143,143,71,1,stimuli/stim_20210519_power2amp/equal_lnn_AM2.5Hz_s35_24.m4a,1.14206,,
,,,,,,,,,,,,40680,2021-05-24_15h16.58.928,judgeSpeechMusic_20210519_logNormShiftAmp_mXs,2020.1.2,MacIntel,60,,,,,,,,,,,,,,2,5.77813,,0,0,144,144,89,1,stimuli/stim_20210519_power2amp/equal_lnn_AM2.5Hz_s45_10.m4a,,,
,,,,,,,,,,,,40680,2021-05-24_15h16.58.928,judgeSpeechMusic_20210519_logNormShiftAmp_mXs,2020.1.2,MacIntel,60,,,,,,,,,,,,,,2,5.63777,,0,0,145,145,133,1,stimuli/stim_20210519_power2amp/equal_lnn_AM4Hz_s45_16.m4a,,,
,,,,,,,,,,,,40680,2021-05-24_15h16.58.928,judgeSpeechMusic_20210519_logNormShiftAmp_mXs,2020.1.2,MacIntel,60,,,,,,,,,,,,,,1,8.506865,,0,0,146,146,56,1,stimuli/stim_20210519_power2amp/equal_lnn_AM2.5Hz_s15_44.m4a,,,
,,,,,,,,,,,,40680,2021-05-24_15h16.58.928,judgeSpeechMusic_20210519_logNormShiftAmp_mXs,2020.1.2,MacIntel,60,,,,,,,,,,,,,,1,7.45829,,0,0,147,147,45,1,stimuli/stim_20210519_power2amp/equal_lnn_AM1Hz_s55_25.m4a,,,
,,,,,,,,,,,,40680,2021-05-24_15h16.58.928,judgeSpeechMusic_20210519_logNormShiftAmp_mXs,2020.1.2,MacIntel,60,,,,,,,,,,,,,,2,12.223305,,0,0,148,148,78,1,stimuli/stim_20210519_power2amp/equal_lnn_AM2.5Hz_s35_36.m4a,,,
,,,,,,,,,,,,40680,2021-05-24_15h16.58.928,judgeSpeechMusic_20210519_logNormShiftAmp_mXs,2020.1.2,MacIntel,60,,,,,,,,,,,,,,2,6.705275,,0,0,149,149,120,1,stimuli/stim_20210519_power2amp/equal_lnn_AM4Hz_s35_21.m4a,,,
,,,,,,,,,,,,40680,2021-05-24_15h16.58.928,judgeSpeechMusic_20210519_logNormShiftAmp_mXs,2020.1.2,MacIntel,60,,,,,,,,,,,,,,2,6.72367,,0,1,0,150,120,1,stimuli/stim_20210519_power2amp/equal_lnn_AM4Hz_s35_21.m4a,,,
,,,,,,,,,,,,40680,2021-05-24_15h16.58.928,judgeSpeechMusic_20210519_logNormShiftAmp_mXs,2020.1.2,MacIntel,60,,,,,,,,,,,,,,2,6.15718,,0,1,1,151,103,1,stimuli/stim_20210519_power2amp/equal_lnn_AM4Hz_s15_44.m4a,,,
,,,,,,,,,,,,40680,2021-05-24_15h16.58.928,judgeSpeechMusic_20210519_logNormShiftAmp_mXs,2020.1.2,MacIntel,60,,,,,,,,,,,,,,2,9.306575,,0,1,2,152,101,1,stimuli/stim_20210519_power2amp/equal_lnn_AM4Hz_s15_17.m4a,,,
,,,,,,,,,,,,40680,2021-05-24_15h16.58.928,judgeSpeechMusic_20210519_logNormShiftAmp_mXs,2020.1.2,MacIntel,60,,,,,,,,,,,,,,2,5.924875,,0,1,3,153,145,1,stimuli/stim_20210519_power2amp/equal_lnn_AM4Hz_s55_2.m4a,,,
,,,,,,,,,,,,40680,2021-05-24_15h16.58.928,judgeSpeechMusic_20210519_logNormShiftAmp_mXs,2020.1.2,MacIntel,60,,,,,,,,,,,,,,2,7.107065,,0,1,4,154,140,1,stimuli/stim_20210519_power2amp/equal_lnn_AM4Hz_s55_17.m4a,,,
,,,,,,,,,,,,40680,2021-05-24_15h16.58.928,judgeSpeechMusic_20210519_logNormShiftAmp_mXs,2020.1.2,MacIntel,60,,,,,,,,,,,,,,2,6.72429,,0,1,5,155,86,1,stimuli/stim_20210519_power2amp/equal_lnn_AM2.5Hz_s45_24.m4a,,,
,,,,,,,,,,,,40680,2021-05-24_15h16.58.928,judgeSpeechMusic_20210519_logNormShiftAmp_mXs,2020.1.2,MacIntel,60,,,,,,,,,,,,,,2,6.82272,,0,1,6,156,121,1,stimuli/stim_20210519_power2amp/equal_lnn_AM4Hz_s35_9.m4a,,,
,,,,,,,,,,,,40680,2021-05-24_15h16.58.928,judgeSpeechMusic_20210519_logNormShiftAmp_mXs,2020.1.2,MacIntel,60,,,,,,,,,,,,,,2,6.486835,,0,1,7,157,144,1,stimuli/stim_20210519_power2amp/equal_lnn_AM4Hz_s55_43.m4a,,,
,,,,,,,,,,,,40680,2021-05-24_15h16.58.928,judgeSpeechMusic_20210519_logNormShiftAmp_mXs,2020.1.2,MacIntel,60,,,,,,,,,,,,,,1,6.77912,,0,1,8,158,77,1,stimuli/stim_20210519_power2amp/equal_lnn_AM2.5Hz_s35_48.m4a,,,
,,,,,,,,,,,,40680,2021-05-24_15h16.58.928,judgeSpeechMusic_20210519_logNormShiftAmp_mXs,2020.1.2,MacIntel,60,,,,,,,,,,,,,,1,9.20852,,0,1,9,159,80,1,stimuli/stim_20210519_power2amp/equal_lnn_AM2.5Hz_s45_48.m4a,,,
,,,,,,,,,,,,40680,2021-05-24_15h16.58.928,judgeSpeechMusic_20210519_logNormShiftAmp_mXs,2020.1.2,MacIntel,60,,,,,,,,,,,,,,2,7.57952,,0,1,10,160,64,1,stimuli/stim_20210519_power2amp/equal_lnn_AM2.5Hz_s25_28.m4a,,,
,,,,,,,,,,,,40680,2021-05-24_15h16.58.928,judgeSpeechMusic_20210519_logNormShiftAmp_mXs,2020.1.2,MacIntel,60,,,,,,,,,,,,,,2,6.943335,,0,1,11,161,95,1,stimuli/stim_20210519_power2amp/equal_lnn_AM2.5Hz_s55_46.m4a,,,
,,,,,,,,,,,,40680,2021-05-24_15h16.58.928,judgeSpeechMusic_20210519_logNormShiftAmp_mXs,2020.1.2,MacIntel,60,,,,,,,,,,,,,,1,7.15594,,0,1,12,162,4,1,stimuli/stim_20210519_power2amp/equal_lnn_AM1Hz_s15_25.m4a,,,
,,,,,,,,,,,,40680,2021-05-24_15h16.58.928,judgeSpeechMusic_20210519_logNormShiftAmp_mXs,2020.1.2,MacIntel,60,,,,,,,,,,,,,,1,6.98777,,0,1,13,163,25,1,stimuli/stim_20210519_power2amp/equal_lnn_AM1Hz_s35_10.m4a,,,
,,,,,,,,,,,,40680,2021-05-24_15h16.58.928,judgeSpeechMusic_20210519_logNormShiftAmp_mXs,2020.1.2,MacIntel,60,,,,,,,,,,,,,,1,13.207765,,0,1,14,164,50,1,stimuli/stim_20210519_power2amp/equal_lnn_AM2.5Hz_s15_35.m4a,,,
,,,,,,,,,,,,40680,2021-05-24_15h16.58.928,judgeSpeechMusic_20210519_logNormShiftAmp_mXs,2020.1.2,MacIntel,60,,,,,,,,,,,,,,1,5.795465,,0,1,15,165,46,1,stimuli/stim_20210519_power2amp/equal_lnn_AM1Hz_s55_35.m4a,,,
,,,,,,,,,,,,40680,2021-05-24_15h16.58.928,judgeSpeechMusic_20210519_logNormShiftAmp_mXs,2020.1.2,MacIntel,60,,,,,,,,,,,,,,2,6.690275,,0,1,16,166,91,1,stimuli/stim_20210519_power2amp/equal_lnn_AM2.5Hz_s55_14.m4a,,,
,,,,,,,,,,,,40680,2021-05-24_15h16.58.928,judgeSpeechMusic_20210519_logNormShiftAmp_mXs,2020.1.2,MacIntel,60,,,,,,,,,,,,,,2,6.023095,2,1,1,17,167,139,1,stimuli/stim_20210519_power2amp/equal_lnn_AM4Hz_s45_26.m4a,1.77704,,
,,,,,,,,,,,,40680,2021-05-24_15h16.58.928,judgeSpeechMusic_20210519_logNormShiftAmp_mXs,2020.1.2,MacIntel,60,,,,,,,,,,,,,,2,7.257945,,0,1,18,168,88,1,stimuli/stim_20210519_power2amp/equal_lnn_AM2.5Hz_s45_2.m4a,,,
,,,,,,,,,,,,40680,2021-05-24_15h16.58.928,judgeSpeechMusic_20210519_logNormShiftAmp_mXs,2020.1.2,MacIntel,60,,,,,,,,,,,,,,1,6.789595,,0,1,19,169,40,1,stimuli/stim_20210519_power2amp/equal_lnn_AM1Hz_s55_38.m4a,,,
,,,,,,,,,,,,40680,2021-05-24_15h16.58.928,judgeSpeechMusic_20210519_logNormShiftAmp_mXs,2020.1.2,MacIntel,60,,,,,,,,,,,,,,2,8.07342,,0,1,20,170,98,1,stimuli/stim_20210519_power2amp/equal_lnn_AM2.5Hz_s55_5.m4a,,,
,,,,,,,,,,,,40680,2021-05-24_15h16.58.928,judgeSpeechMusic_20210519_logNormShiftAmp_mXs,2020.1.2,MacIntel,60,,,,,,,,,,,,,,2,5.89144,,0,1,21,171,122,1,stimuli/stim_20210519_power2amp/equal_lnn_AM4Hz_s35_14.m4a,,,
,,,,,,,,,,,,40680,2021-05-24_15h16.58.928,judgeSpeechMusic_20210519_logNormShiftAmp_mXs,2020.1.2,MacIntel,60,,,,,,,,,,,,,,2,5.71239,,0,1,22,172,112,1,stimuli/stim_20210519_power2amp/equal_lnn_AM4Hz_s25_28.m4a,,,
,,,,,,,,,,,,40680,2021-05-24_15h16.58.928,judgeSpeechMusic_20210519_logNormShiftAmp_mXs,2020.1.2,MacIntel,60,,,,,,,,,,,,,,1,6.87332,,0,1,23,173,60,1,stimuli/stim_20210519_power2amp/equal_lnn_AM2.5Hz_s25_46.m4a,,,
,,,,,,,,,,,,40680,2021-05-24_15h16.58.928,judgeSpeechMusic_20210519_logNormShiftAmp_mXs,2020.1.2,MacIntel,60,,,,,,,,,,,,,,1,7.406345,,0,1,24,174,130,1,stimuli/stim_20210519_power2amp/equal_lnn_AM4Hz_s45_2.m4a,,,
,,,,,,,,,,,,40680,2021-05-24_15h16.58.928,judgeSpeechMusic_20210519_logNormShiftAmp_mXs,2020.1.2,MacIntel,60,,,,,,,,,,,,,,1,6.420925,,0,1,25,175,76,1,stimuli/stim_20210519_power2amp/equal_lnn_AM2.5Hz_s35_46.m4a,,,
,,,,,,,,,,,,40680,2021-05-24_15h16.58.928,judgeSpeechMusic_20210519_logNormShiftAmp_mXs,2020.1.2,MacIntel,60,,,,,,,,,,,,,,1,7.206535,,0,1,26,176,23,1,stimuli/stim_20210519_power2amp/equal_lnn_AM1Hz_s35_32.m4a,,,
,,,,,,,,,,,,40680,2021-05-24_15h16.58.928,judgeSpeechMusic_20210519_logNormShiftAmp_mXs,2020.1.2,MacIntel,60,,,,,,,,,,,,,,2,7.691285,,0,1,27,177,97,1,stimuli/stim_20210519_power2amp/equal_lnn_AM2.5Hz_s55_11.m4a,,,
,,,,,,,,,,,,40680,2021-05-24_15h16.58.928,judgeSpeechMusic_20210519_logNormShiftAmp_mXs,2020.1.2,MacIntel,60,,,,,,,,,,,,,,2,6.604585,,0,1,28,178,92,1,stimuli/stim_20210519_power2amp/equal_lnn_AM2.5Hz_s55_4.m4a,,,
,,,,,,,,,,,,40680,2021-05-24_15h16.58.928,judgeSpeechMusic_20210519_logNormShiftAmp_mXs,2020.1.2,MacIntel,60,,,,,,,,,,,,,,2,6.473055,,0,1,29,179,125,1,stimuli/stim_20210519_power2amp/equal_lnn_AM4Hz_s35_2.m4a,,,
,,,,,,,,,,,,40680,2021-05-24_15h16.58.928,judgeSpeechMusic_20210519_logNormShiftAmp_mXs,2020.1.2,MacIntel,60,,,,,,,,,,,,,,2,6.660935,,0,1,30,180,114,1,stimuli/stim_20210519_power2amp/equal_lnn_AM4Hz_s25_20.m4a,,,
,,,,,,,,,,,,40680,2021-05-24_15h16.58.928,judgeSpeechMusic_20210519_logNormShiftAmp_mXs,2020.1.2,MacIntel,60,,,,,,,,,,,,,,2,13.740445,,0,1,31,181,59,1,stimuli/stim_20210519_power2amp/equal_lnn_AM2.5Hz_s15_14.m4a,,,
,,,,,,,,,,,,40680,2021-05-24_15h16.58.928,judgeSpeechMusic_20210519_logNormShiftAmp_mXs,2020.1.2,MacIntel,60,,,,,,,,,,,,,,2,8.89004,,0,1,32,182,44,1,stimuli/stim_20210519_power2amp/equal_lnn_AM1Hz_s55_2.m4a,,,
,,,,,,,,,,,,40680,2021-05-24_15h16.58.928,judgeSpeechMusic_20210519_logNormShiftAmp_mXs,2020.1.2,MacIntel,60,,,,,,,,,,,,,,1,8.57108,,0,1,33,183,58,1,stimuli/stim_20210519_power2amp/equal_lnn_AM2.5Hz_s15_8.m4a,,,
,,,,,,,,,,,,40680,2021-05-24_15h16.58.928,judgeSpeechMusic_20210519_logNormShiftAmp_mXs,2020.1.2,MacIntel,60,,,,,,,,,,,,,,2,6.5354,,0,1,34,184,100,1,stimuli/stim_20210519_power2amp/equal_lnn_AM4Hz_s15_10.m4a,,,
,,,,,,,,,,,,40680,2021-05-24_15h16.58.928,judgeSpeechMusic_20210519_logNormShiftAmp_mXs,2020.1.2,MacIntel,60,,,,,,,,,,,,,,1,6.66094,,0,1,35,185,22,1,stimuli/stim_20210519_power2amp/equal_lnn_AM1Hz_s35_39.m4a,,,
,,,,,,,,,,,,40680,2021-05-24_15h16.58.928,judgeSpeechMusic_20210519_logNormShiftAmp_mXs,2020.1.2,MacIntel,60,,,,,,,,,,,,,,1,6.157495,,0,1,36,186,48,1,stimuli/stim_20210519_power2amp/equal_lnn_AM1Hz_s55_43.m4a,,,
,,,,,,,,,,,,40680,2021-05-24_15h16.58.928,judgeSpeechMusic_20210519_logNormShiftAmp_mXs,2020.1.2,MacIntel,60,,,,,,,,,,,,,,2,11.185655,,0,1,37,187,99,1,stimuli/stim_20210519_power2amp/equal_lnn_AM2.5Hz_s55_47.m4a,,,
,,,,,,,,,,,,40680,2021-05-24_15h16.58.928,judgeSpeechMusic_20210519_logNormShiftAmp_mXs,2020.1.2,MacIntel,60,,,,,,,,,,,,,,2,8.306775,,0,1,38,188,56,1,stimuli/stim_20210519_power2amp/equal_lnn_AM2.5Hz_s15_44.m4a,,,
,,,,,,,,,,,,40680,2021-05-24_15h16.58.928,judgeSpeechMusic_20210519_logNormShiftAmp_mXs,2020.1.2,MacIntel,60,,,,,,,,,,,,,,1,6.542,,0,1,39,189,33,1,stimuli/stim_20210519_power2amp/equal_lnn_AM1Hz_s45_6.m4a,,,
,,,,,,,,,,,,40680,2021-05-24_15h16.58.928,judgeSpeechMusic_20210519_logNormShiftAmp_mXs,2020.1.2,MacIntel,60,,,,,,,,,,,,,,2,8.94279,,0,1,40,190,87,1,stimuli/stim_20210519_power2amp/equal_lnn_AM2.5Hz_s45_33.m4a,,,
,,,,,,,,,,,,40680,2021-05-24_15h16.58.928,judgeSpeechMusic_20210519_logNormShiftAmp_mXs,2020.1.2,MacIntel,60,,,,,,,,,,,,,,1,9.473005,4,1,1,41,191,67,1,stimuli/stim_20210519_power2amp/equal_lnn_AM2.5Hz_s25_29.m4a,2.727685,,
,,,,,,,,,,,,40680,2021-05-24_15h16.58.928,judgeSpeechMusic_20210519_logNormShiftAmp_mXs,2020.1.2,MacIntel,60,,,,,,,,,,,,,,1,8.688625,,0,1,42,192,35,1,stimuli/stim_20210519_power2amp/equal_lnn_AM1Hz_s45_7.m4a,,,
,,,,,,,,,,,,40680,2021-05-24_15h16.58.928,judgeSpeechMusic_20210519_logNormShiftAmp_mXs,2020.1.2,MacIntel,60,,,,,,,,,,,,,,1,5.939525,,0,1,43,193,11,1,stimuli/stim_20210519_power2amp/equal_lnn_AM1Hz_s25_35.m4a,,,
,,,,,,,,,,,,40680,2021-05-24_15h16.58.928,judgeSpeechMusic_20210519_logNormShiftAmp_mXs,2020.1.2,MacIntel,60,,,,,,,,,,,,,,1,6.24232,,0,1,44,194,52,1,stimuli/stim_20210519_power2amp/equal_lnn_AM2.5Hz_s15_18.m4a,,,
,,,,,,,,,,,,40680,2021-05-24_15h16.58.928,judgeSpeechMusic_20210519_logNormShiftAmp_mXs,2020.1.2,MacIntel,60,,,,,,,,,,,,,,1,6.05597,,0,1,45,195,63,1,stimuli/stim_20210519_power2amp/equal_lnn_AM2.5Hz_s25_24.m4a,,,
,,,,,,,,,,,,40680,2021-05-24_15h16.58.928,judgeSpeechMusic_20210519_logNormShiftAmp_mXs,2020.1.2,MacIntel,60,,,,,,,,,,,,,,1,6.612255,,0,1,46,196,16,1,stimuli/stim_20210519_power2amp/equal_lnn_AM1Hz_s25_25.m4a,,,
,,,,,,,,,,,,40680,2021-05-24_15h16.58.928,judgeSpeechMusic_20210519_logNormShiftAmp_mXs,2020.1.2,MacIntel,60,,,,,,,,,,,,,,1,6.45554,,0,1,47,197,6,1,stimuli/stim_20210519_power2amp/equal_lnn_AM1Hz_s15_36.m4a,,,
,,,,,,,,,,,,40680,2021-05-24_15h16.58.928,judgeSpeechMusic_20210519_logNormShiftAmp_mXs,2020.1.2,MacIntel,60,,,,,,,,,,,,,,2,7.3785,,0,1,48,198,81,1,stimuli/stim_20210519_power2amp/equal_lnn_AM2.5Hz_s45_14.m4a,,,
,,,,,,,,,,,,40680,2021-05-24_15h16.58.928,judgeSpeechMusic_20210519_logNormShiftAmp_mXs,2020.1.2,MacIntel,60,,,,,,,,,,,,,,1,7.142545,,0,1,49,199,18,1,stimuli/stim_20210519_power2amp/equal_lnn_AM1Hz_s25_44.m4a,,,
,,,,,,,,,,,,40680,2021-05-24_15h16.58.928,judgeSpeechMusic_20210519_logNormShiftAmp_mXs,2020.1.2,MacIntel,60,,,,,,,,,,,,,,1,5.887425,,0,1,50,200,10,1,stimuli/stim_20210519_power2amp/equal_lnn_AM1Hz_s25_12.m4a,,,
,,,,,,,,,,,,40680,2021-05-24_15h16.58.928,judgeSpeechMusic_20210519_logNormShiftAmp_mXs,2020.1.2,MacIntel,60,,,,,,,,,,,,,,1,6.654975,,0,1,51,201,19,1,stimuli/stim_20210519_power2amp/equal_lnn_AM1Hz_s25_32.m4a,,,
,,,,,,,,,,,,40680,2021-05-24_15h16.58.928,judgeSpeechMusic_20210519_logNormShiftAmp_mXs,2020.1.2,MacIntel,60,,,,,,,,,,,,,,2,8.140955,,0,1,52,202,89,1,stimuli/stim_20210519_power2amp/equal_lnn_AM2.5Hz_s45_10.m4a,,,
,,,,,,,,,,,,40680,2021-05-24_15h16.58.928,judgeSpeechMusic_20210519_logNormShiftAmp_mXs,2020.1.2,MacIntel,60,,,,,,,,,,,,,,2,6.12221,,0,1,53,203,117,1,stimuli/stim_20210519_power2amp/equal_lnn_AM4Hz_s25_30.m4a,,,
,,,,,,,,,,,,40680,2021-05-24_15h16.58.928,judgeSpeechMusic_20210519_logNormShiftAmp_mXs,2020.1.2,MacIntel,60,,,,,,,,,,,,,,2,5.77281,,0,1,54,204,124,1,stimuli/stim_20210519_power2amp/equal_lnn_AM4Hz_s35_46.m4a,,,
,,,,,,,,,,,,40680,2021-05-24_15h16.58.928,judgeSpeechMusic_20210519_logNormShiftAmp_mXs,2020.1.2,MacIntel,60,,,,,,,,,,,,,,2,6.172545,,0,1,55,205,84,1,stimuli/stim_20210519_power2amp/equal_lnn_AM2.5Hz_s45_8.m4a,,,
,,,,,,,,,,,,40680,2021-05-24_15h16.58.928,judgeSpeechMusic_20210519_logNormShiftAmp_mXs,2020.1.2,MacIntel,60,,,,,,,,,,,,,,2,6.22509,,0,1,56,206,129,1,stimuli/stim_20210519_power2amp/equal_lnn_AM4Hz_s35_38.m4a,,,
,,,,,,,,,,,,40680,2021-05-24_15h16.58.928,judgeSpeechMusic_20210519_logNormShiftAmp_mXs,2020.1.2,MacIntel,60,,,,,,,,,,,,,,2,6.77299,,0,1,57,207,148,1,stimuli/stim_20210519_power2amp/equal_lnn_AM4Hz_s55_50.m4a,,,
,,,,,,,,,,,,40680,2021-05-24_15h16.58.928,judgeSpeechMusic_20210519_logNormShiftAmp_mXs,2020.1.2,MacIntel,60,,,,,,,,,,,,,,2,6.47375,,0,1,58,208,43,1,stimuli/stim_20210519_power2amp/equal_lnn_AM1Hz_s55_45.m4a,,,
,,,,,,,,,,,,40680,2021-05-24_15h16.58.928,judgeSpeechMusic_20210519_logNormShiftAmp_mXs,2020.1.2,MacIntel,60,,,,,,,,,,,,,,2,6.77963,,0,1,59,209,65,1,stimuli/stim_20210519_power2amp/equal_lnn_AM2.5Hz_s25_23.m4a,,,
,,,,,,,,,,,,40680,2021-05-24_15h16.58.928,judgeSpeechMusic_20210519_logNormShiftAmp_mXs,2020.1.2,MacIntel,60,,,,,,,,,,,,,,1,6.1203,,0,1,60,210,41,1,stimuli/stim_20210519_power2amp/equal_lnn_AM1Hz_s55_10.m4a,,,
,,,,,,,,,,,,40680,2021-05-24_15h16.58.928,judgeSpeechMusic_20210519_logNormShiftAmp_mXs,2020.1.2,MacIntel,60,,,,,,,,,,,,,,2,5.823485,,0,1,61,211,149,1,stimuli/stim_20210519_power2amp/equal_lnn_AM4Hz_s55_3.m4a,,,
,,,,,,,,,,,,40680,2021-05-24_15h16.58.928,judgeSpeechMusic_20210519_logNormShiftAmp_mXs,2020.1.2,MacIntel,60,,,,,,,,,,,,,,2,5.64075,,0,1,62,212,132,1,stimuli/stim_20210519_power2amp/equal_lnn_AM4Hz_s45_21.m4a,,,
,,,,,,,,,,,,40680,2021-05-24_15h16.58.928,judgeSpeechMusic_20210519_logNormShiftAmp_mXs,2020.1.2,MacIntel,60,,,,,,,,,,,,,,1,8.7071,,0,1,63,213,30,1,stimuli/stim_20210519_power2amp/equal_lnn_AM1Hz_s45_29.m4a,,,
,,,,,,,,,,,,40680,2021-05-24_15h16.58.928,judgeSpeechMusic_20210519_logNormShiftAmp_mXs,2020.1.2,MacIntel,60,,,,,,,,,,,,,,2,7.60585,3,1,1,64,214,110,1,stimuli/stim_20210519_power2amp/equal_lnn_AM4Hz_s25_39.m4a,2.25723,,
,,,,,,,,,,,,40680,2021-05-24_15h16.58.928,judgeSpeechMusic_20210519_logNormShiftAmp_mXs,2020.1.2,MacIntel,60,,,,,,,,,,,,,,2,5.67281,,0,1,65,215,143,1,stimuli/stim_20210519_power2amp/equal_lnn_AM4Hz_s55_44.m4a,,,
,,,,,,,,,,,,40680,2021-05-24_15h16.58.928,judgeSpeechMusic_20210519_logNormShiftAmp_mXs,2020.1.2,MacIntel,60,,,,,,,,,,,,,,2,5.67341,,0,1,66,216,94,1,stimuli/stim_20210519_power2amp/equal_lnn_AM2.5Hz_s55_20.m4a,,,
,,,,,,,,,,,,40680,2021-05-24_15h16.58.928,judgeSpeechMusic_20210519_logNormShiftAmp_mXs,2020.1.2,MacIntel,60,,,,,,,,,,,,,,2,5.544105,,0,1,67,217,147,1,stimuli/stim_20210519_power2amp/equal_lnn_AM4Hz_s55_6.m4a,,,
,,,,,,,,,,,,40680,2021-05-24_15h16.58.928,judgeSpeechMusic_20210519_logNormShiftAmp_mXs,2020.1.2,MacIntel,60,,,,,,,,,,,,,,1,6.18882,,0,1,68,218,134,1,stimuli/stim_20210519_power2amp/equal_lnn_AM4Hz_s45_31.m4a,,,
,,,,,,,,,,,,40680,2021-05-24_15h16.58.928,judgeSpeechMusic_20210519_logNormShiftAmp_mXs,2020.1.2,MacIntel,60,,,,,,,,,,,,,,1,5.957615,,0,1,69,219,15,1,stimuli/stim_20210519_power2amp/equal_lnn_AM1Hz_s25_19.m4a,,,
,,,,,,,,,,,,40680,2021-05-24_15h16.58.928,judgeSpeechMusic_20210519_logNormShiftAmp_mXs,2020.1.2,MacIntel,60,,,,,,,,,,,,,,2,6.55799,,0,1,70,220,109,1,stimuli/stim_20210519_power2amp/equal_lnn_AM4Hz_s15_42.m4a,,,
,,,,,,,,,,,,40680,2021-05-24_15h16.58.928,judgeSpeechMusic_20210519_logNormShiftAmp_mXs,2020.1.2,MacIntel,60,,,,,,,,,,,,,,1,6.62035,,0,1,71,221,39,1,stimuli/stim_20210519_power2amp/equal_lnn_AM1Hz_s45_39.m4a,,,
,,,,,,,,,,,,40680,2021-05-24_15h16.58.928,judgeSpeechMusic_20210519_logNormShiftAmp_mXs,2020.1.2,MacIntel,60,,,,,,,,,,,,,,2,12.90651,,0,1,72,222,85,1,stimuli/stim_20210519_power2amp/equal_lnn_AM2.5Hz_s45_28.m4a,,,
,,,,,,,,,,,,40680,2021-05-24_15h16.58.928,judgeSpeechMusic_20210519_logNormShiftAmp_mXs,2020.1.2,MacIntel,60,,,,,,,,,,,,,,1,7.326985,,0,1,73,223,49,1,stimuli/stim_20210519_power2amp/equal_lnn_AM1Hz_s55_5.m4a,,,
,,,,,,,,,,,,40680,2021-05-24_15h16.58.928,judgeSpeechMusic_20210519_logNormShiftAmp_mXs,2020.1.2,MacIntel,60,,,,,,,,,,,,,,1,11.12529,,0,1,74,224,45,1,stimuli/stim_20210519_power2amp/equal_lnn_AM1Hz_s55_25.m4a,,,
,,,,,,,,,,,,40680,2021-05-24_15h16.58.928,judgeSpeechMusic_20210519_logNormShiftAmp_mXs,2020.1.2,MacIntel,60,,,,,,,,,,,,,,1,7.39273,,0,1,75,225,36,1,stimuli/stim_20210519_power2amp/equal_lnn_AM1Hz_s45_19.m4a,,,
,,,,,,,,,,,,40680,2021-05-24_15h16.58.928,judgeSpeechMusic_20210519_logNormShiftAmp_mXs,2020.1.2,MacIntel,60,,,,,,,,,,,,,,2,7.05788,,0,1,76,226,106,1,stimuli/stim_20210519_power2amp/equal_lnn_AM4Hz_s15_34.m4a,,,
,,,,,,,,,,,,40680,2021-05-24_15h16.58.928,judgeSpeechMusic_20210519_logNormShiftAmp_mXs,2020.1.2,MacIntel,60,,,,,,,,,,,,,,2,6.123685,,0,1,77,227,75,1,stimuli/stim_20210519_power2amp/equal_lnn_AM2.5Hz_s35_31.m4a,,,
,,,,,,,,,,,,40680,2021-05-24_15h16.58.928,judgeSpeechMusic_20210519_logNormShiftAmp_mXs,2020.1.2,MacIntel,60,,,,,,,,,,,,,,2,7.612375,,0,1,78,228,138,1,stimuli/stim_20210519_power2amp/equal_lnn_AM4Hz_s45_32.m4a,,,
,,,,,,,,,,,,40680,2021-05-24_15h16.58.928,judgeSpeechMusic_20210519_logNormShiftAmp_mXs,2020.1.2,MacIntel,60,,,,,,,,,,,,,,1,6.95495,,0,1,79,229,12,1,stimuli/stim_20210519_power2amp/equal_lnn_AM1Hz_s25_13.m4a,,,
,,,,,,,,,,,,40680,2021-05-24_15h16.58.928,judgeSpeechMusic_20210519_logNormShiftAmp_mXs,2020.1.2,MacIntel,60,,,,,,,,,,,,,,1,6.291995,,0,1,80,230,8,1,stimuli/stim_20210519_power2amp/equal_lnn_AM1Hz_s15_19.m4a,,,
,,,,,,,,,,,,40680,2021-05-24_15h16.58.928,judgeSpeechMusic_20210519_logNormShiftAmp_mXs,2020.1.2,MacIntel,60,,,,,,,,,,,,,,1,8.589765,,0,1,81,231,21,1,stimuli/stim_20210519_power2amp/equal_lnn_AM1Hz_s35_4.m4a,,,
,,,,,,,,,,,,40680,2021-05-24_15h16.58.928,judgeSpeechMusic_20210519_logNormShiftAmp_mXs,2020.1.2,MacIntel,60,,,,,,,,,,,,,,1,7.944125,,0,1,82,232,1,1,stimuli/stim_20210519_power2amp/equal_lnn_AM1Hz_s15_5.m4a,,,
,,,,,,,,,,,,40680,2021-05-24_15h16.58.928,judgeSpeechMusic_20210519_logNormShiftAmp_mXs,2020.1.2,MacIntel,60,,,,,,,,,,,,,,2,8.423955,,0,1,83,233,108,1,stimuli/stim_20210519_power2amp/equal_lnn_AM4Hz_s15_43.m4a,,,
,,,,,,,,,,,,40680,2021-05-24_15h16.58.928,judgeSpeechMusic_20210519_logNormShiftAmp_mXs,2020.1.2,MacIntel,60,,,,,,,,,,,,,,2,5.65599,,0,1,84,234,113,1,stimuli/stim_20210519_power2amp/equal_lnn_AM4Hz_s25_48.m4a,,,
,,,,,,,,,,,,40680,2021-05-24_15h16.58.928,judgeSpeechMusic_20210519_logNormShiftAmp_mXs,2020.1.2,MacIntel,60,,,,,,,,,,,,,,2,5.854475,,0,1,85,235,71,1,stimuli/stim_20210519_power2amp/equal_lnn_AM2.5Hz_s35_24.m4a,,,
,,,,,,,,,,,,40680,2021-05-24_15h16.58.928,judgeSpeechMusic_20210519_logNormShiftAmp_mXs,2020.1.2,MacIntel,60,,,,,,,,,,,,,,2,7.79169,,0,1,86,236,72,1,stimuli/stim_20210519_power2amp/equal_lnn_AM2.5Hz_s35_33.m4a,,,
,,,,,,,,,,,,40680,2021-05-24_15h16.58.928,judgeSpeechMusic_20210519_logNormShiftAmp_mXs,2020.1.2,MacIntel,60,,,,,,,,,,,,,,2,5.74371,,0,1,87,237,126,1,stimuli/stim_20210519_power2amp/equal_lnn_AM4Hz_s35_33.m4a,,,
,,,,,,,,,,,,40680,2021-05-24_15h16.58.928,judgeSpeechMusic_20210519_logNormShiftAmp_mXs,2020.1.2,MacIntel,60,,,,,,,,,,,,,,2,6.271695,4,1,1,88,238,68,1,stimuli/stim_20210519_power2amp/equal_lnn_AM2.5Hz_s25_36.m4a,2.178055,,
,,,,,,,,,,,,40680,2021-05-24_15h16.58.928,judgeSpeechMusic_20210519_logNormShiftAmp_mXs,2020.1.2,MacIntel,60,,,,,,,,,,,,,,1,10.82097,,0,1,89,239,51,1,stimuli/stim_20210519_power2amp/equal_lnn_AM2.5Hz_s15_6.m4a,,,
,,,,,,,,,,,,40680,2021-05-24_15h16.58.928,judgeSpeechMusic_20210519_logNormShiftAmp_mXs,2020.1.2,MacIntel,60,,,,,,,,,,,,,,1,6.656785,,0,1,90,240,57,1,stimuli/stim_20210519_power2amp/equal_lnn_AM2.5Hz_s15_16.m4a,,,
,,,,,,,,,,,,40680,2021-05-24_15h16.58.928,judgeSpeechMusic_20210519_logNormShiftAmp_mXs,2020.1.2,MacIntel,60,,,,,,,,,,,,,,2,6.388105,,0,1,91,241,82,1,stimuli/stim_20210519_power2amp/equal_lnn_AM2.5Hz_s45_45.m4a,,,
,,,,,,,,,,,,40680,2021-05-24_15h16.58.928,judgeSpeechMusic_20210519_logNormShiftAmp_mXs,2020.1.2,MacIntel,60,,,,,,,,,,,,,,1,8.039815,,0,1,92,242,9,1,stimuli/stim_20210519_power2amp/equal_lnn_AM1Hz_s15_40.m4a,,,
,,,,,,,,,,,,40680,2021-05-24_15h16.58.928,judgeSpeechMusic_20210519_logNormShiftAmp_mXs,2020.1.2,MacIntel,60,,,,,,,,,,,,,,2,8.458865,,0,1,93,243,111,1,stimuli/stim_20210519_power2amp/equal_lnn_AM4Hz_s25_37.m4a,,,
,,,,,,,,,,,,40680,2021-05-24_15h16.58.928,judgeSpeechMusic_20210519_logNormShiftAmp_mXs,2020.1.2,MacIntel,60,,,,,,,,,,,,,,2,6.25566,,0,1,94,244,136,1,stimuli/stim_20210519_power2amp/equal_lnn_AM4Hz_s45_35.m4a,,,
,,,,,,,,,,,,40680,2021-05-24_15h16.58.928,judgeSpeechMusic_20210519_logNormShiftAmp_mXs,2020.1.2,MacIntel,60,,,,,,,,,,,,,,2,5.605305,,0,1,95,245,135,1,stimuli/stim_20210519_power2amp/equal_lnn_AM4Hz_s45_49.m4a,,,
,,,,,,,,,,,,40680,2021-05-24_15h16.58.928,judgeSpeechMusic_20210519_logNormShiftAmp_mXs,2020.1.2,MacIntel,60,,,,,,,,,,,,,,2,5.58947,,0,1,96,246,123,1,stimuli/stim_20210519_power2amp/equal_lnn_AM4Hz_s35_28.m4a,,,
,,,,,,,,,,,,40680,2021-05-24_15h16.58.928,judgeSpeechMusic_20210519_logNormShiftAmp_mXs,2020.1.2,MacIntel,60,,,,,,,,,,,,,,2,5.80796,,0,1,97,247,133,1,stimuli/stim_20210519_power2amp/equal_lnn_AM4Hz_s45_16.m4a,,,
,,,,,,,,,,,,40680,2021-05-24_15h16.58.928,judgeSpeechMusic_20210519_logNormShiftAmp_mXs,2020.1.2,MacIntel,60,,,,,,,,,,,,,,2,5.82399,,0,1,98,248,116,1,stimuli/stim_20210519_power2amp/equal_lnn_AM4Hz_s25_46.m4a,,,
,,,,,,,,,,,,40680,2021-05-24_15h16.58.928,judgeSpeechMusic_20210519_logNormShiftAmp_mXs,2020.1.2,MacIntel,60,,,,,,,,,,,,,,2,6.206645,,0,1,99,249,146,1,stimuli/stim_20210519_power2amp/equal_lnn_AM4Hz_s55_34.m4a,,,
,,,,,,,,,,,,40680,2021-05-24_15h16.58.928,judgeSpeechMusic_20210519_logNormShiftAmp_mXs,2020.1.2,MacIntel,60,,,,,,,,,,,,,,2,8.655635,,0,1,100,250,107,1,stimuli/stim_20210519_power2amp/equal_lnn_AM4Hz_s15_27.m4a,,,
,,,,,,,,,,,,40680,2021-05-24_15h16.58.928,judgeSpeechMusic_20210519_logNormShiftAmp_mXs,2020.1.2,MacIntel,60,,,,,,,,,,,,,,1,5.740835,,0,1,101,251,0,1,stimuli/stim_20210519_power2amp/equal_lnn_AM1Hz_s15_12.m4a,,,
,,,,,,,,,,,,40680,2021-05-24_15h16.58.928,judgeSpeechMusic_20210519_logNormShiftAmp_mXs,2020.1.2,MacIntel,60,,,,,,,,,,,,,,1,5.71083,,0,1,102,252,32,1,stimuli/stim_20210519_power2amp/equal_lnn_AM1Hz_s45_15.m4a,,,
,,,,,,,,,,,,40680,2021-05-24_15h16.58.928,judgeSpeechMusic_20210519_logNormShiftAmp_mXs,2020.1.2,MacIntel,60,,,,,,,,,,,,,,2,8.06124,,0,1,103,253,83,1,stimuli/stim_20210519_power2amp/equal_lnn_AM2.5Hz_s45_41.m4a,,,
,,,,,,,,,,,,40680,2021-05-24_15h16.58.928,judgeSpeechMusic_20210519_logNormShiftAmp_mXs,2020.1.2,MacIntel,60,,,,,,,,,,,,,,1,7.204345,,0,1,104,254,93,1,stimuli/stim_20210519_power2amp/equal_lnn_AM2.5Hz_s55_8.m4a,,,
,,,,,,,,,,,,40680,2021-05-24_15h16.58.928,judgeSpeechMusic_20210519_logNormShiftAmp_mXs,2020.1.2,MacIntel,60,,,,,,,,,,,,,,2,9.092565,,0,1,105,255,61,1,stimuli/stim_20210519_power2amp/equal_lnn_AM2.5Hz_s25_18.m4a,,,
,,,,,,,,,,,,40680,2021-05-24_15h16.58.928,judgeSpeechMusic_20210519_logNormShiftAmp_mXs,2020.1.2,MacIntel,60,,,,,,,,,,,,,,2,8.254,,0,1,106,256,105,1,stimuli/stim_20210519_power2amp/equal_lnn_AM4Hz_s15_49.m4a,,,
,,,,,,,,,,,,40680,2021-05-24_15h16.58.928,judgeSpeechMusic_20210519_logNormShiftAmp_mXs,2020.1.2,MacIntel,60,,,,,,,,,,,,,,2,8.44258,,0,1,107,257,127,1,stimuli/stim_20210519_power2amp/equal_lnn_AM4Hz_s35_48.m4a,,,
,,,,,,,,,,,,40680,2021-05-24_15h16.58.928,judgeSpeechMusic_20210519_logNormShiftAmp_mXs,2020.1.2,MacIntel,60,,,,,,,,,,,,,,2,6.10775,,0,1,108,258,70,1,stimuli/stim_20210519_power2amp/equal_lnn_AM2.5Hz_s35_9.m4a,,,
,,,,,,,,,,,,40680,2021-05-24_15h16.58.928,judgeSpeechMusic_20210519_logNormShiftAmp_mXs,2020.1.2,MacIntel,60,,,,,,,,,,,,,,1,6.4905,,0,1,109,259,20,1,stimuli/stim_20210519_power2amp/equal_lnn_AM1Hz_s35_28.m4a,,,
,,,,,,,,,,,,40680,2021-05-24_15h16.58.928,judgeSpeechMusic_20210519_logNormShiftAmp_mXs,2020.1.2,MacIntel,60,,,,,,,,,,,,,,1,5.693005,,0,1,110,260,55,1,stimuli/stim_20210519_power2amp/equal_lnn_AM2.5Hz_s15_31.m4a,,,
,,,,,,,,,,,,40680,2021-05-24_15h16.58.928,judgeSpeechMusic_20210519_logNormShiftAmp_mXs,2020.1.2,MacIntel,60,,,,,,,,,,,,,,1,6.587115,4,1,1,111,261,66,1,stimuli/stim_20210519_power2amp/equal_lnn_AM2.5Hz_s25_43.m4a,1.560515,,
,,,,,,,,,,,,40680,2021-05-24_15h16.58.928,judgeSpeechMusic_20210519_logNormShiftAmp_mXs,2020.1.2,MacIntel,60,,,,,,,,,,,,,,1,9.04267,,0,1,112,262,2,1,stimuli/stim_20210519_power2amp/equal_lnn_AM1Hz_s15_24.m4a,,,
,,,,,,,,,,,,40680,2021-05-24_15h16.58.928,judgeSpeechMusic_20210519_logNormShiftAmp_mXs,2020.1.2,MacIntel,60,,,,,,,,,,,,,,1,6.82302,,0,1,113,263,38,1,stimuli/stim_20210519_power2amp/equal_lnn_AM1Hz_s45_25.m4a,,,
,,,,,,,,,,,,40680,2021-05-24_15h16.58.928,judgeSpeechMusic_20210519_logNormShiftAmp_mXs,2020.1.2,MacIntel,60,,,,,,,,,,,,,,1,5.739145,,0,1,114,264,27,1,stimuli/stim_20210519_power2amp/equal_lnn_AM1Hz_s35_6.m4a,,,
,,,,,,,,,,,,40680,2021-05-24_15h16.58.928,judgeSpeechMusic_20210519_logNormShiftAmp_mXs,2020.1.2,MacIntel,60,,,,,,,,,,,,,,2,5.943935,,0,1,115,265,74,1,stimuli/stim_20210519_power2amp/equal_lnn_AM2.5Hz_s35_16.m4a,,,
,,,,,,,,,,,,40680,2021-05-24_15h16.58.928,judgeSpeechMusic_20210519_logNormShiftAmp_mXs,2020.1.2,MacIntel,60,,,,,,,,,,,,,,1,8.474095,,0,1,116,266,37,1,stimuli/stim_20210519_power2amp/equal_lnn_AM1Hz_s45_5.m4a,,,
,,,,,,,,,,,,40680,2021-05-24_15h16.58.928,judgeSpeechMusic_20210519_logNormShiftAmp_mXs,2020.1.2,MacIntel,60,,,,,,,,,,,,,,1,8.360555,,0,1,117,267,34,1,stimuli/stim_20210519_power2amp/equal_lnn_AM1Hz_s45_32.m4a,,,
,,,,,,,,,,,,40680,2021-05-24_15h16.58.928,judgeSpeechMusic_20210519_logNormShiftAmp_mXs,2020.1.2,MacIntel,60,,,,,,,,,,,,,,2,6.53837,,0,1,118,268,102,1,stimuli/stim_20210519_power2amp/equal_lnn_AM4Hz_s15_26.m4a,,,
,,,,,,,,,,,,40680,2021-05-24_15h16.58.928,judgeSpeechMusic_20210519_logNormShiftAmp_mXs,2020.1.2,MacIntel,60,,,,,,,,,,,,,,1,6.773675,,0,1,119,269,3,1,stimuli/stim_20210519_power2amp/equal_lnn_AM1Hz_s15_14.m4a,,,
,,,,,,,,,,,,40680,2021-05-24_15h16.58.928,judgeSpeechMusic_20210519_logNormShiftAmp_mXs,2020.1.2,MacIntel,60,,,,,,,,,,,,,,1,6.129755,,0,1,120,270,42,1,stimuli/stim_20210519_power2amp/equal_lnn_AM1Hz_s55_19.m4a,,,
,,,,,,,,,,,,40680,2021-05-24_15h16.58.928,judgeSpeechMusic_20210519_logNormShiftAmp_mXs,2020.1.2,MacIntel,60,,,,,,,,,,,,,,2,8.20782,,0,1,121,271,115,1,stimuli/stim_20210519_power2amp/equal_lnn_AM4Hz_s25_10.m4a,,,
,,,,,,,,,,,,40680,2021-05-24_15h16.58.928,judgeSpeechMusic_20210519_logNormShiftAmp_mXs,2020.1.2,MacIntel,60,,,,,,,,,,,,,,2,7.110225,,0,1,122,272,131,1,stimuli/stim_20210519_power2amp/equal_lnn_AM4Hz_s45_10.m4a,,,
,,,,,,,,,,,,40680,2021-05-24_15h16.58.928,judgeSpeechMusic_20210519_logNormShiftAmp_mXs,2020.1.2,MacIntel,60,,,,,,,,,,,,,,1,7.52432,,0,1,123,273,7,1,stimuli/stim_20210519_power2amp/equal_lnn_AM1Hz_s15_28.m4a,,,
,,,,,,,,,,,,40680,2021-05-24_15h16.58.928,judgeSpeechMusic_20210519_logNormShiftAmp_mXs,2020.1.2,MacIntel,60,,,,,,,,,,,,,,1,6.839005,,0,1,124,274,31,1,stimuli/stim_20210519_power2amp/equal_lnn_AM1Hz_s45_11.m4a,,,
,,,,,,,,,,,,40680,2021-05-24_15h16.58.928,judgeSpeechMusic_20210519_logNormShiftAmp_mXs,2020.1.2,MacIntel,60,,,,,,,,,,,,,,1,5.780045,,0,1,125,275,96,1,stimuli/stim_20210519_power2amp/equal_lnn_AM2.5Hz_s55_43.m4a,,,
,,,,,,,,,,,,40680,2021-05-24_15h16.58.928,judgeSpeechMusic_20210519_logNormShiftAmp_mXs,2020.1.2,MacIntel,60,,,,,,,,,,,,,,1,6.474945,,0,1,126,276,24,1,stimuli/stim_20210519_power2amp/equal_lnn_AM1Hz_s35_48.m4a,,,
,,,,,,,,,,,,40680,2021-05-24_15h16.58.928,judgeSpeechMusic_20210519_logNormShiftAmp_mXs,2020.1.2,MacIntel,60,,,,,,,,,,,,,,2,7.075635,,0,1,127,277,54,1,stimuli/stim_20210519_power2amp/equal_lnn_AM2.5Hz_s15_40.m4a,,,
,,,,,,,,,,,,40680,2021-05-24_15h16.58.928,judgeSpeechMusic_20210519_logNormShiftAmp_mXs,2020.1.2,MacIntel,60,,,,,,,,,,,,,,2,6.342485,,0,1,128,278,118,1,stimuli/stim_20210519_power2amp/equal_lnn_AM4Hz_s25_15.m4a,,,
,,,,,,,,,,,,40680,2021-05-24_15h16.58.928,judgeSpeechMusic_20210519_logNormShiftAmp_mXs,2020.1.2,MacIntel,60,,,,,,,,,,,,,,2,5.906765,,0,1,129,279,141,1,stimuli/stim_20210519_power2amp/equal_lnn_AM4Hz_s55_7.m4a,,,
,,,,,,,,,,,,40680,2021-05-24_15h16.58.928,judgeSpeechMusic_20210519_logNormShiftAmp_mXs,2020.1.2,MacIntel,60,,,,,,,,,,,,,,1,5.754815,,0,1,130,280,5,1,stimuli/stim_20210519_power2amp/equal_lnn_AM1Hz_s15_21.m4a,,,
,,,,,,,,,,,,40680,2021-05-24_15h16.58.928,judgeSpeechMusic_20210519_logNormShiftAmp_mXs,2020.1.2,MacIntel,60,,,,,,,,,,,,,,1,6.538375,,0,1,131,281,14,1,stimuli/stim_20210519_power2amp/equal_lnn_AM1Hz_s25_38.m4a,,,
,,,,,,,,,,,,40680,2021-05-24_15h16.58.928,judgeSpeechMusic_20210519_logNormShiftAmp_mXs,2020.1.2,MacIntel,60,,,,,,,,,,,,,,2,5.75611,,0,1,132,282,78,1,stimuli/stim_20210519_power2amp/equal_lnn_AM2.5Hz_s35_36.m4a,,,
,,,,,,,,,,,,40680,2021-05-24_15h16.58.928,judgeSpeechMusic_20210519_logNormShiftAmp_mXs,2020.1.2,MacIntel,60,,,,,,,,,,,,,,2,5.772775,,0,1,133,283,137,1,stimuli/stim_20210519_power2amp/equal_lnn_AM4Hz_s45_46.m4a,,,
,,,,,,,,,,,,40680,2021-05-24_15h16.58.928,judgeSpeechMusic_20210519_logNormShiftAmp_mXs,2020.1.2,MacIntel,60,,,,,,,,,,,,,,1,8.109735,,0,1,134,284,62,1,stimuli/stim_20210519_power2amp/equal_lnn_AM2.5Hz_s25_49.m4a,,,
,,,,,,,,,,,,40680,2021-05-24_15h16.58.928,judgeSpeechMusic_20210519_logNormShiftAmp_mXs,2020.1.2,MacIntel,60,,,,,,,,,,,,,,2,7.701985,,0,1,135,285,142,1,stimuli/stim_20210519_power2amp/equal_lnn_AM4Hz_s55_30.m4a,,,
,,,,,,,,,,,,40680,2021-05-24_15h16.58.928,judgeSpeechMusic_20210519_logNormShiftAmp_mXs,2020.1.2,MacIntel,60,,,,,,,,,,,,,,1,9.94647,4,1,1,136,286,47,1,stimuli/stim_20210519_power2amp/equal_lnn_AM1Hz_s55_34.m4a,1.4782,,
,,,,,,,,,,,,40680,2021-05-24_15h16.58.928,judgeSpeechMusic_20210519_logNormShiftAmp_mXs,2020.1.2,MacIntel,60,,,,,,,,,,,,,,1,7.13963,,0,1,137,287,128,1,stimuli/stim_20210519_power2amp/equal_lnn_AM4Hz_s35_10.m4a,,,
,,,,,,,,,,,,40680,2021-05-24_15h16.58.928,judgeSpeechMusic_20210519_logNormShiftAmp_mXs,2020.1.2,MacIntel,60,,,,,,,,,,,,,,2,9.007095,,0,1,138,288,79,1,stimuli/stim_20210519_power2amp/equal_lnn_AM2.5Hz_s35_50.m4a,,,
,,,,,,,,,,,,40680,2021-05-24_15h16.58.928,judgeSpeechMusic_20210519_logNormShiftAmp_mXs,2020.1.2,MacIntel,60,,,,,,,,,,,,,,2,6.42357,,0,1,139,289,104,1,stimuli/stim_20210519_power2amp/equal_lnn_AM4Hz_s15_38.m4a,,,
,,,,,,,,,,,,40680,2021-05-24_15h16.58.928,judgeSpeechMusic_20210519_logNormShiftAmp_mXs,2020.1.2,MacIntel,60,,,,,,,,,,,,,,2,6.658075,,0,1,140,290,53,1,stimuli/stim_20210519_power2amp/equal_lnn_AM2.5Hz_s15_19.m4a,,,
,,,,,,,,,,,,40680,2021-05-24_15h16.58.928,judgeSpeechMusic_20210519_logNormShiftAmp_mXs,2020.1.2,MacIntel,60,,,,,,,,,,,,,,2,6.54011,,0,1,141,291,90,1,stimuli/stim_20210519_power2amp/equal_lnn_AM2.5Hz_s55_3.m4a,,,
,,,,,,,,,,,,40680,2021-05-24_15h16.58.928,judgeSpeechMusic_20210519_logNormShiftAmp_mXs,2020.1.2,MacIntel,60,,,,,,,,,,,,,,1,5.856465,,0,1,142,292,73,1,stimuli/stim_20210519_power2amp/equal_lnn_AM2.5Hz_s35_43.m4a,,,
,,,,,,,,,,,,40680,2021-05-24_15h16.58.928,judgeSpeechMusic_20210519_logNormShiftAmp_mXs,2020.1.2,MacIntel,60,,,,,,,,,,,,,,1,6.258825,,0,1,143,293,29,1,stimuli/stim_20210519_power2amp/equal_lnn_AM1Hz_s35_37.m4a,,,
,,,,,,,,,,,,40680,2021-05-24_15h16.58.928,judgeSpeechMusic_20210519_logNormShiftAmp_mXs,2020.1.2,MacIntel,60,,,,,,,,,,,,,,2,8.32331,,0,1,144,294,119,1,stimuli/stim_20210519_power2amp/equal_lnn_AM4Hz_s25_24.m4a,,,
,,,,,,,,,,,,40680,2021-05-24_15h16.58.928,judgeSpeechMusic_20210519_logNormShiftAmp_mXs,2020.1.2,MacIntel,60,,,,,,,,,,,,,,1,7.425905,,0,1,145,295,17,1,stimuli/stim_20210519_power2amp/equal_lnn_AM1Hz_s25_17.m4a,,,
,,,,,,,,,,,,40680,2021-05-24_15h16.58.928,judgeSpeechMusic_20210519_logNormShiftAmp_mXs,2020.1.2,MacIntel,60,,,,,,,,,,,,,,1,6.18851,,0,1,146,296,13,1,stimuli/stim_20210519_power2amp/equal_lnn_AM1Hz_s25_4.m4a,,,
,,,,,,,,,,,,40680,2021-05-24_15h16.58.928,judgeSpeechMusic_20210519_logNormShiftAmp_mXs,2020.1.2,MacIntel,60,,,,,,,,,,,,,,2,7.84027,,0,1,147,297,69,1,stimuli/stim_20210519_power2amp/equal_lnn_AM2.5Hz_s25_5.m4a,,,
,,,,,,,,,,,,40680,2021-05-24_15h16.58.928,judgeSpeechMusic_20210519_logNormShiftAmp_mXs,2020.1.2,MacIntel,60,,,,,,,,,,,,,,1,9.22479,,0,1,148,298,28,1,stimuli/stim_20210519_power2amp/equal_lnn_AM1Hz_s35_11.m4a,,,
,,,,,,,,,,,,40680,2021-05-24_15h16.58.928,judgeSpeechMusic_20210519_logNormShiftAmp_mXs,2020.1.2,MacIntel,60,,,,,,,,,,,,,,1,5.726165,,0,1,149,299,26,1,stimuli/stim_20210519_power2amp/equal_lnn_AM1Hz_s35_1.m4a,,,
,,,,,,,,,,,,40680,2021-05-24_15h16.58.928,judgeSpeechMusic_20210519_logNormShiftAmp_mXs,2020.1.2,MacIntel,60,,,,,,,,,,,,,,,,,,,,,,,,,space,12.21036
