headphoneResponse.keys,headphoneResponse.corr,headphoneResponse.rt,headphoneTrial.thisRepN,headphoneTrial.thisTrialN,headphoneTrial.thisN,headphoneTrial.thisIndex,headphoneTrial.ran,headphone_sound1,headphone_sound2,headphone_sound3,corrAns,participant,date,expName,psychopyVersion,OS,frameRate,trainSlider.response,trainSlider.rt,beepTrainResponse.keys,beepTrainResponse.corr,trainingTrials.thisRepN,trainingTrials.thisTrialN,trainingTrials.thisN,trainingTrials.thisIndex,trainingTrials.ran,trainAudioFile,beepTrainResponse.rt,readyReal_resp.keys,readyReal_resp.rt,ratingSlider.response,ratingSlider.rt,beepResp.keys,beepResp.corr,expTrials.thisRepN,expTrials.thisTrialN,expTrials.thisN,expTrials.thisIndex,expTrials.ran,audioFile,beepResp.rt,end_resp.keys,end_resp.rt
1,1,2.4823,0,0,0,4,1,stimuli/screen_quiet.wav,stimuli/screen_antiphase.wav,stimuli/screen_origin.wav,1,41054,2021-06-02_10h19.19.306,judgeSpeechMusic_20210519_logNormShiftAmp_mXs,2020.1.2,MacIntel,60,,,,,,,,,,,,,,,,,,,,,,,,,,
3,1,0.3835,0,1,1,0,1,stimuli/screen_antiphase.wav,stimuli/screen_origin.wav,stimuli/screen_quiet.wav,3,41054,2021-06-02_10h19.19.306,judgeSpeechMusic_20210519_logNormShiftAmp_mXs,2020.1.2,MacIntel,60,,,,,,,,,,,,,,,,,,,,,,,,,,
3,1,1.7662,0,2,2,2,1,stimuli/screen_origin.wav,stimuli/screen_antiphase.wav,stimuli/screen_quiet.wav,3,41054,2021-06-02_10h19.19.306,judgeSpeechMusic_20210519_logNormShiftAmp_mXs,2020.1.2,MacIntel,60,,,,,,,,,,,,,,,,,,,,,,,,,,
2,1,0.7842,0,3,3,1,1,stimuli/screen_antiphase.wav,stimuli/screen_quiet.wav,stimuli/screen_origin.wav,2,41054,2021-06-02_10h19.19.306,judgeSpeechMusic_20210519_logNormShiftAmp_mXs,2020.1.2,MacIntel,60,,,,,,,,,,,,,,,,,,,,,,,,,,
2,0,0.9991,0,4,4,5,1,stimuli/screen_quiet.wav,stimuli/screen_origin.wav,stimuli/screen_antiphase.wav,1,41054,2021-06-02_10h19.19.306,judgeSpeechMusic_20210519_logNormShiftAmp_mXs,2020.1.2,MacIntel,60,,,,,,,,,,,,,,,,,,,,,,,,,,
2,1,0.4677,0,5,5,3,1,stimuli/screen_origin.wav,stimuli/screen_quiet.wav,stimuli/screen_antiphase.wav,2,41054,2021-06-02_10h19.19.306,judgeSpeechMusic_20210519_logNormShiftAmp_mXs,2020.1.2,MacIntel,60,,,,,,,,,,,,,,,,,,,,,,,,,,
,,,,,,,,,,,,41054,2021-06-02_10h19.19.306,judgeSpeechMusic_20210519_logNormShiftAmp_mXs,2020.1.2,MacIntel,60,2,13.1469,,0,0,0,0,1,1,stimuli/stim_20210519_power2amp/equal_lnn_AM_training1.5Hz_s50.m4a,,,,,,,,,,,,,,,,
,,,,,,,,,,,,41054,2021-06-02_10h19.19.306,judgeSpeechMusic_20210519_logNormShiftAmp_mXs,2020.1.2,MacIntel,60,2,9.8603,,0,0,1,1,3,1,stimuli/stim_20210519_power2amp/equal_lnn_AM_training3.5Hz_s50.m4a,,,,,,,,,,,,,,,,
,,,,,,,,,,,,41054,2021-06-02_10h19.19.306,judgeSpeechMusic_20210519_logNormShiftAmp_mXs,2020.1.2,MacIntel,60,2,6.1641,4,1,0,2,2,0,1,stimuli/stim_20210519_power2amp/equal_lnn_AM_training1.5Hz_s20.m4a,6.3315,,,,,,,,,,,,,,,
,,,,,,,,,,,,41054,2021-06-02_10h19.19.306,judgeSpeechMusic_20210519_logNormShiftAmp_mXs,2020.1.2,MacIntel,60,2,7.5463,,0,0,3,3,2,1,stimuli/stim_20210519_power2amp/equal_lnn_AM_training3.5Hz_s20.m4a,,,,,,,,,,,,,,,,
,,,,,,,,,,,,41054,2021-06-02_10h19.19.306,judgeSpeechMusic_20210519_logNormShiftAmp_mXs,2020.1.2,MacIntel,60,,,,,,,,,,,,space,2.9479,2,6.7169,,0,0,0,0,53,1,stimuli/stim_20210519_power2amp/equal_lnn_AM2.5Hz_s15_4.m4a,,,
,,,,,,,,,,,,41054,2021-06-02_10h19.19.306,judgeSpeechMusic_20210519_logNormShiftAmp_mXs,2020.1.2,MacIntel,60,,,,,,,,,,,,,,2,10.1768,,0,0,1,1,102,1,stimuli/stim_20210519_power2amp/equal_lnn_AM4Hz_s15_25.m4a,,,
,,,,,,,,,,,,41054,2021-06-02_10h19.19.306,judgeSpeechMusic_20210519_logNormShiftAmp_mXs,2020.1.2,MacIntel,60,,,,,,,,,,,,,,2,6.3456,,0,0,2,2,3,1,stimuli/stim_20210519_power2amp/equal_lnn_AM1Hz_s15_6.m4a,,,
,,,,,,,,,,,,41054,2021-06-02_10h19.19.306,judgeSpeechMusic_20210519_logNormShiftAmp_mXs,2020.1.2,MacIntel,60,,,,,,,,,,,,,,1,6.9305,,0,0,3,3,9,1,stimuli/stim_20210519_power2amp/equal_lnn_AM1Hz_s15_11.m4a,,,
,,,,,,,,,,,,41054,2021-06-02_10h19.19.306,judgeSpeechMusic_20210519_logNormShiftAmp_mXs,2020.1.2,MacIntel,60,,,,,,,,,,,,,,1,6.0965,,0,0,4,4,99,1,stimuli/stim_20210519_power2amp/equal_lnn_AM2.5Hz_s55_37.m4a,,,
,,,,,,,,,,,,41054,2021-06-02_10h19.19.306,judgeSpeechMusic_20210519_logNormShiftAmp_mXs,2020.1.2,MacIntel,60,,,,,,,,,,,,,,1,7.7131,,0,0,5,5,105,1,stimuli/stim_20210519_power2amp/equal_lnn_AM4Hz_s15_6.m4a,,,
,,,,,,,,,,,,41054,2021-06-02_10h19.19.306,judgeSpeechMusic_20210519_logNormShiftAmp_mXs,2020.1.2,MacIntel,60,,,,,,,,,,,,,,2,5.9131,,0,0,6,6,43,1,stimuli/stim_20210519_power2amp/equal_lnn_AM1Hz_s55_13.m4a,,,
,,,,,,,,,,,,41054,2021-06-02_10h19.19.306,judgeSpeechMusic_20210519_logNormShiftAmp_mXs,2020.1.2,MacIntel,60,,,,,,,,,,,,,,2,6.5797,,0,0,7,7,17,1,stimuli/stim_20210519_power2amp/equal_lnn_AM1Hz_s25_10.m4a,,,
,,,,,,,,,,,,41054,2021-06-02_10h19.19.306,judgeSpeechMusic_20210519_logNormShiftAmp_mXs,2020.1.2,MacIntel,60,,,,,,,,,,,,,,1,5.9622,,0,0,8,8,106,1,stimuli/stim_20210519_power2amp/equal_lnn_AM4Hz_s15_1.m4a,,,
,,,,,,,,,,,,41054,2021-06-02_10h19.19.306,judgeSpeechMusic_20210519_logNormShiftAmp_mXs,2020.1.2,MacIntel,60,,,,,,,,,,,,,,2,6.2461,,0,0,9,9,23,1,stimuli/stim_20210519_power2amp/equal_lnn_AM1Hz_s35_50.m4a,,,
,,,,,,,,,,,,41054,2021-06-02_10h19.19.306,judgeSpeechMusic_20210519_logNormShiftAmp_mXs,2020.1.2,MacIntel,60,,,,,,,,,,,,,,2,36.6643,,0,0,10,10,22,1,stimuli/stim_20210519_power2amp/equal_lnn_AM1Hz_s35_14.m4a,,,
,,,,,,,,,,,,41054,2021-06-02_10h19.19.306,judgeSpeechMusic_20210519_logNormShiftAmp_mXs,2020.1.2,MacIntel,60,,,,,,,,,,,,,,2,6.3781,,0,0,11,11,122,1,stimuli/stim_20210519_power2amp/equal_lnn_AM4Hz_s35_22.m4a,,,
,,,,,,,,,,,,41054,2021-06-02_10h19.19.306,judgeSpeechMusic_20210519_logNormShiftAmp_mXs,2020.1.2,MacIntel,60,,,,,,,,,,,,,,2,6.4294,,0,0,12,12,31,1,stimuli/stim_20210519_power2amp/equal_lnn_AM1Hz_s45_35.m4a,,,
,,,,,,,,,,,,41054,2021-06-02_10h19.19.306,judgeSpeechMusic_20210519_logNormShiftAmp_mXs,2020.1.2,MacIntel,60,,,,,,,,,,,,,,2,6.6795,,0,0,13,13,59,1,stimuli/stim_20210519_power2amp/equal_lnn_AM2.5Hz_s15_48.m4a,,,
,,,,,,,,,,,,41054,2021-06-02_10h19.19.306,judgeSpeechMusic_20210519_logNormShiftAmp_mXs,2020.1.2,MacIntel,60,,,,,,,,,,,,,,2,6.7297,,0,0,14,14,28,1,stimuli/stim_20210519_power2amp/equal_lnn_AM1Hz_s35_41.m4a,,,
,,,,,,,,,,,,41054,2021-06-02_10h19.19.306,judgeSpeechMusic_20210519_logNormShiftAmp_mXs,2020.1.2,MacIntel,60,,,,,,,,,,,,,,2,6.2287,,0,0,15,15,63,1,stimuli/stim_20210519_power2amp/equal_lnn_AM2.5Hz_s25_14.m4a,,,
,,,,,,,,,,,,41054,2021-06-02_10h19.19.306,judgeSpeechMusic_20210519_logNormShiftAmp_mXs,2020.1.2,MacIntel,60,,,,,,,,,,,,,,2,6.2635,,0,0,16,16,70,1,stimuli/stim_20210519_power2amp/equal_lnn_AM2.5Hz_s35_40.m4a,,,
,,,,,,,,,,,,41054,2021-06-02_10h19.19.306,judgeSpeechMusic_20210519_logNormShiftAmp_mXs,2020.1.2,MacIntel,60,,,,,,,,,,,,,,2,7.4803,,0,0,17,17,92,1,stimuli/stim_20210519_power2amp/equal_lnn_AM2.5Hz_s55_4.m4a,,,
,,,,,,,,,,,,41054,2021-06-02_10h19.19.306,judgeSpeechMusic_20210519_logNormShiftAmp_mXs,2020.1.2,MacIntel,60,,,,,,,,,,,,,,2,6.0458,,0,0,18,18,68,1,stimuli/stim_20210519_power2amp/equal_lnn_AM2.5Hz_s25_10.m4a,,,
,,,,,,,,,,,,41054,2021-06-02_10h19.19.306,judgeSpeechMusic_20210519_logNormShiftAmp_mXs,2020.1.2,MacIntel,60,,,,,,,,,,,,,,1,5.7637,,0,0,19,19,90,1,stimuli/stim_20210519_power2amp/equal_lnn_AM2.5Hz_s55_6.m4a,,,
,,,,,,,,,,,,41054,2021-06-02_10h19.19.306,judgeSpeechMusic_20210519_logNormShiftAmp_mXs,2020.1.2,MacIntel,60,,,,,,,,,,,,,,1,5.847,,0,0,20,20,143,1,stimuli/stim_20210519_power2amp/equal_lnn_AM4Hz_s55_42.m4a,,,
,,,,,,,,,,,,41054,2021-06-02_10h19.19.306,judgeSpeechMusic_20210519_logNormShiftAmp_mXs,2020.1.2,MacIntel,60,,,,,,,,,,,,,,2,6.5789,,0,0,21,21,19,1,stimuli/stim_20210519_power2amp/equal_lnn_AM1Hz_s25_1.m4a,,,
,,,,,,,,,,,,41054,2021-06-02_10h19.19.306,judgeSpeechMusic_20210519_logNormShiftAmp_mXs,2020.1.2,MacIntel,60,,,,,,,,,,,,,,1,5.9976,,0,0,22,22,50,1,stimuli/stim_20210519_power2amp/equal_lnn_AM2.5Hz_s15_50.m4a,,,
,,,,,,,,,,,,41054,2021-06-02_10h19.19.306,judgeSpeechMusic_20210519_logNormShiftAmp_mXs,2020.1.2,MacIntel,60,,,,,,,,,,,,,,2,6.547,,0,0,23,23,104,1,stimuli/stim_20210519_power2amp/equal_lnn_AM4Hz_s15_14.m4a,,,
,,,,,,,,,,,,41054,2021-06-02_10h19.19.306,judgeSpeechMusic_20210519_logNormShiftAmp_mXs,2020.1.2,MacIntel,60,,,,,,,,,,,,,,2,6.8801,,0,0,24,24,101,1,stimuli/stim_20210519_power2amp/equal_lnn_AM4Hz_s15_36.m4a,,,
,,,,,,,,,,,,41054,2021-06-02_10h19.19.306,judgeSpeechMusic_20210519_logNormShiftAmp_mXs,2020.1.2,MacIntel,60,,,,,,,,,,,,,,2,6.697,,0,0,25,25,96,1,stimuli/stim_20210519_power2amp/equal_lnn_AM2.5Hz_s55_46.m4a,,,
,,,,,,,,,,,,41054,2021-06-02_10h19.19.306,judgeSpeechMusic_20210519_logNormShiftAmp_mXs,2020.1.2,MacIntel,60,,,,,,,,,,,,,,1,8.3967,,0,0,26,26,103,1,stimuli/stim_20210519_power2amp/equal_lnn_AM4Hz_s15_33.m4a,,,
,,,,,,,,,,,,41054,2021-06-02_10h19.19.306,judgeSpeechMusic_20210519_logNormShiftAmp_mXs,2020.1.2,MacIntel,60,,,,,,,,,,,,,,2,5.7135,,0,0,27,27,93,1,stimuli/stim_20210519_power2amp/equal_lnn_AM2.5Hz_s55_45.m4a,,,
,,,,,,,,,,,,41054,2021-06-02_10h19.19.306,judgeSpeechMusic_20210519_logNormShiftAmp_mXs,2020.1.2,MacIntel,60,,,,,,,,,,,,,,2,6.6799,,0,0,28,28,60,1,stimuli/stim_20210519_power2amp/equal_lnn_AM2.5Hz_s25_16.m4a,,,
,,,,,,,,,,,,41054,2021-06-02_10h19.19.306,judgeSpeechMusic_20210519_logNormShiftAmp_mXs,2020.1.2,MacIntel,60,,,,,,,,,,,,,,2,6.0121,,0,0,29,29,140,1,stimuli/stim_20210519_power2amp/equal_lnn_AM4Hz_s55_30.m4a,,,
,,,,,,,,,,,,41054,2021-06-02_10h19.19.306,judgeSpeechMusic_20210519_logNormShiftAmp_mXs,2020.1.2,MacIntel,60,,,,,,,,,,,,,,1,8.2134,,0,0,30,30,128,1,stimuli/stim_20210519_power2amp/equal_lnn_AM4Hz_s35_40.m4a,,,
,,,,,,,,,,,,41054,2021-06-02_10h19.19.306,judgeSpeechMusic_20210519_logNormShiftAmp_mXs,2020.1.2,MacIntel,60,,,,,,,,,,,,,,2,6.7292,,0,0,31,31,112,1,stimuli/stim_20210519_power2amp/equal_lnn_AM4Hz_s25_11.m4a,,,
,,,,,,,,,,,,41054,2021-06-02_10h19.19.306,judgeSpeechMusic_20210519_logNormShiftAmp_mXs,2020.1.2,MacIntel,60,,,,,,,,,,,,,,1,5.6123,,0,0,32,32,135,1,stimuli/stim_20210519_power2amp/equal_lnn_AM4Hz_s45_25.m4a,,,
,,,,,,,,,,,,41054,2021-06-02_10h19.19.306,judgeSpeechMusic_20210519_logNormShiftAmp_mXs,2020.1.2,MacIntel,60,,,,,,,,,,,,,,1,5.6128,,0,0,33,33,127,1,stimuli/stim_20210519_power2amp/equal_lnn_AM4Hz_s35_47.m4a,,,
,,,,,,,,,,,,41054,2021-06-02_10h19.19.306,judgeSpeechMusic_20210519_logNormShiftAmp_mXs,2020.1.2,MacIntel,60,,,,,,,,,,,,,,1,6.4295,,0,0,34,34,61,1,stimuli/stim_20210519_power2amp/equal_lnn_AM2.5Hz_s25_41.m4a,,,
,,,,,,,,,,,,41054,2021-06-02_10h19.19.306,judgeSpeechMusic_20210519_logNormShiftAmp_mXs,2020.1.2,MacIntel,60,,,,,,,,,,,,,,2,5.7138,,0,0,35,35,51,1,stimuli/stim_20210519_power2amp/equal_lnn_AM2.5Hz_s15_5.m4a,,,
,,,,,,,,,,,,41054,2021-06-02_10h19.19.306,judgeSpeechMusic_20210519_logNormShiftAmp_mXs,2020.1.2,MacIntel,60,,,,,,,,,,,,,,2,5.7467,,0,0,36,36,110,1,stimuli/stim_20210519_power2amp/equal_lnn_AM4Hz_s25_25.m4a,,,
,,,,,,,,,,,,41054,2021-06-02_10h19.19.306,judgeSpeechMusic_20210519_logNormShiftAmp_mXs,2020.1.2,MacIntel,60,,,,,,,,,,,,,,1,6.347,,0,0,37,37,12,1,stimuli/stim_20210519_power2amp/equal_lnn_AM1Hz_s25_21.m4a,,,
,,,,,,,,,,,,41054,2021-06-02_10h19.19.306,judgeSpeechMusic_20210519_logNormShiftAmp_mXs,2020.1.2,MacIntel,60,,,,,,,,,,,,,,1,6.2305,,0,0,38,38,65,1,stimuli/stim_20210519_power2amp/equal_lnn_AM2.5Hz_s25_7.m4a,,,
,,,,,,,,,,,,41054,2021-06-02_10h19.19.306,judgeSpeechMusic_20210519_logNormShiftAmp_mXs,2020.1.2,MacIntel,60,,,,,,,,,,,,,,2,5.9299,,0,0,39,39,40,1,stimuli/stim_20210519_power2amp/equal_lnn_AM1Hz_s55_40.m4a,,,
,,,,,,,,,,,,41054,2021-06-02_10h19.19.306,judgeSpeechMusic_20210519_logNormShiftAmp_mXs,2020.1.2,MacIntel,60,,,,,,,,,,,,,,2,8.5462,3,1,0,40,40,83,1,stimuli/stim_20210519_power2amp/equal_lnn_AM2.5Hz_s45_47.m4a,2.2641,,
,,,,,,,,,,,,41054,2021-06-02_10h19.19.306,judgeSpeechMusic_20210519_logNormShiftAmp_mXs,2020.1.2,MacIntel,60,,,,,,,,,,,,,,2,7.3797,,0,0,41,41,74,1,stimuli/stim_20210519_power2amp/equal_lnn_AM2.5Hz_s35_36.m4a,,,
,,,,,,,,,,,,41054,2021-06-02_10h19.19.306,judgeSpeechMusic_20210519_logNormShiftAmp_mXs,2020.1.2,MacIntel,60,,,,,,,,,,,,,,1,8.3142,,0,0,42,42,80,1,stimuli/stim_20210519_power2amp/equal_lnn_AM2.5Hz_s45_48.m4a,,,
,,,,,,,,,,,,41054,2021-06-02_10h19.19.306,judgeSpeechMusic_20210519_logNormShiftAmp_mXs,2020.1.2,MacIntel,60,,,,,,,,,,,,,,1,5.6946,,0,0,43,43,133,1,stimuli/stim_20210519_power2amp/equal_lnn_AM4Hz_s45_19.m4a,,,
,,,,,,,,,,,,41054,2021-06-02_10h19.19.306,judgeSpeechMusic_20210519_logNormShiftAmp_mXs,2020.1.2,MacIntel,60,,,,,,,,,,,,,,1,6.3796,,0,0,44,44,91,1,stimuli/stim_20210519_power2amp/equal_lnn_AM2.5Hz_s55_49.m4a,,,
,,,,,,,,,,,,41054,2021-06-02_10h19.19.306,judgeSpeechMusic_20210519_logNormShiftAmp_mXs,2020.1.2,MacIntel,60,,,,,,,,,,,,,,1,6.5129,,0,0,45,45,121,1,stimuli/stim_20210519_power2amp/equal_lnn_AM4Hz_s35_38.m4a,,,
,,,,,,,,,,,,41054,2021-06-02_10h19.19.306,judgeSpeechMusic_20210519_logNormShiftAmp_mXs,2020.1.2,MacIntel,60,,,,,,,,,,,,,,2,7.7964,,0,0,46,46,120,1,stimuli/stim_20210519_power2amp/equal_lnn_AM4Hz_s35_16.m4a,,,
,,,,,,,,,,,,41054,2021-06-02_10h19.19.306,judgeSpeechMusic_20210519_logNormShiftAmp_mXs,2020.1.2,MacIntel,60,,,,,,,,,,,,,,2,7.2639,,0,0,47,47,58,1,stimuli/stim_20210519_power2amp/equal_lnn_AM2.5Hz_s15_20.m4a,,,
,,,,,,,,,,,,41054,2021-06-02_10h19.19.306,judgeSpeechMusic_20210519_logNormShiftAmp_mXs,2020.1.2,MacIntel,60,,,,,,,,,,,,,,1,6.4807,,0,0,48,48,98,1,stimuli/stim_20210519_power2amp/equal_lnn_AM2.5Hz_s55_34.m4a,,,
,,,,,,,,,,,,41054,2021-06-02_10h19.19.306,judgeSpeechMusic_20210519_logNormShiftAmp_mXs,2020.1.2,MacIntel,60,,,,,,,,,,,,,,2,5.9136,,0,0,49,49,6,1,stimuli/stim_20210519_power2amp/equal_lnn_AM1Hz_s15_3.m4a,,,
,,,,,,,,,,,,41054,2021-06-02_10h19.19.306,judgeSpeechMusic_20210519_logNormShiftAmp_mXs,2020.1.2,MacIntel,60,,,,,,,,,,,,,,2,6.6312,,0,0,50,50,137,1,stimuli/stim_20210519_power2amp/equal_lnn_AM4Hz_s45_42.m4a,,,
,,,,,,,,,,,,41054,2021-06-02_10h19.19.306,judgeSpeechMusic_20210519_logNormShiftAmp_mXs,2020.1.2,MacIntel,60,,,,,,,,,,,,,,1,6.6134,,0,0,51,51,13,1,stimuli/stim_20210519_power2amp/equal_lnn_AM1Hz_s25_9.m4a,,,
,,,,,,,,,,,,41054,2021-06-02_10h19.19.306,judgeSpeechMusic_20210519_logNormShiftAmp_mXs,2020.1.2,MacIntel,60,,,,,,,,,,,,,,1,6.213,,0,0,52,52,129,1,stimuli/stim_20210519_power2amp/equal_lnn_AM4Hz_s35_36.m4a,,,
,,,,,,,,,,,,41054,2021-06-02_10h19.19.306,judgeSpeechMusic_20210519_logNormShiftAmp_mXs,2020.1.2,MacIntel,60,,,,,,,,,,,,,,2,5.8623,,0,0,53,53,147,1,stimuli/stim_20210519_power2amp/equal_lnn_AM4Hz_s55_31.m4a,,,
,,,,,,,,,,,,41054,2021-06-02_10h19.19.306,judgeSpeechMusic_20210519_logNormShiftAmp_mXs,2020.1.2,MacIntel,60,,,,,,,,,,,,,,1,7.3797,,0,0,54,54,25,1,stimuli/stim_20210519_power2amp/equal_lnn_AM1Hz_s35_20.m4a,,,
,,,,,,,,,,,,41054,2021-06-02_10h19.19.306,judgeSpeechMusic_20210519_logNormShiftAmp_mXs,2020.1.2,MacIntel,60,,,,,,,,,,,,,,2,7.8279,,0,0,55,55,37,1,stimuli/stim_20210519_power2amp/equal_lnn_AM1Hz_s45_14.m4a,,,
,,,,,,,,,,,,41054,2021-06-02_10h19.19.306,judgeSpeechMusic_20210519_logNormShiftAmp_mXs,2020.1.2,MacIntel,60,,,,,,,,,,,,,,2,6.4299,,0,0,56,56,75,1,stimuli/stim_20210519_power2amp/equal_lnn_AM2.5Hz_s35_17.m4a,,,
,,,,,,,,,,,,41054,2021-06-02_10h19.19.306,judgeSpeechMusic_20210519_logNormShiftAmp_mXs,2020.1.2,MacIntel,60,,,,,,,,,,,,,,2,6.3957,,0,0,57,57,125,1,stimuli/stim_20210519_power2amp/equal_lnn_AM4Hz_s35_41.m4a,,,
,,,,,,,,,,,,41054,2021-06-02_10h19.19.306,judgeSpeechMusic_20210519_logNormShiftAmp_mXs,2020.1.2,MacIntel,60,,,,,,,,,,,,,,2,6.7791,,0,0,58,58,141,1,stimuli/stim_20210519_power2amp/equal_lnn_AM4Hz_s55_13.m4a,,,
,,,,,,,,,,,,41054,2021-06-02_10h19.19.306,judgeSpeechMusic_20210519_logNormShiftAmp_mXs,2020.1.2,MacIntel,60,,,,,,,,,,,,,,2,12.6474,,0,0,59,59,64,1,stimuli/stim_20210519_power2amp/equal_lnn_AM2.5Hz_s25_19.m4a,,,
,,,,,,,,,,,,41054,2021-06-02_10h19.19.306,judgeSpeechMusic_20210519_logNormShiftAmp_mXs,2020.1.2,MacIntel,60,,,,,,,,,,,,,,1,5.9637,,0,0,60,60,145,1,stimuli/stim_20210519_power2amp/equal_lnn_AM4Hz_s55_19.m4a,,,
,,,,,,,,,,,,41054,2021-06-02_10h19.19.306,judgeSpeechMusic_20210519_logNormShiftAmp_mXs,2020.1.2,MacIntel,60,,,,,,,,,,,,,,2,13.1135,,0,0,61,61,34,1,stimuli/stim_20210519_power2amp/equal_lnn_AM1Hz_s45_13.m4a,,,
,,,,,,,,,,,,41054,2021-06-02_10h19.19.306,judgeSpeechMusic_20210519_logNormShiftAmp_mXs,2020.1.2,MacIntel,60,,,,,,,,,,,,,,1,5.9294,,0,0,62,62,26,1,stimuli/stim_20210519_power2amp/equal_lnn_AM1Hz_s35_7.m4a,,,
,,,,,,,,,,,,41054,2021-06-02_10h19.19.306,judgeSpeechMusic_20210519_logNormShiftAmp_mXs,2020.1.2,MacIntel,60,,,,,,,,,,,,,,1,5.514,,0,0,63,63,132,1,stimuli/stim_20210519_power2amp/equal_lnn_AM4Hz_s45_40.m4a,,,
,,,,,,,,,,,,41054,2021-06-02_10h19.19.306,judgeSpeechMusic_20210519_logNormShiftAmp_mXs,2020.1.2,MacIntel,60,,,,,,,,,,,,,,2,6.9318,,0,0,64,64,84,1,stimuli/stim_20210519_power2amp/equal_lnn_AM2.5Hz_s45_44.m4a,,,
,,,,,,,,,,,,41054,2021-06-02_10h19.19.306,judgeSpeechMusic_20210519_logNormShiftAmp_mXs,2020.1.2,MacIntel,60,,,,,,,,,,,,,,2,19.2945,3,1,0,65,65,149,1,stimuli/stim_20210519_power2amp/equal_lnn_AM4Hz_s55_34.m4a,1.2166,,
,,,,,,,,,,,,41054,2021-06-02_10h19.19.306,judgeSpeechMusic_20210519_logNormShiftAmp_mXs,2020.1.2,MacIntel,60,,,,,,,,,,,,,,1,6.1949,,0,0,66,66,107,1,stimuli/stim_20210519_power2amp/equal_lnn_AM4Hz_s15_31.m4a,,,
,,,,,,,,,,,,41054,2021-06-02_10h19.19.306,judgeSpeechMusic_20210519_logNormShiftAmp_mXs,2020.1.2,MacIntel,60,,,,,,,,,,,,,,2,9.6131,,0,0,67,67,39,1,stimuli/stim_20210519_power2amp/equal_lnn_AM1Hz_s45_43.m4a,,,
,,,,,,,,,,,,41054,2021-06-02_10h19.19.306,judgeSpeechMusic_20210519_logNormShiftAmp_mXs,2020.1.2,MacIntel,60,,,,,,,,,,,,,,2,7.3629,,0,0,68,68,117,1,stimuli/stim_20210519_power2amp/equal_lnn_AM4Hz_s25_3.m4a,,,
,,,,,,,,,,,,41054,2021-06-02_10h19.19.306,judgeSpeechMusic_20210519_logNormShiftAmp_mXs,2020.1.2,MacIntel,60,,,,,,,,,,,,,,2,11.1961,,0,0,69,69,45,1,stimuli/stim_20210519_power2amp/equal_lnn_AM1Hz_s55_19.m4a,,,
,,,,,,,,,,,,41054,2021-06-02_10h19.19.306,judgeSpeechMusic_20210519_logNormShiftAmp_mXs,2020.1.2,MacIntel,60,,,,,,,,,,,,,,2,33.1133,,0,0,70,70,66,1,stimuli/stim_20210519_power2amp/equal_lnn_AM2.5Hz_s25_26.m4a,,,
,,,,,,,,,,,,41054,2021-06-02_10h19.19.306,judgeSpeechMusic_20210519_logNormShiftAmp_mXs,2020.1.2,MacIntel,60,,,,,,,,,,,,,,2,6.8961,,0,0,71,71,89,1,stimuli/stim_20210519_power2amp/equal_lnn_AM2.5Hz_s45_36.m4a,,,
,,,,,,,,,,,,41054,2021-06-02_10h19.19.306,judgeSpeechMusic_20210519_logNormShiftAmp_mXs,2020.1.2,MacIntel,60,,,,,,,,,,,,,,2,7.763,,0,0,72,72,100,1,stimuli/stim_20210519_power2amp/equal_lnn_AM4Hz_s15_9.m4a,,,
,,,,,,,,,,,,41054,2021-06-02_10h19.19.306,judgeSpeechMusic_20210519_logNormShiftAmp_mXs,2020.1.2,MacIntel,60,,,,,,,,,,,,,,2,14.4301,,0,0,73,73,8,1,stimuli/stim_20210519_power2amp/equal_lnn_AM1Hz_s15_42.m4a,,,
,,,,,,,,,,,,41054,2021-06-02_10h19.19.306,judgeSpeechMusic_20210519_logNormShiftAmp_mXs,2020.1.2,MacIntel,60,,,,,,,,,,,,,,1,19.1301,,0,0,74,74,32,1,stimuli/stim_20210519_power2amp/equal_lnn_AM1Hz_s45_15.m4a,,,
,,,,,,,,,,,,41054,2021-06-02_10h19.19.306,judgeSpeechMusic_20210519_logNormShiftAmp_mXs,2020.1.2,MacIntel,60,,,,,,,,,,,,,,2,6.0473,,0,0,75,75,69,1,stimuli/stim_20210519_power2amp/equal_lnn_AM2.5Hz_s25_27.m4a,,,
,,,,,,,,,,,,41054,2021-06-02_10h19.19.306,judgeSpeechMusic_20210519_logNormShiftAmp_mXs,2020.1.2,MacIntel,60,,,,,,,,,,,,,,2,5.8967,,0,0,76,76,124,1,stimuli/stim_20210519_power2amp/equal_lnn_AM4Hz_s35_17.m4a,,,
,,,,,,,,,,,,41054,2021-06-02_10h19.19.306,judgeSpeechMusic_20210519_logNormShiftAmp_mXs,2020.1.2,MacIntel,60,,,,,,,,,,,,,,2,7.1133,,0,0,77,77,15,1,stimuli/stim_20210519_power2amp/equal_lnn_AM1Hz_s25_22.m4a,,,
,,,,,,,,,,,,41054,2021-06-02_10h19.19.306,judgeSpeechMusic_20210519_logNormShiftAmp_mXs,2020.1.2,MacIntel,60,,,,,,,,,,,,,,2,7.0963,,0,0,78,78,76,1,stimuli/stim_20210519_power2amp/equal_lnn_AM2.5Hz_s35_15.m4a,,,
,,,,,,,,,,,,41054,2021-06-02_10h19.19.306,judgeSpeechMusic_20210519_logNormShiftAmp_mXs,2020.1.2,MacIntel,60,,,,,,,,,,,,,,2,5.9629,,0,0,79,79,47,1,stimuli/stim_20210519_power2amp/equal_lnn_AM1Hz_s55_23.m4a,,,
,,,,,,,,,,,,41054,2021-06-02_10h19.19.306,judgeSpeechMusic_20210519_logNormShiftAmp_mXs,2020.1.2,MacIntel,60,,,,,,,,,,,,,,2,6.4801,,0,0,80,80,44,1,stimuli/stim_20210519_power2amp/equal_lnn_AM1Hz_s55_6.m4a,,,
,,,,,,,,,,,,41054,2021-06-02_10h19.19.306,judgeSpeechMusic_20210519_logNormShiftAmp_mXs,2020.1.2,MacIntel,60,,,,,,,,,,,,,,1,6.5452,,0,0,81,81,55,1,stimuli/stim_20210519_power2amp/equal_lnn_AM2.5Hz_s15_43.m4a,,,
,,,,,,,,,,,,41054,2021-06-02_10h19.19.306,judgeSpeechMusic_20210519_logNormShiftAmp_mXs,2020.1.2,MacIntel,60,,,,,,,,,,,,,,2,7.7486,,0,0,82,82,78,1,stimuli/stim_20210519_power2amp/equal_lnn_AM2.5Hz_s35_49.m4a,,,
,,,,,,,,,,,,41054,2021-06-02_10h19.19.306,judgeSpeechMusic_20210519_logNormShiftAmp_mXs,2020.1.2,MacIntel,60,,,,,,,,,,,,,,2,7.245,,0,0,83,83,111,1,stimuli/stim_20210519_power2amp/equal_lnn_AM4Hz_s25_45.m4a,,,
,,,,,,,,,,,,41054,2021-06-02_10h19.19.306,judgeSpeechMusic_20210519_logNormShiftAmp_mXs,2020.1.2,MacIntel,60,,,,,,,,,,,,,,2,13.4806,,0,0,84,84,118,1,stimuli/stim_20210519_power2amp/equal_lnn_AM4Hz_s25_14.m4a,,,
,,,,,,,,,,,,41054,2021-06-02_10h19.19.306,judgeSpeechMusic_20210519_logNormShiftAmp_mXs,2020.1.2,MacIntel,60,,,,,,,,,,,,,,1,14.3309,,0,0,85,85,42,1,stimuli/stim_20210519_power2amp/equal_lnn_AM1Hz_s55_43.m4a,,,
,,,,,,,,,,,,41054,2021-06-02_10h19.19.306,judgeSpeechMusic_20210519_logNormShiftAmp_mXs,2020.1.2,MacIntel,60,,,,,,,,,,,,,,1,5.6626,,0,0,86,86,130,1,stimuli/stim_20210519_power2amp/equal_lnn_AM4Hz_s45_39.m4a,,,
,,,,,,,,,,,,41054,2021-06-02_10h19.19.306,judgeSpeechMusic_20210519_logNormShiftAmp_mXs,2020.1.2,MacIntel,60,,,,,,,,,,,,,,2,6.4474,,0,0,87,87,4,1,stimuli/stim_20210519_power2amp/equal_lnn_AM1Hz_s15_31.m4a,,,
,,,,,,,,,,,,41054,2021-06-02_10h19.19.306,judgeSpeechMusic_20210519_logNormShiftAmp_mXs,2020.1.2,MacIntel,60,,,,,,,,,,,,,,2,6.0803,,0,0,88,88,116,1,stimuli/stim_20210519_power2amp/equal_lnn_AM4Hz_s25_40.m4a,,,
,,,,,,,,,,,,41054,2021-06-02_10h19.19.306,judgeSpeechMusic_20210519_logNormShiftAmp_mXs,2020.1.2,MacIntel,60,,,,,,,,,,,,,,1,5.5123,,0,0,89,89,134,1,stimuli/stim_20210519_power2amp/equal_lnn_AM4Hz_s45_30.m4a,,,
,,,,,,,,,,,,41054,2021-06-02_10h19.19.306,judgeSpeechMusic_20210519_logNormShiftAmp_mXs,2020.1.2,MacIntel,60,,,,,,,,,,,,,,2,7.2976,4,1,0,90,90,131,1,stimuli/stim_20210519_power2amp/equal_lnn_AM4Hz_s45_5.m4a,1.3483,,
,,,,,,,,,,,,41054,2021-06-02_10h19.19.306,judgeSpeechMusic_20210519_logNormShiftAmp_mXs,2020.1.2,MacIntel,60,,,,,,,,,,,,,,2,9.1448,,0,0,91,91,79,1,stimuli/stim_20210519_power2amp/equal_lnn_AM2.5Hz_s35_31.m4a,,,
,,,,,,,,,,,,41054,2021-06-02_10h19.19.306,judgeSpeechMusic_20210519_logNormShiftAmp_mXs,2020.1.2,MacIntel,60,,,,,,,,,,,,,,2,6.4922,,0,0,92,92,35,1,stimuli/stim_20210519_power2amp/equal_lnn_AM1Hz_s45_42.m4a,,,
,,,,,,,,,,,,41054,2021-06-02_10h19.19.306,judgeSpeechMusic_20210519_logNormShiftAmp_mXs,2020.1.2,MacIntel,60,,,,,,,,,,,,,,1,5.4342,,0,0,93,93,56,1,stimuli/stim_20210519_power2amp/equal_lnn_AM2.5Hz_s15_12.m4a,,,
,,,,,,,,,,,,41054,2021-06-02_10h19.19.306,judgeSpeechMusic_20210519_logNormShiftAmp_mXs,2020.1.2,MacIntel,60,,,,,,,,,,,,,,2,9.6959,,0,0,94,94,97,1,stimuli/stim_20210519_power2amp/equal_lnn_AM2.5Hz_s55_33.m4a,,,
,,,,,,,,,,,,41054,2021-06-02_10h19.19.306,judgeSpeechMusic_20210519_logNormShiftAmp_mXs,2020.1.2,MacIntel,60,,,,,,,,,,,,,,1,28.3801,,0,0,95,95,14,1,stimuli/stim_20210519_power2amp/equal_lnn_AM1Hz_s25_17.m4a,,,
,,,,,,,,,,,,41054,2021-06-02_10h19.19.306,judgeSpeechMusic_20210519_logNormShiftAmp_mXs,2020.1.2,MacIntel,60,,,,,,,,,,,,,,2,18.0473,,0,0,96,96,46,1,stimuli/stim_20210519_power2amp/equal_lnn_AM1Hz_s55_45.m4a,,,
,,,,,,,,,,,,41054,2021-06-02_10h19.19.306,judgeSpeechMusic_20210519_logNormShiftAmp_mXs,2020.1.2,MacIntel,60,,,,,,,,,,,,,,2,7.4793,,0,0,97,97,49,1,stimuli/stim_20210519_power2amp/equal_lnn_AM1Hz_s55_39.m4a,,,
,,,,,,,,,,,,41054,2021-06-02_10h19.19.306,judgeSpeechMusic_20210519_logNormShiftAmp_mXs,2020.1.2,MacIntel,60,,,,,,,,,,,,,,2,24.1467,,0,0,98,98,139,1,stimuli/stim_20210519_power2amp/equal_lnn_AM4Hz_s45_27.m4a,,,
,,,,,,,,,,,,41054,2021-06-02_10h19.19.306,judgeSpeechMusic_20210519_logNormShiftAmp_mXs,2020.1.2,MacIntel,60,,,,,,,,,,,,,,2,6.3634,,0,0,99,99,119,1,stimuli/stim_20210519_power2amp/equal_lnn_AM4Hz_s25_23.m4a,,,
,,,,,,,,,,,,41054,2021-06-02_10h19.19.306,judgeSpeechMusic_20210519_logNormShiftAmp_mXs,2020.1.2,MacIntel,60,,,,,,,,,,,,,,2,11.2467,,0,0,100,100,148,1,stimuli/stim_20210519_power2amp/equal_lnn_AM4Hz_s55_25.m4a,,,
,,,,,,,,,,,,41054,2021-06-02_10h19.19.306,judgeSpeechMusic_20210519_logNormShiftAmp_mXs,2020.1.2,MacIntel,60,,,,,,,,,,,,,,2,6.9122,,0,0,101,101,81,1,stimuli/stim_20210519_power2amp/equal_lnn_AM2.5Hz_s45_32.m4a,,,
,,,,,,,,,,,,41054,2021-06-02_10h19.19.306,judgeSpeechMusic_20210519_logNormShiftAmp_mXs,2020.1.2,MacIntel,60,,,,,,,,,,,,,,2,6.5953,,0,0,102,102,7,1,stimuli/stim_20210519_power2amp/equal_lnn_AM1Hz_s15_10.m4a,,,
,,,,,,,,,,,,41054,2021-06-02_10h19.19.306,judgeSpeechMusic_20210519_logNormShiftAmp_mXs,2020.1.2,MacIntel,60,,,,,,,,,,,,,,2,7.6465,,0,0,103,103,67,1,stimuli/stim_20210519_power2amp/equal_lnn_AM2.5Hz_s25_15.m4a,,,
,,,,,,,,,,,,41054,2021-06-02_10h19.19.306,judgeSpeechMusic_20210519_logNormShiftAmp_mXs,2020.1.2,MacIntel,60,,,,,,,,,,,,,,2,6.8464,,0,0,104,104,77,1,stimuli/stim_20210519_power2amp/equal_lnn_AM2.5Hz_s35_46.m4a,,,
,,,,,,,,,,,,41054,2021-06-02_10h19.19.306,judgeSpeechMusic_20210519_logNormShiftAmp_mXs,2020.1.2,MacIntel,60,,,,,,,,,,,,,,2,11.2795,,0,0,105,105,114,1,stimuli/stim_20210519_power2amp/equal_lnn_AM4Hz_s25_17.m4a,,,
,,,,,,,,,,,,41054,2021-06-02_10h19.19.306,judgeSpeechMusic_20210519_logNormShiftAmp_mXs,2020.1.2,MacIntel,60,,,,,,,,,,,,,,2,6.9631,,0,0,106,106,30,1,stimuli/stim_20210519_power2amp/equal_lnn_AM1Hz_s45_7.m4a,,,
,,,,,,,,,,,,41054,2021-06-02_10h19.19.306,judgeSpeechMusic_20210519_logNormShiftAmp_mXs,2020.1.2,MacIntel,60,,,,,,,,,,,,,,2,7.2793,,0,0,107,107,94,1,stimuli/stim_20210519_power2amp/equal_lnn_AM2.5Hz_s55_42.m4a,,,
,,,,,,,,,,,,41054,2021-06-02_10h19.19.306,judgeSpeechMusic_20210519_logNormShiftAmp_mXs,2020.1.2,MacIntel,60,,,,,,,,,,,,,,2,8.3963,,0,0,108,108,24,1,stimuli/stim_20210519_power2amp/equal_lnn_AM1Hz_s35_12.m4a,,,
,,,,,,,,,,,,41054,2021-06-02_10h19.19.306,judgeSpeechMusic_20210519_logNormShiftAmp_mXs,2020.1.2,MacIntel,60,,,,,,,,,,,,,,2,7.58,,0,0,109,109,88,1,stimuli/stim_20210519_power2amp/equal_lnn_AM2.5Hz_s45_4.m4a,,,
,,,,,,,,,,,,41054,2021-06-02_10h19.19.306,judgeSpeechMusic_20210519_logNormShiftAmp_mXs,2020.1.2,MacIntel,60,,,,,,,,,,,,,,2,6.7794,,0,0,110,110,1,1,stimuli/stim_20210519_power2amp/equal_lnn_AM1Hz_s15_33.m4a,,,
,,,,,,,,,,,,41054,2021-06-02_10h19.19.306,judgeSpeechMusic_20210519_logNormShiftAmp_mXs,2020.1.2,MacIntel,60,,,,,,,,,,,,,,2,7.2154,,0,0,111,111,11,1,stimuli/stim_20210519_power2amp/equal_lnn_AM1Hz_s25_45.m4a,,,
,,,,,,,,,,,,41054,2021-06-02_10h19.19.306,judgeSpeechMusic_20210519_logNormShiftAmp_mXs,2020.1.2,MacIntel,60,,,,,,,,,,,,,,2,7.0444,,0,0,112,112,0,1,stimuli/stim_20210519_power2amp/equal_lnn_AM1Hz_s15_2.m4a,,,
,,,,,,,,,,,,41054,2021-06-02_10h19.19.306,judgeSpeechMusic_20210519_logNormShiftAmp_mXs,2020.1.2,MacIntel,60,,,,,,,,,,,,,,2,7.0473,,0,0,113,113,73,1,stimuli/stim_20210519_power2amp/equal_lnn_AM2.5Hz_s35_1.m4a,,,
,,,,,,,,,,,,41054,2021-06-02_10h19.19.306,judgeSpeechMusic_20210519_logNormShiftAmp_mXs,2020.1.2,MacIntel,60,,,,,,,,,,,,,,2,7.2466,1,0,0,114,114,27,1,stimuli/stim_20210519_power2amp/equal_lnn_AM1Hz_s35_34.m4a,9.6318,,
,,,,,,,,,,,,41054,2021-06-02_10h19.19.306,judgeSpeechMusic_20210519_logNormShiftAmp_mXs,2020.1.2,MacIntel,60,,,,,,,,,,,,,,2,6.9121,,0,0,115,115,5,1,stimuli/stim_20210519_power2amp/equal_lnn_AM1Hz_s15_14.m4a,,,
,,,,,,,,,,,,41054,2021-06-02_10h19.19.306,judgeSpeechMusic_20210519_logNormShiftAmp_mXs,2020.1.2,MacIntel,60,,,,,,,,,,,,,,2,7.1969,,0,0,116,116,48,1,stimuli/stim_20210519_power2amp/equal_lnn_AM1Hz_s55_28.m4a,,,
,,,,,,,,,,,,41054,2021-06-02_10h19.19.306,judgeSpeechMusic_20210519_logNormShiftAmp_mXs,2020.1.2,MacIntel,60,,,,,,,,,,,,,,2,6.4135,,0,0,117,117,138,1,stimuli/stim_20210519_power2amp/equal_lnn_AM4Hz_s45_16.m4a,,,
,,,,,,,,,,,,41054,2021-06-02_10h19.19.306,judgeSpeechMusic_20210519_logNormShiftAmp_mXs,2020.1.2,MacIntel,60,,,,,,,,,,,,,,2,60.1144,,0,0,118,118,52,1,stimuli/stim_20210519_power2amp/equal_lnn_AM2.5Hz_s15_29.m4a,,,
,,,,,,,,,,,,41054,2021-06-02_10h19.19.306,judgeSpeechMusic_20210519_logNormShiftAmp_mXs,2020.1.2,MacIntel,60,,,,,,,,,,,,,,2,6.8294,,0,0,119,119,142,1,stimuli/stim_20210519_power2amp/equal_lnn_AM4Hz_s55_29.m4a,,,
,,,,,,,,,,,,41054,2021-06-02_10h19.19.306,judgeSpeechMusic_20210519_logNormShiftAmp_mXs,2020.1.2,MacIntel,60,,,,,,,,,,,,,,2,7.997,,0,0,120,120,95,1,stimuli/stim_20210519_power2amp/equal_lnn_AM2.5Hz_s55_43.m4a,,,
,,,,,,,,,,,,41054,2021-06-02_10h19.19.306,judgeSpeechMusic_20210519_logNormShiftAmp_mXs,2020.1.2,MacIntel,60,,,,,,,,,,,,,,2,7.247,,0,0,121,121,72,1,stimuli/stim_20210519_power2amp/equal_lnn_AM2.5Hz_s35_8.m4a,,,
,,,,,,,,,,,,41054,2021-06-02_10h19.19.306,judgeSpeechMusic_20210519_logNormShiftAmp_mXs,2020.1.2,MacIntel,60,,,,,,,,,,,,,,2,15.4636,,0,0,122,122,146,1,stimuli/stim_20210519_power2amp/equal_lnn_AM4Hz_s55_6.m4a,,,
,,,,,,,,,,,,41054,2021-06-02_10h19.19.306,judgeSpeechMusic_20210519_logNormShiftAmp_mXs,2020.1.2,MacIntel,60,,,,,,,,,,,,,,2,6.8138,,0,0,123,123,21,1,stimuli/stim_20210519_power2amp/equal_lnn_AM1Hz_s35_27.m4a,,,
,,,,,,,,,,,,41054,2021-06-02_10h19.19.306,judgeSpeechMusic_20210519_logNormShiftAmp_mXs,2020.1.2,MacIntel,60,,,,,,,,,,,,,,2,6.5645,,0,0,124,124,20,1,stimuli/stim_20210519_power2amp/equal_lnn_AM1Hz_s35_11.m4a,,,
,,,,,,,,,,,,41054,2021-06-02_10h19.19.306,judgeSpeechMusic_20210519_logNormShiftAmp_mXs,2020.1.2,MacIntel,60,,,,,,,,,,,,,,2,8.9959,,0,0,125,125,54,1,stimuli/stim_20210519_power2amp/equal_lnn_AM2.5Hz_s15_23.m4a,,,
,,,,,,,,,,,,41054,2021-06-02_10h19.19.306,judgeSpeechMusic_20210519_logNormShiftAmp_mXs,2020.1.2,MacIntel,60,,,,,,,,,,,,,,2,7.3475,,0,0,126,126,36,1,stimuli/stim_20210519_power2amp/equal_lnn_AM1Hz_s45_31.m4a,,,
,,,,,,,,,,,,41054,2021-06-02_10h19.19.306,judgeSpeechMusic_20210519_logNormShiftAmp_mXs,2020.1.2,MacIntel,60,,,,,,,,,,,,,,2,6.2805,,0,0,127,127,136,1,stimuli/stim_20210519_power2amp/equal_lnn_AM4Hz_s45_17.m4a,,,
,,,,,,,,,,,,41054,2021-06-02_10h19.19.306,judgeSpeechMusic_20210519_logNormShiftAmp_mXs,2020.1.2,MacIntel,60,,,,,,,,,,,,,,2,6.6119,,0,0,128,128,123,1,stimuli/stim_20210519_power2amp/equal_lnn_AM4Hz_s35_34.m4a,,,
,,,,,,,,,,,,41054,2021-06-02_10h19.19.306,judgeSpeechMusic_20210519_logNormShiftAmp_mXs,2020.1.2,MacIntel,60,,,,,,,,,,,,,,2,9.7141,,0,0,129,129,62,1,stimuli/stim_20210519_power2amp/equal_lnn_AM2.5Hz_s25_29.m4a,,,
,,,,,,,,,,,,41054,2021-06-02_10h19.19.306,judgeSpeechMusic_20210519_logNormShiftAmp_mXs,2020.1.2,MacIntel,60,,,,,,,,,,,,,,2,9.2975,,0,0,130,130,108,1,stimuli/stim_20210519_power2amp/equal_lnn_AM4Hz_s15_35.m4a,,,
,,,,,,,,,,,,41054,2021-06-02_10h19.19.306,judgeSpeechMusic_20210519_logNormShiftAmp_mXs,2020.1.2,MacIntel,60,,,,,,,,,,,,,,2,41.7802,,0,0,131,131,10,1,stimuli/stim_20210519_power2amp/equal_lnn_AM1Hz_s25_42.m4a,,,
,,,,,,,,,,,,41054,2021-06-02_10h19.19.306,judgeSpeechMusic_20210519_logNormShiftAmp_mXs,2020.1.2,MacIntel,60,,,,,,,,,,,,,,2,8.1808,,0,0,132,132,71,1,stimuli/stim_20210519_power2amp/equal_lnn_AM2.5Hz_s35_32.m4a,,,
,,,,,,,,,,,,41054,2021-06-02_10h19.19.306,judgeSpeechMusic_20210519_logNormShiftAmp_mXs,2020.1.2,MacIntel,60,,,,,,,,,,,,,,2,19.347,,0,0,133,133,41,1,stimuli/stim_20210519_power2amp/equal_lnn_AM1Hz_s55_25.m4a,,,
,,,,,,,,,,,,41054,2021-06-02_10h19.19.306,judgeSpeechMusic_20210519_logNormShiftAmp_mXs,2020.1.2,MacIntel,60,,,,,,,,,,,,,,2,7.9627,,0,0,134,134,38,1,stimuli/stim_20210519_power2amp/equal_lnn_AM1Hz_s45_50.m4a,,,
,,,,,,,,,,,,41054,2021-06-02_10h19.19.306,judgeSpeechMusic_20210519_logNormShiftAmp_mXs,2020.1.2,MacIntel,60,,,,,,,,,,,,,,2,17.7816,,0,0,135,135,29,1,stimuli/stim_20210519_power2amp/equal_lnn_AM1Hz_s35_5.m4a,,,
,,,,,,,,,,,,41054,2021-06-02_10h19.19.306,judgeSpeechMusic_20210519_logNormShiftAmp_mXs,2020.1.2,MacIntel,60,,,,,,,,,,,,,,2,8.0792,1,1,0,136,136,126,1,stimuli/stim_20210519_power2amp/equal_lnn_AM4Hz_s35_10.m4a,2.2982,,
,,,,,,,,,,,,41054,2021-06-02_10h19.19.306,judgeSpeechMusic_20210519_logNormShiftAmp_mXs,2020.1.2,MacIntel,60,,,,,,,,,,,,,,2,14.213,,0,0,137,137,57,1,stimuli/stim_20210519_power2amp/equal_lnn_AM2.5Hz_s15_30.m4a,,,
,,,,,,,,,,,,41054,2021-06-02_10h19.19.306,judgeSpeechMusic_20210519_logNormShiftAmp_mXs,2020.1.2,MacIntel,60,,,,,,,,,,,,,,2,6.6135,,0,0,138,138,18,1,stimuli/stim_20210519_power2amp/equal_lnn_AM1Hz_s25_40.m4a,,,
,,,,,,,,,,,,41054,2021-06-02_10h19.19.306,judgeSpeechMusic_20210519_logNormShiftAmp_mXs,2020.1.2,MacIntel,60,,,,,,,,,,,,,,2,7.148,,0,0,139,139,113,1,stimuli/stim_20210519_power2amp/equal_lnn_AM4Hz_s25_38.m4a,,,
,,,,,,,,,,,,41054,2021-06-02_10h19.19.306,judgeSpeechMusic_20210519_logNormShiftAmp_mXs,2020.1.2,MacIntel,60,,,,,,,,,,,,,,2,9.6146,,0,0,140,140,115,1,stimuli/stim_20210519_power2amp/equal_lnn_AM4Hz_s25_33.m4a,,,
,,,,,,,,,,,,41054,2021-06-02_10h19.19.306,judgeSpeechMusic_20210519_logNormShiftAmp_mXs,2020.1.2,MacIntel,60,,,,,,,,,,,,,,2,12.9629,,0,0,141,141,82,1,stimuli/stim_20210519_power2amp/equal_lnn_AM2.5Hz_s45_11.m4a,,,
,,,,,,,,,,,,41054,2021-06-02_10h19.19.306,judgeSpeechMusic_20210519_logNormShiftAmp_mXs,2020.1.2,MacIntel,60,,,,,,,,,,,,,,2,18.7468,,0,0,142,142,2,1,stimuli/stim_20210519_power2amp/equal_lnn_AM1Hz_s15_38.m4a,,,
,,,,,,,,,,,,41054,2021-06-02_10h19.19.306,judgeSpeechMusic_20210519_logNormShiftAmp_mXs,2020.1.2,MacIntel,60,,,,,,,,,,,,,,2,6.7959,,0,0,143,143,33,1,stimuli/stim_20210519_power2amp/equal_lnn_AM1Hz_s45_48.m4a,,,
,,,,,,,,,,,,41054,2021-06-02_10h19.19.306,judgeSpeechMusic_20210519_logNormShiftAmp_mXs,2020.1.2,MacIntel,60,,,,,,,,,,,,,,2,6.9975,,0,0,144,144,86,1,stimuli/stim_20210519_power2amp/equal_lnn_AM2.5Hz_s45_7.m4a,,,
,,,,,,,,,,,,41054,2021-06-02_10h19.19.306,judgeSpeechMusic_20210519_logNormShiftAmp_mXs,2020.1.2,MacIntel,60,,,,,,,,,,,,,,2,6.5978,,0,0,145,145,109,1,stimuli/stim_20210519_power2amp/equal_lnn_AM4Hz_s15_49.m4a,,,
,,,,,,,,,,,,41054,2021-06-02_10h19.19.306,judgeSpeechMusic_20210519_logNormShiftAmp_mXs,2020.1.2,MacIntel,60,,,,,,,,,,,,,,2,6.7449,,0,0,146,146,16,1,stimuli/stim_20210519_power2amp/equal_lnn_AM1Hz_s25_18.m4a,,,
,,,,,,,,,,,,41054,2021-06-02_10h19.19.306,judgeSpeechMusic_20210519_logNormShiftAmp_mXs,2020.1.2,MacIntel,60,,,,,,,,,,,,,,2,9.2309,,0,0,147,147,144,1,stimuli/stim_20210519_power2amp/equal_lnn_AM4Hz_s55_24.m4a,,,
,,,,,,,,,,,,41054,2021-06-02_10h19.19.306,judgeSpeechMusic_20210519_logNormShiftAmp_mXs,2020.1.2,MacIntel,60,,,,,,,,,,,,,,2,5.8299,,0,0,148,148,85,1,stimuli/stim_20210519_power2amp/equal_lnn_AM2.5Hz_s45_17.m4a,,,
,,,,,,,,,,,,41054,2021-06-02_10h19.19.306,judgeSpeechMusic_20210519_logNormShiftAmp_mXs,2020.1.2,MacIntel,60,,,,,,,,,,,,,,2,13.8793,,0,0,149,149,87,1,stimuli/stim_20210519_power2amp/equal_lnn_AM2.5Hz_s45_6.m4a,,,
,,,,,,,,,,,,41054,2021-06-02_10h19.19.306,judgeSpeechMusic_20210519_logNormShiftAmp_mXs,2020.1.2,MacIntel,60,,,,,,,,,,,,,,2,7.1635,,0,1,0,150,107,1,stimuli/stim_20210519_power2amp/equal_lnn_AM4Hz_s15_31.m4a,,,
,,,,,,,,,,,,41054,2021-06-02_10h19.19.306,judgeSpeechMusic_20210519_logNormShiftAmp_mXs,2020.1.2,MacIntel,60,,,,,,,,,,,,,,2,7.364,,0,1,1,151,137,1,stimuli/stim_20210519_power2amp/equal_lnn_AM4Hz_s45_42.m4a,,,
,,,,,,,,,,,,41054,2021-06-02_10h19.19.306,judgeSpeechMusic_20210519_logNormShiftAmp_mXs,2020.1.2,MacIntel,60,,,,,,,,,,,,,,2,7.1297,,0,1,2,152,88,1,stimuli/stim_20210519_power2amp/equal_lnn_AM2.5Hz_s45_4.m4a,,,
,,,,,,,,,,,,41054,2021-06-02_10h19.19.306,judgeSpeechMusic_20210519_logNormShiftAmp_mXs,2020.1.2,MacIntel,60,,,,,,,,,,,,,,2,10.8298,,0,1,3,153,89,1,stimuli/stim_20210519_power2amp/equal_lnn_AM2.5Hz_s45_36.m4a,,,
,,,,,,,,,,,,41054,2021-06-02_10h19.19.306,judgeSpeechMusic_20210519_logNormShiftAmp_mXs,2020.1.2,MacIntel,60,,,,,,,,,,,,,,2,8.8792,,0,1,4,154,134,1,stimuli/stim_20210519_power2amp/equal_lnn_AM4Hz_s45_30.m4a,,,
,,,,,,,,,,,,41054,2021-06-02_10h19.19.306,judgeSpeechMusic_20210519_logNormShiftAmp_mXs,2020.1.2,MacIntel,60,,,,,,,,,,,,,,2,6.263,,0,1,5,155,46,1,stimuli/stim_20210519_power2amp/equal_lnn_AM1Hz_s55_45.m4a,,,
,,,,,,,,,,,,41054,2021-06-02_10h19.19.306,judgeSpeechMusic_20210519_logNormShiftAmp_mXs,2020.1.2,MacIntel,60,,,,,,,,,,,,,,2,6.1141,,0,1,6,156,136,1,stimuli/stim_20210519_power2amp/equal_lnn_AM4Hz_s45_17.m4a,,,
,,,,,,,,,,,,41054,2021-06-02_10h19.19.306,judgeSpeechMusic_20210519_logNormShiftAmp_mXs,2020.1.2,MacIntel,60,,,,,,,,,,,,,,2,6.0132,,0,1,7,157,71,1,stimuli/stim_20210519_power2amp/equal_lnn_AM2.5Hz_s35_32.m4a,,,
,,,,,,,,,,,,41054,2021-06-02_10h19.19.306,judgeSpeechMusic_20210519_logNormShiftAmp_mXs,2020.1.2,MacIntel,60,,,,,,,,,,,,,,2,6.3791,1,0,1,8,158,94,1,stimuli/stim_20210519_power2amp/equal_lnn_AM2.5Hz_s55_42.m4a,2.2302,,
,,,,,,,,,,,,41054,2021-06-02_10h19.19.306,judgeSpeechMusic_20210519_logNormShiftAmp_mXs,2020.1.2,MacIntel,60,,,,,,,,,,,,,,2,7.3466,,0,1,9,159,13,1,stimuli/stim_20210519_power2amp/equal_lnn_AM1Hz_s25_9.m4a,,,
,,,,,,,,,,,,41054,2021-06-02_10h19.19.306,judgeSpeechMusic_20210519_logNormShiftAmp_mXs,2020.1.2,MacIntel,60,,,,,,,,,,,,,,2,7.2472,,0,1,10,160,59,1,stimuli/stim_20210519_power2amp/equal_lnn_AM2.5Hz_s15_48.m4a,,,
,,,,,,,,,,,,41054,2021-06-02_10h19.19.306,judgeSpeechMusic_20210519_logNormShiftAmp_mXs,2020.1.2,MacIntel,60,,,,,,,,,,,,,,2,7.3155,,0,1,11,161,11,1,stimuli/stim_20210519_power2amp/equal_lnn_AM1Hz_s25_45.m4a,,,
,,,,,,,,,,,,41054,2021-06-02_10h19.19.306,judgeSpeechMusic_20210519_logNormShiftAmp_mXs,2020.1.2,MacIntel,60,,,,,,,,,,,,,,2,6.0793,,0,1,12,162,37,1,stimuli/stim_20210519_power2amp/equal_lnn_AM1Hz_s45_14.m4a,,,
,,,,,,,,,,,,41054,2021-06-02_10h19.19.306,judgeSpeechMusic_20210519_logNormShiftAmp_mXs,2020.1.2,MacIntel,60,,,,,,,,,,,,,,2,6.9308,,0,1,13,163,51,1,stimuli/stim_20210519_power2amp/equal_lnn_AM2.5Hz_s15_5.m4a,,,
,,,,,,,,,,,,41054,2021-06-02_10h19.19.306,judgeSpeechMusic_20210519_logNormShiftAmp_mXs,2020.1.2,MacIntel,60,,,,,,,,,,,,,,2,6.1636,,0,1,14,164,139,1,stimuli/stim_20210519_power2amp/equal_lnn_AM4Hz_s45_27.m4a,,,
,,,,,,,,,,,,41054,2021-06-02_10h19.19.306,judgeSpeechMusic_20210519_logNormShiftAmp_mXs,2020.1.2,MacIntel,60,,,,,,,,,,,,,,2,7.1801,,0,1,15,165,131,1,stimuli/stim_20210519_power2amp/equal_lnn_AM4Hz_s45_5.m4a,,,
,,,,,,,,,,,,41054,2021-06-02_10h19.19.306,judgeSpeechMusic_20210519_logNormShiftAmp_mXs,2020.1.2,MacIntel,60,,,,,,,,,,,,,,2,12.0791,,0,1,16,166,77,1,stimuli/stim_20210519_power2amp/equal_lnn_AM2.5Hz_s35_46.m4a,,,
,,,,,,,,,,,,41054,2021-06-02_10h19.19.306,judgeSpeechMusic_20210519_logNormShiftAmp_mXs,2020.1.2,MacIntel,60,,,,,,,,,,,,,,2,6.945,,0,1,17,167,48,1,stimuli/stim_20210519_power2amp/equal_lnn_AM1Hz_s55_28.m4a,,,
,,,,,,,,,,,,41054,2021-06-02_10h19.19.306,judgeSpeechMusic_20210519_logNormShiftAmp_mXs,2020.1.2,MacIntel,60,,,,,,,,,,,,,,2,7.6304,,0,1,18,168,34,1,stimuli/stim_20210519_power2amp/equal_lnn_AM1Hz_s45_13.m4a,,,
,,,,,,,,,,,,41054,2021-06-02_10h19.19.306,judgeSpeechMusic_20210519_logNormShiftAmp_mXs,2020.1.2,MacIntel,60,,,,,,,,,,,,,,2,5.9132,,0,1,19,169,87,1,stimuli/stim_20210519_power2amp/equal_lnn_AM2.5Hz_s45_6.m4a,,,
,,,,,,,,,,,,41054,2021-06-02_10h19.19.306,judgeSpeechMusic_20210519_logNormShiftAmp_mXs,2020.1.2,MacIntel,60,,,,,,,,,,,,,,2,7.8967,,0,1,20,170,118,1,stimuli/stim_20210519_power2amp/equal_lnn_AM4Hz_s25_14.m4a,,,
,,,,,,,,,,,,41054,2021-06-02_10h19.19.306,judgeSpeechMusic_20210519_logNormShiftAmp_mXs,2020.1.2,MacIntel,60,,,,,,,,,,,,,,2,6.2131,,0,1,21,171,135,1,stimuli/stim_20210519_power2amp/equal_lnn_AM4Hz_s45_25.m4a,,,
,,,,,,,,,,,,41054,2021-06-02_10h19.19.306,judgeSpeechMusic_20210519_logNormShiftAmp_mXs,2020.1.2,MacIntel,60,,,,,,,,,,,,,,2,6.3802,,0,1,22,172,97,1,stimuli/stim_20210519_power2amp/equal_lnn_AM2.5Hz_s55_33.m4a,,,
,,,,,,,,,,,,41054,2021-06-02_10h19.19.306,judgeSpeechMusic_20210519_logNormShiftAmp_mXs,2020.1.2,MacIntel,60,,,,,,,,,,,,,,2,6.1132,,0,1,23,173,15,1,stimuli/stim_20210519_power2amp/equal_lnn_AM1Hz_s25_22.m4a,,,
,,,,,,,,,,,,41054,2021-06-02_10h19.19.306,judgeSpeechMusic_20210519_logNormShiftAmp_mXs,2020.1.2,MacIntel,60,,,,,,,,,,,,,,2,6.1453,,0,1,24,174,58,1,stimuli/stim_20210519_power2amp/equal_lnn_AM2.5Hz_s15_20.m4a,,,
,,,,,,,,,,,,41054,2021-06-02_10h19.19.306,judgeSpeechMusic_20210519_logNormShiftAmp_mXs,2020.1.2,MacIntel,60,,,,,,,,,,,,,,2,5.9133,,0,1,25,175,16,1,stimuli/stim_20210519_power2amp/equal_lnn_AM1Hz_s25_18.m4a,,,
,,,,,,,,,,,,41054,2021-06-02_10h19.19.306,judgeSpeechMusic_20210519_logNormShiftAmp_mXs,2020.1.2,MacIntel,60,,,,,,,,,,,,,,2,6.2291,,0,1,26,176,82,1,stimuli/stim_20210519_power2amp/equal_lnn_AM2.5Hz_s45_11.m4a,,,
,,,,,,,,,,,,41054,2021-06-02_10h19.19.306,judgeSpeechMusic_20210519_logNormShiftAmp_mXs,2020.1.2,MacIntel,60,,,,,,,,,,,,,,2,6.5146,,0,1,27,177,35,1,stimuli/stim_20210519_power2amp/equal_lnn_AM1Hz_s45_42.m4a,,,
,,,,,,,,,,,,41054,2021-06-02_10h19.19.306,judgeSpeechMusic_20210519_logNormShiftAmp_mXs,2020.1.2,MacIntel,60,,,,,,,,,,,,,,2,11.4614,,0,1,28,178,49,1,stimuli/stim_20210519_power2amp/equal_lnn_AM1Hz_s55_39.m4a,,,
,,,,,,,,,,,,41054,2021-06-02_10h19.19.306,judgeSpeechMusic_20210519_logNormShiftAmp_mXs,2020.1.2,MacIntel,60,,,,,,,,,,,,,,2,6.7471,,0,1,29,179,110,1,stimuli/stim_20210519_power2amp/equal_lnn_AM4Hz_s25_25.m4a,,,
,,,,,,,,,,,,41054,2021-06-02_10h19.19.306,judgeSpeechMusic_20210519_logNormShiftAmp_mXs,2020.1.2,MacIntel,60,,,,,,,,,,,,,,2,7.9645,,0,1,30,180,9,1,stimuli/stim_20210519_power2amp/equal_lnn_AM1Hz_s15_11.m4a,,,
,,,,,,,,,,,,41054,2021-06-02_10h19.19.306,judgeSpeechMusic_20210519_logNormShiftAmp_mXs,2020.1.2,MacIntel,60,,,,,,,,,,,,,,2,9.0303,,0,1,31,181,39,1,stimuli/stim_20210519_power2amp/equal_lnn_AM1Hz_s45_43.m4a,,,
,,,,,,,,,,,,41054,2021-06-02_10h19.19.306,judgeSpeechMusic_20210519_logNormShiftAmp_mXs,2020.1.2,MacIntel,60,,,,,,,,,,,,,,2,20.9143,1,0,1,32,182,1,1,stimuli/stim_20210519_power2amp/equal_lnn_AM1Hz_s15_33.m4a,20.0649,,
,,,,,,,,,,,,41054,2021-06-02_10h19.19.306,judgeSpeechMusic_20210519_logNormShiftAmp_mXs,2020.1.2,MacIntel,60,,,,,,,,,,,,,,2,9.1299,,0,1,33,183,53,1,stimuli/stim_20210519_power2amp/equal_lnn_AM2.5Hz_s15_4.m4a,,,
,,,,,,,,,,,,41054,2021-06-02_10h19.19.306,judgeSpeechMusic_20210519_logNormShiftAmp_mXs,2020.1.2,MacIntel,60,,,,,,,,,,,,,,2,101.3647,,0,1,34,184,38,1,stimuli/stim_20210519_power2amp/equal_lnn_AM1Hz_s45_50.m4a,,,
,,,,,,,,,,,,41054,2021-06-02_10h19.19.306,judgeSpeechMusic_20210519_logNormShiftAmp_mXs,2020.1.2,MacIntel,60,,,,,,,,,,,,,,2,23.0285,,0,1,35,185,50,1,stimuli/stim_20210519_power2amp/equal_lnn_AM2.5Hz_s15_50.m4a,,,
,,,,,,,,,,,,41054,2021-06-02_10h19.19.306,judgeSpeechMusic_20210519_logNormShiftAmp_mXs,2020.1.2,MacIntel,60,,,,,,,,,,,,,,2,78.3962,,0,1,36,186,101,1,stimuli/stim_20210519_power2amp/equal_lnn_AM4Hz_s15_36.m4a,,,
,,,,,,,,,,,,41054,2021-06-02_10h19.19.306,judgeSpeechMusic_20210519_logNormShiftAmp_mXs,2020.1.2,MacIntel,60,,,,,,,,,,,,,,2,11.8467,,0,1,37,187,141,1,stimuli/stim_20210519_power2amp/equal_lnn_AM4Hz_s55_13.m4a,,,
,,,,,,,,,,,,41054,2021-06-02_10h19.19.306,judgeSpeechMusic_20210519_logNormShiftAmp_mXs,2020.1.2,MacIntel,60,,,,,,,,,,,,,,2,17.1807,,0,1,38,188,128,1,stimuli/stim_20210519_power2amp/equal_lnn_AM4Hz_s35_40.m4a,,,
,,,,,,,,,,,,41054,2021-06-02_10h19.19.306,judgeSpeechMusic_20210519_logNormShiftAmp_mXs,2020.1.2,MacIntel,60,,,,,,,,,,,,,,2,6.1314,,0,1,39,189,18,1,stimuli/stim_20210519_power2amp/equal_lnn_AM1Hz_s25_40.m4a,,,
,,,,,,,,,,,,41054,2021-06-02_10h19.19.306,judgeSpeechMusic_20210519_logNormShiftAmp_mXs,2020.1.2,MacIntel,60,,,,,,,,,,,,,,2,10.8306,,0,1,40,190,111,1,stimuli/stim_20210519_power2amp/equal_lnn_AM4Hz_s25_45.m4a,,,
,,,,,,,,,,,,41054,2021-06-02_10h19.19.306,judgeSpeechMusic_20210519_logNormShiftAmp_mXs,2020.1.2,MacIntel,60,,,,,,,,,,,,,,2,6.2808,,0,1,41,191,106,1,stimuli/stim_20210519_power2amp/equal_lnn_AM4Hz_s15_1.m4a,,,
,,,,,,,,,,,,41054,2021-06-02_10h19.19.306,judgeSpeechMusic_20210519_logNormShiftAmp_mXs,2020.1.2,MacIntel,60,,,,,,,,,,,,,,2,6.5631,,0,1,42,192,113,1,stimuli/stim_20210519_power2amp/equal_lnn_AM4Hz_s25_38.m4a,,,
,,,,,,,,,,,,41054,2021-06-02_10h19.19.306,judgeSpeechMusic_20210519_logNormShiftAmp_mXs,2020.1.2,MacIntel,60,,,,,,,,,,,,,,2,7.998,,0,1,43,193,122,1,stimuli/stim_20210519_power2amp/equal_lnn_AM4Hz_s35_22.m4a,,,
,,,,,,,,,,,,41054,2021-06-02_10h19.19.306,judgeSpeechMusic_20210519_logNormShiftAmp_mXs,2020.1.2,MacIntel,60,,,,,,,,,,,,,,2,6.2303,,0,1,44,194,2,1,stimuli/stim_20210519_power2amp/equal_lnn_AM1Hz_s15_38.m4a,,,
,,,,,,,,,,,,41054,2021-06-02_10h19.19.306,judgeSpeechMusic_20210519_logNormShiftAmp_mXs,2020.1.2,MacIntel,60,,,,,,,,,,,,,,2,6.7965,,0,1,45,195,105,1,stimuli/stim_20210519_power2amp/equal_lnn_AM4Hz_s15_6.m4a,,,
,,,,,,,,,,,,41054,2021-06-02_10h19.19.306,judgeSpeechMusic_20210519_logNormShiftAmp_mXs,2020.1.2,MacIntel,60,,,,,,,,,,,,,,2,7.2641,,0,1,46,196,4,1,stimuli/stim_20210519_power2amp/equal_lnn_AM1Hz_s15_31.m4a,,,
,,,,,,,,,,,,41054,2021-06-02_10h19.19.306,judgeSpeechMusic_20210519_logNormShiftAmp_mXs,2020.1.2,MacIntel,60,,,,,,,,,,,,,,2,6.9422,,0,1,47,197,102,1,stimuli/stim_20210519_power2amp/equal_lnn_AM4Hz_s15_25.m4a,,,
,,,,,,,,,,,,41054,2021-06-02_10h19.19.306,judgeSpeechMusic_20210519_logNormShiftAmp_mXs,2020.1.2,MacIntel,60,,,,,,,,,,,,,,2,9.5464,,0,1,48,198,32,1,stimuli/stim_20210519_power2amp/equal_lnn_AM1Hz_s45_15.m4a,,,
,,,,,,,,,,,,41054,2021-06-02_10h19.19.306,judgeSpeechMusic_20210519_logNormShiftAmp_mXs,2020.1.2,MacIntel,60,,,,,,,,,,,,,,2,7.9968,,0,1,49,199,63,1,stimuli/stim_20210519_power2amp/equal_lnn_AM2.5Hz_s25_14.m4a,,,
,,,,,,,,,,,,41054,2021-06-02_10h19.19.306,judgeSpeechMusic_20210519_logNormShiftAmp_mXs,2020.1.2,MacIntel,60,,,,,,,,,,,,,,2,6.6459,,0,1,50,200,93,1,stimuli/stim_20210519_power2amp/equal_lnn_AM2.5Hz_s55_45.m4a,,,
,,,,,,,,,,,,41054,2021-06-02_10h19.19.306,judgeSpeechMusic_20210519_logNormShiftAmp_mXs,2020.1.2,MacIntel,60,,,,,,,,,,,,,,2,6.5131,,0,1,51,201,42,1,stimuli/stim_20210519_power2amp/equal_lnn_AM1Hz_s55_43.m4a,,,
,,,,,,,,,,,,41054,2021-06-02_10h19.19.306,judgeSpeechMusic_20210519_logNormShiftAmp_mXs,2020.1.2,MacIntel,60,,,,,,,,,,,,,,2,6.6968,,0,1,52,202,129,1,stimuli/stim_20210519_power2amp/equal_lnn_AM4Hz_s35_36.m4a,,,
,,,,,,,,,,,,41054,2021-06-02_10h19.19.306,judgeSpeechMusic_20210519_logNormShiftAmp_mXs,2020.1.2,MacIntel,60,,,,,,,,,,,,,,2,53.3798,1,1,1,53,203,83,1,stimuli/stim_20210519_power2amp/equal_lnn_AM2.5Hz_s45_47.m4a,9.6647,,
,,,,,,,,,,,,41054,2021-06-02_10h19.19.306,judgeSpeechMusic_20210519_logNormShiftAmp_mXs,2020.1.2,MacIntel,60,,,,,,,,,,,,,,2,8.6125,,0,1,54,204,108,1,stimuli/stim_20210519_power2amp/equal_lnn_AM4Hz_s15_35.m4a,,,
,,,,,,,,,,,,41054,2021-06-02_10h19.19.306,judgeSpeechMusic_20210519_logNormShiftAmp_mXs,2020.1.2,MacIntel,60,,,,,,,,,,,,,,2,6.7479,,0,1,55,205,104,1,stimuli/stim_20210519_power2amp/equal_lnn_AM4Hz_s15_14.m4a,,,
,,,,,,,,,,,,41054,2021-06-02_10h19.19.306,judgeSpeechMusic_20210519_logNormShiftAmp_mXs,2020.1.2,MacIntel,60,,,,,,,,,,,,,,2,5.9796,,0,1,56,206,144,1,stimuli/stim_20210519_power2amp/equal_lnn_AM4Hz_s55_24.m4a,,,
,,,,,,,,,,,,41054,2021-06-02_10h19.19.306,judgeSpeechMusic_20210519_logNormShiftAmp_mXs,2020.1.2,MacIntel,60,,,,,,,,,,,,,,2,6.2651,,0,1,57,207,62,1,stimuli/stim_20210519_power2amp/equal_lnn_AM2.5Hz_s25_29.m4a,,,
,,,,,,,,,,,,41054,2021-06-02_10h19.19.306,judgeSpeechMusic_20210519_logNormShiftAmp_mXs,2020.1.2,MacIntel,60,,,,,,,,,,,,,,2,6.9954,,0,1,58,208,3,1,stimuli/stim_20210519_power2amp/equal_lnn_AM1Hz_s15_6.m4a,,,
,,,,,,,,,,,,41054,2021-06-02_10h19.19.306,judgeSpeechMusic_20210519_logNormShiftAmp_mXs,2020.1.2,MacIntel,60,,,,,,,,,,,,,,2,7.3636,,0,1,59,209,44,1,stimuli/stim_20210519_power2amp/equal_lnn_AM1Hz_s55_6.m4a,,,
,,,,,,,,,,,,41054,2021-06-02_10h19.19.306,judgeSpeechMusic_20210519_logNormShiftAmp_mXs,2020.1.2,MacIntel,60,,,,,,,,,,,,,,2,7.0307,,0,1,60,210,78,1,stimuli/stim_20210519_power2amp/equal_lnn_AM2.5Hz_s35_49.m4a,,,
,,,,,,,,,,,,41054,2021-06-02_10h19.19.306,judgeSpeechMusic_20210519_logNormShiftAmp_mXs,2020.1.2,MacIntel,60,,,,,,,,,,,,,,2,7.2789,,0,1,61,211,103,1,stimuli/stim_20210519_power2amp/equal_lnn_AM4Hz_s15_33.m4a,,,
,,,,,,,,,,,,41054,2021-06-02_10h19.19.306,judgeSpeechMusic_20210519_logNormShiftAmp_mXs,2020.1.2,MacIntel,60,,,,,,,,,,,,,,2,6.2136,,0,1,62,212,145,1,stimuli/stim_20210519_power2amp/equal_lnn_AM4Hz_s55_19.m4a,,,
,,,,,,,,,,,,41054,2021-06-02_10h19.19.306,judgeSpeechMusic_20210519_logNormShiftAmp_mXs,2020.1.2,MacIntel,60,,,,,,,,,,,,,,2,6.4562,,0,1,63,213,19,1,stimuli/stim_20210519_power2amp/equal_lnn_AM1Hz_s25_1.m4a,,,
,,,,,,,,,,,,41054,2021-06-02_10h19.19.306,judgeSpeechMusic_20210519_logNormShiftAmp_mXs,2020.1.2,MacIntel,60,,,,,,,,,,,,,,2,5.9792,,0,1,64,214,138,1,stimuli/stim_20210519_power2amp/equal_lnn_AM4Hz_s45_16.m4a,,,
,,,,,,,,,,,,41054,2021-06-02_10h19.19.306,judgeSpeechMusic_20210519_logNormShiftAmp_mXs,2020.1.2,MacIntel,60,,,,,,,,,,,,,,2,5.9139,,0,1,65,215,67,1,stimuli/stim_20210519_power2amp/equal_lnn_AM2.5Hz_s25_15.m4a,,,
,,,,,,,,,,,,41054,2021-06-02_10h19.19.306,judgeSpeechMusic_20210519_logNormShiftAmp_mXs,2020.1.2,MacIntel,60,,,,,,,,,,,,,,2,5.9454,,0,1,66,216,69,1,stimuli/stim_20210519_power2amp/equal_lnn_AM2.5Hz_s25_27.m4a,,,
,,,,,,,,,,,,41054,2021-06-02_10h19.19.306,judgeSpeechMusic_20210519_logNormShiftAmp_mXs,2020.1.2,MacIntel,60,,,,,,,,,,,,,,2,5.8801,,0,1,67,217,116,1,stimuli/stim_20210519_power2amp/equal_lnn_AM4Hz_s25_40.m4a,,,
,,,,,,,,,,,,41054,2021-06-02_10h19.19.306,judgeSpeechMusic_20210519_logNormShiftAmp_mXs,2020.1.2,MacIntel,60,,,,,,,,,,,,,,2,6.5131,,0,1,68,218,61,1,stimuli/stim_20210519_power2amp/equal_lnn_AM2.5Hz_s25_41.m4a,,,
,,,,,,,,,,,,41054,2021-06-02_10h19.19.306,judgeSpeechMusic_20210519_logNormShiftAmp_mXs,2020.1.2,MacIntel,60,,,,,,,,,,,,,,2,6.0968,,0,1,69,219,96,1,stimuli/stim_20210519_power2amp/equal_lnn_AM2.5Hz_s55_46.m4a,,,
,,,,,,,,,,,,41054,2021-06-02_10h19.19.306,judgeSpeechMusic_20210519_logNormShiftAmp_mXs,2020.1.2,MacIntel,60,,,,,,,,,,,,,,2,7.6134,,0,1,70,220,60,1,stimuli/stim_20210519_power2amp/equal_lnn_AM2.5Hz_s25_16.m4a,,,
,,,,,,,,,,,,41054,2021-06-02_10h19.19.306,judgeSpeechMusic_20210519_logNormShiftAmp_mXs,2020.1.2,MacIntel,60,,,,,,,,,,,,,,2,6.0987,,0,1,71,221,95,1,stimuli/stim_20210519_power2amp/equal_lnn_AM2.5Hz_s55_43.m4a,,,
,,,,,,,,,,,,41054,2021-06-02_10h19.19.306,judgeSpeechMusic_20210519_logNormShiftAmp_mXs,2020.1.2,MacIntel,60,,,,,,,,,,,,,,2,5.9802,,0,1,72,222,10,1,stimuli/stim_20210519_power2amp/equal_lnn_AM1Hz_s25_42.m4a,,,
,,,,,,,,,,,,41054,2021-06-02_10h19.19.306,judgeSpeechMusic_20210519_logNormShiftAmp_mXs,2020.1.2,MacIntel,60,,,,,,,,,,,,,,2,5.8803,,0,1,73,223,149,1,stimuli/stim_20210519_power2amp/equal_lnn_AM4Hz_s55_34.m4a,,,
,,,,,,,,,,,,41054,2021-06-02_10h19.19.306,judgeSpeechMusic_20210519_logNormShiftAmp_mXs,2020.1.2,MacIntel,60,,,,,,,,,,,,,,2,6.5811,,0,1,74,224,85,1,stimuli/stim_20210519_power2amp/equal_lnn_AM2.5Hz_s45_17.m4a,,,
,,,,,,,,,,,,41054,2021-06-02_10h19.19.306,judgeSpeechMusic_20210519_logNormShiftAmp_mXs,2020.1.2,MacIntel,60,,,,,,,,,,,,,,2,6.0962,,0,1,75,225,54,1,stimuli/stim_20210519_power2amp/equal_lnn_AM2.5Hz_s15_23.m4a,,,
,,,,,,,,,,,,41054,2021-06-02_10h19.19.306,judgeSpeechMusic_20210519_logNormShiftAmp_mXs,2020.1.2,MacIntel,60,,,,,,,,,,,,,,2,5.9292,,0,1,76,226,55,1,stimuli/stim_20210519_power2amp/equal_lnn_AM2.5Hz_s15_43.m4a,,,
,,,,,,,,,,,,41054,2021-06-02_10h19.19.306,judgeSpeechMusic_20210519_logNormShiftAmp_mXs,2020.1.2,MacIntel,60,,,,,,,,,,,,,,2,5.8804,,0,1,77,227,76,1,stimuli/stim_20210519_power2amp/equal_lnn_AM2.5Hz_s35_15.m4a,,,
,,,,,,,,,,,,41054,2021-06-02_10h19.19.306,judgeSpeechMusic_20210519_logNormShiftAmp_mXs,2020.1.2,MacIntel,60,,,,,,,,,,,,,,2,5.9129,1,0,1,78,228,125,1,stimuli/stim_20210519_power2amp/equal_lnn_AM4Hz_s35_41.m4a,4.8136,,
,,,,,,,,,,,,41054,2021-06-02_10h19.19.306,judgeSpeechMusic_20210519_logNormShiftAmp_mXs,2020.1.2,MacIntel,60,,,,,,,,,,,,,,2,6.2628,,0,1,79,229,90,1,stimuli/stim_20210519_power2amp/equal_lnn_AM2.5Hz_s55_6.m4a,,,
,,,,,,,,,,,,41054,2021-06-02_10h19.19.306,judgeSpeechMusic_20210519_logNormShiftAmp_mXs,2020.1.2,MacIntel,60,,,,,,,,,,,,,,2,9.3642,,0,1,80,230,20,1,stimuli/stim_20210519_power2amp/equal_lnn_AM1Hz_s35_11.m4a,,,
,,,,,,,,,,,,41054,2021-06-02_10h19.19.306,judgeSpeechMusic_20210519_logNormShiftAmp_mXs,2020.1.2,MacIntel,60,,,,,,,,,,,,,,2,6.0307,,0,1,81,231,81,1,stimuli/stim_20210519_power2amp/equal_lnn_AM2.5Hz_s45_32.m4a,,,
,,,,,,,,,,,,41054,2021-06-02_10h19.19.306,judgeSpeechMusic_20210519_logNormShiftAmp_mXs,2020.1.2,MacIntel,60,,,,,,,,,,,,,,2,6.0972,,0,1,82,232,29,1,stimuli/stim_20210519_power2amp/equal_lnn_AM1Hz_s35_5.m4a,,,
,,,,,,,,,,,,41054,2021-06-02_10h19.19.306,judgeSpeechMusic_20210519_logNormShiftAmp_mXs,2020.1.2,MacIntel,60,,,,,,,,,,,,,,2,6.2308,,0,1,83,233,21,1,stimuli/stim_20210519_power2amp/equal_lnn_AM1Hz_s35_27.m4a,,,
,,,,,,,,,,,,41054,2021-06-02_10h19.19.306,judgeSpeechMusic_20210519_logNormShiftAmp_mXs,2020.1.2,MacIntel,60,,,,,,,,,,,,,,2,6.0286,,0,1,84,234,121,1,stimuli/stim_20210519_power2amp/equal_lnn_AM4Hz_s35_38.m4a,,,
,,,,,,,,,,,,41054,2021-06-02_10h19.19.306,judgeSpeechMusic_20210519_logNormShiftAmp_mXs,2020.1.2,MacIntel,60,,,,,,,,,,,,,,2,5.8471,,0,1,85,235,120,1,stimuli/stim_20210519_power2amp/equal_lnn_AM4Hz_s35_16.m4a,,,
,,,,,,,,,,,,41054,2021-06-02_10h19.19.306,judgeSpeechMusic_20210519_logNormShiftAmp_mXs,2020.1.2,MacIntel,60,,,,,,,,,,,,,,2,5.948,,0,1,86,236,70,1,stimuli/stim_20210519_power2amp/equal_lnn_AM2.5Hz_s35_40.m4a,,,
,,,,,,,,,,,,41054,2021-06-02_10h19.19.306,judgeSpeechMusic_20210519_logNormShiftAmp_mXs,2020.1.2,MacIntel,60,,,,,,,,,,,,,,2,5.3823,,0,1,87,237,86,1,stimuli/stim_20210519_power2amp/equal_lnn_AM2.5Hz_s45_7.m4a,,,
,,,,,,,,,,,,41054,2021-06-02_10h19.19.306,judgeSpeechMusic_20210519_logNormShiftAmp_mXs,2020.1.2,MacIntel,60,,,,,,,,,,,,,,2,6.6614,,0,1,88,238,80,1,stimuli/stim_20210519_power2amp/equal_lnn_AM2.5Hz_s45_48.m4a,,,
,,,,,,,,,,,,41054,2021-06-02_10h19.19.306,judgeSpeechMusic_20210519_logNormShiftAmp_mXs,2020.1.2,MacIntel,60,,,,,,,,,,,,,,2,5.8631,,0,1,89,239,142,1,stimuli/stim_20210519_power2amp/equal_lnn_AM4Hz_s55_29.m4a,,,
,,,,,,,,,,,,41054,2021-06-02_10h19.19.306,judgeSpeechMusic_20210519_logNormShiftAmp_mXs,2020.1.2,MacIntel,60,,,,,,,,,,,,,,2,6.2309,,0,1,90,240,119,1,stimuli/stim_20210519_power2amp/equal_lnn_AM4Hz_s25_23.m4a,,,
,,,,,,,,,,,,41054,2021-06-02_10h19.19.306,judgeSpeechMusic_20210519_logNormShiftAmp_mXs,2020.1.2,MacIntel,60,,,,,,,,,,,,,,2,6.4311,,0,1,91,241,84,1,stimuli/stim_20210519_power2amp/equal_lnn_AM2.5Hz_s45_44.m4a,,,
,,,,,,,,,,,,41054,2021-06-02_10h19.19.306,judgeSpeechMusic_20210519_logNormShiftAmp_mXs,2020.1.2,MacIntel,60,,,,,,,,,,,,,,2,6.8306,,0,1,92,242,126,1,stimuli/stim_20210519_power2amp/equal_lnn_AM4Hz_s35_10.m4a,,,
,,,,,,,,,,,,41054,2021-06-02_10h19.19.306,judgeSpeechMusic_20210519_logNormShiftAmp_mXs,2020.1.2,MacIntel,60,,,,,,,,,,,,,,2,7.8447,,0,1,93,243,130,1,stimuli/stim_20210519_power2amp/equal_lnn_AM4Hz_s45_39.m4a,,,
,,,,,,,,,,,,41054,2021-06-02_10h19.19.306,judgeSpeechMusic_20210519_logNormShiftAmp_mXs,2020.1.2,MacIntel,60,,,,,,,,,,,,,,2,6.0632,,0,1,94,244,147,1,stimuli/stim_20210519_power2amp/equal_lnn_AM4Hz_s55_31.m4a,,,
,,,,,,,,,,,,41054,2021-06-02_10h19.19.306,judgeSpeechMusic_20210519_logNormShiftAmp_mXs,2020.1.2,MacIntel,60,,,,,,,,,,,,,,2,6.1472,,0,1,95,245,68,1,stimuli/stim_20210519_power2amp/equal_lnn_AM2.5Hz_s25_10.m4a,,,
,,,,,,,,,,,,41054,2021-06-02_10h19.19.306,judgeSpeechMusic_20210519_logNormShiftAmp_mXs,2020.1.2,MacIntel,60,,,,,,,,,,,,,,2,6.0621,,0,1,96,246,0,1,stimuli/stim_20210519_power2amp/equal_lnn_AM1Hz_s15_2.m4a,,,
,,,,,,,,,,,,41054,2021-06-02_10h19.19.306,judgeSpeechMusic_20210519_logNormShiftAmp_mXs,2020.1.2,MacIntel,60,,,,,,,,,,,,,,2,6.0974,,0,1,97,247,72,1,stimuli/stim_20210519_power2amp/equal_lnn_AM2.5Hz_s35_8.m4a,,,
,,,,,,,,,,,,41054,2021-06-02_10h19.19.306,judgeSpeechMusic_20210519_logNormShiftAmp_mXs,2020.1.2,MacIntel,60,,,,,,,,,,,,,,2,5.8969,,0,1,98,248,65,1,stimuli/stim_20210519_power2amp/equal_lnn_AM2.5Hz_s25_7.m4a,,,
,,,,,,,,,,,,41054,2021-06-02_10h19.19.306,judgeSpeechMusic_20210519_logNormShiftAmp_mXs,2020.1.2,MacIntel,60,,,,,,,,,,,,,,2,5.8629,,0,1,99,249,23,1,stimuli/stim_20210519_power2amp/equal_lnn_AM1Hz_s35_50.m4a,,,
,,,,,,,,,,,,41054,2021-06-02_10h19.19.306,judgeSpeechMusic_20210519_logNormShiftAmp_mXs,2020.1.2,MacIntel,60,,,,,,,,,,,,,,2,5.9983,1,0,1,100,250,25,1,stimuli/stim_20210519_power2amp/equal_lnn_AM1Hz_s35_20.m4a,3.0312,,
,,,,,,,,,,,,41054,2021-06-02_10h19.19.306,judgeSpeechMusic_20210519_logNormShiftAmp_mXs,2020.1.2,MacIntel,60,,,,,,,,,,,,,,2,7.3795,,0,1,101,251,64,1,stimuli/stim_20210519_power2amp/equal_lnn_AM2.5Hz_s25_19.m4a,,,
,,,,,,,,,,,,41054,2021-06-02_10h19.19.306,judgeSpeechMusic_20210519_logNormShiftAmp_mXs,2020.1.2,MacIntel,60,,,,,,,,,,,,,,2,7.0643,,0,1,102,252,66,1,stimuli/stim_20210519_power2amp/equal_lnn_AM2.5Hz_s25_26.m4a,,,
,,,,,,,,,,,,41054,2021-06-02_10h19.19.306,judgeSpeechMusic_20210519_logNormShiftAmp_mXs,2020.1.2,MacIntel,60,,,,,,,,,,,,,,2,7.0631,,0,1,103,253,75,1,stimuli/stim_20210519_power2amp/equal_lnn_AM2.5Hz_s35_17.m4a,,,
,,,,,,,,,,,,41054,2021-06-02_10h19.19.306,judgeSpeechMusic_20210519_logNormShiftAmp_mXs,2020.1.2,MacIntel,60,,,,,,,,,,,,,,2,6.0127,,0,1,104,254,43,1,stimuli/stim_20210519_power2amp/equal_lnn_AM1Hz_s55_13.m4a,,,
,,,,,,,,,,,,41054,2021-06-02_10h19.19.306,judgeSpeechMusic_20210519_logNormShiftAmp_mXs,2020.1.2,MacIntel,60,,,,,,,,,,,,,,2,6.1639,,0,1,105,255,132,1,stimuli/stim_20210519_power2amp/equal_lnn_AM4Hz_s45_40.m4a,,,
,,,,,,,,,,,,41054,2021-06-02_10h19.19.306,judgeSpeechMusic_20210519_logNormShiftAmp_mXs,2020.1.2,MacIntel,60,,,,,,,,,,,,,,2,5.8971,,0,1,106,256,73,1,stimuli/stim_20210519_power2amp/equal_lnn_AM2.5Hz_s35_1.m4a,,,
,,,,,,,,,,,,41054,2021-06-02_10h19.19.306,judgeSpeechMusic_20210519_logNormShiftAmp_mXs,2020.1.2,MacIntel,60,,,,,,,,,,,,,,2,7.4144,,0,1,107,257,148,1,stimuli/stim_20210519_power2amp/equal_lnn_AM4Hz_s55_25.m4a,,,
,,,,,,,,,,,,41054,2021-06-02_10h19.19.306,judgeSpeechMusic_20210519_logNormShiftAmp_mXs,2020.1.2,MacIntel,60,,,,,,,,,,,,,,2,6.0451,,0,1,108,258,7,1,stimuli/stim_20210519_power2amp/equal_lnn_AM1Hz_s15_10.m4a,,,
,,,,,,,,,,,,41054,2021-06-02_10h19.19.306,judgeSpeechMusic_20210519_logNormShiftAmp_mXs,2020.1.2,MacIntel,60,,,,,,,,,,,,,,2,6.0471,,0,1,109,259,41,1,stimuli/stim_20210519_power2amp/equal_lnn_AM1Hz_s55_25.m4a,,,
,,,,,,,,,,,,41054,2021-06-02_10h19.19.306,judgeSpeechMusic_20210519_logNormShiftAmp_mXs,2020.1.2,MacIntel,60,,,,,,,,,,,,,,2,6.6307,,0,1,110,260,109,1,stimuli/stim_20210519_power2amp/equal_lnn_AM4Hz_s15_49.m4a,,,
,,,,,,,,,,,,41054,2021-06-02_10h19.19.306,judgeSpeechMusic_20210519_logNormShiftAmp_mXs,2020.1.2,MacIntel,60,,,,,,,,,,,,,,2,6.1128,,0,1,111,261,24,1,stimuli/stim_20210519_power2amp/equal_lnn_AM1Hz_s35_12.m4a,,,
,,,,,,,,,,,,41054,2021-06-02_10h19.19.306,judgeSpeechMusic_20210519_logNormShiftAmp_mXs,2020.1.2,MacIntel,60,,,,,,,,,,,,,,2,5.9621,,0,1,112,262,98,1,stimuli/stim_20210519_power2amp/equal_lnn_AM2.5Hz_s55_34.m4a,,,
,,,,,,,,,,,,41054,2021-06-02_10h19.19.306,judgeSpeechMusic_20210519_logNormShiftAmp_mXs,2020.1.2,MacIntel,60,,,,,,,,,,,,,,2,6.2459,,0,1,113,263,17,1,stimuli/stim_20210519_power2amp/equal_lnn_AM1Hz_s25_10.m4a,,,
,,,,,,,,,,,,41054,2021-06-02_10h19.19.306,judgeSpeechMusic_20210519_logNormShiftAmp_mXs,2020.1.2,MacIntel,60,,,,,,,,,,,,,,2,6.0131,,0,1,114,264,28,1,stimuli/stim_20210519_power2amp/equal_lnn_AM1Hz_s35_41.m4a,,,
,,,,,,,,,,,,41054,2021-06-02_10h19.19.306,judgeSpeechMusic_20210519_logNormShiftAmp_mXs,2020.1.2,MacIntel,60,,,,,,,,,,,,,,2,6.247,,0,1,115,265,140,1,stimuli/stim_20210519_power2amp/equal_lnn_AM4Hz_s55_30.m4a,,,
,,,,,,,,,,,,41054,2021-06-02_10h19.19.306,judgeSpeechMusic_20210519_logNormShiftAmp_mXs,2020.1.2,MacIntel,60,,,,,,,,,,,,,,2,7.096,,0,1,116,266,112,1,stimuli/stim_20210519_power2amp/equal_lnn_AM4Hz_s25_11.m4a,,,
,,,,,,,,,,,,41054,2021-06-02_10h19.19.306,judgeSpeechMusic_20210519_logNormShiftAmp_mXs,2020.1.2,MacIntel,60,,,,,,,,,,,,,,2,6.5813,,0,1,117,267,27,1,stimuli/stim_20210519_power2amp/equal_lnn_AM1Hz_s35_34.m4a,,,
,,,,,,,,,,,,41054,2021-06-02_10h19.19.306,judgeSpeechMusic_20210519_logNormShiftAmp_mXs,2020.1.2,MacIntel,60,,,,,,,,,,,,,,2,6.4451,,0,1,118,268,74,1,stimuli/stim_20210519_power2amp/equal_lnn_AM2.5Hz_s35_36.m4a,,,
,,,,,,,,,,,,41054,2021-06-02_10h19.19.306,judgeSpeechMusic_20210519_logNormShiftAmp_mXs,2020.1.2,MacIntel,60,,,,,,,,,,,,,,2,6.2954,,0,1,119,269,52,1,stimuli/stim_20210519_power2amp/equal_lnn_AM2.5Hz_s15_29.m4a,,,
,,,,,,,,,,,,41054,2021-06-02_10h19.19.306,judgeSpeechMusic_20210519_logNormShiftAmp_mXs,2020.1.2,MacIntel,60,,,,,,,,,,,,,,2,6.8292,,0,1,120,270,92,1,stimuli/stim_20210519_power2amp/equal_lnn_AM2.5Hz_s55_4.m4a,,,
,,,,,,,,,,,,41054,2021-06-02_10h19.19.306,judgeSpeechMusic_20210519_logNormShiftAmp_mXs,2020.1.2,MacIntel,60,,,,,,,,,,,,,,2,6.6125,,0,1,121,271,5,1,stimuli/stim_20210519_power2amp/equal_lnn_AM1Hz_s15_14.m4a,,,
,,,,,,,,,,,,41054,2021-06-02_10h19.19.306,judgeSpeechMusic_20210519_logNormShiftAmp_mXs,2020.1.2,MacIntel,60,,,,,,,,,,,,,,2,7.0469,1,0,1,122,272,143,1,stimuli/stim_20210519_power2amp/equal_lnn_AM4Hz_s55_42.m4a,1.7812,,
,,,,,,,,,,,,41054,2021-06-02_10h19.19.306,judgeSpeechMusic_20210519_logNormShiftAmp_mXs,2020.1.2,MacIntel,60,,,,,,,,,,,,,,2,8.1469,,0,1,123,273,8,1,stimuli/stim_20210519_power2amp/equal_lnn_AM1Hz_s15_42.m4a,,,
,,,,,,,,,,,,41054,2021-06-02_10h19.19.306,judgeSpeechMusic_20210519_logNormShiftAmp_mXs,2020.1.2,MacIntel,60,,,,,,,,,,,,,,2,17.8797,,0,1,124,274,115,1,stimuli/stim_20210519_power2amp/equal_lnn_AM4Hz_s25_33.m4a,,,
,,,,,,,,,,,,41054,2021-06-02_10h19.19.306,judgeSpeechMusic_20210519_logNormShiftAmp_mXs,2020.1.2,MacIntel,60,,,,,,,,,,,,,,2,6.7453,,0,1,125,275,57,1,stimuli/stim_20210519_power2amp/equal_lnn_AM2.5Hz_s15_30.m4a,,,
,,,,,,,,,,,,41054,2021-06-02_10h19.19.306,judgeSpeechMusic_20210519_logNormShiftAmp_mXs,2020.1.2,MacIntel,60,,,,,,,,,,,,,,2,7.0469,,0,1,126,276,33,1,stimuli/stim_20210519_power2amp/equal_lnn_AM1Hz_s45_48.m4a,,,
,,,,,,,,,,,,41054,2021-06-02_10h19.19.306,judgeSpeechMusic_20210519_logNormShiftAmp_mXs,2020.1.2,MacIntel,60,,,,,,,,,,,,,,2,6.7804,,0,1,127,277,26,1,stimuli/stim_20210519_power2amp/equal_lnn_AM1Hz_s35_7.m4a,,,
,,,,,,,,,,,,41054,2021-06-02_10h19.19.306,judgeSpeechMusic_20210519_logNormShiftAmp_mXs,2020.1.2,MacIntel,60,,,,,,,,,,,,,,2,5.8972,,0,1,128,278,36,1,stimuli/stim_20210519_power2amp/equal_lnn_AM1Hz_s45_31.m4a,,,
,,,,,,,,,,,,41054,2021-06-02_10h19.19.306,judgeSpeechMusic_20210519_logNormShiftAmp_mXs,2020.1.2,MacIntel,60,,,,,,,,,,,,,,2,6.7968,,0,1,129,279,123,1,stimuli/stim_20210519_power2amp/equal_lnn_AM4Hz_s35_34.m4a,,,
,,,,,,,,,,,,41054,2021-06-02_10h19.19.306,judgeSpeechMusic_20210519_logNormShiftAmp_mXs,2020.1.2,MacIntel,60,,,,,,,,,,,,,,2,6.4305,,0,1,130,280,47,1,stimuli/stim_20210519_power2amp/equal_lnn_AM1Hz_s55_23.m4a,,,
,,,,,,,,,,,,41054,2021-06-02_10h19.19.306,judgeSpeechMusic_20210519_logNormShiftAmp_mXs,2020.1.2,MacIntel,60,,,,,,,,,,,,,,2,6.1137,,0,1,131,281,31,1,stimuli/stim_20210519_power2amp/equal_lnn_AM1Hz_s45_35.m4a,,,
,,,,,,,,,,,,41054,2021-06-02_10h19.19.306,judgeSpeechMusic_20210519_logNormShiftAmp_mXs,2020.1.2,MacIntel,60,,,,,,,,,,,,,,2,6.0797,,0,1,132,282,45,1,stimuli/stim_20210519_power2amp/equal_lnn_AM1Hz_s55_19.m4a,,,
,,,,,,,,,,,,41054,2021-06-02_10h19.19.306,judgeSpeechMusic_20210519_logNormShiftAmp_mXs,2020.1.2,MacIntel,60,,,,,,,,,,,,,,2,6.4144,,0,1,133,283,22,1,stimuli/stim_20210519_power2amp/equal_lnn_AM1Hz_s35_14.m4a,,,
,,,,,,,,,,,,41054,2021-06-02_10h19.19.306,judgeSpeechMusic_20210519_logNormShiftAmp_mXs,2020.1.2,MacIntel,60,,,,,,,,,,,,,,2,6.5455,,0,1,134,284,30,1,stimuli/stim_20210519_power2amp/equal_lnn_AM1Hz_s45_7.m4a,,,
,,,,,,,,,,,,41054,2021-06-02_10h19.19.306,judgeSpeechMusic_20210519_logNormShiftAmp_mXs,2020.1.2,MacIntel,60,,,,,,,,,,,,,,2,6.0629,,0,1,135,285,99,1,stimuli/stim_20210519_power2amp/equal_lnn_AM2.5Hz_s55_37.m4a,,,
,,,,,,,,,,,,41054,2021-06-02_10h19.19.306,judgeSpeechMusic_20210519_logNormShiftAmp_mXs,2020.1.2,MacIntel,60,,,,,,,,,,,,,,2,6.547,,0,1,136,286,133,1,stimuli/stim_20210519_power2amp/equal_lnn_AM4Hz_s45_19.m4a,,,
,,,,,,,,,,,,41054,2021-06-02_10h19.19.306,judgeSpeechMusic_20210519_logNormShiftAmp_mXs,2020.1.2,MacIntel,60,,,,,,,,,,,,,,2,6.0474,,0,1,137,287,146,1,stimuli/stim_20210519_power2amp/equal_lnn_AM4Hz_s55_6.m4a,,,
,,,,,,,,,,,,41054,2021-06-02_10h19.19.306,judgeSpeechMusic_20210519_logNormShiftAmp_mXs,2020.1.2,MacIntel,60,,,,,,,,,,,,,,2,5.6438,,0,1,138,288,127,1,stimuli/stim_20210519_power2amp/equal_lnn_AM4Hz_s35_47.m4a,,,
,,,,,,,,,,,,41054,2021-06-02_10h19.19.306,judgeSpeechMusic_20210519_logNormShiftAmp_mXs,2020.1.2,MacIntel,60,,,,,,,,,,,,,,2,5.9142,,0,1,139,289,100,1,stimuli/stim_20210519_power2amp/equal_lnn_AM4Hz_s15_9.m4a,,,
,,,,,,,,,,,,41054,2021-06-02_10h19.19.306,judgeSpeechMusic_20210519_logNormShiftAmp_mXs,2020.1.2,MacIntel,60,,,,,,,,,,,,,,2,12.7653,,0,1,140,290,79,1,stimuli/stim_20210519_power2amp/equal_lnn_AM2.5Hz_s35_31.m4a,,,
,,,,,,,,,,,,41054,2021-06-02_10h19.19.306,judgeSpeechMusic_20210519_logNormShiftAmp_mXs,2020.1.2,MacIntel,60,,,,,,,,,,,,,,2,6.6285,,0,1,141,291,124,1,stimuli/stim_20210519_power2amp/equal_lnn_AM4Hz_s35_17.m4a,,,
,,,,,,,,,,,,41054,2021-06-02_10h19.19.306,judgeSpeechMusic_20210519_logNormShiftAmp_mXs,2020.1.2,MacIntel,60,,,,,,,,,,,,,,2,6.5155,1,1,1,142,292,40,1,stimuli/stim_20210519_power2amp/equal_lnn_AM1Hz_s55_40.m4a,1.9646,,
,,,,,,,,,,,,41054,2021-06-02_10h19.19.306,judgeSpeechMusic_20210519_logNormShiftAmp_mXs,2020.1.2,MacIntel,60,,,,,,,,,,,,,,2,8.5634,,0,1,143,293,114,1,stimuli/stim_20210519_power2amp/equal_lnn_AM4Hz_s25_17.m4a,,,
,,,,,,,,,,,,41054,2021-06-02_10h19.19.306,judgeSpeechMusic_20210519_logNormShiftAmp_mXs,2020.1.2,MacIntel,60,,,,,,,,,,,,,,2,5.8135,,0,1,144,294,14,1,stimuli/stim_20210519_power2amp/equal_lnn_AM1Hz_s25_17.m4a,,,
,,,,,,,,,,,,41054,2021-06-02_10h19.19.306,judgeSpeechMusic_20210519_logNormShiftAmp_mXs,2020.1.2,MacIntel,60,,,,,,,,,,,,,,2,5.9457,,0,1,145,295,56,1,stimuli/stim_20210519_power2amp/equal_lnn_AM2.5Hz_s15_12.m4a,,,
,,,,,,,,,,,,41054,2021-06-02_10h19.19.306,judgeSpeechMusic_20210519_logNormShiftAmp_mXs,2020.1.2,MacIntel,60,,,,,,,,,,,,,,2,6.1795,,0,1,146,296,117,1,stimuli/stim_20210519_power2amp/equal_lnn_AM4Hz_s25_3.m4a,,,
,,,,,,,,,,,,41054,2021-06-02_10h19.19.306,judgeSpeechMusic_20210519_logNormShiftAmp_mXs,2020.1.2,MacIntel,60,,,,,,,,,,,,,,2,5.9635,,0,1,147,297,12,1,stimuli/stim_20210519_power2amp/equal_lnn_AM1Hz_s25_21.m4a,,,
,,,,,,,,,,,,41054,2021-06-02_10h19.19.306,judgeSpeechMusic_20210519_logNormShiftAmp_mXs,2020.1.2,MacIntel,60,,,,,,,,,,,,,,2,7.3118,,0,1,148,298,91,1,stimuli/stim_20210519_power2amp/equal_lnn_AM2.5Hz_s55_49.m4a,,,
,,,,,,,,,,,,41054,2021-06-02_10h19.19.306,judgeSpeechMusic_20210519_logNormShiftAmp_mXs,2020.1.2,MacIntel,60,,,,,,,,,,,,,,2,5.4301,,0,1,149,299,6,1,stimuli/stim_20210519_power2amp/equal_lnn_AM1Hz_s15_3.m4a,,,
,,,,,,,,,,,,41054,2021-06-02_10h19.19.306,judgeSpeechMusic_20210519_logNormShiftAmp_mXs,2020.1.2,MacIntel,60,,,,,,,,,,,,,,,,,,,,,,,,,space,2.2158
