headphoneResponse.keys,headphoneResponse.corr,headphoneResponse.rt,headphoneTrial.thisRepN,headphoneTrial.thisTrialN,headphoneTrial.thisN,headphoneTrial.thisIndex,headphoneTrial.ran,headphone_sound1,headphone_sound2,headphone_sound3,corrAns,participant,date,expName,psychopyVersion,OS,frameRate,trainSlider.response,trainSlider.rt,beepTrainResponse.keys,beepTrainResponse.corr,trainingTrials.thisRepN,trainingTrials.thisTrialN,trainingTrials.thisN,trainingTrials.thisIndex,trainingTrials.ran,trainAudioFile,beepTrainResponse.rt,readyReal_resp.keys,readyReal_resp.rt,ratingSlider.response,ratingSlider.rt,beepResp.keys,beepResp.corr,expTrials.thisRepN,expTrials.thisTrialN,expTrials.thisN,expTrials.thisIndex,expTrials.ran,audioFile,beepResp.rt,end_resp.keys,end_resp.rt
3,1,0.39997,0,0,0,2,1,stimuli/screen_origin.wav,stimuli/screen_antiphase.wav,stimuli/screen_quiet.wav,3,41103,2021-05-24_21h41.12.070,judgeSpeechMusic_20210519_logNormShiftAmp_mXs,2020.1.2,MacIntel,60,,,,,,,,,,,,,,,,,,,,,,,,,,
2,1,0.455925,0,1,1,3,1,stimuli/screen_origin.wav,stimuli/screen_quiet.wav,stimuli/screen_antiphase.wav,2,41103,2021-05-24_21h41.12.070,judgeSpeechMusic_20210519_logNormShiftAmp_mXs,2020.1.2,MacIntel,60,,,,,,,,,,,,,,,,,,,,,,,,,,
1,1,0.461905,0,2,2,4,1,stimuli/screen_quiet.wav,stimuli/screen_antiphase.wav,stimuli/screen_origin.wav,1,41103,2021-05-24_21h41.12.070,judgeSpeechMusic_20210519_logNormShiftAmp_mXs,2020.1.2,MacIntel,60,,,,,,,,,,,,,,,,,,,,,,,,,,
3,1,0.472355,0,3,3,0,1,stimuli/screen_antiphase.wav,stimuli/screen_origin.wav,stimuli/screen_quiet.wav,3,41103,2021-05-24_21h41.12.070,judgeSpeechMusic_20210519_logNormShiftAmp_mXs,2020.1.2,MacIntel,60,,,,,,,,,,,,,,,,,,,,,,,,,,
2,1,0.383675,0,4,4,1,1,stimuli/screen_antiphase.wav,stimuli/screen_quiet.wav,stimuli/screen_origin.wav,2,41103,2021-05-24_21h41.12.070,judgeSpeechMusic_20210519_logNormShiftAmp_mXs,2020.1.2,MacIntel,60,,,,,,,,,,,,,,,,,,,,,,,,,,
1,1,0.369075,0,5,5,5,1,stimuli/screen_quiet.wav,stimuli/screen_origin.wav,stimuli/screen_antiphase.wav,1,41103,2021-05-24_21h41.12.070,judgeSpeechMusic_20210519_logNormShiftAmp_mXs,2020.1.2,MacIntel,60,,,,,,,,,,,,,,,,,,,,,,,,,,
,,,,,,,,,,,,41103,2021-05-24_21h41.12.070,judgeSpeechMusic_20210519_logNormShiftAmp_mXs,2020.1.2,MacIntel,60,1,11.257465,,0,0,0,0,1,1,stimuli/stim_20210519_power2amp/equal_lnn_AM_training1.5Hz_s50.m4a,,,,,,,,,,,,,,,,
,,,,,,,,,,,,41103,2021-05-24_21h41.12.070,judgeSpeechMusic_20210519_logNormShiftAmp_mXs,2020.1.2,MacIntel,60,1,6.39299,,0,0,1,1,3,1,stimuli/stim_20210519_power2amp/equal_lnn_AM_training3.5Hz_s50.m4a,,,,,,,,,,,,,,,,
,,,,,,,,,,,,41103,2021-05-24_21h41.12.070,judgeSpeechMusic_20210519_logNormShiftAmp_mXs,2020.1.2,MacIntel,60,1,6.26098,4,1,0,2,2,0,1,stimuli/stim_20210519_power2amp/equal_lnn_AM_training1.5Hz_s20.m4a,4.36123,,,,,,,,,,,,,,,
,,,,,,,,,,,,41103,2021-05-24_21h41.12.070,judgeSpeechMusic_20210519_logNormShiftAmp_mXs,2020.1.2,MacIntel,60,1,7.72655,,0,0,3,3,2,1,stimuli/stim_20210519_power2amp/equal_lnn_AM_training3.5Hz_s20.m4a,,,,,,,,,,,,,,,,
,,,,,,,,,,,,41103,2021-05-24_21h41.12.070,judgeSpeechMusic_20210519_logNormShiftAmp_mXs,2020.1.2,MacIntel,60,,,,,,,,,,,,space,5.21474,1,8.428995,,0,0,0,0,50,1,stimuli/stim_20210519_power2amp/equal_lnn_AM2.5Hz_s15_33.m4a,,,
,,,,,,,,,,,,41103,2021-05-24_21h41.12.070,judgeSpeechMusic_20210519_logNormShiftAmp_mXs,2020.1.2,MacIntel,60,,,,,,,,,,,,,,1,8.005,,0,0,1,1,79,1,stimuli/stim_20210519_power2amp/equal_lnn_AM2.5Hz_s35_45.m4a,,,
,,,,,,,,,,,,41103,2021-05-24_21h41.12.070,judgeSpeechMusic_20210519_logNormShiftAmp_mXs,2020.1.2,MacIntel,60,,,,,,,,,,,,,,1,6.391765,,0,0,2,2,0,1,stimuli/stim_20210519_power2amp/equal_lnn_AM1Hz_s15_7.m4a,,,
,,,,,,,,,,,,41103,2021-05-24_21h41.12.070,judgeSpeechMusic_20210519_logNormShiftAmp_mXs,2020.1.2,MacIntel,60,,,,,,,,,,,,,,1,6.29531,,0,0,3,3,63,1,stimuli/stim_20210519_power2amp/equal_lnn_AM2.5Hz_s25_41.m4a,,,
,,,,,,,,,,,,41103,2021-05-24_21h41.12.070,judgeSpeechMusic_20210519_logNormShiftAmp_mXs,2020.1.2,MacIntel,60,,,,,,,,,,,,,,1,6.64096,,0,0,4,4,71,1,stimuli/stim_20210519_power2amp/equal_lnn_AM2.5Hz_s35_33.m4a,,,
,,,,,,,,,,,,41103,2021-05-24_21h41.12.070,judgeSpeechMusic_20210519_logNormShiftAmp_mXs,2020.1.2,MacIntel,60,,,,,,,,,,,,,,1,5.85402,,0,0,5,5,97,1,stimuli/stim_20210519_power2amp/equal_lnn_AM2.5Hz_s55_29.m4a,,,
,,,,,,,,,,,,41103,2021-05-24_21h41.12.070,judgeSpeechMusic_20210519_logNormShiftAmp_mXs,2020.1.2,MacIntel,60,,,,,,,,,,,,,,1,5.876055,,0,0,6,6,59,1,stimuli/stim_20210519_power2amp/equal_lnn_AM2.5Hz_s15_24.m4a,,,
,,,,,,,,,,,,41103,2021-05-24_21h41.12.070,judgeSpeechMusic_20210519_logNormShiftAmp_mXs,2020.1.2,MacIntel,60,,,,,,,,,,,,,,1,6.157595,,0,0,7,7,60,1,stimuli/stim_20210519_power2amp/equal_lnn_AM2.5Hz_s25_17.m4a,,,
,,,,,,,,,,,,41103,2021-05-24_21h41.12.070,judgeSpeechMusic_20210519_logNormShiftAmp_mXs,2020.1.2,MacIntel,60,,,,,,,,,,,,,,1,5.943345,,0,0,8,8,30,1,stimuli/stim_20210519_power2amp/equal_lnn_AM1Hz_s45_19.m4a,,,
,,,,,,,,,,,,41103,2021-05-24_21h41.12.070,judgeSpeechMusic_20210519_logNormShiftAmp_mXs,2020.1.2,MacIntel,60,,,,,,,,,,,,,,1,5.929365,,0,0,9,9,87,1,stimuli/stim_20210519_power2amp/equal_lnn_AM2.5Hz_s45_48.m4a,,,
,,,,,,,,,,,,41103,2021-05-24_21h41.12.070,judgeSpeechMusic_20210519_logNormShiftAmp_mXs,2020.1.2,MacIntel,60,,,,,,,,,,,,,,1,6.77468,,0,0,10,10,5,1,stimuli/stim_20210519_power2amp/equal_lnn_AM1Hz_s15_16.m4a,,,
,,,,,,,,,,,,41103,2021-05-24_21h41.12.070,judgeSpeechMusic_20210519_logNormShiftAmp_mXs,2020.1.2,MacIntel,60,,,,,,,,,,,,,,1,6.92471,,0,0,11,11,34,1,stimuli/stim_20210519_power2amp/equal_lnn_AM1Hz_s45_46.m4a,,,
,,,,,,,,,,,,41103,2021-05-24_21h41.12.070,judgeSpeechMusic_20210519_logNormShiftAmp_mXs,2020.1.2,MacIntel,60,,,,,,,,,,,,,,1,5.960455,,0,0,12,12,102,1,stimuli/stim_20210519_power2amp/equal_lnn_AM4Hz_s15_23.m4a,,,
,,,,,,,,,,,,41103,2021-05-24_21h41.12.070,judgeSpeechMusic_20210519_logNormShiftAmp_mXs,2020.1.2,MacIntel,60,,,,,,,,,,,,,,1,5.8634,,0,0,13,13,48,1,stimuli/stim_20210519_power2amp/equal_lnn_AM1Hz_s55_40.m4a,,,
,,,,,,,,,,,,41103,2021-05-24_21h41.12.070,judgeSpeechMusic_20210519_logNormShiftAmp_mXs,2020.1.2,MacIntel,60,,,,,,,,,,,,,,1,6.07566,,0,0,14,14,138,1,stimuli/stim_20210519_power2amp/equal_lnn_AM4Hz_s45_40.m4a,,,
,,,,,,,,,,,,41103,2021-05-24_21h41.12.070,judgeSpeechMusic_20210519_logNormShiftAmp_mXs,2020.1.2,MacIntel,60,,,,,,,,,,,,,,1,6.97646,,0,0,15,15,47,1,stimuli/stim_20210519_power2amp/equal_lnn_AM1Hz_s55_46.m4a,,,
,,,,,,,,,,,,41103,2021-05-24_21h41.12.070,judgeSpeechMusic_20210519_logNormShiftAmp_mXs,2020.1.2,MacIntel,60,,,,,,,,,,,,,,1,5.69306,,0,0,16,16,70,1,stimuli/stim_20210519_power2amp/equal_lnn_AM2.5Hz_s35_40.m4a,,,
,,,,,,,,,,,,41103,2021-05-24_21h41.12.070,judgeSpeechMusic_20210519_logNormShiftAmp_mXs,2020.1.2,MacIntel,60,,,,,,,,,,,,,,1,6.49367,,0,0,17,17,118,1,stimuli/stim_20210519_power2amp/equal_lnn_AM4Hz_s25_50.m4a,,,
,,,,,,,,,,,,41103,2021-05-24_21h41.12.070,judgeSpeechMusic_20210519_logNormShiftAmp_mXs,2020.1.2,MacIntel,60,,,,,,,,,,,,,,2,7.46114,,0,0,18,18,142,1,stimuli/stim_20210519_power2amp/equal_lnn_AM4Hz_s55_45.m4a,,,
,,,,,,,,,,,,41103,2021-05-24_21h41.12.070,judgeSpeechMusic_20210519_logNormShiftAmp_mXs,2020.1.2,MacIntel,60,,,,,,,,,,,,,,2,5.876845,,0,0,19,19,123,1,stimuli/stim_20210519_power2amp/equal_lnn_AM4Hz_s35_32.m4a,,,
,,,,,,,,,,,,41103,2021-05-24_21h41.12.070,judgeSpeechMusic_20210519_logNormShiftAmp_mXs,2020.1.2,MacIntel,60,,,,,,,,,,,,,,2,6.12527,,0,0,20,20,31,1,stimuli/stim_20210519_power2amp/equal_lnn_AM1Hz_s45_3.m4a,,,
,,,,,,,,,,,,41103,2021-05-24_21h41.12.070,judgeSpeechMusic_20210519_logNormShiftAmp_mXs,2020.1.2,MacIntel,60,,,,,,,,,,,,,,1,5.92978,,0,0,21,21,132,1,stimuli/stim_20210519_power2amp/equal_lnn_AM4Hz_s45_44.m4a,,,
,,,,,,,,,,,,41103,2021-05-24_21h41.12.070,judgeSpeechMusic_20210519_logNormShiftAmp_mXs,2020.1.2,MacIntel,60,,,,,,,,,,,,,,2,6.125225,,0,0,22,22,125,1,stimuli/stim_20210519_power2amp/equal_lnn_AM4Hz_s35_24.m4a,,,
,,,,,,,,,,,,41103,2021-05-24_21h41.12.070,judgeSpeechMusic_20210519_logNormShiftAmp_mXs,2020.1.2,MacIntel,60,,,,,,,,,,,,,,2,7.6114,,0,0,23,23,100,1,stimuli/stim_20210519_power2amp/equal_lnn_AM4Hz_s15_41.m4a,,,
,,,,,,,,,,,,41103,2021-05-24_21h41.12.070,judgeSpeechMusic_20210519_logNormShiftAmp_mXs,2020.1.2,MacIntel,60,,,,,,,,,,,,,,2,5.747155,,0,0,24,24,135,1,stimuli/stim_20210519_power2amp/equal_lnn_AM4Hz_s45_11.m4a,,,
,,,,,,,,,,,,41103,2021-05-24_21h41.12.070,judgeSpeechMusic_20210519_logNormShiftAmp_mXs,2020.1.2,MacIntel,60,,,,,,,,,,,,,,2,5.72405,,0,0,25,25,46,1,stimuli/stim_20210519_power2amp/equal_lnn_AM1Hz_s55_39.m4a,,,
,,,,,,,,,,,,41103,2021-05-24_21h41.12.070,judgeSpeechMusic_20210519_logNormShiftAmp_mXs,2020.1.2,MacIntel,60,,,,,,,,,,,,,,2,7.511915,,0,0,26,26,55,1,stimuli/stim_20210519_power2amp/equal_lnn_AM2.5Hz_s15_5.m4a,,,
,,,,,,,,,,,,41103,2021-05-24_21h41.12.070,judgeSpeechMusic_20210519_logNormShiftAmp_mXs,2020.1.2,MacIntel,60,,,,,,,,,,,,,,2,5.825335,,0,0,27,27,93,1,stimuli/stim_20210519_power2amp/equal_lnn_AM2.5Hz_s55_21.m4a,,,
,,,,,,,,,,,,41103,2021-05-24_21h41.12.070,judgeSpeechMusic_20210519_logNormShiftAmp_mXs,2020.1.2,MacIntel,60,,,,,,,,,,,,,,2,6.92527,,0,0,28,28,113,1,stimuli/stim_20210519_power2amp/equal_lnn_AM4Hz_s25_5.m4a,,,
,,,,,,,,,,,,41103,2021-05-24_21h41.12.070,judgeSpeechMusic_20210519_logNormShiftAmp_mXs,2020.1.2,MacIntel,60,,,,,,,,,,,,,,2,11.541315,,0,0,29,29,28,1,stimuli/stim_20210519_power2amp/equal_lnn_AM1Hz_s35_34.m4a,,,
,,,,,,,,,,,,41103,2021-05-24_21h41.12.070,judgeSpeechMusic_20210519_logNormShiftAmp_mXs,2020.1.2,MacIntel,60,,,,,,,,,,,,,,2,24.85607,,0,0,30,30,146,1,stimuli/stim_20210519_power2amp/equal_lnn_AM4Hz_s55_33.m4a,,,
,,,,,,,,,,,,41103,2021-05-24_21h41.12.070,judgeSpeechMusic_20210519_logNormShiftAmp_mXs,2020.1.2,MacIntel,60,,,,,,,,,,,,,,2,12.36122,,0,0,31,31,111,1,stimuli/stim_20210519_power2amp/equal_lnn_AM4Hz_s25_1.m4a,,,
,,,,,,,,,,,,41103,2021-05-24_21h41.12.070,judgeSpeechMusic_20210519_logNormShiftAmp_mXs,2020.1.2,MacIntel,60,,,,,,,,,,,,,,2,5.657735,,0,0,32,32,107,1,stimuli/stim_20210519_power2amp/equal_lnn_AM4Hz_s15_26.m4a,,,
,,,,,,,,,,,,41103,2021-05-24_21h41.12.070,judgeSpeechMusic_20210519_logNormShiftAmp_mXs,2020.1.2,MacIntel,60,,,,,,,,,,,,,,2,5.740885,,0,0,33,33,6,1,stimuli/stim_20210519_power2amp/equal_lnn_AM1Hz_s15_45.m4a,,,
,,,,,,,,,,,,41103,2021-05-24_21h41.12.070,judgeSpeechMusic_20210519_logNormShiftAmp_mXs,2020.1.2,MacIntel,60,,,,,,,,,,,,,,2,12.54129,,0,0,34,34,96,1,stimuli/stim_20210519_power2amp/equal_lnn_AM2.5Hz_s55_34.m4a,,,
,,,,,,,,,,,,41103,2021-05-24_21h41.12.070,judgeSpeechMusic_20210519_logNormShiftAmp_mXs,2020.1.2,MacIntel,60,,,,,,,,,,,,,,2,6.15935,,0,0,35,35,76,1,stimuli/stim_20210519_power2amp/equal_lnn_AM2.5Hz_s35_14.m4a,,,
,,,,,,,,,,,,41103,2021-05-24_21h41.12.070,judgeSpeechMusic_20210519_logNormShiftAmp_mXs,2020.1.2,MacIntel,60,,,,,,,,,,,,,,2,6.20177,,0,0,36,36,83,1,stimuli/stim_20210519_power2amp/equal_lnn_AM2.5Hz_s45_36.m4a,,,
,,,,,,,,,,,,41103,2021-05-24_21h41.12.070,judgeSpeechMusic_20210519_logNormShiftAmp_mXs,2020.1.2,MacIntel,60,,,,,,,,,,,,,,2,9.226245,,0,0,37,37,23,1,stimuli/stim_20210519_power2amp/equal_lnn_AM1Hz_s35_24.m4a,,,
,,,,,,,,,,,,41103,2021-05-24_21h41.12.070,judgeSpeechMusic_20210519_logNormShiftAmp_mXs,2020.1.2,MacIntel,60,,,,,,,,,,,,,,2,7.54412,1,1,0,38,38,12,1,stimuli/stim_20210519_power2amp/equal_lnn_AM1Hz_s25_41.m4a,1.48002,,
,,,,,,,,,,,,41103,2021-05-24_21h41.12.070,judgeSpeechMusic_20210519_logNormShiftAmp_mXs,2020.1.2,MacIntel,60,,,,,,,,,,,,,,1,6.270545,,0,0,39,39,56,1,stimuli/stim_20210519_power2amp/equal_lnn_AM2.5Hz_s15_42.m4a,,,
,,,,,,,,,,,,41103,2021-05-24_21h41.12.070,judgeSpeechMusic_20210519_logNormShiftAmp_mXs,2020.1.2,MacIntel,60,,,,,,,,,,,,,,1,7.17765,,0,0,40,40,129,1,stimuli/stim_20210519_power2amp/equal_lnn_AM4Hz_s35_15.m4a,,,
,,,,,,,,,,,,41103,2021-05-24_21h41.12.070,judgeSpeechMusic_20210519_logNormShiftAmp_mXs,2020.1.2,MacIntel,60,,,,,,,,,,,,,,2,6.472405,,0,0,41,41,16,1,stimuli/stim_20210519_power2amp/equal_lnn_AM1Hz_s25_23.m4a,,,
,,,,,,,,,,,,41103,2021-05-24_21h41.12.070,judgeSpeechMusic_20210519_logNormShiftAmp_mXs,2020.1.2,MacIntel,60,,,,,,,,,,,,,,1,5.676125,,0,0,42,42,133,1,stimuli/stim_20210519_power2amp/equal_lnn_AM4Hz_s45_21.m4a,,,
,,,,,,,,,,,,41103,2021-05-24_21h41.12.070,judgeSpeechMusic_20210519_logNormShiftAmp_mXs,2020.1.2,MacIntel,60,,,,,,,,,,,,,,1,6.443215,,0,0,43,43,26,1,stimuli/stim_20210519_power2amp/equal_lnn_AM1Hz_s35_9.m4a,,,
,,,,,,,,,,,,41103,2021-05-24_21h41.12.070,judgeSpeechMusic_20210519_logNormShiftAmp_mXs,2020.1.2,MacIntel,60,,,,,,,,,,,,,,2,6.52718,,0,0,44,44,38,1,stimuli/stim_20210519_power2amp/equal_lnn_AM1Hz_s45_34.m4a,,,
,,,,,,,,,,,,41103,2021-05-24_21h41.12.070,judgeSpeechMusic_20210519_logNormShiftAmp_mXs,2020.1.2,MacIntel,60,,,,,,,,,,,,,,1,5.563865,,0,0,45,45,109,1,stimuli/stim_20210519_power2amp/equal_lnn_AM4Hz_s15_5.m4a,,,
,,,,,,,,,,,,41103,2021-05-24_21h41.12.070,judgeSpeechMusic_20210519_logNormShiftAmp_mXs,2020.1.2,MacIntel,60,,,,,,,,,,,,,,1,5.624245,,0,0,46,46,62,1,stimuli/stim_20210519_power2amp/equal_lnn_AM2.5Hz_s25_15.m4a,,,
,,,,,,,,,,,,41103,2021-05-24_21h41.12.070,judgeSpeechMusic_20210519_logNormShiftAmp_mXs,2020.1.2,MacIntel,60,,,,,,,,,,,,,,1,5.705585,,0,0,47,47,7,1,stimuli/stim_20210519_power2amp/equal_lnn_AM1Hz_s15_6.m4a,,,
,,,,,,,,,,,,41103,2021-05-24_21h41.12.070,judgeSpeechMusic_20210519_logNormShiftAmp_mXs,2020.1.2,MacIntel,60,,,,,,,,,,,,,,1,7.27716,,0,0,48,48,42,1,stimuli/stim_20210519_power2amp/equal_lnn_AM1Hz_s55_1.m4a,,,
,,,,,,,,,,,,41103,2021-05-24_21h41.12.070,judgeSpeechMusic_20210519_logNormShiftAmp_mXs,2020.1.2,MacIntel,60,,,,,,,,,,,,,,1,5.2609,,0,0,49,49,33,1,stimuli/stim_20210519_power2amp/equal_lnn_AM1Hz_s45_15.m4a,,,
,,,,,,,,,,,,41103,2021-05-24_21h41.12.070,judgeSpeechMusic_20210519_logNormShiftAmp_mXs,2020.1.2,MacIntel,60,,,,,,,,,,,,,,2,6.79137,,0,0,50,50,72,1,stimuli/stim_20210519_power2amp/equal_lnn_AM2.5Hz_s35_21.m4a,,,
,,,,,,,,,,,,41103,2021-05-24_21h41.12.070,judgeSpeechMusic_20210519_logNormShiftAmp_mXs,2020.1.2,MacIntel,60,,,,,,,,,,,,,,1,5.55944,,0,0,51,51,115,1,stimuli/stim_20210519_power2amp/equal_lnn_AM4Hz_s25_34.m4a,,,
,,,,,,,,,,,,41103,2021-05-24_21h41.12.070,judgeSpeechMusic_20210519_logNormShiftAmp_mXs,2020.1.2,MacIntel,60,,,,,,,,,,,,,,1,5.590605,,0,0,52,52,15,1,stimuli/stim_20210519_power2amp/equal_lnn_AM1Hz_s25_8.m4a,,,
,,,,,,,,,,,,41103,2021-05-24_21h41.12.070,judgeSpeechMusic_20210519_logNormShiftAmp_mXs,2020.1.2,MacIntel,60,,,,,,,,,,,,,,1,5.61234,,0,0,53,53,134,1,stimuli/stim_20210519_power2amp/equal_lnn_AM4Hz_s45_31.m4a,,,
,,,,,,,,,,,,41103,2021-05-24_21h41.12.070,judgeSpeechMusic_20210519_logNormShiftAmp_mXs,2020.1.2,MacIntel,60,,,,,,,,,,,,,,2,5.82846,,0,0,54,54,51,1,stimuli/stim_20210519_power2amp/equal_lnn_AM2.5Hz_s15_4.m4a,,,
,,,,,,,,,,,,41103,2021-05-24_21h41.12.070,judgeSpeechMusic_20210519_logNormShiftAmp_mXs,2020.1.2,MacIntel,60,,,,,,,,,,,,,,1,6.025255,,0,0,55,55,73,1,stimuli/stim_20210519_power2amp/equal_lnn_AM2.5Hz_s35_20.m4a,,,
,,,,,,,,,,,,41103,2021-05-24_21h41.12.070,judgeSpeechMusic_20210519_logNormShiftAmp_mXs,2020.1.2,MacIntel,60,,,,,,,,,,,,,,2,5.82185,,0,0,56,56,143,1,stimuli/stim_20210519_power2amp/equal_lnn_AM4Hz_s55_25.m4a,,,
,,,,,,,,,,,,41103,2021-05-24_21h41.12.070,judgeSpeechMusic_20210519_logNormShiftAmp_mXs,2020.1.2,MacIntel,60,,,,,,,,,,,,,,1,5.341485,,0,0,57,57,69,1,stimuli/stim_20210519_power2amp/equal_lnn_AM2.5Hz_s25_14.m4a,,,
,,,,,,,,,,,,41103,2021-05-24_21h41.12.070,judgeSpeechMusic_20210519_logNormShiftAmp_mXs,2020.1.2,MacIntel,60,,,,,,,,,,,,,,2,5.71177,,0,0,58,58,86,1,stimuli/stim_20210519_power2amp/equal_lnn_AM2.5Hz_s45_6.m4a,,,
,,,,,,,,,,,,41103,2021-05-24_21h41.12.070,judgeSpeechMusic_20210519_logNormShiftAmp_mXs,2020.1.2,MacIntel,60,,,,,,,,,,,,,,2,5.30804,1,1,0,59,59,140,1,stimuli/stim_20210519_power2amp/equal_lnn_AM4Hz_s55_47.m4a,0.76124,,
,,,,,,,,,,,,41103,2021-05-24_21h41.12.070,judgeSpeechMusic_20210519_logNormShiftAmp_mXs,2020.1.2,MacIntel,60,,,,,,,,,,,,,,2,5.51129,,0,0,60,60,75,1,stimuli/stim_20210519_power2amp/equal_lnn_AM2.5Hz_s35_15.m4a,,,
,,,,,,,,,,,,41103,2021-05-24_21h41.12.070,judgeSpeechMusic_20210519_logNormShiftAmp_mXs,2020.1.2,MacIntel,60,,,,,,,,,,,,,,2,5.403785,,0,0,61,61,128,1,stimuli/stim_20210519_power2amp/equal_lnn_AM4Hz_s35_1.m4a,,,
,,,,,,,,,,,,41103,2021-05-24_21h41.12.070,judgeSpeechMusic_20210519_logNormShiftAmp_mXs,2020.1.2,MacIntel,60,,,,,,,,,,,,,,2,5.94505,,0,0,62,62,130,1,stimuli/stim_20210519_power2amp/equal_lnn_AM4Hz_s45_30.m4a,,,
,,,,,,,,,,,,41103,2021-05-24_21h41.12.070,judgeSpeechMusic_20210519_logNormShiftAmp_mXs,2020.1.2,MacIntel,60,,,,,,,,,,,,,,2,5.80391,,0,0,63,63,126,1,stimuli/stim_20210519_power2amp/equal_lnn_AM4Hz_s35_40.m4a,,,
,,,,,,,,,,,,41103,2021-05-24_21h41.12.070,judgeSpeechMusic_20210519_logNormShiftAmp_mXs,2020.1.2,MacIntel,60,,,,,,,,,,,,,,1,5.62521,,0,0,64,64,3,1,stimuli/stim_20210519_power2amp/equal_lnn_AM1Hz_s15_35.m4a,,,
,,,,,,,,,,,,41103,2021-05-24_21h41.12.070,judgeSpeechMusic_20210519_logNormShiftAmp_mXs,2020.1.2,MacIntel,60,,,,,,,,,,,,,,2,6.14441,,0,0,65,65,27,1,stimuli/stim_20210519_power2amp/equal_lnn_AM1Hz_s35_11.m4a,,,
,,,,,,,,,,,,41103,2021-05-24_21h41.12.070,judgeSpeechMusic_20210519_logNormShiftAmp_mXs,2020.1.2,MacIntel,60,,,,,,,,,,,,,,2,5.340665,,0,0,66,66,85,1,stimuli/stim_20210519_power2amp/equal_lnn_AM2.5Hz_s45_17.m4a,,,
,,,,,,,,,,,,41103,2021-05-24_21h41.12.070,judgeSpeechMusic_20210519_logNormShiftAmp_mXs,2020.1.2,MacIntel,60,,,,,,,,,,,,,,2,5.24082,,0,0,67,67,95,1,stimuli/stim_20210519_power2amp/equal_lnn_AM2.5Hz_s55_32.m4a,,,
,,,,,,,,,,,,41103,2021-05-24_21h41.12.070,judgeSpeechMusic_20210519_logNormShiftAmp_mXs,2020.1.2,MacIntel,60,,,,,,,,,,,,,,2,5.445115,,0,0,68,68,121,1,stimuli/stim_20210519_power2amp/equal_lnn_AM4Hz_s35_4.m4a,,,
,,,,,,,,,,,,41103,2021-05-24_21h41.12.070,judgeSpeechMusic_20210519_logNormShiftAmp_mXs,2020.1.2,MacIntel,60,,,,,,,,,,,,,,2,6.44511,,0,0,69,69,99,1,stimuli/stim_20210519_power2amp/equal_lnn_AM2.5Hz_s55_24.m4a,,,
,,,,,,,,,,,,41103,2021-05-24_21h41.12.070,judgeSpeechMusic_20210519_logNormShiftAmp_mXs,2020.1.2,MacIntel,60,,,,,,,,,,,,,,1,6.346485,,0,0,70,70,9,1,stimuli/stim_20210519_power2amp/equal_lnn_AM1Hz_s15_15.m4a,,,
,,,,,,,,,,,,41103,2021-05-24_21h41.12.070,judgeSpeechMusic_20210519_logNormShiftAmp_mXs,2020.1.2,MacIntel,60,,,,,,,,,,,,,,1,5.425905,,0,0,71,71,13,1,stimuli/stim_20210519_power2amp/equal_lnn_AM1Hz_s25_10.m4a,,,
,,,,,,,,,,,,41103,2021-05-24_21h41.12.070,judgeSpeechMusic_20210519_logNormShiftAmp_mXs,2020.1.2,MacIntel,60,,,,,,,,,,,,,,2,6.06006,,0,0,72,72,53,1,stimuli/stim_20210519_power2amp/equal_lnn_AM2.5Hz_s15_10.m4a,,,
,,,,,,,,,,,,41103,2021-05-24_21h41.12.070,judgeSpeechMusic_20210519_logNormShiftAmp_mXs,2020.1.2,MacIntel,60,,,,,,,,,,,,,,1,5.293995,,0,0,73,73,11,1,stimuli/stim_20210519_power2amp/equal_lnn_AM1Hz_s25_16.m4a,,,
,,,,,,,,,,,,41103,2021-05-24_21h41.12.070,judgeSpeechMusic_20210519_logNormShiftAmp_mXs,2020.1.2,MacIntel,60,,,,,,,,,,,,,,2,5.59432,,0,0,74,74,116,1,stimuli/stim_20210519_power2amp/equal_lnn_AM4Hz_s25_36.m4a,,,
,,,,,,,,,,,,41103,2021-05-24_21h41.12.070,judgeSpeechMusic_20210519_logNormShiftAmp_mXs,2020.1.2,MacIntel,60,,,,,,,,,,,,,,2,5.773785,,0,0,75,75,105,1,stimuli/stim_20210519_power2amp/equal_lnn_AM4Hz_s15_36.m4a,,,
,,,,,,,,,,,,41103,2021-05-24_21h41.12.070,judgeSpeechMusic_20210519_logNormShiftAmp_mXs,2020.1.2,MacIntel,60,,,,,,,,,,,,,,1,5.24049,,0,0,76,76,40,1,stimuli/stim_20210519_power2amp/equal_lnn_AM1Hz_s55_45.m4a,,,
,,,,,,,,,,,,41103,2021-05-24_21h41.12.070,judgeSpeechMusic_20210519_logNormShiftAmp_mXs,2020.1.2,MacIntel,60,,,,,,,,,,,,,,2,5.930325,,0,0,77,77,120,1,stimuli/stim_20210519_power2amp/equal_lnn_AM4Hz_s35_42.m4a,,,
,,,,,,,,,,,,41103,2021-05-24_21h41.12.070,judgeSpeechMusic_20210519_logNormShiftAmp_mXs,2020.1.2,MacIntel,60,,,,,,,,,,,,,,1,5.687005,,0,0,78,78,49,1,stimuli/stim_20210519_power2amp/equal_lnn_AM1Hz_s55_6.m4a,,,
,,,,,,,,,,,,41103,2021-05-24_21h41.12.070,judgeSpeechMusic_20210519_logNormShiftAmp_mXs,2020.1.2,MacIntel,60,,,,,,,,,,,,,,1,5.80767,,0,0,79,79,81,1,stimuli/stim_20210519_power2amp/equal_lnn_AM2.5Hz_s45_5.m4a,,,
,,,,,,,,,,,,41103,2021-05-24_21h41.12.070,judgeSpeechMusic_20210519_logNormShiftAmp_mXs,2020.1.2,MacIntel,60,,,,,,,,,,,,,,2,6.62695,,0,0,80,80,106,1,stimuli/stim_20210519_power2amp/equal_lnn_AM4Hz_s15_38.m4a,,,
,,,,,,,,,,,,41103,2021-05-24_21h41.12.070,judgeSpeechMusic_20210519_logNormShiftAmp_mXs,2020.1.2,MacIntel,60,,,,,,,,,,,,,,1,6.429595,,0,0,81,81,54,1,stimuli/stim_20210519_power2amp/equal_lnn_AM2.5Hz_s15_39.m4a,,,
,,,,,,,,,,,,41103,2021-05-24_21h41.12.070,judgeSpeechMusic_20210519_logNormShiftAmp_mXs,2020.1.2,MacIntel,60,,,,,,,,,,,,,,2,5.6389,,0,0,82,82,67,1,stimuli/stim_20210519_power2amp/equal_lnn_AM2.5Hz_s25_45.m4a,,,
,,,,,,,,,,,,41103,2021-05-24_21h41.12.070,judgeSpeechMusic_20210519_logNormShiftAmp_mXs,2020.1.2,MacIntel,60,,,,,,,,,,,,,,1,5.92721,1,1,0,83,83,68,1,stimuli/stim_20210519_power2amp/equal_lnn_AM2.5Hz_s25_19.m4a,0.563315,,
,,,,,,,,,,,,41103,2021-05-24_21h41.12.070,judgeSpeechMusic_20210519_logNormShiftAmp_mXs,2020.1.2,MacIntel,60,,,,,,,,,,,,,,1,5.69468,,0,0,84,84,78,1,stimuli/stim_20210519_power2amp/equal_lnn_AM2.5Hz_s35_9.m4a,,,
,,,,,,,,,,,,41103,2021-05-24_21h41.12.070,judgeSpeechMusic_20210519_logNormShiftAmp_mXs,2020.1.2,MacIntel,60,,,,,,,,,,,,,,1,5.70589,,0,0,85,85,14,1,stimuli/stim_20210519_power2amp/equal_lnn_AM1Hz_s25_27.m4a,,,
,,,,,,,,,,,,41103,2021-05-24_21h41.12.070,judgeSpeechMusic_20210519_logNormShiftAmp_mXs,2020.1.2,MacIntel,60,,,,,,,,,,,,,,1,5.659085,,0,0,86,86,19,1,stimuli/stim_20210519_power2amp/equal_lnn_AM1Hz_s25_4.m4a,,,
,,,,,,,,,,,,41103,2021-05-24_21h41.12.070,judgeSpeechMusic_20210519_logNormShiftAmp_mXs,2020.1.2,MacIntel,60,,,,,,,,,,,,,,1,5.607885,,0,0,87,87,25,1,stimuli/stim_20210519_power2amp/equal_lnn_AM1Hz_s35_3.m4a,,,
,,,,,,,,,,,,41103,2021-05-24_21h41.12.070,judgeSpeechMusic_20210519_logNormShiftAmp_mXs,2020.1.2,MacIntel,60,,,,,,,,,,,,,,1,6.140645,,0,0,88,88,43,1,stimuli/stim_20210519_power2amp/equal_lnn_AM1Hz_s55_20.m4a,,,
,,,,,,,,,,,,41103,2021-05-24_21h41.12.070,judgeSpeechMusic_20210519_logNormShiftAmp_mXs,2020.1.2,MacIntel,60,,,,,,,,,,,,,,1,5.90098,,0,0,89,89,8,1,stimuli/stim_20210519_power2amp/equal_lnn_AM1Hz_s15_41.m4a,,,
,,,,,,,,,,,,41103,2021-05-24_21h41.12.070,judgeSpeechMusic_20210519_logNormShiftAmp_mXs,2020.1.2,MacIntel,60,,,,,,,,,,,,,,1,6.023075,,0,0,90,90,104,1,stimuli/stim_20210519_power2amp/equal_lnn_AM4Hz_s15_30.m4a,,,
,,,,,,,,,,,,41103,2021-05-24_21h41.12.070,judgeSpeechMusic_20210519_logNormShiftAmp_mXs,2020.1.2,MacIntel,60,,,,,,,,,,,,,,1,5.645455,,0,0,91,91,21,1,stimuli/stim_20210519_power2amp/equal_lnn_AM1Hz_s35_28.m4a,,,
,,,,,,,,,,,,41103,2021-05-24_21h41.12.070,judgeSpeechMusic_20210519_logNormShiftAmp_mXs,2020.1.2,MacIntel,60,,,,,,,,,,,,,,1,5.89132,,0,0,92,92,37,1,stimuli/stim_20210519_power2amp/equal_lnn_AM1Hz_s45_31.m4a,,,
,,,,,,,,,,,,41103,2021-05-24_21h41.12.070,judgeSpeechMusic_20210519_logNormShiftAmp_mXs,2020.1.2,MacIntel,60,,,,,,,,,,,,,,1,5.84488,,0,0,93,93,147,1,stimuli/stim_20210519_power2amp/equal_lnn_AM4Hz_s55_37.m4a,,,
,,,,,,,,,,,,41103,2021-05-24_21h41.12.070,judgeSpeechMusic_20210519_logNormShiftAmp_mXs,2020.1.2,MacIntel,60,,,,,,,,,,,,,,1,5.575445,,0,0,94,94,94,1,stimuli/stim_20210519_power2amp/equal_lnn_AM2.5Hz_s55_40.m4a,,,
,,,,,,,,,,,,41103,2021-05-24_21h41.12.070,judgeSpeechMusic_20210519_logNormShiftAmp_mXs,2020.1.2,MacIntel,60,,,,,,,,,,,,,,2,5.827095,,0,0,95,95,148,1,stimuli/stim_20210519_power2amp/equal_lnn_AM4Hz_s55_9.m4a,,,
,,,,,,,,,,,,41103,2021-05-24_21h41.12.070,judgeSpeechMusic_20210519_logNormShiftAmp_mXs,2020.1.2,MacIntel,60,,,,,,,,,,,,,,1,5.26122,,0,0,96,96,117,1,stimuli/stim_20210519_power2amp/equal_lnn_AM4Hz_s25_3.m4a,,,
,,,,,,,,,,,,41103,2021-05-24_21h41.12.070,judgeSpeechMusic_20210519_logNormShiftAmp_mXs,2020.1.2,MacIntel,60,,,,,,,,,,,,,,2,7.057795,,0,0,97,97,66,1,stimuli/stim_20210519_power2amp/equal_lnn_AM2.5Hz_s25_27.m4a,,,
,,,,,,,,,,,,41103,2021-05-24_21h41.12.070,judgeSpeechMusic_20210519_logNormShiftAmp_mXs,2020.1.2,MacIntel,60,,,,,,,,,,,,,,2,5.59317,,0,0,98,98,145,1,stimuli/stim_20210519_power2amp/equal_lnn_AM4Hz_s55_10.m4a,,,
,,,,,,,,,,,,41103,2021-05-24_21h41.12.070,judgeSpeechMusic_20210519_logNormShiftAmp_mXs,2020.1.2,MacIntel,60,,,,,,,,,,,,,,1,5.94106,,0,0,99,99,61,1,stimuli/stim_20210519_power2amp/equal_lnn_AM2.5Hz_s25_39.m4a,,,
,,,,,,,,,,,,41103,2021-05-24_21h41.12.070,judgeSpeechMusic_20210519_logNormShiftAmp_mXs,2020.1.2,MacIntel,60,,,,,,,,,,,,,,1,6.191255,,0,0,100,100,144,1,stimuli/stim_20210519_power2amp/equal_lnn_AM4Hz_s55_48.m4a,,,
,,,,,,,,,,,,41103,2021-05-24_21h41.12.070,judgeSpeechMusic_20210519_logNormShiftAmp_mXs,2020.1.2,MacIntel,60,,,,,,,,,,,,,,1,5.63728,,0,0,101,101,17,1,stimuli/stim_20210519_power2amp/equal_lnn_AM1Hz_s25_14.m4a,,,
,,,,,,,,,,,,41103,2021-05-24_21h41.12.070,judgeSpeechMusic_20210519_logNormShiftAmp_mXs,2020.1.2,MacIntel,60,,,,,,,,,,,,,,1,6.77073,,0,0,102,102,2,1,stimuli/stim_20210519_power2amp/equal_lnn_AM1Hz_s15_19.m4a,,,
,,,,,,,,,,,,41103,2021-05-24_21h41.12.070,judgeSpeechMusic_20210519_logNormShiftAmp_mXs,2020.1.2,MacIntel,60,,,,,,,,,,,,,,1,5.5128,,0,0,103,103,136,1,stimuli/stim_20210519_power2amp/equal_lnn_AM4Hz_s45_38.m4a,,,
,,,,,,,,,,,,41103,2021-05-24_21h41.12.070,judgeSpeechMusic_20210519_logNormShiftAmp_mXs,2020.1.2,MacIntel,60,,,,,,,,,,,,,,1,6.30872,,0,0,104,104,32,1,stimuli/stim_20210519_power2amp/equal_lnn_AM1Hz_s45_49.m4a,,,
,,,,,,,,,,,,41103,2021-05-24_21h41.12.070,judgeSpeechMusic_20210519_logNormShiftAmp_mXs,2020.1.2,MacIntel,60,,,,,,,,,,,,,,1,5.29225,,0,0,105,105,20,1,stimuli/stim_20210519_power2amp/equal_lnn_AM1Hz_s35_27.m4a,,,
,,,,,,,,,,,,41103,2021-05-24_21h41.12.070,judgeSpeechMusic_20210519_logNormShiftAmp_mXs,2020.1.2,MacIntel,60,,,,,,,,,,,,,,2,5.6048,,0,0,106,106,141,1,stimuli/stim_20210519_power2amp/equal_lnn_AM4Hz_s55_24.m4a,,,
,,,,,,,,,,,,41103,2021-05-24_21h41.12.070,judgeSpeechMusic_20210519_logNormShiftAmp_mXs,2020.1.2,MacIntel,60,,,,,,,,,,,,,,1,6.548185,,0,0,107,107,90,1,stimuli/stim_20210519_power2amp/equal_lnn_AM2.5Hz_s55_42.m4a,,,
,,,,,,,,,,,,41103,2021-05-24_21h41.12.070,judgeSpeechMusic_20210519_logNormShiftAmp_mXs,2020.1.2,MacIntel,60,,,,,,,,,,,,,,1,5.591165,2,1,0,108,108,52,1,stimuli/stim_20210519_power2amp/equal_lnn_AM2.5Hz_s15_22.m4a,0.306735,,
,,,,,,,,,,,,41103,2021-05-24_21h41.12.070,judgeSpeechMusic_20210519_logNormShiftAmp_mXs,2020.1.2,MacIntel,60,,,,,,,,,,,,,,1,5.70964,,0,0,109,109,45,1,stimuli/stim_20210519_power2amp/equal_lnn_AM1Hz_s55_18.m4a,,,
,,,,,,,,,,,,41103,2021-05-24_21h41.12.070,judgeSpeechMusic_20210519_logNormShiftAmp_mXs,2020.1.2,MacIntel,60,,,,,,,,,,,,,,2,6.749345,,0,0,110,110,91,1,stimuli/stim_20210519_power2amp/equal_lnn_AM2.5Hz_s55_14.m4a,,,
,,,,,,,,,,,,41103,2021-05-24_21h41.12.070,judgeSpeechMusic_20210519_logNormShiftAmp_mXs,2020.1.2,MacIntel,60,,,,,,,,,,,,,,1,5.755915,,0,0,111,111,82,1,stimuli/stim_20210519_power2amp/equal_lnn_AM2.5Hz_s45_25.m4a,,,
,,,,,,,,,,,,41103,2021-05-24_21h41.12.070,judgeSpeechMusic_20210519_logNormShiftAmp_mXs,2020.1.2,MacIntel,60,,,,,,,,,,,,,,2,5.558995,,0,0,112,112,112,1,stimuli/stim_20210519_power2amp/equal_lnn_AM4Hz_s25_17.m4a,,,
,,,,,,,,,,,,41103,2021-05-24_21h41.12.070,judgeSpeechMusic_20210519_logNormShiftAmp_mXs,2020.1.2,MacIntel,60,,,,,,,,,,,,,,1,5.7564,,0,0,113,113,139,1,stimuli/stim_20210519_power2amp/equal_lnn_AM4Hz_s45_2.m4a,,,
,,,,,,,,,,,,41103,2021-05-24_21h41.12.070,judgeSpeechMusic_20210519_logNormShiftAmp_mXs,2020.1.2,MacIntel,60,,,,,,,,,,,,,,1,6.146055,,0,0,114,114,103,1,stimuli/stim_20210519_power2amp/equal_lnn_AM4Hz_s15_20.m4a,,,
,,,,,,,,,,,,41103,2021-05-24_21h41.12.070,judgeSpeechMusic_20210519_logNormShiftAmp_mXs,2020.1.2,MacIntel,60,,,,,,,,,,,,,,2,6.17517,,0,0,115,115,131,1,stimuli/stim_20210519_power2amp/equal_lnn_AM4Hz_s45_45.m4a,,,
,,,,,,,,,,,,41103,2021-05-24_21h41.12.070,judgeSpeechMusic_20210519_logNormShiftAmp_mXs,2020.1.2,MacIntel,60,,,,,,,,,,,,,,1,6.259965,,0,0,116,116,36,1,stimuli/stim_20210519_power2amp/equal_lnn_AM1Hz_s45_18.m4a,,,
,,,,,,,,,,,,41103,2021-05-24_21h41.12.070,judgeSpeechMusic_20210519_logNormShiftAmp_mXs,2020.1.2,MacIntel,60,,,,,,,,,,,,,,1,5.973625,,0,0,117,117,84,1,stimuli/stim_20210519_power2amp/equal_lnn_AM2.5Hz_s45_16.m4a,,,
,,,,,,,,,,,,41103,2021-05-24_21h41.12.070,judgeSpeechMusic_20210519_logNormShiftAmp_mXs,2020.1.2,MacIntel,60,,,,,,,,,,,,,,1,6.292465,,0,0,118,118,1,1,stimuli/stim_20210519_power2amp/equal_lnn_AM1Hz_s15_31.m4a,,,
,,,,,,,,,,,,41103,2021-05-24_21h41.12.070,judgeSpeechMusic_20210519_logNormShiftAmp_mXs,2020.1.2,MacIntel,60,,,,,,,,,,,,,,1,6.38791,,0,0,119,119,122,1,stimuli/stim_20210519_power2amp/equal_lnn_AM4Hz_s35_49.m4a,,,
,,,,,,,,,,,,41103,2021-05-24_21h41.12.070,judgeSpeechMusic_20210519_logNormShiftAmp_mXs,2020.1.2,MacIntel,60,,,,,,,,,,,,,,2,5.754385,,0,0,120,120,127,1,stimuli/stim_20210519_power2amp/equal_lnn_AM4Hz_s35_36.m4a,,,
,,,,,,,,,,,,41103,2021-05-24_21h41.12.070,judgeSpeechMusic_20210519_logNormShiftAmp_mXs,2020.1.2,MacIntel,60,,,,,,,,,,,,,,2,5.50677,,0,0,121,121,119,1,stimuli/stim_20210519_power2amp/equal_lnn_AM4Hz_s25_21.m4a,,,
,,,,,,,,,,,,41103,2021-05-24_21h41.12.070,judgeSpeechMusic_20210519_logNormShiftAmp_mXs,2020.1.2,MacIntel,60,,,,,,,,,,,,,,2,6.22538,,0,0,122,122,24,1,stimuli/stim_20210519_power2amp/equal_lnn_AM1Hz_s35_23.m4a,,,
,,,,,,,,,,,,41103,2021-05-24_21h41.12.070,judgeSpeechMusic_20210519_logNormShiftAmp_mXs,2020.1.2,MacIntel,60,,,,,,,,,,,,,,2,5.61045,,0,0,123,123,57,1,stimuli/stim_20210519_power2amp/equal_lnn_AM2.5Hz_s15_43.m4a,,,
,,,,,,,,,,,,41103,2021-05-24_21h41.12.070,judgeSpeechMusic_20210519_logNormShiftAmp_mXs,2020.1.2,MacIntel,60,,,,,,,,,,,,,,1,6.14326,,0,0,124,124,80,1,stimuli/stim_20210519_power2amp/equal_lnn_AM2.5Hz_s45_3.m4a,,,
,,,,,,,,,,,,41103,2021-05-24_21h41.12.070,judgeSpeechMusic_20210519_logNormShiftAmp_mXs,2020.1.2,MacIntel,60,,,,,,,,,,,,,,1,5.593635,,0,0,125,125,64,1,stimuli/stim_20210519_power2amp/equal_lnn_AM2.5Hz_s25_31.m4a,,,
,,,,,,,,,,,,41103,2021-05-24_21h41.12.070,judgeSpeechMusic_20210519_logNormShiftAmp_mXs,2020.1.2,MacIntel,60,,,,,,,,,,,,,,1,5.82687,,0,0,126,126,29,1,stimuli/stim_20210519_power2amp/equal_lnn_AM1Hz_s35_19.m4a,,,
,,,,,,,,,,,,41103,2021-05-24_21h41.12.070,judgeSpeechMusic_20210519_logNormShiftAmp_mXs,2020.1.2,MacIntel,60,,,,,,,,,,,,,,1,5.60744,,0,0,127,127,58,1,stimuli/stim_20210519_power2amp/equal_lnn_AM2.5Hz_s15_7.m4a,,,
,,,,,,,,,,,,41103,2021-05-24_21h41.12.070,judgeSpeechMusic_20210519_logNormShiftAmp_mXs,2020.1.2,MacIntel,60,,,,,,,,,,,,,,1,6.827,,0,0,128,128,65,1,stimuli/stim_20210519_power2amp/equal_lnn_AM2.5Hz_s25_43.m4a,,,
,,,,,,,,,,,,41103,2021-05-24_21h41.12.070,judgeSpeechMusic_20210519_logNormShiftAmp_mXs,2020.1.2,MacIntel,60,,,,,,,,,,,,,,1,5.75944,,0,0,129,129,44,1,stimuli/stim_20210519_power2amp/equal_lnn_AM1Hz_s55_8.m4a,,,
,,,,,,,,,,,,41103,2021-05-24_21h41.12.070,judgeSpeechMusic_20210519_logNormShiftAmp_mXs,2020.1.2,MacIntel,60,,,,,,,,,,,,,,1,7.79982,3,1,0,130,130,10,1,stimuli/stim_20210519_power2amp/equal_lnn_AM1Hz_s25_48.m4a,1.777755,,
,,,,,,,,,,,,41103,2021-05-24_21h41.12.070,judgeSpeechMusic_20210519_logNormShiftAmp_mXs,2020.1.2,MacIntel,60,,,,,,,,,,,,,,1,5.85525,,0,0,131,131,89,1,stimuli/stim_20210519_power2amp/equal_lnn_AM2.5Hz_s45_38.m4a,,,
,,,,,,,,,,,,41103,2021-05-24_21h41.12.070,judgeSpeechMusic_20210519_logNormShiftAmp_mXs,2020.1.2,MacIntel,60,,,,,,,,,,,,,,2,5.82524,,0,0,132,132,108,1,stimuli/stim_20210519_power2amp/equal_lnn_AM4Hz_s15_7.m4a,,,
,,,,,,,,,,,,41103,2021-05-24_21h41.12.070,judgeSpeechMusic_20210519_logNormShiftAmp_mXs,2020.1.2,MacIntel,60,,,,,,,,,,,,,,2,5.541795,,0,0,133,133,77,1,stimuli/stim_20210519_power2amp/equal_lnn_AM2.5Hz_s35_31.m4a,,,
,,,,,,,,,,,,41103,2021-05-24_21h41.12.070,judgeSpeechMusic_20210519_logNormShiftAmp_mXs,2020.1.2,MacIntel,60,,,,,,,,,,,,,,2,5.65925,,0,0,134,134,114,1,stimuli/stim_20210519_power2amp/equal_lnn_AM4Hz_s25_24.m4a,,,
,,,,,,,,,,,,41103,2021-05-24_21h41.12.070,judgeSpeechMusic_20210519_logNormShiftAmp_mXs,2020.1.2,MacIntel,60,,,,,,,,,,,,,,1,5.91009,,0,0,135,135,74,1,stimuli/stim_20210519_power2amp/equal_lnn_AM2.5Hz_s35_49.m4a,,,
,,,,,,,,,,,,41103,2021-05-24_21h41.12.070,judgeSpeechMusic_20210519_logNormShiftAmp_mXs,2020.1.2,MacIntel,60,,,,,,,,,,,,,,1,6.95912,,0,0,136,136,92,1,stimuli/stim_20210519_power2amp/equal_lnn_AM2.5Hz_s55_12.m4a,,,
,,,,,,,,,,,,41103,2021-05-24_21h41.12.070,judgeSpeechMusic_20210519_logNormShiftAmp_mXs,2020.1.2,MacIntel,60,,,,,,,,,,,,,,2,5.907495,,0,0,137,137,124,1,stimuli/stim_20210519_power2amp/equal_lnn_AM4Hz_s35_26.m4a,,,
,,,,,,,,,,,,41103,2021-05-24_21h41.12.070,judgeSpeechMusic_20210519_logNormShiftAmp_mXs,2020.1.2,MacIntel,60,,,,,,,,,,,,,,1,5.84218,,0,0,138,138,101,1,stimuli/stim_20210519_power2amp/equal_lnn_AM4Hz_s15_31.m4a,,,
,,,,,,,,,,,,41103,2021-05-24_21h41.12.070,judgeSpeechMusic_20210519_logNormShiftAmp_mXs,2020.1.2,MacIntel,60,,,,,,,,,,,,,,1,5.615365,,0,0,139,139,41,1,stimuli/stim_20210519_power2amp/equal_lnn_AM1Hz_s55_48.m4a,,,
,,,,,,,,,,,,41103,2021-05-24_21h41.12.070,judgeSpeechMusic_20210519_logNormShiftAmp_mXs,2020.1.2,MacIntel,60,,,,,,,,,,,,,,1,5.810305,,0,0,140,140,88,1,stimuli/stim_20210519_power2amp/equal_lnn_AM2.5Hz_s45_13.m4a,,,
,,,,,,,,,,,,41103,2021-05-24_21h41.12.070,judgeSpeechMusic_20210519_logNormShiftAmp_mXs,2020.1.2,MacIntel,60,,,,,,,,,,,,,,1,5.69097,,0,0,141,141,18,1,stimuli/stim_20210519_power2amp/equal_lnn_AM1Hz_s25_34.m4a,,,
,,,,,,,,,,,,41103,2021-05-24_21h41.12.070,judgeSpeechMusic_20210519_logNormShiftAmp_mXs,2020.1.2,MacIntel,60,,,,,,,,,,,,,,1,5.704785,,0,0,142,142,22,1,stimuli/stim_20210519_power2amp/equal_lnn_AM1Hz_s35_42.m4a,,,
,,,,,,,,,,,,41103,2021-05-24_21h41.12.070,judgeSpeechMusic_20210519_logNormShiftAmp_mXs,2020.1.2,MacIntel,60,,,,,,,,,,,,,,2,5.94208,,0,0,143,143,110,1,stimuli/stim_20210519_power2amp/equal_lnn_AM4Hz_s25_16.m4a,,,
,,,,,,,,,,,,41103,2021-05-24_21h41.12.070,judgeSpeechMusic_20210519_logNormShiftAmp_mXs,2020.1.2,MacIntel,60,,,,,,,,,,,,,,1,5.69201,,0,0,144,144,35,1,stimuli/stim_20210519_power2amp/equal_lnn_AM1Hz_s45_14.m4a,,,
,,,,,,,,,,,,41103,2021-05-24_21h41.12.070,judgeSpeechMusic_20210519_logNormShiftAmp_mXs,2020.1.2,MacIntel,60,,,,,,,,,,,,,,2,5.893415,,0,0,145,145,137,1,stimuli/stim_20210519_power2amp/equal_lnn_AM4Hz_s45_43.m4a,,,
,,,,,,,,,,,,41103,2021-05-24_21h41.12.070,judgeSpeechMusic_20210519_logNormShiftAmp_mXs,2020.1.2,MacIntel,60,,,,,,,,,,,,,,2,6.408715,,0,0,146,146,98,1,stimuli/stim_20210519_power2amp/equal_lnn_AM2.5Hz_s55_17.m4a,,,
,,,,,,,,,,,,41103,2021-05-24_21h41.12.070,judgeSpeechMusic_20210519_logNormShiftAmp_mXs,2020.1.2,MacIntel,60,,,,,,,,,,,,,,2,6.5768,,0,0,147,147,149,1,stimuli/stim_20210519_power2amp/equal_lnn_AM4Hz_s55_5.m4a,,,
,,,,,,,,,,,,41103,2021-05-24_21h41.12.070,judgeSpeechMusic_20210519_logNormShiftAmp_mXs,2020.1.2,MacIntel,60,,,,,,,,,,,,,,2,6.807295,,0,0,148,148,39,1,stimuli/stim_20210519_power2amp/equal_lnn_AM1Hz_s45_33.m4a,,,
,,,,,,,,,,,,41103,2021-05-24_21h41.12.070,judgeSpeechMusic_20210519_logNormShiftAmp_mXs,2020.1.2,MacIntel,60,,,,,,,,,,,,,,1,5.725565,,0,0,149,149,4,1,stimuli/stim_20210519_power2amp/equal_lnn_AM1Hz_s15_18.m4a,,,
,,,,,,,,,,,,41103,2021-05-24_21h41.12.070,judgeSpeechMusic_20210519_logNormShiftAmp_mXs,2020.1.2,MacIntel,60,,,,,,,,,,,,,,1,6.22777,,0,1,0,150,77,1,stimuli/stim_20210519_power2amp/equal_lnn_AM2.5Hz_s35_31.m4a,,,
,,,,,,,,,,,,41103,2021-05-24_21h41.12.070,judgeSpeechMusic_20210519_logNormShiftAmp_mXs,2020.1.2,MacIntel,60,,,,,,,,,,,,,,1,6.19194,2,1,1,1,151,23,1,stimuli/stim_20210519_power2amp/equal_lnn_AM1Hz_s35_24.m4a,0.33323,,
,,,,,,,,,,,,41103,2021-05-24_21h41.12.070,judgeSpeechMusic_20210519_logNormShiftAmp_mXs,2020.1.2,MacIntel,60,,,,,,,,,,,,,,1,5.6431,,0,1,2,152,14,1,stimuli/stim_20210519_power2amp/equal_lnn_AM1Hz_s25_27.m4a,,,
,,,,,,,,,,,,41103,2021-05-24_21h41.12.070,judgeSpeechMusic_20210519_logNormShiftAmp_mXs,2020.1.2,MacIntel,60,,,,,,,,,,,,,,1,5.577095,,0,1,3,153,71,1,stimuli/stim_20210519_power2amp/equal_lnn_AM2.5Hz_s35_33.m4a,,,
,,,,,,,,,,,,41103,2021-05-24_21h41.12.070,judgeSpeechMusic_20210519_logNormShiftAmp_mXs,2020.1.2,MacIntel,60,,,,,,,,,,,,,,2,5.627515,,0,1,4,154,117,1,stimuli/stim_20210519_power2amp/equal_lnn_AM4Hz_s25_3.m4a,,,
,,,,,,,,,,,,41103,2021-05-24_21h41.12.070,judgeSpeechMusic_20210519_logNormShiftAmp_mXs,2020.1.2,MacIntel,60,,,,,,,,,,,,,,2,5.625365,,0,1,5,155,89,1,stimuli/stim_20210519_power2amp/equal_lnn_AM2.5Hz_s45_38.m4a,,,
,,,,,,,,,,,,41103,2021-05-24_21h41.12.070,judgeSpeechMusic_20210519_logNormShiftAmp_mXs,2020.1.2,MacIntel,60,,,,,,,,,,,,,,1,5.662005,,0,1,6,156,32,1,stimuli/stim_20210519_power2amp/equal_lnn_AM1Hz_s45_49.m4a,,,
,,,,,,,,,,,,41103,2021-05-24_21h41.12.070,judgeSpeechMusic_20210519_logNormShiftAmp_mXs,2020.1.2,MacIntel,60,,,,,,,,,,,,,,2,5.52386,,0,1,7,157,102,1,stimuli/stim_20210519_power2amp/equal_lnn_AM4Hz_s15_23.m4a,,,
,,,,,,,,,,,,41103,2021-05-24_21h41.12.070,judgeSpeechMusic_20210519_logNormShiftAmp_mXs,2020.1.2,MacIntel,60,,,,,,,,,,,,,,1,5.63733,,0,1,8,158,109,1,stimuli/stim_20210519_power2amp/equal_lnn_AM4Hz_s15_5.m4a,,,
,,,,,,,,,,,,41103,2021-05-24_21h41.12.070,judgeSpeechMusic_20210519_logNormShiftAmp_mXs,2020.1.2,MacIntel,60,,,,,,,,,,,,,,1,6.12558,,0,1,9,159,22,1,stimuli/stim_20210519_power2amp/equal_lnn_AM1Hz_s35_42.m4a,,,
,,,,,,,,,,,,41103,2021-05-24_21h41.12.070,judgeSpeechMusic_20210519_logNormShiftAmp_mXs,2020.1.2,MacIntel,60,,,,,,,,,,,,,,2,5.8314,,0,1,10,160,57,1,stimuli/stim_20210519_power2amp/equal_lnn_AM2.5Hz_s15_43.m4a,,,
,,,,,,,,,,,,41103,2021-05-24_21h41.12.070,judgeSpeechMusic_20210519_logNormShiftAmp_mXs,2020.1.2,MacIntel,60,,,,,,,,,,,,,,1,6.179495,,0,1,11,161,115,1,stimuli/stim_20210519_power2amp/equal_lnn_AM4Hz_s25_34.m4a,,,
,,,,,,,,,,,,41103,2021-05-24_21h41.12.070,judgeSpeechMusic_20210519_logNormShiftAmp_mXs,2020.1.2,MacIntel,60,,,,,,,,,,,,,,1,5.543445,,0,1,12,162,39,1,stimuli/stim_20210519_power2amp/equal_lnn_AM1Hz_s45_33.m4a,,,
,,,,,,,,,,,,41103,2021-05-24_21h41.12.070,judgeSpeechMusic_20210519_logNormShiftAmp_mXs,2020.1.2,MacIntel,60,,,,,,,,,,,,,,1,5.692035,,0,1,13,163,65,1,stimuli/stim_20210519_power2amp/equal_lnn_AM2.5Hz_s25_43.m4a,,,
,,,,,,,,,,,,41103,2021-05-24_21h41.12.070,judgeSpeechMusic_20210519_logNormShiftAmp_mXs,2020.1.2,MacIntel,60,,,,,,,,,,,,,,2,5.82658,,0,1,14,164,68,1,stimuli/stim_20210519_power2amp/equal_lnn_AM2.5Hz_s25_19.m4a,,,
,,,,,,,,,,,,41103,2021-05-24_21h41.12.070,judgeSpeechMusic_20210519_logNormShiftAmp_mXs,2020.1.2,MacIntel,60,,,,,,,,,,,,,,1,5.907335,,0,1,15,165,79,1,stimuli/stim_20210519_power2amp/equal_lnn_AM2.5Hz_s35_45.m4a,,,
,,,,,,,,,,,,41103,2021-05-24_21h41.12.070,judgeSpeechMusic_20210519_logNormShiftAmp_mXs,2020.1.2,MacIntel,60,,,,,,,,,,,,,,1,9.672275,,0,1,16,166,91,1,stimuli/stim_20210519_power2amp/equal_lnn_AM2.5Hz_s55_14.m4a,,,
,,,,,,,,,,,,41103,2021-05-24_21h41.12.070,judgeSpeechMusic_20210519_logNormShiftAmp_mXs,2020.1.2,MacIntel,60,,,,,,,,,,,,,,1,5.82727,,0,1,17,167,26,1,stimuli/stim_20210519_power2amp/equal_lnn_AM1Hz_s35_9.m4a,,,
,,,,,,,,,,,,41103,2021-05-24_21h41.12.070,judgeSpeechMusic_20210519_logNormShiftAmp_mXs,2020.1.2,MacIntel,60,,,,,,,,,,,,,,2,5.99042,,0,1,18,168,123,1,stimuli/stim_20210519_power2amp/equal_lnn_AM4Hz_s35_32.m4a,,,
,,,,,,,,,,,,41103,2021-05-24_21h41.12.070,judgeSpeechMusic_20210519_logNormShiftAmp_mXs,2020.1.2,MacIntel,60,,,,,,,,,,,,,,2,6.41033,,0,1,19,169,108,1,stimuli/stim_20210519_power2amp/equal_lnn_AM4Hz_s15_7.m4a,,,
,,,,,,,,,,,,41103,2021-05-24_21h41.12.070,judgeSpeechMusic_20210519_logNormShiftAmp_mXs,2020.1.2,MacIntel,60,,,,,,,,,,,,,,2,7.12763,,0,1,20,170,93,1,stimuli/stim_20210519_power2amp/equal_lnn_AM2.5Hz_s55_21.m4a,,,
,,,,,,,,,,,,41103,2021-05-24_21h41.12.070,judgeSpeechMusic_20210519_logNormShiftAmp_mXs,2020.1.2,MacIntel,60,,,,,,,,,,,,,,1,6.844475,,0,1,21,171,2,1,stimuli/stim_20210519_power2amp/equal_lnn_AM1Hz_s15_19.m4a,,,
,,,,,,,,,,,,41103,2021-05-24_21h41.12.070,judgeSpeechMusic_20210519_logNormShiftAmp_mXs,2020.1.2,MacIntel,60,,,,,,,,,,,,,,2,5.57853,,0,1,22,172,85,1,stimuli/stim_20210519_power2amp/equal_lnn_AM2.5Hz_s45_17.m4a,,,
,,,,,,,,,,,,41103,2021-05-24_21h41.12.070,judgeSpeechMusic_20210519_logNormShiftAmp_mXs,2020.1.2,MacIntel,60,,,,,,,,,,,,,,2,5.321565,2,1,1,23,173,84,1,stimuli/stim_20210519_power2amp/equal_lnn_AM2.5Hz_s45_16.m4a,0.316525,,
,,,,,,,,,,,,41103,2021-05-24_21h41.12.070,judgeSpeechMusic_20210519_logNormShiftAmp_mXs,2020.1.2,MacIntel,60,,,,,,,,,,,,,,2,5.987715,,0,1,24,174,73,1,stimuli/stim_20210519_power2amp/equal_lnn_AM2.5Hz_s35_20.m4a,,,
,,,,,,,,,,,,41103,2021-05-24_21h41.12.070,judgeSpeechMusic_20210519_logNormShiftAmp_mXs,2020.1.2,MacIntel,60,,,,,,,,,,,,,,1,6.247705,,0,1,25,175,52,1,stimuli/stim_20210519_power2amp/equal_lnn_AM2.5Hz_s15_22.m4a,,,
,,,,,,,,,,,,41103,2021-05-24_21h41.12.070,judgeSpeechMusic_20210519_logNormShiftAmp_mXs,2020.1.2,MacIntel,60,,,,,,,,,,,,,,1,5.98953,,0,1,26,176,46,1,stimuli/stim_20210519_power2amp/equal_lnn_AM1Hz_s55_39.m4a,,,
,,,,,,,,,,,,41103,2021-05-24_21h41.12.070,judgeSpeechMusic_20210519_logNormShiftAmp_mXs,2020.1.2,MacIntel,60,,,,,,,,,,,,,,2,5.92207,,0,1,27,177,96,1,stimuli/stim_20210519_power2amp/equal_lnn_AM2.5Hz_s55_34.m4a,,,
,,,,,,,,,,,,41103,2021-05-24_21h41.12.070,judgeSpeechMusic_20210519_logNormShiftAmp_mXs,2020.1.2,MacIntel,60,,,,,,,,,,,,,,2,5.262025,,0,1,28,178,82,1,stimuli/stim_20210519_power2amp/equal_lnn_AM2.5Hz_s45_25.m4a,,,
,,,,,,,,,,,,41103,2021-05-24_21h41.12.070,judgeSpeechMusic_20210519_logNormShiftAmp_mXs,2020.1.2,MacIntel,60,,,,,,,,,,,,,,2,6.88865,,0,1,29,179,118,1,stimuli/stim_20210519_power2amp/equal_lnn_AM4Hz_s25_50.m4a,,,
,,,,,,,,,,,,41103,2021-05-24_21h41.12.070,judgeSpeechMusic_20210519_logNormShiftAmp_mXs,2020.1.2,MacIntel,60,,,,,,,,,,,,,,1,6.046005,,0,1,30,180,135,1,stimuli/stim_20210519_power2amp/equal_lnn_AM4Hz_s45_11.m4a,,,
,,,,,,,,,,,,41103,2021-05-24_21h41.12.070,judgeSpeechMusic_20210519_logNormShiftAmp_mXs,2020.1.2,MacIntel,60,,,,,,,,,,,,,,1,5.676305,,0,1,31,181,33,1,stimuli/stim_20210519_power2amp/equal_lnn_AM1Hz_s45_15.m4a,,,
,,,,,,,,,,,,41103,2021-05-24_21h41.12.070,judgeSpeechMusic_20210519_logNormShiftAmp_mXs,2020.1.2,MacIntel,60,,,,,,,,,,,,,,2,7.94445,,0,1,32,182,62,1,stimuli/stim_20210519_power2amp/equal_lnn_AM2.5Hz_s25_15.m4a,,,
,,,,,,,,,,,,41103,2021-05-24_21h41.12.070,judgeSpeechMusic_20210519_logNormShiftAmp_mXs,2020.1.2,MacIntel,60,,,,,,,,,,,,,,2,5.641045,,0,1,33,183,59,1,stimuli/stim_20210519_power2amp/equal_lnn_AM2.5Hz_s15_24.m4a,,,
,,,,,,,,,,,,41103,2021-05-24_21h41.12.070,judgeSpeechMusic_20210519_logNormShiftAmp_mXs,2020.1.2,MacIntel,60,,,,,,,,,,,,,,2,5.94125,,0,1,34,184,72,1,stimuli/stim_20210519_power2amp/equal_lnn_AM2.5Hz_s35_21.m4a,,,
,,,,,,,,,,,,41103,2021-05-24_21h41.12.070,judgeSpeechMusic_20210519_logNormShiftAmp_mXs,2020.1.2,MacIntel,60,,,,,,,,,,,,,,1,5.741835,,0,1,35,185,20,1,stimuli/stim_20210519_power2amp/equal_lnn_AM1Hz_s35_27.m4a,,,
,,,,,,,,,,,,41103,2021-05-24_21h41.12.070,judgeSpeechMusic_20210519_logNormShiftAmp_mXs,2020.1.2,MacIntel,60,,,,,,,,,,,,,,1,5.671995,,0,1,36,186,137,1,stimuli/stim_20210519_power2amp/equal_lnn_AM4Hz_s45_43.m4a,,,
,,,,,,,,,,,,41103,2021-05-24_21h41.12.070,judgeSpeechMusic_20210519_logNormShiftAmp_mXs,2020.1.2,MacIntel,60,,,,,,,,,,,,,,1,6.92534,,0,1,37,187,17,1,stimuli/stim_20210519_power2amp/equal_lnn_AM1Hz_s25_14.m4a,,,
,,,,,,,,,,,,41103,2021-05-24_21h41.12.070,judgeSpeechMusic_20210519_logNormShiftAmp_mXs,2020.1.2,MacIntel,60,,,,,,,,,,,,,,1,5.658235,,0,1,38,188,119,1,stimuli/stim_20210519_power2amp/equal_lnn_AM4Hz_s25_21.m4a,,,
,,,,,,,,,,,,41103,2021-05-24_21h41.12.070,judgeSpeechMusic_20210519_logNormShiftAmp_mXs,2020.1.2,MacIntel,60,,,,,,,,,,,,,,1,5.60987,,0,1,39,189,149,1,stimuli/stim_20210519_power2amp/equal_lnn_AM4Hz_s55_5.m4a,,,
,,,,,,,,,,,,41103,2021-05-24_21h41.12.070,judgeSpeechMusic_20210519_logNormShiftAmp_mXs,2020.1.2,MacIntel,60,,,,,,,,,,,,,,1,6.27795,,0,1,40,190,42,1,stimuli/stim_20210519_power2amp/equal_lnn_AM1Hz_s55_1.m4a,,,
,,,,,,,,,,,,41103,2021-05-24_21h41.12.070,judgeSpeechMusic_20210519_logNormShiftAmp_mXs,2020.1.2,MacIntel,60,,,,,,,,,,,,,,1,6.274535,,0,1,41,191,16,1,stimuli/stim_20210519_power2amp/equal_lnn_AM1Hz_s25_23.m4a,,,
,,,,,,,,,,,,41103,2021-05-24_21h41.12.070,judgeSpeechMusic_20210519_logNormShiftAmp_mXs,2020.1.2,MacIntel,60,,,,,,,,,,,,,,1,6.659265,,0,1,42,192,66,1,stimuli/stim_20210519_power2amp/equal_lnn_AM2.5Hz_s25_27.m4a,,,
,,,,,,,,,,,,41103,2021-05-24_21h41.12.070,judgeSpeechMusic_20210519_logNormShiftAmp_mXs,2020.1.2,MacIntel,60,,,,,,,,,,,,,,1,5.41205,,0,1,43,193,35,1,stimuli/stim_20210519_power2amp/equal_lnn_AM1Hz_s45_14.m4a,,,
,,,,,,,,,,,,41103,2021-05-24_21h41.12.070,judgeSpeechMusic_20210519_logNormShiftAmp_mXs,2020.1.2,MacIntel,60,,,,,,,,,,,,,,2,5.678525,,0,1,44,194,50,1,stimuli/stim_20210519_power2amp/equal_lnn_AM2.5Hz_s15_33.m4a,,,
,,,,,,,,,,,,41103,2021-05-24_21h41.12.070,judgeSpeechMusic_20210519_logNormShiftAmp_mXs,2020.1.2,MacIntel,60,,,,,,,,,,,,,,1,5.676585,,0,1,45,195,142,1,stimuli/stim_20210519_power2amp/equal_lnn_AM4Hz_s55_45.m4a,,,
,,,,,,,,,,,,41103,2021-05-24_21h41.12.070,judgeSpeechMusic_20210519_logNormShiftAmp_mXs,2020.1.2,MacIntel,60,,,,,,,,,,,,,,1,5.43669,2,1,1,46,196,12,1,stimuli/stim_20210519_power2amp/equal_lnn_AM1Hz_s25_41.m4a,0.37799,,
,,,,,,,,,,,,41103,2021-05-24_21h41.12.070,judgeSpeechMusic_20210519_logNormShiftAmp_mXs,2020.1.2,MacIntel,60,,,,,,,,,,,,,,1,5.77425,,0,1,47,197,19,1,stimuli/stim_20210519_power2amp/equal_lnn_AM1Hz_s25_4.m4a,,,
,,,,,,,,,,,,41103,2021-05-24_21h41.12.070,judgeSpeechMusic_20210519_logNormShiftAmp_mXs,2020.1.2,MacIntel,60,,,,,,,,,,,,,,1,5.712465,,0,1,48,198,139,1,stimuli/stim_20210519_power2amp/equal_lnn_AM4Hz_s45_2.m4a,,,
,,,,,,,,,,,,41103,2021-05-24_21h41.12.070,judgeSpeechMusic_20210519_logNormShiftAmp_mXs,2020.1.2,MacIntel,60,,,,,,,,,,,,,,1,6.794835,,0,1,49,199,48,1,stimuli/stim_20210519_power2amp/equal_lnn_AM1Hz_s55_40.m4a,,,
,,,,,,,,,,,,41103,2021-05-24_21h41.12.070,judgeSpeechMusic_20210519_logNormShiftAmp_mXs,2020.1.2,MacIntel,60,,,,,,,,,,,,,,1,6.291695,,0,1,50,200,55,1,stimuli/stim_20210519_power2amp/equal_lnn_AM2.5Hz_s15_5.m4a,,,
,,,,,,,,,,,,41103,2021-05-24_21h41.12.070,judgeSpeechMusic_20210519_logNormShiftAmp_mXs,2020.1.2,MacIntel,60,,,,,,,,,,,,,,2,5.67628,,0,1,51,201,100,1,stimuli/stim_20210519_power2amp/equal_lnn_AM4Hz_s15_41.m4a,,,
,,,,,,,,,,,,41103,2021-05-24_21h41.12.070,judgeSpeechMusic_20210519_logNormShiftAmp_mXs,2020.1.2,MacIntel,60,,,,,,,,,,,,,,1,5.79234,,0,1,52,202,47,1,stimuli/stim_20210519_power2amp/equal_lnn_AM1Hz_s55_46.m4a,,,
,,,,,,,,,,,,41103,2021-05-24_21h41.12.070,judgeSpeechMusic_20210519_logNormShiftAmp_mXs,2020.1.2,MacIntel,60,,,,,,,,,,,,,,2,5.741465,,0,1,53,203,116,1,stimuli/stim_20210519_power2amp/equal_lnn_AM4Hz_s25_36.m4a,,,
,,,,,,,,,,,,41103,2021-05-24_21h41.12.070,judgeSpeechMusic_20210519_logNormShiftAmp_mXs,2020.1.2,MacIntel,60,,,,,,,,,,,,,,1,5.911535,,0,1,54,204,37,1,stimuli/stim_20210519_power2amp/equal_lnn_AM1Hz_s45_31.m4a,,,
,,,,,,,,,,,,41103,2021-05-24_21h41.12.070,judgeSpeechMusic_20210519_logNormShiftAmp_mXs,2020.1.2,MacIntel,60,,,,,,,,,,,,,,2,7.2583,,0,1,55,205,111,1,stimuli/stim_20210519_power2amp/equal_lnn_AM4Hz_s25_1.m4a,,,
,,,,,,,,,,,,41103,2021-05-24_21h41.12.070,judgeSpeechMusic_20210519_logNormShiftAmp_mXs,2020.1.2,MacIntel,60,,,,,,,,,,,,,,2,5.92332,,0,1,56,206,81,1,stimuli/stim_20210519_power2amp/equal_lnn_AM2.5Hz_s45_5.m4a,,,
,,,,,,,,,,,,41103,2021-05-24_21h41.12.070,judgeSpeechMusic_20210519_logNormShiftAmp_mXs,2020.1.2,MacIntel,60,,,,,,,,,,,,,,2,5.561225,,0,1,57,207,60,1,stimuli/stim_20210519_power2amp/equal_lnn_AM2.5Hz_s25_17.m4a,,,
,,,,,,,,,,,,41103,2021-05-24_21h41.12.070,judgeSpeechMusic_20210519_logNormShiftAmp_mXs,2020.1.2,MacIntel,60,,,,,,,,,,,,,,1,5.87926,,0,1,58,208,28,1,stimuli/stim_20210519_power2amp/equal_lnn_AM1Hz_s35_34.m4a,,,
,,,,,,,,,,,,41103,2021-05-24_21h41.12.070,judgeSpeechMusic_20210519_logNormShiftAmp_mXs,2020.1.2,MacIntel,60,,,,,,,,,,,,,,2,5.99233,,0,1,59,209,83,1,stimuli/stim_20210519_power2amp/equal_lnn_AM2.5Hz_s45_36.m4a,,,
,,,,,,,,,,,,41103,2021-05-24_21h41.12.070,judgeSpeechMusic_20210519_logNormShiftAmp_mXs,2020.1.2,MacIntel,60,,,,,,,,,,,,,,2,6.561455,,0,1,60,210,105,1,stimuli/stim_20210519_power2amp/equal_lnn_AM4Hz_s15_36.m4a,,,
,,,,,,,,,,,,41103,2021-05-24_21h41.12.070,judgeSpeechMusic_20210519_logNormShiftAmp_mXs,2020.1.2,MacIntel,60,,,,,,,,,,,,,,1,5.640865,,0,1,61,211,21,1,stimuli/stim_20210519_power2amp/equal_lnn_AM1Hz_s35_28.m4a,,,
,,,,,,,,,,,,41103,2021-05-24_21h41.12.070,judgeSpeechMusic_20210519_logNormShiftAmp_mXs,2020.1.2,MacIntel,60,,,,,,,,,,,,,,1,5.79259,,0,1,62,212,6,1,stimuli/stim_20210519_power2amp/equal_lnn_AM1Hz_s15_45.m4a,,,
,,,,,,,,,,,,41103,2021-05-24_21h41.12.070,judgeSpeechMusic_20210519_logNormShiftAmp_mXs,2020.1.2,MacIntel,60,,,,,,,,,,,,,,1,6.41055,,0,1,63,213,75,1,stimuli/stim_20210519_power2amp/equal_lnn_AM2.5Hz_s35_15.m4a,,,
,,,,,,,,,,,,41103,2021-05-24_21h41.12.070,judgeSpeechMusic_20210519_logNormShiftAmp_mXs,2020.1.2,MacIntel,60,,,,,,,,,,,,,,1,5.757265,,0,1,64,214,130,1,stimuli/stim_20210519_power2amp/equal_lnn_AM4Hz_s45_30.m4a,,,
,,,,,,,,,,,,41103,2021-05-24_21h41.12.070,judgeSpeechMusic_20210519_logNormShiftAmp_mXs,2020.1.2,MacIntel,60,,,,,,,,,,,,,,1,5.332865,,0,1,65,215,127,1,stimuli/stim_20210519_power2amp/equal_lnn_AM4Hz_s35_36.m4a,,,
,,,,,,,,,,,,41103,2021-05-24_21h41.12.070,judgeSpeechMusic_20210519_logNormShiftAmp_mXs,2020.1.2,MacIntel,60,,,,,,,,,,,,,,1,5.557115,,0,1,66,216,132,1,stimuli/stim_20210519_power2amp/equal_lnn_AM4Hz_s45_44.m4a,,,
,,,,,,,,,,,,41103,2021-05-24_21h41.12.070,judgeSpeechMusic_20210519_logNormShiftAmp_mXs,2020.1.2,MacIntel,60,,,,,,,,,,,,,,2,5.87051,,0,1,67,217,110,1,stimuli/stim_20210519_power2amp/equal_lnn_AM4Hz_s25_16.m4a,,,
,,,,,,,,,,,,41103,2021-05-24_21h41.12.070,judgeSpeechMusic_20210519_logNormShiftAmp_mXs,2020.1.2,MacIntel,60,,,,,,,,,,,,,,2,7.138965,,0,1,68,218,114,1,stimuli/stim_20210519_power2amp/equal_lnn_AM4Hz_s25_24.m4a,,,
,,,,,,,,,,,,41103,2021-05-24_21h41.12.070,judgeSpeechMusic_20210519_logNormShiftAmp_mXs,2020.1.2,MacIntel,60,,,,,,,,,,,,,,2,6.18894,,0,1,69,219,103,1,stimuli/stim_20210519_power2amp/equal_lnn_AM4Hz_s15_20.m4a,,,
,,,,,,,,,,,,41103,2021-05-24_21h41.12.070,judgeSpeechMusic_20210519_logNormShiftAmp_mXs,2020.1.2,MacIntel,60,,,,,,,,,,,,,,1,7.695915,3,1,1,70,220,8,1,stimuli/stim_20210519_power2amp/equal_lnn_AM1Hz_s15_41.m4a,1.512295,,
,,,,,,,,,,,,41103,2021-05-24_21h41.12.070,judgeSpeechMusic_20210519_logNormShiftAmp_mXs,2020.1.2,MacIntel,60,,,,,,,,,,,,,,1,5.7281,,0,1,71,221,9,1,stimuli/stim_20210519_power2amp/equal_lnn_AM1Hz_s15_15.m4a,,,
,,,,,,,,,,,,41103,2021-05-24_21h41.12.070,judgeSpeechMusic_20210519_logNormShiftAmp_mXs,2020.1.2,MacIntel,60,,,,,,,,,,,,,,1,5.241835,,0,1,72,222,86,1,stimuli/stim_20210519_power2amp/equal_lnn_AM2.5Hz_s45_6.m4a,,,
,,,,,,,,,,,,41103,2021-05-24_21h41.12.070,judgeSpeechMusic_20210519_logNormShiftAmp_mXs,2020.1.2,MacIntel,60,,,,,,,,,,,,,,1,5.938785,,0,1,73,223,38,1,stimuli/stim_20210519_power2amp/equal_lnn_AM1Hz_s45_34.m4a,,,
,,,,,,,,,,,,41103,2021-05-24_21h41.12.070,judgeSpeechMusic_20210519_logNormShiftAmp_mXs,2020.1.2,MacIntel,60,,,,,,,,,,,,,,1,5.5607,,0,1,74,224,36,1,stimuli/stim_20210519_power2amp/equal_lnn_AM1Hz_s45_18.m4a,,,
,,,,,,,,,,,,41103,2021-05-24_21h41.12.070,judgeSpeechMusic_20210519_logNormShiftAmp_mXs,2020.1.2,MacIntel,60,,,,,,,,,,,,,,1,6.176315,,0,1,75,225,133,1,stimuli/stim_20210519_power2amp/equal_lnn_AM4Hz_s45_21.m4a,,,
,,,,,,,,,,,,41103,2021-05-24_21h41.12.070,judgeSpeechMusic_20210519_logNormShiftAmp_mXs,2020.1.2,MacIntel,60,,,,,,,,,,,,,,1,5.994055,,0,1,76,226,129,1,stimuli/stim_20210519_power2amp/equal_lnn_AM4Hz_s35_15.m4a,,,
,,,,,,,,,,,,41103,2021-05-24_21h41.12.070,judgeSpeechMusic_20210519_logNormShiftAmp_mXs,2020.1.2,MacIntel,60,,,,,,,,,,,,,,1,5.45924,,0,1,77,227,69,1,stimuli/stim_20210519_power2amp/equal_lnn_AM2.5Hz_s25_14.m4a,,,
,,,,,,,,,,,,41103,2021-05-24_21h41.12.070,judgeSpeechMusic_20210519_logNormShiftAmp_mXs,2020.1.2,MacIntel,60,,,,,,,,,,,,,,1,5.676145,,0,1,78,228,15,1,stimuli/stim_20210519_power2amp/equal_lnn_AM1Hz_s25_8.m4a,,,
,,,,,,,,,,,,41103,2021-05-24_21h41.12.070,judgeSpeechMusic_20210519_logNormShiftAmp_mXs,2020.1.2,MacIntel,60,,,,,,,,,,,,,,2,6.11048,,0,1,79,229,94,1,stimuli/stim_20210519_power2amp/equal_lnn_AM2.5Hz_s55_40.m4a,,,
,,,,,,,,,,,,41103,2021-05-24_21h41.12.070,judgeSpeechMusic_20210519_logNormShiftAmp_mXs,2020.1.2,MacIntel,60,,,,,,,,,,,,,,1,6.461955,,0,1,80,230,3,1,stimuli/stim_20210519_power2amp/equal_lnn_AM1Hz_s15_35.m4a,,,
,,,,,,,,,,,,41103,2021-05-24_21h41.12.070,judgeSpeechMusic_20210519_logNormShiftAmp_mXs,2020.1.2,MacIntel,60,,,,,,,,,,,,,,1,7.011075,,0,1,81,231,1,1,stimuli/stim_20210519_power2amp/equal_lnn_AM1Hz_s15_31.m4a,,,
,,,,,,,,,,,,41103,2021-05-24_21h41.12.070,judgeSpeechMusic_20210519_logNormShiftAmp_mXs,2020.1.2,MacIntel,60,,,,,,,,,,,,,,1,5.84361,,0,1,82,232,140,1,stimuli/stim_20210519_power2amp/equal_lnn_AM4Hz_s55_47.m4a,,,
,,,,,,,,,,,,41103,2021-05-24_21h41.12.070,judgeSpeechMusic_20210519_logNormShiftAmp_mXs,2020.1.2,MacIntel,60,,,,,,,,,,,,,,1,5.342525,,0,1,83,233,49,1,stimuli/stim_20210519_power2amp/equal_lnn_AM1Hz_s55_6.m4a,,,
,,,,,,,,,,,,41103,2021-05-24_21h41.12.070,judgeSpeechMusic_20210519_logNormShiftAmp_mXs,2020.1.2,MacIntel,60,,,,,,,,,,,,,,1,6.15589,,0,1,84,234,51,1,stimuli/stim_20210519_power2amp/equal_lnn_AM2.5Hz_s15_4.m4a,,,
,,,,,,,,,,,,41103,2021-05-24_21h41.12.070,judgeSpeechMusic_20210519_logNormShiftAmp_mXs,2020.1.2,MacIntel,60,,,,,,,,,,,,,,1,5.855215,,0,1,85,235,121,1,stimuli/stim_20210519_power2amp/equal_lnn_AM4Hz_s35_4.m4a,,,
,,,,,,,,,,,,41103,2021-05-24_21h41.12.070,judgeSpeechMusic_20210519_logNormShiftAmp_mXs,2020.1.2,MacIntel,60,,,,,,,,,,,,,,1,6.320785,,0,1,86,236,30,1,stimuli/stim_20210519_power2amp/equal_lnn_AM1Hz_s45_19.m4a,,,
,,,,,,,,,,,,41103,2021-05-24_21h41.12.070,judgeSpeechMusic_20210519_logNormShiftAmp_mXs,2020.1.2,MacIntel,60,,,,,,,,,,,,,,1,6.529315,,0,1,87,237,0,1,stimuli/stim_20210519_power2amp/equal_lnn_AM1Hz_s15_7.m4a,,,
,,,,,,,,,,,,41103,2021-05-24_21h41.12.070,judgeSpeechMusic_20210519_logNormShiftAmp_mXs,2020.1.2,MacIntel,60,,,,,,,,,,,,,,2,5.7064,,0,1,88,238,136,1,stimuli/stim_20210519_power2amp/equal_lnn_AM4Hz_s45_38.m4a,,,
,,,,,,,,,,,,41103,2021-05-24_21h41.12.070,judgeSpeechMusic_20210519_logNormShiftAmp_mXs,2020.1.2,MacIntel,60,,,,,,,,,,,,,,1,5.709115,,0,1,89,239,10,1,stimuli/stim_20210519_power2amp/equal_lnn_AM1Hz_s25_48.m4a,,,
,,,,,,,,,,,,41103,2021-05-24_21h41.12.070,judgeSpeechMusic_20210519_logNormShiftAmp_mXs,2020.1.2,MacIntel,60,,,,,,,,,,,,,,1,5.624745,,0,1,90,240,148,1,stimuli/stim_20210519_power2amp/equal_lnn_AM4Hz_s55_9.m4a,,,
,,,,,,,,,,,,41103,2021-05-24_21h41.12.070,judgeSpeechMusic_20210519_logNormShiftAmp_mXs,2020.1.2,MacIntel,60,,,,,,,,,,,,,,2,6.29286,,0,1,91,241,113,1,stimuli/stim_20210519_power2amp/equal_lnn_AM4Hz_s25_5.m4a,,,
,,,,,,,,,,,,41103,2021-05-24_21h41.12.070,judgeSpeechMusic_20210519_logNormShiftAmp_mXs,2020.1.2,MacIntel,60,,,,,,,,,,,,,,1,5.97474,2,1,1,92,242,138,1,stimuli/stim_20210519_power2amp/equal_lnn_AM4Hz_s45_40.m4a,0.37749,,
,,,,,,,,,,,,41103,2021-05-24_21h41.12.070,judgeSpeechMusic_20210519_logNormShiftAmp_mXs,2020.1.2,MacIntel,60,,,,,,,,,,,,,,1,5.85803,,0,1,93,243,141,1,stimuli/stim_20210519_power2amp/equal_lnn_AM4Hz_s55_24.m4a,,,
,,,,,,,,,,,,41103,2021-05-24_21h41.12.070,judgeSpeechMusic_20210519_logNormShiftAmp_mXs,2020.1.2,MacIntel,60,,,,,,,,,,,,,,2,5.561025,,0,1,94,244,87,1,stimuli/stim_20210519_power2amp/equal_lnn_AM2.5Hz_s45_48.m4a,,,
,,,,,,,,,,,,41103,2021-05-24_21h41.12.070,judgeSpeechMusic_20210519_logNormShiftAmp_mXs,2020.1.2,MacIntel,60,,,,,,,,,,,,,,1,5.62471,,0,1,95,245,13,1,stimuli/stim_20210519_power2amp/equal_lnn_AM1Hz_s25_10.m4a,,,
,,,,,,,,,,,,41103,2021-05-24_21h41.12.070,judgeSpeechMusic_20210519_logNormShiftAmp_mXs,2020.1.2,MacIntel,60,,,,,,,,,,,,,,2,6.612345,,0,1,96,246,78,1,stimuli/stim_20210519_power2amp/equal_lnn_AM2.5Hz_s35_9.m4a,,,
,,,,,,,,,,,,41103,2021-05-24_21h41.12.070,judgeSpeechMusic_20210519_logNormShiftAmp_mXs,2020.1.2,MacIntel,60,,,,,,,,,,,,,,1,5.63823,,0,1,97,247,7,1,stimuli/stim_20210519_power2amp/equal_lnn_AM1Hz_s15_6.m4a,,,
,,,,,,,,,,,,41103,2021-05-24_21h41.12.070,judgeSpeechMusic_20210519_logNormShiftAmp_mXs,2020.1.2,MacIntel,60,,,,,,,,,,,,,,2,5.577085,,0,1,98,248,97,1,stimuli/stim_20210519_power2amp/equal_lnn_AM2.5Hz_s55_29.m4a,,,
,,,,,,,,,,,,41103,2021-05-24_21h41.12.070,judgeSpeechMusic_20210519_logNormShiftAmp_mXs,2020.1.2,MacIntel,60,,,,,,,,,,,,,,1,6.00864,,0,1,99,249,112,1,stimuli/stim_20210519_power2amp/equal_lnn_AM4Hz_s25_17.m4a,,,
,,,,,,,,,,,,41103,2021-05-24_21h41.12.070,judgeSpeechMusic_20210519_logNormShiftAmp_mXs,2020.1.2,MacIntel,60,,,,,,,,,,,,,,1,5.96256,,0,1,100,250,18,1,stimuli/stim_20210519_power2amp/equal_lnn_AM1Hz_s25_34.m4a,,,
,,,,,,,,,,,,41103,2021-05-24_21h41.12.070,judgeSpeechMusic_20210519_logNormShiftAmp_mXs,2020.1.2,MacIntel,60,,,,,,,,,,,,,,2,6.258905,,0,1,101,251,64,1,stimuli/stim_20210519_power2amp/equal_lnn_AM2.5Hz_s25_31.m4a,,,
,,,,,,,,,,,,41103,2021-05-24_21h41.12.070,judgeSpeechMusic_20210519_logNormShiftAmp_mXs,2020.1.2,MacIntel,60,,,,,,,,,,,,,,2,5.412195,,0,1,102,252,104,1,stimuli/stim_20210519_power2amp/equal_lnn_AM4Hz_s15_30.m4a,,,
,,,,,,,,,,,,41103,2021-05-24_21h41.12.070,judgeSpeechMusic_20210519_logNormShiftAmp_mXs,2020.1.2,MacIntel,60,,,,,,,,,,,,,,1,5.760635,,0,1,103,253,80,1,stimuli/stim_20210519_power2amp/equal_lnn_AM2.5Hz_s45_3.m4a,,,
,,,,,,,,,,,,41103,2021-05-24_21h41.12.070,judgeSpeechMusic_20210519_logNormShiftAmp_mXs,2020.1.2,MacIntel,60,,,,,,,,,,,,,,1,6.34225,,0,1,104,254,128,1,stimuli/stim_20210519_power2amp/equal_lnn_AM4Hz_s35_1.m4a,,,
,,,,,,,,,,,,41103,2021-05-24_21h41.12.070,judgeSpeechMusic_20210519_logNormShiftAmp_mXs,2020.1.2,MacIntel,60,,,,,,,,,,,,,,1,21.46644,,0,1,105,255,25,1,stimuli/stim_20210519_power2amp/equal_lnn_AM1Hz_s35_3.m4a,,,
,,,,,,,,,,,,41103,2021-05-24_21h41.12.070,judgeSpeechMusic_20210519_logNormShiftAmp_mXs,2020.1.2,MacIntel,60,,,,,,,,,,,,,,1,5.68764,,0,1,106,256,34,1,stimuli/stim_20210519_power2amp/equal_lnn_AM1Hz_s45_46.m4a,,,
,,,,,,,,,,,,41103,2021-05-24_21h41.12.070,judgeSpeechMusic_20210519_logNormShiftAmp_mXs,2020.1.2,MacIntel,60,,,,,,,,,,,,,,2,5.69487,,0,1,107,257,53,1,stimuli/stim_20210519_power2amp/equal_lnn_AM2.5Hz_s15_10.m4a,,,
,,,,,,,,,,,,41103,2021-05-24_21h41.12.070,judgeSpeechMusic_20210519_logNormShiftAmp_mXs,2020.1.2,MacIntel,60,,,,,,,,,,,,,,2,5.54497,,0,1,108,258,98,1,stimuli/stim_20210519_power2amp/equal_lnn_AM2.5Hz_s55_17.m4a,,,
,,,,,,,,,,,,41103,2021-05-24_21h41.12.070,judgeSpeechMusic_20210519_logNormShiftAmp_mXs,2020.1.2,MacIntel,60,,,,,,,,,,,,,,1,5.65661,,0,1,109,259,40,1,stimuli/stim_20210519_power2amp/equal_lnn_AM1Hz_s55_45.m4a,,,
,,,,,,,,,,,,41103,2021-05-24_21h41.12.070,judgeSpeechMusic_20210519_logNormShiftAmp_mXs,2020.1.2,MacIntel,60,,,,,,,,,,,,,,2,5.578845,,0,1,110,260,106,1,stimuli/stim_20210519_power2amp/equal_lnn_AM4Hz_s15_38.m4a,,,
,,,,,,,,,,,,41103,2021-05-24_21h41.12.070,judgeSpeechMusic_20210519_logNormShiftAmp_mXs,2020.1.2,MacIntel,60,,,,,,,,,,,,,,1,5.941495,,0,1,111,261,70,1,stimuli/stim_20210519_power2amp/equal_lnn_AM2.5Hz_s35_40.m4a,,,
,,,,,,,,,,,,41103,2021-05-24_21h41.12.070,judgeSpeechMusic_20210519_logNormShiftAmp_mXs,2020.1.2,MacIntel,60,,,,,,,,,,,,,,1,6.28969,,0,1,112,262,67,1,stimuli/stim_20210519_power2amp/equal_lnn_AM2.5Hz_s25_45.m4a,,,
,,,,,,,,,,,,41103,2021-05-24_21h41.12.070,judgeSpeechMusic_20210519_logNormShiftAmp_mXs,2020.1.2,MacIntel,60,,,,,,,,,,,,,,1,5.57462,,0,1,113,263,95,1,stimuli/stim_20210519_power2amp/equal_lnn_AM2.5Hz_s55_32.m4a,,,
,,,,,,,,,,,,41103,2021-05-24_21h41.12.070,judgeSpeechMusic_20210519_logNormShiftAmp_mXs,2020.1.2,MacIntel,60,,,,,,,,,,,,,,2,5.695135,,0,1,114,264,56,1,stimuli/stim_20210519_power2amp/equal_lnn_AM2.5Hz_s15_42.m4a,,,
,,,,,,,,,,,,41103,2021-05-24_21h41.12.070,judgeSpeechMusic_20210519_logNormShiftAmp_mXs,2020.1.2,MacIntel,60,,,,,,,,,,,,,,2,5.877555,,0,1,115,265,125,1,stimuli/stim_20210519_power2amp/equal_lnn_AM4Hz_s35_24.m4a,,,
,,,,,,,,,,,,41103,2021-05-24_21h41.12.070,judgeSpeechMusic_20210519_logNormShiftAmp_mXs,2020.1.2,MacIntel,60,,,,,,,,,,,,,,2,5.558705,,0,1,116,266,90,1,stimuli/stim_20210519_power2amp/equal_lnn_AM2.5Hz_s55_42.m4a,,,
,,,,,,,,,,,,41103,2021-05-24_21h41.12.070,judgeSpeechMusic_20210519_logNormShiftAmp_mXs,2020.1.2,MacIntel,60,,,,,,,,,,,,,,1,5.622215,4,1,1,117,267,61,1,stimuli/stim_20210519_power2amp/equal_lnn_AM2.5Hz_s25_39.m4a,2.12536,,
,,,,,,,,,,,,41103,2021-05-24_21h41.12.070,judgeSpeechMusic_20210519_logNormShiftAmp_mXs,2020.1.2,MacIntel,60,,,,,,,,,,,,,,1,5.859015,,0,1,118,268,44,1,stimuli/stim_20210519_power2amp/equal_lnn_AM1Hz_s55_8.m4a,,,
,,,,,,,,,,,,41103,2021-05-24_21h41.12.070,judgeSpeechMusic_20210519_logNormShiftAmp_mXs,2020.1.2,MacIntel,60,,,,,,,,,,,,,,1,5.61172,,0,1,119,269,143,1,stimuli/stim_20210519_power2amp/equal_lnn_AM4Hz_s55_25.m4a,,,
,,,,,,,,,,,,41103,2021-05-24_21h41.12.070,judgeSpeechMusic_20210519_logNormShiftAmp_mXs,2020.1.2,MacIntel,60,,,,,,,,,,,,,,1,6.127805,,0,1,120,270,63,1,stimuli/stim_20210519_power2amp/equal_lnn_AM2.5Hz_s25_41.m4a,,,
,,,,,,,,,,,,41103,2021-05-24_21h41.12.070,judgeSpeechMusic_20210519_logNormShiftAmp_mXs,2020.1.2,MacIntel,60,,,,,,,,,,,,,,1,5.977785,,0,1,121,271,76,1,stimuli/stim_20210519_power2amp/equal_lnn_AM2.5Hz_s35_14.m4a,,,
,,,,,,,,,,,,41103,2021-05-24_21h41.12.070,judgeSpeechMusic_20210519_logNormShiftAmp_mXs,2020.1.2,MacIntel,60,,,,,,,,,,,,,,2,5.6289,,0,1,122,272,101,1,stimuli/stim_20210519_power2amp/equal_lnn_AM4Hz_s15_31.m4a,,,
,,,,,,,,,,,,41103,2021-05-24_21h41.12.070,judgeSpeechMusic_20210519_logNormShiftAmp_mXs,2020.1.2,MacIntel,60,,,,,,,,,,,,,,1,5.57496,,0,1,123,273,5,1,stimuli/stim_20210519_power2amp/equal_lnn_AM1Hz_s15_16.m4a,,,
,,,,,,,,,,,,41103,2021-05-24_21h41.12.070,judgeSpeechMusic_20210519_logNormShiftAmp_mXs,2020.1.2,MacIntel,60,,,,,,,,,,,,,,1,5.6128,,0,1,124,274,4,1,stimuli/stim_20210519_power2amp/equal_lnn_AM1Hz_s15_18.m4a,,,
,,,,,,,,,,,,41103,2021-05-24_21h41.12.070,judgeSpeechMusic_20210519_logNormShiftAmp_mXs,2020.1.2,MacIntel,60,,,,,,,,,,,,,,1,5.56115,,0,1,125,275,147,1,stimuli/stim_20210519_power2amp/equal_lnn_AM4Hz_s55_37.m4a,,,
,,,,,,,,,,,,41103,2021-05-24_21h41.12.070,judgeSpeechMusic_20210519_logNormShiftAmp_mXs,2020.1.2,MacIntel,60,,,,,,,,,,,,,,1,6.280755,,0,1,126,276,131,1,stimuli/stim_20210519_power2amp/equal_lnn_AM4Hz_s45_45.m4a,,,
,,,,,,,,,,,,41103,2021-05-24_21h41.12.070,judgeSpeechMusic_20210519_logNormShiftAmp_mXs,2020.1.2,MacIntel,60,,,,,,,,,,,,,,1,6.77506,,0,1,127,277,58,1,stimuli/stim_20210519_power2amp/equal_lnn_AM2.5Hz_s15_7.m4a,,,
,,,,,,,,,,,,41103,2021-05-24_21h41.12.070,judgeSpeechMusic_20210519_logNormShiftAmp_mXs,2020.1.2,MacIntel,60,,,,,,,,,,,,,,2,5.55723,,0,1,128,278,107,1,stimuli/stim_20210519_power2amp/equal_lnn_AM4Hz_s15_26.m4a,,,
,,,,,,,,,,,,41103,2021-05-24_21h41.12.070,judgeSpeechMusic_20210519_logNormShiftAmp_mXs,2020.1.2,MacIntel,60,,,,,,,,,,,,,,1,7.19165,,0,1,129,279,29,1,stimuli/stim_20210519_power2amp/equal_lnn_AM1Hz_s35_19.m4a,,,
,,,,,,,,,,,,41103,2021-05-24_21h41.12.070,judgeSpeechMusic_20210519_logNormShiftAmp_mXs,2020.1.2,MacIntel,60,,,,,,,,,,,,,,1,6.310725,,0,1,130,280,31,1,stimuli/stim_20210519_power2amp/equal_lnn_AM1Hz_s45_3.m4a,,,
,,,,,,,,,,,,41103,2021-05-24_21h41.12.070,judgeSpeechMusic_20210519_logNormShiftAmp_mXs,2020.1.2,MacIntel,60,,,,,,,,,,,,,,1,5.60527,,0,1,131,281,134,1,stimuli/stim_20210519_power2amp/equal_lnn_AM4Hz_s45_31.m4a,,,
,,,,,,,,,,,,41103,2021-05-24_21h41.12.070,judgeSpeechMusic_20210519_logNormShiftAmp_mXs,2020.1.2,MacIntel,60,,,,,,,,,,,,,,1,5.575185,,0,1,132,282,43,1,stimuli/stim_20210519_power2amp/equal_lnn_AM1Hz_s55_20.m4a,,,
,,,,,,,,,,,,41103,2021-05-24_21h41.12.070,judgeSpeechMusic_20210519_logNormShiftAmp_mXs,2020.1.2,MacIntel,60,,,,,,,,,,,,,,1,5.858085,,0,1,133,283,24,1,stimuli/stim_20210519_power2amp/equal_lnn_AM1Hz_s35_23.m4a,,,
,,,,,,,,,,,,41103,2021-05-24_21h41.12.070,judgeSpeechMusic_20210519_logNormShiftAmp_mXs,2020.1.2,MacIntel,60,,,,,,,,,,,,,,2,6.605655,,0,1,134,284,74,1,stimuli/stim_20210519_power2amp/equal_lnn_AM2.5Hz_s35_49.m4a,,,
,,,,,,,,,,,,41103,2021-05-24_21h41.12.070,judgeSpeechMusic_20210519_logNormShiftAmp_mXs,2020.1.2,MacIntel,60,,,,,,,,,,,,,,1,5.658445,,0,1,135,285,120,1,stimuli/stim_20210519_power2amp/equal_lnn_AM4Hz_s35_42.m4a,,,
,,,,,,,,,,,,41103,2021-05-24_21h41.12.070,judgeSpeechMusic_20210519_logNormShiftAmp_mXs,2020.1.2,MacIntel,60,,,,,,,,,,,,,,1,6.25803,,0,1,136,286,145,1,stimuli/stim_20210519_power2amp/equal_lnn_AM4Hz_s55_10.m4a,,,
,,,,,,,,,,,,41103,2021-05-24_21h41.12.070,judgeSpeechMusic_20210519_logNormShiftAmp_mXs,2020.1.2,MacIntel,60,,,,,,,,,,,,,,2,5.56029,,0,1,137,287,54,1,stimuli/stim_20210519_power2amp/equal_lnn_AM2.5Hz_s15_39.m4a,,,
,,,,,,,,,,,,41103,2021-05-24_21h41.12.070,judgeSpeechMusic_20210519_logNormShiftAmp_mXs,2020.1.2,MacIntel,60,,,,,,,,,,,,,,1,5.959425,,0,1,138,288,122,1,stimuli/stim_20210519_power2amp/equal_lnn_AM4Hz_s35_49.m4a,,,
,,,,,,,,,,,,41103,2021-05-24_21h41.12.070,judgeSpeechMusic_20210519_logNormShiftAmp_mXs,2020.1.2,MacIntel,60,,,,,,,,,,,,,,1,6.33942,,0,1,139,289,126,1,stimuli/stim_20210519_power2amp/equal_lnn_AM4Hz_s35_40.m4a,,,
,,,,,,,,,,,,41103,2021-05-24_21h41.12.070,judgeSpeechMusic_20210519_logNormShiftAmp_mXs,2020.1.2,MacIntel,60,,,,,,,,,,,,,,2,6.611945,,0,1,140,290,124,1,stimuli/stim_20210519_power2amp/equal_lnn_AM4Hz_s35_26.m4a,,,
,,,,,,,,,,,,41103,2021-05-24_21h41.12.070,judgeSpeechMusic_20210519_logNormShiftAmp_mXs,2020.1.2,MacIntel,60,,,,,,,,,,,,,,1,5.574855,2,1,1,141,291,27,1,stimuli/stim_20210519_power2amp/equal_lnn_AM1Hz_s35_11.m4a,0.378465,,
,,,,,,,,,,,,41103,2021-05-24_21h41.12.070,judgeSpeechMusic_20210519_logNormShiftAmp_mXs,2020.1.2,MacIntel,60,,,,,,,,,,,,,,2,5.75548,,0,1,142,292,88,1,stimuli/stim_20210519_power2amp/equal_lnn_AM2.5Hz_s45_13.m4a,,,
,,,,,,,,,,,,41103,2021-05-24_21h41.12.070,judgeSpeechMusic_20210519_logNormShiftAmp_mXs,2020.1.2,MacIntel,60,,,,,,,,,,,,,,1,5.571225,,0,1,143,293,41,1,stimuli/stim_20210519_power2amp/equal_lnn_AM1Hz_s55_48.m4a,,,
,,,,,,,,,,,,41103,2021-05-24_21h41.12.070,judgeSpeechMusic_20210519_logNormShiftAmp_mXs,2020.1.2,MacIntel,60,,,,,,,,,,,,,,1,6.44055,,0,1,144,294,11,1,stimuli/stim_20210519_power2amp/equal_lnn_AM1Hz_s25_16.m4a,,,
,,,,,,,,,,,,41103,2021-05-24_21h41.12.070,judgeSpeechMusic_20210519_logNormShiftAmp_mXs,2020.1.2,MacIntel,60,,,,,,,,,,,,,,1,5.558755,,0,1,145,295,146,1,stimuli/stim_20210519_power2amp/equal_lnn_AM4Hz_s55_33.m4a,,,
,,,,,,,,,,,,41103,2021-05-24_21h41.12.070,judgeSpeechMusic_20210519_logNormShiftAmp_mXs,2020.1.2,MacIntel,60,,,,,,,,,,,,,,1,7.559675,,0,1,146,296,144,1,stimuli/stim_20210519_power2amp/equal_lnn_AM4Hz_s55_48.m4a,,,
,,,,,,,,,,,,41103,2021-05-24_21h41.12.070,judgeSpeechMusic_20210519_logNormShiftAmp_mXs,2020.1.2,MacIntel,60,,,,,,,,,,,,,,2,5.67475,,0,1,147,297,99,1,stimuli/stim_20210519_power2amp/equal_lnn_AM2.5Hz_s55_24.m4a,,,
,,,,,,,,,,,,41103,2021-05-24_21h41.12.070,judgeSpeechMusic_20210519_logNormShiftAmp_mXs,2020.1.2,MacIntel,60,,,,,,,,,,,,,,1,6.91245,,0,1,148,298,92,1,stimuli/stim_20210519_power2amp/equal_lnn_AM2.5Hz_s55_12.m4a,,,
,,,,,,,,,,,,41103,2021-05-24_21h41.12.070,judgeSpeechMusic_20210519_logNormShiftAmp_mXs,2020.1.2,MacIntel,60,,,,,,,,,,,,,,1,5.226445,,0,1,149,299,45,1,stimuli/stim_20210519_power2amp/equal_lnn_AM1Hz_s55_18.m4a,,,
,,,,,,,,,,,,41103,2021-05-24_21h41.12.070,judgeSpeechMusic_20210519_logNormShiftAmp_mXs,2020.1.2,MacIntel,60,,,,,,,,,,,,,,,,,,,,,,,,,space,4.103885
