volAdjustRep.thisRepN,volAdjustRep.thisTrialN,volAdjustRep.thisN,volAdjustRep.thisIndex,volAdjustRep.ran,participant,date,expName,psychopyVersion,OS,frameRate,headphoneResponse.keys,headphoneResponse.corr,headphoneResponse.rt,headphoneTrial.thisRepN,headphoneTrial.thisTrialN,headphoneTrial.thisN,headphoneTrial.thisIndex,headphoneTrial.ran,headphone_sound1,headphone_sound2,headphone_sound3,corrAns,trainSlider.response,trainSlider.rt,beepTrainResponse.keys,beepTrainResponse.corr,trainingTrials.thisRepN,trainingTrials.thisTrialN,trainingTrials.thisN,trainingTrials.thisIndex,trainingTrials.ran,trainAudioFile,beepTrainResponse.rt,readyReal_resp.keys,readyReal_resp.rt,ratingSlider.response,ratingSlider.rt,beepResp.keys,beepResp.corr,expTrials.thisRepN,expTrials.thisTrialN,expTrials.thisN,expTrials.thisIndex,expTrials.ran,audioFile,beepResp.rt,end_resp.keys,end_resp.rt
0,0,0,0,1,41227,2021-05-22_20h26.50.956,judgeSpeechMusic_20210519_logNormShiftAmp_mXs,2020.1.2,Win32,60,,,,,,,,,,,,,,,,,,,,,,,,,,,,,,,,,,,,,,
,,,,,41227,2021-05-22_20h26.50.956,judgeSpeechMusic_20210519_logNormShiftAmp_mXs,2020.1.2,Win32,60,2,1,0.803625,0,0,0,1,1,stimuli/screen_antiphase.wav,stimuli/screen_quiet.wav,stimuli/screen_origin.wav,2,,,,,,,,,,,,,,,,,,,,,,,,,,
,,,,,41227,2021-05-22_20h26.50.956,judgeSpeechMusic_20210519_logNormShiftAmp_mXs,2020.1.2,Win32,60,1,1,1.724455,0,1,1,4,1,stimuli/screen_quiet.wav,stimuli/screen_antiphase.wav,stimuli/screen_origin.wav,1,,,,,,,,,,,,,,,,,,,,,,,,,,
,,,,,41227,2021-05-22_20h26.50.956,judgeSpeechMusic_20210519_logNormShiftAmp_mXs,2020.1.2,Win32,60,3,1,0.434105,0,2,2,2,1,stimuli/screen_origin.wav,stimuli/screen_antiphase.wav,stimuli/screen_quiet.wav,3,,,,,,,,,,,,,,,,,,,,,,,,,,
,,,,,41227,2021-05-22_20h26.50.956,judgeSpeechMusic_20210519_logNormShiftAmp_mXs,2020.1.2,Win32,60,1,1,0.640305,0,3,3,5,1,stimuli/screen_quiet.wav,stimuli/screen_origin.wav,stimuli/screen_antiphase.wav,1,,,,,,,,,,,,,,,,,,,,,,,,,,
,,,,,41227,2021-05-22_20h26.50.956,judgeSpeechMusic_20210519_logNormShiftAmp_mXs,2020.1.2,Win32,60,2,1,1.41678,0,4,4,3,1,stimuli/screen_origin.wav,stimuli/screen_quiet.wav,stimuli/screen_antiphase.wav,2,,,,,,,,,,,,,,,,,,,,,,,,,,
,,,,,41227,2021-05-22_20h26.50.956,judgeSpeechMusic_20210519_logNormShiftAmp_mXs,2020.1.2,Win32,60,3,1,0.82295,0,5,5,0,1,stimuli/screen_antiphase.wav,stimuli/screen_origin.wav,stimuli/screen_quiet.wav,3,,,,,,,,,,,,,,,,,,,,,,,,,,
,,,,,41227,2021-05-22_20h26.50.956,judgeSpeechMusic_20210519_logNormShiftAmp_mXs,2020.1.2,Win32,60,,,,,,,,,,,,,2,14.717845,,0,0,0,0,0,1,stimuli/stim_20210519_power2amp/equal_lnn_AM_training1.5Hz_s20.m4a,,,,,,,,,,,,,,,,
,,,,,41227,2021-05-22_20h26.50.956,judgeSpeechMusic_20210519_logNormShiftAmp_mXs,2020.1.2,Win32,60,,,,,,,,,,,,,1,16.91237,,0,0,1,1,1,1,stimuli/stim_20210519_power2amp/equal_lnn_AM_training1.5Hz_s50.m4a,,,,,,,,,,,,,,,,
,,,,,41227,2021-05-22_20h26.50.956,judgeSpeechMusic_20210519_logNormShiftAmp_mXs,2020.1.2,Win32,60,,,,,,,,,,,,,1,7.35557,2,1,0,2,2,2,1,stimuli/stim_20210519_power2amp/equal_lnn_AM_training3.5Hz_s20.m4a,1.37288,,,,,,,,,,,,,,,
,,,,,41227,2021-05-22_20h26.50.956,judgeSpeechMusic_20210519_logNormShiftAmp_mXs,2020.1.2,Win32,60,,,,,,,,,,,,,2,7.20174,,0,0,3,3,3,1,stimuli/stim_20210519_power2amp/equal_lnn_AM_training3.5Hz_s50.m4a,,,,,,,,,,,,,,,,
,,,,,41227,2021-05-22_20h26.50.956,judgeSpeechMusic_20210519_logNormShiftAmp_mXs,2020.1.2,Win32,60,,,,,,,,,,,,,,,,,,,,,,,,space,8.782075,2,7.59214,,0,0,0,0,52,1,stimuli/stim_20210519_power2amp/equal_lnn_AM2.5Hz_s15_24.m4a,,,
,,,,,41227,2021-05-22_20h26.50.956,judgeSpeechMusic_20210519_logNormShiftAmp_mXs,2020.1.2,Win32,60,,,,,,,,,,,,,,,,,,,,,,,,,,1,6.280735,,0,0,1,1,27,1,stimuli/stim_20210519_power2amp/equal_lnn_AM1Hz_s35_21.m4a,,,
,,,,,41227,2021-05-22_20h26.50.956,judgeSpeechMusic_20210519_logNormShiftAmp_mXs,2020.1.2,Win32,60,,,,,,,,,,,,,,,,,,,,,,,,,,1,7.203055,,0,0,2,2,24,1,stimuli/stim_20210519_power2amp/equal_lnn_AM1Hz_s35_31.m4a,,,
,,,,,41227,2021-05-22_20h26.50.956,judgeSpeechMusic_20210519_logNormShiftAmp_mXs,2020.1.2,Win32,60,,,,,,,,,,,,,,,,,,,,,,,,,,2,9.298595,,0,0,3,3,53,1,stimuli/stim_20210519_power2amp/equal_lnn_AM2.5Hz_s15_19.m4a,,,
,,,,,41227,2021-05-22_20h26.50.956,judgeSpeechMusic_20210519_logNormShiftAmp_mXs,2020.1.2,Win32,60,,,,,,,,,,,,,,,,,,,,,,,,,,2,6.38356,,0,0,4,4,71,1,stimuli/stim_20210519_power2amp/equal_lnn_AM2.5Hz_s35_4.m4a,,,
,,,,,41227,2021-05-22_20h26.50.956,judgeSpeechMusic_20210519_logNormShiftAmp_mXs,2020.1.2,Win32,60,,,,,,,,,,,,,,,,,,,,,,,,,,2,11.18556,,0,0,5,5,145,1,stimuli/stim_20210519_power2amp/equal_lnn_AM4Hz_s55_30.m4a,,,
,,,,,41227,2021-05-22_20h26.50.956,judgeSpeechMusic_20210519_logNormShiftAmp_mXs,2020.1.2,Win32,60,,,,,,,,,,,,,,,,,,,,,,,,,,1,6.21737,,0,0,6,6,139,1,stimuli/stim_20210519_power2amp/equal_lnn_AM4Hz_s45_35.m4a,,,
,,,,,41227,2021-05-22_20h26.50.956,judgeSpeechMusic_20210519_logNormShiftAmp_mXs,2020.1.2,Win32,60,,,,,,,,,,,,,,,,,,,,,,,,,,1,6.15362,,0,0,7,7,148,1,stimuli/stim_20210519_power2amp/equal_lnn_AM4Hz_s55_19.m4a,,,
,,,,,41227,2021-05-22_20h26.50.956,judgeSpeechMusic_20210519_logNormShiftAmp_mXs,2020.1.2,Win32,60,,,,,,,,,,,,,,,,,,,,,,,,,,1,9.54966,,0,0,8,8,102,1,stimuli/stim_20210519_power2amp/equal_lnn_AM4Hz_s15_46.m4a,,,
,,,,,41227,2021-05-22_20h26.50.956,judgeSpeechMusic_20210519_logNormShiftAmp_mXs,2020.1.2,Win32,60,,,,,,,,,,,,,,,,,,,,,,,,,,2,25.087735,,0,0,9,9,36,1,stimuli/stim_20210519_power2amp/equal_lnn_AM1Hz_s45_48.m4a,,,
,,,,,41227,2021-05-22_20h26.50.956,judgeSpeechMusic_20210519_logNormShiftAmp_mXs,2020.1.2,Win32,60,,,,,,,,,,,,,,,,,,,,,,,,,,1,8.65022,,0,0,10,10,132,1,stimuli/stim_20210519_power2amp/equal_lnn_AM4Hz_s45_36.m4a,,,
,,,,,41227,2021-05-22_20h26.50.956,judgeSpeechMusic_20210519_logNormShiftAmp_mXs,2020.1.2,Win32,60,,,,,,,,,,,,,,,,,,,,,,,,,,1,7.71785,,0,0,11,11,46,1,stimuli/stim_20210519_power2amp/equal_lnn_AM1Hz_s55_40.m4a,,,
,,,,,41227,2021-05-22_20h26.50.956,judgeSpeechMusic_20210519_logNormShiftAmp_mXs,2020.1.2,Win32,60,,,,,,,,,,,,,,,,,,,,,,,,,,1,16.03325,,0,0,12,12,4,1,stimuli/stim_20210519_power2amp/equal_lnn_AM1Hz_s15_4.m4a,,,
,,,,,41227,2021-05-22_20h26.50.956,judgeSpeechMusic_20210519_logNormShiftAmp_mXs,2020.1.2,Win32,60,,,,,,,,,,,,,,,,,,,,,,,,,,2,6.17586,,0,0,13,13,99,1,stimuli/stim_20210519_power2amp/equal_lnn_AM2.5Hz_s55_7.m4a,,,
,,,,,41227,2021-05-22_20h26.50.956,judgeSpeechMusic_20210519_logNormShiftAmp_mXs,2020.1.2,Win32,60,,,,,,,,,,,,,,,,,,,,,,,,,,1,15.564185,,0,0,14,14,48,1,stimuli/stim_20210519_power2amp/equal_lnn_AM1Hz_s55_14.m4a,,,
,,,,,41227,2021-05-22_20h26.50.956,judgeSpeechMusic_20210519_logNormShiftAmp_mXs,2020.1.2,Win32,60,,,,,,,,,,,,,,,,,,,,,,,,,,2,12.134145,,0,0,15,15,5,1,stimuli/stim_20210519_power2amp/equal_lnn_AM1Hz_s15_29.m4a,,,
,,,,,41227,2021-05-22_20h26.50.956,judgeSpeechMusic_20210519_logNormShiftAmp_mXs,2020.1.2,Win32,60,,,,,,,,,,,,,,,,,,,,,,,,,,1,6.74991,,0,0,16,16,55,1,stimuli/stim_20210519_power2amp/equal_lnn_AM2.5Hz_s15_10.m4a,,,
,,,,,41227,2021-05-22_20h26.50.956,judgeSpeechMusic_20210519_logNormShiftAmp_mXs,2020.1.2,Win32,60,,,,,,,,,,,,,,,,,,,,,,,,,,2,6.25171,,0,0,17,17,6,1,stimuli/stim_20210519_power2amp/equal_lnn_AM1Hz_s15_44.m4a,,,
,,,,,41227,2021-05-22_20h26.50.956,judgeSpeechMusic_20210519_logNormShiftAmp_mXs,2020.1.2,Win32,60,,,,,,,,,,,,,,,,,,,,,,,,,,2,10.517475,,0,0,18,18,134,1,stimuli/stim_20210519_power2amp/equal_lnn_AM4Hz_s45_45.m4a,,,
,,,,,41227,2021-05-22_20h26.50.956,judgeSpeechMusic_20210519_logNormShiftAmp_mXs,2020.1.2,Win32,60,,,,,,,,,,,,,,,,,,,,,,,,,,2,6.19337,,0,0,19,19,125,1,stimuli/stim_20210519_power2amp/equal_lnn_AM4Hz_s35_29.m4a,,,
,,,,,41227,2021-05-22_20h26.50.956,judgeSpeechMusic_20210519_logNormShiftAmp_mXs,2020.1.2,Win32,60,,,,,,,,,,,,,,,,,,,,,,,,,,1,6.487075,,0,0,20,20,3,1,stimuli/stim_20210519_power2amp/equal_lnn_AM1Hz_s15_48.m4a,,,
,,,,,41227,2021-05-22_20h26.50.956,judgeSpeechMusic_20210519_logNormShiftAmp_mXs,2020.1.2,Win32,60,,,,,,,,,,,,,,,,,,,,,,,,,,2,5.851715,,0,0,21,21,115,1,stimuli/stim_20210519_power2amp/equal_lnn_AM4Hz_s25_25.m4a,,,
,,,,,41227,2021-05-22_20h26.50.956,judgeSpeechMusic_20210519_logNormShiftAmp_mXs,2020.1.2,Win32,60,,,,,,,,,,,,,,,,,,,,,,,,,,2,5.97205,,0,0,22,22,133,1,stimuli/stim_20210519_power2amp/equal_lnn_AM4Hz_s45_33.m4a,,,
,,,,,41227,2021-05-22_20h26.50.956,judgeSpeechMusic_20210519_logNormShiftAmp_mXs,2020.1.2,Win32,60,,,,,,,,,,,,,,,,,,,,,,,,,,1,6.202455,,0,0,23,23,30,1,stimuli/stim_20210519_power2amp/equal_lnn_AM1Hz_s45_19.m4a,,,
,,,,,41227,2021-05-22_20h26.50.956,judgeSpeechMusic_20210519_logNormShiftAmp_mXs,2020.1.2,Win32,60,,,,,,,,,,,,,,,,,,,,,,,,,,2,5.903795,,0,0,24,24,120,1,stimuli/stim_20210519_power2amp/equal_lnn_AM4Hz_s35_22.m4a,,,
,,,,,41227,2021-05-22_20h26.50.956,judgeSpeechMusic_20210519_logNormShiftAmp_mXs,2020.1.2,Win32,60,,,,,,,,,,,,,,,,,,,,,,,,,,1,5.968695,,0,0,25,25,109,1,stimuli/stim_20210519_power2amp/equal_lnn_AM4Hz_s15_36.m4a,,,
,,,,,41227,2021-05-22_20h26.50.956,judgeSpeechMusic_20210519_logNormShiftAmp_mXs,2020.1.2,Win32,60,,,,,,,,,,,,,,,,,,,,,,,,,,1,5.810975,,0,0,26,26,44,1,stimuli/stim_20210519_power2amp/equal_lnn_AM1Hz_s55_36.m4a,,,
,,,,,41227,2021-05-22_20h26.50.956,judgeSpeechMusic_20210519_logNormShiftAmp_mXs,2020.1.2,Win32,60,,,,,,,,,,,,,,,,,,,,,,,,,,2,6.30512,,0,0,27,27,110,1,stimuli/stim_20210519_power2amp/equal_lnn_AM4Hz_s25_30.m4a,,,
,,,,,41227,2021-05-22_20h26.50.956,judgeSpeechMusic_20210519_logNormShiftAmp_mXs,2020.1.2,Win32,60,,,,,,,,,,,,,,,,,,,,,,,,,,2,6.51887,,0,0,28,28,127,1,stimuli/stim_20210519_power2amp/equal_lnn_AM4Hz_s35_31.m4a,,,
,,,,,41227,2021-05-22_20h26.50.956,judgeSpeechMusic_20210519_logNormShiftAmp_mXs,2020.1.2,Win32,60,,,,,,,,,,,,,,,,,,,,,,,,,,2,6.85309,,0,0,29,29,91,1,stimuli/stim_20210519_power2amp/equal_lnn_AM2.5Hz_s55_23.m4a,,,
,,,,,41227,2021-05-22_20h26.50.956,judgeSpeechMusic_20210519_logNormShiftAmp_mXs,2020.1.2,Win32,60,,,,,,,,,,,,,,,,,,,,,,,,,,1,5.887385,,0,0,30,30,78,1,stimuli/stim_20210519_power2amp/equal_lnn_AM2.5Hz_s35_26.m4a,,,
,,,,,41227,2021-05-22_20h26.50.956,judgeSpeechMusic_20210519_logNormShiftAmp_mXs,2020.1.2,Win32,60,,,,,,,,,,,,,,,,,,,,,,,,,,1,5.67122,,0,0,31,31,63,1,stimuli/stim_20210519_power2amp/equal_lnn_AM2.5Hz_s25_45.m4a,,,
,,,,,41227,2021-05-22_20h26.50.956,judgeSpeechMusic_20210519_logNormShiftAmp_mXs,2020.1.2,Win32,60,,,,,,,,,,,,,,,,,,,,,,,,,,1,5.736215,,0,0,32,32,65,1,stimuli/stim_20210519_power2amp/equal_lnn_AM2.5Hz_s25_30.m4a,,,
,,,,,41227,2021-05-22_20h26.50.956,judgeSpeechMusic_20210519_logNormShiftAmp_mXs,2020.1.2,Win32,60,,,,,,,,,,,,,,,,,,,,,,,,,,2,5.70252,,0,0,33,33,119,1,stimuli/stim_20210519_power2amp/equal_lnn_AM4Hz_s25_39.m4a,,,
,,,,,41227,2021-05-22_20h26.50.956,judgeSpeechMusic_20210519_logNormShiftAmp_mXs,2020.1.2,Win32,60,,,,,,,,,,,,,,,,,,,,,,,,,,2,5.84515,,0,0,34,34,146,1,stimuli/stim_20210519_power2amp/equal_lnn_AM4Hz_s55_2.m4a,,,
,,,,,41227,2021-05-22_20h26.50.956,judgeSpeechMusic_20210519_logNormShiftAmp_mXs,2020.1.2,Win32,60,,,,,,,,,,,,,,,,,,,,,,,,,,2,6.4249,,0,0,35,35,43,1,stimuli/stim_20210519_power2amp/equal_lnn_AM1Hz_s55_49.m4a,,,
,,,,,41227,2021-05-22_20h26.50.956,judgeSpeechMusic_20210519_logNormShiftAmp_mXs,2020.1.2,Win32,60,,,,,,,,,,,,,,,,,,,,,,,,,,2,7.25247,3,1,0,36,36,69,1,stimuli/stim_20210519_power2amp/equal_lnn_AM2.5Hz_s25_2.m4a,1.414685,,
,,,,,41227,2021-05-22_20h26.50.956,judgeSpeechMusic_20210519_logNormShiftAmp_mXs,2020.1.2,Win32,60,,,,,,,,,,,,,,,,,,,,,,,,,,1,6.04355,,0,0,37,37,79,1,stimuli/stim_20210519_power2amp/equal_lnn_AM2.5Hz_s35_33.m4a,,,
,,,,,41227,2021-05-22_20h26.50.956,judgeSpeechMusic_20210519_logNormShiftAmp_mXs,2020.1.2,Win32,60,,,,,,,,,,,,,,,,,,,,,,,,,,1,5.737325,,0,0,38,38,41,1,stimuli/stim_20210519_power2amp/equal_lnn_AM1Hz_s55_21.m4a,,,
,,,,,41227,2021-05-22_20h26.50.956,judgeSpeechMusic_20210519_logNormShiftAmp_mXs,2020.1.2,Win32,60,,,,,,,,,,,,,,,,,,,,,,,,,,1,6.653055,,0,0,39,39,14,1,stimuli/stim_20210519_power2amp/equal_lnn_AM1Hz_s25_29.m4a,,,
,,,,,41227,2021-05-22_20h26.50.956,judgeSpeechMusic_20210519_logNormShiftAmp_mXs,2020.1.2,Win32,60,,,,,,,,,,,,,,,,,,,,,,,,,,2,7.06707,,0,0,40,40,81,1,stimuli/stim_20210519_power2amp/equal_lnn_AM2.5Hz_s45_40.m4a,,,
,,,,,41227,2021-05-22_20h26.50.956,judgeSpeechMusic_20210519_logNormShiftAmp_mXs,2020.1.2,Win32,60,,,,,,,,,,,,,,,,,,,,,,,,,,2,11.733195,,0,0,41,41,88,1,stimuli/stim_20210519_power2amp/equal_lnn_AM2.5Hz_s45_41.m4a,,,
,,,,,41227,2021-05-22_20h26.50.956,judgeSpeechMusic_20210519_logNormShiftAmp_mXs,2020.1.2,Win32,60,,,,,,,,,,,,,,,,,,,,,,,,,,2,5.83512,,0,0,42,42,128,1,stimuli/stim_20210519_power2amp/equal_lnn_AM4Hz_s35_50.m4a,,,
,,,,,41227,2021-05-22_20h26.50.956,judgeSpeechMusic_20210519_logNormShiftAmp_mXs,2020.1.2,Win32,60,,,,,,,,,,,,,,,,,,,,,,,,,,1,8.68279,,0,0,43,43,75,1,stimuli/stim_20210519_power2amp/equal_lnn_AM2.5Hz_s35_50.m4a,,,
,,,,,41227,2021-05-22_20h26.50.956,judgeSpeechMusic_20210519_logNormShiftAmp_mXs,2020.1.2,Win32,60,,,,,,,,,,,,,,,,,,,,,,,,,,1,7.49643,,0,0,44,44,76,1,stimuli/stim_20210519_power2amp/equal_lnn_AM2.5Hz_s35_45.m4a,,,
,,,,,41227,2021-05-22_20h26.50.956,judgeSpeechMusic_20210519_logNormShiftAmp_mXs,2020.1.2,Win32,60,,,,,,,,,,,,,,,,,,,,,,,,,,2,13.034035,,0,0,45,45,116,1,stimuli/stim_20210519_power2amp/equal_lnn_AM4Hz_s25_28.m4a,,,
,,,,,41227,2021-05-22_20h26.50.956,judgeSpeechMusic_20210519_logNormShiftAmp_mXs,2020.1.2,Win32,60,,,,,,,,,,,,,,,,,,,,,,,,,,1,7.199635,,0,0,46,46,9,1,stimuli/stim_20210519_power2amp/equal_lnn_AM1Hz_s15_47.m4a,,,
,,,,,41227,2021-05-22_20h26.50.956,judgeSpeechMusic_20210519_logNormShiftAmp_mXs,2020.1.2,Win32,60,,,,,,,,,,,,,,,,,,,,,,,,,,1,8.236895,,0,0,47,47,96,1,stimuli/stim_20210519_power2amp/equal_lnn_AM2.5Hz_s55_45.m4a,,,
,,,,,41227,2021-05-22_20h26.50.956,judgeSpeechMusic_20210519_logNormShiftAmp_mXs,2020.1.2,Win32,60,,,,,,,,,,,,,,,,,,,,,,,,,,2,6.38795,,0,0,48,48,123,1,stimuli/stim_20210519_power2amp/equal_lnn_AM4Hz_s35_41.m4a,,,
,,,,,41227,2021-05-22_20h26.50.956,judgeSpeechMusic_20210519_logNormShiftAmp_mXs,2020.1.2,Win32,60,,,,,,,,,,,,,,,,,,,,,,,,,,2,7.701655,,0,0,49,49,73,1,stimuli/stim_20210519_power2amp/equal_lnn_AM2.5Hz_s35_18.m4a,,,
,,,,,41227,2021-05-22_20h26.50.956,judgeSpeechMusic_20210519_logNormShiftAmp_mXs,2020.1.2,Win32,60,,,,,,,,,,,,,,,,,,,,,,,,,,2,12.16767,,0,0,50,50,47,1,stimuli/stim_20210519_power2amp/equal_lnn_AM1Hz_s55_37.m4a,,,
,,,,,41227,2021-05-22_20h26.50.956,judgeSpeechMusic_20210519_logNormShiftAmp_mXs,2020.1.2,Win32,60,,,,,,,,,,,,,,,,,,,,,,,,,,2,38.34081,,0,0,51,51,129,1,stimuli/stim_20210519_power2amp/equal_lnn_AM4Hz_s35_45.m4a,,,
,,,,,41227,2021-05-22_20h26.50.956,judgeSpeechMusic_20210519_logNormShiftAmp_mXs,2020.1.2,Win32,60,,,,,,,,,,,,,,,,,,,,,,,,,,2,16.468865,,0,0,52,52,82,1,stimuli/stim_20210519_power2amp/equal_lnn_AM2.5Hz_s45_37.m4a,,,
,,,,,41227,2021-05-22_20h26.50.956,judgeSpeechMusic_20210519_logNormShiftAmp_mXs,2020.1.2,Win32,60,,,,,,,,,,,,,,,,,,,,,,,,,,2,24.0348,,0,0,53,53,68,1,stimuli/stim_20210519_power2amp/equal_lnn_AM2.5Hz_s25_43.m4a,,,
,,,,,41227,2021-05-22_20h26.50.956,judgeSpeechMusic_20210519_logNormShiftAmp_mXs,2020.1.2,Win32,60,,,,,,,,,,,,,,,,,,,,,,,,,,1,6.03527,,0,0,54,54,121,1,stimuli/stim_20210519_power2amp/equal_lnn_AM4Hz_s35_10.m4a,,,
,,,,,41227,2021-05-22_20h26.50.956,judgeSpeechMusic_20210519_logNormShiftAmp_mXs,2020.1.2,Win32,60,,,,,,,,,,,,,,,,,,,,,,,,,,1,9.10453,,0,0,55,55,100,1,stimuli/stim_20210519_power2amp/equal_lnn_AM4Hz_s15_33.m4a,,,
,,,,,41227,2021-05-22_20h26.50.956,judgeSpeechMusic_20210519_logNormShiftAmp_mXs,2020.1.2,Win32,60,,,,,,,,,,,,,,,,,,,,,,,,,,2,7.32076,,0,0,56,56,136,1,stimuli/stim_20210519_power2amp/equal_lnn_AM4Hz_s45_41.m4a,,,
,,,,,41227,2021-05-22_20h26.50.956,judgeSpeechMusic_20210519_logNormShiftAmp_mXs,2020.1.2,Win32,60,,,,,,,,,,,,,,,,,,,,,,,,,,1,6.303705,,0,0,57,57,142,1,stimuli/stim_20210519_power2amp/equal_lnn_AM4Hz_s55_35.m4a,,,
,,,,,41227,2021-05-22_20h26.50.956,judgeSpeechMusic_20210519_logNormShiftAmp_mXs,2020.1.2,Win32,60,,,,,,,,,,,,,,,,,,,,,,,,,,1,6.45081,,0,0,58,58,15,1,stimuli/stim_20210519_power2amp/equal_lnn_AM1Hz_s25_1.m4a,,,
,,,,,41227,2021-05-22_20h26.50.956,judgeSpeechMusic_20210519_logNormShiftAmp_mXs,2020.1.2,Win32,60,,,,,,,,,,,,,,,,,,,,,,,,,,1,9.915985,,0,0,59,59,137,1,stimuli/stim_20210519_power2amp/equal_lnn_AM4Hz_s45_16.m4a,,,
,,,,,41227,2021-05-22_20h26.50.956,judgeSpeechMusic_20210519_logNormShiftAmp_mXs,2020.1.2,Win32,60,,,,,,,,,,,,,,,,,,,,,,,,,,1,7.157385,1,1,0,60,60,117,1,stimuli/stim_20210519_power2amp/equal_lnn_AM4Hz_s25_17.m4a,1.971555,,
,,,,,41227,2021-05-22_20h26.50.956,judgeSpeechMusic_20210519_logNormShiftAmp_mXs,2020.1.2,Win32,60,,,,,,,,,,,,,,,,,,,,,,,,,,1,9.967315,,0,0,61,61,0,1,stimuli/stim_20210519_power2amp/equal_lnn_AM1Hz_s15_20.m4a,,,
,,,,,41227,2021-05-22_20h26.50.956,judgeSpeechMusic_20210519_logNormShiftAmp_mXs,2020.1.2,Win32,60,,,,,,,,,,,,,,,,,,,,,,,,,,2,5.757895,,0,0,62,62,135,1,stimuli/stim_20210519_power2amp/equal_lnn_AM4Hz_s45_9.m4a,,,
,,,,,41227,2021-05-22_20h26.50.956,judgeSpeechMusic_20210519_logNormShiftAmp_mXs,2020.1.2,Win32,60,,,,,,,,,,,,,,,,,,,,,,,,,,1,5.92087,,0,0,63,63,1,1,stimuli/stim_20210519_power2amp/equal_lnn_AM1Hz_s15_9.m4a,,,
,,,,,41227,2021-05-22_20h26.50.956,judgeSpeechMusic_20210519_logNormShiftAmp_mXs,2020.1.2,Win32,60,,,,,,,,,,,,,,,,,,,,,,,,,,1,5.75516,,0,0,64,64,17,1,stimuli/stim_20210519_power2amp/equal_lnn_AM1Hz_s25_38.m4a,,,
,,,,,41227,2021-05-22_20h26.50.956,judgeSpeechMusic_20210519_logNormShiftAmp_mXs,2020.1.2,Win32,60,,,,,,,,,,,,,,,,,,,,,,,,,,2,21.35289,,0,0,65,65,85,1,stimuli/stim_20210519_power2amp/equal_lnn_AM2.5Hz_s45_20.m4a,,,
,,,,,41227,2021-05-22_20h26.50.956,judgeSpeechMusic_20210519_logNormShiftAmp_mXs,2020.1.2,Win32,60,,,,,,,,,,,,,,,,,,,,,,,,,,1,8.50017,,0,0,66,66,39,1,stimuli/stim_20210519_power2amp/equal_lnn_AM1Hz_s45_4.m4a,,,
,,,,,41227,2021-05-22_20h26.50.956,judgeSpeechMusic_20210519_logNormShiftAmp_mXs,2020.1.2,Win32,60,,,,,,,,,,,,,,,,,,,,,,,,,,1,8.054605,,0,0,67,67,12,1,stimuli/stim_20210519_power2amp/equal_lnn_AM1Hz_s25_10.m4a,,,
,,,,,41227,2021-05-22_20h26.50.956,judgeSpeechMusic_20210519_logNormShiftAmp_mXs,2020.1.2,Win32,60,,,,,,,,,,,,,,,,,,,,,,,,,,2,7.043275,,0,0,68,68,149,1,stimuli/stim_20210519_power2amp/equal_lnn_AM4Hz_s55_21.m4a,,,
,,,,,41227,2021-05-22_20h26.50.956,judgeSpeechMusic_20210519_logNormShiftAmp_mXs,2020.1.2,Win32,60,,,,,,,,,,,,,,,,,,,,,,,,,,2,6.90244,,0,0,69,69,64,1,stimuli/stim_20210519_power2amp/equal_lnn_AM2.5Hz_s25_41.m4a,,,
,,,,,41227,2021-05-22_20h26.50.956,judgeSpeechMusic_20210519_logNormShiftAmp_mXs,2020.1.2,Win32,60,,,,,,,,,,,,,,,,,,,,,,,,,,2,11.793335,,0,0,70,70,72,1,stimuli/stim_20210519_power2amp/equal_lnn_AM2.5Hz_s35_10.m4a,,,
,,,,,41227,2021-05-22_20h26.50.956,judgeSpeechMusic_20210519_logNormShiftAmp_mXs,2020.1.2,Win32,60,,,,,,,,,,,,,,,,,,,,,,,,,,1,7.267935,,0,0,71,71,34,1,stimuli/stim_20210519_power2amp/equal_lnn_AM1Hz_s45_50.m4a,,,
,,,,,41227,2021-05-22_20h26.50.956,judgeSpeechMusic_20210519_logNormShiftAmp_mXs,2020.1.2,Win32,60,,,,,,,,,,,,,,,,,,,,,,,,,,1,6.809455,,0,0,72,72,45,1,stimuli/stim_20210519_power2amp/equal_lnn_AM1Hz_s55_16.m4a,,,
,,,,,41227,2021-05-22_20h26.50.956,judgeSpeechMusic_20210519_logNormShiftAmp_mXs,2020.1.2,Win32,60,,,,,,,,,,,,,,,,,,,,,,,,,,1,7.52444,,0,0,73,73,90,1,stimuli/stim_20210519_power2amp/equal_lnn_AM2.5Hz_s55_38.m4a,,,
,,,,,41227,2021-05-22_20h26.50.956,judgeSpeechMusic_20210519_logNormShiftAmp_mXs,2020.1.2,Win32,60,,,,,,,,,,,,,,,,,,,,,,,,,,1,29.24769,,0,0,74,74,31,1,stimuli/stim_20210519_power2amp/equal_lnn_AM1Hz_s45_26.m4a,,,
,,,,,41227,2021-05-22_20h26.50.956,judgeSpeechMusic_20210519_logNormShiftAmp_mXs,2020.1.2,Win32,60,,,,,,,,,,,,,,,,,,,,,,,,,,2,6.133455,,0,0,75,75,141,1,stimuli/stim_20210519_power2amp/equal_lnn_AM4Hz_s55_3.m4a,,,
,,,,,41227,2021-05-22_20h26.50.956,judgeSpeechMusic_20210519_logNormShiftAmp_mXs,2020.1.2,Win32,60,,,,,,,,,,,,,,,,,,,,,,,,,,1,7.637065,,0,0,76,76,56,1,stimuli/stim_20210519_power2amp/equal_lnn_AM2.5Hz_s15_1.m4a,,,
,,,,,41227,2021-05-22_20h26.50.956,judgeSpeechMusic_20210519_logNormShiftAmp_mXs,2020.1.2,Win32,60,,,,,,,,,,,,,,,,,,,,,,,,,,2,5.68497,,0,0,77,77,92,1,stimuli/stim_20210519_power2amp/equal_lnn_AM2.5Hz_s55_33.m4a,,,
,,,,,41227,2021-05-22_20h26.50.956,judgeSpeechMusic_20210519_logNormShiftAmp_mXs,2020.1.2,Win32,60,,,,,,,,,,,,,,,,,,,,,,,,,,1,19.95235,,0,0,78,78,10,1,stimuli/stim_20210519_power2amp/equal_lnn_AM1Hz_s25_5.m4a,,,
,,,,,41227,2021-05-22_20h26.50.956,judgeSpeechMusic_20210519_logNormShiftAmp_mXs,2020.1.2,Win32,60,,,,,,,,,,,,,,,,,,,,,,,,,,1,8.38316,,0,0,79,79,33,1,stimuli/stim_20210519_power2amp/equal_lnn_AM1Hz_s45_35.m4a,,,
,,,,,41227,2021-05-22_20h26.50.956,judgeSpeechMusic_20210519_logNormShiftAmp_mXs,2020.1.2,Win32,60,,,,,,,,,,,,,,,,,,,,,,,,,,2,5.903225,,0,0,80,80,113,1,stimuli/stim_20210519_power2amp/equal_lnn_AM4Hz_s25_47.m4a,,,
,,,,,41227,2021-05-22_20h26.50.956,judgeSpeechMusic_20210519_logNormShiftAmp_mXs,2020.1.2,Win32,60,,,,,,,,,,,,,,,,,,,,,,,,,,2,5.721845,,0,0,81,81,104,1,stimuli/stim_20210519_power2amp/equal_lnn_AM4Hz_s15_44.m4a,,,
,,,,,41227,2021-05-22_20h26.50.956,judgeSpeechMusic_20210519_logNormShiftAmp_mXs,2020.1.2,Win32,60,,,,,,,,,,,,,,,,,,,,,,,,,,1,5.85148,,0,0,82,82,38,1,stimuli/stim_20210519_power2amp/equal_lnn_AM1Hz_s45_22.m4a,,,
,,,,,41227,2021-05-22_20h26.50.956,judgeSpeechMusic_20210519_logNormShiftAmp_mXs,2020.1.2,Win32,60,,,,,,,,,,,,,,,,,,,,,,,,,,2,6.46673,,0,0,83,83,61,1,stimuli/stim_20210519_power2amp/equal_lnn_AM2.5Hz_s25_14.m4a,,,
,,,,,41227,2021-05-22_20h26.50.956,judgeSpeechMusic_20210519_logNormShiftAmp_mXs,2020.1.2,Win32,60,,,,,,,,,,,,,,,,,,,,,,,,,,2,7.93407,,0,0,84,84,40,1,stimuli/stim_20210519_power2amp/equal_lnn_AM1Hz_s55_30.m4a,,,
,,,,,41227,2021-05-22_20h26.50.956,judgeSpeechMusic_20210519_logNormShiftAmp_mXs,2020.1.2,Win32,60,,,,,,,,,,,,,,,,,,,,,,,,,,1,6.022075,3,1,0,85,85,51,1,stimuli/stim_20210519_power2amp/equal_lnn_AM2.5Hz_s15_25.m4a,1.104495,,
,,,,,41227,2021-05-22_20h26.50.956,judgeSpeechMusic_20210519_logNormShiftAmp_mXs,2020.1.2,Win32,60,,,,,,,,,,,,,,,,,,,,,,,,,,1,5.75681,,0,0,86,86,35,1,stimuli/stim_20210519_power2amp/equal_lnn_AM1Hz_s45_2.m4a,,,
,,,,,41227,2021-05-22_20h26.50.956,judgeSpeechMusic_20210519_logNormShiftAmp_mXs,2020.1.2,Win32,60,,,,,,,,,,,,,,,,,,,,,,,,,,2,7.054895,,0,0,87,87,87,1,stimuli/stim_20210519_power2amp/equal_lnn_AM2.5Hz_s45_35.m4a,,,
,,,,,41227,2021-05-22_20h26.50.956,judgeSpeechMusic_20210519_logNormShiftAmp_mXs,2020.1.2,Win32,60,,,,,,,,,,,,,,,,,,,,,,,,,,1,6.45317,,0,0,88,88,29,1,stimuli/stim_20210519_power2amp/equal_lnn_AM1Hz_s35_20.m4a,,,
,,,,,41227,2021-05-22_20h26.50.956,judgeSpeechMusic_20210519_logNormShiftAmp_mXs,2020.1.2,Win32,60,,,,,,,,,,,,,,,,,,,,,,,,,,1,5.936735,,0,0,89,89,42,1,stimuli/stim_20210519_power2amp/equal_lnn_AM1Hz_s55_17.m4a,,,
,,,,,41227,2021-05-22_20h26.50.956,judgeSpeechMusic_20210519_logNormShiftAmp_mXs,2020.1.2,Win32,60,,,,,,,,,,,,,,,,,,,,,,,,,,2,5.752965,,0,0,90,90,84,1,stimuli/stim_20210519_power2amp/equal_lnn_AM2.5Hz_s45_30.m4a,,,
,,,,,41227,2021-05-22_20h26.50.956,judgeSpeechMusic_20210519_logNormShiftAmp_mXs,2020.1.2,Win32,60,,,,,,,,,,,,,,,,,,,,,,,,,,1,5.804345,,0,0,91,91,58,1,stimuli/stim_20210519_power2amp/equal_lnn_AM2.5Hz_s15_2.m4a,,,
,,,,,41227,2021-05-22_20h26.50.956,judgeSpeechMusic_20210519_logNormShiftAmp_mXs,2020.1.2,Win32,60,,,,,,,,,,,,,,,,,,,,,,,,,,2,5.654135,,0,0,92,92,140,1,stimuli/stim_20210519_power2amp/equal_lnn_AM4Hz_s55_5.m4a,,,
,,,,,41227,2021-05-22_20h26.50.956,judgeSpeechMusic_20210519_logNormShiftAmp_mXs,2020.1.2,Win32,60,,,,,,,,,,,,,,,,,,,,,,,,,,1,10.439375,,0,0,93,93,25,1,stimuli/stim_20210519_power2amp/equal_lnn_AM1Hz_s35_22.m4a,,,
,,,,,41227,2021-05-22_20h26.50.956,judgeSpeechMusic_20210519_logNormShiftAmp_mXs,2020.1.2,Win32,60,,,,,,,,,,,,,,,,,,,,,,,,,,2,8.3506,,0,0,94,94,70,1,stimuli/stim_20210519_power2amp/equal_lnn_AM2.5Hz_s35_28.m4a,,,
,,,,,41227,2021-05-22_20h26.50.956,judgeSpeechMusic_20210519_logNormShiftAmp_mXs,2020.1.2,Win32,60,,,,,,,,,,,,,,,,,,,,,,,,,,1,5.784535,,0,0,95,95,2,1,stimuli/stim_20210519_power2amp/equal_lnn_AM1Hz_s15_37.m4a,,,
,,,,,41227,2021-05-22_20h26.50.956,judgeSpeechMusic_20210519_logNormShiftAmp_mXs,2020.1.2,Win32,60,,,,,,,,,,,,,,,,,,,,,,,,,,1,6.291055,,0,0,96,96,20,1,stimuli/stim_20210519_power2amp/equal_lnn_AM1Hz_s35_50.m4a,,,
,,,,,41227,2021-05-22_20h26.50.956,judgeSpeechMusic_20210519_logNormShiftAmp_mXs,2020.1.2,Win32,60,,,,,,,,,,,,,,,,,,,,,,,,,,1,5.72828,,0,0,97,97,59,1,stimuli/stim_20210519_power2amp/equal_lnn_AM2.5Hz_s15_8.m4a,,,
,,,,,41227,2021-05-22_20h26.50.956,judgeSpeechMusic_20210519_logNormShiftAmp_mXs,2020.1.2,Win32,60,,,,,,,,,,,,,,,,,,,,,,,,,,1,6.299935,,0,0,98,98,37,1,stimuli/stim_20210519_power2amp/equal_lnn_AM1Hz_s45_47.m4a,,,
,,,,,41227,2021-05-22_20h26.50.956,judgeSpeechMusic_20210519_logNormShiftAmp_mXs,2020.1.2,Win32,60,,,,,,,,,,,,,,,,,,,,,,,,,,2,5.785035,,0,0,99,99,144,1,stimuli/stim_20210519_power2amp/equal_lnn_AM4Hz_s55_41.m4a,,,
,,,,,41227,2021-05-22_20h26.50.956,judgeSpeechMusic_20210519_logNormShiftAmp_mXs,2020.1.2,Win32,60,,,,,,,,,,,,,,,,,,,,,,,,,,2,6.125035,,0,0,100,100,67,1,stimuli/stim_20210519_power2amp/equal_lnn_AM2.5Hz_s25_22.m4a,,,
,,,,,41227,2021-05-22_20h26.50.956,judgeSpeechMusic_20210519_logNormShiftAmp_mXs,2020.1.2,Win32,60,,,,,,,,,,,,,,,,,,,,,,,,,,1,5.923005,,0,0,101,101,22,1,stimuli/stim_20210519_power2amp/equal_lnn_AM1Hz_s35_23.m4a,,,
,,,,,41227,2021-05-22_20h26.50.956,judgeSpeechMusic_20210519_logNormShiftAmp_mXs,2020.1.2,Win32,60,,,,,,,,,,,,,,,,,,,,,,,,,,1,5.799075,,0,0,102,102,21,1,stimuli/stim_20210519_power2amp/equal_lnn_AM1Hz_s35_33.m4a,,,
,,,,,41227,2021-05-22_20h26.50.956,judgeSpeechMusic_20210519_logNormShiftAmp_mXs,2020.1.2,Win32,60,,,,,,,,,,,,,,,,,,,,,,,,,,2,5.82776,,0,0,103,103,147,1,stimuli/stim_20210519_power2amp/equal_lnn_AM4Hz_s55_25.m4a,,,
,,,,,41227,2021-05-22_20h26.50.956,judgeSpeechMusic_20210519_logNormShiftAmp_mXs,2020.1.2,Win32,60,,,,,,,,,,,,,,,,,,,,,,,,,,1,6.754215,,0,0,104,104,49,1,stimuli/stim_20210519_power2amp/equal_lnn_AM1Hz_s55_25.m4a,,,
,,,,,41227,2021-05-22_20h26.50.956,judgeSpeechMusic_20210519_logNormShiftAmp_mXs,2020.1.2,Win32,60,,,,,,,,,,,,,,,,,,,,,,,,,,1,5.71932,,0,0,105,105,23,1,stimuli/stim_20210519_power2amp/equal_lnn_AM1Hz_s35_3.m4a,,,
,,,,,41227,2021-05-22_20h26.50.956,judgeSpeechMusic_20210519_logNormShiftAmp_mXs,2020.1.2,Win32,60,,,,,,,,,,,,,,,,,,,,,,,,,,1,6.150715,,0,0,106,106,60,1,stimuli/stim_20210519_power2amp/equal_lnn_AM2.5Hz_s25_5.m4a,,,
,,,,,41227,2021-05-22_20h26.50.956,judgeSpeechMusic_20210519_logNormShiftAmp_mXs,2020.1.2,Win32,60,,,,,,,,,,,,,,,,,,,,,,,,,,1,5.77395,,0,0,107,107,11,1,stimuli/stim_20210519_power2amp/equal_lnn_AM1Hz_s25_18.m4a,,,
,,,,,41227,2021-05-22_20h26.50.956,judgeSpeechMusic_20210519_logNormShiftAmp_mXs,2020.1.2,Win32,60,,,,,,,,,,,,,,,,,,,,,,,,,,1,5.80487,2,1,0,108,108,18,1,stimuli/stim_20210519_power2amp/equal_lnn_AM1Hz_s25_50.m4a,1.17734,,
,,,,,41227,2021-05-22_20h26.50.956,judgeSpeechMusic_20210519_logNormShiftAmp_mXs,2020.1.2,Win32,60,,,,,,,,,,,,,,,,,,,,,,,,,,2,5.98358,,0,0,109,109,112,1,stimuli/stim_20210519_power2amp/equal_lnn_AM4Hz_s25_19.m4a,,,
,,,,,41227,2021-05-22_20h26.50.956,judgeSpeechMusic_20210519_logNormShiftAmp_mXs,2020.1.2,Win32,60,,,,,,,,,,,,,,,,,,,,,,,,,,1,7.76993,,0,0,110,110,77,1,stimuli/stim_20210519_power2amp/equal_lnn_AM2.5Hz_s35_1.m4a,,,
,,,,,41227,2021-05-22_20h26.50.956,judgeSpeechMusic_20210519_logNormShiftAmp_mXs,2020.1.2,Win32,60,,,,,,,,,,,,,,,,,,,,,,,,,,2,8.352885,,0,0,111,111,111,1,stimuli/stim_20210519_power2amp/equal_lnn_AM4Hz_s25_5.m4a,,,
,,,,,41227,2021-05-22_20h26.50.956,judgeSpeechMusic_20210519_logNormShiftAmp_mXs,2020.1.2,Win32,60,,,,,,,,,,,,,,,,,,,,,,,,,,1,6.16131,,0,0,112,112,7,1,stimuli/stim_20210519_power2amp/equal_lnn_AM1Hz_s15_18.m4a,,,
,,,,,41227,2021-05-22_20h26.50.956,judgeSpeechMusic_20210519_logNormShiftAmp_mXs,2020.1.2,Win32,60,,,,,,,,,,,,,,,,,,,,,,,,,,2,5.717615,,0,0,113,113,89,1,stimuli/stim_20210519_power2amp/equal_lnn_AM2.5Hz_s45_38.m4a,,,
,,,,,41227,2021-05-22_20h26.50.956,judgeSpeechMusic_20210519_logNormShiftAmp_mXs,2020.1.2,Win32,60,,,,,,,,,,,,,,,,,,,,,,,,,,2,5.925205,,0,0,114,114,97,1,stimuli/stim_20210519_power2amp/equal_lnn_AM2.5Hz_s55_43.m4a,,,
,,,,,41227,2021-05-22_20h26.50.956,judgeSpeechMusic_20210519_logNormShiftAmp_mXs,2020.1.2,Win32,60,,,,,,,,,,,,,,,,,,,,,,,,,,2,5.80105,,0,0,115,115,130,1,stimuli/stim_20210519_power2amp/equal_lnn_AM4Hz_s45_48.m4a,,,
,,,,,41227,2021-05-22_20h26.50.956,judgeSpeechMusic_20210519_logNormShiftAmp_mXs,2020.1.2,Win32,60,,,,,,,,,,,,,,,,,,,,,,,,,,2,6.08659,,0,0,116,116,118,1,stimuli/stim_20210519_power2amp/equal_lnn_AM4Hz_s25_2.m4a,,,
,,,,,41227,2021-05-22_20h26.50.956,judgeSpeechMusic_20210519_logNormShiftAmp_mXs,2020.1.2,Win32,60,,,,,,,,,,,,,,,,,,,,,,,,,,2,11.84811,,0,0,117,117,124,1,stimuli/stim_20210519_power2amp/equal_lnn_AM4Hz_s35_47.m4a,,,
,,,,,41227,2021-05-22_20h26.50.956,judgeSpeechMusic_20210519_logNormShiftAmp_mXs,2020.1.2,Win32,60,,,,,,,,,,,,,,,,,,,,,,,,,,2,7.493555,,0,0,118,118,74,1,stimuli/stim_20210519_power2amp/equal_lnn_AM2.5Hz_s35_9.m4a,,,
,,,,,41227,2021-05-22_20h26.50.956,judgeSpeechMusic_20210519_logNormShiftAmp_mXs,2020.1.2,Win32,60,,,,,,,,,,,,,,,,,,,,,,,,,,1,10.149765,,0,0,119,119,19,1,stimuli/stim_20210519_power2amp/equal_lnn_AM1Hz_s25_22.m4a,,,
,,,,,41227,2021-05-22_20h26.50.956,judgeSpeechMusic_20210519_logNormShiftAmp_mXs,2020.1.2,Win32,60,,,,,,,,,,,,,,,,,,,,,,,,,,2,6.87775,,0,0,120,120,98,1,stimuli/stim_20210519_power2amp/equal_lnn_AM2.5Hz_s55_27.m4a,,,
,,,,,41227,2021-05-22_20h26.50.956,judgeSpeechMusic_20210519_logNormShiftAmp_mXs,2020.1.2,Win32,60,,,,,,,,,,,,,,,,,,,,,,,,,,1,5.94109,,0,0,121,121,28,1,stimuli/stim_20210519_power2amp/equal_lnn_AM1Hz_s35_8.m4a,,,
,,,,,41227,2021-05-22_20h26.50.956,judgeSpeechMusic_20210519_logNormShiftAmp_mXs,2020.1.2,Win32,60,,,,,,,,,,,,,,,,,,,,,,,,,,2,5.904715,,0,0,122,122,86,1,stimuli/stim_20210519_power2amp/equal_lnn_AM2.5Hz_s45_49.m4a,,,
,,,,,41227,2021-05-22_20h26.50.956,judgeSpeechMusic_20210519_logNormShiftAmp_mXs,2020.1.2,Win32,60,,,,,,,,,,,,,,,,,,,,,,,,,,1,10.01494,,0,0,123,123,26,1,stimuli/stim_20210519_power2amp/equal_lnn_AM1Hz_s35_5.m4a,,,
,,,,,41227,2021-05-22_20h26.50.956,judgeSpeechMusic_20210519_logNormShiftAmp_mXs,2020.1.2,Win32,60,,,,,,,,,,,,,,,,,,,,,,,,,,2,5.88403,,0,0,124,124,105,1,stimuli/stim_20210519_power2amp/equal_lnn_AM4Hz_s15_12.m4a,,,
,,,,,41227,2021-05-22_20h26.50.956,judgeSpeechMusic_20210519_logNormShiftAmp_mXs,2020.1.2,Win32,60,,,,,,,,,,,,,,,,,,,,,,,,,,2,5.666805,,0,0,125,125,126,1,stimuli/stim_20210519_power2amp/equal_lnn_AM4Hz_s35_33.m4a,,,
,,,,,41227,2021-05-22_20h26.50.956,judgeSpeechMusic_20210519_logNormShiftAmp_mXs,2020.1.2,Win32,60,,,,,,,,,,,,,,,,,,,,,,,,,,2,5.7201,,0,0,126,126,80,1,stimuli/stim_20210519_power2amp/equal_lnn_AM2.5Hz_s45_17.m4a,,,
,,,,,41227,2021-05-22_20h26.50.956,judgeSpeechMusic_20210519_logNormShiftAmp_mXs,2020.1.2,Win32,60,,,,,,,,,,,,,,,,,,,,,,,,,,1,6.017955,,0,0,127,127,66,1,stimuli/stim_20210519_power2amp/equal_lnn_AM2.5Hz_s25_8.m4a,,,
,,,,,41227,2021-05-22_20h26.50.956,judgeSpeechMusic_20210519_logNormShiftAmp_mXs,2020.1.2,Win32,60,,,,,,,,,,,,,,,,,,,,,,,,,,1,5.799905,,0,0,128,128,13,1,stimuli/stim_20210519_power2amp/equal_lnn_AM1Hz_s25_24.m4a,,,
,,,,,41227,2021-05-22_20h26.50.956,judgeSpeechMusic_20210519_logNormShiftAmp_mXs,2020.1.2,Win32,60,,,,,,,,,,,,,,,,,,,,,,,,,,2,6.08446,,0,0,129,129,54,1,stimuli/stim_20210519_power2amp/equal_lnn_AM2.5Hz_s15_4.m4a,,,
,,,,,41227,2021-05-22_20h26.50.956,judgeSpeechMusic_20210519_logNormShiftAmp_mXs,2020.1.2,Win32,60,,,,,,,,,,,,,,,,,,,,,,,,,,2,6.02198,2,1,0,130,130,93,1,stimuli/stim_20210519_power2amp/equal_lnn_AM2.5Hz_s55_50.m4a,1.21395,,
,,,,,41227,2021-05-22_20h26.50.956,judgeSpeechMusic_20210519_logNormShiftAmp_mXs,2020.1.2,Win32,60,,,,,,,,,,,,,,,,,,,,,,,,,,2,6.508905,,0,0,131,131,95,1,stimuli/stim_20210519_power2amp/equal_lnn_AM2.5Hz_s55_49.m4a,,,
,,,,,41227,2021-05-22_20h26.50.956,judgeSpeechMusic_20210519_logNormShiftAmp_mXs,2020.1.2,Win32,60,,,,,,,,,,,,,,,,,,,,,,,,,,2,5.98411,,0,0,132,132,101,1,stimuli/stim_20210519_power2amp/equal_lnn_AM4Hz_s15_50.m4a,,,
,,,,,41227,2021-05-22_20h26.50.956,judgeSpeechMusic_20210519_logNormShiftAmp_mXs,2020.1.2,Win32,60,,,,,,,,,,,,,,,,,,,,,,,,,,2,6.68931,,0,0,133,133,62,1,stimuli/stim_20210519_power2amp/equal_lnn_AM2.5Hz_s25_18.m4a,,,
,,,,,41227,2021-05-22_20h26.50.956,judgeSpeechMusic_20210519_logNormShiftAmp_mXs,2020.1.2,Win32,60,,,,,,,,,,,,,,,,,,,,,,,,,,2,7.62108,,0,0,134,134,108,1,stimuli/stim_20210519_power2amp/equal_lnn_AM4Hz_s15_31.m4a,,,
,,,,,41227,2021-05-22_20h26.50.956,judgeSpeechMusic_20210519_logNormShiftAmp_mXs,2020.1.2,Win32,60,,,,,,,,,,,,,,,,,,,,,,,,,,2,13.33806,,0,0,135,135,103,1,stimuli/stim_20210519_power2amp/equal_lnn_AM4Hz_s15_10.m4a,,,
,,,,,41227,2021-05-22_20h26.50.956,judgeSpeechMusic_20210519_logNormShiftAmp_mXs,2020.1.2,Win32,60,,,,,,,,,,,,,,,,,,,,,,,,,,2,6.85053,,0,0,136,136,57,1,stimuli/stim_20210519_power2amp/equal_lnn_AM2.5Hz_s15_36.m4a,,,
,,,,,41227,2021-05-22_20h26.50.956,judgeSpeechMusic_20210519_logNormShiftAmp_mXs,2020.1.2,Win32,60,,,,,,,,,,,,,,,,,,,,,,,,,,2,5.951255,,0,0,137,137,107,1,stimuli/stim_20210519_power2amp/equal_lnn_AM4Hz_s15_16.m4a,,,
,,,,,41227,2021-05-22_20h26.50.956,judgeSpeechMusic_20210519_logNormShiftAmp_mXs,2020.1.2,Win32,60,,,,,,,,,,,,,,,,,,,,,,,,,,1,6.04313,,0,0,138,138,83,1,stimuli/stim_20210519_power2amp/equal_lnn_AM2.5Hz_s45_44.m4a,,,
,,,,,41227,2021-05-22_20h26.50.956,judgeSpeechMusic_20210519_logNormShiftAmp_mXs,2020.1.2,Win32,60,,,,,,,,,,,,,,,,,,,,,,,,,,1,5.7854,,0,0,139,139,32,1,stimuli/stim_20210519_power2amp/equal_lnn_AM1Hz_s45_42.m4a,,,
,,,,,41227,2021-05-22_20h26.50.956,judgeSpeechMusic_20210519_logNormShiftAmp_mXs,2020.1.2,Win32,60,,,,,,,,,,,,,,,,,,,,,,,,,,2,5.752315,,0,0,140,140,131,1,stimuli/stim_20210519_power2amp/equal_lnn_AM4Hz_s45_22.m4a,,,
,,,,,41227,2021-05-22_20h26.50.956,judgeSpeechMusic_20210519_logNormShiftAmp_mXs,2020.1.2,Win32,60,,,,,,,,,,,,,,,,,,,,,,,,,,1,6.900605,,0,0,141,141,8,1,stimuli/stim_20210519_power2amp/equal_lnn_AM1Hz_s15_39.m4a,,,
,,,,,41227,2021-05-22_20h26.50.956,judgeSpeechMusic_20210519_logNormShiftAmp_mXs,2020.1.2,Win32,60,,,,,,,,,,,,,,,,,,,,,,,,,,2,10.482255,,0,0,142,142,114,1,stimuli/stim_20210519_power2amp/equal_lnn_AM4Hz_s25_15.m4a,,,
,,,,,41227,2021-05-22_20h26.50.956,judgeSpeechMusic_20210519_logNormShiftAmp_mXs,2020.1.2,Win32,60,,,,,,,,,,,,,,,,,,,,,,,,,,2,7.18846,,0,0,143,143,106,1,stimuli/stim_20210519_power2amp/equal_lnn_AM4Hz_s15_45.m4a,,,
,,,,,41227,2021-05-22_20h26.50.956,judgeSpeechMusic_20210519_logNormShiftAmp_mXs,2020.1.2,Win32,60,,,,,,,,,,,,,,,,,,,,,,,,,,1,6.257465,,0,0,144,144,16,1,stimuli/stim_20210519_power2amp/equal_lnn_AM1Hz_s25_40.m4a,,,
,,,,,41227,2021-05-22_20h26.50.956,judgeSpeechMusic_20210519_logNormShiftAmp_mXs,2020.1.2,Win32,60,,,,,,,,,,,,,,,,,,,,,,,,,,2,5.7385,,0,0,145,145,94,1,stimuli/stim_20210519_power2amp/equal_lnn_AM2.5Hz_s55_30.m4a,,,
,,,,,41227,2021-05-22_20h26.50.956,judgeSpeechMusic_20210519_logNormShiftAmp_mXs,2020.1.2,Win32,60,,,,,,,,,,,,,,,,,,,,,,,,,,2,6.354345,,0,0,146,146,138,1,stimuli/stim_20210519_power2amp/equal_lnn_AM4Hz_s45_4.m4a,,,
,,,,,41227,2021-05-22_20h26.50.956,judgeSpeechMusic_20210519_logNormShiftAmp_mXs,2020.1.2,Win32,60,,,,,,,,,,,,,,,,,,,,,,,,,,2,6.50168,,0,0,147,147,122,1,stimuli/stim_20210519_power2amp/equal_lnn_AM4Hz_s35_26.m4a,,,
,,,,,41227,2021-05-22_20h26.50.956,judgeSpeechMusic_20210519_logNormShiftAmp_mXs,2020.1.2,Win32,60,,,,,,,,,,,,,,,,,,,,,,,,,,2,5.66103,,0,0,148,148,143,1,stimuli/stim_20210519_power2amp/equal_lnn_AM4Hz_s55_36.m4a,,,
,,,,,41227,2021-05-22_20h26.50.956,judgeSpeechMusic_20210519_logNormShiftAmp_mXs,2020.1.2,Win32,60,,,,,,,,,,,,,,,,,,,,,,,,,,2,7.3596,,0,0,149,149,50,1,stimuli/stim_20210519_power2amp/equal_lnn_AM2.5Hz_s15_23.m4a,,,
,,,,,41227,2021-05-22_20h26.50.956,judgeSpeechMusic_20210519_logNormShiftAmp_mXs,2020.1.2,Win32,60,,,,,,,,,,,,,,,,,,,,,,,,,,1,5.872435,,0,1,0,150,75,1,stimuli/stim_20210519_power2amp/equal_lnn_AM2.5Hz_s35_50.m4a,,,
,,,,,41227,2021-05-22_20h26.50.956,judgeSpeechMusic_20210519_logNormShiftAmp_mXs,2020.1.2,Win32,60,,,,,,,,,,,,,,,,,,,,,,,,,,1,6.354385,1,1,1,1,151,5,1,stimuli/stim_20210519_power2amp/equal_lnn_AM1Hz_s15_29.m4a,0.44537,,
,,,,,41227,2021-05-22_20h26.50.956,judgeSpeechMusic_20210519_logNormShiftAmp_mXs,2020.1.2,Win32,60,,,,,,,,,,,,,,,,,,,,,,,,,,1,5.91284,,0,1,2,152,74,1,stimuli/stim_20210519_power2amp/equal_lnn_AM2.5Hz_s35_9.m4a,,,
,,,,,41227,2021-05-22_20h26.50.956,judgeSpeechMusic_20210519_logNormShiftAmp_mXs,2020.1.2,Win32,60,,,,,,,,,,,,,,,,,,,,,,,,,,2,5.98632,,0,1,3,153,147,1,stimuli/stim_20210519_power2amp/equal_lnn_AM4Hz_s55_25.m4a,,,
,,,,,41227,2021-05-22_20h26.50.956,judgeSpeechMusic_20210519_logNormShiftAmp_mXs,2020.1.2,Win32,60,,,,,,,,,,,,,,,,,,,,,,,,,,2,20.485725,,0,1,4,154,91,1,stimuli/stim_20210519_power2amp/equal_lnn_AM2.5Hz_s55_23.m4a,,,
,,,,,41227,2021-05-22_20h26.50.956,judgeSpeechMusic_20210519_logNormShiftAmp_mXs,2020.1.2,Win32,60,,,,,,,,,,,,,,,,,,,,,,,,,,2,5.653585,,0,1,5,155,71,1,stimuli/stim_20210519_power2amp/equal_lnn_AM2.5Hz_s35_4.m4a,,,
,,,,,41227,2021-05-22_20h26.50.956,judgeSpeechMusic_20210519_logNormShiftAmp_mXs,2020.1.2,Win32,60,,,,,,,,,,,,,,,,,,,,,,,,,,2,5.81962,,0,1,6,156,86,1,stimuli/stim_20210519_power2amp/equal_lnn_AM2.5Hz_s45_49.m4a,,,
,,,,,41227,2021-05-22_20h26.50.956,judgeSpeechMusic_20210519_logNormShiftAmp_mXs,2020.1.2,Win32,60,,,,,,,,,,,,,,,,,,,,,,,,,,1,5.99177,,0,1,7,157,84,1,stimuli/stim_20210519_power2amp/equal_lnn_AM2.5Hz_s45_30.m4a,,,
,,,,,41227,2021-05-22_20h26.50.956,judgeSpeechMusic_20210519_logNormShiftAmp_mXs,2020.1.2,Win32,60,,,,,,,,,,,,,,,,,,,,,,,,,,2,9.151485,,0,1,8,158,144,1,stimuli/stim_20210519_power2amp/equal_lnn_AM4Hz_s55_41.m4a,,,
,,,,,41227,2021-05-22_20h26.50.956,judgeSpeechMusic_20210519_logNormShiftAmp_mXs,2020.1.2,Win32,60,,,,,,,,,,,,,,,,,,,,,,,,,,2,5.794785,,0,1,9,159,107,1,stimuli/stim_20210519_power2amp/equal_lnn_AM4Hz_s15_16.m4a,,,
,,,,,41227,2021-05-22_20h26.50.956,judgeSpeechMusic_20210519_logNormShiftAmp_mXs,2020.1.2,Win32,60,,,,,,,,,,,,,,,,,,,,,,,,,,1,6.10102,,0,1,10,160,2,1,stimuli/stim_20210519_power2amp/equal_lnn_AM1Hz_s15_37.m4a,,,
,,,,,41227,2021-05-22_20h26.50.956,judgeSpeechMusic_20210519_logNormShiftAmp_mXs,2020.1.2,Win32,60,,,,,,,,,,,,,,,,,,,,,,,,,,2,5.850885,,0,1,11,161,93,1,stimuli/stim_20210519_power2amp/equal_lnn_AM2.5Hz_s55_50.m4a,,,
,,,,,41227,2021-05-22_20h26.50.956,judgeSpeechMusic_20210519_logNormShiftAmp_mXs,2020.1.2,Win32,60,,,,,,,,,,,,,,,,,,,,,,,,,,1,5.91048,,0,1,12,162,13,1,stimuli/stim_20210519_power2amp/equal_lnn_AM1Hz_s25_24.m4a,,,
,,,,,41227,2021-05-22_20h26.50.956,judgeSpeechMusic_20210519_logNormShiftAmp_mXs,2020.1.2,Win32,60,,,,,,,,,,,,,,,,,,,,,,,,,,1,5.4693,,0,1,13,163,33,1,stimuli/stim_20210519_power2amp/equal_lnn_AM1Hz_s45_35.m4a,,,
,,,,,41227,2021-05-22_20h26.50.956,judgeSpeechMusic_20210519_logNormShiftAmp_mXs,2020.1.2,Win32,60,,,,,,,,,,,,,,,,,,,,,,,,,,2,6.451755,,0,1,14,164,113,1,stimuli/stim_20210519_power2amp/equal_lnn_AM4Hz_s25_47.m4a,,,
,,,,,41227,2021-05-22_20h26.50.956,judgeSpeechMusic_20210519_logNormShiftAmp_mXs,2020.1.2,Win32,60,,,,,,,,,,,,,,,,,,,,,,,,,,1,5.224835,,0,1,15,165,59,1,stimuli/stim_20210519_power2amp/equal_lnn_AM2.5Hz_s15_8.m4a,,,
,,,,,41227,2021-05-22_20h26.50.956,judgeSpeechMusic_20210519_logNormShiftAmp_mXs,2020.1.2,Win32,60,,,,,,,,,,,,,,,,,,,,,,,,,,2,5.273635,,0,1,16,166,92,1,stimuli/stim_20210519_power2amp/equal_lnn_AM2.5Hz_s55_33.m4a,,,
,,,,,41227,2021-05-22_20h26.50.956,judgeSpeechMusic_20210519_logNormShiftAmp_mXs,2020.1.2,Win32,60,,,,,,,,,,,,,,,,,,,,,,,,,,1,5.51724,,0,1,17,167,17,1,stimuli/stim_20210519_power2amp/equal_lnn_AM1Hz_s25_38.m4a,,,
,,,,,41227,2021-05-22_20h26.50.956,judgeSpeechMusic_20210519_logNormShiftAmp_mXs,2020.1.2,Win32,60,,,,,,,,,,,,,,,,,,,,,,,,,,2,5.40259,,0,1,18,168,134,1,stimuli/stim_20210519_power2amp/equal_lnn_AM4Hz_s45_45.m4a,,,
,,,,,41227,2021-05-22_20h26.50.956,judgeSpeechMusic_20210519_logNormShiftAmp_mXs,2020.1.2,Win32,60,,,,,,,,,,,,,,,,,,,,,,,,,,1,5.35195,,0,1,19,169,16,1,stimuli/stim_20210519_power2amp/equal_lnn_AM1Hz_s25_40.m4a,,,
,,,,,41227,2021-05-22_20h26.50.956,judgeSpeechMusic_20210519_logNormShiftAmp_mXs,2020.1.2,Win32,60,,,,,,,,,,,,,,,,,,,,,,,,,,1,5.372135,,0,1,20,170,11,1,stimuli/stim_20210519_power2amp/equal_lnn_AM1Hz_s25_18.m4a,,,
,,,,,41227,2021-05-22_20h26.50.956,judgeSpeechMusic_20210519_logNormShiftAmp_mXs,2020.1.2,Win32,60,,,,,,,,,,,,,,,,,,,,,,,,,,2,6.20386,,0,1,21,171,99,1,stimuli/stim_20210519_power2amp/equal_lnn_AM2.5Hz_s55_7.m4a,,,
,,,,,41227,2021-05-22_20h26.50.956,judgeSpeechMusic_20210519_logNormShiftAmp_mXs,2020.1.2,Win32,60,,,,,,,,,,,,,,,,,,,,,,,,,,2,5.42137,1,1,1,22,172,128,1,stimuli/stim_20210519_power2amp/equal_lnn_AM4Hz_s35_50.m4a,0.38015,,
,,,,,41227,2021-05-22_20h26.50.956,judgeSpeechMusic_20210519_logNormShiftAmp_mXs,2020.1.2,Win32,60,,,,,,,,,,,,,,,,,,,,,,,,,,2,5.38946,,0,1,23,173,135,1,stimuli/stim_20210519_power2amp/equal_lnn_AM4Hz_s45_9.m4a,,,
,,,,,41227,2021-05-22_20h26.50.956,judgeSpeechMusic_20210519_logNormShiftAmp_mXs,2020.1.2,Win32,60,,,,,,,,,,,,,,,,,,,,,,,,,,2,5.302245,,0,1,24,174,127,1,stimuli/stim_20210519_power2amp/equal_lnn_AM4Hz_s35_31.m4a,,,
,,,,,41227,2021-05-22_20h26.50.956,judgeSpeechMusic_20210519_logNormShiftAmp_mXs,2020.1.2,Win32,60,,,,,,,,,,,,,,,,,,,,,,,,,,1,5.440285,,0,1,25,175,24,1,stimuli/stim_20210519_power2amp/equal_lnn_AM1Hz_s35_31.m4a,,,
,,,,,41227,2021-05-22_20h26.50.956,judgeSpeechMusic_20210519_logNormShiftAmp_mXs,2020.1.2,Win32,60,,,,,,,,,,,,,,,,,,,,,,,,,,2,5.41806,,0,1,26,176,145,1,stimuli/stim_20210519_power2amp/equal_lnn_AM4Hz_s55_30.m4a,,,
,,,,,41227,2021-05-22_20h26.50.956,judgeSpeechMusic_20210519_logNormShiftAmp_mXs,2020.1.2,Win32,60,,,,,,,,,,,,,,,,,,,,,,,,,,1,5.219925,,0,1,27,177,68,1,stimuli/stim_20210519_power2amp/equal_lnn_AM2.5Hz_s25_43.m4a,,,
,,,,,41227,2021-05-22_20h26.50.956,judgeSpeechMusic_20210519_logNormShiftAmp_mXs,2020.1.2,Win32,60,,,,,,,,,,,,,,,,,,,,,,,,,,2,5.22139,,0,1,28,178,137,1,stimuli/stim_20210519_power2amp/equal_lnn_AM4Hz_s45_16.m4a,,,
,,,,,41227,2021-05-22_20h26.50.956,judgeSpeechMusic_20210519_logNormShiftAmp_mXs,2020.1.2,Win32,60,,,,,,,,,,,,,,,,,,,,,,,,,,1,6.30096,,0,1,29,179,66,1,stimuli/stim_20210519_power2amp/equal_lnn_AM2.5Hz_s25_8.m4a,,,
,,,,,41227,2021-05-22_20h26.50.956,judgeSpeechMusic_20210519_logNormShiftAmp_mXs,2020.1.2,Win32,60,,,,,,,,,,,,,,,,,,,,,,,,,,2,5.99348,,0,1,30,180,63,1,stimuli/stim_20210519_power2amp/equal_lnn_AM2.5Hz_s25_45.m4a,,,
,,,,,41227,2021-05-22_20h26.50.956,judgeSpeechMusic_20210519_logNormShiftAmp_mXs,2020.1.2,Win32,60,,,,,,,,,,,,,,,,,,,,,,,,,,1,6.182975,,0,1,31,181,44,1,stimuli/stim_20210519_power2amp/equal_lnn_AM1Hz_s55_36.m4a,,,
,,,,,41227,2021-05-22_20h26.50.956,judgeSpeechMusic_20210519_logNormShiftAmp_mXs,2020.1.2,Win32,60,,,,,,,,,,,,,,,,,,,,,,,,,,2,5.91713,,0,1,32,182,149,1,stimuli/stim_20210519_power2amp/equal_lnn_AM4Hz_s55_21.m4a,,,
,,,,,41227,2021-05-22_20h26.50.956,judgeSpeechMusic_20210519_logNormShiftAmp_mXs,2020.1.2,Win32,60,,,,,,,,,,,,,,,,,,,,,,,,,,2,8.21782,,0,1,33,183,85,1,stimuli/stim_20210519_power2amp/equal_lnn_AM2.5Hz_s45_20.m4a,,,
,,,,,41227,2021-05-22_20h26.50.956,judgeSpeechMusic_20210519_logNormShiftAmp_mXs,2020.1.2,Win32,60,,,,,,,,,,,,,,,,,,,,,,,,,,2,6.417545,,0,1,34,184,131,1,stimuli/stim_20210519_power2amp/equal_lnn_AM4Hz_s45_22.m4a,,,
,,,,,41227,2021-05-22_20h26.50.956,judgeSpeechMusic_20210519_logNormShiftAmp_mXs,2020.1.2,Win32,60,,,,,,,,,,,,,,,,,,,,,,,,,,1,6.416215,,0,1,35,185,41,1,stimuli/stim_20210519_power2amp/equal_lnn_AM1Hz_s55_21.m4a,,,
,,,,,41227,2021-05-22_20h26.50.956,judgeSpeechMusic_20210519_logNormShiftAmp_mXs,2020.1.2,Win32,60,,,,,,,,,,,,,,,,,,,,,,,,,,1,5.467415,,0,1,36,186,14,1,stimuli/stim_20210519_power2amp/equal_lnn_AM1Hz_s25_29.m4a,,,
,,,,,41227,2021-05-22_20h26.50.956,judgeSpeechMusic_20210519_logNormShiftAmp_mXs,2020.1.2,Win32,60,,,,,,,,,,,,,,,,,,,,,,,,,,1,5.242145,,0,1,37,187,38,1,stimuli/stim_20210519_power2amp/equal_lnn_AM1Hz_s45_22.m4a,,,
,,,,,41227,2021-05-22_20h26.50.956,judgeSpeechMusic_20210519_logNormShiftAmp_mXs,2020.1.2,Win32,60,,,,,,,,,,,,,,,,,,,,,,,,,,1,5.311075,,0,1,38,188,65,1,stimuli/stim_20210519_power2amp/equal_lnn_AM2.5Hz_s25_30.m4a,,,
,,,,,41227,2021-05-22_20h26.50.956,judgeSpeechMusic_20210519_logNormShiftAmp_mXs,2020.1.2,Win32,60,,,,,,,,,,,,,,,,,,,,,,,,,,1,5.49581,,0,1,39,189,42,1,stimuli/stim_20210519_power2amp/equal_lnn_AM1Hz_s55_17.m4a,,,
,,,,,41227,2021-05-22_20h26.50.956,judgeSpeechMusic_20210519_logNormShiftAmp_mXs,2020.1.2,Win32,60,,,,,,,,,,,,,,,,,,,,,,,,,,2,5.411875,,0,1,40,190,118,1,stimuli/stim_20210519_power2amp/equal_lnn_AM4Hz_s25_2.m4a,,,
,,,,,41227,2021-05-22_20h26.50.956,judgeSpeechMusic_20210519_logNormShiftAmp_mXs,2020.1.2,Win32,60,,,,,,,,,,,,,,,,,,,,,,,,,,2,5.268275,,0,1,41,191,88,1,stimuli/stim_20210519_power2amp/equal_lnn_AM2.5Hz_s45_41.m4a,,,
,,,,,41227,2021-05-22_20h26.50.956,judgeSpeechMusic_20210519_logNormShiftAmp_mXs,2020.1.2,Win32,60,,,,,,,,,,,,,,,,,,,,,,,,,,2,5.737555,,0,1,42,192,94,1,stimuli/stim_20210519_power2amp/equal_lnn_AM2.5Hz_s55_30.m4a,,,
,,,,,41227,2021-05-22_20h26.50.956,judgeSpeechMusic_20210519_logNormShiftAmp_mXs,2020.1.2,Win32,60,,,,,,,,,,,,,,,,,,,,,,,,,,1,6.420495,,0,1,43,193,25,1,stimuli/stim_20210519_power2amp/equal_lnn_AM1Hz_s35_22.m4a,,,
,,,,,41227,2021-05-22_20h26.50.956,judgeSpeechMusic_20210519_logNormShiftAmp_mXs,2020.1.2,Win32,60,,,,,,,,,,,,,,,,,,,,,,,,,,2,8.43834,,0,1,44,194,60,1,stimuli/stim_20210519_power2amp/equal_lnn_AM2.5Hz_s25_5.m4a,,,
,,,,,41227,2021-05-22_20h26.50.956,judgeSpeechMusic_20210519_logNormShiftAmp_mXs,2020.1.2,Win32,60,,,,,,,,,,,,,,,,,,,,,,,,,,1,6.217425,1,1,1,45,195,30,1,stimuli/stim_20210519_power2amp/equal_lnn_AM1Hz_s45_19.m4a,0.321265,,
,,,,,41227,2021-05-22_20h26.50.956,judgeSpeechMusic_20210519_logNormShiftAmp_mXs,2020.1.2,Win32,60,,,,,,,,,,,,,,,,,,,,,,,,,,2,6.949685,,0,1,46,196,77,1,stimuli/stim_20210519_power2amp/equal_lnn_AM2.5Hz_s35_1.m4a,,,
,,,,,41227,2021-05-22_20h26.50.956,judgeSpeechMusic_20210519_logNormShiftAmp_mXs,2020.1.2,Win32,60,,,,,,,,,,,,,,,,,,,,,,,,,,1,6.042985,,0,1,47,197,39,1,stimuli/stim_20210519_power2amp/equal_lnn_AM1Hz_s45_4.m4a,,,
,,,,,41227,2021-05-22_20h26.50.956,judgeSpeechMusic_20210519_logNormShiftAmp_mXs,2020.1.2,Win32,60,,,,,,,,,,,,,,,,,,,,,,,,,,2,5.21639,,0,1,48,198,90,1,stimuli/stim_20210519_power2amp/equal_lnn_AM2.5Hz_s55_38.m4a,,,
,,,,,41227,2021-05-22_20h26.50.956,judgeSpeechMusic_20210519_logNormShiftAmp_mXs,2020.1.2,Win32,60,,,,,,,,,,,,,,,,,,,,,,,,,,2,10.266855,,0,1,49,199,83,1,stimuli/stim_20210519_power2amp/equal_lnn_AM2.5Hz_s45_44.m4a,,,
,,,,,41227,2021-05-22_20h26.50.956,judgeSpeechMusic_20210519_logNormShiftAmp_mXs,2020.1.2,Win32,60,,,,,,,,,,,,,,,,,,,,,,,,,,2,5.489235,,0,1,50,200,121,1,stimuli/stim_20210519_power2amp/equal_lnn_AM4Hz_s35_10.m4a,,,
,,,,,41227,2021-05-22_20h26.50.956,judgeSpeechMusic_20210519_logNormShiftAmp_mXs,2020.1.2,Win32,60,,,,,,,,,,,,,,,,,,,,,,,,,,1,7.353855,,0,1,51,201,9,1,stimuli/stim_20210519_power2amp/equal_lnn_AM1Hz_s15_47.m4a,,,
,,,,,41227,2021-05-22_20h26.50.956,judgeSpeechMusic_20210519_logNormShiftAmp_mXs,2020.1.2,Win32,60,,,,,,,,,,,,,,,,,,,,,,,,,,1,129.733855,,0,1,52,202,148,1,stimuli/stim_20210519_power2amp/equal_lnn_AM4Hz_s55_19.m4a,,,
,,,,,41227,2021-05-22_20h26.50.956,judgeSpeechMusic_20210519_logNormShiftAmp_mXs,2020.1.2,Win32,60,,,,,,,,,,,,,,,,,,,,,,,,,,2,5.85165,,0,1,53,203,133,1,stimuli/stim_20210519_power2amp/equal_lnn_AM4Hz_s45_33.m4a,,,
,,,,,41227,2021-05-22_20h26.50.956,judgeSpeechMusic_20210519_logNormShiftAmp_mXs,2020.1.2,Win32,60,,,,,,,,,,,,,,,,,,,,,,,,,,1,10.415875,,0,1,54,204,1,1,stimuli/stim_20210519_power2amp/equal_lnn_AM1Hz_s15_9.m4a,,,
,,,,,41227,2021-05-22_20h26.50.956,judgeSpeechMusic_20210519_logNormShiftAmp_mXs,2020.1.2,Win32,60,,,,,,,,,,,,,,,,,,,,,,,,,,1,7.204565,,0,1,55,205,96,1,stimuli/stim_20210519_power2amp/equal_lnn_AM2.5Hz_s55_45.m4a,,,
,,,,,41227,2021-05-22_20h26.50.956,judgeSpeechMusic_20210519_logNormShiftAmp_mXs,2020.1.2,Win32,60,,,,,,,,,,,,,,,,,,,,,,,,,,2,7.45621,,0,1,56,206,51,1,stimuli/stim_20210519_power2amp/equal_lnn_AM2.5Hz_s15_25.m4a,,,
,,,,,41227,2021-05-22_20h26.50.956,judgeSpeechMusic_20210519_logNormShiftAmp_mXs,2020.1.2,Win32,60,,,,,,,,,,,,,,,,,,,,,,,,,,1,7.399895,,0,1,57,207,82,1,stimuli/stim_20210519_power2amp/equal_lnn_AM2.5Hz_s45_37.m4a,,,
,,,,,41227,2021-05-22_20h26.50.956,judgeSpeechMusic_20210519_logNormShiftAmp_mXs,2020.1.2,Win32,60,,,,,,,,,,,,,,,,,,,,,,,,,,2,6.600905,,0,1,58,208,116,1,stimuli/stim_20210519_power2amp/equal_lnn_AM4Hz_s25_28.m4a,,,
,,,,,41227,2021-05-22_20h26.50.956,judgeSpeechMusic_20210519_logNormShiftAmp_mXs,2020.1.2,Win32,60,,,,,,,,,,,,,,,,,,,,,,,,,,1,6.426795,,0,1,59,209,70,1,stimuli/stim_20210519_power2amp/equal_lnn_AM2.5Hz_s35_28.m4a,,,
,,,,,41227,2021-05-22_20h26.50.956,judgeSpeechMusic_20210519_logNormShiftAmp_mXs,2020.1.2,Win32,60,,,,,,,,,,,,,,,,,,,,,,,,,,2,5.78817,,0,1,60,210,78,1,stimuli/stim_20210519_power2amp/equal_lnn_AM2.5Hz_s35_26.m4a,,,
,,,,,41227,2021-05-22_20h26.50.956,judgeSpeechMusic_20210519_logNormShiftAmp_mXs,2020.1.2,Win32,60,,,,,,,,,,,,,,,,,,,,,,,,,,1,5.75202,,0,1,61,211,52,1,stimuli/stim_20210519_power2amp/equal_lnn_AM2.5Hz_s15_24.m4a,,,
,,,,,41227,2021-05-22_20h26.50.956,judgeSpeechMusic_20210519_logNormShiftAmp_mXs,2020.1.2,Win32,60,,,,,,,,,,,,,,,,,,,,,,,,,,2,5.38826,,0,1,62,212,132,1,stimuli/stim_20210519_power2amp/equal_lnn_AM4Hz_s45_36.m4a,,,
,,,,,41227,2021-05-22_20h26.50.956,judgeSpeechMusic_20210519_logNormShiftAmp_mXs,2020.1.2,Win32,60,,,,,,,,,,,,,,,,,,,,,,,,,,1,5.87041,,0,1,63,213,4,1,stimuli/stim_20210519_power2amp/equal_lnn_AM1Hz_s15_4.m4a,,,
,,,,,41227,2021-05-22_20h26.50.956,judgeSpeechMusic_20210519_logNormShiftAmp_mXs,2020.1.2,Win32,60,,,,,,,,,,,,,,,,,,,,,,,,,,1,6.320165,,0,1,64,214,69,1,stimuli/stim_20210519_power2amp/equal_lnn_AM2.5Hz_s25_2.m4a,,,
,,,,,41227,2021-05-22_20h26.50.956,judgeSpeechMusic_20210519_logNormShiftAmp_mXs,2020.1.2,Win32,60,,,,,,,,,,,,,,,,,,,,,,,,,,2,7.357455,,0,1,65,215,123,1,stimuli/stim_20210519_power2amp/equal_lnn_AM4Hz_s35_41.m4a,,,
,,,,,41227,2021-05-22_20h26.50.956,judgeSpeechMusic_20210519_logNormShiftAmp_mXs,2020.1.2,Win32,60,,,,,,,,,,,,,,,,,,,,,,,,,,2,16.500575,,0,1,66,216,53,1,stimuli/stim_20210519_power2amp/equal_lnn_AM2.5Hz_s15_19.m4a,,,
,,,,,41227,2021-05-22_20h26.50.956,judgeSpeechMusic_20210519_logNormShiftAmp_mXs,2020.1.2,Win32,60,,,,,,,,,,,,,,,,,,,,,,,,,,1,6.11756,4,1,1,67,217,37,1,stimuli/stim_20210519_power2amp/equal_lnn_AM1Hz_s45_47.m4a,1.27355,,
,,,,,41227,2021-05-22_20h26.50.956,judgeSpeechMusic_20210519_logNormShiftAmp_mXs,2020.1.2,Win32,60,,,,,,,,,,,,,,,,,,,,,,,,,,1,5.959165,,0,1,68,218,45,1,stimuli/stim_20210519_power2amp/equal_lnn_AM1Hz_s55_16.m4a,,,
,,,,,41227,2021-05-22_20h26.50.956,judgeSpeechMusic_20210519_logNormShiftAmp_mXs,2020.1.2,Win32,60,,,,,,,,,,,,,,,,,,,,,,,,,,2,10.208685,,0,1,69,219,98,1,stimuli/stim_20210519_power2amp/equal_lnn_AM2.5Hz_s55_27.m4a,,,
,,,,,41227,2021-05-22_20h26.50.956,judgeSpeechMusic_20210519_logNormShiftAmp_mXs,2020.1.2,Win32,60,,,,,,,,,,,,,,,,,,,,,,,,,,2,5.7516,,0,1,70,220,129,1,stimuli/stim_20210519_power2amp/equal_lnn_AM4Hz_s35_45.m4a,,,
,,,,,41227,2021-05-22_20h26.50.956,judgeSpeechMusic_20210519_logNormShiftAmp_mXs,2020.1.2,Win32,60,,,,,,,,,,,,,,,,,,,,,,,,,,2,9.73403,,0,1,71,221,105,1,stimuli/stim_20210519_power2amp/equal_lnn_AM4Hz_s15_12.m4a,,,
,,,,,41227,2021-05-22_20h26.50.956,judgeSpeechMusic_20210519_logNormShiftAmp_mXs,2020.1.2,Win32,60,,,,,,,,,,,,,,,,,,,,,,,,,,1,7.97378,,0,1,72,222,48,1,stimuli/stim_20210519_power2amp/equal_lnn_AM1Hz_s55_14.m4a,,,
,,,,,41227,2021-05-22_20h26.50.956,judgeSpeechMusic_20210519_logNormShiftAmp_mXs,2020.1.2,Win32,60,,,,,,,,,,,,,,,,,,,,,,,,,,2,6.733525,,0,1,73,223,130,1,stimuli/stim_20210519_power2amp/equal_lnn_AM4Hz_s45_48.m4a,,,
,,,,,41227,2021-05-22_20h26.50.956,judgeSpeechMusic_20210519_logNormShiftAmp_mXs,2020.1.2,Win32,60,,,,,,,,,,,,,,,,,,,,,,,,,,2,6.52134,,0,1,74,224,117,1,stimuli/stim_20210519_power2amp/equal_lnn_AM4Hz_s25_17.m4a,,,
,,,,,41227,2021-05-22_20h26.50.956,judgeSpeechMusic_20210519_logNormShiftAmp_mXs,2020.1.2,Win32,60,,,,,,,,,,,,,,,,,,,,,,,,,,2,23.321225,,0,1,75,225,8,1,stimuli/stim_20210519_power2amp/equal_lnn_AM1Hz_s15_39.m4a,,,
,,,,,41227,2021-05-22_20h26.50.956,judgeSpeechMusic_20210519_logNormShiftAmp_mXs,2020.1.2,Win32,60,,,,,,,,,,,,,,,,,,,,,,,,,,2,5.66092,,0,1,76,226,104,1,stimuli/stim_20210519_power2amp/equal_lnn_AM4Hz_s15_44.m4a,,,
,,,,,41227,2021-05-22_20h26.50.956,judgeSpeechMusic_20210519_logNormShiftAmp_mXs,2020.1.2,Win32,60,,,,,,,,,,,,,,,,,,,,,,,,,,2,7.76855,,0,1,77,227,56,1,stimuli/stim_20210519_power2amp/equal_lnn_AM2.5Hz_s15_1.m4a,,,
,,,,,41227,2021-05-22_20h26.50.956,judgeSpeechMusic_20210519_logNormShiftAmp_mXs,2020.1.2,Win32,60,,,,,,,,,,,,,,,,,,,,,,,,,,1,17.057705,,0,1,78,228,19,1,stimuli/stim_20210519_power2amp/equal_lnn_AM1Hz_s25_22.m4a,,,
,,,,,41227,2021-05-22_20h26.50.956,judgeSpeechMusic_20210519_logNormShiftAmp_mXs,2020.1.2,Win32,60,,,,,,,,,,,,,,,,,,,,,,,,,,1,5.8163,,0,1,79,229,27,1,stimuli/stim_20210519_power2amp/equal_lnn_AM1Hz_s35_21.m4a,,,
,,,,,41227,2021-05-22_20h26.50.956,judgeSpeechMusic_20210519_logNormShiftAmp_mXs,2020.1.2,Win32,60,,,,,,,,,,,,,,,,,,,,,,,,,,1,12.21578,,0,1,80,230,35,1,stimuli/stim_20210519_power2amp/equal_lnn_AM1Hz_s45_2.m4a,,,
,,,,,41227,2021-05-22_20h26.50.956,judgeSpeechMusic_20210519_logNormShiftAmp_mXs,2020.1.2,Win32,60,,,,,,,,,,,,,,,,,,,,,,,,,,1,9.680585,,0,1,81,231,7,1,stimuli/stim_20210519_power2amp/equal_lnn_AM1Hz_s15_18.m4a,,,
,,,,,41227,2021-05-22_20h26.50.956,judgeSpeechMusic_20210519_logNormShiftAmp_mXs,2020.1.2,Win32,60,,,,,,,,,,,,,,,,,,,,,,,,,,2,11.06854,,0,1,82,232,58,1,stimuli/stim_20210519_power2amp/equal_lnn_AM2.5Hz_s15_2.m4a,,,
,,,,,41227,2021-05-22_20h26.50.956,judgeSpeechMusic_20210519_logNormShiftAmp_mXs,2020.1.2,Win32,60,,,,,,,,,,,,,,,,,,,,,,,,,,2,65.10763,,0,1,83,233,111,1,stimuli/stim_20210519_power2amp/equal_lnn_AM4Hz_s25_5.m4a,,,
,,,,,41227,2021-05-22_20h26.50.956,judgeSpeechMusic_20210519_logNormShiftAmp_mXs,2020.1.2,Win32,60,,,,,,,,,,,,,,,,,,,,,,,,,,2,5.3271,,0,1,84,234,138,1,stimuli/stim_20210519_power2amp/equal_lnn_AM4Hz_s45_4.m4a,,,
,,,,,41227,2021-05-22_20h26.50.956,judgeSpeechMusic_20210519_logNormShiftAmp_mXs,2020.1.2,Win32,60,,,,,,,,,,,,,,,,,,,,,,,,,,1,5.85434,,0,1,85,235,55,1,stimuli/stim_20210519_power2amp/equal_lnn_AM2.5Hz_s15_10.m4a,,,
,,,,,41227,2021-05-22_20h26.50.956,judgeSpeechMusic_20210519_logNormShiftAmp_mXs,2020.1.2,Win32,60,,,,,,,,,,,,,,,,,,,,,,,,,,1,5.27032,,0,1,86,236,12,1,stimuli/stim_20210519_power2amp/equal_lnn_AM1Hz_s25_10.m4a,,,
,,,,,41227,2021-05-22_20h26.50.956,judgeSpeechMusic_20210519_logNormShiftAmp_mXs,2020.1.2,Win32,60,,,,,,,,,,,,,,,,,,,,,,,,,,2,14.803645,,0,1,87,237,29,1,stimuli/stim_20210519_power2amp/equal_lnn_AM1Hz_s35_20.m4a,,,
,,,,,41227,2021-05-22_20h26.50.956,judgeSpeechMusic_20210519_logNormShiftAmp_mXs,2020.1.2,Win32,60,,,,,,,,,,,,,,,,,,,,,,,,,,2,5.33356,,0,1,88,238,103,1,stimuli/stim_20210519_power2amp/equal_lnn_AM4Hz_s15_10.m4a,,,
,,,,,41227,2021-05-22_20h26.50.956,judgeSpeechMusic_20210519_logNormShiftAmp_mXs,2020.1.2,Win32,60,,,,,,,,,,,,,,,,,,,,,,,,,,2,6.05317,2,1,1,89,239,106,1,stimuli/stim_20210519_power2amp/equal_lnn_AM4Hz_s15_45.m4a,0.7811,,
,,,,,41227,2021-05-22_20h26.50.956,judgeSpeechMusic_20210519_logNormShiftAmp_mXs,2020.1.2,Win32,60,,,,,,,,,,,,,,,,,,,,,,,,,,1,5.995075,,0,1,90,240,54,1,stimuli/stim_20210519_power2amp/equal_lnn_AM2.5Hz_s15_4.m4a,,,
,,,,,41227,2021-05-22_20h26.50.956,judgeSpeechMusic_20210519_logNormShiftAmp_mXs,2020.1.2,Win32,60,,,,,,,,,,,,,,,,,,,,,,,,,,1,5.38454,,0,1,91,241,80,1,stimuli/stim_20210519_power2amp/equal_lnn_AM2.5Hz_s45_17.m4a,,,
,,,,,41227,2021-05-22_20h26.50.956,judgeSpeechMusic_20210519_logNormShiftAmp_mXs,2020.1.2,Win32,60,,,,,,,,,,,,,,,,,,,,,,,,,,1,5.3347,,0,1,92,242,97,1,stimuli/stim_20210519_power2amp/equal_lnn_AM2.5Hz_s55_43.m4a,,,
,,,,,41227,2021-05-22_20h26.50.956,judgeSpeechMusic_20210519_logNormShiftAmp_mXs,2020.1.2,Win32,60,,,,,,,,,,,,,,,,,,,,,,,,,,1,5.407705,,0,1,93,243,76,1,stimuli/stim_20210519_power2amp/equal_lnn_AM2.5Hz_s35_45.m4a,,,
,,,,,41227,2021-05-22_20h26.50.956,judgeSpeechMusic_20210519_logNormShiftAmp_mXs,2020.1.2,Win32,60,,,,,,,,,,,,,,,,,,,,,,,,,,2,5.39059,,0,1,94,244,81,1,stimuli/stim_20210519_power2amp/equal_lnn_AM2.5Hz_s45_40.m4a,,,
,,,,,41227,2021-05-22_20h26.50.956,judgeSpeechMusic_20210519_logNormShiftAmp_mXs,2020.1.2,Win32,60,,,,,,,,,,,,,,,,,,,,,,,,,,1,5.23472,,0,1,95,245,57,1,stimuli/stim_20210519_power2amp/equal_lnn_AM2.5Hz_s15_36.m4a,,,
,,,,,41227,2021-05-22_20h26.50.956,judgeSpeechMusic_20210519_logNormShiftAmp_mXs,2020.1.2,Win32,60,,,,,,,,,,,,,,,,,,,,,,,,,,2,7.13975,,0,1,96,246,126,1,stimuli/stim_20210519_power2amp/equal_lnn_AM4Hz_s35_33.m4a,,,
,,,,,41227,2021-05-22_20h26.50.956,judgeSpeechMusic_20210519_logNormShiftAmp_mXs,2020.1.2,Win32,60,,,,,,,,,,,,,,,,,,,,,,,,,,2,6.73771,,0,1,97,247,87,1,stimuli/stim_20210519_power2amp/equal_lnn_AM2.5Hz_s45_35.m4a,,,
,,,,,41227,2021-05-22_20h26.50.956,judgeSpeechMusic_20210519_logNormShiftAmp_mXs,2020.1.2,Win32,60,,,,,,,,,,,,,,,,,,,,,,,,,,2,5.359275,,0,1,98,248,110,1,stimuli/stim_20210519_power2amp/equal_lnn_AM4Hz_s25_30.m4a,,,
,,,,,41227,2021-05-22_20h26.50.956,judgeSpeechMusic_20210519_logNormShiftAmp_mXs,2020.1.2,Win32,60,,,,,,,,,,,,,,,,,,,,,,,,,,2,61.767555,,0,1,99,249,36,1,stimuli/stim_20210519_power2amp/equal_lnn_AM1Hz_s45_48.m4a,,,
,,,,,41227,2021-05-22_20h26.50.956,judgeSpeechMusic_20210519_logNormShiftAmp_mXs,2020.1.2,Win32,60,,,,,,,,,,,,,,,,,,,,,,,,,,2,5.293905,,0,1,100,250,72,1,stimuli/stim_20210519_power2amp/equal_lnn_AM2.5Hz_s35_10.m4a,,,
,,,,,41227,2021-05-22_20h26.50.956,judgeSpeechMusic_20210519_logNormShiftAmp_mXs,2020.1.2,Win32,60,,,,,,,,,,,,,,,,,,,,,,,,,,1,5.40396,,0,1,101,251,26,1,stimuli/stim_20210519_power2amp/equal_lnn_AM1Hz_s35_5.m4a,,,
,,,,,41227,2021-05-22_20h26.50.956,judgeSpeechMusic_20210519_logNormShiftAmp_mXs,2020.1.2,Win32,60,,,,,,,,,,,,,,,,,,,,,,,,,,2,5.401925,,0,1,102,252,124,1,stimuli/stim_20210519_power2amp/equal_lnn_AM4Hz_s35_47.m4a,,,
,,,,,41227,2021-05-22_20h26.50.956,judgeSpeechMusic_20210519_logNormShiftAmp_mXs,2020.1.2,Win32,60,,,,,,,,,,,,,,,,,,,,,,,,,,2,7.335285,,0,1,103,253,64,1,stimuli/stim_20210519_power2amp/equal_lnn_AM2.5Hz_s25_41.m4a,,,
,,,,,41227,2021-05-22_20h26.50.956,judgeSpeechMusic_20210519_logNormShiftAmp_mXs,2020.1.2,Win32,60,,,,,,,,,,,,,,,,,,,,,,,,,,2,5.38024,,0,1,104,254,122,1,stimuli/stim_20210519_power2amp/equal_lnn_AM4Hz_s35_26.m4a,,,
,,,,,41227,2021-05-22_20h26.50.956,judgeSpeechMusic_20210519_logNormShiftAmp_mXs,2020.1.2,Win32,60,,,,,,,,,,,,,,,,,,,,,,,,,,2,5.31037,,0,1,105,255,114,1,stimuli/stim_20210519_power2amp/equal_lnn_AM4Hz_s25_15.m4a,,,
,,,,,41227,2021-05-22_20h26.50.956,judgeSpeechMusic_20210519_logNormShiftAmp_mXs,2020.1.2,Win32,60,,,,,,,,,,,,,,,,,,,,,,,,,,1,5.371295,,0,1,106,256,28,1,stimuli/stim_20210519_power2amp/equal_lnn_AM1Hz_s35_8.m4a,,,
,,,,,41227,2021-05-22_20h26.50.956,judgeSpeechMusic_20210519_logNormShiftAmp_mXs,2020.1.2,Win32,60,,,,,,,,,,,,,,,,,,,,,,,,,,2,6.589805,,0,1,107,257,62,1,stimuli/stim_20210519_power2amp/equal_lnn_AM2.5Hz_s25_18.m4a,,,
,,,,,41227,2021-05-22_20h26.50.956,judgeSpeechMusic_20210519_logNormShiftAmp_mXs,2020.1.2,Win32,60,,,,,,,,,,,,,,,,,,,,,,,,,,1,6.245165,,0,1,108,258,22,1,stimuli/stim_20210519_power2amp/equal_lnn_AM1Hz_s35_23.m4a,,,
,,,,,41227,2021-05-22_20h26.50.956,judgeSpeechMusic_20210519_logNormShiftAmp_mXs,2020.1.2,Win32,60,,,,,,,,,,,,,,,,,,,,,,,,,,2,5.286455,,0,1,109,259,143,1,stimuli/stim_20210519_power2amp/equal_lnn_AM4Hz_s55_36.m4a,,,
,,,,,41227,2021-05-22_20h26.50.956,judgeSpeechMusic_20210519_logNormShiftAmp_mXs,2020.1.2,Win32,60,,,,,,,,,,,,,,,,,,,,,,,,,,1,6.437315,,0,1,110,260,112,1,stimuli/stim_20210519_power2amp/equal_lnn_AM4Hz_s25_19.m4a,,,
,,,,,41227,2021-05-22_20h26.50.956,judgeSpeechMusic_20210519_logNormShiftAmp_mXs,2020.1.2,Win32,60,,,,,,,,,,,,,,,,,,,,,,,,,,1,6.225585,,0,1,111,261,15,1,stimuli/stim_20210519_power2amp/equal_lnn_AM1Hz_s25_1.m4a,,,
,,,,,41227,2021-05-22_20h26.50.956,judgeSpeechMusic_20210519_logNormShiftAmp_mXs,2020.1.2,Win32,60,,,,,,,,,,,,,,,,,,,,,,,,,,1,5.687175,3,1,1,112,262,43,1,stimuli/stim_20210519_power2amp/equal_lnn_AM1Hz_s55_49.m4a,1.54718,,
,,,,,41227,2021-05-22_20h26.50.956,judgeSpeechMusic_20210519_logNormShiftAmp_mXs,2020.1.2,Win32,60,,,,,,,,,,,,,,,,,,,,,,,,,,1,5.51907,,0,1,113,263,20,1,stimuli/stim_20210519_power2amp/equal_lnn_AM1Hz_s35_50.m4a,,,
,,,,,41227,2021-05-22_20h26.50.956,judgeSpeechMusic_20210519_logNormShiftAmp_mXs,2020.1.2,Win32,60,,,,,,,,,,,,,,,,,,,,,,,,,,1,5.570185,,0,1,114,264,40,1,stimuli/stim_20210519_power2amp/equal_lnn_AM1Hz_s55_30.m4a,,,
,,,,,41227,2021-05-22_20h26.50.956,judgeSpeechMusic_20210519_logNormShiftAmp_mXs,2020.1.2,Win32,60,,,,,,,,,,,,,,,,,,,,,,,,,,2,6.803405,,0,1,115,265,108,1,stimuli/stim_20210519_power2amp/equal_lnn_AM4Hz_s15_31.m4a,,,
,,,,,41227,2021-05-22_20h26.50.956,judgeSpeechMusic_20210519_logNormShiftAmp_mXs,2020.1.2,Win32,60,,,,,,,,,,,,,,,,,,,,,,,,,,2,8.220185,,0,1,116,266,3,1,stimuli/stim_20210519_power2amp/equal_lnn_AM1Hz_s15_48.m4a,,,
,,,,,41227,2021-05-22_20h26.50.956,judgeSpeechMusic_20210519_logNormShiftAmp_mXs,2020.1.2,Win32,60,,,,,,,,,,,,,,,,,,,,,,,,,,2,5.95743,,0,1,117,267,89,1,stimuli/stim_20210519_power2amp/equal_lnn_AM2.5Hz_s45_38.m4a,,,
,,,,,41227,2021-05-22_20h26.50.956,judgeSpeechMusic_20210519_logNormShiftAmp_mXs,2020.1.2,Win32,60,,,,,,,,,,,,,,,,,,,,,,,,,,1,6.23696,,0,1,118,268,21,1,stimuli/stim_20210519_power2amp/equal_lnn_AM1Hz_s35_33.m4a,,,
,,,,,41227,2021-05-22_20h26.50.956,judgeSpeechMusic_20210519_logNormShiftAmp_mXs,2020.1.2,Win32,60,,,,,,,,,,,,,,,,,,,,,,,,,,2,5.905685,,0,1,119,269,50,1,stimuli/stim_20210519_power2amp/equal_lnn_AM2.5Hz_s15_23.m4a,,,
,,,,,41227,2021-05-22_20h26.50.956,judgeSpeechMusic_20210519_logNormShiftAmp_mXs,2020.1.2,Win32,60,,,,,,,,,,,,,,,,,,,,,,,,,,1,7.75352,,0,1,120,270,32,1,stimuli/stim_20210519_power2amp/equal_lnn_AM1Hz_s45_42.m4a,,,
,,,,,41227,2021-05-22_20h26.50.956,judgeSpeechMusic_20210519_logNormShiftAmp_mXs,2020.1.2,Win32,60,,,,,,,,,,,,,,,,,,,,,,,,,,1,9.133935,,0,1,121,271,0,1,stimuli/stim_20210519_power2amp/equal_lnn_AM1Hz_s15_20.m4a,,,
,,,,,41227,2021-05-22_20h26.50.956,judgeSpeechMusic_20210519_logNormShiftAmp_mXs,2020.1.2,Win32,60,,,,,,,,,,,,,,,,,,,,,,,,,,1,6.23456,,0,1,122,272,46,1,stimuli/stim_20210519_power2amp/equal_lnn_AM1Hz_s55_40.m4a,,,
,,,,,41227,2021-05-22_20h26.50.956,judgeSpeechMusic_20210519_logNormShiftAmp_mXs,2020.1.2,Win32,60,,,,,,,,,,,,,,,,,,,,,,,,,,1,5.270125,,0,1,123,273,23,1,stimuli/stim_20210519_power2amp/equal_lnn_AM1Hz_s35_3.m4a,,,
,,,,,41227,2021-05-22_20h26.50.956,judgeSpeechMusic_20210519_logNormShiftAmp_mXs,2020.1.2,Win32,60,,,,,,,,,,,,,,,,,,,,,,,,,,2,6.59101,,0,1,124,274,136,1,stimuli/stim_20210519_power2amp/equal_lnn_AM4Hz_s45_41.m4a,,,
,,,,,41227,2021-05-22_20h26.50.956,judgeSpeechMusic_20210519_logNormShiftAmp_mXs,2020.1.2,Win32,60,,,,,,,,,,,,,,,,,,,,,,,,,,2,5.687085,,0,1,125,275,95,1,stimuli/stim_20210519_power2amp/equal_lnn_AM2.5Hz_s55_49.m4a,,,
,,,,,41227,2021-05-22_20h26.50.956,judgeSpeechMusic_20210519_logNormShiftAmp_mXs,2020.1.2,Win32,60,,,,,,,,,,,,,,,,,,,,,,,,,,1,6.901545,,0,1,126,276,10,1,stimuli/stim_20210519_power2amp/equal_lnn_AM1Hz_s25_5.m4a,,,
,,,,,41227,2021-05-22_20h26.50.956,judgeSpeechMusic_20210519_logNormShiftAmp_mXs,2020.1.2,Win32,60,,,,,,,,,,,,,,,,,,,,,,,,,,2,6.187045,,0,1,127,277,141,1,stimuli/stim_20210519_power2amp/equal_lnn_AM4Hz_s55_3.m4a,,,
,,,,,41227,2021-05-22_20h26.50.956,judgeSpeechMusic_20210519_logNormShiftAmp_mXs,2020.1.2,Win32,60,,,,,,,,,,,,,,,,,,,,,,,,,,1,7.08504,,0,1,128,278,18,1,stimuli/stim_20210519_power2amp/equal_lnn_AM1Hz_s25_50.m4a,,,
,,,,,41227,2021-05-22_20h26.50.956,judgeSpeechMusic_20210519_logNormShiftAmp_mXs,2020.1.2,Win32,60,,,,,,,,,,,,,,,,,,,,,,,,,,1,5.687595,,0,1,129,279,67,1,stimuli/stim_20210519_power2amp/equal_lnn_AM2.5Hz_s25_22.m4a,,,
,,,,,41227,2021-05-22_20h26.50.956,judgeSpeechMusic_20210519_logNormShiftAmp_mXs,2020.1.2,Win32,60,,,,,,,,,,,,,,,,,,,,,,,,,,2,7.13505,,0,1,130,280,140,1,stimuli/stim_20210519_power2amp/equal_lnn_AM4Hz_s55_5.m4a,,,
,,,,,41227,2021-05-22_20h26.50.956,judgeSpeechMusic_20210519_logNormShiftAmp_mXs,2020.1.2,Win32,60,,,,,,,,,,,,,,,,,,,,,,,,,,2,5.669925,,0,1,131,281,102,1,stimuli/stim_20210519_power2amp/equal_lnn_AM4Hz_s15_46.m4a,,,
,,,,,41227,2021-05-22_20h26.50.956,judgeSpeechMusic_20210519_logNormShiftAmp_mXs,2020.1.2,Win32,60,,,,,,,,,,,,,,,,,,,,,,,,,,2,6.40248,,0,1,132,282,125,1,stimuli/stim_20210519_power2amp/equal_lnn_AM4Hz_s35_29.m4a,,,
,,,,,41227,2021-05-22_20h26.50.956,judgeSpeechMusic_20210519_logNormShiftAmp_mXs,2020.1.2,Win32,60,,,,,,,,,,,,,,,,,,,,,,,,,,2,5.852345,4,1,1,133,283,101,1,stimuli/stim_20210519_power2amp/equal_lnn_AM4Hz_s15_50.m4a,0.856375,,
,,,,,41227,2021-05-22_20h26.50.956,judgeSpeechMusic_20210519_logNormShiftAmp_mXs,2020.1.2,Win32,60,,,,,,,,,,,,,,,,,,,,,,,,,,2,5.96894,,0,1,134,284,120,1,stimuli/stim_20210519_power2amp/equal_lnn_AM4Hz_s35_22.m4a,,,
,,,,,41227,2021-05-22_20h26.50.956,judgeSpeechMusic_20210519_logNormShiftAmp_mXs,2020.1.2,Win32,60,,,,,,,,,,,,,,,,,,,,,,,,,,2,5.83474,,0,1,135,285,115,1,stimuli/stim_20210519_power2amp/equal_lnn_AM4Hz_s25_25.m4a,,,
,,,,,41227,2021-05-22_20h26.50.956,judgeSpeechMusic_20210519_logNormShiftAmp_mXs,2020.1.2,Win32,60,,,,,,,,,,,,,,,,,,,,,,,,,,2,6.35379,,0,1,136,286,119,1,stimuli/stim_20210519_power2amp/equal_lnn_AM4Hz_s25_39.m4a,,,
,,,,,41227,2021-05-22_20h26.50.956,judgeSpeechMusic_20210519_logNormShiftAmp_mXs,2020.1.2,Win32,60,,,,,,,,,,,,,,,,,,,,,,,,,,2,5.80381,,0,1,137,287,100,1,stimuli/stim_20210519_power2amp/equal_lnn_AM4Hz_s15_33.m4a,,,
,,,,,41227,2021-05-22_20h26.50.956,judgeSpeechMusic_20210519_logNormShiftAmp_mXs,2020.1.2,Win32,60,,,,,,,,,,,,,,,,,,,,,,,,,,1,5.958395,,0,1,138,288,47,1,stimuli/stim_20210519_power2amp/equal_lnn_AM1Hz_s55_37.m4a,,,
,,,,,41227,2021-05-22_20h26.50.956,judgeSpeechMusic_20210519_logNormShiftAmp_mXs,2020.1.2,Win32,60,,,,,,,,,,,,,,,,,,,,,,,,,,1,6.007875,,0,1,139,289,109,1,stimuli/stim_20210519_power2amp/equal_lnn_AM4Hz_s15_36.m4a,,,
,,,,,41227,2021-05-22_20h26.50.956,judgeSpeechMusic_20210519_logNormShiftAmp_mXs,2020.1.2,Win32,60,,,,,,,,,,,,,,,,,,,,,,,,,,1,6.569775,,0,1,140,290,34,1,stimuli/stim_20210519_power2amp/equal_lnn_AM1Hz_s45_50.m4a,,,
,,,,,41227,2021-05-22_20h26.50.956,judgeSpeechMusic_20210519_logNormShiftAmp_mXs,2020.1.2,Win32,60,,,,,,,,,,,,,,,,,,,,,,,,,,1,5.786375,,0,1,141,291,79,1,stimuli/stim_20210519_power2amp/equal_lnn_AM2.5Hz_s35_33.m4a,,,
,,,,,41227,2021-05-22_20h26.50.956,judgeSpeechMusic_20210519_logNormShiftAmp_mXs,2020.1.2,Win32,60,,,,,,,,,,,,,,,,,,,,,,,,,,2,6.285415,,0,1,142,292,142,1,stimuli/stim_20210519_power2amp/equal_lnn_AM4Hz_s55_35.m4a,,,
,,,,,41227,2021-05-22_20h26.50.956,judgeSpeechMusic_20210519_logNormShiftAmp_mXs,2020.1.2,Win32,60,,,,,,,,,,,,,,,,,,,,,,,,,,1,6.669405,,0,1,143,293,61,1,stimuli/stim_20210519_power2amp/equal_lnn_AM2.5Hz_s25_14.m4a,,,
,,,,,41227,2021-05-22_20h26.50.956,judgeSpeechMusic_20210519_logNormShiftAmp_mXs,2020.1.2,Win32,60,,,,,,,,,,,,,,,,,,,,,,,,,,1,6.920985,,0,1,144,294,73,1,stimuli/stim_20210519_power2amp/equal_lnn_AM2.5Hz_s35_18.m4a,,,
,,,,,41227,2021-05-22_20h26.50.956,judgeSpeechMusic_20210519_logNormShiftAmp_mXs,2020.1.2,Win32,60,,,,,,,,,,,,,,,,,,,,,,,,,,2,6.95803,,0,1,145,295,139,1,stimuli/stim_20210519_power2amp/equal_lnn_AM4Hz_s45_35.m4a,,,
,,,,,41227,2021-05-22_20h26.50.956,judgeSpeechMusic_20210519_logNormShiftAmp_mXs,2020.1.2,Win32,60,,,,,,,,,,,,,,,,,,,,,,,,,,1,6.992705,,0,1,146,296,31,1,stimuli/stim_20210519_power2amp/equal_lnn_AM1Hz_s45_26.m4a,,,
,,,,,41227,2021-05-22_20h26.50.956,judgeSpeechMusic_20210519_logNormShiftAmp_mXs,2020.1.2,Win32,60,,,,,,,,,,,,,,,,,,,,,,,,,,2,7.26922,,0,1,147,297,146,1,stimuli/stim_20210519_power2amp/equal_lnn_AM4Hz_s55_2.m4a,,,
,,,,,41227,2021-05-22_20h26.50.956,judgeSpeechMusic_20210519_logNormShiftAmp_mXs,2020.1.2,Win32,60,,,,,,,,,,,,,,,,,,,,,,,,,,1,7.119185,,0,1,148,298,49,1,stimuli/stim_20210519_power2amp/equal_lnn_AM1Hz_s55_25.m4a,,,
,,,,,41227,2021-05-22_20h26.50.956,judgeSpeechMusic_20210519_logNormShiftAmp_mXs,2020.1.2,Win32,60,,,,,,,,,,,,,,,,,,,,,,,,,,1,5.9794,,0,1,149,299,6,1,stimuli/stim_20210519_power2amp/equal_lnn_AM1Hz_s15_44.m4a,,,
,,,,,41227,2021-05-22_20h26.50.956,judgeSpeechMusic_20210519_logNormShiftAmp_mXs,2020.1.2,Win32,60,,,,,,,,,,,,,,,,,,,,,,,,,,,,,,,,,,,,,space,8.15186
