volAdjustRep.thisRepN,volAdjustRep.thisTrialN,volAdjustRep.thisN,volAdjustRep.thisIndex,volAdjustRep.ran,participant,date,expName,psychopyVersion,OS,frameRate,headphoneResponse.keys,headphoneResponse.corr,headphoneResponse.rt,headphoneTrial.thisRepN,headphoneTrial.thisTrialN,headphoneTrial.thisN,headphoneTrial.thisIndex,headphoneTrial.ran,headphone_sound1,headphone_sound2,headphone_sound3,corrAns,trainSlider.response,trainSlider.rt,beepTrainResponse.keys,beepTrainResponse.corr,trainingTrials.thisRepN,trainingTrials.thisTrialN,trainingTrials.thisN,trainingTrials.thisIndex,trainingTrials.ran,trainAudioFile,beepTrainResponse.rt,readyReal_resp.keys,readyReal_resp.rt,ratingSlider.response,ratingSlider.rt,beepResp.keys,beepResp.corr,expTrials.thisRepN,expTrials.thisTrialN,expTrials.thisN,expTrials.thisIndex,expTrials.ran,audioFile,beepResp.rt,end_resp.keys,end_resp.rt
0,0,0,0,1,41229,2021-06-14_10h41.13.749,judgeSpeechMusic_20210519_logNormShiftAmp_mXs,2020.1.2,MacIntel,60,,,,,,,,,,,,,,,,,,,,,,,,,,,,,,,,,,,,,,
,,,,,41229,2021-06-14_10h41.13.749,judgeSpeechMusic_20210519_logNormShiftAmp_mXs,2020.1.2,MacIntel,60,1,0,11.3308,0,0,0,2,1,stimuli/screen_origin.wav,stimuli/screen_antiphase.wav,stimuli/screen_quiet.wav,3,,,,,,,,,,,,,,,,,,,,,,,,,,
,,,,,41229,2021-06-14_10h41.13.749,judgeSpeechMusic_20210519_logNormShiftAmp_mXs,2020.1.2,MacIntel,60,2,1,0.9509,0,1,1,1,1,stimuli/screen_antiphase.wav,stimuli/screen_quiet.wav,stimuli/screen_origin.wav,2,,,,,,,,,,,,,,,,,,,,,,,,,,
,,,,,41229,2021-06-14_10h41.13.749,judgeSpeechMusic_20210519_logNormShiftAmp_mXs,2020.1.2,MacIntel,60,3,1,0.6017,0,2,2,0,1,stimuli/screen_antiphase.wav,stimuli/screen_origin.wav,stimuli/screen_quiet.wav,3,,,,,,,,,,,,,,,,,,,,,,,,,,
,,,,,41229,2021-06-14_10h41.13.749,judgeSpeechMusic_20210519_logNormShiftAmp_mXs,2020.1.2,MacIntel,60,1,1,0.6536,0,3,3,4,1,stimuli/screen_quiet.wav,stimuli/screen_antiphase.wav,stimuli/screen_origin.wav,1,,,,,,,,,,,,,,,,,,,,,,,,,,
,,,,,41229,2021-06-14_10h41.13.749,judgeSpeechMusic_20210519_logNormShiftAmp_mXs,2020.1.2,MacIntel,60,1,1,0.5004,0,4,4,5,1,stimuli/screen_quiet.wav,stimuli/screen_origin.wav,stimuli/screen_antiphase.wav,1,,,,,,,,,,,,,,,,,,,,,,,,,,
,,,,,41229,2021-06-14_10h41.13.749,judgeSpeechMusic_20210519_logNormShiftAmp_mXs,2020.1.2,MacIntel,60,2,1,0.431,0,5,5,3,1,stimuli/screen_origin.wav,stimuli/screen_quiet.wav,stimuli/screen_antiphase.wav,2,,,,,,,,,,,,,,,,,,,,,,,,,,
,,,,,41229,2021-06-14_10h41.13.749,judgeSpeechMusic_20210519_logNormShiftAmp_mXs,2020.1.2,MacIntel,60,,,,,,,,,,,,,2,39.3616,,0,0,0,0,3,1,stimuli/stim_20210519_power2amp/equal_lnn_AM_training3.5Hz_s50.m4a,,,,,,,,,,,,,,,,
,,,,,41229,2021-06-14_10h41.13.749,judgeSpeechMusic_20210519_logNormShiftAmp_mXs,2020.1.2,MacIntel,60,,,,,,,,,,,,,2,11.1912,,0,0,1,1,2,1,stimuli/stim_20210519_power2amp/equal_lnn_AM_training3.5Hz_s20.m4a,,,,,,,,,,,,,,,,
,,,,,41229,2021-06-14_10h41.13.749,judgeSpeechMusic_20210519_logNormShiftAmp_mXs,2020.1.2,MacIntel,60,,,,,,,,,,,,,2,6.5611,4,1,0,2,2,1,1,stimuli/stim_20210519_power2amp/equal_lnn_AM_training1.5Hz_s50.m4a,2.1597,,,,,,,,,,,,,,,
,,,,,41229,2021-06-14_10h41.13.749,judgeSpeechMusic_20210519_logNormShiftAmp_mXs,2020.1.2,MacIntel,60,,,,,,,,,,,,,2,6.74,,0,0,3,3,0,1,stimuli/stim_20210519_power2amp/equal_lnn_AM_training1.5Hz_s20.m4a,,,,,,,,,,,,,,,,
,,,,,41229,2021-06-14_10h41.13.749,judgeSpeechMusic_20210519_logNormShiftAmp_mXs,2020.1.2,MacIntel,60,,,,,,,,,,,,,1,6.144,,0,1,0,4,3,1,stimuli/stim_20210519_power2amp/equal_lnn_AM_training3.5Hz_s50.m4a,,,,,,,,,,,,,,,,
,,,,,41229,2021-06-14_10h41.13.749,judgeSpeechMusic_20210519_logNormShiftAmp_mXs,2020.1.2,MacIntel,60,,,,,,,,,,,,,2,5.9912,,0,1,1,5,1,1,stimuli/stim_20210519_power2amp/equal_lnn_AM_training1.5Hz_s50.m4a,,,,,,,,,,,,,,,,
,,,,,41229,2021-06-14_10h41.13.749,judgeSpeechMusic_20210519_logNormShiftAmp_mXs,2020.1.2,MacIntel,60,,,,,,,,,,,,,1,5.9821,3,1,1,2,6,2,1,stimuli/stim_20210519_power2amp/equal_lnn_AM_training3.5Hz_s20.m4a,1.5511,,,,,,,,,,,,,,,
,,,,,41229,2021-06-14_10h41.13.749,judgeSpeechMusic_20210519_logNormShiftAmp_mXs,2020.1.2,MacIntel,60,,,,,,,,,,,,,2,6.1941,,0,1,3,7,0,1,stimuli/stim_20210519_power2amp/equal_lnn_AM_training1.5Hz_s20.m4a,,,,,,,,,,,,,,,,
,,,,,41229,2021-06-14_10h41.13.749,judgeSpeechMusic_20210519_logNormShiftAmp_mXs,2020.1.2,MacIntel,60,,,,,,,,,,,,,,,,,,,,,,,,space,10.7132,2,6.6309,,0,0,0,0,26,1,stimuli/stim_20210519_power2amp/equal_lnn_AM1Hz_s35_34.m4a,,,
,,,,,41229,2021-06-14_10h41.13.749,judgeSpeechMusic_20210519_logNormShiftAmp_mXs,2020.1.2,MacIntel,60,,,,,,,,,,,,,,,,,,,,,,,,,,2,10.8724,,0,0,1,1,89,1,stimuli/stim_20210519_power2amp/equal_lnn_AM2.5Hz_s45_11.m4a,,,
,,,,,41229,2021-06-14_10h41.13.749,judgeSpeechMusic_20210519_logNormShiftAmp_mXs,2020.1.2,MacIntel,60,,,,,,,,,,,,,,,,,,,,,,,,,,1,7.9796,,0,0,2,2,136,1,stimuli/stim_20210519_power2amp/equal_lnn_AM4Hz_s45_20.m4a,,,
,,,,,41229,2021-06-14_10h41.13.749,judgeSpeechMusic_20210519_logNormShiftAmp_mXs,2020.1.2,MacIntel,60,,,,,,,,,,,,,,,,,,,,,,,,,,1,6.1609,,0,0,3,3,79,1,stimuli/stim_20210519_power2amp/equal_lnn_AM2.5Hz_s35_48.m4a,,,
,,,,,41229,2021-06-14_10h41.13.749,judgeSpeechMusic_20210519_logNormShiftAmp_mXs,2020.1.2,MacIntel,60,,,,,,,,,,,,,,,,,,,,,,,,,,1,6.1408,,0,0,4,4,47,1,stimuli/stim_20210519_power2amp/equal_lnn_AM1Hz_s55_41.m4a,,,
,,,,,41229,2021-06-14_10h41.13.749,judgeSpeechMusic_20210519_logNormShiftAmp_mXs,2020.1.2,MacIntel,60,,,,,,,,,,,,,,,,,,,,,,,,,,2,8.6098,,0,0,5,5,144,1,stimuli/stim_20210519_power2amp/equal_lnn_AM4Hz_s55_1.m4a,,,
,,,,,41229,2021-06-14_10h41.13.749,judgeSpeechMusic_20210519_logNormShiftAmp_mXs,2020.1.2,MacIntel,60,,,,,,,,,,,,,,,,,,,,,,,,,,2,6.1926,,0,0,6,6,23,1,stimuli/stim_20210519_power2amp/equal_lnn_AM1Hz_s35_2.m4a,,,
,,,,,41229,2021-06-14_10h41.13.749,judgeSpeechMusic_20210519_logNormShiftAmp_mXs,2020.1.2,MacIntel,60,,,,,,,,,,,,,,,,,,,,,,,,,,2,6.7943,,0,0,7,7,77,1,stimuli/stim_20210519_power2amp/equal_lnn_AM2.5Hz_s35_37.m4a,,,
,,,,,41229,2021-06-14_10h41.13.749,judgeSpeechMusic_20210519_logNormShiftAmp_mXs,2020.1.2,MacIntel,60,,,,,,,,,,,,,,,,,,,,,,,,,,2,6.5886,,0,0,8,8,68,1,stimuli/stim_20210519_power2amp/equal_lnn_AM2.5Hz_s25_28.m4a,,,
,,,,,41229,2021-06-14_10h41.13.749,judgeSpeechMusic_20210519_logNormShiftAmp_mXs,2020.1.2,MacIntel,60,,,,,,,,,,,,,,,,,,,,,,,,,,1,5.9473,,0,0,9,9,59,1,stimuli/stim_20210519_power2amp/equal_lnn_AM2.5Hz_s15_14.m4a,,,
,,,,,41229,2021-06-14_10h41.13.749,judgeSpeechMusic_20210519_logNormShiftAmp_mXs,2020.1.2,MacIntel,60,,,,,,,,,,,,,,,,,,,,,,,,,,2,6.1752,,0,0,10,10,101,1,stimuli/stim_20210519_power2amp/equal_lnn_AM4Hz_s15_16.m4a,,,
,,,,,41229,2021-06-14_10h41.13.749,judgeSpeechMusic_20210519_logNormShiftAmp_mXs,2020.1.2,MacIntel,60,,,,,,,,,,,,,,,,,,,,,,,,,,1,6.3263,,0,0,11,11,111,1,stimuli/stim_20210519_power2amp/equal_lnn_AM4Hz_s25_23.m4a,,,
,,,,,41229,2021-06-14_10h41.13.749,judgeSpeechMusic_20210519_logNormShiftAmp_mXs,2020.1.2,MacIntel,60,,,,,,,,,,,,,,,,,,,,,,,,,,1,5.9621,,0,0,12,12,58,1,stimuli/stim_20210519_power2amp/equal_lnn_AM2.5Hz_s15_3.m4a,,,
,,,,,41229,2021-06-14_10h41.13.749,judgeSpeechMusic_20210519_logNormShiftAmp_mXs,2020.1.2,MacIntel,60,,,,,,,,,,,,,,,,,,,,,,,,,,2,6.1251,,0,0,13,13,50,1,stimuli/stim_20210519_power2amp/equal_lnn_AM2.5Hz_s15_42.m4a,,,
,,,,,41229,2021-06-14_10h41.13.749,judgeSpeechMusic_20210519_logNormShiftAmp_mXs,2020.1.2,MacIntel,60,,,,,,,,,,,,,,,,,,,,,,,,,,2,6.075,,0,0,14,14,65,1,stimuli/stim_20210519_power2amp/equal_lnn_AM2.5Hz_s25_42.m4a,,,
,,,,,41229,2021-06-14_10h41.13.749,judgeSpeechMusic_20210519_logNormShiftAmp_mXs,2020.1.2,MacIntel,60,,,,,,,,,,,,,,,,,,,,,,,,,,2,6.2455,,0,0,15,15,40,1,stimuli/stim_20210519_power2amp/equal_lnn_AM1Hz_s55_7.m4a,,,
,,,,,41229,2021-06-14_10h41.13.749,judgeSpeechMusic_20210519_logNormShiftAmp_mXs,2020.1.2,MacIntel,60,,,,,,,,,,,,,,,,,,,,,,,,,,2,6.3399,,0,0,16,16,32,1,stimuli/stim_20210519_power2amp/equal_lnn_AM1Hz_s45_7.m4a,,,
,,,,,41229,2021-06-14_10h41.13.749,judgeSpeechMusic_20210519_logNormShiftAmp_mXs,2020.1.2,MacIntel,60,,,,,,,,,,,,,,,,,,,,,,,,,,1,6.7101,,0,0,17,17,134,1,stimuli/stim_20210519_power2amp/equal_lnn_AM4Hz_s45_17.m4a,,,
,,,,,41229,2021-06-14_10h41.13.749,judgeSpeechMusic_20210519_logNormShiftAmp_mXs,2020.1.2,MacIntel,60,,,,,,,,,,,,,,,,,,,,,,,,,,1,5.9762,,0,0,18,18,17,1,stimuli/stim_20210519_power2amp/equal_lnn_AM1Hz_s25_9.m4a,,,
,,,,,41229,2021-06-14_10h41.13.749,judgeSpeechMusic_20210519_logNormShiftAmp_mXs,2020.1.2,MacIntel,60,,,,,,,,,,,,,,,,,,,,,,,,,,1,6.1799,,0,0,19,19,69,1,stimuli/stim_20210519_power2amp/equal_lnn_AM2.5Hz_s25_7.m4a,,,
,,,,,41229,2021-06-14_10h41.13.749,judgeSpeechMusic_20210519_logNormShiftAmp_mXs,2020.1.2,MacIntel,60,,,,,,,,,,,,,,,,,,,,,,,,,,2,7.0298,,0,0,20,20,56,1,stimuli/stim_20210519_power2amp/equal_lnn_AM2.5Hz_s15_43.m4a,,,
,,,,,41229,2021-06-14_10h41.13.749,judgeSpeechMusic_20210519_logNormShiftAmp_mXs,2020.1.2,MacIntel,60,,,,,,,,,,,,,,,,,,,,,,,,,,1,6.227,,0,0,21,21,41,1,stimuli/stim_20210519_power2amp/equal_lnn_AM1Hz_s55_40.m4a,,,
,,,,,41229,2021-06-14_10h41.13.749,judgeSpeechMusic_20210519_logNormShiftAmp_mXs,2020.1.2,MacIntel,60,,,,,,,,,,,,,,,,,,,,,,,,,,1,10.8031,,0,0,22,22,48,1,stimuli/stim_20210519_power2amp/equal_lnn_AM1Hz_s55_16.m4a,,,
,,,,,41229,2021-06-14_10h41.13.749,judgeSpeechMusic_20210519_logNormShiftAmp_mXs,2020.1.2,MacIntel,60,,,,,,,,,,,,,,,,,,,,,,,,,,2,6.0572,,0,0,23,23,11,1,stimuli/stim_20210519_power2amp/equal_lnn_AM1Hz_s25_29.m4a,,,
,,,,,41229,2021-06-14_10h41.13.749,judgeSpeechMusic_20210519_logNormShiftAmp_mXs,2020.1.2,MacIntel,60,,,,,,,,,,,,,,,,,,,,,,,,,,2,6.6299,,0,0,24,24,122,1,stimuli/stim_20210519_power2amp/equal_lnn_AM4Hz_s35_37.m4a,,,
,,,,,41229,2021-06-14_10h41.13.749,judgeSpeechMusic_20210519_logNormShiftAmp_mXs,2020.1.2,MacIntel,60,,,,,,,,,,,,,,,,,,,,,,,,,,1,6.3038,,0,0,25,25,54,1,stimuli/stim_20210519_power2amp/equal_lnn_AM2.5Hz_s15_36.m4a,,,
,,,,,41229,2021-06-14_10h41.13.749,judgeSpeechMusic_20210519_logNormShiftAmp_mXs,2020.1.2,MacIntel,60,,,,,,,,,,,,,,,,,,,,,,,,,,1,6.9043,,0,0,26,26,109,1,stimuli/stim_20210519_power2amp/equal_lnn_AM4Hz_s15_26.m4a,,,
,,,,,41229,2021-06-14_10h41.13.749,judgeSpeechMusic_20210519_logNormShiftAmp_mXs,2020.1.2,MacIntel,60,,,,,,,,,,,,,,,,,,,,,,,,,,1,6.6965,,0,0,27,27,70,1,stimuli/stim_20210519_power2amp/equal_lnn_AM2.5Hz_s35_7.m4a,,,
,,,,,41229,2021-06-14_10h41.13.749,judgeSpeechMusic_20210519_logNormShiftAmp_mXs,2020.1.2,MacIntel,60,,,,,,,,,,,,,,,,,,,,,,,,,,2,6.7138,,0,0,28,28,46,1,stimuli/stim_20210519_power2amp/equal_lnn_AM1Hz_s55_24.m4a,,,
,,,,,41229,2021-06-14_10h41.13.749,judgeSpeechMusic_20210519_logNormShiftAmp_mXs,2020.1.2,MacIntel,60,,,,,,,,,,,,,,,,,,,,,,,,,,1,7.812,,0,0,29,29,24,1,stimuli/stim_20210519_power2amp/equal_lnn_AM1Hz_s35_20.m4a,,,
,,,,,41229,2021-06-14_10h41.13.749,judgeSpeechMusic_20210519_logNormShiftAmp_mXs,2020.1.2,MacIntel,60,,,,,,,,,,,,,,,,,,,,,,,,,,2,12.1936,2,1,0,30,30,44,1,stimuli/stim_20210519_power2amp/equal_lnn_AM1Hz_s55_4.m4a,1.4617,,
,,,,,41229,2021-06-14_10h41.13.749,judgeSpeechMusic_20210519_logNormShiftAmp_mXs,2020.1.2,MacIntel,60,,,,,,,,,,,,,,,,,,,,,,,,,,2,5.9306,,0,0,31,31,100,1,stimuli/stim_20210519_power2amp/equal_lnn_AM4Hz_s15_21.m4a,,,
,,,,,41229,2021-06-14_10h41.13.749,judgeSpeechMusic_20210519_logNormShiftAmp_mXs,2020.1.2,MacIntel,60,,,,,,,,,,,,,,,,,,,,,,,,,,1,5.7065,,0,0,32,32,51,1,stimuli/stim_20210519_power2amp/equal_lnn_AM2.5Hz_s15_9.m4a,,,
,,,,,41229,2021-06-14_10h41.13.749,judgeSpeechMusic_20210519_logNormShiftAmp_mXs,2020.1.2,MacIntel,60,,,,,,,,,,,,,,,,,,,,,,,,,,2,8.7269,,0,0,33,33,131,1,stimuli/stim_20210519_power2amp/equal_lnn_AM4Hz_s45_36.m4a,,,
,,,,,41229,2021-06-14_10h41.13.749,judgeSpeechMusic_20210519_logNormShiftAmp_mXs,2020.1.2,MacIntel,60,,,,,,,,,,,,,,,,,,,,,,,,,,1,6.2441,,0,0,34,34,141,1,stimuli/stim_20210519_power2amp/equal_lnn_AM4Hz_s55_37.m4a,,,
,,,,,41229,2021-06-14_10h41.13.749,judgeSpeechMusic_20210519_logNormShiftAmp_mXs,2020.1.2,MacIntel,60,,,,,,,,,,,,,,,,,,,,,,,,,,2,6.6289,,0,0,35,35,94,1,stimuli/stim_20210519_power2amp/equal_lnn_AM2.5Hz_s55_16.m4a,,,
,,,,,41229,2021-06-14_10h41.13.749,judgeSpeechMusic_20210519_logNormShiftAmp_mXs,2020.1.2,MacIntel,60,,,,,,,,,,,,,,,,,,,,,,,,,,2,6.7944,,0,0,36,36,39,1,stimuli/stim_20210519_power2amp/equal_lnn_AM1Hz_s45_10.m4a,,,
,,,,,41229,2021-06-14_10h41.13.749,judgeSpeechMusic_20210519_logNormShiftAmp_mXs,2020.1.2,MacIntel,60,,,,,,,,,,,,,,,,,,,,,,,,,,1,6.6304,,0,0,37,37,61,1,stimuli/stim_20210519_power2amp/equal_lnn_AM2.5Hz_s25_11.m4a,,,
,,,,,41229,2021-06-14_10h41.13.749,judgeSpeechMusic_20210519_logNormShiftAmp_mXs,2020.1.2,MacIntel,60,,,,,,,,,,,,,,,,,,,,,,,,,,1,6.1432,,0,0,38,38,13,1,stimuli/stim_20210519_power2amp/equal_lnn_AM1Hz_s25_40.m4a,,,
,,,,,41229,2021-06-14_10h41.13.749,judgeSpeechMusic_20210519_logNormShiftAmp_mXs,2020.1.2,MacIntel,60,,,,,,,,,,,,,,,,,,,,,,,,,,1,7.0164,,0,0,39,39,33,1,stimuli/stim_20210519_power2amp/equal_lnn_AM1Hz_s45_38.m4a,,,
,,,,,41229,2021-06-14_10h41.13.749,judgeSpeechMusic_20210519_logNormShiftAmp_mXs,2020.1.2,MacIntel,60,,,,,,,,,,,,,,,,,,,,,,,,,,2,5.9079,,0,0,40,40,129,1,stimuli/stim_20210519_power2amp/equal_lnn_AM4Hz_s35_22.m4a,,,
,,,,,41229,2021-06-14_10h41.13.749,judgeSpeechMusic_20210519_logNormShiftAmp_mXs,2020.1.2,MacIntel,60,,,,,,,,,,,,,,,,,,,,,,,,,,1,6.4583,,0,0,41,41,96,1,stimuli/stim_20210519_power2amp/equal_lnn_AM2.5Hz_s55_38.m4a,,,
,,,,,41229,2021-06-14_10h41.13.749,judgeSpeechMusic_20210519_logNormShiftAmp_mXs,2020.1.2,MacIntel,60,,,,,,,,,,,,,,,,,,,,,,,,,,1,6.1124,,0,0,42,42,7,1,stimuli/stim_20210519_power2amp/equal_lnn_AM1Hz_s15_35.m4a,,,
,,,,,41229,2021-06-14_10h41.13.749,judgeSpeechMusic_20210519_logNormShiftAmp_mXs,2020.1.2,MacIntel,60,,,,,,,,,,,,,,,,,,,,,,,,,,1,6.8713,,0,0,43,43,42,1,stimuli/stim_20210519_power2amp/equal_lnn_AM1Hz_s55_42.m4a,,,
,,,,,41229,2021-06-14_10h41.13.749,judgeSpeechMusic_20210519_logNormShiftAmp_mXs,2020.1.2,MacIntel,60,,,,,,,,,,,,,,,,,,,,,,,,,,2,8.4425,,0,0,44,44,0,1,stimuli/stim_20210519_power2amp/equal_lnn_AM1Hz_s15_20.m4a,,,
,,,,,41229,2021-06-14_10h41.13.749,judgeSpeechMusic_20210519_logNormShiftAmp_mXs,2020.1.2,MacIntel,60,,,,,,,,,,,,,,,,,,,,,,,,,,2,6.4093,,0,0,45,45,102,1,stimuli/stim_20210519_power2amp/equal_lnn_AM4Hz_s15_25.m4a,,,
,,,,,41229,2021-06-14_10h41.13.749,judgeSpeechMusic_20210519_logNormShiftAmp_mXs,2020.1.2,MacIntel,60,,,,,,,,,,,,,,,,,,,,,,,,,,1,6.5914,,0,0,46,46,22,1,stimuli/stim_20210519_power2amp/equal_lnn_AM1Hz_s35_24.m4a,,,
,,,,,41229,2021-06-14_10h41.13.749,judgeSpeechMusic_20210519_logNormShiftAmp_mXs,2020.1.2,MacIntel,60,,,,,,,,,,,,,,,,,,,,,,,,,,2,5.7604,,0,0,47,47,123,1,stimuli/stim_20210519_power2amp/equal_lnn_AM4Hz_s35_14.m4a,,,
,,,,,41229,2021-06-14_10h41.13.749,judgeSpeechMusic_20210519_logNormShiftAmp_mXs,2020.1.2,MacIntel,60,,,,,,,,,,,,,,,,,,,,,,,,,,1,12.3436,,0,0,48,48,130,1,stimuli/stim_20210519_power2amp/equal_lnn_AM4Hz_s45_45.m4a,,,
,,,,,41229,2021-06-14_10h41.13.749,judgeSpeechMusic_20210519_logNormShiftAmp_mXs,2020.1.2,MacIntel,60,,,,,,,,,,,,,,,,,,,,,,,,,,1,6.4921,,0,0,49,49,15,1,stimuli/stim_20210519_power2amp/equal_lnn_AM1Hz_s25_31.m4a,,,
,,,,,41229,2021-06-14_10h41.13.749,judgeSpeechMusic_20210519_logNormShiftAmp_mXs,2020.1.2,MacIntel,60,,,,,,,,,,,,,,,,,,,,,,,,,,2,6.0844,,0,0,50,50,107,1,stimuli/stim_20210519_power2amp/equal_lnn_AM4Hz_s15_41.m4a,,,
,,,,,41229,2021-06-14_10h41.13.749,judgeSpeechMusic_20210519_logNormShiftAmp_mXs,2020.1.2,MacIntel,60,,,,,,,,,,,,,,,,,,,,,,,,,,1,5.8919,2,1,0,51,51,66,1,stimuli/stim_20210519_power2amp/equal_lnn_AM2.5Hz_s25_6.m4a,0.5654,,
,,,,,41229,2021-06-14_10h41.13.749,judgeSpeechMusic_20210519_logNormShiftAmp_mXs,2020.1.2,MacIntel,60,,,,,,,,,,,,,,,,,,,,,,,,,,1,6.5625,,0,0,52,52,27,1,stimuli/stim_20210519_power2amp/equal_lnn_AM1Hz_s35_1.m4a,,,
,,,,,41229,2021-06-14_10h41.13.749,judgeSpeechMusic_20210519_logNormShiftAmp_mXs,2020.1.2,MacIntel,60,,,,,,,,,,,,,,,,,,,,,,,,,,1,6.3828,,0,0,53,53,72,1,stimuli/stim_20210519_power2amp/equal_lnn_AM2.5Hz_s35_5.m4a,,,
,,,,,41229,2021-06-14_10h41.13.749,judgeSpeechMusic_20210519_logNormShiftAmp_mXs,2020.1.2,MacIntel,60,,,,,,,,,,,,,,,,,,,,,,,,,,1,7.2098,,0,0,54,54,92,1,stimuli/stim_20210519_power2amp/equal_lnn_AM2.5Hz_s55_20.m4a,,,
,,,,,41229,2021-06-14_10h41.13.749,judgeSpeechMusic_20210519_logNormShiftAmp_mXs,2020.1.2,MacIntel,60,,,,,,,,,,,,,,,,,,,,,,,,,,2,5.7797,,0,0,55,55,119,1,stimuli/stim_20210519_power2amp/equal_lnn_AM4Hz_s25_20.m4a,,,
,,,,,41229,2021-06-14_10h41.13.749,judgeSpeechMusic_20210519_logNormShiftAmp_mXs,2020.1.2,MacIntel,60,,,,,,,,,,,,,,,,,,,,,,,,,,1,6.6397,,0,0,56,56,78,1,stimuli/stim_20210519_power2amp/equal_lnn_AM2.5Hz_s35_2.m4a,,,
,,,,,41229,2021-06-14_10h41.13.749,judgeSpeechMusic_20210519_logNormShiftAmp_mXs,2020.1.2,MacIntel,60,,,,,,,,,,,,,,,,,,,,,,,,,,2,6.1691,,0,0,57,57,112,1,stimuli/stim_20210519_power2amp/equal_lnn_AM4Hz_s25_5.m4a,,,
,,,,,41229,2021-06-14_10h41.13.749,judgeSpeechMusic_20210519_logNormShiftAmp_mXs,2020.1.2,MacIntel,60,,,,,,,,,,,,,,,,,,,,,,,,,,1,6.7132,,0,0,58,58,1,1,stimuli/stim_20210519_power2amp/equal_lnn_AM1Hz_s15_17.m4a,,,
,,,,,41229,2021-06-14_10h41.13.749,judgeSpeechMusic_20210519_logNormShiftAmp_mXs,2020.1.2,MacIntel,60,,,,,,,,,,,,,,,,,,,,,,,,,,1,6.4033,,0,0,59,59,86,1,stimuli/stim_20210519_power2amp/equal_lnn_AM2.5Hz_s45_30.m4a,,,
,,,,,41229,2021-06-14_10h41.13.749,judgeSpeechMusic_20210519_logNormShiftAmp_mXs,2020.1.2,MacIntel,60,,,,,,,,,,,,,,,,,,,,,,,,,,2,5.8305,,0,0,60,60,124,1,stimuli/stim_20210519_power2amp/equal_lnn_AM4Hz_s35_35.m4a,,,
,,,,,41229,2021-06-14_10h41.13.749,judgeSpeechMusic_20210519_logNormShiftAmp_mXs,2020.1.2,MacIntel,60,,,,,,,,,,,,,,,,,,,,,,,,,,2,6.343,,0,0,61,61,146,1,stimuli/stim_20210519_power2amp/equal_lnn_AM4Hz_s55_28.m4a,,,
,,,,,41229,2021-06-14_10h41.13.749,judgeSpeechMusic_20210519_logNormShiftAmp_mXs,2020.1.2,MacIntel,60,,,,,,,,,,,,,,,,,,,,,,,,,,1,6.3618,,0,0,62,62,18,1,stimuli/stim_20210519_power2amp/equal_lnn_AM1Hz_s25_42.m4a,,,
,,,,,41229,2021-06-14_10h41.13.749,judgeSpeechMusic_20210519_logNormShiftAmp_mXs,2020.1.2,MacIntel,60,,,,,,,,,,,,,,,,,,,,,,,,,,1,7.3876,,0,0,63,63,88,1,stimuli/stim_20210519_power2amp/equal_lnn_AM2.5Hz_s45_13.m4a,,,
,,,,,41229,2021-06-14_10h41.13.749,judgeSpeechMusic_20210519_logNormShiftAmp_mXs,2020.1.2,MacIntel,60,,,,,,,,,,,,,,,,,,,,,,,,,,2,5.738,,0,0,64,64,104,1,stimuli/stim_20210519_power2amp/equal_lnn_AM4Hz_s15_1.m4a,,,
,,,,,41229,2021-06-14_10h41.13.749,judgeSpeechMusic_20210519_logNormShiftAmp_mXs,2020.1.2,MacIntel,60,,,,,,,,,,,,,,,,,,,,,,,,,,1,6.5899,,0,0,65,65,52,1,stimuli/stim_20210519_power2amp/equal_lnn_AM2.5Hz_s15_28.m4a,,,
,,,,,41229,2021-06-14_10h41.13.749,judgeSpeechMusic_20210519_logNormShiftAmp_mXs,2020.1.2,MacIntel,60,,,,,,,,,,,,,,,,,,,,,,,,,,1,6.4087,,0,0,66,66,3,1,stimuli/stim_20210519_power2amp/equal_lnn_AM1Hz_s15_5.m4a,,,
,,,,,41229,2021-06-14_10h41.13.749,judgeSpeechMusic_20210519_logNormShiftAmp_mXs,2020.1.2,MacIntel,60,,,,,,,,,,,,,,,,,,,,,,,,,,2,5.8408,,0,0,67,67,64,1,stimuli/stim_20210519_power2amp/equal_lnn_AM2.5Hz_s25_30.m4a,,,
,,,,,41229,2021-06-14_10h41.13.749,judgeSpeechMusic_20210519_logNormShiftAmp_mXs,2020.1.2,MacIntel,60,,,,,,,,,,,,,,,,,,,,,,,,,,1,6.4059,,0,0,68,68,57,1,stimuli/stim_20210519_power2amp/equal_lnn_AM2.5Hz_s15_6.m4a,,,
,,,,,41229,2021-06-14_10h41.13.749,judgeSpeechMusic_20210519_logNormShiftAmp_mXs,2020.1.2,MacIntel,60,,,,,,,,,,,,,,,,,,,,,,,,,,1,5.9587,,0,0,69,69,37,1,stimuli/stim_20210519_power2amp/equal_lnn_AM1Hz_s45_26.m4a,,,
,,,,,41229,2021-06-14_10h41.13.749,judgeSpeechMusic_20210519_logNormShiftAmp_mXs,2020.1.2,MacIntel,60,,,,,,,,,,,,,,,,,,,,,,,,,,2,5.8268,,0,0,70,70,91,1,stimuli/stim_20210519_power2amp/equal_lnn_AM2.5Hz_s55_6.m4a,,,
,,,,,41229,2021-06-14_10h41.13.749,judgeSpeechMusic_20210519_logNormShiftAmp_mXs,2020.1.2,MacIntel,60,,,,,,,,,,,,,,,,,,,,,,,,,,2,6.379,,0,0,71,71,118,1,stimuli/stim_20210519_power2amp/equal_lnn_AM4Hz_s25_10.m4a,,,
,,,,,41229,2021-06-14_10h41.13.749,judgeSpeechMusic_20210519_logNormShiftAmp_mXs,2020.1.2,MacIntel,60,,,,,,,,,,,,,,,,,,,,,,,,,,2,6.3454,3,1,0,72,72,108,1,stimuli/stim_20210519_power2amp/equal_lnn_AM4Hz_s15_31.m4a,1.2822,,
,,,,,41229,2021-06-14_10h41.13.749,judgeSpeechMusic_20210519_logNormShiftAmp_mXs,2020.1.2,MacIntel,60,,,,,,,,,,,,,,,,,,,,,,,,,,1,6.1111,,0,0,73,73,97,1,stimuli/stim_20210519_power2amp/equal_lnn_AM2.5Hz_s55_13.m4a,,,
,,,,,41229,2021-06-14_10h41.13.749,judgeSpeechMusic_20210519_logNormShiftAmp_mXs,2020.1.2,MacIntel,60,,,,,,,,,,,,,,,,,,,,,,,,,,2,6.502,,0,0,74,74,95,1,stimuli/stim_20210519_power2amp/equal_lnn_AM2.5Hz_s55_22.m4a,,,
,,,,,41229,2021-06-14_10h41.13.749,judgeSpeechMusic_20210519_logNormShiftAmp_mXs,2020.1.2,MacIntel,60,,,,,,,,,,,,,,,,,,,,,,,,,,1,6.5667,,0,0,75,75,87,1,stimuli/stim_20210519_power2amp/equal_lnn_AM2.5Hz_s45_27.m4a,,,
,,,,,41229,2021-06-14_10h41.13.749,judgeSpeechMusic_20210519_logNormShiftAmp_mXs,2020.1.2,MacIntel,60,,,,,,,,,,,,,,,,,,,,,,,,,,2,6.5919,,0,0,76,76,132,1,stimuli/stim_20210519_power2amp/equal_lnn_AM4Hz_s45_49.m4a,,,
,,,,,41229,2021-06-14_10h41.13.749,judgeSpeechMusic_20210519_logNormShiftAmp_mXs,2020.1.2,MacIntel,60,,,,,,,,,,,,,,,,,,,,,,,,,,2,5.7629,,0,0,77,77,139,1,stimuli/stim_20210519_power2amp/equal_lnn_AM4Hz_s45_47.m4a,,,
,,,,,41229,2021-06-14_10h41.13.749,judgeSpeechMusic_20210519_logNormShiftAmp_mXs,2020.1.2,MacIntel,60,,,,,,,,,,,,,,,,,,,,,,,,,,2,6.4979,,0,0,78,78,121,1,stimuli/stim_20210519_power2amp/equal_lnn_AM4Hz_s35_7.m4a,,,
,,,,,41229,2021-06-14_10h41.13.749,judgeSpeechMusic_20210519_logNormShiftAmp_mXs,2020.1.2,MacIntel,60,,,,,,,,,,,,,,,,,,,,,,,,,,1,6.7488,,0,0,79,79,99,1,stimuli/stim_20210519_power2amp/equal_lnn_AM2.5Hz_s55_17.m4a,,,
,,,,,41229,2021-06-14_10h41.13.749,judgeSpeechMusic_20210519_logNormShiftAmp_mXs,2020.1.2,MacIntel,60,,,,,,,,,,,,,,,,,,,,,,,,,,1,5.989,,0,0,80,80,4,1,stimuli/stim_20210519_power2amp/equal_lnn_AM1Hz_s15_45.m4a,,,
,,,,,41229,2021-06-14_10h41.13.749,judgeSpeechMusic_20210519_logNormShiftAmp_mXs,2020.1.2,MacIntel,60,,,,,,,,,,,,,,,,,,,,,,,,,,1,7.5194,,0,0,81,81,60,1,stimuli/stim_20210519_power2amp/equal_lnn_AM2.5Hz_s25_41.m4a,,,
,,,,,41229,2021-06-14_10h41.13.749,judgeSpeechMusic_20210519_logNormShiftAmp_mXs,2020.1.2,MacIntel,60,,,,,,,,,,,,,,,,,,,,,,,,,,1,10.8244,,0,0,82,82,16,1,stimuli/stim_20210519_power2amp/equal_lnn_AM1Hz_s25_24.m4a,,,
,,,,,41229,2021-06-14_10h41.13.749,judgeSpeechMusic_20210519_logNormShiftAmp_mXs,2020.1.2,MacIntel,60,,,,,,,,,,,,,,,,,,,,,,,,,,2,5.8959,,0,0,83,83,143,1,stimuli/stim_20210519_power2amp/equal_lnn_AM4Hz_s55_3.m4a,,,
,,,,,41229,2021-06-14_10h41.13.749,judgeSpeechMusic_20210519_logNormShiftAmp_mXs,2020.1.2,MacIntel,60,,,,,,,,,,,,,,,,,,,,,,,,,,1,6.7603,,0,0,84,84,8,1,stimuli/stim_20210519_power2amp/equal_lnn_AM1Hz_s15_18.m4a,,,
,,,,,41229,2021-06-14_10h41.13.749,judgeSpeechMusic_20210519_logNormShiftAmp_mXs,2020.1.2,MacIntel,60,,,,,,,,,,,,,,,,,,,,,,,,,,1,6.2603,,0,0,85,85,21,1,stimuli/stim_20210519_power2amp/equal_lnn_AM1Hz_s35_27.m4a,,,
,,,,,41229,2021-06-14_10h41.13.749,judgeSpeechMusic_20210519_logNormShiftAmp_mXs,2020.1.2,MacIntel,60,,,,,,,,,,,,,,,,,,,,,,,,,,2,6.096,,0,0,86,86,80,1,stimuli/stim_20210519_power2amp/equal_lnn_AM2.5Hz_s45_9.m4a,,,
,,,,,41229,2021-06-14_10h41.13.749,judgeSpeechMusic_20210519_logNormShiftAmp_mXs,2020.1.2,MacIntel,60,,,,,,,,,,,,,,,,,,,,,,,,,,1,10.5319,,0,0,87,87,74,1,stimuli/stim_20210519_power2amp/equal_lnn_AM2.5Hz_s35_25.m4a,,,
,,,,,41229,2021-06-14_10h41.13.749,judgeSpeechMusic_20210519_logNormShiftAmp_mXs,2020.1.2,MacIntel,60,,,,,,,,,,,,,,,,,,,,,,,,,,2,8.2544,,0,0,88,88,103,1,stimuli/stim_20210519_power2amp/equal_lnn_AM4Hz_s15_5.m4a,,,
,,,,,41229,2021-06-14_10h41.13.749,judgeSpeechMusic_20210519_logNormShiftAmp_mXs,2020.1.2,MacIntel,60,,,,,,,,,,,,,,,,,,,,,,,,,,2,6.3397,,0,0,89,89,29,1,stimuli/stim_20210519_power2amp/equal_lnn_AM1Hz_s35_7.m4a,,,
,,,,,41229,2021-06-14_10h41.13.749,judgeSpeechMusic_20210519_logNormShiftAmp_mXs,2020.1.2,MacIntel,60,,,,,,,,,,,,,,,,,,,,,,,,,,2,5.8288,,0,0,90,90,147,1,stimuli/stim_20210519_power2amp/equal_lnn_AM4Hz_s55_8.m4a,,,
,,,,,41229,2021-06-14_10h41.13.749,judgeSpeechMusic_20210519_logNormShiftAmp_mXs,2020.1.2,MacIntel,60,,,,,,,,,,,,,,,,,,,,,,,,,,2,6.0334,,0,0,91,91,110,1,stimuli/stim_20210519_power2amp/equal_lnn_AM4Hz_s25_30.m4a,,,
,,,,,41229,2021-06-14_10h41.13.749,judgeSpeechMusic_20210519_logNormShiftAmp_mXs,2020.1.2,MacIntel,60,,,,,,,,,,,,,,,,,,,,,,,,,,2,6.6398,,0,0,92,92,126,1,stimuli/stim_20210519_power2amp/equal_lnn_AM4Hz_s35_44.m4a,,,
,,,,,41229,2021-06-14_10h41.13.749,judgeSpeechMusic_20210519_logNormShiftAmp_mXs,2020.1.2,MacIntel,60,,,,,,,,,,,,,,,,,,,,,,,,,,2,6.9368,,0,0,93,93,135,1,stimuli/stim_20210519_power2amp/equal_lnn_AM4Hz_s45_11.m4a,,,
,,,,,41229,2021-06-14_10h41.13.749,judgeSpeechMusic_20210519_logNormShiftAmp_mXs,2020.1.2,MacIntel,60,,,,,,,,,,,,,,,,,,,,,,,,,,1,6.4327,2,1,0,94,94,43,1,stimuli/stim_20210519_power2amp/equal_lnn_AM1Hz_s55_20.m4a,0.8703,,
,,,,,41229,2021-06-14_10h41.13.749,judgeSpeechMusic_20210519_logNormShiftAmp_mXs,2020.1.2,MacIntel,60,,,,,,,,,,,,,,,,,,,,,,,,,,2,6.5724,,0,0,95,95,140,1,stimuli/stim_20210519_power2amp/equal_lnn_AM4Hz_s55_44.m4a,,,
,,,,,41229,2021-06-14_10h41.13.749,judgeSpeechMusic_20210519_logNormShiftAmp_mXs,2020.1.2,MacIntel,60,,,,,,,,,,,,,,,,,,,,,,,,,,2,6.2974,,0,0,96,96,55,1,stimuli/stim_20210519_power2amp/equal_lnn_AM2.5Hz_s15_45.m4a,,,
,,,,,41229,2021-06-14_10h41.13.749,judgeSpeechMusic_20210519_logNormShiftAmp_mXs,2020.1.2,MacIntel,60,,,,,,,,,,,,,,,,,,,,,,,,,,2,6.8409,,0,0,97,97,114,1,stimuli/stim_20210519_power2amp/equal_lnn_AM4Hz_s25_15.m4a,,,
,,,,,41229,2021-06-14_10h41.13.749,judgeSpeechMusic_20210519_logNormShiftAmp_mXs,2020.1.2,MacIntel,60,,,,,,,,,,,,,,,,,,,,,,,,,,1,6.595,,0,0,98,98,63,1,stimuli/stim_20210519_power2amp/equal_lnn_AM2.5Hz_s25_21.m4a,,,
,,,,,41229,2021-06-14_10h41.13.749,judgeSpeechMusic_20210519_logNormShiftAmp_mXs,2020.1.2,MacIntel,60,,,,,,,,,,,,,,,,,,,,,,,,,,1,7.0888,,0,0,99,99,34,1,stimuli/stim_20210519_power2amp/equal_lnn_AM1Hz_s45_8.m4a,,,
,,,,,41229,2021-06-14_10h41.13.749,judgeSpeechMusic_20210519_logNormShiftAmp_mXs,2020.1.2,MacIntel,60,,,,,,,,,,,,,,,,,,,,,,,,,,1,7.393,,0,0,100,100,31,1,stimuli/stim_20210519_power2amp/equal_lnn_AM1Hz_s45_27.m4a,,,
,,,,,41229,2021-06-14_10h41.13.749,judgeSpeechMusic_20210519_logNormShiftAmp_mXs,2020.1.2,MacIntel,60,,,,,,,,,,,,,,,,,,,,,,,,,,1,6.6793,,0,0,101,101,5,1,stimuli/stim_20210519_power2amp/equal_lnn_AM1Hz_s15_39.m4a,,,
,,,,,41229,2021-06-14_10h41.13.749,judgeSpeechMusic_20210519_logNormShiftAmp_mXs,2020.1.2,MacIntel,60,,,,,,,,,,,,,,,,,,,,,,,,,,2,7.5328,,0,0,102,102,113,1,stimuli/stim_20210519_power2amp/equal_lnn_AM4Hz_s25_2.m4a,,,
,,,,,41229,2021-06-14_10h41.13.749,judgeSpeechMusic_20210519_logNormShiftAmp_mXs,2020.1.2,MacIntel,60,,,,,,,,,,,,,,,,,,,,,,,,,,1,6.6774,,0,0,103,103,98,1,stimuli/stim_20210519_power2amp/equal_lnn_AM2.5Hz_s55_43.m4a,,,
,,,,,41229,2021-06-14_10h41.13.749,judgeSpeechMusic_20210519_logNormShiftAmp_mXs,2020.1.2,MacIntel,60,,,,,,,,,,,,,,,,,,,,,,,,,,2,6.6468,,0,0,104,104,127,1,stimuli/stim_20210519_power2amp/equal_lnn_AM4Hz_s35_12.m4a,,,
,,,,,41229,2021-06-14_10h41.13.749,judgeSpeechMusic_20210519_logNormShiftAmp_mXs,2020.1.2,MacIntel,60,,,,,,,,,,,,,,,,,,,,,,,,,,2,6.839,,0,0,105,105,149,1,stimuli/stim_20210519_power2amp/equal_lnn_AM4Hz_s55_19.m4a,,,
,,,,,41229,2021-06-14_10h41.13.749,judgeSpeechMusic_20210519_logNormShiftAmp_mXs,2020.1.2,MacIntel,60,,,,,,,,,,,,,,,,,,,,,,,,,,1,6.4129,,0,0,106,106,30,1,stimuli/stim_20210519_power2amp/equal_lnn_AM1Hz_s45_41.m4a,,,
,,,,,41229,2021-06-14_10h41.13.749,judgeSpeechMusic_20210519_logNormShiftAmp_mXs,2020.1.2,MacIntel,60,,,,,,,,,,,,,,,,,,,,,,,,,,2,6.6113,,0,0,107,107,53,1,stimuli/stim_20210519_power2amp/equal_lnn_AM2.5Hz_s15_4.m4a,,,
,,,,,41229,2021-06-14_10h41.13.749,judgeSpeechMusic_20210519_logNormShiftAmp_mXs,2020.1.2,MacIntel,60,,,,,,,,,,,,,,,,,,,,,,,,,,2,5.6631,,0,0,108,108,125,1,stimuli/stim_20210519_power2amp/equal_lnn_AM4Hz_s35_19.m4a,,,
,,,,,41229,2021-06-14_10h41.13.749,judgeSpeechMusic_20210519_logNormShiftAmp_mXs,2020.1.2,MacIntel,60,,,,,,,,,,,,,,,,,,,,,,,,,,2,5.8559,,0,0,109,109,73,1,stimuli/stim_20210519_power2amp/equal_lnn_AM2.5Hz_s35_15.m4a,,,
,,,,,41229,2021-06-14_10h41.13.749,judgeSpeechMusic_20210519_logNormShiftAmp_mXs,2020.1.2,MacIntel,60,,,,,,,,,,,,,,,,,,,,,,,,,,2,9.6159,,0,0,110,110,67,1,stimuli/stim_20210519_power2amp/equal_lnn_AM2.5Hz_s25_14.m4a,,,
,,,,,41229,2021-06-14_10h41.13.749,judgeSpeechMusic_20210519_logNormShiftAmp_mXs,2020.1.2,MacIntel,60,,,,,,,,,,,,,,,,,,,,,,,,,,2,5.7113,,0,0,111,111,133,1,stimuli/stim_20210519_power2amp/equal_lnn_AM4Hz_s45_24.m4a,,,
,,,,,41229,2021-06-14_10h41.13.749,judgeSpeechMusic_20210519_logNormShiftAmp_mXs,2020.1.2,MacIntel,60,,,,,,,,,,,,,,,,,,,,,,,,,,1,5.7876,,0,0,112,112,82,1,stimuli/stim_20210519_power2amp/equal_lnn_AM2.5Hz_s45_10.m4a,,,
,,,,,41229,2021-06-14_10h41.13.749,judgeSpeechMusic_20210519_logNormShiftAmp_mXs,2020.1.2,MacIntel,60,,,,,,,,,,,,,,,,,,,,,,,,,,2,6.0831,,0,0,113,113,137,1,stimuli/stim_20210519_power2amp/equal_lnn_AM4Hz_s45_15.m4a,,,
,,,,,41229,2021-06-14_10h41.13.749,judgeSpeechMusic_20210519_logNormShiftAmp_mXs,2020.1.2,MacIntel,60,,,,,,,,,,,,,,,,,,,,,,,,,,2,14.5791,,0,0,114,114,128,1,stimuli/stim_20210519_power2amp/equal_lnn_AM4Hz_s35_18.m4a,,,
,,,,,41229,2021-06-14_10h41.13.749,judgeSpeechMusic_20210519_logNormShiftAmp_mXs,2020.1.2,MacIntel,60,,,,,,,,,,,,,,,,,,,,,,,,,,1,5.8293,,0,0,115,115,49,1,stimuli/stim_20210519_power2amp/equal_lnn_AM1Hz_s55_13.m4a,,,
,,,,,41229,2021-06-14_10h41.13.749,judgeSpeechMusic_20210519_logNormShiftAmp_mXs,2020.1.2,MacIntel,60,,,,,,,,,,,,,,,,,,,,,,,,,,1,5.6934,,0,0,116,116,35,1,stimuli/stim_20210519_power2amp/equal_lnn_AM1Hz_s45_40.m4a,,,
,,,,,41229,2021-06-14_10h41.13.749,judgeSpeechMusic_20210519_logNormShiftAmp_mXs,2020.1.2,MacIntel,60,,,,,,,,,,,,,,,,,,,,,,,,,,1,5.9601,,0,0,117,117,12,1,stimuli/stim_20210519_power2amp/equal_lnn_AM1Hz_s25_30.m4a,,,
,,,,,41229,2021-06-14_10h41.13.749,judgeSpeechMusic_20210519_logNormShiftAmp_mXs,2020.1.2,MacIntel,60,,,,,,,,,,,,,,,,,,,,,,,,,,2,6.1973,,0,0,118,118,148,1,stimuli/stim_20210519_power2amp/equal_lnn_AM4Hz_s55_50.m4a,,,
,,,,,41229,2021-06-14_10h41.13.749,judgeSpeechMusic_20210519_logNormShiftAmp_mXs,2020.1.2,MacIntel,60,,,,,,,,,,,,,,,,,,,,,,,,,,1,5.8867,4,1,0,119,119,9,1,stimuli/stim_20210519_power2amp/equal_lnn_AM1Hz_s15_16.m4a,0.5502,,
,,,,,41229,2021-06-14_10h41.13.749,judgeSpeechMusic_20210519_logNormShiftAmp_mXs,2020.1.2,MacIntel,60,,,,,,,,,,,,,,,,,,,,,,,,,,2,5.9294,,0,0,120,120,83,1,stimuli/stim_20210519_power2amp/equal_lnn_AM2.5Hz_s45_37.m4a,,,
,,,,,41229,2021-06-14_10h41.13.749,judgeSpeechMusic_20210519_logNormShiftAmp_mXs,2020.1.2,MacIntel,60,,,,,,,,,,,,,,,,,,,,,,,,,,1,5.8748,,0,0,121,121,2,1,stimuli/stim_20210519_power2amp/equal_lnn_AM1Hz_s15_48.m4a,,,
,,,,,41229,2021-06-14_10h41.13.749,judgeSpeechMusic_20210519_logNormShiftAmp_mXs,2020.1.2,MacIntel,60,,,,,,,,,,,,,,,,,,,,,,,,,,2,6.2571,,0,0,122,122,93,1,stimuli/stim_20210519_power2amp/equal_lnn_AM2.5Hz_s55_21.m4a,,,
,,,,,41229,2021-06-14_10h41.13.749,judgeSpeechMusic_20210519_logNormShiftAmp_mXs,2020.1.2,MacIntel,60,,,,,,,,,,,,,,,,,,,,,,,,,,2,9.9225,,0,0,123,123,116,1,stimuli/stim_20210519_power2amp/equal_lnn_AM4Hz_s25_6.m4a,,,
,,,,,41229,2021-06-14_10h41.13.749,judgeSpeechMusic_20210519_logNormShiftAmp_mXs,2020.1.2,MacIntel,60,,,,,,,,,,,,,,,,,,,,,,,,,,2,5.9611,,0,0,124,124,138,1,stimuli/stim_20210519_power2amp/equal_lnn_AM4Hz_s45_43.m4a,,,
,,,,,41229,2021-06-14_10h41.13.749,judgeSpeechMusic_20210519_logNormShiftAmp_mXs,2020.1.2,MacIntel,60,,,,,,,,,,,,,,,,,,,,,,,,,,2,6.1584,,0,0,125,125,145,1,stimuli/stim_20210519_power2amp/equal_lnn_AM4Hz_s55_20.m4a,,,
,,,,,41229,2021-06-14_10h41.13.749,judgeSpeechMusic_20210519_logNormShiftAmp_mXs,2020.1.2,MacIntel,60,,,,,,,,,,,,,,,,,,,,,,,,,,1,5.8426,,0,0,126,126,36,1,stimuli/stim_20210519_power2amp/equal_lnn_AM1Hz_s45_30.m4a,,,
,,,,,41229,2021-06-14_10h41.13.749,judgeSpeechMusic_20210519_logNormShiftAmp_mXs,2020.1.2,MacIntel,60,,,,,,,,,,,,,,,,,,,,,,,,,,1,7.0899,,0,0,127,127,20,1,stimuli/stim_20210519_power2amp/equal_lnn_AM1Hz_s35_5.m4a,,,
,,,,,41229,2021-06-14_10h41.13.749,judgeSpeechMusic_20210519_logNormShiftAmp_mXs,2020.1.2,MacIntel,60,,,,,,,,,,,,,,,,,,,,,,,,,,1,6.0117,,0,0,128,128,28,1,stimuli/stim_20210519_power2amp/equal_lnn_AM1Hz_s35_11.m4a,,,
,,,,,41229,2021-06-14_10h41.13.749,judgeSpeechMusic_20210519_logNormShiftAmp_mXs,2020.1.2,MacIntel,60,,,,,,,,,,,,,,,,,,,,,,,,,,1,5.678,,0,0,129,129,14,1,stimuli/stim_20210519_power2amp/equal_lnn_AM1Hz_s25_15.m4a,,,
,,,,,41229,2021-06-14_10h41.13.749,judgeSpeechMusic_20210519_logNormShiftAmp_mXs,2020.1.2,MacIntel,60,,,,,,,,,,,,,,,,,,,,,,,,,,2,5.9158,,0,0,130,130,85,1,stimuli/stim_20210519_power2amp/equal_lnn_AM2.5Hz_s45_36.m4a,,,
,,,,,41229,2021-06-14_10h41.13.749,judgeSpeechMusic_20210519_logNormShiftAmp_mXs,2020.1.2,MacIntel,60,,,,,,,,,,,,,,,,,,,,,,,,,,2,5.9078,,0,0,131,131,120,1,stimuli/stim_20210519_power2amp/equal_lnn_AM4Hz_s35_26.m4a,,,
,,,,,41229,2021-06-14_10h41.13.749,judgeSpeechMusic_20210519_logNormShiftAmp_mXs,2020.1.2,MacIntel,60,,,,,,,,,,,,,,,,,,,,,,,,,,1,6.3482,,0,0,132,132,19,1,stimuli/stim_20210519_power2amp/equal_lnn_AM1Hz_s25_6.m4a,,,
,,,,,41229,2021-06-14_10h41.13.749,judgeSpeechMusic_20210519_logNormShiftAmp_mXs,2020.1.2,MacIntel,60,,,,,,,,,,,,,,,,,,,,,,,,,,2,9.6477,,0,0,133,133,105,1,stimuli/stim_20210519_power2amp/equal_lnn_AM4Hz_s15_36.m4a,,,
,,,,,41229,2021-06-14_10h41.13.749,judgeSpeechMusic_20210519_logNormShiftAmp_mXs,2020.1.2,MacIntel,60,,,,,,,,,,,,,,,,,,,,,,,,,,2,6.0937,,0,0,134,134,71,1,stimuli/stim_20210519_power2amp/equal_lnn_AM2.5Hz_s35_28.m4a,,,
,,,,,41229,2021-06-14_10h41.13.749,judgeSpeechMusic_20210519_logNormShiftAmp_mXs,2020.1.2,MacIntel,60,,,,,,,,,,,,,,,,,,,,,,,,,,2,5.9292,,0,0,135,135,117,1,stimuli/stim_20210519_power2amp/equal_lnn_AM4Hz_s25_19.m4a,,,
,,,,,41229,2021-06-14_10h41.13.749,judgeSpeechMusic_20210519_logNormShiftAmp_mXs,2020.1.2,MacIntel,60,,,,,,,,,,,,,,,,,,,,,,,,,,1,6.0584,,0,0,136,136,90,1,stimuli/stim_20210519_power2amp/equal_lnn_AM2.5Hz_s55_33.m4a,,,
,,,,,41229,2021-06-14_10h41.13.749,judgeSpeechMusic_20210519_logNormShiftAmp_mXs,2020.1.2,MacIntel,60,,,,,,,,,,,,,,,,,,,,,,,,,,1,5.8597,,0,0,137,137,45,1,stimuli/stim_20210519_power2amp/equal_lnn_AM1Hz_s55_34.m4a,,,
,,,,,41229,2021-06-14_10h41.13.749,judgeSpeechMusic_20210519_logNormShiftAmp_mXs,2020.1.2,MacIntel,60,,,,,,,,,,,,,,,,,,,,,,,,,,2,5.9783,,0,0,138,138,106,1,stimuli/stim_20210519_power2amp/equal_lnn_AM4Hz_s15_27.m4a,,,
,,,,,41229,2021-06-14_10h41.13.749,judgeSpeechMusic_20210519_logNormShiftAmp_mXs,2020.1.2,MacIntel,60,,,,,,,,,,,,,,,,,,,,,,,,,,1,5.9784,4,1,0,139,139,75,1,stimuli/stim_20210519_power2amp/equal_lnn_AM2.5Hz_s35_31.m4a,1.2993,,
,,,,,41229,2021-06-14_10h41.13.749,judgeSpeechMusic_20210519_logNormShiftAmp_mXs,2020.1.2,MacIntel,60,,,,,,,,,,,,,,,,,,,,,,,,,,1,6.1442,,0,0,140,140,6,1,stimuli/stim_20210519_power2amp/equal_lnn_AM1Hz_s15_4.m4a,,,
,,,,,41229,2021-06-14_10h41.13.749,judgeSpeechMusic_20210519_logNormShiftAmp_mXs,2020.1.2,MacIntel,60,,,,,,,,,,,,,,,,,,,,,,,,,,2,5.9463,,0,0,141,141,76,1,stimuli/stim_20210519_power2amp/equal_lnn_AM2.5Hz_s35_36.m4a,,,
,,,,,41229,2021-06-14_10h41.13.749,judgeSpeechMusic_20210519_logNormShiftAmp_mXs,2020.1.2,MacIntel,60,,,,,,,,,,,,,,,,,,,,,,,,,,1,7.1715,,0,0,142,142,115,1,stimuli/stim_20210519_power2amp/equal_lnn_AM4Hz_s25_48.m4a,,,
,,,,,41229,2021-06-14_10h41.13.749,judgeSpeechMusic_20210519_logNormShiftAmp_mXs,2020.1.2,MacIntel,60,,,,,,,,,,,,,,,,,,,,,,,,,,1,5.8936,,0,0,143,143,84,1,stimuli/stim_20210519_power2amp/equal_lnn_AM2.5Hz_s45_24.m4a,,,
,,,,,41229,2021-06-14_10h41.13.749,judgeSpeechMusic_20210519_logNormShiftAmp_mXs,2020.1.2,MacIntel,60,,,,,,,,,,,,,,,,,,,,,,,,,,2,7.0622,,0,0,144,144,81,1,stimuli/stim_20210519_power2amp/equal_lnn_AM2.5Hz_s45_39.m4a,,,
,,,,,41229,2021-06-14_10h41.13.749,judgeSpeechMusic_20210519_logNormShiftAmp_mXs,2020.1.2,MacIntel,60,,,,,,,,,,,,,,,,,,,,,,,,,,1,6.3565,,0,0,145,145,62,1,stimuli/stim_20210519_power2amp/equal_lnn_AM2.5Hz_s25_49.m4a,,,
,,,,,41229,2021-06-14_10h41.13.749,judgeSpeechMusic_20210519_logNormShiftAmp_mXs,2020.1.2,MacIntel,60,,,,,,,,,,,,,,,,,,,,,,,,,,1,5.824,,0,0,146,146,10,1,stimuli/stim_20210519_power2amp/equal_lnn_AM1Hz_s25_49.m4a,,,
,,,,,41229,2021-06-14_10h41.13.749,judgeSpeechMusic_20210519_logNormShiftAmp_mXs,2020.1.2,MacIntel,60,,,,,,,,,,,,,,,,,,,,,,,,,,1,5.8801,,0,0,147,147,38,1,stimuli/stim_20210519_power2amp/equal_lnn_AM1Hz_s45_18.m4a,,,
,,,,,41229,2021-06-14_10h41.13.749,judgeSpeechMusic_20210519_logNormShiftAmp_mXs,2020.1.2,MacIntel,60,,,,,,,,,,,,,,,,,,,,,,,,,,2,5.9955,,0,0,148,148,142,1,stimuli/stim_20210519_power2amp/equal_lnn_AM4Hz_s55_12.m4a,,,
,,,,,41229,2021-06-14_10h41.13.749,judgeSpeechMusic_20210519_logNormShiftAmp_mXs,2020.1.2,MacIntel,60,,,,,,,,,,,,,,,,,,,,,,,,,,1,6.2745,,0,0,149,149,25,1,stimuli/stim_20210519_power2amp/equal_lnn_AM1Hz_s35_12.m4a,,,
,,,,,41229,2021-06-14_10h41.13.749,judgeSpeechMusic_20210519_logNormShiftAmp_mXs,2020.1.2,MacIntel,60,,,,,,,,,,,,,,,,,,,,,,,,,,2,6.0645,,0,1,0,150,144,1,stimuli/stim_20210519_power2amp/equal_lnn_AM4Hz_s55_1.m4a,,,
,,,,,41229,2021-06-14_10h41.13.749,judgeSpeechMusic_20210519_logNormShiftAmp_mXs,2020.1.2,MacIntel,60,,,,,,,,,,,,,,,,,,,,,,,,,,1,5.8024,,0,1,1,151,97,1,stimuli/stim_20210519_power2amp/equal_lnn_AM2.5Hz_s55_13.m4a,,,
,,,,,41229,2021-06-14_10h41.13.749,judgeSpeechMusic_20210519_logNormShiftAmp_mXs,2020.1.2,MacIntel,60,,,,,,,,,,,,,,,,,,,,,,,,,,1,7.963,,0,1,2,152,23,1,stimuli/stim_20210519_power2amp/equal_lnn_AM1Hz_s35_2.m4a,,,
,,,,,41229,2021-06-14_10h41.13.749,judgeSpeechMusic_20210519_logNormShiftAmp_mXs,2020.1.2,MacIntel,60,,,,,,,,,,,,,,,,,,,,,,,,,,1,6.4023,,0,1,3,153,1,1,stimuli/stim_20210519_power2amp/equal_lnn_AM1Hz_s15_17.m4a,,,
,,,,,41229,2021-06-14_10h41.13.749,judgeSpeechMusic_20210519_logNormShiftAmp_mXs,2020.1.2,MacIntel,60,,,,,,,,,,,,,,,,,,,,,,,,,,2,5.6857,,0,1,4,154,60,1,stimuli/stim_20210519_power2amp/equal_lnn_AM2.5Hz_s25_41.m4a,,,
,,,,,41229,2021-06-14_10h41.13.749,judgeSpeechMusic_20210519_logNormShiftAmp_mXs,2020.1.2,MacIntel,60,,,,,,,,,,,,,,,,,,,,,,,,,,1,7.3475,,0,1,5,155,30,1,stimuli/stim_20210519_power2amp/equal_lnn_AM1Hz_s45_41.m4a,,,
,,,,,41229,2021-06-14_10h41.13.749,judgeSpeechMusic_20210519_logNormShiftAmp_mXs,2020.1.2,MacIntel,60,,,,,,,,,,,,,,,,,,,,,,,,,,2,5.9225,,0,1,6,156,101,1,stimuli/stim_20210519_power2amp/equal_lnn_AM4Hz_s15_16.m4a,,,
,,,,,41229,2021-06-14_10h41.13.749,judgeSpeechMusic_20210519_logNormShiftAmp_mXs,2020.1.2,MacIntel,60,,,,,,,,,,,,,,,,,,,,,,,,,,1,5.9244,,0,1,7,157,27,1,stimuli/stim_20210519_power2amp/equal_lnn_AM1Hz_s35_1.m4a,,,
,,,,,41229,2021-06-14_10h41.13.749,judgeSpeechMusic_20210519_logNormShiftAmp_mXs,2020.1.2,MacIntel,60,,,,,,,,,,,,,,,,,,,,,,,,,,2,5.8652,,0,1,8,158,124,1,stimuli/stim_20210519_power2amp/equal_lnn_AM4Hz_s35_35.m4a,,,
,,,,,41229,2021-06-14_10h41.13.749,judgeSpeechMusic_20210519_logNormShiftAmp_mXs,2020.1.2,MacIntel,60,,,,,,,,,,,,,,,,,,,,,,,,,,1,6.2276,,0,1,9,159,94,1,stimuli/stim_20210519_power2amp/equal_lnn_AM2.5Hz_s55_16.m4a,,,
,,,,,41229,2021-06-14_10h41.13.749,judgeSpeechMusic_20210519_logNormShiftAmp_mXs,2020.1.2,MacIntel,60,,,,,,,,,,,,,,,,,,,,,,,,,,2,5.8254,,0,1,10,160,50,1,stimuli/stim_20210519_power2amp/equal_lnn_AM2.5Hz_s15_42.m4a,,,
,,,,,41229,2021-06-14_10h41.13.749,judgeSpeechMusic_20210519_logNormShiftAmp_mXs,2020.1.2,MacIntel,60,,,,,,,,,,,,,,,,,,,,,,,,,,2,5.7222,,0,1,11,161,114,1,stimuli/stim_20210519_power2amp/equal_lnn_AM4Hz_s25_15.m4a,,,
,,,,,41229,2021-06-14_10h41.13.749,judgeSpeechMusic_20210519_logNormShiftAmp_mXs,2020.1.2,MacIntel,60,,,,,,,,,,,,,,,,,,,,,,,,,,1,5.6777,,0,1,12,162,69,1,stimuli/stim_20210519_power2amp/equal_lnn_AM2.5Hz_s25_7.m4a,,,
,,,,,41229,2021-06-14_10h41.13.749,judgeSpeechMusic_20210519_logNormShiftAmp_mXs,2020.1.2,MacIntel,60,,,,,,,,,,,,,,,,,,,,,,,,,,2,6.0937,,0,1,13,163,142,1,stimuli/stim_20210519_power2amp/equal_lnn_AM4Hz_s55_12.m4a,,,
,,,,,41229,2021-06-14_10h41.13.749,judgeSpeechMusic_20210519_logNormShiftAmp_mXs,2020.1.2,MacIntel,60,,,,,,,,,,,,,,,,,,,,,,,,,,1,5.8466,4,1,1,14,164,141,1,stimuli/stim_20210519_power2amp/equal_lnn_AM4Hz_s55_37.m4a,1.117,,
,,,,,41229,2021-06-14_10h41.13.749,judgeSpeechMusic_20210519_logNormShiftAmp_mXs,2020.1.2,MacIntel,60,,,,,,,,,,,,,,,,,,,,,,,,,,1,5.9253,,0,1,15,165,91,1,stimuli/stim_20210519_power2amp/equal_lnn_AM2.5Hz_s55_6.m4a,,,
,,,,,41229,2021-06-14_10h41.13.749,judgeSpeechMusic_20210519_logNormShiftAmp_mXs,2020.1.2,MacIntel,60,,,,,,,,,,,,,,,,,,,,,,,,,,1,5.9935,,0,1,16,166,34,1,stimuli/stim_20210519_power2amp/equal_lnn_AM1Hz_s45_8.m4a,,,
,,,,,41229,2021-06-14_10h41.13.749,judgeSpeechMusic_20210519_logNormShiftAmp_mXs,2020.1.2,MacIntel,60,,,,,,,,,,,,,,,,,,,,,,,,,,1,5.9119,,0,1,17,167,44,1,stimuli/stim_20210519_power2amp/equal_lnn_AM1Hz_s55_4.m4a,,,
,,,,,41229,2021-06-14_10h41.13.749,judgeSpeechMusic_20210519_logNormShiftAmp_mXs,2020.1.2,MacIntel,60,,,,,,,,,,,,,,,,,,,,,,,,,,1,5.8781,,0,1,18,168,19,1,stimuli/stim_20210519_power2amp/equal_lnn_AM1Hz_s25_6.m4a,,,
,,,,,41229,2021-06-14_10h41.13.749,judgeSpeechMusic_20210519_logNormShiftAmp_mXs,2020.1.2,MacIntel,60,,,,,,,,,,,,,,,,,,,,,,,,,,1,5.8272,,0,1,19,169,11,1,stimuli/stim_20210519_power2amp/equal_lnn_AM1Hz_s25_29.m4a,,,
,,,,,41229,2021-06-14_10h41.13.749,judgeSpeechMusic_20210519_logNormShiftAmp_mXs,2020.1.2,MacIntel,60,,,,,,,,,,,,,,,,,,,,,,,,,,2,5.8744,,0,1,20,170,130,1,stimuli/stim_20210519_power2amp/equal_lnn_AM4Hz_s45_45.m4a,,,
,,,,,41229,2021-06-14_10h41.13.749,judgeSpeechMusic_20210519_logNormShiftAmp_mXs,2020.1.2,MacIntel,60,,,,,,,,,,,,,,,,,,,,,,,,,,1,6.5252,,0,1,21,171,66,1,stimuli/stim_20210519_power2amp/equal_lnn_AM2.5Hz_s25_6.m4a,,,
,,,,,41229,2021-06-14_10h41.13.749,judgeSpeechMusic_20210519_logNormShiftAmp_mXs,2020.1.2,MacIntel,60,,,,,,,,,,,,,,,,,,,,,,,,,,2,6.0031,,0,1,22,172,115,1,stimuli/stim_20210519_power2amp/equal_lnn_AM4Hz_s25_48.m4a,,,
,,,,,41229,2021-06-14_10h41.13.749,judgeSpeechMusic_20210519_logNormShiftAmp_mXs,2020.1.2,MacIntel,60,,,,,,,,,,,,,,,,,,,,,,,,,,1,6.3864,,0,1,23,173,45,1,stimuli/stim_20210519_power2amp/equal_lnn_AM1Hz_s55_34.m4a,,,
,,,,,41229,2021-06-14_10h41.13.749,judgeSpeechMusic_20210519_logNormShiftAmp_mXs,2020.1.2,MacIntel,60,,,,,,,,,,,,,,,,,,,,,,,,,,2,9.5238,,0,1,24,174,92,1,stimuli/stim_20210519_power2amp/equal_lnn_AM2.5Hz_s55_20.m4a,,,
,,,,,41229,2021-06-14_10h41.13.749,judgeSpeechMusic_20210519_logNormShiftAmp_mXs,2020.1.2,MacIntel,60,,,,,,,,,,,,,,,,,,,,,,,,,,1,6.4595,,0,1,25,175,88,1,stimuli/stim_20210519_power2amp/equal_lnn_AM2.5Hz_s45_13.m4a,,,
,,,,,41229,2021-06-14_10h41.13.749,judgeSpeechMusic_20210519_logNormShiftAmp_mXs,2020.1.2,MacIntel,60,,,,,,,,,,,,,,,,,,,,,,,,,,1,5.8026,,0,1,26,176,49,1,stimuli/stim_20210519_power2amp/equal_lnn_AM1Hz_s55_13.m4a,,,
,,,,,41229,2021-06-14_10h41.13.749,judgeSpeechMusic_20210519_logNormShiftAmp_mXs,2020.1.2,MacIntel,60,,,,,,,,,,,,,,,,,,,,,,,,,,2,5.8068,,0,1,27,177,147,1,stimuli/stim_20210519_power2amp/equal_lnn_AM4Hz_s55_8.m4a,,,
,,,,,41229,2021-06-14_10h41.13.749,judgeSpeechMusic_20210519_logNormShiftAmp_mXs,2020.1.2,MacIntel,60,,,,,,,,,,,,,,,,,,,,,,,,,,1,6.0613,,0,1,28,178,18,1,stimuli/stim_20210519_power2amp/equal_lnn_AM1Hz_s25_42.m4a,,,
,,,,,41229,2021-06-14_10h41.13.749,judgeSpeechMusic_20210519_logNormShiftAmp_mXs,2020.1.2,MacIntel,60,,,,,,,,,,,,,,,,,,,,,,,,,,2,6.0794,,0,1,29,179,146,1,stimuli/stim_20210519_power2amp/equal_lnn_AM4Hz_s55_28.m4a,,,
,,,,,41229,2021-06-14_10h41.13.749,judgeSpeechMusic_20210519_logNormShiftAmp_mXs,2020.1.2,MacIntel,60,,,,,,,,,,,,,,,,,,,,,,,,,,2,6.4294,,0,1,30,180,83,1,stimuli/stim_20210519_power2amp/equal_lnn_AM2.5Hz_s45_37.m4a,,,
,,,,,41229,2021-06-14_10h41.13.749,judgeSpeechMusic_20210519_logNormShiftAmp_mXs,2020.1.2,MacIntel,60,,,,,,,,,,,,,,,,,,,,,,,,,,1,6.1386,,0,1,31,181,52,1,stimuli/stim_20210519_power2amp/equal_lnn_AM2.5Hz_s15_28.m4a,,,
,,,,,41229,2021-06-14_10h41.13.749,judgeSpeechMusic_20210519_logNormShiftAmp_mXs,2020.1.2,MacIntel,60,,,,,,,,,,,,,,,,,,,,,,,,,,2,9.2888,,0,1,32,182,149,1,stimuli/stim_20210519_power2amp/equal_lnn_AM4Hz_s55_19.m4a,,,
,,,,,41229,2021-06-14_10h41.13.749,judgeSpeechMusic_20210519_logNormShiftAmp_mXs,2020.1.2,MacIntel,60,,,,,,,,,,,,,,,,,,,,,,,,,,2,6.1467,,0,1,33,183,119,1,stimuli/stim_20210519_power2amp/equal_lnn_AM4Hz_s25_20.m4a,,,
,,,,,41229,2021-06-14_10h41.13.749,judgeSpeechMusic_20210519_logNormShiftAmp_mXs,2020.1.2,MacIntel,60,,,,,,,,,,,,,,,,,,,,,,,,,,2,6.1438,3,1,1,34,184,84,1,stimuli/stim_20210519_power2amp/equal_lnn_AM2.5Hz_s45_24.m4a,1.3989,,
,,,,,41229,2021-06-14_10h41.13.749,judgeSpeechMusic_20210519_logNormShiftAmp_mXs,2020.1.2,MacIntel,60,,,,,,,,,,,,,,,,,,,,,,,,,,2,5.9265,,0,1,35,185,137,1,stimuli/stim_20210519_power2amp/equal_lnn_AM4Hz_s45_15.m4a,,,
,,,,,41229,2021-06-14_10h41.13.749,judgeSpeechMusic_20210519_logNormShiftAmp_mXs,2020.1.2,MacIntel,60,,,,,,,,,,,,,,,,,,,,,,,,,,1,6.6591,,0,1,36,186,13,1,stimuli/stim_20210519_power2amp/equal_lnn_AM1Hz_s25_40.m4a,,,
,,,,,41229,2021-06-14_10h41.13.749,judgeSpeechMusic_20210519_logNormShiftAmp_mXs,2020.1.2,MacIntel,60,,,,,,,,,,,,,,,,,,,,,,,,,,1,6.5784,,0,1,37,187,108,1,stimuli/stim_20210519_power2amp/equal_lnn_AM4Hz_s15_31.m4a,,,
,,,,,41229,2021-06-14_10h41.13.749,judgeSpeechMusic_20210519_logNormShiftAmp_mXs,2020.1.2,MacIntel,60,,,,,,,,,,,,,,,,,,,,,,,,,,1,7.3611,,0,1,38,188,73,1,stimuli/stim_20210519_power2amp/equal_lnn_AM2.5Hz_s35_15.m4a,,,
,,,,,41229,2021-06-14_10h41.13.749,judgeSpeechMusic_20210519_logNormShiftAmp_mXs,2020.1.2,MacIntel,60,,,,,,,,,,,,,,,,,,,,,,,,,,1,6.7277,,0,1,39,189,12,1,stimuli/stim_20210519_power2amp/equal_lnn_AM1Hz_s25_30.m4a,,,
,,,,,41229,2021-06-14_10h41.13.749,judgeSpeechMusic_20210519_logNormShiftAmp_mXs,2020.1.2,MacIntel,60,,,,,,,,,,,,,,,,,,,,,,,,,,2,6.3914,,0,1,40,190,76,1,stimuli/stim_20210519_power2amp/equal_lnn_AM2.5Hz_s35_36.m4a,,,
,,,,,41229,2021-06-14_10h41.13.749,judgeSpeechMusic_20210519_logNormShiftAmp_mXs,2020.1.2,MacIntel,60,,,,,,,,,,,,,,,,,,,,,,,,,,1,6.3235,,0,1,41,191,53,1,stimuli/stim_20210519_power2amp/equal_lnn_AM2.5Hz_s15_4.m4a,,,
,,,,,41229,2021-06-14_10h41.13.749,judgeSpeechMusic_20210519_logNormShiftAmp_mXs,2020.1.2,MacIntel,60,,,,,,,,,,,,,,,,,,,,,,,,,,2,5.9295,,0,1,42,192,122,1,stimuli/stim_20210519_power2amp/equal_lnn_AM4Hz_s35_37.m4a,,,
,,,,,41229,2021-06-14_10h41.13.749,judgeSpeechMusic_20210519_logNormShiftAmp_mXs,2020.1.2,MacIntel,60,,,,,,,,,,,,,,,,,,,,,,,,,,1,6.9818,,0,1,43,193,110,1,stimuli/stim_20210519_power2amp/equal_lnn_AM4Hz_s25_30.m4a,,,
,,,,,41229,2021-06-14_10h41.13.749,judgeSpeechMusic_20210519_logNormShiftAmp_mXs,2020.1.2,MacIntel,60,,,,,,,,,,,,,,,,,,,,,,,,,,1,6.8061,,0,1,44,194,58,1,stimuli/stim_20210519_power2amp/equal_lnn_AM2.5Hz_s15_3.m4a,,,
,,,,,41229,2021-06-14_10h41.13.749,judgeSpeechMusic_20210519_logNormShiftAmp_mXs,2020.1.2,MacIntel,60,,,,,,,,,,,,,,,,,,,,,,,,,,2,9.8809,,0,1,45,195,118,1,stimuli/stim_20210519_power2amp/equal_lnn_AM4Hz_s25_10.m4a,,,
,,,,,41229,2021-06-14_10h41.13.749,judgeSpeechMusic_20210519_logNormShiftAmp_mXs,2020.1.2,MacIntel,60,,,,,,,,,,,,,,,,,,,,,,,,,,1,7.3479,,0,1,46,196,61,1,stimuli/stim_20210519_power2amp/equal_lnn_AM2.5Hz_s25_11.m4a,,,
,,,,,41229,2021-06-14_10h41.13.749,judgeSpeechMusic_20210519_logNormShiftAmp_mXs,2020.1.2,MacIntel,60,,,,,,,,,,,,,,,,,,,,,,,,,,2,6.2432,,0,1,47,197,131,1,stimuli/stim_20210519_power2amp/equal_lnn_AM4Hz_s45_36.m4a,,,
,,,,,41229,2021-06-14_10h41.13.749,judgeSpeechMusic_20210519_logNormShiftAmp_mXs,2020.1.2,MacIntel,60,,,,,,,,,,,,,,,,,,,,,,,,,,2,6.7407,,0,1,48,198,70,1,stimuli/stim_20210519_power2amp/equal_lnn_AM2.5Hz_s35_7.m4a,,,
,,,,,41229,2021-06-14_10h41.13.749,judgeSpeechMusic_20210519_logNormShiftAmp_mXs,2020.1.2,MacIntel,60,,,,,,,,,,,,,,,,,,,,,,,,,,1,7.8807,,0,1,49,199,87,1,stimuli/stim_20210519_power2amp/equal_lnn_AM2.5Hz_s45_27.m4a,,,
,,,,,41229,2021-06-14_10h41.13.749,judgeSpeechMusic_20210519_logNormShiftAmp_mXs,2020.1.2,MacIntel,60,,,,,,,,,,,,,,,,,,,,,,,,,,1,5.8976,,0,1,50,200,74,1,stimuli/stim_20210519_power2amp/equal_lnn_AM2.5Hz_s35_25.m4a,,,
,,,,,41229,2021-06-14_10h41.13.749,judgeSpeechMusic_20210519_logNormShiftAmp_mXs,2020.1.2,MacIntel,60,,,,,,,,,,,,,,,,,,,,,,,,,,1,7.945,,0,1,51,201,67,1,stimuli/stim_20210519_power2amp/equal_lnn_AM2.5Hz_s25_14.m4a,,,
,,,,,41229,2021-06-14_10h41.13.749,judgeSpeechMusic_20210519_logNormShiftAmp_mXs,2020.1.2,MacIntel,60,,,,,,,,,,,,,,,,,,,,,,,,,,1,6.0997,,0,1,52,202,38,1,stimuli/stim_20210519_power2amp/equal_lnn_AM1Hz_s45_18.m4a,,,
,,,,,41229,2021-06-14_10h41.13.749,judgeSpeechMusic_20210519_logNormShiftAmp_mXs,2020.1.2,MacIntel,60,,,,,,,,,,,,,,,,,,,,,,,,,,1,6.6771,,0,1,53,203,4,1,stimuli/stim_20210519_power2amp/equal_lnn_AM1Hz_s15_45.m4a,,,
,,,,,41229,2021-06-14_10h41.13.749,judgeSpeechMusic_20210519_logNormShiftAmp_mXs,2020.1.2,MacIntel,60,,,,,,,,,,,,,,,,,,,,,,,,,,1,7.1813,3,1,1,54,204,47,1,stimuli/stim_20210519_power2amp/equal_lnn_AM1Hz_s55_41.m4a,0.9968,,
,,,,,41229,2021-06-14_10h41.13.749,judgeSpeechMusic_20210519_logNormShiftAmp_mXs,2020.1.2,MacIntel,60,,,,,,,,,,,,,,,,,,,,,,,,,,1,5.8965,,0,1,55,205,24,1,stimuli/stim_20210519_power2amp/equal_lnn_AM1Hz_s35_20.m4a,,,
,,,,,41229,2021-06-14_10h41.13.749,judgeSpeechMusic_20210519_logNormShiftAmp_mXs,2020.1.2,MacIntel,60,,,,,,,,,,,,,,,,,,,,,,,,,,2,5.9777,,0,1,56,206,63,1,stimuli/stim_20210519_power2amp/equal_lnn_AM2.5Hz_s25_21.m4a,,,
,,,,,41229,2021-06-14_10h41.13.749,judgeSpeechMusic_20210519_logNormShiftAmp_mXs,2020.1.2,MacIntel,60,,,,,,,,,,,,,,,,,,,,,,,,,,2,6.0942,,0,1,57,207,116,1,stimuli/stim_20210519_power2amp/equal_lnn_AM4Hz_s25_6.m4a,,,
,,,,,41229,2021-06-14_10h41.13.749,judgeSpeechMusic_20210519_logNormShiftAmp_mXs,2020.1.2,MacIntel,60,,,,,,,,,,,,,,,,,,,,,,,,,,2,7.158,,0,1,58,208,56,1,stimuli/stim_20210519_power2amp/equal_lnn_AM2.5Hz_s15_43.m4a,,,
,,,,,41229,2021-06-14_10h41.13.749,judgeSpeechMusic_20210519_logNormShiftAmp_mXs,2020.1.2,MacIntel,60,,,,,,,,,,,,,,,,,,,,,,,,,,2,6.4128,,0,1,59,209,113,1,stimuli/stim_20210519_power2amp/equal_lnn_AM4Hz_s25_2.m4a,,,
,,,,,41229,2021-06-14_10h41.13.749,judgeSpeechMusic_20210519_logNormShiftAmp_mXs,2020.1.2,MacIntel,60,,,,,,,,,,,,,,,,,,,,,,,,,,1,6.0919,,0,1,60,210,16,1,stimuli/stim_20210519_power2amp/equal_lnn_AM1Hz_s25_24.m4a,,,
,,,,,41229,2021-06-14_10h41.13.749,judgeSpeechMusic_20210519_logNormShiftAmp_mXs,2020.1.2,MacIntel,60,,,,,,,,,,,,,,,,,,,,,,,,,,1,6.5277,,0,1,61,211,31,1,stimuli/stim_20210519_power2amp/equal_lnn_AM1Hz_s45_27.m4a,,,
,,,,,41229,2021-06-14_10h41.13.749,judgeSpeechMusic_20210519_logNormShiftAmp_mXs,2020.1.2,MacIntel,60,,,,,,,,,,,,,,,,,,,,,,,,,,1,6.377,,0,1,62,212,2,1,stimuli/stim_20210519_power2amp/equal_lnn_AM1Hz_s15_48.m4a,,,
,,,,,41229,2021-06-14_10h41.13.749,judgeSpeechMusic_20210519_logNormShiftAmp_mXs,2020.1.2,MacIntel,60,,,,,,,,,,,,,,,,,,,,,,,,,,1,6.8112,,0,1,63,213,22,1,stimuli/stim_20210519_power2amp/equal_lnn_AM1Hz_s35_24.m4a,,,
,,,,,41229,2021-06-14_10h41.13.749,judgeSpeechMusic_20210519_logNormShiftAmp_mXs,2020.1.2,MacIntel,60,,,,,,,,,,,,,,,,,,,,,,,,,,2,6.0086,,0,1,64,214,64,1,stimuli/stim_20210519_power2amp/equal_lnn_AM2.5Hz_s25_30.m4a,,,
,,,,,41229,2021-06-14_10h41.13.749,judgeSpeechMusic_20210519_logNormShiftAmp_mXs,2020.1.2,MacIntel,60,,,,,,,,,,,,,,,,,,,,,,,,,,1,6.4787,,0,1,65,215,32,1,stimuli/stim_20210519_power2amp/equal_lnn_AM1Hz_s45_7.m4a,,,
,,,,,41229,2021-06-14_10h41.13.749,judgeSpeechMusic_20210519_logNormShiftAmp_mXs,2020.1.2,MacIntel,60,,,,,,,,,,,,,,,,,,,,,,,,,,2,6.8602,,0,1,66,216,89,1,stimuli/stim_20210519_power2amp/equal_lnn_AM2.5Hz_s45_11.m4a,,,
,,,,,41229,2021-06-14_10h41.13.749,judgeSpeechMusic_20210519_logNormShiftAmp_mXs,2020.1.2,MacIntel,60,,,,,,,,,,,,,,,,,,,,,,,,,,2,6.5434,,0,1,67,217,68,1,stimuli/stim_20210519_power2amp/equal_lnn_AM2.5Hz_s25_28.m4a,,,
,,,,,41229,2021-06-14_10h41.13.749,judgeSpeechMusic_20210519_logNormShiftAmp_mXs,2020.1.2,MacIntel,60,,,,,,,,,,,,,,,,,,,,,,,,,,2,5.96,,0,1,68,218,143,1,stimuli/stim_20210519_power2amp/equal_lnn_AM4Hz_s55_3.m4a,,,
,,,,,41229,2021-06-14_10h41.13.749,judgeSpeechMusic_20210519_logNormShiftAmp_mXs,2020.1.2,MacIntel,60,,,,,,,,,,,,,,,,,,,,,,,,,,1,6.8773,,0,1,69,219,111,1,stimuli/stim_20210519_power2amp/equal_lnn_AM4Hz_s25_23.m4a,,,
,,,,,41229,2021-06-14_10h41.13.749,judgeSpeechMusic_20210519_logNormShiftAmp_mXs,2020.1.2,MacIntel,60,,,,,,,,,,,,,,,,,,,,,,,,,,1,6.5771,,0,1,70,220,25,1,stimuli/stim_20210519_power2amp/equal_lnn_AM1Hz_s35_12.m4a,,,
,,,,,41229,2021-06-14_10h41.13.749,judgeSpeechMusic_20210519_logNormShiftAmp_mXs,2020.1.2,MacIntel,60,,,,,,,,,,,,,,,,,,,,,,,,,,2,6.445,,0,1,71,221,90,1,stimuli/stim_20210519_power2amp/equal_lnn_AM2.5Hz_s55_33.m4a,,,
,,,,,41229,2021-06-14_10h41.13.749,judgeSpeechMusic_20210519_logNormShiftAmp_mXs,2020.1.2,MacIntel,60,,,,,,,,,,,,,,,,,,,,,,,,,,2,6.2972,,0,1,72,222,109,1,stimuli/stim_20210519_power2amp/equal_lnn_AM4Hz_s15_26.m4a,,,
,,,,,41229,2021-06-14_10h41.13.749,judgeSpeechMusic_20210519_logNormShiftAmp_mXs,2020.1.2,MacIntel,60,,,,,,,,,,,,,,,,,,,,,,,,,,1,5.9454,,0,1,73,223,37,1,stimuli/stim_20210519_power2amp/equal_lnn_AM1Hz_s45_26.m4a,,,
,,,,,41229,2021-06-14_10h41.13.749,judgeSpeechMusic_20210519_logNormShiftAmp_mXs,2020.1.2,MacIntel,60,,,,,,,,,,,,,,,,,,,,,,,,,,2,9.4077,,0,1,74,224,95,1,stimuli/stim_20210519_power2amp/equal_lnn_AM2.5Hz_s55_22.m4a,,,
,,,,,41229,2021-06-14_10h41.13.749,judgeSpeechMusic_20210519_logNormShiftAmp_mXs,2020.1.2,MacIntel,60,,,,,,,,,,,,,,,,,,,,,,,,,,1,9.8293,,0,1,75,225,17,1,stimuli/stim_20210519_power2amp/equal_lnn_AM1Hz_s25_9.m4a,,,
,,,,,41229,2021-06-14_10h41.13.749,judgeSpeechMusic_20210519_logNormShiftAmp_mXs,2020.1.2,MacIntel,60,,,,,,,,,,,,,,,,,,,,,,,,,,2,9.6312,1,1,1,76,226,133,1,stimuli/stim_20210519_power2amp/equal_lnn_AM4Hz_s45_24.m4a,1.5259,,
,,,,,41229,2021-06-14_10h41.13.749,judgeSpeechMusic_20210519_logNormShiftAmp_mXs,2020.1.2,MacIntel,60,,,,,,,,,,,,,,,,,,,,,,,,,,1,29.7086,,0,1,77,227,3,1,stimuli/stim_20210519_power2amp/equal_lnn_AM1Hz_s15_5.m4a,,,
,,,,,41229,2021-06-14_10h41.13.749,judgeSpeechMusic_20210519_logNormShiftAmp_mXs,2020.1.2,MacIntel,60,,,,,,,,,,,,,,,,,,,,,,,,,,2,9.2409,,0,1,78,228,112,1,stimuli/stim_20210519_power2amp/equal_lnn_AM4Hz_s25_5.m4a,,,
,,,,,41229,2021-06-14_10h41.13.749,judgeSpeechMusic_20210519_logNormShiftAmp_mXs,2020.1.2,MacIntel,60,,,,,,,,,,,,,,,,,,,,,,,,,,2,6.1466,,0,1,79,229,128,1,stimuli/stim_20210519_power2amp/equal_lnn_AM4Hz_s35_18.m4a,,,
,,,,,41229,2021-06-14_10h41.13.749,judgeSpeechMusic_20210519_logNormShiftAmp_mXs,2020.1.2,MacIntel,60,,,,,,,,,,,,,,,,,,,,,,,,,,2,5.661,,0,1,80,230,100,1,stimuli/stim_20210519_power2amp/equal_lnn_AM4Hz_s15_21.m4a,,,
,,,,,41229,2021-06-14_10h41.13.749,judgeSpeechMusic_20210519_logNormShiftAmp_mXs,2020.1.2,MacIntel,60,,,,,,,,,,,,,,,,,,,,,,,,,,2,5.8259,,0,1,81,231,55,1,stimuli/stim_20210519_power2amp/equal_lnn_AM2.5Hz_s15_45.m4a,,,
,,,,,41229,2021-06-14_10h41.13.749,judgeSpeechMusic_20210519_logNormShiftAmp_mXs,2020.1.2,MacIntel,60,,,,,,,,,,,,,,,,,,,,,,,,,,1,6.0434,,0,1,82,232,41,1,stimuli/stim_20210519_power2amp/equal_lnn_AM1Hz_s55_40.m4a,,,
,,,,,41229,2021-06-14_10h41.13.749,judgeSpeechMusic_20210519_logNormShiftAmp_mXs,2020.1.2,MacIntel,60,,,,,,,,,,,,,,,,,,,,,,,,,,2,10.6912,,0,1,83,233,120,1,stimuli/stim_20210519_power2amp/equal_lnn_AM4Hz_s35_26.m4a,,,
,,,,,41229,2021-06-14_10h41.13.749,judgeSpeechMusic_20210519_logNormShiftAmp_mXs,2020.1.2,MacIntel,60,,,,,,,,,,,,,,,,,,,,,,,,,,1,6.2804,,0,1,84,234,48,1,stimuli/stim_20210519_power2amp/equal_lnn_AM1Hz_s55_16.m4a,,,
,,,,,41229,2021-06-14_10h41.13.749,judgeSpeechMusic_20210519_logNormShiftAmp_mXs,2020.1.2,MacIntel,60,,,,,,,,,,,,,,,,,,,,,,,,,,1,6.4262,,0,1,85,235,138,1,stimuli/stim_20210519_power2amp/equal_lnn_AM4Hz_s45_43.m4a,,,
,,,,,41229,2021-06-14_10h41.13.749,judgeSpeechMusic_20210519_logNormShiftAmp_mXs,2020.1.2,MacIntel,60,,,,,,,,,,,,,,,,,,,,,,,,,,1,5.8739,,0,1,86,236,93,1,stimuli/stim_20210519_power2amp/equal_lnn_AM2.5Hz_s55_21.m4a,,,
,,,,,41229,2021-06-14_10h41.13.749,judgeSpeechMusic_20210519_logNormShiftAmp_mXs,2020.1.2,MacIntel,60,,,,,,,,,,,,,,,,,,,,,,,,,,2,6.6125,,0,1,87,237,104,1,stimuli/stim_20210519_power2amp/equal_lnn_AM4Hz_s15_1.m4a,,,
,,,,,41229,2021-06-14_10h41.13.749,judgeSpeechMusic_20210519_logNormShiftAmp_mXs,2020.1.2,MacIntel,60,,,,,,,,,,,,,,,,,,,,,,,,,,2,6.0264,,0,1,88,238,129,1,stimuli/stim_20210519_power2amp/equal_lnn_AM4Hz_s35_22.m4a,,,
,,,,,41229,2021-06-14_10h41.13.749,judgeSpeechMusic_20210519_logNormShiftAmp_mXs,2020.1.2,MacIntel,60,,,,,,,,,,,,,,,,,,,,,,,,,,1,6.2825,,0,1,89,239,43,1,stimuli/stim_20210519_power2amp/equal_lnn_AM1Hz_s55_20.m4a,,,
,,,,,41229,2021-06-14_10h41.13.749,judgeSpeechMusic_20210519_logNormShiftAmp_mXs,2020.1.2,MacIntel,60,,,,,,,,,,,,,,,,,,,,,,,,,,2,5.7595,,0,1,90,240,117,1,stimuli/stim_20210519_power2amp/equal_lnn_AM4Hz_s25_19.m4a,,,
,,,,,41229,2021-06-14_10h41.13.749,judgeSpeechMusic_20210519_logNormShiftAmp_mXs,2020.1.2,MacIntel,60,,,,,,,,,,,,,,,,,,,,,,,,,,1,6.0963,,0,1,91,241,51,1,stimuli/stim_20210519_power2amp/equal_lnn_AM2.5Hz_s15_9.m4a,,,
,,,,,41229,2021-06-14_10h41.13.749,judgeSpeechMusic_20210519_logNormShiftAmp_mXs,2020.1.2,MacIntel,60,,,,,,,,,,,,,,,,,,,,,,,,,,1,6.0801,,0,1,92,242,21,1,stimuli/stim_20210519_power2amp/equal_lnn_AM1Hz_s35_27.m4a,,,
,,,,,41229,2021-06-14_10h41.13.749,judgeSpeechMusic_20210519_logNormShiftAmp_mXs,2020.1.2,MacIntel,60,,,,,,,,,,,,,,,,,,,,,,,,,,2,5.8413,,0,1,93,243,96,1,stimuli/stim_20210519_power2amp/equal_lnn_AM2.5Hz_s55_38.m4a,,,
,,,,,41229,2021-06-14_10h41.13.749,judgeSpeechMusic_20210519_logNormShiftAmp_mXs,2020.1.2,MacIntel,60,,,,,,,,,,,,,,,,,,,,,,,,,,1,5.7428,,0,1,94,244,40,1,stimuli/stim_20210519_power2amp/equal_lnn_AM1Hz_s55_7.m4a,,,
,,,,,41229,2021-06-14_10h41.13.749,judgeSpeechMusic_20210519_logNormShiftAmp_mXs,2020.1.2,MacIntel,60,,,,,,,,,,,,,,,,,,,,,,,,,,1,6.2634,,0,1,95,245,6,1,stimuli/stim_20210519_power2amp/equal_lnn_AM1Hz_s15_4.m4a,,,
,,,,,41229,2021-06-14_10h41.13.749,judgeSpeechMusic_20210519_logNormShiftAmp_mXs,2020.1.2,MacIntel,60,,,,,,,,,,,,,,,,,,,,,,,,,,2,5.7643,,0,1,96,246,105,1,stimuli/stim_20210519_power2amp/equal_lnn_AM4Hz_s15_36.m4a,,,
,,,,,41229,2021-06-14_10h41.13.749,judgeSpeechMusic_20210519_logNormShiftAmp_mXs,2020.1.2,MacIntel,60,,,,,,,,,,,,,,,,,,,,,,,,,,2,6.0725,,0,1,97,247,127,1,stimuli/stim_20210519_power2amp/equal_lnn_AM4Hz_s35_12.m4a,,,
,,,,,41229,2021-06-14_10h41.13.749,judgeSpeechMusic_20210519_logNormShiftAmp_mXs,2020.1.2,MacIntel,60,,,,,,,,,,,,,,,,,,,,,,,,,,1,5.9246,3,1,1,98,248,99,1,stimuli/stim_20210519_power2amp/equal_lnn_AM2.5Hz_s55_17.m4a,1.1508,,
,,,,,41229,2021-06-14_10h41.13.749,judgeSpeechMusic_20210519_logNormShiftAmp_mXs,2020.1.2,MacIntel,60,,,,,,,,,,,,,,,,,,,,,,,,,,1,5.997,,0,1,99,249,26,1,stimuli/stim_20210519_power2amp/equal_lnn_AM1Hz_s35_34.m4a,,,
,,,,,41229,2021-06-14_10h41.13.749,judgeSpeechMusic_20210519_logNormShiftAmp_mXs,2020.1.2,MacIntel,60,,,,,,,,,,,,,,,,,,,,,,,,,,1,5.7892,,0,1,100,250,80,1,stimuli/stim_20210519_power2amp/equal_lnn_AM2.5Hz_s45_9.m4a,,,
,,,,,41229,2021-06-14_10h41.13.749,judgeSpeechMusic_20210519_logNormShiftAmp_mXs,2020.1.2,MacIntel,60,,,,,,,,,,,,,,,,,,,,,,,,,,1,7.1458,,0,1,101,251,136,1,stimuli/stim_20210519_power2amp/equal_lnn_AM4Hz_s45_20.m4a,,,
,,,,,41229,2021-06-14_10h41.13.749,judgeSpeechMusic_20210519_logNormShiftAmp_mXs,2020.1.2,MacIntel,60,,,,,,,,,,,,,,,,,,,,,,,,,,1,7.8157,,0,1,102,252,54,1,stimuli/stim_20210519_power2amp/equal_lnn_AM2.5Hz_s15_36.m4a,,,
,,,,,41229,2021-06-14_10h41.13.749,judgeSpeechMusic_20210519_logNormShiftAmp_mXs,2020.1.2,MacIntel,60,,,,,,,,,,,,,,,,,,,,,,,,,,1,5.8404,,0,1,103,253,10,1,stimuli/stim_20210519_power2amp/equal_lnn_AM1Hz_s25_49.m4a,,,
,,,,,41229,2021-06-14_10h41.13.749,judgeSpeechMusic_20210519_logNormShiftAmp_mXs,2020.1.2,MacIntel,60,,,,,,,,,,,,,,,,,,,,,,,,,,1,5.8285,,0,1,104,254,0,1,stimuli/stim_20210519_power2amp/equal_lnn_AM1Hz_s15_20.m4a,,,
,,,,,41229,2021-06-14_10h41.13.749,judgeSpeechMusic_20210519_logNormShiftAmp_mXs,2020.1.2,MacIntel,60,,,,,,,,,,,,,,,,,,,,,,,,,,1,5.6805,,0,1,105,255,5,1,stimuli/stim_20210519_power2amp/equal_lnn_AM1Hz_s15_39.m4a,,,
,,,,,41229,2021-06-14_10h41.13.749,judgeSpeechMusic_20210519_logNormShiftAmp_mXs,2020.1.2,MacIntel,60,,,,,,,,,,,,,,,,,,,,,,,,,,2,7.1626,,0,1,106,256,20,1,stimuli/stim_20210519_power2amp/equal_lnn_AM1Hz_s35_5.m4a,,,
,,,,,41229,2021-06-14_10h41.13.749,judgeSpeechMusic_20210519_logNormShiftAmp_mXs,2020.1.2,MacIntel,60,,,,,,,,,,,,,,,,,,,,,,,,,,1,6.0395,,0,1,107,257,14,1,stimuli/stim_20210519_power2amp/equal_lnn_AM1Hz_s25_15.m4a,,,
,,,,,41229,2021-06-14_10h41.13.749,judgeSpeechMusic_20210519_logNormShiftAmp_mXs,2020.1.2,MacIntel,60,,,,,,,,,,,,,,,,,,,,,,,,,,1,8.3639,,0,1,108,258,29,1,stimuli/stim_20210519_power2amp/equal_lnn_AM1Hz_s35_7.m4a,,,
,,,,,41229,2021-06-14_10h41.13.749,judgeSpeechMusic_20210519_logNormShiftAmp_mXs,2020.1.2,MacIntel,60,,,,,,,,,,,,,,,,,,,,,,,,,,2,6.0073,,0,1,109,259,139,1,stimuli/stim_20210519_power2amp/equal_lnn_AM4Hz_s45_47.m4a,,,
,,,,,41229,2021-06-14_10h41.13.749,judgeSpeechMusic_20210519_logNormShiftAmp_mXs,2020.1.2,MacIntel,60,,,,,,,,,,,,,,,,,,,,,,,,,,1,5.6969,,0,1,110,260,9,1,stimuli/stim_20210519_power2amp/equal_lnn_AM1Hz_s15_16.m4a,,,
,,,,,41229,2021-06-14_10h41.13.749,judgeSpeechMusic_20210519_logNormShiftAmp_mXs,2020.1.2,MacIntel,60,,,,,,,,,,,,,,,,,,,,,,,,,,1,5.691,,0,1,111,261,8,1,stimuli/stim_20210519_power2amp/equal_lnn_AM1Hz_s15_18.m4a,,,
,,,,,41229,2021-06-14_10h41.13.749,judgeSpeechMusic_20210519_logNormShiftAmp_mXs,2020.1.2,MacIntel,60,,,,,,,,,,,,,,,,,,,,,,,,,,2,5.8573,,0,1,112,262,107,1,stimuli/stim_20210519_power2amp/equal_lnn_AM4Hz_s15_41.m4a,,,
,,,,,41229,2021-06-14_10h41.13.749,judgeSpeechMusic_20210519_logNormShiftAmp_mXs,2020.1.2,MacIntel,60,,,,,,,,,,,,,,,,,,,,,,,,,,1,6.2063,,0,1,113,263,35,1,stimuli/stim_20210519_power2amp/equal_lnn_AM1Hz_s45_40.m4a,,,
,,,,,41229,2021-06-14_10h41.13.749,judgeSpeechMusic_20210519_logNormShiftAmp_mXs,2020.1.2,MacIntel,60,,,,,,,,,,,,,,,,,,,,,,,,,,2,5.8783,,0,1,114,264,123,1,stimuli/stim_20210519_power2amp/equal_lnn_AM4Hz_s35_14.m4a,,,
,,,,,41229,2021-06-14_10h41.13.749,judgeSpeechMusic_20210519_logNormShiftAmp_mXs,2020.1.2,MacIntel,60,,,,,,,,,,,,,,,,,,,,,,,,,,2,5.8415,,0,1,115,265,145,1,stimuli/stim_20210519_power2amp/equal_lnn_AM4Hz_s55_20.m4a,,,
,,,,,41229,2021-06-14_10h41.13.749,judgeSpeechMusic_20210519_logNormShiftAmp_mXs,2020.1.2,MacIntel,60,,,,,,,,,,,,,,,,,,,,,,,,,,2,5.6305,,0,1,116,266,121,1,stimuli/stim_20210519_power2amp/equal_lnn_AM4Hz_s35_7.m4a,,,
,,,,,41229,2021-06-14_10h41.13.749,judgeSpeechMusic_20210519_logNormShiftAmp_mXs,2020.1.2,MacIntel,60,,,,,,,,,,,,,,,,,,,,,,,,,,1,5.7093,,0,1,117,267,78,1,stimuli/stim_20210519_power2amp/equal_lnn_AM2.5Hz_s35_2.m4a,,,
,,,,,41229,2021-06-14_10h41.13.749,judgeSpeechMusic_20210519_logNormShiftAmp_mXs,2020.1.2,MacIntel,60,,,,,,,,,,,,,,,,,,,,,,,,,,1,5.9466,,0,1,118,268,28,1,stimuli/stim_20210519_power2amp/equal_lnn_AM1Hz_s35_11.m4a,,,
,,,,,41229,2021-06-14_10h41.13.749,judgeSpeechMusic_20210519_logNormShiftAmp_mXs,2020.1.2,MacIntel,60,,,,,,,,,,,,,,,,,,,,,,,,,,1,6.9784,,0,1,119,269,75,1,stimuli/stim_20210519_power2amp/equal_lnn_AM2.5Hz_s35_31.m4a,,,
,,,,,41229,2021-06-14_10h41.13.749,judgeSpeechMusic_20210519_logNormShiftAmp_mXs,2020.1.2,MacIntel,60,,,,,,,,,,,,,,,,,,,,,,,,,,2,5.771,,0,1,120,270,125,1,stimuli/stim_20210519_power2amp/equal_lnn_AM4Hz_s35_19.m4a,,,
,,,,,41229,2021-06-14_10h41.13.749,judgeSpeechMusic_20210519_logNormShiftAmp_mXs,2020.1.2,MacIntel,60,,,,,,,,,,,,,,,,,,,,,,,,,,2,7.9645,2,1,1,121,271,81,1,stimuli/stim_20210519_power2amp/equal_lnn_AM2.5Hz_s45_39.m4a,0.8248,,
,,,,,41229,2021-06-14_10h41.13.749,judgeSpeechMusic_20210519_logNormShiftAmp_mXs,2020.1.2,MacIntel,60,,,,,,,,,,,,,,,,,,,,,,,,,,2,7.1442,,0,1,122,272,135,1,stimuli/stim_20210519_power2amp/equal_lnn_AM4Hz_s45_11.m4a,,,
,,,,,41229,2021-06-14_10h41.13.749,judgeSpeechMusic_20210519_logNormShiftAmp_mXs,2020.1.2,MacIntel,60,,,,,,,,,,,,,,,,,,,,,,,,,,1,5.8814,,0,1,123,273,15,1,stimuli/stim_20210519_power2amp/equal_lnn_AM1Hz_s25_31.m4a,,,
,,,,,41229,2021-06-14_10h41.13.749,judgeSpeechMusic_20210519_logNormShiftAmp_mXs,2020.1.2,MacIntel,60,,,,,,,,,,,,,,,,,,,,,,,,,,2,5.6723,,0,1,124,274,132,1,stimuli/stim_20210519_power2amp/equal_lnn_AM4Hz_s45_49.m4a,,,
,,,,,41229,2021-06-14_10h41.13.749,judgeSpeechMusic_20210519_logNormShiftAmp_mXs,2020.1.2,MacIntel,60,,,,,,,,,,,,,,,,,,,,,,,,,,1,6.4744,,0,1,125,275,79,1,stimuli/stim_20210519_power2amp/equal_lnn_AM2.5Hz_s35_48.m4a,,,
,,,,,41229,2021-06-14_10h41.13.749,judgeSpeechMusic_20210519_logNormShiftAmp_mXs,2020.1.2,MacIntel,60,,,,,,,,,,,,,,,,,,,,,,,,,,2,5.9146,,0,1,126,276,71,1,stimuli/stim_20210519_power2amp/equal_lnn_AM2.5Hz_s35_28.m4a,,,
,,,,,41229,2021-06-14_10h41.13.749,judgeSpeechMusic_20210519_logNormShiftAmp_mXs,2020.1.2,MacIntel,60,,,,,,,,,,,,,,,,,,,,,,,,,,1,6.4394,,0,1,127,277,148,1,stimuli/stim_20210519_power2amp/equal_lnn_AM4Hz_s55_50.m4a,,,
,,,,,41229,2021-06-14_10h41.13.749,judgeSpeechMusic_20210519_logNormShiftAmp_mXs,2020.1.2,MacIntel,60,,,,,,,,,,,,,,,,,,,,,,,,,,1,5.7768,,0,1,128,278,134,1,stimuli/stim_20210519_power2amp/equal_lnn_AM4Hz_s45_17.m4a,,,
,,,,,41229,2021-06-14_10h41.13.749,judgeSpeechMusic_20210519_logNormShiftAmp_mXs,2020.1.2,MacIntel,60,,,,,,,,,,,,,,,,,,,,,,,,,,1,5.6768,,0,1,129,279,42,1,stimuli/stim_20210519_power2amp/equal_lnn_AM1Hz_s55_42.m4a,,,
,,,,,41229,2021-06-14_10h41.13.749,judgeSpeechMusic_20210519_logNormShiftAmp_mXs,2020.1.2,MacIntel,60,,,,,,,,,,,,,,,,,,,,,,,,,,1,6.6624,,0,1,130,280,36,1,stimuli/stim_20210519_power2amp/equal_lnn_AM1Hz_s45_30.m4a,,,
,,,,,41229,2021-06-14_10h41.13.749,judgeSpeechMusic_20210519_logNormShiftAmp_mXs,2020.1.2,MacIntel,60,,,,,,,,,,,,,,,,,,,,,,,,,,1,5.8032,,0,1,131,281,46,1,stimuli/stim_20210519_power2amp/equal_lnn_AM1Hz_s55_24.m4a,,,
,,,,,41229,2021-06-14_10h41.13.749,judgeSpeechMusic_20210519_logNormShiftAmp_mXs,2020.1.2,MacIntel,60,,,,,,,,,,,,,,,,,,,,,,,,,,1,5.8161,,0,1,132,282,62,1,stimuli/stim_20210519_power2amp/equal_lnn_AM2.5Hz_s25_49.m4a,,,
,,,,,41229,2021-06-14_10h41.13.749,judgeSpeechMusic_20210519_logNormShiftAmp_mXs,2020.1.2,MacIntel,60,,,,,,,,,,,,,,,,,,,,,,,,,,2,5.6582,,0,1,133,283,140,1,stimuli/stim_20210519_power2amp/equal_lnn_AM4Hz_s55_44.m4a,,,
,,,,,41229,2021-06-14_10h41.13.749,judgeSpeechMusic_20210519_logNormShiftAmp_mXs,2020.1.2,MacIntel,60,,,,,,,,,,,,,,,,,,,,,,,,,,2,6.0607,,0,1,134,284,98,1,stimuli/stim_20210519_power2amp/equal_lnn_AM2.5Hz_s55_43.m4a,,,
,,,,,41229,2021-06-14_10h41.13.749,judgeSpeechMusic_20210519_logNormShiftAmp_mXs,2020.1.2,MacIntel,60,,,,,,,,,,,,,,,,,,,,,,,,,,1,6.0201,,0,1,135,285,39,1,stimuli/stim_20210519_power2amp/equal_lnn_AM1Hz_s45_10.m4a,,,
,,,,,41229,2021-06-14_10h41.13.749,judgeSpeechMusic_20210519_logNormShiftAmp_mXs,2020.1.2,MacIntel,60,,,,,,,,,,,,,,,,,,,,,,,,,,2,6.0791,,0,1,136,286,103,1,stimuli/stim_20210519_power2amp/equal_lnn_AM4Hz_s15_5.m4a,,,
,,,,,41229,2021-06-14_10h41.13.749,judgeSpeechMusic_20210519_logNormShiftAmp_mXs,2020.1.2,MacIntel,60,,,,,,,,,,,,,,,,,,,,,,,,,,2,5.8414,,0,1,137,287,126,1,stimuli/stim_20210519_power2amp/equal_lnn_AM4Hz_s35_44.m4a,,,
,,,,,41229,2021-06-14_10h41.13.749,judgeSpeechMusic_20210519_logNormShiftAmp_mXs,2020.1.2,MacIntel,60,,,,,,,,,,,,,,,,,,,,,,,,,,2,6.1132,,0,1,138,288,65,1,stimuli/stim_20210519_power2amp/equal_lnn_AM2.5Hz_s25_42.m4a,,,
,,,,,41229,2021-06-14_10h41.13.749,judgeSpeechMusic_20210519_logNormShiftAmp_mXs,2020.1.2,MacIntel,60,,,,,,,,,,,,,,,,,,,,,,,,,,1,6.3498,,0,1,139,289,33,1,stimuli/stim_20210519_power2amp/equal_lnn_AM1Hz_s45_38.m4a,,,
,,,,,41229,2021-06-14_10h41.13.749,judgeSpeechMusic_20210519_logNormShiftAmp_mXs,2020.1.2,MacIntel,60,,,,,,,,,,,,,,,,,,,,,,,,,,2,5.615,,0,1,140,290,86,1,stimuli/stim_20210519_power2amp/equal_lnn_AM2.5Hz_s45_30.m4a,,,
,,,,,41229,2021-06-14_10h41.13.749,judgeSpeechMusic_20210519_logNormShiftAmp_mXs,2020.1.2,MacIntel,60,,,,,,,,,,,,,,,,,,,,,,,,,,1,5.9631,,0,1,141,291,57,1,stimuli/stim_20210519_power2amp/equal_lnn_AM2.5Hz_s15_6.m4a,,,
,,,,,41229,2021-06-14_10h41.13.749,judgeSpeechMusic_20210519_logNormShiftAmp_mXs,2020.1.2,MacIntel,60,,,,,,,,,,,,,,,,,,,,,,,,,,1,6.7777,,0,1,142,292,77,1,stimuli/stim_20210519_power2amp/equal_lnn_AM2.5Hz_s35_37.m4a,,,
,,,,,41229,2021-06-14_10h41.13.749,judgeSpeechMusic_20210519_logNormShiftAmp_mXs,2020.1.2,MacIntel,60,,,,,,,,,,,,,,,,,,,,,,,,,,1,8.0194,,0,1,143,293,59,1,stimuli/stim_20210519_power2amp/equal_lnn_AM2.5Hz_s15_14.m4a,,,
,,,,,41229,2021-06-14_10h41.13.749,judgeSpeechMusic_20210519_logNormShiftAmp_mXs,2020.1.2,MacIntel,60,,,,,,,,,,,,,,,,,,,,,,,,,,1,5.7696,,0,1,144,294,85,1,stimuli/stim_20210519_power2amp/equal_lnn_AM2.5Hz_s45_36.m4a,,,
,,,,,41229,2021-06-14_10h41.13.749,judgeSpeechMusic_20210519_logNormShiftAmp_mXs,2020.1.2,MacIntel,60,,,,,,,,,,,,,,,,,,,,,,,,,,1,6.0963,,0,1,145,295,7,1,stimuli/stim_20210519_power2amp/equal_lnn_AM1Hz_s15_35.m4a,,,
,,,,,41229,2021-06-14_10h41.13.749,judgeSpeechMusic_20210519_logNormShiftAmp_mXs,2020.1.2,MacIntel,60,,,,,,,,,,,,,,,,,,,,,,,,,,2,5.858,,0,1,146,296,106,1,stimuli/stim_20210519_power2amp/equal_lnn_AM4Hz_s15_27.m4a,,,
,,,,,41229,2021-06-14_10h41.13.749,judgeSpeechMusic_20210519_logNormShiftAmp_mXs,2020.1.2,MacIntel,60,,,,,,,,,,,,,,,,,,,,,,,,,,2,5.5919,,0,1,147,297,102,1,stimuli/stim_20210519_power2amp/equal_lnn_AM4Hz_s15_25.m4a,,,
,,,,,41229,2021-06-14_10h41.13.749,judgeSpeechMusic_20210519_logNormShiftAmp_mXs,2020.1.2,MacIntel,60,,,,,,,,,,,,,,,,,,,,,,,,,,1,5.9591,,0,1,148,298,72,1,stimuli/stim_20210519_power2amp/equal_lnn_AM2.5Hz_s35_5.m4a,,,
,,,,,41229,2021-06-14_10h41.13.749,judgeSpeechMusic_20210519_logNormShiftAmp_mXs,2020.1.2,MacIntel,60,,,,,,,,,,,,,,,,,,,,,,,,,,2,5.8081,,0,1,149,299,82,1,stimuli/stim_20210519_power2amp/equal_lnn_AM2.5Hz_s45_10.m4a,,,
,,,,,41229,2021-06-14_10h41.13.749,judgeSpeechMusic_20210519_logNormShiftAmp_mXs,2020.1.2,MacIntel,60,,,,,,,,,,,,,,,,,,,,,,,,,,,,,,,,,,,,,space,6.5824
