headphoneResponse.keys,headphoneResponse.corr,headphoneResponse.rt,headphoneTrial.thisRepN,headphoneTrial.thisTrialN,headphoneTrial.thisN,headphoneTrial.thisIndex,headphoneTrial.ran,headphone_sound1,headphone_sound2,headphone_sound3,corrAns,participant,date,expName,psychopyVersion,OS,frameRate,trainSlider.response,trainSlider.rt,beepTrainResponse.keys,beepTrainResponse.corr,trainingTrials.thisRepN,trainingTrials.thisTrialN,trainingTrials.thisN,trainingTrials.thisIndex,trainingTrials.ran,trainAudioFile,beepTrainResponse.rt,readyReal_resp.keys,readyReal_resp.rt,ratingSlider.response,ratingSlider.rt,beepResp.keys,beepResp.corr,expTrials.thisRepN,expTrials.thisTrialN,expTrials.thisN,expTrials.thisIndex,expTrials.ran,audioFile,beepResp.rt,end_resp.keys,end_resp.rt
2,0,3.714385,0,0,0,5,1,stimuli/screen_quiet.wav,stimuli/screen_origin.wav,stimuli/screen_antiphase.wav,1,41234,2021-05-31_20h14.44.085,judgeSpeechMusic_20210519_logNormShiftAmp_mXs,2020.1.2,MacIntel,60,,,,,,,,,,,,,,,,,,,,,,,,,,
3,1,1.31752,0,1,1,0,1,stimuli/screen_antiphase.wav,stimuli/screen_origin.wav,stimuli/screen_quiet.wav,3,41234,2021-05-31_20h14.44.085,judgeSpeechMusic_20210519_logNormShiftAmp_mXs,2020.1.2,MacIntel,60,,,,,,,,,,,,,,,,,,,,,,,,,,
3,1,1.054265,0,2,2,2,1,stimuli/screen_origin.wav,stimuli/screen_antiphase.wav,stimuli/screen_quiet.wav,3,41234,2021-05-31_20h14.44.085,judgeSpeechMusic_20210519_logNormShiftAmp_mXs,2020.1.2,MacIntel,60,,,,,,,,,,,,,,,,,,,,,,,,,,
2,1,1.086885,0,3,3,3,1,stimuli/screen_origin.wav,stimuli/screen_quiet.wav,stimuli/screen_antiphase.wav,2,41234,2021-05-31_20h14.44.085,judgeSpeechMusic_20210519_logNormShiftAmp_mXs,2020.1.2,MacIntel,60,,,,,,,,,,,,,,,,,,,,,,,,,,
1,1,1.61778,0,4,4,4,1,stimuli/screen_quiet.wav,stimuli/screen_antiphase.wav,stimuli/screen_origin.wav,1,41234,2021-05-31_20h14.44.085,judgeSpeechMusic_20210519_logNormShiftAmp_mXs,2020.1.2,MacIntel,60,,,,,,,,,,,,,,,,,,,,,,,,,,
2,1,0.38404,0,5,5,1,1,stimuli/screen_antiphase.wav,stimuli/screen_quiet.wav,stimuli/screen_origin.wav,2,41234,2021-05-31_20h14.44.085,judgeSpeechMusic_20210519_logNormShiftAmp_mXs,2020.1.2,MacIntel,60,,,,,,,,,,,,,,,,,,,,,,,,,,
,,,,,,,,,,,,41234,2021-05-31_20h14.44.085,judgeSpeechMusic_20210519_logNormShiftAmp_mXs,2020.1.2,MacIntel,60,2,14.025575,,0,0,0,0,2,1,stimuli/stim_20210519_power2amp/equal_lnn_AM_training3.5Hz_s20.m4a,,,,,,,,,,,,,,,,
,,,,,,,,,,,,41234,2021-05-31_20h14.44.085,judgeSpeechMusic_20210519_logNormShiftAmp_mXs,2020.1.2,MacIntel,60,2,7.175135,,0,0,1,1,0,1,stimuli/stim_20210519_power2amp/equal_lnn_AM_training1.5Hz_s20.m4a,,,,,,,,,,,,,,,,
,,,,,,,,,,,,41234,2021-05-31_20h14.44.085,judgeSpeechMusic_20210519_logNormShiftAmp_mXs,2020.1.2,MacIntel,60,2,7.17151,1,1,0,2,2,1,1,stimuli/stim_20210519_power2amp/equal_lnn_AM_training1.5Hz_s50.m4a,1.37536,,,,,,,,,,,,,,,
,,,,,,,,,,,,41234,2021-05-31_20h14.44.085,judgeSpeechMusic_20210519_logNormShiftAmp_mXs,2020.1.2,MacIntel,60,2,7.91118,,0,0,3,3,3,1,stimuli/stim_20210519_power2amp/equal_lnn_AM_training3.5Hz_s50.m4a,,,,,,,,,,,,,,,,
,,,,,,,,,,,,41234,2021-05-31_20h14.44.085,judgeSpeechMusic_20210519_logNormShiftAmp_mXs,2020.1.2,MacIntel,60,,,,,,,,,,,,space,3.79505,2,9.452965,,0,0,0,0,26,1,stimuli/stim_20210519_power2amp/equal_lnn_AM1Hz_s35_44.m4a,,,
,,,,,,,,,,,,41234,2021-05-31_20h14.44.085,judgeSpeechMusic_20210519_logNormShiftAmp_mXs,2020.1.2,MacIntel,60,,,,,,,,,,,,,,2,6.539145,,0,0,1,1,2,1,stimuli/stim_20210519_power2amp/equal_lnn_AM1Hz_s15_29.m4a,,,
,,,,,,,,,,,,41234,2021-05-31_20h14.44.085,judgeSpeechMusic_20210519_logNormShiftAmp_mXs,2020.1.2,MacIntel,60,,,,,,,,,,,,,,1,6.374285,,0,0,2,2,71,1,stimuli/stim_20210519_power2amp/equal_lnn_AM2.5Hz_s35_3.m4a,,,
,,,,,,,,,,,,41234,2021-05-31_20h14.44.085,judgeSpeechMusic_20210519_logNormShiftAmp_mXs,2020.1.2,MacIntel,60,,,,,,,,,,,,,,1,6.572665,,0,0,3,3,128,1,stimuli/stim_20210519_power2amp/equal_lnn_AM4Hz_s35_21.m4a,,,
,,,,,,,,,,,,41234,2021-05-31_20h14.44.085,judgeSpeechMusic_20210519_logNormShiftAmp_mXs,2020.1.2,MacIntel,60,,,,,,,,,,,,,,2,8.82567,,0,0,4,4,15,1,stimuli/stim_20210519_power2amp/equal_lnn_AM1Hz_s25_31.m4a,,,
,,,,,,,,,,,,41234,2021-05-31_20h14.44.085,judgeSpeechMusic_20210519_logNormShiftAmp_mXs,2020.1.2,MacIntel,60,,,,,,,,,,,,,,2,12.52495,,0,0,5,5,41,1,stimuli/stim_20210519_power2amp/equal_lnn_AM1Hz_s55_4.m4a,,,
,,,,,,,,,,,,41234,2021-05-31_20h14.44.085,judgeSpeechMusic_20210519_logNormShiftAmp_mXs,2020.1.2,MacIntel,60,,,,,,,,,,,,,,2,6.74277,,0,0,6,6,112,1,stimuli/stim_20210519_power2amp/equal_lnn_AM4Hz_s25_7.m4a,,,
,,,,,,,,,,,,41234,2021-05-31_20h14.44.085,judgeSpeechMusic_20210519_logNormShiftAmp_mXs,2020.1.2,MacIntel,60,,,,,,,,,,,,,,2,6.5762,,0,0,7,7,27,1,stimuli/stim_20210519_power2amp/equal_lnn_AM1Hz_s35_23.m4a,,,
,,,,,,,,,,,,41234,2021-05-31_20h14.44.085,judgeSpeechMusic_20210519_logNormShiftAmp_mXs,2020.1.2,MacIntel,60,,,,,,,,,,,,,,1,12.59151,,0,0,8,8,140,1,stimuli/stim_20210519_power2amp/equal_lnn_AM4Hz_s55_45.m4a,,,
,,,,,,,,,,,,41234,2021-05-31_20h14.44.085,judgeSpeechMusic_20210519_logNormShiftAmp_mXs,2020.1.2,MacIntel,60,,,,,,,,,,,,,,2,6.975115,,0,0,9,9,40,1,stimuli/stim_20210519_power2amp/equal_lnn_AM1Hz_s55_41.m4a,,,
,,,,,,,,,,,,41234,2021-05-31_20h14.44.085,judgeSpeechMusic_20210519_logNormShiftAmp_mXs,2020.1.2,MacIntel,60,,,,,,,,,,,,,,2,10.19219,,0,0,10,10,57,1,stimuli/stim_20210519_power2amp/equal_lnn_AM2.5Hz_s15_23.m4a,,,
,,,,,,,,,,,,41234,2021-05-31_20h14.44.085,judgeSpeechMusic_20210519_logNormShiftAmp_mXs,2020.1.2,MacIntel,60,,,,,,,,,,,,,,1,6.65861,,0,0,11,11,95,1,stimuli/stim_20210519_power2amp/equal_lnn_AM2.5Hz_s55_23.m4a,,,
,,,,,,,,,,,,41234,2021-05-31_20h14.44.085,judgeSpeechMusic_20210519_logNormShiftAmp_mXs,2020.1.2,MacIntel,60,,,,,,,,,,,,,,1,7.7608,,0,0,12,12,69,1,stimuli/stim_20210519_power2amp/equal_lnn_AM2.5Hz_s25_22.m4a,,,
,,,,,,,,,,,,41234,2021-05-31_20h14.44.085,judgeSpeechMusic_20210519_logNormShiftAmp_mXs,2020.1.2,MacIntel,60,,,,,,,,,,,,,,2,6.021525,,0,0,13,13,22,1,stimuli/stim_20210519_power2amp/equal_lnn_AM1Hz_s35_36.m4a,,,
,,,,,,,,,,,,41234,2021-05-31_20h14.44.085,judgeSpeechMusic_20210519_logNormShiftAmp_mXs,2020.1.2,MacIntel,60,,,,,,,,,,,,,,2,6.72316,,0,0,14,14,65,1,stimuli/stim_20210519_power2amp/equal_lnn_AM2.5Hz_s25_20.m4a,,,
,,,,,,,,,,,,41234,2021-05-31_20h14.44.085,judgeSpeechMusic_20210519_logNormShiftAmp_mXs,2020.1.2,MacIntel,60,,,,,,,,,,,,,,2,6.407415,,0,0,15,15,14,1,stimuli/stim_20210519_power2amp/equal_lnn_AM1Hz_s25_49.m4a,,,
,,,,,,,,,,,,41234,2021-05-31_20h14.44.085,judgeSpeechMusic_20210519_logNormShiftAmp_mXs,2020.1.2,MacIntel,60,,,,,,,,,,,,,,1,7.40985,,0,0,16,16,85,1,stimuli/stim_20210519_power2amp/equal_lnn_AM2.5Hz_s45_31.m4a,,,
,,,,,,,,,,,,41234,2021-05-31_20h14.44.085,judgeSpeechMusic_20210519_logNormShiftAmp_mXs,2020.1.2,MacIntel,60,,,,,,,,,,,,,,1,6.440865,,0,0,17,17,10,1,stimuli/stim_20210519_power2amp/equal_lnn_AM1Hz_s25_38.m4a,,,
,,,,,,,,,,,,41234,2021-05-31_20h14.44.085,judgeSpeechMusic_20210519_logNormShiftAmp_mXs,2020.1.2,MacIntel,60,,,,,,,,,,,,,,2,7.441645,,0,0,18,18,46,1,stimuli/stim_20210519_power2amp/equal_lnn_AM1Hz_s55_16.m4a,,,
,,,,,,,,,,,,41234,2021-05-31_20h14.44.085,judgeSpeechMusic_20210519_logNormShiftAmp_mXs,2020.1.2,MacIntel,60,,,,,,,,,,,,,,1,6.27469,,0,0,19,19,105,1,stimuli/stim_20210519_power2amp/equal_lnn_AM4Hz_s15_45.m4a,,,
,,,,,,,,,,,,41234,2021-05-31_20h14.44.085,judgeSpeechMusic_20210519_logNormShiftAmp_mXs,2020.1.2,MacIntel,60,,,,,,,,,,,,,,2,6.95559,,0,0,20,20,39,1,stimuli/stim_20210519_power2amp/equal_lnn_AM1Hz_s45_26.m4a,,,
,,,,,,,,,,,,41234,2021-05-31_20h14.44.085,judgeSpeechMusic_20210519_logNormShiftAmp_mXs,2020.1.2,MacIntel,60,,,,,,,,,,,,,,1,6.92412,,0,0,21,21,109,1,stimuli/stim_20210519_power2amp/equal_lnn_AM4Hz_s15_33.m4a,,,
,,,,,,,,,,,,41234,2021-05-31_20h14.44.085,judgeSpeechMusic_20210519_logNormShiftAmp_mXs,2020.1.2,MacIntel,60,,,,,,,,,,,,,,1,7.606195,,0,0,22,22,148,1,stimuli/stim_20210519_power2amp/equal_lnn_AM4Hz_s55_34.m4a,,,
,,,,,,,,,,,,41234,2021-05-31_20h14.44.085,judgeSpeechMusic_20210519_logNormShiftAmp_mXs,2020.1.2,MacIntel,60,,,,,,,,,,,,,,1,6.22849,,0,0,23,23,25,1,stimuli/stim_20210519_power2amp/equal_lnn_AM1Hz_s35_39.m4a,,,
,,,,,,,,,,,,41234,2021-05-31_20h14.44.085,judgeSpeechMusic_20210519_logNormShiftAmp_mXs,2020.1.2,MacIntel,60,,,,,,,,,,,,,,1,7.67186,,0,0,24,24,146,1,stimuli/stim_20210519_power2amp/equal_lnn_AM4Hz_s55_42.m4a,,,
,,,,,,,,,,,,41234,2021-05-31_20h14.44.085,judgeSpeechMusic_20210519_logNormShiftAmp_mXs,2020.1.2,MacIntel,60,,,,,,,,,,,,,,1,23.440385,,0,0,25,25,51,1,stimuli/stim_20210519_power2amp/equal_lnn_AM2.5Hz_s15_14.m4a,,,
,,,,,,,,,,,,41234,2021-05-31_20h14.44.085,judgeSpeechMusic_20210519_logNormShiftAmp_mXs,2020.1.2,MacIntel,60,,,,,,,,,,,,,,2,25.641815,,0,0,26,26,86,1,stimuli/stim_20210519_power2amp/equal_lnn_AM2.5Hz_s45_20.m4a,,,
,,,,,,,,,,,,41234,2021-05-31_20h14.44.085,judgeSpeechMusic_20210519_logNormShiftAmp_mXs,2020.1.2,MacIntel,60,,,,,,,,,,,,,,2,8.5096,,0,0,27,27,37,1,stimuli/stim_20210519_power2amp/equal_lnn_AM1Hz_s45_30.m4a,,,
,,,,,,,,,,,,41234,2021-05-31_20h14.44.085,judgeSpeechMusic_20210519_logNormShiftAmp_mXs,2020.1.2,MacIntel,60,,,,,,,,,,,,,,2,7.69581,,0,0,28,28,20,1,stimuli/stim_20210519_power2amp/equal_lnn_AM1Hz_s35_43.m4a,,,
,,,,,,,,,,,,41234,2021-05-31_20h14.44.085,judgeSpeechMusic_20210519_logNormShiftAmp_mXs,2020.1.2,MacIntel,60,,,,,,,,,,,,,,2,13.508405,,0,0,29,29,88,1,stimuli/stim_20210519_power2amp/equal_lnn_AM2.5Hz_s45_1.m4a,,,
,,,,,,,,,,,,41234,2021-05-31_20h14.44.085,judgeSpeechMusic_20210519_logNormShiftAmp_mXs,2020.1.2,MacIntel,60,,,,,,,,,,,,,,1,7.878395,3,1,0,30,30,139,1,stimuli/stim_20210519_power2amp/equal_lnn_AM4Hz_s45_47.m4a,2.39812,,
,,,,,,,,,,,,41234,2021-05-31_20h14.44.085,judgeSpeechMusic_20210519_logNormShiftAmp_mXs,2020.1.2,MacIntel,60,,,,,,,,,,,,,,2,8.809485,,0,0,31,31,1,1,stimuli/stim_20210519_power2amp/equal_lnn_AM1Hz_s15_24.m4a,,,
,,,,,,,,,,,,41234,2021-05-31_20h14.44.085,judgeSpeechMusic_20210519_logNormShiftAmp_mXs,2020.1.2,MacIntel,60,,,,,,,,,,,,,,1,6.889975,,0,0,32,32,142,1,stimuli/stim_20210519_power2amp/equal_lnn_AM4Hz_s55_5.m4a,,,
,,,,,,,,,,,,41234,2021-05-31_20h14.44.085,judgeSpeechMusic_20210519_logNormShiftAmp_mXs,2020.1.2,MacIntel,60,,,,,,,,,,,,,,2,7.35593,,0,0,33,33,131,1,stimuli/stim_20210519_power2amp/equal_lnn_AM4Hz_s45_42.m4a,,,
,,,,,,,,,,,,41234,2021-05-31_20h14.44.085,judgeSpeechMusic_20210519_logNormShiftAmp_mXs,2020.1.2,MacIntel,60,,,,,,,,,,,,,,2,8.55992,,0,0,34,34,144,1,stimuli/stim_20210519_power2amp/equal_lnn_AM4Hz_s55_7.m4a,,,
,,,,,,,,,,,,41234,2021-05-31_20h14.44.085,judgeSpeechMusic_20210519_logNormShiftAmp_mXs,2020.1.2,MacIntel,60,,,,,,,,,,,,,,2,6.55625,,0,0,35,35,36,1,stimuli/stim_20210519_power2amp/equal_lnn_AM1Hz_s45_8.m4a,,,
,,,,,,,,,,,,41234,2021-05-31_20h14.44.085,judgeSpeechMusic_20210519_logNormShiftAmp_mXs,2020.1.2,MacIntel,60,,,,,,,,,,,,,,1,5.908315,,0,0,36,36,54,1,stimuli/stim_20210519_power2amp/equal_lnn_AM2.5Hz_s15_21.m4a,,,
,,,,,,,,,,,,41234,2021-05-31_20h14.44.085,judgeSpeechMusic_20210519_logNormShiftAmp_mXs,2020.1.2,MacIntel,60,,,,,,,,,,,,,,2,7.35898,,0,0,37,37,18,1,stimuli/stim_20210519_power2amp/equal_lnn_AM1Hz_s25_43.m4a,,,
,,,,,,,,,,,,41234,2021-05-31_20h14.44.085,judgeSpeechMusic_20210519_logNormShiftAmp_mXs,2020.1.2,MacIntel,60,,,,,,,,,,,,,,1,11.358545,,0,0,38,38,133,1,stimuli/stim_20210519_power2amp/equal_lnn_AM4Hz_s45_4.m4a,,,
,,,,,,,,,,,,41234,2021-05-31_20h14.44.085,judgeSpeechMusic_20210519_logNormShiftAmp_mXs,2020.1.2,MacIntel,60,,,,,,,,,,,,,,1,14.27174,,0,0,39,39,8,1,stimuli/stim_20210519_power2amp/equal_lnn_AM1Hz_s15_5.m4a,,,
,,,,,,,,,,,,41234,2021-05-31_20h14.44.085,judgeSpeechMusic_20210519_logNormShiftAmp_mXs,2020.1.2,MacIntel,60,,,,,,,,,,,,,,1,9.95974,,0,0,40,40,104,1,stimuli/stim_20210519_power2amp/equal_lnn_AM4Hz_s15_12.m4a,,,
,,,,,,,,,,,,41234,2021-05-31_20h14.44.085,judgeSpeechMusic_20210519_logNormShiftAmp_mXs,2020.1.2,MacIntel,60,,,,,,,,,,,,,,1,9.95782,,0,0,41,41,143,1,stimuli/stim_20210519_power2amp/equal_lnn_AM4Hz_s55_28.m4a,,,
,,,,,,,,,,,,41234,2021-05-31_20h14.44.085,judgeSpeechMusic_20210519_logNormShiftAmp_mXs,2020.1.2,MacIntel,60,,,,,,,,,,,,,,1,10.57521,,0,0,42,42,50,1,stimuli/stim_20210519_power2amp/equal_lnn_AM2.5Hz_s15_11.m4a,,,
,,,,,,,,,,,,41234,2021-05-31_20h14.44.085,judgeSpeechMusic_20210519_logNormShiftAmp_mXs,2020.1.2,MacIntel,60,,,,,,,,,,,,,,1,20.507145,,0,0,43,43,107,1,stimuli/stim_20210519_power2amp/equal_lnn_AM4Hz_s15_14.m4a,,,
,,,,,,,,,,,,41234,2021-05-31_20h14.44.085,judgeSpeechMusic_20210519_logNormShiftAmp_mXs,2020.1.2,MacIntel,60,,,,,,,,,,,,,,1,6.89445,,0,0,44,44,100,1,stimuli/stim_20210519_power2amp/equal_lnn_AM4Hz_s15_13.m4a,,,
,,,,,,,,,,,,41234,2021-05-31_20h14.44.085,judgeSpeechMusic_20210519_logNormShiftAmp_mXs,2020.1.2,MacIntel,60,,,,,,,,,,,,,,2,7.79036,,0,0,45,45,31,1,stimuli/stim_20210519_power2amp/equal_lnn_AM1Hz_s45_2.m4a,,,
,,,,,,,,,,,,41234,2021-05-31_20h14.44.085,judgeSpeechMusic_20210519_logNormShiftAmp_mXs,2020.1.2,MacIntel,60,,,,,,,,,,,,,,2,8.50778,,0,0,46,46,59,1,stimuli/stim_20210519_power2amp/equal_lnn_AM2.5Hz_s15_41.m4a,,,
,,,,,,,,,,,,41234,2021-05-31_20h14.44.085,judgeSpeechMusic_20210519_logNormShiftAmp_mXs,2020.1.2,MacIntel,60,,,,,,,,,,,,,,2,6.426855,,0,0,47,47,67,1,stimuli/stim_20210519_power2amp/equal_lnn_AM2.5Hz_s25_3.m4a,,,
,,,,,,,,,,,,41234,2021-05-31_20h14.44.085,judgeSpeechMusic_20210519_logNormShiftAmp_mXs,2020.1.2,MacIntel,60,,,,,,,,,,,,,,2,6.858575,,0,0,48,48,96,1,stimuli/stim_20210519_power2amp/equal_lnn_AM2.5Hz_s55_31.m4a,,,
,,,,,,,,,,,,41234,2021-05-31_20h14.44.085,judgeSpeechMusic_20210519_logNormShiftAmp_mXs,2020.1.2,MacIntel,60,,,,,,,,,,,,,,1,6.904475,,0,0,49,49,76,1,stimuli/stim_20210519_power2amp/equal_lnn_AM2.5Hz_s35_7.m4a,,,
,,,,,,,,,,,,41234,2021-05-31_20h14.44.085,judgeSpeechMusic_20210519_logNormShiftAmp_mXs,2020.1.2,MacIntel,60,,,,,,,,,,,,,,2,9.2256,,0,0,50,50,93,1,stimuli/stim_20210519_power2amp/equal_lnn_AM2.5Hz_s55_1.m4a,,,
,,,,,,,,,,,,41234,2021-05-31_20h14.44.085,judgeSpeechMusic_20210519_logNormShiftAmp_mXs,2020.1.2,MacIntel,60,,,,,,,,,,,,,,1,6.21079,3,1,0,51,51,58,1,stimuli/stim_20210519_power2amp/equal_lnn_AM2.5Hz_s15_2.m4a,4.1469,,
,,,,,,,,,,,,41234,2021-05-31_20h14.44.085,judgeSpeechMusic_20210519_logNormShiftAmp_mXs,2020.1.2,MacIntel,60,,,,,,,,,,,,,,2,7.49246,,0,0,52,52,32,1,stimuli/stim_20210519_power2amp/equal_lnn_AM1Hz_s45_22.m4a,,,
,,,,,,,,,,,,41234,2021-05-31_20h14.44.085,judgeSpeechMusic_20210519_logNormShiftAmp_mXs,2020.1.2,MacIntel,60,,,,,,,,,,,,,,2,7.506865,,0,0,53,53,43,1,stimuli/stim_20210519_power2amp/equal_lnn_AM1Hz_s55_22.m4a,,,
,,,,,,,,,,,,41234,2021-05-31_20h14.44.085,judgeSpeechMusic_20210519_logNormShiftAmp_mXs,2020.1.2,MacIntel,60,,,,,,,,,,,,,,2,6.608485,,0,0,54,54,91,1,stimuli/stim_20210519_power2amp/equal_lnn_AM2.5Hz_s55_20.m4a,,,
,,,,,,,,,,,,41234,2021-05-31_20h14.44.085,judgeSpeechMusic_20210519_logNormShiftAmp_mXs,2020.1.2,MacIntel,60,,,,,,,,,,,,,,1,8.40566,,0,0,55,55,119,1,stimuli/stim_20210519_power2amp/equal_lnn_AM4Hz_s25_9.m4a,,,
,,,,,,,,,,,,41234,2021-05-31_20h14.44.085,judgeSpeechMusic_20210519_logNormShiftAmp_mXs,2020.1.2,MacIntel,60,,,,,,,,,,,,,,1,5.941325,,0,0,56,56,123,1,stimuli/stim_20210519_power2amp/equal_lnn_AM4Hz_s35_26.m4a,,,
,,,,,,,,,,,,41234,2021-05-31_20h14.44.085,judgeSpeechMusic_20210519_logNormShiftAmp_mXs,2020.1.2,MacIntel,60,,,,,,,,,,,,,,2,7.880425,,0,0,57,57,78,1,stimuli/stim_20210519_power2amp/equal_lnn_AM2.5Hz_s35_29.m4a,,,
,,,,,,,,,,,,41234,2021-05-31_20h14.44.085,judgeSpeechMusic_20210519_logNormShiftAmp_mXs,2020.1.2,MacIntel,60,,,,,,,,,,,,,,2,9.153045,,0,0,58,58,80,1,stimuli/stim_20210519_power2amp/equal_lnn_AM2.5Hz_s45_7.m4a,,,
,,,,,,,,,,,,41234,2021-05-31_20h14.44.085,judgeSpeechMusic_20210519_logNormShiftAmp_mXs,2020.1.2,MacIntel,60,,,,,,,,,,,,,,2,6.524295,,0,0,59,59,7,1,stimuli/stim_20210519_power2amp/equal_lnn_AM1Hz_s15_46.m4a,,,
,,,,,,,,,,,,41234,2021-05-31_20h14.44.085,judgeSpeechMusic_20210519_logNormShiftAmp_mXs,2020.1.2,MacIntel,60,,,,,,,,,,,,,,2,17.94626,,0,0,60,60,136,1,stimuli/stim_20210519_power2amp/equal_lnn_AM4Hz_s45_39.m4a,,,
,,,,,,,,,,,,41234,2021-05-31_20h14.44.085,judgeSpeechMusic_20210519_logNormShiftAmp_mXs,2020.1.2,MacIntel,60,,,,,,,,,,,,,,2,39.07457,,0,0,61,61,134,1,stimuli/stim_20210519_power2amp/equal_lnn_AM4Hz_s45_10.m4a,,,
,,,,,,,,,,,,41234,2021-05-31_20h14.44.085,judgeSpeechMusic_20210519_logNormShiftAmp_mXs,2020.1.2,MacIntel,60,,,,,,,,,,,,,,2,6.742405,,0,0,62,62,45,1,stimuli/stim_20210519_power2amp/equal_lnn_AM1Hz_s55_30.m4a,,,
,,,,,,,,,,,,41234,2021-05-31_20h14.44.085,judgeSpeechMusic_20210519_logNormShiftAmp_mXs,2020.1.2,MacIntel,60,,,,,,,,,,,,,,2,9.541775,,0,0,63,63,6,1,stimuli/stim_20210519_power2amp/equal_lnn_AM1Hz_s15_35.m4a,,,
,,,,,,,,,,,,41234,2021-05-31_20h14.44.085,judgeSpeechMusic_20210519_logNormShiftAmp_mXs,2020.1.2,MacIntel,60,,,,,,,,,,,,,,2,8.312755,,0,0,64,64,108,1,stimuli/stim_20210519_power2amp/equal_lnn_AM4Hz_s15_46.m4a,,,
,,,,,,,,,,,,41234,2021-05-31_20h14.44.085,judgeSpeechMusic_20210519_logNormShiftAmp_mXs,2020.1.2,MacIntel,60,,,,,,,,,,,,,,2,17.371535,,0,0,65,65,120,1,stimuli/stim_20210519_power2amp/equal_lnn_AM4Hz_s35_15.m4a,,,
,,,,,,,,,,,,41234,2021-05-31_20h14.44.085,judgeSpeechMusic_20210519_logNormShiftAmp_mXs,2020.1.2,MacIntel,60,,,,,,,,,,,,,,2,7.226015,,0,0,66,66,137,1,stimuli/stim_20210519_power2amp/equal_lnn_AM4Hz_s45_22.m4a,,,
,,,,,,,,,,,,41234,2021-05-31_20h14.44.085,judgeSpeechMusic_20210519_logNormShiftAmp_mXs,2020.1.2,MacIntel,60,,,,,,,,,,,,,,2,25.644305,,0,0,67,67,30,1,stimuli/stim_20210519_power2amp/equal_lnn_AM1Hz_s45_47.m4a,,,
,,,,,,,,,,,,41234,2021-05-31_20h14.44.085,judgeSpeechMusic_20210519_logNormShiftAmp_mXs,2020.1.2,MacIntel,60,,,,,,,,,,,,,,2,39.13812,,0,0,68,68,84,1,stimuli/stim_20210519_power2amp/equal_lnn_AM2.5Hz_s45_9.m4a,,,
,,,,,,,,,,,,41234,2021-05-31_20h14.44.085,judgeSpeechMusic_20210519_logNormShiftAmp_mXs,2020.1.2,MacIntel,60,,,,,,,,,,,,,,2,11.34593,,0,0,69,69,47,1,stimuli/stim_20210519_power2amp/equal_lnn_AM1Hz_s55_43.m4a,,,
,,,,,,,,,,,,41234,2021-05-31_20h14.44.085,judgeSpeechMusic_20210519_logNormShiftAmp_mXs,2020.1.2,MacIntel,60,,,,,,,,,,,,,,2,6.72464,,0,0,70,70,12,1,stimuli/stim_20210519_power2amp/equal_lnn_AM1Hz_s25_40.m4a,,,
,,,,,,,,,,,,41234,2021-05-31_20h14.44.085,judgeSpeechMusic_20210519_logNormShiftAmp_mXs,2020.1.2,MacIntel,60,,,,,,,,,,,,,,2,9.908785,,0,0,71,71,149,1,stimuli/stim_20210519_power2amp/equal_lnn_AM4Hz_s55_8.m4a,,,
,,,,,,,,,,,,41234,2021-05-31_20h14.44.085,judgeSpeechMusic_20210519_logNormShiftAmp_mXs,2020.1.2,MacIntel,60,,,,,,,,,,,,,,2,13.52665,4,0,0,72,72,102,1,stimuli/stim_20210519_power2amp/equal_lnn_AM4Hz_s15_47.m4a,3.561105,,
,,,,,,,,,,,,41234,2021-05-31_20h14.44.085,judgeSpeechMusic_20210519_logNormShiftAmp_mXs,2020.1.2,MacIntel,60,,,,,,,,,,,,,,2,21.14188,,0,0,73,73,53,1,stimuli/stim_20210519_power2amp/equal_lnn_AM2.5Hz_s15_47.m4a,,,
,,,,,,,,,,,,41234,2021-05-31_20h14.44.085,judgeSpeechMusic_20210519_logNormShiftAmp_mXs,2020.1.2,MacIntel,60,,,,,,,,,,,,,,2,34.60683,,0,0,74,74,97,1,stimuli/stim_20210519_power2amp/equal_lnn_AM2.5Hz_s55_21.m4a,,,
,,,,,,,,,,,,41234,2021-05-31_20h14.44.085,judgeSpeechMusic_20210519_logNormShiftAmp_mXs,2020.1.2,MacIntel,60,,,,,,,,,,,,,,2,10.24291,,0,0,75,75,98,1,stimuli/stim_20210519_power2amp/equal_lnn_AM2.5Hz_s55_50.m4a,,,
,,,,,,,,,,,,41234,2021-05-31_20h14.44.085,judgeSpeechMusic_20210519_logNormShiftAmp_mXs,2020.1.2,MacIntel,60,,,,,,,,,,,,,,2,64.0705,,0,0,76,76,125,1,stimuli/stim_20210519_power2amp/equal_lnn_AM4Hz_s35_38.m4a,,,
,,,,,,,,,,,,41234,2021-05-31_20h14.44.085,judgeSpeechMusic_20210519_logNormShiftAmp_mXs,2020.1.2,MacIntel,60,,,,,,,,,,,,,,1,7.09275,,0,0,77,77,101,1,stimuli/stim_20210519_power2amp/equal_lnn_AM4Hz_s15_16.m4a,,,
,,,,,,,,,,,,41234,2021-05-31_20h14.44.085,judgeSpeechMusic_20210519_logNormShiftAmp_mXs,2020.1.2,MacIntel,60,,,,,,,,,,,,,,2,8.992515,,0,0,78,78,21,1,stimuli/stim_20210519_power2amp/equal_lnn_AM1Hz_s35_13.m4a,,,
,,,,,,,,,,,,41234,2021-05-31_20h14.44.085,judgeSpeechMusic_20210519_logNormShiftAmp_mXs,2020.1.2,MacIntel,60,,,,,,,,,,,,,,1,6.346145,,0,0,79,79,129,1,stimuli/stim_20210519_power2amp/equal_lnn_AM4Hz_s35_35.m4a,,,
,,,,,,,,,,,,41234,2021-05-31_20h14.44.085,judgeSpeechMusic_20210519_logNormShiftAmp_mXs,2020.1.2,MacIntel,60,,,,,,,,,,,,,,1,10.794795,,0,0,80,80,94,1,stimuli/stim_20210519_power2amp/equal_lnn_AM2.5Hz_s55_41.m4a,,,
,,,,,,,,,,,,41234,2021-05-31_20h14.44.085,judgeSpeechMusic_20210519_logNormShiftAmp_mXs,2020.1.2,MacIntel,60,,,,,,,,,,,,,,2,7.20898,,0,0,81,81,16,1,stimuli/stim_20210519_power2amp/equal_lnn_AM1Hz_s25_21.m4a,,,
,,,,,,,,,,,,41234,2021-05-31_20h14.44.085,judgeSpeechMusic_20210519_logNormShiftAmp_mXs,2020.1.2,MacIntel,60,,,,,,,,,,,,,,2,16.363145,,0,0,82,82,138,1,stimuli/stim_20210519_power2amp/equal_lnn_AM4Hz_s45_15.m4a,,,
,,,,,,,,,,,,41234,2021-05-31_20h14.44.085,judgeSpeechMusic_20210519_logNormShiftAmp_mXs,2020.1.2,MacIntel,60,,,,,,,,,,,,,,2,76.308175,,0,0,83,83,126,1,stimuli/stim_20210519_power2amp/equal_lnn_AM4Hz_s35_5.m4a,,,
,,,,,,,,,,,,41234,2021-05-31_20h14.44.085,judgeSpeechMusic_20210519_logNormShiftAmp_mXs,2020.1.2,MacIntel,60,,,,,,,,,,,,,,2,9.58924,,0,0,84,84,66,1,stimuli/stim_20210519_power2amp/equal_lnn_AM2.5Hz_s25_46.m4a,,,
,,,,,,,,,,,,41234,2021-05-31_20h14.44.085,judgeSpeechMusic_20210519_logNormShiftAmp_mXs,2020.1.2,MacIntel,60,,,,,,,,,,,,,,2,63.29032,,0,0,85,85,118,1,stimuli/stim_20210519_power2amp/equal_lnn_AM4Hz_s25_14.m4a,,,
,,,,,,,,,,,,41234,2021-05-31_20h14.44.085,judgeSpeechMusic_20210519_logNormShiftAmp_mXs,2020.1.2,MacIntel,60,,,,,,,,,,,,,,2,6.72979,,0,0,86,86,90,1,stimuli/stim_20210519_power2amp/equal_lnn_AM2.5Hz_s55_49.m4a,,,
,,,,,,,,,,,,41234,2021-05-31_20h14.44.085,judgeSpeechMusic_20210519_logNormShiftAmp_mXs,2020.1.2,MacIntel,60,,,,,,,,,,,,,,2,6.07176,,0,0,87,87,52,1,stimuli/stim_20210519_power2amp/equal_lnn_AM2.5Hz_s15_50.m4a,,,
,,,,,,,,,,,,41234,2021-05-31_20h14.44.085,judgeSpeechMusic_20210519_logNormShiftAmp_mXs,2020.1.2,MacIntel,60,,,,,,,,,,,,,,2,5.91326,,0,0,88,88,75,1,stimuli/stim_20210519_power2amp/equal_lnn_AM2.5Hz_s35_31.m4a,,,
,,,,,,,,,,,,41234,2021-05-31_20h14.44.085,judgeSpeechMusic_20210519_logNormShiftAmp_mXs,2020.1.2,MacIntel,60,,,,,,,,,,,,,,2,6.35555,,0,0,89,89,62,1,stimuli/stim_20210519_power2amp/equal_lnn_AM2.5Hz_s25_23.m4a,,,
,,,,,,,,,,,,41234,2021-05-31_20h14.44.085,judgeSpeechMusic_20210519_logNormShiftAmp_mXs,2020.1.2,MacIntel,60,,,,,,,,,,,,,,1,6.00985,,0,0,90,90,130,1,stimuli/stim_20210519_power2amp/equal_lnn_AM4Hz_s45_49.m4a,,,
,,,,,,,,,,,,41234,2021-05-31_20h14.44.085,judgeSpeechMusic_20210519_logNormShiftAmp_mXs,2020.1.2,MacIntel,60,,,,,,,,,,,,,,2,7.97264,,0,0,91,91,64,1,stimuli/stim_20210519_power2amp/equal_lnn_AM2.5Hz_s25_30.m4a,,,
,,,,,,,,,,,,41234,2021-05-31_20h14.44.085,judgeSpeechMusic_20210519_logNormShiftAmp_mXs,2020.1.2,MacIntel,60,,,,,,,,,,,,,,2,79.15322,,0,0,92,92,89,1,stimuli/stim_20210519_power2amp/equal_lnn_AM2.5Hz_s45_45.m4a,,,
,,,,,,,,,,,,41234,2021-05-31_20h14.44.085,judgeSpeechMusic_20210519_logNormShiftAmp_mXs,2020.1.2,MacIntel,60,,,,,,,,,,,,,,2,6.38922,,0,0,93,93,0,1,stimuli/stim_20210519_power2amp/equal_lnn_AM1Hz_s15_31.m4a,,,
,,,,,,,,,,,,41234,2021-05-31_20h14.44.085,judgeSpeechMusic_20210519_logNormShiftAmp_mXs,2020.1.2,MacIntel,60,,,,,,,,,,,,,,2,6.05807,,0,0,94,94,77,1,stimuli/stim_20210519_power2amp/equal_lnn_AM2.5Hz_s35_22.m4a,,,
,,,,,,,,,,,,41234,2021-05-31_20h14.44.085,judgeSpeechMusic_20210519_logNormShiftAmp_mXs,2020.1.2,MacIntel,60,,,,,,,,,,,,,,2,6.259465,,0,0,95,95,141,1,stimuli/stim_20210519_power2amp/equal_lnn_AM4Hz_s55_2.m4a,,,
,,,,,,,,,,,,41234,2021-05-31_20h14.44.085,judgeSpeechMusic_20210519_logNormShiftAmp_mXs,2020.1.2,MacIntel,60,,,,,,,,,,,,,,2,5.99172,4,1,0,96,96,33,1,stimuli/stim_20210519_power2amp/equal_lnn_AM1Hz_s45_24.m4a,2.561825,,
,,,,,,,,,,,,41234,2021-05-31_20h14.44.085,judgeSpeechMusic_20210519_logNormShiftAmp_mXs,2020.1.2,MacIntel,60,,,,,,,,,,,,,,2,6.490515,,0,0,97,97,44,1,stimuli/stim_20210519_power2amp/equal_lnn_AM1Hz_s55_3.m4a,,,
,,,,,,,,,,,,41234,2021-05-31_20h14.44.085,judgeSpeechMusic_20210519_logNormShiftAmp_mXs,2020.1.2,MacIntel,60,,,,,,,,,,,,,,2,5.907855,,0,0,98,98,115,1,stimuli/stim_20210519_power2amp/equal_lnn_AM4Hz_s25_23.m4a,,,
,,,,,,,,,,,,41234,2021-05-31_20h14.44.085,judgeSpeechMusic_20210519_logNormShiftAmp_mXs,2020.1.2,MacIntel,60,,,,,,,,,,,,,,2,6.00913,,0,0,99,99,82,1,stimuli/stim_20210519_power2amp/equal_lnn_AM2.5Hz_s45_8.m4a,,,
,,,,,,,,,,,,41234,2021-05-31_20h14.44.085,judgeSpeechMusic_20210519_logNormShiftAmp_mXs,2020.1.2,MacIntel,60,,,,,,,,,,,,,,2,6.01279,,0,0,100,100,87,1,stimuli/stim_20210519_power2amp/equal_lnn_AM2.5Hz_s45_4.m4a,,,
,,,,,,,,,,,,41234,2021-05-31_20h14.44.085,judgeSpeechMusic_20210519_logNormShiftAmp_mXs,2020.1.2,MacIntel,60,,,,,,,,,,,,,,2,6.379715,,0,0,101,101,79,1,stimuli/stim_20210519_power2amp/equal_lnn_AM2.5Hz_s35_27.m4a,,,
,,,,,,,,,,,,41234,2021-05-31_20h14.44.085,judgeSpeechMusic_20210519_logNormShiftAmp_mXs,2020.1.2,MacIntel,60,,,,,,,,,,,,,,1,6.524745,,0,0,102,102,117,1,stimuli/stim_20210519_power2amp/equal_lnn_AM4Hz_s25_19.m4a,,,
,,,,,,,,,,,,41234,2021-05-31_20h14.44.085,judgeSpeechMusic_20210519_logNormShiftAmp_mXs,2020.1.2,MacIntel,60,,,,,,,,,,,,,,1,6.025585,,0,0,103,103,121,1,stimuli/stim_20210519_power2amp/equal_lnn_AM4Hz_s35_32.m4a,,,
,,,,,,,,,,,,41234,2021-05-31_20h14.44.085,judgeSpeechMusic_20210519_logNormShiftAmp_mXs,2020.1.2,MacIntel,60,,,,,,,,,,,,,,2,5.908765,,0,0,104,104,3,1,stimuli/stim_20210519_power2amp/equal_lnn_AM1Hz_s15_27.m4a,,,
,,,,,,,,,,,,41234,2021-05-31_20h14.44.085,judgeSpeechMusic_20210519_logNormShiftAmp_mXs,2020.1.2,MacIntel,60,,,,,,,,,,,,,,1,6.409075,,0,0,105,105,147,1,stimuli/stim_20210519_power2amp/equal_lnn_AM4Hz_s55_19.m4a,,,
,,,,,,,,,,,,41234,2021-05-31_20h14.44.085,judgeSpeechMusic_20210519_logNormShiftAmp_mXs,2020.1.2,MacIntel,60,,,,,,,,,,,,,,1,6.043465,,0,0,106,106,145,1,stimuli/stim_20210519_power2amp/equal_lnn_AM4Hz_s55_17.m4a,,,
,,,,,,,,,,,,41234,2021-05-31_20h14.44.085,judgeSpeechMusic_20210519_logNormShiftAmp_mXs,2020.1.2,MacIntel,60,,,,,,,,,,,,,,2,7.274395,,0,0,107,107,13,1,stimuli/stim_20210519_power2amp/equal_lnn_AM1Hz_s25_29.m4a,,,
,,,,,,,,,,,,41234,2021-05-31_20h14.44.085,judgeSpeechMusic_20210519_logNormShiftAmp_mXs,2020.1.2,MacIntel,60,,,,,,,,,,,,,,2,6.142275,,0,0,108,108,61,1,stimuli/stim_20210519_power2amp/equal_lnn_AM2.5Hz_s25_9.m4a,,,
,,,,,,,,,,,,41234,2021-05-31_20h14.44.085,judgeSpeechMusic_20210519_logNormShiftAmp_mXs,2020.1.2,MacIntel,60,,,,,,,,,,,,,,1,7.293685,,0,0,109,109,114,1,stimuli/stim_20210519_power2amp/equal_lnn_AM4Hz_s25_50.m4a,,,
,,,,,,,,,,,,41234,2021-05-31_20h14.44.085,judgeSpeechMusic_20210519_logNormShiftAmp_mXs,2020.1.2,MacIntel,60,,,,,,,,,,,,,,2,6.393865,,0,0,110,110,48,1,stimuli/stim_20210519_power2amp/equal_lnn_AM1Hz_s55_31.m4a,,,
,,,,,,,,,,,,41234,2021-05-31_20h14.44.085,judgeSpeechMusic_20210519_logNormShiftAmp_mXs,2020.1.2,MacIntel,60,,,,,,,,,,,,,,1,6.509465,,0,0,111,111,122,1,stimuli/stim_20210519_power2amp/equal_lnn_AM4Hz_s35_37.m4a,,,
,,,,,,,,,,,,41234,2021-05-31_20h14.44.085,judgeSpeechMusic_20210519_logNormShiftAmp_mXs,2020.1.2,MacIntel,60,,,,,,,,,,,,,,2,7.044555,,0,0,112,112,42,1,stimuli/stim_20210519_power2amp/equal_lnn_AM1Hz_s55_28.m4a,,,
,,,,,,,,,,,,41234,2021-05-31_20h14.44.085,judgeSpeechMusic_20210519_logNormShiftAmp_mXs,2020.1.2,MacIntel,60,,,,,,,,,,,,,,2,5.85696,,0,0,113,113,9,1,stimuli/stim_20210519_power2amp/equal_lnn_AM1Hz_s15_10.m4a,,,
,,,,,,,,,,,,41234,2021-05-31_20h14.44.085,judgeSpeechMusic_20210519_logNormShiftAmp_mXs,2020.1.2,MacIntel,60,,,,,,,,,,,,,,2,6.02566,,0,0,114,114,49,1,stimuli/stim_20210519_power2amp/equal_lnn_AM1Hz_s55_38.m4a,,,
,,,,,,,,,,,,41234,2021-05-31_20h14.44.085,judgeSpeechMusic_20210519_logNormShiftAmp_mXs,2020.1.2,MacIntel,60,,,,,,,,,,,,,,1,6.942135,,0,0,115,115,113,1,stimuli/stim_20210519_power2amp/equal_lnn_AM4Hz_s25_24.m4a,,,
,,,,,,,,,,,,41234,2021-05-31_20h14.44.085,judgeSpeechMusic_20210519_logNormShiftAmp_mXs,2020.1.2,MacIntel,60,,,,,,,,,,,,,,2,6.524675,,0,0,116,116,5,1,stimuli/stim_20210519_power2amp/equal_lnn_AM1Hz_s15_22.m4a,,,
,,,,,,,,,,,,41234,2021-05-31_20h14.44.085,judgeSpeechMusic_20210519_logNormShiftAmp_mXs,2020.1.2,MacIntel,60,,,,,,,,,,,,,,1,5.89045,,0,0,117,117,124,1,stimuli/stim_20210519_power2amp/equal_lnn_AM4Hz_s35_17.m4a,,,
,,,,,,,,,,,,41234,2021-05-31_20h14.44.085,judgeSpeechMusic_20210519_logNormShiftAmp_mXs,2020.1.2,MacIntel,60,,,,,,,,,,,,,,2,6.89762,4,1,0,118,118,28,1,stimuli/stim_20210519_power2amp/equal_lnn_AM1Hz_s35_25.m4a,2.113915,,
,,,,,,,,,,,,41234,2021-05-31_20h14.44.085,judgeSpeechMusic_20210519_logNormShiftAmp_mXs,2020.1.2,MacIntel,60,,,,,,,,,,,,,,1,6.207795,,0,0,119,119,132,1,stimuli/stim_20210519_power2amp/equal_lnn_AM4Hz_s45_14.m4a,,,
,,,,,,,,,,,,41234,2021-05-31_20h14.44.085,judgeSpeechMusic_20210519_logNormShiftAmp_mXs,2020.1.2,MacIntel,60,,,,,,,,,,,,,,2,6.743955,,0,0,120,120,23,1,stimuli/stim_20210519_power2amp/equal_lnn_AM1Hz_s35_22.m4a,,,
,,,,,,,,,,,,41234,2021-05-31_20h14.44.085,judgeSpeechMusic_20210519_logNormShiftAmp_mXs,2020.1.2,MacIntel,60,,,,,,,,,,,,,,1,6.62751,,0,0,121,121,110,1,stimuli/stim_20210519_power2amp/equal_lnn_AM4Hz_s25_4.m4a,,,
,,,,,,,,,,,,41234,2021-05-31_20h14.44.085,judgeSpeechMusic_20210519_logNormShiftAmp_mXs,2020.1.2,MacIntel,60,,,,,,,,,,,,,,2,6.678175,,0,0,122,122,4,1,stimuli/stim_20210519_power2amp/equal_lnn_AM1Hz_s15_44.m4a,,,
,,,,,,,,,,,,41234,2021-05-31_20h14.44.085,judgeSpeechMusic_20210519_logNormShiftAmp_mXs,2020.1.2,MacIntel,60,,,,,,,,,,,,,,1,11.489555,,0,0,123,123,111,1,stimuli/stim_20210519_power2amp/equal_lnn_AM4Hz_s25_34.m4a,,,
,,,,,,,,,,,,41234,2021-05-31_20h14.44.085,judgeSpeechMusic_20210519_logNormShiftAmp_mXs,2020.1.2,MacIntel,60,,,,,,,,,,,,,,1,6.072875,,0,0,124,124,81,1,stimuli/stim_20210519_power2amp/equal_lnn_AM2.5Hz_s45_12.m4a,,,
,,,,,,,,,,,,41234,2021-05-31_20h14.44.085,judgeSpeechMusic_20210519_logNormShiftAmp_mXs,2020.1.2,MacIntel,60,,,,,,,,,,,,,,2,8.107975,,0,0,125,125,73,1,stimuli/stim_20210519_power2amp/equal_lnn_AM2.5Hz_s35_19.m4a,,,
,,,,,,,,,,,,41234,2021-05-31_20h14.44.085,judgeSpeechMusic_20210519_logNormShiftAmp_mXs,2020.1.2,MacIntel,60,,,,,,,,,,,,,,1,15.98796,,0,0,126,126,83,1,stimuli/stim_20210519_power2amp/equal_lnn_AM2.5Hz_s45_42.m4a,,,
,,,,,,,,,,,,41234,2021-05-31_20h14.44.085,judgeSpeechMusic_20210519_logNormShiftAmp_mXs,2020.1.2,MacIntel,60,,,,,,,,,,,,,,2,29.55799,,0,0,127,127,55,1,stimuli/stim_20210519_power2amp/equal_lnn_AM2.5Hz_s15_5.m4a,,,
,,,,,,,,,,,,41234,2021-05-31_20h14.44.085,judgeSpeechMusic_20210519_logNormShiftAmp_mXs,2020.1.2,MacIntel,60,,,,,,,,,,,,,,2,6.65992,,0,0,128,128,60,1,stimuli/stim_20210519_power2amp/equal_lnn_AM2.5Hz_s25_31.m4a,,,
,,,,,,,,,,,,41234,2021-05-31_20h14.44.085,judgeSpeechMusic_20210519_logNormShiftAmp_mXs,2020.1.2,MacIntel,60,,,,,,,,,,,,,,2,7.24046,,0,0,129,129,17,1,stimuli/stim_20210519_power2amp/equal_lnn_AM1Hz_s25_42.m4a,,,
,,,,,,,,,,,,41234,2021-05-31_20h14.44.085,judgeSpeechMusic_20210519_logNormShiftAmp_mXs,2020.1.2,MacIntel,60,,,,,,,,,,,,,,2,6.493415,,0,0,130,130,56,1,stimuli/stim_20210519_power2amp/equal_lnn_AM2.5Hz_s15_8.m4a,,,
,,,,,,,,,,,,41234,2021-05-31_20h14.44.085,judgeSpeechMusic_20210519_logNormShiftAmp_mXs,2020.1.2,MacIntel,60,,,,,,,,,,,,,,2,6.059115,,0,0,131,131,11,1,stimuli/stim_20210519_power2amp/equal_lnn_AM1Hz_s25_34.m4a,,,
,,,,,,,,,,,,41234,2021-05-31_20h14.44.085,judgeSpeechMusic_20210519_logNormShiftAmp_mXs,2020.1.2,MacIntel,60,,,,,,,,,,,,,,2,28.64169,,0,0,132,132,35,1,stimuli/stim_20210519_power2amp/equal_lnn_AM1Hz_s45_28.m4a,,,
,,,,,,,,,,,,41234,2021-05-31_20h14.44.085,judgeSpeechMusic_20210519_logNormShiftAmp_mXs,2020.1.2,MacIntel,60,,,,,,,,,,,,,,2,6.860235,,0,0,133,133,92,1,stimuli/stim_20210519_power2amp/equal_lnn_AM2.5Hz_s55_6.m4a,,,
,,,,,,,,,,,,41234,2021-05-31_20h14.44.085,judgeSpeechMusic_20210519_logNormShiftAmp_mXs,2020.1.2,MacIntel,60,,,,,,,,,,,,,,2,21.88996,,0,0,134,134,103,1,stimuli/stim_20210519_power2amp/equal_lnn_AM4Hz_s15_30.m4a,,,
,,,,,,,,,,,,41234,2021-05-31_20h14.44.085,judgeSpeechMusic_20210519_logNormShiftAmp_mXs,2020.1.2,MacIntel,60,,,,,,,,,,,,,,2,7.22537,,0,0,135,135,68,1,stimuli/stim_20210519_power2amp/equal_lnn_AM2.5Hz_s25_4.m4a,,,
,,,,,,,,,,,,41234,2021-05-31_20h14.44.085,judgeSpeechMusic_20210519_logNormShiftAmp_mXs,2020.1.2,MacIntel,60,,,,,,,,,,,,,,2,6.291425,,0,0,136,136,135,1,stimuli/stim_20210519_power2amp/equal_lnn_AM4Hz_s45_44.m4a,,,
,,,,,,,,,,,,41234,2021-05-31_20h14.44.085,judgeSpeechMusic_20210519_logNormShiftAmp_mXs,2020.1.2,MacIntel,60,,,,,,,,,,,,,,2,6.79224,,0,0,137,137,99,1,stimuli/stim_20210519_power2amp/equal_lnn_AM2.5Hz_s55_17.m4a,,,
,,,,,,,,,,,,41234,2021-05-31_20h14.44.085,judgeSpeechMusic_20210519_logNormShiftAmp_mXs,2020.1.2,MacIntel,60,,,,,,,,,,,,,,2,23.69205,,0,0,138,138,116,1,stimuli/stim_20210519_power2amp/equal_lnn_AM4Hz_s25_25.m4a,,,
,,,,,,,,,,,,41234,2021-05-31_20h14.44.085,judgeSpeechMusic_20210519_logNormShiftAmp_mXs,2020.1.2,MacIntel,60,,,,,,,,,,,,,,2,8.48971,,0,0,139,139,63,1,stimuli/stim_20210519_power2amp/equal_lnn_AM2.5Hz_s25_44.m4a,,,
,,,,,,,,,,,,41234,2021-05-31_20h14.44.085,judgeSpeechMusic_20210519_logNormShiftAmp_mXs,2020.1.2,MacIntel,60,,,,,,,,,,,,,,2,6.09356,,0,0,140,140,72,1,stimuli/stim_20210519_power2amp/equal_lnn_AM2.5Hz_s35_21.m4a,,,
,,,,,,,,,,,,41234,2021-05-31_20h14.44.085,judgeSpeechMusic_20210519_logNormShiftAmp_mXs,2020.1.2,MacIntel,60,,,,,,,,,,,,,,2,8.54301,4,1,0,141,141,127,1,stimuli/stim_20210519_power2amp/equal_lnn_AM4Hz_s35_29.m4a,1.762125,,
,,,,,,,,,,,,41234,2021-05-31_20h14.44.085,judgeSpeechMusic_20210519_logNormShiftAmp_mXs,2020.1.2,MacIntel,60,,,,,,,,,,,,,,2,6.86043,,0,0,142,142,70,1,stimuli/stim_20210519_power2amp/equal_lnn_AM2.5Hz_s35_15.m4a,,,
,,,,,,,,,,,,41234,2021-05-31_20h14.44.085,judgeSpeechMusic_20210519_logNormShiftAmp_mXs,2020.1.2,MacIntel,60,,,,,,,,,,,,,,2,6.540895,,0,0,143,143,19,1,stimuli/stim_20210519_power2amp/equal_lnn_AM1Hz_s25_2.m4a,,,
,,,,,,,,,,,,41234,2021-05-31_20h14.44.085,judgeSpeechMusic_20210519_logNormShiftAmp_mXs,2020.1.2,MacIntel,60,,,,,,,,,,,,,,2,11.141895,,0,0,144,144,34,1,stimuli/stim_20210519_power2amp/equal_lnn_AM1Hz_s45_11.m4a,,,
,,,,,,,,,,,,41234,2021-05-31_20h14.44.085,judgeSpeechMusic_20210519_logNormShiftAmp_mXs,2020.1.2,MacIntel,60,,,,,,,,,,,,,,2,6.82947,,0,0,145,145,106,1,stimuli/stim_20210519_power2amp/equal_lnn_AM4Hz_s15_31.m4a,,,
,,,,,,,,,,,,41234,2021-05-31_20h14.44.085,judgeSpeechMusic_20210519_logNormShiftAmp_mXs,2020.1.2,MacIntel,60,,,,,,,,,,,,,,2,90.05611,,0,0,146,146,29,1,stimuli/stim_20210519_power2amp/equal_lnn_AM1Hz_s35_38.m4a,,,
,,,,,,,,,,,,41234,2021-05-31_20h14.44.085,judgeSpeechMusic_20210519_logNormShiftAmp_mXs,2020.1.2,MacIntel,60,,,,,,,,,,,,,,2,6.24242,,0,0,147,147,24,1,stimuli/stim_20210519_power2amp/equal_lnn_AM1Hz_s35_7.m4a,,,
,,,,,,,,,,,,41234,2021-05-31_20h14.44.085,judgeSpeechMusic_20210519_logNormShiftAmp_mXs,2020.1.2,MacIntel,60,,,,,,,,,,,,,,1,5.89368,,0,0,148,148,74,1,stimuli/stim_20210519_power2amp/equal_lnn_AM2.5Hz_s35_2.m4a,,,
,,,,,,,,,,,,41234,2021-05-31_20h14.44.085,judgeSpeechMusic_20210519_logNormShiftAmp_mXs,2020.1.2,MacIntel,60,,,,,,,,,,,,,,2,6.27499,,0,0,149,149,38,1,stimuli/stim_20210519_power2amp/equal_lnn_AM1Hz_s45_36.m4a,,,
,,,,,,,,,,,,41234,2021-05-31_20h14.44.085,judgeSpeechMusic_20210519_logNormShiftAmp_mXs,2020.1.2,MacIntel,60,,,,,,,,,,,,,,2,7.06124,,0,1,0,150,48,1,stimuli/stim_20210519_power2amp/equal_lnn_AM1Hz_s55_31.m4a,,,
,,,,,,,,,,,,41234,2021-05-31_20h14.44.085,judgeSpeechMusic_20210519_logNormShiftAmp_mXs,2020.1.2,MacIntel,60,,,,,,,,,,,,,,2,6.66344,,0,1,1,151,107,1,stimuli/stim_20210519_power2amp/equal_lnn_AM4Hz_s15_14.m4a,,,
,,,,,,,,,,,,41234,2021-05-31_20h14.44.085,judgeSpeechMusic_20210519_logNormShiftAmp_mXs,2020.1.2,MacIntel,60,,,,,,,,,,,,,,2,6.323845,,0,1,2,152,111,1,stimuli/stim_20210519_power2amp/equal_lnn_AM4Hz_s25_34.m4a,,,
,,,,,,,,,,,,41234,2021-05-31_20h14.44.085,judgeSpeechMusic_20210519_logNormShiftAmp_mXs,2020.1.2,MacIntel,60,,,,,,,,,,,,,,2,6.50931,,0,1,3,153,89,1,stimuli/stim_20210519_power2amp/equal_lnn_AM2.5Hz_s45_45.m4a,,,
,,,,,,,,,,,,41234,2021-05-31_20h14.44.085,judgeSpeechMusic_20210519_logNormShiftAmp_mXs,2020.1.2,MacIntel,60,,,,,,,,,,,,,,1,6.23904,,0,1,4,154,125,1,stimuli/stim_20210519_power2amp/equal_lnn_AM4Hz_s35_38.m4a,,,
,,,,,,,,,,,,41234,2021-05-31_20h14.44.085,judgeSpeechMusic_20210519_logNormShiftAmp_mXs,2020.1.2,MacIntel,60,,,,,,,,,,,,,,1,11.05705,,0,1,5,155,0,1,stimuli/stim_20210519_power2amp/equal_lnn_AM1Hz_s15_31.m4a,,,
,,,,,,,,,,,,41234,2021-05-31_20h14.44.085,judgeSpeechMusic_20210519_logNormShiftAmp_mXs,2020.1.2,MacIntel,60,,,,,,,,,,,,,,1,10.925685,,0,1,6,156,45,1,stimuli/stim_20210519_power2amp/equal_lnn_AM1Hz_s55_30.m4a,,,
,,,,,,,,,,,,41234,2021-05-31_20h14.44.085,judgeSpeechMusic_20210519_logNormShiftAmp_mXs,2020.1.2,MacIntel,60,,,,,,,,,,,,,,1,5.905555,,0,1,7,157,98,1,stimuli/stim_20210519_power2amp/equal_lnn_AM2.5Hz_s55_50.m4a,,,
,,,,,,,,,,,,41234,2021-05-31_20h14.44.085,judgeSpeechMusic_20210519_logNormShiftAmp_mXs,2020.1.2,MacIntel,60,,,,,,,,,,,,,,1,6.292425,,0,1,8,158,61,1,stimuli/stim_20210519_power2amp/equal_lnn_AM2.5Hz_s25_9.m4a,,,
,,,,,,,,,,,,41234,2021-05-31_20h14.44.085,judgeSpeechMusic_20210519_logNormShiftAmp_mXs,2020.1.2,MacIntel,60,,,,,,,,,,,,,,2,6.24008,,0,1,9,159,9,1,stimuli/stim_20210519_power2amp/equal_lnn_AM1Hz_s15_10.m4a,,,
,,,,,,,,,,,,41234,2021-05-31_20h14.44.085,judgeSpeechMusic_20210519_logNormShiftAmp_mXs,2020.1.2,MacIntel,60,,,,,,,,,,,,,,1,8.960665,,0,1,10,160,143,1,stimuli/stim_20210519_power2amp/equal_lnn_AM4Hz_s55_28.m4a,,,
,,,,,,,,,,,,41234,2021-05-31_20h14.44.085,judgeSpeechMusic_20210519_logNormShiftAmp_mXs,2020.1.2,MacIntel,60,,,,,,,,,,,,,,2,7.043295,,0,1,11,161,129,1,stimuli/stim_20210519_power2amp/equal_lnn_AM4Hz_s35_35.m4a,,,
,,,,,,,,,,,,41234,2021-05-31_20h14.44.085,judgeSpeechMusic_20210519_logNormShiftAmp_mXs,2020.1.2,MacIntel,60,,,,,,,,,,,,,,2,8.689375,,0,1,12,162,56,1,stimuli/stim_20210519_power2amp/equal_lnn_AM2.5Hz_s15_8.m4a,,,
,,,,,,,,,,,,41234,2021-05-31_20h14.44.085,judgeSpeechMusic_20210519_logNormShiftAmp_mXs,2020.1.2,MacIntel,60,,,,,,,,,,,,,,2,5.90867,4,1,1,13,163,13,1,stimuli/stim_20210519_power2amp/equal_lnn_AM1Hz_s25_29.m4a,2.16374,,
,,,,,,,,,,,,41234,2021-05-31_20h14.44.085,judgeSpeechMusic_20210519_logNormShiftAmp_mXs,2020.1.2,MacIntel,60,,,,,,,,,,,,,,2,7.772305,,0,1,14,164,11,1,stimuli/stim_20210519_power2amp/equal_lnn_AM1Hz_s25_34.m4a,,,
,,,,,,,,,,,,41234,2021-05-31_20h14.44.085,judgeSpeechMusic_20210519_logNormShiftAmp_mXs,2020.1.2,MacIntel,60,,,,,,,,,,,,,,2,5.924025,,0,1,15,165,5,1,stimuli/stim_20210519_power2amp/equal_lnn_AM1Hz_s15_22.m4a,,,
,,,,,,,,,,,,41234,2021-05-31_20h14.44.085,judgeSpeechMusic_20210519_logNormShiftAmp_mXs,2020.1.2,MacIntel,60,,,,,,,,,,,,,,2,6.090785,,0,1,16,166,64,1,stimuli/stim_20210519_power2amp/equal_lnn_AM2.5Hz_s25_30.m4a,,,
,,,,,,,,,,,,41234,2021-05-31_20h14.44.085,judgeSpeechMusic_20210519_logNormShiftAmp_mXs,2020.1.2,MacIntel,60,,,,,,,,,,,,,,2,6.025755,,0,1,17,167,112,1,stimuli/stim_20210519_power2amp/equal_lnn_AM4Hz_s25_7.m4a,,,
,,,,,,,,,,,,41234,2021-05-31_20h14.44.085,judgeSpeechMusic_20210519_logNormShiftAmp_mXs,2020.1.2,MacIntel,60,,,,,,,,,,,,,,2,6.225465,,0,1,18,168,70,1,stimuli/stim_20210519_power2amp/equal_lnn_AM2.5Hz_s35_15.m4a,,,
,,,,,,,,,,,,41234,2021-05-31_20h14.44.085,judgeSpeechMusic_20210519_logNormShiftAmp_mXs,2020.1.2,MacIntel,60,,,,,,,,,,,,,,2,5.74357,,0,1,19,169,41,1,stimuli/stim_20210519_power2amp/equal_lnn_AM1Hz_s55_4.m4a,,,
,,,,,,,,,,,,41234,2021-05-31_20h14.44.085,judgeSpeechMusic_20210519_logNormShiftAmp_mXs,2020.1.2,MacIntel,60,,,,,,,,,,,,,,2,6.15921,,0,1,20,170,6,1,stimuli/stim_20210519_power2amp/equal_lnn_AM1Hz_s15_35.m4a,,,
,,,,,,,,,,,,41234,2021-05-31_20h14.44.085,judgeSpeechMusic_20210519_logNormShiftAmp_mXs,2020.1.2,MacIntel,60,,,,,,,,,,,,,,2,6.125625,,0,1,21,171,77,1,stimuli/stim_20210519_power2amp/equal_lnn_AM2.5Hz_s35_22.m4a,,,
,,,,,,,,,,,,41234,2021-05-31_20h14.44.085,judgeSpeechMusic_20210519_logNormShiftAmp_mXs,2020.1.2,MacIntel,60,,,,,,,,,,,,,,2,9.774785,,0,1,22,172,117,1,stimuli/stim_20210519_power2amp/equal_lnn_AM4Hz_s25_19.m4a,,,
,,,,,,,,,,,,41234,2021-05-31_20h14.44.085,judgeSpeechMusic_20210519_logNormShiftAmp_mXs,2020.1.2,MacIntel,60,,,,,,,,,,,,,,2,30.07395,,0,1,23,173,39,1,stimuli/stim_20210519_power2amp/equal_lnn_AM1Hz_s45_26.m4a,,,
,,,,,,,,,,,,41234,2021-05-31_20h14.44.085,judgeSpeechMusic_20210519_logNormShiftAmp_mXs,2020.1.2,MacIntel,60,,,,,,,,,,,,,,2,6.224095,,0,1,24,174,137,1,stimuli/stim_20210519_power2amp/equal_lnn_AM4Hz_s45_22.m4a,,,
,,,,,,,,,,,,41234,2021-05-31_20h14.44.085,judgeSpeechMusic_20210519_logNormShiftAmp_mXs,2020.1.2,MacIntel,60,,,,,,,,,,,,,,2,6.82406,,0,1,25,175,67,1,stimuli/stim_20210519_power2amp/equal_lnn_AM2.5Hz_s25_3.m4a,,,
,,,,,,,,,,,,41234,2021-05-31_20h14.44.085,judgeSpeechMusic_20210519_logNormShiftAmp_mXs,2020.1.2,MacIntel,60,,,,,,,,,,,,,,2,17.058015,,0,1,26,176,78,1,stimuli/stim_20210519_power2amp/equal_lnn_AM2.5Hz_s35_29.m4a,,,
,,,,,,,,,,,,41234,2021-05-31_20h14.44.085,judgeSpeechMusic_20210519_logNormShiftAmp_mXs,2020.1.2,MacIntel,60,,,,,,,,,,,,,,2,7.49199,,0,1,27,177,22,1,stimuli/stim_20210519_power2amp/equal_lnn_AM1Hz_s35_36.m4a,,,
,,,,,,,,,,,,41234,2021-05-31_20h14.44.085,judgeSpeechMusic_20210519_logNormShiftAmp_mXs,2020.1.2,MacIntel,60,,,,,,,,,,,,,,2,8.395595,,0,1,28,178,122,1,stimuli/stim_20210519_power2amp/equal_lnn_AM4Hz_s35_37.m4a,,,
,,,,,,,,,,,,41234,2021-05-31_20h14.44.085,judgeSpeechMusic_20210519_logNormShiftAmp_mXs,2020.1.2,MacIntel,60,,,,,,,,,,,,,,2,11.05576,,0,1,29,179,82,1,stimuli/stim_20210519_power2amp/equal_lnn_AM2.5Hz_s45_8.m4a,,,
,,,,,,,,,,,,41234,2021-05-31_20h14.44.085,judgeSpeechMusic_20210519_logNormShiftAmp_mXs,2020.1.2,MacIntel,60,,,,,,,,,,,,,,2,6.27784,,0,1,30,180,83,1,stimuli/stim_20210519_power2amp/equal_lnn_AM2.5Hz_s45_42.m4a,,,
,,,,,,,,,,,,41234,2021-05-31_20h14.44.085,judgeSpeechMusic_20210519_logNormShiftAmp_mXs,2020.1.2,MacIntel,60,,,,,,,,,,,,,,1,9.02241,,0,1,31,181,121,1,stimuli/stim_20210519_power2amp/equal_lnn_AM4Hz_s35_32.m4a,,,
,,,,,,,,,,,,41234,2021-05-31_20h14.44.085,judgeSpeechMusic_20210519_logNormShiftAmp_mXs,2020.1.2,MacIntel,60,,,,,,,,,,,,,,2,32.309025,,0,1,32,182,108,1,stimuli/stim_20210519_power2amp/equal_lnn_AM4Hz_s15_46.m4a,,,
,,,,,,,,,,,,41234,2021-05-31_20h14.44.085,judgeSpeechMusic_20210519_logNormShiftAmp_mXs,2020.1.2,MacIntel,60,,,,,,,,,,,,,,2,34.191205,,0,1,33,183,147,1,stimuli/stim_20210519_power2amp/equal_lnn_AM4Hz_s55_19.m4a,,,
,,,,,,,,,,,,41234,2021-05-31_20h14.44.085,judgeSpeechMusic_20210519_logNormShiftAmp_mXs,2020.1.2,MacIntel,60,,,,,,,,,,,,,,1,6.27451,,0,1,34,184,133,1,stimuli/stim_20210519_power2amp/equal_lnn_AM4Hz_s45_4.m4a,,,
,,,,,,,,,,,,41234,2021-05-31_20h14.44.085,judgeSpeechMusic_20210519_logNormShiftAmp_mXs,2020.1.2,MacIntel,60,,,,,,,,,,,,,,1,7.370545,4,1,1,35,185,47,1,stimuli/stim_20210519_power2amp/equal_lnn_AM1Hz_s55_43.m4a,1.52909,,
,,,,,,,,,,,,41234,2021-05-31_20h14.44.085,judgeSpeechMusic_20210519_logNormShiftAmp_mXs,2020.1.2,MacIntel,60,,,,,,,,,,,,,,2,15.859285,,0,1,36,186,105,1,stimuli/stim_20210519_power2amp/equal_lnn_AM4Hz_s15_45.m4a,,,
,,,,,,,,,,,,41234,2021-05-31_20h14.44.085,judgeSpeechMusic_20210519_logNormShiftAmp_mXs,2020.1.2,MacIntel,60,,,,,,,,,,,,,,2,88.90703,,0,1,37,187,80,1,stimuli/stim_20210519_power2amp/equal_lnn_AM2.5Hz_s45_7.m4a,,,
,,,,,,,,,,,,41234,2021-05-31_20h14.44.085,judgeSpeechMusic_20210519_logNormShiftAmp_mXs,2020.1.2,MacIntel,60,,,,,,,,,,,,,,2,6.54317,,0,1,38,188,131,1,stimuli/stim_20210519_power2amp/equal_lnn_AM4Hz_s45_42.m4a,,,
,,,,,,,,,,,,41234,2021-05-31_20h14.44.085,judgeSpeechMusic_20210519_logNormShiftAmp_mXs,2020.1.2,MacIntel,60,,,,,,,,,,,,,,2,10.69248,,0,1,39,189,97,1,stimuli/stim_20210519_power2amp/equal_lnn_AM2.5Hz_s55_21.m4a,,,
,,,,,,,,,,,,41234,2021-05-31_20h14.44.085,judgeSpeechMusic_20210519_logNormShiftAmp_mXs,2020.1.2,MacIntel,60,,,,,,,,,,,,,,2,16.52495,,0,1,40,190,18,1,stimuli/stim_20210519_power2amp/equal_lnn_AM1Hz_s25_43.m4a,,,
,,,,,,,,,,,,41234,2021-05-31_20h14.44.085,judgeSpeechMusic_20210519_logNormShiftAmp_mXs,2020.1.2,MacIntel,60,,,,,,,,,,,,,,2,6.3583,,0,1,41,191,17,1,stimuli/stim_20210519_power2amp/equal_lnn_AM1Hz_s25_42.m4a,,,
,,,,,,,,,,,,41234,2021-05-31_20h14.44.085,judgeSpeechMusic_20210519_logNormShiftAmp_mXs,2020.1.2,MacIntel,60,,,,,,,,,,,,,,2,17.24765,,0,1,42,192,24,1,stimuli/stim_20210519_power2amp/equal_lnn_AM1Hz_s35_7.m4a,,,
,,,,,,,,,,,,41234,2021-05-31_20h14.44.085,judgeSpeechMusic_20210519_logNormShiftAmp_mXs,2020.1.2,MacIntel,60,,,,,,,,,,,,,,2,10.59168,,0,1,43,193,50,1,stimuli/stim_20210519_power2amp/equal_lnn_AM2.5Hz_s15_11.m4a,,,
,,,,,,,,,,,,41234,2021-05-31_20h14.44.085,judgeSpeechMusic_20210519_logNormShiftAmp_mXs,2020.1.2,MacIntel,60,,,,,,,,,,,,,,2,6.0897,,0,1,44,194,53,1,stimuli/stim_20210519_power2amp/equal_lnn_AM2.5Hz_s15_47.m4a,,,
,,,,,,,,,,,,41234,2021-05-31_20h14.44.085,judgeSpeechMusic_20210519_logNormShiftAmp_mXs,2020.1.2,MacIntel,60,,,,,,,,,,,,,,2,10.1258,,0,1,45,195,75,1,stimuli/stim_20210519_power2amp/equal_lnn_AM2.5Hz_s35_31.m4a,,,
,,,,,,,,,,,,41234,2021-05-31_20h14.44.085,judgeSpeechMusic_20210519_logNormShiftAmp_mXs,2020.1.2,MacIntel,60,,,,,,,,,,,,,,2,6.059435,,0,1,46,196,38,1,stimuli/stim_20210519_power2amp/equal_lnn_AM1Hz_s45_36.m4a,,,
,,,,,,,,,,,,41234,2021-05-31_20h14.44.085,judgeSpeechMusic_20210519_logNormShiftAmp_mXs,2020.1.2,MacIntel,60,,,,,,,,,,,,,,2,5.94271,,0,1,47,197,14,1,stimuli/stim_20210519_power2amp/equal_lnn_AM1Hz_s25_49.m4a,,,
,,,,,,,,,,,,41234,2021-05-31_20h14.44.085,judgeSpeechMusic_20210519_logNormShiftAmp_mXs,2020.1.2,MacIntel,60,,,,,,,,,,,,,,1,19.123605,,0,1,48,198,119,1,stimuli/stim_20210519_power2amp/equal_lnn_AM4Hz_s25_9.m4a,,,
,,,,,,,,,,,,41234,2021-05-31_20h14.44.085,judgeSpeechMusic_20210519_logNormShiftAmp_mXs,2020.1.2,MacIntel,60,,,,,,,,,,,,,,2,22.495215,,0,1,49,199,124,1,stimuli/stim_20210519_power2amp/equal_lnn_AM4Hz_s35_17.m4a,,,
,,,,,,,,,,,,41234,2021-05-31_20h14.44.085,judgeSpeechMusic_20210519_logNormShiftAmp_mXs,2020.1.2,MacIntel,60,,,,,,,,,,,,,,2,17.759375,,0,1,50,200,144,1,stimuli/stim_20210519_power2amp/equal_lnn_AM4Hz_s55_7.m4a,,,
,,,,,,,,,,,,41234,2021-05-31_20h14.44.085,judgeSpeechMusic_20210519_logNormShiftAmp_mXs,2020.1.2,MacIntel,60,,,,,,,,,,,,,,1,7.125565,,0,1,51,201,81,1,stimuli/stim_20210519_power2amp/equal_lnn_AM2.5Hz_s45_12.m4a,,,
,,,,,,,,,,,,41234,2021-05-31_20h14.44.085,judgeSpeechMusic_20210519_logNormShiftAmp_mXs,2020.1.2,MacIntel,60,,,,,,,,,,,,,,1,7.15885,,0,1,52,202,115,1,stimuli/stim_20210519_power2amp/equal_lnn_AM4Hz_s25_23.m4a,,,
,,,,,,,,,,,,41234,2021-05-31_20h14.44.085,judgeSpeechMusic_20210519_logNormShiftAmp_mXs,2020.1.2,MacIntel,60,,,,,,,,,,,,,,2,6.72445,,0,1,53,203,10,1,stimuli/stim_20210519_power2amp/equal_lnn_AM1Hz_s25_38.m4a,,,
,,,,,,,,,,,,41234,2021-05-31_20h14.44.085,judgeSpeechMusic_20210519_logNormShiftAmp_mXs,2020.1.2,MacIntel,60,,,,,,,,,,,,,,2,23.02463,,0,1,54,204,93,1,stimuli/stim_20210519_power2amp/equal_lnn_AM2.5Hz_s55_1.m4a,,,
,,,,,,,,,,,,41234,2021-05-31_20h14.44.085,judgeSpeechMusic_20210519_logNormShiftAmp_mXs,2020.1.2,MacIntel,60,,,,,,,,,,,,,,2,30.24179,,0,1,55,205,118,1,stimuli/stim_20210519_power2amp/equal_lnn_AM4Hz_s25_14.m4a,,,
,,,,,,,,,,,,41234,2021-05-31_20h14.44.085,judgeSpeechMusic_20210519_logNormShiftAmp_mXs,2020.1.2,MacIntel,60,,,,,,,,,,,,,,2,19.25845,1,1,1,56,206,55,1,stimuli/stim_20210519_power2amp/equal_lnn_AM2.5Hz_s15_5.m4a,1.545355,,
,,,,,,,,,,,,41234,2021-05-31_20h14.44.085,judgeSpeechMusic_20210519_logNormShiftAmp_mXs,2020.1.2,MacIntel,60,,,,,,,,,,,,,,1,7.44121,,0,1,57,207,146,1,stimuli/stim_20210519_power2amp/equal_lnn_AM4Hz_s55_42.m4a,,,
,,,,,,,,,,,,41234,2021-05-31_20h14.44.085,judgeSpeechMusic_20210519_logNormShiftAmp_mXs,2020.1.2,MacIntel,60,,,,,,,,,,,,,,1,7.12605,,0,1,58,208,120,1,stimuli/stim_20210519_power2amp/equal_lnn_AM4Hz_s35_15.m4a,,,
,,,,,,,,,,,,41234,2021-05-31_20h14.44.085,judgeSpeechMusic_20210519_logNormShiftAmp_mXs,2020.1.2,MacIntel,60,,,,,,,,,,,,,,2,5.80706,,0,1,59,209,91,1,stimuli/stim_20210519_power2amp/equal_lnn_AM2.5Hz_s55_20.m4a,,,
,,,,,,,,,,,,41234,2021-05-31_20h14.44.085,judgeSpeechMusic_20210519_logNormShiftAmp_mXs,2020.1.2,MacIntel,60,,,,,,,,,,,,,,2,6.441785,,0,1,60,210,7,1,stimuli/stim_20210519_power2amp/equal_lnn_AM1Hz_s15_46.m4a,,,
,,,,,,,,,,,,41234,2021-05-31_20h14.44.085,judgeSpeechMusic_20210519_logNormShiftAmp_mXs,2020.1.2,MacIntel,60,,,,,,,,,,,,,,1,6.061,,0,1,61,211,114,1,stimuli/stim_20210519_power2amp/equal_lnn_AM4Hz_s25_50.m4a,,,
,,,,,,,,,,,,41234,2021-05-31_20h14.44.085,judgeSpeechMusic_20210519_logNormShiftAmp_mXs,2020.1.2,MacIntel,60,,,,,,,,,,,,,,2,7.03957,,0,1,62,212,43,1,stimuli/stim_20210519_power2amp/equal_lnn_AM1Hz_s55_22.m4a,,,
,,,,,,,,,,,,41234,2021-05-31_20h14.44.085,judgeSpeechMusic_20210519_logNormShiftAmp_mXs,2020.1.2,MacIntel,60,,,,,,,,,,,,,,2,6.12443,,0,1,63,213,23,1,stimuli/stim_20210519_power2amp/equal_lnn_AM1Hz_s35_22.m4a,,,
,,,,,,,,,,,,41234,2021-05-31_20h14.44.085,judgeSpeechMusic_20210519_logNormShiftAmp_mXs,2020.1.2,MacIntel,60,,,,,,,,,,,,,,2,6.097945,,0,1,64,214,104,1,stimuli/stim_20210519_power2amp/equal_lnn_AM4Hz_s15_12.m4a,,,
,,,,,,,,,,,,41234,2021-05-31_20h14.44.085,judgeSpeechMusic_20210519_logNormShiftAmp_mXs,2020.1.2,MacIntel,60,,,,,,,,,,,,,,2,5.97217,,0,1,65,215,74,1,stimuli/stim_20210519_power2amp/equal_lnn_AM2.5Hz_s35_2.m4a,,,
,,,,,,,,,,,,41234,2021-05-31_20h14.44.085,judgeSpeechMusic_20210519_logNormShiftAmp_mXs,2020.1.2,MacIntel,60,,,,,,,,,,,,,,1,7.39153,,0,1,66,216,63,1,stimuli/stim_20210519_power2amp/equal_lnn_AM2.5Hz_s25_44.m4a,,,
,,,,,,,,,,,,41234,2021-05-31_20h14.44.085,judgeSpeechMusic_20210519_logNormShiftAmp_mXs,2020.1.2,MacIntel,60,,,,,,,,,,,,,,2,7.042055,,0,1,67,217,37,1,stimuli/stim_20210519_power2amp/equal_lnn_AM1Hz_s45_30.m4a,,,
,,,,,,,,,,,,41234,2021-05-31_20h14.44.085,judgeSpeechMusic_20210519_logNormShiftAmp_mXs,2020.1.2,MacIntel,60,,,,,,,,,,,,,,1,5.99625,,0,1,68,218,79,1,stimuli/stim_20210519_power2amp/equal_lnn_AM2.5Hz_s35_27.m4a,,,
,,,,,,,,,,,,41234,2021-05-31_20h14.44.085,judgeSpeechMusic_20210519_logNormShiftAmp_mXs,2020.1.2,MacIntel,60,,,,,,,,,,,,,,1,6.023405,,0,1,69,219,49,1,stimuli/stim_20210519_power2amp/equal_lnn_AM1Hz_s55_38.m4a,,,
,,,,,,,,,,,,41234,2021-05-31_20h14.44.085,judgeSpeechMusic_20210519_logNormShiftAmp_mXs,2020.1.2,MacIntel,60,,,,,,,,,,,,,,2,6.542635,,0,1,70,220,33,1,stimuli/stim_20210519_power2amp/equal_lnn_AM1Hz_s45_24.m4a,,,
,,,,,,,,,,,,41234,2021-05-31_20h14.44.085,judgeSpeechMusic_20210519_logNormShiftAmp_mXs,2020.1.2,MacIntel,60,,,,,,,,,,,,,,1,8.727215,,0,1,71,221,34,1,stimuli/stim_20210519_power2amp/equal_lnn_AM1Hz_s45_11.m4a,,,
,,,,,,,,,,,,41234,2021-05-31_20h14.44.085,judgeSpeechMusic_20210519_logNormShiftAmp_mXs,2020.1.2,MacIntel,60,,,,,,,,,,,,,,2,6.47427,,0,1,72,222,28,1,stimuli/stim_20210519_power2amp/equal_lnn_AM1Hz_s35_25.m4a,,,
,,,,,,,,,,,,41234,2021-05-31_20h14.44.085,judgeSpeechMusic_20210519_logNormShiftAmp_mXs,2020.1.2,MacIntel,60,,,,,,,,,,,,,,2,6.1436,,0,1,73,223,73,1,stimuli/stim_20210519_power2amp/equal_lnn_AM2.5Hz_s35_19.m4a,,,
,,,,,,,,,,,,41234,2021-05-31_20h14.44.085,judgeSpeechMusic_20210519_logNormShiftAmp_mXs,2020.1.2,MacIntel,60,,,,,,,,,,,,,,2,5.909645,,0,1,74,224,99,1,stimuli/stim_20210519_power2amp/equal_lnn_AM2.5Hz_s55_17.m4a,,,
,,,,,,,,,,,,41234,2021-05-31_20h14.44.085,judgeSpeechMusic_20210519_logNormShiftAmp_mXs,2020.1.2,MacIntel,60,,,,,,,,,,,,,,2,12.392215,,0,1,75,225,20,1,stimuli/stim_20210519_power2amp/equal_lnn_AM1Hz_s35_43.m4a,,,
,,,,,,,,,,,,41234,2021-05-31_20h14.44.085,judgeSpeechMusic_20210519_logNormShiftAmp_mXs,2020.1.2,MacIntel,60,,,,,,,,,,,,,,1,7.25754,,0,1,76,226,57,1,stimuli/stim_20210519_power2amp/equal_lnn_AM2.5Hz_s15_23.m4a,,,
,,,,,,,,,,,,41234,2021-05-31_20h14.44.085,judgeSpeechMusic_20210519_logNormShiftAmp_mXs,2020.1.2,MacIntel,60,,,,,,,,,,,,,,2,6.80518,,0,1,77,227,15,1,stimuli/stim_20210519_power2amp/equal_lnn_AM1Hz_s25_31.m4a,,,
,,,,,,,,,,,,41234,2021-05-31_20h14.44.085,judgeSpeechMusic_20210519_logNormShiftAmp_mXs,2020.1.2,MacIntel,60,,,,,,,,,,,,,,2,6.35655,,0,1,78,228,136,1,stimuli/stim_20210519_power2amp/equal_lnn_AM4Hz_s45_39.m4a,,,
,,,,,,,,,,,,41234,2021-05-31_20h14.44.085,judgeSpeechMusic_20210519_logNormShiftAmp_mXs,2020.1.2,MacIntel,60,,,,,,,,,,,,,,2,6.008505,,0,1,79,229,127,1,stimuli/stim_20210519_power2amp/equal_lnn_AM4Hz_s35_29.m4a,,,
,,,,,,,,,,,,41234,2021-05-31_20h14.44.085,judgeSpeechMusic_20210519_logNormShiftAmp_mXs,2020.1.2,MacIntel,60,,,,,,,,,,,,,,2,6.95924,,0,1,80,230,26,1,stimuli/stim_20210519_power2amp/equal_lnn_AM1Hz_s35_44.m4a,,,
,,,,,,,,,,,,41234,2021-05-31_20h14.44.085,judgeSpeechMusic_20210519_logNormShiftAmp_mXs,2020.1.2,MacIntel,60,,,,,,,,,,,,,,2,6.31957,2,1,1,81,231,88,1,stimuli/stim_20210519_power2amp/equal_lnn_AM2.5Hz_s45_1.m4a,1.496965,,
,,,,,,,,,,,,41234,2021-05-31_20h14.44.085,judgeSpeechMusic_20210519_logNormShiftAmp_mXs,2020.1.2,MacIntel,60,,,,,,,,,,,,,,2,6.124795,,0,1,82,232,96,1,stimuli/stim_20210519_power2amp/equal_lnn_AM2.5Hz_s55_31.m4a,,,
,,,,,,,,,,,,41234,2021-05-31_20h14.44.085,judgeSpeechMusic_20210519_logNormShiftAmp_mXs,2020.1.2,MacIntel,60,,,,,,,,,,,,,,2,6.174805,,0,1,83,233,8,1,stimuli/stim_20210519_power2amp/equal_lnn_AM1Hz_s15_5.m4a,,,
,,,,,,,,,,,,41234,2021-05-31_20h14.44.085,judgeSpeechMusic_20210519_logNormShiftAmp_mXs,2020.1.2,MacIntel,60,,,,,,,,,,,,,,2,6.47543,,0,1,84,234,66,1,stimuli/stim_20210519_power2amp/equal_lnn_AM2.5Hz_s25_46.m4a,,,
,,,,,,,,,,,,41234,2021-05-31_20h14.44.085,judgeSpeechMusic_20210519_logNormShiftAmp_mXs,2020.1.2,MacIntel,60,,,,,,,,,,,,,,2,6.958885,,0,1,85,235,71,1,stimuli/stim_20210519_power2amp/equal_lnn_AM2.5Hz_s35_3.m4a,,,
,,,,,,,,,,,,41234,2021-05-31_20h14.44.085,judgeSpeechMusic_20210519_logNormShiftAmp_mXs,2020.1.2,MacIntel,60,,,,,,,,,,,,,,1,6.325155,,0,1,86,236,110,1,stimuli/stim_20210519_power2amp/equal_lnn_AM4Hz_s25_4.m4a,,,
,,,,,,,,,,,,41234,2021-05-31_20h14.44.085,judgeSpeechMusic_20210519_logNormShiftAmp_mXs,2020.1.2,MacIntel,60,,,,,,,,,,,,,,1,6.09023,,0,1,87,237,138,1,stimuli/stim_20210519_power2amp/equal_lnn_AM4Hz_s45_15.m4a,,,
,,,,,,,,,,,,41234,2021-05-31_20h14.44.085,judgeSpeechMusic_20210519_logNormShiftAmp_mXs,2020.1.2,MacIntel,60,,,,,,,,,,,,,,1,5.69368,,0,1,88,238,101,1,stimuli/stim_20210519_power2amp/equal_lnn_AM4Hz_s15_16.m4a,,,
,,,,,,,,,,,,41234,2021-05-31_20h14.44.085,judgeSpeechMusic_20210519_logNormShiftAmp_mXs,2020.1.2,MacIntel,60,,,,,,,,,,,,,,1,6.3242,,0,1,89,239,95,1,stimuli/stim_20210519_power2amp/equal_lnn_AM2.5Hz_s55_23.m4a,,,
,,,,,,,,,,,,41234,2021-05-31_20h14.44.085,judgeSpeechMusic_20210519_logNormShiftAmp_mXs,2020.1.2,MacIntel,60,,,,,,,,,,,,,,2,6.594505,,0,1,90,240,60,1,stimuli/stim_20210519_power2amp/equal_lnn_AM2.5Hz_s25_31.m4a,,,
,,,,,,,,,,,,41234,2021-05-31_20h14.44.085,judgeSpeechMusic_20210519_logNormShiftAmp_mXs,2020.1.2,MacIntel,60,,,,,,,,,,,,,,2,6.0083,,0,1,91,241,30,1,stimuli/stim_20210519_power2amp/equal_lnn_AM1Hz_s45_47.m4a,,,
,,,,,,,,,,,,41234,2021-05-31_20h14.44.085,judgeSpeechMusic_20210519_logNormShiftAmp_mXs,2020.1.2,MacIntel,60,,,,,,,,,,,,,,1,5.744425,,0,1,92,242,51,1,stimuli/stim_20210519_power2amp/equal_lnn_AM2.5Hz_s15_14.m4a,,,
,,,,,,,,,,,,41234,2021-05-31_20h14.44.085,judgeSpeechMusic_20210519_logNormShiftAmp_mXs,2020.1.2,MacIntel,60,,,,,,,,,,,,,,1,6.14109,,0,1,93,243,116,1,stimuli/stim_20210519_power2amp/equal_lnn_AM4Hz_s25_25.m4a,,,
,,,,,,,,,,,,41234,2021-05-31_20h14.44.085,judgeSpeechMusic_20210519_logNormShiftAmp_mXs,2020.1.2,MacIntel,60,,,,,,,,,,,,,,2,6.075705,,0,1,94,244,86,1,stimuli/stim_20210519_power2amp/equal_lnn_AM2.5Hz_s45_20.m4a,,,
,,,,,,,,,,,,41234,2021-05-31_20h14.44.085,judgeSpeechMusic_20210519_logNormShiftAmp_mXs,2020.1.2,MacIntel,60,,,,,,,,,,,,,,1,6.20819,,0,1,95,245,84,1,stimuli/stim_20210519_power2amp/equal_lnn_AM2.5Hz_s45_9.m4a,,,
,,,,,,,,,,,,41234,2021-05-31_20h14.44.085,judgeSpeechMusic_20210519_logNormShiftAmp_mXs,2020.1.2,MacIntel,60,,,,,,,,,,,,,,2,6.09368,,0,1,96,246,35,1,stimuli/stim_20210519_power2amp/equal_lnn_AM1Hz_s45_28.m4a,,,
,,,,,,,,,,,,41234,2021-05-31_20h14.44.085,judgeSpeechMusic_20210519_logNormShiftAmp_mXs,2020.1.2,MacIntel,60,,,,,,,,,,,,,,2,13.03988,,0,1,97,247,85,1,stimuli/stim_20210519_power2amp/equal_lnn_AM2.5Hz_s45_31.m4a,,,
,,,,,,,,,,,,41234,2021-05-31_20h14.44.085,judgeSpeechMusic_20210519_logNormShiftAmp_mXs,2020.1.2,MacIntel,60,,,,,,,,,,,,,,2,37.691215,,0,1,98,248,72,1,stimuli/stim_20210519_power2amp/equal_lnn_AM2.5Hz_s35_21.m4a,,,
,,,,,,,,,,,,41234,2021-05-31_20h14.44.085,judgeSpeechMusic_20210519_logNormShiftAmp_mXs,2020.1.2,MacIntel,60,,,,,,,,,,,,,,2,6.525435,,0,1,99,249,87,1,stimuli/stim_20210519_power2amp/equal_lnn_AM2.5Hz_s45_4.m4a,,,
,,,,,,,,,,,,41234,2021-05-31_20h14.44.085,judgeSpeechMusic_20210519_logNormShiftAmp_mXs,2020.1.2,MacIntel,60,,,,,,,,,,,,,,2,6.16273,,0,1,100,250,16,1,stimuli/stim_20210519_power2amp/equal_lnn_AM1Hz_s25_21.m4a,,,
,,,,,,,,,,,,41234,2021-05-31_20h14.44.085,judgeSpeechMusic_20210519_logNormShiftAmp_mXs,2020.1.2,MacIntel,60,,,,,,,,,,,,,,2,15.5121,,0,1,101,251,40,1,stimuli/stim_20210519_power2amp/equal_lnn_AM1Hz_s55_41.m4a,,,
,,,,,,,,,,,,41234,2021-05-31_20h14.44.085,judgeSpeechMusic_20210519_logNormShiftAmp_mXs,2020.1.2,MacIntel,60,,,,,,,,,,,,,,1,7.10477,4,1,1,102,252,139,1,stimuli/stim_20210519_power2amp/equal_lnn_AM4Hz_s45_47.m4a,1.63003,,
,,,,,,,,,,,,41234,2021-05-31_20h14.44.085,judgeSpeechMusic_20210519_logNormShiftAmp_mXs,2020.1.2,MacIntel,60,,,,,,,,,,,,,,2,7.873645,,0,1,103,253,21,1,stimuli/stim_20210519_power2amp/equal_lnn_AM1Hz_s35_13.m4a,,,
,,,,,,,,,,,,41234,2021-05-31_20h14.44.085,judgeSpeechMusic_20210519_logNormShiftAmp_mXs,2020.1.2,MacIntel,60,,,,,,,,,,,,,,2,16.54153,,0,1,104,254,135,1,stimuli/stim_20210519_power2amp/equal_lnn_AM4Hz_s45_44.m4a,,,
,,,,,,,,,,,,41234,2021-05-31_20h14.44.085,judgeSpeechMusic_20210519_logNormShiftAmp_mXs,2020.1.2,MacIntel,60,,,,,,,,,,,,,,1,6.2751,,0,1,105,255,113,1,stimuli/stim_20210519_power2amp/equal_lnn_AM4Hz_s25_24.m4a,,,
,,,,,,,,,,,,41234,2021-05-31_20h14.44.085,judgeSpeechMusic_20210519_logNormShiftAmp_mXs,2020.1.2,MacIntel,60,,,,,,,,,,,,,,1,6.30579,,0,1,106,256,100,1,stimuli/stim_20210519_power2amp/equal_lnn_AM4Hz_s15_13.m4a,,,
,,,,,,,,,,,,41234,2021-05-31_20h14.44.085,judgeSpeechMusic_20210519_logNormShiftAmp_mXs,2020.1.2,MacIntel,60,,,,,,,,,,,,,,1,6.49219,,0,1,107,257,36,1,stimuli/stim_20210519_power2amp/equal_lnn_AM1Hz_s45_8.m4a,,,
,,,,,,,,,,,,41234,2021-05-31_20h14.44.085,judgeSpeechMusic_20210519_logNormShiftAmp_mXs,2020.1.2,MacIntel,60,,,,,,,,,,,,,,1,6.112265,,0,1,108,258,148,1,stimuli/stim_20210519_power2amp/equal_lnn_AM4Hz_s55_34.m4a,,,
,,,,,,,,,,,,41234,2021-05-31_20h14.44.085,judgeSpeechMusic_20210519_logNormShiftAmp_mXs,2020.1.2,MacIntel,60,,,,,,,,,,,,,,1,6.19015,,0,1,109,259,134,1,stimuli/stim_20210519_power2amp/equal_lnn_AM4Hz_s45_10.m4a,,,
,,,,,,,,,,,,41234,2021-05-31_20h14.44.085,judgeSpeechMusic_20210519_logNormShiftAmp_mXs,2020.1.2,MacIntel,60,,,,,,,,,,,,,,2,6.326765,,0,1,110,260,1,1,stimuli/stim_20210519_power2amp/equal_lnn_AM1Hz_s15_24.m4a,,,
,,,,,,,,,,,,41234,2021-05-31_20h14.44.085,judgeSpeechMusic_20210519_logNormShiftAmp_mXs,2020.1.2,MacIntel,60,,,,,,,,,,,,,,1,6.360795,,0,1,111,261,106,1,stimuli/stim_20210519_power2amp/equal_lnn_AM4Hz_s15_31.m4a,,,
,,,,,,,,,,,,41234,2021-05-31_20h14.44.085,judgeSpeechMusic_20210519_logNormShiftAmp_mXs,2020.1.2,MacIntel,60,,,,,,,,,,,,,,1,5.77371,,0,1,112,262,123,1,stimuli/stim_20210519_power2amp/equal_lnn_AM4Hz_s35_26.m4a,,,
,,,,,,,,,,,,41234,2021-05-31_20h14.44.085,judgeSpeechMusic_20210519_logNormShiftAmp_mXs,2020.1.2,MacIntel,60,,,,,,,,,,,,,,2,6.64164,,0,1,113,263,4,1,stimuli/stim_20210519_power2amp/equal_lnn_AM1Hz_s15_44.m4a,,,
,,,,,,,,,,,,41234,2021-05-31_20h14.44.085,judgeSpeechMusic_20210519_logNormShiftAmp_mXs,2020.1.2,MacIntel,60,,,,,,,,,,,,,,1,6.47488,,0,1,114,264,141,1,stimuli/stim_20210519_power2amp/equal_lnn_AM4Hz_s55_2.m4a,,,
,,,,,,,,,,,,41234,2021-05-31_20h14.44.085,judgeSpeechMusic_20210519_logNormShiftAmp_mXs,2020.1.2,MacIntel,60,,,,,,,,,,,,,,2,6.511945,,0,1,115,265,44,1,stimuli/stim_20210519_power2amp/equal_lnn_AM1Hz_s55_3.m4a,,,
,,,,,,,,,,,,41234,2021-05-31_20h14.44.085,judgeSpeechMusic_20210519_logNormShiftAmp_mXs,2020.1.2,MacIntel,60,,,,,,,,,,,,,,1,6.572985,,0,1,116,266,25,1,stimuli/stim_20210519_power2amp/equal_lnn_AM1Hz_s35_39.m4a,,,
,,,,,,,,,,,,41234,2021-05-31_20h14.44.085,judgeSpeechMusic_20210519_logNormShiftAmp_mXs,2020.1.2,MacIntel,60,,,,,,,,,,,,,,1,6.24187,,0,1,117,267,130,1,stimuli/stim_20210519_power2amp/equal_lnn_AM4Hz_s45_49.m4a,,,
,,,,,,,,,,,,41234,2021-05-31_20h14.44.085,judgeSpeechMusic_20210519_logNormShiftAmp_mXs,2020.1.2,MacIntel,60,,,,,,,,,,,,,,2,5.7124,,0,1,118,268,2,1,stimuli/stim_20210519_power2amp/equal_lnn_AM1Hz_s15_29.m4a,,,
,,,,,,,,,,,,41234,2021-05-31_20h14.44.085,judgeSpeechMusic_20210519_logNormShiftAmp_mXs,2020.1.2,MacIntel,60,,,,,,,,,,,,,,1,6.83872,,0,1,119,269,27,1,stimuli/stim_20210519_power2amp/equal_lnn_AM1Hz_s35_23.m4a,,,
,,,,,,,,,,,,41234,2021-05-31_20h14.44.085,judgeSpeechMusic_20210519_logNormShiftAmp_mXs,2020.1.2,MacIntel,60,,,,,,,,,,,,,,1,6.24333,,0,1,120,270,126,1,stimuli/stim_20210519_power2amp/equal_lnn_AM4Hz_s35_5.m4a,,,
,,,,,,,,,,,,41234,2021-05-31_20h14.44.085,judgeSpeechMusic_20210519_logNormShiftAmp_mXs,2020.1.2,MacIntel,60,,,,,,,,,,,,,,1,14.75893,,0,1,121,271,68,1,stimuli/stim_20210519_power2amp/equal_lnn_AM2.5Hz_s25_4.m4a,,,
,,,,,,,,,,,,41234,2021-05-31_20h14.44.085,judgeSpeechMusic_20210519_logNormShiftAmp_mXs,2020.1.2,MacIntel,60,,,,,,,,,,,,,,1,6.42453,,0,1,122,272,62,1,stimuli/stim_20210519_power2amp/equal_lnn_AM2.5Hz_s25_23.m4a,,,
,,,,,,,,,,,,41234,2021-05-31_20h14.44.085,judgeSpeechMusic_20210519_logNormShiftAmp_mXs,2020.1.2,MacIntel,60,,,,,,,,,,,,,,1,5.975675,,0,1,123,273,109,1,stimuli/stim_20210519_power2amp/equal_lnn_AM4Hz_s15_33.m4a,,,
,,,,,,,,,,,,41234,2021-05-31_20h14.44.085,judgeSpeechMusic_20210519_logNormShiftAmp_mXs,2020.1.2,MacIntel,60,,,,,,,,,,,,,,1,5.87348,,0,1,124,274,76,1,stimuli/stim_20210519_power2amp/equal_lnn_AM2.5Hz_s35_7.m4a,,,
,,,,,,,,,,,,41234,2021-05-31_20h14.44.085,judgeSpeechMusic_20210519_logNormShiftAmp_mXs,2020.1.2,MacIntel,60,,,,,,,,,,,,,,1,5.926515,,0,1,125,275,149,1,stimuli/stim_20210519_power2amp/equal_lnn_AM4Hz_s55_8.m4a,,,
,,,,,,,,,,,,41234,2021-05-31_20h14.44.085,judgeSpeechMusic_20210519_logNormShiftAmp_mXs,2020.1.2,MacIntel,60,,,,,,,,,,,,,,1,6.34394,3,0,1,126,276,92,1,stimuli/stim_20210519_power2amp/equal_lnn_AM2.5Hz_s55_6.m4a,2.37871,,
,,,,,,,,,,,,41234,2021-05-31_20h14.44.085,judgeSpeechMusic_20210519_logNormShiftAmp_mXs,2020.1.2,MacIntel,60,,,,,,,,,,,,,,1,6.490995,,0,1,127,277,90,1,stimuli/stim_20210519_power2amp/equal_lnn_AM2.5Hz_s55_49.m4a,,,
,,,,,,,,,,,,41234,2021-05-31_20h14.44.085,judgeSpeechMusic_20210519_logNormShiftAmp_mXs,2020.1.2,MacIntel,60,,,,,,,,,,,,,,1,6.857565,,0,1,128,278,3,1,stimuli/stim_20210519_power2amp/equal_lnn_AM1Hz_s15_27.m4a,,,
,,,,,,,,,,,,41234,2021-05-31_20h14.44.085,judgeSpeechMusic_20210519_logNormShiftAmp_mXs,2020.1.2,MacIntel,60,,,,,,,,,,,,,,2,6.891525,,0,1,129,279,52,1,stimuli/stim_20210519_power2amp/equal_lnn_AM2.5Hz_s15_50.m4a,,,
,,,,,,,,,,,,41234,2021-05-31_20h14.44.085,judgeSpeechMusic_20210519_logNormShiftAmp_mXs,2020.1.2,MacIntel,60,,,,,,,,,,,,,,2,6.39293,,0,1,130,280,29,1,stimuli/stim_20210519_power2amp/equal_lnn_AM1Hz_s35_38.m4a,,,
,,,,,,,,,,,,41234,2021-05-31_20h14.44.085,judgeSpeechMusic_20210519_logNormShiftAmp_mXs,2020.1.2,MacIntel,60,,,,,,,,,,,,,,1,29.84258,,0,1,131,281,54,1,stimuli/stim_20210519_power2amp/equal_lnn_AM2.5Hz_s15_21.m4a,,,
,,,,,,,,,,,,41234,2021-05-31_20h14.44.085,judgeSpeechMusic_20210519_logNormShiftAmp_mXs,2020.1.2,MacIntel,60,,,,,,,,,,,,,,1,6.196175,,0,1,132,282,59,1,stimuli/stim_20210519_power2amp/equal_lnn_AM2.5Hz_s15_41.m4a,,,
,,,,,,,,,,,,41234,2021-05-31_20h14.44.085,judgeSpeechMusic_20210519_logNormShiftAmp_mXs,2020.1.2,MacIntel,60,,,,,,,,,,,,,,1,21.70728,,0,1,133,283,132,1,stimuli/stim_20210519_power2amp/equal_lnn_AM4Hz_s45_14.m4a,,,
,,,,,,,,,,,,41234,2021-05-31_20h14.44.085,judgeSpeechMusic_20210519_logNormShiftAmp_mXs,2020.1.2,MacIntel,60,,,,,,,,,,,,,,1,7.02344,,0,1,134,284,46,1,stimuli/stim_20210519_power2amp/equal_lnn_AM1Hz_s55_16.m4a,,,
,,,,,,,,,,,,41234,2021-05-31_20h14.44.085,judgeSpeechMusic_20210519_logNormShiftAmp_mXs,2020.1.2,MacIntel,60,,,,,,,,,,,,,,1,24.69109,,0,1,135,285,31,1,stimuli/stim_20210519_power2amp/equal_lnn_AM1Hz_s45_2.m4a,,,
,,,,,,,,,,,,41234,2021-05-31_20h14.44.085,judgeSpeechMusic_20210519_logNormShiftAmp_mXs,2020.1.2,MacIntel,60,,,,,,,,,,,,,,1,6.00515,,0,1,136,286,69,1,stimuli/stim_20210519_power2amp/equal_lnn_AM2.5Hz_s25_22.m4a,,,
,,,,,,,,,,,,41234,2021-05-31_20h14.44.085,judgeSpeechMusic_20210519_logNormShiftAmp_mXs,2020.1.2,MacIntel,60,,,,,,,,,,,,,,1,6.126745,,0,1,137,287,58,1,stimuli/stim_20210519_power2amp/equal_lnn_AM2.5Hz_s15_2.m4a,,,
,,,,,,,,,,,,41234,2021-05-31_20h14.44.085,judgeSpeechMusic_20210519_logNormShiftAmp_mXs,2020.1.2,MacIntel,60,,,,,,,,,,,,,,2,6.507985,,0,1,138,288,32,1,stimuli/stim_20210519_power2amp/equal_lnn_AM1Hz_s45_22.m4a,,,
,,,,,,,,,,,,41234,2021-05-31_20h14.44.085,judgeSpeechMusic_20210519_logNormShiftAmp_mXs,2020.1.2,MacIntel,60,,,,,,,,,,,,,,1,7.040765,,0,1,139,289,103,1,stimuli/stim_20210519_power2amp/equal_lnn_AM4Hz_s15_30.m4a,,,
,,,,,,,,,,,,41234,2021-05-31_20h14.44.085,judgeSpeechMusic_20210519_logNormShiftAmp_mXs,2020.1.2,MacIntel,60,,,,,,,,,,,,,,2,6.47953,,0,1,140,290,19,1,stimuli/stim_20210519_power2amp/equal_lnn_AM1Hz_s25_2.m4a,,,
,,,,,,,,,,,,41234,2021-05-31_20h14.44.085,judgeSpeechMusic_20210519_logNormShiftAmp_mXs,2020.1.2,MacIntel,60,,,,,,,,,,,,,,2,6.32432,,0,1,141,291,12,1,stimuli/stim_20210519_power2amp/equal_lnn_AM1Hz_s25_40.m4a,,,
,,,,,,,,,,,,41234,2021-05-31_20h14.44.085,judgeSpeechMusic_20210519_logNormShiftAmp_mXs,2020.1.2,MacIntel,60,,,,,,,,,,,,,,2,11.07434,,0,1,142,292,42,1,stimuli/stim_20210519_power2amp/equal_lnn_AM1Hz_s55_28.m4a,,,
,,,,,,,,,,,,41234,2021-05-31_20h14.44.085,judgeSpeechMusic_20210519_logNormShiftAmp_mXs,2020.1.2,MacIntel,60,,,,,,,,,,,,,,1,5.97513,,0,1,143,293,140,1,stimuli/stim_20210519_power2amp/equal_lnn_AM4Hz_s55_45.m4a,,,
,,,,,,,,,,,,41234,2021-05-31_20h14.44.085,judgeSpeechMusic_20210519_logNormShiftAmp_mXs,2020.1.2,MacIntel,60,,,,,,,,,,,,,,1,6.307595,,0,1,144,294,65,1,stimuli/stim_20210519_power2amp/equal_lnn_AM2.5Hz_s25_20.m4a,,,
,,,,,,,,,,,,41234,2021-05-31_20h14.44.085,judgeSpeechMusic_20210519_logNormShiftAmp_mXs,2020.1.2,MacIntel,60,,,,,,,,,,,,,,1,5.812995,,0,1,145,295,102,1,stimuli/stim_20210519_power2amp/equal_lnn_AM4Hz_s15_47.m4a,,,
,,,,,,,,,,,,41234,2021-05-31_20h14.44.085,judgeSpeechMusic_20210519_logNormShiftAmp_mXs,2020.1.2,MacIntel,60,,,,,,,,,,,,,,1,6.157575,,0,1,146,296,94,1,stimuli/stim_20210519_power2amp/equal_lnn_AM2.5Hz_s55_41.m4a,,,
,,,,,,,,,,,,41234,2021-05-31_20h14.44.085,judgeSpeechMusic_20210519_logNormShiftAmp_mXs,2020.1.2,MacIntel,60,,,,,,,,,,,,,,1,6.19091,,0,1,147,297,128,1,stimuli/stim_20210519_power2amp/equal_lnn_AM4Hz_s35_21.m4a,,,
,,,,,,,,,,,,41234,2021-05-31_20h14.44.085,judgeSpeechMusic_20210519_logNormShiftAmp_mXs,2020.1.2,MacIntel,60,,,,,,,,,,,,,,1,6.012095,,0,1,148,298,145,1,stimuli/stim_20210519_power2amp/equal_lnn_AM4Hz_s55_17.m4a,,,
,,,,,,,,,,,,41234,2021-05-31_20h14.44.085,judgeSpeechMusic_20210519_logNormShiftAmp_mXs,2020.1.2,MacIntel,60,,,,,,,,,,,,,,1,6.361905,,0,1,149,299,142,1,stimuli/stim_20210519_power2amp/equal_lnn_AM4Hz_s55_5.m4a,,,
,,,,,,,,,,,,41234,2021-05-31_20h14.44.085,judgeSpeechMusic_20210519_logNormShiftAmp_mXs,2020.1.2,MacIntel,60,,,,,,,,,,,,,,,,,,,,,,,,,space,3.52419
