volAdjustRep.thisRepN,volAdjustRep.thisTrialN,volAdjustRep.thisN,volAdjustRep.thisIndex,volAdjustRep.ran,participant,date,expName,psychopyVersion,OS,frameRate,headphoneResponse.keys,headphoneResponse.corr,headphoneResponse.rt,headphoneTrial.thisRepN,headphoneTrial.thisTrialN,headphoneTrial.thisN,headphoneTrial.thisIndex,headphoneTrial.ran,headphone_sound1,headphone_sound2,headphone_sound3,corrAns,trainSlider.response,trainSlider.rt,beepTrainResponse.keys,beepTrainResponse.corr,trainingTrials.thisRepN,trainingTrials.thisTrialN,trainingTrials.thisN,trainingTrials.thisIndex,trainingTrials.ran,trainAudioFile,beepTrainResponse.rt,readyReal_resp.keys,readyReal_resp.rt,ratingSlider.response,ratingSlider.rt,beepResp.keys,beepResp.corr,expTrials.thisRepN,expTrials.thisTrialN,expTrials.thisN,expTrials.thisIndex,expTrials.ran,audioFile,beepResp.rt,end_resp.keys,end_resp.rt
0,0,0,0,1,41237,2021-05-29_16h36.15.533,judgeSpeechMusic_20210519_logNormShiftAmp_mXs,2020.1.2,MacIntel,60,,,,,,,,,,,,,,,,,,,,,,,,,,,,,,,,,,,,,,
,,,,,41237,2021-05-29_16h36.15.533,judgeSpeechMusic_20210519_logNormShiftAmp_mXs,2020.1.2,MacIntel,60,1,1,0.18074,0,0,0,5,1,stimuli/screen_quiet.wav,stimuli/screen_origin.wav,stimuli/screen_antiphase.wav,1,,,,,,,,,,,,,,,,,,,,,,,,,,
,,,,,41237,2021-05-29_16h36.15.533,judgeSpeechMusic_20210519_logNormShiftAmp_mXs,2020.1.2,MacIntel,60,1,1,1.187525,0,1,1,4,1,stimuli/screen_quiet.wav,stimuli/screen_antiphase.wav,stimuli/screen_origin.wav,1,,,,,,,,,,,,,,,,,,,,,,,,,,
,,,,,41237,2021-05-29_16h36.15.533,judgeSpeechMusic_20210519_logNormShiftAmp_mXs,2020.1.2,MacIntel,60,2,1,0.335655,0,2,2,1,1,stimuli/screen_antiphase.wav,stimuli/screen_quiet.wav,stimuli/screen_origin.wav,2,,,,,,,,,,,,,,,,,,,,,,,,,,
,,,,,41237,2021-05-29_16h36.15.533,judgeSpeechMusic_20210519_logNormShiftAmp_mXs,2020.1.2,MacIntel,60,3,1,0.138725,0,3,3,2,1,stimuli/screen_origin.wav,stimuli/screen_antiphase.wav,stimuli/screen_quiet.wav,3,,,,,,,,,,,,,,,,,,,,,,,,,,
,,,,,41237,2021-05-29_16h36.15.533,judgeSpeechMusic_20210519_logNormShiftAmp_mXs,2020.1.2,MacIntel,60,3,1,0.10049,0,4,4,0,1,stimuli/screen_antiphase.wav,stimuli/screen_origin.wav,stimuli/screen_quiet.wav,3,,,,,,,,,,,,,,,,,,,,,,,,,,
,,,,,41237,2021-05-29_16h36.15.533,judgeSpeechMusic_20210519_logNormShiftAmp_mXs,2020.1.2,MacIntel,60,2,1,0.299825,0,5,5,3,1,stimuli/screen_origin.wav,stimuli/screen_quiet.wav,stimuli/screen_antiphase.wav,2,,,,,,,,,,,,,,,,,,,,,,,,,,
,,,,,41237,2021-05-29_16h36.15.533,judgeSpeechMusic_20210519_logNormShiftAmp_mXs,2020.1.2,MacIntel,60,,,,,,,,,,,,,2,16.21129,,0,0,0,0,2,1,stimuli/stim_20210519_power2amp/equal_lnn_AM_training3.5Hz_s20.m4a,,,,,,,,,,,,,,,,
,,,,,41237,2021-05-29_16h36.15.533,judgeSpeechMusic_20210519_logNormShiftAmp_mXs,2020.1.2,MacIntel,60,,,,,,,,,,,,,2,7.904625,,0,0,1,1,3,1,stimuli/stim_20210519_power2amp/equal_lnn_AM_training3.5Hz_s50.m4a,,,,,,,,,,,,,,,,
,,,,,41237,2021-05-29_16h36.15.533,judgeSpeechMusic_20210519_logNormShiftAmp_mXs,2020.1.2,MacIntel,60,,,,,,,,,,,,,2,8.09572,2,1,0,2,2,1,1,stimuli/stim_20210519_power2amp/equal_lnn_AM_training1.5Hz_s50.m4a,1.478145,,,,,,,,,,,,,,,
,,,,,41237,2021-05-29_16h36.15.533,judgeSpeechMusic_20210519_logNormShiftAmp_mXs,2020.1.2,MacIntel,60,,,,,,,,,,,,,1,6.79467,,0,0,3,3,0,1,stimuli/stim_20210519_power2amp/equal_lnn_AM_training1.5Hz_s20.m4a,,,,,,,,,,,,,,,,
,,,,,41237,2021-05-29_16h36.15.533,judgeSpeechMusic_20210519_logNormShiftAmp_mXs,2020.1.2,MacIntel,60,,,,,,,,,,,,,,,,,,,,,,,,space,7.04892,1,6.7134,,0,0,0,0,68,1,stimuli/stim_20210519_power2amp/equal_lnn_AM2.5Hz_s25_15.m4a,,,
,,,,,41237,2021-05-29_16h36.15.533,judgeSpeechMusic_20210519_logNormShiftAmp_mXs,2020.1.2,MacIntel,60,,,,,,,,,,,,,,,,,,,,,,,,,,1,5.90623,,0,0,1,1,117,1,stimuli/stim_20210519_power2amp/equal_lnn_AM4Hz_s25_7.m4a,,,
,,,,,41237,2021-05-29_16h36.15.533,judgeSpeechMusic_20210519_logNormShiftAmp_mXs,2020.1.2,MacIntel,60,,,,,,,,,,,,,,,,,,,,,,,,,,2,5.84498,,0,0,2,2,115,1,stimuli/stim_20210519_power2amp/equal_lnn_AM4Hz_s25_23.m4a,,,
,,,,,41237,2021-05-29_16h36.15.533,judgeSpeechMusic_20210519_logNormShiftAmp_mXs,2020.1.2,MacIntel,60,,,,,,,,,,,,,,,,,,,,,,,,,,2,5.689845,,0,0,3,3,54,1,stimuli/stim_20210519_power2amp/equal_lnn_AM2.5Hz_s15_2.m4a,,,
,,,,,41237,2021-05-29_16h36.15.533,judgeSpeechMusic_20210519_logNormShiftAmp_mXs,2020.1.2,MacIntel,60,,,,,,,,,,,,,,,,,,,,,,,,,,2,6.24431,,0,0,4,4,131,1,stimuli/stim_20210519_power2amp/equal_lnn_AM4Hz_s45_7.m4a,,,
,,,,,41237,2021-05-29_16h36.15.533,judgeSpeechMusic_20210519_logNormShiftAmp_mXs,2020.1.2,MacIntel,60,,,,,,,,,,,,,,,,,,,,,,,,,,1,5.82456,,0,0,5,5,139,1,stimuli/stim_20210519_power2amp/equal_lnn_AM4Hz_s45_2.m4a,,,
,,,,,41237,2021-05-29_16h36.15.533,judgeSpeechMusic_20210519_logNormShiftAmp_mXs,2020.1.2,MacIntel,60,,,,,,,,,,,,,,,,,,,,,,,,,,1,5.54263,,0,0,6,6,15,1,stimuli/stim_20210519_power2amp/equal_lnn_AM1Hz_s25_1.m4a,,,
,,,,,41237,2021-05-29_16h36.15.533,judgeSpeechMusic_20210519_logNormShiftAmp_mXs,2020.1.2,MacIntel,60,,,,,,,,,,,,,,,,,,,,,,,,,,2,6.49473,,0,0,7,7,74,1,stimuli/stim_20210519_power2amp/equal_lnn_AM2.5Hz_s35_15.m4a,,,
,,,,,41237,2021-05-29_16h36.15.533,judgeSpeechMusic_20210519_logNormShiftAmp_mXs,2020.1.2,MacIntel,60,,,,,,,,,,,,,,,,,,,,,,,,,,2,5.778015,,0,0,8,8,58,1,stimuli/stim_20210519_power2amp/equal_lnn_AM2.5Hz_s15_48.m4a,,,
,,,,,41237,2021-05-29_16h36.15.533,judgeSpeechMusic_20210519_logNormShiftAmp_mXs,2020.1.2,MacIntel,60,,,,,,,,,,,,,,,,,,,,,,,,,,1,5.641835,,0,0,9,9,73,1,stimuli/stim_20210519_power2amp/equal_lnn_AM2.5Hz_s35_4.m4a,,,
,,,,,41237,2021-05-29_16h36.15.533,judgeSpeechMusic_20210519_logNormShiftAmp_mXs,2020.1.2,MacIntel,60,,,,,,,,,,,,,,,,,,,,,,,,,,1,6.446265,,0,0,10,10,42,1,stimuli/stim_20210519_power2amp/equal_lnn_AM1Hz_s55_45.m4a,,,
,,,,,41237,2021-05-29_16h36.15.533,judgeSpeechMusic_20210519_logNormShiftAmp_mXs,2020.1.2,MacIntel,60,,,,,,,,,,,,,,,,,,,,,,,,,,1,5.307155,,0,0,11,11,2,1,stimuli/stim_20210519_power2amp/equal_lnn_AM1Hz_s15_12.m4a,,,
,,,,,41237,2021-05-29_16h36.15.533,judgeSpeechMusic_20210519_logNormShiftAmp_mXs,2020.1.2,MacIntel,60,,,,,,,,,,,,,,,,,,,,,,,,,,2,6.438845,,0,0,12,12,128,1,stimuli/stim_20210519_power2amp/equal_lnn_AM4Hz_s35_19.m4a,,,
,,,,,41237,2021-05-29_16h36.15.533,judgeSpeechMusic_20210519_logNormShiftAmp_mXs,2020.1.2,MacIntel,60,,,,,,,,,,,,,,,,,,,,,,,,,,2,5.44056,,0,0,13,13,104,1,stimuli/stim_20210519_power2amp/equal_lnn_AM4Hz_s15_36.m4a,,,
,,,,,41237,2021-05-29_16h36.15.533,judgeSpeechMusic_20210519_logNormShiftAmp_mXs,2020.1.2,MacIntel,60,,,,,,,,,,,,,,,,,,,,,,,,,,1,6.776965,,0,0,14,14,38,1,stimuli/stim_20210519_power2amp/equal_lnn_AM1Hz_s45_28.m4a,,,
,,,,,41237,2021-05-29_16h36.15.533,judgeSpeechMusic_20210519_logNormShiftAmp_mXs,2020.1.2,MacIntel,60,,,,,,,,,,,,,,,,,,,,,,,,,,2,6.308435,,0,0,15,15,44,1,stimuli/stim_20210519_power2amp/equal_lnn_AM1Hz_s55_36.m4a,,,
,,,,,41237,2021-05-29_16h36.15.533,judgeSpeechMusic_20210519_logNormShiftAmp_mXs,2020.1.2,MacIntel,60,,,,,,,,,,,,,,,,,,,,,,,,,,1,5.780045,,0,0,16,16,63,1,stimuli/stim_20210519_power2amp/equal_lnn_AM2.5Hz_s25_38.m4a,,,
,,,,,41237,2021-05-29_16h36.15.533,judgeSpeechMusic_20210519_logNormShiftAmp_mXs,2020.1.2,MacIntel,60,,,,,,,,,,,,,,,,,,,,,,,,,,1,5.491935,,0,0,17,17,101,1,stimuli/stim_20210519_power2amp/equal_lnn_AM4Hz_s15_43.m4a,,,
,,,,,41237,2021-05-29_16h36.15.533,judgeSpeechMusic_20210519_logNormShiftAmp_mXs,2020.1.2,MacIntel,60,,,,,,,,,,,,,,,,,,,,,,,,,,1,6.691185,,0,0,18,18,105,1,stimuli/stim_20210519_power2amp/equal_lnn_AM4Hz_s15_11.m4a,,,
,,,,,41237,2021-05-29_16h36.15.533,judgeSpeechMusic_20210519_logNormShiftAmp_mXs,2020.1.2,MacIntel,60,,,,,,,,,,,,,,,,,,,,,,,,,,2,6.35961,,0,0,19,19,137,1,stimuli/stim_20210519_power2amp/equal_lnn_AM4Hz_s45_29.m4a,,,
,,,,,41237,2021-05-29_16h36.15.533,judgeSpeechMusic_20210519_logNormShiftAmp_mXs,2020.1.2,MacIntel,60,,,,,,,,,,,,,,,,,,,,,,,,,,1,7.770365,,0,0,20,20,9,1,stimuli/stim_20210519_power2amp/equal_lnn_AM1Hz_s15_38.m4a,,,
,,,,,41237,2021-05-29_16h36.15.533,judgeSpeechMusic_20210519_logNormShiftAmp_mXs,2020.1.2,MacIntel,60,,,,,,,,,,,,,,,,,,,,,,,,,,2,6.33566,,0,0,21,21,140,1,stimuli/stim_20210519_power2amp/equal_lnn_AM4Hz_s55_44.m4a,,,
,,,,,41237,2021-05-29_16h36.15.533,judgeSpeechMusic_20210519_logNormShiftAmp_mXs,2020.1.2,MacIntel,60,,,,,,,,,,,,,,,,,,,,,,,,,,2,6.840155,,0,0,22,22,87,1,stimuli/stim_20210519_power2amp/equal_lnn_AM2.5Hz_s45_41.m4a,,,
,,,,,41237,2021-05-29_16h36.15.533,judgeSpeechMusic_20210519_logNormShiftAmp_mXs,2020.1.2,MacIntel,60,,,,,,,,,,,,,,,,,,,,,,,,,,1,6.174625,,0,0,23,23,84,1,stimuli/stim_20210519_power2amp/equal_lnn_AM2.5Hz_s45_16.m4a,,,
,,,,,41237,2021-05-29_16h36.15.533,judgeSpeechMusic_20210519_logNormShiftAmp_mXs,2020.1.2,MacIntel,60,,,,,,,,,,,,,,,,,,,,,,,,,,1,27.09168,,0,0,24,24,85,1,stimuli/stim_20210519_power2amp/equal_lnn_AM2.5Hz_s45_38.m4a,,,
,,,,,41237,2021-05-29_16h36.15.533,judgeSpeechMusic_20210519_logNormShiftAmp_mXs,2020.1.2,MacIntel,60,,,,,,,,,,,,,,,,,,,,,,,,,,1,139.71859,,0,0,25,25,7,1,stimuli/stim_20210519_power2amp/equal_lnn_AM1Hz_s15_33.m4a,,,
,,,,,41237,2021-05-29_16h36.15.533,judgeSpeechMusic_20210519_logNormShiftAmp_mXs,2020.1.2,MacIntel,60,,,,,,,,,,,,,,,,,,,,,,,,,,2,6.724695,,0,0,26,26,91,1,stimuli/stim_20210519_power2amp/equal_lnn_AM2.5Hz_s55_26.m4a,,,
,,,,,41237,2021-05-29_16h36.15.533,judgeSpeechMusic_20210519_logNormShiftAmp_mXs,2020.1.2,MacIntel,60,,,,,,,,,,,,,,,,,,,,,,,,,,1,7.02824,,0,0,27,27,146,1,stimuli/stim_20210519_power2amp/equal_lnn_AM4Hz_s55_35.m4a,,,
,,,,,41237,2021-05-29_16h36.15.533,judgeSpeechMusic_20210519_logNormShiftAmp_mXs,2020.1.2,MacIntel,60,,,,,,,,,,,,,,,,,,,,,,,,,,2,10.5102,,0,0,28,28,78,1,stimuli/stim_20210519_power2amp/equal_lnn_AM2.5Hz_s35_29.m4a,,,
,,,,,41237,2021-05-29_16h36.15.533,judgeSpeechMusic_20210519_logNormShiftAmp_mXs,2020.1.2,MacIntel,60,,,,,,,,,,,,,,,,,,,,,,,,,,1,8.710355,,0,0,29,29,95,1,stimuli/stim_20210519_power2amp/equal_lnn_AM2.5Hz_s55_3.m4a,,,
,,,,,41237,2021-05-29_16h36.15.533,judgeSpeechMusic_20210519_logNormShiftAmp_mXs,2020.1.2,MacIntel,60,,,,,,,,,,,,,,,,,,,,,,,,,,2,52.223595,,0,0,30,30,8,1,stimuli/stim_20210519_power2amp/equal_lnn_AM1Hz_s15_26.m4a,,,
,,,,,41237,2021-05-29_16h36.15.533,judgeSpeechMusic_20210519_logNormShiftAmp_mXs,2020.1.2,MacIntel,60,,,,,,,,,,,,,,,,,,,,,,,,,,2,7.62785,,0,0,31,31,28,1,stimuli/stim_20210519_power2amp/equal_lnn_AM1Hz_s35_47.m4a,,,
,,,,,41237,2021-05-29_16h36.15.533,judgeSpeechMusic_20210519_logNormShiftAmp_mXs,2020.1.2,MacIntel,60,,,,,,,,,,,,,,,,,,,,,,,,,,1,6.87861,,0,0,32,32,60,1,stimuli/stim_20210519_power2amp/equal_lnn_AM2.5Hz_s25_44.m4a,,,
,,,,,41237,2021-05-29_16h36.15.533,judgeSpeechMusic_20210519_logNormShiftAmp_mXs,2020.1.2,MacIntel,60,,,,,,,,,,,,,,,,,,,,,,,,,,1,5.77523,,0,0,33,33,148,1,stimuli/stim_20210519_power2amp/equal_lnn_AM4Hz_s55_41.m4a,,,
,,,,,41237,2021-05-29_16h36.15.533,judgeSpeechMusic_20210519_logNormShiftAmp_mXs,2020.1.2,MacIntel,60,,,,,,,,,,,,,,,,,,,,,,,,,,2,6.909545,,0,0,34,34,55,1,stimuli/stim_20210519_power2amp/equal_lnn_AM2.5Hz_s15_43.m4a,,,
,,,,,41237,2021-05-29_16h36.15.533,judgeSpeechMusic_20210519_logNormShiftAmp_mXs,2020.1.2,MacIntel,60,,,,,,,,,,,,,,,,,,,,,,,,,,2,6.25884,,0,0,35,35,26,1,stimuli/stim_20210519_power2amp/equal_lnn_AM1Hz_s35_4.m4a,,,
,,,,,41237,2021-05-29_16h36.15.533,judgeSpeechMusic_20210519_logNormShiftAmp_mXs,2020.1.2,MacIntel,60,,,,,,,,,,,,,,,,,,,,,,,,,,1,6.69263,,0,0,36,36,134,1,stimuli/stim_20210519_power2amp/equal_lnn_AM4Hz_s45_34.m4a,,,
,,,,,41237,2021-05-29_16h36.15.533,judgeSpeechMusic_20210519_logNormShiftAmp_mXs,2020.1.2,MacIntel,60,,,,,,,,,,,,,,,,,,,,,,,,,,1,5.77317,,0,0,37,37,141,1,stimuli/stim_20210519_power2amp/equal_lnn_AM4Hz_s55_17.m4a,,,
,,,,,41237,2021-05-29_16h36.15.533,judgeSpeechMusic_20210519_logNormShiftAmp_mXs,2020.1.2,MacIntel,60,,,,,,,,,,,,,,,,,,,,,,,,,,2,6.476385,,0,0,38,38,75,1,stimuli/stim_20210519_power2amp/equal_lnn_AM2.5Hz_s35_18.m4a,,,
,,,,,41237,2021-05-29_16h36.15.533,judgeSpeechMusic_20210519_logNormShiftAmp_mXs,2020.1.2,MacIntel,60,,,,,,,,,,,,,,,,,,,,,,,,,,1,5.99478,2,1,0,39,39,121,1,stimuli/stim_20210519_power2amp/equal_lnn_AM4Hz_s35_48.m4a,1.34236,,
,,,,,41237,2021-05-29_16h36.15.533,judgeSpeechMusic_20210519_logNormShiftAmp_mXs,2020.1.2,MacIntel,60,,,,,,,,,,,,,,,,,,,,,,,,,,1,5.579455,,0,0,40,40,129,1,stimuli/stim_20210519_power2amp/equal_lnn_AM4Hz_s35_38.m4a,,,
,,,,,41237,2021-05-29_16h36.15.533,judgeSpeechMusic_20210519_logNormShiftAmp_mXs,2020.1.2,MacIntel,60,,,,,,,,,,,,,,,,,,,,,,,,,,2,6.29488,,0,0,41,41,126,1,stimuli/stim_20210519_power2amp/equal_lnn_AM4Hz_s35_40.m4a,,,
,,,,,41237,2021-05-29_16h36.15.533,judgeSpeechMusic_20210519_logNormShiftAmp_mXs,2020.1.2,MacIntel,60,,,,,,,,,,,,,,,,,,,,,,,,,,1,22.407405,,0,0,42,42,18,1,stimuli/stim_20210519_power2amp/equal_lnn_AM1Hz_s25_40.m4a,,,
,,,,,41237,2021-05-29_16h36.15.533,judgeSpeechMusic_20210519_logNormShiftAmp_mXs,2020.1.2,MacIntel,60,,,,,,,,,,,,,,,,,,,,,,,,,,1,6.41001,,0,0,43,43,136,1,stimuli/stim_20210519_power2amp/equal_lnn_AM4Hz_s45_36.m4a,,,
,,,,,41237,2021-05-29_16h36.15.533,judgeSpeechMusic_20210519_logNormShiftAmp_mXs,2020.1.2,MacIntel,60,,,,,,,,,,,,,,,,,,,,,,,,,,2,18.226775,,0,0,44,44,125,1,stimuli/stim_20210519_power2amp/equal_lnn_AM4Hz_s35_36.m4a,,,
,,,,,41237,2021-05-29_16h36.15.533,judgeSpeechMusic_20210519_logNormShiftAmp_mXs,2020.1.2,MacIntel,60,,,,,,,,,,,,,,,,,,,,,,,,,,1,6.91053,,0,0,45,45,3,1,stimuli/stim_20210519_power2amp/equal_lnn_AM1Hz_s15_7.m4a,,,
,,,,,41237,2021-05-29_16h36.15.533,judgeSpeechMusic_20210519_logNormShiftAmp_mXs,2020.1.2,MacIntel,60,,,,,,,,,,,,,,,,,,,,,,,,,,2,40.125635,,0,0,46,46,77,1,stimuli/stim_20210519_power2amp/equal_lnn_AM2.5Hz_s35_10.m4a,,,
,,,,,41237,2021-05-29_16h36.15.533,judgeSpeechMusic_20210519_logNormShiftAmp_mXs,2020.1.2,MacIntel,60,,,,,,,,,,,,,,,,,,,,,,,,,,1,6.26165,,0,0,47,47,37,1,stimuli/stim_20210519_power2amp/equal_lnn_AM1Hz_s45_47.m4a,,,
,,,,,41237,2021-05-29_16h36.15.533,judgeSpeechMusic_20210519_logNormShiftAmp_mXs,2020.1.2,MacIntel,60,,,,,,,,,,,,,,,,,,,,,,,,,,2,6.377485,,0,0,48,48,31,1,stimuli/stim_20210519_power2amp/equal_lnn_AM1Hz_s45_25.m4a,,,
,,,,,41237,2021-05-29_16h36.15.533,judgeSpeechMusic_20210519_logNormShiftAmp_mXs,2020.1.2,MacIntel,60,,,,,,,,,,,,,,,,,,,,,,,,,,1,5.42711,,0,0,49,49,17,1,stimuli/stim_20210519_power2amp/equal_lnn_AM1Hz_s25_35.m4a,,,
,,,,,41237,2021-05-29_16h36.15.533,judgeSpeechMusic_20210519_logNormShiftAmp_mXs,2020.1.2,MacIntel,60,,,,,,,,,,,,,,,,,,,,,,,,,,1,6.37248,,0,0,50,50,14,1,stimuli/stim_20210519_power2amp/equal_lnn_AM1Hz_s25_15.m4a,,,
,,,,,41237,2021-05-29_16h36.15.533,judgeSpeechMusic_20210519_logNormShiftAmp_mXs,2020.1.2,MacIntel,60,,,,,,,,,,,,,,,,,,,,,,,,,,2,5.953705,,0,0,51,51,24,1,stimuli/stim_20210519_power2amp/equal_lnn_AM1Hz_s35_8.m4a,,,
,,,,,41237,2021-05-29_16h36.15.533,judgeSpeechMusic_20210519_logNormShiftAmp_mXs,2020.1.2,MacIntel,60,,,,,,,,,,,,,,,,,,,,,,,,,,2,5.85494,,0,0,52,52,21,1,stimuli/stim_20210519_power2amp/equal_lnn_AM1Hz_s35_50.m4a,,,
,,,,,41237,2021-05-29_16h36.15.533,judgeSpeechMusic_20210519_logNormShiftAmp_mXs,2020.1.2,MacIntel,60,,,,,,,,,,,,,,,,,,,,,,,,,,1,5.689875,,0,0,53,53,147,1,stimuli/stim_20210519_power2amp/equal_lnn_AM4Hz_s55_9.m4a,,,
,,,,,41237,2021-05-29_16h36.15.533,judgeSpeechMusic_20210519_logNormShiftAmp_mXs,2020.1.2,MacIntel,60,,,,,,,,,,,,,,,,,,,,,,,,,,2,6.294535,,0,0,54,54,39,1,stimuli/stim_20210519_power2amp/equal_lnn_AM1Hz_s45_34.m4a,,,
,,,,,41237,2021-05-29_16h36.15.533,judgeSpeechMusic_20210519_logNormShiftAmp_mXs,2020.1.2,MacIntel,60,,,,,,,,,,,,,,,,,,,,,,,,,,1,6.29289,,0,0,55,55,142,1,stimuli/stim_20210519_power2amp/equal_lnn_AM4Hz_s55_22.m4a,,,
,,,,,41237,2021-05-29_16h36.15.533,judgeSpeechMusic_20210519_logNormShiftAmp_mXs,2020.1.2,MacIntel,60,,,,,,,,,,,,,,,,,,,,,,,,,,2,6.459535,,0,0,56,56,34,1,stimuli/stim_20210519_power2amp/equal_lnn_AM1Hz_s45_36.m4a,,,
,,,,,41237,2021-05-29_16h36.15.533,judgeSpeechMusic_20210519_logNormShiftAmp_mXs,2020.1.2,MacIntel,60,,,,,,,,,,,,,,,,,,,,,,,,,,1,6.02643,,0,0,57,57,51,1,stimuli/stim_20210519_power2amp/equal_lnn_AM2.5Hz_s15_44.m4a,,,
,,,,,41237,2021-05-29_16h36.15.533,judgeSpeechMusic_20210519_logNormShiftAmp_mXs,2020.1.2,MacIntel,60,,,,,,,,,,,,,,,,,,,,,,,,,,1,6.49103,,0,0,58,58,122,1,stimuli/stim_20210519_power2amp/equal_lnn_AM4Hz_s35_29.m4a,,,
,,,,,41237,2021-05-29_16h36.15.533,judgeSpeechMusic_20210519_logNormShiftAmp_mXs,2020.1.2,MacIntel,60,,,,,,,,,,,,,,,,,,,,,,,,,,2,42.90706,,0,0,59,59,149,1,stimuli/stim_20210519_power2amp/equal_lnn_AM4Hz_s55_23.m4a,,,
,,,,,41237,2021-05-29_16h36.15.533,judgeSpeechMusic_20210519_logNormShiftAmp_mXs,2020.1.2,MacIntel,60,,,,,,,,,,,,,,,,,,,,,,,,,,2,6.07663,,0,0,60,60,49,1,stimuli/stim_20210519_power2amp/equal_lnn_AM1Hz_s55_28.m4a,,,
,,,,,41237,2021-05-29_16h36.15.533,judgeSpeechMusic_20210519_logNormShiftAmp_mXs,2020.1.2,MacIntel,60,,,,,,,,,,,,,,,,,,,,,,,,,,2,5.85813,,0,0,61,61,138,1,stimuli/stim_20210519_power2amp/equal_lnn_AM4Hz_s45_21.m4a,,,
,,,,,41237,2021-05-29_16h36.15.533,judgeSpeechMusic_20210519_logNormShiftAmp_mXs,2020.1.2,MacIntel,60,,,,,,,,,,,,,,,,,,,,,,,,,,1,5.95455,,0,0,62,62,94,1,stimuli/stim_20210519_power2amp/equal_lnn_AM2.5Hz_s55_18.m4a,,,
,,,,,41237,2021-05-29_16h36.15.533,judgeSpeechMusic_20210519_logNormShiftAmp_mXs,2020.1.2,MacIntel,60,,,,,,,,,,,,,,,,,,,,,,,,,,2,27.62733,4,1,0,63,63,69,1,stimuli/stim_20210519_power2amp/equal_lnn_AM2.5Hz_s25_21.m4a,4.541675,,
,,,,,41237,2021-05-29_16h36.15.533,judgeSpeechMusic_20210519_logNormShiftAmp_mXs,2020.1.2,MacIntel,60,,,,,,,,,,,,,,,,,,,,,,,,,,2,93.51553,,0,0,64,64,72,1,stimuli/stim_20210519_power2amp/equal_lnn_AM2.5Hz_s35_7.m4a,,,
,,,,,41237,2021-05-29_16h36.15.533,judgeSpeechMusic_20210519_logNormShiftAmp_mXs,2020.1.2,MacIntel,60,,,,,,,,,,,,,,,,,,,,,,,,,,2,6.42395,,0,0,65,65,145,1,stimuli/stim_20210519_power2amp/equal_lnn_AM4Hz_s55_18.m4a,,,
,,,,,41237,2021-05-29_16h36.15.533,judgeSpeechMusic_20210519_logNormShiftAmp_mXs,2020.1.2,MacIntel,60,,,,,,,,,,,,,,,,,,,,,,,,,,1,8.32233,,0,0,66,66,114,1,stimuli/stim_20210519_power2amp/equal_lnn_AM4Hz_s25_2.m4a,,,
,,,,,41237,2021-05-29_16h36.15.533,judgeSpeechMusic_20210519_logNormShiftAmp_mXs,2020.1.2,MacIntel,60,,,,,,,,,,,,,,,,,,,,,,,,,,2,7.94345,,0,0,67,67,118,1,stimuli/stim_20210519_power2amp/equal_lnn_AM4Hz_s25_1.m4a,,,
,,,,,41237,2021-05-29_16h36.15.533,judgeSpeechMusic_20210519_logNormShiftAmp_mXs,2020.1.2,MacIntel,60,,,,,,,,,,,,,,,,,,,,,,,,,,1,6.29218,,0,0,68,68,29,1,stimuli/stim_20210519_power2amp/equal_lnn_AM1Hz_s35_3.m4a,,,
,,,,,41237,2021-05-29_16h36.15.533,judgeSpeechMusic_20210519_logNormShiftAmp_mXs,2020.1.2,MacIntel,60,,,,,,,,,,,,,,,,,,,,,,,,,,2,7.026215,,0,0,69,69,109,1,stimuli/stim_20210519_power2amp/equal_lnn_AM4Hz_s15_49.m4a,,,
,,,,,41237,2021-05-29_16h36.15.533,judgeSpeechMusic_20210519_logNormShiftAmp_mXs,2020.1.2,MacIntel,60,,,,,,,,,,,,,,,,,,,,,,,,,,2,6.840345,,0,0,70,70,107,1,stimuli/stim_20210519_power2amp/equal_lnn_AM4Hz_s15_37.m4a,,,
,,,,,41237,2021-05-29_16h36.15.533,judgeSpeechMusic_20210519_logNormShiftAmp_mXs,2020.1.2,MacIntel,60,,,,,,,,,,,,,,,,,,,,,,,,,,1,8.66016,,0,0,71,71,46,1,stimuli/stim_20210519_power2amp/equal_lnn_AM1Hz_s55_3.m4a,,,
,,,,,41237,2021-05-29_16h36.15.533,judgeSpeechMusic_20210519_logNormShiftAmp_mXs,2020.1.2,MacIntel,60,,,,,,,,,,,,,,,,,,,,,,,,,,1,12.657275,,0,0,72,72,25,1,stimuli/stim_20210519_power2amp/equal_lnn_AM1Hz_s35_33.m4a,,,
,,,,,41237,2021-05-29_16h36.15.533,judgeSpeechMusic_20210519_logNormShiftAmp_mXs,2020.1.2,MacIntel,60,,,,,,,,,,,,,,,,,,,,,,,,,,2,6.52505,,0,0,73,73,36,1,stimuli/stim_20210519_power2amp/equal_lnn_AM1Hz_s45_48.m4a,,,
,,,,,41237,2021-05-29_16h36.15.533,judgeSpeechMusic_20210519_logNormShiftAmp_mXs,2020.1.2,MacIntel,60,,,,,,,,,,,,,,,,,,,,,,,,,,1,6.80817,,0,0,74,74,62,1,stimuli/stim_20210519_power2amp/equal_lnn_AM2.5Hz_s25_16.m4a,,,
,,,,,41237,2021-05-29_16h36.15.533,judgeSpeechMusic_20210519_logNormShiftAmp_mXs,2020.1.2,MacIntel,60,,,,,,,,,,,,,,,,,,,,,,,,,,2,583.482555,,0,0,75,75,16,1,stimuli/stim_20210519_power2amp/equal_lnn_AM1Hz_s25_46.m4a,,,
,,,,,41237,2021-05-29_16h36.15.533,judgeSpeechMusic_20210519_logNormShiftAmp_mXs,2020.1.2,MacIntel,60,,,,,,,,,,,,,,,,,,,,,,,,,,2,6.47433,,0,0,76,76,43,1,stimuli/stim_20210519_power2amp/equal_lnn_AM1Hz_s55_35.m4a,,,
,,,,,41237,2021-05-29_16h36.15.533,judgeSpeechMusic_20210519_logNormShiftAmp_mXs,2020.1.2,MacIntel,60,,,,,,,,,,,,,,,,,,,,,,,,,,1,30.462215,,0,0,77,77,53,1,stimuli/stim_20210519_power2amp/equal_lnn_AM2.5Hz_s15_26.m4a,,,
,,,,,41237,2021-05-29_16h36.15.533,judgeSpeechMusic_20210519_logNormShiftAmp_mXs,2020.1.2,MacIntel,60,,,,,,,,,,,,,,,,,,,,,,,,,,2,13.043685,,0,0,78,78,11,1,stimuli/stim_20210519_power2amp/equal_lnn_AM1Hz_s25_48.m4a,,,
,,,,,41237,2021-05-29_16h36.15.533,judgeSpeechMusic_20210519_logNormShiftAmp_mXs,2020.1.2,MacIntel,60,,,,,,,,,,,,,,,,,,,,,,,,,,2,80.87728,,0,0,79,79,120,1,stimuli/stim_20210519_power2amp/equal_lnn_AM4Hz_s35_43.m4a,,,
,,,,,41237,2021-05-29_16h36.15.533,judgeSpeechMusic_20210519_logNormShiftAmp_mXs,2020.1.2,MacIntel,60,,,,,,,,,,,,,,,,,,,,,,,,,,2,5.79078,,0,0,80,80,56,1,stimuli/stim_20210519_power2amp/equal_lnn_AM2.5Hz_s15_4.m4a,,,
,,,,,41237,2021-05-29_16h36.15.533,judgeSpeechMusic_20210519_logNormShiftAmp_mXs,2020.1.2,MacIntel,60,,,,,,,,,,,,,,,,,,,,,,,,,,1,11.876445,,0,0,81,81,124,1,stimuli/stim_20210519_power2amp/equal_lnn_AM4Hz_s35_3.m4a,,,
,,,,,41237,2021-05-29_16h36.15.533,judgeSpeechMusic_20210519_logNormShiftAmp_mXs,2020.1.2,MacIntel,60,,,,,,,,,,,,,,,,,,,,,,,,,,2,6.89208,,0,0,82,82,65,1,stimuli/stim_20210519_power2amp/equal_lnn_AM2.5Hz_s25_41.m4a,,,
,,,,,41237,2021-05-29_16h36.15.533,judgeSpeechMusic_20210519_logNormShiftAmp_mXs,2020.1.2,MacIntel,60,,,,,,,,,,,,,,,,,,,,,,,,,,1,5.827925,4,1,0,83,83,132,1,stimuli/stim_20210519_power2amp/equal_lnn_AM4Hz_s45_9.m4a,1.079635,,
,,,,,41237,2021-05-29_16h36.15.533,judgeSpeechMusic_20210519_logNormShiftAmp_mXs,2020.1.2,MacIntel,60,,,,,,,,,,,,,,,,,,,,,,,,,,2,9.2396,,0,0,84,84,113,1,stimuli/stim_20210519_power2amp/equal_lnn_AM4Hz_s25_40.m4a,,,
,,,,,41237,2021-05-29_16h36.15.533,judgeSpeechMusic_20210519_logNormShiftAmp_mXs,2020.1.2,MacIntel,60,,,,,,,,,,,,,,,,,,,,,,,,,,2,6.364605,,0,0,85,85,1,1,stimuli/stim_20210519_power2amp/equal_lnn_AM1Hz_s15_11.m4a,,,
,,,,,41237,2021-05-29_16h36.15.533,judgeSpeechMusic_20210519_logNormShiftAmp_mXs,2020.1.2,MacIntel,60,,,,,,,,,,,,,,,,,,,,,,,,,,1,8.92376,,0,0,86,86,10,1,stimuli/stim_20210519_power2amp/equal_lnn_AM1Hz_s25_42.m4a,,,
,,,,,41237,2021-05-29_16h36.15.533,judgeSpeechMusic_20210519_logNormShiftAmp_mXs,2020.1.2,MacIntel,60,,,,,,,,,,,,,,,,,,,,,,,,,,2,6.45954,,0,0,87,87,70,1,stimuli/stim_20210519_power2amp/equal_lnn_AM2.5Hz_s35_38.m4a,,,
,,,,,41237,2021-05-29_16h36.15.533,judgeSpeechMusic_20210519_logNormShiftAmp_mXs,2020.1.2,MacIntel,60,,,,,,,,,,,,,,,,,,,,,,,,,,1,7.342375,,0,0,88,88,12,1,stimuli/stim_20210519_power2amp/equal_lnn_AM1Hz_s25_23.m4a,,,
,,,,,41237,2021-05-29_16h36.15.533,judgeSpeechMusic_20210519_logNormShiftAmp_mXs,2020.1.2,MacIntel,60,,,,,,,,,,,,,,,,,,,,,,,,,,2,7.24293,,0,0,89,89,144,1,stimuli/stim_20210519_power2amp/equal_lnn_AM4Hz_s55_36.m4a,,,
,,,,,41237,2021-05-29_16h36.15.533,judgeSpeechMusic_20210519_logNormShiftAmp_mXs,2020.1.2,MacIntel,60,,,,,,,,,,,,,,,,,,,,,,,,,,2,7.79667,,0,0,90,90,80,1,stimuli/stim_20210519_power2amp/equal_lnn_AM2.5Hz_s45_12.m4a,,,
,,,,,41237,2021-05-29_16h36.15.533,judgeSpeechMusic_20210519_logNormShiftAmp_mXs,2020.1.2,MacIntel,60,,,,,,,,,,,,,,,,,,,,,,,,,,1,6.575975,,0,0,91,91,5,1,stimuli/stim_20210519_power2amp/equal_lnn_AM1Hz_s15_2.m4a,,,
,,,,,41237,2021-05-29_16h36.15.533,judgeSpeechMusic_20210519_logNormShiftAmp_mXs,2020.1.2,MacIntel,60,,,,,,,,,,,,,,,,,,,,,,,,,,2,6.141595,,0,0,92,92,79,1,stimuli/stim_20210519_power2amp/equal_lnn_AM2.5Hz_s35_3.m4a,,,
,,,,,41237,2021-05-29_16h36.15.533,judgeSpeechMusic_20210519_logNormShiftAmp_mXs,2020.1.2,MacIntel,60,,,,,,,,,,,,,,,,,,,,,,,,,,1,35.32551,,0,0,93,93,47,1,stimuli/stim_20210519_power2amp/equal_lnn_AM1Hz_s55_24.m4a,,,
,,,,,41237,2021-05-29_16h36.15.533,judgeSpeechMusic_20210519_logNormShiftAmp_mXs,2020.1.2,MacIntel,60,,,,,,,,,,,,,,,,,,,,,,,,,,2,6.27738,,0,0,94,94,61,1,stimuli/stim_20210519_power2amp/equal_lnn_AM2.5Hz_s25_40.m4a,,,
,,,,,41237,2021-05-29_16h36.15.533,judgeSpeechMusic_20210519_logNormShiftAmp_mXs,2020.1.2,MacIntel,60,,,,,,,,,,,,,,,,,,,,,,,,,,1,6.593905,,0,0,95,95,45,1,stimuli/stim_20210519_power2amp/equal_lnn_AM1Hz_s55_43.m4a,,,
,,,,,41237,2021-05-29_16h36.15.533,judgeSpeechMusic_20210519_logNormShiftAmp_mXs,2020.1.2,MacIntel,60,,,,,,,,,,,,,,,,,,,,,,,,,,2,8.15631,,0,0,96,96,0,1,stimuli/stim_20210519_power2amp/equal_lnn_AM1Hz_s15_30.m4a,,,
,,,,,41237,2021-05-29_16h36.15.533,judgeSpeechMusic_20210519_logNormShiftAmp_mXs,2020.1.2,MacIntel,60,,,,,,,,,,,,,,,,,,,,,,,,,,1,6.14438,,0,0,97,97,90,1,stimuli/stim_20210519_power2amp/equal_lnn_AM2.5Hz_s55_15.m4a,,,
,,,,,41237,2021-05-29_16h36.15.533,judgeSpeechMusic_20210519_logNormShiftAmp_mXs,2020.1.2,MacIntel,60,,,,,,,,,,,,,,,,,,,,,,,,,,2,6.08094,,0,0,98,98,119,1,stimuli/stim_20210519_power2amp/equal_lnn_AM4Hz_s25_26.m4a,,,
,,,,,41237,2021-05-29_16h36.15.533,judgeSpeechMusic_20210519_logNormShiftAmp_mXs,2020.1.2,MacIntel,60,,,,,,,,,,,,,,,,,,,,,,,,,,1,5.80879,,0,0,99,99,32,1,stimuli/stim_20210519_power2amp/equal_lnn_AM1Hz_s45_12.m4a,,,
,,,,,41237,2021-05-29_16h36.15.533,judgeSpeechMusic_20210519_logNormShiftAmp_mXs,2020.1.2,MacIntel,60,,,,,,,,,,,,,,,,,,,,,,,,,,2,6.460175,,0,0,100,100,112,1,stimuli/stim_20210519_power2amp/equal_lnn_AM4Hz_s25_34.m4a,,,
,,,,,41237,2021-05-29_16h36.15.533,judgeSpeechMusic_20210519_logNormShiftAmp_mXs,2020.1.2,MacIntel,60,,,,,,,,,,,,,,,,,,,,,,,,,,1,6.54379,,0,0,101,101,35,1,stimuli/stim_20210519_power2amp/equal_lnn_AM1Hz_s45_30.m4a,,,
,,,,,41237,2021-05-29_16h36.15.533,judgeSpeechMusic_20210519_logNormShiftAmp_mXs,2020.1.2,MacIntel,60,,,,,,,,,,,,,,,,,,,,,,,,,,1,65.106905,,0,0,102,102,133,1,stimuli/stim_20210519_power2amp/equal_lnn_AM4Hz_s45_15.m4a,,,
,,,,,41237,2021-05-29_16h36.15.533,judgeSpeechMusic_20210519_logNormShiftAmp_mXs,2020.1.2,MacIntel,60,,,,,,,,,,,,,,,,,,,,,,,,,,2,7.344705,,0,0,103,103,86,1,stimuli/stim_20210519_power2amp/equal_lnn_AM2.5Hz_s45_32.m4a,,,
,,,,,41237,2021-05-29_16h36.15.533,judgeSpeechMusic_20210519_logNormShiftAmp_mXs,2020.1.2,MacIntel,60,,,,,,,,,,,,,,,,,,,,,,,,,,1,22.276435,,0,0,104,104,97,1,stimuli/stim_20210519_power2amp/equal_lnn_AM2.5Hz_s55_1.m4a,,,
,,,,,41237,2021-05-29_16h36.15.533,judgeSpeechMusic_20210519_logNormShiftAmp_mXs,2020.1.2,MacIntel,60,,,,,,,,,,,,,,,,,,,,,,,,,,2,15.759,,0,0,105,105,135,1,stimuli/stim_20210519_power2amp/equal_lnn_AM4Hz_s45_30.m4a,,,
,,,,,41237,2021-05-29_16h36.15.533,judgeSpeechMusic_20210519_logNormShiftAmp_mXs,2020.1.2,MacIntel,60,,,,,,,,,,,,,,,,,,,,,,,,,,2,208.07003,,0,0,106,106,106,1,stimuli/stim_20210519_power2amp/equal_lnn_AM4Hz_s15_27.m4a,,,
,,,,,41237,2021-05-29_16h36.15.533,judgeSpeechMusic_20210519_logNormShiftAmp_mXs,2020.1.2,MacIntel,60,,,,,,,,,,,,,,,,,,,,,,,,,,1,6.391745,3,1,0,107,107,127,1,stimuli/stim_20210519_power2amp/equal_lnn_AM4Hz_s35_28.m4a,1.14827,,
,,,,,41237,2021-05-29_16h36.15.533,judgeSpeechMusic_20210519_logNormShiftAmp_mXs,2020.1.2,MacIntel,60,,,,,,,,,,,,,,,,,,,,,,,,,,2,10.830345,,0,0,108,108,110,1,stimuli/stim_20210519_power2amp/equal_lnn_AM4Hz_s25_10.m4a,,,
,,,,,41237,2021-05-29_16h36.15.533,judgeSpeechMusic_20210519_logNormShiftAmp_mXs,2020.1.2,MacIntel,60,,,,,,,,,,,,,,,,,,,,,,,,,,1,6.557365,,0,0,109,109,111,1,stimuli/stim_20210519_power2amp/equal_lnn_AM4Hz_s25_5.m4a,,,
,,,,,41237,2021-05-29_16h36.15.533,judgeSpeechMusic_20210519_logNormShiftAmp_mXs,2020.1.2,MacIntel,60,,,,,,,,,,,,,,,,,,,,,,,,,,1,6.23737,,0,0,110,110,30,1,stimuli/stim_20210519_power2amp/equal_lnn_AM1Hz_s45_8.m4a,,,
,,,,,41237,2021-05-29_16h36.15.533,judgeSpeechMusic_20210519_logNormShiftAmp_mXs,2020.1.2,MacIntel,60,,,,,,,,,,,,,,,,,,,,,,,,,,2,6.05812,,0,0,111,111,66,1,stimuli/stim_20210519_power2amp/equal_lnn_AM2.5Hz_s25_2.m4a,,,
,,,,,41237,2021-05-29_16h36.15.533,judgeSpeechMusic_20210519_logNormShiftAmp_mXs,2020.1.2,MacIntel,60,,,,,,,,,,,,,,,,,,,,,,,,,,1,6.19413,,0,0,112,112,64,1,stimuli/stim_20210519_power2amp/equal_lnn_AM2.5Hz_s25_20.m4a,,,
,,,,,41237,2021-05-29_16h36.15.533,judgeSpeechMusic_20210519_logNormShiftAmp_mXs,2020.1.2,MacIntel,60,,,,,,,,,,,,,,,,,,,,,,,,,,2,9.848055,,0,0,113,113,83,1,stimuli/stim_20210519_power2amp/equal_lnn_AM2.5Hz_s45_23.m4a,,,
,,,,,41237,2021-05-29_16h36.15.533,judgeSpeechMusic_20210519_logNormShiftAmp_mXs,2020.1.2,MacIntel,60,,,,,,,,,,,,,,,,,,,,,,,,,,1,67.73649,,0,0,114,114,143,1,stimuli/stim_20210519_power2amp/equal_lnn_AM4Hz_s55_38.m4a,,,
,,,,,41237,2021-05-29_16h36.15.533,judgeSpeechMusic_20210519_logNormShiftAmp_mXs,2020.1.2,MacIntel,60,,,,,,,,,,,,,,,,,,,,,,,,,,2,28.63418,,0,0,115,115,98,1,stimuli/stim_20210519_power2amp/equal_lnn_AM2.5Hz_s55_17.m4a,,,
,,,,,41237,2021-05-29_16h36.15.533,judgeSpeechMusic_20210519_logNormShiftAmp_mXs,2020.1.2,MacIntel,60,,,,,,,,,,,,,,,,,,,,,,,,,,1,5.84285,,0,0,116,116,23,1,stimuli/stim_20210519_power2amp/equal_lnn_AM1Hz_s35_22.m4a,,,
,,,,,41237,2021-05-29_16h36.15.533,judgeSpeechMusic_20210519_logNormShiftAmp_mXs,2020.1.2,MacIntel,60,,,,,,,,,,,,,,,,,,,,,,,,,,1,6.25687,,0,0,117,117,67,1,stimuli/stim_20210519_power2amp/equal_lnn_AM2.5Hz_s25_28.m4a,,,
,,,,,41237,2021-05-29_16h36.15.533,judgeSpeechMusic_20210519_logNormShiftAmp_mXs,2020.1.2,MacIntel,60,,,,,,,,,,,,,,,,,,,,,,,,,,2,5.72723,,0,0,118,118,89,1,stimuli/stim_20210519_power2amp/equal_lnn_AM2.5Hz_s45_11.m4a,,,
,,,,,41237,2021-05-29_16h36.15.533,judgeSpeechMusic_20210519_logNormShiftAmp_mXs,2020.1.2,MacIntel,60,,,,,,,,,,,,,,,,,,,,,,,,,,1,5.76188,,0,0,119,119,92,1,stimuli/stim_20210519_power2amp/equal_lnn_AM2.5Hz_s55_24.m4a,,,
,,,,,41237,2021-05-29_16h36.15.533,judgeSpeechMusic_20210519_logNormShiftAmp_mXs,2020.1.2,MacIntel,60,,,,,,,,,,,,,,,,,,,,,,,,,,1,5.8511,,0,0,120,120,50,1,stimuli/stim_20210519_power2amp/equal_lnn_AM2.5Hz_s15_30.m4a,,,
,,,,,41237,2021-05-29_16h36.15.533,judgeSpeechMusic_20210519_logNormShiftAmp_mXs,2020.1.2,MacIntel,60,,,,,,,,,,,,,,,,,,,,,,,,,,2,18.77653,,0,0,121,121,48,1,stimuli/stim_20210519_power2amp/equal_lnn_AM1Hz_s55_34.m4a,,,
,,,,,41237,2021-05-29_16h36.15.533,judgeSpeechMusic_20210519_logNormShiftAmp_mXs,2020.1.2,MacIntel,60,,,,,,,,,,,,,,,,,,,,,,,,,,2,655.311195,,0,0,122,122,13,1,stimuli/stim_20210519_power2amp/equal_lnn_AM1Hz_s25_43.m4a,,,
,,,,,41237,2021-05-29_16h36.15.533,judgeSpeechMusic_20210519_logNormShiftAmp_mXs,2020.1.2,MacIntel,60,,,,,,,,,,,,,,,,,,,,,,,,,,2,8.19392,,0,0,123,123,123,1,stimuli/stim_20210519_power2amp/equal_lnn_AM4Hz_s35_49.m4a,,,
,,,,,41237,2021-05-29_16h36.15.533,judgeSpeechMusic_20210519_logNormShiftAmp_mXs,2020.1.2,MacIntel,60,,,,,,,,,,,,,,,,,,,,,,,,,,1,14.60015,,0,0,124,124,20,1,stimuli/stim_20210519_power2amp/equal_lnn_AM1Hz_s35_20.m4a,,,
,,,,,41237,2021-05-29_16h36.15.533,judgeSpeechMusic_20210519_logNormShiftAmp_mXs,2020.1.2,MacIntel,60,,,,,,,,,,,,,,,,,,,,,,,,,,2,786.79281,,0,0,125,125,57,1,stimuli/stim_20210519_power2amp/equal_lnn_AM2.5Hz_s15_1.m4a,,,
,,,,,41237,2021-05-29_16h36.15.533,judgeSpeechMusic_20210519_logNormShiftAmp_mXs,2020.1.2,MacIntel,60,,,,,,,,,,,,,,,,,,,,,,,,,,2,94.308225,,0,0,126,126,100,1,stimuli/stim_20210519_power2amp/equal_lnn_AM4Hz_s15_34.m4a,,,
,,,,,41237,2021-05-29_16h36.15.533,judgeSpeechMusic_20210519_logNormShiftAmp_mXs,2020.1.2,MacIntel,60,,,,,,,,,,,,,,,,,,,,,,,,,,2,437.909745,,0,0,127,127,96,1,stimuli/stim_20210519_power2amp/equal_lnn_AM2.5Hz_s55_31.m4a,,,
,,,,,41237,2021-05-29_16h36.15.533,judgeSpeechMusic_20210519_logNormShiftAmp_mXs,2020.1.2,MacIntel,60,,,,,,,,,,,,,,,,,,,,,,,,,,1,6.802915,,0,0,128,128,22,1,stimuli/stim_20210519_power2amp/equal_lnn_AM1Hz_s35_40.m4a,,,
,,,,,41237,2021-05-29_16h36.15.533,judgeSpeechMusic_20210519_logNormShiftAmp_mXs,2020.1.2,MacIntel,60,,,,,,,,,,,,,,,,,,,,,,,,,,2,6.89969,,0,0,129,129,108,1,stimuli/stim_20210519_power2amp/equal_lnn_AM4Hz_s15_31.m4a,,,
,,,,,41237,2021-05-29_16h36.15.533,judgeSpeechMusic_20210519_logNormShiftAmp_mXs,2020.1.2,MacIntel,60,,,,,,,,,,,,,,,,,,,,,,,,,,1,6.42561,4,1,0,130,130,130,1,stimuli/stim_20210519_power2amp/equal_lnn_AM4Hz_s45_42.m4a,2.809425,,
,,,,,41237,2021-05-29_16h36.15.533,judgeSpeechMusic_20210519_logNormShiftAmp_mXs,2020.1.2,MacIntel,60,,,,,,,,,,,,,,,,,,,,,,,,,,1,6.79683,,0,0,131,131,116,1,stimuli/stim_20210519_power2amp/equal_lnn_AM4Hz_s25_24.m4a,,,
,,,,,41237,2021-05-29_16h36.15.533,judgeSpeechMusic_20210519_logNormShiftAmp_mXs,2020.1.2,MacIntel,60,,,,,,,,,,,,,,,,,,,,,,,,,,2,8.57493,,0,0,132,132,88,1,stimuli/stim_20210519_power2amp/equal_lnn_AM2.5Hz_s45_26.m4a,,,
,,,,,41237,2021-05-29_16h36.15.533,judgeSpeechMusic_20210519_logNormShiftAmp_mXs,2020.1.2,MacIntel,60,,,,,,,,,,,,,,,,,,,,,,,,,,1,362.15848,,0,0,133,133,59,1,stimuli/stim_20210519_power2amp/equal_lnn_AM2.5Hz_s15_31.m4a,,,
,,,,,41237,2021-05-29_16h36.15.533,judgeSpeechMusic_20210519_logNormShiftAmp_mXs,2020.1.2,MacIntel,60,,,,,,,,,,,,,,,,,,,,,,,,,,1,11.851365,,0,0,134,134,27,1,stimuli/stim_20210519_power2amp/equal_lnn_AM1Hz_s35_1.m4a,,,
,,,,,41237,2021-05-29_16h36.15.533,judgeSpeechMusic_20210519_logNormShiftAmp_mXs,2020.1.2,MacIntel,60,,,,,,,,,,,,,,,,,,,,,,,,,,2,13.448295,,0,0,135,135,19,1,stimuli/stim_20210519_power2amp/equal_lnn_AM1Hz_s25_6.m4a,,,
,,,,,41237,2021-05-29_16h36.15.533,judgeSpeechMusic_20210519_logNormShiftAmp_mXs,2020.1.2,MacIntel,60,,,,,,,,,,,,,,,,,,,,,,,,,,1,11.3213,,0,0,136,136,6,1,stimuli/stim_20210519_power2amp/equal_lnn_AM1Hz_s15_17.m4a,,,
,,,,,41237,2021-05-29_16h36.15.533,judgeSpeechMusic_20210519_logNormShiftAmp_mXs,2020.1.2,MacIntel,60,,,,,,,,,,,,,,,,,,,,,,,,,,1,7.444755,,0,0,137,137,82,1,stimuli/stim_20210519_power2amp/equal_lnn_AM2.5Hz_s45_42.m4a,,,
,,,,,41237,2021-05-29_16h36.15.533,judgeSpeechMusic_20210519_logNormShiftAmp_mXs,2020.1.2,MacIntel,60,,,,,,,,,,,,,,,,,,,,,,,,,,1,6.332405,,0,0,138,138,40,1,stimuli/stim_20210519_power2amp/equal_lnn_AM1Hz_s55_15.m4a,,,
,,,,,41237,2021-05-29_16h36.15.533,judgeSpeechMusic_20210519_logNormShiftAmp_mXs,2020.1.2,MacIntel,60,,,,,,,,,,,,,,,,,,,,,,,,,,2,623.229105,,0,0,139,139,81,1,stimuli/stim_20210519_power2amp/equal_lnn_AM2.5Hz_s45_27.m4a,,,
,,,,,41237,2021-05-29_16h36.15.533,judgeSpeechMusic_20210519_logNormShiftAmp_mXs,2020.1.2,MacIntel,60,,,,,,,,,,,,,,,,,,,,,,,,,,1,11.76986,,0,0,140,140,52,1,stimuli/stim_20210519_power2amp/equal_lnn_AM2.5Hz_s15_22.m4a,,,
,,,,,41237,2021-05-29_16h36.15.533,judgeSpeechMusic_20210519_logNormShiftAmp_mXs,2020.1.2,MacIntel,60,,,,,,,,,,,,,,,,,,,,,,,,,,2,6.541045,,0,0,141,141,103,1,stimuli/stim_20210519_power2amp/equal_lnn_AM4Hz_s15_38.m4a,,,
,,,,,41237,2021-05-29_16h36.15.533,judgeSpeechMusic_20210519_logNormShiftAmp_mXs,2020.1.2,MacIntel,60,,,,,,,,,,,,,,,,,,,,,,,,,,2,6.02584,,0,0,142,142,99,1,stimuli/stim_20210519_power2amp/equal_lnn_AM2.5Hz_s55_12.m4a,,,
,,,,,41237,2021-05-29_16h36.15.533,judgeSpeechMusic_20210519_logNormShiftAmp_mXs,2020.1.2,MacIntel,60,,,,,,,,,,,,,,,,,,,,,,,,,,1,5.90337,,0,0,143,143,76,1,stimuli/stim_20210519_power2amp/equal_lnn_AM2.5Hz_s35_32.m4a,,,
,,,,,41237,2021-05-29_16h36.15.533,judgeSpeechMusic_20210519_logNormShiftAmp_mXs,2020.1.2,MacIntel,60,,,,,,,,,,,,,,,,,,,,,,,,,,2,7.78442,,0,0,144,144,41,1,stimuli/stim_20210519_power2amp/equal_lnn_AM1Hz_s55_2.m4a,,,
,,,,,41237,2021-05-29_16h36.15.533,judgeSpeechMusic_20210519_logNormShiftAmp_mXs,2020.1.2,MacIntel,60,,,,,,,,,,,,,,,,,,,,,,,,,,1,130.801795,,0,0,145,145,102,1,stimuli/stim_20210519_power2amp/equal_lnn_AM4Hz_s15_2.m4a,,,
,,,,,41237,2021-05-29_16h36.15.533,judgeSpeechMusic_20210519_logNormShiftAmp_mXs,2020.1.2,MacIntel,60,,,,,,,,,,,,,,,,,,,,,,,,,,1,6.656375,,0,0,146,146,71,1,stimuli/stim_20210519_power2amp/equal_lnn_AM2.5Hz_s35_22.m4a,,,
,,,,,41237,2021-05-29_16h36.15.533,judgeSpeechMusic_20210519_logNormShiftAmp_mXs,2020.1.2,MacIntel,60,,,,,,,,,,,,,,,,,,,,,,,,,,2,6.85523,,0,0,147,147,93,1,stimuli/stim_20210519_power2amp/equal_lnn_AM2.5Hz_s55_36.m4a,,,
,,,,,41237,2021-05-29_16h36.15.533,judgeSpeechMusic_20210519_logNormShiftAmp_mXs,2020.1.2,MacIntel,60,,,,,,,,,,,,,,,,,,,,,,,,,,2,100.86503,,0,0,148,148,33,1,stimuli/stim_20210519_power2amp/equal_lnn_AM1Hz_s45_10.m4a,,,
,,,,,41237,2021-05-29_16h36.15.533,judgeSpeechMusic_20210519_logNormShiftAmp_mXs,2020.1.2,MacIntel,60,,,,,,,,,,,,,,,,,,,,,,,,,,1,21.24513,,0,0,149,149,4,1,stimuli/stim_20210519_power2amp/equal_lnn_AM1Hz_s15_45.m4a,,,
,,,,,41237,2021-05-29_16h36.15.533,judgeSpeechMusic_20210519_logNormShiftAmp_mXs,2020.1.2,MacIntel,60,,,,,,,,,,,,,,,,,,,,,,,,,,2,66.02302,,0,1,0,150,78,1,stimuli/stim_20210519_power2amp/equal_lnn_AM2.5Hz_s35_29.m4a,,,
,,,,,41237,2021-05-29_16h36.15.533,judgeSpeechMusic_20210519_logNormShiftAmp_mXs,2020.1.2,MacIntel,60,,,,,,,,,,,,,,,,,,,,,,,,,,2,6.576315,2,1,1,1,151,127,1,stimuli/stim_20210519_power2amp/equal_lnn_AM4Hz_s35_28.m4a,1.723225,,
,,,,,41237,2021-05-29_16h36.15.533,judgeSpeechMusic_20210519_logNormShiftAmp_mXs,2020.1.2,MacIntel,60,,,,,,,,,,,,,,,,,,,,,,,,,,2,7.964705,,0,1,2,152,124,1,stimuli/stim_20210519_power2amp/equal_lnn_AM4Hz_s35_3.m4a,,,
,,,,,41237,2021-05-29_16h36.15.533,judgeSpeechMusic_20210519_logNormShiftAmp_mXs,2020.1.2,MacIntel,60,,,,,,,,,,,,,,,,,,,,,,,,,,1,6.111865,,0,1,3,153,32,1,stimuli/stim_20210519_power2amp/equal_lnn_AM1Hz_s45_12.m4a,,,
,,,,,41237,2021-05-29_16h36.15.533,judgeSpeechMusic_20210519_logNormShiftAmp_mXs,2020.1.2,MacIntel,60,,,,,,,,,,,,,,,,,,,,,,,,,,2,5.57413,,0,1,4,154,59,1,stimuli/stim_20210519_power2amp/equal_lnn_AM2.5Hz_s15_31.m4a,,,
,,,,,41237,2021-05-29_16h36.15.533,judgeSpeechMusic_20210519_logNormShiftAmp_mXs,2020.1.2,MacIntel,60,,,,,,,,,,,,,,,,,,,,,,,,,,2,282.07358,,0,1,5,155,49,1,stimuli/stim_20210519_power2amp/equal_lnn_AM1Hz_s55_28.m4a,,,
,,,,,41237,2021-05-29_16h36.15.533,judgeSpeechMusic_20210519_logNormShiftAmp_mXs,2020.1.2,MacIntel,60,,,,,,,,,,,,,,,,,,,,,,,,,,1,5.98353,,0,1,6,156,30,1,stimuli/stim_20210519_power2amp/equal_lnn_AM1Hz_s45_8.m4a,,,
,,,,,41237,2021-05-29_16h36.15.533,judgeSpeechMusic_20210519_logNormShiftAmp_mXs,2020.1.2,MacIntel,60,,,,,,,,,,,,,,,,,,,,,,,,,,2,6.751155,,0,1,7,157,106,1,stimuli/stim_20210519_power2amp/equal_lnn_AM4Hz_s15_27.m4a,,,
,,,,,41237,2021-05-29_16h36.15.533,judgeSpeechMusic_20210519_logNormShiftAmp_mXs,2020.1.2,MacIntel,60,,,,,,,,,,,,,,,,,,,,,,,,,,1,7.34169,,0,1,8,158,134,1,stimuli/stim_20210519_power2amp/equal_lnn_AM4Hz_s45_34.m4a,,,
,,,,,41237,2021-05-29_16h36.15.533,judgeSpeechMusic_20210519_logNormShiftAmp_mXs,2020.1.2,MacIntel,60,,,,,,,,,,,,,,,,,,,,,,,,,,2,6.660325,,0,1,9,159,85,1,stimuli/stim_20210519_power2amp/equal_lnn_AM2.5Hz_s45_38.m4a,,,
,,,,,41237,2021-05-29_16h36.15.533,judgeSpeechMusic_20210519_logNormShiftAmp_mXs,2020.1.2,MacIntel,60,,,,,,,,,,,,,,,,,,,,,,,,,,2,5.942405,,0,1,10,160,117,1,stimuli/stim_20210519_power2amp/equal_lnn_AM4Hz_s25_7.m4a,,,
,,,,,41237,2021-05-29_16h36.15.533,judgeSpeechMusic_20210519_logNormShiftAmp_mXs,2020.1.2,MacIntel,60,,,,,,,,,,,,,,,,,,,,,,,,,,2,5.87883,,0,1,11,161,57,1,stimuli/stim_20210519_power2amp/equal_lnn_AM2.5Hz_s15_1.m4a,,,
,,,,,41237,2021-05-29_16h36.15.533,judgeSpeechMusic_20210519_logNormShiftAmp_mXs,2020.1.2,MacIntel,60,,,,,,,,,,,,,,,,,,,,,,,,,,1,6.76657,,0,1,12,162,133,1,stimuli/stim_20210519_power2amp/equal_lnn_AM4Hz_s45_15.m4a,,,
,,,,,41237,2021-05-29_16h36.15.533,judgeSpeechMusic_20210519_logNormShiftAmp_mXs,2020.1.2,MacIntel,60,,,,,,,,,,,,,,,,,,,,,,,,,,1,7.13473,,0,1,13,163,125,1,stimuli/stim_20210519_power2amp/equal_lnn_AM4Hz_s35_36.m4a,,,
,,,,,41237,2021-05-29_16h36.15.533,judgeSpeechMusic_20210519_logNormShiftAmp_mXs,2020.1.2,MacIntel,60,,,,,,,,,,,,,,,,,,,,,,,,,,2,6.902755,,0,1,14,164,120,1,stimuli/stim_20210519_power2amp/equal_lnn_AM4Hz_s35_43.m4a,,,
,,,,,41237,2021-05-29_16h36.15.533,judgeSpeechMusic_20210519_logNormShiftAmp_mXs,2020.1.2,MacIntel,60,,,,,,,,,,,,,,,,,,,,,,,,,,2,52.610105,,0,1,15,165,12,1,stimuli/stim_20210519_power2amp/equal_lnn_AM1Hz_s25_23.m4a,,,
,,,,,41237,2021-05-29_16h36.15.533,judgeSpeechMusic_20210519_logNormShiftAmp_mXs,2020.1.2,MacIntel,60,,,,,,,,,,,,,,,,,,,,,,,,,,2,5.97414,,0,1,16,166,50,1,stimuli/stim_20210519_power2amp/equal_lnn_AM2.5Hz_s15_30.m4a,,,
,,,,,41237,2021-05-29_16h36.15.533,judgeSpeechMusic_20210519_logNormShiftAmp_mXs,2020.1.2,MacIntel,60,,,,,,,,,,,,,,,,,,,,,,,,,,2,32.2065,,0,1,17,167,60,1,stimuli/stim_20210519_power2amp/equal_lnn_AM2.5Hz_s25_44.m4a,,,
,,,,,41237,2021-05-29_16h36.15.533,judgeSpeechMusic_20210519_logNormShiftAmp_mXs,2020.1.2,MacIntel,60,,,,,,,,,,,,,,,,,,,,,,,,,,2,24.362955,,0,1,18,168,115,1,stimuli/stim_20210519_power2amp/equal_lnn_AM4Hz_s25_23.m4a,,,
,,,,,41237,2021-05-29_16h36.15.533,judgeSpeechMusic_20210519_logNormShiftAmp_mXs,2020.1.2,MacIntel,60,,,,,,,,,,,,,,,,,,,,,,,,,,2,58.0121,,0,1,19,169,45,1,stimuli/stim_20210519_power2amp/equal_lnn_AM1Hz_s55_43.m4a,,,
,,,,,41237,2021-05-29_16h36.15.533,judgeSpeechMusic_20210519_logNormShiftAmp_mXs,2020.1.2,MacIntel,60,,,,,,,,,,,,,,,,,,,,,,,,,,1,5.84119,,0,1,20,170,148,1,stimuli/stim_20210519_power2amp/equal_lnn_AM4Hz_s55_41.m4a,,,
,,,,,41237,2021-05-29_16h36.15.533,judgeSpeechMusic_20210519_logNormShiftAmp_mXs,2020.1.2,MacIntel,60,,,,,,,,,,,,,,,,,,,,,,,,,,2,12.408575,,0,1,21,171,56,1,stimuli/stim_20210519_power2amp/equal_lnn_AM2.5Hz_s15_4.m4a,,,
,,,,,41237,2021-05-29_16h36.15.533,judgeSpeechMusic_20210519_logNormShiftAmp_mXs,2020.1.2,MacIntel,60,,,,,,,,,,,,,,,,,,,,,,,,,,1,6.496515,2,1,1,22,172,110,1,stimuli/stim_20210519_power2amp/equal_lnn_AM4Hz_s25_10.m4a,1.849825,,
,,,,,41237,2021-05-29_16h36.15.533,judgeSpeechMusic_20210519_logNormShiftAmp_mXs,2020.1.2,MacIntel,60,,,,,,,,,,,,,,,,,,,,,,,,,,2,19.172815,,0,1,23,173,51,1,stimuli/stim_20210519_power2amp/equal_lnn_AM2.5Hz_s15_44.m4a,,,
,,,,,41237,2021-05-29_16h36.15.533,judgeSpeechMusic_20210519_logNormShiftAmp_mXs,2020.1.2,MacIntel,60,,,,,,,,,,,,,,,,,,,,,,,,,,2,5.905885,,0,1,24,174,62,1,stimuli/stim_20210519_power2amp/equal_lnn_AM2.5Hz_s25_16.m4a,,,
,,,,,41237,2021-05-29_16h36.15.533,judgeSpeechMusic_20210519_logNormShiftAmp_mXs,2020.1.2,MacIntel,60,,,,,,,,,,,,,,,,,,,,,,,,,,2,52.138655,,0,1,25,175,96,1,stimuli/stim_20210519_power2amp/equal_lnn_AM2.5Hz_s55_31.m4a,,,
,,,,,41237,2021-05-29_16h36.15.533,judgeSpeechMusic_20210519_logNormShiftAmp_mXs,2020.1.2,MacIntel,60,,,,,,,,,,,,,,,,,,,,,,,,,,1,12.75469,,0,1,26,176,36,1,stimuli/stim_20210519_power2amp/equal_lnn_AM1Hz_s45_48.m4a,,,
,,,,,41237,2021-05-29_16h36.15.533,judgeSpeechMusic_20210519_logNormShiftAmp_mXs,2020.1.2,MacIntel,60,,,,,,,,,,,,,,,,,,,,,,,,,,1,68.887125,,0,1,27,177,131,1,stimuli/stim_20210519_power2amp/equal_lnn_AM4Hz_s45_7.m4a,,,
,,,,,41237,2021-05-29_16h36.15.533,judgeSpeechMusic_20210519_logNormShiftAmp_mXs,2020.1.2,MacIntel,60,,,,,,,,,,,,,,,,,,,,,,,,,,1,246.267025,,0,1,28,178,75,1,stimuli/stim_20210519_power2amp/equal_lnn_AM2.5Hz_s35_18.m4a,,,
,,,,,41237,2021-05-29_16h36.15.533,judgeSpeechMusic_20210519_logNormShiftAmp_mXs,2020.1.2,MacIntel,60,,,,,,,,,,,,,,,,,,,,,,,,,,1,7.087855,,0,1,29,179,87,1,stimuli/stim_20210519_power2amp/equal_lnn_AM2.5Hz_s45_41.m4a,,,
,,,,,41237,2021-05-29_16h36.15.533,judgeSpeechMusic_20210519_logNormShiftAmp_mXs,2020.1.2,MacIntel,60,,,,,,,,,,,,,,,,,,,,,,,,,,2,5.813285,,0,1,30,180,46,1,stimuli/stim_20210519_power2amp/equal_lnn_AM1Hz_s55_3.m4a,,,
,,,,,41237,2021-05-29_16h36.15.533,judgeSpeechMusic_20210519_logNormShiftAmp_mXs,2020.1.2,MacIntel,60,,,,,,,,,,,,,,,,,,,,,,,,,,1,5.84655,,0,1,31,181,9,1,stimuli/stim_20210519_power2amp/equal_lnn_AM1Hz_s15_38.m4a,,,
,,,,,41237,2021-05-29_16h36.15.533,judgeSpeechMusic_20210519_logNormShiftAmp_mXs,2020.1.2,MacIntel,60,,,,,,,,,,,,,,,,,,,,,,,,,,2,6.08717,,0,1,32,182,25,1,stimuli/stim_20210519_power2amp/equal_lnn_AM1Hz_s35_33.m4a,,,
,,,,,41237,2021-05-29_16h36.15.533,judgeSpeechMusic_20210519_logNormShiftAmp_mXs,2020.1.2,MacIntel,60,,,,,,,,,,,,,,,,,,,,,,,,,,2,9.51213,,0,1,33,183,58,1,stimuli/stim_20210519_power2amp/equal_lnn_AM2.5Hz_s15_48.m4a,,,
,,,,,41237,2021-05-29_16h36.15.533,judgeSpeechMusic_20210519_logNormShiftAmp_mXs,2020.1.2,MacIntel,60,,,,,,,,,,,,,,,,,,,,,,,,,,2,38.95004,,0,1,34,184,67,1,stimuli/stim_20210519_power2amp/equal_lnn_AM2.5Hz_s25_28.m4a,,,
,,,,,41237,2021-05-29_16h36.15.533,judgeSpeechMusic_20210519_logNormShiftAmp_mXs,2020.1.2,MacIntel,60,,,,,,,,,,,,,,,,,,,,,,,,,,1,8.925325,,0,1,35,185,35,1,stimuli/stim_20210519_power2amp/equal_lnn_AM1Hz_s45_30.m4a,,,
,,,,,41237,2021-05-29_16h36.15.533,judgeSpeechMusic_20210519_logNormShiftAmp_mXs,2020.1.2,MacIntel,60,,,,,,,,,,,,,,,,,,,,,,,,,,2,30.438095,,0,1,36,186,69,1,stimuli/stim_20210519_power2amp/equal_lnn_AM2.5Hz_s25_21.m4a,,,
,,,,,41237,2021-05-29_16h36.15.533,judgeSpeechMusic_20210519_logNormShiftAmp_mXs,2020.1.2,MacIntel,60,,,,,,,,,,,,,,,,,,,,,,,,,,2,6.255105,,0,1,37,187,149,1,stimuli/stim_20210519_power2amp/equal_lnn_AM4Hz_s55_23.m4a,,,
,,,,,41237,2021-05-29_16h36.15.533,judgeSpeechMusic_20210519_logNormShiftAmp_mXs,2020.1.2,MacIntel,60,,,,,,,,,,,,,,,,,,,,,,,,,,1,8.09198,,0,1,38,188,112,1,stimuli/stim_20210519_power2amp/equal_lnn_AM4Hz_s25_34.m4a,,,
,,,,,41237,2021-05-29_16h36.15.533,judgeSpeechMusic_20210519_logNormShiftAmp_mXs,2020.1.2,MacIntel,60,,,,,,,,,,,,,,,,,,,,,,,,,,2,6.10945,,0,1,39,189,14,1,stimuli/stim_20210519_power2amp/equal_lnn_AM1Hz_s25_15.m4a,,,
,,,,,41237,2021-05-29_16h36.15.533,judgeSpeechMusic_20210519_logNormShiftAmp_mXs,2020.1.2,MacIntel,60,,,,,,,,,,,,,,,,,,,,,,,,,,1,5.830925,,0,1,40,190,11,1,stimuli/stim_20210519_power2amp/equal_lnn_AM1Hz_s25_48.m4a,,,
,,,,,41237,2021-05-29_16h36.15.533,judgeSpeechMusic_20210519_logNormShiftAmp_mXs,2020.1.2,MacIntel,60,,,,,,,,,,,,,,,,,,,,,,,,,,1,5.341015,,0,1,41,191,66,1,stimuli/stim_20210519_power2amp/equal_lnn_AM2.5Hz_s25_2.m4a,,,
,,,,,41237,2021-05-29_16h36.15.533,judgeSpeechMusic_20210519_logNormShiftAmp_mXs,2020.1.2,MacIntel,60,,,,,,,,,,,,,,,,,,,,,,,,,,1,5.387975,,0,1,42,192,70,1,stimuli/stim_20210519_power2amp/equal_lnn_AM2.5Hz_s35_38.m4a,,,
,,,,,41237,2021-05-29_16h36.15.533,judgeSpeechMusic_20210519_logNormShiftAmp_mXs,2020.1.2,MacIntel,60,,,,,,,,,,,,,,,,,,,,,,,,,,2,7.122885,,0,1,43,193,145,1,stimuli/stim_20210519_power2amp/equal_lnn_AM4Hz_s55_18.m4a,,,
,,,,,41237,2021-05-29_16h36.15.533,judgeSpeechMusic_20210519_logNormShiftAmp_mXs,2020.1.2,MacIntel,60,,,,,,,,,,,,,,,,,,,,,,,,,,2,15.1971,,0,1,44,194,146,1,stimuli/stim_20210519_power2amp/equal_lnn_AM4Hz_s55_35.m4a,,,
,,,,,41237,2021-05-29_16h36.15.533,judgeSpeechMusic_20210519_logNormShiftAmp_mXs,2020.1.2,MacIntel,60,,,,,,,,,,,,,,,,,,,,,,,,,,1,82.25113,,0,1,45,195,91,1,stimuli/stim_20210519_power2amp/equal_lnn_AM2.5Hz_s55_26.m4a,,,
,,,,,41237,2021-05-29_16h36.15.533,judgeSpeechMusic_20210519_logNormShiftAmp_mXs,2020.1.2,MacIntel,60,,,,,,,,,,,,,,,,,,,,,,,,,,2,6.94662,2,1,1,46,196,19,1,stimuli/stim_20210519_power2amp/equal_lnn_AM1Hz_s25_6.m4a,0.824825,,
,,,,,41237,2021-05-29_16h36.15.533,judgeSpeechMusic_20210519_logNormShiftAmp_mXs,2020.1.2,MacIntel,60,,,,,,,,,,,,,,,,,,,,,,,,,,2,5.82111,,0,1,47,197,140,1,stimuli/stim_20210519_power2amp/equal_lnn_AM4Hz_s55_44.m4a,,,
,,,,,41237,2021-05-29_16h36.15.533,judgeSpeechMusic_20210519_logNormShiftAmp_mXs,2020.1.2,MacIntel,60,,,,,,,,,,,,,,,,,,,,,,,,,,1,5.71095,,0,1,48,198,20,1,stimuli/stim_20210519_power2amp/equal_lnn_AM1Hz_s35_20.m4a,,,
,,,,,41237,2021-05-29_16h36.15.533,judgeSpeechMusic_20210519_logNormShiftAmp_mXs,2020.1.2,MacIntel,60,,,,,,,,,,,,,,,,,,,,,,,,,,1,10.494115,,0,1,49,199,122,1,stimuli/stim_20210519_power2amp/equal_lnn_AM4Hz_s35_29.m4a,,,
,,,,,41237,2021-05-29_16h36.15.533,judgeSpeechMusic_20210519_logNormShiftAmp_mXs,2020.1.2,MacIntel,60,,,,,,,,,,,,,,,,,,,,,,,,,,1,6.572885,,0,1,50,200,44,1,stimuli/stim_20210519_power2amp/equal_lnn_AM1Hz_s55_36.m4a,,,
,,,,,41237,2021-05-29_16h36.15.533,judgeSpeechMusic_20210519_logNormShiftAmp_mXs,2020.1.2,MacIntel,60,,,,,,,,,,,,,,,,,,,,,,,,,,1,8.793055,,0,1,51,201,76,1,stimuli/stim_20210519_power2amp/equal_lnn_AM2.5Hz_s35_32.m4a,,,
,,,,,41237,2021-05-29_16h36.15.533,judgeSpeechMusic_20210519_logNormShiftAmp_mXs,2020.1.2,MacIntel,60,,,,,,,,,,,,,,,,,,,,,,,,,,1,139.605865,,0,1,52,202,136,1,stimuli/stim_20210519_power2amp/equal_lnn_AM4Hz_s45_36.m4a,,,
,,,,,41237,2021-05-29_16h36.15.533,judgeSpeechMusic_20210519_logNormShiftAmp_mXs,2020.1.2,MacIntel,60,,,,,,,,,,,,,,,,,,,,,,,,,,1,7.34708,,0,1,53,203,41,1,stimuli/stim_20210519_power2amp/equal_lnn_AM1Hz_s55_2.m4a,,,
,,,,,41237,2021-05-29_16h36.15.533,judgeSpeechMusic_20210519_logNormShiftAmp_mXs,2020.1.2,MacIntel,60,,,,,,,,,,,,,,,,,,,,,,,,,,1,6.159485,,0,1,54,204,126,1,stimuli/stim_20210519_power2amp/equal_lnn_AM4Hz_s35_40.m4a,,,
,,,,,41237,2021-05-29_16h36.15.533,judgeSpeechMusic_20210519_logNormShiftAmp_mXs,2020.1.2,MacIntel,60,,,,,,,,,,,,,,,,,,,,,,,,,,1,33.66202,,0,1,55,205,6,1,stimuli/stim_20210519_power2amp/equal_lnn_AM1Hz_s15_17.m4a,,,
,,,,,41237,2021-05-29_16h36.15.533,judgeSpeechMusic_20210519_logNormShiftAmp_mXs,2020.1.2,MacIntel,60,,,,,,,,,,,,,,,,,,,,,,,,,,1,5.843735,,0,1,56,206,18,1,stimuli/stim_20210519_power2amp/equal_lnn_AM1Hz_s25_40.m4a,,,
,,,,,41237,2021-05-29_16h36.15.533,judgeSpeechMusic_20210519_logNormShiftAmp_mXs,2020.1.2,MacIntel,60,,,,,,,,,,,,,,,,,,,,,,,,,,1,7.527985,,0,1,57,207,43,1,stimuli/stim_20210519_power2amp/equal_lnn_AM1Hz_s55_35.m4a,,,
,,,,,41237,2021-05-29_16h36.15.533,judgeSpeechMusic_20210519_logNormShiftAmp_mXs,2020.1.2,MacIntel,60,,,,,,,,,,,,,,,,,,,,,,,,,,1,6.46189,,0,1,58,208,3,1,stimuli/stim_20210519_power2amp/equal_lnn_AM1Hz_s15_7.m4a,,,
,,,,,41237,2021-05-29_16h36.15.533,judgeSpeechMusic_20210519_logNormShiftAmp_mXs,2020.1.2,MacIntel,60,,,,,,,,,,,,,,,,,,,,,,,,,,1,6.57784,,0,1,59,209,26,1,stimuli/stim_20210519_power2amp/equal_lnn_AM1Hz_s35_4.m4a,,,
,,,,,41237,2021-05-29_16h36.15.533,judgeSpeechMusic_20210519_logNormShiftAmp_mXs,2020.1.2,MacIntel,60,,,,,,,,,,,,,,,,,,,,,,,,,,2,5.673915,,0,1,60,210,101,1,stimuli/stim_20210519_power2amp/equal_lnn_AM4Hz_s15_43.m4a,,,
,,,,,41237,2021-05-29_16h36.15.533,judgeSpeechMusic_20210519_logNormShiftAmp_mXs,2020.1.2,MacIntel,60,,,,,,,,,,,,,,,,,,,,,,,,,,2,8.42448,,0,1,61,211,47,1,stimuli/stim_20210519_power2amp/equal_lnn_AM1Hz_s55_24.m4a,,,
,,,,,41237,2021-05-29_16h36.15.533,judgeSpeechMusic_20210519_logNormShiftAmp_mXs,2020.1.2,MacIntel,60,,,,,,,,,,,,,,,,,,,,,,,,,,1,5.915765,,0,1,62,212,17,1,stimuli/stim_20210519_power2amp/equal_lnn_AM1Hz_s25_35.m4a,,,
,,,,,41237,2021-05-29_16h36.15.533,judgeSpeechMusic_20210519_logNormShiftAmp_mXs,2020.1.2,MacIntel,60,,,,,,,,,,,,,,,,,,,,,,,,,,2,6.28936,,0,1,63,213,108,1,stimuli/stim_20210519_power2amp/equal_lnn_AM4Hz_s15_31.m4a,,,
,,,,,41237,2021-05-29_16h36.15.533,judgeSpeechMusic_20210519_logNormShiftAmp_mXs,2020.1.2,MacIntel,60,,,,,,,,,,,,,,,,,,,,,,,,,,2,6.527225,,0,1,64,214,119,1,stimuli/stim_20210519_power2amp/equal_lnn_AM4Hz_s25_26.m4a,,,
,,,,,41237,2021-05-29_16h36.15.533,judgeSpeechMusic_20210519_logNormShiftAmp_mXs,2020.1.2,MacIntel,60,,,,,,,,,,,,,,,,,,,,,,,,,,2,5.77727,,0,1,65,215,107,1,stimuli/stim_20210519_power2amp/equal_lnn_AM4Hz_s15_37.m4a,,,
,,,,,41237,2021-05-29_16h36.15.533,judgeSpeechMusic_20210519_logNormShiftAmp_mXs,2020.1.2,MacIntel,60,,,,,,,,,,,,,,,,,,,,,,,,,,2,6.276255,,0,1,66,216,53,1,stimuli/stim_20210519_power2amp/equal_lnn_AM2.5Hz_s15_26.m4a,,,
,,,,,41237,2021-05-29_16h36.15.533,judgeSpeechMusic_20210519_logNormShiftAmp_mXs,2020.1.2,MacIntel,60,,,,,,,,,,,,,,,,,,,,,,,,,,2,9.46114,,0,1,67,217,16,1,stimuli/stim_20210519_power2amp/equal_lnn_AM1Hz_s25_46.m4a,,,
,,,,,41237,2021-05-29_16h36.15.533,judgeSpeechMusic_20210519_logNormShiftAmp_mXs,2020.1.2,MacIntel,60,,,,,,,,,,,,,,,,,,,,,,,,,,2,13.810515,1,1,1,68,218,5,1,stimuli/stim_20210519_power2amp/equal_lnn_AM1Hz_s15_2.m4a,0.32724,,
,,,,,41237,2021-05-29_16h36.15.533,judgeSpeechMusic_20210519_logNormShiftAmp_mXs,2020.1.2,MacIntel,60,,,,,,,,,,,,,,,,,,,,,,,,,,1,12.290115,,0,1,69,219,92,1,stimuli/stim_20210519_power2amp/equal_lnn_AM2.5Hz_s55_24.m4a,,,
,,,,,41237,2021-05-29_16h36.15.533,judgeSpeechMusic_20210519_logNormShiftAmp_mXs,2020.1.2,MacIntel,60,,,,,,,,,,,,,,,,,,,,,,,,,,2,7.472175,,0,1,70,220,68,1,stimuli/stim_20210519_power2amp/equal_lnn_AM2.5Hz_s25_15.m4a,,,
,,,,,41237,2021-05-29_16h36.15.533,judgeSpeechMusic_20210519_logNormShiftAmp_mXs,2020.1.2,MacIntel,60,,,,,,,,,,,,,,,,,,,,,,,,,,2,6.05812,,0,1,71,221,65,1,stimuli/stim_20210519_power2amp/equal_lnn_AM2.5Hz_s25_41.m4a,,,
,,,,,41237,2021-05-29_16h36.15.533,judgeSpeechMusic_20210519_logNormShiftAmp_mXs,2020.1.2,MacIntel,60,,,,,,,,,,,,,,,,,,,,,,,,,,2,24.853605,,0,1,72,222,104,1,stimuli/stim_20210519_power2amp/equal_lnn_AM4Hz_s15_36.m4a,,,
,,,,,41237,2021-05-29_16h36.15.533,judgeSpeechMusic_20210519_logNormShiftAmp_mXs,2020.1.2,MacIntel,60,,,,,,,,,,,,,,,,,,,,,,,,,,2,6.373375,,0,1,73,223,129,1,stimuli/stim_20210519_power2amp/equal_lnn_AM4Hz_s35_38.m4a,,,
,,,,,41237,2021-05-29_16h36.15.533,judgeSpeechMusic_20210519_logNormShiftAmp_mXs,2020.1.2,MacIntel,60,,,,,,,,,,,,,,,,,,,,,,,,,,2,7.143605,,0,1,74,224,109,1,stimuli/stim_20210519_power2amp/equal_lnn_AM4Hz_s15_49.m4a,,,
,,,,,41237,2021-05-29_16h36.15.533,judgeSpeechMusic_20210519_logNormShiftAmp_mXs,2020.1.2,MacIntel,60,,,,,,,,,,,,,,,,,,,,,,,,,,1,13.85964,,0,1,75,225,141,1,stimuli/stim_20210519_power2amp/equal_lnn_AM4Hz_s55_17.m4a,,,
,,,,,41237,2021-05-29_16h36.15.533,judgeSpeechMusic_20210519_logNormShiftAmp_mXs,2020.1.2,MacIntel,60,,,,,,,,,,,,,,,,,,,,,,,,,,1,201.10817,,0,1,76,226,98,1,stimuli/stim_20210519_power2amp/equal_lnn_AM2.5Hz_s55_17.m4a,,,
,,,,,41237,2021-05-29_16h36.15.533,judgeSpeechMusic_20210519_logNormShiftAmp_mXs,2020.1.2,MacIntel,60,,,,,,,,,,,,,,,,,,,,,,,,,,1,6.045405,,0,1,77,227,138,1,stimuli/stim_20210519_power2amp/equal_lnn_AM4Hz_s45_21.m4a,,,
,,,,,41237,2021-05-29_16h36.15.533,judgeSpeechMusic_20210519_logNormShiftAmp_mXs,2020.1.2,MacIntel,60,,,,,,,,,,,,,,,,,,,,,,,,,,1,5.74392,,0,1,78,228,82,1,stimuli/stim_20210519_power2amp/equal_lnn_AM2.5Hz_s45_42.m4a,,,
,,,,,41237,2021-05-29_16h36.15.533,judgeSpeechMusic_20210519_logNormShiftAmp_mXs,2020.1.2,MacIntel,60,,,,,,,,,,,,,,,,,,,,,,,,,,2,326.225205,,0,1,79,229,111,1,stimuli/stim_20210519_power2amp/equal_lnn_AM4Hz_s25_5.m4a,,,
,,,,,41237,2021-05-29_16h36.15.533,judgeSpeechMusic_20210519_logNormShiftAmp_mXs,2020.1.2,MacIntel,60,,,,,,,,,,,,,,,,,,,,,,,,,,2,7.30659,,0,1,80,230,23,1,stimuli/stim_20210519_power2amp/equal_lnn_AM1Hz_s35_22.m4a,,,
,,,,,41237,2021-05-29_16h36.15.533,judgeSpeechMusic_20210519_logNormShiftAmp_mXs,2020.1.2,MacIntel,60,,,,,,,,,,,,,,,,,,,,,,,,,,2,7.941445,,0,1,81,231,128,1,stimuli/stim_20210519_power2amp/equal_lnn_AM4Hz_s35_19.m4a,,,
,,,,,41237,2021-05-29_16h36.15.533,judgeSpeechMusic_20210519_logNormShiftAmp_mXs,2020.1.2,MacIntel,60,,,,,,,,,,,,,,,,,,,,,,,,,,2,7.156505,,0,1,82,232,52,1,stimuli/stim_20210519_power2amp/equal_lnn_AM2.5Hz_s15_22.m4a,,,
,,,,,41237,2021-05-29_16h36.15.533,judgeSpeechMusic_20210519_logNormShiftAmp_mXs,2020.1.2,MacIntel,60,,,,,,,,,,,,,,,,,,,,,,,,,,2,6.129985,,0,1,83,233,89,1,stimuli/stim_20210519_power2amp/equal_lnn_AM2.5Hz_s45_11.m4a,,,
,,,,,41237,2021-05-29_16h36.15.533,judgeSpeechMusic_20210519_logNormShiftAmp_mXs,2020.1.2,MacIntel,60,,,,,,,,,,,,,,,,,,,,,,,,,,1,6.656535,,0,1,84,234,10,1,stimuli/stim_20210519_power2amp/equal_lnn_AM1Hz_s25_42.m4a,,,
,,,,,41237,2021-05-29_16h36.15.533,judgeSpeechMusic_20210519_logNormShiftAmp_mXs,2020.1.2,MacIntel,60,,,,,,,,,,,,,,,,,,,,,,,,,,1,7.705865,,0,1,85,235,15,1,stimuli/stim_20210519_power2amp/equal_lnn_AM1Hz_s25_1.m4a,,,
,,,,,41237,2021-05-29_16h36.15.533,judgeSpeechMusic_20210519_logNormShiftAmp_mXs,2020.1.2,MacIntel,60,,,,,,,,,,,,,,,,,,,,,,,,,,1,10.3594,,0,1,86,236,61,1,stimuli/stim_20210519_power2amp/equal_lnn_AM2.5Hz_s25_40.m4a,,,
,,,,,41237,2021-05-29_16h36.15.533,judgeSpeechMusic_20210519_logNormShiftAmp_mXs,2020.1.2,MacIntel,60,,,,,,,,,,,,,,,,,,,,,,,,,,1,74.319755,,0,1,87,237,34,1,stimuli/stim_20210519_power2amp/equal_lnn_AM1Hz_s45_36.m4a,,,
,,,,,41237,2021-05-29_16h36.15.533,judgeSpeechMusic_20210519_logNormShiftAmp_mXs,2020.1.2,MacIntel,60,,,,,,,,,,,,,,,,,,,,,,,,,,1,5.676165,,0,1,88,238,147,1,stimuli/stim_20210519_power2amp/equal_lnn_AM4Hz_s55_9.m4a,,,
,,,,,41237,2021-05-29_16h36.15.533,judgeSpeechMusic_20210519_logNormShiftAmp_mXs,2020.1.2,MacIntel,60,,,,,,,,,,,,,,,,,,,,,,,,,,1,8.738595,,0,1,89,239,37,1,stimuli/stim_20210519_power2amp/equal_lnn_AM1Hz_s45_47.m4a,,,
,,,,,41237,2021-05-29_16h36.15.533,judgeSpeechMusic_20210519_logNormShiftAmp_mXs,2020.1.2,MacIntel,60,,,,,,,,,,,,,,,,,,,,,,,,,,2,6.287955,,0,1,90,240,24,1,stimuli/stim_20210519_power2amp/equal_lnn_AM1Hz_s35_8.m4a,,,
,,,,,41237,2021-05-29_16h36.15.533,judgeSpeechMusic_20210519_logNormShiftAmp_mXs,2020.1.2,MacIntel,60,,,,,,,,,,,,,,,,,,,,,,,,,,2,6.92319,4,1,1,91,241,31,1,stimuli/stim_20210519_power2amp/equal_lnn_AM1Hz_s45_25.m4a,0.40555,,
,,,,,41237,2021-05-29_16h36.15.533,judgeSpeechMusic_20210519_logNormShiftAmp_mXs,2020.1.2,MacIntel,60,,,,,,,,,,,,,,,,,,,,,,,,,,1,6.57769,,0,1,92,242,84,1,stimuli/stim_20210519_power2amp/equal_lnn_AM2.5Hz_s45_16.m4a,,,
,,,,,41237,2021-05-29_16h36.15.533,judgeSpeechMusic_20210519_logNormShiftAmp_mXs,2020.1.2,MacIntel,60,,,,,,,,,,,,,,,,,,,,,,,,,,1,19.77816,,0,1,93,243,90,1,stimuli/stim_20210519_power2amp/equal_lnn_AM2.5Hz_s55_15.m4a,,,
,,,,,41237,2021-05-29_16h36.15.533,judgeSpeechMusic_20210519_logNormShiftAmp_mXs,2020.1.2,MacIntel,60,,,,,,,,,,,,,,,,,,,,,,,,,,2,17.58664,,0,1,94,244,142,1,stimuli/stim_20210519_power2amp/equal_lnn_AM4Hz_s55_22.m4a,,,
,,,,,41237,2021-05-29_16h36.15.533,judgeSpeechMusic_20210519_logNormShiftAmp_mXs,2020.1.2,MacIntel,60,,,,,,,,,,,,,,,,,,,,,,,,,,2,13.621365,,0,1,95,245,100,1,stimuli/stim_20210519_power2amp/equal_lnn_AM4Hz_s15_34.m4a,,,
,,,,,41237,2021-05-29_16h36.15.533,judgeSpeechMusic_20210519_logNormShiftAmp_mXs,2020.1.2,MacIntel,60,,,,,,,,,,,,,,,,,,,,,,,,,,2,7.96943,,0,1,96,246,40,1,stimuli/stim_20210519_power2amp/equal_lnn_AM1Hz_s55_15.m4a,,,
,,,,,41237,2021-05-29_16h36.15.533,judgeSpeechMusic_20210519_logNormShiftAmp_mXs,2020.1.2,MacIntel,60,,,,,,,,,,,,,,,,,,,,,,,,,,2,9.226725,,0,1,97,247,130,1,stimuli/stim_20210519_power2amp/equal_lnn_AM4Hz_s45_42.m4a,,,
,,,,,41237,2021-05-29_16h36.15.533,judgeSpeechMusic_20210519_logNormShiftAmp_mXs,2020.1.2,MacIntel,60,,,,,,,,,,,,,,,,,,,,,,,,,,2,7.82705,,0,1,98,248,77,1,stimuli/stim_20210519_power2amp/equal_lnn_AM2.5Hz_s35_10.m4a,,,
,,,,,41237,2021-05-29_16h36.15.533,judgeSpeechMusic_20210519_logNormShiftAmp_mXs,2020.1.2,MacIntel,60,,,,,,,,,,,,,,,,,,,,,,,,,,2,7.143845,,0,1,99,249,99,1,stimuli/stim_20210519_power2amp/equal_lnn_AM2.5Hz_s55_12.m4a,,,
,,,,,41237,2021-05-29_16h36.15.533,judgeSpeechMusic_20210519_logNormShiftAmp_mXs,2020.1.2,MacIntel,60,,,,,,,,,,,,,,,,,,,,,,,,,,2,17.773515,,0,1,100,250,29,1,stimuli/stim_20210519_power2amp/equal_lnn_AM1Hz_s35_3.m4a,,,
,,,,,41237,2021-05-29_16h36.15.533,judgeSpeechMusic_20210519_logNormShiftAmp_mXs,2020.1.2,MacIntel,60,,,,,,,,,,,,,,,,,,,,,,,,,,2,20.90815,,0,1,101,251,72,1,stimuli/stim_20210519_power2amp/equal_lnn_AM2.5Hz_s35_7.m4a,,,
,,,,,41237,2021-05-29_16h36.15.533,judgeSpeechMusic_20210519_logNormShiftAmp_mXs,2020.1.2,MacIntel,60,,,,,,,,,,,,,,,,,,,,,,,,,,2,18.562825,,0,1,102,252,74,1,stimuli/stim_20210519_power2amp/equal_lnn_AM2.5Hz_s35_15.m4a,,,
,,,,,41237,2021-05-29_16h36.15.533,judgeSpeechMusic_20210519_logNormShiftAmp_mXs,2020.1.2,MacIntel,60,,,,,,,,,,,,,,,,,,,,,,,,,,1,140.657275,,0,1,103,253,8,1,stimuli/stim_20210519_power2amp/equal_lnn_AM1Hz_s15_26.m4a,,,
,,,,,41237,2021-05-29_16h36.15.533,judgeSpeechMusic_20210519_logNormShiftAmp_mXs,2020.1.2,MacIntel,60,,,,,,,,,,,,,,,,,,,,,,,,,,1,10.417565,,0,1,104,254,123,1,stimuli/stim_20210519_power2amp/equal_lnn_AM4Hz_s35_49.m4a,,,
,,,,,41237,2021-05-29_16h36.15.533,judgeSpeechMusic_20210519_logNormShiftAmp_mXs,2020.1.2,MacIntel,60,,,,,,,,,,,,,,,,,,,,,,,,,,1,5.74383,,0,1,105,255,132,1,stimuli/stim_20210519_power2amp/equal_lnn_AM4Hz_s45_9.m4a,,,
,,,,,41237,2021-05-29_16h36.15.533,judgeSpeechMusic_20210519_logNormShiftAmp_mXs,2020.1.2,MacIntel,60,,,,,,,,,,,,,,,,,,,,,,,,,,2,6.561595,,0,1,106,256,97,1,stimuli/stim_20210519_power2amp/equal_lnn_AM2.5Hz_s55_1.m4a,,,
,,,,,41237,2021-05-29_16h36.15.533,judgeSpeechMusic_20210519_logNormShiftAmp_mXs,2020.1.2,MacIntel,60,,,,,,,,,,,,,,,,,,,,,,,,,,2,5.61035,,0,1,107,257,48,1,stimuli/stim_20210519_power2amp/equal_lnn_AM1Hz_s55_34.m4a,,,
,,,,,41237,2021-05-29_16h36.15.533,judgeSpeechMusic_20210519_logNormShiftAmp_mXs,2020.1.2,MacIntel,60,,,,,,,,,,,,,,,,,,,,,,,,,,2,5.779125,,0,1,108,258,144,1,stimuli/stim_20210519_power2amp/equal_lnn_AM4Hz_s55_36.m4a,,,
,,,,,41237,2021-05-29_16h36.15.533,judgeSpeechMusic_20210519_logNormShiftAmp_mXs,2020.1.2,MacIntel,60,,,,,,,,,,,,,,,,,,,,,,,,,,1,7.076665,,0,1,109,259,95,1,stimuli/stim_20210519_power2amp/equal_lnn_AM2.5Hz_s55_3.m4a,,,
,,,,,41237,2021-05-29_16h36.15.533,judgeSpeechMusic_20210519_logNormShiftAmp_mXs,2020.1.2,MacIntel,60,,,,,,,,,,,,,,,,,,,,,,,,,,2,5.724615,,0,1,110,260,105,1,stimuli/stim_20210519_power2amp/equal_lnn_AM4Hz_s15_11.m4a,,,
,,,,,41237,2021-05-29_16h36.15.533,judgeSpeechMusic_20210519_logNormShiftAmp_mXs,2020.1.2,MacIntel,60,,,,,,,,,,,,,,,,,,,,,,,,,,2,6.194355,2,1,1,111,261,55,1,stimuli/stim_20210519_power2amp/equal_lnn_AM2.5Hz_s15_43.m4a,0.98847,,
,,,,,41237,2021-05-29_16h36.15.533,judgeSpeechMusic_20210519_logNormShiftAmp_mXs,2020.1.2,MacIntel,60,,,,,,,,,,,,,,,,,,,,,,,,,,2,28.274775,,0,1,112,262,13,1,stimuli/stim_20210519_power2amp/equal_lnn_AM1Hz_s25_43.m4a,,,
,,,,,41237,2021-05-29_16h36.15.533,judgeSpeechMusic_20210519_logNormShiftAmp_mXs,2020.1.2,MacIntel,60,,,,,,,,,,,,,,,,,,,,,,,,,,1,6.672335,,0,1,113,263,93,1,stimuli/stim_20210519_power2amp/equal_lnn_AM2.5Hz_s55_36.m4a,,,
,,,,,41237,2021-05-29_16h36.15.533,judgeSpeechMusic_20210519_logNormShiftAmp_mXs,2020.1.2,MacIntel,60,,,,,,,,,,,,,,,,,,,,,,,,,,1,5.507485,,0,1,114,264,73,1,stimuli/stim_20210519_power2amp/equal_lnn_AM2.5Hz_s35_4.m4a,,,
,,,,,41237,2021-05-29_16h36.15.533,judgeSpeechMusic_20210519_logNormShiftAmp_mXs,2020.1.2,MacIntel,60,,,,,,,,,,,,,,,,,,,,,,,,,,2,25.27485,,0,1,115,265,7,1,stimuli/stim_20210519_power2amp/equal_lnn_AM1Hz_s15_33.m4a,,,
,,,,,41237,2021-05-29_16h36.15.533,judgeSpeechMusic_20210519_logNormShiftAmp_mXs,2020.1.2,MacIntel,60,,,,,,,,,,,,,,,,,,,,,,,,,,2,20.841305,,0,1,116,266,38,1,stimuli/stim_20210519_power2amp/equal_lnn_AM1Hz_s45_28.m4a,,,
,,,,,41237,2021-05-29_16h36.15.533,judgeSpeechMusic_20210519_logNormShiftAmp_mXs,2020.1.2,MacIntel,60,,,,,,,,,,,,,,,,,,,,,,,,,,1,6.208715,,0,1,117,267,64,1,stimuli/stim_20210519_power2amp/equal_lnn_AM2.5Hz_s25_20.m4a,,,
,,,,,41237,2021-05-29_16h36.15.533,judgeSpeechMusic_20210519_logNormShiftAmp_mXs,2020.1.2,MacIntel,60,,,,,,,,,,,,,,,,,,,,,,,,,,2,6.1927,,0,1,118,268,103,1,stimuli/stim_20210519_power2amp/equal_lnn_AM4Hz_s15_38.m4a,,,
,,,,,41237,2021-05-29_16h36.15.533,judgeSpeechMusic_20210519_logNormShiftAmp_mXs,2020.1.2,MacIntel,60,,,,,,,,,,,,,,,,,,,,,,,,,,2,7.31176,,0,1,119,269,71,1,stimuli/stim_20210519_power2amp/equal_lnn_AM2.5Hz_s35_22.m4a,,,
,,,,,41237,2021-05-29_16h36.15.533,judgeSpeechMusic_20210519_logNormShiftAmp_mXs,2020.1.2,MacIntel,60,,,,,,,,,,,,,,,,,,,,,,,,,,1,6.112415,,0,1,120,270,63,1,stimuli/stim_20210519_power2amp/equal_lnn_AM2.5Hz_s25_38.m4a,,,
,,,,,41237,2021-05-29_16h36.15.533,judgeSpeechMusic_20210519_logNormShiftAmp_mXs,2020.1.2,MacIntel,60,,,,,,,,,,,,,,,,,,,,,,,,,,2,7.42394,,0,1,121,271,33,1,stimuli/stim_20210519_power2amp/equal_lnn_AM1Hz_s45_10.m4a,,,
,,,,,41237,2021-05-29_16h36.15.533,judgeSpeechMusic_20210519_logNormShiftAmp_mXs,2020.1.2,MacIntel,60,,,,,,,,,,,,,,,,,,,,,,,,,,2,6.090745,,0,1,122,272,116,1,stimuli/stim_20210519_power2amp/equal_lnn_AM4Hz_s25_24.m4a,,,
,,,,,41237,2021-05-29_16h36.15.533,judgeSpeechMusic_20210519_logNormShiftAmp_mXs,2020.1.2,MacIntel,60,,,,,,,,,,,,,,,,,,,,,,,,,,2,70.27771,,0,1,123,273,27,1,stimuli/stim_20210519_power2amp/equal_lnn_AM1Hz_s35_1.m4a,,,
,,,,,41237,2021-05-29_16h36.15.533,judgeSpeechMusic_20210519_logNormShiftAmp_mXs,2020.1.2,MacIntel,60,,,,,,,,,,,,,,,,,,,,,,,,,,1,10.824385,,0,1,124,274,39,1,stimuli/stim_20210519_power2amp/equal_lnn_AM1Hz_s45_34.m4a,,,
,,,,,41237,2021-05-29_16h36.15.533,judgeSpeechMusic_20210519_logNormShiftAmp_mXs,2020.1.2,MacIntel,60,,,,,,,,,,,,,,,,,,,,,,,,,,2,6.81283,,0,1,125,275,137,1,stimuli/stim_20210519_power2amp/equal_lnn_AM4Hz_s45_29.m4a,,,
,,,,,41237,2021-05-29_16h36.15.533,judgeSpeechMusic_20210519_logNormShiftAmp_mXs,2020.1.2,MacIntel,60,,,,,,,,,,,,,,,,,,,,,,,,,,2,5.690125,,0,1,126,276,54,1,stimuli/stim_20210519_power2amp/equal_lnn_AM2.5Hz_s15_2.m4a,,,
,,,,,41237,2021-05-29_16h36.15.533,judgeSpeechMusic_20210519_logNormShiftAmp_mXs,2020.1.2,MacIntel,60,,,,,,,,,,,,,,,,,,,,,,,,,,1,8.093855,,0,1,127,277,4,1,stimuli/stim_20210519_power2amp/equal_lnn_AM1Hz_s15_45.m4a,,,
,,,,,41237,2021-05-29_16h36.15.533,judgeSpeechMusic_20210519_logNormShiftAmp_mXs,2020.1.2,MacIntel,60,,,,,,,,,,,,,,,,,,,,,,,,,,2,7.044795,,0,1,128,278,118,1,stimuli/stim_20210519_power2amp/equal_lnn_AM4Hz_s25_1.m4a,,,
,,,,,41237,2021-05-29_16h36.15.533,judgeSpeechMusic_20210519_logNormShiftAmp_mXs,2020.1.2,MacIntel,60,,,,,,,,,,,,,,,,,,,,,,,,,,1,7.141195,,0,1,129,279,102,1,stimuli/stim_20210519_power2amp/equal_lnn_AM4Hz_s15_2.m4a,,,
,,,,,41237,2021-05-29_16h36.15.533,judgeSpeechMusic_20210519_logNormShiftAmp_mXs,2020.1.2,MacIntel,60,,,,,,,,,,,,,,,,,,,,,,,,,,2,6.145855,,0,1,130,280,80,1,stimuli/stim_20210519_power2amp/equal_lnn_AM2.5Hz_s45_12.m4a,,,
,,,,,41237,2021-05-29_16h36.15.533,judgeSpeechMusic_20210519_logNormShiftAmp_mXs,2020.1.2,MacIntel,60,,,,,,,,,,,,,,,,,,,,,,,,,,1,6.478705,4,1,1,131,281,135,1,stimuli/stim_20210519_power2amp/equal_lnn_AM4Hz_s45_30.m4a,1.908425,,
,,,,,41237,2021-05-29_16h36.15.533,judgeSpeechMusic_20210519_logNormShiftAmp_mXs,2020.1.2,MacIntel,60,,,,,,,,,,,,,,,,,,,,,,,,,,2,7.359415,,0,1,132,282,81,1,stimuli/stim_20210519_power2amp/equal_lnn_AM2.5Hz_s45_27.m4a,,,
,,,,,41237,2021-05-29_16h36.15.533,judgeSpeechMusic_20210519_logNormShiftAmp_mXs,2020.1.2,MacIntel,60,,,,,,,,,,,,,,,,,,,,,,,,,,1,5.97319,,0,1,133,283,28,1,stimuli/stim_20210519_power2amp/equal_lnn_AM1Hz_s35_47.m4a,,,
,,,,,41237,2021-05-29_16h36.15.533,judgeSpeechMusic_20210519_logNormShiftAmp_mXs,2020.1.2,MacIntel,60,,,,,,,,,,,,,,,,,,,,,,,,,,1,6.738465,,0,1,134,284,22,1,stimuli/stim_20210519_power2amp/equal_lnn_AM1Hz_s35_40.m4a,,,
,,,,,41237,2021-05-29_16h36.15.533,judgeSpeechMusic_20210519_logNormShiftAmp_mXs,2020.1.2,MacIntel,60,,,,,,,,,,,,,,,,,,,,,,,,,,1,6.19312,,0,1,135,285,139,1,stimuli/stim_20210519_power2amp/equal_lnn_AM4Hz_s45_2.m4a,,,
,,,,,41237,2021-05-29_16h36.15.533,judgeSpeechMusic_20210519_logNormShiftAmp_mXs,2020.1.2,MacIntel,60,,,,,,,,,,,,,,,,,,,,,,,,,,2,6.539565,,0,1,136,286,94,1,stimuli/stim_20210519_power2amp/equal_lnn_AM2.5Hz_s55_18.m4a,,,
,,,,,41237,2021-05-29_16h36.15.533,judgeSpeechMusic_20210519_logNormShiftAmp_mXs,2020.1.2,MacIntel,60,,,,,,,,,,,,,,,,,,,,,,,,,,2,5.95432,,0,1,137,287,88,1,stimuli/stim_20210519_power2amp/equal_lnn_AM2.5Hz_s45_26.m4a,,,
,,,,,41237,2021-05-29_16h36.15.533,judgeSpeechMusic_20210519_logNormShiftAmp_mXs,2020.1.2,MacIntel,60,,,,,,,,,,,,,,,,,,,,,,,,,,1,6.590275,,0,1,138,288,143,1,stimuli/stim_20210519_power2amp/equal_lnn_AM4Hz_s55_38.m4a,,,
,,,,,41237,2021-05-29_16h36.15.533,judgeSpeechMusic_20210519_logNormShiftAmp_mXs,2020.1.2,MacIntel,60,,,,,,,,,,,,,,,,,,,,,,,,,,1,8.604845,,0,1,139,289,83,1,stimuli/stim_20210519_power2amp/equal_lnn_AM2.5Hz_s45_23.m4a,,,
,,,,,41237,2021-05-29_16h36.15.533,judgeSpeechMusic_20210519_logNormShiftAmp_mXs,2020.1.2,MacIntel,60,,,,,,,,,,,,,,,,,,,,,,,,,,1,6.62293,,0,1,140,290,1,1,stimuli/stim_20210519_power2amp/equal_lnn_AM1Hz_s15_11.m4a,,,
,,,,,41237,2021-05-29_16h36.15.533,judgeSpeechMusic_20210519_logNormShiftAmp_mXs,2020.1.2,MacIntel,60,,,,,,,,,,,,,,,,,,,,,,,,,,1,6.22452,,0,1,141,291,114,1,stimuli/stim_20210519_power2amp/equal_lnn_AM4Hz_s25_2.m4a,,,
,,,,,41237,2021-05-29_16h36.15.533,judgeSpeechMusic_20210519_logNormShiftAmp_mXs,2020.1.2,MacIntel,60,,,,,,,,,,,,,,,,,,,,,,,,,,2,6.364475,,0,1,142,292,79,1,stimuli/stim_20210519_power2amp/equal_lnn_AM2.5Hz_s35_3.m4a,,,
,,,,,41237,2021-05-29_16h36.15.533,judgeSpeechMusic_20210519_logNormShiftAmp_mXs,2020.1.2,MacIntel,60,,,,,,,,,,,,,,,,,,,,,,,,,,1,8.843775,,0,1,143,293,113,1,stimuli/stim_20210519_power2amp/equal_lnn_AM4Hz_s25_40.m4a,,,
,,,,,41237,2021-05-29_16h36.15.533,judgeSpeechMusic_20210519_logNormShiftAmp_mXs,2020.1.2,MacIntel,60,,,,,,,,,,,,,,,,,,,,,,,,,,1,7.869715,,0,1,144,294,121,1,stimuli/stim_20210519_power2amp/equal_lnn_AM4Hz_s35_48.m4a,,,
,,,,,41237,2021-05-29_16h36.15.533,judgeSpeechMusic_20210519_logNormShiftAmp_mXs,2020.1.2,MacIntel,60,,,,,,,,,,,,,,,,,,,,,,,,,,2,221.4021,,0,1,145,295,86,1,stimuli/stim_20210519_power2amp/equal_lnn_AM2.5Hz_s45_32.m4a,,,
,,,,,41237,2021-05-29_16h36.15.533,judgeSpeechMusic_20210519_logNormShiftAmp_mXs,2020.1.2,MacIntel,60,,,,,,,,,,,,,,,,,,,,,,,,,,1,6.37913,,0,1,146,296,0,1,stimuli/stim_20210519_power2amp/equal_lnn_AM1Hz_s15_30.m4a,,,
,,,,,41237,2021-05-29_16h36.15.533,judgeSpeechMusic_20210519_logNormShiftAmp_mXs,2020.1.2,MacIntel,60,,,,,,,,,,,,,,,,,,,,,,,,,,2,7.006635,,0,1,147,297,2,1,stimuli/stim_20210519_power2amp/equal_lnn_AM1Hz_s15_12.m4a,,,
,,,,,41237,2021-05-29_16h36.15.533,judgeSpeechMusic_20210519_logNormShiftAmp_mXs,2020.1.2,MacIntel,60,,,,,,,,,,,,,,,,,,,,,,,,,,2,89.680585,,0,1,148,298,42,1,stimuli/stim_20210519_power2amp/equal_lnn_AM1Hz_s55_45.m4a,,,
,,,,,41237,2021-05-29_16h36.15.533,judgeSpeechMusic_20210519_logNormShiftAmp_mXs,2020.1.2,MacIntel,60,,,,,,,,,,,,,,,,,,,,,,,,,,1,6.325195,,0,1,149,299,21,1,stimuli/stim_20210519_power2amp/equal_lnn_AM1Hz_s35_50.m4a,,,
,,,,,41237,2021-05-29_16h36.15.533,judgeSpeechMusic_20210519_logNormShiftAmp_mXs,2020.1.2,MacIntel,60,,,,,,,,,,,,,,,,,,,,,,,,,,,,,,,,,,,,,space,8.734805
