headphoneResponse.keys,headphoneResponse.corr,headphoneResponse.rt,headphoneTrial.thisRepN,headphoneTrial.thisTrialN,headphoneTrial.thisN,headphoneTrial.thisIndex,headphoneTrial.ran,headphone_sound1,headphone_sound2,headphone_sound3,corrAns,participant,date,expName,psychopyVersion,OS,frameRate,trainSlider.response,trainSlider.rt,beepTrainResponse.keys,beepTrainResponse.corr,trainingTrials.thisRepN,trainingTrials.thisTrialN,trainingTrials.thisN,trainingTrials.thisIndex,trainingTrials.ran,trainAudioFile,beepTrainResponse.rt,readyReal_resp.keys,readyReal_resp.rt,ratingSlider.response,ratingSlider.rt,beepResp.keys,beepResp.corr,expTrials.thisRepN,expTrials.thisTrialN,expTrials.thisN,expTrials.thisIndex,expTrials.ran,audioFile,beepResp.rt,end_resp.keys,end_resp.rt
2,1,1.616,0,0,0,1,1,stimuli/screen_antiphase.wav,stimuli/screen_quiet.wav,stimuli/screen_origin.wav,2,41235,2021-06-06_23h39.27.504,judgeSpeechMusic_20210519_logNormShiftAmp_mXs,2020.1.2,MacIntel,60,,,,,,,,,,,,,,,,,,,,,,,,,,
3,1,0.9704,0,1,1,2,1,stimuli/screen_origin.wav,stimuli/screen_antiphase.wav,stimuli/screen_quiet.wav,3,41235,2021-06-06_23h39.27.504,judgeSpeechMusic_20210519_logNormShiftAmp_mXs,2020.1.2,MacIntel,60,,,,,,,,,,,,,,,,,,,,,,,,,,
1,1,0.7005,0,2,2,5,1,stimuli/screen_quiet.wav,stimuli/screen_origin.wav,stimuli/screen_antiphase.wav,1,41235,2021-06-06_23h39.27.504,judgeSpeechMusic_20210519_logNormShiftAmp_mXs,2020.1.2,MacIntel,60,,,,,,,,,,,,,,,,,,,,,,,,,,
1,1,0.952,0,3,3,4,1,stimuli/screen_quiet.wav,stimuli/screen_antiphase.wav,stimuli/screen_origin.wav,1,41235,2021-06-06_23h39.27.504,judgeSpeechMusic_20210519_logNormShiftAmp_mXs,2020.1.2,MacIntel,60,,,,,,,,,,,,,,,,,,,,,,,,,,
2,1,0.521,0,4,4,3,1,stimuli/screen_origin.wav,stimuli/screen_quiet.wav,stimuli/screen_antiphase.wav,2,41235,2021-06-06_23h39.27.504,judgeSpeechMusic_20210519_logNormShiftAmp_mXs,2020.1.2,MacIntel,60,,,,,,,,,,,,,,,,,,,,,,,,,,
3,1,0.2841,0,5,5,0,1,stimuli/screen_antiphase.wav,stimuli/screen_origin.wav,stimuli/screen_quiet.wav,3,41235,2021-06-06_23h39.27.504,judgeSpeechMusic_20210519_logNormShiftAmp_mXs,2020.1.2,MacIntel,60,,,,,,,,,,,,,,,,,,,,,,,,,,
,,,,,,,,,,,,41235,2021-06-06_23h39.27.504,judgeSpeechMusic_20210519_logNormShiftAmp_mXs,2020.1.2,MacIntel,60,1,13.1558,,0,0,0,0,2,1,stimuli/stim_20210519_power2amp/equal_lnn_AM_training3.5Hz_s20.m4a,,,,,,,,,,,,,,,,
,,,,,,,,,,,,41235,2021-06-06_23h39.27.504,judgeSpeechMusic_20210519_logNormShiftAmp_mXs,2020.1.2,MacIntel,60,2,8.389,,0,0,1,1,1,1,stimuli/stim_20210519_power2amp/equal_lnn_AM_training1.5Hz_s50.m4a,,,,,,,,,,,,,,,,
,,,,,,,,,,,,41235,2021-06-06_23h39.27.504,judgeSpeechMusic_20210519_logNormShiftAmp_mXs,2020.1.2,MacIntel,60,2,6.1908,3,1,0,2,2,3,1,stimuli/stim_20210519_power2amp/equal_lnn_AM_training3.5Hz_s50.m4a,2.5728,,,,,,,,,,,,,,,
,,,,,,,,,,,,41235,2021-06-06_23h39.27.504,judgeSpeechMusic_20210519_logNormShiftAmp_mXs,2020.1.2,MacIntel,60,2,7.7248,,0,0,3,3,0,1,stimuli/stim_20210519_power2amp/equal_lnn_AM_training1.5Hz_s20.m4a,,,,,,,,,,,,,,,,
,,,,,,,,,,,,41235,2021-06-06_23h39.27.504,judgeSpeechMusic_20210519_logNormShiftAmp_mXs,2020.1.2,MacIntel,60,,,,,,,,,,,,space,8.7952,1,6.8329,,0,0,0,0,68,1,stimuli/stim_20210519_power2amp/equal_lnn_AM2.5Hz_s25_36.m4a,,,
,,,,,,,,,,,,41235,2021-06-06_23h39.27.504,judgeSpeechMusic_20210519_logNormShiftAmp_mXs,2020.1.2,MacIntel,60,,,,,,,,,,,,,,1,6.3239,,0,0,1,1,82,1,stimuli/stim_20210519_power2amp/equal_lnn_AM2.5Hz_s45_29.m4a,,,
,,,,,,,,,,,,41235,2021-06-06_23h39.27.504,judgeSpeechMusic_20210519_logNormShiftAmp_mXs,2020.1.2,MacIntel,60,,,,,,,,,,,,,,1,6.3543,,0,0,2,2,144,1,stimuli/stim_20210519_power2amp/equal_lnn_AM4Hz_s55_17.m4a,,,
,,,,,,,,,,,,41235,2021-06-06_23h39.27.504,judgeSpeechMusic_20210519_logNormShiftAmp_mXs,2020.1.2,MacIntel,60,,,,,,,,,,,,,,1,6.0535,,0,0,3,3,83,1,stimuli/stim_20210519_power2amp/equal_lnn_AM2.5Hz_s45_24.m4a,,,
,,,,,,,,,,,,41235,2021-06-06_23h39.27.504,judgeSpeechMusic_20210519_logNormShiftAmp_mXs,2020.1.2,MacIntel,60,,,,,,,,,,,,,,2,6.9075,,0,0,4,4,52,1,stimuli/stim_20210519_power2amp/equal_lnn_AM2.5Hz_s15_33.m4a,,,
,,,,,,,,,,,,41235,2021-06-06_23h39.27.504,judgeSpeechMusic_20210519_logNormShiftAmp_mXs,2020.1.2,MacIntel,60,,,,,,,,,,,,,,1,6.5962,,0,0,5,5,149,1,stimuli/stim_20210519_power2amp/equal_lnn_AM4Hz_s55_47.m4a,,,
,,,,,,,,,,,,41235,2021-06-06_23h39.27.504,judgeSpeechMusic_20210519_logNormShiftAmp_mXs,2020.1.2,MacIntel,60,,,,,,,,,,,,,,1,6.0038,,0,0,6,6,107,1,stimuli/stim_20210519_power2amp/equal_lnn_AM4Hz_s15_39.m4a,,,
,,,,,,,,,,,,41235,2021-06-06_23h39.27.504,judgeSpeechMusic_20210519_logNormShiftAmp_mXs,2020.1.2,MacIntel,60,,,,,,,,,,,,,,2,6.9746,,0,0,7,7,9,1,stimuli/stim_20210519_power2amp/equal_lnn_AM1Hz_s15_43.m4a,,,
,,,,,,,,,,,,41235,2021-06-06_23h39.27.504,judgeSpeechMusic_20210519_logNormShiftAmp_mXs,2020.1.2,MacIntel,60,,,,,,,,,,,,,,2,5.9899,,0,0,8,8,143,1,stimuli/stim_20210519_power2amp/equal_lnn_AM4Hz_s55_13.m4a,,,
,,,,,,,,,,,,41235,2021-06-06_23h39.27.504,judgeSpeechMusic_20210519_logNormShiftAmp_mXs,2020.1.2,MacIntel,60,,,,,,,,,,,,,,1,5.8614,,0,0,9,9,104,1,stimuli/stim_20210519_power2amp/equal_lnn_AM4Hz_s15_13.m4a,,,
,,,,,,,,,,,,41235,2021-06-06_23h39.27.504,judgeSpeechMusic_20210519_logNormShiftAmp_mXs,2020.1.2,MacIntel,60,,,,,,,,,,,,,,1,5.9929,,0,0,10,10,132,1,stimuli/stim_20210519_power2amp/equal_lnn_AM4Hz_s45_23.m4a,,,
,,,,,,,,,,,,41235,2021-06-06_23h39.27.504,judgeSpeechMusic_20210519_logNormShiftAmp_mXs,2020.1.2,MacIntel,60,,,,,,,,,,,,,,2,6.7054,,0,0,11,11,64,1,stimuli/stim_20210519_power2amp/equal_lnn_AM2.5Hz_s25_13.m4a,,,
,,,,,,,,,,,,41235,2021-06-06_23h39.27.504,judgeSpeechMusic_20210519_logNormShiftAmp_mXs,2020.1.2,MacIntel,60,,,,,,,,,,,,,,2,6.1417,,0,0,12,12,22,1,stimuli/stim_20210519_power2amp/equal_lnn_AM1Hz_s35_35.m4a,,,
,,,,,,,,,,,,41235,2021-06-06_23h39.27.504,judgeSpeechMusic_20210519_logNormShiftAmp_mXs,2020.1.2,MacIntel,60,,,,,,,,,,,,,,2,6.6112,,0,0,13,13,70,1,stimuli/stim_20210519_power2amp/equal_lnn_AM2.5Hz_s35_11.m4a,,,
,,,,,,,,,,,,41235,2021-06-06_23h39.27.504,judgeSpeechMusic_20210519_logNormShiftAmp_mXs,2020.1.2,MacIntel,60,,,,,,,,,,,,,,2,8.3393,,0,0,14,14,47,1,stimuli/stim_20210519_power2amp/equal_lnn_AM1Hz_s55_8.m4a,,,
,,,,,,,,,,,,41235,2021-06-06_23h39.27.504,judgeSpeechMusic_20210519_logNormShiftAmp_mXs,2020.1.2,MacIntel,60,,,,,,,,,,,,,,2,7.4087,,0,0,15,15,119,1,stimuli/stim_20210519_power2amp/equal_lnn_AM4Hz_s25_43.m4a,,,
,,,,,,,,,,,,41235,2021-06-06_23h39.27.504,judgeSpeechMusic_20210519_logNormShiftAmp_mXs,2020.1.2,MacIntel,60,,,,,,,,,,,,,,1,8.0246,,0,0,16,16,126,1,stimuli/stim_20210519_power2amp/equal_lnn_AM4Hz_s35_17.m4a,,,
,,,,,,,,,,,,41235,2021-06-06_23h39.27.504,judgeSpeechMusic_20210519_logNormShiftAmp_mXs,2020.1.2,MacIntel,60,,,,,,,,,,,,,,1,6.3704,,0,0,17,17,139,1,stimuli/stim_20210519_power2amp/equal_lnn_AM4Hz_s45_20.m4a,,,
,,,,,,,,,,,,41235,2021-06-06_23h39.27.504,judgeSpeechMusic_20210519_logNormShiftAmp_mXs,2020.1.2,MacIntel,60,,,,,,,,,,,,,,1,10.6075,,0,0,18,18,7,1,stimuli/stim_20210519_power2amp/equal_lnn_AM1Hz_s15_14.m4a,,,
,,,,,,,,,,,,41235,2021-06-06_23h39.27.504,judgeSpeechMusic_20210519_logNormShiftAmp_mXs,2020.1.2,MacIntel,60,,,,,,,,,,,,,,2,6.4069,,0,0,19,19,45,1,stimuli/stim_20210519_power2amp/equal_lnn_AM1Hz_s55_44.m4a,,,
,,,,,,,,,,,,41235,2021-06-06_23h39.27.504,judgeSpeechMusic_20210519_logNormShiftAmp_mXs,2020.1.2,MacIntel,60,,,,,,,,,,,,,,1,7.4135,,0,0,20,20,76,1,stimuli/stim_20210519_power2amp/equal_lnn_AM2.5Hz_s35_44.m4a,,,
,,,,,,,,,,,,41235,2021-06-06_23h39.27.504,judgeSpeechMusic_20210519_logNormShiftAmp_mXs,2020.1.2,MacIntel,60,,,,,,,,,,,,,,2,6.1228,,0,0,21,21,43,1,stimuli/stim_20210519_power2amp/equal_lnn_AM1Hz_s55_19.m4a,,,
,,,,,,,,,,,,41235,2021-06-06_23h39.27.504,judgeSpeechMusic_20210519_logNormShiftAmp_mXs,2020.1.2,MacIntel,60,,,,,,,,,,,,,,2,5.7246,,0,0,22,22,120,1,stimuli/stim_20210519_power2amp/equal_lnn_AM4Hz_s35_13.m4a,,,
,,,,,,,,,,,,41235,2021-06-06_23h39.27.504,judgeSpeechMusic_20210519_logNormShiftAmp_mXs,2020.1.2,MacIntel,60,,,,,,,,,,,,,,2,8.008,,0,0,23,23,135,1,stimuli/stim_20210519_power2amp/equal_lnn_AM4Hz_s45_31.m4a,,,
,,,,,,,,,,,,41235,2021-06-06_23h39.27.504,judgeSpeechMusic_20210519_logNormShiftAmp_mXs,2020.1.2,MacIntel,60,,,,,,,,,,,,,,2,6.362,,0,0,24,24,37,1,stimuli/stim_20210519_power2amp/equal_lnn_AM1Hz_s45_46.m4a,,,
,,,,,,,,,,,,41235,2021-06-06_23h39.27.504,judgeSpeechMusic_20210519_logNormShiftAmp_mXs,2020.1.2,MacIntel,60,,,,,,,,,,,,,,2,8.9786,,0,0,25,25,14,1,stimuli/stim_20210519_power2amp/equal_lnn_AM1Hz_s25_6.m4a,,,
,,,,,,,,,,,,41235,2021-06-06_23h39.27.504,judgeSpeechMusic_20210519_logNormShiftAmp_mXs,2020.1.2,MacIntel,60,,,,,,,,,,,,,,1,6.1066,,0,0,26,26,56,1,stimuli/stim_20210519_power2amp/equal_lnn_AM2.5Hz_s15_28.m4a,,,
,,,,,,,,,,,,41235,2021-06-06_23h39.27.504,judgeSpeechMusic_20210519_logNormShiftAmp_mXs,2020.1.2,MacIntel,60,,,,,,,,,,,,,,2,7.2089,,0,0,27,27,35,1,stimuli/stim_20210519_power2amp/equal_lnn_AM1Hz_s45_39.m4a,,,
,,,,,,,,,,,,41235,2021-06-06_23h39.27.504,judgeSpeechMusic_20210519_logNormShiftAmp_mXs,2020.1.2,MacIntel,60,,,,,,,,,,,,,,2,13.2911,,0,0,28,28,63,1,stimuli/stim_20210519_power2amp/equal_lnn_AM2.5Hz_s25_9.m4a,,,
,,,,,,,,,,,,41235,2021-06-06_23h39.27.504,judgeSpeechMusic_20210519_logNormShiftAmp_mXs,2020.1.2,MacIntel,60,,,,,,,,,,,,,,2,6.7775,,0,0,29,29,29,1,stimuli/stim_20210519_power2amp/equal_lnn_AM1Hz_s35_41.m4a,,,
,,,,,,,,,,,,41235,2021-06-06_23h39.27.504,judgeSpeechMusic_20210519_logNormShiftAmp_mXs,2020.1.2,MacIntel,60,,,,,,,,,,,,,,1,6.1457,,0,0,30,30,130,1,stimuli/stim_20210519_power2amp/equal_lnn_AM4Hz_s45_43.m4a,,,
,,,,,,,,,,,,41235,2021-06-06_23h39.27.504,judgeSpeechMusic_20210519_logNormShiftAmp_mXs,2020.1.2,MacIntel,60,,,,,,,,,,,,,,1,6.1264,,0,0,31,31,118,1,stimuli/stim_20210519_power2amp/equal_lnn_AM4Hz_s25_32.m4a,,,
,,,,,,,,,,,,41235,2021-06-06_23h39.27.504,judgeSpeechMusic_20210519_logNormShiftAmp_mXs,2020.1.2,MacIntel,60,,,,,,,,,,,,,,1,5.9789,3,1,0,32,32,106,1,stimuli/stim_20210519_power2amp/equal_lnn_AM4Hz_s15_32.m4a,2.4427,,
,,,,,,,,,,,,41235,2021-06-06_23h39.27.504,judgeSpeechMusic_20210519_logNormShiftAmp_mXs,2020.1.2,MacIntel,60,,,,,,,,,,,,,,1,5.9587,,0,0,33,33,100,1,stimuli/stim_20210519_power2amp/equal_lnn_AM4Hz_s15_15.m4a,,,
,,,,,,,,,,,,41235,2021-06-06_23h39.27.504,judgeSpeechMusic_20210519_logNormShiftAmp_mXs,2020.1.2,MacIntel,60,,,,,,,,,,,,,,1,12.0383,,0,0,34,34,140,1,stimuli/stim_20210519_power2amp/equal_lnn_AM4Hz_s55_31.m4a,,,
,,,,,,,,,,,,41235,2021-06-06_23h39.27.504,judgeSpeechMusic_20210519_logNormShiftAmp_mXs,2020.1.2,MacIntel,60,,,,,,,,,,,,,,2,5.896,,0,0,35,35,4,1,stimuli/stim_20210519_power2amp/equal_lnn_AM1Hz_s15_3.m4a,,,
,,,,,,,,,,,,41235,2021-06-06_23h39.27.504,judgeSpeechMusic_20210519_logNormShiftAmp_mXs,2020.1.2,MacIntel,60,,,,,,,,,,,,,,2,5.9231,,0,0,36,36,54,1,stimuli/stim_20210519_power2amp/equal_lnn_AM2.5Hz_s15_3.m4a,,,
,,,,,,,,,,,,41235,2021-06-06_23h39.27.504,judgeSpeechMusic_20210519_logNormShiftAmp_mXs,2020.1.2,MacIntel,60,,,,,,,,,,,,,,2,8.6142,,0,0,37,37,99,1,stimuli/stim_20210519_power2amp/equal_lnn_AM2.5Hz_s55_12.m4a,,,
,,,,,,,,,,,,41235,2021-06-06_23h39.27.504,judgeSpeechMusic_20210519_logNormShiftAmp_mXs,2020.1.2,MacIntel,60,,,,,,,,,,,,,,2,6.4921,,0,0,38,38,2,1,stimuli/stim_20210519_power2amp/equal_lnn_AM1Hz_s15_41.m4a,,,
,,,,,,,,,,,,41235,2021-06-06_23h39.27.504,judgeSpeechMusic_20210519_logNormShiftAmp_mXs,2020.1.2,MacIntel,60,,,,,,,,,,,,,,2,7.561,,0,0,39,39,38,1,stimuli/stim_20210519_power2amp/equal_lnn_AM1Hz_s45_49.m4a,,,
,,,,,,,,,,,,41235,2021-06-06_23h39.27.504,judgeSpeechMusic_20210519_logNormShiftAmp_mXs,2020.1.2,MacIntel,60,,,,,,,,,,,,,,1,10.9447,,0,0,40,40,81,1,stimuli/stim_20210519_power2amp/equal_lnn_AM2.5Hz_s45_18.m4a,,,
,,,,,,,,,,,,41235,2021-06-06_23h39.27.504,judgeSpeechMusic_20210519_logNormShiftAmp_mXs,2020.1.2,MacIntel,60,,,,,,,,,,,,,,1,12.459,,0,0,41,41,24,1,stimuli/stim_20210519_power2amp/equal_lnn_AM1Hz_s35_7.m4a,,,
,,,,,,,,,,,,41235,2021-06-06_23h39.27.504,judgeSpeechMusic_20210519_logNormShiftAmp_mXs,2020.1.2,MacIntel,60,,,,,,,,,,,,,,2,6.2748,,0,0,42,42,105,1,stimuli/stim_20210519_power2amp/equal_lnn_AM4Hz_s15_30.m4a,,,
,,,,,,,,,,,,41235,2021-06-06_23h39.27.504,judgeSpeechMusic_20210519_logNormShiftAmp_mXs,2020.1.2,MacIntel,60,,,,,,,,,,,,,,2,10.1074,,0,0,43,43,88,1,stimuli/stim_20210519_power2amp/equal_lnn_AM2.5Hz_s45_47.m4a,,,
,,,,,,,,,,,,41235,2021-06-06_23h39.27.504,judgeSpeechMusic_20210519_logNormShiftAmp_mXs,2020.1.2,MacIntel,60,,,,,,,,,,,,,,2,7.2912,,0,0,44,44,93,1,stimuli/stim_20210519_power2amp/equal_lnn_AM2.5Hz_s55_7.m4a,,,
,,,,,,,,,,,,41235,2021-06-06_23h39.27.504,judgeSpeechMusic_20210519_logNormShiftAmp_mXs,2020.1.2,MacIntel,60,,,,,,,,,,,,,,2,5.9097,,0,0,45,45,13,1,stimuli/stim_20210519_power2amp/equal_lnn_AM1Hz_s25_9.m4a,,,
,,,,,,,,,,,,41235,2021-06-06_23h39.27.504,judgeSpeechMusic_20210519_logNormShiftAmp_mXs,2020.1.2,MacIntel,60,,,,,,,,,,,,,,2,20.0902,,0,0,46,46,74,1,stimuli/stim_20210519_power2amp/equal_lnn_AM2.5Hz_s35_7.m4a,,,
,,,,,,,,,,,,41235,2021-06-06_23h39.27.504,judgeSpeechMusic_20210519_logNormShiftAmp_mXs,2020.1.2,MacIntel,60,,,,,,,,,,,,,,1,6.3376,,0,0,47,47,122,1,stimuli/stim_20210519_power2amp/equal_lnn_AM4Hz_s35_46.m4a,,,
,,,,,,,,,,,,41235,2021-06-06_23h39.27.504,judgeSpeechMusic_20210519_logNormShiftAmp_mXs,2020.1.2,MacIntel,60,,,,,,,,,,,,,,1,6.1918,,0,0,48,48,109,1,stimuli/stim_20210519_power2amp/equal_lnn_AM4Hz_s15_4.m4a,,,
,,,,,,,,,,,,41235,2021-06-06_23h39.27.504,judgeSpeechMusic_20210519_logNormShiftAmp_mXs,2020.1.2,MacIntel,60,,,,,,,,,,,,,,2,5.8267,,0,0,49,49,49,1,stimuli/stim_20210519_power2amp/equal_lnn_AM1Hz_s55_18.m4a,,,
,,,,,,,,,,,,41235,2021-06-06_23h39.27.504,judgeSpeechMusic_20210519_logNormShiftAmp_mXs,2020.1.2,MacIntel,60,,,,,,,,,,,,,,1,6.061,,0,0,50,50,148,1,stimuli/stim_20210519_power2amp/equal_lnn_AM4Hz_s55_45.m4a,,,
,,,,,,,,,,,,41235,2021-06-06_23h39.27.504,judgeSpeechMusic_20210519_logNormShiftAmp_mXs,2020.1.2,MacIntel,60,,,,,,,,,,,,,,2,7.9772,,0,0,51,51,16,1,stimuli/stim_20210519_power2amp/equal_lnn_AM1Hz_s25_29.m4a,,,
,,,,,,,,,,,,41235,2021-06-06_23h39.27.504,judgeSpeechMusic_20210519_logNormShiftAmp_mXs,2020.1.2,MacIntel,60,,,,,,,,,,,,,,2,8.5394,1,1,0,52,52,51,1,stimuli/stim_20210519_power2amp/equal_lnn_AM2.5Hz_s15_41.m4a,3.8622,,
,,,,,,,,,,,,41235,2021-06-06_23h39.27.504,judgeSpeechMusic_20210519_logNormShiftAmp_mXs,2020.1.2,MacIntel,60,,,,,,,,,,,,,,2,7.1747,,0,0,53,53,44,1,stimuli/stim_20210519_power2amp/equal_lnn_AM1Hz_s55_45.m4a,,,
,,,,,,,,,,,,41235,2021-06-06_23h39.27.504,judgeSpeechMusic_20210519_logNormShiftAmp_mXs,2020.1.2,MacIntel,60,,,,,,,,,,,,,,1,7.1747,,0,0,54,54,58,1,stimuli/stim_20210519_power2amp/equal_lnn_AM2.5Hz_s15_27.m4a,,,
,,,,,,,,,,,,41235,2021-06-06_23h39.27.504,judgeSpeechMusic_20210519_logNormShiftAmp_mXs,2020.1.2,MacIntel,60,,,,,,,,,,,,,,2,7.4256,,0,0,55,55,117,1,stimuli/stim_20210519_power2amp/equal_lnn_AM4Hz_s25_28.m4a,,,
,,,,,,,,,,,,41235,2021-06-06_23h39.27.504,judgeSpeechMusic_20210519_logNormShiftAmp_mXs,2020.1.2,MacIntel,60,,,,,,,,,,,,,,2,7.1227,,0,0,56,56,34,1,stimuli/stim_20210519_power2amp/equal_lnn_AM1Hz_s45_48.m4a,,,
,,,,,,,,,,,,41235,2021-06-06_23h39.27.504,judgeSpeechMusic_20210519_logNormShiftAmp_mXs,2020.1.2,MacIntel,60,,,,,,,,,,,,,,2,10.561,,0,0,57,57,69,1,stimuli/stim_20210519_power2amp/equal_lnn_AM2.5Hz_s25_21.m4a,,,
,,,,,,,,,,,,41235,2021-06-06_23h39.27.504,judgeSpeechMusic_20210519_logNormShiftAmp_mXs,2020.1.2,MacIntel,60,,,,,,,,,,,,,,2,7.7601,,0,0,58,58,33,1,stimuli/stim_20210519_power2amp/equal_lnn_AM1Hz_s45_34.m4a,,,
,,,,,,,,,,,,41235,2021-06-06_23h39.27.504,judgeSpeechMusic_20210519_logNormShiftAmp_mXs,2020.1.2,MacIntel,60,,,,,,,,,,,,,,1,6.6425,,0,0,59,59,72,1,stimuli/stim_20210519_power2amp/equal_lnn_AM2.5Hz_s35_20.m4a,,,
,,,,,,,,,,,,41235,2021-06-06_23h39.27.504,judgeSpeechMusic_20210519_logNormShiftAmp_mXs,2020.1.2,MacIntel,60,,,,,,,,,,,,,,1,11.7934,,0,0,60,60,62,1,stimuli/stim_20210519_power2amp/equal_lnn_AM2.5Hz_s25_7.m4a,,,
,,,,,,,,,,,,41235,2021-06-06_23h39.27.504,judgeSpeechMusic_20210519_logNormShiftAmp_mXs,2020.1.2,MacIntel,60,,,,,,,,,,,,,,1,6.5896,,0,0,61,61,92,1,stimuli/stim_20210519_power2amp/equal_lnn_AM2.5Hz_s55_4.m4a,,,
,,,,,,,,,,,,41235,2021-06-06_23h39.27.504,judgeSpeechMusic_20210519_logNormShiftAmp_mXs,2020.1.2,MacIntel,60,,,,,,,,,,,,,,1,6.6583,,0,0,62,62,125,1,stimuli/stim_20210519_power2amp/equal_lnn_AM4Hz_s35_31.m4a,,,
,,,,,,,,,,,,41235,2021-06-06_23h39.27.504,judgeSpeechMusic_20210519_logNormShiftAmp_mXs,2020.1.2,MacIntel,60,,,,,,,,,,,,,,1,6.4903,,0,0,63,63,0,1,stimuli/stim_20210519_power2amp/equal_lnn_AM1Hz_s15_15.m4a,,,
,,,,,,,,,,,,41235,2021-06-06_23h39.27.504,judgeSpeechMusic_20210519_logNormShiftAmp_mXs,2020.1.2,MacIntel,60,,,,,,,,,,,,,,1,8.0577,,0,0,64,64,18,1,stimuli/stim_20210519_power2amp/equal_lnn_AM1Hz_s25_27.m4a,,,
,,,,,,,,,,,,41235,2021-06-06_23h39.27.504,judgeSpeechMusic_20210519_logNormShiftAmp_mXs,2020.1.2,MacIntel,60,,,,,,,,,,,,,,1,6.2116,,0,0,65,65,55,1,stimuli/stim_20210519_power2amp/equal_lnn_AM2.5Hz_s15_21.m4a,,,
,,,,,,,,,,,,41235,2021-06-06_23h39.27.504,judgeSpeechMusic_20210519_logNormShiftAmp_mXs,2020.1.2,MacIntel,60,,,,,,,,,,,,,,1,9.841,,0,0,66,66,28,1,stimuli/stim_20210519_power2amp/equal_lnn_AM1Hz_s35_33.m4a,,,
,,,,,,,,,,,,41235,2021-06-06_23h39.27.504,judgeSpeechMusic_20210519_logNormShiftAmp_mXs,2020.1.2,MacIntel,60,,,,,,,,,,,,,,2,7.0088,,0,0,67,67,80,1,stimuli/stim_20210519_power2amp/equal_lnn_AM2.5Hz_s45_44.m4a,,,
,,,,,,,,,,,,41235,2021-06-06_23h39.27.504,judgeSpeechMusic_20210519_logNormShiftAmp_mXs,2020.1.2,MacIntel,60,,,,,,,,,,,,,,2,7.2575,,0,0,68,68,84,1,stimuli/stim_20210519_power2amp/equal_lnn_AM2.5Hz_s45_43.m4a,,,
,,,,,,,,,,,,41235,2021-06-06_23h39.27.504,judgeSpeechMusic_20210519_logNormShiftAmp_mXs,2020.1.2,MacIntel,60,,,,,,,,,,,,,,2,10.1277,,0,0,69,69,27,1,stimuli/stim_20210519_power2amp/equal_lnn_AM1Hz_s35_45.m4a,,,
,,,,,,,,,,,,41235,2021-06-06_23h39.27.504,judgeSpeechMusic_20210519_logNormShiftAmp_mXs,2020.1.2,MacIntel,60,,,,,,,,,,,,,,1,10.6072,,0,0,70,70,25,1,stimuli/stim_20210519_power2amp/equal_lnn_AM1Hz_s35_50.m4a,,,
,,,,,,,,,,,,41235,2021-06-06_23h39.27.504,judgeSpeechMusic_20210519_logNormShiftAmp_mXs,2020.1.2,MacIntel,60,,,,,,,,,,,,,,2,6.6621,,0,0,71,71,137,1,stimuli/stim_20210519_power2amp/equal_lnn_AM4Hz_s45_41.m4a,,,
,,,,,,,,,,,,41235,2021-06-06_23h39.27.504,judgeSpeechMusic_20210519_logNormShiftAmp_mXs,2020.1.2,MacIntel,60,,,,,,,,,,,,,,1,8.6043,,0,0,72,72,113,1,stimuli/stim_20210519_power2amp/equal_lnn_AM4Hz_s25_48.m4a,,,
,,,,,,,,,,,,41235,2021-06-06_23h39.27.504,judgeSpeechMusic_20210519_logNormShiftAmp_mXs,2020.1.2,MacIntel,60,,,,,,,,,,,,,,2,10.3261,,0,0,73,73,65,1,stimuli/stim_20210519_power2amp/equal_lnn_AM2.5Hz_s25_22.m4a,,,
,,,,,,,,,,,,41235,2021-06-06_23h39.27.504,judgeSpeechMusic_20210519_logNormShiftAmp_mXs,2020.1.2,MacIntel,60,,,,,,,,,,,,,,1,14.495,,0,0,74,74,61,1,stimuli/stim_20210519_power2amp/equal_lnn_AM2.5Hz_s25_26.m4a,,,
,,,,,,,,,,,,41235,2021-06-06_23h39.27.504,judgeSpeechMusic_20210519_logNormShiftAmp_mXs,2020.1.2,MacIntel,60,,,,,,,,,,,,,,1,8.3415,,0,0,75,75,41,1,stimuli/stim_20210519_power2amp/equal_lnn_AM1Hz_s55_29.m4a,,,
,,,,,,,,,,,,41235,2021-06-06_23h39.27.504,judgeSpeechMusic_20210519_logNormShiftAmp_mXs,2020.1.2,MacIntel,60,,,,,,,,,,,,,,2,7.3941,,0,0,76,76,42,1,stimuli/stim_20210519_power2amp/equal_lnn_AM1Hz_s55_26.m4a,,,
,,,,,,,,,,,,41235,2021-06-06_23h39.27.504,judgeSpeechMusic_20210519_logNormShiftAmp_mXs,2020.1.2,MacIntel,60,,,,,,,,,,,,,,2,7.3237,3,1,0,77,77,19,1,stimuli/stim_20210519_power2amp/equal_lnn_AM1Hz_s25_25.m4a,1.2653,,
,,,,,,,,,,,,41235,2021-06-06_23h39.27.504,judgeSpeechMusic_20210519_logNormShiftAmp_mXs,2020.1.2,MacIntel,60,,,,,,,,,,,,,,1,6.7605,,0,0,78,78,103,1,stimuli/stim_20210519_power2amp/equal_lnn_AM4Hz_s15_38.m4a,,,
,,,,,,,,,,,,41235,2021-06-06_23h39.27.504,judgeSpeechMusic_20210519_logNormShiftAmp_mXs,2020.1.2,MacIntel,60,,,,,,,,,,,,,,2,7.1627,,0,0,79,79,8,1,stimuli/stim_20210519_power2amp/equal_lnn_AM1Hz_s15_21.m4a,,,
,,,,,,,,,,,,41235,2021-06-06_23h39.27.504,judgeSpeechMusic_20210519_logNormShiftAmp_mXs,2020.1.2,MacIntel,60,,,,,,,,,,,,,,2,11.3743,,0,0,80,80,73,1,stimuli/stim_20210519_power2amp/equal_lnn_AM2.5Hz_s35_36.m4a,,,
,,,,,,,,,,,,41235,2021-06-06_23h39.27.504,judgeSpeechMusic_20210519_logNormShiftAmp_mXs,2020.1.2,MacIntel,60,,,,,,,,,,,,,,2,10.6105,,0,0,81,81,78,1,stimuli/stim_20210519_power2amp/equal_lnn_AM2.5Hz_s35_9.m4a,,,
,,,,,,,,,,,,41235,2021-06-06_23h39.27.504,judgeSpeechMusic_20210519_logNormShiftAmp_mXs,2020.1.2,MacIntel,60,,,,,,,,,,,,,,1,12.4428,,0,0,82,82,146,1,stimuli/stim_20210519_power2amp/equal_lnn_AM4Hz_s55_14.m4a,,,
,,,,,,,,,,,,41235,2021-06-06_23h39.27.504,judgeSpeechMusic_20210519_logNormShiftAmp_mXs,2020.1.2,MacIntel,60,,,,,,,,,,,,,,1,7.9587,,0,0,83,83,121,1,stimuli/stim_20210519_power2amp/equal_lnn_AM4Hz_s35_12.m4a,,,
,,,,,,,,,,,,41235,2021-06-06_23h39.27.504,judgeSpeechMusic_20210519_logNormShiftAmp_mXs,2020.1.2,MacIntel,60,,,,,,,,,,,,,,2,11.0729,,0,0,84,84,127,1,stimuli/stim_20210519_power2amp/equal_lnn_AM4Hz_s35_14.m4a,,,
,,,,,,,,,,,,41235,2021-06-06_23h39.27.504,judgeSpeechMusic_20210519_logNormShiftAmp_mXs,2020.1.2,MacIntel,60,,,,,,,,,,,,,,1,6.687,,0,0,85,85,145,1,stimuli/stim_20210519_power2amp/equal_lnn_AM4Hz_s55_23.m4a,,,
,,,,,,,,,,,,41235,2021-06-06_23h39.27.504,judgeSpeechMusic_20210519_logNormShiftAmp_mXs,2020.1.2,MacIntel,60,,,,,,,,,,,,,,2,7.3757,,0,0,86,86,129,1,stimuli/stim_20210519_power2amp/equal_lnn_AM4Hz_s35_4.m4a,,,
,,,,,,,,,,,,41235,2021-06-06_23h39.27.504,judgeSpeechMusic_20210519_logNormShiftAmp_mXs,2020.1.2,MacIntel,60,,,,,,,,,,,,,,1,10.1409,,0,0,87,87,3,1,stimuli/stim_20210519_power2amp/equal_lnn_AM1Hz_s15_27.m4a,,,
,,,,,,,,,,,,41235,2021-06-06_23h39.27.504,judgeSpeechMusic_20210519_logNormShiftAmp_mXs,2020.1.2,MacIntel,60,,,,,,,,,,,,,,1,6.3873,,0,0,88,88,11,1,stimuli/stim_20210519_power2amp/equal_lnn_AM1Hz_s25_42.m4a,,,
,,,,,,,,,,,,41235,2021-06-06_23h39.27.504,judgeSpeechMusic_20210519_logNormShiftAmp_mXs,2020.1.2,MacIntel,60,,,,,,,,,,,,,,1,12.4107,,0,0,89,89,26,1,stimuli/stim_20210519_power2amp/equal_lnn_AM1Hz_s35_14.m4a,,,
,,,,,,,,,,,,41235,2021-06-06_23h39.27.504,judgeSpeechMusic_20210519_logNormShiftAmp_mXs,2020.1.2,MacIntel,60,,,,,,,,,,,,,,1,10.3441,,0,0,90,90,86,1,stimuli/stim_20210519_power2amp/equal_lnn_AM2.5Hz_s45_33.m4a,,,
,,,,,,,,,,,,41235,2021-06-06_23h39.27.504,judgeSpeechMusic_20210519_logNormShiftAmp_mXs,2020.1.2,MacIntel,60,,,,,,,,,,,,,,2,8.0445,,0,0,91,91,95,1,stimuli/stim_20210519_power2amp/equal_lnn_AM2.5Hz_s55_30.m4a,,,
,,,,,,,,,,,,41235,2021-06-06_23h39.27.504,judgeSpeechMusic_20210519_logNormShiftAmp_mXs,2020.1.2,MacIntel,60,,,,,,,,,,,,,,2,11.8357,,0,0,92,92,31,1,stimuli/stim_20210519_power2amp/equal_lnn_AM1Hz_s45_16.m4a,,,
,,,,,,,,,,,,41235,2021-06-06_23h39.27.504,judgeSpeechMusic_20210519_logNormShiftAmp_mXs,2020.1.2,MacIntel,60,,,,,,,,,,,,,,1,8.0764,,0,0,93,93,1,1,stimuli/stim_20210519_power2amp/equal_lnn_AM1Hz_s15_42.m4a,,,
,,,,,,,,,,,,41235,2021-06-06_23h39.27.504,judgeSpeechMusic_20210519_logNormShiftAmp_mXs,2020.1.2,MacIntel,60,,,,,,,,,,,,,,1,6.7565,,0,0,94,94,67,1,stimuli/stim_20210519_power2amp/equal_lnn_AM2.5Hz_s25_1.m4a,,,
,,,,,,,,,,,,41235,2021-06-06_23h39.27.504,judgeSpeechMusic_20210519_logNormShiftAmp_mXs,2020.1.2,MacIntel,60,,,,,,,,,,,,,,2,8.9425,,0,0,95,95,79,1,stimuli/stim_20210519_power2amp/equal_lnn_AM2.5Hz_s35_29.m4a,,,
,,,,,,,,,,,,41235,2021-06-06_23h39.27.504,judgeSpeechMusic_20210519_logNormShiftAmp_mXs,2020.1.2,MacIntel,60,,,,,,,,,,,,,,1,7.5586,,0,0,96,96,102,1,stimuli/stim_20210519_power2amp/equal_lnn_AM4Hz_s15_20.m4a,,,
,,,,,,,,,,,,41235,2021-06-06_23h39.27.504,judgeSpeechMusic_20210519_logNormShiftAmp_mXs,2020.1.2,MacIntel,60,,,,,,,,,,,,,,1,15.5418,,0,0,97,97,124,1,stimuli/stim_20210519_power2amp/equal_lnn_AM4Hz_s35_24.m4a,,,
,,,,,,,,,,,,41235,2021-06-06_23h39.27.504,judgeSpeechMusic_20210519_logNormShiftAmp_mXs,2020.1.2,MacIntel,60,,,,,,,,,,,,,,1,10.4892,,0,0,98,98,115,1,stimuli/stim_20210519_power2amp/equal_lnn_AM4Hz_s25_41.m4a,,,
,,,,,,,,,,,,41235,2021-06-06_23h39.27.504,judgeSpeechMusic_20210519_logNormShiftAmp_mXs,2020.1.2,MacIntel,60,,,,,,,,,,,,,,2,7.7429,1,1,0,99,99,71,1,stimuli/stim_20210519_power2amp/equal_lnn_AM2.5Hz_s35_10.m4a,0.8445,,
,,,,,,,,,,,,41235,2021-06-06_23h39.27.504,judgeSpeechMusic_20210519_logNormShiftAmp_mXs,2020.1.2,MacIntel,60,,,,,,,,,,,,,,1,7.5136,,0,0,100,100,6,1,stimuli/stim_20210519_power2amp/equal_lnn_AM1Hz_s15_44.m4a,,,
,,,,,,,,,,,,41235,2021-06-06_23h39.27.504,judgeSpeechMusic_20210519_logNormShiftAmp_mXs,2020.1.2,MacIntel,60,,,,,,,,,,,,,,1,6.8412,,0,0,101,101,134,1,stimuli/stim_20210519_power2amp/equal_lnn_AM4Hz_s45_35.m4a,,,
,,,,,,,,,,,,41235,2021-06-06_23h39.27.504,judgeSpeechMusic_20210519_logNormShiftAmp_mXs,2020.1.2,MacIntel,60,,,,,,,,,,,,,,2,5.9237,,0,0,102,102,112,1,stimuli/stim_20210519_power2amp/equal_lnn_AM4Hz_s25_21.m4a,,,
,,,,,,,,,,,,41235,2021-06-06_23h39.27.504,judgeSpeechMusic_20210519_logNormShiftAmp_mXs,2020.1.2,MacIntel,60,,,,,,,,,,,,,,1,6.8262,,0,0,103,103,147,1,stimuli/stim_20210519_power2amp/equal_lnn_AM4Hz_s55_39.m4a,,,
,,,,,,,,,,,,41235,2021-06-06_23h39.27.504,judgeSpeechMusic_20210519_logNormShiftAmp_mXs,2020.1.2,MacIntel,60,,,,,,,,,,,,,,2,25.5454,,0,0,104,104,128,1,stimuli/stim_20210519_power2amp/equal_lnn_AM4Hz_s35_33.m4a,,,
,,,,,,,,,,,,41235,2021-06-06_23h39.27.504,judgeSpeechMusic_20210519_logNormShiftAmp_mXs,2020.1.2,MacIntel,60,,,,,,,,,,,,,,1,9.4059,,0,0,105,105,66,1,stimuli/stim_20210519_power2amp/equal_lnn_AM2.5Hz_s25_5.m4a,,,
,,,,,,,,,,,,41235,2021-06-06_23h39.27.504,judgeSpeechMusic_20210519_logNormShiftAmp_mXs,2020.1.2,MacIntel,60,,,,,,,,,,,,,,1,8.0705,,0,0,106,106,5,1,stimuli/stim_20210519_power2amp/equal_lnn_AM1Hz_s15_29.m4a,,,
,,,,,,,,,,,,41235,2021-06-06_23h39.27.504,judgeSpeechMusic_20210519_logNormShiftAmp_mXs,2020.1.2,MacIntel,60,,,,,,,,,,,,,,1,7.0089,,0,0,107,107,141,1,stimuli/stim_20210519_power2amp/equal_lnn_AM4Hz_s55_34.m4a,,,
,,,,,,,,,,,,41235,2021-06-06_23h39.27.504,judgeSpeechMusic_20210519_logNormShiftAmp_mXs,2020.1.2,MacIntel,60,,,,,,,,,,,,,,1,6.2439,,0,0,108,108,101,1,stimuli/stim_20210519_power2amp/equal_lnn_AM4Hz_s15_14.m4a,,,
,,,,,,,,,,,,41235,2021-06-06_23h39.27.504,judgeSpeechMusic_20210519_logNormShiftAmp_mXs,2020.1.2,MacIntel,60,,,,,,,,,,,,,,2,8.1395,,0,0,109,109,77,1,stimuli/stim_20210519_power2amp/equal_lnn_AM2.5Hz_s35_47.m4a,,,
,,,,,,,,,,,,41235,2021-06-06_23h39.27.504,judgeSpeechMusic_20210519_logNormShiftAmp_mXs,2020.1.2,MacIntel,60,,,,,,,,,,,,,,2,26.7276,,0,0,110,110,32,1,stimuli/stim_20210519_power2amp/equal_lnn_AM1Hz_s45_6.m4a,,,
,,,,,,,,,,,,41235,2021-06-06_23h39.27.504,judgeSpeechMusic_20210519_logNormShiftAmp_mXs,2020.1.2,MacIntel,60,,,,,,,,,,,,,,2,5.8094,,0,0,111,111,138,1,stimuli/stim_20210519_power2amp/equal_lnn_AM4Hz_s45_45.m4a,,,
,,,,,,,,,,,,41235,2021-06-06_23h39.27.504,judgeSpeechMusic_20210519_logNormShiftAmp_mXs,2020.1.2,MacIntel,60,,,,,,,,,,,,,,1,8.1597,,0,0,112,112,85,1,stimuli/stim_20210519_power2amp/equal_lnn_AM2.5Hz_s45_7.m4a,,,
,,,,,,,,,,,,41235,2021-06-06_23h39.27.504,judgeSpeechMusic_20210519_logNormShiftAmp_mXs,2020.1.2,MacIntel,60,,,,,,,,,,,,,,2,6.1757,,0,0,113,113,10,1,stimuli/stim_20210519_power2amp/equal_lnn_AM1Hz_s25_22.m4a,,,
,,,,,,,,,,,,41235,2021-06-06_23h39.27.504,judgeSpeechMusic_20210519_logNormShiftAmp_mXs,2020.1.2,MacIntel,60,,,,,,,,,,,,,,2,6.0946,,0,0,114,114,133,1,stimuli/stim_20210519_power2amp/equal_lnn_AM4Hz_s45_26.m4a,,,
,,,,,,,,,,,,41235,2021-06-06_23h39.27.504,judgeSpeechMusic_20210519_logNormShiftAmp_mXs,2020.1.2,MacIntel,60,,,,,,,,,,,,,,1,7.9964,,0,0,115,115,87,1,stimuli/stim_20210519_power2amp/equal_lnn_AM2.5Hz_s45_9.m4a,,,
,,,,,,,,,,,,41235,2021-06-06_23h39.27.504,judgeSpeechMusic_20210519_logNormShiftAmp_mXs,2020.1.2,MacIntel,60,,,,,,,,,,,,,,1,21.6745,,0,0,116,116,90,1,stimuli/stim_20210519_power2amp/equal_lnn_AM2.5Hz_s55_25.m4a,,,
,,,,,,,,,,,,41235,2021-06-06_23h39.27.504,judgeSpeechMusic_20210519_logNormShiftAmp_mXs,2020.1.2,MacIntel,60,,,,,,,,,,,,,,2,7.9578,,0,0,117,117,75,1,stimuli/stim_20210519_power2amp/equal_lnn_AM2.5Hz_s35_8.m4a,,,
,,,,,,,,,,,,41235,2021-06-06_23h39.27.504,judgeSpeechMusic_20210519_logNormShiftAmp_mXs,2020.1.2,MacIntel,60,,,,,,,,,,,,,,2,6.9929,,0,0,118,118,46,1,stimuli/stim_20210519_power2amp/equal_lnn_AM1Hz_s55_28.m4a,,,
,,,,,,,,,,,,41235,2021-06-06_23h39.27.504,judgeSpeechMusic_20210519_logNormShiftAmp_mXs,2020.1.2,MacIntel,60,,,,,,,,,,,,,,2,6.1441,,0,0,119,119,89,1,stimuli/stim_20210519_power2amp/equal_lnn_AM2.5Hz_s45_34.m4a,,,
,,,,,,,,,,,,41235,2021-06-06_23h39.27.504,judgeSpeechMusic_20210519_logNormShiftAmp_mXs,2020.1.2,MacIntel,60,,,,,,,,,,,,,,1,17.2452,,0,0,120,120,111,1,stimuli/stim_20210519_power2amp/equal_lnn_AM4Hz_s25_18.m4a,,,
,,,,,,,,,,,,41235,2021-06-06_23h39.27.504,judgeSpeechMusic_20210519_logNormShiftAmp_mXs,2020.1.2,MacIntel,60,,,,,,,,,,,,,,2,7.8259,4,1,0,121,121,91,1,stimuli/stim_20210519_power2amp/equal_lnn_AM2.5Hz_s55_48.m4a,1.6807,,
,,,,,,,,,,,,41235,2021-06-06_23h39.27.504,judgeSpeechMusic_20210519_logNormShiftAmp_mXs,2020.1.2,MacIntel,60,,,,,,,,,,,,,,1,14.3431,,0,0,122,122,108,1,stimuli/stim_20210519_power2amp/equal_lnn_AM4Hz_s15_26.m4a,,,
,,,,,,,,,,,,41235,2021-06-06_23h39.27.504,judgeSpeechMusic_20210519_logNormShiftAmp_mXs,2020.1.2,MacIntel,60,,,,,,,,,,,,,,1,7.0588,,0,0,123,123,39,1,stimuli/stim_20210519_power2amp/equal_lnn_AM1Hz_s45_29.m4a,,,
,,,,,,,,,,,,41235,2021-06-06_23h39.27.504,judgeSpeechMusic_20210519_logNormShiftAmp_mXs,2020.1.2,MacIntel,60,,,,,,,,,,,,,,2,9.822,,0,0,124,124,12,1,stimuli/stim_20210519_power2amp/equal_lnn_AM1Hz_s25_26.m4a,,,
,,,,,,,,,,,,41235,2021-06-06_23h39.27.504,judgeSpeechMusic_20210519_logNormShiftAmp_mXs,2020.1.2,MacIntel,60,,,,,,,,,,,,,,2,16.3101,,0,0,125,125,40,1,stimuli/stim_20210519_power2amp/equal_lnn_AM1Hz_s55_47.m4a,,,
,,,,,,,,,,,,41235,2021-06-06_23h39.27.504,judgeSpeechMusic_20210519_logNormShiftAmp_mXs,2020.1.2,MacIntel,60,,,,,,,,,,,,,,1,7.1467,,0,0,126,126,21,1,stimuli/stim_20210519_power2amp/equal_lnn_AM1Hz_s35_38.m4a,,,
,,,,,,,,,,,,41235,2021-06-06_23h39.27.504,judgeSpeechMusic_20210519_logNormShiftAmp_mXs,2020.1.2,MacIntel,60,,,,,,,,,,,,,,2,9.5787,,0,0,127,127,60,1,stimuli/stim_20210519_power2amp/equal_lnn_AM2.5Hz_s25_41.m4a,,,
,,,,,,,,,,,,41235,2021-06-06_23h39.27.504,judgeSpeechMusic_20210519_logNormShiftAmp_mXs,2020.1.2,MacIntel,60,,,,,,,,,,,,,,2,16.1739,,0,0,128,128,59,1,stimuli/stim_20210519_power2amp/equal_lnn_AM2.5Hz_s15_2.m4a,,,
,,,,,,,,,,,,41235,2021-06-06_23h39.27.504,judgeSpeechMusic_20210519_logNormShiftAmp_mXs,2020.1.2,MacIntel,60,,,,,,,,,,,,,,1,6.0142,,0,0,129,129,94,1,stimuli/stim_20210519_power2amp/equal_lnn_AM2.5Hz_s55_31.m4a,,,
,,,,,,,,,,,,41235,2021-06-06_23h39.27.504,judgeSpeechMusic_20210519_logNormShiftAmp_mXs,2020.1.2,MacIntel,60,,,,,,,,,,,,,,2,7.7102,,0,0,130,130,123,1,stimuli/stim_20210519_power2amp/equal_lnn_AM4Hz_s35_10.m4a,,,
,,,,,,,,,,,,41235,2021-06-06_23h39.27.504,judgeSpeechMusic_20210519_logNormShiftAmp_mXs,2020.1.2,MacIntel,60,,,,,,,,,,,,,,1,6.7088,,0,0,131,131,142,1,stimuli/stim_20210519_power2amp/equal_lnn_AM4Hz_s55_27.m4a,,,
,,,,,,,,,,,,41235,2021-06-06_23h39.27.504,judgeSpeechMusic_20210519_logNormShiftAmp_mXs,2020.1.2,MacIntel,60,,,,,,,,,,,,,,2,7.5587,,0,0,132,132,136,1,stimuli/stim_20210519_power2amp/equal_lnn_AM4Hz_s45_4.m4a,,,
,,,,,,,,,,,,41235,2021-06-06_23h39.27.504,judgeSpeechMusic_20210519_logNormShiftAmp_mXs,2020.1.2,MacIntel,60,,,,,,,,,,,,,,2,7.2614,,0,0,133,133,48,1,stimuli/stim_20210519_power2amp/equal_lnn_AM1Hz_s55_46.m4a,,,
,,,,,,,,,,,,41235,2021-06-06_23h39.27.504,judgeSpeechMusic_20210519_logNormShiftAmp_mXs,2020.1.2,MacIntel,60,,,,,,,,,,,,,,2,8.0269,,0,0,134,134,15,1,stimuli/stim_20210519_power2amp/equal_lnn_AM1Hz_s25_4.m4a,,,
,,,,,,,,,,,,41235,2021-06-06_23h39.27.504,judgeSpeechMusic_20210519_logNormShiftAmp_mXs,2020.1.2,MacIntel,60,,,,,,,,,,,,,,1,32.9752,,0,0,135,135,57,1,stimuli/stim_20210519_power2amp/equal_lnn_AM2.5Hz_s15_31.m4a,,,
,,,,,,,,,,,,41235,2021-06-06_23h39.27.504,judgeSpeechMusic_20210519_logNormShiftAmp_mXs,2020.1.2,MacIntel,60,,,,,,,,,,,,,,1,6.2574,,0,0,136,136,53,1,stimuli/stim_20210519_power2amp/equal_lnn_AM2.5Hz_s15_10.m4a,,,
,,,,,,,,,,,,41235,2021-06-06_23h39.27.504,judgeSpeechMusic_20210519_logNormShiftAmp_mXs,2020.1.2,MacIntel,60,,,,,,,,,,,,,,2,9.8116,,0,0,137,137,131,1,stimuli/stim_20210519_power2amp/equal_lnn_AM4Hz_s45_16.m4a,,,
,,,,,,,,,,,,41235,2021-06-06_23h39.27.504,judgeSpeechMusic_20210519_logNormShiftAmp_mXs,2020.1.2,MacIntel,60,,,,,,,,,,,,,,1,21.2612,,0,0,138,138,110,1,stimuli/stim_20210519_power2amp/equal_lnn_AM4Hz_s25_26.m4a,,,
,,,,,,,,,,,,41235,2021-06-06_23h39.27.504,judgeSpeechMusic_20210519_logNormShiftAmp_mXs,2020.1.2,MacIntel,60,,,,,,,,,,,,,,1,8.4611,,0,0,139,139,23,1,stimuli/stim_20210519_power2amp/equal_lnn_AM1Hz_s35_40.m4a,,,
,,,,,,,,,,,,41235,2021-06-06_23h39.27.504,judgeSpeechMusic_20210519_logNormShiftAmp_mXs,2020.1.2,MacIntel,60,,,,,,,,,,,,,,1,6.7089,,0,0,140,140,17,1,stimuli/stim_20210519_power2amp/equal_lnn_AM1Hz_s25_46.m4a,,,
,,,,,,,,,,,,41235,2021-06-06_23h39.27.504,judgeSpeechMusic_20210519_logNormShiftAmp_mXs,2020.1.2,MacIntel,60,,,,,,,,,,,,,,1,6.556,4,1,0,141,141,30,1,stimuli/stim_20210519_power2amp/equal_lnn_AM1Hz_s45_45.m4a,6.9841,,
,,,,,,,,,,,,41235,2021-06-06_23h39.27.504,judgeSpeechMusic_20210519_logNormShiftAmp_mXs,2020.1.2,MacIntel,60,,,,,,,,,,,,,,1,21.9061,,0,0,142,142,50,1,stimuli/stim_20210519_power2amp/equal_lnn_AM2.5Hz_s15_48.m4a,,,
,,,,,,,,,,,,41235,2021-06-06_23h39.27.504,judgeSpeechMusic_20210519_logNormShiftAmp_mXs,2020.1.2,MacIntel,60,,,,,,,,,,,,,,2,14.9102,,0,0,143,143,98,1,stimuli/stim_20210519_power2amp/equal_lnn_AM2.5Hz_s55_36.m4a,,,
,,,,,,,,,,,,41235,2021-06-06_23h39.27.504,judgeSpeechMusic_20210519_logNormShiftAmp_mXs,2020.1.2,MacIntel,60,,,,,,,,,,,,,,2,7.6784,,0,0,144,144,36,1,stimuli/stim_20210519_power2amp/equal_lnn_AM1Hz_s45_22.m4a,,,
,,,,,,,,,,,,41235,2021-06-06_23h39.27.504,judgeSpeechMusic_20210519_logNormShiftAmp_mXs,2020.1.2,MacIntel,60,,,,,,,,,,,,,,1,10.4733,,0,0,145,145,97,1,stimuli/stim_20210519_power2amp/equal_lnn_AM2.5Hz_s55_3.m4a,,,
,,,,,,,,,,,,41235,2021-06-06_23h39.27.504,judgeSpeechMusic_20210519_logNormShiftAmp_mXs,2020.1.2,MacIntel,60,,,,,,,,,,,,,,1,24.3711,,0,0,146,146,96,1,stimuli/stim_20210519_power2amp/equal_lnn_AM2.5Hz_s55_19.m4a,,,
,,,,,,,,,,,,41235,2021-06-06_23h39.27.504,judgeSpeechMusic_20210519_logNormShiftAmp_mXs,2020.1.2,MacIntel,60,,,,,,,,,,,,,,2,14.2407,,0,0,147,147,116,1,stimuli/stim_20210519_power2amp/equal_lnn_AM4Hz_s25_15.m4a,,,
,,,,,,,,,,,,41235,2021-06-06_23h39.27.504,judgeSpeechMusic_20210519_logNormShiftAmp_mXs,2020.1.2,MacIntel,60,,,,,,,,,,,,,,1,37.8403,,0,0,148,148,114,1,stimuli/stim_20210519_power2amp/equal_lnn_AM4Hz_s25_50.m4a,,,
,,,,,,,,,,,,41235,2021-06-06_23h39.27.504,judgeSpeechMusic_20210519_logNormShiftAmp_mXs,2020.1.2,MacIntel,60,,,,,,,,,,,,,,1,14.0584,,0,0,149,149,20,1,stimuli/stim_20210519_power2amp/equal_lnn_AM1Hz_s35_26.m4a,,,
,,,,,,,,,,,,41235,2021-06-06_23h39.27.504,judgeSpeechMusic_20210519_logNormShiftAmp_mXs,2020.1.2,MacIntel,60,,,,,,,,,,,,,,1,8.7801,,0,1,0,150,32,1,stimuli/stim_20210519_power2amp/equal_lnn_AM1Hz_s45_6.m4a,,,
,,,,,,,,,,,,41235,2021-06-06_23h39.27.504,judgeSpeechMusic_20210519_logNormShiftAmp_mXs,2020.1.2,MacIntel,60,,,,,,,,,,,,,,1,6.8245,,0,1,1,151,13,1,stimuli/stim_20210519_power2amp/equal_lnn_AM1Hz_s25_9.m4a,,,
,,,,,,,,,,,,41235,2021-06-06_23h39.27.504,judgeSpeechMusic_20210519_logNormShiftAmp_mXs,2020.1.2,MacIntel,60,,,,,,,,,,,,,,1,6.3884,,0,1,2,152,125,1,stimuli/stim_20210519_power2amp/equal_lnn_AM4Hz_s35_31.m4a,,,
,,,,,,,,,,,,41235,2021-06-06_23h39.27.504,judgeSpeechMusic_20210519_logNormShiftAmp_mXs,2020.1.2,MacIntel,60,,,,,,,,,,,,,,1,7.808,,0,1,3,153,111,1,stimuli/stim_20210519_power2amp/equal_lnn_AM4Hz_s25_18.m4a,,,
,,,,,,,,,,,,41235,2021-06-06_23h39.27.504,judgeSpeechMusic_20210519_logNormShiftAmp_mXs,2020.1.2,MacIntel,60,,,,,,,,,,,,,,1,9.61,,0,1,4,154,54,1,stimuli/stim_20210519_power2amp/equal_lnn_AM2.5Hz_s15_3.m4a,,,
,,,,,,,,,,,,41235,2021-06-06_23h39.27.504,judgeSpeechMusic_20210519_logNormShiftAmp_mXs,2020.1.2,MacIntel,60,,,,,,,,,,,,,,1,30.3574,,0,1,5,155,25,1,stimuli/stim_20210519_power2amp/equal_lnn_AM1Hz_s35_50.m4a,,,
,,,,,,,,,,,,41235,2021-06-06_23h39.27.504,judgeSpeechMusic_20210519_logNormShiftAmp_mXs,2020.1.2,MacIntel,60,,,,,,,,,,,,,,2,23.0567,,0,1,6,156,131,1,stimuli/stim_20210519_power2amp/equal_lnn_AM4Hz_s45_16.m4a,,,
,,,,,,,,,,,,41235,2021-06-06_23h39.27.504,judgeSpeechMusic_20210519_logNormShiftAmp_mXs,2020.1.2,MacIntel,60,,,,,,,,,,,,,,1,7.1266,,0,1,7,157,116,1,stimuli/stim_20210519_power2amp/equal_lnn_AM4Hz_s25_15.m4a,,,
,,,,,,,,,,,,41235,2021-06-06_23h39.27.504,judgeSpeechMusic_20210519_logNormShiftAmp_mXs,2020.1.2,MacIntel,60,,,,,,,,,,,,,,2,9.7118,,0,1,8,158,53,1,stimuli/stim_20210519_power2amp/equal_lnn_AM2.5Hz_s15_10.m4a,,,
,,,,,,,,,,,,41235,2021-06-06_23h39.27.504,judgeSpeechMusic_20210519_logNormShiftAmp_mXs,2020.1.2,MacIntel,60,,,,,,,,,,,,,,2,15.0582,,0,1,9,159,64,1,stimuli/stim_20210519_power2amp/equal_lnn_AM2.5Hz_s25_13.m4a,,,
,,,,,,,,,,,,41235,2021-06-06_23h39.27.504,judgeSpeechMusic_20210519_logNormShiftAmp_mXs,2020.1.2,MacIntel,60,,,,,,,,,,,,,,1,6.1972,,0,1,10,160,138,1,stimuli/stim_20210519_power2amp/equal_lnn_AM4Hz_s45_45.m4a,,,
,,,,,,,,,,,,41235,2021-06-06_23h39.27.504,judgeSpeechMusic_20210519_logNormShiftAmp_mXs,2020.1.2,MacIntel,60,,,,,,,,,,,,,,2,7.6587,,0,1,11,161,61,1,stimuli/stim_20210519_power2amp/equal_lnn_AM2.5Hz_s25_26.m4a,,,
,,,,,,,,,,,,41235,2021-06-06_23h39.27.504,judgeSpeechMusic_20210519_logNormShiftAmp_mXs,2020.1.2,MacIntel,60,,,,,,,,,,,,,,1,6.3915,,0,1,12,162,73,1,stimuli/stim_20210519_power2amp/equal_lnn_AM2.5Hz_s35_36.m4a,,,
,,,,,,,,,,,,41235,2021-06-06_23h39.27.504,judgeSpeechMusic_20210519_logNormShiftAmp_mXs,2020.1.2,MacIntel,60,,,,,,,,,,,,,,2,8.1948,,0,1,13,163,29,1,stimuli/stim_20210519_power2amp/equal_lnn_AM1Hz_s35_41.m4a,,,
,,,,,,,,,,,,41235,2021-06-06_23h39.27.504,judgeSpeechMusic_20210519_logNormShiftAmp_mXs,2020.1.2,MacIntel,60,,,,,,,,,,,,,,2,5.9586,,0,1,14,164,52,1,stimuli/stim_20210519_power2amp/equal_lnn_AM2.5Hz_s15_33.m4a,,,
,,,,,,,,,,,,41235,2021-06-06_23h39.27.504,judgeSpeechMusic_20210519_logNormShiftAmp_mXs,2020.1.2,MacIntel,60,,,,,,,,,,,,,,2,6.3595,3,1,1,15,165,47,1,stimuli/stim_20210519_power2amp/equal_lnn_AM1Hz_s55_8.m4a,4.7607,,
,,,,,,,,,,,,41235,2021-06-06_23h39.27.504,judgeSpeechMusic_20210519_logNormShiftAmp_mXs,2020.1.2,MacIntel,60,,,,,,,,,,,,,,1,8.6429,,0,1,16,166,9,1,stimuli/stim_20210519_power2amp/equal_lnn_AM1Hz_s15_43.m4a,,,
,,,,,,,,,,,,41235,2021-06-06_23h39.27.504,judgeSpeechMusic_20210519_logNormShiftAmp_mXs,2020.1.2,MacIntel,60,,,,,,,,,,,,,,1,6.9587,,0,1,17,167,5,1,stimuli/stim_20210519_power2amp/equal_lnn_AM1Hz_s15_29.m4a,,,
,,,,,,,,,,,,41235,2021-06-06_23h39.27.504,judgeSpeechMusic_20210519_logNormShiftAmp_mXs,2020.1.2,MacIntel,60,,,,,,,,,,,,,,1,6.9457,,0,1,18,168,96,1,stimuli/stim_20210519_power2amp/equal_lnn_AM2.5Hz_s55_19.m4a,,,
,,,,,,,,,,,,41235,2021-06-06_23h39.27.504,judgeSpeechMusic_20210519_logNormShiftAmp_mXs,2020.1.2,MacIntel,60,,,,,,,,,,,,,,1,6.2905,,0,1,19,169,67,1,stimuli/stim_20210519_power2amp/equal_lnn_AM2.5Hz_s25_1.m4a,,,
,,,,,,,,,,,,41235,2021-06-06_23h39.27.504,judgeSpeechMusic_20210519_logNormShiftAmp_mXs,2020.1.2,MacIntel,60,,,,,,,,,,,,,,1,106.1057,,0,1,20,170,24,1,stimuli/stim_20210519_power2amp/equal_lnn_AM1Hz_s35_7.m4a,,,
,,,,,,,,,,,,41235,2021-06-06_23h39.27.504,judgeSpeechMusic_20210519_logNormShiftAmp_mXs,2020.1.2,MacIntel,60,,,,,,,,,,,,,,2,7.2543,,0,1,21,171,27,1,stimuli/stim_20210519_power2amp/equal_lnn_AM1Hz_s35_45.m4a,,,
,,,,,,,,,,,,41235,2021-06-06_23h39.27.504,judgeSpeechMusic_20210519_logNormShiftAmp_mXs,2020.1.2,MacIntel,60,,,,,,,,,,,,,,1,6.932,,0,1,22,172,84,1,stimuli/stim_20210519_power2amp/equal_lnn_AM2.5Hz_s45_43.m4a,,,
,,,,,,,,,,,,41235,2021-06-06_23h39.27.504,judgeSpeechMusic_20210519_logNormShiftAmp_mXs,2020.1.2,MacIntel,60,,,,,,,,,,,,,,2,6.393,,0,1,23,173,68,1,stimuli/stim_20210519_power2amp/equal_lnn_AM2.5Hz_s25_36.m4a,,,
,,,,,,,,,,,,41235,2021-06-06_23h39.27.504,judgeSpeechMusic_20210519_logNormShiftAmp_mXs,2020.1.2,MacIntel,60,,,,,,,,,,,,,,2,6.2712,,0,1,24,174,50,1,stimuli/stim_20210519_power2amp/equal_lnn_AM2.5Hz_s15_48.m4a,,,
,,,,,,,,,,,,41235,2021-06-06_23h39.27.504,judgeSpeechMusic_20210519_logNormShiftAmp_mXs,2020.1.2,MacIntel,60,,,,,,,,,,,,,,2,7.5547,,0,1,25,175,126,1,stimuli/stim_20210519_power2amp/equal_lnn_AM4Hz_s35_17.m4a,,,
,,,,,,,,,,,,41235,2021-06-06_23h39.27.504,judgeSpeechMusic_20210519_logNormShiftAmp_mXs,2020.1.2,MacIntel,60,,,,,,,,,,,,,,2,7.325,,0,1,26,176,132,1,stimuli/stim_20210519_power2amp/equal_lnn_AM4Hz_s45_23.m4a,,,
,,,,,,,,,,,,41235,2021-06-06_23h39.27.504,judgeSpeechMusic_20210519_logNormShiftAmp_mXs,2020.1.2,MacIntel,60,,,,,,,,,,,,,,2,7.6746,,0,1,27,177,0,1,stimuli/stim_20210519_power2amp/equal_lnn_AM1Hz_s15_15.m4a,,,
,,,,,,,,,,,,41235,2021-06-06_23h39.27.504,judgeSpeechMusic_20210519_logNormShiftAmp_mXs,2020.1.2,MacIntel,60,,,,,,,,,,,,,,2,6.8246,,0,1,28,178,147,1,stimuli/stim_20210519_power2amp/equal_lnn_AM4Hz_s55_39.m4a,,,
,,,,,,,,,,,,41235,2021-06-06_23h39.27.504,judgeSpeechMusic_20210519_logNormShiftAmp_mXs,2020.1.2,MacIntel,60,,,,,,,,,,,,,,1,7.427,,0,1,29,179,94,1,stimuli/stim_20210519_power2amp/equal_lnn_AM2.5Hz_s55_31.m4a,,,
,,,,,,,,,,,,41235,2021-06-06_23h39.27.504,judgeSpeechMusic_20210519_logNormShiftAmp_mXs,2020.1.2,MacIntel,60,,,,,,,,,,,,,,1,6.3569,,0,1,30,180,130,1,stimuli/stim_20210519_power2amp/equal_lnn_AM4Hz_s45_43.m4a,,,
,,,,,,,,,,,,41235,2021-06-06_23h39.27.504,judgeSpeechMusic_20210519_logNormShiftAmp_mXs,2020.1.2,MacIntel,60,,,,,,,,,,,,,,1,5.7924,,0,1,31,181,11,1,stimuli/stim_20210519_power2amp/equal_lnn_AM1Hz_s25_42.m4a,,,
,,,,,,,,,,,,41235,2021-06-06_23h39.27.504,judgeSpeechMusic_20210519_logNormShiftAmp_mXs,2020.1.2,MacIntel,60,,,,,,,,,,,,,,1,7.2916,,0,1,32,182,17,1,stimuli/stim_20210519_power2amp/equal_lnn_AM1Hz_s25_46.m4a,,,
,,,,,,,,,,,,41235,2021-06-06_23h39.27.504,judgeSpeechMusic_20210519_logNormShiftAmp_mXs,2020.1.2,MacIntel,60,,,,,,,,,,,,,,2,64.0531,,0,1,33,183,43,1,stimuli/stim_20210519_power2amp/equal_lnn_AM1Hz_s55_19.m4a,,,
,,,,,,,,,,,,41235,2021-06-06_23h39.27.504,judgeSpeechMusic_20210519_logNormShiftAmp_mXs,2020.1.2,MacIntel,60,,,,,,,,,,,,,,1,6.6755,,0,1,34,184,56,1,stimuli/stim_20210519_power2amp/equal_lnn_AM2.5Hz_s15_28.m4a,,,
,,,,,,,,,,,,41235,2021-06-06_23h39.27.504,judgeSpeechMusic_20210519_logNormShiftAmp_mXs,2020.1.2,MacIntel,60,,,,,,,,,,,,,,1,6.4941,,0,1,35,185,123,1,stimuli/stim_20210519_power2amp/equal_lnn_AM4Hz_s35_10.m4a,,,
,,,,,,,,,,,,41235,2021-06-06_23h39.27.504,judgeSpeechMusic_20210519_logNormShiftAmp_mXs,2020.1.2,MacIntel,60,,,,,,,,,,,,,,2,7.4936,3,1,1,36,186,103,1,stimuli/stim_20210519_power2amp/equal_lnn_AM4Hz_s15_38.m4a,2.4821,,
,,,,,,,,,,,,41235,2021-06-06_23h39.27.504,judgeSpeechMusic_20210519_logNormShiftAmp_mXs,2020.1.2,MacIntel,60,,,,,,,,,,,,,,2,5.7423,,0,1,37,187,81,1,stimuli/stim_20210519_power2amp/equal_lnn_AM2.5Hz_s45_18.m4a,,,
,,,,,,,,,,,,41235,2021-06-06_23h39.27.504,judgeSpeechMusic_20210519_logNormShiftAmp_mXs,2020.1.2,MacIntel,60,,,,,,,,,,,,,,2,5.8906,,0,1,38,188,70,1,stimuli/stim_20210519_power2amp/equal_lnn_AM2.5Hz_s35_11.m4a,,,
,,,,,,,,,,,,41235,2021-06-06_23h39.27.504,judgeSpeechMusic_20210519_logNormShiftAmp_mXs,2020.1.2,MacIntel,60,,,,,,,,,,,,,,2,7.0594,,0,1,39,189,134,1,stimuli/stim_20210519_power2amp/equal_lnn_AM4Hz_s45_35.m4a,,,
,,,,,,,,,,,,41235,2021-06-06_23h39.27.504,judgeSpeechMusic_20210519_logNormShiftAmp_mXs,2020.1.2,MacIntel,60,,,,,,,,,,,,,,1,7.5401,,0,1,40,190,139,1,stimuli/stim_20210519_power2amp/equal_lnn_AM4Hz_s45_20.m4a,,,
,,,,,,,,,,,,41235,2021-06-06_23h39.27.504,judgeSpeechMusic_20210519_logNormShiftAmp_mXs,2020.1.2,MacIntel,60,,,,,,,,,,,,,,1,6.7586,,0,1,41,191,109,1,stimuli/stim_20210519_power2amp/equal_lnn_AM4Hz_s15_4.m4a,,,
,,,,,,,,,,,,41235,2021-06-06_23h39.27.504,judgeSpeechMusic_20210519_logNormShiftAmp_mXs,2020.1.2,MacIntel,60,,,,,,,,,,,,,,1,27.6387,,0,1,42,192,108,1,stimuli/stim_20210519_power2amp/equal_lnn_AM4Hz_s15_26.m4a,,,
,,,,,,,,,,,,41235,2021-06-06_23h39.27.504,judgeSpeechMusic_20210519_logNormShiftAmp_mXs,2020.1.2,MacIntel,60,,,,,,,,,,,,,,2,12.308,,0,1,43,193,87,1,stimuli/stim_20210519_power2amp/equal_lnn_AM2.5Hz_s45_9.m4a,,,
,,,,,,,,,,,,41235,2021-06-06_23h39.27.504,judgeSpeechMusic_20210519_logNormShiftAmp_mXs,2020.1.2,MacIntel,60,,,,,,,,,,,,,,2,8.2592,,0,1,44,194,45,1,stimuli/stim_20210519_power2amp/equal_lnn_AM1Hz_s55_44.m4a,,,
,,,,,,,,,,,,41235,2021-06-06_23h39.27.504,judgeSpeechMusic_20210519_logNormShiftAmp_mXs,2020.1.2,MacIntel,60,,,,,,,,,,,,,,2,54.6918,,0,1,45,195,105,1,stimuli/stim_20210519_power2amp/equal_lnn_AM4Hz_s15_30.m4a,,,
,,,,,,,,,,,,41235,2021-06-06_23h39.27.504,judgeSpeechMusic_20210519_logNormShiftAmp_mXs,2020.1.2,MacIntel,60,,,,,,,,,,,,,,1,22.2609,,0,1,46,196,98,1,stimuli/stim_20210519_power2amp/equal_lnn_AM2.5Hz_s55_36.m4a,,,
,,,,,,,,,,,,41235,2021-06-06_23h39.27.504,judgeSpeechMusic_20210519_logNormShiftAmp_mXs,2020.1.2,MacIntel,60,,,,,,,,,,,,,,2,6.4911,,0,1,47,197,2,1,stimuli/stim_20210519_power2amp/equal_lnn_AM1Hz_s15_41.m4a,,,
,,,,,,,,,,,,41235,2021-06-06_23h39.27.504,judgeSpeechMusic_20210519_logNormShiftAmp_mXs,2020.1.2,MacIntel,60,,,,,,,,,,,,,,2,6.1076,,0,1,48,198,102,1,stimuli/stim_20210519_power2amp/equal_lnn_AM4Hz_s15_20.m4a,,,
,,,,,,,,,,,,41235,2021-06-06_23h39.27.504,judgeSpeechMusic_20210519_logNormShiftAmp_mXs,2020.1.2,MacIntel,60,,,,,,,,,,,,,,1,10.8286,,0,1,49,199,12,1,stimuli/stim_20210519_power2amp/equal_lnn_AM1Hz_s25_26.m4a,,,
,,,,,,,,,,,,41235,2021-06-06_23h39.27.504,judgeSpeechMusic_20210519_logNormShiftAmp_mXs,2020.1.2,MacIntel,60,,,,,,,,,,,,,,1,24.6279,,0,1,50,200,44,1,stimuli/stim_20210519_power2amp/equal_lnn_AM1Hz_s55_45.m4a,,,
,,,,,,,,,,,,41235,2021-06-06_23h39.27.504,judgeSpeechMusic_20210519_logNormShiftAmp_mXs,2020.1.2,MacIntel,60,,,,,,,,,,,,,,2,11.6394,,0,1,51,201,74,1,stimuli/stim_20210519_power2amp/equal_lnn_AM2.5Hz_s35_7.m4a,,,
,,,,,,,,,,,,41235,2021-06-06_23h39.27.504,judgeSpeechMusic_20210519_logNormShiftAmp_mXs,2020.1.2,MacIntel,60,,,,,,,,,,,,,,2,24.9774,,0,1,52,202,7,1,stimuli/stim_20210519_power2amp/equal_lnn_AM1Hz_s15_14.m4a,,,
,,,,,,,,,,,,41235,2021-06-06_23h39.27.504,judgeSpeechMusic_20210519_logNormShiftAmp_mXs,2020.1.2,MacIntel,60,,,,,,,,,,,,,,1,6.8097,,0,1,53,203,18,1,stimuli/stim_20210519_power2amp/equal_lnn_AM1Hz_s25_27.m4a,,,
,,,,,,,,,,,,41235,2021-06-06_23h39.27.504,judgeSpeechMusic_20210519_logNormShiftAmp_mXs,2020.1.2,MacIntel,60,,,,,,,,,,,,,,2,54.2272,,0,1,54,204,42,1,stimuli/stim_20210519_power2amp/equal_lnn_AM1Hz_s55_26.m4a,,,
,,,,,,,,,,,,41235,2021-06-06_23h39.27.504,judgeSpeechMusic_20210519_logNormShiftAmp_mXs,2020.1.2,MacIntel,60,,,,,,,,,,,,,,1,6.958,,0,1,55,205,85,1,stimuli/stim_20210519_power2amp/equal_lnn_AM2.5Hz_s45_7.m4a,,,
,,,,,,,,,,,,41235,2021-06-06_23h39.27.504,judgeSpeechMusic_20210519_logNormShiftAmp_mXs,2020.1.2,MacIntel,60,,,,,,,,,,,,,,1,6.6397,,0,1,56,206,142,1,stimuli/stim_20210519_power2amp/equal_lnn_AM4Hz_s55_27.m4a,,,
,,,,,,,,,,,,41235,2021-06-06_23h39.27.504,judgeSpeechMusic_20210519_logNormShiftAmp_mXs,2020.1.2,MacIntel,60,,,,,,,,,,,,,,2,11.4922,,0,1,57,207,77,1,stimuli/stim_20210519_power2amp/equal_lnn_AM2.5Hz_s35_47.m4a,,,
,,,,,,,,,,,,41235,2021-06-06_23h39.27.504,judgeSpeechMusic_20210519_logNormShiftAmp_mXs,2020.1.2,MacIntel,60,,,,,,,,,,,,,,1,7.8107,3,1,1,58,208,124,1,stimuli/stim_20210519_power2amp/equal_lnn_AM4Hz_s35_24.m4a,13.2067,,
,,,,,,,,,,,,41235,2021-06-06_23h39.27.504,judgeSpeechMusic_20210519_logNormShiftAmp_mXs,2020.1.2,MacIntel,60,,,,,,,,,,,,,,1,7.1102,,0,1,59,209,90,1,stimuli/stim_20210519_power2amp/equal_lnn_AM2.5Hz_s55_25.m4a,,,
,,,,,,,,,,,,41235,2021-06-06_23h39.27.504,judgeSpeechMusic_20210519_logNormShiftAmp_mXs,2020.1.2,MacIntel,60,,,,,,,,,,,,,,1,22.412,,0,1,60,210,82,1,stimuli/stim_20210519_power2amp/equal_lnn_AM2.5Hz_s45_29.m4a,,,
,,,,,,,,,,,,41235,2021-06-06_23h39.27.504,judgeSpeechMusic_20210519_logNormShiftAmp_mXs,2020.1.2,MacIntel,60,,,,,,,,,,,,,,2,7.1072,,0,1,61,211,22,1,stimuli/stim_20210519_power2amp/equal_lnn_AM1Hz_s35_35.m4a,,,
,,,,,,,,,,,,41235,2021-06-06_23h39.27.504,judgeSpeechMusic_20210519_logNormShiftAmp_mXs,2020.1.2,MacIntel,60,,,,,,,,,,,,,,2,9.8622,,0,1,62,212,19,1,stimuli/stim_20210519_power2amp/equal_lnn_AM1Hz_s25_25.m4a,,,
,,,,,,,,,,,,41235,2021-06-06_23h39.27.504,judgeSpeechMusic_20210519_logNormShiftAmp_mXs,2020.1.2,MacIntel,60,,,,,,,,,,,,,,1,37.0423,,0,1,63,213,106,1,stimuli/stim_20210519_power2amp/equal_lnn_AM4Hz_s15_32.m4a,,,
,,,,,,,,,,,,41235,2021-06-06_23h39.27.504,judgeSpeechMusic_20210519_logNormShiftAmp_mXs,2020.1.2,MacIntel,60,,,,,,,,,,,,,,1,6.4616,,0,1,64,214,118,1,stimuli/stim_20210519_power2amp/equal_lnn_AM4Hz_s25_32.m4a,,,
,,,,,,,,,,,,41235,2021-06-06_23h39.27.504,judgeSpeechMusic_20210519_logNormShiftAmp_mXs,2020.1.2,MacIntel,60,,,,,,,,,,,,,,2,7.2888,,0,1,65,215,127,1,stimuli/stim_20210519_power2amp/equal_lnn_AM4Hz_s35_14.m4a,,,
,,,,,,,,,,,,41235,2021-06-06_23h39.27.504,judgeSpeechMusic_20210519_logNormShiftAmp_mXs,2020.1.2,MacIntel,60,,,,,,,,,,,,,,2,6.5453,,0,1,66,216,91,1,stimuli/stim_20210519_power2amp/equal_lnn_AM2.5Hz_s55_48.m4a,,,
,,,,,,,,,,,,41235,2021-06-06_23h39.27.504,judgeSpeechMusic_20210519_logNormShiftAmp_mXs,2020.1.2,MacIntel,60,,,,,,,,,,,,,,2,8.441,,0,1,67,217,145,1,stimuli/stim_20210519_power2amp/equal_lnn_AM4Hz_s55_23.m4a,,,
,,,,,,,,,,,,41235,2021-06-06_23h39.27.504,judgeSpeechMusic_20210519_logNormShiftAmp_mXs,2020.1.2,MacIntel,60,,,,,,,,,,,,,,2,7.2602,,0,1,68,218,57,1,stimuli/stim_20210519_power2amp/equal_lnn_AM2.5Hz_s15_31.m4a,,,
,,,,,,,,,,,,41235,2021-06-06_23h39.27.504,judgeSpeechMusic_20210519_logNormShiftAmp_mXs,2020.1.2,MacIntel,60,,,,,,,,,,,,,,1,6.7431,,0,1,69,219,35,1,stimuli/stim_20210519_power2amp/equal_lnn_AM1Hz_s45_39.m4a,,,
,,,,,,,,,,,,41235,2021-06-06_23h39.27.504,judgeSpeechMusic_20210519_logNormShiftAmp_mXs,2020.1.2,MacIntel,60,,,,,,,,,,,,,,2,10.1255,,0,1,70,220,144,1,stimuli/stim_20210519_power2amp/equal_lnn_AM4Hz_s55_17.m4a,,,
,,,,,,,,,,,,41235,2021-06-06_23h39.27.504,judgeSpeechMusic_20210519_logNormShiftAmp_mXs,2020.1.2,MacIntel,60,,,,,,,,,,,,,,1,7.1756,,0,1,71,221,128,1,stimuli/stim_20210519_power2amp/equal_lnn_AM4Hz_s35_33.m4a,,,
,,,,,,,,,,,,41235,2021-06-06_23h39.27.504,judgeSpeechMusic_20210519_logNormShiftAmp_mXs,2020.1.2,MacIntel,60,,,,,,,,,,,,,,1,15.059,,0,1,72,222,20,1,stimuli/stim_20210519_power2amp/equal_lnn_AM1Hz_s35_26.m4a,,,
,,,,,,,,,,,,41235,2021-06-06_23h39.27.504,judgeSpeechMusic_20210519_logNormShiftAmp_mXs,2020.1.2,MacIntel,60,,,,,,,,,,,,,,1,5.9436,,0,1,73,223,59,1,stimuli/stim_20210519_power2amp/equal_lnn_AM2.5Hz_s15_2.m4a,,,
,,,,,,,,,,,,41235,2021-06-06_23h39.27.504,judgeSpeechMusic_20210519_logNormShiftAmp_mXs,2020.1.2,MacIntel,60,,,,,,,,,,,,,,1,5.8257,,0,1,74,224,115,1,stimuli/stim_20210519_power2amp/equal_lnn_AM4Hz_s25_41.m4a,,,
,,,,,,,,,,,,41235,2021-06-06_23h39.27.504,judgeSpeechMusic_20210519_logNormShiftAmp_mXs,2020.1.2,MacIntel,60,,,,,,,,,,,,,,1,5.8407,,0,1,75,225,76,1,stimuli/stim_20210519_power2amp/equal_lnn_AM2.5Hz_s35_44.m4a,,,
,,,,,,,,,,,,41235,2021-06-06_23h39.27.504,judgeSpeechMusic_20210519_logNormShiftAmp_mXs,2020.1.2,MacIntel,60,,,,,,,,,,,,,,1,5.8093,,0,1,76,226,15,1,stimuli/stim_20210519_power2amp/equal_lnn_AM1Hz_s25_4.m4a,,,
,,,,,,,,,,,,41235,2021-06-06_23h39.27.504,judgeSpeechMusic_20210519_logNormShiftAmp_mXs,2020.1.2,MacIntel,60,,,,,,,,,,,,,,1,6.4919,,0,1,77,227,23,1,stimuli/stim_20210519_power2amp/equal_lnn_AM1Hz_s35_40.m4a,,,
,,,,,,,,,,,,41235,2021-06-06_23h39.27.504,judgeSpeechMusic_20210519_logNormShiftAmp_mXs,2020.1.2,MacIntel,60,,,,,,,,,,,,,,1,7.8614,,0,1,78,228,3,1,stimuli/stim_20210519_power2amp/equal_lnn_AM1Hz_s15_27.m4a,,,
,,,,,,,,,,,,41235,2021-06-06_23h39.27.504,judgeSpeechMusic_20210519_logNormShiftAmp_mXs,2020.1.2,MacIntel,60,,,,,,,,,,,,,,2,15.3577,1,1,1,79,229,93,1,stimuli/stim_20210519_power2amp/equal_lnn_AM2.5Hz_s55_7.m4a,1.329,,
,,,,,,,,,,,,41235,2021-06-06_23h39.27.504,judgeSpeechMusic_20210519_logNormShiftAmp_mXs,2020.1.2,MacIntel,60,,,,,,,,,,,,,,2,7.6599,,0,1,80,230,148,1,stimuli/stim_20210519_power2amp/equal_lnn_AM4Hz_s55_45.m4a,,,
,,,,,,,,,,,,41235,2021-06-06_23h39.27.504,judgeSpeechMusic_20210519_logNormShiftAmp_mXs,2020.1.2,MacIntel,60,,,,,,,,,,,,,,2,87.7449,,0,1,81,231,72,1,stimuli/stim_20210519_power2amp/equal_lnn_AM2.5Hz_s35_20.m4a,,,
,,,,,,,,,,,,41235,2021-06-06_23h39.27.504,judgeSpeechMusic_20210519_logNormShiftAmp_mXs,2020.1.2,MacIntel,60,,,,,,,,,,,,,,1,12.2101,,0,1,82,232,31,1,stimuli/stim_20210519_power2amp/equal_lnn_AM1Hz_s45_16.m4a,,,
,,,,,,,,,,,,41235,2021-06-06_23h39.27.504,judgeSpeechMusic_20210519_logNormShiftAmp_mXs,2020.1.2,MacIntel,60,,,,,,,,,,,,,,2,8.6579,,0,1,83,233,113,1,stimuli/stim_20210519_power2amp/equal_lnn_AM4Hz_s25_48.m4a,,,
,,,,,,,,,,,,41235,2021-06-06_23h39.27.504,judgeSpeechMusic_20210519_logNormShiftAmp_mXs,2020.1.2,MacIntel,60,,,,,,,,,,,,,,1,8.456,,0,1,84,234,16,1,stimuli/stim_20210519_power2amp/equal_lnn_AM1Hz_s25_29.m4a,,,
,,,,,,,,,,,,41235,2021-06-06_23h39.27.504,judgeSpeechMusic_20210519_logNormShiftAmp_mXs,2020.1.2,MacIntel,60,,,,,,,,,,,,,,1,8.9596,,0,1,85,235,122,1,stimuli/stim_20210519_power2amp/equal_lnn_AM4Hz_s35_46.m4a,,,
,,,,,,,,,,,,41235,2021-06-06_23h39.27.504,judgeSpeechMusic_20210519_logNormShiftAmp_mXs,2020.1.2,MacIntel,60,,,,,,,,,,,,,,2,21.5945,,0,1,86,236,78,1,stimuli/stim_20210519_power2amp/equal_lnn_AM2.5Hz_s35_9.m4a,,,
,,,,,,,,,,,,41235,2021-06-06_23h39.27.504,judgeSpeechMusic_20210519_logNormShiftAmp_mXs,2020.1.2,MacIntel,60,,,,,,,,,,,,,,1,10.0925,,0,1,87,237,60,1,stimuli/stim_20210519_power2amp/equal_lnn_AM2.5Hz_s25_41.m4a,,,
,,,,,,,,,,,,41235,2021-06-06_23h39.27.504,judgeSpeechMusic_20210519_logNormShiftAmp_mXs,2020.1.2,MacIntel,60,,,,,,,,,,,,,,1,24.1893,,0,1,88,238,149,1,stimuli/stim_20210519_power2amp/equal_lnn_AM4Hz_s55_47.m4a,,,
,,,,,,,,,,,,41235,2021-06-06_23h39.27.504,judgeSpeechMusic_20210519_logNormShiftAmp_mXs,2020.1.2,MacIntel,60,,,,,,,,,,,,,,1,34.891,,0,1,89,239,69,1,stimuli/stim_20210519_power2amp/equal_lnn_AM2.5Hz_s25_21.m4a,,,
,,,,,,,,,,,,41235,2021-06-06_23h39.27.504,judgeSpeechMusic_20210519_logNormShiftAmp_mXs,2020.1.2,MacIntel,60,,,,,,,,,,,,,,1,67.9412,,0,1,90,240,1,1,stimuli/stim_20210519_power2amp/equal_lnn_AM1Hz_s15_42.m4a,,,
,,,,,,,,,,,,41235,2021-06-06_23h39.27.504,judgeSpeechMusic_20210519_logNormShiftAmp_mXs,2020.1.2,MacIntel,60,,,,,,,,,,,,,,2,13.0447,,0,1,91,241,117,1,stimuli/stim_20210519_power2amp/equal_lnn_AM4Hz_s25_28.m4a,,,
,,,,,,,,,,,,41235,2021-06-06_23h39.27.504,judgeSpeechMusic_20210519_logNormShiftAmp_mXs,2020.1.2,MacIntel,60,,,,,,,,,,,,,,1,8.5724,,0,1,92,242,114,1,stimuli/stim_20210519_power2amp/equal_lnn_AM4Hz_s25_50.m4a,,,
,,,,,,,,,,,,41235,2021-06-06_23h39.27.504,judgeSpeechMusic_20210519_logNormShiftAmp_mXs,2020.1.2,MacIntel,60,,,,,,,,,,,,,,2,7.1284,,0,1,93,243,37,1,stimuli/stim_20210519_power2amp/equal_lnn_AM1Hz_s45_46.m4a,,,
,,,,,,,,,,,,41235,2021-06-06_23h39.27.504,judgeSpeechMusic_20210519_logNormShiftAmp_mXs,2020.1.2,MacIntel,60,,,,,,,,,,,,,,1,11.5548,,0,1,94,244,143,1,stimuli/stim_20210519_power2amp/equal_lnn_AM4Hz_s55_13.m4a,,,
,,,,,,,,,,,,41235,2021-06-06_23h39.27.504,judgeSpeechMusic_20210519_logNormShiftAmp_mXs,2020.1.2,MacIntel,60,,,,,,,,,,,,,,1,9.5224,,0,1,95,245,46,1,stimuli/stim_20210519_power2amp/equal_lnn_AM1Hz_s55_28.m4a,,,
,,,,,,,,,,,,41235,2021-06-06_23h39.27.504,judgeSpeechMusic_20210519_logNormShiftAmp_mXs,2020.1.2,MacIntel,60,,,,,,,,,,,,,,2,7.9089,,0,1,96,246,146,1,stimuli/stim_20210519_power2amp/equal_lnn_AM4Hz_s55_14.m4a,,,
,,,,,,,,,,,,41235,2021-06-06_23h39.27.504,judgeSpeechMusic_20210519_logNormShiftAmp_mXs,2020.1.2,MacIntel,60,,,,,,,,,,,,,,2,6.8266,,0,1,97,247,107,1,stimuli/stim_20210519_power2amp/equal_lnn_AM4Hz_s15_39.m4a,,,
,,,,,,,,,,,,41235,2021-06-06_23h39.27.504,judgeSpeechMusic_20210519_logNormShiftAmp_mXs,2020.1.2,MacIntel,60,,,,,,,,,,,,,,1,7.2543,,0,1,98,248,30,1,stimuli/stim_20210519_power2amp/equal_lnn_AM1Hz_s45_45.m4a,,,
,,,,,,,,,,,,41235,2021-06-06_23h39.27.504,judgeSpeechMusic_20210519_logNormShiftAmp_mXs,2020.1.2,MacIntel,60,,,,,,,,,,,,,,1,7.0886,,0,1,99,249,21,1,stimuli/stim_20210519_power2amp/equal_lnn_AM1Hz_s35_38.m4a,,,
,,,,,,,,,,,,41235,2021-06-06_23h39.27.504,judgeSpeechMusic_20210519_logNormShiftAmp_mXs,2020.1.2,MacIntel,60,,,,,,,,,,,,,,1,16.4392,,0,1,100,250,51,1,stimuli/stim_20210519_power2amp/equal_lnn_AM2.5Hz_s15_41.m4a,,,
,,,,,,,,,,,,41235,2021-06-06_23h39.27.504,judgeSpeechMusic_20210519_logNormShiftAmp_mXs,2020.1.2,MacIntel,60,,,,,,,,,,,,,,2,9.5873,3,1,1,101,251,71,1,stimuli/stim_20210519_power2amp/equal_lnn_AM2.5Hz_s35_10.m4a,7.4948,,
,,,,,,,,,,,,41235,2021-06-06_23h39.27.504,judgeSpeechMusic_20210519_logNormShiftAmp_mXs,2020.1.2,MacIntel,60,,,,,,,,,,,,,,1,8.174,,0,1,102,252,49,1,stimuli/stim_20210519_power2amp/equal_lnn_AM1Hz_s55_18.m4a,,,
,,,,,,,,,,,,41235,2021-06-06_23h39.27.504,judgeSpeechMusic_20210519_logNormShiftAmp_mXs,2020.1.2,MacIntel,60,,,,,,,,,,,,,,2,9.0362,,0,1,103,253,40,1,stimuli/stim_20210519_power2amp/equal_lnn_AM1Hz_s55_47.m4a,,,
,,,,,,,,,,,,41235,2021-06-06_23h39.27.504,judgeSpeechMusic_20210519_logNormShiftAmp_mXs,2020.1.2,MacIntel,60,,,,,,,,,,,,,,1,10.4593,,0,1,104,254,28,1,stimuli/stim_20210519_power2amp/equal_lnn_AM1Hz_s35_33.m4a,,,
,,,,,,,,,,,,41235,2021-06-06_23h39.27.504,judgeSpeechMusic_20210519_logNormShiftAmp_mXs,2020.1.2,MacIntel,60,,,,,,,,,,,,,,1,11.1464,,0,1,105,255,97,1,stimuli/stim_20210519_power2amp/equal_lnn_AM2.5Hz_s55_3.m4a,,,
,,,,,,,,,,,,41235,2021-06-06_23h39.27.504,judgeSpeechMusic_20210519_logNormShiftAmp_mXs,2020.1.2,MacIntel,60,,,,,,,,,,,,,,2,7.4629,,0,1,106,256,95,1,stimuli/stim_20210519_power2amp/equal_lnn_AM2.5Hz_s55_30.m4a,,,
,,,,,,,,,,,,41235,2021-06-06_23h39.27.504,judgeSpeechMusic_20210519_logNormShiftAmp_mXs,2020.1.2,MacIntel,60,,,,,,,,,,,,,,1,10.1077,,0,1,107,257,48,1,stimuli/stim_20210519_power2amp/equal_lnn_AM1Hz_s55_46.m4a,,,
,,,,,,,,,,,,41235,2021-06-06_23h39.27.504,judgeSpeechMusic_20210519_logNormShiftAmp_mXs,2020.1.2,MacIntel,60,,,,,,,,,,,,,,2,13.0052,,0,1,108,258,119,1,stimuli/stim_20210519_power2amp/equal_lnn_AM4Hz_s25_43.m4a,,,
,,,,,,,,,,,,41235,2021-06-06_23h39.27.504,judgeSpeechMusic_20210519_logNormShiftAmp_mXs,2020.1.2,MacIntel,60,,,,,,,,,,,,,,2,9.1954,,0,1,109,259,6,1,stimuli/stim_20210519_power2amp/equal_lnn_AM1Hz_s15_44.m4a,,,
,,,,,,,,,,,,41235,2021-06-06_23h39.27.504,judgeSpeechMusic_20210519_logNormShiftAmp_mXs,2020.1.2,MacIntel,60,,,,,,,,,,,,,,1,19.6764,,0,1,110,260,137,1,stimuli/stim_20210519_power2amp/equal_lnn_AM4Hz_s45_41.m4a,,,
,,,,,,,,,,,,41235,2021-06-06_23h39.27.504,judgeSpeechMusic_20210519_logNormShiftAmp_mXs,2020.1.2,MacIntel,60,,,,,,,,,,,,,,2,6.2909,,0,1,111,261,83,1,stimuli/stim_20210519_power2amp/equal_lnn_AM2.5Hz_s45_24.m4a,,,
,,,,,,,,,,,,41235,2021-06-06_23h39.27.504,judgeSpeechMusic_20210519_logNormShiftAmp_mXs,2020.1.2,MacIntel,60,,,,,,,,,,,,,,2,7.7748,,0,1,112,262,121,1,stimuli/stim_20210519_power2amp/equal_lnn_AM4Hz_s35_12.m4a,,,
,,,,,,,,,,,,41235,2021-06-06_23h39.27.504,judgeSpeechMusic_20210519_logNormShiftAmp_mXs,2020.1.2,MacIntel,60,,,,,,,,,,,,,,1,16.6599,,0,1,113,263,63,1,stimuli/stim_20210519_power2amp/equal_lnn_AM2.5Hz_s25_9.m4a,,,
,,,,,,,,,,,,41235,2021-06-06_23h39.27.504,judgeSpeechMusic_20210519_logNormShiftAmp_mXs,2020.1.2,MacIntel,60,,,,,,,,,,,,,,2,8.8586,,0,1,114,264,89,1,stimuli/stim_20210519_power2amp/equal_lnn_AM2.5Hz_s45_34.m4a,,,
,,,,,,,,,,,,41235,2021-06-06_23h39.27.504,judgeSpeechMusic_20210519_logNormShiftAmp_mXs,2020.1.2,MacIntel,60,,,,,,,,,,,,,,1,12.1573,,0,1,115,265,65,1,stimuli/stim_20210519_power2amp/equal_lnn_AM2.5Hz_s25_22.m4a,,,
,,,,,,,,,,,,41235,2021-06-06_23h39.27.504,judgeSpeechMusic_20210519_logNormShiftAmp_mXs,2020.1.2,MacIntel,60,,,,,,,,,,,,,,1,16.3883,,0,1,116,266,88,1,stimuli/stim_20210519_power2amp/equal_lnn_AM2.5Hz_s45_47.m4a,,,
,,,,,,,,,,,,41235,2021-06-06_23h39.27.504,judgeSpeechMusic_20210519_logNormShiftAmp_mXs,2020.1.2,MacIntel,60,,,,,,,,,,,,,,2,19.4227,,0,1,117,267,36,1,stimuli/stim_20210519_power2amp/equal_lnn_AM1Hz_s45_22.m4a,,,
,,,,,,,,,,,,41235,2021-06-06_23h39.27.504,judgeSpeechMusic_20210519_logNormShiftAmp_mXs,2020.1.2,MacIntel,60,,,,,,,,,,,,,,1,6.9742,,0,1,118,268,120,1,stimuli/stim_20210519_power2amp/equal_lnn_AM4Hz_s35_13.m4a,,,
,,,,,,,,,,,,41235,2021-06-06_23h39.27.504,judgeSpeechMusic_20210519_logNormShiftAmp_mXs,2020.1.2,MacIntel,60,,,,,,,,,,,,,,2,17.4743,,0,1,119,269,86,1,stimuli/stim_20210519_power2amp/equal_lnn_AM2.5Hz_s45_33.m4a,,,
,,,,,,,,,,,,41235,2021-06-06_23h39.27.504,judgeSpeechMusic_20210519_logNormShiftAmp_mXs,2020.1.2,MacIntel,60,,,,,,,,,,,,,,2,8.2107,,0,1,120,270,133,1,stimuli/stim_20210519_power2amp/equal_lnn_AM4Hz_s45_26.m4a,,,
,,,,,,,,,,,,41235,2021-06-06_23h39.27.504,judgeSpeechMusic_20210519_logNormShiftAmp_mXs,2020.1.2,MacIntel,60,,,,,,,,,,,,,,1,6.2249,,0,1,121,271,41,1,stimuli/stim_20210519_power2amp/equal_lnn_AM1Hz_s55_29.m4a,,,
,,,,,,,,,,,,41235,2021-06-06_23h39.27.504,judgeSpeechMusic_20210519_logNormShiftAmp_mXs,2020.1.2,MacIntel,60,,,,,,,,,,,,,,2,11.9215,3,1,1,122,272,75,1,stimuli/stim_20210519_power2amp/equal_lnn_AM2.5Hz_s35_8.m4a,4.4798,,
,,,,,,,,,,,,41235,2021-06-06_23h39.27.504,judgeSpeechMusic_20210519_logNormShiftAmp_mXs,2020.1.2,MacIntel,60,,,,,,,,,,,,,,2,18.7421,,0,1,123,273,92,1,stimuli/stim_20210519_power2amp/equal_lnn_AM2.5Hz_s55_4.m4a,,,
,,,,,,,,,,,,41235,2021-06-06_23h39.27.504,judgeSpeechMusic_20210519_logNormShiftAmp_mXs,2020.1.2,MacIntel,60,,,,,,,,,,,,,,1,7.2064,,0,1,124,274,101,1,stimuli/stim_20210519_power2amp/equal_lnn_AM4Hz_s15_14.m4a,,,
,,,,,,,,,,,,41235,2021-06-06_23h39.27.504,judgeSpeechMusic_20210519_logNormShiftAmp_mXs,2020.1.2,MacIntel,60,,,,,,,,,,,,,,2,6.5776,,0,1,125,275,135,1,stimuli/stim_20210519_power2amp/equal_lnn_AM4Hz_s45_31.m4a,,,
,,,,,,,,,,,,41235,2021-06-06_23h39.27.504,judgeSpeechMusic_20210519_logNormShiftAmp_mXs,2020.1.2,MacIntel,60,,,,,,,,,,,,,,2,9.3767,,0,1,126,276,58,1,stimuli/stim_20210519_power2amp/equal_lnn_AM2.5Hz_s15_27.m4a,,,
,,,,,,,,,,,,41235,2021-06-06_23h39.27.504,judgeSpeechMusic_20210519_logNormShiftAmp_mXs,2020.1.2,MacIntel,60,,,,,,,,,,,,,,1,10.6287,,0,1,127,277,110,1,stimuli/stim_20210519_power2amp/equal_lnn_AM4Hz_s25_26.m4a,,,
,,,,,,,,,,,,41235,2021-06-06_23h39.27.504,judgeSpeechMusic_20210519_logNormShiftAmp_mXs,2020.1.2,MacIntel,60,,,,,,,,,,,,,,1,38.7448,,0,1,128,278,14,1,stimuli/stim_20210519_power2amp/equal_lnn_AM1Hz_s25_6.m4a,,,
,,,,,,,,,,,,41235,2021-06-06_23h39.27.504,judgeSpeechMusic_20210519_logNormShiftAmp_mXs,2020.1.2,MacIntel,60,,,,,,,,,,,,,,1,15.3122,,0,1,129,279,140,1,stimuli/stim_20210519_power2amp/equal_lnn_AM4Hz_s55_31.m4a,,,
,,,,,,,,,,,,41235,2021-06-06_23h39.27.504,judgeSpeechMusic_20210519_logNormShiftAmp_mXs,2020.1.2,MacIntel,60,,,,,,,,,,,,,,1,8.6746,,0,1,130,280,136,1,stimuli/stim_20210519_power2amp/equal_lnn_AM4Hz_s45_4.m4a,,,
,,,,,,,,,,,,41235,2021-06-06_23h39.27.504,judgeSpeechMusic_20210519_logNormShiftAmp_mXs,2020.1.2,MacIntel,60,,,,,,,,,,,,,,1,6.893,,0,1,131,281,80,1,stimuli/stim_20210519_power2amp/equal_lnn_AM2.5Hz_s45_44.m4a,,,
,,,,,,,,,,,,41235,2021-06-06_23h39.27.504,judgeSpeechMusic_20210519_logNormShiftAmp_mXs,2020.1.2,MacIntel,60,,,,,,,,,,,,,,2,12.7551,,0,1,132,282,34,1,stimuli/stim_20210519_power2amp/equal_lnn_AM1Hz_s45_48.m4a,,,
,,,,,,,,,,,,41235,2021-06-06_23h39.27.504,judgeSpeechMusic_20210519_logNormShiftAmp_mXs,2020.1.2,MacIntel,60,,,,,,,,,,,,,,1,12.1446,,0,1,133,283,129,1,stimuli/stim_20210519_power2amp/equal_lnn_AM4Hz_s35_4.m4a,,,
,,,,,,,,,,,,41235,2021-06-06_23h39.27.504,judgeSpeechMusic_20210519_logNormShiftAmp_mXs,2020.1.2,MacIntel,60,,,,,,,,,,,,,,1,10.891,,0,1,134,284,26,1,stimuli/stim_20210519_power2amp/equal_lnn_AM1Hz_s35_14.m4a,,,
,,,,,,,,,,,,41235,2021-06-06_23h39.27.504,judgeSpeechMusic_20210519_logNormShiftAmp_mXs,2020.1.2,MacIntel,60,,,,,,,,,,,,,,1,13.1127,,0,1,135,285,39,1,stimuli/stim_20210519_power2amp/equal_lnn_AM1Hz_s45_29.m4a,,,
,,,,,,,,,,,,41235,2021-06-06_23h39.27.504,judgeSpeechMusic_20210519_logNormShiftAmp_mXs,2020.1.2,MacIntel,60,,,,,,,,,,,,,,2,8.2753,,0,1,136,286,4,1,stimuli/stim_20210519_power2amp/equal_lnn_AM1Hz_s15_3.m4a,,,
,,,,,,,,,,,,41235,2021-06-06_23h39.27.504,judgeSpeechMusic_20210519_logNormShiftAmp_mXs,2020.1.2,MacIntel,60,,,,,,,,,,,,,,2,8.8935,,0,1,137,287,99,1,stimuli/stim_20210519_power2amp/equal_lnn_AM2.5Hz_s55_12.m4a,,,
,,,,,,,,,,,,41235,2021-06-06_23h39.27.504,judgeSpeechMusic_20210519_logNormShiftAmp_mXs,2020.1.2,MacIntel,60,,,,,,,,,,,,,,1,9.3091,,0,1,138,288,79,1,stimuli/stim_20210519_power2amp/equal_lnn_AM2.5Hz_s35_29.m4a,,,
,,,,,,,,,,,,41235,2021-06-06_23h39.27.504,judgeSpeechMusic_20210519_logNormShiftAmp_mXs,2020.1.2,MacIntel,60,,,,,,,,,,,,,,2,17.3414,,0,1,139,289,100,1,stimuli/stim_20210519_power2amp/equal_lnn_AM4Hz_s15_15.m4a,,,
,,,,,,,,,,,,41235,2021-06-06_23h39.27.504,judgeSpeechMusic_20210519_logNormShiftAmp_mXs,2020.1.2,MacIntel,60,,,,,,,,,,,,,,1,6.5415,,0,1,140,290,33,1,stimuli/stim_20210519_power2amp/equal_lnn_AM1Hz_s45_34.m4a,,,
,,,,,,,,,,,,41235,2021-06-06_23h39.27.504,judgeSpeechMusic_20210519_logNormShiftAmp_mXs,2020.1.2,MacIntel,60,,,,,,,,,,,,,,1,9.1909,,0,1,141,291,10,1,stimuli/stim_20210519_power2amp/equal_lnn_AM1Hz_s25_22.m4a,,,
,,,,,,,,,,,,41235,2021-06-06_23h39.27.504,judgeSpeechMusic_20210519_logNormShiftAmp_mXs,2020.1.2,MacIntel,60,,,,,,,,,,,,,,1,15.3788,,0,1,142,292,141,1,stimuli/stim_20210519_power2amp/equal_lnn_AM4Hz_s55_34.m4a,,,
,,,,,,,,,,,,41235,2021-06-06_23h39.27.504,judgeSpeechMusic_20210519_logNormShiftAmp_mXs,2020.1.2,MacIntel,60,,,,,,,,,,,,,,1,8.6745,,0,1,143,293,38,1,stimuli/stim_20210519_power2amp/equal_lnn_AM1Hz_s45_49.m4a,,,
,,,,,,,,,,,,41235,2021-06-06_23h39.27.504,judgeSpeechMusic_20210519_logNormShiftAmp_mXs,2020.1.2,MacIntel,60,,,,,,,,,,,,,,1,11.9269,,0,1,144,294,62,1,stimuli/stim_20210519_power2amp/equal_lnn_AM2.5Hz_s25_7.m4a,,,
,,,,,,,,,,,,41235,2021-06-06_23h39.27.504,judgeSpeechMusic_20210519_logNormShiftAmp_mXs,2020.1.2,MacIntel,60,,,,,,,,,,,,,,2,8.2695,,0,1,145,295,104,1,stimuli/stim_20210519_power2amp/equal_lnn_AM4Hz_s15_13.m4a,,,
,,,,,,,,,,,,41235,2021-06-06_23h39.27.504,judgeSpeechMusic_20210519_logNormShiftAmp_mXs,2020.1.2,MacIntel,60,,,,,,,,,,,,,,1,8.0475,,0,1,146,296,55,1,stimuli/stim_20210519_power2amp/equal_lnn_AM2.5Hz_s15_21.m4a,,,
,,,,,,,,,,,,41235,2021-06-06_23h39.27.504,judgeSpeechMusic_20210519_logNormShiftAmp_mXs,2020.1.2,MacIntel,60,,,,,,,,,,,,,,2,27.8215,,0,1,147,297,66,1,stimuli/stim_20210519_power2amp/equal_lnn_AM2.5Hz_s25_5.m4a,,,
,,,,,,,,,,,,41235,2021-06-06_23h39.27.504,judgeSpeechMusic_20210519_logNormShiftAmp_mXs,2020.1.2,MacIntel,60,,,,,,,,,,,,,,1,8.4387,,0,1,148,298,112,1,stimuli/stim_20210519_power2amp/equal_lnn_AM4Hz_s25_21.m4a,,,
,,,,,,,,,,,,41235,2021-06-06_23h39.27.504,judgeSpeechMusic_20210519_logNormShiftAmp_mXs,2020.1.2,MacIntel,60,,,,,,,,,,,,,,1,6.2106,,0,1,149,299,8,1,stimuli/stim_20210519_power2amp/equal_lnn_AM1Hz_s15_21.m4a,,,
,,,,,,,,,,,,41235,2021-06-06_23h39.27.504,judgeSpeechMusic_20210519_logNormShiftAmp_mXs,2020.1.2,MacIntel,60,,,,,,,,,,,,,,,,,,,,,,,,,space,9.1914
