volAdjustRep.thisRepN,volAdjustRep.thisTrialN,volAdjustRep.thisN,volAdjustRep.thisIndex,volAdjustRep.ran,participant,date,expName,psychopyVersion,OS,frameRate,headphoneResponse.keys,headphoneResponse.corr,headphoneResponse.rt,headphoneTrial.thisRepN,headphoneTrial.thisTrialN,headphoneTrial.thisN,headphoneTrial.thisIndex,headphoneTrial.ran,headphone_sound1,headphone_sound2,headphone_sound3,corrAns,trainSlider.response,trainSlider.rt,beepTrainResponse.keys,beepTrainResponse.corr,trainingTrials.thisRepN,trainingTrials.thisTrialN,trainingTrials.thisN,trainingTrials.thisIndex,trainingTrials.ran,trainAudioFile,beepTrainResponse.rt,readyReal_resp.keys,readyReal_resp.rt,ratingSlider.response,ratingSlider.rt,beepResp.keys,beepResp.corr,expTrials.thisRepN,expTrials.thisTrialN,expTrials.thisN,expTrials.thisIndex,expTrials.ran,audioFile,beepResp.rt,end_resp.keys,end_resp.rt
0,0,0,0,1,41233,2021-05-31_10h26.13.927,judgeSpeechMusic_20210519_logNormShiftAmp_mXs,2020.1.2,MacIntel,60,,,,,,,,,,,,,,,,,,,,,,,,,,,,,,,,,,,,,,
,,,,,41233,2021-05-31_10h26.13.927,judgeSpeechMusic_20210519_logNormShiftAmp_mXs,2020.1.2,MacIntel,60,2,1,0.426205,0,0,0,1,1,stimuli/screen_antiphase.wav,stimuli/screen_quiet.wav,stimuli/screen_origin.wav,2,,,,,,,,,,,,,,,,,,,,,,,,,,
,,,,,41233,2021-05-31_10h26.13.927,judgeSpeechMusic_20210519_logNormShiftAmp_mXs,2020.1.2,MacIntel,60,1,1,0.54859,0,1,1,4,1,stimuli/screen_quiet.wav,stimuli/screen_antiphase.wav,stimuli/screen_origin.wav,1,,,,,,,,,,,,,,,,,,,,,,,,,,
,,,,,41233,2021-05-31_10h26.13.927,judgeSpeechMusic_20210519_logNormShiftAmp_mXs,2020.1.2,MacIntel,60,2,1,0.583205,0,2,2,3,1,stimuli/screen_origin.wav,stimuli/screen_quiet.wav,stimuli/screen_antiphase.wav,2,,,,,,,,,,,,,,,,,,,,,,,,,,
,,,,,41233,2021-05-31_10h26.13.927,judgeSpeechMusic_20210519_logNormShiftAmp_mXs,2020.1.2,MacIntel,60,3,1,0.51634,0,3,3,2,1,stimuli/screen_origin.wav,stimuli/screen_antiphase.wav,stimuli/screen_quiet.wav,3,,,,,,,,,,,,,,,,,,,,,,,,,,
,,,,,41233,2021-05-31_10h26.13.927,judgeSpeechMusic_20210519_logNormShiftAmp_mXs,2020.1.2,MacIntel,60,1,1,0.812035,0,4,4,5,1,stimuli/screen_quiet.wav,stimuli/screen_origin.wav,stimuli/screen_antiphase.wav,1,,,,,,,,,,,,,,,,,,,,,,,,,,
,,,,,41233,2021-05-31_10h26.13.927,judgeSpeechMusic_20210519_logNormShiftAmp_mXs,2020.1.2,MacIntel,60,3,1,0.668725,0,5,5,0,1,stimuli/screen_antiphase.wav,stimuli/screen_origin.wav,stimuli/screen_quiet.wav,3,,,,,,,,,,,,,,,,,,,,,,,,,,
,,,,,41233,2021-05-31_10h26.13.927,judgeSpeechMusic_20210519_logNormShiftAmp_mXs,2020.1.2,MacIntel,60,,,,,,,,,,,,,2,17.94908,,0,0,0,0,0,1,stimuli/stim_20210519_power2amp/equal_lnn_AM_training1.5Hz_s20.m4a,,,,,,,,,,,,,,,,
,,,,,41233,2021-05-31_10h26.13.927,judgeSpeechMusic_20210519_logNormShiftAmp_mXs,2020.1.2,MacIntel,60,,,,,,,,,,,,,1,6.22201,,0,0,1,1,2,1,stimuli/stim_20210519_power2amp/equal_lnn_AM_training3.5Hz_s20.m4a,,,,,,,,,,,,,,,,
,,,,,41233,2021-05-31_10h26.13.927,judgeSpeechMusic_20210519_logNormShiftAmp_mXs,2020.1.2,MacIntel,60,,,,,,,,,,,,,1,5.91051,2,1,0,2,2,3,1,stimuli/stim_20210519_power2amp/equal_lnn_AM_training3.5Hz_s50.m4a,1.716385,,,,,,,,,,,,,,,
,,,,,41233,2021-05-31_10h26.13.927,judgeSpeechMusic_20210519_logNormShiftAmp_mXs,2020.1.2,MacIntel,60,,,,,,,,,,,,,2,6.577025,,0,0,3,3,1,1,stimuli/stim_20210519_power2amp/equal_lnn_AM_training1.5Hz_s50.m4a,,,,,,,,,,,,,,,,
,,,,,41233,2021-05-31_10h26.13.927,judgeSpeechMusic_20210519_logNormShiftAmp_mXs,2020.1.2,MacIntel,60,,,,,,,,,,,,,,,,,,,,,,,,space,5.24423,1,7.234525,,0,0,0,0,84,1,stimuli/stim_20210519_power2amp/equal_lnn_AM2.5Hz_s45_36.m4a,,,
,,,,,41233,2021-05-31_10h26.13.927,judgeSpeechMusic_20210519_logNormShiftAmp_mXs,2020.1.2,MacIntel,60,,,,,,,,,,,,,,,,,,,,,,,,,,1,5.85607,,0,0,1,1,125,1,stimuli/stim_20210519_power2amp/equal_lnn_AM4Hz_s35_6.m4a,,,
,,,,,41233,2021-05-31_10h26.13.927,judgeSpeechMusic_20210519_logNormShiftAmp_mXs,2020.1.2,MacIntel,60,,,,,,,,,,,,,,,,,,,,,,,,,,2,5.9401,,0,0,2,2,59,1,stimuli/stim_20210519_power2amp/equal_lnn_AM2.5Hz_s15_16.m4a,,,
,,,,,41233,2021-05-31_10h26.13.927,judgeSpeechMusic_20210519_logNormShiftAmp_mXs,2020.1.2,MacIntel,60,,,,,,,,,,,,,,,,,,,,,,,,,,1,5.94101,,0,0,3,3,126,1,stimuli/stim_20210519_power2amp/equal_lnn_AM4Hz_s35_17.m4a,,,
,,,,,41233,2021-05-31_10h26.13.927,judgeSpeechMusic_20210519_logNormShiftAmp_mXs,2020.1.2,MacIntel,60,,,,,,,,,,,,,,,,,,,,,,,,,,2,8.16071,,0,0,4,4,23,1,stimuli/stim_20210519_power2amp/equal_lnn_AM1Hz_s35_42.m4a,,,
,,,,,41233,2021-05-31_10h26.13.927,judgeSpeechMusic_20210519_logNormShiftAmp_mXs,2020.1.2,MacIntel,60,,,,,,,,,,,,,,,,,,,,,,,,,,1,6.02768,,0,0,5,5,118,1,stimuli/stim_20210519_power2amp/equal_lnn_AM4Hz_s25_35.m4a,,,
,,,,,41233,2021-05-31_10h26.13.927,judgeSpeechMusic_20210519_logNormShiftAmp_mXs,2020.1.2,MacIntel,60,,,,,,,,,,,,,,,,,,,,,,,,,,1,6.09564,,0,0,6,6,22,1,stimuli/stim_20210519_power2amp/equal_lnn_AM1Hz_s35_4.m4a,,,
,,,,,41233,2021-05-31_10h26.13.927,judgeSpeechMusic_20210519_logNormShiftAmp_mXs,2020.1.2,MacIntel,60,,,,,,,,,,,,,,,,,,,,,,,,,,1,6.00931,,0,0,7,7,149,1,stimuli/stim_20210519_power2amp/equal_lnn_AM4Hz_s55_43.m4a,,,
,,,,,41233,2021-05-31_10h26.13.927,judgeSpeechMusic_20210519_logNormShiftAmp_mXs,2020.1.2,MacIntel,60,,,,,,,,,,,,,,,,,,,,,,,,,,2,6.081355,,0,0,8,8,106,1,stimuli/stim_20210519_power2amp/equal_lnn_AM4Hz_s15_34.m4a,,,
,,,,,41233,2021-05-31_10h26.13.927,judgeSpeechMusic_20210519_logNormShiftAmp_mXs,2020.1.2,MacIntel,60,,,,,,,,,,,,,,,,,,,,,,,,,,2,6.698565,,0,0,9,9,24,1,stimuli/stim_20210519_power2amp/equal_lnn_AM1Hz_s35_28.m4a,,,
,,,,,41233,2021-05-31_10h26.13.927,judgeSpeechMusic_20210519_logNormShiftAmp_mXs,2020.1.2,MacIntel,60,,,,,,,,,,,,,,,,,,,,,,,,,,2,6.74192,,0,0,10,10,134,1,stimuli/stim_20210519_power2amp/equal_lnn_AM4Hz_s45_23.m4a,,,
,,,,,41233,2021-05-31_10h26.13.927,judgeSpeechMusic_20210519_logNormShiftAmp_mXs,2020.1.2,MacIntel,60,,,,,,,,,,,,,,,,,,,,,,,,,,1,9.750665,,0,0,11,11,120,1,stimuli/stim_20210519_power2amp/equal_lnn_AM4Hz_s35_39.m4a,,,
,,,,,41233,2021-05-31_10h26.13.927,judgeSpeechMusic_20210519_logNormShiftAmp_mXs,2020.1.2,MacIntel,60,,,,,,,,,,,,,,,,,,,,,,,,,,2,6.93905,,0,0,12,12,17,1,stimuli/stim_20210519_power2amp/equal_lnn_AM1Hz_s25_11.m4a,,,
,,,,,41233,2021-05-31_10h26.13.927,judgeSpeechMusic_20210519_logNormShiftAmp_mXs,2020.1.2,MacIntel,60,,,,,,,,,,,,,,,,,,,,,,,,,,2,8.323065,,0,0,13,13,113,1,stimuli/stim_20210519_power2amp/equal_lnn_AM4Hz_s25_18.m4a,,,
,,,,,41233,2021-05-31_10h26.13.927,judgeSpeechMusic_20210519_logNormShiftAmp_mXs,2020.1.2,MacIntel,60,,,,,,,,,,,,,,,,,,,,,,,,,,2,6.391245,,0,0,14,14,98,1,stimuli/stim_20210519_power2amp/equal_lnn_AM2.5Hz_s55_14.m4a,,,
,,,,,41233,2021-05-31_10h26.13.927,judgeSpeechMusic_20210519_logNormShiftAmp_mXs,2020.1.2,MacIntel,60,,,,,,,,,,,,,,,,,,,,,,,,,,1,7.42144,,0,0,15,15,30,1,stimuli/stim_20210519_power2amp/equal_lnn_AM1Hz_s45_22.m4a,,,
,,,,,41233,2021-05-31_10h26.13.927,judgeSpeechMusic_20210519_logNormShiftAmp_mXs,2020.1.2,MacIntel,60,,,,,,,,,,,,,,,,,,,,,,,,,,2,6.825905,,0,0,16,16,95,1,stimuli/stim_20210519_power2amp/equal_lnn_AM2.5Hz_s55_28.m4a,,,
,,,,,41233,2021-05-31_10h26.13.927,judgeSpeechMusic_20210519_logNormShiftAmp_mXs,2020.1.2,MacIntel,60,,,,,,,,,,,,,,,,,,,,,,,,,,2,9.362715,,0,0,17,17,92,1,stimuli/stim_20210519_power2amp/equal_lnn_AM2.5Hz_s55_4.m4a,,,
,,,,,41233,2021-05-31_10h26.13.927,judgeSpeechMusic_20210519_logNormShiftAmp_mXs,2020.1.2,MacIntel,60,,,,,,,,,,,,,,,,,,,,,,,,,,1,6.117015,,0,0,18,18,135,1,stimuli/stim_20210519_power2amp/equal_lnn_AM4Hz_s45_25.m4a,,,
,,,,,41233,2021-05-31_10h26.13.927,judgeSpeechMusic_20210519_logNormShiftAmp_mXs,2020.1.2,MacIntel,60,,,,,,,,,,,,,,,,,,,,,,,,,,1,6.275015,,0,0,19,19,109,1,stimuli/stim_20210519_power2amp/equal_lnn_AM4Hz_s15_8.m4a,,,
,,,,,41233,2021-05-31_10h26.13.927,judgeSpeechMusic_20210519_logNormShiftAmp_mXs,2020.1.2,MacIntel,60,,,,,,,,,,,,,,,,,,,,,,,,,,2,9.052355,,0,0,20,20,140,1,stimuli/stim_20210519_power2amp/equal_lnn_AM4Hz_s55_29.m4a,,,
,,,,,41233,2021-05-31_10h26.13.927,judgeSpeechMusic_20210519_logNormShiftAmp_mXs,2020.1.2,MacIntel,60,,,,,,,,,,,,,,,,,,,,,,,,,,1,6.737445,,0,0,21,21,119,1,stimuli/stim_20210519_power2amp/equal_lnn_AM4Hz_s25_6.m4a,,,
,,,,,41233,2021-05-31_10h26.13.927,judgeSpeechMusic_20210519_logNormShiftAmp_mXs,2020.1.2,MacIntel,60,,,,,,,,,,,,,,,,,,,,,,,,,,1,6.19518,,0,0,22,22,102,1,stimuli/stim_20210519_power2amp/equal_lnn_AM4Hz_s15_15.m4a,,,
,,,,,41233,2021-05-31_10h26.13.927,judgeSpeechMusic_20210519_logNormShiftAmp_mXs,2020.1.2,MacIntel,60,,,,,,,,,,,,,,,,,,,,,,,,,,1,6.143215,,0,0,23,23,21,1,stimuli/stim_20210519_power2amp/equal_lnn_AM1Hz_s35_34.m4a,,,
,,,,,41233,2021-05-31_10h26.13.927,judgeSpeechMusic_20210519_logNormShiftAmp_mXs,2020.1.2,MacIntel,60,,,,,,,,,,,,,,,,,,,,,,,,,,1,5.958995,,0,0,24,24,38,1,stimuli/stim_20210519_power2amp/equal_lnn_AM1Hz_s45_45.m4a,,,
,,,,,41233,2021-05-31_10h26.13.927,judgeSpeechMusic_20210519_logNormShiftAmp_mXs,2020.1.2,MacIntel,60,,,,,,,,,,,,,,,,,,,,,,,,,,2,6.493775,,0,0,25,25,128,1,stimuli/stim_20210519_power2amp/equal_lnn_AM4Hz_s35_25.m4a,,,
,,,,,41233,2021-05-31_10h26.13.927,judgeSpeechMusic_20210519_logNormShiftAmp_mXs,2020.1.2,MacIntel,60,,,,,,,,,,,,,,,,,,,,,,,,,,1,7.655385,,0,0,26,26,58,1,stimuli/stim_20210519_power2amp/equal_lnn_AM2.5Hz_s15_9.m4a,,,
,,,,,41233,2021-05-31_10h26.13.927,judgeSpeechMusic_20210519_logNormShiftAmp_mXs,2020.1.2,MacIntel,60,,,,,,,,,,,,,,,,,,,,,,,,,,2,6.391325,,0,0,27,27,89,1,stimuli/stim_20210519_power2amp/equal_lnn_AM2.5Hz_s45_8.m4a,,,
,,,,,41233,2021-05-31_10h26.13.927,judgeSpeechMusic_20210519_logNormShiftAmp_mXs,2020.1.2,MacIntel,60,,,,,,,,,,,,,,,,,,,,,,,,,,1,6.410235,,0,0,28,28,5,1,stimuli/stim_20210519_power2amp/equal_lnn_AM1Hz_s15_49.m4a,,,
,,,,,41233,2021-05-31_10h26.13.927,judgeSpeechMusic_20210519_logNormShiftAmp_mXs,2020.1.2,MacIntel,60,,,,,,,,,,,,,,,,,,,,,,,,,,2,7.75823,,0,0,29,29,57,1,stimuli/stim_20210519_power2amp/equal_lnn_AM2.5Hz_s15_39.m4a,,,
,,,,,41233,2021-05-31_10h26.13.927,judgeSpeechMusic_20210519_logNormShiftAmp_mXs,2020.1.2,MacIntel,60,,,,,,,,,,,,,,,,,,,,,,,,,,2,6.57853,3,1,0,30,30,69,1,stimuli/stim_20210519_power2amp/equal_lnn_AM2.5Hz_s25_26.m4a,1.300945,,
,,,,,41233,2021-05-31_10h26.13.927,judgeSpeechMusic_20210519_logNormShiftAmp_mXs,2020.1.2,MacIntel,60,,,,,,,,,,,,,,,,,,,,,,,,,,1,6.707505,,0,0,31,31,19,1,stimuli/stim_20210519_power2amp/equal_lnn_AM1Hz_s25_17.m4a,,,
,,,,,41233,2021-05-31_10h26.13.927,judgeSpeechMusic_20210519_logNormShiftAmp_mXs,2020.1.2,MacIntel,60,,,,,,,,,,,,,,,,,,,,,,,,,,1,8.771775,,0,0,32,32,80,1,stimuli/stim_20210519_power2amp/equal_lnn_AM2.5Hz_s45_14.m4a,,,
,,,,,41233,2021-05-31_10h26.13.927,judgeSpeechMusic_20210519_logNormShiftAmp_mXs,2020.1.2,MacIntel,60,,,,,,,,,,,,,,,,,,,,,,,,,,1,6.35857,,0,0,33,33,67,1,stimuli/stim_20210519_power2amp/equal_lnn_AM2.5Hz_s25_29.m4a,,,
,,,,,41233,2021-05-31_10h26.13.927,judgeSpeechMusic_20210519_logNormShiftAmp_mXs,2020.1.2,MacIntel,60,,,,,,,,,,,,,,,,,,,,,,,,,,2,6.76701,,0,0,34,34,83,1,stimuli/stim_20210519_power2amp/equal_lnn_AM2.5Hz_s45_30.m4a,,,
,,,,,41233,2021-05-31_10h26.13.927,judgeSpeechMusic_20210519_logNormShiftAmp_mXs,2020.1.2,MacIntel,60,,,,,,,,,,,,,,,,,,,,,,,,,,1,7.971025,,0,0,35,35,72,1,stimuli/stim_20210519_power2amp/equal_lnn_AM2.5Hz_s35_26.m4a,,,
,,,,,41233,2021-05-31_10h26.13.927,judgeSpeechMusic_20210519_logNormShiftAmp_mXs,2020.1.2,MacIntel,60,,,,,,,,,,,,,,,,,,,,,,,,,,2,6.30831,,0,0,36,36,79,1,stimuli/stim_20210519_power2amp/equal_lnn_AM2.5Hz_s35_16.m4a,,,
,,,,,41233,2021-05-31_10h26.13.927,judgeSpeechMusic_20210519_logNormShiftAmp_mXs,2020.1.2,MacIntel,60,,,,,,,,,,,,,,,,,,,,,,,,,,1,7.37826,,0,0,37,37,93,1,stimuli/stim_20210519_power2amp/equal_lnn_AM2.5Hz_s55_32.m4a,,,
,,,,,41233,2021-05-31_10h26.13.927,judgeSpeechMusic_20210519_logNormShiftAmp_mXs,2020.1.2,MacIntel,60,,,,,,,,,,,,,,,,,,,,,,,,,,2,6.425465,,0,0,38,38,133,1,stimuli/stim_20210519_power2amp/equal_lnn_AM4Hz_s45_29.m4a,,,
,,,,,41233,2021-05-31_10h26.13.927,judgeSpeechMusic_20210519_logNormShiftAmp_mXs,2020.1.2,MacIntel,60,,,,,,,,,,,,,,,,,,,,,,,,,,1,6.323305,,0,0,39,39,37,1,stimuli/stim_20210519_power2amp/equal_lnn_AM1Hz_s45_19.m4a,,,
,,,,,41233,2021-05-31_10h26.13.927,judgeSpeechMusic_20210519_logNormShiftAmp_mXs,2020.1.2,MacIntel,60,,,,,,,,,,,,,,,,,,,,,,,,,,1,6.64275,,0,0,40,40,114,1,stimuli/stim_20210519_power2amp/equal_lnn_AM4Hz_s25_19.m4a,,,
,,,,,41233,2021-05-31_10h26.13.927,judgeSpeechMusic_20210519_logNormShiftAmp_mXs,2020.1.2,MacIntel,60,,,,,,,,,,,,,,,,,,,,,,,,,,1,7.64093,,0,0,41,41,15,1,stimuli/stim_20210519_power2amp/equal_lnn_AM1Hz_s25_19.m4a,,,
,,,,,41233,2021-05-31_10h26.13.927,judgeSpeechMusic_20210519_logNormShiftAmp_mXs,2020.1.2,MacIntel,60,,,,,,,,,,,,,,,,,,,,,,,,,,2,11.910575,,0,0,42,42,148,1,stimuli/stim_20210519_power2amp/equal_lnn_AM4Hz_s55_10.m4a,,,
,,,,,41233,2021-05-31_10h26.13.927,judgeSpeechMusic_20210519_logNormShiftAmp_mXs,2020.1.2,MacIntel,60,,,,,,,,,,,,,,,,,,,,,,,,,,1,8.490525,,0,0,43,43,29,1,stimuli/stim_20210519_power2amp/equal_lnn_AM1Hz_s35_10.m4a,,,
,,,,,41233,2021-05-31_10h26.13.927,judgeSpeechMusic_20210519_logNormShiftAmp_mXs,2020.1.2,MacIntel,60,,,,,,,,,,,,,,,,,,,,,,,,,,2,8.785385,,0,0,44,44,8,1,stimuli/stim_20210519_power2amp/equal_lnn_AM1Hz_s15_17.m4a,,,
,,,,,41233,2021-05-31_10h26.13.927,judgeSpeechMusic_20210519_logNormShiftAmp_mXs,2020.1.2,MacIntel,60,,,,,,,,,,,,,,,,,,,,,,,,,,1,6.8901,,0,0,45,45,11,1,stimuli/stim_20210519_power2amp/equal_lnn_AM1Hz_s25_50.m4a,,,
,,,,,41233,2021-05-31_10h26.13.927,judgeSpeechMusic_20210519_logNormShiftAmp_mXs,2020.1.2,MacIntel,60,,,,,,,,,,,,,,,,,,,,,,,,,,2,5.943445,,0,0,46,46,76,1,stimuli/stim_20210519_power2amp/equal_lnn_AM2.5Hz_s35_24.m4a,,,
,,,,,41233,2021-05-31_10h26.13.927,judgeSpeechMusic_20210519_logNormShiftAmp_mXs,2020.1.2,MacIntel,60,,,,,,,,,,,,,,,,,,,,,,,,,,2,6.024055,,0,0,47,47,116,1,stimuli/stim_20210519_power2amp/equal_lnn_AM4Hz_s25_15.m4a,,,
,,,,,41233,2021-05-31_10h26.13.927,judgeSpeechMusic_20210519_logNormShiftAmp_mXs,2020.1.2,MacIntel,60,,,,,,,,,,,,,,,,,,,,,,,,,,1,6.175765,,0,0,48,48,70,1,stimuli/stim_20210519_power2amp/equal_lnn_AM2.5Hz_s35_40.m4a,,,
,,,,,41233,2021-05-31_10h26.13.927,judgeSpeechMusic_20210519_logNormShiftAmp_mXs,2020.1.2,MacIntel,60,,,,,,,,,,,,,,,,,,,,,,,,,,2,6.559735,,0,0,49,49,139,1,stimuli/stim_20210519_power2amp/equal_lnn_AM4Hz_s45_50.m4a,,,
,,,,,41233,2021-05-31_10h26.13.927,judgeSpeechMusic_20210519_logNormShiftAmp_mXs,2020.1.2,MacIntel,60,,,,,,,,,,,,,,,,,,,,,,,,,,2,7.07384,,0,0,50,50,49,1,stimuli/stim_20210519_power2amp/equal_lnn_AM1Hz_s55_6.m4a,,,
,,,,,41233,2021-05-31_10h26.13.927,judgeSpeechMusic_20210519_logNormShiftAmp_mXs,2020.1.2,MacIntel,60,,,,,,,,,,,,,,,,,,,,,,,,,,2,7.106825,,0,0,51,51,53,1,stimuli/stim_20210519_power2amp/equal_lnn_AM2.5Hz_s15_29.m4a,,,
,,,,,41233,2021-05-31_10h26.13.927,judgeSpeechMusic_20210519_logNormShiftAmp_mXs,2020.1.2,MacIntel,60,,,,,,,,,,,,,,,,,,,,,,,,,,1,6.99214,,0,0,52,52,47,1,stimuli/stim_20210519_power2amp/equal_lnn_AM1Hz_s55_2.m4a,,,
,,,,,41233,2021-05-31_10h26.13.927,judgeSpeechMusic_20210519_logNormShiftAmp_mXs,2020.1.2,MacIntel,60,,,,,,,,,,,,,,,,,,,,,,,,,,2,6.38151,4,1,0,53,53,100,1,stimuli/stim_20210519_power2amp/equal_lnn_AM4Hz_s15_17.m4a,1.42776,,
,,,,,41233,2021-05-31_10h26.13.927,judgeSpeechMusic_20210519_logNormShiftAmp_mXs,2020.1.2,MacIntel,60,,,,,,,,,,,,,,,,,,,,,,,,,,1,7.05712,,0,0,54,54,16,1,stimuli/stim_20210519_power2amp/equal_lnn_AM1Hz_s25_26.m4a,,,
,,,,,41233,2021-05-31_10h26.13.927,judgeSpeechMusic_20210519_logNormShiftAmp_mXs,2020.1.2,MacIntel,60,,,,,,,,,,,,,,,,,,,,,,,,,,2,7.45505,,0,0,55,55,94,1,stimuli/stim_20210519_power2amp/equal_lnn_AM2.5Hz_s55_23.m4a,,,
,,,,,41233,2021-05-31_10h26.13.927,judgeSpeechMusic_20210519_logNormShiftAmp_mXs,2020.1.2,MacIntel,60,,,,,,,,,,,,,,,,,,,,,,,,,,1,7.358915,,0,0,56,56,3,1,stimuli/stim_20210519_power2amp/equal_lnn_AM1Hz_s15_43.m4a,,,
,,,,,41233,2021-05-31_10h26.13.927,judgeSpeechMusic_20210519_logNormShiftAmp_mXs,2020.1.2,MacIntel,60,,,,,,,,,,,,,,,,,,,,,,,,,,2,6.948335,,0,0,57,57,64,1,stimuli/stim_20210519_power2amp/equal_lnn_AM2.5Hz_s25_7.m4a,,,
,,,,,41233,2021-05-31_10h26.13.927,judgeSpeechMusic_20210519_logNormShiftAmp_mXs,2020.1.2,MacIntel,60,,,,,,,,,,,,,,,,,,,,,,,,,,2,14.25573,,0,0,58,58,40,1,stimuli/stim_20210519_power2amp/equal_lnn_AM1Hz_s55_49.m4a,,,
,,,,,41233,2021-05-31_10h26.13.927,judgeSpeechMusic_20210519_logNormShiftAmp_mXs,2020.1.2,MacIntel,60,,,,,,,,,,,,,,,,,,,,,,,,,,1,6.540575,,0,0,59,59,48,1,stimuli/stim_20210519_power2amp/equal_lnn_AM1Hz_s55_32.m4a,,,
,,,,,41233,2021-05-31_10h26.13.927,judgeSpeechMusic_20210519_logNormShiftAmp_mXs,2020.1.2,MacIntel,60,,,,,,,,,,,,,,,,,,,,,,,,,,2,8.4421,,0,0,60,60,2,1,stimuli/stim_20210519_power2amp/equal_lnn_AM1Hz_s15_37.m4a,,,
,,,,,41233,2021-05-31_10h26.13.927,judgeSpeechMusic_20210519_logNormShiftAmp_mXs,2020.1.2,MacIntel,60,,,,,,,,,,,,,,,,,,,,,,,,,,1,6.775695,,0,0,61,61,60,1,stimuli/stim_20210519_power2amp/equal_lnn_AM2.5Hz_s25_21.m4a,,,
,,,,,41233,2021-05-31_10h26.13.927,judgeSpeechMusic_20210519_logNormShiftAmp_mXs,2020.1.2,MacIntel,60,,,,,,,,,,,,,,,,,,,,,,,,,,2,6.80844,,0,0,62,62,34,1,stimuli/stim_20210519_power2amp/equal_lnn_AM1Hz_s45_14.m4a,,,
,,,,,41233,2021-05-31_10h26.13.927,judgeSpeechMusic_20210519_logNormShiftAmp_mXs,2020.1.2,MacIntel,60,,,,,,,,,,,,,,,,,,,,,,,,,,1,5.89934,,0,0,63,63,52,1,stimuli/stim_20210519_power2amp/equal_lnn_AM2.5Hz_s15_50.m4a,,,
,,,,,41233,2021-05-31_10h26.13.927,judgeSpeechMusic_20210519_logNormShiftAmp_mXs,2020.1.2,MacIntel,60,,,,,,,,,,,,,,,,,,,,,,,,,,1,6.392155,,0,0,64,64,51,1,stimuli/stim_20210519_power2amp/equal_lnn_AM2.5Hz_s15_27.m4a,,,
,,,,,41233,2021-05-31_10h26.13.927,judgeSpeechMusic_20210519_logNormShiftAmp_mXs,2020.1.2,MacIntel,60,,,,,,,,,,,,,,,,,,,,,,,,,,2,14.53863,,0,0,65,65,77,1,stimuli/stim_20210519_power2amp/equal_lnn_AM2.5Hz_s35_42.m4a,,,
,,,,,41233,2021-05-31_10h26.13.927,judgeSpeechMusic_20210519_logNormShiftAmp_mXs,2020.1.2,MacIntel,60,,,,,,,,,,,,,,,,,,,,,,,,,,1,8.570015,,0,0,66,66,131,1,stimuli/stim_20210519_power2amp/equal_lnn_AM4Hz_s45_49.m4a,,,
,,,,,41233,2021-05-31_10h26.13.927,judgeSpeechMusic_20210519_logNormShiftAmp_mXs,2020.1.2,MacIntel,60,,,,,,,,,,,,,,,,,,,,,,,,,,2,7.891195,,0,0,67,67,31,1,stimuli/stim_20210519_power2amp/equal_lnn_AM1Hz_s45_11.m4a,,,
,,,,,41233,2021-05-31_10h26.13.927,judgeSpeechMusic_20210519_logNormShiftAmp_mXs,2020.1.2,MacIntel,60,,,,,,,,,,,,,,,,,,,,,,,,,,2,6.62658,,0,0,68,68,121,1,stimuli/stim_20210519_power2amp/equal_lnn_AM4Hz_s35_50.m4a,,,
,,,,,41233,2021-05-31_10h26.13.927,judgeSpeechMusic_20210519_logNormShiftAmp_mXs,2020.1.2,MacIntel,60,,,,,,,,,,,,,,,,,,,,,,,,,,1,8.33613,,0,0,69,69,145,1,stimuli/stim_20210519_power2amp/equal_lnn_AM4Hz_s55_23.m4a,,,
,,,,,41233,2021-05-31_10h26.13.927,judgeSpeechMusic_20210519_logNormShiftAmp_mXs,2020.1.2,MacIntel,60,,,,,,,,,,,,,,,,,,,,,,,,,,1,5.860995,,0,0,70,70,36,1,stimuli/stim_20210519_power2amp/equal_lnn_AM1Hz_s45_31.m4a,,,
,,,,,41233,2021-05-31_10h26.13.927,judgeSpeechMusic_20210519_logNormShiftAmp_mXs,2020.1.2,MacIntel,60,,,,,,,,,,,,,,,,,,,,,,,,,,2,6.37833,,0,0,71,71,28,1,stimuli/stim_20210519_power2amp/equal_lnn_AM1Hz_s35_48.m4a,,,
,,,,,41233,2021-05-31_10h26.13.927,judgeSpeechMusic_20210519_logNormShiftAmp_mXs,2020.1.2,MacIntel,60,,,,,,,,,,,,,,,,,,,,,,,,,,1,6.82368,,0,0,72,72,85,1,stimuli/stim_20210519_power2amp/equal_lnn_AM2.5Hz_s45_21.m4a,,,
,,,,,41233,2021-05-31_10h26.13.927,judgeSpeechMusic_20210519_logNormShiftAmp_mXs,2020.1.2,MacIntel,60,,,,,,,,,,,,,,,,,,,,,,,,,,1,7.52367,3,1,0,73,73,138,1,stimuli/stim_20210519_power2amp/equal_lnn_AM4Hz_s45_16.m4a,1.374805,,
,,,,,41233,2021-05-31_10h26.13.927,judgeSpeechMusic_20210519_logNormShiftAmp_mXs,2020.1.2,MacIntel,60,,,,,,,,,,,,,,,,,,,,,,,,,,2,12.32255,,0,0,74,74,141,1,stimuli/stim_20210519_power2amp/equal_lnn_AM4Hz_s55_24.m4a,,,
,,,,,41233,2021-05-31_10h26.13.927,judgeSpeechMusic_20210519_logNormShiftAmp_mXs,2020.1.2,MacIntel,60,,,,,,,,,,,,,,,,,,,,,,,,,,1,6.874985,,0,0,75,75,123,1,stimuli/stim_20210519_power2amp/equal_lnn_AM4Hz_s35_11.m4a,,,
,,,,,41233,2021-05-31_10h26.13.927,judgeSpeechMusic_20210519_logNormShiftAmp_mXs,2020.1.2,MacIntel,60,,,,,,,,,,,,,,,,,,,,,,,,,,2,9.25228,,0,0,76,76,13,1,stimuli/stim_20210519_power2amp/equal_lnn_AM1Hz_s25_14.m4a,,,
,,,,,41233,2021-05-31_10h26.13.927,judgeSpeechMusic_20210519_logNormShiftAmp_mXs,2020.1.2,MacIntel,60,,,,,,,,,,,,,,,,,,,,,,,,,,1,6.69433,,0,0,77,77,122,1,stimuli/stim_20210519_power2amp/equal_lnn_AM4Hz_s35_2.m4a,,,
,,,,,41233,2021-05-31_10h26.13.927,judgeSpeechMusic_20210519_logNormShiftAmp_mXs,2020.1.2,MacIntel,60,,,,,,,,,,,,,,,,,,,,,,,,,,2,9.05329,,0,0,78,78,112,1,stimuli/stim_20210519_power2amp/equal_lnn_AM4Hz_s25_44.m4a,,,
,,,,,41233,2021-05-31_10h26.13.927,judgeSpeechMusic_20210519_logNormShiftAmp_mXs,2020.1.2,MacIntel,60,,,,,,,,,,,,,,,,,,,,,,,,,,1,8.122055,,0,0,79,79,130,1,stimuli/stim_20210519_power2amp/equal_lnn_AM4Hz_s45_4.m4a,,,
,,,,,41233,2021-05-31_10h26.13.927,judgeSpeechMusic_20210519_logNormShiftAmp_mXs,2020.1.2,MacIntel,60,,,,,,,,,,,,,,,,,,,,,,,,,,1,6.626795,,0,0,80,80,78,1,stimuli/stim_20210519_power2amp/equal_lnn_AM2.5Hz_s35_4.m4a,,,
,,,,,41233,2021-05-31_10h26.13.927,judgeSpeechMusic_20210519_logNormShiftAmp_mXs,2020.1.2,MacIntel,60,,,,,,,,,,,,,,,,,,,,,,,,,,2,6.65754,,0,0,81,81,115,1,stimuli/stim_20210519_power2amp/equal_lnn_AM4Hz_s25_11.m4a,,,
,,,,,41233,2021-05-31_10h26.13.927,judgeSpeechMusic_20210519_logNormShiftAmp_mXs,2020.1.2,MacIntel,60,,,,,,,,,,,,,,,,,,,,,,,,,,1,6.378935,,0,0,82,82,74,1,stimuli/stim_20210519_power2amp/equal_lnn_AM2.5Hz_s35_12.m4a,,,
,,,,,41233,2021-05-31_10h26.13.927,judgeSpeechMusic_20210519_logNormShiftAmp_mXs,2020.1.2,MacIntel,60,,,,,,,,,,,,,,,,,,,,,,,,,,1,6.34083,,0,0,83,83,14,1,stimuli/stim_20210519_power2amp/equal_lnn_AM1Hz_s25_36.m4a,,,
,,,,,41233,2021-05-31_10h26.13.927,judgeSpeechMusic_20210519_logNormShiftAmp_mXs,2020.1.2,MacIntel,60,,,,,,,,,,,,,,,,,,,,,,,,,,1,10.580855,,0,0,84,84,6,1,stimuli/stim_20210519_power2amp/equal_lnn_AM1Hz_s15_50.m4a,,,
,,,,,41233,2021-05-31_10h26.13.927,judgeSpeechMusic_20210519_logNormShiftAmp_mXs,2020.1.2,MacIntel,60,,,,,,,,,,,,,,,,,,,,,,,,,,1,7.54003,,0,0,85,85,43,1,stimuli/stim_20210519_power2amp/equal_lnn_AM1Hz_s55_21.m4a,,,
,,,,,41233,2021-05-31_10h26.13.927,judgeSpeechMusic_20210519_logNormShiftAmp_mXs,2020.1.2,MacIntel,60,,,,,,,,,,,,,,,,,,,,,,,,,,1,5.99259,,0,0,86,86,46,1,stimuli/stim_20210519_power2amp/equal_lnn_AM1Hz_s55_5.m4a,,,
,,,,,41233,2021-05-31_10h26.13.927,judgeSpeechMusic_20210519_logNormShiftAmp_mXs,2020.1.2,MacIntel,60,,,,,,,,,,,,,,,,,,,,,,,,,,2,5.947935,,0,0,87,87,26,1,stimuli/stim_20210519_power2amp/equal_lnn_AM1Hz_s35_22.m4a,,,
,,,,,41233,2021-05-31_10h26.13.927,judgeSpeechMusic_20210519_logNormShiftAmp_mXs,2020.1.2,MacIntel,60,,,,,,,,,,,,,,,,,,,,,,,,,,2,9.280785,,0,0,88,88,136,1,stimuli/stim_20210519_power2amp/equal_lnn_AM4Hz_s45_36.m4a,,,
,,,,,41233,2021-05-31_10h26.13.927,judgeSpeechMusic_20210519_logNormShiftAmp_mXs,2020.1.2,MacIntel,60,,,,,,,,,,,,,,,,,,,,,,,,,,2,7.225245,,0,0,89,89,54,1,stimuli/stim_20210519_power2amp/equal_lnn_AM2.5Hz_s15_43.m4a,,,
,,,,,41233,2021-05-31_10h26.13.927,judgeSpeechMusic_20210519_logNormShiftAmp_mXs,2020.1.2,MacIntel,60,,,,,,,,,,,,,,,,,,,,,,,,,,2,8.70321,,0,0,90,90,81,1,stimuli/stim_20210519_power2amp/equal_lnn_AM2.5Hz_s45_37.m4a,,,
,,,,,41233,2021-05-31_10h26.13.927,judgeSpeechMusic_20210519_logNormShiftAmp_mXs,2020.1.2,MacIntel,60,,,,,,,,,,,,,,,,,,,,,,,,,,2,6.295355,,0,0,91,91,91,1,stimuli/stim_20210519_power2amp/equal_lnn_AM2.5Hz_s55_31.m4a,,,
,,,,,41233,2021-05-31_10h26.13.927,judgeSpeechMusic_20210519_logNormShiftAmp_mXs,2020.1.2,MacIntel,60,,,,,,,,,,,,,,,,,,,,,,,,,,2,7.28534,,0,0,92,92,55,1,stimuli/stim_20210519_power2amp/equal_lnn_AM2.5Hz_s15_7.m4a,,,
,,,,,41233,2021-05-31_10h26.13.927,judgeSpeechMusic_20210519_logNormShiftAmp_mXs,2020.1.2,MacIntel,60,,,,,,,,,,,,,,,,,,,,,,,,,,2,6.27615,,0,0,93,93,137,1,stimuli/stim_20210519_power2amp/equal_lnn_AM4Hz_s45_2.m4a,,,
,,,,,41233,2021-05-31_10h26.13.927,judgeSpeechMusic_20210519_logNormShiftAmp_mXs,2020.1.2,MacIntel,60,,,,,,,,,,,,,,,,,,,,,,,,,,1,5.930205,,0,0,94,94,44,1,stimuli/stim_20210519_power2amp/equal_lnn_AM1Hz_s55_27.m4a,,,
,,,,,41233,2021-05-31_10h26.13.927,judgeSpeechMusic_20210519_logNormShiftAmp_mXs,2020.1.2,MacIntel,60,,,,,,,,,,,,,,,,,,,,,,,,,,1,6.454755,,0,0,95,95,87,1,stimuli/stim_20210519_power2amp/equal_lnn_AM2.5Hz_s45_5.m4a,,,
,,,,,41233,2021-05-31_10h26.13.927,judgeSpeechMusic_20210519_logNormShiftAmp_mXs,2020.1.2,MacIntel,60,,,,,,,,,,,,,,,,,,,,,,,,,,2,6.574405,,0,0,96,96,82,1,stimuli/stim_20210519_power2amp/equal_lnn_AM2.5Hz_s45_19.m4a,,,
,,,,,41233,2021-05-31_10h26.13.927,judgeSpeechMusic_20210519_logNormShiftAmp_mXs,2020.1.2,MacIntel,60,,,,,,,,,,,,,,,,,,,,,,,,,,2,6.70803,1,1,0,97,97,32,1,stimuli/stim_20210519_power2amp/equal_lnn_AM1Hz_s45_43.m4a,1.655005,,
,,,,,41233,2021-05-31_10h26.13.927,judgeSpeechMusic_20210519_logNormShiftAmp_mXs,2020.1.2,MacIntel,60,,,,,,,,,,,,,,,,,,,,,,,,,,1,7.05646,,0,0,98,98,7,1,stimuli/stim_20210519_power2amp/equal_lnn_AM1Hz_s15_24.m4a,,,
,,,,,41233,2021-05-31_10h26.13.927,judgeSpeechMusic_20210519_logNormShiftAmp_mXs,2020.1.2,MacIntel,60,,,,,,,,,,,,,,,,,,,,,,,,,,2,6.211255,,0,0,99,99,129,1,stimuli/stim_20210519_power2amp/equal_lnn_AM4Hz_s35_43.m4a,,,
,,,,,41233,2021-05-31_10h26.13.927,judgeSpeechMusic_20210519_logNormShiftAmp_mXs,2020.1.2,MacIntel,60,,,,,,,,,,,,,,,,,,,,,,,,,,1,7.772495,,0,0,100,100,0,1,stimuli/stim_20210519_power2amp/equal_lnn_AM1Hz_s15_22.m4a,,,
,,,,,41233,2021-05-31_10h26.13.927,judgeSpeechMusic_20210519_logNormShiftAmp_mXs,2020.1.2,MacIntel,60,,,,,,,,,,,,,,,,,,,,,,,,,,1,6.825155,,0,0,101,101,110,1,stimuli/stim_20210519_power2amp/equal_lnn_AM4Hz_s25_26.m4a,,,
,,,,,41233,2021-05-31_10h26.13.927,judgeSpeechMusic_20210519_logNormShiftAmp_mXs,2020.1.2,MacIntel,60,,,,,,,,,,,,,,,,,,,,,,,,,,2,6.519035,,0,0,102,102,88,1,stimuli/stim_20210519_power2amp/equal_lnn_AM2.5Hz_s45_39.m4a,,,
,,,,,41233,2021-05-31_10h26.13.927,judgeSpeechMusic_20210519_logNormShiftAmp_mXs,2020.1.2,MacIntel,60,,,,,,,,,,,,,,,,,,,,,,,,,,2,7.323535,,0,0,103,103,63,1,stimuli/stim_20210519_power2amp/equal_lnn_AM2.5Hz_s25_4.m4a,,,
,,,,,41233,2021-05-31_10h26.13.927,judgeSpeechMusic_20210519_logNormShiftAmp_mXs,2020.1.2,MacIntel,60,,,,,,,,,,,,,,,,,,,,,,,,,,1,6.557455,,0,0,104,104,104,1,stimuli/stim_20210519_power2amp/equal_lnn_AM4Hz_s15_40.m4a,,,
,,,,,41233,2021-05-31_10h26.13.927,judgeSpeechMusic_20210519_logNormShiftAmp_mXs,2020.1.2,MacIntel,60,,,,,,,,,,,,,,,,,,,,,,,,,,2,9.56856,,0,0,105,105,108,1,stimuli/stim_20210519_power2amp/equal_lnn_AM4Hz_s15_28.m4a,,,
,,,,,41233,2021-05-31_10h26.13.927,judgeSpeechMusic_20210519_logNormShiftAmp_mXs,2020.1.2,MacIntel,60,,,,,,,,,,,,,,,,,,,,,,,,,,1,6.043815,,0,0,106,106,62,1,stimuli/stim_20210519_power2amp/equal_lnn_AM2.5Hz_s25_47.m4a,,,
,,,,,41233,2021-05-31_10h26.13.927,judgeSpeechMusic_20210519_logNormShiftAmp_mXs,2020.1.2,MacIntel,60,,,,,,,,,,,,,,,,,,,,,,,,,,1,6.64223,,0,0,107,107,1,1,stimuli/stim_20210519_power2amp/equal_lnn_AM1Hz_s15_40.m4a,,,
,,,,,41233,2021-05-31_10h26.13.927,judgeSpeechMusic_20210519_logNormShiftAmp_mXs,2020.1.2,MacIntel,60,,,,,,,,,,,,,,,,,,,,,,,,,,2,7.140635,,0,0,108,108,50,1,stimuli/stim_20210519_power2amp/equal_lnn_AM2.5Hz_s15_6.m4a,,,
,,,,,41233,2021-05-31_10h26.13.927,judgeSpeechMusic_20210519_logNormShiftAmp_mXs,2020.1.2,MacIntel,60,,,,,,,,,,,,,,,,,,,,,,,,,,1,7.24695,,0,0,109,109,10,1,stimuli/stim_20210519_power2amp/equal_lnn_AM1Hz_s25_33.m4a,,,
,,,,,41233,2021-05-31_10h26.13.927,judgeSpeechMusic_20210519_logNormShiftAmp_mXs,2020.1.2,MacIntel,60,,,,,,,,,,,,,,,,,,,,,,,,,,2,8.69867,,0,0,110,110,68,1,stimuli/stim_20210519_power2amp/equal_lnn_AM2.5Hz_s25_15.m4a,,,
,,,,,41233,2021-05-31_10h26.13.927,judgeSpeechMusic_20210519_logNormShiftAmp_mXs,2020.1.2,MacIntel,60,,,,,,,,,,,,,,,,,,,,,,,,,,2,6.05636,,0,0,111,111,86,1,stimuli/stim_20210519_power2amp/equal_lnn_AM2.5Hz_s45_2.m4a,,,
,,,,,41233,2021-05-31_10h26.13.927,judgeSpeechMusic_20210519_logNormShiftAmp_mXs,2020.1.2,MacIntel,60,,,,,,,,,,,,,,,,,,,,,,,,,,1,6.94085,,0,0,112,112,75,1,stimuli/stim_20210519_power2amp/equal_lnn_AM2.5Hz_s35_28.m4a,,,
,,,,,41233,2021-05-31_10h26.13.927,judgeSpeechMusic_20210519_logNormShiftAmp_mXs,2020.1.2,MacIntel,60,,,,,,,,,,,,,,,,,,,,,,,,,,2,10.998105,,0,0,113,113,142,1,stimuli/stim_20210519_power2amp/equal_lnn_AM4Hz_s55_28.m4a,,,
,,,,,41233,2021-05-31_10h26.13.927,judgeSpeechMusic_20210519_logNormShiftAmp_mXs,2020.1.2,MacIntel,60,,,,,,,,,,,,,,,,,,,,,,,,,,1,9.23422,,0,0,114,114,146,1,stimuli/stim_20210519_power2amp/equal_lnn_AM4Hz_s55_27.m4a,,,
,,,,,41233,2021-05-31_10h26.13.927,judgeSpeechMusic_20210519_logNormShiftAmp_mXs,2020.1.2,MacIntel,60,,,,,,,,,,,,,,,,,,,,,,,,,,2,6.856485,,0,0,115,115,124,1,stimuli/stim_20210519_power2amp/equal_lnn_AM4Hz_s35_5.m4a,,,
,,,,,41233,2021-05-31_10h26.13.927,judgeSpeechMusic_20210519_logNormShiftAmp_mXs,2020.1.2,MacIntel,60,,,,,,,,,,,,,,,,,,,,,,,,,,2,6.491915,,0,0,116,116,132,1,stimuli/stim_20210519_power2amp/equal_lnn_AM4Hz_s45_48.m4a,,,
,,,,,41233,2021-05-31_10h26.13.927,judgeSpeechMusic_20210519_logNormShiftAmp_mXs,2020.1.2,MacIntel,60,,,,,,,,,,,,,,,,,,,,,,,,,,2,12.928445,,0,0,117,117,12,1,stimuli/stim_20210519_power2amp/equal_lnn_AM1Hz_s25_23.m4a,,,
,,,,,41233,2021-05-31_10h26.13.927,judgeSpeechMusic_20210519_logNormShiftAmp_mXs,2020.1.2,MacIntel,60,,,,,,,,,,,,,,,,,,,,,,,,,,2,6.977145,,0,0,118,118,41,1,stimuli/stim_20210519_power2amp/equal_lnn_AM1Hz_s55_11.m4a,,,
,,,,,41233,2021-05-31_10h26.13.927,judgeSpeechMusic_20210519_logNormShiftAmp_mXs,2020.1.2,MacIntel,60,,,,,,,,,,,,,,,,,,,,,,,,,,1,6.44437,,0,0,119,119,71,1,stimuli/stim_20210519_power2amp/equal_lnn_AM2.5Hz_s35_44.m4a,,,
,,,,,41233,2021-05-31_10h26.13.927,judgeSpeechMusic_20210519_logNormShiftAmp_mXs,2020.1.2,MacIntel,60,,,,,,,,,,,,,,,,,,,,,,,,,,2,7.74051,4,1,0,120,120,105,1,stimuli/stim_20210519_power2amp/equal_lnn_AM4Hz_s15_23.m4a,3.226105,,
,,,,,41233,2021-05-31_10h26.13.927,judgeSpeechMusic_20210519_logNormShiftAmp_mXs,2020.1.2,MacIntel,60,,,,,,,,,,,,,,,,,,,,,,,,,,2,18.82659,,0,0,121,121,90,1,stimuli/stim_20210519_power2amp/equal_lnn_AM2.5Hz_s55_30.m4a,,,
,,,,,41233,2021-05-31_10h26.13.927,judgeSpeechMusic_20210519_logNormShiftAmp_mXs,2020.1.2,MacIntel,60,,,,,,,,,,,,,,,,,,,,,,,,,,1,6.275675,,0,0,122,122,25,1,stimuli/stim_20210519_power2amp/equal_lnn_AM1Hz_s35_16.m4a,,,
,,,,,41233,2021-05-31_10h26.13.927,judgeSpeechMusic_20210519_logNormShiftAmp_mXs,2020.1.2,MacIntel,60,,,,,,,,,,,,,,,,,,,,,,,,,,2,6.62599,,0,0,123,123,61,1,stimuli/stim_20210519_power2amp/equal_lnn_AM2.5Hz_s25_11.m4a,,,
,,,,,41233,2021-05-31_10h26.13.927,judgeSpeechMusic_20210519_logNormShiftAmp_mXs,2020.1.2,MacIntel,60,,,,,,,,,,,,,,,,,,,,,,,,,,2,6.04322,,0,0,124,124,101,1,stimuli/stim_20210519_power2amp/equal_lnn_AM4Hz_s15_33.m4a,,,
,,,,,41233,2021-05-31_10h26.13.927,judgeSpeechMusic_20210519_logNormShiftAmp_mXs,2020.1.2,MacIntel,60,,,,,,,,,,,,,,,,,,,,,,,,,,2,6.076275,,0,0,125,125,144,1,stimuli/stim_20210519_power2amp/equal_lnn_AM4Hz_s55_14.m4a,,,
,,,,,41233,2021-05-31_10h26.13.927,judgeSpeechMusic_20210519_logNormShiftAmp_mXs,2020.1.2,MacIntel,60,,,,,,,,,,,,,,,,,,,,,,,,,,2,7.09085,,0,0,126,126,4,1,stimuli/stim_20210519_power2amp/equal_lnn_AM1Hz_s15_16.m4a,,,
,,,,,41233,2021-05-31_10h26.13.927,judgeSpeechMusic_20210519_logNormShiftAmp_mXs,2020.1.2,MacIntel,60,,,,,,,,,,,,,,,,,,,,,,,,,,1,7.23331,,0,0,127,127,97,1,stimuli/stim_20210519_power2amp/equal_lnn_AM2.5Hz_s55_50.m4a,,,
,,,,,41233,2021-05-31_10h26.13.927,judgeSpeechMusic_20210519_logNormShiftAmp_mXs,2020.1.2,MacIntel,60,,,,,,,,,,,,,,,,,,,,,,,,,,2,6.82678,,0,0,128,128,103,1,stimuli/stim_20210519_power2amp/equal_lnn_AM4Hz_s15_1.m4a,,,
,,,,,41233,2021-05-31_10h26.13.927,judgeSpeechMusic_20210519_logNormShiftAmp_mXs,2020.1.2,MacIntel,60,,,,,,,,,,,,,,,,,,,,,,,,,,2,6.95426,,0,0,129,129,107,1,stimuli/stim_20210519_power2amp/equal_lnn_AM4Hz_s15_14.m4a,,,
,,,,,41233,2021-05-31_10h26.13.927,judgeSpeechMusic_20210519_logNormShiftAmp_mXs,2020.1.2,MacIntel,60,,,,,,,,,,,,,,,,,,,,,,,,,,2,6.50953,,0,0,130,130,147,1,stimuli/stim_20210519_power2amp/equal_lnn_AM4Hz_s55_9.m4a,,,
,,,,,41233,2021-05-31_10h26.13.927,judgeSpeechMusic_20210519_logNormShiftAmp_mXs,2020.1.2,MacIntel,60,,,,,,,,,,,,,,,,,,,,,,,,,,1,7.02094,,0,0,131,131,18,1,stimuli/stim_20210519_power2amp/equal_lnn_AM1Hz_s25_12.m4a,,,
,,,,,41233,2021-05-31_10h26.13.927,judgeSpeechMusic_20210519_logNormShiftAmp_mXs,2020.1.2,MacIntel,60,,,,,,,,,,,,,,,,,,,,,,,,,,2,7.05764,,0,0,132,132,39,1,stimuli/stim_20210519_power2amp/equal_lnn_AM1Hz_s45_3.m4a,,,
,,,,,41233,2021-05-31_10h26.13.927,judgeSpeechMusic_20210519_logNormShiftAmp_mXs,2020.1.2,MacIntel,60,,,,,,,,,,,,,,,,,,,,,,,,,,2,6.71221,,0,0,133,133,20,1,stimuli/stim_20210519_power2amp/equal_lnn_AM1Hz_s35_13.m4a,,,
,,,,,41233,2021-05-31_10h26.13.927,judgeSpeechMusic_20210519_logNormShiftAmp_mXs,2020.1.2,MacIntel,60,,,,,,,,,,,,,,,,,,,,,,,,,,1,6.43445,,0,0,134,134,27,1,stimuli/stim_20210519_power2amp/equal_lnn_AM1Hz_s35_5.m4a,,,
,,,,,41233,2021-05-31_10h26.13.927,judgeSpeechMusic_20210519_logNormShiftAmp_mXs,2020.1.2,MacIntel,60,,,,,,,,,,,,,,,,,,,,,,,,,,1,6.392985,,0,0,135,135,45,1,stimuli/stim_20210519_power2amp/equal_lnn_AM1Hz_s55_10.m4a,,,
,,,,,41233,2021-05-31_10h26.13.927,judgeSpeechMusic_20210519_logNormShiftAmp_mXs,2020.1.2,MacIntel,60,,,,,,,,,,,,,,,,,,,,,,,,,,1,7.073155,,0,0,136,136,65,1,stimuli/stim_20210519_power2amp/equal_lnn_AM2.5Hz_s25_44.m4a,,,
,,,,,41233,2021-05-31_10h26.13.927,judgeSpeechMusic_20210519_logNormShiftAmp_mXs,2020.1.2,MacIntel,60,,,,,,,,,,,,,,,,,,,,,,,,,,2,6.285605,,0,0,137,137,56,1,stimuli/stim_20210519_power2amp/equal_lnn_AM2.5Hz_s15_31.m4a,,,
,,,,,41233,2021-05-31_10h26.13.927,judgeSpeechMusic_20210519_logNormShiftAmp_mXs,2020.1.2,MacIntel,60,,,,,,,,,,,,,,,,,,,,,,,,,,2,6.56625,,0,0,138,138,35,1,stimuli/stim_20210519_power2amp/equal_lnn_AM1Hz_s45_32.m4a,,,
,,,,,41233,2021-05-31_10h26.13.927,judgeSpeechMusic_20210519_logNormShiftAmp_mXs,2020.1.2,MacIntel,60,,,,,,,,,,,,,,,,,,,,,,,,,,1,6.247415,,0,0,139,139,73,1,stimuli/stim_20210519_power2amp/equal_lnn_AM2.5Hz_s35_21.m4a,,,
,,,,,41233,2021-05-31_10h26.13.927,judgeSpeechMusic_20210519_logNormShiftAmp_mXs,2020.1.2,MacIntel,60,,,,,,,,,,,,,,,,,,,,,,,,,,1,8.854395,3,1,0,140,140,33,1,stimuli/stim_20210519_power2amp/equal_lnn_AM1Hz_s45_10.m4a,0.8919,,
,,,,,41233,2021-05-31_10h26.13.927,judgeSpeechMusic_20210519_logNormShiftAmp_mXs,2020.1.2,MacIntel,60,,,,,,,,,,,,,,,,,,,,,,,,,,1,6.25313,,0,0,141,141,42,1,stimuli/stim_20210519_power2amp/equal_lnn_AM1Hz_s55_15.m4a,,,
,,,,,41233,2021-05-31_10h26.13.927,judgeSpeechMusic_20210519_logNormShiftAmp_mXs,2020.1.2,MacIntel,60,,,,,,,,,,,,,,,,,,,,,,,,,,1,5.84589,,0,0,142,142,143,1,stimuli/stim_20210519_power2amp/equal_lnn_AM4Hz_s55_3.m4a,,,
,,,,,41233,2021-05-31_10h26.13.927,judgeSpeechMusic_20210519_logNormShiftAmp_mXs,2020.1.2,MacIntel,60,,,,,,,,,,,,,,,,,,,,,,,,,,2,6.890715,,0,0,143,143,111,1,stimuli/stim_20210519_power2amp/equal_lnn_AM4Hz_s25_10.m4a,,,
,,,,,41233,2021-05-31_10h26.13.927,judgeSpeechMusic_20210519_logNormShiftAmp_mXs,2020.1.2,MacIntel,60,,,,,,,,,,,,,,,,,,,,,,,,,,1,6.93836,,0,0,144,144,9,1,stimuli/stim_20210519_power2amp/equal_lnn_AM1Hz_s15_39.m4a,,,
,,,,,41233,2021-05-31_10h26.13.927,judgeSpeechMusic_20210519_logNormShiftAmp_mXs,2020.1.2,MacIntel,60,,,,,,,,,,,,,,,,,,,,,,,,,,2,8.253955,,0,0,145,145,96,1,stimuli/stim_20210519_power2amp/equal_lnn_AM2.5Hz_s55_27.m4a,,,
,,,,,41233,2021-05-31_10h26.13.927,judgeSpeechMusic_20210519_logNormShiftAmp_mXs,2020.1.2,MacIntel,60,,,,,,,,,,,,,,,,,,,,,,,,,,1,11.14878,,0,0,146,146,66,1,stimuli/stim_20210519_power2amp/equal_lnn_AM2.5Hz_s25_40.m4a,,,
,,,,,41233,2021-05-31_10h26.13.927,judgeSpeechMusic_20210519_logNormShiftAmp_mXs,2020.1.2,MacIntel,60,,,,,,,,,,,,,,,,,,,,,,,,,,2,6.810145,,0,0,147,147,117,1,stimuli/stim_20210519_power2amp/equal_lnn_AM4Hz_s25_39.m4a,,,
,,,,,41233,2021-05-31_10h26.13.927,judgeSpeechMusic_20210519_logNormShiftAmp_mXs,2020.1.2,MacIntel,60,,,,,,,,,,,,,,,,,,,,,,,,,,1,5.943325,,0,0,148,148,99,1,stimuli/stim_20210519_power2amp/equal_lnn_AM2.5Hz_s55_39.m4a,,,
,,,,,41233,2021-05-31_10h26.13.927,judgeSpeechMusic_20210519_logNormShiftAmp_mXs,2020.1.2,MacIntel,60,,,,,,,,,,,,,,,,,,,,,,,,,,2,6.675425,,0,0,149,149,127,1,stimuli/stim_20210519_power2amp/equal_lnn_AM4Hz_s35_37.m4a,,,
,,,,,41233,2021-05-31_10h26.13.927,judgeSpeechMusic_20210519_logNormShiftAmp_mXs,2020.1.2,MacIntel,60,,,,,,,,,,,,,,,,,,,,,,,,,,2,5.962725,,0,1,0,150,129,1,stimuli/stim_20210519_power2amp/equal_lnn_AM4Hz_s35_43.m4a,,,
,,,,,41233,2021-05-31_10h26.13.927,judgeSpeechMusic_20210519_logNormShiftAmp_mXs,2020.1.2,MacIntel,60,,,,,,,,,,,,,,,,,,,,,,,,,,2,5.915265,,0,1,1,151,105,1,stimuli/stim_20210519_power2amp/equal_lnn_AM4Hz_s15_23.m4a,,,
,,,,,41233,2021-05-31_10h26.13.927,judgeSpeechMusic_20210519_logNormShiftAmp_mXs,2020.1.2,MacIntel,60,,,,,,,,,,,,,,,,,,,,,,,,,,2,6.208495,,0,1,2,152,118,1,stimuli/stim_20210519_power2amp/equal_lnn_AM4Hz_s25_35.m4a,,,
,,,,,41233,2021-05-31_10h26.13.927,judgeSpeechMusic_20210519_logNormShiftAmp_mXs,2020.1.2,MacIntel,60,,,,,,,,,,,,,,,,,,,,,,,,,,1,6.077615,,0,1,3,153,122,1,stimuli/stim_20210519_power2amp/equal_lnn_AM4Hz_s35_2.m4a,,,
,,,,,41233,2021-05-31_10h26.13.927,judgeSpeechMusic_20210519_logNormShiftAmp_mXs,2020.1.2,MacIntel,60,,,,,,,,,,,,,,,,,,,,,,,,,,1,10.38204,,0,1,4,154,69,1,stimuli/stim_20210519_power2amp/equal_lnn_AM2.5Hz_s25_26.m4a,,,
,,,,,41233,2021-05-31_10h26.13.927,judgeSpeechMusic_20210519_logNormShiftAmp_mXs,2020.1.2,MacIntel,60,,,,,,,,,,,,,,,,,,,,,,,,,,2,7.07615,,0,1,5,155,59,1,stimuli/stim_20210519_power2amp/equal_lnn_AM2.5Hz_s15_16.m4a,,,
,,,,,41233,2021-05-31_10h26.13.927,judgeSpeechMusic_20210519_logNormShiftAmp_mXs,2020.1.2,MacIntel,60,,,,,,,,,,,,,,,,,,,,,,,,,,2,8.952725,,0,1,6,156,102,1,stimuli/stim_20210519_power2amp/equal_lnn_AM4Hz_s15_15.m4a,,,
,,,,,41233,2021-05-31_10h26.13.927,judgeSpeechMusic_20210519_logNormShiftAmp_mXs,2020.1.2,MacIntel,60,,,,,,,,,,,,,,,,,,,,,,,,,,1,7.156755,,0,1,7,157,89,1,stimuli/stim_20210519_power2amp/equal_lnn_AM2.5Hz_s45_8.m4a,,,
,,,,,41233,2021-05-31_10h26.13.927,judgeSpeechMusic_20210519_logNormShiftAmp_mXs,2020.1.2,MacIntel,60,,,,,,,,,,,,,,,,,,,,,,,,,,2,6.11235,,0,1,8,158,42,1,stimuli/stim_20210519_power2amp/equal_lnn_AM1Hz_s55_15.m4a,,,
,,,,,41233,2021-05-31_10h26.13.927,judgeSpeechMusic_20210519_logNormShiftAmp_mXs,2020.1.2,MacIntel,60,,,,,,,,,,,,,,,,,,,,,,,,,,2,8.11798,,0,1,9,159,133,1,stimuli/stim_20210519_power2amp/equal_lnn_AM4Hz_s45_29.m4a,,,
,,,,,41233,2021-05-31_10h26.13.927,judgeSpeechMusic_20210519_logNormShiftAmp_mXs,2020.1.2,MacIntel,60,,,,,,,,,,,,,,,,,,,,,,,,,,1,6.60766,,0,1,10,160,50,1,stimuli/stim_20210519_power2amp/equal_lnn_AM2.5Hz_s15_6.m4a,,,
,,,,,41233,2021-05-31_10h26.13.927,judgeSpeechMusic_20210519_logNormShiftAmp_mXs,2020.1.2,MacIntel,60,,,,,,,,,,,,,,,,,,,,,,,,,,2,6.824935,,0,1,11,161,121,1,stimuli/stim_20210519_power2amp/equal_lnn_AM4Hz_s35_50.m4a,,,
,,,,,41233,2021-05-31_10h26.13.927,judgeSpeechMusic_20210519_logNormShiftAmp_mXs,2020.1.2,MacIntel,60,,,,,,,,,,,,,,,,,,,,,,,,,,2,6.308455,,0,1,12,162,13,1,stimuli/stim_20210519_power2amp/equal_lnn_AM1Hz_s25_14.m4a,,,
,,,,,41233,2021-05-31_10h26.13.927,judgeSpeechMusic_20210519_logNormShiftAmp_mXs,2020.1.2,MacIntel,60,,,,,,,,,,,,,,,,,,,,,,,,,,1,5.99294,,0,1,13,163,65,1,stimuli/stim_20210519_power2amp/equal_lnn_AM2.5Hz_s25_44.m4a,,,
,,,,,41233,2021-05-31_10h26.13.927,judgeSpeechMusic_20210519_logNormShiftAmp_mXs,2020.1.2,MacIntel,60,,,,,,,,,,,,,,,,,,,,,,,,,,2,8.78626,3,1,1,14,164,16,1,stimuli/stim_20210519_power2amp/equal_lnn_AM1Hz_s25_26.m4a,1.573095,,
,,,,,41233,2021-05-31_10h26.13.927,judgeSpeechMusic_20210519_logNormShiftAmp_mXs,2020.1.2,MacIntel,60,,,,,,,,,,,,,,,,,,,,,,,,,,2,6.706505,,0,1,15,165,62,1,stimuli/stim_20210519_power2amp/equal_lnn_AM2.5Hz_s25_47.m4a,,,
,,,,,41233,2021-05-31_10h26.13.927,judgeSpeechMusic_20210519_logNormShiftAmp_mXs,2020.1.2,MacIntel,60,,,,,,,,,,,,,,,,,,,,,,,,,,2,6.60039,,0,1,16,166,77,1,stimuli/stim_20210519_power2amp/equal_lnn_AM2.5Hz_s35_42.m4a,,,
,,,,,41233,2021-05-31_10h26.13.927,judgeSpeechMusic_20210519_logNormShiftAmp_mXs,2020.1.2,MacIntel,60,,,,,,,,,,,,,,,,,,,,,,,,,,1,6.87443,,0,1,17,167,34,1,stimuli/stim_20210519_power2amp/equal_lnn_AM1Hz_s45_14.m4a,,,
,,,,,41233,2021-05-31_10h26.13.927,judgeSpeechMusic_20210519_logNormShiftAmp_mXs,2020.1.2,MacIntel,60,,,,,,,,,,,,,,,,,,,,,,,,,,2,6.239695,,0,1,18,168,71,1,stimuli/stim_20210519_power2amp/equal_lnn_AM2.5Hz_s35_44.m4a,,,
,,,,,41233,2021-05-31_10h26.13.927,judgeSpeechMusic_20210519_logNormShiftAmp_mXs,2020.1.2,MacIntel,60,,,,,,,,,,,,,,,,,,,,,,,,,,1,8.557845,,0,1,19,169,0,1,stimuli/stim_20210519_power2amp/equal_lnn_AM1Hz_s15_22.m4a,,,
,,,,,41233,2021-05-31_10h26.13.927,judgeSpeechMusic_20210519_logNormShiftAmp_mXs,2020.1.2,MacIntel,60,,,,,,,,,,,,,,,,,,,,,,,,,,1,5.746805,,0,1,20,170,114,1,stimuli/stim_20210519_power2amp/equal_lnn_AM4Hz_s25_19.m4a,,,
,,,,,41233,2021-05-31_10h26.13.927,judgeSpeechMusic_20210519_logNormShiftAmp_mXs,2020.1.2,MacIntel,60,,,,,,,,,,,,,,,,,,,,,,,,,,2,8.13738,,0,1,21,171,143,1,stimuli/stim_20210519_power2amp/equal_lnn_AM4Hz_s55_3.m4a,,,
,,,,,41233,2021-05-31_10h26.13.927,judgeSpeechMusic_20210519_logNormShiftAmp_mXs,2020.1.2,MacIntel,60,,,,,,,,,,,,,,,,,,,,,,,,,,2,6.07854,,0,1,22,172,99,1,stimuli/stim_20210519_power2amp/equal_lnn_AM2.5Hz_s55_39.m4a,,,
,,,,,41233,2021-05-31_10h26.13.927,judgeSpeechMusic_20210519_logNormShiftAmp_mXs,2020.1.2,MacIntel,60,,,,,,,,,,,,,,,,,,,,,,,,,,2,9.367235,,0,1,23,173,57,1,stimuli/stim_20210519_power2amp/equal_lnn_AM2.5Hz_s15_39.m4a,,,
,,,,,41233,2021-05-31_10h26.13.927,judgeSpeechMusic_20210519_logNormShiftAmp_mXs,2020.1.2,MacIntel,60,,,,,,,,,,,,,,,,,,,,,,,,,,1,7.107925,,0,1,24,174,58,1,stimuli/stim_20210519_power2amp/equal_lnn_AM2.5Hz_s15_9.m4a,,,
,,,,,41233,2021-05-31_10h26.13.927,judgeSpeechMusic_20210519_logNormShiftAmp_mXs,2020.1.2,MacIntel,60,,,,,,,,,,,,,,,,,,,,,,,,,,2,7.09044,,0,1,25,175,55,1,stimuli/stim_20210519_power2amp/equal_lnn_AM2.5Hz_s15_7.m4a,,,
,,,,,41233,2021-05-31_10h26.13.927,judgeSpeechMusic_20210519_logNormShiftAmp_mXs,2020.1.2,MacIntel,60,,,,,,,,,,,,,,,,,,,,,,,,,,1,6.229615,,0,1,26,176,18,1,stimuli/stim_20210519_power2amp/equal_lnn_AM1Hz_s25_12.m4a,,,
,,,,,41233,2021-05-31_10h26.13.927,judgeSpeechMusic_20210519_logNormShiftAmp_mXs,2020.1.2,MacIntel,60,,,,,,,,,,,,,,,,,,,,,,,,,,1,5.93067,,0,1,27,177,64,1,stimuli/stim_20210519_power2amp/equal_lnn_AM2.5Hz_s25_7.m4a,,,
,,,,,41233,2021-05-31_10h26.13.927,judgeSpeechMusic_20210519_logNormShiftAmp_mXs,2020.1.2,MacIntel,60,,,,,,,,,,,,,,,,,,,,,,,,,,2,6.42312,,0,1,28,178,43,1,stimuli/stim_20210519_power2amp/equal_lnn_AM1Hz_s55_21.m4a,,,
,,,,,41233,2021-05-31_10h26.13.927,judgeSpeechMusic_20210519_logNormShiftAmp_mXs,2020.1.2,MacIntel,60,,,,,,,,,,,,,,,,,,,,,,,,,,1,6.095635,,0,1,29,179,119,1,stimuli/stim_20210519_power2amp/equal_lnn_AM4Hz_s25_6.m4a,,,
,,,,,41233,2021-05-31_10h26.13.927,judgeSpeechMusic_20210519_logNormShiftAmp_mXs,2020.1.2,MacIntel,60,,,,,,,,,,,,,,,,,,,,,,,,,,2,6.67546,,0,1,30,180,79,1,stimuli/stim_20210519_power2amp/equal_lnn_AM2.5Hz_s35_16.m4a,,,
,,,,,41233,2021-05-31_10h26.13.927,judgeSpeechMusic_20210519_logNormShiftAmp_mXs,2020.1.2,MacIntel,60,,,,,,,,,,,,,,,,,,,,,,,,,,2,6.891165,,0,1,31,181,130,1,stimuli/stim_20210519_power2amp/equal_lnn_AM4Hz_s45_4.m4a,,,
,,,,,41233,2021-05-31_10h26.13.927,judgeSpeechMusic_20210519_logNormShiftAmp_mXs,2020.1.2,MacIntel,60,,,,,,,,,,,,,,,,,,,,,,,,,,2,6.0112,,0,1,32,182,132,1,stimuli/stim_20210519_power2amp/equal_lnn_AM4Hz_s45_48.m4a,,,
,,,,,41233,2021-05-31_10h26.13.927,judgeSpeechMusic_20210519_logNormShiftAmp_mXs,2020.1.2,MacIntel,60,,,,,,,,,,,,,,,,,,,,,,,,,,1,5.70802,,0,1,33,183,41,1,stimuli/stim_20210519_power2amp/equal_lnn_AM1Hz_s55_11.m4a,,,
,,,,,41233,2021-05-31_10h26.13.927,judgeSpeechMusic_20210519_logNormShiftAmp_mXs,2020.1.2,MacIntel,60,,,,,,,,,,,,,,,,,,,,,,,,,,2,6.04564,4,1,1,34,184,63,1,stimuli/stim_20210519_power2amp/equal_lnn_AM2.5Hz_s25_4.m4a,4.939415,,
,,,,,41233,2021-05-31_10h26.13.927,judgeSpeechMusic_20210519_logNormShiftAmp_mXs,2020.1.2,MacIntel,60,,,,,,,,,,,,,,,,,,,,,,,,,,2,7.07722,,0,1,35,185,86,1,stimuli/stim_20210519_power2amp/equal_lnn_AM2.5Hz_s45_2.m4a,,,
,,,,,41233,2021-05-31_10h26.13.927,judgeSpeechMusic_20210519_logNormShiftAmp_mXs,2020.1.2,MacIntel,60,,,,,,,,,,,,,,,,,,,,,,,,,,1,5.87589,,0,1,36,186,17,1,stimuli/stim_20210519_power2amp/equal_lnn_AM1Hz_s25_11.m4a,,,
,,,,,41233,2021-05-31_10h26.13.927,judgeSpeechMusic_20210519_logNormShiftAmp_mXs,2020.1.2,MacIntel,60,,,,,,,,,,,,,,,,,,,,,,,,,,1,7.00926,,0,1,37,187,37,1,stimuli/stim_20210519_power2amp/equal_lnn_AM1Hz_s45_19.m4a,,,
,,,,,41233,2021-05-31_10h26.13.927,judgeSpeechMusic_20210519_logNormShiftAmp_mXs,2020.1.2,MacIntel,60,,,,,,,,,,,,,,,,,,,,,,,,,,2,6.30802,,0,1,38,188,11,1,stimuli/stim_20210519_power2amp/equal_lnn_AM1Hz_s25_50.m4a,,,
,,,,,41233,2021-05-31_10h26.13.927,judgeSpeechMusic_20210519_logNormShiftAmp_mXs,2020.1.2,MacIntel,60,,,,,,,,,,,,,,,,,,,,,,,,,,1,5.795455,,0,1,39,189,9,1,stimuli/stim_20210519_power2amp/equal_lnn_AM1Hz_s15_39.m4a,,,
,,,,,41233,2021-05-31_10h26.13.927,judgeSpeechMusic_20210519_logNormShiftAmp_mXs,2020.1.2,MacIntel,60,,,,,,,,,,,,,,,,,,,,,,,,,,1,6.95716,,0,1,40,190,2,1,stimuli/stim_20210519_power2amp/equal_lnn_AM1Hz_s15_37.m4a,,,
,,,,,41233,2021-05-31_10h26.13.927,judgeSpeechMusic_20210519_logNormShiftAmp_mXs,2020.1.2,MacIntel,60,,,,,,,,,,,,,,,,,,,,,,,,,,2,6.411765,,0,1,41,191,61,1,stimuli/stim_20210519_power2amp/equal_lnn_AM2.5Hz_s25_11.m4a,,,
,,,,,41233,2021-05-31_10h26.13.927,judgeSpeechMusic_20210519_logNormShiftAmp_mXs,2020.1.2,MacIntel,60,,,,,,,,,,,,,,,,,,,,,,,,,,1,6.539735,,0,1,42,192,144,1,stimuli/stim_20210519_power2amp/equal_lnn_AM4Hz_s55_14.m4a,,,
,,,,,41233,2021-05-31_10h26.13.927,judgeSpeechMusic_20210519_logNormShiftAmp_mXs,2020.1.2,MacIntel,60,,,,,,,,,,,,,,,,,,,,,,,,,,2,11.76391,,0,1,43,193,140,1,stimuli/stim_20210519_power2amp/equal_lnn_AM4Hz_s55_29.m4a,,,
,,,,,41233,2021-05-31_10h26.13.927,judgeSpeechMusic_20210519_logNormShiftAmp_mXs,2020.1.2,MacIntel,60,,,,,,,,,,,,,,,,,,,,,,,,,,2,6.5437,,0,1,44,194,108,1,stimuli/stim_20210519_power2amp/equal_lnn_AM4Hz_s15_28.m4a,,,
,,,,,41233,2021-05-31_10h26.13.927,judgeSpeechMusic_20210519_logNormShiftAmp_mXs,2020.1.2,MacIntel,60,,,,,,,,,,,,,,,,,,,,,,,,,,2,11.113495,,0,1,45,195,98,1,stimuli/stim_20210519_power2amp/equal_lnn_AM2.5Hz_s55_14.m4a,,,
,,,,,41233,2021-05-31_10h26.13.927,judgeSpeechMusic_20210519_logNormShiftAmp_mXs,2020.1.2,MacIntel,60,,,,,,,,,,,,,,,,,,,,,,,,,,2,6.495095,,0,1,46,196,92,1,stimuli/stim_20210519_power2amp/equal_lnn_AM2.5Hz_s55_4.m4a,,,
,,,,,41233,2021-05-31_10h26.13.927,judgeSpeechMusic_20210519_logNormShiftAmp_mXs,2020.1.2,MacIntel,60,,,,,,,,,,,,,,,,,,,,,,,,,,1,8.209785,,0,1,47,197,83,1,stimuli/stim_20210519_power2amp/equal_lnn_AM2.5Hz_s45_30.m4a,,,
,,,,,41233,2021-05-31_10h26.13.927,judgeSpeechMusic_20210519_logNormShiftAmp_mXs,2020.1.2,MacIntel,60,,,,,,,,,,,,,,,,,,,,,,,,,,2,7.26662,,0,1,48,198,15,1,stimuli/stim_20210519_power2amp/equal_lnn_AM1Hz_s25_19.m4a,,,
,,,,,41233,2021-05-31_10h26.13.927,judgeSpeechMusic_20210519_logNormShiftAmp_mXs,2020.1.2,MacIntel,60,,,,,,,,,,,,,,,,,,,,,,,,,,2,7.457495,,0,1,49,199,39,1,stimuli/stim_20210519_power2amp/equal_lnn_AM1Hz_s45_3.m4a,,,
,,,,,41233,2021-05-31_10h26.13.927,judgeSpeechMusic_20210519_logNormShiftAmp_mXs,2020.1.2,MacIntel,60,,,,,,,,,,,,,,,,,,,,,,,,,,2,8.985975,,0,1,50,200,78,1,stimuli/stim_20210519_power2amp/equal_lnn_AM2.5Hz_s35_4.m4a,,,
,,,,,41233,2021-05-31_10h26.13.927,judgeSpeechMusic_20210519_logNormShiftAmp_mXs,2020.1.2,MacIntel,60,,,,,,,,,,,,,,,,,,,,,,,,,,1,6.343155,,0,1,51,201,60,1,stimuli/stim_20210519_power2amp/equal_lnn_AM2.5Hz_s25_21.m4a,,,
,,,,,41233,2021-05-31_10h26.13.927,judgeSpeechMusic_20210519_logNormShiftAmp_mXs,2020.1.2,MacIntel,60,,,,,,,,,,,,,,,,,,,,,,,,,,1,5.993025,,0,1,52,202,46,1,stimuli/stim_20210519_power2amp/equal_lnn_AM1Hz_s55_5.m4a,,,
,,,,,41233,2021-05-31_10h26.13.927,judgeSpeechMusic_20210519_logNormShiftAmp_mXs,2020.1.2,MacIntel,60,,,,,,,,,,,,,,,,,,,,,,,,,,2,6.13816,,0,1,53,203,94,1,stimuli/stim_20210519_power2amp/equal_lnn_AM2.5Hz_s55_23.m4a,,,
,,,,,41233,2021-05-31_10h26.13.927,judgeSpeechMusic_20210519_logNormShiftAmp_mXs,2020.1.2,MacIntel,60,,,,,,,,,,,,,,,,,,,,,,,,,,1,6.876285,,0,1,54,204,54,1,stimuli/stim_20210519_power2amp/equal_lnn_AM2.5Hz_s15_43.m4a,,,
,,,,,41233,2021-05-31_10h26.13.927,judgeSpeechMusic_20210519_logNormShiftAmp_mXs,2020.1.2,MacIntel,60,,,,,,,,,,,,,,,,,,,,,,,,,,2,6.8385,,0,1,55,205,75,1,stimuli/stim_20210519_power2amp/equal_lnn_AM2.5Hz_s35_28.m4a,,,
,,,,,41233,2021-05-31_10h26.13.927,judgeSpeechMusic_20210519_logNormShiftAmp_mXs,2020.1.2,MacIntel,60,,,,,,,,,,,,,,,,,,,,,,,,,,1,7.09232,2,1,1,56,206,22,1,stimuli/stim_20210519_power2amp/equal_lnn_AM1Hz_s35_4.m4a,1.207555,,
,,,,,41233,2021-05-31_10h26.13.927,judgeSpeechMusic_20210519_logNormShiftAmp_mXs,2020.1.2,MacIntel,60,,,,,,,,,,,,,,,,,,,,,,,,,,2,11.748415,,0,1,57,207,12,1,stimuli/stim_20210519_power2amp/equal_lnn_AM1Hz_s25_23.m4a,,,
,,,,,41233,2021-05-31_10h26.13.927,judgeSpeechMusic_20210519_logNormShiftAmp_mXs,2020.1.2,MacIntel,60,,,,,,,,,,,,,,,,,,,,,,,,,,2,7.43598,,0,1,58,208,49,1,stimuli/stim_20210519_power2amp/equal_lnn_AM1Hz_s55_6.m4a,,,
,,,,,41233,2021-05-31_10h26.13.927,judgeSpeechMusic_20210519_logNormShiftAmp_mXs,2020.1.2,MacIntel,60,,,,,,,,,,,,,,,,,,,,,,,,,,2,6.258555,,0,1,59,209,127,1,stimuli/stim_20210519_power2amp/equal_lnn_AM4Hz_s35_37.m4a,,,
,,,,,41233,2021-05-31_10h26.13.927,judgeSpeechMusic_20210519_logNormShiftAmp_mXs,2020.1.2,MacIntel,60,,,,,,,,,,,,,,,,,,,,,,,,,,1,9.91723,,0,1,60,210,145,1,stimuli/stim_20210519_power2amp/equal_lnn_AM4Hz_s55_23.m4a,,,
,,,,,41233,2021-05-31_10h26.13.927,judgeSpeechMusic_20210519_logNormShiftAmp_mXs,2020.1.2,MacIntel,60,,,,,,,,,,,,,,,,,,,,,,,,,,2,8.45346,,0,1,61,211,73,1,stimuli/stim_20210519_power2amp/equal_lnn_AM2.5Hz_s35_21.m4a,,,
,,,,,41233,2021-05-31_10h26.13.927,judgeSpeechMusic_20210519_logNormShiftAmp_mXs,2020.1.2,MacIntel,60,,,,,,,,,,,,,,,,,,,,,,,,,,2,6.32802,,0,1,62,212,109,1,stimuli/stim_20210519_power2amp/equal_lnn_AM4Hz_s15_8.m4a,,,
,,,,,41233,2021-05-31_10h26.13.927,judgeSpeechMusic_20210519_logNormShiftAmp_mXs,2020.1.2,MacIntel,60,,,,,,,,,,,,,,,,,,,,,,,,,,2,5.95867,,0,1,63,213,120,1,stimuli/stim_20210519_power2amp/equal_lnn_AM4Hz_s35_39.m4a,,,
,,,,,41233,2021-05-31_10h26.13.927,judgeSpeechMusic_20210519_logNormShiftAmp_mXs,2020.1.2,MacIntel,60,,,,,,,,,,,,,,,,,,,,,,,,,,2,7.08035,,0,1,64,214,112,1,stimuli/stim_20210519_power2amp/equal_lnn_AM4Hz_s25_44.m4a,,,
,,,,,41233,2021-05-31_10h26.13.927,judgeSpeechMusic_20210519_logNormShiftAmp_mXs,2020.1.2,MacIntel,60,,,,,,,,,,,,,,,,,,,,,,,,,,1,7.38088,,0,1,65,215,5,1,stimuli/stim_20210519_power2amp/equal_lnn_AM1Hz_s15_49.m4a,,,
,,,,,41233,2021-05-31_10h26.13.927,judgeSpeechMusic_20210519_logNormShiftAmp_mXs,2020.1.2,MacIntel,60,,,,,,,,,,,,,,,,,,,,,,,,,,2,6.818175,,0,1,66,216,91,1,stimuli/stim_20210519_power2amp/equal_lnn_AM2.5Hz_s55_31.m4a,,,
,,,,,41233,2021-05-31_10h26.13.927,judgeSpeechMusic_20210519_logNormShiftAmp_mXs,2020.1.2,MacIntel,60,,,,,,,,,,,,,,,,,,,,,,,,,,1,6.17548,,0,1,67,217,44,1,stimuli/stim_20210519_power2amp/equal_lnn_AM1Hz_s55_27.m4a,,,
,,,,,41233,2021-05-31_10h26.13.927,judgeSpeechMusic_20210519_logNormShiftAmp_mXs,2020.1.2,MacIntel,60,,,,,,,,,,,,,,,,,,,,,,,,,,2,5.895335,,0,1,68,218,88,1,stimuli/stim_20210519_power2amp/equal_lnn_AM2.5Hz_s45_39.m4a,,,
,,,,,41233,2021-05-31_10h26.13.927,judgeSpeechMusic_20210519_logNormShiftAmp_mXs,2020.1.2,MacIntel,60,,,,,,,,,,,,,,,,,,,,,,,,,,1,6.592785,,0,1,69,219,47,1,stimuli/stim_20210519_power2amp/equal_lnn_AM1Hz_s55_2.m4a,,,
,,,,,41233,2021-05-31_10h26.13.927,judgeSpeechMusic_20210519_logNormShiftAmp_mXs,2020.1.2,MacIntel,60,,,,,,,,,,,,,,,,,,,,,,,,,,1,6.22988,,0,1,70,220,26,1,stimuli/stim_20210519_power2amp/equal_lnn_AM1Hz_s35_22.m4a,,,
,,,,,41233,2021-05-31_10h26.13.927,judgeSpeechMusic_20210519_logNormShiftAmp_mXs,2020.1.2,MacIntel,60,,,,,,,,,,,,,,,,,,,,,,,,,,2,5.760995,,0,1,71,221,82,1,stimuli/stim_20210519_power2amp/equal_lnn_AM2.5Hz_s45_19.m4a,,,
,,,,,41233,2021-05-31_10h26.13.927,judgeSpeechMusic_20210519_logNormShiftAmp_mXs,2020.1.2,MacIntel,60,,,,,,,,,,,,,,,,,,,,,,,,,,2,6.36043,,0,1,72,222,21,1,stimuli/stim_20210519_power2amp/equal_lnn_AM1Hz_s35_34.m4a,,,
,,,,,41233,2021-05-31_10h26.13.927,judgeSpeechMusic_20210519_logNormShiftAmp_mXs,2020.1.2,MacIntel,60,,,,,,,,,,,,,,,,,,,,,,,,,,2,5.710245,,0,1,73,223,135,1,stimuli/stim_20210519_power2amp/equal_lnn_AM4Hz_s45_25.m4a,,,
,,,,,41233,2021-05-31_10h26.13.927,judgeSpeechMusic_20210519_logNormShiftAmp_mXs,2020.1.2,MacIntel,60,,,,,,,,,,,,,,,,,,,,,,,,,,2,6.89057,,0,1,74,224,116,1,stimuli/stim_20210519_power2amp/equal_lnn_AM4Hz_s25_15.m4a,,,
,,,,,41233,2021-05-31_10h26.13.927,judgeSpeechMusic_20210519_logNormShiftAmp_mXs,2020.1.2,MacIntel,60,,,,,,,,,,,,,,,,,,,,,,,,,,1,5.925675,,0,1,75,225,38,1,stimuli/stim_20210519_power2amp/equal_lnn_AM1Hz_s45_45.m4a,,,
,,,,,41233,2021-05-31_10h26.13.927,judgeSpeechMusic_20210519_logNormShiftAmp_mXs,2020.1.2,MacIntel,60,,,,,,,,,,,,,,,,,,,,,,,,,,1,6.12715,4,1,1,76,226,56,1,stimuli/stim_20210519_power2amp/equal_lnn_AM2.5Hz_s15_31.m4a,1.62761,,
,,,,,41233,2021-05-31_10h26.13.927,judgeSpeechMusic_20210519_logNormShiftAmp_mXs,2020.1.2,MacIntel,60,,,,,,,,,,,,,,,,,,,,,,,,,,2,10.54808,,0,1,77,227,123,1,stimuli/stim_20210519_power2amp/equal_lnn_AM4Hz_s35_11.m4a,,,
,,,,,41233,2021-05-31_10h26.13.927,judgeSpeechMusic_20210519_logNormShiftAmp_mXs,2020.1.2,MacIntel,60,,,,,,,,,,,,,,,,,,,,,,,,,,1,6.325525,,0,1,78,228,45,1,stimuli/stim_20210519_power2amp/equal_lnn_AM1Hz_s55_10.m4a,,,
,,,,,41233,2021-05-31_10h26.13.927,judgeSpeechMusic_20210519_logNormShiftAmp_mXs,2020.1.2,MacIntel,60,,,,,,,,,,,,,,,,,,,,,,,,,,2,7.857535,,0,1,79,229,53,1,stimuli/stim_20210519_power2amp/equal_lnn_AM2.5Hz_s15_29.m4a,,,
,,,,,41233,2021-05-31_10h26.13.927,judgeSpeechMusic_20210519_logNormShiftAmp_mXs,2020.1.2,MacIntel,60,,,,,,,,,,,,,,,,,,,,,,,,,,1,7.63818,,0,1,80,230,84,1,stimuli/stim_20210519_power2amp/equal_lnn_AM2.5Hz_s45_36.m4a,,,
,,,,,41233,2021-05-31_10h26.13.927,judgeSpeechMusic_20210519_logNormShiftAmp_mXs,2020.1.2,MacIntel,60,,,,,,,,,,,,,,,,,,,,,,,,,,2,8.881235,,0,1,81,231,90,1,stimuli/stim_20210519_power2amp/equal_lnn_AM2.5Hz_s55_30.m4a,,,
,,,,,41233,2021-05-31_10h26.13.927,judgeSpeechMusic_20210519_logNormShiftAmp_mXs,2020.1.2,MacIntel,60,,,,,,,,,,,,,,,,,,,,,,,,,,2,8.199665,,0,1,82,232,126,1,stimuli/stim_20210519_power2amp/equal_lnn_AM4Hz_s35_17.m4a,,,
,,,,,41233,2021-05-31_10h26.13.927,judgeSpeechMusic_20210519_logNormShiftAmp_mXs,2020.1.2,MacIntel,60,,,,,,,,,,,,,,,,,,,,,,,,,,2,7.058065,,0,1,83,233,95,1,stimuli/stim_20210519_power2amp/equal_lnn_AM2.5Hz_s55_28.m4a,,,
,,,,,41233,2021-05-31_10h26.13.927,judgeSpeechMusic_20210519_logNormShiftAmp_mXs,2020.1.2,MacIntel,60,,,,,,,,,,,,,,,,,,,,,,,,,,1,6.557865,,0,1,84,234,6,1,stimuli/stim_20210519_power2amp/equal_lnn_AM1Hz_s15_50.m4a,,,
,,,,,41233,2021-05-31_10h26.13.927,judgeSpeechMusic_20210519_logNormShiftAmp_mXs,2020.1.2,MacIntel,60,,,,,,,,,,,,,,,,,,,,,,,,,,2,6.395125,,0,1,85,235,80,1,stimuli/stim_20210519_power2amp/equal_lnn_AM2.5Hz_s45_14.m4a,,,
,,,,,41233,2021-05-31_10h26.13.927,judgeSpeechMusic_20210519_logNormShiftAmp_mXs,2020.1.2,MacIntel,60,,,,,,,,,,,,,,,,,,,,,,,,,,2,7.454515,,0,1,86,236,7,1,stimuli/stim_20210519_power2amp/equal_lnn_AM1Hz_s15_24.m4a,,,
,,,,,41233,2021-05-31_10h26.13.927,judgeSpeechMusic_20210519_logNormShiftAmp_mXs,2020.1.2,MacIntel,60,,,,,,,,,,,,,,,,,,,,,,,,,,1,7.192025,,0,1,87,237,40,1,stimuli/stim_20210519_power2amp/equal_lnn_AM1Hz_s55_49.m4a,,,
,,,,,41233,2021-05-31_10h26.13.927,judgeSpeechMusic_20210519_logNormShiftAmp_mXs,2020.1.2,MacIntel,60,,,,,,,,,,,,,,,,,,,,,,,,,,2,7.1735,,0,1,88,238,74,1,stimuli/stim_20210519_power2amp/equal_lnn_AM2.5Hz_s35_12.m4a,,,
,,,,,41233,2021-05-31_10h26.13.927,judgeSpeechMusic_20210519_logNormShiftAmp_mXs,2020.1.2,MacIntel,60,,,,,,,,,,,,,,,,,,,,,,,,,,2,6.50792,,0,1,89,239,106,1,stimuli/stim_20210519_power2amp/equal_lnn_AM4Hz_s15_34.m4a,,,
,,,,,41233,2021-05-31_10h26.13.927,judgeSpeechMusic_20210519_logNormShiftAmp_mXs,2020.1.2,MacIntel,60,,,,,,,,,,,,,,,,,,,,,,,,,,2,6.95869,,0,1,90,240,23,1,stimuli/stim_20210519_power2amp/equal_lnn_AM1Hz_s35_42.m4a,,,
,,,,,41233,2021-05-31_10h26.13.927,judgeSpeechMusic_20210519_logNormShiftAmp_mXs,2020.1.2,MacIntel,60,,,,,,,,,,,,,,,,,,,,,,,,,,2,6.359225,,0,1,91,241,68,1,stimuli/stim_20210519_power2amp/equal_lnn_AM2.5Hz_s25_15.m4a,,,
,,,,,41233,2021-05-31_10h26.13.927,judgeSpeechMusic_20210519_logNormShiftAmp_mXs,2020.1.2,MacIntel,60,,,,,,,,,,,,,,,,,,,,,,,,,,1,5.993575,,0,1,92,242,10,1,stimuli/stim_20210519_power2amp/equal_lnn_AM1Hz_s25_33.m4a,,,
,,,,,41233,2021-05-31_10h26.13.927,judgeSpeechMusic_20210519_logNormShiftAmp_mXs,2020.1.2,MacIntel,60,,,,,,,,,,,,,,,,,,,,,,,,,,2,6.314315,,0,1,93,243,134,1,stimuli/stim_20210519_power2amp/equal_lnn_AM4Hz_s45_23.m4a,,,
,,,,,41233,2021-05-31_10h26.13.927,judgeSpeechMusic_20210519_logNormShiftAmp_mXs,2020.1.2,MacIntel,60,,,,,,,,,,,,,,,,,,,,,,,,,,1,5.85847,,0,1,94,244,107,1,stimuli/stim_20210519_power2amp/equal_lnn_AM4Hz_s15_14.m4a,,,
,,,,,41233,2021-05-31_10h26.13.927,judgeSpeechMusic_20210519_logNormShiftAmp_mXs,2020.1.2,MacIntel,60,,,,,,,,,,,,,,,,,,,,,,,,,,1,6.37569,,0,1,95,245,1,1,stimuli/stim_20210519_power2amp/equal_lnn_AM1Hz_s15_40.m4a,,,
,,,,,41233,2021-05-31_10h26.13.927,judgeSpeechMusic_20210519_logNormShiftAmp_mXs,2020.1.2,MacIntel,60,,,,,,,,,,,,,,,,,,,,,,,,,,2,6.094485,,0,1,96,246,137,1,stimuli/stim_20210519_power2amp/equal_lnn_AM4Hz_s45_2.m4a,,,
,,,,,41233,2021-05-31_10h26.13.927,judgeSpeechMusic_20210519_logNormShiftAmp_mXs,2020.1.2,MacIntel,60,,,,,,,,,,,,,,,,,,,,,,,,,,2,6.22673,,0,1,97,247,139,1,stimuli/stim_20210519_power2amp/equal_lnn_AM4Hz_s45_50.m4a,,,
,,,,,41233,2021-05-31_10h26.13.927,judgeSpeechMusic_20210519_logNormShiftAmp_mXs,2020.1.2,MacIntel,60,,,,,,,,,,,,,,,,,,,,,,,,,,1,6.91682,,0,1,98,248,138,1,stimuli/stim_20210519_power2amp/equal_lnn_AM4Hz_s45_16.m4a,,,
,,,,,41233,2021-05-31_10h26.13.927,judgeSpeechMusic_20210519_logNormShiftAmp_mXs,2020.1.2,MacIntel,60,,,,,,,,,,,,,,,,,,,,,,,,,,2,6.02703,,0,1,99,249,124,1,stimuli/stim_20210519_power2amp/equal_lnn_AM4Hz_s35_5.m4a,,,
,,,,,41233,2021-05-31_10h26.13.927,judgeSpeechMusic_20210519_logNormShiftAmp_mXs,2020.1.2,MacIntel,60,,,,,,,,,,,,,,,,,,,,,,,,,,2,6.39596,3,1,1,100,250,125,1,stimuli/stim_20210519_power2amp/equal_lnn_AM4Hz_s35_6.m4a,1.22476,,
,,,,,41233,2021-05-31_10h26.13.927,judgeSpeechMusic_20210519_logNormShiftAmp_mXs,2020.1.2,MacIntel,60,,,,,,,,,,,,,,,,,,,,,,,,,,2,5.848305,,0,1,101,251,128,1,stimuli/stim_20210519_power2amp/equal_lnn_AM4Hz_s35_25.m4a,,,
,,,,,41233,2021-05-31_10h26.13.927,judgeSpeechMusic_20210519_logNormShiftAmp_mXs,2020.1.2,MacIntel,60,,,,,,,,,,,,,,,,,,,,,,,,,,1,5.66422,,0,1,102,252,93,1,stimuli/stim_20210519_power2amp/equal_lnn_AM2.5Hz_s55_32.m4a,,,
,,,,,41233,2021-05-31_10h26.13.927,judgeSpeechMusic_20210519_logNormShiftAmp_mXs,2020.1.2,MacIntel,60,,,,,,,,,,,,,,,,,,,,,,,,,,1,6.019,,0,1,103,253,117,1,stimuli/stim_20210519_power2amp/equal_lnn_AM4Hz_s25_39.m4a,,,
,,,,,41233,2021-05-31_10h26.13.927,judgeSpeechMusic_20210519_logNormShiftAmp_mXs,2020.1.2,MacIntel,60,,,,,,,,,,,,,,,,,,,,,,,,,,2,9.201895,,0,1,104,254,25,1,stimuli/stim_20210519_power2amp/equal_lnn_AM1Hz_s35_16.m4a,,,
,,,,,41233,2021-05-31_10h26.13.927,judgeSpeechMusic_20210519_logNormShiftAmp_mXs,2020.1.2,MacIntel,60,,,,,,,,,,,,,,,,,,,,,,,,,,2,8.54679,,0,1,105,255,31,1,stimuli/stim_20210519_power2amp/equal_lnn_AM1Hz_s45_11.m4a,,,
,,,,,41233,2021-05-31_10h26.13.927,judgeSpeechMusic_20210519_logNormShiftAmp_mXs,2020.1.2,MacIntel,60,,,,,,,,,,,,,,,,,,,,,,,,,,1,6.58519,,0,1,106,256,24,1,stimuli/stim_20210519_power2amp/equal_lnn_AM1Hz_s35_28.m4a,,,
,,,,,41233,2021-05-31_10h26.13.927,judgeSpeechMusic_20210519_logNormShiftAmp_mXs,2020.1.2,MacIntel,60,,,,,,,,,,,,,,,,,,,,,,,,,,1,7.00668,,0,1,107,257,36,1,stimuli/stim_20210519_power2amp/equal_lnn_AM1Hz_s45_31.m4a,,,
,,,,,41233,2021-05-31_10h26.13.927,judgeSpeechMusic_20210519_logNormShiftAmp_mXs,2020.1.2,MacIntel,60,,,,,,,,,,,,,,,,,,,,,,,,,,2,6.875835,,0,1,108,258,67,1,stimuli/stim_20210519_power2amp/equal_lnn_AM2.5Hz_s25_29.m4a,,,
,,,,,41233,2021-05-31_10h26.13.927,judgeSpeechMusic_20210519_logNormShiftAmp_mXs,2020.1.2,MacIntel,60,,,,,,,,,,,,,,,,,,,,,,,,,,1,5.678505,,0,1,109,259,8,1,stimuli/stim_20210519_power2amp/equal_lnn_AM1Hz_s15_17.m4a,,,
,,,,,41233,2021-05-31_10h26.13.927,judgeSpeechMusic_20210519_logNormShiftAmp_mXs,2020.1.2,MacIntel,60,,,,,,,,,,,,,,,,,,,,,,,,,,2,6.86109,,0,1,110,260,110,1,stimuli/stim_20210519_power2amp/equal_lnn_AM4Hz_s25_26.m4a,,,
,,,,,41233,2021-05-31_10h26.13.927,judgeSpeechMusic_20210519_logNormShiftAmp_mXs,2020.1.2,MacIntel,60,,,,,,,,,,,,,,,,,,,,,,,,,,2,6.64367,,0,1,111,261,136,1,stimuli/stim_20210519_power2amp/equal_lnn_AM4Hz_s45_36.m4a,,,
,,,,,41233,2021-05-31_10h26.13.927,judgeSpeechMusic_20210519_logNormShiftAmp_mXs,2020.1.2,MacIntel,60,,,,,,,,,,,,,,,,,,,,,,,,,,2,16.8343,,0,1,112,262,52,1,stimuli/stim_20210519_power2amp/equal_lnn_AM2.5Hz_s15_50.m4a,,,
,,,,,41233,2021-05-31_10h26.13.927,judgeSpeechMusic_20210519_logNormShiftAmp_mXs,2020.1.2,MacIntel,60,,,,,,,,,,,,,,,,,,,,,,,,,,1,6.743475,,0,1,113,263,30,1,stimuli/stim_20210519_power2amp/equal_lnn_AM1Hz_s45_22.m4a,,,
,,,,,41233,2021-05-31_10h26.13.927,judgeSpeechMusic_20210519_logNormShiftAmp_mXs,2020.1.2,MacIntel,60,,,,,,,,,,,,,,,,,,,,,,,,,,1,6.14377,,0,1,114,264,19,1,stimuli/stim_20210519_power2amp/equal_lnn_AM1Hz_s25_17.m4a,,,
,,,,,41233,2021-05-31_10h26.13.927,judgeSpeechMusic_20210519_logNormShiftAmp_mXs,2020.1.2,MacIntel,60,,,,,,,,,,,,,,,,,,,,,,,,,,2,12.09413,,0,1,115,265,113,1,stimuli/stim_20210519_power2amp/equal_lnn_AM4Hz_s25_18.m4a,,,
,,,,,41233,2021-05-31_10h26.13.927,judgeSpeechMusic_20210519_logNormShiftAmp_mXs,2020.1.2,MacIntel,60,,,,,,,,,,,,,,,,,,,,,,,,,,2,6.23079,,0,1,116,266,76,1,stimuli/stim_20210519_power2amp/equal_lnn_AM2.5Hz_s35_24.m4a,,,
,,,,,41233,2021-05-31_10h26.13.927,judgeSpeechMusic_20210519_logNormShiftAmp_mXs,2020.1.2,MacIntel,60,,,,,,,,,,,,,,,,,,,,,,,,,,1,10.19898,,0,1,117,267,27,1,stimuli/stim_20210519_power2amp/equal_lnn_AM1Hz_s35_5.m4a,,,
,,,,,41233,2021-05-31_10h26.13.927,judgeSpeechMusic_20210519_logNormShiftAmp_mXs,2020.1.2,MacIntel,60,,,,,,,,,,,,,,,,,,,,,,,,,,2,5.77106,,0,1,118,268,149,1,stimuli/stim_20210519_power2amp/equal_lnn_AM4Hz_s55_43.m4a,,,
,,,,,41233,2021-05-31_10h26.13.927,judgeSpeechMusic_20210519_logNormShiftAmp_mXs,2020.1.2,MacIntel,60,,,,,,,,,,,,,,,,,,,,,,,,,,1,5.977445,,0,1,119,269,104,1,stimuli/stim_20210519_power2amp/equal_lnn_AM4Hz_s15_40.m4a,,,
,,,,,41233,2021-05-31_10h26.13.927,judgeSpeechMusic_20210519_logNormShiftAmp_mXs,2020.1.2,MacIntel,60,,,,,,,,,,,,,,,,,,,,,,,,,,2,6.31277,,0,1,120,270,87,1,stimuli/stim_20210519_power2amp/equal_lnn_AM2.5Hz_s45_5.m4a,,,
,,,,,41233,2021-05-31_10h26.13.927,judgeSpeechMusic_20210519_logNormShiftAmp_mXs,2020.1.2,MacIntel,60,,,,,,,,,,,,,,,,,,,,,,,,,,1,5.77712,,0,1,121,271,4,1,stimuli/stim_20210519_power2amp/equal_lnn_AM1Hz_s15_16.m4a,,,
,,,,,41233,2021-05-31_10h26.13.927,judgeSpeechMusic_20210519_logNormShiftAmp_mXs,2020.1.2,MacIntel,60,,,,,,,,,,,,,,,,,,,,,,,,,,2,6.02683,,0,1,122,272,100,1,stimuli/stim_20210519_power2amp/equal_lnn_AM4Hz_s15_17.m4a,,,
,,,,,41233,2021-05-31_10h26.13.927,judgeSpeechMusic_20210519_logNormShiftAmp_mXs,2020.1.2,MacIntel,60,,,,,,,,,,,,,,,,,,,,,,,,,,1,6.82551,4,1,1,123,273,141,1,stimuli/stim_20210519_power2amp/equal_lnn_AM4Hz_s55_24.m4a,2.336185,,
,,,,,41233,2021-05-31_10h26.13.927,judgeSpeechMusic_20210519_logNormShiftAmp_mXs,2020.1.2,MacIntel,60,,,,,,,,,,,,,,,,,,,,,,,,,,1,6.53079,,0,1,124,274,142,1,stimuli/stim_20210519_power2amp/equal_lnn_AM4Hz_s55_28.m4a,,,
,,,,,41233,2021-05-31_10h26.13.927,judgeSpeechMusic_20210519_logNormShiftAmp_mXs,2020.1.2,MacIntel,60,,,,,,,,,,,,,,,,,,,,,,,,,,2,6.2421,,0,1,125,275,66,1,stimuli/stim_20210519_power2amp/equal_lnn_AM2.5Hz_s25_40.m4a,,,
,,,,,41233,2021-05-31_10h26.13.927,judgeSpeechMusic_20210519_logNormShiftAmp_mXs,2020.1.2,MacIntel,60,,,,,,,,,,,,,,,,,,,,,,,,,,2,5.681815,,0,1,126,276,131,1,stimuli/stim_20210519_power2amp/equal_lnn_AM4Hz_s45_49.m4a,,,
,,,,,41233,2021-05-31_10h26.13.927,judgeSpeechMusic_20210519_logNormShiftAmp_mXs,2020.1.2,MacIntel,60,,,,,,,,,,,,,,,,,,,,,,,,,,1,5.975995,,0,1,127,277,51,1,stimuli/stim_20210519_power2amp/equal_lnn_AM2.5Hz_s15_27.m4a,,,
,,,,,41233,2021-05-31_10h26.13.927,judgeSpeechMusic_20210519_logNormShiftAmp_mXs,2020.1.2,MacIntel,60,,,,,,,,,,,,,,,,,,,,,,,,,,1,5.9106,,0,1,128,278,20,1,stimuli/stim_20210519_power2amp/equal_lnn_AM1Hz_s35_13.m4a,,,
,,,,,41233,2021-05-31_10h26.13.927,judgeSpeechMusic_20210519_logNormShiftAmp_mXs,2020.1.2,MacIntel,60,,,,,,,,,,,,,,,,,,,,,,,,,,2,6.209905,,0,1,129,279,97,1,stimuli/stim_20210519_power2amp/equal_lnn_AM2.5Hz_s55_50.m4a,,,
,,,,,41233,2021-05-31_10h26.13.927,judgeSpeechMusic_20210519_logNormShiftAmp_mXs,2020.1.2,MacIntel,60,,,,,,,,,,,,,,,,,,,,,,,,,,2,9.86519,,0,1,130,280,29,1,stimuli/stim_20210519_power2amp/equal_lnn_AM1Hz_s35_10.m4a,,,
,,,,,41233,2021-05-31_10h26.13.927,judgeSpeechMusic_20210519_logNormShiftAmp_mXs,2020.1.2,MacIntel,60,,,,,,,,,,,,,,,,,,,,,,,,,,1,6.55864,,0,1,131,281,48,1,stimuli/stim_20210519_power2amp/equal_lnn_AM1Hz_s55_32.m4a,,,
,,,,,41233,2021-05-31_10h26.13.927,judgeSpeechMusic_20210519_logNormShiftAmp_mXs,2020.1.2,MacIntel,60,,,,,,,,,,,,,,,,,,,,,,,,,,1,5.844175,,0,1,132,282,3,1,stimuli/stim_20210519_power2amp/equal_lnn_AM1Hz_s15_43.m4a,,,
,,,,,41233,2021-05-31_10h26.13.927,judgeSpeechMusic_20210519_logNormShiftAmp_mXs,2020.1.2,MacIntel,60,,,,,,,,,,,,,,,,,,,,,,,,,,2,5.629125,,0,1,133,283,115,1,stimuli/stim_20210519_power2amp/equal_lnn_AM4Hz_s25_11.m4a,,,
,,,,,41233,2021-05-31_10h26.13.927,judgeSpeechMusic_20210519_logNormShiftAmp_mXs,2020.1.2,MacIntel,60,,,,,,,,,,,,,,,,,,,,,,,,,,2,5.747645,,0,1,134,284,72,1,stimuli/stim_20210519_power2amp/equal_lnn_AM2.5Hz_s35_26.m4a,,,
,,,,,41233,2021-05-31_10h26.13.927,judgeSpeechMusic_20210519_logNormShiftAmp_mXs,2020.1.2,MacIntel,60,,,,,,,,,,,,,,,,,,,,,,,,,,1,6.234335,,0,1,135,285,111,1,stimuli/stim_20210519_power2amp/equal_lnn_AM4Hz_s25_10.m4a,,,
,,,,,41233,2021-05-31_10h26.13.927,judgeSpeechMusic_20210519_logNormShiftAmp_mXs,2020.1.2,MacIntel,60,,,,,,,,,,,,,,,,,,,,,,,,,,1,5.897085,,0,1,136,286,14,1,stimuli/stim_20210519_power2amp/equal_lnn_AM1Hz_s25_36.m4a,,,
,,,,,41233,2021-05-31_10h26.13.927,judgeSpeechMusic_20210519_logNormShiftAmp_mXs,2020.1.2,MacIntel,60,,,,,,,,,,,,,,,,,,,,,,,,,,2,7.285845,,0,1,137,287,103,1,stimuli/stim_20210519_power2amp/equal_lnn_AM4Hz_s15_1.m4a,,,
,,,,,41233,2021-05-31_10h26.13.927,judgeSpeechMusic_20210519_logNormShiftAmp_mXs,2020.1.2,MacIntel,60,,,,,,,,,,,,,,,,,,,,,,,,,,2,5.815085,,0,1,138,288,101,1,stimuli/stim_20210519_power2amp/equal_lnn_AM4Hz_s15_33.m4a,,,
,,,,,41233,2021-05-31_10h26.13.927,judgeSpeechMusic_20210519_logNormShiftAmp_mXs,2020.1.2,MacIntel,60,,,,,,,,,,,,,,,,,,,,,,,,,,2,6.773635,,0,1,139,289,81,1,stimuli/stim_20210519_power2amp/equal_lnn_AM2.5Hz_s45_37.m4a,,,
,,,,,41233,2021-05-31_10h26.13.927,judgeSpeechMusic_20210519_logNormShiftAmp_mXs,2020.1.2,MacIntel,60,,,,,,,,,,,,,,,,,,,,,,,,,,2,6.84204,,0,1,140,290,70,1,stimuli/stim_20210519_power2amp/equal_lnn_AM2.5Hz_s35_40.m4a,,,
,,,,,41233,2021-05-31_10h26.13.927,judgeSpeechMusic_20210519_logNormShiftAmp_mXs,2020.1.2,MacIntel,60,,,,,,,,,,,,,,,,,,,,,,,,,,1,5.694765,,0,1,141,291,96,1,stimuli/stim_20210519_power2amp/equal_lnn_AM2.5Hz_s55_27.m4a,,,
,,,,,41233,2021-05-31_10h26.13.927,judgeSpeechMusic_20210519_logNormShiftAmp_mXs,2020.1.2,MacIntel,60,,,,,,,,,,,,,,,,,,,,,,,,,,2,6.01352,,0,1,142,292,85,1,stimuli/stim_20210519_power2amp/equal_lnn_AM2.5Hz_s45_21.m4a,,,
,,,,,41233,2021-05-31_10h26.13.927,judgeSpeechMusic_20210519_logNormShiftAmp_mXs,2020.1.2,MacIntel,60,,,,,,,,,,,,,,,,,,,,,,,,,,1,5.68965,,0,1,143,293,35,1,stimuli/stim_20210519_power2amp/equal_lnn_AM1Hz_s45_32.m4a,,,
,,,,,41233,2021-05-31_10h26.13.927,judgeSpeechMusic_20210519_logNormShiftAmp_mXs,2020.1.2,MacIntel,60,,,,,,,,,,,,,,,,,,,,,,,,,,2,6.160045,,0,1,144,294,147,1,stimuli/stim_20210519_power2amp/equal_lnn_AM4Hz_s55_9.m4a,,,
,,,,,41233,2021-05-31_10h26.13.927,judgeSpeechMusic_20210519_logNormShiftAmp_mXs,2020.1.2,MacIntel,60,,,,,,,,,,,,,,,,,,,,,,,,,,2,5.662125,,0,1,145,295,146,1,stimuli/stim_20210519_power2amp/equal_lnn_AM4Hz_s55_27.m4a,,,
,,,,,41233,2021-05-31_10h26.13.927,judgeSpeechMusic_20210519_logNormShiftAmp_mXs,2020.1.2,MacIntel,60,,,,,,,,,,,,,,,,,,,,,,,,,,1,5.83106,,0,1,146,296,33,1,stimuli/stim_20210519_power2amp/equal_lnn_AM1Hz_s45_10.m4a,,,
,,,,,41233,2021-05-31_10h26.13.927,judgeSpeechMusic_20210519_logNormShiftAmp_mXs,2020.1.2,MacIntel,60,,,,,,,,,,,,,,,,,,,,,,,,,,1,5.86569,,0,1,147,297,32,1,stimuli/stim_20210519_power2amp/equal_lnn_AM1Hz_s45_43.m4a,,,
,,,,,41233,2021-05-31_10h26.13.927,judgeSpeechMusic_20210519_logNormShiftAmp_mXs,2020.1.2,MacIntel,60,,,,,,,,,,,,,,,,,,,,,,,,,,2,5.85883,,0,1,148,298,148,1,stimuli/stim_20210519_power2amp/equal_lnn_AM4Hz_s55_10.m4a,,,
,,,,,41233,2021-05-31_10h26.13.927,judgeSpeechMusic_20210519_logNormShiftAmp_mXs,2020.1.2,MacIntel,60,,,,,,,,,,,,,,,,,,,,,,,,,,1,5.947415,,0,1,149,299,28,1,stimuli/stim_20210519_power2amp/equal_lnn_AM1Hz_s35_48.m4a,,,
,,,,,41233,2021-05-31_10h26.13.927,judgeSpeechMusic_20210519_logNormShiftAmp_mXs,2020.1.2,MacIntel,60,,,,,,,,,,,,,,,,,,,,,,,,,,,,,,,,,,,,,space,5.57735
