volAdjustRep.thisRepN,volAdjustRep.thisTrialN,volAdjustRep.thisN,volAdjustRep.thisIndex,volAdjustRep.ran,participant,date,expName,psychopyVersion,OS,frameRate,headphoneResponse.keys,headphoneResponse.corr,headphoneResponse.rt,headphoneTrial.thisRepN,headphoneTrial.thisTrialN,headphoneTrial.thisN,headphoneTrial.thisIndex,headphoneTrial.ran,headphone_sound1,headphone_sound2,headphone_sound3,corrAns,trainSlider.response,trainSlider.rt,beepTrainResponse.keys,beepTrainResponse.corr,trainingTrials.thisRepN,trainingTrials.thisTrialN,trainingTrials.thisN,trainingTrials.thisIndex,trainingTrials.ran,trainAudioFile,beepTrainResponse.rt,readyReal_resp.keys,readyReal_resp.rt,ratingSlider.response,ratingSlider.rt,beepResp.keys,beepResp.corr,expTrials.thisRepN,expTrials.thisTrialN,expTrials.thisN,expTrials.thisIndex,expTrials.ran,audioFile,beepResp.rt,end_resp.keys,end_resp.rt
0,0,0,0,1,41240,2021-06-08_18h10.42.764,judgeSpeechMusic_20210519_logNormShiftAmp_mXs,2020.1.2,MacIntel,60,,,,,,,,,,,,,,,,,,,,,,,,,,,,,,,,,,,,,,
,,,,,41240,2021-06-08_18h10.42.764,judgeSpeechMusic_20210519_logNormShiftAmp_mXs,2020.1.2,MacIntel,60,1,1,1.5341,0,0,0,5,1,stimuli/screen_quiet.wav,stimuli/screen_origin.wav,stimuli/screen_antiphase.wav,1,,,,,,,,,,,,,,,,,,,,,,,,,,
,,,,,41240,2021-06-08_18h10.42.764,judgeSpeechMusic_20210519_logNormShiftAmp_mXs,2020.1.2,MacIntel,60,3,1,0.8006,0,1,1,0,1,stimuli/screen_antiphase.wav,stimuli/screen_origin.wav,stimuli/screen_quiet.wav,3,,,,,,,,,,,,,,,,,,,,,,,,,,
,,,,,41240,2021-06-08_18h10.42.764,judgeSpeechMusic_20210519_logNormShiftAmp_mXs,2020.1.2,MacIntel,60,2,1,0.574,0,2,2,3,1,stimuli/screen_origin.wav,stimuli/screen_quiet.wav,stimuli/screen_antiphase.wav,2,,,,,,,,,,,,,,,,,,,,,,,,,,
,,,,,41240,2021-06-08_18h10.42.764,judgeSpeechMusic_20210519_logNormShiftAmp_mXs,2020.1.2,MacIntel,60,3,1,0.4161,0,3,3,2,1,stimuli/screen_origin.wav,stimuli/screen_antiphase.wav,stimuli/screen_quiet.wav,3,,,,,,,,,,,,,,,,,,,,,,,,,,
,,,,,41240,2021-06-08_18h10.42.764,judgeSpeechMusic_20210519_logNormShiftAmp_mXs,2020.1.2,MacIntel,60,1,1,0.2654,0,4,4,4,1,stimuli/screen_quiet.wav,stimuli/screen_antiphase.wav,stimuli/screen_origin.wav,1,,,,,,,,,,,,,,,,,,,,,,,,,,
,,,,,41240,2021-06-08_18h10.42.764,judgeSpeechMusic_20210519_logNormShiftAmp_mXs,2020.1.2,MacIntel,60,2,1,0.7518,0,5,5,1,1,stimuli/screen_antiphase.wav,stimuli/screen_quiet.wav,stimuli/screen_origin.wav,2,,,,,,,,,,,,,,,,,,,,,,,,,,
,,,,,41240,2021-06-08_18h10.42.764,judgeSpeechMusic_20210519_logNormShiftAmp_mXs,2020.1.2,MacIntel,60,,,,,,,,,,,,,1,10.8764,,0,0,0,0,1,1,stimuli/stim_20210519_power2amp/equal_lnn_AM_training1.5Hz_s50.m4a,,,,,,,,,,,,,,,,
,,,,,41240,2021-06-08_18h10.42.764,judgeSpeechMusic_20210519_logNormShiftAmp_mXs,2020.1.2,MacIntel,60,,,,,,,,,,,,,1,10.9952,,0,0,1,1,0,1,stimuli/stim_20210519_power2amp/equal_lnn_AM_training1.5Hz_s20.m4a,,,,,,,,,,,,,,,,
,,,,,41240,2021-06-08_18h10.42.764,judgeSpeechMusic_20210519_logNormShiftAmp_mXs,2020.1.2,MacIntel,60,,,,,,,,,,,,,2,6.3733,1,1,0,2,2,3,1,stimuli/stim_20210519_power2amp/equal_lnn_AM_training3.5Hz_s50.m4a,2.4879,,,,,,,,,,,,,,,
,,,,,41240,2021-06-08_18h10.42.764,judgeSpeechMusic_20210519_logNormShiftAmp_mXs,2020.1.2,MacIntel,60,,,,,,,,,,,,,1,6.8617,,0,0,3,3,2,1,stimuli/stim_20210519_power2amp/equal_lnn_AM_training3.5Hz_s20.m4a,,,,,,,,,,,,,,,,
,,,,,41240,2021-06-08_18h10.42.764,judgeSpeechMusic_20210519_logNormShiftAmp_mXs,2020.1.2,MacIntel,60,,,,,,,,,,,,,,,,,,,,,,,,space,5.1161,1,6.8269,,0,0,0,0,130,1,stimuli/stim_20210519_power2amp/equal_lnn_AM4Hz_s45_35.m4a,,,
,,,,,41240,2021-06-08_18h10.42.764,judgeSpeechMusic_20210519_logNormShiftAmp_mXs,2020.1.2,MacIntel,60,,,,,,,,,,,,,,,,,,,,,,,,,,1,6.1249,,0,0,1,1,128,1,stimuli/stim_20210519_power2amp/equal_lnn_AM4Hz_s35_46.m4a,,,
,,,,,41240,2021-06-08_18h10.42.764,judgeSpeechMusic_20210519_logNormShiftAmp_mXs,2020.1.2,MacIntel,60,,,,,,,,,,,,,,,,,,,,,,,,,,2,7.0111,,0,0,2,2,67,1,stimuli/stim_20210519_power2amp/equal_lnn_AM2.5Hz_s25_9.m4a,,,
,,,,,41240,2021-06-08_18h10.42.764,judgeSpeechMusic_20210519_logNormShiftAmp_mXs,2020.1.2,MacIntel,60,,,,,,,,,,,,,,,,,,,,,,,,,,2,6.513,,0,0,3,3,35,1,stimuli/stim_20210519_power2amp/equal_lnn_AM1Hz_s45_49.m4a,,,
,,,,,41240,2021-06-08_18h10.42.764,judgeSpeechMusic_20210519_logNormShiftAmp_mXs,2020.1.2,MacIntel,60,,,,,,,,,,,,,,,,,,,,,,,,,,2,6.0116,,0,0,4,4,70,1,stimuli/stim_20210519_power2amp/equal_lnn_AM2.5Hz_s35_33.m4a,,,
,,,,,41240,2021-06-08_18h10.42.764,judgeSpeechMusic_20210519_logNormShiftAmp_mXs,2020.1.2,MacIntel,60,,,,,,,,,,,,,,,,,,,,,,,,,,1,6.4935,,0,0,5,5,119,1,stimuli/stim_20210519_power2amp/equal_lnn_AM4Hz_s25_9.m4a,,,
,,,,,41240,2021-06-08_18h10.42.764,judgeSpeechMusic_20210519_logNormShiftAmp_mXs,2020.1.2,MacIntel,60,,,,,,,,,,,,,,,,,,,,,,,,,,2,10.1758,,0,0,6,6,30,1,stimuli/stim_20210519_power2amp/equal_lnn_AM1Hz_s45_38.m4a,,,
,,,,,41240,2021-06-08_18h10.42.764,judgeSpeechMusic_20210519_logNormShiftAmp_mXs,2020.1.2,MacIntel,60,,,,,,,,,,,,,,,,,,,,,,,,,,1,7.9112,,0,0,7,7,62,1,stimuli/stim_20210519_power2amp/equal_lnn_AM2.5Hz_s25_49.m4a,,,
,,,,,41240,2021-06-08_18h10.42.764,judgeSpeechMusic_20210519_logNormShiftAmp_mXs,2020.1.2,MacIntel,60,,,,,,,,,,,,,,,,,,,,,,,,,,1,7.7116,,0,0,8,8,2,1,stimuli/stim_20210519_power2amp/equal_lnn_AM1Hz_s15_42.m4a,,,
,,,,,41240,2021-06-08_18h10.42.764,judgeSpeechMusic_20210519_logNormShiftAmp_mXs,2020.1.2,MacIntel,60,,,,,,,,,,,,,,,,,,,,,,,,,,1,5.9786,,0,0,9,9,110,1,stimuli/stim_20210519_power2amp/equal_lnn_AM4Hz_s25_21.m4a,,,
,,,,,41240,2021-06-08_18h10.42.764,judgeSpeechMusic_20210519_logNormShiftAmp_mXs,2020.1.2,MacIntel,60,,,,,,,,,,,,,,,,,,,,,,,,,,1,7.6139,,0,0,10,10,135,1,stimuli/stim_20210519_power2amp/equal_lnn_AM4Hz_s45_46.m4a,,,
,,,,,41240,2021-06-08_18h10.42.764,judgeSpeechMusic_20210519_logNormShiftAmp_mXs,2020.1.2,MacIntel,60,,,,,,,,,,,,,,,,,,,,,,,,,,2,5.9444,,0,0,11,11,132,1,stimuli/stim_20210519_power2amp/equal_lnn_AM4Hz_s45_36.m4a,,,
,,,,,41240,2021-06-08_18h10.42.764,judgeSpeechMusic_20210519_logNormShiftAmp_mXs,2020.1.2,MacIntel,60,,,,,,,,,,,,,,,,,,,,,,,,,,2,6.4115,,0,0,12,12,19,1,stimuli/stim_20210519_power2amp/equal_lnn_AM1Hz_s25_13.m4a,,,
,,,,,41240,2021-06-08_18h10.42.764,judgeSpeechMusic_20210519_logNormShiftAmp_mXs,2020.1.2,MacIntel,60,,,,,,,,,,,,,,,,,,,,,,,,,,2,8.2952,,0,0,13,13,49,1,stimuli/stim_20210519_power2amp/equal_lnn_AM1Hz_s55_50.m4a,,,
,,,,,41240,2021-06-08_18h10.42.764,judgeSpeechMusic_20210519_logNormShiftAmp_mXs,2020.1.2,MacIntel,60,,,,,,,,,,,,,,,,,,,,,,,,,,2,7.213,,0,0,14,14,88,1,stimuli/stim_20210519_power2amp/equal_lnn_AM2.5Hz_s45_28.m4a,,,
,,,,,41240,2021-06-08_18h10.42.764,judgeSpeechMusic_20210519_logNormShiftAmp_mXs,2020.1.2,MacIntel,60,,,,,,,,,,,,,,,,,,,,,,,,,,2,7.4274,,0,0,15,15,39,1,stimuli/stim_20210519_power2amp/equal_lnn_AM1Hz_s45_43.m4a,,,
,,,,,41240,2021-06-08_18h10.42.764,judgeSpeechMusic_20210519_logNormShiftAmp_mXs,2020.1.2,MacIntel,60,,,,,,,,,,,,,,,,,,,,,,,,,,1,6.3575,,0,0,16,16,0,1,stimuli/stim_20210519_power2amp/equal_lnn_AM1Hz_s15_21.m4a,,,
,,,,,41240,2021-06-08_18h10.42.764,judgeSpeechMusic_20210519_logNormShiftAmp_mXs,2020.1.2,MacIntel,60,,,,,,,,,,,,,,,,,,,,,,,,,,1,6.0612,,0,0,17,17,80,1,stimuli/stim_20210519_power2amp/equal_lnn_AM2.5Hz_s45_38.m4a,,,
,,,,,41240,2021-06-08_18h10.42.764,judgeSpeechMusic_20210519_logNormShiftAmp_mXs,2020.1.2,MacIntel,60,,,,,,,,,,,,,,,,,,,,,,,,,,2,6.4781,,0,0,18,18,8,1,stimuli/stim_20210519_power2amp/equal_lnn_AM1Hz_s15_31.m4a,,,
,,,,,41240,2021-06-08_18h10.42.764,judgeSpeechMusic_20210519_logNormShiftAmp_mXs,2020.1.2,MacIntel,60,,,,,,,,,,,,,,,,,,,,,,,,,,1,6.7793,,0,0,19,19,32,1,stimuli/stim_20210519_power2amp/equal_lnn_AM1Hz_s45_23.m4a,,,
,,,,,41240,2021-06-08_18h10.42.764,judgeSpeechMusic_20210519_logNormShiftAmp_mXs,2020.1.2,MacIntel,60,,,,,,,,,,,,,,,,,,,,,,,,,,1,6.8795,,0,0,20,20,149,1,stimuli/stim_20210519_power2amp/equal_lnn_AM4Hz_s55_5.m4a,,,
,,,,,41240,2021-06-08_18h10.42.764,judgeSpeechMusic_20210519_logNormShiftAmp_mXs,2020.1.2,MacIntel,60,,,,,,,,,,,,,,,,,,,,,,,,,,2,7.6777,,0,0,21,21,21,1,stimuli/stim_20210519_power2amp/equal_lnn_AM1Hz_s35_33.m4a,,,
,,,,,41240,2021-06-08_18h10.42.764,judgeSpeechMusic_20210519_logNormShiftAmp_mXs,2020.1.2,MacIntel,60,,,,,,,,,,,,,,,,,,,,,,,,,,2,5.7593,,0,0,22,22,118,1,stimuli/stim_20210519_power2amp/equal_lnn_AM4Hz_s25_7.m4a,,,
,,,,,41240,2021-06-08_18h10.42.764,judgeSpeechMusic_20210519_logNormShiftAmp_mXs,2020.1.2,MacIntel,60,,,,,,,,,,,,,,,,,,,,,,,,,,1,6.1377,,0,0,23,23,28,1,stimuli/stim_20210519_power2amp/equal_lnn_AM1Hz_s35_26.m4a,,,
,,,,,41240,2021-06-08_18h10.42.764,judgeSpeechMusic_20210519_logNormShiftAmp_mXs,2020.1.2,MacIntel,60,,,,,,,,,,,,,,,,,,,,,,,,,,1,6.411,,0,0,24,24,87,1,stimuli/stim_20210519_power2amp/equal_lnn_AM2.5Hz_s45_35.m4a,,,
,,,,,41240,2021-06-08_18h10.42.764,judgeSpeechMusic_20210519_logNormShiftAmp_mXs,2020.1.2,MacIntel,60,,,,,,,,,,,,,,,,,,,,,,,,,,2,6.362,,0,0,25,25,92,1,stimuli/stim_20210519_power2amp/equal_lnn_AM2.5Hz_s55_46.m4a,,,
,,,,,41240,2021-06-08_18h10.42.764,judgeSpeechMusic_20210519_logNormShiftAmp_mXs,2020.1.2,MacIntel,60,,,,,,,,,,,,,,,,,,,,,,,,,,1,7.0635,,0,0,26,26,114,1,stimuli/stim_20210519_power2amp/equal_lnn_AM4Hz_s25_27.m4a,,,
,,,,,41240,2021-06-08_18h10.42.764,judgeSpeechMusic_20210519_logNormShiftAmp_mXs,2020.1.2,MacIntel,60,,,,,,,,,,,,,,,,,,,,,,,,,,2,6.4112,,0,0,27,27,20,1,stimuli/stim_20210519_power2amp/equal_lnn_AM1Hz_s35_12.m4a,,,
,,,,,41240,2021-06-08_18h10.42.764,judgeSpeechMusic_20210519_logNormShiftAmp_mXs,2020.1.2,MacIntel,60,,,,,,,,,,,,,,,,,,,,,,,,,,2,6.9454,,0,0,28,28,102,1,stimuli/stim_20210519_power2amp/equal_lnn_AM4Hz_s15_7.m4a,,,
,,,,,41240,2021-06-08_18h10.42.764,judgeSpeechMusic_20210519_logNormShiftAmp_mXs,2020.1.2,MacIntel,60,,,,,,,,,,,,,,,,,,,,,,,,,,1,7.6302,,0,0,29,29,60,1,stimuli/stim_20210519_power2amp/equal_lnn_AM2.5Hz_s25_17.m4a,,,
,,,,,41240,2021-06-08_18h10.42.764,judgeSpeechMusic_20210519_logNormShiftAmp_mXs,2020.1.2,MacIntel,60,,,,,,,,,,,,,,,,,,,,,,,,,,2,6.1457,,0,0,30,30,66,1,stimuli/stim_20210519_power2amp/equal_lnn_AM2.5Hz_s25_3.m4a,,,
,,,,,41240,2021-06-08_18h10.42.764,judgeSpeechMusic_20210519_logNormShiftAmp_mXs,2020.1.2,MacIntel,60,,,,,,,,,,,,,,,,,,,,,,,,,,2,5.7108,,0,0,31,31,148,1,stimuli/stim_20210519_power2amp/equal_lnn_AM4Hz_s55_10.m4a,,,
,,,,,41240,2021-06-08_18h10.42.764,judgeSpeechMusic_20210519_logNormShiftAmp_mXs,2020.1.2,MacIntel,60,,,,,,,,,,,,,,,,,,,,,,,,,,1,6.007,,0,0,32,32,15,1,stimuli/stim_20210519_power2amp/equal_lnn_AM1Hz_s25_15.m4a,,,
,,,,,41240,2021-06-08_18h10.42.764,judgeSpeechMusic_20210519_logNormShiftAmp_mXs,2020.1.2,MacIntel,60,,,,,,,,,,,,,,,,,,,,,,,,,,2,6.4954,,0,0,33,33,116,1,stimuli/stim_20210519_power2amp/equal_lnn_AM4Hz_s25_23.m4a,,,
,,,,,41240,2021-06-08_18h10.42.764,judgeSpeechMusic_20210519_logNormShiftAmp_mXs,2020.1.2,MacIntel,60,,,,,,,,,,,,,,,,,,,,,,,,,,2,7.4627,2,1,0,34,34,142,1,stimuli/stim_20210519_power2amp/equal_lnn_AM4Hz_s55_23.m4a,1.0222,,
,,,,,41240,2021-06-08_18h10.42.764,judgeSpeechMusic_20210519_logNormShiftAmp_mXs,2020.1.2,MacIntel,60,,,,,,,,,,,,,,,,,,,,,,,,,,1,6.8255,,0,0,35,35,113,1,stimuli/stim_20210519_power2amp/equal_lnn_AM4Hz_s25_22.m4a,,,
,,,,,41240,2021-06-08_18h10.42.764,judgeSpeechMusic_20210519_logNormShiftAmp_mXs,2020.1.2,MacIntel,60,,,,,,,,,,,,,,,,,,,,,,,,,,2,5.8117,,0,0,36,36,78,1,stimuli/stim_20210519_power2amp/equal_lnn_AM2.5Hz_s35_39.m4a,,,
,,,,,41240,2021-06-08_18h10.42.764,judgeSpeechMusic_20210519_logNormShiftAmp_mXs,2020.1.2,MacIntel,60,,,,,,,,,,,,,,,,,,,,,,,,,,1,6.6816,,0,0,37,37,104,1,stimuli/stim_20210519_power2amp/equal_lnn_AM4Hz_s15_41.m4a,,,
,,,,,41240,2021-06-08_18h10.42.764,judgeSpeechMusic_20210519_logNormShiftAmp_mXs,2020.1.2,MacIntel,60,,,,,,,,,,,,,,,,,,,,,,,,,,2,5.9606,,0,0,38,38,136,1,stimuli/stim_20210519_power2amp/equal_lnn_AM4Hz_s45_1.m4a,,,
,,,,,41240,2021-06-08_18h10.42.764,judgeSpeechMusic_20210519_logNormShiftAmp_mXs,2020.1.2,MacIntel,60,,,,,,,,,,,,,,,,,,,,,,,,,,2,6.609,,0,0,39,39,55,1,stimuli/stim_20210519_power2amp/equal_lnn_AM2.5Hz_s15_43.m4a,,,
,,,,,41240,2021-06-08_18h10.42.764,judgeSpeechMusic_20210519_logNormShiftAmp_mXs,2020.1.2,MacIntel,60,,,,,,,,,,,,,,,,,,,,,,,,,,2,5.9101,,0,0,40,40,68,1,stimuli/stim_20210519_power2amp/equal_lnn_AM2.5Hz_s25_31.m4a,,,
,,,,,41240,2021-06-08_18h10.42.764,judgeSpeechMusic_20210519_logNormShiftAmp_mXs,2020.1.2,MacIntel,60,,,,,,,,,,,,,,,,,,,,,,,,,,2,5.695,,0,0,41,41,7,1,stimuli/stim_20210519_power2amp/equal_lnn_AM1Hz_s15_50.m4a,,,
,,,,,41240,2021-06-08_18h10.42.764,judgeSpeechMusic_20210519_logNormShiftAmp_mXs,2020.1.2,MacIntel,60,,,,,,,,,,,,,,,,,,,,,,,,,,1,6.8801,,0,0,42,42,74,1,stimuli/stim_20210519_power2amp/equal_lnn_AM2.5Hz_s35_15.m4a,,,
,,,,,41240,2021-06-08_18h10.42.764,judgeSpeechMusic_20210519_logNormShiftAmp_mXs,2020.1.2,MacIntel,60,,,,,,,,,,,,,,,,,,,,,,,,,,1,9.8459,,0,0,43,43,23,1,stimuli/stim_20210519_power2amp/equal_lnn_AM1Hz_s35_28.m4a,,,
,,,,,41240,2021-06-08_18h10.42.764,judgeSpeechMusic_20210519_logNormShiftAmp_mXs,2020.1.2,MacIntel,60,,,,,,,,,,,,,,,,,,,,,,,,,,1,8.3436,,0,0,44,44,18,1,stimuli/stim_20210519_power2amp/equal_lnn_AM1Hz_s25_50.m4a,,,
,,,,,41240,2021-06-08_18h10.42.764,judgeSpeechMusic_20210519_logNormShiftAmp_mXs,2020.1.2,MacIntel,60,,,,,,,,,,,,,,,,,,,,,,,,,,2,12.5616,,0,0,45,45,14,1,stimuli/stim_20210519_power2amp/equal_lnn_AM1Hz_s25_11.m4a,,,
,,,,,41240,2021-06-08_18h10.42.764,judgeSpeechMusic_20210519_logNormShiftAmp_mXs,2020.1.2,MacIntel,60,,,,,,,,,,,,,,,,,,,,,,,,,,2,6.4292,,0,0,46,46,95,1,stimuli/stim_20210519_power2amp/equal_lnn_AM2.5Hz_s55_16.m4a,,,
,,,,,41240,2021-06-08_18h10.42.764,judgeSpeechMusic_20210519_logNormShiftAmp_mXs,2020.1.2,MacIntel,60,,,,,,,,,,,,,,,,,,,,,,,,,,1,7.0612,,0,0,47,47,25,1,stimuli/stim_20210519_power2amp/equal_lnn_AM1Hz_s35_13.m4a,,,
,,,,,41240,2021-06-08_18h10.42.764,judgeSpeechMusic_20210519_logNormShiftAmp_mXs,2020.1.2,MacIntel,60,,,,,,,,,,,,,,,,,,,,,,,,,,1,11.3127,,0,0,48,48,106,1,stimuli/stim_20210519_power2amp/equal_lnn_AM4Hz_s15_28.m4a,,,
,,,,,41240,2021-06-08_18h10.42.764,judgeSpeechMusic_20210519_logNormShiftAmp_mXs,2020.1.2,MacIntel,60,,,,,,,,,,,,,,,,,,,,,,,,,,2,8.4758,,0,0,49,49,5,1,stimuli/stim_20210519_power2amp/equal_lnn_AM1Hz_s15_4.m4a,,,
,,,,,41240,2021-06-08_18h10.42.764,judgeSpeechMusic_20210519_logNormShiftAmp_mXs,2020.1.2,MacIntel,60,,,,,,,,,,,,,,,,,,,,,,,,,,1,7.9947,,0,0,50,50,76,1,stimuli/stim_20210519_power2amp/equal_lnn_AM2.5Hz_s35_6.m4a,,,
,,,,,41240,2021-06-08_18h10.42.764,judgeSpeechMusic_20210519_logNormShiftAmp_mXs,2020.1.2,MacIntel,60,,,,,,,,,,,,,,,,,,,,,,,,,,2,5.7374,,0,0,51,51,93,1,stimuli/stim_20210519_power2amp/equal_lnn_AM2.5Hz_s55_40.m4a,,,
,,,,,41240,2021-06-08_18h10.42.764,judgeSpeechMusic_20210519_logNormShiftAmp_mXs,2020.1.2,MacIntel,60,,,,,,,,,,,,,,,,,,,,,,,,,,2,5.5458,,0,0,52,52,121,1,stimuli/stim_20210519_power2amp/equal_lnn_AM4Hz_s35_24.m4a,,,
,,,,,41240,2021-06-08_18h10.42.764,judgeSpeechMusic_20210519_logNormShiftAmp_mXs,2020.1.2,MacIntel,60,,,,,,,,,,,,,,,,,,,,,,,,,,1,5.7806,,0,0,53,53,27,1,stimuli/stim_20210519_power2amp/equal_lnn_AM1Hz_s35_7.m4a,,,
,,,,,41240,2021-06-08_18h10.42.764,judgeSpeechMusic_20210519_logNormShiftAmp_mXs,2020.1.2,MacIntel,60,,,,,,,,,,,,,,,,,,,,,,,,,,1,6.2789,,0,0,54,54,38,1,stimuli/stim_20210519_power2amp/equal_lnn_AM1Hz_s45_13.m4a,,,
,,,,,41240,2021-06-08_18h10.42.764,judgeSpeechMusic_20210519_logNormShiftAmp_mXs,2020.1.2,MacIntel,60,,,,,,,,,,,,,,,,,,,,,,,,,,2,6.2702,,0,0,55,55,71,1,stimuli/stim_20210519_power2amp/equal_lnn_AM2.5Hz_s35_36.m4a,,,
,,,,,41240,2021-06-08_18h10.42.764,judgeSpeechMusic_20210519_logNormShiftAmp_mXs,2020.1.2,MacIntel,60,,,,,,,,,,,,,,,,,,,,,,,,,,1,5.8137,1,1,0,56,56,51,1,stimuli/stim_20210519_power2amp/equal_lnn_AM2.5Hz_s15_37.m4a,0.0981,,
,,,,,41240,2021-06-08_18h10.42.764,judgeSpeechMusic_20210519_logNormShiftAmp_mXs,2020.1.2,MacIntel,60,,,,,,,,,,,,,,,,,,,,,,,,,,2,6.9761,,0,0,57,57,33,1,stimuli/stim_20210519_power2amp/equal_lnn_AM1Hz_s45_22.m4a,,,
,,,,,41240,2021-06-08_18h10.42.764,judgeSpeechMusic_20210519_logNormShiftAmp_mXs,2020.1.2,MacIntel,60,,,,,,,,,,,,,,,,,,,,,,,,,,2,5.6112,,0,0,58,58,64,1,stimuli/stim_20210519_power2amp/equal_lnn_AM2.5Hz_s25_15.m4a,,,
,,,,,41240,2021-06-08_18h10.42.764,judgeSpeechMusic_20210519_logNormShiftAmp_mXs,2020.1.2,MacIntel,60,,,,,,,,,,,,,,,,,,,,,,,,,,1,7.3121,,0,0,59,59,144,1,stimuli/stim_20210519_power2amp/equal_lnn_AM4Hz_s55_8.m4a,,,
,,,,,41240,2021-06-08_18h10.42.764,judgeSpeechMusic_20210519_logNormShiftAmp_mXs,2020.1.2,MacIntel,60,,,,,,,,,,,,,,,,,,,,,,,,,,1,6.4434,,0,0,60,60,44,1,stimuli/stim_20210519_power2amp/equal_lnn_AM1Hz_s55_44.m4a,,,
,,,,,41240,2021-06-08_18h10.42.764,judgeSpeechMusic_20210519_logNormShiftAmp_mXs,2020.1.2,MacIntel,60,,,,,,,,,,,,,,,,,,,,,,,,,,2,6.5805,,0,0,61,61,9,1,stimuli/stim_20210519_power2amp/equal_lnn_AM1Hz_s15_26.m4a,,,
,,,,,41240,2021-06-08_18h10.42.764,judgeSpeechMusic_20210519_logNormShiftAmp_mXs,2020.1.2,MacIntel,60,,,,,,,,,,,,,,,,,,,,,,,,,,2,5.9958,,0,0,62,62,26,1,stimuli/stim_20210519_power2amp/equal_lnn_AM1Hz_s35_36.m4a,,,
,,,,,41240,2021-06-08_18h10.42.764,judgeSpeechMusic_20210519_logNormShiftAmp_mXs,2020.1.2,MacIntel,60,,,,,,,,,,,,,,,,,,,,,,,,,,1,6.127,,0,0,63,63,109,1,stimuli/stim_20210519_power2amp/equal_lnn_AM4Hz_s15_37.m4a,,,
,,,,,41240,2021-06-08_18h10.42.764,judgeSpeechMusic_20210519_logNormShiftAmp_mXs,2020.1.2,MacIntel,60,,,,,,,,,,,,,,,,,,,,,,,,,,2,6.0434,,0,0,64,64,131,1,stimuli/stim_20210519_power2amp/equal_lnn_AM4Hz_s45_21.m4a,,,
,,,,,41240,2021-06-08_18h10.42.764,judgeSpeechMusic_20210519_logNormShiftAmp_mXs,2020.1.2,MacIntel,60,,,,,,,,,,,,,,,,,,,,,,,,,,1,8.6281,,0,0,65,65,124,1,stimuli/stim_20210519_power2amp/equal_lnn_AM4Hz_s35_14.m4a,,,
,,,,,41240,2021-06-08_18h10.42.764,judgeSpeechMusic_20210519_logNormShiftAmp_mXs,2020.1.2,MacIntel,60,,,,,,,,,,,,,,,,,,,,,,,,,,2,6.6774,,0,0,66,66,82,1,stimuli/stim_20210519_power2amp/equal_lnn_AM2.5Hz_s45_17.m4a,,,
,,,,,41240,2021-06-08_18h10.42.764,judgeSpeechMusic_20210519_logNormShiftAmp_mXs,2020.1.2,MacIntel,60,,,,,,,,,,,,,,,,,,,,,,,,,,1,8.3425,,0,0,67,67,146,1,stimuli/stim_20210519_power2amp/equal_lnn_AM4Hz_s55_37.m4a,,,
,,,,,41240,2021-06-08_18h10.42.764,judgeSpeechMusic_20210519_logNormShiftAmp_mXs,2020.1.2,MacIntel,60,,,,,,,,,,,,,,,,,,,,,,,,,,1,6.9956,,0,0,68,68,143,1,stimuli/stim_20210519_power2amp/equal_lnn_AM4Hz_s55_13.m4a,,,
,,,,,41240,2021-06-08_18h10.42.764,judgeSpeechMusic_20210519_logNormShiftAmp_mXs,2020.1.2,MacIntel,60,,,,,,,,,,,,,,,,,,,,,,,,,,2,6.3784,,0,0,69,69,56,1,stimuli/stim_20210519_power2amp/equal_lnn_AM2.5Hz_s15_21.m4a,,,
,,,,,41240,2021-06-08_18h10.42.764,judgeSpeechMusic_20210519_logNormShiftAmp_mXs,2020.1.2,MacIntel,60,,,,,,,,,,,,,,,,,,,,,,,,,,2,10.4168,,0,0,70,70,1,1,stimuli/stim_20210519_power2amp/equal_lnn_AM1Hz_s15_25.m4a,,,
,,,,,41240,2021-06-08_18h10.42.764,judgeSpeechMusic_20210519_logNormShiftAmp_mXs,2020.1.2,MacIntel,60,,,,,,,,,,,,,,,,,,,,,,,,,,2,5.8092,,0,0,71,71,117,1,stimuli/stim_20210519_power2amp/equal_lnn_AM4Hz_s25_12.m4a,,,
,,,,,41240,2021-06-08_18h10.42.764,judgeSpeechMusic_20210519_logNormShiftAmp_mXs,2020.1.2,MacIntel,60,,,,,,,,,,,,,,,,,,,,,,,,,,1,5.8426,,0,0,72,72,77,1,stimuli/stim_20210519_power2amp/equal_lnn_AM2.5Hz_s35_14.m4a,,,
,,,,,41240,2021-06-08_18h10.42.764,judgeSpeechMusic_20210519_logNormShiftAmp_mXs,2020.1.2,MacIntel,60,,,,,,,,,,,,,,,,,,,,,,,,,,2,6.1121,,0,0,73,73,22,1,stimuli/stim_20210519_power2amp/equal_lnn_AM1Hz_s35_6.m4a,,,
,,,,,41240,2021-06-08_18h10.42.764,judgeSpeechMusic_20210519_logNormShiftAmp_mXs,2020.1.2,MacIntel,60,,,,,,,,,,,,,,,,,,,,,,,,,,1,6.8629,,0,0,74,74,81,1,stimuli/stim_20210519_power2amp/equal_lnn_AM2.5Hz_s45_40.m4a,,,
,,,,,41240,2021-06-08_18h10.42.764,judgeSpeechMusic_20210519_logNormShiftAmp_mXs,2020.1.2,MacIntel,60,,,,,,,,,,,,,,,,,,,,,,,,,,1,20.0616,,0,0,75,75,103,1,stimuli/stim_20210519_power2amp/equal_lnn_AM4Hz_s15_17.m4a,,,
,,,,,41240,2021-06-08_18h10.42.764,judgeSpeechMusic_20210519_logNormShiftAmp_mXs,2020.1.2,MacIntel,60,,,,,,,,,,,,,,,,,,,,,,,,,,1,9.6099,,0,0,76,76,115,1,stimuli/stim_20210519_power2amp/equal_lnn_AM4Hz_s25_41.m4a,,,
,,,,,41240,2021-06-08_18h10.42.764,judgeSpeechMusic_20210519_logNormShiftAmp_mXs,2020.1.2,MacIntel,60,,,,,,,,,,,,,,,,,,,,,,,,,,2,7.1878,,0,0,77,77,52,1,stimuli/stim_20210519_power2amp/equal_lnn_AM2.5Hz_s15_31.m4a,,,
,,,,,41240,2021-06-08_18h10.42.764,judgeSpeechMusic_20210519_logNormShiftAmp_mXs,2020.1.2,MacIntel,60,,,,,,,,,,,,,,,,,,,,,,,,,,1,6.5115,,0,0,78,78,99,1,stimuli/stim_20210519_power2amp/equal_lnn_AM2.5Hz_s55_41.m4a,,,
,,,,,41240,2021-06-08_18h10.42.764,judgeSpeechMusic_20210519_logNormShiftAmp_mXs,2020.1.2,MacIntel,60,,,,,,,,,,,,,,,,,,,,,,,,,,1,6.0458,3,1,0,79,79,79,1,stimuli/stim_20210519_power2amp/equal_lnn_AM2.5Hz_s35_8.m4a,0.6279,,
,,,,,41240,2021-06-08_18h10.42.764,judgeSpeechMusic_20210519_logNormShiftAmp_mXs,2020.1.2,MacIntel,60,,,,,,,,,,,,,,,,,,,,,,,,,,2,7.5438,,0,0,80,80,84,1,stimuli/stim_20210519_power2amp/equal_lnn_AM2.5Hz_s45_31.m4a,,,
,,,,,41240,2021-06-08_18h10.42.764,judgeSpeechMusic_20210519_logNormShiftAmp_mXs,2020.1.2,MacIntel,60,,,,,,,,,,,,,,,,,,,,,,,,,,1,6.4458,,0,0,81,81,50,1,stimuli/stim_20210519_power2amp/equal_lnn_AM2.5Hz_s15_30.m4a,,,
,,,,,41240,2021-06-08_18h10.42.764,judgeSpeechMusic_20210519_logNormShiftAmp_mXs,2020.1.2,MacIntel,60,,,,,,,,,,,,,,,,,,,,,,,,,,1,7.9301,,0,0,82,82,17,1,stimuli/stim_20210519_power2amp/equal_lnn_AM1Hz_s25_33.m4a,,,
,,,,,41240,2021-06-08_18h10.42.764,judgeSpeechMusic_20210519_logNormShiftAmp_mXs,2020.1.2,MacIntel,60,,,,,,,,,,,,,,,,,,,,,,,,,,1,6.0737,,0,0,83,83,145,1,stimuli/stim_20210519_power2amp/equal_lnn_AM4Hz_s55_11.m4a,,,
,,,,,41240,2021-06-08_18h10.42.764,judgeSpeechMusic_20210519_logNormShiftAmp_mXs,2020.1.2,MacIntel,60,,,,,,,,,,,,,,,,,,,,,,,,,,1,6.1462,,0,0,84,84,69,1,stimuli/stim_20210519_power2amp/equal_lnn_AM2.5Hz_s25_50.m4a,,,
,,,,,41240,2021-06-08_18h10.42.764,judgeSpeechMusic_20210519_logNormShiftAmp_mXs,2020.1.2,MacIntel,60,,,,,,,,,,,,,,,,,,,,,,,,,,1,6.2612,,0,0,85,85,125,1,stimuli/stim_20210519_power2amp/equal_lnn_AM4Hz_s35_7.m4a,,,
,,,,,41240,2021-06-08_18h10.42.764,judgeSpeechMusic_20210519_logNormShiftAmp_mXs,2020.1.2,MacIntel,60,,,,,,,,,,,,,,,,,,,,,,,,,,2,5.8093,,0,0,86,86,94,1,stimuli/stim_20210519_power2amp/equal_lnn_AM2.5Hz_s55_4.m4a,,,
,,,,,41240,2021-06-08_18h10.42.764,judgeSpeechMusic_20210519_logNormShiftAmp_mXs,2020.1.2,MacIntel,60,,,,,,,,,,,,,,,,,,,,,,,,,,2,6.7285,,0,0,87,87,59,1,stimuli/stim_20210519_power2amp/equal_lnn_AM2.5Hz_s15_8.m4a,,,
,,,,,41240,2021-06-08_18h10.42.764,judgeSpeechMusic_20210519_logNormShiftAmp_mXs,2020.1.2,MacIntel,60,,,,,,,,,,,,,,,,,,,,,,,,,,1,8.3134,,0,0,88,88,147,1,stimuli/stim_20210519_power2amp/equal_lnn_AM4Hz_s55_17.m4a,,,
,,,,,41240,2021-06-08_18h10.42.764,judgeSpeechMusic_20210519_logNormShiftAmp_mXs,2020.1.2,MacIntel,60,,,,,,,,,,,,,,,,,,,,,,,,,,1,9.2434,,0,0,89,89,29,1,stimuli/stim_20210519_power2amp/equal_lnn_AM1Hz_s35_24.m4a,,,
,,,,,41240,2021-06-08_18h10.42.764,judgeSpeechMusic_20210519_logNormShiftAmp_mXs,2020.1.2,MacIntel,60,,,,,,,,,,,,,,,,,,,,,,,,,,1,5.7126,,0,0,90,90,86,1,stimuli/stim_20210519_power2amp/equal_lnn_AM2.5Hz_s45_25.m4a,,,
,,,,,41240,2021-06-08_18h10.42.764,judgeSpeechMusic_20210519_logNormShiftAmp_mXs,2020.1.2,MacIntel,60,,,,,,,,,,,,,,,,,,,,,,,,,,2,6.5064,,0,0,91,91,47,1,stimuli/stim_20210519_power2amp/equal_lnn_AM1Hz_s55_41.m4a,,,
,,,,,41240,2021-06-08_18h10.42.764,judgeSpeechMusic_20210519_logNormShiftAmp_mXs,2020.1.2,MacIntel,60,,,,,,,,,,,,,,,,,,,,,,,,,,1,6.0956,,0,0,92,92,73,1,stimuli/stim_20210519_power2amp/equal_lnn_AM2.5Hz_s35_19.m4a,,,
,,,,,41240,2021-06-08_18h10.42.764,judgeSpeechMusic_20210519_logNormShiftAmp_mXs,2020.1.2,MacIntel,60,,,,,,,,,,,,,,,,,,,,,,,,,,1,5.7478,,0,0,93,93,140,1,stimuli/stim_20210519_power2amp/equal_lnn_AM4Hz_s55_12.m4a,,,
,,,,,41240,2021-06-08_18h10.42.764,judgeSpeechMusic_20210519_logNormShiftAmp_mXs,2020.1.2,MacIntel,60,,,,,,,,,,,,,,,,,,,,,,,,,,1,6.095,,0,0,94,94,63,1,stimuli/stim_20210519_power2amp/equal_lnn_AM2.5Hz_s25_37.m4a,,,
,,,,,41240,2021-06-08_18h10.42.764,judgeSpeechMusic_20210519_logNormShiftAmp_mXs,2020.1.2,MacIntel,60,,,,,,,,,,,,,,,,,,,,,,,,,,1,6.4773,,0,0,95,95,45,1,stimuli/stim_20210519_power2amp/equal_lnn_AM1Hz_s55_7.m4a,,,
,,,,,41240,2021-06-08_18h10.42.764,judgeSpeechMusic_20210519_logNormShiftAmp_mXs,2020.1.2,MacIntel,60,,,,,,,,,,,,,,,,,,,,,,,,,,1,6.497,,0,0,96,96,42,1,stimuli/stim_20210519_power2amp/equal_lnn_AM1Hz_s55_17.m4a,,,
,,,,,41240,2021-06-08_18h10.42.764,judgeSpeechMusic_20210519_logNormShiftAmp_mXs,2020.1.2,MacIntel,60,,,,,,,,,,,,,,,,,,,,,,,,,,1,5.8539,,0,0,97,97,111,1,stimuli/stim_20210519_power2amp/equal_lnn_AM4Hz_s25_6.m4a,,,
,,,,,41240,2021-06-08_18h10.42.764,judgeSpeechMusic_20210519_logNormShiftAmp_mXs,2020.1.2,MacIntel,60,,,,,,,,,,,,,,,,,,,,,,,,,,2,7.2466,,0,0,98,98,40,1,stimuli/stim_20210519_power2amp/equal_lnn_AM1Hz_s55_18.m4a,,,
,,,,,41240,2021-06-08_18h10.42.764,judgeSpeechMusic_20210519_logNormShiftAmp_mXs,2020.1.2,MacIntel,60,,,,,,,,,,,,,,,,,,,,,,,,,,2,6.7416,,0,0,99,99,133,1,stimuli/stim_20210519_power2amp/equal_lnn_AM4Hz_s45_13.m4a,,,
,,,,,41240,2021-06-08_18h10.42.764,judgeSpeechMusic_20210519_logNormShiftAmp_mXs,2020.1.2,MacIntel,60,,,,,,,,,,,,,,,,,,,,,,,,,,2,6.8623,1,1,0,100,100,12,1,stimuli/stim_20210519_power2amp/equal_lnn_AM1Hz_s25_4.m4a,0.3964,,
,,,,,41240,2021-06-08_18h10.42.764,judgeSpeechMusic_20210519_logNormShiftAmp_mXs,2020.1.2,MacIntel,60,,,,,,,,,,,,,,,,,,,,,,,,,,1,6.4664,,0,0,101,101,138,1,stimuli/stim_20210519_power2amp/equal_lnn_AM4Hz_s45_45.m4a,,,
,,,,,41240,2021-06-08_18h10.42.764,judgeSpeechMusic_20210519_logNormShiftAmp_mXs,2020.1.2,MacIntel,60,,,,,,,,,,,,,,,,,,,,,,,,,,1,7.5262,,0,0,102,102,123,1,stimuli/stim_20210519_power2amp/equal_lnn_AM4Hz_s35_4.m4a,,,
,,,,,41240,2021-06-08_18h10.42.764,judgeSpeechMusic_20210519_logNormShiftAmp_mXs,2020.1.2,MacIntel,60,,,,,,,,,,,,,,,,,,,,,,,,,,1,8.9791,,0,0,103,103,141,1,stimuli/stim_20210519_power2amp/equal_lnn_AM4Hz_s55_18.m4a,,,
,,,,,41240,2021-06-08_18h10.42.764,judgeSpeechMusic_20210519_logNormShiftAmp_mXs,2020.1.2,MacIntel,60,,,,,,,,,,,,,,,,,,,,,,,,,,2,6.7889,,0,0,104,104,13,1,stimuli/stim_20210519_power2amp/equal_lnn_AM1Hz_s25_35.m4a,,,
,,,,,41240,2021-06-08_18h10.42.764,judgeSpeechMusic_20210519_logNormShiftAmp_mXs,2020.1.2,MacIntel,60,,,,,,,,,,,,,,,,,,,,,,,,,,2,8.6459,,0,0,105,105,134,1,stimuli/stim_20210519_power2amp/equal_lnn_AM4Hz_s45_23.m4a,,,
,,,,,41240,2021-06-08_18h10.42.764,judgeSpeechMusic_20210519_logNormShiftAmp_mXs,2020.1.2,MacIntel,60,,,,,,,,,,,,,,,,,,,,,,,,,,1,10.8457,,0,0,106,106,91,1,stimuli/stim_20210519_power2amp/equal_lnn_AM2.5Hz_s55_6.m4a,,,
,,,,,41240,2021-06-08_18h10.42.764,judgeSpeechMusic_20210519_logNormShiftAmp_mXs,2020.1.2,MacIntel,60,,,,,,,,,,,,,,,,,,,,,,,,,,1,6.2915,,0,0,107,107,139,1,stimuli/stim_20210519_power2amp/equal_lnn_AM4Hz_s45_33.m4a,,,
,,,,,41240,2021-06-08_18h10.42.764,judgeSpeechMusic_20210519_logNormShiftAmp_mXs,2020.1.2,MacIntel,60,,,,,,,,,,,,,,,,,,,,,,,,,,2,7.812,,0,0,108,108,34,1,stimuli/stim_20210519_power2amp/equal_lnn_AM1Hz_s45_48.m4a,,,
,,,,,41240,2021-06-08_18h10.42.764,judgeSpeechMusic_20210519_logNormShiftAmp_mXs,2020.1.2,MacIntel,60,,,,,,,,,,,,,,,,,,,,,,,,,,2,5.8304,,0,0,109,109,36,1,stimuli/stim_20210519_power2amp/equal_lnn_AM1Hz_s45_21.m4a,,,
,,,,,41240,2021-06-08_18h10.42.764,judgeSpeechMusic_20210519_logNormShiftAmp_mXs,2020.1.2,MacIntel,60,,,,,,,,,,,,,,,,,,,,,,,,,,2,5.843,,0,0,110,110,83,1,stimuli/stim_20210519_power2amp/equal_lnn_AM2.5Hz_s45_2.m4a,,,
,,,,,41240,2021-06-08_18h10.42.764,judgeSpeechMusic_20210519_logNormShiftAmp_mXs,2020.1.2,MacIntel,60,,,,,,,,,,,,,,,,,,,,,,,,,,1,5.9116,,0,0,111,111,96,1,stimuli/stim_20210519_power2amp/equal_lnn_AM2.5Hz_s55_29.m4a,,,
,,,,,41240,2021-06-08_18h10.42.764,judgeSpeechMusic_20210519_logNormShiftAmp_mXs,2020.1.2,MacIntel,60,,,,,,,,,,,,,,,,,,,,,,,,,,1,5.9794,,0,0,112,112,137,1,stimuli/stim_20210519_power2amp/equal_lnn_AM4Hz_s45_10.m4a,,,
,,,,,41240,2021-06-08_18h10.42.764,judgeSpeechMusic_20210519_logNormShiftAmp_mXs,2020.1.2,MacIntel,60,,,,,,,,,,,,,,,,,,,,,,,,,,2,8.5477,,0,0,113,113,75,1,stimuli/stim_20210519_power2amp/equal_lnn_AM2.5Hz_s35_21.m4a,,,
,,,,,41240,2021-06-08_18h10.42.764,judgeSpeechMusic_20210519_logNormShiftAmp_mXs,2020.1.2,MacIntel,60,,,,,,,,,,,,,,,,,,,,,,,,,,1,7.5715,,0,0,114,114,24,1,stimuli/stim_20210519_power2amp/equal_lnn_AM1Hz_s35_48.m4a,,,
,,,,,41240,2021-06-08_18h10.42.764,judgeSpeechMusic_20210519_logNormShiftAmp_mXs,2020.1.2,MacIntel,60,,,,,,,,,,,,,,,,,,,,,,,,,,1,6.4278,,0,0,115,115,101,1,stimuli/stim_20210519_power2amp/equal_lnn_AM4Hz_s15_5.m4a,,,
,,,,,41240,2021-06-08_18h10.42.764,judgeSpeechMusic_20210519_logNormShiftAmp_mXs,2020.1.2,MacIntel,60,,,,,,,,,,,,,,,,,,,,,,,,,,1,7.4799,,0,0,116,116,16,1,stimuli/stim_20210519_power2amp/equal_lnn_AM1Hz_s25_39.m4a,,,
,,,,,41240,2021-06-08_18h10.42.764,judgeSpeechMusic_20210519_logNormShiftAmp_mXs,2020.1.2,MacIntel,60,,,,,,,,,,,,,,,,,,,,,,,,,,2,7.7947,,0,0,117,117,4,1,stimuli/stim_20210519_power2amp/equal_lnn_AM1Hz_s15_28.m4a,,,
,,,,,41240,2021-06-08_18h10.42.764,judgeSpeechMusic_20210519_logNormShiftAmp_mXs,2020.1.2,MacIntel,60,,,,,,,,,,,,,,,,,,,,,,,,,,1,6.3778,,0,0,118,118,98,1,stimuli/stim_20210519_power2amp/equal_lnn_AM2.5Hz_s55_33.m4a,,,
,,,,,41240,2021-06-08_18h10.42.764,judgeSpeechMusic_20210519_logNormShiftAmp_mXs,2020.1.2,MacIntel,60,,,,,,,,,,,,,,,,,,,,,,,,,,1,12.5451,,0,0,119,119,3,1,stimuli/stim_20210519_power2amp/equal_lnn_AM1Hz_s15_11.m4a,,,
,,,,,41240,2021-06-08_18h10.42.764,judgeSpeechMusic_20210519_logNormShiftAmp_mXs,2020.1.2,MacIntel,60,,,,,,,,,,,,,,,,,,,,,,,,,,1,6.6456,,0,0,120,120,129,1,stimuli/stim_20210519_power2amp/equal_lnn_AM4Hz_s35_34.m4a,,,
,,,,,41240,2021-06-08_18h10.42.764,judgeSpeechMusic_20210519_logNormShiftAmp_mXs,2020.1.2,MacIntel,60,,,,,,,,,,,,,,,,,,,,,,,,,,1,5.8951,,0,0,121,121,65,1,stimuli/stim_20210519_power2amp/equal_lnn_AM2.5Hz_s25_42.m4a,,,
,,,,,41240,2021-06-08_18h10.42.764,judgeSpeechMusic_20210519_logNormShiftAmp_mXs,2020.1.2,MacIntel,60,,,,,,,,,,,,,,,,,,,,,,,,,,2,5.8124,,0,0,122,122,100,1,stimuli/stim_20210519_power2amp/equal_lnn_AM4Hz_s15_19.m4a,,,
,,,,,41240,2021-06-08_18h10.42.764,judgeSpeechMusic_20210519_logNormShiftAmp_mXs,2020.1.2,MacIntel,60,,,,,,,,,,,,,,,,,,,,,,,,,,1,6.2142,,0,0,123,123,89,1,stimuli/stim_20210519_power2amp/equal_lnn_AM2.5Hz_s45_49.m4a,,,
,,,,,41240,2021-06-08_18h10.42.764,judgeSpeechMusic_20210519_logNormShiftAmp_mXs,2020.1.2,MacIntel,60,,,,,,,,,,,,,,,,,,,,,,,,,,1,27.2427,3,1,0,124,124,120,1,stimuli/stim_20210519_power2amp/equal_lnn_AM4Hz_s35_25.m4a,0.6466,,
,,,,,41240,2021-06-08_18h10.42.764,judgeSpeechMusic_20210519_logNormShiftAmp_mXs,2020.1.2,MacIntel,60,,,,,,,,,,,,,,,,,,,,,,,,,,2,15.1622,,0,0,125,125,57,1,stimuli/stim_20210519_power2amp/equal_lnn_AM2.5Hz_s15_34.m4a,,,
,,,,,41240,2021-06-08_18h10.42.764,judgeSpeechMusic_20210519_logNormShiftAmp_mXs,2020.1.2,MacIntel,60,,,,,,,,,,,,,,,,,,,,,,,,,,1,6.1302,,0,0,126,126,54,1,stimuli/stim_20210519_power2amp/equal_lnn_AM2.5Hz_s15_40.m4a,,,
,,,,,41240,2021-06-08_18h10.42.764,judgeSpeechMusic_20210519_logNormShiftAmp_mXs,2020.1.2,MacIntel,60,,,,,,,,,,,,,,,,,,,,,,,,,,1,6.1779,,0,0,127,127,72,1,stimuli/stim_20210519_power2amp/equal_lnn_AM2.5Hz_s35_30.m4a,,,
,,,,,41240,2021-06-08_18h10.42.764,judgeSpeechMusic_20210519_logNormShiftAmp_mXs,2020.1.2,MacIntel,60,,,,,,,,,,,,,,,,,,,,,,,,,,1,5.7779,,0,0,128,128,97,1,stimuli/stim_20210519_power2amp/equal_lnn_AM2.5Hz_s55_34.m4a,,,
,,,,,41240,2021-06-08_18h10.42.764,judgeSpeechMusic_20210519_logNormShiftAmp_mXs,2020.1.2,MacIntel,60,,,,,,,,,,,,,,,,,,,,,,,,,,2,6.7793,,0,0,129,129,43,1,stimuli/stim_20210519_power2amp/equal_lnn_AM1Hz_s55_9.m4a,,,
,,,,,41240,2021-06-08_18h10.42.764,judgeSpeechMusic_20210519_logNormShiftAmp_mXs,2020.1.2,MacIntel,60,,,,,,,,,,,,,,,,,,,,,,,,,,2,5.9435,,0,0,130,130,31,1,stimuli/stim_20210519_power2amp/equal_lnn_AM1Hz_s45_50.m4a,,,
,,,,,41240,2021-06-08_18h10.42.764,judgeSpeechMusic_20210519_logNormShiftAmp_mXs,2020.1.2,MacIntel,60,,,,,,,,,,,,,,,,,,,,,,,,,,1,7.7908,,0,0,131,131,122,1,stimuli/stim_20210519_power2amp/equal_lnn_AM4Hz_s35_21.m4a,,,
,,,,,41240,2021-06-08_18h10.42.764,judgeSpeechMusic_20210519_logNormShiftAmp_mXs,2020.1.2,MacIntel,60,,,,,,,,,,,,,,,,,,,,,,,,,,1,10.894,,0,0,132,132,126,1,stimuli/stim_20210519_power2amp/equal_lnn_AM4Hz_s35_23.m4a,,,
,,,,,41240,2021-06-08_18h10.42.764,judgeSpeechMusic_20210519_logNormShiftAmp_mXs,2020.1.2,MacIntel,60,,,,,,,,,,,,,,,,,,,,,,,,,,1,6.0437,,0,0,133,133,105,1,stimuli/stim_20210519_power2amp/equal_lnn_AM4Hz_s15_29.m4a,,,
,,,,,41240,2021-06-08_18h10.42.764,judgeSpeechMusic_20210519_logNormShiftAmp_mXs,2020.1.2,MacIntel,60,,,,,,,,,,,,,,,,,,,,,,,,,,1,6.2721,,0,0,134,134,37,1,stimuli/stim_20210519_power2amp/equal_lnn_AM1Hz_s45_33.m4a,,,
,,,,,41240,2021-06-08_18h10.42.764,judgeSpeechMusic_20210519_logNormShiftAmp_mXs,2020.1.2,MacIntel,60,,,,,,,,,,,,,,,,,,,,,,,,,,2,5.6765,,0,0,135,135,10,1,stimuli/stim_20210519_power2amp/equal_lnn_AM1Hz_s25_49.m4a,,,
,,,,,41240,2021-06-08_18h10.42.764,judgeSpeechMusic_20210519_logNormShiftAmp_mXs,2020.1.2,MacIntel,60,,,,,,,,,,,,,,,,,,,,,,,,,,2,5.9953,,0,0,136,136,90,1,stimuli/stim_20210519_power2amp/equal_lnn_AM2.5Hz_s55_17.m4a,,,
,,,,,41240,2021-06-08_18h10.42.764,judgeSpeechMusic_20210519_logNormShiftAmp_mXs,2020.1.2,MacIntel,60,,,,,,,,,,,,,,,,,,,,,,,,,,1,5.6809,,0,0,137,137,112,1,stimuli/stim_20210519_power2amp/equal_lnn_AM4Hz_s25_45.m4a,,,
,,,,,41240,2021-06-08_18h10.42.764,judgeSpeechMusic_20210519_logNormShiftAmp_mXs,2020.1.2,MacIntel,60,,,,,,,,,,,,,,,,,,,,,,,,,,1,6.1134,,0,0,138,138,85,1,stimuli/stim_20210519_power2amp/equal_lnn_AM2.5Hz_s45_12.m4a,,,
,,,,,41240,2021-06-08_18h10.42.764,judgeSpeechMusic_20210519_logNormShiftAmp_mXs,2020.1.2,MacIntel,60,,,,,,,,,,,,,,,,,,,,,,,,,,1,6.1929,,0,0,139,139,127,1,stimuli/stim_20210519_power2amp/equal_lnn_AM4Hz_s35_19.m4a,,,
,,,,,41240,2021-06-08_18h10.42.764,judgeSpeechMusic_20210519_logNormShiftAmp_mXs,2020.1.2,MacIntel,60,,,,,,,,,,,,,,,,,,,,,,,,,,2,6.8453,,0,0,140,140,48,1,stimuli/stim_20210519_power2amp/equal_lnn_AM1Hz_s55_46.m4a,,,
,,,,,41240,2021-06-08_18h10.42.764,judgeSpeechMusic_20210519_logNormShiftAmp_mXs,2020.1.2,MacIntel,60,,,,,,,,,,,,,,,,,,,,,,,,,,2,6.1286,,0,0,141,141,61,1,stimuli/stim_20210519_power2amp/equal_lnn_AM2.5Hz_s25_46.m4a,,,
,,,,,41240,2021-06-08_18h10.42.764,judgeSpeechMusic_20210519_logNormShiftAmp_mXs,2020.1.2,MacIntel,60,,,,,,,,,,,,,,,,,,,,,,,,,,1,8.5465,,0,0,142,142,108,1,stimuli/stim_20210519_power2amp/equal_lnn_AM4Hz_s15_38.m4a,,,
,,,,,41240,2021-06-08_18h10.42.764,judgeSpeechMusic_20210519_logNormShiftAmp_mXs,2020.1.2,MacIntel,60,,,,,,,,,,,,,,,,,,,,,,,,,,1,6.6297,,0,0,143,143,53,1,stimuli/stim_20210519_power2amp/equal_lnn_AM2.5Hz_s15_9.m4a,,,
,,,,,41240,2021-06-08_18h10.42.764,judgeSpeechMusic_20210519_logNormShiftAmp_mXs,2020.1.2,MacIntel,60,,,,,,,,,,,,,,,,,,,,,,,,,,2,10.1933,4,1,0,144,144,46,1,stimuli/stim_20210519_power2amp/equal_lnn_AM1Hz_s55_10.m4a,1.8157,,
,,,,,41240,2021-06-08_18h10.42.764,judgeSpeechMusic_20210519_logNormShiftAmp_mXs,2020.1.2,MacIntel,60,,,,,,,,,,,,,,,,,,,,,,,,,,2,9.3448,,0,0,145,145,41,1,stimuli/stim_20210519_power2amp/equal_lnn_AM1Hz_s55_22.m4a,,,
,,,,,41240,2021-06-08_18h10.42.764,judgeSpeechMusic_20210519_logNormShiftAmp_mXs,2020.1.2,MacIntel,60,,,,,,,,,,,,,,,,,,,,,,,,,,2,6.5791,,0,0,146,146,58,1,stimuli/stim_20210519_power2amp/equal_lnn_AM2.5Hz_s15_49.m4a,,,
,,,,,41240,2021-06-08_18h10.42.764,judgeSpeechMusic_20210519_logNormShiftAmp_mXs,2020.1.2,MacIntel,60,,,,,,,,,,,,,,,,,,,,,,,,,,1,5.9956,,0,0,147,147,107,1,stimuli/stim_20210519_power2amp/equal_lnn_AM4Hz_s15_31.m4a,,,
,,,,,41240,2021-06-08_18h10.42.764,judgeSpeechMusic_20210519_logNormShiftAmp_mXs,2020.1.2,MacIntel,60,,,,,,,,,,,,,,,,,,,,,,,,,,2,6.6453,,0,0,148,148,6,1,stimuli/stim_20210519_power2amp/equal_lnn_AM1Hz_s15_37.m4a,,,
,,,,,41240,2021-06-08_18h10.42.764,judgeSpeechMusic_20210519_logNormShiftAmp_mXs,2020.1.2,MacIntel,60,,,,,,,,,,,,,,,,,,,,,,,,,,1,13.1774,,0,0,149,149,11,1,stimuli/stim_20210519_power2amp/equal_lnn_AM1Hz_s25_23.m4a,,,
,,,,,41240,2021-06-08_18h10.42.764,judgeSpeechMusic_20210519_logNormShiftAmp_mXs,2020.1.2,MacIntel,60,,,,,,,,,,,,,,,,,,,,,,,,,,2,5.9625,,0,1,0,150,21,1,stimuli/stim_20210519_power2amp/equal_lnn_AM1Hz_s35_33.m4a,,,
,,,,,41240,2021-06-08_18h10.42.764,judgeSpeechMusic_20210519_logNormShiftAmp_mXs,2020.1.2,MacIntel,60,,,,,,,,,,,,,,,,,,,,,,,,,,1,7.0767,,0,1,1,151,60,1,stimuli/stim_20210519_power2amp/equal_lnn_AM2.5Hz_s25_17.m4a,,,
,,,,,41240,2021-06-08_18h10.42.764,judgeSpeechMusic_20210519_logNormShiftAmp_mXs,2020.1.2,MacIntel,60,,,,,,,,,,,,,,,,,,,,,,,,,,2,6.5718,,0,1,2,152,122,1,stimuli/stim_20210519_power2amp/equal_lnn_AM4Hz_s35_21.m4a,,,
,,,,,41240,2021-06-08_18h10.42.764,judgeSpeechMusic_20210519_logNormShiftAmp_mXs,2020.1.2,MacIntel,60,,,,,,,,,,,,,,,,,,,,,,,,,,1,6.4626,,0,1,3,153,117,1,stimuli/stim_20210519_power2amp/equal_lnn_AM4Hz_s25_12.m4a,,,
,,,,,41240,2021-06-08_18h10.42.764,judgeSpeechMusic_20210519_logNormShiftAmp_mXs,2020.1.2,MacIntel,60,,,,,,,,,,,,,,,,,,,,,,,,,,2,8.7622,,0,1,4,154,76,1,stimuli/stim_20210519_power2amp/equal_lnn_AM2.5Hz_s35_6.m4a,,,
,,,,,41240,2021-06-08_18h10.42.764,judgeSpeechMusic_20210519_logNormShiftAmp_mXs,2020.1.2,MacIntel,60,,,,,,,,,,,,,,,,,,,,,,,,,,2,6.1928,,0,1,5,155,20,1,stimuli/stim_20210519_power2amp/equal_lnn_AM1Hz_s35_12.m4a,,,
,,,,,41240,2021-06-08_18h10.42.764,judgeSpeechMusic_20210519_logNormShiftAmp_mXs,2020.1.2,MacIntel,60,,,,,,,,,,,,,,,,,,,,,,,,,,1,6.4783,,0,1,6,156,14,1,stimuli/stim_20210519_power2amp/equal_lnn_AM1Hz_s25_11.m4a,,,
,,,,,41240,2021-06-08_18h10.42.764,judgeSpeechMusic_20210519_logNormShiftAmp_mXs,2020.1.2,MacIntel,60,,,,,,,,,,,,,,,,,,,,,,,,,,1,7.9287,,0,1,7,157,140,1,stimuli/stim_20210519_power2amp/equal_lnn_AM4Hz_s55_12.m4a,,,
,,,,,41240,2021-06-08_18h10.42.764,judgeSpeechMusic_20210519_logNormShiftAmp_mXs,2020.1.2,MacIntel,60,,,,,,,,,,,,,,,,,,,,,,,,,,1,7.9651,,0,1,8,158,51,1,stimuli/stim_20210519_power2amp/equal_lnn_AM2.5Hz_s15_37.m4a,,,
,,,,,41240,2021-06-08_18h10.42.764,judgeSpeechMusic_20210519_logNormShiftAmp_mXs,2020.1.2,MacIntel,60,,,,,,,,,,,,,,,,,,,,,,,,,,2,7.6102,,0,1,9,159,0,1,stimuli/stim_20210519_power2amp/equal_lnn_AM1Hz_s15_21.m4a,,,
,,,,,41240,2021-06-08_18h10.42.764,judgeSpeechMusic_20210519_logNormShiftAmp_mXs,2020.1.2,MacIntel,60,,,,,,,,,,,,,,,,,,,,,,,,,,1,12.363,,0,1,10,160,92,1,stimuli/stim_20210519_power2amp/equal_lnn_AM2.5Hz_s55_46.m4a,,,
,,,,,41240,2021-06-08_18h10.42.764,judgeSpeechMusic_20210519_logNormShiftAmp_mXs,2020.1.2,MacIntel,60,,,,,,,,,,,,,,,,,,,,,,,,,,2,6.5937,,0,1,11,161,19,1,stimuli/stim_20210519_power2amp/equal_lnn_AM1Hz_s25_13.m4a,,,
,,,,,41240,2021-06-08_18h10.42.764,judgeSpeechMusic_20210519_logNormShiftAmp_mXs,2020.1.2,MacIntel,60,,,,,,,,,,,,,,,,,,,,,,,,,,2,5.8783,,0,1,12,162,6,1,stimuli/stim_20210519_power2amp/equal_lnn_AM1Hz_s15_37.m4a,,,
,,,,,41240,2021-06-08_18h10.42.764,judgeSpeechMusic_20210519_logNormShiftAmp_mXs,2020.1.2,MacIntel,60,,,,,,,,,,,,,,,,,,,,,,,,,,1,9.2558,,0,1,13,163,91,1,stimuli/stim_20210519_power2amp/equal_lnn_AM2.5Hz_s55_6.m4a,,,
,,,,,41240,2021-06-08_18h10.42.764,judgeSpeechMusic_20210519_logNormShiftAmp_mXs,2020.1.2,MacIntel,60,,,,,,,,,,,,,,,,,,,,,,,,,,1,5.9285,,0,1,14,164,94,1,stimuli/stim_20210519_power2amp/equal_lnn_AM2.5Hz_s55_4.m4a,,,
,,,,,41240,2021-06-08_18h10.42.764,judgeSpeechMusic_20210519_logNormShiftAmp_mXs,2020.1.2,MacIntel,60,,,,,,,,,,,,,,,,,,,,,,,,,,1,6.8783,,0,1,15,165,105,1,stimuli/stim_20210519_power2amp/equal_lnn_AM4Hz_s15_29.m4a,,,
,,,,,41240,2021-06-08_18h10.42.764,judgeSpeechMusic_20210519_logNormShiftAmp_mXs,2020.1.2,MacIntel,60,,,,,,,,,,,,,,,,,,,,,,,,,,2,6.9457,4,1,1,16,166,12,1,stimuli/stim_20210519_power2amp/equal_lnn_AM1Hz_s25_4.m4a,1.4479,,
,,,,,41240,2021-06-08_18h10.42.764,judgeSpeechMusic_20210519_logNormShiftAmp_mXs,2020.1.2,MacIntel,60,,,,,,,,,,,,,,,,,,,,,,,,,,2,13.1764,,0,1,17,167,38,1,stimuli/stim_20210519_power2amp/equal_lnn_AM1Hz_s45_13.m4a,,,
,,,,,41240,2021-06-08_18h10.42.764,judgeSpeechMusic_20210519_logNormShiftAmp_mXs,2020.1.2,MacIntel,60,,,,,,,,,,,,,,,,,,,,,,,,,,1,5.7124,,0,1,18,168,143,1,stimuli/stim_20210519_power2amp/equal_lnn_AM4Hz_s55_13.m4a,,,
,,,,,41240,2021-06-08_18h10.42.764,judgeSpeechMusic_20210519_logNormShiftAmp_mXs,2020.1.2,MacIntel,60,,,,,,,,,,,,,,,,,,,,,,,,,,1,6.8096,,0,1,19,169,96,1,stimuli/stim_20210519_power2amp/equal_lnn_AM2.5Hz_s55_29.m4a,,,
,,,,,41240,2021-06-08_18h10.42.764,judgeSpeechMusic_20210519_logNormShiftAmp_mXs,2020.1.2,MacIntel,60,,,,,,,,,,,,,,,,,,,,,,,,,,1,7.712,,0,1,20,170,97,1,stimuli/stim_20210519_power2amp/equal_lnn_AM2.5Hz_s55_34.m4a,,,
,,,,,41240,2021-06-08_18h10.42.764,judgeSpeechMusic_20210519_logNormShiftAmp_mXs,2020.1.2,MacIntel,60,,,,,,,,,,,,,,,,,,,,,,,,,,1,8.0107,,0,1,21,171,98,1,stimuli/stim_20210519_power2amp/equal_lnn_AM2.5Hz_s55_33.m4a,,,
,,,,,41240,2021-06-08_18h10.42.764,judgeSpeechMusic_20210519_logNormShiftAmp_mXs,2020.1.2,MacIntel,60,,,,,,,,,,,,,,,,,,,,,,,,,,1,5.995,,0,1,22,172,129,1,stimuli/stim_20210519_power2amp/equal_lnn_AM4Hz_s35_34.m4a,,,
,,,,,41240,2021-06-08_18h10.42.764,judgeSpeechMusic_20210519_logNormShiftAmp_mXs,2020.1.2,MacIntel,60,,,,,,,,,,,,,,,,,,,,,,,,,,1,6.9292,,0,1,23,173,116,1,stimuli/stim_20210519_power2amp/equal_lnn_AM4Hz_s25_23.m4a,,,
,,,,,41240,2021-06-08_18h10.42.764,judgeSpeechMusic_20210519_logNormShiftAmp_mXs,2020.1.2,MacIntel,60,,,,,,,,,,,,,,,,,,,,,,,,,,2,6.3782,,0,1,24,174,28,1,stimuli/stim_20210519_power2amp/equal_lnn_AM1Hz_s35_26.m4a,,,
,,,,,41240,2021-06-08_18h10.42.764,judgeSpeechMusic_20210519_logNormShiftAmp_mXs,2020.1.2,MacIntel,60,,,,,,,,,,,,,,,,,,,,,,,,,,2,23.1795,,0,1,25,175,33,1,stimuli/stim_20210519_power2amp/equal_lnn_AM1Hz_s45_22.m4a,,,
,,,,,41240,2021-06-08_18h10.42.764,judgeSpeechMusic_20210519_logNormShiftAmp_mXs,2020.1.2,MacIntel,60,,,,,,,,,,,,,,,,,,,,,,,,,,1,7.9946,,0,1,26,176,138,1,stimuli/stim_20210519_power2amp/equal_lnn_AM4Hz_s45_45.m4a,,,
,,,,,41240,2021-06-08_18h10.42.764,judgeSpeechMusic_20210519_logNormShiftAmp_mXs,2020.1.2,MacIntel,60,,,,,,,,,,,,,,,,,,,,,,,,,,1,8.2458,,0,1,27,177,149,1,stimuli/stim_20210519_power2amp/equal_lnn_AM4Hz_s55_5.m4a,,,
,,,,,41240,2021-06-08_18h10.42.764,judgeSpeechMusic_20210519_logNormShiftAmp_mXs,2020.1.2,MacIntel,60,,,,,,,,,,,,,,,,,,,,,,,,,,1,15.0463,,0,1,28,178,79,1,stimuli/stim_20210519_power2amp/equal_lnn_AM2.5Hz_s35_8.m4a,,,
,,,,,41240,2021-06-08_18h10.42.764,judgeSpeechMusic_20210519_logNormShiftAmp_mXs,2020.1.2,MacIntel,60,,,,,,,,,,,,,,,,,,,,,,,,,,1,8.9034,,0,1,29,179,55,1,stimuli/stim_20210519_power2amp/equal_lnn_AM2.5Hz_s15_43.m4a,,,
,,,,,41240,2021-06-08_18h10.42.764,judgeSpeechMusic_20210519_logNormShiftAmp_mXs,2020.1.2,MacIntel,60,,,,,,,,,,,,,,,,,,,,,,,,,,2,5.8286,,0,1,30,180,67,1,stimuli/stim_20210519_power2amp/equal_lnn_AM2.5Hz_s25_9.m4a,,,
,,,,,41240,2021-06-08_18h10.42.764,judgeSpeechMusic_20210519_logNormShiftAmp_mXs,2020.1.2,MacIntel,60,,,,,,,,,,,,,,,,,,,,,,,,,,2,7.6608,,0,1,31,181,108,1,stimuli/stim_20210519_power2amp/equal_lnn_AM4Hz_s15_38.m4a,,,
,,,,,41240,2021-06-08_18h10.42.764,judgeSpeechMusic_20210519_logNormShiftAmp_mXs,2020.1.2,MacIntel,60,,,,,,,,,,,,,,,,,,,,,,,,,,2,5.9457,,0,1,32,182,23,1,stimuli/stim_20210519_power2amp/equal_lnn_AM1Hz_s35_28.m4a,,,
,,,,,41240,2021-06-08_18h10.42.764,judgeSpeechMusic_20210519_logNormShiftAmp_mXs,2020.1.2,MacIntel,60,,,,,,,,,,,,,,,,,,,,,,,,,,1,7.6466,,0,1,33,183,86,1,stimuli/stim_20210519_power2amp/equal_lnn_AM2.5Hz_s45_25.m4a,,,
,,,,,41240,2021-06-08_18h10.42.764,judgeSpeechMusic_20210519_logNormShiftAmp_mXs,2020.1.2,MacIntel,60,,,,,,,,,,,,,,,,,,,,,,,,,,2,6.6956,,0,1,34,184,146,1,stimuli/stim_20210519_power2amp/equal_lnn_AM4Hz_s55_37.m4a,,,
,,,,,41240,2021-06-08_18h10.42.764,judgeSpeechMusic_20210519_logNormShiftAmp_mXs,2020.1.2,MacIntel,60,,,,,,,,,,,,,,,,,,,,,,,,,,2,5.6027,,0,1,35,185,115,1,stimuli/stim_20210519_power2amp/equal_lnn_AM4Hz_s25_41.m4a,,,
,,,,,41240,2021-06-08_18h10.42.764,judgeSpeechMusic_20210519_logNormShiftAmp_mXs,2020.1.2,MacIntel,60,,,,,,,,,,,,,,,,,,,,,,,,,,2,6.2115,,0,1,36,186,145,1,stimuli/stim_20210519_power2amp/equal_lnn_AM4Hz_s55_11.m4a,,,
,,,,,41240,2021-06-08_18h10.42.764,judgeSpeechMusic_20210519_logNormShiftAmp_mXs,2020.1.2,MacIntel,60,,,,,,,,,,,,,,,,,,,,,,,,,,2,7.9298,,0,1,37,187,81,1,stimuli/stim_20210519_power2amp/equal_lnn_AM2.5Hz_s45_40.m4a,,,
,,,,,41240,2021-06-08_18h10.42.764,judgeSpeechMusic_20210519_logNormShiftAmp_mXs,2020.1.2,MacIntel,60,,,,,,,,,,,,,,,,,,,,,,,,,,2,7.845,,0,1,38,188,7,1,stimuli/stim_20210519_power2amp/equal_lnn_AM1Hz_s15_50.m4a,,,
,,,,,41240,2021-06-08_18h10.42.764,judgeSpeechMusic_20210519_logNormShiftAmp_mXs,2020.1.2,MacIntel,60,,,,,,,,,,,,,,,,,,,,,,,,,,1,7.1879,,0,1,39,189,47,1,stimuli/stim_20210519_power2amp/equal_lnn_AM1Hz_s55_41.m4a,,,
,,,,,41240,2021-06-08_18h10.42.764,judgeSpeechMusic_20210519_logNormShiftAmp_mXs,2020.1.2,MacIntel,60,,,,,,,,,,,,,,,,,,,,,,,,,,1,6.5786,2,1,1,40,190,99,1,stimuli/stim_20210519_power2amp/equal_lnn_AM2.5Hz_s55_41.m4a,0.6983,,
,,,,,41240,2021-06-08_18h10.42.764,judgeSpeechMusic_20210519_logNormShiftAmp_mXs,2020.1.2,MacIntel,60,,,,,,,,,,,,,,,,,,,,,,,,,,1,6.1125,,0,1,41,191,62,1,stimuli/stim_20210519_power2amp/equal_lnn_AM2.5Hz_s25_49.m4a,,,
,,,,,41240,2021-06-08_18h10.42.764,judgeSpeechMusic_20210519_logNormShiftAmp_mXs,2020.1.2,MacIntel,60,,,,,,,,,,,,,,,,,,,,,,,,,,1,8.0551,,0,1,42,192,120,1,stimuli/stim_20210519_power2amp/equal_lnn_AM4Hz_s35_25.m4a,,,
,,,,,41240,2021-06-08_18h10.42.764,judgeSpeechMusic_20210519_logNormShiftAmp_mXs,2020.1.2,MacIntel,60,,,,,,,,,,,,,,,,,,,,,,,,,,1,7.0623,,0,1,43,193,125,1,stimuli/stim_20210519_power2amp/equal_lnn_AM4Hz_s35_7.m4a,,,
,,,,,41240,2021-06-08_18h10.42.764,judgeSpeechMusic_20210519_logNormShiftAmp_mXs,2020.1.2,MacIntel,60,,,,,,,,,,,,,,,,,,,,,,,,,,1,6.8947,,0,1,44,194,36,1,stimuli/stim_20210519_power2amp/equal_lnn_AM1Hz_s45_21.m4a,,,
,,,,,41240,2021-06-08_18h10.42.764,judgeSpeechMusic_20210519_logNormShiftAmp_mXs,2020.1.2,MacIntel,60,,,,,,,,,,,,,,,,,,,,,,,,,,2,6.571,,0,1,45,195,48,1,stimuli/stim_20210519_power2amp/equal_lnn_AM1Hz_s55_46.m4a,,,
,,,,,41240,2021-06-08_18h10.42.764,judgeSpeechMusic_20210519_logNormShiftAmp_mXs,2020.1.2,MacIntel,60,,,,,,,,,,,,,,,,,,,,,,,,,,2,7.0113,,0,1,46,196,73,1,stimuli/stim_20210519_power2amp/equal_lnn_AM2.5Hz_s35_19.m4a,,,
,,,,,41240,2021-06-08_18h10.42.764,judgeSpeechMusic_20210519_logNormShiftAmp_mXs,2020.1.2,MacIntel,60,,,,,,,,,,,,,,,,,,,,,,,,,,2,6.42,,0,1,47,197,39,1,stimuli/stim_20210519_power2amp/equal_lnn_AM1Hz_s45_43.m4a,,,
,,,,,41240,2021-06-08_18h10.42.764,judgeSpeechMusic_20210519_logNormShiftAmp_mXs,2020.1.2,MacIntel,60,,,,,,,,,,,,,,,,,,,,,,,,,,1,5.8035,,0,1,48,198,87,1,stimuli/stim_20210519_power2amp/equal_lnn_AM2.5Hz_s45_35.m4a,,,
,,,,,41240,2021-06-08_18h10.42.764,judgeSpeechMusic_20210519_logNormShiftAmp_mXs,2020.1.2,MacIntel,60,,,,,,,,,,,,,,,,,,,,,,,,,,1,6.2793,,0,1,49,199,104,1,stimuli/stim_20210519_power2amp/equal_lnn_AM4Hz_s15_41.m4a,,,
,,,,,41240,2021-06-08_18h10.42.764,judgeSpeechMusic_20210519_logNormShiftAmp_mXs,2020.1.2,MacIntel,60,,,,,,,,,,,,,,,,,,,,,,,,,,2,6.0283,,0,1,50,200,13,1,stimuli/stim_20210519_power2amp/equal_lnn_AM1Hz_s25_35.m4a,,,
,,,,,41240,2021-06-08_18h10.42.764,judgeSpeechMusic_20210519_logNormShiftAmp_mXs,2020.1.2,MacIntel,60,,,,,,,,,,,,,,,,,,,,,,,,,,1,8.7969,,0,1,51,201,112,1,stimuli/stim_20210519_power2amp/equal_lnn_AM4Hz_s25_45.m4a,,,
,,,,,41240,2021-06-08_18h10.42.764,judgeSpeechMusic_20210519_logNormShiftAmp_mXs,2020.1.2,MacIntel,60,,,,,,,,,,,,,,,,,,,,,,,,,,1,7.4781,,0,1,52,202,128,1,stimuli/stim_20210519_power2amp/equal_lnn_AM4Hz_s35_46.m4a,,,
,,,,,41240,2021-06-08_18h10.42.764,judgeSpeechMusic_20210519_logNormShiftAmp_mXs,2020.1.2,MacIntel,60,,,,,,,,,,,,,,,,,,,,,,,,,,2,7.2773,,0,1,53,203,133,1,stimuli/stim_20210519_power2amp/equal_lnn_AM4Hz_s45_13.m4a,,,
,,,,,41240,2021-06-08_18h10.42.764,judgeSpeechMusic_20210519_logNormShiftAmp_mXs,2020.1.2,MacIntel,60,,,,,,,,,,,,,,,,,,,,,,,,,,2,6.01,,0,1,54,204,11,1,stimuli/stim_20210519_power2amp/equal_lnn_AM1Hz_s25_23.m4a,,,
,,,,,41240,2021-06-08_18h10.42.764,judgeSpeechMusic_20210519_logNormShiftAmp_mXs,2020.1.2,MacIntel,60,,,,,,,,,,,,,,,,,,,,,,,,,,2,11.7769,,0,1,55,205,137,1,stimuli/stim_20210519_power2amp/equal_lnn_AM4Hz_s45_10.m4a,,,
,,,,,41240,2021-06-08_18h10.42.764,judgeSpeechMusic_20210519_logNormShiftAmp_mXs,2020.1.2,MacIntel,60,,,,,,,,,,,,,,,,,,,,,,,,,,1,7.2381,,0,1,56,206,10,1,stimuli/stim_20210519_power2amp/equal_lnn_AM1Hz_s25_49.m4a,,,
,,,,,41240,2021-06-08_18h10.42.764,judgeSpeechMusic_20210519_logNormShiftAmp_mXs,2020.1.2,MacIntel,60,,,,,,,,,,,,,,,,,,,,,,,,,,2,11.0772,,0,1,57,207,90,1,stimuli/stim_20210519_power2amp/equal_lnn_AM2.5Hz_s55_17.m4a,,,
,,,,,41240,2021-06-08_18h10.42.764,judgeSpeechMusic_20210519_logNormShiftAmp_mXs,2020.1.2,MacIntel,60,,,,,,,,,,,,,,,,,,,,,,,,,,1,10.0876,,0,1,58,208,131,1,stimuli/stim_20210519_power2amp/equal_lnn_AM4Hz_s45_21.m4a,,,
,,,,,41240,2021-06-08_18h10.42.764,judgeSpeechMusic_20210519_logNormShiftAmp_mXs,2020.1.2,MacIntel,60,,,,,,,,,,,,,,,,,,,,,,,,,,1,7.6388,,0,1,59,209,1,1,stimuli/stim_20210519_power2amp/equal_lnn_AM1Hz_s15_25.m4a,,,
,,,,,41240,2021-06-08_18h10.42.764,judgeSpeechMusic_20210519_logNormShiftAmp_mXs,2020.1.2,MacIntel,60,,,,,,,,,,,,,,,,,,,,,,,,,,1,7.0306,2,1,1,60,210,102,1,stimuli/stim_20210519_power2amp/equal_lnn_AM4Hz_s15_7.m4a,0.3795,,
,,,,,41240,2021-06-08_18h10.42.764,judgeSpeechMusic_20210519_logNormShiftAmp_mXs,2020.1.2,MacIntel,60,,,,,,,,,,,,,,,,,,,,,,,,,,2,6.6935,,0,1,61,211,68,1,stimuli/stim_20210519_power2amp/equal_lnn_AM2.5Hz_s25_31.m4a,,,
,,,,,41240,2021-06-08_18h10.42.764,judgeSpeechMusic_20210519_logNormShiftAmp_mXs,2020.1.2,MacIntel,60,,,,,,,,,,,,,,,,,,,,,,,,,,1,7.145,,0,1,62,212,82,1,stimuli/stim_20210519_power2amp/equal_lnn_AM2.5Hz_s45_17.m4a,,,
,,,,,41240,2021-06-08_18h10.42.764,judgeSpeechMusic_20210519_logNormShiftAmp_mXs,2020.1.2,MacIntel,60,,,,,,,,,,,,,,,,,,,,,,,,,,2,5.6449,,0,1,63,213,59,1,stimuli/stim_20210519_power2amp/equal_lnn_AM2.5Hz_s15_8.m4a,,,
,,,,,41240,2021-06-08_18h10.42.764,judgeSpeechMusic_20210519_logNormShiftAmp_mXs,2020.1.2,MacIntel,60,,,,,,,,,,,,,,,,,,,,,,,,,,2,11.1949,,0,1,64,214,107,1,stimuli/stim_20210519_power2amp/equal_lnn_AM4Hz_s15_31.m4a,,,
,,,,,41240,2021-06-08_18h10.42.764,judgeSpeechMusic_20210519_logNormShiftAmp_mXs,2020.1.2,MacIntel,60,,,,,,,,,,,,,,,,,,,,,,,,,,2,7.677,,0,1,65,215,75,1,stimuli/stim_20210519_power2amp/equal_lnn_AM2.5Hz_s35_21.m4a,,,
,,,,,41240,2021-06-08_18h10.42.764,judgeSpeechMusic_20210519_logNormShiftAmp_mXs,2020.1.2,MacIntel,60,,,,,,,,,,,,,,,,,,,,,,,,,,2,6.3289,,0,1,66,216,22,1,stimuli/stim_20210519_power2amp/equal_lnn_AM1Hz_s35_6.m4a,,,
,,,,,41240,2021-06-08_18h10.42.764,judgeSpeechMusic_20210519_logNormShiftAmp_mXs,2020.1.2,MacIntel,60,,,,,,,,,,,,,,,,,,,,,,,,,,2,5.6281,,0,1,67,217,9,1,stimuli/stim_20210519_power2amp/equal_lnn_AM1Hz_s15_26.m4a,,,
,,,,,41240,2021-06-08_18h10.42.764,judgeSpeechMusic_20210519_logNormShiftAmp_mXs,2020.1.2,MacIntel,60,,,,,,,,,,,,,,,,,,,,,,,,,,1,6.7651,,0,1,68,218,84,1,stimuli/stim_20210519_power2amp/equal_lnn_AM2.5Hz_s45_31.m4a,,,
,,,,,41240,2021-06-08_18h10.42.764,judgeSpeechMusic_20210519_logNormShiftAmp_mXs,2020.1.2,MacIntel,60,,,,,,,,,,,,,,,,,,,,,,,,,,2,6.2079,,0,1,69,219,95,1,stimuli/stim_20210519_power2amp/equal_lnn_AM2.5Hz_s55_16.m4a,,,
,,,,,41240,2021-06-08_18h10.42.764,judgeSpeechMusic_20210519_logNormShiftAmp_mXs,2020.1.2,MacIntel,60,,,,,,,,,,,,,,,,,,,,,,,,,,2,6.2782,,0,1,70,220,136,1,stimuli/stim_20210519_power2amp/equal_lnn_AM4Hz_s45_1.m4a,,,
,,,,,41240,2021-06-08_18h10.42.764,judgeSpeechMusic_20210519_logNormShiftAmp_mXs,2020.1.2,MacIntel,60,,,,,,,,,,,,,,,,,,,,,,,,,,2,5.5937,,0,1,71,221,50,1,stimuli/stim_20210519_power2amp/equal_lnn_AM2.5Hz_s15_30.m4a,,,
,,,,,41240,2021-06-08_18h10.42.764,judgeSpeechMusic_20210519_logNormShiftAmp_mXs,2020.1.2,MacIntel,60,,,,,,,,,,,,,,,,,,,,,,,,,,1,5.614,,0,1,72,222,56,1,stimuli/stim_20210519_power2amp/equal_lnn_AM2.5Hz_s15_21.m4a,,,
,,,,,41240,2021-06-08_18h10.42.764,judgeSpeechMusic_20210519_logNormShiftAmp_mXs,2020.1.2,MacIntel,60,,,,,,,,,,,,,,,,,,,,,,,,,,1,6.6099,,0,1,73,223,111,1,stimuli/stim_20210519_power2amp/equal_lnn_AM4Hz_s25_6.m4a,,,
,,,,,41240,2021-06-08_18h10.42.764,judgeSpeechMusic_20210519_logNormShiftAmp_mXs,2020.1.2,MacIntel,60,,,,,,,,,,,,,,,,,,,,,,,,,,2,5.6286,,0,1,74,224,121,1,stimuli/stim_20210519_power2amp/equal_lnn_AM4Hz_s35_24.m4a,,,
,,,,,41240,2021-06-08_18h10.42.764,judgeSpeechMusic_20210519_logNormShiftAmp_mXs,2020.1.2,MacIntel,60,,,,,,,,,,,,,,,,,,,,,,,,,,2,5.3447,,0,1,75,225,103,1,stimuli/stim_20210519_power2amp/equal_lnn_AM4Hz_s15_17.m4a,,,
,,,,,41240,2021-06-08_18h10.42.764,judgeSpeechMusic_20210519_logNormShiftAmp_mXs,2020.1.2,MacIntel,60,,,,,,,,,,,,,,,,,,,,,,,,,,1,6.8405,,0,1,76,226,109,1,stimuli/stim_20210519_power2amp/equal_lnn_AM4Hz_s15_37.m4a,,,
,,,,,41240,2021-06-08_18h10.42.764,judgeSpeechMusic_20210519_logNormShiftAmp_mXs,2020.1.2,MacIntel,60,,,,,,,,,,,,,,,,,,,,,,,,,,2,6.0292,,0,1,77,227,17,1,stimuli/stim_20210519_power2amp/equal_lnn_AM1Hz_s25_33.m4a,,,
,,,,,41240,2021-06-08_18h10.42.764,judgeSpeechMusic_20210519_logNormShiftAmp_mXs,2020.1.2,MacIntel,60,,,,,,,,,,,,,,,,,,,,,,,,,,2,6.594,,0,1,78,228,49,1,stimuli/stim_20210519_power2amp/equal_lnn_AM1Hz_s55_50.m4a,,,
,,,,,41240,2021-06-08_18h10.42.764,judgeSpeechMusic_20210519_logNormShiftAmp_mXs,2020.1.2,MacIntel,60,,,,,,,,,,,,,,,,,,,,,,,,,,1,5.793,,0,1,79,229,80,1,stimuli/stim_20210519_power2amp/equal_lnn_AM2.5Hz_s45_38.m4a,,,
,,,,,41240,2021-06-08_18h10.42.764,judgeSpeechMusic_20210519_logNormShiftAmp_mXs,2020.1.2,MacIntel,60,,,,,,,,,,,,,,,,,,,,,,,,,,2,7.9082,,0,1,80,230,27,1,stimuli/stim_20210519_power2amp/equal_lnn_AM1Hz_s35_7.m4a,,,
,,,,,41240,2021-06-08_18h10.42.764,judgeSpeechMusic_20210519_logNormShiftAmp_mXs,2020.1.2,MacIntel,60,,,,,,,,,,,,,,,,,,,,,,,,,,2,5.9944,,0,1,81,231,42,1,stimuli/stim_20210519_power2amp/equal_lnn_AM1Hz_s55_17.m4a,,,
,,,,,41240,2021-06-08_18h10.42.764,judgeSpeechMusic_20210519_logNormShiftAmp_mXs,2020.1.2,MacIntel,60,,,,,,,,,,,,,,,,,,,,,,,,,,2,6.2308,,0,1,82,232,89,1,stimuli/stim_20210519_power2amp/equal_lnn_AM2.5Hz_s45_49.m4a,,,
,,,,,41240,2021-06-08_18h10.42.764,judgeSpeechMusic_20210519_logNormShiftAmp_mXs,2020.1.2,MacIntel,60,,,,,,,,,,,,,,,,,,,,,,,,,,2,6.5426,3,1,1,83,233,44,1,stimuli/stim_20210519_power2amp/equal_lnn_AM1Hz_s55_44.m4a,1.247,,
,,,,,41240,2021-06-08_18h10.42.764,judgeSpeechMusic_20210519_logNormShiftAmp_mXs,2020.1.2,MacIntel,60,,,,,,,,,,,,,,,,,,,,,,,,,,2,6.4371,,0,1,84,234,70,1,stimuli/stim_20210519_power2amp/equal_lnn_AM2.5Hz_s35_33.m4a,,,
,,,,,41240,2021-06-08_18h10.42.764,judgeSpeechMusic_20210519_logNormShiftAmp_mXs,2020.1.2,MacIntel,60,,,,,,,,,,,,,,,,,,,,,,,,,,1,8.2104,,0,1,85,235,18,1,stimuli/stim_20210519_power2amp/equal_lnn_AM1Hz_s25_50.m4a,,,
,,,,,41240,2021-06-08_18h10.42.764,judgeSpeechMusic_20210519_logNormShiftAmp_mXs,2020.1.2,MacIntel,60,,,,,,,,,,,,,,,,,,,,,,,,,,1,6.2794,,0,1,86,236,16,1,stimuli/stim_20210519_power2amp/equal_lnn_AM1Hz_s25_39.m4a,,,
,,,,,41240,2021-06-08_18h10.42.764,judgeSpeechMusic_20210519_logNormShiftAmp_mXs,2020.1.2,MacIntel,60,,,,,,,,,,,,,,,,,,,,,,,,,,1,7.1624,,0,1,87,237,88,1,stimuli/stim_20210519_power2amp/equal_lnn_AM2.5Hz_s45_28.m4a,,,
,,,,,41240,2021-06-08_18h10.42.764,judgeSpeechMusic_20210519_logNormShiftAmp_mXs,2020.1.2,MacIntel,60,,,,,,,,,,,,,,,,,,,,,,,,,,1,20.9281,,0,1,88,238,100,1,stimuli/stim_20210519_power2amp/equal_lnn_AM4Hz_s15_19.m4a,,,
,,,,,41240,2021-06-08_18h10.42.764,judgeSpeechMusic_20210519_logNormShiftAmp_mXs,2020.1.2,MacIntel,60,,,,,,,,,,,,,,,,,,,,,,,,,,1,6.9058,,0,1,89,239,148,1,stimuli/stim_20210519_power2amp/equal_lnn_AM4Hz_s55_10.m4a,,,
,,,,,41240,2021-06-08_18h10.42.764,judgeSpeechMusic_20210519_logNormShiftAmp_mXs,2020.1.2,MacIntel,60,,,,,,,,,,,,,,,,,,,,,,,,,,1,5.648,,0,1,90,240,110,1,stimuli/stim_20210519_power2amp/equal_lnn_AM4Hz_s25_21.m4a,,,
,,,,,41240,2021-06-08_18h10.42.764,judgeSpeechMusic_20210519_logNormShiftAmp_mXs,2020.1.2,MacIntel,60,,,,,,,,,,,,,,,,,,,,,,,,,,1,6.379,,0,1,91,241,130,1,stimuli/stim_20210519_power2amp/equal_lnn_AM4Hz_s45_35.m4a,,,
,,,,,41240,2021-06-08_18h10.42.764,judgeSpeechMusic_20210519_logNormShiftAmp_mXs,2020.1.2,MacIntel,60,,,,,,,,,,,,,,,,,,,,,,,,,,1,6.5618,,0,1,92,242,74,1,stimuli/stim_20210519_power2amp/equal_lnn_AM2.5Hz_s35_15.m4a,,,
,,,,,41240,2021-06-08_18h10.42.764,judgeSpeechMusic_20210519_logNormShiftAmp_mXs,2020.1.2,MacIntel,60,,,,,,,,,,,,,,,,,,,,,,,,,,2,7.893,,0,1,93,243,61,1,stimuli/stim_20210519_power2amp/equal_lnn_AM2.5Hz_s25_46.m4a,,,
,,,,,41240,2021-06-08_18h10.42.764,judgeSpeechMusic_20210519_logNormShiftAmp_mXs,2020.1.2,MacIntel,60,,,,,,,,,,,,,,,,,,,,,,,,,,2,6.3113,,0,1,94,244,54,1,stimuli/stim_20210519_power2amp/equal_lnn_AM2.5Hz_s15_40.m4a,,,
,,,,,41240,2021-06-08_18h10.42.764,judgeSpeechMusic_20210519_logNormShiftAmp_mXs,2020.1.2,MacIntel,60,,,,,,,,,,,,,,,,,,,,,,,,,,2,7.959,,0,1,95,245,63,1,stimuli/stim_20210519_power2amp/equal_lnn_AM2.5Hz_s25_37.m4a,,,
,,,,,41240,2021-06-08_18h10.42.764,judgeSpeechMusic_20210519_logNormShiftAmp_mXs,2020.1.2,MacIntel,60,,,,,,,,,,,,,,,,,,,,,,,,,,2,6.3941,,0,1,96,246,139,1,stimuli/stim_20210519_power2amp/equal_lnn_AM4Hz_s45_33.m4a,,,
,,,,,41240,2021-06-08_18h10.42.764,judgeSpeechMusic_20210519_logNormShiftAmp_mXs,2020.1.2,MacIntel,60,,,,,,,,,,,,,,,,,,,,,,,,,,2,5.8144,,0,1,97,247,113,1,stimuli/stim_20210519_power2amp/equal_lnn_AM4Hz_s25_22.m4a,,,
,,,,,41240,2021-06-08_18h10.42.764,judgeSpeechMusic_20210519_logNormShiftAmp_mXs,2020.1.2,MacIntel,60,,,,,,,,,,,,,,,,,,,,,,,,,,2,6.146,,0,1,98,248,4,1,stimuli/stim_20210519_power2amp/equal_lnn_AM1Hz_s15_28.m4a,,,
,,,,,41240,2021-06-08_18h10.42.764,judgeSpeechMusic_20210519_logNormShiftAmp_mXs,2020.1.2,MacIntel,60,,,,,,,,,,,,,,,,,,,,,,,,,,1,7.9618,,0,1,99,249,132,1,stimuli/stim_20210519_power2amp/equal_lnn_AM4Hz_s45_36.m4a,,,
,,,,,41240,2021-06-08_18h10.42.764,judgeSpeechMusic_20210519_logNormShiftAmp_mXs,2020.1.2,MacIntel,60,,,,,,,,,,,,,,,,,,,,,,,,,,2,7.4831,,0,1,100,250,66,1,stimuli/stim_20210519_power2amp/equal_lnn_AM2.5Hz_s25_3.m4a,,,
,,,,,41240,2021-06-08_18h10.42.764,judgeSpeechMusic_20210519_logNormShiftAmp_mXs,2020.1.2,MacIntel,60,,,,,,,,,,,,,,,,,,,,,,,,,,1,6.8434,,0,1,101,251,101,1,stimuli/stim_20210519_power2amp/equal_lnn_AM4Hz_s15_5.m4a,,,
,,,,,41240,2021-06-08_18h10.42.764,judgeSpeechMusic_20210519_logNormShiftAmp_mXs,2020.1.2,MacIntel,60,,,,,,,,,,,,,,,,,,,,,,,,,,2,6.627,,0,1,102,252,83,1,stimuli/stim_20210519_power2amp/equal_lnn_AM2.5Hz_s45_2.m4a,,,
,,,,,41240,2021-06-08_18h10.42.764,judgeSpeechMusic_20210519_logNormShiftAmp_mXs,2020.1.2,MacIntel,60,,,,,,,,,,,,,,,,,,,,,,,,,,1,8.2111,,0,1,103,253,30,1,stimuli/stim_20210519_power2amp/equal_lnn_AM1Hz_s45_38.m4a,,,
,,,,,41240,2021-06-08_18h10.42.764,judgeSpeechMusic_20210519_logNormShiftAmp_mXs,2020.1.2,MacIntel,60,,,,,,,,,,,,,,,,,,,,,,,,,,1,6.846,,0,1,104,254,72,1,stimuli/stim_20210519_power2amp/equal_lnn_AM2.5Hz_s35_30.m4a,,,
,,,,,41240,2021-06-08_18h10.42.764,judgeSpeechMusic_20210519_logNormShiftAmp_mXs,2020.1.2,MacIntel,60,,,,,,,,,,,,,,,,,,,,,,,,,,2,9.9981,,0,1,105,255,114,1,stimuli/stim_20210519_power2amp/equal_lnn_AM4Hz_s25_27.m4a,,,
,,,,,41240,2021-06-08_18h10.42.764,judgeSpeechMusic_20210519_logNormShiftAmp_mXs,2020.1.2,MacIntel,60,,,,,,,,,,,,,,,,,,,,,,,,,,2,5.8101,,0,1,106,256,41,1,stimuli/stim_20210519_power2amp/equal_lnn_AM1Hz_s55_22.m4a,,,
,,,,,41240,2021-06-08_18h10.42.764,judgeSpeechMusic_20210519_logNormShiftAmp_mXs,2020.1.2,MacIntel,60,,,,,,,,,,,,,,,,,,,,,,,,,,1,6.1612,4,1,1,107,257,127,1,stimuli/stim_20210519_power2amp/equal_lnn_AM4Hz_s35_19.m4a,1.0146,,
,,,,,41240,2021-06-08_18h10.42.764,judgeSpeechMusic_20210519_logNormShiftAmp_mXs,2020.1.2,MacIntel,60,,,,,,,,,,,,,,,,,,,,,,,,,,1,6.0274,,0,1,108,258,52,1,stimuli/stim_20210519_power2amp/equal_lnn_AM2.5Hz_s15_31.m4a,,,
,,,,,41240,2021-06-08_18h10.42.764,judgeSpeechMusic_20210519_logNormShiftAmp_mXs,2020.1.2,MacIntel,60,,,,,,,,,,,,,,,,,,,,,,,,,,2,5.6471,,0,1,109,259,34,1,stimuli/stim_20210519_power2amp/equal_lnn_AM1Hz_s45_48.m4a,,,
,,,,,41240,2021-06-08_18h10.42.764,judgeSpeechMusic_20210519_logNormShiftAmp_mXs,2020.1.2,MacIntel,60,,,,,,,,,,,,,,,,,,,,,,,,,,1,11.2295,,0,1,110,260,37,1,stimuli/stim_20210519_power2amp/equal_lnn_AM1Hz_s45_33.m4a,,,
,,,,,41240,2021-06-08_18h10.42.764,judgeSpeechMusic_20210519_logNormShiftAmp_mXs,2020.1.2,MacIntel,60,,,,,,,,,,,,,,,,,,,,,,,,,,2,7.2623,,0,1,111,261,71,1,stimuli/stim_20210519_power2amp/equal_lnn_AM2.5Hz_s35_36.m4a,,,
,,,,,41240,2021-06-08_18h10.42.764,judgeSpeechMusic_20210519_logNormShiftAmp_mXs,2020.1.2,MacIntel,60,,,,,,,,,,,,,,,,,,,,,,,,,,1,5.8789,,0,1,112,262,123,1,stimuli/stim_20210519_power2amp/equal_lnn_AM4Hz_s35_4.m4a,,,
,,,,,41240,2021-06-08_18h10.42.764,judgeSpeechMusic_20210519_logNormShiftAmp_mXs,2020.1.2,MacIntel,60,,,,,,,,,,,,,,,,,,,,,,,,,,2,14.8124,,0,1,113,263,57,1,stimuli/stim_20210519_power2amp/equal_lnn_AM2.5Hz_s15_34.m4a,,,
,,,,,41240,2021-06-08_18h10.42.764,judgeSpeechMusic_20210519_logNormShiftAmp_mXs,2020.1.2,MacIntel,60,,,,,,,,,,,,,,,,,,,,,,,,,,2,6.8882,,0,1,114,264,64,1,stimuli/stim_20210519_power2amp/equal_lnn_AM2.5Hz_s25_15.m4a,,,
,,,,,41240,2021-06-08_18h10.42.764,judgeSpeechMusic_20210519_logNormShiftAmp_mXs,2020.1.2,MacIntel,60,,,,,,,,,,,,,,,,,,,,,,,,,,1,7.8941,,0,1,115,265,31,1,stimuli/stim_20210519_power2amp/equal_lnn_AM1Hz_s45_50.m4a,,,
,,,,,41240,2021-06-08_18h10.42.764,judgeSpeechMusic_20210519_logNormShiftAmp_mXs,2020.1.2,MacIntel,60,,,,,,,,,,,,,,,,,,,,,,,,,,2,7.8455,,0,1,116,266,25,1,stimuli/stim_20210519_power2amp/equal_lnn_AM1Hz_s35_13.m4a,,,
,,,,,41240,2021-06-08_18h10.42.764,judgeSpeechMusic_20210519_logNormShiftAmp_mXs,2020.1.2,MacIntel,60,,,,,,,,,,,,,,,,,,,,,,,,,,1,6.1961,,0,1,117,267,126,1,stimuli/stim_20210519_power2amp/equal_lnn_AM4Hz_s35_23.m4a,,,
,,,,,41240,2021-06-08_18h10.42.764,judgeSpeechMusic_20210519_logNormShiftAmp_mXs,2020.1.2,MacIntel,60,,,,,,,,,,,,,,,,,,,,,,,,,,2,7.1793,,0,1,118,268,26,1,stimuli/stim_20210519_power2amp/equal_lnn_AM1Hz_s35_36.m4a,,,
,,,,,41240,2021-06-08_18h10.42.764,judgeSpeechMusic_20210519_logNormShiftAmp_mXs,2020.1.2,MacIntel,60,,,,,,,,,,,,,,,,,,,,,,,,,,2,5.9628,,0,1,119,269,29,1,stimuli/stim_20210519_power2amp/equal_lnn_AM1Hz_s35_24.m4a,,,
,,,,,41240,2021-06-08_18h10.42.764,judgeSpeechMusic_20210519_logNormShiftAmp_mXs,2020.1.2,MacIntel,60,,,,,,,,,,,,,,,,,,,,,,,,,,2,14.7261,,0,1,120,270,69,1,stimuli/stim_20210519_power2amp/equal_lnn_AM2.5Hz_s25_50.m4a,,,
,,,,,41240,2021-06-08_18h10.42.764,judgeSpeechMusic_20210519_logNormShiftAmp_mXs,2020.1.2,MacIntel,60,,,,,,,,,,,,,,,,,,,,,,,,,,2,6.4573,,0,1,121,271,24,1,stimuli/stim_20210519_power2amp/equal_lnn_AM1Hz_s35_48.m4a,,,
,,,,,41240,2021-06-08_18h10.42.764,judgeSpeechMusic_20210519_logNormShiftAmp_mXs,2020.1.2,MacIntel,60,,,,,,,,,,,,,,,,,,,,,,,,,,2,8.2292,,0,1,122,272,32,1,stimuli/stim_20210519_power2amp/equal_lnn_AM1Hz_s45_23.m4a,,,
,,,,,41240,2021-06-08_18h10.42.764,judgeSpeechMusic_20210519_logNormShiftAmp_mXs,2020.1.2,MacIntel,60,,,,,,,,,,,,,,,,,,,,,,,,,,1,6.3131,,0,1,123,273,15,1,stimuli/stim_20210519_power2amp/equal_lnn_AM1Hz_s25_15.m4a,,,
,,,,,41240,2021-06-08_18h10.42.764,judgeSpeechMusic_20210519_logNormShiftAmp_mXs,2020.1.2,MacIntel,60,,,,,,,,,,,,,,,,,,,,,,,,,,1,7.2114,,0,1,124,274,78,1,stimuli/stim_20210519_power2amp/equal_lnn_AM2.5Hz_s35_39.m4a,,,
,,,,,41240,2021-06-08_18h10.42.764,judgeSpeechMusic_20210519_logNormShiftAmp_mXs,2020.1.2,MacIntel,60,,,,,,,,,,,,,,,,,,,,,,,,,,2,6.3118,,0,1,125,275,118,1,stimuli/stim_20210519_power2amp/equal_lnn_AM4Hz_s25_7.m4a,,,
,,,,,41240,2021-06-08_18h10.42.764,judgeSpeechMusic_20210519_logNormShiftAmp_mXs,2020.1.2,MacIntel,60,,,,,,,,,,,,,,,,,,,,,,,,,,2,6.6128,,0,1,126,276,144,1,stimuli/stim_20210519_power2amp/equal_lnn_AM4Hz_s55_8.m4a,,,
,,,,,41240,2021-06-08_18h10.42.764,judgeSpeechMusic_20210519_logNormShiftAmp_mXs,2020.1.2,MacIntel,60,,,,,,,,,,,,,,,,,,,,,,,,,,2,7.0046,,0,1,127,277,77,1,stimuli/stim_20210519_power2amp/equal_lnn_AM2.5Hz_s35_14.m4a,,,
,,,,,41240,2021-06-08_18h10.42.764,judgeSpeechMusic_20210519_logNormShiftAmp_mXs,2020.1.2,MacIntel,60,,,,,,,,,,,,,,,,,,,,,,,,,,2,6.8604,,0,1,128,278,65,1,stimuli/stim_20210519_power2amp/equal_lnn_AM2.5Hz_s25_42.m4a,,,
,,,,,41240,2021-06-08_18h10.42.764,judgeSpeechMusic_20210519_logNormShiftAmp_mXs,2020.1.2,MacIntel,60,,,,,,,,,,,,,,,,,,,,,,,,,,2,6.3642,,0,1,129,279,40,1,stimuli/stim_20210519_power2amp/equal_lnn_AM1Hz_s55_18.m4a,,,
,,,,,41240,2021-06-08_18h10.42.764,judgeSpeechMusic_20210519_logNormShiftAmp_mXs,2020.1.2,MacIntel,60,,,,,,,,,,,,,,,,,,,,,,,,,,1,5.879,3,1,1,130,280,43,1,stimuli/stim_20210519_power2amp/equal_lnn_AM1Hz_s55_9.m4a,1.5975,,
,,,,,41240,2021-06-08_18h10.42.764,judgeSpeechMusic_20210519_logNormShiftAmp_mXs,2020.1.2,MacIntel,60,,,,,,,,,,,,,,,,,,,,,,,,,,1,6.5794,,0,1,131,281,124,1,stimuli/stim_20210519_power2amp/equal_lnn_AM4Hz_s35_14.m4a,,,
,,,,,41240,2021-06-08_18h10.42.764,judgeSpeechMusic_20210519_logNormShiftAmp_mXs,2020.1.2,MacIntel,60,,,,,,,,,,,,,,,,,,,,,,,,,,1,5.8427,,0,1,132,282,93,1,stimuli/stim_20210519_power2amp/equal_lnn_AM2.5Hz_s55_40.m4a,,,
,,,,,41240,2021-06-08_18h10.42.764,judgeSpeechMusic_20210519_logNormShiftAmp_mXs,2020.1.2,MacIntel,60,,,,,,,,,,,,,,,,,,,,,,,,,,2,6.0958,,0,1,133,283,2,1,stimuli/stim_20210519_power2amp/equal_lnn_AM1Hz_s15_42.m4a,,,
,,,,,41240,2021-06-08_18h10.42.764,judgeSpeechMusic_20210519_logNormShiftAmp_mXs,2020.1.2,MacIntel,60,,,,,,,,,,,,,,,,,,,,,,,,,,2,7.0629,,0,1,134,284,147,1,stimuli/stim_20210519_power2amp/equal_lnn_AM4Hz_s55_17.m4a,,,
,,,,,41240,2021-06-08_18h10.42.764,judgeSpeechMusic_20210519_logNormShiftAmp_mXs,2020.1.2,MacIntel,60,,,,,,,,,,,,,,,,,,,,,,,,,,2,5.9283,,0,1,135,285,8,1,stimuli/stim_20210519_power2amp/equal_lnn_AM1Hz_s15_31.m4a,,,
,,,,,41240,2021-06-08_18h10.42.764,judgeSpeechMusic_20210519_logNormShiftAmp_mXs,2020.1.2,MacIntel,60,,,,,,,,,,,,,,,,,,,,,,,,,,2,6.362,,0,1,136,286,5,1,stimuli/stim_20210519_power2amp/equal_lnn_AM1Hz_s15_4.m4a,,,
,,,,,41240,2021-06-08_18h10.42.764,judgeSpeechMusic_20210519_logNormShiftAmp_mXs,2020.1.2,MacIntel,60,,,,,,,,,,,,,,,,,,,,,,,,,,2,6.7946,,0,1,137,287,35,1,stimuli/stim_20210519_power2amp/equal_lnn_AM1Hz_s45_49.m4a,,,
,,,,,41240,2021-06-08_18h10.42.764,judgeSpeechMusic_20210519_logNormShiftAmp_mXs,2020.1.2,MacIntel,60,,,,,,,,,,,,,,,,,,,,,,,,,,1,7.5942,,0,1,138,288,141,1,stimuli/stim_20210519_power2amp/equal_lnn_AM4Hz_s55_18.m4a,,,
,,,,,41240,2021-06-08_18h10.42.764,judgeSpeechMusic_20210519_logNormShiftAmp_mXs,2020.1.2,MacIntel,60,,,,,,,,,,,,,,,,,,,,,,,,,,1,10.7793,,0,1,139,289,134,1,stimuli/stim_20210519_power2amp/equal_lnn_AM4Hz_s45_23.m4a,,,
,,,,,41240,2021-06-08_18h10.42.764,judgeSpeechMusic_20210519_logNormShiftAmp_mXs,2020.1.2,MacIntel,60,,,,,,,,,,,,,,,,,,,,,,,,,,1,7.345,,0,1,140,290,58,1,stimuli/stim_20210519_power2amp/equal_lnn_AM2.5Hz_s15_49.m4a,,,
,,,,,41240,2021-06-08_18h10.42.764,judgeSpeechMusic_20210519_logNormShiftAmp_mXs,2020.1.2,MacIntel,60,,,,,,,,,,,,,,,,,,,,,,,,,,1,7.1179,,0,1,141,291,3,1,stimuli/stim_20210519_power2amp/equal_lnn_AM1Hz_s15_11.m4a,,,
,,,,,41240,2021-06-08_18h10.42.764,judgeSpeechMusic_20210519_logNormShiftAmp_mXs,2020.1.2,MacIntel,60,,,,,,,,,,,,,,,,,,,,,,,,,,2,9.6467,,0,1,142,292,119,1,stimuli/stim_20210519_power2amp/equal_lnn_AM4Hz_s25_9.m4a,,,
,,,,,41240,2021-06-08_18h10.42.764,judgeSpeechMusic_20210519_logNormShiftAmp_mXs,2020.1.2,MacIntel,60,,,,,,,,,,,,,,,,,,,,,,,,,,1,6.8737,,0,1,143,293,106,1,stimuli/stim_20210519_power2amp/equal_lnn_AM4Hz_s15_28.m4a,,,
,,,,,41240,2021-06-08_18h10.42.764,judgeSpeechMusic_20210519_logNormShiftAmp_mXs,2020.1.2,MacIntel,60,,,,,,,,,,,,,,,,,,,,,,,,,,2,13.2785,,0,1,144,294,135,1,stimuli/stim_20210519_power2amp/equal_lnn_AM4Hz_s45_46.m4a,,,
,,,,,41240,2021-06-08_18h10.42.764,judgeSpeechMusic_20210519_logNormShiftAmp_mXs,2020.1.2,MacIntel,60,,,,,,,,,,,,,,,,,,,,,,,,,,2,7.8448,,0,1,145,295,45,1,stimuli/stim_20210519_power2amp/equal_lnn_AM1Hz_s55_7.m4a,,,
,,,,,41240,2021-06-08_18h10.42.764,judgeSpeechMusic_20210519_logNormShiftAmp_mXs,2020.1.2,MacIntel,60,,,,,,,,,,,,,,,,,,,,,,,,,,1,8.2945,,0,1,146,296,85,1,stimuli/stim_20210519_power2amp/equal_lnn_AM2.5Hz_s45_12.m4a,,,
,,,,,41240,2021-06-08_18h10.42.764,judgeSpeechMusic_20210519_logNormShiftAmp_mXs,2020.1.2,MacIntel,60,,,,,,,,,,,,,,,,,,,,,,,,,,2,8.2379,,0,1,147,297,142,1,stimuli/stim_20210519_power2amp/equal_lnn_AM4Hz_s55_23.m4a,,,
,,,,,41240,2021-06-08_18h10.42.764,judgeSpeechMusic_20210519_logNormShiftAmp_mXs,2020.1.2,MacIntel,60,,,,,,,,,,,,,,,,,,,,,,,,,,2,7.2623,,0,1,148,298,46,1,stimuli/stim_20210519_power2amp/equal_lnn_AM1Hz_s55_10.m4a,,,
,,,,,41240,2021-06-08_18h10.42.764,judgeSpeechMusic_20210519_logNormShiftAmp_mXs,2020.1.2,MacIntel,60,,,,,,,,,,,,,,,,,,,,,,,,,,1,5.7308,,0,1,149,299,53,1,stimuli/stim_20210519_power2amp/equal_lnn_AM2.5Hz_s15_9.m4a,,,
,,,,,41240,2021-06-08_18h10.42.764,judgeSpeechMusic_20210519_logNormShiftAmp_mXs,2020.1.2,MacIntel,60,,,,,,,,,,,,,,,,,,,,,,,,,,,,,,,,,,,,,space,11.6891
