headphoneResponse.keys,headphoneResponse.corr,headphoneResponse.rt,headphoneTrial.thisRepN,headphoneTrial.thisTrialN,headphoneTrial.thisN,headphoneTrial.thisIndex,headphoneTrial.ran,headphone_sound1,headphone_sound2,headphone_sound3,corrAns,participant,date,expName,psychopyVersion,OS,frameRate,trainSlider.response,trainSlider.rt,beepTrainResponse.keys,beepTrainResponse.corr,trainingTrials.thisRepN,trainingTrials.thisTrialN,trainingTrials.thisN,trainingTrials.thisIndex,trainingTrials.ran,trainAudioFile,beepTrainResponse.rt,readyReal_resp.keys,readyReal_resp.rt,ratingSlider.response,ratingSlider.rt,beepResp.keys,beepResp.corr,expTrials.thisRepN,expTrials.thisTrialN,expTrials.thisN,expTrials.thisIndex,expTrials.ran,audioFile,beepResp.rt,end_resp.keys,end_resp.rt
1,1,1.709595,0,0,0,4,1,stimuli/screen_quiet.wav,stimuli/screen_antiphase.wav,stimuli/screen_origin.wav,1,41248,2021-06-05_18h22.26.203,judgeSpeechMusic_20210519_logNormShiftAmp_mXs,2020.1.2,Linux x86_64,60,,,,,,,,,,,,,,,,,,,,,,,,,,
2,1,1.33581,0,1,1,3,1,stimuli/screen_origin.wav,stimuli/screen_quiet.wav,stimuli/screen_antiphase.wav,2,41248,2021-06-05_18h22.26.203,judgeSpeechMusic_20210519_logNormShiftAmp_mXs,2020.1.2,Linux x86_64,60,,,,,,,,,,,,,,,,,,,,,,,,,,
3,1,1.7719,0,2,2,2,1,stimuli/screen_origin.wav,stimuli/screen_antiphase.wav,stimuli/screen_quiet.wav,3,41248,2021-06-05_18h22.26.203,judgeSpeechMusic_20210519_logNormShiftAmp_mXs,2020.1.2,Linux x86_64,60,,,,,,,,,,,,,,,,,,,,,,,,,,
1,1,0.868015,0,3,3,5,1,stimuli/screen_quiet.wav,stimuli/screen_origin.wav,stimuli/screen_antiphase.wav,1,41248,2021-06-05_18h22.26.203,judgeSpeechMusic_20210519_logNormShiftAmp_mXs,2020.1.2,Linux x86_64,60,,,,,,,,,,,,,,,,,,,,,,,,,,
3,0,1.779255,0,4,4,1,1,stimuli/screen_antiphase.wav,stimuli/screen_quiet.wav,stimuli/screen_origin.wav,2,41248,2021-06-05_18h22.26.203,judgeSpeechMusic_20210519_logNormShiftAmp_mXs,2020.1.2,Linux x86_64,60,,,,,,,,,,,,,,,,,,,,,,,,,,
3,1,0.759005,0,5,5,0,1,stimuli/screen_antiphase.wav,stimuli/screen_origin.wav,stimuli/screen_quiet.wav,3,41248,2021-06-05_18h22.26.203,judgeSpeechMusic_20210519_logNormShiftAmp_mXs,2020.1.2,Linux x86_64,60,,,,,,,,,,,,,,,,,,,,,,,,,,
,,,,,,,,,,,,41248,2021-06-05_18h22.26.203,judgeSpeechMusic_20210519_logNormShiftAmp_mXs,2020.1.2,Linux x86_64,60,2,10.55524,,0,0,0,0,3,1,stimuli/stim_20210519_power2amp/equal_lnn_AM_training3.5Hz_s50.m4a,,,,,,,,,,,,,,,,
,,,,,,,,,,,,41248,2021-06-05_18h22.26.203,judgeSpeechMusic_20210519_logNormShiftAmp_mXs,2020.1.2,Linux x86_64,60,1,7.567915,,0,0,1,1,2,1,stimuli/stim_20210519_power2amp/equal_lnn_AM_training3.5Hz_s20.m4a,,,,,,,,,,,,,,,,
,,,,,,,,,,,,41248,2021-06-05_18h22.26.203,judgeSpeechMusic_20210519_logNormShiftAmp_mXs,2020.1.2,Linux x86_64,60,1,6.77678,2,1,0,2,2,0,1,stimuli/stim_20210519_power2amp/equal_lnn_AM_training1.5Hz_s20.m4a,1.69472,,,,,,,,,,,,,,,
,,,,,,,,,,,,41248,2021-06-05_18h22.26.203,judgeSpeechMusic_20210519_logNormShiftAmp_mXs,2020.1.2,Linux x86_64,60,2,7.1539,,0,0,3,3,1,1,stimuli/stim_20210519_power2amp/equal_lnn_AM_training1.5Hz_s50.m4a,,,,,,,,,,,,,,,,
,,,,,,,,,,,,41248,2021-06-05_18h22.26.203,judgeSpeechMusic_20210519_logNormShiftAmp_mXs,2020.1.2,Linux x86_64,60,,,,,,,,,,,,space,57.62919,1,6.716825,,0,0,0,0,129,1,stimuli/stim_20210519_power2amp/equal_lnn_AM4Hz_s35_18.m4a,,,
,,,,,,,,,,,,41248,2021-06-05_18h22.26.203,judgeSpeechMusic_20210519_logNormShiftAmp_mXs,2020.1.2,Linux x86_64,60,,,,,,,,,,,,,,2,6.961815,,0,0,1,1,40,1,stimuli/stim_20210519_power2amp/equal_lnn_AM1Hz_s55_24.m4a,,,
,,,,,,,,,,,,41248,2021-06-05_18h22.26.203,judgeSpeechMusic_20210519_logNormShiftAmp_mXs,2020.1.2,Linux x86_64,60,,,,,,,,,,,,,,1,6.90754,,0,0,2,2,69,1,stimuli/stim_20210519_power2amp/equal_lnn_AM2.5Hz_s25_37.m4a,,,
,,,,,,,,,,,,41248,2021-06-05_18h22.26.203,judgeSpeechMusic_20210519_logNormShiftAmp_mXs,2020.1.2,Linux x86_64,60,,,,,,,,,,,,,,1,6.594895,,0,0,3,3,101,1,stimuli/stim_20210519_power2amp/equal_lnn_AM4Hz_s15_31.m4a,,,
,,,,,,,,,,,,41248,2021-06-05_18h22.26.203,judgeSpeechMusic_20210519_logNormShiftAmp_mXs,2020.1.2,Linux x86_64,60,,,,,,,,,,,,,,2,6.098185,,0,0,4,4,24,1,stimuli/stim_20210519_power2amp/equal_lnn_AM1Hz_s35_4.m4a,,,
,,,,,,,,,,,,41248,2021-06-05_18h22.26.203,judgeSpeechMusic_20210519_logNormShiftAmp_mXs,2020.1.2,Linux x86_64,60,,,,,,,,,,,,,,2,6.78952,,0,0,5,5,52,1,stimuli/stim_20210519_power2amp/equal_lnn_AM2.5Hz_s15_8.m4a,,,
,,,,,,,,,,,,41248,2021-06-05_18h22.26.203,judgeSpeechMusic_20210519_logNormShiftAmp_mXs,2020.1.2,Linux x86_64,60,,,,,,,,,,,,,,1,6.043925,,0,0,6,6,148,1,stimuli/stim_20210519_power2amp/equal_lnn_AM4Hz_s55_22.m4a,,,
,,,,,,,,,,,,41248,2021-06-05_18h22.26.203,judgeSpeechMusic_20210519_logNormShiftAmp_mXs,2020.1.2,Linux x86_64,60,,,,,,,,,,,,,,1,6.142945,,0,0,7,7,94,1,stimuli/stim_20210519_power2amp/equal_lnn_AM2.5Hz_s55_41.m4a,,,
,,,,,,,,,,,,41248,2021-06-05_18h22.26.203,judgeSpeechMusic_20210519_logNormShiftAmp_mXs,2020.1.2,Linux x86_64,60,,,,,,,,,,,,,,1,24.12011,,0,0,8,8,121,1,stimuli/stim_20210519_power2amp/equal_lnn_AM4Hz_s35_25.m4a,,,
,,,,,,,,,,,,41248,2021-06-05_18h22.26.203,judgeSpeechMusic_20210519_logNormShiftAmp_mXs,2020.1.2,Linux x86_64,60,,,,,,,,,,,,,,1,7.20118,,0,0,9,9,37,1,stimuli/stim_20210519_power2amp/equal_lnn_AM1Hz_s45_46.m4a,,,
,,,,,,,,,,,,41248,2021-06-05_18h22.26.203,judgeSpeechMusic_20210519_logNormShiftAmp_mXs,2020.1.2,Linux x86_64,60,,,,,,,,,,,,,,1,6.196365,,0,0,10,10,130,1,stimuli/stim_20210519_power2amp/equal_lnn_AM4Hz_s45_46.m4a,,,
,,,,,,,,,,,,41248,2021-06-05_18h22.26.203,judgeSpeechMusic_20210519_logNormShiftAmp_mXs,2020.1.2,Linux x86_64,60,,,,,,,,,,,,,,2,8.58092,,0,0,11,11,65,1,stimuli/stim_20210519_power2amp/equal_lnn_AM2.5Hz_s25_24.m4a,,,
,,,,,,,,,,,,41248,2021-06-05_18h22.26.203,judgeSpeechMusic_20210519_logNormShiftAmp_mXs,2020.1.2,Linux x86_64,60,,,,,,,,,,,,,,2,14.02875,,0,0,12,12,46,1,stimuli/stim_20210519_power2amp/equal_lnn_AM1Hz_s55_14.m4a,,,
,,,,,,,,,,,,41248,2021-06-05_18h22.26.203,judgeSpeechMusic_20210519_logNormShiftAmp_mXs,2020.1.2,Linux x86_64,60,,,,,,,,,,,,,,2,10.999225,,0,0,13,13,98,1,stimuli/stim_20210519_power2amp/equal_lnn_AM2.5Hz_s55_45.m4a,,,
,,,,,,,,,,,,41248,2021-06-05_18h22.26.203,judgeSpeechMusic_20210519_logNormShiftAmp_mXs,2020.1.2,Linux x86_64,60,,,,,,,,,,,,,,1,17.214615,,0,0,14,14,127,1,stimuli/stim_20210519_power2amp/equal_lnn_AM4Hz_s35_49.m4a,,,
,,,,,,,,,,,,41248,2021-06-05_18h22.26.203,judgeSpeechMusic_20210519_logNormShiftAmp_mXs,2020.1.2,Linux x86_64,60,,,,,,,,,,,,,,1,7.87007,,0,0,15,15,89,1,stimuli/stim_20210519_power2amp/equal_lnn_AM2.5Hz_s45_22.m4a,,,
,,,,,,,,,,,,41248,2021-06-05_18h22.26.203,judgeSpeechMusic_20210519_logNormShiftAmp_mXs,2020.1.2,Linux x86_64,60,,,,,,,,,,,,,,1,16.91129,,0,0,16,16,123,1,stimuli/stim_20210519_power2amp/equal_lnn_AM4Hz_s35_28.m4a,,,
,,,,,,,,,,,,41248,2021-06-05_18h22.26.203,judgeSpeechMusic_20210519_logNormShiftAmp_mXs,2020.1.2,Linux x86_64,60,,,,,,,,,,,,,,2,8.25718,,0,0,17,17,113,1,stimuli/stim_20210519_power2amp/equal_lnn_AM4Hz_s25_38.m4a,,,
,,,,,,,,,,,,41248,2021-06-05_18h22.26.203,judgeSpeechMusic_20210519_logNormShiftAmp_mXs,2020.1.2,Linux x86_64,60,,,,,,,,,,,,,,2,13.8848,,0,0,18,18,111,1,stimuli/stim_20210519_power2amp/equal_lnn_AM4Hz_s25_8.m4a,,,
,,,,,,,,,,,,41248,2021-06-05_18h22.26.203,judgeSpeechMusic_20210519_logNormShiftAmp_mXs,2020.1.2,Linux x86_64,60,,,,,,,,,,,,,,1,12.30527,,0,0,19,19,128,1,stimuli/stim_20210519_power2amp/equal_lnn_AM4Hz_s35_17.m4a,,,
,,,,,,,,,,,,41248,2021-06-05_18h22.26.203,judgeSpeechMusic_20210519_logNormShiftAmp_mXs,2020.1.2,Linux x86_64,60,,,,,,,,,,,,,,1,7.793095,,0,0,20,20,25,1,stimuli/stim_20210519_power2amp/equal_lnn_AM1Hz_s35_17.m4a,,,
,,,,,,,,,,,,41248,2021-06-05_18h22.26.203,judgeSpeechMusic_20210519_logNormShiftAmp_mXs,2020.1.2,Linux x86_64,60,,,,,,,,,,,,,,1,11.7596,,0,0,21,21,34,1,stimuli/stim_20210519_power2amp/equal_lnn_AM1Hz_s45_48.m4a,,,
,,,,,,,,,,,,41248,2021-06-05_18h22.26.203,judgeSpeechMusic_20210519_logNormShiftAmp_mXs,2020.1.2,Linux x86_64,60,,,,,,,,,,,,,,2,11.35186,,0,0,22,22,17,1,stimuli/stim_20210519_power2amp/equal_lnn_AM1Hz_s25_13.m4a,,,
,,,,,,,,,,,,41248,2021-06-05_18h22.26.203,judgeSpeechMusic_20210519_logNormShiftAmp_mXs,2020.1.2,Linux x86_64,60,,,,,,,,,,,,,,1,7.665925,,0,0,23,23,131,1,stimuli/stim_20210519_power2amp/equal_lnn_AM4Hz_s45_10.m4a,,,
,,,,,,,,,,,,41248,2021-06-05_18h22.26.203,judgeSpeechMusic_20210519_logNormShiftAmp_mXs,2020.1.2,Linux x86_64,60,,,,,,,,,,,,,,1,7.027065,,0,0,24,24,134,1,stimuli/stim_20210519_power2amp/equal_lnn_AM4Hz_s45_24.m4a,,,
,,,,,,,,,,,,41248,2021-06-05_18h22.26.203,judgeSpeechMusic_20210519_logNormShiftAmp_mXs,2020.1.2,Linux x86_64,60,,,,,,,,,,,,,,1,9.010295,,0,0,25,25,72,1,stimuli/stim_20210519_power2amp/equal_lnn_AM2.5Hz_s35_22.m4a,,,
,,,,,,,,,,,,41248,2021-06-05_18h22.26.203,judgeSpeechMusic_20210519_logNormShiftAmp_mXs,2020.1.2,Linux x86_64,60,,,,,,,,,,,,,,1,6.22951,,0,0,26,26,80,1,stimuli/stim_20210519_power2amp/equal_lnn_AM2.5Hz_s45_43.m4a,,,
,,,,,,,,,,,,41248,2021-06-05_18h22.26.203,judgeSpeechMusic_20210519_logNormShiftAmp_mXs,2020.1.2,Linux x86_64,60,,,,,,,,,,,,,,2,16.626875,,0,0,27,27,139,1,stimuli/stim_20210519_power2amp/equal_lnn_AM4Hz_s45_13.m4a,,,
,,,,,,,,,,,,41248,2021-06-05_18h22.26.203,judgeSpeechMusic_20210519_logNormShiftAmp_mXs,2020.1.2,Linux x86_64,60,,,,,,,,,,,,,,1,7.3675,,0,0,28,28,58,1,stimuli/stim_20210519_power2amp/equal_lnn_AM2.5Hz_s15_2.m4a,,,
,,,,,,,,,,,,41248,2021-06-05_18h22.26.203,judgeSpeechMusic_20210519_logNormShiftAmp_mXs,2020.1.2,Linux x86_64,60,,,,,,,,,,,,,,2,7.489925,,0,0,29,29,74,1,stimuli/stim_20210519_power2amp/equal_lnn_AM2.5Hz_s35_25.m4a,,,
,,,,,,,,,,,,41248,2021-06-05_18h22.26.203,judgeSpeechMusic_20210519_logNormShiftAmp_mXs,2020.1.2,Linux x86_64,60,,,,,,,,,,,,,,2,7.054085,,0,0,30,30,53,1,stimuli/stim_20210519_power2amp/equal_lnn_AM2.5Hz_s15_19.m4a,,,
,,,,,,,,,,,,41248,2021-06-05_18h22.26.203,judgeSpeechMusic_20210519_logNormShiftAmp_mXs,2020.1.2,Linux x86_64,60,,,,,,,,,,,,,,1,6.141825,,0,0,31,31,124,1,stimuli/stim_20210519_power2amp/equal_lnn_AM4Hz_s35_7.m4a,,,
,,,,,,,,,,,,41248,2021-06-05_18h22.26.203,judgeSpeechMusic_20210519_logNormShiftAmp_mXs,2020.1.2,Linux x86_64,60,,,,,,,,,,,,,,2,6.26642,,0,0,32,32,116,1,stimuli/stim_20210519_power2amp/equal_lnn_AM4Hz_s25_1.m4a,,,
,,,,,,,,,,,,41248,2021-06-05_18h22.26.203,judgeSpeechMusic_20210519_logNormShiftAmp_mXs,2020.1.2,Linux x86_64,60,,,,,,,,,,,,,,1,6.570795,,0,0,33,33,76,1,stimuli/stim_20210519_power2amp/equal_lnn_AM2.5Hz_s35_18.m4a,,,
,,,,,,,,,,,,41248,2021-06-05_18h22.26.203,judgeSpeechMusic_20210519_logNormShiftAmp_mXs,2020.1.2,Linux x86_64,60,,,,,,,,,,,,,,1,11.143025,,0,0,34,34,18,1,stimuli/stim_20210519_power2amp/equal_lnn_AM1Hz_s25_40.m4a,,,
,,,,,,,,,,,,41248,2021-06-05_18h22.26.203,judgeSpeechMusic_20210519_logNormShiftAmp_mXs,2020.1.2,Linux x86_64,60,,,,,,,,,,,,,,2,15.904335,,0,0,35,35,42,1,stimuli/stim_20210519_power2amp/equal_lnn_AM1Hz_s55_45.m4a,,,
,,,,,,,,,,,,41248,2021-06-05_18h22.26.203,judgeSpeechMusic_20210519_logNormShiftAmp_mXs,2020.1.2,Linux x86_64,60,,,,,,,,,,,,,,2,11.72426,,0,0,36,36,22,1,stimuli/stim_20210519_power2amp/equal_lnn_AM1Hz_s35_37.m4a,,,
,,,,,,,,,,,,41248,2021-06-05_18h22.26.203,judgeSpeechMusic_20210519_logNormShiftAmp_mXs,2020.1.2,Linux x86_64,60,,,,,,,,,,,,,,1,9.53863,,0,0,37,37,61,1,stimuli/stim_20210519_power2amp/equal_lnn_AM2.5Hz_s25_2.m4a,,,
,,,,,,,,,,,,41248,2021-06-05_18h22.26.203,judgeSpeechMusic_20210519_logNormShiftAmp_mXs,2020.1.2,Linux x86_64,60,,,,,,,,,,,,,,1,6.234885,,0,0,38,38,67,1,stimuli/stim_20210519_power2amp/equal_lnn_AM2.5Hz_s25_16.m4a,,,
,,,,,,,,,,,,41248,2021-06-05_18h22.26.203,judgeSpeechMusic_20210519_logNormShiftAmp_mXs,2020.1.2,Linux x86_64,60,,,,,,,,,,,,,,1,6.21529,,0,0,39,39,114,1,stimuli/stim_20210519_power2amp/equal_lnn_AM4Hz_s25_10.m4a,,,
,,,,,,,,,,,,41248,2021-06-05_18h22.26.203,judgeSpeechMusic_20210519_logNormShiftAmp_mXs,2020.1.2,Linux x86_64,60,,,,,,,,,,,,,,2,6.485215,2,1,0,40,40,54,1,stimuli/stim_20210519_power2amp/equal_lnn_AM2.5Hz_s15_1.m4a,1.4112,,
,,,,,,,,,,,,41248,2021-06-05_18h22.26.203,judgeSpeechMusic_20210519_logNormShiftAmp_mXs,2020.1.2,Linux x86_64,60,,,,,,,,,,,,,,2,9.243615,,0,0,41,41,83,1,stimuli/stim_20210519_power2amp/equal_lnn_AM2.5Hz_s45_31.m4a,,,
,,,,,,,,,,,,41248,2021-06-05_18h22.26.203,judgeSpeechMusic_20210519_logNormShiftAmp_mXs,2020.1.2,Linux x86_64,60,,,,,,,,,,,,,,2,6.12894,,0,0,42,42,144,1,stimuli/stim_20210519_power2amp/equal_lnn_AM4Hz_s55_19.m4a,,,
,,,,,,,,,,,,41248,2021-06-05_18h22.26.203,judgeSpeechMusic_20210519_logNormShiftAmp_mXs,2020.1.2,Linux x86_64,60,,,,,,,,,,,,,,1,6.1789,,0,0,43,43,146,1,stimuli/stim_20210519_power2amp/equal_lnn_AM4Hz_s55_45.m4a,,,
,,,,,,,,,,,,41248,2021-06-05_18h22.26.203,judgeSpeechMusic_20210519_logNormShiftAmp_mXs,2020.1.2,Linux x86_64,60,,,,,,,,,,,,,,1,6.14937,,0,0,44,44,56,1,stimuli/stim_20210519_power2amp/equal_lnn_AM2.5Hz_s15_31.m4a,,,
,,,,,,,,,,,,41248,2021-06-05_18h22.26.203,judgeSpeechMusic_20210519_logNormShiftAmp_mXs,2020.1.2,Linux x86_64,60,,,,,,,,,,,,,,2,8.40601,,0,0,45,45,47,1,stimuli/stim_20210519_power2amp/equal_lnn_AM1Hz_s55_25.m4a,,,
,,,,,,,,,,,,41248,2021-06-05_18h22.26.203,judgeSpeechMusic_20210519_logNormShiftAmp_mXs,2020.1.2,Linux x86_64,60,,,,,,,,,,,,,,1,6.3779,,0,0,46,46,70,1,stimuli/stim_20210519_power2amp/equal_lnn_AM2.5Hz_s35_7.m4a,,,
,,,,,,,,,,,,41248,2021-06-05_18h22.26.203,judgeSpeechMusic_20210519_logNormShiftAmp_mXs,2020.1.2,Linux x86_64,60,,,,,,,,,,,,,,2,7.983295,,0,0,47,47,32,1,stimuli/stim_20210519_power2amp/equal_lnn_AM1Hz_s45_34.m4a,,,
,,,,,,,,,,,,41248,2021-06-05_18h22.26.203,judgeSpeechMusic_20210519_logNormShiftAmp_mXs,2020.1.2,Linux x86_64,60,,,,,,,,,,,,,,2,19.87821,,0,0,48,48,11,1,stimuli/stim_20210519_power2amp/equal_lnn_AM1Hz_s25_42.m4a,,,
,,,,,,,,,,,,41248,2021-06-05_18h22.26.203,judgeSpeechMusic_20210519_logNormShiftAmp_mXs,2020.1.2,Linux x86_64,60,,,,,,,,,,,,,,2,8.700645,,0,0,49,49,117,1,stimuli/stim_20210519_power2amp/equal_lnn_AM4Hz_s25_44.m4a,,,
,,,,,,,,,,,,41248,2021-06-05_18h22.26.203,judgeSpeechMusic_20210519_logNormShiftAmp_mXs,2020.1.2,Linux x86_64,60,,,,,,,,,,,,,,1,5.908175,,0,0,50,50,85,1,stimuli/stim_20210519_power2amp/equal_lnn_AM2.5Hz_s45_5.m4a,,,
,,,,,,,,,,,,41248,2021-06-05_18h22.26.203,judgeSpeechMusic_20210519_logNormShiftAmp_mXs,2020.1.2,Linux x86_64,60,,,,,,,,,,,,,,2,10.27495,,0,0,51,51,75,1,stimuli/stim_20210519_power2amp/equal_lnn_AM2.5Hz_s35_44.m4a,,,
,,,,,,,,,,,,41248,2021-06-05_18h22.26.203,judgeSpeechMusic_20210519_logNormShiftAmp_mXs,2020.1.2,Linux x86_64,60,,,,,,,,,,,,,,1,13.58488,,0,0,52,52,108,1,stimuli/stim_20210519_power2amp/equal_lnn_AM4Hz_s15_35.m4a,,,
,,,,,,,,,,,,41248,2021-06-05_18h22.26.203,judgeSpeechMusic_20210519_logNormShiftAmp_mXs,2020.1.2,Linux x86_64,60,,,,,,,,,,,,,,2,13.346765,,0,0,53,53,49,1,stimuli/stim_20210519_power2amp/equal_lnn_AM1Hz_s55_47.m4a,,,
,,,,,,,,,,,,41248,2021-06-05_18h22.26.203,judgeSpeechMusic_20210519_logNormShiftAmp_mXs,2020.1.2,Linux x86_64,60,,,,,,,,,,,,,,1,7.753515,,0,0,54,54,21,1,stimuli/stim_20210519_power2amp/equal_lnn_AM1Hz_s35_6.m4a,,,
,,,,,,,,,,,,41248,2021-06-05_18h22.26.203,judgeSpeechMusic_20210519_logNormShiftAmp_mXs,2020.1.2,Linux x86_64,60,,,,,,,,,,,,,,2,17.391725,,0,0,55,55,50,1,stimuli/stim_20210519_power2amp/equal_lnn_AM2.5Hz_s15_3.m4a,,,
,,,,,,,,,,,,41248,2021-06-05_18h22.26.203,judgeSpeechMusic_20210519_logNormShiftAmp_mXs,2020.1.2,Linux x86_64,60,,,,,,,,,,,,,,2,7.279985,,0,0,56,56,3,1,stimuli/stim_20210519_power2amp/equal_lnn_AM1Hz_s15_11.m4a,,,
,,,,,,,,,,,,41248,2021-06-05_18h22.26.203,judgeSpeechMusic_20210519_logNormShiftAmp_mXs,2020.1.2,Linux x86_64,60,,,,,,,,,,,,,,2,7.318005,,0,0,57,57,16,1,stimuli/stim_20210519_power2amp/equal_lnn_AM1Hz_s25_6.m4a,,,
,,,,,,,,,,,,41248,2021-06-05_18h22.26.203,judgeSpeechMusic_20210519_logNormShiftAmp_mXs,2020.1.2,Linux x86_64,60,,,,,,,,,,,,,,1,10.415595,,0,0,58,58,62,1,stimuli/stim_20210519_power2amp/equal_lnn_AM2.5Hz_s25_5.m4a,,,
,,,,,,,,,,,,41248,2021-06-05_18h22.26.203,judgeSpeechMusic_20210519_logNormShiftAmp_mXs,2020.1.2,Linux x86_64,60,,,,,,,,,,,,,,1,11.610245,,0,0,59,59,86,1,stimuli/stim_20210519_power2amp/equal_lnn_AM2.5Hz_s45_41.m4a,,,
,,,,,,,,,,,,41248,2021-06-05_18h22.26.203,judgeSpeechMusic_20210519_logNormShiftAmp_mXs,2020.1.2,Linux x86_64,60,,,,,,,,,,,,,,2,7.41216,4,1,0,60,60,81,1,stimuli/stim_20210519_power2amp/equal_lnn_AM2.5Hz_s45_37.m4a,2.89351,,
,,,,,,,,,,,,41248,2021-06-05_18h22.26.203,judgeSpeechMusic_20210519_logNormShiftAmp_mXs,2020.1.2,Linux x86_64,60,,,,,,,,,,,,,,2,10.841615,,0,0,61,61,147,1,stimuli/stim_20210519_power2amp/equal_lnn_AM4Hz_s55_27.m4a,,,
,,,,,,,,,,,,41248,2021-06-05_18h22.26.203,judgeSpeechMusic_20210519_logNormShiftAmp_mXs,2020.1.2,Linux x86_64,60,,,,,,,,,,,,,,2,24.79716,,0,0,62,62,57,1,stimuli/stim_20210519_power2amp/equal_lnn_AM2.5Hz_s15_9.m4a,,,
,,,,,,,,,,,,41248,2021-06-05_18h22.26.203,judgeSpeechMusic_20210519_logNormShiftAmp_mXs,2020.1.2,Linux x86_64,60,,,,,,,,,,,,,,1,6.90131,,0,0,63,63,9,1,stimuli/stim_20210519_power2amp/equal_lnn_AM1Hz_s15_37.m4a,,,
,,,,,,,,,,,,41248,2021-06-05_18h22.26.203,judgeSpeechMusic_20210519_logNormShiftAmp_mXs,2020.1.2,Linux x86_64,60,,,,,,,,,,,,,,1,7.60073,,0,0,64,64,68,1,stimuli/stim_20210519_power2amp/equal_lnn_AM2.5Hz_s25_25.m4a,,,
,,,,,,,,,,,,41248,2021-06-05_18h22.26.203,judgeSpeechMusic_20210519_logNormShiftAmp_mXs,2020.1.2,Linux x86_64,60,,,,,,,,,,,,,,1,6.12153,,0,0,65,65,90,1,stimuli/stim_20210519_power2amp/equal_lnn_AM2.5Hz_s55_14.m4a,,,
,,,,,,,,,,,,41248,2021-06-05_18h22.26.203,judgeSpeechMusic_20210519_logNormShiftAmp_mXs,2020.1.2,Linux x86_64,60,,,,,,,,,,,,,,2,5.97362,,0,0,66,66,91,1,stimuli/stim_20210519_power2amp/equal_lnn_AM2.5Hz_s55_47.m4a,,,
,,,,,,,,,,,,41248,2021-06-05_18h22.26.203,judgeSpeechMusic_20210519_logNormShiftAmp_mXs,2020.1.2,Linux x86_64,60,,,,,,,,,,,,,,1,9.347305,,0,0,67,67,143,1,stimuli/stim_20210519_power2amp/equal_lnn_AM4Hz_s55_28.m4a,,,
,,,,,,,,,,,,41248,2021-06-05_18h22.26.203,judgeSpeechMusic_20210519_logNormShiftAmp_mXs,2020.1.2,Linux x86_64,60,,,,,,,,,,,,,,1,8.662215,,0,0,68,68,19,1,stimuli/stim_20210519_power2amp/equal_lnn_AM1Hz_s25_3.m4a,,,
,,,,,,,,,,,,41248,2021-06-05_18h22.26.203,judgeSpeechMusic_20210519_logNormShiftAmp_mXs,2020.1.2,Linux x86_64,60,,,,,,,,,,,,,,1,8.9402,,0,0,69,69,96,1,stimuli/stim_20210519_power2amp/equal_lnn_AM2.5Hz_s55_23.m4a,,,
,,,,,,,,,,,,41248,2021-06-05_18h22.26.203,judgeSpeechMusic_20210519_logNormShiftAmp_mXs,2020.1.2,Linux x86_64,60,,,,,,,,,,,,,,2,7.75514,,0,0,70,70,6,1,stimuli/stim_20210519_power2amp/equal_lnn_AM1Hz_s15_28.m4a,,,
,,,,,,,,,,,,41248,2021-06-05_18h22.26.203,judgeSpeechMusic_20210519_logNormShiftAmp_mXs,2020.1.2,Linux x86_64,60,,,,,,,,,,,,,,1,9.655185,,0,0,71,71,51,1,stimuli/stim_20210519_power2amp/equal_lnn_AM2.5Hz_s15_10.m4a,,,
,,,,,,,,,,,,41248,2021-06-05_18h22.26.203,judgeSpeechMusic_20210519_logNormShiftAmp_mXs,2020.1.2,Linux x86_64,60,,,,,,,,,,,,,,2,7.794415,,0,0,72,72,107,1,stimuli/stim_20210519_power2amp/equal_lnn_AM4Hz_s15_20.m4a,,,
,,,,,,,,,,,,41248,2021-06-05_18h22.26.203,judgeSpeechMusic_20210519_logNormShiftAmp_mXs,2020.1.2,Linux x86_64,60,,,,,,,,,,,,,,2,11.272805,,0,0,73,73,84,1,stimuli/stim_20210519_power2amp/equal_lnn_AM2.5Hz_s45_6.m4a,,,
,,,,,,,,,,,,41248,2021-06-05_18h22.26.203,judgeSpeechMusic_20210519_logNormShiftAmp_mXs,2020.1.2,Linux x86_64,60,,,,,,,,,,,,,,1,8.047965,,0,0,74,74,87,1,stimuli/stim_20210519_power2amp/equal_lnn_AM2.5Hz_s45_23.m4a,,,
,,,,,,,,,,,,41248,2021-06-05_18h22.26.203,judgeSpeechMusic_20210519_logNormShiftAmp_mXs,2020.1.2,Linux x86_64,60,,,,,,,,,,,,,,2,12.24784,,0,0,75,75,109,1,stimuli/stim_20210519_power2amp/equal_lnn_AM4Hz_s15_17.m4a,,,
,,,,,,,,,,,,41248,2021-06-05_18h22.26.203,judgeSpeechMusic_20210519_logNormShiftAmp_mXs,2020.1.2,Linux x86_64,60,,,,,,,,,,,,,,1,7.43266,,0,0,76,76,38,1,stimuli/stim_20210519_power2amp/equal_lnn_AM1Hz_s45_7.m4a,,,
,,,,,,,,,,,,41248,2021-06-05_18h22.26.203,judgeSpeechMusic_20210519_logNormShiftAmp_mXs,2020.1.2,Linux x86_64,60,,,,,,,,,,,,,,2,9.852635,,0,0,77,77,41,1,stimuli/stim_20210519_power2amp/equal_lnn_AM1Hz_s55_19.m4a,,,
,,,,,,,,,,,,41248,2021-06-05_18h22.26.203,judgeSpeechMusic_20210519_logNormShiftAmp_mXs,2020.1.2,Linux x86_64,60,,,,,,,,,,,,,,1,8.68641,,0,0,78,78,95,1,stimuli/stim_20210519_power2amp/equal_lnn_AM2.5Hz_s55_3.m4a,,,
,,,,,,,,,,,,41248,2021-06-05_18h22.26.203,judgeSpeechMusic_20210519_logNormShiftAmp_mXs,2020.1.2,Linux x86_64,60,,,,,,,,,,,,,,1,7.89282,,0,0,79,79,15,1,stimuli/stim_20210519_power2amp/equal_lnn_AM1Hz_s25_34.m4a,,,
,,,,,,,,,,,,41248,2021-06-05_18h22.26.203,judgeSpeechMusic_20210519_logNormShiftAmp_mXs,2020.1.2,Linux x86_64,60,,,,,,,,,,,,,,2,7.12047,,0,0,80,80,27,1,stimuli/stim_20210519_power2amp/equal_lnn_AM1Hz_s35_2.m4a,,,
,,,,,,,,,,,,41248,2021-06-05_18h22.26.203,judgeSpeechMusic_20210519_logNormShiftAmp_mXs,2020.1.2,Linux x86_64,60,,,,,,,,,,,,,,1,8.386795,4,1,0,81,81,122,1,stimuli/stim_20210519_power2amp/equal_lnn_AM4Hz_s35_31.m4a,4.807755,,
,,,,,,,,,,,,41248,2021-06-05_18h22.26.203,judgeSpeechMusic_20210519_logNormShiftAmp_mXs,2020.1.2,Linux x86_64,60,,,,,,,,,,,,,,2,7.683915,,0,0,82,82,35,1,stimuli/stim_20210519_power2amp/equal_lnn_AM1Hz_s45_15.m4a,,,
,,,,,,,,,,,,41248,2021-06-05_18h22.26.203,judgeSpeechMusic_20210519_logNormShiftAmp_mXs,2020.1.2,Linux x86_64,60,,,,,,,,,,,,,,1,6.985285,,0,0,83,83,88,1,stimuli/stim_20210519_power2amp/equal_lnn_AM2.5Hz_s45_45.m4a,,,
,,,,,,,,,,,,41248,2021-06-05_18h22.26.203,judgeSpeechMusic_20210519_logNormShiftAmp_mXs,2020.1.2,Linux x86_64,60,,,,,,,,,,,,,,1,7.645505,,0,0,84,84,120,1,stimuli/stim_20210519_power2amp/equal_lnn_AM4Hz_s35_8.m4a,,,
,,,,,,,,,,,,41248,2021-06-05_18h22.26.203,judgeSpeechMusic_20210519_logNormShiftAmp_mXs,2020.1.2,Linux x86_64,60,,,,,,,,,,,,,,1,8.802975,,0,0,85,85,79,1,stimuli/stim_20210519_power2amp/equal_lnn_AM2.5Hz_s35_21.m4a,,,
,,,,,,,,,,,,41248,2021-06-05_18h22.26.203,judgeSpeechMusic_20210519_logNormShiftAmp_mXs,2020.1.2,Linux x86_64,60,,,,,,,,,,,,,,1,7.60308,,0,0,86,86,4,1,stimuli/stim_20210519_power2amp/equal_lnn_AM1Hz_s15_20.m4a,,,
,,,,,,,,,,,,41248,2021-06-05_18h22.26.203,judgeSpeechMusic_20210519_logNormShiftAmp_mXs,2020.1.2,Linux x86_64,60,,,,,,,,,,,,,,2,7.156295,,0,0,87,87,55,1,stimuli/stim_20210519_power2amp/equal_lnn_AM2.5Hz_s15_26.m4a,,,
,,,,,,,,,,,,41248,2021-06-05_18h22.26.203,judgeSpeechMusic_20210519_logNormShiftAmp_mXs,2020.1.2,Linux x86_64,60,,,,,,,,,,,,,,1,9.27014,,0,0,88,88,82,1,stimuli/stim_20210519_power2amp/equal_lnn_AM2.5Hz_s45_27.m4a,,,
,,,,,,,,,,,,41248,2021-06-05_18h22.26.203,judgeSpeechMusic_20210519_logNormShiftAmp_mXs,2020.1.2,Linux x86_64,60,,,,,,,,,,,,,,2,6.11823,,0,0,89,89,118,1,stimuli/stim_20210519_power2amp/equal_lnn_AM4Hz_s25_45.m4a,,,
,,,,,,,,,,,,41248,2021-06-05_18h22.26.203,judgeSpeechMusic_20210519_logNormShiftAmp_mXs,2020.1.2,Linux x86_64,60,,,,,,,,,,,,,,1,7.026085,,0,0,90,90,66,1,stimuli/stim_20210519_power2amp/equal_lnn_AM2.5Hz_s25_18.m4a,,,
,,,,,,,,,,,,41248,2021-06-05_18h22.26.203,judgeSpeechMusic_20210519_logNormShiftAmp_mXs,2020.1.2,Linux x86_64,60,,,,,,,,,,,,,,2,7.297095,,0,0,91,91,29,1,stimuli/stim_20210519_power2amp/equal_lnn_AM1Hz_s35_32.m4a,,,
,,,,,,,,,,,,41248,2021-06-05_18h22.26.203,judgeSpeechMusic_20210519_logNormShiftAmp_mXs,2020.1.2,Linux x86_64,60,,,,,,,,,,,,,,2,7.60897,,0,0,92,92,36,1,stimuli/stim_20210519_power2amp/equal_lnn_AM1Hz_s45_40.m4a,,,
,,,,,,,,,,,,41248,2021-06-05_18h22.26.203,judgeSpeechMusic_20210519_logNormShiftAmp_mXs,2020.1.2,Linux x86_64,60,,,,,,,,,,,,,,1,10.51203,,0,0,93,93,78,1,stimuli/stim_20210519_power2amp/equal_lnn_AM2.5Hz_s35_41.m4a,,,
,,,,,,,,,,,,41248,2021-06-05_18h22.26.203,judgeSpeechMusic_20210519_logNormShiftAmp_mXs,2020.1.2,Linux x86_64,60,,,,,,,,,,,,,,1,10.684115,,0,0,94,94,135,1,stimuli/stim_20210519_power2amp/equal_lnn_AM4Hz_s45_50.m4a,,,
,,,,,,,,,,,,41248,2021-06-05_18h22.26.203,judgeSpeechMusic_20210519_logNormShiftAmp_mXs,2020.1.2,Linux x86_64,60,,,,,,,,,,,,,,2,10.25839,,0,0,95,95,142,1,stimuli/stim_20210519_power2amp/equal_lnn_AM4Hz_s55_48.m4a,,,
,,,,,,,,,,,,41248,2021-06-05_18h22.26.203,judgeSpeechMusic_20210519_logNormShiftAmp_mXs,2020.1.2,Linux x86_64,60,,,,,,,,,,,,,,1,8.06462,,0,0,96,96,60,1,stimuli/stim_20210519_power2amp/equal_lnn_AM2.5Hz_s25_26.m4a,,,
,,,,,,,,,,,,41248,2021-06-05_18h22.26.203,judgeSpeechMusic_20210519_logNormShiftAmp_mXs,2020.1.2,Linux x86_64,60,,,,,,,,,,,,,,1,8.75712,,0,0,97,97,112,1,stimuli/stim_20210519_power2amp/equal_lnn_AM4Hz_s25_11.m4a,,,
,,,,,,,,,,,,41248,2021-06-05_18h22.26.203,judgeSpeechMusic_20210519_logNormShiftAmp_mXs,2020.1.2,Linux x86_64,60,,,,,,,,,,,,,,1,9.38909,,0,0,98,98,110,1,stimuli/stim_20210519_power2amp/equal_lnn_AM4Hz_s25_13.m4a,,,
,,,,,,,,,,,,41248,2021-06-05_18h22.26.203,judgeSpeechMusic_20210519_logNormShiftAmp_mXs,2020.1.2,Linux x86_64,60,,,,,,,,,,,,,,1,10.89035,,0,0,99,99,64,1,stimuli/stim_20210519_power2amp/equal_lnn_AM2.5Hz_s25_6.m4a,,,
,,,,,,,,,,,,41248,2021-06-05_18h22.26.203,judgeSpeechMusic_20210519_logNormShiftAmp_mXs,2020.1.2,Linux x86_64,60,,,,,,,,,,,,,,2,6.307295,,0,0,100,100,105,1,stimuli/stim_20210519_power2amp/equal_lnn_AM4Hz_s15_7.m4a,,,
,,,,,,,,,,,,41248,2021-06-05_18h22.26.203,judgeSpeechMusic_20210519_logNormShiftAmp_mXs,2020.1.2,Linux x86_64,60,,,,,,,,,,,,,,1,8.080655,,0,0,101,101,100,1,stimuli/stim_20210519_power2amp/equal_lnn_AM4Hz_s15_13.m4a,,,
,,,,,,,,,,,,41248,2021-06-05_18h22.26.203,judgeSpeechMusic_20210519_logNormShiftAmp_mXs,2020.1.2,Linux x86_64,60,,,,,,,,,,,,,,1,6.58794,3,1,0,102,102,106,1,stimuli/stim_20210519_power2amp/equal_lnn_AM4Hz_s15_50.m4a,3.53544,,
,,,,,,,,,,,,41248,2021-06-05_18h22.26.203,judgeSpeechMusic_20210519_logNormShiftAmp_mXs,2020.1.2,Linux x86_64,60,,,,,,,,,,,,,,2,6.762685,,0,0,103,103,26,1,stimuli/stim_20210519_power2amp/equal_lnn_AM1Hz_s35_8.m4a,,,
,,,,,,,,,,,,41248,2021-06-05_18h22.26.203,judgeSpeechMusic_20210519_logNormShiftAmp_mXs,2020.1.2,Linux x86_64,60,,,,,,,,,,,,,,1,7.574945,,0,0,104,104,103,1,stimuli/stim_20210519_power2amp/equal_lnn_AM4Hz_s15_18.m4a,,,
,,,,,,,,,,,,41248,2021-06-05_18h22.26.203,judgeSpeechMusic_20210519_logNormShiftAmp_mXs,2020.1.2,Linux x86_64,60,,,,,,,,,,,,,,1,8.4652,,0,0,105,105,30,1,stimuli/stim_20210519_power2amp/equal_lnn_AM1Hz_s45_35.m4a,,,
,,,,,,,,,,,,41248,2021-06-05_18h22.26.203,judgeSpeechMusic_20210519_logNormShiftAmp_mXs,2020.1.2,Linux x86_64,60,,,,,,,,,,,,,,2,8.300075,,0,0,106,106,97,1,stimuli/stim_20210519_power2amp/equal_lnn_AM2.5Hz_s55_2.m4a,,,
,,,,,,,,,,,,41248,2021-06-05_18h22.26.203,judgeSpeechMusic_20210519_logNormShiftAmp_mXs,2020.1.2,Linux x86_64,60,,,,,,,,,,,,,,2,7.62418,,0,0,107,107,0,1,stimuli/stim_20210519_power2amp/equal_lnn_AM1Hz_s15_25.m4a,,,
,,,,,,,,,,,,41248,2021-06-05_18h22.26.203,judgeSpeechMusic_20210519_logNormShiftAmp_mXs,2020.1.2,Linux x86_64,60,,,,,,,,,,,,,,2,9.08121,,0,0,108,108,149,1,stimuli/stim_20210519_power2amp/equal_lnn_AM4Hz_s55_15.m4a,,,
,,,,,,,,,,,,41248,2021-06-05_18h22.26.203,judgeSpeechMusic_20210519_logNormShiftAmp_mXs,2020.1.2,Linux x86_64,60,,,,,,,,,,,,,,2,8.711955,,0,0,109,109,31,1,stimuli/stim_20210519_power2amp/equal_lnn_AM1Hz_s45_32.m4a,,,
,,,,,,,,,,,,41248,2021-06-05_18h22.26.203,judgeSpeechMusic_20210519_logNormShiftAmp_mXs,2020.1.2,Linux x86_64,60,,,,,,,,,,,,,,1,7.04322,,0,0,110,110,145,1,stimuli/stim_20210519_power2amp/equal_lnn_AM4Hz_s55_41.m4a,,,
,,,,,,,,,,,,41248,2021-06-05_18h22.26.203,judgeSpeechMusic_20210519_logNormShiftAmp_mXs,2020.1.2,Linux x86_64,60,,,,,,,,,,,,,,1,6.937485,,0,0,111,111,102,1,stimuli/stim_20210519_power2amp/equal_lnn_AM4Hz_s15_42.m4a,,,
,,,,,,,,,,,,41248,2021-06-05_18h22.26.203,judgeSpeechMusic_20210519_logNormShiftAmp_mXs,2020.1.2,Linux x86_64,60,,,,,,,,,,,,,,1,6.55465,,0,0,112,112,138,1,stimuli/stim_20210519_power2amp/equal_lnn_AM4Hz_s45_30.m4a,,,
,,,,,,,,,,,,41248,2021-06-05_18h22.26.203,judgeSpeechMusic_20210519_logNormShiftAmp_mXs,2020.1.2,Linux x86_64,60,,,,,,,,,,,,,,1,6.519255,,0,0,113,113,104,1,stimuli/stim_20210519_power2amp/equal_lnn_AM4Hz_s15_36.m4a,,,
,,,,,,,,,,,,41248,2021-06-05_18h22.26.203,judgeSpeechMusic_20210519_logNormShiftAmp_mXs,2020.1.2,Linux x86_64,60,,,,,,,,,,,,,,1,6.032885,,0,0,114,114,63,1,stimuli/stim_20210519_power2amp/equal_lnn_AM2.5Hz_s25_44.m4a,,,
,,,,,,,,,,,,41248,2021-06-05_18h22.26.203,judgeSpeechMusic_20210519_logNormShiftAmp_mXs,2020.1.2,Linux x86_64,60,,,,,,,,,,,,,,2,6.177725,,0,0,115,115,23,1,stimuli/stim_20210519_power2amp/equal_lnn_AM1Hz_s35_30.m4a,,,
,,,,,,,,,,,,41248,2021-06-05_18h22.26.203,judgeSpeechMusic_20210519_logNormShiftAmp_mXs,2020.1.2,Linux x86_64,60,,,,,,,,,,,,,,1,8.709505,,0,0,116,116,119,1,stimuli/stim_20210519_power2amp/equal_lnn_AM4Hz_s25_22.m4a,,,
,,,,,,,,,,,,41248,2021-06-05_18h22.26.203,judgeSpeechMusic_20210519_logNormShiftAmp_mXs,2020.1.2,Linux x86_64,60,,,,,,,,,,,,,,1,8.70272,,0,0,117,117,13,1,stimuli/stim_20210519_power2amp/equal_lnn_AM1Hz_s25_2.m4a,,,
,,,,,,,,,,,,41248,2021-06-05_18h22.26.203,judgeSpeechMusic_20210519_logNormShiftAmp_mXs,2020.1.2,Linux x86_64,60,,,,,,,,,,,,,,2,7.04407,,0,0,118,118,10,1,stimuli/stim_20210519_power2amp/equal_lnn_AM1Hz_s25_15.m4a,,,
,,,,,,,,,,,,41248,2021-06-05_18h22.26.203,judgeSpeechMusic_20210519_logNormShiftAmp_mXs,2020.1.2,Linux x86_64,60,,,,,,,,,,,,,,2,11.86373,,0,0,119,119,59,1,stimuli/stim_20210519_power2amp/equal_lnn_AM2.5Hz_s15_49.m4a,,,
,,,,,,,,,,,,41248,2021-06-05_18h22.26.203,judgeSpeechMusic_20210519_logNormShiftAmp_mXs,2020.1.2,Linux x86_64,60,,,,,,,,,,,,,,2,7.11799,,0,0,120,120,12,1,stimuli/stim_20210519_power2amp/equal_lnn_AM1Hz_s25_10.m4a,,,
,,,,,,,,,,,,41248,2021-06-05_18h22.26.203,judgeSpeechMusic_20210519_logNormShiftAmp_mXs,2020.1.2,Linux x86_64,60,,,,,,,,,,,,,,1,8.97985,,0,0,121,121,14,1,stimuli/stim_20210519_power2amp/equal_lnn_AM1Hz_s25_44.m4a,,,
,,,,,,,,,,,,41248,2021-06-05_18h22.26.203,judgeSpeechMusic_20210519_logNormShiftAmp_mXs,2020.1.2,Linux x86_64,60,,,,,,,,,,,,,,2,7.162315,,0,0,122,122,44,1,stimuli/stim_20210519_power2amp/equal_lnn_AM1Hz_s55_8.m4a,,,
,,,,,,,,,,,,41248,2021-06-05_18h22.26.203,judgeSpeechMusic_20210519_logNormShiftAmp_mXs,2020.1.2,Linux x86_64,60,,,,,,,,,,,,,,1,8.080045,3,1,0,123,123,39,1,stimuli/stim_20210519_power2amp/equal_lnn_AM1Hz_s45_19.m4a,2.03411,,
,,,,,,,,,,,,41248,2021-06-05_18h22.26.203,judgeSpeechMusic_20210519_logNormShiftAmp_mXs,2020.1.2,Linux x86_64,60,,,,,,,,,,,,,,2,7.901595,,0,0,124,124,5,1,stimuli/stim_20210519_power2amp/equal_lnn_AM1Hz_s15_39.m4a,,,
,,,,,,,,,,,,41248,2021-06-05_18h22.26.203,judgeSpeechMusic_20210519_logNormShiftAmp_mXs,2020.1.2,Linux x86_64,60,,,,,,,,,,,,,,1,6.772535,,0,0,125,125,136,1,stimuli/stim_20210519_power2amp/equal_lnn_AM4Hz_s45_3.m4a,,,
,,,,,,,,,,,,41248,2021-06-05_18h22.26.203,judgeSpeechMusic_20210519_logNormShiftAmp_mXs,2020.1.2,Linux x86_64,60,,,,,,,,,,,,,,1,6.673045,,0,0,126,126,99,1,stimuli/stim_20210519_power2amp/equal_lnn_AM2.5Hz_s55_29.m4a,,,
,,,,,,,,,,,,41248,2021-06-05_18h22.26.203,judgeSpeechMusic_20210519_logNormShiftAmp_mXs,2020.1.2,Linux x86_64,60,,,,,,,,,,,,,,1,6.500215,,0,0,127,127,125,1,stimuli/stim_20210519_power2amp/equal_lnn_AM4Hz_s35_35.m4a,,,
,,,,,,,,,,,,41248,2021-06-05_18h22.26.203,judgeSpeechMusic_20210519_logNormShiftAmp_mXs,2020.1.2,Linux x86_64,60,,,,,,,,,,,,,,2,7.360835,,0,0,128,128,28,1,stimuli/stim_20210519_power2amp/equal_lnn_AM1Hz_s35_43.m4a,,,
,,,,,,,,,,,,41248,2021-06-05_18h22.26.203,judgeSpeechMusic_20210519_logNormShiftAmp_mXs,2020.1.2,Linux x86_64,60,,,,,,,,,,,,,,2,9.18799,,0,0,129,129,48,1,stimuli/stim_20210519_power2amp/equal_lnn_AM1Hz_s55_39.m4a,,,
,,,,,,,,,,,,41248,2021-06-05_18h22.26.203,judgeSpeechMusic_20210519_logNormShiftAmp_mXs,2020.1.2,Linux x86_64,60,,,,,,,,,,,,,,1,7.56203,,0,0,130,130,2,1,stimuli/stim_20210519_power2amp/equal_lnn_AM1Hz_s15_47.m4a,,,
,,,,,,,,,,,,41248,2021-06-05_18h22.26.203,judgeSpeechMusic_20210519_logNormShiftAmp_mXs,2020.1.2,Linux x86_64,60,,,,,,,,,,,,,,1,9.17833,,0,0,131,131,92,1,stimuli/stim_20210519_power2amp/equal_lnn_AM2.5Hz_s55_27.m4a,,,
,,,,,,,,,,,,41248,2021-06-05_18h22.26.203,judgeSpeechMusic_20210519_logNormShiftAmp_mXs,2020.1.2,Linux x86_64,60,,,,,,,,,,,,,,1,11.095525,,0,0,132,132,132,1,stimuli/stim_20210519_power2amp/equal_lnn_AM4Hz_s45_27.m4a,,,
,,,,,,,,,,,,41248,2021-06-05_18h22.26.203,judgeSpeechMusic_20210519_logNormShiftAmp_mXs,2020.1.2,Linux x86_64,60,,,,,,,,,,,,,,1,11.836315,,0,0,133,133,141,1,stimuli/stim_20210519_power2amp/equal_lnn_AM4Hz_s55_25.m4a,,,
,,,,,,,,,,,,41248,2021-06-05_18h22.26.203,judgeSpeechMusic_20210519_logNormShiftAmp_mXs,2020.1.2,Linux x86_64,60,,,,,,,,,,,,,,2,6.86328,,0,0,134,134,137,1,stimuli/stim_20210519_power2amp/equal_lnn_AM4Hz_s45_7.m4a,,,
,,,,,,,,,,,,41248,2021-06-05_18h22.26.203,judgeSpeechMusic_20210519_logNormShiftAmp_mXs,2020.1.2,Linux x86_64,60,,,,,,,,,,,,,,2,6.94028,,0,0,135,135,20,1,stimuli/stim_20210519_power2amp/equal_lnn_AM1Hz_s35_11.m4a,,,
,,,,,,,,,,,,41248,2021-06-05_18h22.26.203,judgeSpeechMusic_20210519_logNormShiftAmp_mXs,2020.1.2,Linux x86_64,60,,,,,,,,,,,,,,2,7.769835,,0,0,136,136,1,1,stimuli/stim_20210519_power2amp/equal_lnn_AM1Hz_s15_19.m4a,,,
,,,,,,,,,,,,41248,2021-06-05_18h22.26.203,judgeSpeechMusic_20210519_logNormShiftAmp_mXs,2020.1.2,Linux x86_64,60,,,,,,,,,,,,,,2,7.28006,,0,0,137,137,71,1,stimuli/stim_20210519_power2amp/equal_lnn_AM2.5Hz_s35_10.m4a,,,
,,,,,,,,,,,,41248,2021-06-05_18h22.26.203,judgeSpeechMusic_20210519_logNormShiftAmp_mXs,2020.1.2,Linux x86_64,60,,,,,,,,,,,,,,1,6.01763,,0,0,138,138,140,1,stimuli/stim_20210519_power2amp/equal_lnn_AM4Hz_s55_44.m4a,,,
,,,,,,,,,,,,41248,2021-06-05_18h22.26.203,judgeSpeechMusic_20210519_logNormShiftAmp_mXs,2020.1.2,Linux x86_64,60,,,,,,,,,,,,,,1,10.69545,,0,0,139,139,133,1,stimuli/stim_20210519_power2amp/equal_lnn_AM4Hz_s45_6.m4a,,,
,,,,,,,,,,,,41248,2021-06-05_18h22.26.203,judgeSpeechMusic_20210519_logNormShiftAmp_mXs,2020.1.2,Linux x86_64,60,,,,,,,,,,,,,,1,9.35627,,0,0,140,140,45,1,stimuli/stim_20210519_power2amp/equal_lnn_AM1Hz_s55_43.m4a,,,
,,,,,,,,,,,,41248,2021-06-05_18h22.26.203,judgeSpeechMusic_20210519_logNormShiftAmp_mXs,2020.1.2,Linux x86_64,60,,,,,,,,,,,,,,1,6.818305,,0,0,141,141,7,1,stimuli/stim_20210519_power2amp/equal_lnn_AM1Hz_s15_3.m4a,,,
,,,,,,,,,,,,41248,2021-06-05_18h22.26.203,judgeSpeechMusic_20210519_logNormShiftAmp_mXs,2020.1.2,Linux x86_64,60,,,,,,,,,,,,,,1,7.280685,,0,0,142,142,93,1,stimuli/stim_20210519_power2amp/equal_lnn_AM2.5Hz_s55_10.m4a,,,
,,,,,,,,,,,,41248,2021-06-05_18h22.26.203,judgeSpeechMusic_20210519_logNormShiftAmp_mXs,2020.1.2,Linux x86_64,60,,,,,,,,,,,,,,2,7.955775,,0,0,143,143,43,1,stimuli/stim_20210519_power2amp/equal_lnn_AM1Hz_s55_5.m4a,,,
,,,,,,,,,,,,41248,2021-06-05_18h22.26.203,judgeSpeechMusic_20210519_logNormShiftAmp_mXs,2020.1.2,Linux x86_64,60,,,,,,,,,,,,,,1,7.284895,,0,0,144,144,77,1,stimuli/stim_20210519_power2amp/equal_lnn_AM2.5Hz_s35_15.m4a,,,
,,,,,,,,,,,,41248,2021-06-05_18h22.26.203,judgeSpeechMusic_20210519_logNormShiftAmp_mXs,2020.1.2,Linux x86_64,60,,,,,,,,,,,,,,1,11.04163,1,1,0,145,145,73,1,stimuli/stim_20210519_power2amp/equal_lnn_AM2.5Hz_s35_12.m4a,2.033525,,
,,,,,,,,,,,,41248,2021-06-05_18h22.26.203,judgeSpeechMusic_20210519_logNormShiftAmp_mXs,2020.1.2,Linux x86_64,60,,,,,,,,,,,,,,2,14.933565,,0,0,146,146,33,1,stimuli/stim_20210519_power2amp/equal_lnn_AM1Hz_s45_49.m4a,,,
,,,,,,,,,,,,41248,2021-06-05_18h22.26.203,judgeSpeechMusic_20210519_logNormShiftAmp_mXs,2020.1.2,Linux x86_64,60,,,,,,,,,,,,,,2,6.12092,,0,0,147,147,8,1,stimuli/stim_20210519_power2amp/equal_lnn_AM1Hz_s15_8.m4a,,,
,,,,,,,,,,,,41248,2021-06-05_18h22.26.203,judgeSpeechMusic_20210519_logNormShiftAmp_mXs,2020.1.2,Linux x86_64,60,,,,,,,,,,,,,,1,6.733815,,0,0,148,148,115,1,stimuli/stim_20210519_power2amp/equal_lnn_AM4Hz_s25_9.m4a,,,
,,,,,,,,,,,,41248,2021-06-05_18h22.26.203,judgeSpeechMusic_20210519_logNormShiftAmp_mXs,2020.1.2,Linux x86_64,60,,,,,,,,,,,,,,1,7.56106,,0,0,149,149,126,1,stimuli/stim_20210519_power2amp/equal_lnn_AM4Hz_s35_30.m4a,,,
,,,,,,,,,,,,41248,2021-06-05_18h22.26.203,judgeSpeechMusic_20210519_logNormShiftAmp_mXs,2020.1.2,Linux x86_64,60,,,,,,,,,,,,,,1,7.45671,,0,1,0,150,135,1,stimuli/stim_20210519_power2amp/equal_lnn_AM4Hz_s45_50.m4a,,,
,,,,,,,,,,,,41248,2021-06-05_18h22.26.203,judgeSpeechMusic_20210519_logNormShiftAmp_mXs,2020.1.2,Linux x86_64,60,,,,,,,,,,,,,,2,6.85358,,0,1,1,151,16,1,stimuli/stim_20210519_power2amp/equal_lnn_AM1Hz_s25_6.m4a,,,
,,,,,,,,,,,,41248,2021-06-05_18h22.26.203,judgeSpeechMusic_20210519_logNormShiftAmp_mXs,2020.1.2,Linux x86_64,60,,,,,,,,,,,,,,1,6.12576,,0,1,2,152,63,1,stimuli/stim_20210519_power2amp/equal_lnn_AM2.5Hz_s25_44.m4a,,,
,,,,,,,,,,,,41248,2021-06-05_18h22.26.203,judgeSpeechMusic_20210519_logNormShiftAmp_mXs,2020.1.2,Linux x86_64,60,,,,,,,,,,,,,,2,6.9288,,0,1,3,153,36,1,stimuli/stim_20210519_power2amp/equal_lnn_AM1Hz_s45_40.m4a,,,
,,,,,,,,,,,,41248,2021-06-05_18h22.26.203,judgeSpeechMusic_20210519_logNormShiftAmp_mXs,2020.1.2,Linux x86_64,60,,,,,,,,,,,,,,2,6.83858,,0,1,4,154,0,1,stimuli/stim_20210519_power2amp/equal_lnn_AM1Hz_s15_25.m4a,,,
,,,,,,,,,,,,41248,2021-06-05_18h22.26.203,judgeSpeechMusic_20210519_logNormShiftAmp_mXs,2020.1.2,Linux x86_64,60,,,,,,,,,,,,,,2,7.354305,,0,1,5,155,19,1,stimuli/stim_20210519_power2amp/equal_lnn_AM1Hz_s25_3.m4a,,,
,,,,,,,,,,,,41248,2021-06-05_18h22.26.203,judgeSpeechMusic_20210519_logNormShiftAmp_mXs,2020.1.2,Linux x86_64,60,,,,,,,,,,,,,,1,6.5793,,0,1,6,156,100,1,stimuli/stim_20210519_power2amp/equal_lnn_AM4Hz_s15_13.m4a,,,
,,,,,,,,,,,,41248,2021-06-05_18h22.26.203,judgeSpeechMusic_20210519_logNormShiftAmp_mXs,2020.1.2,Linux x86_64,60,,,,,,,,,,,,,,1,6.559885,,0,1,7,157,136,1,stimuli/stim_20210519_power2amp/equal_lnn_AM4Hz_s45_3.m4a,,,
,,,,,,,,,,,,41248,2021-06-05_18h22.26.203,judgeSpeechMusic_20210519_logNormShiftAmp_mXs,2020.1.2,Linux x86_64,60,,,,,,,,,,,,,,1,6.833535,,0,1,8,158,107,1,stimuli/stim_20210519_power2amp/equal_lnn_AM4Hz_s15_20.m4a,,,
,,,,,,,,,,,,41248,2021-06-05_18h22.26.203,judgeSpeechMusic_20210519_logNormShiftAmp_mXs,2020.1.2,Linux x86_64,60,,,,,,,,,,,,,,2,6.808095,,0,1,9,159,66,1,stimuli/stim_20210519_power2amp/equal_lnn_AM2.5Hz_s25_18.m4a,,,
,,,,,,,,,,,,41248,2021-06-05_18h22.26.203,judgeSpeechMusic_20210519_logNormShiftAmp_mXs,2020.1.2,Linux x86_64,60,,,,,,,,,,,,,,1,7.070485,,0,1,10,160,97,1,stimuli/stim_20210519_power2amp/equal_lnn_AM2.5Hz_s55_2.m4a,,,
,,,,,,,,,,,,41248,2021-06-05_18h22.26.203,judgeSpeechMusic_20210519_logNormShiftAmp_mXs,2020.1.2,Linux x86_64,60,,,,,,,,,,,,,,2,9.40828,,0,1,11,161,137,1,stimuli/stim_20210519_power2amp/equal_lnn_AM4Hz_s45_7.m4a,,,
,,,,,,,,,,,,41248,2021-06-05_18h22.26.203,judgeSpeechMusic_20210519_logNormShiftAmp_mXs,2020.1.2,Linux x86_64,60,,,,,,,,,,,,,,1,7.54337,,0,1,12,162,29,1,stimuli/stim_20210519_power2amp/equal_lnn_AM1Hz_s35_32.m4a,,,
,,,,,,,,,,,,41248,2021-06-05_18h22.26.203,judgeSpeechMusic_20210519_logNormShiftAmp_mXs,2020.1.2,Linux x86_64,60,,,,,,,,,,,,,,2,6.19379,,0,1,13,163,4,1,stimuli/stim_20210519_power2amp/equal_lnn_AM1Hz_s15_20.m4a,,,
,,,,,,,,,,,,41248,2021-06-05_18h22.26.203,judgeSpeechMusic_20210519_logNormShiftAmp_mXs,2020.1.2,Linux x86_64,60,,,,,,,,,,,,,,1,6.598755,,0,1,14,164,144,1,stimuli/stim_20210519_power2amp/equal_lnn_AM4Hz_s55_19.m4a,,,
,,,,,,,,,,,,41248,2021-06-05_18h22.26.203,judgeSpeechMusic_20210519_logNormShiftAmp_mXs,2020.1.2,Linux x86_64,60,,,,,,,,,,,,,,1,5.72892,,0,1,15,165,115,1,stimuli/stim_20210519_power2amp/equal_lnn_AM4Hz_s25_9.m4a,,,
,,,,,,,,,,,,41248,2021-06-05_18h22.26.203,judgeSpeechMusic_20210519_logNormShiftAmp_mXs,2020.1.2,Linux x86_64,60,,,,,,,,,,,,,,2,6.366625,,0,1,16,166,15,1,stimuli/stim_20210519_power2amp/equal_lnn_AM1Hz_s25_34.m4a,,,
,,,,,,,,,,,,41248,2021-06-05_18h22.26.203,judgeSpeechMusic_20210519_logNormShiftAmp_mXs,2020.1.2,Linux x86_64,60,,,,,,,,,,,,,,1,9.486495,3,1,1,17,167,96,1,stimuli/stim_20210519_power2amp/equal_lnn_AM2.5Hz_s55_23.m4a,2.08137,,
,,,,,,,,,,,,41248,2021-06-05_18h22.26.203,judgeSpeechMusic_20210519_logNormShiftAmp_mXs,2020.1.2,Linux x86_64,60,,,,,,,,,,,,,,2,6.573225,,0,1,18,168,22,1,stimuli/stim_20210519_power2amp/equal_lnn_AM1Hz_s35_37.m4a,,,
,,,,,,,,,,,,41248,2021-06-05_18h22.26.203,judgeSpeechMusic_20210519_logNormShiftAmp_mXs,2020.1.2,Linux x86_64,60,,,,,,,,,,,,,,2,8.653045,,0,1,19,169,8,1,stimuli/stim_20210519_power2amp/equal_lnn_AM1Hz_s15_8.m4a,,,
,,,,,,,,,,,,41248,2021-06-05_18h22.26.203,judgeSpeechMusic_20210519_logNormShiftAmp_mXs,2020.1.2,Linux x86_64,60,,,,,,,,,,,,,,1,7.128225,,0,1,20,170,145,1,stimuli/stim_20210519_power2amp/equal_lnn_AM4Hz_s55_41.m4a,,,
,,,,,,,,,,,,41248,2021-06-05_18h22.26.203,judgeSpeechMusic_20210519_logNormShiftAmp_mXs,2020.1.2,Linux x86_64,60,,,,,,,,,,,,,,2,10.353265,,0,1,21,171,98,1,stimuli/stim_20210519_power2amp/equal_lnn_AM2.5Hz_s55_45.m4a,,,
,,,,,,,,,,,,41248,2021-06-05_18h22.26.203,judgeSpeechMusic_20210519_logNormShiftAmp_mXs,2020.1.2,Linux x86_64,60,,,,,,,,,,,,,,2,5.83975,,0,1,22,172,57,1,stimuli/stim_20210519_power2amp/equal_lnn_AM2.5Hz_s15_9.m4a,,,
,,,,,,,,,,,,41248,2021-06-05_18h22.26.203,judgeSpeechMusic_20210519_logNormShiftAmp_mXs,2020.1.2,Linux x86_64,60,,,,,,,,,,,,,,2,6.550515,,0,1,23,173,18,1,stimuli/stim_20210519_power2amp/equal_lnn_AM1Hz_s25_40.m4a,,,
,,,,,,,,,,,,41248,2021-06-05_18h22.26.203,judgeSpeechMusic_20210519_logNormShiftAmp_mXs,2020.1.2,Linux x86_64,60,,,,,,,,,,,,,,1,5.844555,,0,1,24,174,90,1,stimuli/stim_20210519_power2amp/equal_lnn_AM2.5Hz_s55_14.m4a,,,
,,,,,,,,,,,,41248,2021-06-05_18h22.26.203,judgeSpeechMusic_20210519_logNormShiftAmp_mXs,2020.1.2,Linux x86_64,60,,,,,,,,,,,,,,2,5.69416,,0,1,25,175,27,1,stimuli/stim_20210519_power2amp/equal_lnn_AM1Hz_s35_2.m4a,,,
,,,,,,,,,,,,41248,2021-06-05_18h22.26.203,judgeSpeechMusic_20210519_logNormShiftAmp_mXs,2020.1.2,Linux x86_64,60,,,,,,,,,,,,,,1,6.011515,,0,1,26,176,41,1,stimuli/stim_20210519_power2amp/equal_lnn_AM1Hz_s55_19.m4a,,,
,,,,,,,,,,,,41248,2021-06-05_18h22.26.203,judgeSpeechMusic_20210519_logNormShiftAmp_mXs,2020.1.2,Linux x86_64,60,,,,,,,,,,,,,,2,13.29244,,0,1,27,177,30,1,stimuli/stim_20210519_power2amp/equal_lnn_AM1Hz_s45_35.m4a,,,
,,,,,,,,,,,,41248,2021-06-05_18h22.26.203,judgeSpeechMusic_20210519_logNormShiftAmp_mXs,2020.1.2,Linux x86_64,60,,,,,,,,,,,,,,1,9.960875,,0,1,28,178,125,1,stimuli/stim_20210519_power2amp/equal_lnn_AM4Hz_s35_35.m4a,,,
,,,,,,,,,,,,41248,2021-06-05_18h22.26.203,judgeSpeechMusic_20210519_logNormShiftAmp_mXs,2020.1.2,Linux x86_64,60,,,,,,,,,,,,,,2,12.106685,,0,1,29,179,75,1,stimuli/stim_20210519_power2amp/equal_lnn_AM2.5Hz_s35_44.m4a,,,
,,,,,,,,,,,,41248,2021-06-05_18h22.26.203,judgeSpeechMusic_20210519_logNormShiftAmp_mXs,2020.1.2,Linux x86_64,60,,,,,,,,,,,,,,2,6.174885,,0,1,30,180,44,1,stimuli/stim_20210519_power2amp/equal_lnn_AM1Hz_s55_8.m4a,,,
,,,,,,,,,,,,41248,2021-06-05_18h22.26.203,judgeSpeechMusic_20210519_logNormShiftAmp_mXs,2020.1.2,Linux x86_64,60,,,,,,,,,,,,,,2,6.706325,,0,1,31,181,56,1,stimuli/stim_20210519_power2amp/equal_lnn_AM2.5Hz_s15_31.m4a,,,
,,,,,,,,,,,,41248,2021-06-05_18h22.26.203,judgeSpeechMusic_20210519_logNormShiftAmp_mXs,2020.1.2,Linux x86_64,60,,,,,,,,,,,,,,1,5.972755,,0,1,32,182,76,1,stimuli/stim_20210519_power2amp/equal_lnn_AM2.5Hz_s35_18.m4a,,,
,,,,,,,,,,,,41248,2021-06-05_18h22.26.203,judgeSpeechMusic_20210519_logNormShiftAmp_mXs,2020.1.2,Linux x86_64,60,,,,,,,,,,,,,,1,6.45246,,0,1,33,183,33,1,stimuli/stim_20210519_power2amp/equal_lnn_AM1Hz_s45_49.m4a,,,
,,,,,,,,,,,,41248,2021-06-05_18h22.26.203,judgeSpeechMusic_20210519_logNormShiftAmp_mXs,2020.1.2,Linux x86_64,60,,,,,,,,,,,,,,1,6.36304,,0,1,34,184,87,1,stimuli/stim_20210519_power2amp/equal_lnn_AM2.5Hz_s45_23.m4a,,,
,,,,,,,,,,,,41248,2021-06-05_18h22.26.203,judgeSpeechMusic_20210519_logNormShiftAmp_mXs,2020.1.2,Linux x86_64,60,,,,,,,,,,,,,,2,6.79503,,0,1,35,185,73,1,stimuli/stim_20210519_power2amp/equal_lnn_AM2.5Hz_s35_12.m4a,,,
,,,,,,,,,,,,41248,2021-06-05_18h22.26.203,judgeSpeechMusic_20210519_logNormShiftAmp_mXs,2020.1.2,Linux x86_64,60,,,,,,,,,,,,,,1,6.90796,,0,1,36,186,59,1,stimuli/stim_20210519_power2amp/equal_lnn_AM2.5Hz_s15_49.m4a,,,
,,,,,,,,,,,,41248,2021-06-05_18h22.26.203,judgeSpeechMusic_20210519_logNormShiftAmp_mXs,2020.1.2,Linux x86_64,60,,,,,,,,,,,,,,2,16.858855,,0,1,37,187,54,1,stimuli/stim_20210519_power2amp/equal_lnn_AM2.5Hz_s15_1.m4a,,,
,,,,,,,,,,,,41248,2021-06-05_18h22.26.203,judgeSpeechMusic_20210519_logNormShiftAmp_mXs,2020.1.2,Linux x86_64,60,,,,,,,,,,,,,,1,9.84281,,0,1,38,188,50,1,stimuli/stim_20210519_power2amp/equal_lnn_AM2.5Hz_s15_3.m4a,,,
,,,,,,,,,,,,41248,2021-06-05_18h22.26.203,judgeSpeechMusic_20210519_logNormShiftAmp_mXs,2020.1.2,Linux x86_64,60,,,,,,,,,,,,,,1,7.24827,,0,1,39,189,61,1,stimuli/stim_20210519_power2amp/equal_lnn_AM2.5Hz_s25_2.m4a,,,
,,,,,,,,,,,,41248,2021-06-05_18h22.26.203,judgeSpeechMusic_20210519_logNormShiftAmp_mXs,2020.1.2,Linux x86_64,60,,,,,,,,,,,,,,1,5.73553,2,1,1,40,190,140,1,stimuli/stim_20210519_power2amp/equal_lnn_AM4Hz_s55_44.m4a,2.133525,,
,,,,,,,,,,,,41248,2021-06-05_18h22.26.203,judgeSpeechMusic_20210519_logNormShiftAmp_mXs,2020.1.2,Linux x86_64,60,,,,,,,,,,,,,,2,6.49546,,0,1,41,191,2,1,stimuli/stim_20210519_power2amp/equal_lnn_AM1Hz_s15_47.m4a,,,
,,,,,,,,,,,,41248,2021-06-05_18h22.26.203,judgeSpeechMusic_20210519_logNormShiftAmp_mXs,2020.1.2,Linux x86_64,60,,,,,,,,,,,,,,1,9.54181,,0,1,42,192,143,1,stimuli/stim_20210519_power2amp/equal_lnn_AM4Hz_s55_28.m4a,,,
,,,,,,,,,,,,41248,2021-06-05_18h22.26.203,judgeSpeechMusic_20210519_logNormShiftAmp_mXs,2020.1.2,Linux x86_64,60,,,,,,,,,,,,,,2,6.24191,,0,1,43,193,14,1,stimuli/stim_20210519_power2amp/equal_lnn_AM1Hz_s25_44.m4a,,,
,,,,,,,,,,,,41248,2021-06-05_18h22.26.203,judgeSpeechMusic_20210519_logNormShiftAmp_mXs,2020.1.2,Linux x86_64,60,,,,,,,,,,,,,,2,6.52463,,0,1,44,194,64,1,stimuli/stim_20210519_power2amp/equal_lnn_AM2.5Hz_s25_6.m4a,,,
,,,,,,,,,,,,41248,2021-06-05_18h22.26.203,judgeSpeechMusic_20210519_logNormShiftAmp_mXs,2020.1.2,Linux x86_64,60,,,,,,,,,,,,,,1,6.93249,,0,1,45,195,7,1,stimuli/stim_20210519_power2amp/equal_lnn_AM1Hz_s15_3.m4a,,,
,,,,,,,,,,,,41248,2021-06-05_18h22.26.203,judgeSpeechMusic_20210519_logNormShiftAmp_mXs,2020.1.2,Linux x86_64,60,,,,,,,,,,,,,,2,9.881785,,0,1,46,196,12,1,stimuli/stim_20210519_power2amp/equal_lnn_AM1Hz_s25_10.m4a,,,
,,,,,,,,,,,,41248,2021-06-05_18h22.26.203,judgeSpeechMusic_20210519_logNormShiftAmp_mXs,2020.1.2,Linux x86_64,60,,,,,,,,,,,,,,1,11.00803,,0,1,47,197,99,1,stimuli/stim_20210519_power2amp/equal_lnn_AM2.5Hz_s55_29.m4a,,,
,,,,,,,,,,,,41248,2021-06-05_18h22.26.203,judgeSpeechMusic_20210519_logNormShiftAmp_mXs,2020.1.2,Linux x86_64,60,,,,,,,,,,,,,,1,11.821115,,0,1,48,198,45,1,stimuli/stim_20210519_power2amp/equal_lnn_AM1Hz_s55_43.m4a,,,
,,,,,,,,,,,,41248,2021-06-05_18h22.26.203,judgeSpeechMusic_20210519_logNormShiftAmp_mXs,2020.1.2,Linux x86_64,60,,,,,,,,,,,,,,2,8.791715,,0,1,49,199,116,1,stimuli/stim_20210519_power2amp/equal_lnn_AM4Hz_s25_1.m4a,,,
,,,,,,,,,,,,41248,2021-06-05_18h22.26.203,judgeSpeechMusic_20210519_logNormShiftAmp_mXs,2020.1.2,Linux x86_64,60,,,,,,,,,,,,,,2,6.06559,,0,1,50,200,113,1,stimuli/stim_20210519_power2amp/equal_lnn_AM4Hz_s25_38.m4a,,,
,,,,,,,,,,,,41248,2021-06-05_18h22.26.203,judgeSpeechMusic_20210519_logNormShiftAmp_mXs,2020.1.2,Linux x86_64,60,,,,,,,,,,,,,,1,6.948085,,0,1,51,201,104,1,stimuli/stim_20210519_power2amp/equal_lnn_AM4Hz_s15_36.m4a,,,
,,,,,,,,,,,,41248,2021-06-05_18h22.26.203,judgeSpeechMusic_20210519_logNormShiftAmp_mXs,2020.1.2,Linux x86_64,60,,,,,,,,,,,,,,1,10.24266,,0,1,52,202,23,1,stimuli/stim_20210519_power2amp/equal_lnn_AM1Hz_s35_30.m4a,,,
,,,,,,,,,,,,41248,2021-06-05_18h22.26.203,judgeSpeechMusic_20210519_logNormShiftAmp_mXs,2020.1.2,Linux x86_64,60,,,,,,,,,,,,,,1,7.445815,,0,1,53,203,147,1,stimuli/stim_20210519_power2amp/equal_lnn_AM4Hz_s55_27.m4a,,,
,,,,,,,,,,,,41248,2021-06-05_18h22.26.203,judgeSpeechMusic_20210519_logNormShiftAmp_mXs,2020.1.2,Linux x86_64,60,,,,,,,,,,,,,,2,7.13795,,0,1,54,204,80,1,stimuli/stim_20210519_power2amp/equal_lnn_AM2.5Hz_s45_43.m4a,,,
,,,,,,,,,,,,41248,2021-06-05_18h22.26.203,judgeSpeechMusic_20210519_logNormShiftAmp_mXs,2020.1.2,Linux x86_64,60,,,,,,,,,,,,,,1,11.897335,,0,1,55,205,124,1,stimuli/stim_20210519_power2amp/equal_lnn_AM4Hz_s35_7.m4a,,,
,,,,,,,,,,,,41248,2021-06-05_18h22.26.203,judgeSpeechMusic_20210519_logNormShiftAmp_mXs,2020.1.2,Linux x86_64,60,,,,,,,,,,,,,,1,6.33546,,0,1,56,206,126,1,stimuli/stim_20210519_power2amp/equal_lnn_AM4Hz_s35_30.m4a,,,
,,,,,,,,,,,,41248,2021-06-05_18h22.26.203,judgeSpeechMusic_20210519_logNormShiftAmp_mXs,2020.1.2,Linux x86_64,60,,,,,,,,,,,,,,1,10.84022,,0,1,57,207,53,1,stimuli/stim_20210519_power2amp/equal_lnn_AM2.5Hz_s15_19.m4a,,,
,,,,,,,,,,,,41248,2021-06-05_18h22.26.203,judgeSpeechMusic_20210519_logNormShiftAmp_mXs,2020.1.2,Linux x86_64,60,,,,,,,,,,,,,,2,7.330995,,0,1,58,208,10,1,stimuli/stim_20210519_power2amp/equal_lnn_AM1Hz_s25_15.m4a,,,
,,,,,,,,,,,,41248,2021-06-05_18h22.26.203,judgeSpeechMusic_20210519_logNormShiftAmp_mXs,2020.1.2,Linux x86_64,60,,,,,,,,,,,,,,1,8.337275,,0,1,59,209,102,1,stimuli/stim_20210519_power2amp/equal_lnn_AM4Hz_s15_42.m4a,,,
,,,,,,,,,,,,41248,2021-06-05_18h22.26.203,judgeSpeechMusic_20210519_logNormShiftAmp_mXs,2020.1.2,Linux x86_64,60,,,,,,,,,,,,,,1,9.118145,,0,1,60,210,114,1,stimuli/stim_20210519_power2amp/equal_lnn_AM4Hz_s25_10.m4a,,,
,,,,,,,,,,,,41248,2021-06-05_18h22.26.203,judgeSpeechMusic_20210519_logNormShiftAmp_mXs,2020.1.2,Linux x86_64,60,,,,,,,,,,,,,,2,12.92344,,0,1,61,211,71,1,stimuli/stim_20210519_power2amp/equal_lnn_AM2.5Hz_s35_10.m4a,,,
,,,,,,,,,,,,41248,2021-06-05_18h22.26.203,judgeSpeechMusic_20210519_logNormShiftAmp_mXs,2020.1.2,Linux x86_64,60,,,,,,,,,,,,,,1,10.11462,,0,1,62,212,39,1,stimuli/stim_20210519_power2amp/equal_lnn_AM1Hz_s45_19.m4a,,,
,,,,,,,,,,,,41248,2021-06-05_18h22.26.203,judgeSpeechMusic_20210519_logNormShiftAmp_mXs,2020.1.2,Linux x86_64,60,,,,,,,,,,,,,,1,6.0384,,0,1,63,213,89,1,stimuli/stim_20210519_power2amp/equal_lnn_AM2.5Hz_s45_22.m4a,,,
,,,,,,,,,,,,41248,2021-06-05_18h22.26.203,judgeSpeechMusic_20210519_logNormShiftAmp_mXs,2020.1.2,Linux x86_64,60,,,,,,,,,,,,,,2,9.75779,3,1,1,64,214,3,1,stimuli/stim_20210519_power2amp/equal_lnn_AM1Hz_s15_11.m4a,1.98594,,
,,,,,,,,,,,,41248,2021-06-05_18h22.26.203,judgeSpeechMusic_20210519_logNormShiftAmp_mXs,2020.1.2,Linux x86_64,60,,,,,,,,,,,,,,2,6.165515,,0,1,65,215,106,1,stimuli/stim_20210519_power2amp/equal_lnn_AM4Hz_s15_50.m4a,,,
,,,,,,,,,,,,41248,2021-06-05_18h22.26.203,judgeSpeechMusic_20210519_logNormShiftAmp_mXs,2020.1.2,Linux x86_64,60,,,,,,,,,,,,,,1,7.233285,,0,1,66,216,134,1,stimuli/stim_20210519_power2amp/equal_lnn_AM4Hz_s45_24.m4a,,,
,,,,,,,,,,,,41248,2021-06-05_18h22.26.203,judgeSpeechMusic_20210519_logNormShiftAmp_mXs,2020.1.2,Linux x86_64,60,,,,,,,,,,,,,,1,6.37832,,0,1,67,217,88,1,stimuli/stim_20210519_power2amp/equal_lnn_AM2.5Hz_s45_45.m4a,,,
,,,,,,,,,,,,41248,2021-06-05_18h22.26.203,judgeSpeechMusic_20210519_logNormShiftAmp_mXs,2020.1.2,Linux x86_64,60,,,,,,,,,,,,,,2,6.614135,,0,1,68,218,91,1,stimuli/stim_20210519_power2amp/equal_lnn_AM2.5Hz_s55_47.m4a,,,
,,,,,,,,,,,,41248,2021-06-05_18h22.26.203,judgeSpeechMusic_20210519_logNormShiftAmp_mXs,2020.1.2,Linux x86_64,60,,,,,,,,,,,,,,1,7.5063,,0,1,69,219,13,1,stimuli/stim_20210519_power2amp/equal_lnn_AM1Hz_s25_2.m4a,,,
,,,,,,,,,,,,41248,2021-06-05_18h22.26.203,judgeSpeechMusic_20210519_logNormShiftAmp_mXs,2020.1.2,Linux x86_64,60,,,,,,,,,,,,,,2,6.809955,,0,1,70,220,46,1,stimuli/stim_20210519_power2amp/equal_lnn_AM1Hz_s55_14.m4a,,,
,,,,,,,,,,,,41248,2021-06-05_18h22.26.203,judgeSpeechMusic_20210519_logNormShiftAmp_mXs,2020.1.2,Linux x86_64,60,,,,,,,,,,,,,,1,5.76554,,0,1,71,221,117,1,stimuli/stim_20210519_power2amp/equal_lnn_AM4Hz_s25_44.m4a,,,
,,,,,,,,,,,,41248,2021-06-05_18h22.26.203,judgeSpeechMusic_20210519_logNormShiftAmp_mXs,2020.1.2,Linux x86_64,60,,,,,,,,,,,,,,1,5.740435,,0,1,72,222,139,1,stimuli/stim_20210519_power2amp/equal_lnn_AM4Hz_s45_13.m4a,,,
,,,,,,,,,,,,41248,2021-06-05_18h22.26.203,judgeSpeechMusic_20210519_logNormShiftAmp_mXs,2020.1.2,Linux x86_64,60,,,,,,,,,,,,,,2,6.5022,,0,1,73,223,9,1,stimuli/stim_20210519_power2amp/equal_lnn_AM1Hz_s15_37.m4a,,,
,,,,,,,,,,,,41248,2021-06-05_18h22.26.203,judgeSpeechMusic_20210519_logNormShiftAmp_mXs,2020.1.2,Linux x86_64,60,,,,,,,,,,,,,,1,15.36185,,0,1,74,224,5,1,stimuli/stim_20210519_power2amp/equal_lnn_AM1Hz_s15_39.m4a,,,
,,,,,,,,,,,,41248,2021-06-05_18h22.26.203,judgeSpeechMusic_20210519_logNormShiftAmp_mXs,2020.1.2,Linux x86_64,60,,,,,,,,,,,,,,1,12.308225,,0,1,75,225,148,1,stimuli/stim_20210519_power2amp/equal_lnn_AM4Hz_s55_22.m4a,,,
,,,,,,,,,,,,41248,2021-06-05_18h22.26.203,judgeSpeechMusic_20210519_logNormShiftAmp_mXs,2020.1.2,Linux x86_64,60,,,,,,,,,,,,,,2,8.080395,,0,1,76,226,38,1,stimuli/stim_20210519_power2amp/equal_lnn_AM1Hz_s45_7.m4a,,,
,,,,,,,,,,,,41248,2021-06-05_18h22.26.203,judgeSpeechMusic_20210519_logNormShiftAmp_mXs,2020.1.2,Linux x86_64,60,,,,,,,,,,,,,,1,6.876075,,0,1,77,227,112,1,stimuli/stim_20210519_power2amp/equal_lnn_AM4Hz_s25_11.m4a,,,
,,,,,,,,,,,,41248,2021-06-05_18h22.26.203,judgeSpeechMusic_20210519_logNormShiftAmp_mXs,2020.1.2,Linux x86_64,60,,,,,,,,,,,,,,2,8.606135,,0,1,78,228,35,1,stimuli/stim_20210519_power2amp/equal_lnn_AM1Hz_s45_15.m4a,,,
,,,,,,,,,,,,41248,2021-06-05_18h22.26.203,judgeSpeechMusic_20210519_logNormShiftAmp_mXs,2020.1.2,Linux x86_64,60,,,,,,,,,,,,,,2,7.832355,,0,1,79,229,120,1,stimuli/stim_20210519_power2amp/equal_lnn_AM4Hz_s35_8.m4a,,,
,,,,,,,,,,,,41248,2021-06-05_18h22.26.203,judgeSpeechMusic_20210519_logNormShiftAmp_mXs,2020.1.2,Linux x86_64,60,,,,,,,,,,,,,,1,19.060615,,0,1,80,230,86,1,stimuli/stim_20210519_power2amp/equal_lnn_AM2.5Hz_s45_41.m4a,,,
,,,,,,,,,,,,41248,2021-06-05_18h22.26.203,judgeSpeechMusic_20210519_logNormShiftAmp_mXs,2020.1.2,Linux x86_64,60,,,,,,,,,,,,,,1,15.13111,,0,1,81,231,78,1,stimuli/stim_20210519_power2amp/equal_lnn_AM2.5Hz_s35_41.m4a,,,
,,,,,,,,,,,,41248,2021-06-05_18h22.26.203,judgeSpeechMusic_20210519_logNormShiftAmp_mXs,2020.1.2,Linux x86_64,60,,,,,,,,,,,,,,1,21.623665,,0,1,82,232,1,1,stimuli/stim_20210519_power2amp/equal_lnn_AM1Hz_s15_19.m4a,,,
,,,,,,,,,,,,41248,2021-06-05_18h22.26.203,judgeSpeechMusic_20210519_logNormShiftAmp_mXs,2020.1.2,Linux x86_64,60,,,,,,,,,,,,,,2,11.66693,,0,1,83,233,55,1,stimuli/stim_20210519_power2amp/equal_lnn_AM2.5Hz_s15_26.m4a,,,
,,,,,,,,,,,,41248,2021-06-05_18h22.26.203,judgeSpeechMusic_20210519_logNormShiftAmp_mXs,2020.1.2,Linux x86_64,60,,,,,,,,,,,,,,2,7.704715,,0,1,84,234,83,1,stimuli/stim_20210519_power2amp/equal_lnn_AM2.5Hz_s45_31.m4a,,,
,,,,,,,,,,,,41248,2021-06-05_18h22.26.203,judgeSpeechMusic_20210519_logNormShiftAmp_mXs,2020.1.2,Linux x86_64,60,,,,,,,,,,,,,,2,6.787455,2,1,1,85,235,60,1,stimuli/stim_20210519_power2amp/equal_lnn_AM2.5Hz_s25_26.m4a,1.741295,,
,,,,,,,,,,,,41248,2021-06-05_18h22.26.203,judgeSpeechMusic_20210519_logNormShiftAmp_mXs,2020.1.2,Linux x86_64,60,,,,,,,,,,,,,,2,9.45857,,0,1,86,236,82,1,stimuli/stim_20210519_power2amp/equal_lnn_AM2.5Hz_s45_27.m4a,,,
,,,,,,,,,,,,41248,2021-06-05_18h22.26.203,judgeSpeechMusic_20210519_logNormShiftAmp_mXs,2020.1.2,Linux x86_64,60,,,,,,,,,,,,,,1,8.035365,,0,1,87,237,37,1,stimuli/stim_20210519_power2amp/equal_lnn_AM1Hz_s45_46.m4a,,,
,,,,,,,,,,,,41248,2021-06-05_18h22.26.203,judgeSpeechMusic_20210519_logNormShiftAmp_mXs,2020.1.2,Linux x86_64,60,,,,,,,,,,,,,,1,14.001155,,0,1,88,238,52,1,stimuli/stim_20210519_power2amp/equal_lnn_AM2.5Hz_s15_8.m4a,,,
,,,,,,,,,,,,41248,2021-06-05_18h22.26.203,judgeSpeechMusic_20210519_logNormShiftAmp_mXs,2020.1.2,Linux x86_64,60,,,,,,,,,,,,,,2,9.260065,,0,1,89,239,65,1,stimuli/stim_20210519_power2amp/equal_lnn_AM2.5Hz_s25_24.m4a,,,
,,,,,,,,,,,,41248,2021-06-05_18h22.26.203,judgeSpeechMusic_20210519_logNormShiftAmp_mXs,2020.1.2,Linux x86_64,60,,,,,,,,,,,,,,2,7.160895,,0,1,90,240,40,1,stimuli/stim_20210519_power2amp/equal_lnn_AM1Hz_s55_24.m4a,,,
,,,,,,,,,,,,41248,2021-06-05_18h22.26.203,judgeSpeechMusic_20210519_logNormShiftAmp_mXs,2020.1.2,Linux x86_64,60,,,,,,,,,,,,,,2,6.1546,,0,1,91,241,26,1,stimuli/stim_20210519_power2amp/equal_lnn_AM1Hz_s35_8.m4a,,,
,,,,,,,,,,,,41248,2021-06-05_18h22.26.203,judgeSpeechMusic_20210519_logNormShiftAmp_mXs,2020.1.2,Linux x86_64,60,,,,,,,,,,,,,,1,12.993275,,0,1,92,242,21,1,stimuli/stim_20210519_power2amp/equal_lnn_AM1Hz_s35_6.m4a,,,
,,,,,,,,,,,,41248,2021-06-05_18h22.26.203,judgeSpeechMusic_20210519_logNormShiftAmp_mXs,2020.1.2,Linux x86_64,60,,,,,,,,,,,,,,1,47.398515,,0,1,93,243,49,1,stimuli/stim_20210519_power2amp/equal_lnn_AM1Hz_s55_47.m4a,,,
,,,,,,,,,,,,41248,2021-06-05_18h22.26.203,judgeSpeechMusic_20210519_logNormShiftAmp_mXs,2020.1.2,Linux x86_64,60,,,,,,,,,,,,,,1,6.117295,,0,1,94,244,142,1,stimuli/stim_20210519_power2amp/equal_lnn_AM4Hz_s55_48.m4a,,,
,,,,,,,,,,,,41248,2021-06-05_18h22.26.203,judgeSpeechMusic_20210519_logNormShiftAmp_mXs,2020.1.2,Linux x86_64,60,,,,,,,,,,,,,,2,5.88076,,0,1,95,245,130,1,stimuli/stim_20210519_power2amp/equal_lnn_AM4Hz_s45_46.m4a,,,
,,,,,,,,,,,,41248,2021-06-05_18h22.26.203,judgeSpeechMusic_20210519_logNormShiftAmp_mXs,2020.1.2,Linux x86_64,60,,,,,,,,,,,,,,2,20.601925,,0,1,96,246,48,1,stimuli/stim_20210519_power2amp/equal_lnn_AM1Hz_s55_39.m4a,,,
,,,,,,,,,,,,41248,2021-06-05_18h22.26.203,judgeSpeechMusic_20210519_logNormShiftAmp_mXs,2020.1.2,Linux x86_64,60,,,,,,,,,,,,,,2,6.938525,,0,1,97,247,110,1,stimuli/stim_20210519_power2amp/equal_lnn_AM4Hz_s25_13.m4a,,,
,,,,,,,,,,,,41248,2021-06-05_18h22.26.203,judgeSpeechMusic_20210519_logNormShiftAmp_mXs,2020.1.2,Linux x86_64,60,,,,,,,,,,,,,,1,7.302655,,0,1,98,248,93,1,stimuli/stim_20210519_power2amp/equal_lnn_AM2.5Hz_s55_10.m4a,,,
,,,,,,,,,,,,41248,2021-06-05_18h22.26.203,judgeSpeechMusic_20210519_logNormShiftAmp_mXs,2020.1.2,Linux x86_64,60,,,,,,,,,,,,,,1,6.190495,,0,1,99,249,109,1,stimuli/stim_20210519_power2amp/equal_lnn_AM4Hz_s15_17.m4a,,,
,,,,,,,,,,,,41248,2021-06-05_18h22.26.203,judgeSpeechMusic_20210519_logNormShiftAmp_mXs,2020.1.2,Linux x86_64,60,,,,,,,,,,,,,,1,10.36057,,0,1,100,250,118,1,stimuli/stim_20210519_power2amp/equal_lnn_AM4Hz_s25_45.m4a,,,
,,,,,,,,,,,,41248,2021-06-05_18h22.26.203,judgeSpeechMusic_20210519_logNormShiftAmp_mXs,2020.1.2,Linux x86_64,60,,,,,,,,,,,,,,1,23.257355,,0,1,101,251,101,1,stimuli/stim_20210519_power2amp/equal_lnn_AM4Hz_s15_31.m4a,,,
,,,,,,,,,,,,41248,2021-06-05_18h22.26.203,judgeSpeechMusic_20210519_logNormShiftAmp_mXs,2020.1.2,Linux x86_64,60,,,,,,,,,,,,,,1,6.61972,,0,1,102,252,119,1,stimuli/stim_20210519_power2amp/equal_lnn_AM4Hz_s25_22.m4a,,,
,,,,,,,,,,,,41248,2021-06-05_18h22.26.203,judgeSpeechMusic_20210519_logNormShiftAmp_mXs,2020.1.2,Linux x86_64,60,,,,,,,,,,,,,,2,7.446765,,0,1,103,253,47,1,stimuli/stim_20210519_power2amp/equal_lnn_AM1Hz_s55_25.m4a,,,
,,,,,,,,,,,,41248,2021-06-05_18h22.26.203,judgeSpeechMusic_20210519_logNormShiftAmp_mXs,2020.1.2,Linux x86_64,60,,,,,,,,,,,,,,1,10.57415,,0,1,104,254,6,1,stimuli/stim_20210519_power2amp/equal_lnn_AM1Hz_s15_28.m4a,,,
,,,,,,,,,,,,41248,2021-06-05_18h22.26.203,judgeSpeechMusic_20210519_logNormShiftAmp_mXs,2020.1.2,Linux x86_64,60,,,,,,,,,,,,,,2,7.263785,,0,1,105,255,95,1,stimuli/stim_20210519_power2amp/equal_lnn_AM2.5Hz_s55_3.m4a,,,
,,,,,,,,,,,,41248,2021-06-05_18h22.26.203,judgeSpeechMusic_20210519_logNormShiftAmp_mXs,2020.1.2,Linux x86_64,60,,,,,,,,,,,,,,2,6.396655,,0,1,106,256,17,1,stimuli/stim_20210519_power2amp/equal_lnn_AM1Hz_s25_13.m4a,,,
,,,,,,,,,,,,41248,2021-06-05_18h22.26.203,judgeSpeechMusic_20210519_logNormShiftAmp_mXs,2020.1.2,Linux x86_64,60,,,,,,,,,,,,,,2,7.763115,,0,1,107,257,58,1,stimuli/stim_20210519_power2amp/equal_lnn_AM2.5Hz_s15_2.m4a,,,
,,,,,,,,,,,,41248,2021-06-05_18h22.26.203,judgeSpeechMusic_20210519_logNormShiftAmp_mXs,2020.1.2,Linux x86_64,60,,,,,,,,,,,,,,1,12.57881,,0,1,108,258,132,1,stimuli/stim_20210519_power2amp/equal_lnn_AM4Hz_s45_27.m4a,,,
,,,,,,,,,,,,41248,2021-06-05_18h22.26.203,judgeSpeechMusic_20210519_logNormShiftAmp_mXs,2020.1.2,Linux x86_64,60,,,,,,,,,,,,,,1,8.700195,,0,1,109,259,81,1,stimuli/stim_20210519_power2amp/equal_lnn_AM2.5Hz_s45_37.m4a,,,
,,,,,,,,,,,,41248,2021-06-05_18h22.26.203,judgeSpeechMusic_20210519_logNormShiftAmp_mXs,2020.1.2,Linux x86_64,60,,,,,,,,,,,,,,2,9.674555,4,1,1,110,260,69,1,stimuli/stim_20210519_power2amp/equal_lnn_AM2.5Hz_s25_37.m4a,2.13128,,
,,,,,,,,,,,,41248,2021-06-05_18h22.26.203,judgeSpeechMusic_20210519_logNormShiftAmp_mXs,2020.1.2,Linux x86_64,60,,,,,,,,,,,,,,1,267.96459,,0,1,111,261,70,1,stimuli/stim_20210519_power2amp/equal_lnn_AM2.5Hz_s35_7.m4a,,,
,,,,,,,,,,,,41248,2021-06-05_18h22.26.203,judgeSpeechMusic_20210519_logNormShiftAmp_mXs,2020.1.2,Linux x86_64,60,,,,,,,,,,,,,,2,6.78152,,0,1,112,262,149,1,stimuli/stim_20210519_power2amp/equal_lnn_AM4Hz_s55_15.m4a,,,
,,,,,,,,,,,,41248,2021-06-05_18h22.26.203,judgeSpeechMusic_20210519_logNormShiftAmp_mXs,2020.1.2,Linux x86_64,60,,,,,,,,,,,,,,2,6.92513,,0,1,113,263,62,1,stimuli/stim_20210519_power2amp/equal_lnn_AM2.5Hz_s25_5.m4a,,,
,,,,,,,,,,,,41248,2021-06-05_18h22.26.203,judgeSpeechMusic_20210519_logNormShiftAmp_mXs,2020.1.2,Linux x86_64,60,,,,,,,,,,,,,,1,6.15784,,0,1,114,264,11,1,stimuli/stim_20210519_power2amp/equal_lnn_AM1Hz_s25_42.m4a,,,
,,,,,,,,,,,,41248,2021-06-05_18h22.26.203,judgeSpeechMusic_20210519_logNormShiftAmp_mXs,2020.1.2,Linux x86_64,60,,,,,,,,,,,,,,2,13.19062,,0,1,115,265,68,1,stimuli/stim_20210519_power2amp/equal_lnn_AM2.5Hz_s25_25.m4a,,,
,,,,,,,,,,,,41248,2021-06-05_18h22.26.203,judgeSpeechMusic_20210519_logNormShiftAmp_mXs,2020.1.2,Linux x86_64,60,,,,,,,,,,,,,,1,6.18827,,0,1,116,266,146,1,stimuli/stim_20210519_power2amp/equal_lnn_AM4Hz_s55_45.m4a,,,
,,,,,,,,,,,,41248,2021-06-05_18h22.26.203,judgeSpeechMusic_20210519_logNormShiftAmp_mXs,2020.1.2,Linux x86_64,60,,,,,,,,,,,,,,1,7.5215,,0,1,117,267,108,1,stimuli/stim_20210519_power2amp/equal_lnn_AM4Hz_s15_35.m4a,,,
,,,,,,,,,,,,41248,2021-06-05_18h22.26.203,judgeSpeechMusic_20210519_logNormShiftAmp_mXs,2020.1.2,Linux x86_64,60,,,,,,,,,,,,,,1,5.80452,,0,1,118,268,131,1,stimuli/stim_20210519_power2amp/equal_lnn_AM4Hz_s45_10.m4a,,,
,,,,,,,,,,,,41248,2021-06-05_18h22.26.203,judgeSpeechMusic_20210519_logNormShiftAmp_mXs,2020.1.2,Linux x86_64,60,,,,,,,,,,,,,,2,8.69854,,0,1,119,269,84,1,stimuli/stim_20210519_power2amp/equal_lnn_AM2.5Hz_s45_6.m4a,,,
,,,,,,,,,,,,41248,2021-06-05_18h22.26.203,judgeSpeechMusic_20210519_logNormShiftAmp_mXs,2020.1.2,Linux x86_64,60,,,,,,,,,,,,,,2,21.559145,,0,1,120,270,133,1,stimuli/stim_20210519_power2amp/equal_lnn_AM4Hz_s45_6.m4a,,,
,,,,,,,,,,,,41248,2021-06-05_18h22.26.203,judgeSpeechMusic_20210519_logNormShiftAmp_mXs,2020.1.2,Linux x86_64,60,,,,,,,,,,,,,,1,6.91572,,0,1,121,271,122,1,stimuli/stim_20210519_power2amp/equal_lnn_AM4Hz_s35_31.m4a,,,
,,,,,,,,,,,,41248,2021-06-05_18h22.26.203,judgeSpeechMusic_20210519_logNormShiftAmp_mXs,2020.1.2,Linux x86_64,60,,,,,,,,,,,,,,2,9.94713,,0,1,122,272,51,1,stimuli/stim_20210519_power2amp/equal_lnn_AM2.5Hz_s15_10.m4a,,,
,,,,,,,,,,,,41248,2021-06-05_18h22.26.203,judgeSpeechMusic_20210519_logNormShiftAmp_mXs,2020.1.2,Linux x86_64,60,,,,,,,,,,,,,,1,7.19481,,0,1,123,273,111,1,stimuli/stim_20210519_power2amp/equal_lnn_AM4Hz_s25_8.m4a,,,
,,,,,,,,,,,,41248,2021-06-05_18h22.26.203,judgeSpeechMusic_20210519_logNormShiftAmp_mXs,2020.1.2,Linux x86_64,60,,,,,,,,,,,,,,1,8.684845,,0,1,124,274,92,1,stimuli/stim_20210519_power2amp/equal_lnn_AM2.5Hz_s55_27.m4a,,,
,,,,,,,,,,,,41248,2021-06-05_18h22.26.203,judgeSpeechMusic_20210519_logNormShiftAmp_mXs,2020.1.2,Linux x86_64,60,,,,,,,,,,,,,,2,10.35285,,0,1,125,275,129,1,stimuli/stim_20210519_power2amp/equal_lnn_AM4Hz_s35_18.m4a,,,
,,,,,,,,,,,,41248,2021-06-05_18h22.26.203,judgeSpeechMusic_20210519_logNormShiftAmp_mXs,2020.1.2,Linux x86_64,60,,,,,,,,,,,,,,1,8.843125,,0,1,126,276,43,1,stimuli/stim_20210519_power2amp/equal_lnn_AM1Hz_s55_5.m4a,,,
,,,,,,,,,,,,41248,2021-06-05_18h22.26.203,judgeSpeechMusic_20210519_logNormShiftAmp_mXs,2020.1.2,Linux x86_64,60,,,,,,,,,,,,,,2,9.477205,,0,1,127,277,94,1,stimuli/stim_20210519_power2amp/equal_lnn_AM2.5Hz_s55_41.m4a,,,
,,,,,,,,,,,,41248,2021-06-05_18h22.26.203,judgeSpeechMusic_20210519_logNormShiftAmp_mXs,2020.1.2,Linux x86_64,60,,,,,,,,,,,,,,2,8.311395,,0,1,128,278,32,1,stimuli/stim_20210519_power2amp/equal_lnn_AM1Hz_s45_34.m4a,,,
,,,,,,,,,,,,41248,2021-06-05_18h22.26.203,judgeSpeechMusic_20210519_logNormShiftAmp_mXs,2020.1.2,Linux x86_64,60,,,,,,,,,,,,,,1,6.53195,,0,1,129,279,121,1,stimuli/stim_20210519_power2amp/equal_lnn_AM4Hz_s35_25.m4a,,,
,,,,,,,,,,,,41248,2021-06-05_18h22.26.203,judgeSpeechMusic_20210519_logNormShiftAmp_mXs,2020.1.2,Linux x86_64,60,,,,,,,,,,,,,,1,7.356335,,0,1,130,280,127,1,stimuli/stim_20210519_power2amp/equal_lnn_AM4Hz_s35_49.m4a,,,
,,,,,,,,,,,,41248,2021-06-05_18h22.26.203,judgeSpeechMusic_20210519_logNormShiftAmp_mXs,2020.1.2,Linux x86_64,60,,,,,,,,,,,,,,2,8.291495,,0,1,131,281,34,1,stimuli/stim_20210519_power2amp/equal_lnn_AM1Hz_s45_48.m4a,,,
,,,,,,,,,,,,41248,2021-06-05_18h22.26.203,judgeSpeechMusic_20210519_logNormShiftAmp_mXs,2020.1.2,Linux x86_64,60,,,,,,,,,,,,,,1,8.218685,,0,1,132,282,25,1,stimuli/stim_20210519_power2amp/equal_lnn_AM1Hz_s35_17.m4a,,,
,,,,,,,,,,,,41248,2021-06-05_18h22.26.203,judgeSpeechMusic_20210519_logNormShiftAmp_mXs,2020.1.2,Linux x86_64,60,,,,,,,,,,,,,,1,6.018605,2,1,1,133,283,20,1,stimuli/stim_20210519_power2amp/equal_lnn_AM1Hz_s35_11.m4a,1.277705,,
,,,,,,,,,,,,41248,2021-06-05_18h22.26.203,judgeSpeechMusic_20210519_logNormShiftAmp_mXs,2020.1.2,Linux x86_64,60,,,,,,,,,,,,,,2,9.646625,,0,1,134,284,85,1,stimuli/stim_20210519_power2amp/equal_lnn_AM2.5Hz_s45_5.m4a,,,
,,,,,,,,,,,,41248,2021-06-05_18h22.26.203,judgeSpeechMusic_20210519_logNormShiftAmp_mXs,2020.1.2,Linux x86_64,60,,,,,,,,,,,,,,2,6.78303,,0,1,135,285,79,1,stimuli/stim_20210519_power2amp/equal_lnn_AM2.5Hz_s35_21.m4a,,,
,,,,,,,,,,,,41248,2021-06-05_18h22.26.203,judgeSpeechMusic_20210519_logNormShiftAmp_mXs,2020.1.2,Linux x86_64,60,,,,,,,,,,,,,,1,5.86812,,0,1,136,286,77,1,stimuli/stim_20210519_power2amp/equal_lnn_AM2.5Hz_s35_15.m4a,,,
,,,,,,,,,,,,41248,2021-06-05_18h22.26.203,judgeSpeechMusic_20210519_logNormShiftAmp_mXs,2020.1.2,Linux x86_64,60,,,,,,,,,,,,,,2,6.88763,,0,1,137,287,128,1,stimuli/stim_20210519_power2amp/equal_lnn_AM4Hz_s35_17.m4a,,,
,,,,,,,,,,,,41248,2021-06-05_18h22.26.203,judgeSpeechMusic_20210519_logNormShiftAmp_mXs,2020.1.2,Linux x86_64,60,,,,,,,,,,,,,,1,6.072575,,0,1,138,288,28,1,stimuli/stim_20210519_power2amp/equal_lnn_AM1Hz_s35_43.m4a,,,
,,,,,,,,,,,,41248,2021-06-05_18h22.26.203,judgeSpeechMusic_20210519_logNormShiftAmp_mXs,2020.1.2,Linux x86_64,60,,,,,,,,,,,,,,1,7.01713,,0,1,139,289,24,1,stimuli/stim_20210519_power2amp/equal_lnn_AM1Hz_s35_4.m4a,,,
,,,,,,,,,,,,41248,2021-06-05_18h22.26.203,judgeSpeechMusic_20210519_logNormShiftAmp_mXs,2020.1.2,Linux x86_64,60,,,,,,,,,,,,,,2,11.898115,,0,1,140,290,67,1,stimuli/stim_20210519_power2amp/equal_lnn_AM2.5Hz_s25_16.m4a,,,
,,,,,,,,,,,,41248,2021-06-05_18h22.26.203,judgeSpeechMusic_20210519_logNormShiftAmp_mXs,2020.1.2,Linux x86_64,60,,,,,,,,,,,,,,2,6.97448,,0,1,141,291,103,1,stimuli/stim_20210519_power2amp/equal_lnn_AM4Hz_s15_18.m4a,,,
,,,,,,,,,,,,41248,2021-06-05_18h22.26.203,judgeSpeechMusic_20210519_logNormShiftAmp_mXs,2020.1.2,Linux x86_64,60,,,,,,,,,,,,,,1,5.944475,,0,1,142,292,138,1,stimuli/stim_20210519_power2amp/equal_lnn_AM4Hz_s45_30.m4a,,,
,,,,,,,,,,,,41248,2021-06-05_18h22.26.203,judgeSpeechMusic_20210519_logNormShiftAmp_mXs,2020.1.2,Linux x86_64,60,,,,,,,,,,,,,,1,6.55078,,0,1,143,293,105,1,stimuli/stim_20210519_power2amp/equal_lnn_AM4Hz_s15_7.m4a,,,
,,,,,,,,,,,,41248,2021-06-05_18h22.26.203,judgeSpeechMusic_20210519_logNormShiftAmp_mXs,2020.1.2,Linux x86_64,60,,,,,,,,,,,,,,2,5.76721,,0,1,144,294,72,1,stimuli/stim_20210519_power2amp/equal_lnn_AM2.5Hz_s35_22.m4a,,,
,,,,,,,,,,,,41248,2021-06-05_18h22.26.203,judgeSpeechMusic_20210519_logNormShiftAmp_mXs,2020.1.2,Linux x86_64,60,,,,,,,,,,,,,,1,6.127565,,0,1,145,295,42,1,stimuli/stim_20210519_power2amp/equal_lnn_AM1Hz_s55_45.m4a,,,
,,,,,,,,,,,,41248,2021-06-05_18h22.26.203,judgeSpeechMusic_20210519_logNormShiftAmp_mXs,2020.1.2,Linux x86_64,60,,,,,,,,,,,,,,1,5.69561,,0,1,146,296,123,1,stimuli/stim_20210519_power2amp/equal_lnn_AM4Hz_s35_28.m4a,,,
,,,,,,,,,,,,41248,2021-06-05_18h22.26.203,judgeSpeechMusic_20210519_logNormShiftAmp_mXs,2020.1.2,Linux x86_64,60,,,,,,,,,,,,,,2,5.95319,,0,1,147,297,31,1,stimuli/stim_20210519_power2amp/equal_lnn_AM1Hz_s45_32.m4a,,,
,,,,,,,,,,,,41248,2021-06-05_18h22.26.203,judgeSpeechMusic_20210519_logNormShiftAmp_mXs,2020.1.2,Linux x86_64,60,,,,,,,,,,,,,,2,6.13149,,0,1,148,298,74,1,stimuli/stim_20210519_power2amp/equal_lnn_AM2.5Hz_s35_25.m4a,,,
,,,,,,,,,,,,41248,2021-06-05_18h22.26.203,judgeSpeechMusic_20210519_logNormShiftAmp_mXs,2020.1.2,Linux x86_64,60,,,,,,,,,,,,,,1,8.065195,,0,1,149,299,141,1,stimuli/stim_20210519_power2amp/equal_lnn_AM4Hz_s55_25.m4a,,,
,,,,,,,,,,,,41248,2021-06-05_18h22.26.203,judgeSpeechMusic_20210519_logNormShiftAmp_mXs,2020.1.2,Linux x86_64,60,,,,,,,,,,,,,,,,,,,,,,,,,space,6.721695
