volAdjustRep.thisRepN,volAdjustRep.thisTrialN,volAdjustRep.thisN,volAdjustRep.thisIndex,volAdjustRep.ran,participant,date,expName,psychopyVersion,OS,frameRate,headphoneResponse.keys,headphoneResponse.corr,headphoneResponse.rt,headphoneTrial.thisRepN,headphoneTrial.thisTrialN,headphoneTrial.thisN,headphoneTrial.thisIndex,headphoneTrial.ran,headphone_sound1,headphone_sound2,headphone_sound3,corrAns,trainSlider.response,trainSlider.rt,beepTrainResponse.keys,beepTrainResponse.corr,trainingTrials.thisRepN,trainingTrials.thisTrialN,trainingTrials.thisN,trainingTrials.thisIndex,trainingTrials.ran,trainAudioFile,beepTrainResponse.rt,readyReal_resp.keys,readyReal_resp.rt,ratingSlider.response,ratingSlider.rt,beepResp.keys,beepResp.corr,expTrials.thisRepN,expTrials.thisTrialN,expTrials.thisN,expTrials.thisIndex,expTrials.ran,audioFile,beepResp.rt,end_resp.keys,end_resp.rt
0,0,0,0,1,41245,2021-05-25_20h59.48.036,judgeSpeechMusic_20210519_logNormShiftAmp_mXs,2020.1.2,MacIntel,60,,,,,,,,,,,,,,,,,,,,,,,,,,,,,,,,,,,,,,
,,,,,41245,2021-05-25_20h59.48.036,judgeSpeechMusic_20210519_logNormShiftAmp_mXs,2020.1.2,MacIntel,60,3,1,0.3983,0,0,0,0,1,stimuli/screen_antiphase.wav,stimuli/screen_origin.wav,stimuli/screen_quiet.wav,3,,,,,,,,,,,,,,,,,,,,,,,,,,
,,,,,41245,2021-05-25_20h59.48.036,judgeSpeechMusic_20210519_logNormShiftAmp_mXs,2020.1.2,MacIntel,60,3,0,1.365275,0,1,1,5,1,stimuli/screen_quiet.wav,stimuli/screen_origin.wav,stimuli/screen_antiphase.wav,1,,,,,,,,,,,,,,,,,,,,,,,,,,
,,,,,41245,2021-05-25_20h59.48.036,judgeSpeechMusic_20210519_logNormShiftAmp_mXs,2020.1.2,MacIntel,60,3,1,0.88659,0,2,2,2,1,stimuli/screen_origin.wav,stimuli/screen_antiphase.wav,stimuli/screen_quiet.wav,3,,,,,,,,,,,,,,,,,,,,,,,,,,
,,,,,41245,2021-05-25_20h59.48.036,judgeSpeechMusic_20210519_logNormShiftAmp_mXs,2020.1.2,MacIntel,60,2,1,0.53524,0,3,3,1,1,stimuli/screen_antiphase.wav,stimuli/screen_quiet.wav,stimuli/screen_origin.wav,2,,,,,,,,,,,,,,,,,,,,,,,,,,
,,,,,41245,2021-05-25_20h59.48.036,judgeSpeechMusic_20210519_logNormShiftAmp_mXs,2020.1.2,MacIntel,60,1,1,0.46902,0,4,4,4,1,stimuli/screen_quiet.wav,stimuli/screen_antiphase.wav,stimuli/screen_origin.wav,1,,,,,,,,,,,,,,,,,,,,,,,,,,
,,,,,41245,2021-05-25_20h59.48.036,judgeSpeechMusic_20210519_logNormShiftAmp_mXs,2020.1.2,MacIntel,60,2,1,0.41924,0,5,5,3,1,stimuli/screen_origin.wav,stimuli/screen_quiet.wav,stimuli/screen_antiphase.wav,2,,,,,,,,,,,,,,,,,,,,,,,,,,
,,,,,41245,2021-05-25_20h59.48.036,judgeSpeechMusic_20210519_logNormShiftAmp_mXs,2020.1.2,MacIntel,60,,,,,,,,,,,,,2,11.19347,,0,0,0,0,1,1,stimuli/stim_20210519_power2amp/equal_lnn_AM_training1.5Hz_s50.m4a,,,,,,,,,,,,,,,,
,,,,,41245,2021-05-25_20h59.48.036,judgeSpeechMusic_20210519_logNormShiftAmp_mXs,2020.1.2,MacIntel,60,,,,,,,,,,,,,1,6.540565,,0,0,1,1,2,1,stimuli/stim_20210519_power2amp/equal_lnn_AM_training3.5Hz_s20.m4a,,,,,,,,,,,,,,,,
,,,,,41245,2021-05-25_20h59.48.036,judgeSpeechMusic_20210519_logNormShiftAmp_mXs,2020.1.2,MacIntel,60,,,,,,,,,,,,,2,6.410535,4,1,0,2,2,0,1,stimuli/stim_20210519_power2amp/equal_lnn_AM_training1.5Hz_s20.m4a,2.39556,,,,,,,,,,,,,,,
,,,,,41245,2021-05-25_20h59.48.036,judgeSpeechMusic_20210519_logNormShiftAmp_mXs,2020.1.2,MacIntel,60,,,,,,,,,,,,,2,8.34044,,0,0,3,3,3,1,stimuli/stim_20210519_power2amp/equal_lnn_AM_training3.5Hz_s50.m4a,,,,,,,,,,,,,,,,
,,,,,41245,2021-05-25_20h59.48.036,judgeSpeechMusic_20210519_logNormShiftAmp_mXs,2020.1.2,MacIntel,60,,,,,,,,,,,,,,,,,,,,,,,,space,9.480195,2,9.55041,,0,0,0,0,44,1,stimuli/stim_20210519_power2amp/equal_lnn_AM1Hz_s55_16.m4a,,,
,,,,,41245,2021-05-25_20h59.48.036,judgeSpeechMusic_20210519_logNormShiftAmp_mXs,2020.1.2,MacIntel,60,,,,,,,,,,,,,,,,,,,,,,,,,,2,6.15515,,0,0,1,1,125,1,stimuli/stim_20210519_power2amp/equal_lnn_AM4Hz_s35_36.m4a,,,
,,,,,41245,2021-05-25_20h59.48.036,judgeSpeechMusic_20210519_logNormShiftAmp_mXs,2020.1.2,MacIntel,60,,,,,,,,,,,,,,,,,,,,,,,,,,1,6.31039,,0,0,2,2,79,1,stimuli/stim_20210519_power2amp/equal_lnn_AM2.5Hz_s35_40.m4a,,,
,,,,,41245,2021-05-25_20h59.48.036,judgeSpeechMusic_20210519_logNormShiftAmp_mXs,2020.1.2,MacIntel,60,,,,,,,,,,,,,,,,,,,,,,,,,,1,6.17697,,0,0,3,3,58,1,stimuli/stim_20210519_power2amp/equal_lnn_AM2.5Hz_s15_37.m4a,,,
,,,,,41245,2021-05-25_20h59.48.036,judgeSpeechMusic_20210519_logNormShiftAmp_mXs,2020.1.2,MacIntel,60,,,,,,,,,,,,,,,,,,,,,,,,,,2,6.0591,,0,0,4,4,103,1,stimuli/stim_20210519_power2amp/equal_lnn_AM4Hz_s15_45.m4a,,,
,,,,,41245,2021-05-25_20h59.48.036,judgeSpeechMusic_20210519_logNormShiftAmp_mXs,2020.1.2,MacIntel,60,,,,,,,,,,,,,,,,,,,,,,,,,,1,9.44109,,0,0,5,5,128,1,stimuli/stim_20210519_power2amp/equal_lnn_AM4Hz_s35_18.m4a,,,
,,,,,41245,2021-05-25_20h59.48.036,judgeSpeechMusic_20210519_logNormShiftAmp_mXs,2020.1.2,MacIntel,60,,,,,,,,,,,,,,,,,,,,,,,,,,1,7.741025,,0,0,6,6,113,1,stimuli/stim_20210519_power2amp/equal_lnn_AM4Hz_s25_20.m4a,,,
,,,,,41245,2021-05-25_20h59.48.036,judgeSpeechMusic_20210519_logNormShiftAmp_mXs,2020.1.2,MacIntel,60,,,,,,,,,,,,,,,,,,,,,,,,,,1,6.69313,,0,0,7,7,31,1,stimuli/stim_20210519_power2amp/equal_lnn_AM1Hz_s45_8.m4a,,,
,,,,,41245,2021-05-25_20h59.48.036,judgeSpeechMusic_20210519_logNormShiftAmp_mXs,2020.1.2,MacIntel,60,,,,,,,,,,,,,,,,,,,,,,,,,,2,7.0418,,0,0,8,8,72,1,stimuli/stim_20210519_power2amp/equal_lnn_AM2.5Hz_s35_22.m4a,,,
,,,,,41245,2021-05-25_20h59.48.036,judgeSpeechMusic_20210519_logNormShiftAmp_mXs,2020.1.2,MacIntel,60,,,,,,,,,,,,,,,,,,,,,,,,,,2,5.89351,,0,0,9,9,111,1,stimuli/stim_20210519_power2amp/equal_lnn_AM4Hz_s25_36.m4a,,,
,,,,,41245,2021-05-25_20h59.48.036,judgeSpeechMusic_20210519_logNormShiftAmp_mXs,2020.1.2,MacIntel,60,,,,,,,,,,,,,,,,,,,,,,,,,,1,6.092425,,0,0,10,10,18,1,stimuli/stim_20210519_power2amp/equal_lnn_AM1Hz_s25_36.m4a,,,
,,,,,41245,2021-05-25_20h59.48.036,judgeSpeechMusic_20210519_logNormShiftAmp_mXs,2020.1.2,MacIntel,60,,,,,,,,,,,,,,,,,,,,,,,,,,2,6.008095,,0,0,11,11,52,1,stimuli/stim_20210519_power2amp/equal_lnn_AM2.5Hz_s15_26.m4a,,,
,,,,,41245,2021-05-25_20h59.48.036,judgeSpeechMusic_20210519_logNormShiftAmp_mXs,2020.1.2,MacIntel,60,,,,,,,,,,,,,,,,,,,,,,,,,,1,5.95906,,0,0,12,12,6,1,stimuli/stim_20210519_power2amp/equal_lnn_AM1Hz_s15_7.m4a,,,
,,,,,41245,2021-05-25_20h59.48.036,judgeSpeechMusic_20210519_logNormShiftAmp_mXs,2020.1.2,MacIntel,60,,,,,,,,,,,,,,,,,,,,,,,,,,1,5.991645,,0,0,13,13,27,1,stimuli/stim_20210519_power2amp/equal_lnn_AM1Hz_s35_47.m4a,,,
,,,,,41245,2021-05-25_20h59.48.036,judgeSpeechMusic_20210519_logNormShiftAmp_mXs,2020.1.2,MacIntel,60,,,,,,,,,,,,,,,,,,,,,,,,,,2,5.879185,,0,0,14,14,117,1,stimuli/stim_20210519_power2amp/equal_lnn_AM4Hz_s25_26.m4a,,,
,,,,,41245,2021-05-25_20h59.48.036,judgeSpeechMusic_20210519_logNormShiftAmp_mXs,2020.1.2,MacIntel,60,,,,,,,,,,,,,,,,,,,,,,,,,,2,5.94183,,0,0,15,15,93,1,stimuli/stim_20210519_power2amp/equal_lnn_AM2.5Hz_s55_5.m4a,,,
,,,,,41245,2021-05-25_20h59.48.036,judgeSpeechMusic_20210519_logNormShiftAmp_mXs,2020.1.2,MacIntel,60,,,,,,,,,,,,,,,,,,,,,,,,,,2,7.72555,,0,0,16,16,54,1,stimuli/stim_20210519_power2amp/equal_lnn_AM2.5Hz_s15_29.m4a,,,
,,,,,41245,2021-05-25_20h59.48.036,judgeSpeechMusic_20210519_logNormShiftAmp_mXs,2020.1.2,MacIntel,60,,,,,,,,,,,,,,,,,,,,,,,,,,1,7.52525,,0,0,17,17,46,1,stimuli/stim_20210519_power2amp/equal_lnn_AM1Hz_s55_31.m4a,,,
,,,,,41245,2021-05-25_20h59.48.036,judgeSpeechMusic_20210519_logNormShiftAmp_mXs,2020.1.2,MacIntel,60,,,,,,,,,,,,,,,,,,,,,,,,,,1,6.59105,,0,0,18,18,45,1,stimuli/stim_20210519_power2amp/equal_lnn_AM1Hz_s55_45.m4a,,,
,,,,,41245,2021-05-25_20h59.48.036,judgeSpeechMusic_20210519_logNormShiftAmp_mXs,2020.1.2,MacIntel,60,,,,,,,,,,,,,,,,,,,,,,,,,,1,6.128725,,0,0,19,19,11,1,stimuli/stim_20210519_power2amp/equal_lnn_AM1Hz_s25_20.m4a,,,
,,,,,41245,2021-05-25_20h59.48.036,judgeSpeechMusic_20210519_logNormShiftAmp_mXs,2020.1.2,MacIntel,60,,,,,,,,,,,,,,,,,,,,,,,,,,2,6.12582,,0,0,20,20,85,1,stimuli/stim_20210519_power2amp/equal_lnn_AM2.5Hz_s45_10.m4a,,,
,,,,,41245,2021-05-25_20h59.48.036,judgeSpeechMusic_20210519_logNormShiftAmp_mXs,2020.1.2,MacIntel,60,,,,,,,,,,,,,,,,,,,,,,,,,,2,5.811055,,0,0,21,21,130,1,stimuli/stim_20210519_power2amp/equal_lnn_AM4Hz_s45_26.m4a,,,
,,,,,41245,2021-05-25_20h59.48.036,judgeSpeechMusic_20210519_logNormShiftAmp_mXs,2020.1.2,MacIntel,60,,,,,,,,,,,,,,,,,,,,,,,,,,1,6.974085,,0,0,22,22,4,1,stimuli/stim_20210519_power2amp/equal_lnn_AM1Hz_s15_21.m4a,,,
,,,,,41245,2021-05-25_20h59.48.036,judgeSpeechMusic_20210519_logNormShiftAmp_mXs,2020.1.2,MacIntel,60,,,,,,,,,,,,,,,,,,,,,,,,,,2,5.939535,,0,0,23,23,106,1,stimuli/stim_20210519_power2amp/equal_lnn_AM4Hz_s15_12.m4a,,,
,,,,,41245,2021-05-25_20h59.48.036,judgeSpeechMusic_20210519_logNormShiftAmp_mXs,2020.1.2,MacIntel,60,,,,,,,,,,,,,,,,,,,,,,,,,,1,5.924685,,0,0,24,24,3,1,stimuli/stim_20210519_power2amp/equal_lnn_AM1Hz_s15_4.m4a,,,
,,,,,41245,2021-05-25_20h59.48.036,judgeSpeechMusic_20210519_logNormShiftAmp_mXs,2020.1.2,MacIntel,60,,,,,,,,,,,,,,,,,,,,,,,,,,1,5.792365,,0,0,25,25,50,1,stimuli/stim_20210519_power2amp/equal_lnn_AM2.5Hz_s15_6.m4a,,,
,,,,,41245,2021-05-25_20h59.48.036,judgeSpeechMusic_20210519_logNormShiftAmp_mXs,2020.1.2,MacIntel,60,,,,,,,,,,,,,,,,,,,,,,,,,,2,5.94578,,0,0,26,26,100,1,stimuli/stim_20210519_power2amp/equal_lnn_AM4Hz_s15_9.m4a,,,
,,,,,41245,2021-05-25_20h59.48.036,judgeSpeechMusic_20210519_logNormShiftAmp_mXs,2020.1.2,MacIntel,60,,,,,,,,,,,,,,,,,,,,,,,,,,2,5.926005,,0,0,27,27,116,1,stimuli/stim_20210519_power2amp/equal_lnn_AM4Hz_s25_21.m4a,,,
,,,,,41245,2021-05-25_20h59.48.036,judgeSpeechMusic_20210519_logNormShiftAmp_mXs,2020.1.2,MacIntel,60,,,,,,,,,,,,,,,,,,,,,,,,,,2,5.92798,,0,0,28,28,94,1,stimuli/stim_20210519_power2amp/equal_lnn_AM2.5Hz_s55_2.m4a,,,
,,,,,41245,2021-05-25_20h59.48.036,judgeSpeechMusic_20210519_logNormShiftAmp_mXs,2020.1.2,MacIntel,60,,,,,,,,,,,,,,,,,,,,,,,,,,1,6.09638,,0,0,29,29,5,1,stimuli/stim_20210519_power2amp/equal_lnn_AM1Hz_s15_19.m4a,,,
,,,,,41245,2021-05-25_20h59.48.036,judgeSpeechMusic_20210519_logNormShiftAmp_mXs,2020.1.2,MacIntel,60,,,,,,,,,,,,,,,,,,,,,,,,,,2,5.89552,,0,0,30,30,126,1,stimuli/stim_20210519_power2amp/equal_lnn_AM4Hz_s35_30.m4a,,,
,,,,,41245,2021-05-25_20h59.48.036,judgeSpeechMusic_20210519_logNormShiftAmp_mXs,2020.1.2,MacIntel,60,,,,,,,,,,,,,,,,,,,,,,,,,,1,6.260275,,0,0,31,31,64,1,stimuli/stim_20210519_power2amp/equal_lnn_AM2.5Hz_s25_31.m4a,,,
,,,,,41245,2021-05-25_20h59.48.036,judgeSpeechMusic_20210519_logNormShiftAmp_mXs,2020.1.2,MacIntel,60,,,,,,,,,,,,,,,,,,,,,,,,,,1,7.0604,,0,0,32,32,39,1,stimuli/stim_20210519_power2amp/equal_lnn_AM1Hz_s45_10.m4a,,,
,,,,,41245,2021-05-25_20h59.48.036,judgeSpeechMusic_20210519_logNormShiftAmp_mXs,2020.1.2,MacIntel,60,,,,,,,,,,,,,,,,,,,,,,,,,,2,5.97349,,0,0,33,33,141,1,stimuli/stim_20210519_power2amp/equal_lnn_AM4Hz_s55_6.m4a,,,
,,,,,41245,2021-05-25_20h59.48.036,judgeSpeechMusic_20210519_logNormShiftAmp_mXs,2020.1.2,MacIntel,60,,,,,,,,,,,,,,,,,,,,,,,,,,2,5.91038,,0,0,34,34,74,1,stimuli/stim_20210519_power2amp/equal_lnn_AM2.5Hz_s35_7.m4a,,,
,,,,,41245,2021-05-25_20h59.48.036,judgeSpeechMusic_20210519_logNormShiftAmp_mXs,2020.1.2,MacIntel,60,,,,,,,,,,,,,,,,,,,,,,,,,,1,6.47496,,0,0,35,35,20,1,stimuli/stim_20210519_power2amp/equal_lnn_AM1Hz_s35_26.m4a,,,
,,,,,41245,2021-05-25_20h59.48.036,judgeSpeechMusic_20210519_logNormShiftAmp_mXs,2020.1.2,MacIntel,60,,,,,,,,,,,,,,,,,,,,,,,,,,1,6.090875,,0,0,36,36,36,1,stimuli/stim_20210519_power2amp/equal_lnn_AM1Hz_s45_47.m4a,,,
,,,,,41245,2021-05-25_20h59.48.036,judgeSpeechMusic_20210519_logNormShiftAmp_mXs,2020.1.2,MacIntel,60,,,,,,,,,,,,,,,,,,,,,,,,,,2,5.85917,,0,0,37,37,114,1,stimuli/stim_20210519_power2amp/equal_lnn_AM4Hz_s25_24.m4a,,,
,,,,,41245,2021-05-25_20h59.48.036,judgeSpeechMusic_20210519_logNormShiftAmp_mXs,2020.1.2,MacIntel,60,,,,,,,,,,,,,,,,,,,,,,,,,,2,5.94313,,0,0,38,38,112,1,stimuli/stim_20210519_power2amp/equal_lnn_AM4Hz_s25_40.m4a,,,
,,,,,41245,2021-05-25_20h59.48.036,judgeSpeechMusic_20210519_logNormShiftAmp_mXs,2020.1.2,MacIntel,60,,,,,,,,,,,,,,,,,,,,,,,,,,2,5.82473,,0,0,39,39,86,1,stimuli/stim_20210519_power2amp/equal_lnn_AM2.5Hz_s45_22.m4a,,,
,,,,,41245,2021-05-25_20h59.48.036,judgeSpeechMusic_20210519_logNormShiftAmp_mXs,2020.1.2,MacIntel,60,,,,,,,,,,,,,,,,,,,,,,,,,,2,5.86108,3,1,0,40,40,75,1,stimuli/stim_20210519_power2amp/equal_lnn_AM2.5Hz_s35_18.m4a,3.644165,,
,,,,,41245,2021-05-25_20h59.48.036,judgeSpeechMusic_20210519_logNormShiftAmp_mXs,2020.1.2,MacIntel,60,,,,,,,,,,,,,,,,,,,,,,,,,,2,6.88892,,0,0,41,41,17,1,stimuli/stim_20210519_power2amp/equal_lnn_AM1Hz_s25_41.m4a,,,
,,,,,41245,2021-05-25_20h59.48.036,judgeSpeechMusic_20210519_logNormShiftAmp_mXs,2020.1.2,MacIntel,60,,,,,,,,,,,,,,,,,,,,,,,,,,2,5.825165,,0,0,42,42,92,1,stimuli/stim_20210519_power2amp/equal_lnn_AM2.5Hz_s55_46.m4a,,,
,,,,,41245,2021-05-25_20h59.48.036,judgeSpeechMusic_20210519_logNormShiftAmp_mXs,2020.1.2,MacIntel,60,,,,,,,,,,,,,,,,,,,,,,,,,,2,5.87563,,0,0,43,43,146,1,stimuli/stim_20210519_power2amp/equal_lnn_AM4Hz_s55_27.m4a,,,
,,,,,41245,2021-05-25_20h59.48.036,judgeSpeechMusic_20210519_logNormShiftAmp_mXs,2020.1.2,MacIntel,60,,,,,,,,,,,,,,,,,,,,,,,,,,2,5.9431,,0,0,44,44,97,1,stimuli/stim_20210519_power2amp/equal_lnn_AM2.5Hz_s55_49.m4a,,,
,,,,,41245,2021-05-25_20h59.48.036,judgeSpeechMusic_20210519_logNormShiftAmp_mXs,2020.1.2,MacIntel,60,,,,,,,,,,,,,,,,,,,,,,,,,,1,6.224495,,0,0,45,45,19,1,stimuli/stim_20210519_power2amp/equal_lnn_AM1Hz_s25_40.m4a,,,
,,,,,41245,2021-05-25_20h59.48.036,judgeSpeechMusic_20210519_logNormShiftAmp_mXs,2020.1.2,MacIntel,60,,,,,,,,,,,,,,,,,,,,,,,,,,1,5.994085,,0,0,46,46,24,1,stimuli/stim_20210519_power2amp/equal_lnn_AM1Hz_s35_18.m4a,,,
,,,,,41245,2021-05-25_20h59.48.036,judgeSpeechMusic_20210519_logNormShiftAmp_mXs,2020.1.2,MacIntel,60,,,,,,,,,,,,,,,,,,,,,,,,,,1,6.07416,,0,0,47,47,2,1,stimuli/stim_20210519_power2amp/equal_lnn_AM1Hz_s15_9.m4a,,,
,,,,,41245,2021-05-25_20h59.48.036,judgeSpeechMusic_20210519_logNormShiftAmp_mXs,2020.1.2,MacIntel,60,,,,,,,,,,,,,,,,,,,,,,,,,,1,5.957955,,0,0,48,48,29,1,stimuli/stim_20210519_power2amp/equal_lnn_AM1Hz_s35_11.m4a,,,
,,,,,41245,2021-05-25_20h59.48.036,judgeSpeechMusic_20210519_logNormShiftAmp_mXs,2020.1.2,MacIntel,60,,,,,,,,,,,,,,,,,,,,,,,,,,2,7.95996,,0,0,49,49,43,1,stimuli/stim_20210519_power2amp/equal_lnn_AM1Hz_s55_20.m4a,,,
,,,,,41245,2021-05-25_20h59.48.036,judgeSpeechMusic_20210519_logNormShiftAmp_mXs,2020.1.2,MacIntel,60,,,,,,,,,,,,,,,,,,,,,,,,,,1,5.72906,,0,0,50,50,90,1,stimuli/stim_20210519_power2amp/equal_lnn_AM2.5Hz_s55_32.m4a,,,
,,,,,41245,2021-05-25_20h59.48.036,judgeSpeechMusic_20210519_logNormShiftAmp_mXs,2020.1.2,MacIntel,60,,,,,,,,,,,,,,,,,,,,,,,,,,1,6.875835,,0,0,51,51,84,1,stimuli/stim_20210519_power2amp/equal_lnn_AM2.5Hz_s45_16.m4a,,,
,,,,,41245,2021-05-25_20h59.48.036,judgeSpeechMusic_20210519_logNormShiftAmp_mXs,2020.1.2,MacIntel,60,,,,,,,,,,,,,,,,,,,,,,,,,,2,7.24113,,0,0,52,52,104,1,stimuli/stim_20210519_power2amp/equal_lnn_AM4Hz_s15_14.m4a,,,
,,,,,41245,2021-05-25_20h59.48.036,judgeSpeechMusic_20210519_logNormShiftAmp_mXs,2020.1.2,MacIntel,60,,,,,,,,,,,,,,,,,,,,,,,,,,2,6.94229,,0,0,53,53,87,1,stimuli/stim_20210519_power2amp/equal_lnn_AM2.5Hz_s45_39.m4a,,,
,,,,,41245,2021-05-25_20h59.48.036,judgeSpeechMusic_20210519_logNormShiftAmp_mXs,2020.1.2,MacIntel,60,,,,,,,,,,,,,,,,,,,,,,,,,,2,6.84165,,0,0,54,54,60,1,stimuli/stim_20210519_power2amp/equal_lnn_AM2.5Hz_s25_26.m4a,,,
,,,,,41245,2021-05-25_20h59.48.036,judgeSpeechMusic_20210519_logNormShiftAmp_mXs,2020.1.2,MacIntel,60,,,,,,,,,,,,,,,,,,,,,,,,,,2,5.80863,,0,0,55,55,144,1,stimuli/stim_20210519_power2amp/equal_lnn_AM4Hz_s55_20.m4a,,,
,,,,,41245,2021-05-25_20h59.48.036,judgeSpeechMusic_20210519_logNormShiftAmp_mXs,2020.1.2,MacIntel,60,,,,,,,,,,,,,,,,,,,,,,,,,,1,5.8605,,0,0,56,56,80,1,stimuli/stim_20210519_power2amp/equal_lnn_AM2.5Hz_s45_43.m4a,,,
,,,,,41245,2021-05-25_20h59.48.036,judgeSpeechMusic_20210519_logNormShiftAmp_mXs,2020.1.2,MacIntel,60,,,,,,,,,,,,,,,,,,,,,,,,,,2,5.79887,,0,0,57,57,137,1,stimuli/stim_20210519_power2amp/equal_lnn_AM4Hz_s45_6.m4a,,,
,,,,,41245,2021-05-25_20h59.48.036,judgeSpeechMusic_20210519_logNormShiftAmp_mXs,2020.1.2,MacIntel,60,,,,,,,,,,,,,,,,,,,,,,,,,,1,5.977215,,0,0,58,58,23,1,stimuli/stim_20210519_power2amp/equal_lnn_AM1Hz_s35_32.m4a,,,
,,,,,41245,2021-05-25_20h59.48.036,judgeSpeechMusic_20210519_logNormShiftAmp_mXs,2020.1.2,MacIntel,60,,,,,,,,,,,,,,,,,,,,,,,,,,1,5.880085,,0,0,59,59,32,1,stimuli/stim_20210519_power2amp/equal_lnn_AM1Hz_s45_25.m4a,,,
,,,,,41245,2021-05-25_20h59.48.036,judgeSpeechMusic_20210519_logNormShiftAmp_mXs,2020.1.2,MacIntel,60,,,,,,,,,,,,,,,,,,,,,,,,,,1,5.845235,,0,0,60,60,9,1,stimuli/stim_20210519_power2amp/equal_lnn_AM1Hz_s15_30.m4a,,,
,,,,,41245,2021-05-25_20h59.48.036,judgeSpeechMusic_20210519_logNormShiftAmp_mXs,2020.1.2,MacIntel,60,,,,,,,,,,,,,,,,,,,,,,,,,,1,6.54073,,0,0,61,61,8,1,stimuli/stim_20210519_power2amp/equal_lnn_AM1Hz_s15_48.m4a,,,
,,,,,41245,2021-05-25_20h59.48.036,judgeSpeechMusic_20210519_logNormShiftAmp_mXs,2020.1.2,MacIntel,60,,,,,,,,,,,,,,,,,,,,,,,,,,2,5.891785,,0,0,62,62,115,1,stimuli/stim_20210519_power2amp/equal_lnn_AM4Hz_s25_33.m4a,,,
,,,,,41245,2021-05-25_20h59.48.036,judgeSpeechMusic_20210519_logNormShiftAmp_mXs,2020.1.2,MacIntel,60,,,,,,,,,,,,,,,,,,,,,,,,,,1,5.859415,,0,0,63,63,41,1,stimuli/stim_20210519_power2amp/equal_lnn_AM1Hz_s55_50.m4a,,,
,,,,,41245,2021-05-25_20h59.48.036,judgeSpeechMusic_20210519_logNormShiftAmp_mXs,2020.1.2,MacIntel,60,,,,,,,,,,,,,,,,,,,,,,,,,,1,6.642885,,0,0,64,64,25,1,stimuli/stim_20210519_power2amp/equal_lnn_AM1Hz_s35_37.m4a,,,
,,,,,41245,2021-05-25_20h59.48.036,judgeSpeechMusic_20210519_logNormShiftAmp_mXs,2020.1.2,MacIntel,60,,,,,,,,,,,,,,,,,,,,,,,,,,2,5.87634,3,1,0,65,65,89,1,stimuli/stim_20210519_power2amp/equal_lnn_AM2.5Hz_s45_37.m4a,0.880515,,
,,,,,41245,2021-05-25_20h59.48.036,judgeSpeechMusic_20210519_logNormShiftAmp_mXs,2020.1.2,MacIntel,60,,,,,,,,,,,,,,,,,,,,,,,,,,1,6.507295,,0,0,66,66,70,1,stimuli/stim_20210519_power2amp/equal_lnn_AM2.5Hz_s35_11.m4a,,,
,,,,,41245,2021-05-25_20h59.48.036,judgeSpeechMusic_20210519_logNormShiftAmp_mXs,2020.1.2,MacIntel,60,,,,,,,,,,,,,,,,,,,,,,,,,,1,6.14355,,0,0,67,67,95,1,stimuli/stim_20210519_power2amp/equal_lnn_AM2.5Hz_s55_30.m4a,,,
,,,,,41245,2021-05-25_20h59.48.036,judgeSpeechMusic_20210519_logNormShiftAmp_mXs,2020.1.2,MacIntel,60,,,,,,,,,,,,,,,,,,,,,,,,,,2,5.7913,,0,0,68,68,105,1,stimuli/stim_20210519_power2amp/equal_lnn_AM4Hz_s15_30.m4a,,,
,,,,,41245,2021-05-25_20h59.48.036,judgeSpeechMusic_20210519_logNormShiftAmp_mXs,2020.1.2,MacIntel,60,,,,,,,,,,,,,,,,,,,,,,,,,,2,6.073475,,0,0,69,69,98,1,stimuli/stim_20210519_power2amp/equal_lnn_AM2.5Hz_s55_28.m4a,,,
,,,,,41245,2021-05-25_20h59.48.036,judgeSpeechMusic_20210519_logNormShiftAmp_mXs,2020.1.2,MacIntel,60,,,,,,,,,,,,,,,,,,,,,,,,,,1,6.57661,,0,0,70,70,65,1,stimuli/stim_20210519_power2amp/equal_lnn_AM2.5Hz_s25_22.m4a,,,
,,,,,41245,2021-05-25_20h59.48.036,judgeSpeechMusic_20210519_logNormShiftAmp_mXs,2020.1.2,MacIntel,60,,,,,,,,,,,,,,,,,,,,,,,,,,1,6.030675,,0,0,71,71,78,1,stimuli/stim_20210519_power2amp/equal_lnn_AM2.5Hz_s35_34.m4a,,,
,,,,,41245,2021-05-25_20h59.48.036,judgeSpeechMusic_20210519_logNormShiftAmp_mXs,2020.1.2,MacIntel,60,,,,,,,,,,,,,,,,,,,,,,,,,,2,5.69081,,0,0,72,72,148,1,stimuli/stim_20210519_power2amp/equal_lnn_AM4Hz_s55_23.m4a,,,
,,,,,41245,2021-05-25_20h59.48.036,judgeSpeechMusic_20210519_logNormShiftAmp_mXs,2020.1.2,MacIntel,60,,,,,,,,,,,,,,,,,,,,,,,,,,1,6.943945,,0,0,73,73,67,1,stimuli/stim_20210519_power2amp/equal_lnn_AM2.5Hz_s25_16.m4a,,,
,,,,,41245,2021-05-25_20h59.48.036,judgeSpeechMusic_20210519_logNormShiftAmp_mXs,2020.1.2,MacIntel,60,,,,,,,,,,,,,,,,,,,,,,,,,,2,5.79565,,0,0,74,74,110,1,stimuli/stim_20210519_power2amp/equal_lnn_AM4Hz_s25_17.m4a,,,
,,,,,41245,2021-05-25_20h59.48.036,judgeSpeechMusic_20210519_logNormShiftAmp_mXs,2020.1.2,MacIntel,60,,,,,,,,,,,,,,,,,,,,,,,,,,1,6.03047,,0,0,75,75,76,1,stimuli/stim_20210519_power2amp/equal_lnn_AM2.5Hz_s35_25.m4a,,,
,,,,,41245,2021-05-25_20h59.48.036,judgeSpeechMusic_20210519_logNormShiftAmp_mXs,2020.1.2,MacIntel,60,,,,,,,,,,,,,,,,,,,,,,,,,,2,5.67583,,0,0,76,76,120,1,stimuli/stim_20210519_power2amp/equal_lnn_AM4Hz_s35_27.m4a,,,
,,,,,41245,2021-05-25_20h59.48.036,judgeSpeechMusic_20210519_logNormShiftAmp_mXs,2020.1.2,MacIntel,60,,,,,,,,,,,,,,,,,,,,,,,,,,1,8.02511,,0,0,77,77,63,1,stimuli/stim_20210519_power2amp/equal_lnn_AM2.5Hz_s25_42.m4a,,,
,,,,,41245,2021-05-25_20h59.48.036,judgeSpeechMusic_20210519_logNormShiftAmp_mXs,2020.1.2,MacIntel,60,,,,,,,,,,,,,,,,,,,,,,,,,,1,5.827075,,0,0,78,78,1,1,stimuli/stim_20210519_power2amp/equal_lnn_AM1Hz_s15_15.m4a,,,
,,,,,41245,2021-05-25_20h59.48.036,judgeSpeechMusic_20210519_logNormShiftAmp_mXs,2020.1.2,MacIntel,60,,,,,,,,,,,,,,,,,,,,,,,,,,1,9.908305,,0,0,79,79,127,1,stimuli/stim_20210519_power2amp/equal_lnn_AM4Hz_s35_24.m4a,,,
,,,,,41245,2021-05-25_20h59.48.036,judgeSpeechMusic_20210519_logNormShiftAmp_mXs,2020.1.2,MacIntel,60,,,,,,,,,,,,,,,,,,,,,,,,,,1,5.841215,,0,0,80,80,15,1,stimuli/stim_20210519_power2amp/equal_lnn_AM1Hz_s25_23.m4a,,,
,,,,,41245,2021-05-25_20h59.48.036,judgeSpeechMusic_20210519_logNormShiftAmp_mXs,2020.1.2,MacIntel,60,,,,,,,,,,,,,,,,,,,,,,,,,,2,5.927045,,0,0,81,81,53,1,stimuli/stim_20210519_power2amp/equal_lnn_AM2.5Hz_s15_41.m4a,,,
,,,,,41245,2021-05-25_20h59.48.036,judgeSpeechMusic_20210519_logNormShiftAmp_mXs,2020.1.2,MacIntel,60,,,,,,,,,,,,,,,,,,,,,,,,,,2,8.20899,,0,0,82,82,140,1,stimuli/stim_20210519_power2amp/equal_lnn_AM4Hz_s55_12.m4a,,,
,,,,,41245,2021-05-25_20h59.48.036,judgeSpeechMusic_20210519_logNormShiftAmp_mXs,2020.1.2,MacIntel,60,,,,,,,,,,,,,,,,,,,,,,,,,,1,6.1749,,0,0,83,83,22,1,stimuli/stim_20210519_power2amp/equal_lnn_AM1Hz_s35_33.m4a,,,
,,,,,41245,2021-05-25_20h59.48.036,judgeSpeechMusic_20210519_logNormShiftAmp_mXs,2020.1.2,MacIntel,60,,,,,,,,,,,,,,,,,,,,,,,,,,2,5.827075,,0,0,84,84,83,1,stimuli/stim_20210519_power2amp/equal_lnn_AM2.5Hz_s45_42.m4a,,,
,,,,,41245,2021-05-25_20h59.48.036,judgeSpeechMusic_20210519_logNormShiftAmp_mXs,2020.1.2,MacIntel,60,,,,,,,,,,,,,,,,,,,,,,,,,,1,6.13198,,0,0,85,85,48,1,stimuli/stim_20210519_power2amp/equal_lnn_AM1Hz_s55_9.m4a,,,
,,,,,41245,2021-05-25_20h59.48.036,judgeSpeechMusic_20210519_logNormShiftAmp_mXs,2020.1.2,MacIntel,60,,,,,,,,,,,,,,,,,,,,,,,,,,2,6.890165,,0,0,86,86,77,1,stimuli/stim_20210519_power2amp/equal_lnn_AM2.5Hz_s35_48.m4a,,,
,,,,,41245,2021-05-25_20h59.48.036,judgeSpeechMusic_20210519_logNormShiftAmp_mXs,2020.1.2,MacIntel,60,,,,,,,,,,,,,,,,,,,,,,,,,,2,6.576945,,0,0,87,87,121,1,stimuli/stim_20210519_power2amp/equal_lnn_AM4Hz_s35_40.m4a,,,
,,,,,41245,2021-05-25_20h59.48.036,judgeSpeechMusic_20210519_logNormShiftAmp_mXs,2020.1.2,MacIntel,60,,,,,,,,,,,,,,,,,,,,,,,,,,1,6.09186,,0,0,88,88,35,1,stimuli/stim_20210519_power2amp/equal_lnn_AM1Hz_s45_23.m4a,,,
,,,,,41245,2021-05-25_20h59.48.036,judgeSpeechMusic_20210519_logNormShiftAmp_mXs,2020.1.2,MacIntel,60,,,,,,,,,,,,,,,,,,,,,,,,,,1,5.80864,3,1,0,89,89,12,1,stimuli/stim_20210519_power2amp/equal_lnn_AM1Hz_s25_4.m4a,1.16167,,
,,,,,41245,2021-05-25_20h59.48.036,judgeSpeechMusic_20210519_logNormShiftAmp_mXs,2020.1.2,MacIntel,60,,,,,,,,,,,,,,,,,,,,,,,,,,2,9.86204,,0,0,90,90,135,1,stimuli/stim_20210519_power2amp/equal_lnn_AM4Hz_s45_32.m4a,,,
,,,,,41245,2021-05-25_20h59.48.036,judgeSpeechMusic_20210519_logNormShiftAmp_mXs,2020.1.2,MacIntel,60,,,,,,,,,,,,,,,,,,,,,,,,,,2,5.891425,,0,0,91,91,88,1,stimuli/stim_20210519_power2amp/equal_lnn_AM2.5Hz_s45_21.m4a,,,
,,,,,41245,2021-05-25_20h59.48.036,judgeSpeechMusic_20210519_logNormShiftAmp_mXs,2020.1.2,MacIntel,60,,,,,,,,,,,,,,,,,,,,,,,,,,2,6.15929,,0,0,92,92,61,1,stimuli/stim_20210519_power2amp/equal_lnn_AM2.5Hz_s25_13.m4a,,,
,,,,,41245,2021-05-25_20h59.48.036,judgeSpeechMusic_20210519_logNormShiftAmp_mXs,2020.1.2,MacIntel,60,,,,,,,,,,,,,,,,,,,,,,,,,,1,5.90913,,0,0,93,93,16,1,stimuli/stim_20210519_power2amp/equal_lnn_AM1Hz_s25_45.m4a,,,
,,,,,41245,2021-05-25_20h59.48.036,judgeSpeechMusic_20210519_logNormShiftAmp_mXs,2020.1.2,MacIntel,60,,,,,,,,,,,,,,,,,,,,,,,,,,1,5.991185,,0,0,94,94,49,1,stimuli/stim_20210519_power2amp/equal_lnn_AM1Hz_s55_10.m4a,,,
,,,,,41245,2021-05-25_20h59.48.036,judgeSpeechMusic_20210519_logNormShiftAmp_mXs,2020.1.2,MacIntel,60,,,,,,,,,,,,,,,,,,,,,,,,,,2,5.9923,,0,0,95,95,38,1,stimuli/stim_20210519_power2amp/equal_lnn_AM1Hz_s45_16.m4a,,,
,,,,,41245,2021-05-25_20h59.48.036,judgeSpeechMusic_20210519_logNormShiftAmp_mXs,2020.1.2,MacIntel,60,,,,,,,,,,,,,,,,,,,,,,,,,,1,5.661935,,0,0,96,96,62,1,stimuli/stim_20210519_power2amp/equal_lnn_AM2.5Hz_s25_24.m4a,,,
,,,,,41245,2021-05-25_20h59.48.036,judgeSpeechMusic_20210519_logNormShiftAmp_mXs,2020.1.2,MacIntel,60,,,,,,,,,,,,,,,,,,,,,,,,,,2,6.1086,,0,0,97,97,132,1,stimuli/stim_20210519_power2amp/equal_lnn_AM4Hz_s45_27.m4a,,,
,,,,,41245,2021-05-25_20h59.48.036,judgeSpeechMusic_20210519_logNormShiftAmp_mXs,2020.1.2,MacIntel,60,,,,,,,,,,,,,,,,,,,,,,,,,,1,5.84458,,0,0,98,98,59,1,stimuli/stim_20210519_power2amp/equal_lnn_AM2.5Hz_s15_18.m4a,,,
,,,,,41245,2021-05-25_20h59.48.036,judgeSpeechMusic_20210519_logNormShiftAmp_mXs,2020.1.2,MacIntel,60,,,,,,,,,,,,,,,,,,,,,,,,,,2,7.15945,,0,0,99,99,131,1,stimuli/stim_20210519_power2amp/equal_lnn_AM4Hz_s45_33.m4a,,,
,,,,,41245,2021-05-25_20h59.48.036,judgeSpeechMusic_20210519_logNormShiftAmp_mXs,2020.1.2,MacIntel,60,,,,,,,,,,,,,,,,,,,,,,,,,,2,5.696505,,0,0,100,100,99,1,stimuli/stim_20210519_power2amp/equal_lnn_AM2.5Hz_s55_35.m4a,,,
,,,,,41245,2021-05-25_20h59.48.036,judgeSpeechMusic_20210519_logNormShiftAmp_mXs,2020.1.2,MacIntel,60,,,,,,,,,,,,,,,,,,,,,,,,,,2,5.709295,,0,0,101,101,71,1,stimuli/stim_20210519_power2amp/equal_lnn_AM2.5Hz_s35_12.m4a,,,
,,,,,41245,2021-05-25_20h59.48.036,judgeSpeechMusic_20210519_logNormShiftAmp_mXs,2020.1.2,MacIntel,60,,,,,,,,,,,,,,,,,,,,,,,,,,1,5.97506,,0,0,102,102,28,1,stimuli/stim_20210519_power2amp/equal_lnn_AM1Hz_s35_23.m4a,,,
,,,,,41245,2021-05-25_20h59.48.036,judgeSpeechMusic_20210519_logNormShiftAmp_mXs,2020.1.2,MacIntel,60,,,,,,,,,,,,,,,,,,,,,,,,,,2,5.843035,,0,0,103,103,119,1,stimuli/stim_20210519_power2amp/equal_lnn_AM4Hz_s25_5.m4a,,,
,,,,,41245,2021-05-25_20h59.48.036,judgeSpeechMusic_20210519_logNormShiftAmp_mXs,2020.1.2,MacIntel,60,,,,,,,,,,,,,,,,,,,,,,,,,,2,6.058735,,0,0,104,104,134,1,stimuli/stim_20210519_power2amp/equal_lnn_AM4Hz_s45_15.m4a,,,
,,,,,41245,2021-05-25_20h59.48.036,judgeSpeechMusic_20210519_logNormShiftAmp_mXs,2020.1.2,MacIntel,60,,,,,,,,,,,,,,,,,,,,,,,,,,2,5.77753,,0,0,105,105,123,1,stimuli/stim_20210519_power2amp/equal_lnn_AM4Hz_s35_31.m4a,,,
,,,,,41245,2021-05-25_20h59.48.036,judgeSpeechMusic_20210519_logNormShiftAmp_mXs,2020.1.2,MacIntel,60,,,,,,,,,,,,,,,,,,,,,,,,,,1,5.93104,,0,0,106,106,26,1,stimuli/stim_20210519_power2amp/equal_lnn_AM1Hz_s35_43.m4a,,,
,,,,,41245,2021-05-25_20h59.48.036,judgeSpeechMusic_20210519_logNormShiftAmp_mXs,2020.1.2,MacIntel,60,,,,,,,,,,,,,,,,,,,,,,,,,,2,6.473565,,0,0,107,107,145,1,stimuli/stim_20210519_power2amp/equal_lnn_AM4Hz_s55_45.m4a,,,
,,,,,41245,2021-05-25_20h59.48.036,judgeSpeechMusic_20210519_logNormShiftAmp_mXs,2020.1.2,MacIntel,60,,,,,,,,,,,,,,,,,,,,,,,,,,2,6.04901,,0,0,108,108,101,1,stimuli/stim_20210519_power2amp/equal_lnn_AM4Hz_s15_10.m4a,,,
,,,,,41245,2021-05-25_20h59.48.036,judgeSpeechMusic_20210519_logNormShiftAmp_mXs,2020.1.2,MacIntel,60,,,,,,,,,,,,,,,,,,,,,,,,,,2,6.647905,4,1,0,109,109,124,1,stimuli/stim_20210519_power2amp/equal_lnn_AM4Hz_s35_5.m4a,2.147755,,
,,,,,41245,2021-05-25_20h59.48.036,judgeSpeechMusic_20210519_logNormShiftAmp_mXs,2020.1.2,MacIntel,60,,,,,,,,,,,,,,,,,,,,,,,,,,2,5.791755,,0,0,110,110,129,1,stimuli/stim_20210519_power2amp/equal_lnn_AM4Hz_s35_22.m4a,,,
,,,,,41245,2021-05-25_20h59.48.036,judgeSpeechMusic_20210519_logNormShiftAmp_mXs,2020.1.2,MacIntel,60,,,,,,,,,,,,,,,,,,,,,,,,,,2,5.676495,,0,0,111,111,122,1,stimuli/stim_20210519_power2amp/equal_lnn_AM4Hz_s35_15.m4a,,,
,,,,,41245,2021-05-25_20h59.48.036,judgeSpeechMusic_20210519_logNormShiftAmp_mXs,2020.1.2,MacIntel,60,,,,,,,,,,,,,,,,,,,,,,,,,,2,5.74291,,0,0,112,112,81,1,stimuli/stim_20210519_power2amp/equal_lnn_AM2.5Hz_s45_14.m4a,,,
,,,,,41245,2021-05-25_20h59.48.036,judgeSpeechMusic_20210519_logNormShiftAmp_mXs,2020.1.2,MacIntel,60,,,,,,,,,,,,,,,,,,,,,,,,,,1,6.008925,,0,0,113,113,7,1,stimuli/stim_20210519_power2amp/equal_lnn_AM1Hz_s15_1.m4a,,,
,,,,,41245,2021-05-25_20h59.48.036,judgeSpeechMusic_20210519_logNormShiftAmp_mXs,2020.1.2,MacIntel,60,,,,,,,,,,,,,,,,,,,,,,,,,,2,6.025175,,0,0,114,114,51,1,stimuli/stim_20210519_power2amp/equal_lnn_AM2.5Hz_s15_48.m4a,,,
,,,,,41245,2021-05-25_20h59.48.036,judgeSpeechMusic_20210519_logNormShiftAmp_mXs,2020.1.2,MacIntel,60,,,,,,,,,,,,,,,,,,,,,,,,,,1,6.16087,,0,0,115,115,147,1,stimuli/stim_20210519_power2amp/equal_lnn_AM4Hz_s55_17.m4a,,,
,,,,,41245,2021-05-25_20h59.48.036,judgeSpeechMusic_20210519_logNormShiftAmp_mXs,2020.1.2,MacIntel,60,,,,,,,,,,,,,,,,,,,,,,,,,,2,5.86005,,0,0,116,116,109,1,stimuli/stim_20210519_power2amp/equal_lnn_AM4Hz_s15_32.m4a,,,
,,,,,41245,2021-05-25_20h59.48.036,judgeSpeechMusic_20210519_logNormShiftAmp_mXs,2020.1.2,MacIntel,60,,,,,,,,,,,,,,,,,,,,,,,,,,1,5.72742,,0,0,117,117,57,1,stimuli/stim_20210519_power2amp/equal_lnn_AM2.5Hz_s15_14.m4a,,,
,,,,,41245,2021-05-25_20h59.48.036,judgeSpeechMusic_20210519_logNormShiftAmp_mXs,2020.1.2,MacIntel,60,,,,,,,,,,,,,,,,,,,,,,,,,,2,6.074955,,0,0,118,118,138,1,stimuli/stim_20210519_power2amp/equal_lnn_AM4Hz_s45_12.m4a,,,
,,,,,41245,2021-05-25_20h59.48.036,judgeSpeechMusic_20210519_logNormShiftAmp_mXs,2020.1.2,MacIntel,60,,,,,,,,,,,,,,,,,,,,,,,,,,2,6.15706,,0,0,119,119,143,1,stimuli/stim_20210519_power2amp/equal_lnn_AM4Hz_s55_25.m4a,,,
,,,,,41245,2021-05-25_20h59.48.036,judgeSpeechMusic_20210519_logNormShiftAmp_mXs,2020.1.2,MacIntel,60,,,,,,,,,,,,,,,,,,,,,,,,,,1,5.943555,,0,0,120,120,47,1,stimuli/stim_20210519_power2amp/equal_lnn_AM1Hz_s55_30.m4a,,,
,,,,,41245,2021-05-25_20h59.48.036,judgeSpeechMusic_20210519_logNormShiftAmp_mXs,2020.1.2,MacIntel,60,,,,,,,,,,,,,,,,,,,,,,,,,,2,5.808485,,0,0,121,121,55,1,stimuli/stim_20210519_power2amp/equal_lnn_AM2.5Hz_s15_17.m4a,,,
,,,,,41245,2021-05-25_20h59.48.036,judgeSpeechMusic_20210519_logNormShiftAmp_mXs,2020.1.2,MacIntel,60,,,,,,,,,,,,,,,,,,,,,,,,,,1,5.776225,,0,0,122,122,40,1,stimuli/stim_20210519_power2amp/equal_lnn_AM1Hz_s55_13.m4a,,,
,,,,,41245,2021-05-25_20h59.48.036,judgeSpeechMusic_20210519_logNormShiftAmp_mXs,2020.1.2,MacIntel,60,,,,,,,,,,,,,,,,,,,,,,,,,,1,6.224575,,0,0,123,123,33,1,stimuli/stim_20210519_power2amp/equal_lnn_AM1Hz_s45_29.m4a,,,
,,,,,41245,2021-05-25_20h59.48.036,judgeSpeechMusic_20210519_logNormShiftAmp_mXs,2020.1.2,MacIntel,60,,,,,,,,,,,,,,,,,,,,,,,,,,2,6.27514,,0,0,124,124,142,1,stimuli/stim_20210519_power2amp/equal_lnn_AM4Hz_s55_39.m4a,,,
,,,,,41245,2021-05-25_20h59.48.036,judgeSpeechMusic_20210519_logNormShiftAmp_mXs,2020.1.2,MacIntel,60,,,,,,,,,,,,,,,,,,,,,,,,,,2,5.67464,,0,0,125,125,102,1,stimuli/stim_20210519_power2amp/equal_lnn_AM4Hz_s15_20.m4a,,,
,,,,,41245,2021-05-25_20h59.48.036,judgeSpeechMusic_20210519_logNormShiftAmp_mXs,2020.1.2,MacIntel,60,,,,,,,,,,,,,,,,,,,,,,,,,,1,6.676355,,0,0,126,126,30,1,stimuli/stim_20210519_power2amp/equal_lnn_AM1Hz_s45_44.m4a,,,
,,,,,41245,2021-05-25_20h59.48.036,judgeSpeechMusic_20210519_logNormShiftAmp_mXs,2020.1.2,MacIntel,60,,,,,,,,,,,,,,,,,,,,,,,,,,1,5.74411,,0,0,127,127,42,1,stimuli/stim_20210519_power2amp/equal_lnn_AM1Hz_s55_42.m4a,,,
,,,,,41245,2021-05-25_20h59.48.036,judgeSpeechMusic_20210519_logNormShiftAmp_mXs,2020.1.2,MacIntel,60,,,,,,,,,,,,,,,,,,,,,,,,,,2,6.348865,,0,0,128,128,68,1,stimuli/stim_20210519_power2amp/equal_lnn_AM2.5Hz_s25_32.m4a,,,
,,,,,41245,2021-05-25_20h59.48.036,judgeSpeechMusic_20210519_logNormShiftAmp_mXs,2020.1.2,MacIntel,60,,,,,,,,,,,,,,,,,,,,,,,,,,1,5.93862,1,1,0,129,129,0,1,stimuli/stim_20210519_power2amp/equal_lnn_AM1Hz_s15_8.m4a,1.030995,,
,,,,,41245,2021-05-25_20h59.48.036,judgeSpeechMusic_20210519_logNormShiftAmp_mXs,2020.1.2,MacIntel,60,,,,,,,,,,,,,,,,,,,,,,,,,,1,5.692065,,0,0,130,130,21,1,stimuli/stim_20210519_power2amp/equal_lnn_AM1Hz_s35_9.m4a,,,
,,,,,41245,2021-05-25_20h59.48.036,judgeSpeechMusic_20210519_logNormShiftAmp_mXs,2020.1.2,MacIntel,60,,,,,,,,,,,,,,,,,,,,,,,,,,1,5.80738,,0,0,131,131,13,1,stimuli/stim_20210519_power2amp/equal_lnn_AM1Hz_s25_21.m4a,,,
,,,,,41245,2021-05-25_20h59.48.036,judgeSpeechMusic_20210519_logNormShiftAmp_mXs,2020.1.2,MacIntel,60,,,,,,,,,,,,,,,,,,,,,,,,,,1,7.07624,,0,0,132,132,14,1,stimuli/stim_20210519_power2amp/equal_lnn_AM1Hz_s25_18.m4a,,,
,,,,,41245,2021-05-25_20h59.48.036,judgeSpeechMusic_20210519_logNormShiftAmp_mXs,2020.1.2,MacIntel,60,,,,,,,,,,,,,,,,,,,,,,,,,,1,5.731465,,0,0,133,133,10,1,stimuli/stim_20210519_power2amp/equal_lnn_AM1Hz_s25_32.m4a,,,
,,,,,41245,2021-05-25_20h59.48.036,judgeSpeechMusic_20210519_logNormShiftAmp_mXs,2020.1.2,MacIntel,60,,,,,,,,,,,,,,,,,,,,,,,,,,2,5.842315,,0,0,134,134,96,1,stimuli/stim_20210519_power2amp/equal_lnn_AM2.5Hz_s55_16.m4a,,,
,,,,,41245,2021-05-25_20h59.48.036,judgeSpeechMusic_20210519_logNormShiftAmp_mXs,2020.1.2,MacIntel,60,,,,,,,,,,,,,,,,,,,,,,,,,,1,5.7125,,0,0,135,135,37,1,stimuli/stim_20210519_power2amp/equal_lnn_AM1Hz_s45_34.m4a,,,
,,,,,41245,2021-05-25_20h59.48.036,judgeSpeechMusic_20210519_logNormShiftAmp_mXs,2020.1.2,MacIntel,60,,,,,,,,,,,,,,,,,,,,,,,,,,2,6.173735,,0,0,136,136,107,1,stimuli/stim_20210519_power2amp/equal_lnn_AM4Hz_s15_28.m4a,,,
,,,,,41245,2021-05-25_20h59.48.036,judgeSpeechMusic_20210519_logNormShiftAmp_mXs,2020.1.2,MacIntel,60,,,,,,,,,,,,,,,,,,,,,,,,,,2,5.80961,,0,0,137,137,136,1,stimuli/stim_20210519_power2amp/equal_lnn_AM4Hz_s45_36.m4a,,,
,,,,,41245,2021-05-25_20h59.48.036,judgeSpeechMusic_20210519_logNormShiftAmp_mXs,2020.1.2,MacIntel,60,,,,,,,,,,,,,,,,,,,,,,,,,,2,6.82599,,0,0,138,138,139,1,stimuli/stim_20210519_power2amp/equal_lnn_AM4Hz_s45_20.m4a,,,
,,,,,41245,2021-05-25_20h59.48.036,judgeSpeechMusic_20210519_logNormShiftAmp_mXs,2020.1.2,MacIntel,60,,,,,,,,,,,,,,,,,,,,,,,,,,1,6.04225,,0,0,139,139,149,1,stimuli/stim_20210519_power2amp/equal_lnn_AM4Hz_s55_33.m4a,,,
,,,,,41245,2021-05-25_20h59.48.036,judgeSpeechMusic_20210519_logNormShiftAmp_mXs,2020.1.2,MacIntel,60,,,,,,,,,,,,,,,,,,,,,,,,,,1,6.509175,,0,0,140,140,34,1,stimuli/stim_20210519_power2amp/equal_lnn_AM1Hz_s45_50.m4a,,,
,,,,,41245,2021-05-25_20h59.48.036,judgeSpeechMusic_20210519_logNormShiftAmp_mXs,2020.1.2,MacIntel,60,,,,,,,,,,,,,,,,,,,,,,,,,,1,5.943185,,0,0,141,141,66,1,stimuli/stim_20210519_power2amp/equal_lnn_AM2.5Hz_s25_49.m4a,,,
,,,,,41245,2021-05-25_20h59.48.036,judgeSpeechMusic_20210519_logNormShiftAmp_mXs,2020.1.2,MacIntel,60,,,,,,,,,,,,,,,,,,,,,,,,,,2,5.77472,,0,0,142,142,73,1,stimuli/stim_20210519_power2amp/equal_lnn_AM2.5Hz_s35_28.m4a,,,
,,,,,41245,2021-05-25_20h59.48.036,judgeSpeechMusic_20210519_logNormShiftAmp_mXs,2020.1.2,MacIntel,60,,,,,,,,,,,,,,,,,,,,,,,,,,1,7.20832,,0,0,143,143,91,1,stimuli/stim_20210519_power2amp/equal_lnn_AM2.5Hz_s55_31.m4a,,,
,,,,,41245,2021-05-25_20h59.48.036,judgeSpeechMusic_20210519_logNormShiftAmp_mXs,2020.1.2,MacIntel,60,,,,,,,,,,,,,,,,,,,,,,,,,,2,5.791005,,0,0,144,144,56,1,stimuli/stim_20210519_power2amp/equal_lnn_AM2.5Hz_s15_31.m4a,,,
,,,,,41245,2021-05-25_20h59.48.036,judgeSpeechMusic_20210519_logNormShiftAmp_mXs,2020.1.2,MacIntel,60,,,,,,,,,,,,,,,,,,,,,,,,,,2,5.62487,,0,0,145,145,69,1,stimuli/stim_20210519_power2amp/equal_lnn_AM2.5Hz_s25_17.m4a,,,
,,,,,41245,2021-05-25_20h59.48.036,judgeSpeechMusic_20210519_logNormShiftAmp_mXs,2020.1.2,MacIntel,60,,,,,,,,,,,,,,,,,,,,,,,,,,2,5.87537,,0,0,146,146,108,1,stimuli/stim_20210519_power2amp/equal_lnn_AM4Hz_s15_41.m4a,,,
,,,,,41245,2021-05-25_20h59.48.036,judgeSpeechMusic_20210519_logNormShiftAmp_mXs,2020.1.2,MacIntel,60,,,,,,,,,,,,,,,,,,,,,,,,,,2,5.72509,,0,0,147,147,118,1,stimuli/stim_20210519_power2amp/equal_lnn_AM4Hz_s25_12.m4a,,,
,,,,,41245,2021-05-25_20h59.48.036,judgeSpeechMusic_20210519_logNormShiftAmp_mXs,2020.1.2,MacIntel,60,,,,,,,,,,,,,,,,,,,,,,,,,,1,5.79233,,0,0,148,148,82,1,stimuli/stim_20210519_power2amp/equal_lnn_AM2.5Hz_s45_17.m4a,,,
,,,,,41245,2021-05-25_20h59.48.036,judgeSpeechMusic_20210519_logNormShiftAmp_mXs,2020.1.2,MacIntel,60,,,,,,,,,,,,,,,,,,,,,,,,,,2,5.90753,,0,0,149,149,133,1,stimuli/stim_20210519_power2amp/equal_lnn_AM4Hz_s45_22.m4a,,,
,,,,,41245,2021-05-25_20h59.48.036,judgeSpeechMusic_20210519_logNormShiftAmp_mXs,2020.1.2,MacIntel,60,,,,,,,,,,,,,,,,,,,,,,,,,,2,5.793775,,0,1,0,150,87,1,stimuli/stim_20210519_power2amp/equal_lnn_AM2.5Hz_s45_39.m4a,,,
,,,,,41245,2021-05-25_20h59.48.036,judgeSpeechMusic_20210519_logNormShiftAmp_mXs,2020.1.2,MacIntel,60,,,,,,,,,,,,,,,,,,,,,,,,,,2,5.674445,1,1,1,1,151,123,1,stimuli/stim_20210519_power2amp/equal_lnn_AM4Hz_s35_31.m4a,0.94519,,
,,,,,41245,2021-05-25_20h59.48.036,judgeSpeechMusic_20210519_logNormShiftAmp_mXs,2020.1.2,MacIntel,60,,,,,,,,,,,,,,,,,,,,,,,,,,1,6.692885,,0,1,2,152,35,1,stimuli/stim_20210519_power2amp/equal_lnn_AM1Hz_s45_23.m4a,,,
,,,,,41245,2021-05-25_20h59.48.036,judgeSpeechMusic_20210519_logNormShiftAmp_mXs,2020.1.2,MacIntel,60,,,,,,,,,,,,,,,,,,,,,,,,,,1,5.77726,,0,1,3,153,17,1,stimuli/stim_20210519_power2amp/equal_lnn_AM1Hz_s25_41.m4a,,,
,,,,,41245,2021-05-25_20h59.48.036,judgeSpeechMusic_20210519_logNormShiftAmp_mXs,2020.1.2,MacIntel,60,,,,,,,,,,,,,,,,,,,,,,,,,,1,6.09653,,0,1,4,154,37,1,stimuli/stim_20210519_power2amp/equal_lnn_AM1Hz_s45_34.m4a,,,
,,,,,41245,2021-05-25_20h59.48.036,judgeSpeechMusic_20210519_logNormShiftAmp_mXs,2020.1.2,MacIntel,60,,,,,,,,,,,,,,,,,,,,,,,,,,1,5.8078,,0,1,5,155,9,1,stimuli/stim_20210519_power2amp/equal_lnn_AM1Hz_s15_30.m4a,,,
,,,,,41245,2021-05-25_20h59.48.036,judgeSpeechMusic_20210519_logNormShiftAmp_mXs,2020.1.2,MacIntel,60,,,,,,,,,,,,,,,,,,,,,,,,,,1,5.70967,,0,1,6,156,27,1,stimuli/stim_20210519_power2amp/equal_lnn_AM1Hz_s35_47.m4a,,,
,,,,,41245,2021-05-25_20h59.48.036,judgeSpeechMusic_20210519_logNormShiftAmp_mXs,2020.1.2,MacIntel,60,,,,,,,,,,,,,,,,,,,,,,,,,,2,5.941265,,0,1,7,157,106,1,stimuli/stim_20210519_power2amp/equal_lnn_AM4Hz_s15_12.m4a,,,
,,,,,41245,2021-05-25_20h59.48.036,judgeSpeechMusic_20210519_logNormShiftAmp_mXs,2020.1.2,MacIntel,60,,,,,,,,,,,,,,,,,,,,,,,,,,1,5.92479,,0,1,8,158,18,1,stimuli/stim_20210519_power2amp/equal_lnn_AM1Hz_s25_36.m4a,,,
,,,,,41245,2021-05-25_20h59.48.036,judgeSpeechMusic_20210519_logNormShiftAmp_mXs,2020.1.2,MacIntel,60,,,,,,,,,,,,,,,,,,,,,,,,,,1,6.043585,,0,1,9,159,43,1,stimuli/stim_20210519_power2amp/equal_lnn_AM1Hz_s55_20.m4a,,,
,,,,,41245,2021-05-25_20h59.48.036,judgeSpeechMusic_20210519_logNormShiftAmp_mXs,2020.1.2,MacIntel,60,,,,,,,,,,,,,,,,,,,,,,,,,,2,5.82643,,0,1,10,160,136,1,stimuli/stim_20210519_power2amp/equal_lnn_AM4Hz_s45_36.m4a,,,
,,,,,41245,2021-05-25_20h59.48.036,judgeSpeechMusic_20210519_logNormShiftAmp_mXs,2020.1.2,MacIntel,60,,,,,,,,,,,,,,,,,,,,,,,,,,1,5.958865,,0,1,11,161,1,1,stimuli/stim_20210519_power2amp/equal_lnn_AM1Hz_s15_15.m4a,,,
,,,,,41245,2021-05-25_20h59.48.036,judgeSpeechMusic_20210519_logNormShiftAmp_mXs,2020.1.2,MacIntel,60,,,,,,,,,,,,,,,,,,,,,,,,,,1,6.291005,,0,1,12,162,3,1,stimuli/stim_20210519_power2amp/equal_lnn_AM1Hz_s15_4.m4a,,,
,,,,,41245,2021-05-25_20h59.48.036,judgeSpeechMusic_20210519_logNormShiftAmp_mXs,2020.1.2,MacIntel,60,,,,,,,,,,,,,,,,,,,,,,,,,,2,5.94457,,0,1,13,163,137,1,stimuli/stim_20210519_power2amp/equal_lnn_AM4Hz_s45_6.m4a,,,
,,,,,41245,2021-05-25_20h59.48.036,judgeSpeechMusic_20210519_logNormShiftAmp_mXs,2020.1.2,MacIntel,60,,,,,,,,,,,,,,,,,,,,,,,,,,1,6.075315,,0,1,14,164,38,1,stimuli/stim_20210519_power2amp/equal_lnn_AM1Hz_s45_16.m4a,,,
,,,,,41245,2021-05-25_20h59.48.036,judgeSpeechMusic_20210519_logNormShiftAmp_mXs,2020.1.2,MacIntel,60,,,,,,,,,,,,,,,,,,,,,,,,,,2,7.393355,,0,1,15,165,56,1,stimuli/stim_20210519_power2amp/equal_lnn_AM2.5Hz_s15_31.m4a,,,
,,,,,41245,2021-05-25_20h59.48.036,judgeSpeechMusic_20210519_logNormShiftAmp_mXs,2020.1.2,MacIntel,60,,,,,,,,,,,,,,,,,,,,,,,,,,1,6.18472,,0,1,16,166,39,1,stimuli/stim_20210519_power2amp/equal_lnn_AM1Hz_s45_10.m4a,,,
,,,,,41245,2021-05-25_20h59.48.036,judgeSpeechMusic_20210519_logNormShiftAmp_mXs,2020.1.2,MacIntel,60,,,,,,,,,,,,,,,,,,,,,,,,,,2,6.00481,,0,1,17,167,85,1,stimuli/stim_20210519_power2amp/equal_lnn_AM2.5Hz_s45_10.m4a,,,
,,,,,41245,2021-05-25_20h59.48.036,judgeSpeechMusic_20210519_logNormShiftAmp_mXs,2020.1.2,MacIntel,60,,,,,,,,,,,,,,,,,,,,,,,,,,2,5.8776,,0,1,18,168,110,1,stimuli/stim_20210519_power2amp/equal_lnn_AM4Hz_s25_17.m4a,,,
,,,,,41245,2021-05-25_20h59.48.036,judgeSpeechMusic_20210519_logNormShiftAmp_mXs,2020.1.2,MacIntel,60,,,,,,,,,,,,,,,,,,,,,,,,,,1,6.247695,,0,1,19,169,14,1,stimuli/stim_20210519_power2amp/equal_lnn_AM1Hz_s25_18.m4a,,,
,,,,,41245,2021-05-25_20h59.48.036,judgeSpeechMusic_20210519_logNormShiftAmp_mXs,2020.1.2,MacIntel,60,,,,,,,,,,,,,,,,,,,,,,,,,,1,5.81133,,0,1,20,170,36,1,stimuli/stim_20210519_power2amp/equal_lnn_AM1Hz_s45_47.m4a,,,
,,,,,41245,2021-05-25_20h59.48.036,judgeSpeechMusic_20210519_logNormShiftAmp_mXs,2020.1.2,MacIntel,60,,,,,,,,,,,,,,,,,,,,,,,,,,2,5.89215,,0,1,21,171,80,1,stimuli/stim_20210519_power2amp/equal_lnn_AM2.5Hz_s45_43.m4a,,,
,,,,,41245,2021-05-25_20h59.48.036,judgeSpeechMusic_20210519_logNormShiftAmp_mXs,2020.1.2,MacIntel,60,,,,,,,,,,,,,,,,,,,,,,,,,,2,5.79293,,0,1,22,172,96,1,stimuli/stim_20210519_power2amp/equal_lnn_AM2.5Hz_s55_16.m4a,,,
,,,,,41245,2021-05-25_20h59.48.036,judgeSpeechMusic_20210519_logNormShiftAmp_mXs,2020.1.2,MacIntel,60,,,,,,,,,,,,,,,,,,,,,,,,,,2,6.35668,,0,1,23,173,140,1,stimuli/stim_20210519_power2amp/equal_lnn_AM4Hz_s55_12.m4a,,,
,,,,,41245,2021-05-25_20h59.48.036,judgeSpeechMusic_20210519_logNormShiftAmp_mXs,2020.1.2,MacIntel,60,,,,,,,,,,,,,,,,,,,,,,,,,,2,6.67424,,0,1,24,174,115,1,stimuli/stim_20210519_power2amp/equal_lnn_AM4Hz_s25_33.m4a,,,
,,,,,41245,2021-05-25_20h59.48.036,judgeSpeechMusic_20210519_logNormShiftAmp_mXs,2020.1.2,MacIntel,60,,,,,,,,,,,,,,,,,,,,,,,,,,1,6.37486,,0,1,25,175,40,1,stimuli/stim_20210519_power2amp/equal_lnn_AM1Hz_s55_13.m4a,,,
,,,,,41245,2021-05-25_20h59.48.036,judgeSpeechMusic_20210519_logNormShiftAmp_mXs,2020.1.2,MacIntel,60,,,,,,,,,,,,,,,,,,,,,,,,,,1,6.57555,4,1,1,26,176,82,1,stimuli/stim_20210519_power2amp/equal_lnn_AM2.5Hz_s45_17.m4a,1.66232,,
,,,,,41245,2021-05-25_20h59.48.036,judgeSpeechMusic_20210519_logNormShiftAmp_mXs,2020.1.2,MacIntel,60,,,,,,,,,,,,,,,,,,,,,,,,,,1,6.44396,,0,1,27,177,129,1,stimuli/stim_20210519_power2amp/equal_lnn_AM4Hz_s35_22.m4a,,,
,,,,,41245,2021-05-25_20h59.48.036,judgeSpeechMusic_20210519_logNormShiftAmp_mXs,2020.1.2,MacIntel,60,,,,,,,,,,,,,,,,,,,,,,,,,,1,7.25926,,0,1,28,178,34,1,stimuli/stim_20210519_power2amp/equal_lnn_AM1Hz_s45_50.m4a,,,
,,,,,41245,2021-05-25_20h59.48.036,judgeSpeechMusic_20210519_logNormShiftAmp_mXs,2020.1.2,MacIntel,60,,,,,,,,,,,,,,,,,,,,,,,,,,2,5.79065,,0,1,29,179,135,1,stimuli/stim_20210519_power2amp/equal_lnn_AM4Hz_s45_32.m4a,,,
,,,,,41245,2021-05-25_20h59.48.036,judgeSpeechMusic_20210519_logNormShiftAmp_mXs,2020.1.2,MacIntel,60,,,,,,,,,,,,,,,,,,,,,,,,,,2,6.477175,,0,1,30,180,102,1,stimuli/stim_20210519_power2amp/equal_lnn_AM4Hz_s15_20.m4a,,,
,,,,,41245,2021-05-25_20h59.48.036,judgeSpeechMusic_20210519_logNormShiftAmp_mXs,2020.1.2,MacIntel,60,,,,,,,,,,,,,,,,,,,,,,,,,,2,5.85892,,0,1,31,181,145,1,stimuli/stim_20210519_power2amp/equal_lnn_AM4Hz_s55_45.m4a,,,
,,,,,41245,2021-05-25_20h59.48.036,judgeSpeechMusic_20210519_logNormShiftAmp_mXs,2020.1.2,MacIntel,60,,,,,,,,,,,,,,,,,,,,,,,,,,1,5.693135,,0,1,32,182,16,1,stimuli/stim_20210519_power2amp/equal_lnn_AM1Hz_s25_45.m4a,,,
,,,,,41245,2021-05-25_20h59.48.036,judgeSpeechMusic_20210519_logNormShiftAmp_mXs,2020.1.2,MacIntel,60,,,,,,,,,,,,,,,,,,,,,,,,,,1,6.357175,,0,1,33,183,48,1,stimuli/stim_20210519_power2amp/equal_lnn_AM1Hz_s55_9.m4a,,,
,,,,,41245,2021-05-25_20h59.48.036,judgeSpeechMusic_20210519_logNormShiftAmp_mXs,2020.1.2,MacIntel,60,,,,,,,,,,,,,,,,,,,,,,,,,,2,5.84572,,0,1,34,184,92,1,stimuli/stim_20210519_power2amp/equal_lnn_AM2.5Hz_s55_46.m4a,,,
,,,,,41245,2021-05-25_20h59.48.036,judgeSpeechMusic_20210519_logNormShiftAmp_mXs,2020.1.2,MacIntel,60,,,,,,,,,,,,,,,,,,,,,,,,,,1,7.242565,,0,1,35,185,64,1,stimuli/stim_20210519_power2amp/equal_lnn_AM2.5Hz_s25_31.m4a,,,
,,,,,41245,2021-05-25_20h59.48.036,judgeSpeechMusic_20210519_logNormShiftAmp_mXs,2020.1.2,MacIntel,60,,,,,,,,,,,,,,,,,,,,,,,,,,1,5.660035,,0,1,36,186,0,1,stimuli/stim_20210519_power2amp/equal_lnn_AM1Hz_s15_8.m4a,,,
,,,,,41245,2021-05-25_20h59.48.036,judgeSpeechMusic_20210519_logNormShiftAmp_mXs,2020.1.2,MacIntel,60,,,,,,,,,,,,,,,,,,,,,,,,,,1,5.86323,,0,1,37,187,46,1,stimuli/stim_20210519_power2amp/equal_lnn_AM1Hz_s55_31.m4a,,,
,,,,,41245,2021-05-25_20h59.48.036,judgeSpeechMusic_20210519_logNormShiftAmp_mXs,2020.1.2,MacIntel,60,,,,,,,,,,,,,,,,,,,,,,,,,,2,5.840925,,0,1,38,188,93,1,stimuli/stim_20210519_power2amp/equal_lnn_AM2.5Hz_s55_5.m4a,,,
,,,,,41245,2021-05-25_20h59.48.036,judgeSpeechMusic_20210519_logNormShiftAmp_mXs,2020.1.2,MacIntel,60,,,,,,,,,,,,,,,,,,,,,,,,,,2,6.995425,,0,1,39,189,128,1,stimuli/stim_20210519_power2amp/equal_lnn_AM4Hz_s35_18.m4a,,,
,,,,,41245,2021-05-25_20h59.48.036,judgeSpeechMusic_20210519_logNormShiftAmp_mXs,2020.1.2,MacIntel,60,,,,,,,,,,,,,,,,,,,,,,,,,,2,5.659575,,0,1,40,190,113,1,stimuli/stim_20210519_power2amp/equal_lnn_AM4Hz_s25_20.m4a,,,
,,,,,41245,2021-05-25_20h59.48.036,judgeSpeechMusic_20210519_logNormShiftAmp_mXs,2020.1.2,MacIntel,60,,,,,,,,,,,,,,,,,,,,,,,,,,1,6.592625,,0,1,41,191,32,1,stimuli/stim_20210519_power2amp/equal_lnn_AM1Hz_s45_25.m4a,,,
,,,,,41245,2021-05-25_20h59.48.036,judgeSpeechMusic_20210519_logNormShiftAmp_mXs,2020.1.2,MacIntel,60,,,,,,,,,,,,,,,,,,,,,,,,,,2,6.00991,,0,1,42,192,58,1,stimuli/stim_20210519_power2amp/equal_lnn_AM2.5Hz_s15_37.m4a,,,
,,,,,41245,2021-05-25_20h59.48.036,judgeSpeechMusic_20210519_logNormShiftAmp_mXs,2020.1.2,MacIntel,60,,,,,,,,,,,,,,,,,,,,,,,,,,1,5.87561,,0,1,43,193,41,1,stimuli/stim_20210519_power2amp/equal_lnn_AM1Hz_s55_50.m4a,,,
,,,,,41245,2021-05-25_20h59.48.036,judgeSpeechMusic_20210519_logNormShiftAmp_mXs,2020.1.2,MacIntel,60,,,,,,,,,,,,,,,,,,,,,,,,,,1,6.925615,,0,1,44,194,148,1,stimuli/stim_20210519_power2amp/equal_lnn_AM4Hz_s55_23.m4a,,,
,,,,,41245,2021-05-25_20h59.48.036,judgeSpeechMusic_20210519_logNormShiftAmp_mXs,2020.1.2,MacIntel,60,,,,,,,,,,,,,,,,,,,,,,,,,,2,5.94287,,0,1,45,195,119,1,stimuli/stim_20210519_power2amp/equal_lnn_AM4Hz_s25_5.m4a,,,
,,,,,41245,2021-05-25_20h59.48.036,judgeSpeechMusic_20210519_logNormShiftAmp_mXs,2020.1.2,MacIntel,60,,,,,,,,,,,,,,,,,,,,,,,,,,2,6.174625,,0,1,46,196,142,1,stimuli/stim_20210519_power2amp/equal_lnn_AM4Hz_s55_39.m4a,,,
,,,,,41245,2021-05-25_20h59.48.036,judgeSpeechMusic_20210519_logNormShiftAmp_mXs,2020.1.2,MacIntel,60,,,,,,,,,,,,,,,,,,,,,,,,,,1,6.44351,,0,1,47,197,20,1,stimuli/stim_20210519_power2amp/equal_lnn_AM1Hz_s35_26.m4a,,,
,,,,,41245,2021-05-25_20h59.48.036,judgeSpeechMusic_20210519_logNormShiftAmp_mXs,2020.1.2,MacIntel,60,,,,,,,,,,,,,,,,,,,,,,,,,,2,5.924995,,0,1,48,198,103,1,stimuli/stim_20210519_power2amp/equal_lnn_AM4Hz_s15_45.m4a,,,
,,,,,41245,2021-05-25_20h59.48.036,judgeSpeechMusic_20210519_logNormShiftAmp_mXs,2020.1.2,MacIntel,60,,,,,,,,,,,,,,,,,,,,,,,,,,2,5.70897,,0,1,49,199,126,1,stimuli/stim_20210519_power2amp/equal_lnn_AM4Hz_s35_30.m4a,,,
,,,,,41245,2021-05-25_20h59.48.036,judgeSpeechMusic_20210519_logNormShiftAmp_mXs,2020.1.2,MacIntel,60,,,,,,,,,,,,,,,,,,,,,,,,,,1,6.86104,4,1,1,50,200,63,1,stimuli/stim_20210519_power2amp/equal_lnn_AM2.5Hz_s25_42.m4a,0.945385,,
,,,,,41245,2021-05-25_20h59.48.036,judgeSpeechMusic_20210519_logNormShiftAmp_mXs,2020.1.2,MacIntel,60,,,,,,,,,,,,,,,,,,,,,,,,,,1,6.15842,,0,1,51,201,28,1,stimuli/stim_20210519_power2amp/equal_lnn_AM1Hz_s35_23.m4a,,,
,,,,,41245,2021-05-25_20h59.48.036,judgeSpeechMusic_20210519_logNormShiftAmp_mXs,2020.1.2,MacIntel,60,,,,,,,,,,,,,,,,,,,,,,,,,,2,6.07564,,0,1,52,202,122,1,stimuli/stim_20210519_power2amp/equal_lnn_AM4Hz_s35_15.m4a,,,
,,,,,41245,2021-05-25_20h59.48.036,judgeSpeechMusic_20210519_logNormShiftAmp_mXs,2020.1.2,MacIntel,60,,,,,,,,,,,,,,,,,,,,,,,,,,2,6.22543,,0,1,53,203,125,1,stimuli/stim_20210519_power2amp/equal_lnn_AM4Hz_s35_36.m4a,,,
,,,,,41245,2021-05-25_20h59.48.036,judgeSpeechMusic_20210519_logNormShiftAmp_mXs,2020.1.2,MacIntel,60,,,,,,,,,,,,,,,,,,,,,,,,,,2,6.74201,,0,1,54,204,90,1,stimuli/stim_20210519_power2amp/equal_lnn_AM2.5Hz_s55_32.m4a,,,
,,,,,41245,2021-05-25_20h59.48.036,judgeSpeechMusic_20210519_logNormShiftAmp_mXs,2020.1.2,MacIntel,60,,,,,,,,,,,,,,,,,,,,,,,,,,2,7.09198,,0,1,55,205,57,1,stimuli/stim_20210519_power2amp/equal_lnn_AM2.5Hz_s15_14.m4a,,,
,,,,,41245,2021-05-25_20h59.48.036,judgeSpeechMusic_20210519_logNormShiftAmp_mXs,2020.1.2,MacIntel,60,,,,,,,,,,,,,,,,,,,,,,,,,,2,5.809175,,0,1,56,206,114,1,stimuli/stim_20210519_power2amp/equal_lnn_AM4Hz_s25_24.m4a,,,
,,,,,41245,2021-05-25_20h59.48.036,judgeSpeechMusic_20210519_logNormShiftAmp_mXs,2020.1.2,MacIntel,60,,,,,,,,,,,,,,,,,,,,,,,,,,2,8.15973,,0,1,57,207,121,1,stimuli/stim_20210519_power2amp/equal_lnn_AM4Hz_s35_40.m4a,,,
,,,,,41245,2021-05-25_20h59.48.036,judgeSpeechMusic_20210519_logNormShiftAmp_mXs,2020.1.2,MacIntel,60,,,,,,,,,,,,,,,,,,,,,,,,,,2,5.892515,,0,1,58,208,149,1,stimuli/stim_20210519_power2amp/equal_lnn_AM4Hz_s55_33.m4a,,,
,,,,,41245,2021-05-25_20h59.48.036,judgeSpeechMusic_20210519_logNormShiftAmp_mXs,2020.1.2,MacIntel,60,,,,,,,,,,,,,,,,,,,,,,,,,,1,5.960095,,0,1,59,209,25,1,stimuli/stim_20210519_power2amp/equal_lnn_AM1Hz_s35_37.m4a,,,
,,,,,41245,2021-05-25_20h59.48.036,judgeSpeechMusic_20210519_logNormShiftAmp_mXs,2020.1.2,MacIntel,60,,,,,,,,,,,,,,,,,,,,,,,,,,1,6.107495,,0,1,60,210,60,1,stimuli/stim_20210519_power2amp/equal_lnn_AM2.5Hz_s25_26.m4a,,,
,,,,,41245,2021-05-25_20h59.48.036,judgeSpeechMusic_20210519_logNormShiftAmp_mXs,2020.1.2,MacIntel,60,,,,,,,,,,,,,,,,,,,,,,,,,,2,5.87619,,0,1,61,211,75,1,stimuli/stim_20210519_power2amp/equal_lnn_AM2.5Hz_s35_18.m4a,,,
,,,,,41245,2021-05-25_20h59.48.036,judgeSpeechMusic_20210519_logNormShiftAmp_mXs,2020.1.2,MacIntel,60,,,,,,,,,,,,,,,,,,,,,,,,,,2,5.774175,,0,1,62,212,124,1,stimuli/stim_20210519_power2amp/equal_lnn_AM4Hz_s35_5.m4a,,,
,,,,,41245,2021-05-25_20h59.48.036,judgeSpeechMusic_20210519_logNormShiftAmp_mXs,2020.1.2,MacIntel,60,,,,,,,,,,,,,,,,,,,,,,,,,,2,5.723715,,0,1,63,213,139,1,stimuli/stim_20210519_power2amp/equal_lnn_AM4Hz_s45_20.m4a,,,
,,,,,41245,2021-05-25_20h59.48.036,judgeSpeechMusic_20210519_logNormShiftAmp_mXs,2020.1.2,MacIntel,60,,,,,,,,,,,,,,,,,,,,,,,,,,1,5.87705,,0,1,64,214,78,1,stimuli/stim_20210519_power2amp/equal_lnn_AM2.5Hz_s35_34.m4a,,,
,,,,,41245,2021-05-25_20h59.48.036,judgeSpeechMusic_20210519_logNormShiftAmp_mXs,2020.1.2,MacIntel,60,,,,,,,,,,,,,,,,,,,,,,,,,,2,6.44221,,0,1,65,215,107,1,stimuli/stim_20210519_power2amp/equal_lnn_AM4Hz_s15_28.m4a,,,
,,,,,41245,2021-05-25_20h59.48.036,judgeSpeechMusic_20210519_logNormShiftAmp_mXs,2020.1.2,MacIntel,60,,,,,,,,,,,,,,,,,,,,,,,,,,1,5.877395,,0,1,66,216,59,1,stimuli/stim_20210519_power2amp/equal_lnn_AM2.5Hz_s15_18.m4a,,,
,,,,,41245,2021-05-25_20h59.48.036,judgeSpeechMusic_20210519_logNormShiftAmp_mXs,2020.1.2,MacIntel,60,,,,,,,,,,,,,,,,,,,,,,,,,,2,5.856555,,0,1,67,217,74,1,stimuli/stim_20210519_power2amp/equal_lnn_AM2.5Hz_s35_7.m4a,,,
,,,,,41245,2021-05-25_20h59.48.036,judgeSpeechMusic_20210519_logNormShiftAmp_mXs,2020.1.2,MacIntel,60,,,,,,,,,,,,,,,,,,,,,,,,,,1,7.508625,,0,1,68,218,116,1,stimuli/stim_20210519_power2amp/equal_lnn_AM4Hz_s25_21.m4a,,,
,,,,,41245,2021-05-25_20h59.48.036,judgeSpeechMusic_20210519_logNormShiftAmp_mXs,2020.1.2,MacIntel,60,,,,,,,,,,,,,,,,,,,,,,,,,,1,6.341545,,0,1,69,219,67,1,stimuli/stim_20210519_power2amp/equal_lnn_AM2.5Hz_s25_16.m4a,,,
,,,,,41245,2021-05-25_20h59.48.036,judgeSpeechMusic_20210519_logNormShiftAmp_mXs,2020.1.2,MacIntel,60,,,,,,,,,,,,,,,,,,,,,,,,,,1,6.640445,,0,1,70,220,6,1,stimuli/stim_20210519_power2amp/equal_lnn_AM1Hz_s15_7.m4a,,,
,,,,,41245,2021-05-25_20h59.48.036,judgeSpeechMusic_20210519_logNormShiftAmp_mXs,2020.1.2,MacIntel,60,,,,,,,,,,,,,,,,,,,,,,,,,,1,5.86132,1,1,1,71,221,26,1,stimuli/stim_20210519_power2amp/equal_lnn_AM1Hz_s35_43.m4a,0.581465,,
,,,,,41245,2021-05-25_20h59.48.036,judgeSpeechMusic_20210519_logNormShiftAmp_mXs,2020.1.2,MacIntel,60,,,,,,,,,,,,,,,,,,,,,,,,,,1,5.807345,,0,1,72,222,15,1,stimuli/stim_20210519_power2amp/equal_lnn_AM1Hz_s25_23.m4a,,,
,,,,,41245,2021-05-25_20h59.48.036,judgeSpeechMusic_20210519_logNormShiftAmp_mXs,2020.1.2,MacIntel,60,,,,,,,,,,,,,,,,,,,,,,,,,,2,6.008585,,0,1,73,223,138,1,stimuli/stim_20210519_power2amp/equal_lnn_AM4Hz_s45_12.m4a,,,
,,,,,41245,2021-05-25_20h59.48.036,judgeSpeechMusic_20210519_logNormShiftAmp_mXs,2020.1.2,MacIntel,60,,,,,,,,,,,,,,,,,,,,,,,,,,2,5.725125,,0,1,74,224,98,1,stimuli/stim_20210519_power2amp/equal_lnn_AM2.5Hz_s55_28.m4a,,,
,,,,,41245,2021-05-25_20h59.48.036,judgeSpeechMusic_20210519_logNormShiftAmp_mXs,2020.1.2,MacIntel,60,,,,,,,,,,,,,,,,,,,,,,,,,,1,5.941145,,0,1,75,225,7,1,stimuli/stim_20210519_power2amp/equal_lnn_AM1Hz_s15_1.m4a,,,
,,,,,41245,2021-05-25_20h59.48.036,judgeSpeechMusic_20210519_logNormShiftAmp_mXs,2020.1.2,MacIntel,60,,,,,,,,,,,,,,,,,,,,,,,,,,2,5.85849,,0,1,76,226,133,1,stimuli/stim_20210519_power2amp/equal_lnn_AM4Hz_s45_22.m4a,,,
,,,,,41245,2021-05-25_20h59.48.036,judgeSpeechMusic_20210519_logNormShiftAmp_mXs,2020.1.2,MacIntel,60,,,,,,,,,,,,,,,,,,,,,,,,,,2,6.77484,,0,1,77,227,146,1,stimuli/stim_20210519_power2amp/equal_lnn_AM4Hz_s55_27.m4a,,,
,,,,,41245,2021-05-25_20h59.48.036,judgeSpeechMusic_20210519_logNormShiftAmp_mXs,2020.1.2,MacIntel,60,,,,,,,,,,,,,,,,,,,,,,,,,,1,6.090645,,0,1,78,228,2,1,stimuli/stim_20210519_power2amp/equal_lnn_AM1Hz_s15_9.m4a,,,
,,,,,41245,2021-05-25_20h59.48.036,judgeSpeechMusic_20210519_logNormShiftAmp_mXs,2020.1.2,MacIntel,60,,,,,,,,,,,,,,,,,,,,,,,,,,1,6.15838,,0,1,79,229,95,1,stimuli/stim_20210519_power2amp/equal_lnn_AM2.5Hz_s55_30.m4a,,,
,,,,,41245,2021-05-25_20h59.48.036,judgeSpeechMusic_20210519_logNormShiftAmp_mXs,2020.1.2,MacIntel,60,,,,,,,,,,,,,,,,,,,,,,,,,,1,5.610745,,0,1,80,230,29,1,stimuli/stim_20210519_power2amp/equal_lnn_AM1Hz_s35_11.m4a,,,
,,,,,41245,2021-05-25_20h59.48.036,judgeSpeechMusic_20210519_logNormShiftAmp_mXs,2020.1.2,MacIntel,60,,,,,,,,,,,,,,,,,,,,,,,,,,2,6.21181,,0,1,81,231,83,1,stimuli/stim_20210519_power2amp/equal_lnn_AM2.5Hz_s45_42.m4a,,,
,,,,,41245,2021-05-25_20h59.48.036,judgeSpeechMusic_20210519_logNormShiftAmp_mXs,2020.1.2,MacIntel,60,,,,,,,,,,,,,,,,,,,,,,,,,,2,7.675375,,0,1,82,232,68,1,stimuli/stim_20210519_power2amp/equal_lnn_AM2.5Hz_s25_32.m4a,,,
,,,,,41245,2021-05-25_20h59.48.036,judgeSpeechMusic_20210519_logNormShiftAmp_mXs,2020.1.2,MacIntel,60,,,,,,,,,,,,,,,,,,,,,,,,,,2,6.196535,,0,1,83,233,147,1,stimuli/stim_20210519_power2amp/equal_lnn_AM4Hz_s55_17.m4a,,,
,,,,,41245,2021-05-25_20h59.48.036,judgeSpeechMusic_20210519_logNormShiftAmp_mXs,2020.1.2,MacIntel,60,,,,,,,,,,,,,,,,,,,,,,,,,,1,6.440355,,0,1,84,234,76,1,stimuli/stim_20210519_power2amp/equal_lnn_AM2.5Hz_s35_25.m4a,,,
,,,,,41245,2021-05-25_20h59.48.036,judgeSpeechMusic_20210519_logNormShiftAmp_mXs,2020.1.2,MacIntel,60,,,,,,,,,,,,,,,,,,,,,,,,,,1,6.12481,,0,1,85,235,13,1,stimuli/stim_20210519_power2amp/equal_lnn_AM1Hz_s25_21.m4a,,,
,,,,,41245,2021-05-25_20h59.48.036,judgeSpeechMusic_20210519_logNormShiftAmp_mXs,2020.1.2,MacIntel,60,,,,,,,,,,,,,,,,,,,,,,,,,,1,6.340655,,0,1,86,236,10,1,stimuli/stim_20210519_power2amp/equal_lnn_AM1Hz_s25_32.m4a,,,
,,,,,41245,2021-05-25_20h59.48.036,judgeSpeechMusic_20210519_logNormShiftAmp_mXs,2020.1.2,MacIntel,60,,,,,,,,,,,,,,,,,,,,,,,,,,2,7.092335,,0,1,87,237,91,1,stimuli/stim_20210519_power2amp/equal_lnn_AM2.5Hz_s55_31.m4a,,,
,,,,,41245,2021-05-25_20h59.48.036,judgeSpeechMusic_20210519_logNormShiftAmp_mXs,2020.1.2,MacIntel,60,,,,,,,,,,,,,,,,,,,,,,,,,,1,6.31138,,0,1,88,238,66,1,stimuli/stim_20210519_power2amp/equal_lnn_AM2.5Hz_s25_49.m4a,,,
,,,,,41245,2021-05-25_20h59.48.036,judgeSpeechMusic_20210519_logNormShiftAmp_mXs,2020.1.2,MacIntel,60,,,,,,,,,,,,,,,,,,,,,,,,,,2,5.860965,,0,1,89,239,53,1,stimuli/stim_20210519_power2amp/equal_lnn_AM2.5Hz_s15_41.m4a,,,
,,,,,41245,2021-05-25_20h59.48.036,judgeSpeechMusic_20210519_logNormShiftAmp_mXs,2020.1.2,MacIntel,60,,,,,,,,,,,,,,,,,,,,,,,,,,1,5.76046,,0,1,90,240,77,1,stimuli/stim_20210519_power2amp/equal_lnn_AM2.5Hz_s35_48.m4a,,,
,,,,,41245,2021-05-25_20h59.48.036,judgeSpeechMusic_20210519_logNormShiftAmp_mXs,2020.1.2,MacIntel,60,,,,,,,,,,,,,,,,,,,,,,,,,,2,5.743895,,0,1,91,241,99,1,stimuli/stim_20210519_power2amp/equal_lnn_AM2.5Hz_s55_35.m4a,,,
,,,,,41245,2021-05-25_20h59.48.036,judgeSpeechMusic_20210519_logNormShiftAmp_mXs,2020.1.2,MacIntel,60,,,,,,,,,,,,,,,,,,,,,,,,,,1,5.94247,2,1,1,92,242,50,1,stimuli/stim_20210519_power2amp/equal_lnn_AM2.5Hz_s15_6.m4a,0.49557,,
,,,,,41245,2021-05-25_20h59.48.036,judgeSpeechMusic_20210519_logNormShiftAmp_mXs,2020.1.2,MacIntel,60,,,,,,,,,,,,,,,,,,,,,,,,,,1,6.77341,,0,1,93,243,30,1,stimuli/stim_20210519_power2amp/equal_lnn_AM1Hz_s45_44.m4a,,,
,,,,,41245,2021-05-25_20h59.48.036,judgeSpeechMusic_20210519_logNormShiftAmp_mXs,2020.1.2,MacIntel,60,,,,,,,,,,,,,,,,,,,,,,,,,,2,6.023695,,0,1,94,244,69,1,stimuli/stim_20210519_power2amp/equal_lnn_AM2.5Hz_s25_17.m4a,,,
,,,,,41245,2021-05-25_20h59.48.036,judgeSpeechMusic_20210519_logNormShiftAmp_mXs,2020.1.2,MacIntel,60,,,,,,,,,,,,,,,,,,,,,,,,,,1,6.108075,,0,1,95,245,86,1,stimuli/stim_20210519_power2amp/equal_lnn_AM2.5Hz_s45_22.m4a,,,
,,,,,41245,2021-05-25_20h59.48.036,judgeSpeechMusic_20210519_logNormShiftAmp_mXs,2020.1.2,MacIntel,60,,,,,,,,,,,,,,,,,,,,,,,,,,2,5.858475,,0,1,96,246,127,1,stimuli/stim_20210519_power2amp/equal_lnn_AM4Hz_s35_24.m4a,,,
,,,,,41245,2021-05-25_20h59.48.036,judgeSpeechMusic_20210519_logNormShiftAmp_mXs,2020.1.2,MacIntel,60,,,,,,,,,,,,,,,,,,,,,,,,,,2,5.943275,,0,1,97,247,109,1,stimuli/stim_20210519_power2amp/equal_lnn_AM4Hz_s15_32.m4a,,,
,,,,,41245,2021-05-25_20h59.48.036,judgeSpeechMusic_20210519_logNormShiftAmp_mXs,2020.1.2,MacIntel,60,,,,,,,,,,,,,,,,,,,,,,,,,,2,5.875445,,0,1,98,248,118,1,stimuli/stim_20210519_power2amp/equal_lnn_AM4Hz_s25_12.m4a,,,
,,,,,41245,2021-05-25_20h59.48.036,judgeSpeechMusic_20210519_logNormShiftAmp_mXs,2020.1.2,MacIntel,60,,,,,,,,,,,,,,,,,,,,,,,,,,1,5.82792,,0,1,99,249,11,1,stimuli/stim_20210519_power2amp/equal_lnn_AM1Hz_s25_20.m4a,,,
,,,,,41245,2021-05-25_20h59.48.036,judgeSpeechMusic_20210519_logNormShiftAmp_mXs,2020.1.2,MacIntel,60,,,,,,,,,,,,,,,,,,,,,,,,,,2,5.90909,,0,1,100,250,52,1,stimuli/stim_20210519_power2amp/equal_lnn_AM2.5Hz_s15_26.m4a,,,
,,,,,41245,2021-05-25_20h59.48.036,judgeSpeechMusic_20210519_logNormShiftAmp_mXs,2020.1.2,MacIntel,60,,,,,,,,,,,,,,,,,,,,,,,,,,2,6.1258,,0,1,101,251,81,1,stimuli/stim_20210519_power2amp/equal_lnn_AM2.5Hz_s45_14.m4a,,,
,,,,,41245,2021-05-25_20h59.48.036,judgeSpeechMusic_20210519_logNormShiftAmp_mXs,2020.1.2,MacIntel,60,,,,,,,,,,,,,,,,,,,,,,,,,,1,5.9583,,0,1,102,252,21,1,stimuli/stim_20210519_power2amp/equal_lnn_AM1Hz_s35_9.m4a,,,
,,,,,41245,2021-05-25_20h59.48.036,judgeSpeechMusic_20210519_logNormShiftAmp_mXs,2020.1.2,MacIntel,60,,,,,,,,,,,,,,,,,,,,,,,,,,2,5.91077,,0,1,103,253,54,1,stimuli/stim_20210519_power2amp/equal_lnn_AM2.5Hz_s15_29.m4a,,,
,,,,,41245,2021-05-25_20h59.48.036,judgeSpeechMusic_20210519_logNormShiftAmp_mXs,2020.1.2,MacIntel,60,,,,,,,,,,,,,,,,,,,,,,,,,,2,5.944955,,0,1,104,254,105,1,stimuli/stim_20210519_power2amp/equal_lnn_AM4Hz_s15_30.m4a,,,
,,,,,41245,2021-05-25_20h59.48.036,judgeSpeechMusic_20210519_logNormShiftAmp_mXs,2020.1.2,MacIntel,60,,,,,,,,,,,,,,,,,,,,,,,,,,1,6.02492,,0,1,105,255,8,1,stimuli/stim_20210519_power2amp/equal_lnn_AM1Hz_s15_48.m4a,,,
,,,,,41245,2021-05-25_20h59.48.036,judgeSpeechMusic_20210519_logNormShiftAmp_mXs,2020.1.2,MacIntel,60,,,,,,,,,,,,,,,,,,,,,,,,,,2,6.02398,,0,1,106,256,72,1,stimuli/stim_20210519_power2amp/equal_lnn_AM2.5Hz_s35_22.m4a,,,
,,,,,41245,2021-05-25_20h59.48.036,judgeSpeechMusic_20210519_logNormShiftAmp_mXs,2020.1.2,MacIntel,60,,,,,,,,,,,,,,,,,,,,,,,,,,2,7.06032,,0,1,107,257,70,1,stimuli/stim_20210519_power2amp/equal_lnn_AM2.5Hz_s35_11.m4a,,,
,,,,,41245,2021-05-25_20h59.48.036,judgeSpeechMusic_20210519_logNormShiftAmp_mXs,2020.1.2,MacIntel,60,,,,,,,,,,,,,,,,,,,,,,,,,,1,5.875655,,0,1,108,258,24,1,stimuli/stim_20210519_power2amp/equal_lnn_AM1Hz_s35_18.m4a,,,
,,,,,41245,2021-05-25_20h59.48.036,judgeSpeechMusic_20210519_logNormShiftAmp_mXs,2020.1.2,MacIntel,60,,,,,,,,,,,,,,,,,,,,,,,,,,2,5.96015,,0,1,109,259,97,1,stimuli/stim_20210519_power2amp/equal_lnn_AM2.5Hz_s55_49.m4a,,,
,,,,,41245,2021-05-25_20h59.48.036,judgeSpeechMusic_20210519_logNormShiftAmp_mXs,2020.1.2,MacIntel,60,,,,,,,,,,,,,,,,,,,,,,,,,,2,5.910975,,0,1,110,260,51,1,stimuli/stim_20210519_power2amp/equal_lnn_AM2.5Hz_s15_48.m4a,,,
,,,,,41245,2021-05-25_20h59.48.036,judgeSpeechMusic_20210519_logNormShiftAmp_mXs,2020.1.2,MacIntel,60,,,,,,,,,,,,,,,,,,,,,,,,,,1,6.430395,,0,1,111,261,33,1,stimuli/stim_20210519_power2amp/equal_lnn_AM1Hz_s45_29.m4a,,,
,,,,,41245,2021-05-25_20h59.48.036,judgeSpeechMusic_20210519_logNormShiftAmp_mXs,2020.1.2,MacIntel,60,,,,,,,,,,,,,,,,,,,,,,,,,,2,5.95782,,0,1,112,262,94,1,stimuli/stim_20210519_power2amp/equal_lnn_AM2.5Hz_s55_2.m4a,,,
,,,,,41245,2021-05-25_20h59.48.036,judgeSpeechMusic_20210519_logNormShiftAmp_mXs,2020.1.2,MacIntel,60,,,,,,,,,,,,,,,,,,,,,,,,,,2,5.775505,,0,1,113,263,111,1,stimuli/stim_20210519_power2amp/equal_lnn_AM4Hz_s25_36.m4a,,,
,,,,,41245,2021-05-25_20h59.48.036,judgeSpeechMusic_20210519_logNormShiftAmp_mXs,2020.1.2,MacIntel,60,,,,,,,,,,,,,,,,,,,,,,,,,,2,6.38128,,0,1,114,264,55,1,stimuli/stim_20210519_power2amp/equal_lnn_AM2.5Hz_s15_17.m4a,,,
,,,,,41245,2021-05-25_20h59.48.036,judgeSpeechMusic_20210519_logNormShiftAmp_mXs,2020.1.2,MacIntel,60,,,,,,,,,,,,,,,,,,,,,,,,,,2,5.82592,,0,1,115,265,84,1,stimuli/stim_20210519_power2amp/equal_lnn_AM2.5Hz_s45_16.m4a,,,
,,,,,41245,2021-05-25_20h59.48.036,judgeSpeechMusic_20210519_logNormShiftAmp_mXs,2020.1.2,MacIntel,60,,,,,,,,,,,,,,,,,,,,,,,,,,2,5.925165,3,1,1,116,266,117,1,stimuli/stim_20210519_power2amp/equal_lnn_AM4Hz_s25_26.m4a,0.77947,,
,,,,,41245,2021-05-25_20h59.48.036,judgeSpeechMusic_20210519_logNormShiftAmp_mXs,2020.1.2,MacIntel,60,,,,,,,,,,,,,,,,,,,,,,,,,,1,5.70821,,0,1,117,267,49,1,stimuli/stim_20210519_power2amp/equal_lnn_AM1Hz_s55_10.m4a,,,
,,,,,41245,2021-05-25_20h59.48.036,judgeSpeechMusic_20210519_logNormShiftAmp_mXs,2020.1.2,MacIntel,60,,,,,,,,,,,,,,,,,,,,,,,,,,2,5.87816,,0,1,118,268,120,1,stimuli/stim_20210519_power2amp/equal_lnn_AM4Hz_s35_27.m4a,,,
,,,,,41245,2021-05-25_20h59.48.036,judgeSpeechMusic_20210519_logNormShiftAmp_mXs,2020.1.2,MacIntel,60,,,,,,,,,,,,,,,,,,,,,,,,,,1,6.091555,,0,1,119,269,4,1,stimuli/stim_20210519_power2amp/equal_lnn_AM1Hz_s15_21.m4a,,,
,,,,,41245,2021-05-25_20h59.48.036,judgeSpeechMusic_20210519_logNormShiftAmp_mXs,2020.1.2,MacIntel,60,,,,,,,,,,,,,,,,,,,,,,,,,,1,5.93016,,0,1,120,270,12,1,stimuli/stim_20210519_power2amp/equal_lnn_AM1Hz_s25_4.m4a,,,
,,,,,41245,2021-05-25_20h59.48.036,judgeSpeechMusic_20210519_logNormShiftAmp_mXs,2020.1.2,MacIntel,60,,,,,,,,,,,,,,,,,,,,,,,,,,2,5.957415,,0,1,121,271,89,1,stimuli/stim_20210519_power2amp/equal_lnn_AM2.5Hz_s45_37.m4a,,,
,,,,,41245,2021-05-25_20h59.48.036,judgeSpeechMusic_20210519_logNormShiftAmp_mXs,2020.1.2,MacIntel,60,,,,,,,,,,,,,,,,,,,,,,,,,,2,5.94432,,0,1,122,272,144,1,stimuli/stim_20210519_power2amp/equal_lnn_AM4Hz_s55_20.m4a,,,
,,,,,41245,2021-05-25_20h59.48.036,judgeSpeechMusic_20210519_logNormShiftAmp_mXs,2020.1.2,MacIntel,60,,,,,,,,,,,,,,,,,,,,,,,,,,2,6.027015,,0,1,123,273,134,1,stimuli/stim_20210519_power2amp/equal_lnn_AM4Hz_s45_15.m4a,,,
,,,,,41245,2021-05-25_20h59.48.036,judgeSpeechMusic_20210519_logNormShiftAmp_mXs,2020.1.2,MacIntel,60,,,,,,,,,,,,,,,,,,,,,,,,,,2,5.87484,,0,1,124,274,132,1,stimuli/stim_20210519_power2amp/equal_lnn_AM4Hz_s45_27.m4a,,,
,,,,,41245,2021-05-25_20h59.48.036,judgeSpeechMusic_20210519_logNormShiftAmp_mXs,2020.1.2,MacIntel,60,,,,,,,,,,,,,,,,,,,,,,,,,,2,6.892095,,0,1,125,275,104,1,stimuli/stim_20210519_power2amp/equal_lnn_AM4Hz_s15_14.m4a,,,
,,,,,41245,2021-05-25_20h59.48.036,judgeSpeechMusic_20210519_logNormShiftAmp_mXs,2020.1.2,MacIntel,60,,,,,,,,,,,,,,,,,,,,,,,,,,2,5.84377,,0,1,126,276,101,1,stimuli/stim_20210519_power2amp/equal_lnn_AM4Hz_s15_10.m4a,,,
,,,,,41245,2021-05-25_20h59.48.036,judgeSpeechMusic_20210519_logNormShiftAmp_mXs,2020.1.2,MacIntel,60,,,,,,,,,,,,,,,,,,,,,,,,,,1,7.109485,,0,1,127,277,88,1,stimuli/stim_20210519_power2amp/equal_lnn_AM2.5Hz_s45_21.m4a,,,
,,,,,41245,2021-05-25_20h59.48.036,judgeSpeechMusic_20210519_logNormShiftAmp_mXs,2020.1.2,MacIntel,60,,,,,,,,,,,,,,,,,,,,,,,,,,1,6.824925,,0,1,128,278,22,1,stimuli/stim_20210519_power2amp/equal_lnn_AM1Hz_s35_33.m4a,,,
,,,,,41245,2021-05-25_20h59.48.036,judgeSpeechMusic_20210519_logNormShiftAmp_mXs,2020.1.2,MacIntel,60,,,,,,,,,,,,,,,,,,,,,,,,,,1,6.592745,,0,1,129,279,5,1,stimuli/stim_20210519_power2amp/equal_lnn_AM1Hz_s15_19.m4a,,,
,,,,,41245,2021-05-25_20h59.48.036,judgeSpeechMusic_20210519_logNormShiftAmp_mXs,2020.1.2,MacIntel,60,,,,,,,,,,,,,,,,,,,,,,,,,,2,5.77696,,0,1,130,280,131,1,stimuli/stim_20210519_power2amp/equal_lnn_AM4Hz_s45_33.m4a,,,
,,,,,41245,2021-05-25_20h59.48.036,judgeSpeechMusic_20210519_logNormShiftAmp_mXs,2020.1.2,MacIntel,60,,,,,,,,,,,,,,,,,,,,,,,,,,1,5.96031,,0,1,131,281,31,1,stimuli/stim_20210519_power2amp/equal_lnn_AM1Hz_s45_8.m4a,,,
,,,,,41245,2021-05-25_20h59.48.036,judgeSpeechMusic_20210519_logNormShiftAmp_mXs,2020.1.2,MacIntel,60,,,,,,,,,,,,,,,,,,,,,,,,,,2,5.729735,,0,1,132,282,71,1,stimuli/stim_20210519_power2amp/equal_lnn_AM2.5Hz_s35_12.m4a,,,
,,,,,41245,2021-05-25_20h59.48.036,judgeSpeechMusic_20210519_logNormShiftAmp_mXs,2020.1.2,MacIntel,60,,,,,,,,,,,,,,,,,,,,,,,,,,1,5.69093,,0,1,133,283,42,1,stimuli/stim_20210519_power2amp/equal_lnn_AM1Hz_s55_42.m4a,,,
,,,,,41245,2021-05-25_20h59.48.036,judgeSpeechMusic_20210519_logNormShiftAmp_mXs,2020.1.2,MacIntel,60,,,,,,,,,,,,,,,,,,,,,,,,,,2,5.889815,,0,1,134,284,112,1,stimuli/stim_20210519_power2amp/equal_lnn_AM4Hz_s25_40.m4a,,,
,,,,,41245,2021-05-25_20h59.48.036,judgeSpeechMusic_20210519_logNormShiftAmp_mXs,2020.1.2,MacIntel,60,,,,,,,,,,,,,,,,,,,,,,,,,,1,5.794405,,0,1,135,285,44,1,stimuli/stim_20210519_power2amp/equal_lnn_AM1Hz_s55_16.m4a,,,
,,,,,41245,2021-05-25_20h59.48.036,judgeSpeechMusic_20210519_logNormShiftAmp_mXs,2020.1.2,MacIntel,60,,,,,,,,,,,,,,,,,,,,,,,,,,1,6.05848,2,1,1,136,286,45,1,stimuli/stim_20210519_power2amp/equal_lnn_AM1Hz_s55_45.m4a,1.130115,,
,,,,,41245,2021-05-25_20h59.48.036,judgeSpeechMusic_20210519_logNormShiftAmp_mXs,2020.1.2,MacIntel,60,,,,,,,,,,,,,,,,,,,,,,,,,,2,5.72415,,0,1,137,287,73,1,stimuli/stim_20210519_power2amp/equal_lnn_AM2.5Hz_s35_28.m4a,,,
,,,,,41245,2021-05-25_20h59.48.036,judgeSpeechMusic_20210519_logNormShiftAmp_mXs,2020.1.2,MacIntel,60,,,,,,,,,,,,,,,,,,,,,,,,,,2,5.79268,,0,1,138,288,141,1,stimuli/stim_20210519_power2amp/equal_lnn_AM4Hz_s55_6.m4a,,,
,,,,,41245,2021-05-25_20h59.48.036,judgeSpeechMusic_20210519_logNormShiftAmp_mXs,2020.1.2,MacIntel,60,,,,,,,,,,,,,,,,,,,,,,,,,,1,6.50958,,0,1,139,289,65,1,stimuli/stim_20210519_power2amp/equal_lnn_AM2.5Hz_s25_22.m4a,,,
,,,,,41245,2021-05-25_20h59.48.036,judgeSpeechMusic_20210519_logNormShiftAmp_mXs,2020.1.2,MacIntel,60,,,,,,,,,,,,,,,,,,,,,,,,,,1,6.140935,,0,1,140,290,23,1,stimuli/stim_20210519_power2amp/equal_lnn_AM1Hz_s35_32.m4a,,,
,,,,,41245,2021-05-25_20h59.48.036,judgeSpeechMusic_20210519_logNormShiftAmp_mXs,2020.1.2,MacIntel,60,,,,,,,,,,,,,,,,,,,,,,,,,,1,6.24123,,0,1,141,291,62,1,stimuli/stim_20210519_power2amp/equal_lnn_AM2.5Hz_s25_24.m4a,,,
,,,,,41245,2021-05-25_20h59.48.036,judgeSpeechMusic_20210519_logNormShiftAmp_mXs,2020.1.2,MacIntel,60,,,,,,,,,,,,,,,,,,,,,,,,,,2,5.65897,,0,1,142,292,143,1,stimuli/stim_20210519_power2amp/equal_lnn_AM4Hz_s55_25.m4a,,,
,,,,,41245,2021-05-25_20h59.48.036,judgeSpeechMusic_20210519_logNormShiftAmp_mXs,2020.1.2,MacIntel,60,,,,,,,,,,,,,,,,,,,,,,,,,,1,5.926605,,0,1,143,293,79,1,stimuli/stim_20210519_power2amp/equal_lnn_AM2.5Hz_s35_40.m4a,,,
,,,,,41245,2021-05-25_20h59.48.036,judgeSpeechMusic_20210519_logNormShiftAmp_mXs,2020.1.2,MacIntel,60,,,,,,,,,,,,,,,,,,,,,,,,,,1,6.009935,,0,1,144,294,19,1,stimuli/stim_20210519_power2amp/equal_lnn_AM1Hz_s25_40.m4a,,,
,,,,,41245,2021-05-25_20h59.48.036,judgeSpeechMusic_20210519_logNormShiftAmp_mXs,2020.1.2,MacIntel,60,,,,,,,,,,,,,,,,,,,,,,,,,,2,5.84406,,0,1,145,295,130,1,stimuli/stim_20210519_power2amp/equal_lnn_AM4Hz_s45_26.m4a,,,
,,,,,41245,2021-05-25_20h59.48.036,judgeSpeechMusic_20210519_logNormShiftAmp_mXs,2020.1.2,MacIntel,60,,,,,,,,,,,,,,,,,,,,,,,,,,2,5.758035,,0,1,146,296,108,1,stimuli/stim_20210519_power2amp/equal_lnn_AM4Hz_s15_41.m4a,,,
,,,,,41245,2021-05-25_20h59.48.036,judgeSpeechMusic_20210519_logNormShiftAmp_mXs,2020.1.2,MacIntel,60,,,,,,,,,,,,,,,,,,,,,,,,,,1,5.876365,,0,1,147,297,47,1,stimuli/stim_20210519_power2amp/equal_lnn_AM1Hz_s55_30.m4a,,,
,,,,,41245,2021-05-25_20h59.48.036,judgeSpeechMusic_20210519_logNormShiftAmp_mXs,2020.1.2,MacIntel,60,,,,,,,,,,,,,,,,,,,,,,,,,,1,5.69178,,0,1,148,298,100,1,stimuli/stim_20210519_power2amp/equal_lnn_AM4Hz_s15_9.m4a,,,
,,,,,41245,2021-05-25_20h59.48.036,judgeSpeechMusic_20210519_logNormShiftAmp_mXs,2020.1.2,MacIntel,60,,,,,,,,,,,,,,,,,,,,,,,,,,1,6.0413,,0,1,149,299,61,1,stimuli/stim_20210519_power2amp/equal_lnn_AM2.5Hz_s25_13.m4a,,,
,,,,,41245,2021-05-25_20h59.48.036,judgeSpeechMusic_20210519_logNormShiftAmp_mXs,2020.1.2,MacIntel,60,,,,,,,,,,,,,,,,,,,,,,,,,,,,,,,,,,,,,space,7.167695
