volAdjustRep.thisRepN,volAdjustRep.thisTrialN,volAdjustRep.thisN,volAdjustRep.thisIndex,volAdjustRep.ran,participant,date,expName,psychopyVersion,OS,frameRate,headphoneResponse.keys,headphoneResponse.corr,headphoneResponse.rt,headphoneTrial.thisRepN,headphoneTrial.thisTrialN,headphoneTrial.thisN,headphoneTrial.thisIndex,headphoneTrial.ran,headphone_sound1,headphone_sound2,headphone_sound3,corrAns,trainSlider.response,trainSlider.rt,beepTrainResponse.keys,beepTrainResponse.corr,trainingTrials.thisRepN,trainingTrials.thisTrialN,trainingTrials.thisN,trainingTrials.thisIndex,trainingTrials.ran,trainAudioFile,beepTrainResponse.rt,readyReal_resp.keys,readyReal_resp.rt,ratingSlider.response,ratingSlider.rt,beepResp.keys,beepResp.corr,expTrials.thisRepN,expTrials.thisTrialN,expTrials.thisN,expTrials.thisIndex,expTrials.ran,audioFile,beepResp.rt,end_resp.keys,end_resp.rt
0,0,0,0,1,41244,2021-06-06_09h43.22.305,judgeSpeechMusic_20210519_logNormShiftAmp_mXs,2020.1.2,MacIntel,60,,,,,,,,,,,,,,,,,,,,,,,,,,,,,,,,,,,,,,
,,,,,41244,2021-06-06_09h43.22.305,judgeSpeechMusic_20210519_logNormShiftAmp_mXs,2020.1.2,MacIntel,60,2,1,2.8524,0,0,0,3,1,stimuli/screen_origin.wav,stimuli/screen_quiet.wav,stimuli/screen_antiphase.wav,2,,,,,,,,,,,,,,,,,,,,,,,,,,
,,,,,41244,2021-06-06_09h43.22.305,judgeSpeechMusic_20210519_logNormShiftAmp_mXs,2020.1.2,MacIntel,60,1,1,1.4856,0,1,1,5,1,stimuli/screen_quiet.wav,stimuli/screen_origin.wav,stimuli/screen_antiphase.wav,1,,,,,,,,,,,,,,,,,,,,,,,,,,
,,,,,41244,2021-06-06_09h43.22.305,judgeSpeechMusic_20210519_logNormShiftAmp_mXs,2020.1.2,MacIntel,60,2,1,1.1011,0,2,2,1,1,stimuli/screen_antiphase.wav,stimuli/screen_quiet.wav,stimuli/screen_origin.wav,2,,,,,,,,,,,,,,,,,,,,,,,,,,
,,,,,41244,2021-06-06_09h43.22.305,judgeSpeechMusic_20210519_logNormShiftAmp_mXs,2020.1.2,MacIntel,60,1,1,1.3352,0,3,3,4,1,stimuli/screen_quiet.wav,stimuli/screen_antiphase.wav,stimuli/screen_origin.wav,1,,,,,,,,,,,,,,,,,,,,,,,,,,
,,,,,41244,2021-06-06_09h43.22.305,judgeSpeechMusic_20210519_logNormShiftAmp_mXs,2020.1.2,MacIntel,60,3,1,0.5831,0,4,4,2,1,stimuli/screen_origin.wav,stimuli/screen_antiphase.wav,stimuli/screen_quiet.wav,3,,,,,,,,,,,,,,,,,,,,,,,,,,
,,,,,41244,2021-06-06_09h43.22.305,judgeSpeechMusic_20210519_logNormShiftAmp_mXs,2020.1.2,MacIntel,60,3,1,0.6895,0,5,5,0,1,stimuli/screen_antiphase.wav,stimuli/screen_origin.wav,stimuli/screen_quiet.wav,3,,,,,,,,,,,,,,,,,,,,,,,,,,
,,,,,41244,2021-06-06_09h43.22.305,judgeSpeechMusic_20210519_logNormShiftAmp_mXs,2020.1.2,MacIntel,60,,,,,,,,,,,,,2,15.7866,,0,0,0,0,3,1,stimuli/stim_20210519_power2amp/equal_lnn_AM_training3.5Hz_s50.m4a,,,,,,,,,,,,,,,,
,,,,,41244,2021-06-06_09h43.22.305,judgeSpeechMusic_20210519_logNormShiftAmp_mXs,2020.1.2,MacIntel,60,,,,,,,,,,,,,2,7.6469,,0,0,1,1,1,1,stimuli/stim_20210519_power2amp/equal_lnn_AM_training1.5Hz_s50.m4a,,,,,,,,,,,,,,,,
,,,,,41244,2021-06-06_09h43.22.305,judgeSpeechMusic_20210519_logNormShiftAmp_mXs,2020.1.2,MacIntel,60,,,,,,,,,,,,,1,5.8704,2,1,0,2,2,2,1,stimuli/stim_20210519_power2amp/equal_lnn_AM_training3.5Hz_s20.m4a,2.1887,,,,,,,,,,,,,,,
,,,,,41244,2021-06-06_09h43.22.305,judgeSpeechMusic_20210519_logNormShiftAmp_mXs,2020.1.2,MacIntel,60,,,,,,,,,,,,,1,6.4023,,0,0,3,3,0,1,stimuli/stim_20210519_power2amp/equal_lnn_AM_training1.5Hz_s20.m4a,,,,,,,,,,,,,,,,
,,,,,41244,2021-06-06_09h43.22.305,judgeSpeechMusic_20210519_logNormShiftAmp_mXs,2020.1.2,MacIntel,60,,,,,,,,,,,,,,,,,,,,,,,,space,6.4347,1,6.5919,,0,0,0,0,111,1,stimuli/stim_20210519_power2amp/equal_lnn_AM4Hz_s25_19.m4a,,,
,,,,,41244,2021-06-06_09h43.22.305,judgeSpeechMusic_20210519_logNormShiftAmp_mXs,2020.1.2,MacIntel,60,,,,,,,,,,,,,,,,,,,,,,,,,,2,7.0964,,0,0,1,1,148,1,stimuli/stim_20210519_power2amp/equal_lnn_AM4Hz_s55_19.m4a,,,
,,,,,41244,2021-06-06_09h43.22.305,judgeSpeechMusic_20210519_logNormShiftAmp_mXs,2020.1.2,MacIntel,60,,,,,,,,,,,,,,,,,,,,,,,,,,1,6.0302,,0,0,2,2,61,1,stimuli/stim_20210519_power2amp/equal_lnn_AM2.5Hz_s25_38.m4a,,,
,,,,,41244,2021-06-06_09h43.22.305,judgeSpeechMusic_20210519_logNormShiftAmp_mXs,2020.1.2,MacIntel,60,,,,,,,,,,,,,,,,,,,,,,,,,,2,6.738,,0,0,3,3,103,1,stimuli/stim_20210519_power2amp/equal_lnn_AM4Hz_s15_29.m4a,,,
,,,,,41244,2021-06-06_09h43.22.305,judgeSpeechMusic_20210519_logNormShiftAmp_mXs,2020.1.2,MacIntel,60,,,,,,,,,,,,,,,,,,,,,,,,,,1,7.3387,,0,0,4,4,48,1,stimuli/stim_20210519_power2amp/equal_lnn_AM1Hz_s55_13.m4a,,,
,,,,,41244,2021-06-06_09h43.22.305,judgeSpeechMusic_20210519_logNormShiftAmp_mXs,2020.1.2,MacIntel,60,,,,,,,,,,,,,,,,,,,,,,,,,,1,6.6054,,0,0,5,5,6,1,stimuli/stim_20210519_power2amp/equal_lnn_AM1Hz_s15_13.m4a,,,
,,,,,41244,2021-06-06_09h43.22.305,judgeSpeechMusic_20210519_logNormShiftAmp_mXs,2020.1.2,MacIntel,60,,,,,,,,,,,,,,,,,,,,,,,,,,2,6.8205,,0,0,6,6,43,1,stimuli/stim_20210519_power2amp/equal_lnn_AM1Hz_s55_24.m4a,,,
,,,,,41244,2021-06-06_09h43.22.305,judgeSpeechMusic_20210519_logNormShiftAmp_mXs,2020.1.2,MacIntel,60,,,,,,,,,,,,,,,,,,,,,,,,,,2,5.8889,,0,0,7,7,131,1,stimuli/stim_20210519_power2amp/equal_lnn_AM4Hz_s45_46.m4a,,,
,,,,,41244,2021-06-06_09h43.22.305,judgeSpeechMusic_20210519_logNormShiftAmp_mXs,2020.1.2,MacIntel,60,,,,,,,,,,,,,,,,,,,,,,,,,,1,6.0708,,0,0,8,8,135,1,stimuli/stim_20210519_power2amp/equal_lnn_AM4Hz_s45_18.m4a,,,
,,,,,41244,2021-06-06_09h43.22.305,judgeSpeechMusic_20210519_logNormShiftAmp_mXs,2020.1.2,MacIntel,60,,,,,,,,,,,,,,,,,,,,,,,,,,2,5.9547,,0,0,9,9,88,1,stimuli/stim_20210519_power2amp/equal_lnn_AM2.5Hz_s45_38.m4a,,,
,,,,,41244,2021-06-06_09h43.22.305,judgeSpeechMusic_20210519_logNormShiftAmp_mXs,2020.1.2,MacIntel,60,,,,,,,,,,,,,,,,,,,,,,,,,,2,7.7031,,0,0,10,10,134,1,stimuli/stim_20210519_power2amp/equal_lnn_AM4Hz_s45_35.m4a,,,
,,,,,41244,2021-06-06_09h43.22.305,judgeSpeechMusic_20210519_logNormShiftAmp_mXs,2020.1.2,MacIntel,60,,,,,,,,,,,,,,,,,,,,,,,,,,1,6.8287,,0,0,11,11,3,1,stimuli/stim_20210519_power2amp/equal_lnn_AM1Hz_s15_49.m4a,,,
,,,,,41244,2021-06-06_09h43.22.305,judgeSpeechMusic_20210519_logNormShiftAmp_mXs,2020.1.2,MacIntel,60,,,,,,,,,,,,,,,,,,,,,,,,,,2,6.2237,,0,0,12,12,78,1,stimuli/stim_20210519_power2amp/equal_lnn_AM2.5Hz_s35_40.m4a,,,
,,,,,41244,2021-06-06_09h43.22.305,judgeSpeechMusic_20210519_logNormShiftAmp_mXs,2020.1.2,MacIntel,60,,,,,,,,,,,,,,,,,,,,,,,,,,1,6.0562,,0,0,13,13,104,1,stimuli/stim_20210519_power2amp/equal_lnn_AM4Hz_s15_39.m4a,,,
,,,,,41244,2021-06-06_09h43.22.305,judgeSpeechMusic_20210519_logNormShiftAmp_mXs,2020.1.2,MacIntel,60,,,,,,,,,,,,,,,,,,,,,,,,,,2,5.8032,,0,0,14,14,85,1,stimuli/stim_20210519_power2amp/equal_lnn_AM2.5Hz_s45_43.m4a,,,
,,,,,41244,2021-06-06_09h43.22.305,judgeSpeechMusic_20210519_logNormShiftAmp_mXs,2020.1.2,MacIntel,60,,,,,,,,,,,,,,,,,,,,,,,,,,2,5.9645,,0,0,15,15,112,1,stimuli/stim_20210519_power2amp/equal_lnn_AM4Hz_s25_40.m4a,,,
,,,,,41244,2021-06-06_09h43.22.305,judgeSpeechMusic_20210519_logNormShiftAmp_mXs,2020.1.2,MacIntel,60,,,,,,,,,,,,,,,,,,,,,,,,,,2,7.7605,,0,0,16,16,140,1,stimuli/stim_20210519_power2amp/equal_lnn_AM4Hz_s55_48.m4a,,,
,,,,,41244,2021-06-06_09h43.22.305,judgeSpeechMusic_20210519_logNormShiftAmp_mXs,2020.1.2,MacIntel,60,,,,,,,,,,,,,,,,,,,,,,,,,,1,6.1037,,0,0,17,17,71,1,stimuli/stim_20210519_power2amp/equal_lnn_AM2.5Hz_s35_42.m4a,,,
,,,,,41244,2021-06-06_09h43.22.305,judgeSpeechMusic_20210519_logNormShiftAmp_mXs,2020.1.2,MacIntel,60,,,,,,,,,,,,,,,,,,,,,,,,,,1,5.8381,,0,0,18,18,98,1,stimuli/stim_20210519_power2amp/equal_lnn_AM2.5Hz_s55_18.m4a,,,
,,,,,41244,2021-06-06_09h43.22.305,judgeSpeechMusic_20210519_logNormShiftAmp_mXs,2020.1.2,MacIntel,60,,,,,,,,,,,,,,,,,,,,,,,,,,1,6.058,,0,0,19,19,16,1,stimuli/stim_20210519_power2amp/equal_lnn_AM1Hz_s25_47.m4a,,,
,,,,,41244,2021-06-06_09h43.22.305,judgeSpeechMusic_20210519_logNormShiftAmp_mXs,2020.1.2,MacIntel,60,,,,,,,,,,,,,,,,,,,,,,,,,,2,7.0103,,0,0,20,20,89,1,stimuli/stim_20210519_power2amp/equal_lnn_AM2.5Hz_s45_48.m4a,,,
,,,,,41244,2021-06-06_09h43.22.305,judgeSpeechMusic_20210519_logNormShiftAmp_mXs,2020.1.2,MacIntel,60,,,,,,,,,,,,,,,,,,,,,,,,,,2,5.907,,0,0,21,21,121,1,stimuli/stim_20210519_power2amp/equal_lnn_AM4Hz_s35_3.m4a,,,
,,,,,41244,2021-06-06_09h43.22.305,judgeSpeechMusic_20210519_logNormShiftAmp_mXs,2020.1.2,MacIntel,60,,,,,,,,,,,,,,,,,,,,,,,,,,1,6.4044,,0,0,22,22,8,1,stimuli/stim_20210519_power2amp/equal_lnn_AM1Hz_s15_1.m4a,,,
,,,,,41244,2021-06-06_09h43.22.305,judgeSpeechMusic_20210519_logNormShiftAmp_mXs,2020.1.2,MacIntel,60,,,,,,,,,,,,,,,,,,,,,,,,,,1,7.9608,,0,0,23,23,52,1,stimuli/stim_20210519_power2amp/equal_lnn_AM2.5Hz_s15_39.m4a,,,
,,,,,41244,2021-06-06_09h43.22.305,judgeSpeechMusic_20210519_logNormShiftAmp_mXs,2020.1.2,MacIntel,60,,,,,,,,,,,,,,,,,,,,,,,,,,1,6.5374,,0,0,24,24,34,1,stimuli/stim_20210519_power2amp/equal_lnn_AM1Hz_s45_22.m4a,,,
,,,,,41244,2021-06-06_09h43.22.305,judgeSpeechMusic_20210519_logNormShiftAmp_mXs,2020.1.2,MacIntel,60,,,,,,,,,,,,,,,,,,,,,,,,,,2,5.8392,,0,0,25,25,46,1,stimuli/stim_20210519_power2amp/equal_lnn_AM1Hz_s55_7.m4a,,,
,,,,,41244,2021-06-06_09h43.22.305,judgeSpeechMusic_20210519_logNormShiftAmp_mXs,2020.1.2,MacIntel,60,,,,,,,,,,,,,,,,,,,,,,,,,,2,5.8886,,0,0,26,26,59,1,stimuli/stim_20210519_power2amp/equal_lnn_AM2.5Hz_s15_40.m4a,,,
,,,,,41244,2021-06-06_09h43.22.305,judgeSpeechMusic_20210519_logNormShiftAmp_mXs,2020.1.2,MacIntel,60,,,,,,,,,,,,,,,,,,,,,,,,,,2,7.1935,,0,0,27,27,28,1,stimuli/stim_20210519_power2amp/equal_lnn_AM1Hz_s35_24.m4a,,,
,,,,,41244,2021-06-06_09h43.22.305,judgeSpeechMusic_20210519_logNormShiftAmp_mXs,2020.1.2,MacIntel,60,,,,,,,,,,,,,,,,,,,,,,,,,,1,6.1044,,0,0,28,28,100,1,stimuli/stim_20210519_power2amp/equal_lnn_AM4Hz_s15_32.m4a,,,
,,,,,41244,2021-06-06_09h43.22.305,judgeSpeechMusic_20210519_logNormShiftAmp_mXs,2020.1.2,MacIntel,60,,,,,,,,,,,,,,,,,,,,,,,,,,1,7.2918,,0,0,29,29,99,1,stimuli/stim_20210519_power2amp/equal_lnn_AM2.5Hz_s55_10.m4a,,,
,,,,,41244,2021-06-06_09h43.22.305,judgeSpeechMusic_20210519_logNormShiftAmp_mXs,2020.1.2,MacIntel,60,,,,,,,,,,,,,,,,,,,,,,,,,,2,7.1555,,0,0,30,30,82,1,stimuli/stim_20210519_power2amp/equal_lnn_AM2.5Hz_s45_37.m4a,,,
,,,,,41244,2021-06-06_09h43.22.305,judgeSpeechMusic_20210519_logNormShiftAmp_mXs,2020.1.2,MacIntel,60,,,,,,,,,,,,,,,,,,,,,,,,,,1,9.1574,,0,0,31,31,29,1,stimuli/stim_20210519_power2amp/equal_lnn_AM1Hz_s35_46.m4a,,,
,,,,,41244,2021-06-06_09h43.22.305,judgeSpeechMusic_20210519_logNormShiftAmp_mXs,2020.1.2,MacIntel,60,,,,,,,,,,,,,,,,,,,,,,,,,,2,6.8962,,0,0,32,32,110,1,stimuli/stim_20210519_power2amp/equal_lnn_AM4Hz_s25_45.m4a,,,
,,,,,41244,2021-06-06_09h43.22.305,judgeSpeechMusic_20210519_logNormShiftAmp_mXs,2020.1.2,MacIntel,60,,,,,,,,,,,,,,,,,,,,,,,,,,1,6.5739,,0,0,33,33,25,1,stimuli/stim_20210519_power2amp/equal_lnn_AM1Hz_s35_20.m4a,,,
,,,,,41244,2021-06-06_09h43.22.305,judgeSpeechMusic_20210519_logNormShiftAmp_mXs,2020.1.2,MacIntel,60,,,,,,,,,,,,,,,,,,,,,,,,,,2,8.606,,0,0,34,34,129,1,stimuli/stim_20210519_power2amp/equal_lnn_AM4Hz_s35_45.m4a,,,
,,,,,41244,2021-06-06_09h43.22.305,judgeSpeechMusic_20210519_logNormShiftAmp_mXs,2020.1.2,MacIntel,60,,,,,,,,,,,,,,,,,,,,,,,,,,1,8.0366,,0,0,35,35,11,1,stimuli/stim_20210519_power2amp/equal_lnn_AM1Hz_s25_44.m4a,,,
,,,,,41244,2021-06-06_09h43.22.305,judgeSpeechMusic_20210519_logNormShiftAmp_mXs,2020.1.2,MacIntel,60,,,,,,,,,,,,,,,,,,,,,,,,,,2,5.7211,,0,0,36,36,54,1,stimuli/stim_20210519_power2amp/equal_lnn_AM2.5Hz_s15_30.m4a,,,
,,,,,41244,2021-06-06_09h43.22.305,judgeSpeechMusic_20210519_logNormShiftAmp_mXs,2020.1.2,MacIntel,60,,,,,,,,,,,,,,,,,,,,,,,,,,2,5.7203,,0,0,37,37,38,1,stimuli/stim_20210519_power2amp/equal_lnn_AM1Hz_s45_10.m4a,,,
,,,,,41244,2021-06-06_09h43.22.305,judgeSpeechMusic_20210519_logNormShiftAmp_mXs,2020.1.2,MacIntel,60,,,,,,,,,,,,,,,,,,,,,,,,,,2,8.4483,,0,0,38,38,22,1,stimuli/stim_20210519_power2amp/equal_lnn_AM1Hz_s35_5.m4a,,,
,,,,,41244,2021-06-06_09h43.22.305,judgeSpeechMusic_20210519_logNormShiftAmp_mXs,2020.1.2,MacIntel,60,,,,,,,,,,,,,,,,,,,,,,,,,,2,8.0861,4,1,0,39,39,14,1,stimuli/stim_20210519_power2amp/equal_lnn_AM1Hz_s25_28.m4a,2.7222,,
,,,,,41244,2021-06-06_09h43.22.305,judgeSpeechMusic_20210519_logNormShiftAmp_mXs,2020.1.2,MacIntel,60,,,,,,,,,,,,,,,,,,,,,,,,,,2,6.353,,0,0,40,40,62,1,stimuli/stim_20210519_power2amp/equal_lnn_AM2.5Hz_s25_45.m4a,,,
,,,,,41244,2021-06-06_09h43.22.305,judgeSpeechMusic_20210519_logNormShiftAmp_mXs,2020.1.2,MacIntel,60,,,,,,,,,,,,,,,,,,,,,,,,,,1,6.4979,,0,0,41,41,73,1,stimuli/stim_20210519_power2amp/equal_lnn_AM2.5Hz_s35_39.m4a,,,
,,,,,41244,2021-06-06_09h43.22.305,judgeSpeechMusic_20210519_logNormShiftAmp_mXs,2020.1.2,MacIntel,60,,,,,,,,,,,,,,,,,,,,,,,,,,1,6.3574,,0,0,42,42,31,1,stimuli/stim_20210519_power2amp/equal_lnn_AM1Hz_s45_11.m4a,,,
,,,,,41244,2021-06-06_09h43.22.305,judgeSpeechMusic_20210519_logNormShiftAmp_mXs,2020.1.2,MacIntel,60,,,,,,,,,,,,,,,,,,,,,,,,,,1,6.0378,,0,0,43,43,18,1,stimuli/stim_20210519_power2amp/equal_lnn_AM1Hz_s25_29.m4a,,,
,,,,,41244,2021-06-06_09h43.22.305,judgeSpeechMusic_20210519_logNormShiftAmp_mXs,2020.1.2,MacIntel,60,,,,,,,,,,,,,,,,,,,,,,,,,,1,7.2548,,0,0,44,44,27,1,stimuli/stim_20210519_power2amp/equal_lnn_AM1Hz_s35_6.m4a,,,
,,,,,41244,2021-06-06_09h43.22.305,judgeSpeechMusic_20210519_logNormShiftAmp_mXs,2020.1.2,MacIntel,60,,,,,,,,,,,,,,,,,,,,,,,,,,2,6.2889,,0,0,45,45,53,1,stimuli/stim_20210519_power2amp/equal_lnn_AM2.5Hz_s15_48.m4a,,,
,,,,,41244,2021-06-06_09h43.22.305,judgeSpeechMusic_20210519_logNormShiftAmp_mXs,2020.1.2,MacIntel,60,,,,,,,,,,,,,,,,,,,,,,,,,,1,5.964,,0,0,46,46,5,1,stimuli/stim_20210519_power2amp/equal_lnn_AM1Hz_s15_46.m4a,,,
,,,,,41244,2021-06-06_09h43.22.305,judgeSpeechMusic_20210519_logNormShiftAmp_mXs,2020.1.2,MacIntel,60,,,,,,,,,,,,,,,,,,,,,,,,,,1,6.1039,,0,0,47,47,21,1,stimuli/stim_20210519_power2amp/equal_lnn_AM1Hz_s35_30.m4a,,,
,,,,,41244,2021-06-06_09h43.22.305,judgeSpeechMusic_20210519_logNormShiftAmp_mXs,2020.1.2,MacIntel,60,,,,,,,,,,,,,,,,,,,,,,,,,,2,6.2757,,0,0,48,48,23,1,stimuli/stim_20210519_power2amp/equal_lnn_AM1Hz_s35_31.m4a,,,
,,,,,41244,2021-06-06_09h43.22.305,judgeSpeechMusic_20210519_logNormShiftAmp_mXs,2020.1.2,MacIntel,60,,,,,,,,,,,,,,,,,,,,,,,,,,1,6.9122,,0,0,49,49,124,1,stimuli/stim_20210519_power2amp/equal_lnn_AM4Hz_s35_40.m4a,,,
,,,,,41244,2021-06-06_09h43.22.305,judgeSpeechMusic_20210519_logNormShiftAmp_mXs,2020.1.2,MacIntel,60,,,,,,,,,,,,,,,,,,,,,,,,,,2,7.1714,,0,0,50,50,97,1,stimuli/stim_20210519_power2amp/equal_lnn_AM2.5Hz_s55_47.m4a,,,
,,,,,41244,2021-06-06_09h43.22.305,judgeSpeechMusic_20210519_logNormShiftAmp_mXs,2020.1.2,MacIntel,60,,,,,,,,,,,,,,,,,,,,,,,,,,1,5.7873,,0,0,51,51,116,1,stimuli/stim_20210519_power2amp/equal_lnn_AM4Hz_s25_25.m4a,,,
,,,,,41244,2021-06-06_09h43.22.305,judgeSpeechMusic_20210519_logNormShiftAmp_mXs,2020.1.2,MacIntel,60,,,,,,,,,,,,,,,,,,,,,,,,,,1,6.1115,,0,0,52,52,67,1,stimuli/stim_20210519_power2amp/equal_lnn_AM2.5Hz_s25_31.m4a,,,
,,,,,41244,2021-06-06_09h43.22.305,judgeSpeechMusic_20210519_logNormShiftAmp_mXs,2020.1.2,MacIntel,60,,,,,,,,,,,,,,,,,,,,,,,,,,2,5.7729,,0,0,53,53,139,1,stimuli/stim_20210519_power2amp/equal_lnn_AM4Hz_s45_49.m4a,,,
,,,,,41244,2021-06-06_09h43.22.305,judgeSpeechMusic_20210519_logNormShiftAmp_mXs,2020.1.2,MacIntel,60,,,,,,,,,,,,,,,,,,,,,,,,,,2,5.7778,,0,0,54,54,50,1,stimuli/stim_20210519_power2amp/equal_lnn_AM2.5Hz_s15_47.m4a,,,
,,,,,41244,2021-06-06_09h43.22.305,judgeSpeechMusic_20210519_logNormShiftAmp_mXs,2020.1.2,MacIntel,60,,,,,,,,,,,,,,,,,,,,,,,,,,2,5.7214,,0,0,55,55,96,1,stimuli/stim_20210519_power2amp/equal_lnn_AM2.5Hz_s55_21.m4a,,,
,,,,,41244,2021-06-06_09h43.22.305,judgeSpeechMusic_20210519_logNormShiftAmp_mXs,2020.1.2,MacIntel,60,,,,,,,,,,,,,,,,,,,,,,,,,,1,5.9143,,0,0,56,56,32,1,stimuli/stim_20210519_power2amp/equal_lnn_AM1Hz_s45_9.m4a,,,
,,,,,41244,2021-06-06_09h43.22.305,judgeSpeechMusic_20210519_logNormShiftAmp_mXs,2020.1.2,MacIntel,60,,,,,,,,,,,,,,,,,,,,,,,,,,1,6.6241,,0,0,57,57,147,1,stimuli/stim_20210519_power2amp/equal_lnn_AM4Hz_s55_6.m4a,,,
,,,,,41244,2021-06-06_09h43.22.305,judgeSpeechMusic_20210519_logNormShiftAmp_mXs,2020.1.2,MacIntel,60,,,,,,,,,,,,,,,,,,,,,,,,,,1,7.5112,,0,0,58,58,20,1,stimuli/stim_20210519_power2amp/equal_lnn_AM1Hz_s35_43.m4a,,,
,,,,,41244,2021-06-06_09h43.22.305,judgeSpeechMusic_20210519_logNormShiftAmp_mXs,2020.1.2,MacIntel,60,,,,,,,,,,,,,,,,,,,,,,,,,,2,6.4734,,0,0,59,59,149,1,stimuli/stim_20210519_power2amp/equal_lnn_AM4Hz_s55_23.m4a,,,
,,,,,41244,2021-06-06_09h43.22.305,judgeSpeechMusic_20210519_logNormShiftAmp_mXs,2020.1.2,MacIntel,60,,,,,,,,,,,,,,,,,,,,,,,,,,1,7.6573,2,1,0,60,60,63,1,stimuli/stim_20210519_power2amp/equal_lnn_AM2.5Hz_s25_13.m4a,1.6245,,
,,,,,41244,2021-06-06_09h43.22.305,judgeSpeechMusic_20210519_logNormShiftAmp_mXs,2020.1.2,MacIntel,60,,,,,,,,,,,,,,,,,,,,,,,,,,2,6.1228,,0,0,61,61,128,1,stimuli/stim_20210519_power2amp/equal_lnn_AM4Hz_s35_9.m4a,,,
,,,,,41244,2021-06-06_09h43.22.305,judgeSpeechMusic_20210519_logNormShiftAmp_mXs,2020.1.2,MacIntel,60,,,,,,,,,,,,,,,,,,,,,,,,,,2,5.9229,,0,0,62,62,108,1,stimuli/stim_20210519_power2amp/equal_lnn_AM4Hz_s15_48.m4a,,,
,,,,,41244,2021-06-06_09h43.22.305,judgeSpeechMusic_20210519_logNormShiftAmp_mXs,2020.1.2,MacIntel,60,,,,,,,,,,,,,,,,,,,,,,,,,,1,5.8375,,0,0,63,63,132,1,stimuli/stim_20210519_power2amp/equal_lnn_AM4Hz_s45_31.m4a,,,
,,,,,41244,2021-06-06_09h43.22.305,judgeSpeechMusic_20210519_logNormShiftAmp_mXs,2020.1.2,MacIntel,60,,,,,,,,,,,,,,,,,,,,,,,,,,2,6.2671,,0,0,64,64,137,1,stimuli/stim_20210519_power2amp/equal_lnn_AM4Hz_s45_30.m4a,,,
,,,,,41244,2021-06-06_09h43.22.305,judgeSpeechMusic_20210519_logNormShiftAmp_mXs,2020.1.2,MacIntel,60,,,,,,,,,,,,,,,,,,,,,,,,,,1,6.0986,,0,0,65,65,7,1,stimuli/stim_20210519_power2amp/equal_lnn_AM1Hz_s15_4.m4a,,,
,,,,,41244,2021-06-06_09h43.22.305,judgeSpeechMusic_20210519_logNormShiftAmp_mXs,2020.1.2,MacIntel,60,,,,,,,,,,,,,,,,,,,,,,,,,,2,6.5478,,0,0,66,66,122,1,stimuli/stim_20210519_power2amp/equal_lnn_AM4Hz_s35_47.m4a,,,
,,,,,41244,2021-06-06_09h43.22.305,judgeSpeechMusic_20210519_logNormShiftAmp_mXs,2020.1.2,MacIntel,60,,,,,,,,,,,,,,,,,,,,,,,,,,1,6.4096,,0,0,67,67,106,1,stimuli/stim_20210519_power2amp/equal_lnn_AM4Hz_s15_41.m4a,,,
,,,,,41244,2021-06-06_09h43.22.305,judgeSpeechMusic_20210519_logNormShiftAmp_mXs,2020.1.2,MacIntel,60,,,,,,,,,,,,,,,,,,,,,,,,,,1,7.243,,0,0,68,68,69,1,stimuli/stim_20210519_power2amp/equal_lnn_AM2.5Hz_s25_42.m4a,,,
,,,,,41244,2021-06-06_09h43.22.305,judgeSpeechMusic_20210519_logNormShiftAmp_mXs,2020.1.2,MacIntel,60,,,,,,,,,,,,,,,,,,,,,,,,,,1,5.7265,,0,0,69,69,75,1,stimuli/stim_20210519_power2amp/equal_lnn_AM2.5Hz_s35_13.m4a,,,
,,,,,41244,2021-06-06_09h43.22.305,judgeSpeechMusic_20210519_logNormShiftAmp_mXs,2020.1.2,MacIntel,60,,,,,,,,,,,,,,,,,,,,,,,,,,1,6.5869,,0,0,70,70,15,1,stimuli/stim_20210519_power2amp/equal_lnn_AM1Hz_s25_38.m4a,,,
,,,,,41244,2021-06-06_09h43.22.305,judgeSpeechMusic_20210519_logNormShiftAmp_mXs,2020.1.2,MacIntel,60,,,,,,,,,,,,,,,,,,,,,,,,,,1,6.6041,,0,0,71,71,90,1,stimuli/stim_20210519_power2amp/equal_lnn_AM2.5Hz_s55_45.m4a,,,
,,,,,41244,2021-06-06_09h43.22.305,judgeSpeechMusic_20210519_logNormShiftAmp_mXs,2020.1.2,MacIntel,60,,,,,,,,,,,,,,,,,,,,,,,,,,2,5.7253,,0,0,72,72,13,1,stimuli/stim_20210519_power2amp/equal_lnn_AM1Hz_s25_9.m4a,,,
,,,,,41244,2021-06-06_09h43.22.305,judgeSpeechMusic_20210519_logNormShiftAmp_mXs,2020.1.2,MacIntel,60,,,,,,,,,,,,,,,,,,,,,,,,,,1,8.0769,,0,0,73,73,58,1,stimuli/stim_20210519_power2amp/equal_lnn_AM2.5Hz_s15_42.m4a,,,
,,,,,41244,2021-06-06_09h43.22.305,judgeSpeechMusic_20210519_logNormShiftAmp_mXs,2020.1.2,MacIntel,60,,,,,,,,,,,,,,,,,,,,,,,,,,1,7.1125,,0,0,74,74,115,1,stimuli/stim_20210519_power2amp/equal_lnn_AM4Hz_s25_2.m4a,,,
,,,,,41244,2021-06-06_09h43.22.305,judgeSpeechMusic_20210519_logNormShiftAmp_mXs,2020.1.2,MacIntel,60,,,,,,,,,,,,,,,,,,,,,,,,,,2,6.2648,,0,0,75,75,24,1,stimuli/stim_20210519_power2amp/equal_lnn_AM1Hz_s35_7.m4a,,,
,,,,,41244,2021-06-06_09h43.22.305,judgeSpeechMusic_20210519_logNormShiftAmp_mXs,2020.1.2,MacIntel,60,,,,,,,,,,,,,,,,,,,,,,,,,,2,5.8293,,0,0,76,76,101,1,stimuli/stim_20210519_power2amp/equal_lnn_AM4Hz_s15_8.m4a,,,
,,,,,41244,2021-06-06_09h43.22.305,judgeSpeechMusic_20210519_logNormShiftAmp_mXs,2020.1.2,MacIntel,60,,,,,,,,,,,,,,,,,,,,,,,,,,1,6.4549,,0,0,77,77,77,1,stimuli/stim_20210519_power2amp/equal_lnn_AM2.5Hz_s35_20.m4a,,,
,,,,,41244,2021-06-06_09h43.22.305,judgeSpeechMusic_20210519_logNormShiftAmp_mXs,2020.1.2,MacIntel,60,,,,,,,,,,,,,,,,,,,,,,,,,,2,6.9901,,0,0,78,78,35,1,stimuli/stim_20210519_power2amp/equal_lnn_AM1Hz_s45_3.m4a,,,
,,,,,41244,2021-06-06_09h43.22.305,judgeSpeechMusic_20210519_logNormShiftAmp_mXs,2020.1.2,MacIntel,60,,,,,,,,,,,,,,,,,,,,,,,,,,1,5.6373,,0,0,79,79,33,1,stimuli/stim_20210519_power2amp/equal_lnn_AM1Hz_s45_32.m4a,,,
,,,,,41244,2021-06-06_09h43.22.305,judgeSpeechMusic_20210519_logNormShiftAmp_mXs,2020.1.2,MacIntel,60,,,,,,,,,,,,,,,,,,,,,,,,,,1,5.8726,,0,0,80,80,84,1,stimuli/stim_20210519_power2amp/equal_lnn_AM2.5Hz_s45_41.m4a,,,
,,,,,41244,2021-06-06_09h43.22.305,judgeSpeechMusic_20210519_logNormShiftAmp_mXs,2020.1.2,MacIntel,60,,,,,,,,,,,,,,,,,,,,,,,,,,1,5.7714,,0,0,81,81,4,1,stimuli/stim_20210519_power2amp/equal_lnn_AM1Hz_s15_33.m4a,,,
,,,,,41244,2021-06-06_09h43.22.305,judgeSpeechMusic_20210519_logNormShiftAmp_mXs,2020.1.2,MacIntel,60,,,,,,,,,,,,,,,,,,,,,,,,,,2,6.4414,,0,0,82,82,109,1,stimuli/stim_20210519_power2amp/equal_lnn_AM4Hz_s15_17.m4a,,,
,,,,,41244,2021-06-06_09h43.22.305,judgeSpeechMusic_20210519_logNormShiftAmp_mXs,2020.1.2,MacIntel,60,,,,,,,,,,,,,,,,,,,,,,,,,,1,7.3157,,0,0,83,83,136,1,stimuli/stim_20210519_power2amp/equal_lnn_AM4Hz_s45_6.m4a,,,
,,,,,41244,2021-06-06_09h43.22.305,judgeSpeechMusic_20210519_logNormShiftAmp_mXs,2020.1.2,MacIntel,60,,,,,,,,,,,,,,,,,,,,,,,,,,2,6.7878,2,1,0,84,84,133,1,stimuli/stim_20210519_power2amp/equal_lnn_AM4Hz_s45_23.m4a,1.5573,,
,,,,,41244,2021-06-06_09h43.22.305,judgeSpeechMusic_20210519_logNormShiftAmp_mXs,2020.1.2,MacIntel,60,,,,,,,,,,,,,,,,,,,,,,,,,,1,7.1347,,0,0,85,85,37,1,stimuli/stim_20210519_power2amp/equal_lnn_AM1Hz_s45_8.m4a,,,
,,,,,41244,2021-06-06_09h43.22.305,judgeSpeechMusic_20210519_logNormShiftAmp_mXs,2020.1.2,MacIntel,60,,,,,,,,,,,,,,,,,,,,,,,,,,2,5.887,,0,0,86,86,117,1,stimuli/stim_20210519_power2amp/equal_lnn_AM4Hz_s25_4.m4a,,,
,,,,,41244,2021-06-06_09h43.22.305,judgeSpeechMusic_20210519_logNormShiftAmp_mXs,2020.1.2,MacIntel,60,,,,,,,,,,,,,,,,,,,,,,,,,,2,5.7762,,0,0,87,87,80,1,stimuli/stim_20210519_power2amp/equal_lnn_AM2.5Hz_s45_1.m4a,,,
,,,,,41244,2021-06-06_09h43.22.305,judgeSpeechMusic_20210519_logNormShiftAmp_mXs,2020.1.2,MacIntel,60,,,,,,,,,,,,,,,,,,,,,,,,,,1,6.1059,,0,0,88,88,47,1,stimuli/stim_20210519_power2amp/equal_lnn_AM1Hz_s55_10.m4a,,,
,,,,,41244,2021-06-06_09h43.22.305,judgeSpeechMusic_20210519_logNormShiftAmp_mXs,2020.1.2,MacIntel,60,,,,,,,,,,,,,,,,,,,,,,,,,,1,5.9239,,0,0,89,89,118,1,stimuli/stim_20210519_power2amp/equal_lnn_AM4Hz_s25_31.m4a,,,
,,,,,41244,2021-06-06_09h43.22.305,judgeSpeechMusic_20210519_logNormShiftAmp_mXs,2020.1.2,MacIntel,60,,,,,,,,,,,,,,,,,,,,,,,,,,1,7.8613,,0,0,90,90,57,1,stimuli/stim_20210519_power2amp/equal_lnn_AM2.5Hz_s15_34.m4a,,,
,,,,,41244,2021-06-06_09h43.22.305,judgeSpeechMusic_20210519_logNormShiftAmp_mXs,2020.1.2,MacIntel,60,,,,,,,,,,,,,,,,,,,,,,,,,,1,8.8224,,0,0,91,91,91,1,stimuli/stim_20210519_power2amp/equal_lnn_AM2.5Hz_s55_26.m4a,,,
,,,,,41244,2021-06-06_09h43.22.305,judgeSpeechMusic_20210519_logNormShiftAmp_mXs,2020.1.2,MacIntel,60,,,,,,,,,,,,,,,,,,,,,,,,,,1,6.3369,,0,0,92,92,92,1,stimuli/stim_20210519_power2amp/equal_lnn_AM2.5Hz_s55_30.m4a,,,
,,,,,41244,2021-06-06_09h43.22.305,judgeSpeechMusic_20210519_logNormShiftAmp_mXs,2020.1.2,MacIntel,60,,,,,,,,,,,,,,,,,,,,,,,,,,1,7.7205,,0,0,93,93,0,1,stimuli/stim_20210519_power2amp/equal_lnn_AM1Hz_s15_11.m4a,,,
,,,,,41244,2021-06-06_09h43.22.305,judgeSpeechMusic_20210519_logNormShiftAmp_mXs,2020.1.2,MacIntel,60,,,,,,,,,,,,,,,,,,,,,,,,,,1,6.2389,,0,0,94,94,30,1,stimuli/stim_20210519_power2amp/equal_lnn_AM1Hz_s45_42.m4a,,,
,,,,,41244,2021-06-06_09h43.22.305,judgeSpeechMusic_20210519_logNormShiftAmp_mXs,2020.1.2,MacIntel,60,,,,,,,,,,,,,,,,,,,,,,,,,,1,7.34,,0,0,95,95,26,1,stimuli/stim_20210519_power2amp/equal_lnn_AM1Hz_s35_1.m4a,,,
,,,,,41244,2021-06-06_09h43.22.305,judgeSpeechMusic_20210519_logNormShiftAmp_mXs,2020.1.2,MacIntel,60,,,,,,,,,,,,,,,,,,,,,,,,,,2,5.7379,,0,0,96,96,51,1,stimuli/stim_20210519_power2amp/equal_lnn_AM2.5Hz_s15_9.m4a,,,
,,,,,41244,2021-06-06_09h43.22.305,judgeSpeechMusic_20210519_logNormShiftAmp_mXs,2020.1.2,MacIntel,60,,,,,,,,,,,,,,,,,,,,,,,,,,2,5.7543,,0,0,97,97,81,1,stimuli/stim_20210519_power2amp/equal_lnn_AM2.5Hz_s45_2.m4a,,,
,,,,,41244,2021-06-06_09h43.22.305,judgeSpeechMusic_20210519_logNormShiftAmp_mXs,2020.1.2,MacIntel,60,,,,,,,,,,,,,,,,,,,,,,,,,,1,5.7284,,0,0,98,98,120,1,stimuli/stim_20210519_power2amp/equal_lnn_AM4Hz_s35_2.m4a,,,
,,,,,41244,2021-06-06_09h43.22.305,judgeSpeechMusic_20210519_logNormShiftAmp_mXs,2020.1.2,MacIntel,60,,,,,,,,,,,,,,,,,,,,,,,,,,1,6.0287,,0,0,99,99,76,1,stimuli/stim_20210519_power2amp/equal_lnn_AM2.5Hz_s35_18.m4a,,,
,,,,,41244,2021-06-06_09h43.22.305,judgeSpeechMusic_20210519_logNormShiftAmp_mXs,2020.1.2,MacIntel,60,,,,,,,,,,,,,,,,,,,,,,,,,,1,6.708,,0,0,100,100,40,1,stimuli/stim_20210519_power2amp/equal_lnn_AM1Hz_s55_15.m4a,,,
,,,,,41244,2021-06-06_09h43.22.305,judgeSpeechMusic_20210519_logNormShiftAmp_mXs,2020.1.2,MacIntel,60,,,,,,,,,,,,,,,,,,,,,,,,,,1,6.4985,,0,0,101,101,42,1,stimuli/stim_20210519_power2amp/equal_lnn_AM1Hz_s55_47.m4a,,,
,,,,,41244,2021-06-06_09h43.22.305,judgeSpeechMusic_20210519_logNormShiftAmp_mXs,2020.1.2,MacIntel,60,,,,,,,,,,,,,,,,,,,,,,,,,,1,5.8965,,0,0,102,102,10,1,stimuli/stim_20210519_power2amp/equal_lnn_AM1Hz_s25_8.m4a,,,
,,,,,41244,2021-06-06_09h43.22.305,judgeSpeechMusic_20210519_logNormShiftAmp_mXs,2020.1.2,MacIntel,60,,,,,,,,,,,,,,,,,,,,,,,,,,2,7.2085,,0,0,103,103,45,1,stimuli/stim_20210519_power2amp/equal_lnn_AM1Hz_s55_8.m4a,,,
,,,,,41244,2021-06-06_09h43.22.305,judgeSpeechMusic_20210519_logNormShiftAmp_mXs,2020.1.2,MacIntel,60,,,,,,,,,,,,,,,,,,,,,,,,,,2,5.9372,,0,0,104,104,56,1,stimuli/stim_20210519_power2amp/equal_lnn_AM2.5Hz_s15_17.m4a,,,
,,,,,41244,2021-06-06_09h43.22.305,judgeSpeechMusic_20210519_logNormShiftAmp_mXs,2020.1.2,MacIntel,60,,,,,,,,,,,,,,,,,,,,,,,,,,1,5.7704,,0,0,105,105,144,1,stimuli/stim_20210519_power2amp/equal_lnn_AM4Hz_s55_8.m4a,,,
,,,,,41244,2021-06-06_09h43.22.305,judgeSpeechMusic_20210519_logNormShiftAmp_mXs,2020.1.2,MacIntel,60,,,,,,,,,,,,,,,,,,,,,,,,,,1,5.8456,2,1,0,106,106,55,1,stimuli/stim_20210519_power2amp/equal_lnn_AM2.5Hz_s15_15.m4a,2.0082,,
,,,,,41244,2021-06-06_09h43.22.305,judgeSpeechMusic_20210519_logNormShiftAmp_mXs,2020.1.2,MacIntel,60,,,,,,,,,,,,,,,,,,,,,,,,,,2,7.8859,,0,0,107,107,86,1,stimuli/stim_20210519_power2amp/equal_lnn_AM2.5Hz_s45_36.m4a,,,
,,,,,41244,2021-06-06_09h43.22.305,judgeSpeechMusic_20210519_logNormShiftAmp_mXs,2020.1.2,MacIntel,60,,,,,,,,,,,,,,,,,,,,,,,,,,2,6.3167,,0,0,108,108,66,1,stimuli/stim_20210519_power2amp/equal_lnn_AM2.5Hz_s25_11.m4a,,,
,,,,,41244,2021-06-06_09h43.22.305,judgeSpeechMusic_20210519_logNormShiftAmp_mXs,2020.1.2,MacIntel,60,,,,,,,,,,,,,,,,,,,,,,,,,,2,5.9707,,0,0,109,109,145,1,stimuli/stim_20210519_power2amp/equal_lnn_AM4Hz_s55_46.m4a,,,
,,,,,41244,2021-06-06_09h43.22.305,judgeSpeechMusic_20210519_logNormShiftAmp_mXs,2020.1.2,MacIntel,60,,,,,,,,,,,,,,,,,,,,,,,,,,1,5.8117,,0,0,110,110,72,1,stimuli/stim_20210519_power2amp/equal_lnn_AM2.5Hz_s35_15.m4a,,,
,,,,,41244,2021-06-06_09h43.22.305,judgeSpeechMusic_20210519_logNormShiftAmp_mXs,2020.1.2,MacIntel,60,,,,,,,,,,,,,,,,,,,,,,,,,,2,5.6881,,0,0,111,111,60,1,stimuli/stim_20210519_power2amp/equal_lnn_AM2.5Hz_s25_5.m4a,,,
,,,,,41244,2021-06-06_09h43.22.305,judgeSpeechMusic_20210519_logNormShiftAmp_mXs,2020.1.2,MacIntel,60,,,,,,,,,,,,,,,,,,,,,,,,,,2,5.8251,,0,0,112,112,127,1,stimuli/stim_20210519_power2amp/equal_lnn_AM4Hz_s35_13.m4a,,,
,,,,,41244,2021-06-06_09h43.22.305,judgeSpeechMusic_20210519_logNormShiftAmp_mXs,2020.1.2,MacIntel,60,,,,,,,,,,,,,,,,,,,,,,,,,,1,5.8216,,0,0,113,113,17,1,stimuli/stim_20210519_power2amp/equal_lnn_AM1Hz_s25_33.m4a,,,
,,,,,41244,2021-06-06_09h43.22.305,judgeSpeechMusic_20210519_logNormShiftAmp_mXs,2020.1.2,MacIntel,60,,,,,,,,,,,,,,,,,,,,,,,,,,2,7.2461,,0,0,114,114,70,1,stimuli/stim_20210519_power2amp/equal_lnn_AM2.5Hz_s35_22.m4a,,,
,,,,,41244,2021-06-06_09h43.22.305,judgeSpeechMusic_20210519_logNormShiftAmp_mXs,2020.1.2,MacIntel,60,,,,,,,,,,,,,,,,,,,,,,,,,,1,5.6548,,0,0,115,115,93,1,stimuli/stim_20210519_power2amp/equal_lnn_AM2.5Hz_s55_15.m4a,,,
,,,,,41244,2021-06-06_09h43.22.305,judgeSpeechMusic_20210519_logNormShiftAmp_mXs,2020.1.2,MacIntel,60,,,,,,,,,,,,,,,,,,,,,,,,,,1,7.1879,,0,0,116,116,141,1,stimuli/stim_20210519_power2amp/equal_lnn_AM4Hz_s55_24.m4a,,,
,,,,,41244,2021-06-06_09h43.22.305,judgeSpeechMusic_20210519_logNormShiftAmp_mXs,2020.1.2,MacIntel,60,,,,,,,,,,,,,,,,,,,,,,,,,,1,5.8602,,0,0,117,117,39,1,stimuli/stim_20210519_power2amp/equal_lnn_AM1Hz_s45_23.m4a,,,
,,,,,41244,2021-06-06_09h43.22.305,judgeSpeechMusic_20210519_logNormShiftAmp_mXs,2020.1.2,MacIntel,60,,,,,,,,,,,,,,,,,,,,,,,,,,2,5.6874,,0,0,118,118,94,1,stimuli/stim_20210519_power2amp/equal_lnn_AM2.5Hz_s55_50.m4a,,,
,,,,,41244,2021-06-06_09h43.22.305,judgeSpeechMusic_20210519_logNormShiftAmp_mXs,2020.1.2,MacIntel,60,,,,,,,,,,,,,,,,,,,,,,,,,,2,6.4791,,0,0,119,119,123,1,stimuli/stim_20210519_power2amp/equal_lnn_AM4Hz_s35_28.m4a,,,
,,,,,41244,2021-06-06_09h43.22.305,judgeSpeechMusic_20210519_logNormShiftAmp_mXs,2020.1.2,MacIntel,60,,,,,,,,,,,,,,,,,,,,,,,,,,1,5.6902,,0,0,120,120,49,1,stimuli/stim_20210519_power2amp/equal_lnn_AM1Hz_s55_30.m4a,,,
,,,,,41244,2021-06-06_09h43.22.305,judgeSpeechMusic_20210519_logNormShiftAmp_mXs,2020.1.2,MacIntel,60,,,,,,,,,,,,,,,,,,,,,,,,,,1,6.0956,,0,0,121,121,130,1,stimuli/stim_20210519_power2amp/equal_lnn_AM4Hz_s45_37.m4a,,,
,,,,,41244,2021-06-06_09h43.22.305,judgeSpeechMusic_20210519_logNormShiftAmp_mXs,2020.1.2,MacIntel,60,,,,,,,,,,,,,,,,,,,,,,,,,,2,5.8149,,0,0,122,122,79,1,stimuli/stim_20210519_power2amp/equal_lnn_AM2.5Hz_s35_23.m4a,,,
,,,,,41244,2021-06-06_09h43.22.305,judgeSpeechMusic_20210519_logNormShiftAmp_mXs,2020.1.2,MacIntel,60,,,,,,,,,,,,,,,,,,,,,,,,,,2,5.7474,,0,0,123,123,146,1,stimuli/stim_20210519_power2amp/equal_lnn_AM4Hz_s55_4.m4a,,,
,,,,,41244,2021-06-06_09h43.22.305,judgeSpeechMusic_20210519_logNormShiftAmp_mXs,2020.1.2,MacIntel,60,,,,,,,,,,,,,,,,,,,,,,,,,,1,5.8916,,0,0,124,124,126,1,stimuli/stim_20210519_power2amp/equal_lnn_AM4Hz_s35_24.m4a,,,
,,,,,41244,2021-06-06_09h43.22.305,judgeSpeechMusic_20210519_logNormShiftAmp_mXs,2020.1.2,MacIntel,60,,,,,,,,,,,,,,,,,,,,,,,,,,1,5.7647,,0,0,125,125,107,1,stimuli/stim_20210519_power2amp/equal_lnn_AM4Hz_s15_30.m4a,,,
,,,,,41244,2021-06-06_09h43.22.305,judgeSpeechMusic_20210519_logNormShiftAmp_mXs,2020.1.2,MacIntel,60,,,,,,,,,,,,,,,,,,,,,,,,,,1,6.0032,,0,0,126,126,1,1,stimuli/stim_20210519_power2amp/equal_lnn_AM1Hz_s15_42.m4a,,,
,,,,,41244,2021-06-06_09h43.22.305,judgeSpeechMusic_20210519_logNormShiftAmp_mXs,2020.1.2,MacIntel,60,,,,,,,,,,,,,,,,,,,,,,,,,,2,6.1221,,0,0,127,127,87,1,stimuli/stim_20210519_power2amp/equal_lnn_AM2.5Hz_s45_4.m4a,,,
,,,,,41244,2021-06-06_09h43.22.305,judgeSpeechMusic_20210519_logNormShiftAmp_mXs,2020.1.2,MacIntel,60,,,,,,,,,,,,,,,,,,,,,,,,,,1,5.9758,2,1,0,128,128,2,1,stimuli/stim_20210519_power2amp/equal_lnn_AM1Hz_s15_10.m4a,1.2895,,
,,,,,41244,2021-06-06_09h43.22.305,judgeSpeechMusic_20210519_logNormShiftAmp_mXs,2020.1.2,MacIntel,60,,,,,,,,,,,,,,,,,,,,,,,,,,1,7.3601,,0,0,129,129,68,1,stimuli/stim_20210519_power2amp/equal_lnn_AM2.5Hz_s25_4.m4a,,,
,,,,,41244,2021-06-06_09h43.22.305,judgeSpeechMusic_20210519_logNormShiftAmp_mXs,2020.1.2,MacIntel,60,,,,,,,,,,,,,,,,,,,,,,,,,,2,5.905,,0,0,130,130,12,1,stimuli/stim_20210519_power2amp/equal_lnn_AM1Hz_s25_18.m4a,,,
,,,,,41244,2021-06-06_09h43.22.305,judgeSpeechMusic_20210519_logNormShiftAmp_mXs,2020.1.2,MacIntel,60,,,,,,,,,,,,,,,,,,,,,,,,,,2,5.8397,,0,0,131,131,105,1,stimuli/stim_20210519_power2amp/equal_lnn_AM4Hz_s15_44.m4a,,,
,,,,,41244,2021-06-06_09h43.22.305,judgeSpeechMusic_20210519_logNormShiftAmp_mXs,2020.1.2,MacIntel,60,,,,,,,,,,,,,,,,,,,,,,,,,,1,5.7062,,0,0,132,132,19,1,stimuli/stim_20210519_power2amp/equal_lnn_AM1Hz_s25_16.m4a,,,
,,,,,41244,2021-06-06_09h43.22.305,judgeSpeechMusic_20210519_logNormShiftAmp_mXs,2020.1.2,MacIntel,60,,,,,,,,,,,,,,,,,,,,,,,,,,2,7.5121,,0,0,133,133,125,1,stimuli/stim_20210519_power2amp/equal_lnn_AM4Hz_s35_33.m4a,,,
,,,,,41244,2021-06-06_09h43.22.305,judgeSpeechMusic_20210519_logNormShiftAmp_mXs,2020.1.2,MacIntel,60,,,,,,,,,,,,,,,,,,,,,,,,,,1,8.356,,0,0,134,134,65,1,stimuli/stim_20210519_power2amp/equal_lnn_AM2.5Hz_s25_30.m4a,,,
,,,,,41244,2021-06-06_09h43.22.305,judgeSpeechMusic_20210519_logNormShiftAmp_mXs,2020.1.2,MacIntel,60,,,,,,,,,,,,,,,,,,,,,,,,,,2,5.7776,,0,0,135,135,74,1,stimuli/stim_20210519_power2amp/equal_lnn_AM2.5Hz_s35_38.m4a,,,
,,,,,41244,2021-06-06_09h43.22.305,judgeSpeechMusic_20210519_logNormShiftAmp_mXs,2020.1.2,MacIntel,60,,,,,,,,,,,,,,,,,,,,,,,,,,2,6.9553,,0,0,136,136,143,1,stimuli/stim_20210519_power2amp/equal_lnn_AM4Hz_s55_49.m4a,,,
,,,,,41244,2021-06-06_09h43.22.305,judgeSpeechMusic_20210519_logNormShiftAmp_mXs,2020.1.2,MacIntel,60,,,,,,,,,,,,,,,,,,,,,,,,,,1,5.6364,,0,0,137,137,9,1,stimuli/stim_20210519_power2amp/equal_lnn_AM1Hz_s15_7.m4a,,,
,,,,,41244,2021-06-06_09h43.22.305,judgeSpeechMusic_20210519_logNormShiftAmp_mXs,2020.1.2,MacIntel,60,,,,,,,,,,,,,,,,,,,,,,,,,,2,5.6072,,0,0,138,138,114,1,stimuli/stim_20210519_power2amp/equal_lnn_AM4Hz_s25_26.m4a,,,
,,,,,41244,2021-06-06_09h43.22.305,judgeSpeechMusic_20210519_logNormShiftAmp_mXs,2020.1.2,MacIntel,60,,,,,,,,,,,,,,,,,,,,,,,,,,1,6.9969,,0,0,139,139,142,1,stimuli/stim_20210519_power2amp/equal_lnn_AM4Hz_s55_43.m4a,,,
,,,,,41244,2021-06-06_09h43.22.305,judgeSpeechMusic_20210519_logNormShiftAmp_mXs,2020.1.2,MacIntel,60,,,,,,,,,,,,,,,,,,,,,,,,,,2,6.4255,,0,0,140,140,119,1,stimuli/stim_20210519_power2amp/equal_lnn_AM4Hz_s25_36.m4a,,,
,,,,,41244,2021-06-06_09h43.22.305,judgeSpeechMusic_20210519_logNormShiftAmp_mXs,2020.1.2,MacIntel,60,,,,,,,,,,,,,,,,,,,,,,,,,,1,5.9774,,0,0,141,141,41,1,stimuli/stim_20210519_power2amp/equal_lnn_AM1Hz_s55_5.m4a,,,
,,,,,41244,2021-06-06_09h43.22.305,judgeSpeechMusic_20210519_logNormShiftAmp_mXs,2020.1.2,MacIntel,60,,,,,,,,,,,,,,,,,,,,,,,,,,1,5.8757,,0,0,142,142,83,1,stimuli/stim_20210519_power2amp/equal_lnn_AM2.5Hz_s45_44.m4a,,,
,,,,,41244,2021-06-06_09h43.22.305,judgeSpeechMusic_20210519_logNormShiftAmp_mXs,2020.1.2,MacIntel,60,,,,,,,,,,,,,,,,,,,,,,,,,,2,5.6724,,0,0,143,143,102,1,stimuli/stim_20210519_power2amp/equal_lnn_AM4Hz_s15_19.m4a,,,
,,,,,41244,2021-06-06_09h43.22.305,judgeSpeechMusic_20210519_logNormShiftAmp_mXs,2020.1.2,MacIntel,60,,,,,,,,,,,,,,,,,,,,,,,,,,2,6.4965,,0,0,144,144,95,1,stimuli/stim_20210519_power2amp/equal_lnn_AM2.5Hz_s55_41.m4a,,,
,,,,,41244,2021-06-06_09h43.22.305,judgeSpeechMusic_20210519_logNormShiftAmp_mXs,2020.1.2,MacIntel,60,,,,,,,,,,,,,,,,,,,,,,,,,,1,6.6772,,0,0,145,145,64,1,stimuli/stim_20210519_power2amp/equal_lnn_AM2.5Hz_s25_12.m4a,,,
,,,,,41244,2021-06-06_09h43.22.305,judgeSpeechMusic_20210519_logNormShiftAmp_mXs,2020.1.2,MacIntel,60,,,,,,,,,,,,,,,,,,,,,,,,,,1,5.6554,,0,0,146,146,44,1,stimuli/stim_20210519_power2amp/equal_lnn_AM1Hz_s55_14.m4a,,,
,,,,,41244,2021-06-06_09h43.22.305,judgeSpeechMusic_20210519_logNormShiftAmp_mXs,2020.1.2,MacIntel,60,,,,,,,,,,,,,,,,,,,,,,,,,,1,5.6741,,0,0,147,147,36,1,stimuli/stim_20210519_power2amp/equal_lnn_AM1Hz_s45_29.m4a,,,
,,,,,41244,2021-06-06_09h43.22.305,judgeSpeechMusic_20210519_logNormShiftAmp_mXs,2020.1.2,MacIntel,60,,,,,,,,,,,,,,,,,,,,,,,,,,2,7.5969,,0,0,148,148,138,1,stimuli/stim_20210519_power2amp/equal_lnn_AM4Hz_s45_29.m4a,,,
,,,,,41244,2021-06-06_09h43.22.305,judgeSpeechMusic_20210519_logNormShiftAmp_mXs,2020.1.2,MacIntel,60,,,,,,,,,,,,,,,,,,,,,,,,,,1,8.1885,,0,0,149,149,113,1,stimuli/stim_20210519_power2amp/equal_lnn_AM4Hz_s25_47.m4a,,,
,,,,,41244,2021-06-06_09h43.22.305,judgeSpeechMusic_20210519_logNormShiftAmp_mXs,2020.1.2,MacIntel,60,,,,,,,,,,,,,,,,,,,,,,,,,,1,8.5279,,0,1,0,150,53,1,stimuli/stim_20210519_power2amp/equal_lnn_AM2.5Hz_s15_48.m4a,,,
,,,,,41244,2021-06-06_09h43.22.305,judgeSpeechMusic_20210519_logNormShiftAmp_mXs,2020.1.2,MacIntel,60,,,,,,,,,,,,,,,,,,,,,,,,,,2,6.482,,0,1,1,151,85,1,stimuli/stim_20210519_power2amp/equal_lnn_AM2.5Hz_s45_43.m4a,,,
,,,,,41244,2021-06-06_09h43.22.305,judgeSpeechMusic_20210519_logNormShiftAmp_mXs,2020.1.2,MacIntel,60,,,,,,,,,,,,,,,,,,,,,,,,,,2,5.9522,4,1,1,2,152,123,1,stimuli/stim_20210519_power2amp/equal_lnn_AM4Hz_s35_28.m4a,1.7741,,
,,,,,41244,2021-06-06_09h43.22.305,judgeSpeechMusic_20210519_logNormShiftAmp_mXs,2020.1.2,MacIntel,60,,,,,,,,,,,,,,,,,,,,,,,,,,2,7.4344,,0,1,3,153,95,1,stimuli/stim_20210519_power2amp/equal_lnn_AM2.5Hz_s55_41.m4a,,,
,,,,,41244,2021-06-06_09h43.22.305,judgeSpeechMusic_20210519_logNormShiftAmp_mXs,2020.1.2,MacIntel,60,,,,,,,,,,,,,,,,,,,,,,,,,,1,6.0951,,0,1,4,154,100,1,stimuli/stim_20210519_power2amp/equal_lnn_AM4Hz_s15_32.m4a,,,
,,,,,41244,2021-06-06_09h43.22.305,judgeSpeechMusic_20210519_logNormShiftAmp_mXs,2020.1.2,MacIntel,60,,,,,,,,,,,,,,,,,,,,,,,,,,1,5.7109,,0,1,5,155,75,1,stimuli/stim_20210519_power2amp/equal_lnn_AM2.5Hz_s35_13.m4a,,,
,,,,,41244,2021-06-06_09h43.22.305,judgeSpeechMusic_20210519_logNormShiftAmp_mXs,2020.1.2,MacIntel,60,,,,,,,,,,,,,,,,,,,,,,,,,,2,6.3739,,0,1,6,156,139,1,stimuli/stim_20210519_power2amp/equal_lnn_AM4Hz_s45_49.m4a,,,
,,,,,41244,2021-06-06_09h43.22.305,judgeSpeechMusic_20210519_logNormShiftAmp_mXs,2020.1.2,MacIntel,60,,,,,,,,,,,,,,,,,,,,,,,,,,2,11.7455,,0,1,7,157,8,1,stimuli/stim_20210519_power2amp/equal_lnn_AM1Hz_s15_1.m4a,,,
,,,,,41244,2021-06-06_09h43.22.305,judgeSpeechMusic_20210519_logNormShiftAmp_mXs,2020.1.2,MacIntel,60,,,,,,,,,,,,,,,,,,,,,,,,,,1,16.7489,,0,1,8,158,79,1,stimuli/stim_20210519_power2amp/equal_lnn_AM2.5Hz_s35_23.m4a,,,
,,,,,41244,2021-06-06_09h43.22.305,judgeSpeechMusic_20210519_logNormShiftAmp_mXs,2020.1.2,MacIntel,60,,,,,,,,,,,,,,,,,,,,,,,,,,2,5.9046,,0,1,9,159,47,1,stimuli/stim_20210519_power2amp/equal_lnn_AM1Hz_s55_10.m4a,,,
,,,,,41244,2021-06-06_09h43.22.305,judgeSpeechMusic_20210519_logNormShiftAmp_mXs,2020.1.2,MacIntel,60,,,,,,,,,,,,,,,,,,,,,,,,,,2,8.2209,,0,1,10,160,26,1,stimuli/stim_20210519_power2amp/equal_lnn_AM1Hz_s35_1.m4a,,,
,,,,,41244,2021-06-06_09h43.22.305,judgeSpeechMusic_20210519_logNormShiftAmp_mXs,2020.1.2,MacIntel,60,,,,,,,,,,,,,,,,,,,,,,,,,,1,5.7923,,0,1,11,161,24,1,stimuli/stim_20210519_power2amp/equal_lnn_AM1Hz_s35_7.m4a,,,
,,,,,41244,2021-06-06_09h43.22.305,judgeSpeechMusic_20210519_logNormShiftAmp_mXs,2020.1.2,MacIntel,60,,,,,,,,,,,,,,,,,,,,,,,,,,1,6.7306,,0,1,12,162,73,1,stimuli/stim_20210519_power2amp/equal_lnn_AM2.5Hz_s35_39.m4a,,,
,,,,,41244,2021-06-06_09h43.22.305,judgeSpeechMusic_20210519_logNormShiftAmp_mXs,2020.1.2,MacIntel,60,,,,,,,,,,,,,,,,,,,,,,,,,,2,7.2118,,0,1,13,163,56,1,stimuli/stim_20210519_power2amp/equal_lnn_AM2.5Hz_s15_17.m4a,,,
,,,,,41244,2021-06-06_09h43.22.305,judgeSpeechMusic_20210519_logNormShiftAmp_mXs,2020.1.2,MacIntel,60,,,,,,,,,,,,,,,,,,,,,,,,,,1,6.6868,,0,1,14,164,122,1,stimuli/stim_20210519_power2amp/equal_lnn_AM4Hz_s35_47.m4a,,,
,,,,,41244,2021-06-06_09h43.22.305,judgeSpeechMusic_20210519_logNormShiftAmp_mXs,2020.1.2,MacIntel,60,,,,,,,,,,,,,,,,,,,,,,,,,,1,6.5892,,0,1,15,165,44,1,stimuli/stim_20210519_power2amp/equal_lnn_AM1Hz_s55_14.m4a,,,
,,,,,41244,2021-06-06_09h43.22.305,judgeSpeechMusic_20210519_logNormShiftAmp_mXs,2020.1.2,MacIntel,60,,,,,,,,,,,,,,,,,,,,,,,,,,2,7.1881,,0,1,16,166,35,1,stimuli/stim_20210519_power2amp/equal_lnn_AM1Hz_s45_3.m4a,,,
,,,,,41244,2021-06-06_09h43.22.305,judgeSpeechMusic_20210519_logNormShiftAmp_mXs,2020.1.2,MacIntel,60,,,,,,,,,,,,,,,,,,,,,,,,,,1,7.7045,,0,1,17,167,20,1,stimuli/stim_20210519_power2amp/equal_lnn_AM1Hz_s35_43.m4a,,,
,,,,,41244,2021-06-06_09h43.22.305,judgeSpeechMusic_20210519_logNormShiftAmp_mXs,2020.1.2,MacIntel,60,,,,,,,,,,,,,,,,,,,,,,,,,,1,8.3928,,0,1,18,168,40,1,stimuli/stim_20210519_power2amp/equal_lnn_AM1Hz_s55_15.m4a,,,
,,,,,41244,2021-06-06_09h43.22.305,judgeSpeechMusic_20210519_logNormShiftAmp_mXs,2020.1.2,MacIntel,60,,,,,,,,,,,,,,,,,,,,,,,,,,2,8.3776,,0,1,19,169,1,1,stimuli/stim_20210519_power2amp/equal_lnn_AM1Hz_s15_42.m4a,,,
,,,,,41244,2021-06-06_09h43.22.305,judgeSpeechMusic_20210519_logNormShiftAmp_mXs,2020.1.2,MacIntel,60,,,,,,,,,,,,,,,,,,,,,,,,,,1,7.1389,,0,1,20,170,127,1,stimuli/stim_20210519_power2amp/equal_lnn_AM4Hz_s35_13.m4a,,,
,,,,,41244,2021-06-06_09h43.22.305,judgeSpeechMusic_20210519_logNormShiftAmp_mXs,2020.1.2,MacIntel,60,,,,,,,,,,,,,,,,,,,,,,,,,,1,15.6316,,0,1,21,171,87,1,stimuli/stim_20210519_power2amp/equal_lnn_AM2.5Hz_s45_4.m4a,,,
,,,,,41244,2021-06-06_09h43.22.305,judgeSpeechMusic_20210519_logNormShiftAmp_mXs,2020.1.2,MacIntel,60,,,,,,,,,,,,,,,,,,,,,,,,,,1,6.4125,,0,1,22,172,50,1,stimuli/stim_20210519_power2amp/equal_lnn_AM2.5Hz_s15_47.m4a,,,
,,,,,41244,2021-06-06_09h43.22.305,judgeSpeechMusic_20210519_logNormShiftAmp_mXs,2020.1.2,MacIntel,60,,,,,,,,,,,,,,,,,,,,,,,,,,2,8.438,,0,1,23,173,18,1,stimuli/stim_20210519_power2amp/equal_lnn_AM1Hz_s25_29.m4a,,,
,,,,,41244,2021-06-06_09h43.22.305,judgeSpeechMusic_20210519_logNormShiftAmp_mXs,2020.1.2,MacIntel,60,,,,,,,,,,,,,,,,,,,,,,,,,,2,5.9864,1,1,1,24,174,120,1,stimuli/stim_20210519_power2amp/equal_lnn_AM4Hz_s35_2.m4a,1.7269,,
,,,,,41244,2021-06-06_09h43.22.305,judgeSpeechMusic_20210519_logNormShiftAmp_mXs,2020.1.2,MacIntel,60,,,,,,,,,,,,,,,,,,,,,,,,,,2,8.2185,,0,1,25,175,70,1,stimuli/stim_20210519_power2amp/equal_lnn_AM2.5Hz_s35_22.m4a,,,
,,,,,41244,2021-06-06_09h43.22.305,judgeSpeechMusic_20210519_logNormShiftAmp_mXs,2020.1.2,MacIntel,60,,,,,,,,,,,,,,,,,,,,,,,,,,2,10.0973,,0,1,26,176,83,1,stimuli/stim_20210519_power2amp/equal_lnn_AM2.5Hz_s45_44.m4a,,,
,,,,,41244,2021-06-06_09h43.22.305,judgeSpeechMusic_20210519_logNormShiftAmp_mXs,2020.1.2,MacIntel,60,,,,,,,,,,,,,,,,,,,,,,,,,,2,8.2106,,0,1,27,177,13,1,stimuli/stim_20210519_power2amp/equal_lnn_AM1Hz_s25_9.m4a,,,
,,,,,41244,2021-06-06_09h43.22.305,judgeSpeechMusic_20210519_logNormShiftAmp_mXs,2020.1.2,MacIntel,60,,,,,,,,,,,,,,,,,,,,,,,,,,1,5.6248,,0,1,28,178,3,1,stimuli/stim_20210519_power2amp/equal_lnn_AM1Hz_s15_49.m4a,,,
,,,,,41244,2021-06-06_09h43.22.305,judgeSpeechMusic_20210519_logNormShiftAmp_mXs,2020.1.2,MacIntel,60,,,,,,,,,,,,,,,,,,,,,,,,,,2,6.4543,,0,1,29,179,84,1,stimuli/stim_20210519_power2amp/equal_lnn_AM2.5Hz_s45_41.m4a,,,
,,,,,41244,2021-06-06_09h43.22.305,judgeSpeechMusic_20210519_logNormShiftAmp_mXs,2020.1.2,MacIntel,60,,,,,,,,,,,,,,,,,,,,,,,,,,1,5.9294,,0,1,30,180,2,1,stimuli/stim_20210519_power2amp/equal_lnn_AM1Hz_s15_10.m4a,,,
,,,,,41244,2021-06-06_09h43.22.305,judgeSpeechMusic_20210519_logNormShiftAmp_mXs,2020.1.2,MacIntel,60,,,,,,,,,,,,,,,,,,,,,,,,,,1,7.5875,,0,1,31,181,32,1,stimuli/stim_20210519_power2amp/equal_lnn_AM1Hz_s45_9.m4a,,,
,,,,,41244,2021-06-06_09h43.22.305,judgeSpeechMusic_20210519_logNormShiftAmp_mXs,2020.1.2,MacIntel,60,,,,,,,,,,,,,,,,,,,,,,,,,,2,6.1614,,0,1,32,182,76,1,stimuli/stim_20210519_power2amp/equal_lnn_AM2.5Hz_s35_18.m4a,,,
,,,,,41244,2021-06-06_09h43.22.305,judgeSpeechMusic_20210519_logNormShiftAmp_mXs,2020.1.2,MacIntel,60,,,,,,,,,,,,,,,,,,,,,,,,,,2,6.0225,,0,1,33,183,138,1,stimuli/stim_20210519_power2amp/equal_lnn_AM4Hz_s45_29.m4a,,,
,,,,,41244,2021-06-06_09h43.22.305,judgeSpeechMusic_20210519_logNormShiftAmp_mXs,2020.1.2,MacIntel,60,,,,,,,,,,,,,,,,,,,,,,,,,,1,7.122,,0,1,34,184,68,1,stimuli/stim_20210519_power2amp/equal_lnn_AM2.5Hz_s25_4.m4a,,,
,,,,,41244,2021-06-06_09h43.22.305,judgeSpeechMusic_20210519_logNormShiftAmp_mXs,2020.1.2,MacIntel,60,,,,,,,,,,,,,,,,,,,,,,,,,,1,5.5947,,0,1,35,185,54,1,stimuli/stim_20210519_power2amp/equal_lnn_AM2.5Hz_s15_30.m4a,,,
,,,,,41244,2021-06-06_09h43.22.305,judgeSpeechMusic_20210519_logNormShiftAmp_mXs,2020.1.2,MacIntel,60,,,,,,,,,,,,,,,,,,,,,,,,,,1,6.2295,,0,1,36,186,134,1,stimuli/stim_20210519_power2amp/equal_lnn_AM4Hz_s45_35.m4a,,,
,,,,,41244,2021-06-06_09h43.22.305,judgeSpeechMusic_20210519_logNormShiftAmp_mXs,2020.1.2,MacIntel,60,,,,,,,,,,,,,,,,,,,,,,,,,,2,6.1723,,0,1,37,187,103,1,stimuli/stim_20210519_power2amp/equal_lnn_AM4Hz_s15_29.m4a,,,
,,,,,41244,2021-06-06_09h43.22.305,judgeSpeechMusic_20210519_logNormShiftAmp_mXs,2020.1.2,MacIntel,60,,,,,,,,,,,,,,,,,,,,,,,,,,1,5.7324,,0,1,38,188,34,1,stimuli/stim_20210519_power2amp/equal_lnn_AM1Hz_s45_22.m4a,,,
,,,,,41244,2021-06-06_09h43.22.305,judgeSpeechMusic_20210519_logNormShiftAmp_mXs,2020.1.2,MacIntel,60,,,,,,,,,,,,,,,,,,,,,,,,,,1,5.6864,,0,1,39,189,7,1,stimuli/stim_20210519_power2amp/equal_lnn_AM1Hz_s15_4.m4a,,,
,,,,,41244,2021-06-06_09h43.22.305,judgeSpeechMusic_20210519_logNormShiftAmp_mXs,2020.1.2,MacIntel,60,,,,,,,,,,,,,,,,,,,,,,,,,,1,7.438,,0,1,40,190,0,1,stimuli/stim_20210519_power2amp/equal_lnn_AM1Hz_s15_11.m4a,,,
,,,,,41244,2021-06-06_09h43.22.305,judgeSpeechMusic_20210519_logNormShiftAmp_mXs,2020.1.2,MacIntel,60,,,,,,,,,,,,,,,,,,,,,,,,,,1,5.5217,,0,1,41,191,4,1,stimuli/stim_20210519_power2amp/equal_lnn_AM1Hz_s15_33.m4a,,,
,,,,,41244,2021-06-06_09h43.22.305,judgeSpeechMusic_20210519_logNormShiftAmp_mXs,2020.1.2,MacIntel,60,,,,,,,,,,,,,,,,,,,,,,,,,,2,6.6885,,0,1,42,192,148,1,stimuli/stim_20210519_power2amp/equal_lnn_AM4Hz_s55_19.m4a,,,
,,,,,41244,2021-06-06_09h43.22.305,judgeSpeechMusic_20210519_logNormShiftAmp_mXs,2020.1.2,MacIntel,60,,,,,,,,,,,,,,,,,,,,,,,,,,1,8.6451,,0,1,43,193,19,1,stimuli/stim_20210519_power2amp/equal_lnn_AM1Hz_s25_16.m4a,,,
,,,,,41244,2021-06-06_09h43.22.305,judgeSpeechMusic_20210519_logNormShiftAmp_mXs,2020.1.2,MacIntel,60,,,,,,,,,,,,,,,,,,,,,,,,,,1,5.6121,,0,1,44,194,11,1,stimuli/stim_20210519_power2amp/equal_lnn_AM1Hz_s25_44.m4a,,,
,,,,,41244,2021-06-06_09h43.22.305,judgeSpeechMusic_20210519_logNormShiftAmp_mXs,2020.1.2,MacIntel,60,,,,,,,,,,,,,,,,,,,,,,,,,,2,5.6064,,0,1,45,195,98,1,stimuli/stim_20210519_power2amp/equal_lnn_AM2.5Hz_s55_18.m4a,,,
,,,,,41244,2021-06-06_09h43.22.305,judgeSpeechMusic_20210519_logNormShiftAmp_mXs,2020.1.2,MacIntel,60,,,,,,,,,,,,,,,,,,,,,,,,,,2,5.3877,,0,1,46,196,105,1,stimuli/stim_20210519_power2amp/equal_lnn_AM4Hz_s15_44.m4a,,,
,,,,,41244,2021-06-06_09h43.22.305,judgeSpeechMusic_20210519_logNormShiftAmp_mXs,2020.1.2,MacIntel,60,,,,,,,,,,,,,,,,,,,,,,,,,,2,5.7057,3,1,1,47,197,129,1,stimuli/stim_20210519_power2amp/equal_lnn_AM4Hz_s35_45.m4a,1.2741,,
,,,,,41244,2021-06-06_09h43.22.305,judgeSpeechMusic_20210519_logNormShiftAmp_mXs,2020.1.2,MacIntel,60,,,,,,,,,,,,,,,,,,,,,,,,,,1,7.0918,,0,1,48,198,52,1,stimuli/stim_20210519_power2amp/equal_lnn_AM2.5Hz_s15_39.m4a,,,
,,,,,41244,2021-06-06_09h43.22.305,judgeSpeechMusic_20210519_logNormShiftAmp_mXs,2020.1.2,MacIntel,60,,,,,,,,,,,,,,,,,,,,,,,,,,2,7.4548,,0,1,49,199,99,1,stimuli/stim_20210519_power2amp/equal_lnn_AM2.5Hz_s55_10.m4a,,,
,,,,,41244,2021-06-06_09h43.22.305,judgeSpeechMusic_20210519_logNormShiftAmp_mXs,2020.1.2,MacIntel,60,,,,,,,,,,,,,,,,,,,,,,,,,,1,5.8433,,0,1,50,200,111,1,stimuli/stim_20210519_power2amp/equal_lnn_AM4Hz_s25_19.m4a,,,
,,,,,41244,2021-06-06_09h43.22.305,judgeSpeechMusic_20210519_logNormShiftAmp_mXs,2020.1.2,MacIntel,60,,,,,,,,,,,,,,,,,,,,,,,,,,1,6.4381,,0,1,51,201,108,1,stimuli/stim_20210519_power2amp/equal_lnn_AM4Hz_s15_48.m4a,,,
,,,,,41244,2021-06-06_09h43.22.305,judgeSpeechMusic_20210519_logNormShiftAmp_mXs,2020.1.2,MacIntel,60,,,,,,,,,,,,,,,,,,,,,,,,,,1,6.5226,,0,1,52,202,143,1,stimuli/stim_20210519_power2amp/equal_lnn_AM4Hz_s55_49.m4a,,,
,,,,,41244,2021-06-06_09h43.22.305,judgeSpeechMusic_20210519_logNormShiftAmp_mXs,2020.1.2,MacIntel,60,,,,,,,,,,,,,,,,,,,,,,,,,,2,5.6382,,0,1,53,203,115,1,stimuli/stim_20210519_power2amp/equal_lnn_AM4Hz_s25_2.m4a,,,
,,,,,41244,2021-06-06_09h43.22.305,judgeSpeechMusic_20210519_logNormShiftAmp_mXs,2020.1.2,MacIntel,60,,,,,,,,,,,,,,,,,,,,,,,,,,1,5.7968,,0,1,54,204,43,1,stimuli/stim_20210519_power2amp/equal_lnn_AM1Hz_s55_24.m4a,,,
,,,,,41244,2021-06-06_09h43.22.305,judgeSpeechMusic_20210519_logNormShiftAmp_mXs,2020.1.2,MacIntel,60,,,,,,,,,,,,,,,,,,,,,,,,,,2,6.0748,,0,1,55,205,107,1,stimuli/stim_20210519_power2amp/equal_lnn_AM4Hz_s15_30.m4a,,,
,,,,,41244,2021-06-06_09h43.22.305,judgeSpeechMusic_20210519_logNormShiftAmp_mXs,2020.1.2,MacIntel,60,,,,,,,,,,,,,,,,,,,,,,,,,,1,7.1232,,0,1,56,206,67,1,stimuli/stim_20210519_power2amp/equal_lnn_AM2.5Hz_s25_31.m4a,,,
,,,,,41244,2021-06-06_09h43.22.305,judgeSpeechMusic_20210519_logNormShiftAmp_mXs,2020.1.2,MacIntel,60,,,,,,,,,,,,,,,,,,,,,,,,,,1,6.1459,,0,1,57,207,106,1,stimuli/stim_20210519_power2amp/equal_lnn_AM4Hz_s15_41.m4a,,,
,,,,,41244,2021-06-06_09h43.22.305,judgeSpeechMusic_20210519_logNormShiftAmp_mXs,2020.1.2,MacIntel,60,,,,,,,,,,,,,,,,,,,,,,,,,,2,5.637,,0,1,58,208,110,1,stimuli/stim_20210519_power2amp/equal_lnn_AM4Hz_s25_45.m4a,,,
,,,,,41244,2021-06-06_09h43.22.305,judgeSpeechMusic_20210519_logNormShiftAmp_mXs,2020.1.2,MacIntel,60,,,,,,,,,,,,,,,,,,,,,,,,,,1,5.5374,,0,1,59,209,64,1,stimuli/stim_20210519_power2amp/equal_lnn_AM2.5Hz_s25_12.m4a,,,
,,,,,41244,2021-06-06_09h43.22.305,judgeSpeechMusic_20210519_logNormShiftAmp_mXs,2020.1.2,MacIntel,60,,,,,,,,,,,,,,,,,,,,,,,,,,2,6.287,,0,1,60,210,102,1,stimuli/stim_20210519_power2amp/equal_lnn_AM4Hz_s15_19.m4a,,,
,,,,,41244,2021-06-06_09h43.22.305,judgeSpeechMusic_20210519_logNormShiftAmp_mXs,2020.1.2,MacIntel,60,,,,,,,,,,,,,,,,,,,,,,,,,,1,6.0389,,0,1,61,211,6,1,stimuli/stim_20210519_power2amp/equal_lnn_AM1Hz_s15_13.m4a,,,
,,,,,41244,2021-06-06_09h43.22.305,judgeSpeechMusic_20210519_logNormShiftAmp_mXs,2020.1.2,MacIntel,60,,,,,,,,,,,,,,,,,,,,,,,,,,1,7.4394,,0,1,62,212,69,1,stimuli/stim_20210519_power2amp/equal_lnn_AM2.5Hz_s25_42.m4a,,,
,,,,,41244,2021-06-06_09h43.22.305,judgeSpeechMusic_20210519_logNormShiftAmp_mXs,2020.1.2,MacIntel,60,,,,,,,,,,,,,,,,,,,,,,,,,,1,6.3651,,0,1,63,213,21,1,stimuli/stim_20210519_power2amp/equal_lnn_AM1Hz_s35_30.m4a,,,
,,,,,41244,2021-06-06_09h43.22.305,judgeSpeechMusic_20210519_logNormShiftAmp_mXs,2020.1.2,MacIntel,60,,,,,,,,,,,,,,,,,,,,,,,,,,2,6.0876,,0,1,64,214,57,1,stimuli/stim_20210519_power2amp/equal_lnn_AM2.5Hz_s15_34.m4a,,,
,,,,,41244,2021-06-06_09h43.22.305,judgeSpeechMusic_20210519_logNormShiftAmp_mXs,2020.1.2,MacIntel,60,,,,,,,,,,,,,,,,,,,,,,,,,,2,5.8449,,0,1,65,215,91,1,stimuli/stim_20210519_power2amp/equal_lnn_AM2.5Hz_s55_26.m4a,,,
,,,,,41244,2021-06-06_09h43.22.305,judgeSpeechMusic_20210519_logNormShiftAmp_mXs,2020.1.2,MacIntel,60,,,,,,,,,,,,,,,,,,,,,,,,,,2,6.942,,0,1,66,216,65,1,stimuli/stim_20210519_power2amp/equal_lnn_AM2.5Hz_s25_30.m4a,,,
,,,,,41244,2021-06-06_09h43.22.305,judgeSpeechMusic_20210519_logNormShiftAmp_mXs,2020.1.2,MacIntel,60,,,,,,,,,,,,,,,,,,,,,,,,,,1,7.622,,0,1,67,217,92,1,stimuli/stim_20210519_power2amp/equal_lnn_AM2.5Hz_s55_30.m4a,,,
,,,,,41244,2021-06-06_09h43.22.305,judgeSpeechMusic_20210519_logNormShiftAmp_mXs,2020.1.2,MacIntel,60,,,,,,,,,,,,,,,,,,,,,,,,,,1,5.6707,,0,1,68,218,39,1,stimuli/stim_20210519_power2amp/equal_lnn_AM1Hz_s45_23.m4a,,,
,,,,,41244,2021-06-06_09h43.22.305,judgeSpeechMusic_20210519_logNormShiftAmp_mXs,2020.1.2,MacIntel,60,,,,,,,,,,,,,,,,,,,,,,,,,,1,6.7417,3,1,1,69,219,81,1,stimuli/stim_20210519_power2amp/equal_lnn_AM2.5Hz_s45_2.m4a,1.1563,,
,,,,,41244,2021-06-06_09h43.22.305,judgeSpeechMusic_20210519_logNormShiftAmp_mXs,2020.1.2,MacIntel,60,,,,,,,,,,,,,,,,,,,,,,,,,,1,5.6417,,0,1,70,220,45,1,stimuli/stim_20210519_power2amp/equal_lnn_AM1Hz_s55_8.m4a,,,
,,,,,41244,2021-06-06_09h43.22.305,judgeSpeechMusic_20210519_logNormShiftAmp_mXs,2020.1.2,MacIntel,60,,,,,,,,,,,,,,,,,,,,,,,,,,1,5.9111,,0,1,71,221,22,1,stimuli/stim_20210519_power2amp/equal_lnn_AM1Hz_s35_5.m4a,,,
,,,,,41244,2021-06-06_09h43.22.305,judgeSpeechMusic_20210519_logNormShiftAmp_mXs,2020.1.2,MacIntel,60,,,,,,,,,,,,,,,,,,,,,,,,,,1,5.6444,,0,1,72,222,25,1,stimuli/stim_20210519_power2amp/equal_lnn_AM1Hz_s35_20.m4a,,,
,,,,,41244,2021-06-06_09h43.22.305,judgeSpeechMusic_20210519_logNormShiftAmp_mXs,2020.1.2,MacIntel,60,,,,,,,,,,,,,,,,,,,,,,,,,,2,5.8816,,0,1,73,223,51,1,stimuli/stim_20210519_power2amp/equal_lnn_AM2.5Hz_s15_9.m4a,,,
,,,,,41244,2021-06-06_09h43.22.305,judgeSpeechMusic_20210519_logNormShiftAmp_mXs,2020.1.2,MacIntel,60,,,,,,,,,,,,,,,,,,,,,,,,,,1,5.5916,,0,1,74,224,104,1,stimuli/stim_20210519_power2amp/equal_lnn_AM4Hz_s15_39.m4a,,,
,,,,,41244,2021-06-06_09h43.22.305,judgeSpeechMusic_20210519_logNormShiftAmp_mXs,2020.1.2,MacIntel,60,,,,,,,,,,,,,,,,,,,,,,,,,,2,5.6566,,0,1,75,225,71,1,stimuli/stim_20210519_power2amp/equal_lnn_AM2.5Hz_s35_42.m4a,,,
,,,,,41244,2021-06-06_09h43.22.305,judgeSpeechMusic_20210519_logNormShiftAmp_mXs,2020.1.2,MacIntel,60,,,,,,,,,,,,,,,,,,,,,,,,,,1,5.5918,,0,1,76,226,49,1,stimuli/stim_20210519_power2amp/equal_lnn_AM1Hz_s55_30.m4a,,,
,,,,,41244,2021-06-06_09h43.22.305,judgeSpeechMusic_20210519_logNormShiftAmp_mXs,2020.1.2,MacIntel,60,,,,,,,,,,,,,,,,,,,,,,,,,,2,6.0311,,0,1,77,227,146,1,stimuli/stim_20210519_power2amp/equal_lnn_AM4Hz_s55_4.m4a,,,
,,,,,41244,2021-06-06_09h43.22.305,judgeSpeechMusic_20210519_logNormShiftAmp_mXs,2020.1.2,MacIntel,60,,,,,,,,,,,,,,,,,,,,,,,,,,2,7.497,,0,1,78,228,124,1,stimuli/stim_20210519_power2amp/equal_lnn_AM4Hz_s35_40.m4a,,,
,,,,,41244,2021-06-06_09h43.22.305,judgeSpeechMusic_20210519_logNormShiftAmp_mXs,2020.1.2,MacIntel,60,,,,,,,,,,,,,,,,,,,,,,,,,,1,5.6392,,0,1,79,229,5,1,stimuli/stim_20210519_power2amp/equal_lnn_AM1Hz_s15_46.m4a,,,
,,,,,41244,2021-06-06_09h43.22.305,judgeSpeechMusic_20210519_logNormShiftAmp_mXs,2020.1.2,MacIntel,60,,,,,,,,,,,,,,,,,,,,,,,,,,2,5.6572,,0,1,80,230,128,1,stimuli/stim_20210519_power2amp/equal_lnn_AM4Hz_s35_9.m4a,,,
,,,,,41244,2021-06-06_09h43.22.305,judgeSpeechMusic_20210519_logNormShiftAmp_mXs,2020.1.2,MacIntel,60,,,,,,,,,,,,,,,,,,,,,,,,,,2,6.4777,,0,1,81,231,131,1,stimuli/stim_20210519_power2amp/equal_lnn_AM4Hz_s45_46.m4a,,,
,,,,,41244,2021-06-06_09h43.22.305,judgeSpeechMusic_20210519_logNormShiftAmp_mXs,2020.1.2,MacIntel,60,,,,,,,,,,,,,,,,,,,,,,,,,,1,5.6111,,0,1,82,232,12,1,stimuli/stim_20210519_power2amp/equal_lnn_AM1Hz_s25_18.m4a,,,
,,,,,41244,2021-06-06_09h43.22.305,judgeSpeechMusic_20210519_logNormShiftAmp_mXs,2020.1.2,MacIntel,60,,,,,,,,,,,,,,,,,,,,,,,,,,2,5.6714,,0,1,83,233,133,1,stimuli/stim_20210519_power2amp/equal_lnn_AM4Hz_s45_23.m4a,,,
,,,,,41244,2021-06-06_09h43.22.305,judgeSpeechMusic_20210519_logNormShiftAmp_mXs,2020.1.2,MacIntel,60,,,,,,,,,,,,,,,,,,,,,,,,,,2,12.9221,,0,1,84,234,15,1,stimuli/stim_20210519_power2amp/equal_lnn_AM1Hz_s25_38.m4a,,,
,,,,,41244,2021-06-06_09h43.22.305,judgeSpeechMusic_20210519_logNormShiftAmp_mXs,2020.1.2,MacIntel,60,,,,,,,,,,,,,,,,,,,,,,,,,,1,7.2438,,0,1,85,235,46,1,stimuli/stim_20210519_power2amp/equal_lnn_AM1Hz_s55_7.m4a,,,
,,,,,41244,2021-06-06_09h43.22.305,judgeSpeechMusic_20210519_logNormShiftAmp_mXs,2020.1.2,MacIntel,60,,,,,,,,,,,,,,,,,,,,,,,,,,1,7.0279,,0,1,86,236,119,1,stimuli/stim_20210519_power2amp/equal_lnn_AM4Hz_s25_36.m4a,,,
,,,,,41244,2021-06-06_09h43.22.305,judgeSpeechMusic_20210519_logNormShiftAmp_mXs,2020.1.2,MacIntel,60,,,,,,,,,,,,,,,,,,,,,,,,,,2,6.9379,,0,1,87,237,113,1,stimuli/stim_20210519_power2amp/equal_lnn_AM4Hz_s25_47.m4a,,,
,,,,,41244,2021-06-06_09h43.22.305,judgeSpeechMusic_20210519_logNormShiftAmp_mXs,2020.1.2,MacIntel,60,,,,,,,,,,,,,,,,,,,,,,,,,,2,6.4276,,0,1,88,238,31,1,stimuli/stim_20210519_power2amp/equal_lnn_AM1Hz_s45_11.m4a,,,
,,,,,41244,2021-06-06_09h43.22.305,judgeSpeechMusic_20210519_logNormShiftAmp_mXs,2020.1.2,MacIntel,60,,,,,,,,,,,,,,,,,,,,,,,,,,2,7.3059,,0,1,89,239,74,1,stimuli/stim_20210519_power2amp/equal_lnn_AM2.5Hz_s35_38.m4a,,,
,,,,,41244,2021-06-06_09h43.22.305,judgeSpeechMusic_20210519_logNormShiftAmp_mXs,2020.1.2,MacIntel,60,,,,,,,,,,,,,,,,,,,,,,,,,,1,6.0967,,0,1,90,240,28,1,stimuli/stim_20210519_power2amp/equal_lnn_AM1Hz_s35_24.m4a,,,
,,,,,41244,2021-06-06_09h43.22.305,judgeSpeechMusic_20210519_logNormShiftAmp_mXs,2020.1.2,MacIntel,60,,,,,,,,,,,,,,,,,,,,,,,,,,1,5.682,,0,1,91,241,9,1,stimuli/stim_20210519_power2amp/equal_lnn_AM1Hz_s15_7.m4a,,,
,,,,,41244,2021-06-06_09h43.22.305,judgeSpeechMusic_20210519_logNormShiftAmp_mXs,2020.1.2,MacIntel,60,,,,,,,,,,,,,,,,,,,,,,,,,,2,7.8926,,0,1,92,242,121,1,stimuli/stim_20210519_power2amp/equal_lnn_AM4Hz_s35_3.m4a,,,
,,,,,41244,2021-06-06_09h43.22.305,judgeSpeechMusic_20210519_logNormShiftAmp_mXs,2020.1.2,MacIntel,60,,,,,,,,,,,,,,,,,,,,,,,,,,2,6.1616,4,1,1,93,243,94,1,stimuli/stim_20210519_power2amp/equal_lnn_AM2.5Hz_s55_50.m4a,1.0093,,
,,,,,41244,2021-06-06_09h43.22.305,judgeSpeechMusic_20210519_logNormShiftAmp_mXs,2020.1.2,MacIntel,60,,,,,,,,,,,,,,,,,,,,,,,,,,1,5.6185,,0,1,94,244,30,1,stimuli/stim_20210519_power2amp/equal_lnn_AM1Hz_s45_42.m4a,,,
,,,,,41244,2021-06-06_09h43.22.305,judgeSpeechMusic_20210519_logNormShiftAmp_mXs,2020.1.2,MacIntel,60,,,,,,,,,,,,,,,,,,,,,,,,,,1,6.7413,,0,1,95,245,77,1,stimuli/stim_20210519_power2amp/equal_lnn_AM2.5Hz_s35_20.m4a,,,
,,,,,41244,2021-06-06_09h43.22.305,judgeSpeechMusic_20210519_logNormShiftAmp_mXs,2020.1.2,MacIntel,60,,,,,,,,,,,,,,,,,,,,,,,,,,2,6.8046,,0,1,96,246,60,1,stimuli/stim_20210519_power2amp/equal_lnn_AM2.5Hz_s25_5.m4a,,,
,,,,,41244,2021-06-06_09h43.22.305,judgeSpeechMusic_20210519_logNormShiftAmp_mXs,2020.1.2,MacIntel,60,,,,,,,,,,,,,,,,,,,,,,,,,,2,6.6113,,0,1,97,247,90,1,stimuli/stim_20210519_power2amp/equal_lnn_AM2.5Hz_s55_45.m4a,,,
,,,,,41244,2021-06-06_09h43.22.305,judgeSpeechMusic_20210519_logNormShiftAmp_mXs,2020.1.2,MacIntel,60,,,,,,,,,,,,,,,,,,,,,,,,,,2,5.9944,,0,1,98,248,136,1,stimuli/stim_20210519_power2amp/equal_lnn_AM4Hz_s45_6.m4a,,,
,,,,,41244,2021-06-06_09h43.22.305,judgeSpeechMusic_20210519_logNormShiftAmp_mXs,2020.1.2,MacIntel,60,,,,,,,,,,,,,,,,,,,,,,,,,,2,6.0892,,0,1,99,249,88,1,stimuli/stim_20210519_power2amp/equal_lnn_AM2.5Hz_s45_38.m4a,,,
,,,,,41244,2021-06-06_09h43.22.305,judgeSpeechMusic_20210519_logNormShiftAmp_mXs,2020.1.2,MacIntel,60,,,,,,,,,,,,,,,,,,,,,,,,,,1,6.0385,,0,1,100,250,42,1,stimuli/stim_20210519_power2amp/equal_lnn_AM1Hz_s55_47.m4a,,,
,,,,,41244,2021-06-06_09h43.22.305,judgeSpeechMusic_20210519_logNormShiftAmp_mXs,2020.1.2,MacIntel,60,,,,,,,,,,,,,,,,,,,,,,,,,,2,5.5879,,0,1,101,251,116,1,stimuli/stim_20210519_power2amp/equal_lnn_AM4Hz_s25_25.m4a,,,
,,,,,41244,2021-06-06_09h43.22.305,judgeSpeechMusic_20210519_logNormShiftAmp_mXs,2020.1.2,MacIntel,60,,,,,,,,,,,,,,,,,,,,,,,,,,1,5.5733,,0,1,102,252,96,1,stimuli/stim_20210519_power2amp/equal_lnn_AM2.5Hz_s55_21.m4a,,,
,,,,,41244,2021-06-06_09h43.22.305,judgeSpeechMusic_20210519_logNormShiftAmp_mXs,2020.1.2,MacIntel,60,,,,,,,,,,,,,,,,,,,,,,,,,,1,5.5932,,0,1,103,253,132,1,stimuli/stim_20210519_power2amp/equal_lnn_AM4Hz_s45_31.m4a,,,
,,,,,41244,2021-06-06_09h43.22.305,judgeSpeechMusic_20210519_logNormShiftAmp_mXs,2020.1.2,MacIntel,60,,,,,,,,,,,,,,,,,,,,,,,,,,2,6.2862,,0,1,104,254,125,1,stimuli/stim_20210519_power2amp/equal_lnn_AM4Hz_s35_33.m4a,,,
,,,,,41244,2021-06-06_09h43.22.305,judgeSpeechMusic_20210519_logNormShiftAmp_mXs,2020.1.2,MacIntel,60,,,,,,,,,,,,,,,,,,,,,,,,,,2,6.2597,,0,1,105,255,137,1,stimuli/stim_20210519_power2amp/equal_lnn_AM4Hz_s45_30.m4a,,,
,,,,,41244,2021-06-06_09h43.22.305,judgeSpeechMusic_20210519_logNormShiftAmp_mXs,2020.1.2,MacIntel,60,,,,,,,,,,,,,,,,,,,,,,,,,,1,5.5929,,0,1,106,256,29,1,stimuli/stim_20210519_power2amp/equal_lnn_AM1Hz_s35_46.m4a,,,
,,,,,41244,2021-06-06_09h43.22.305,judgeSpeechMusic_20210519_logNormShiftAmp_mXs,2020.1.2,MacIntel,60,,,,,,,,,,,,,,,,,,,,,,,,,,2,5.8798,,0,1,107,257,117,1,stimuli/stim_20210519_power2amp/equal_lnn_AM4Hz_s25_4.m4a,,,
,,,,,41244,2021-06-06_09h43.22.305,judgeSpeechMusic_20210519_logNormShiftAmp_mXs,2020.1.2,MacIntel,60,,,,,,,,,,,,,,,,,,,,,,,,,,1,5.6025,,0,1,108,258,27,1,stimuli/stim_20210519_power2amp/equal_lnn_AM1Hz_s35_6.m4a,,,
,,,,,41244,2021-06-06_09h43.22.305,judgeSpeechMusic_20210519_logNormShiftAmp_mXs,2020.1.2,MacIntel,60,,,,,,,,,,,,,,,,,,,,,,,,,,1,5.9305,,0,1,109,259,36,1,stimuli/stim_20210519_power2amp/equal_lnn_AM1Hz_s45_29.m4a,,,
,,,,,41244,2021-06-06_09h43.22.305,judgeSpeechMusic_20210519_logNormShiftAmp_mXs,2020.1.2,MacIntel,60,,,,,,,,,,,,,,,,,,,,,,,,,,2,5.6061,,0,1,110,260,114,1,stimuli/stim_20210519_power2amp/equal_lnn_AM4Hz_s25_26.m4a,,,
,,,,,41244,2021-06-06_09h43.22.305,judgeSpeechMusic_20210519_logNormShiftAmp_mXs,2020.1.2,MacIntel,60,,,,,,,,,,,,,,,,,,,,,,,,,,2,7.1248,,0,1,111,261,126,1,stimuli/stim_20210519_power2amp/equal_lnn_AM4Hz_s35_24.m4a,,,
,,,,,41244,2021-06-06_09h43.22.305,judgeSpeechMusic_20210519_logNormShiftAmp_mXs,2020.1.2,MacIntel,60,,,,,,,,,,,,,,,,,,,,,,,,,,2,7.273,,0,1,112,262,97,1,stimuli/stim_20210519_power2amp/equal_lnn_AM2.5Hz_s55_47.m4a,,,
,,,,,41244,2021-06-06_09h43.22.305,judgeSpeechMusic_20210519_logNormShiftAmp_mXs,2020.1.2,MacIntel,60,,,,,,,,,,,,,,,,,,,,,,,,,,2,7.2698,,0,1,113,263,130,1,stimuli/stim_20210519_power2amp/equal_lnn_AM4Hz_s45_37.m4a,,,
,,,,,41244,2021-06-06_09h43.22.305,judgeSpeechMusic_20210519_logNormShiftAmp_mXs,2020.1.2,MacIntel,60,,,,,,,,,,,,,,,,,,,,,,,,,,2,6.7469,,0,1,114,264,145,1,stimuli/stim_20210519_power2amp/equal_lnn_AM4Hz_s55_46.m4a,,,
,,,,,41244,2021-06-06_09h43.22.305,judgeSpeechMusic_20210519_logNormShiftAmp_mXs,2020.1.2,MacIntel,60,,,,,,,,,,,,,,,,,,,,,,,,,,1,5.858,,0,1,115,265,82,1,stimuli/stim_20210519_power2amp/equal_lnn_AM2.5Hz_s45_37.m4a,,,
,,,,,41244,2021-06-06_09h43.22.305,judgeSpeechMusic_20210519_logNormShiftAmp_mXs,2020.1.2,MacIntel,60,,,,,,,,,,,,,,,,,,,,,,,,,,2,6.356,,0,1,116,266,66,1,stimuli/stim_20210519_power2amp/equal_lnn_AM2.5Hz_s25_11.m4a,,,
,,,,,41244,2021-06-06_09h43.22.305,judgeSpeechMusic_20210519_logNormShiftAmp_mXs,2020.1.2,MacIntel,60,,,,,,,,,,,,,,,,,,,,,,,,,,1,5.665,4,1,1,117,267,109,1,stimuli/stim_20210519_power2amp/equal_lnn_AM4Hz_s15_17.m4a,1.3079,,
,,,,,41244,2021-06-06_09h43.22.305,judgeSpeechMusic_20210519_logNormShiftAmp_mXs,2020.1.2,MacIntel,60,,,,,,,,,,,,,,,,,,,,,,,,,,1,7.3036,,0,1,118,268,93,1,stimuli/stim_20210519_power2amp/equal_lnn_AM2.5Hz_s55_15.m4a,,,
,,,,,41244,2021-06-06_09h43.22.305,judgeSpeechMusic_20210519_logNormShiftAmp_mXs,2020.1.2,MacIntel,60,,,,,,,,,,,,,,,,,,,,,,,,,,2,6.8387,,0,1,119,269,142,1,stimuli/stim_20210519_power2amp/equal_lnn_AM4Hz_s55_43.m4a,,,
,,,,,41244,2021-06-06_09h43.22.305,judgeSpeechMusic_20210519_logNormShiftAmp_mXs,2020.1.2,MacIntel,60,,,,,,,,,,,,,,,,,,,,,,,,,,2,6.8858,,0,1,120,270,89,1,stimuli/stim_20210519_power2amp/equal_lnn_AM2.5Hz_s45_48.m4a,,,
,,,,,41244,2021-06-06_09h43.22.305,judgeSpeechMusic_20210519_logNormShiftAmp_mXs,2020.1.2,MacIntel,60,,,,,,,,,,,,,,,,,,,,,,,,,,1,5.5889,,0,1,121,271,33,1,stimuli/stim_20210519_power2amp/equal_lnn_AM1Hz_s45_32.m4a,,,
,,,,,41244,2021-06-06_09h43.22.305,judgeSpeechMusic_20210519_logNormShiftAmp_mXs,2020.1.2,MacIntel,60,,,,,,,,,,,,,,,,,,,,,,,,,,1,5.8554,,0,1,122,272,16,1,stimuli/stim_20210519_power2amp/equal_lnn_AM1Hz_s25_47.m4a,,,
,,,,,41244,2021-06-06_09h43.22.305,judgeSpeechMusic_20210519_logNormShiftAmp_mXs,2020.1.2,MacIntel,60,,,,,,,,,,,,,,,,,,,,,,,,,,1,5.5904,,0,1,123,273,37,1,stimuli/stim_20210519_power2amp/equal_lnn_AM1Hz_s45_8.m4a,,,
,,,,,41244,2021-06-06_09h43.22.305,judgeSpeechMusic_20210519_logNormShiftAmp_mXs,2020.1.2,MacIntel,60,,,,,,,,,,,,,,,,,,,,,,,,,,2,6.5891,,0,1,124,274,78,1,stimuli/stim_20210519_power2amp/equal_lnn_AM2.5Hz_s35_40.m4a,,,
,,,,,41244,2021-06-06_09h43.22.305,judgeSpeechMusic_20210519_logNormShiftAmp_mXs,2020.1.2,MacIntel,60,,,,,,,,,,,,,,,,,,,,,,,,,,1,5.8369,,0,1,125,275,112,1,stimuli/stim_20210519_power2amp/equal_lnn_AM4Hz_s25_40.m4a,,,
,,,,,41244,2021-06-06_09h43.22.305,judgeSpeechMusic_20210519_logNormShiftAmp_mXs,2020.1.2,MacIntel,60,,,,,,,,,,,,,,,,,,,,,,,,,,1,5.5599,,0,1,126,276,141,1,stimuli/stim_20210519_power2amp/equal_lnn_AM4Hz_s55_24.m4a,,,
,,,,,41244,2021-06-06_09h43.22.305,judgeSpeechMusic_20210519_logNormShiftAmp_mXs,2020.1.2,MacIntel,60,,,,,,,,,,,,,,,,,,,,,,,,,,2,6.161,,0,1,127,277,62,1,stimuli/stim_20210519_power2amp/equal_lnn_AM2.5Hz_s25_45.m4a,,,
,,,,,41244,2021-06-06_09h43.22.305,judgeSpeechMusic_20210519_logNormShiftAmp_mXs,2020.1.2,MacIntel,60,,,,,,,,,,,,,,,,,,,,,,,,,,2,5.963,,0,1,128,278,59,1,stimuli/stim_20210519_power2amp/equal_lnn_AM2.5Hz_s15_40.m4a,,,
,,,,,41244,2021-06-06_09h43.22.305,judgeSpeechMusic_20210519_logNormShiftAmp_mXs,2020.1.2,MacIntel,60,,,,,,,,,,,,,,,,,,,,,,,,,,1,5.9371,,0,1,129,279,149,1,stimuli/stim_20210519_power2amp/equal_lnn_AM4Hz_s55_23.m4a,,,
,,,,,41244,2021-06-06_09h43.22.305,judgeSpeechMusic_20210519_logNormShiftAmp_mXs,2020.1.2,MacIntel,60,,,,,,,,,,,,,,,,,,,,,,,,,,1,6.6062,,0,1,130,280,55,1,stimuli/stim_20210519_power2amp/equal_lnn_AM2.5Hz_s15_15.m4a,,,
,,,,,41244,2021-06-06_09h43.22.305,judgeSpeechMusic_20210519_logNormShiftAmp_mXs,2020.1.2,MacIntel,60,,,,,,,,,,,,,,,,,,,,,,,,,,2,5.6483,,0,1,131,281,144,1,stimuli/stim_20210519_power2amp/equal_lnn_AM4Hz_s55_8.m4a,,,
,,,,,41244,2021-06-06_09h43.22.305,judgeSpeechMusic_20210519_logNormShiftAmp_mXs,2020.1.2,MacIntel,60,,,,,,,,,,,,,,,,,,,,,,,,,,1,5.542,,0,1,132,282,48,1,stimuli/stim_20210519_power2amp/equal_lnn_AM1Hz_s55_13.m4a,,,
,,,,,41244,2021-06-06_09h43.22.305,judgeSpeechMusic_20210519_logNormShiftAmp_mXs,2020.1.2,MacIntel,60,,,,,,,,,,,,,,,,,,,,,,,,,,2,5.8852,,0,1,133,283,72,1,stimuli/stim_20210519_power2amp/equal_lnn_AM2.5Hz_s35_15.m4a,,,
,,,,,41244,2021-06-06_09h43.22.305,judgeSpeechMusic_20210519_logNormShiftAmp_mXs,2020.1.2,MacIntel,60,,,,,,,,,,,,,,,,,,,,,,,,,,1,6.1612,,0,1,134,284,101,1,stimuli/stim_20210519_power2amp/equal_lnn_AM4Hz_s15_8.m4a,,,
,,,,,41244,2021-06-06_09h43.22.305,judgeSpeechMusic_20210519_logNormShiftAmp_mXs,2020.1.2,MacIntel,60,,,,,,,,,,,,,,,,,,,,,,,,,,2,6.5199,,0,1,135,285,80,1,stimuli/stim_20210519_power2amp/equal_lnn_AM2.5Hz_s45_1.m4a,,,
,,,,,41244,2021-06-06_09h43.22.305,judgeSpeechMusic_20210519_logNormShiftAmp_mXs,2020.1.2,MacIntel,60,,,,,,,,,,,,,,,,,,,,,,,,,,1,5.6447,,0,1,136,286,86,1,stimuli/stim_20210519_power2amp/equal_lnn_AM2.5Hz_s45_36.m4a,,,
,,,,,41244,2021-06-06_09h43.22.305,judgeSpeechMusic_20210519_logNormShiftAmp_mXs,2020.1.2,MacIntel,60,,,,,,,,,,,,,,,,,,,,,,,,,,2,6.187,,0,1,137,287,140,1,stimuli/stim_20210519_power2amp/equal_lnn_AM4Hz_s55_48.m4a,,,
,,,,,41244,2021-06-06_09h43.22.305,judgeSpeechMusic_20210519_logNormShiftAmp_mXs,2020.1.2,MacIntel,60,,,,,,,,,,,,,,,,,,,,,,,,,,1,6.1064,,0,1,138,288,10,1,stimuli/stim_20210519_power2amp/equal_lnn_AM1Hz_s25_8.m4a,,,
,,,,,41244,2021-06-06_09h43.22.305,judgeSpeechMusic_20210519_logNormShiftAmp_mXs,2020.1.2,MacIntel,60,,,,,,,,,,,,,,,,,,,,,,,,,,2,6.7812,3,1,1,139,289,58,1,stimuli/stim_20210519_power2amp/equal_lnn_AM2.5Hz_s15_42.m4a,1.1093,,
,,,,,41244,2021-06-06_09h43.22.305,judgeSpeechMusic_20210519_logNormShiftAmp_mXs,2020.1.2,MacIntel,60,,,,,,,,,,,,,,,,,,,,,,,,,,2,6.2083,,0,1,140,290,147,1,stimuli/stim_20210519_power2amp/equal_lnn_AM4Hz_s55_6.m4a,,,
,,,,,41244,2021-06-06_09h43.22.305,judgeSpeechMusic_20210519_logNormShiftAmp_mXs,2020.1.2,MacIntel,60,,,,,,,,,,,,,,,,,,,,,,,,,,2,5.7605,,0,1,141,291,61,1,stimuli/stim_20210519_power2amp/equal_lnn_AM2.5Hz_s25_38.m4a,,,
,,,,,41244,2021-06-06_09h43.22.305,judgeSpeechMusic_20210519_logNormShiftAmp_mXs,2020.1.2,MacIntel,60,,,,,,,,,,,,,,,,,,,,,,,,,,2,5.8775,,0,1,142,292,118,1,stimuli/stim_20210519_power2amp/equal_lnn_AM4Hz_s25_31.m4a,,,
,,,,,41244,2021-06-06_09h43.22.305,judgeSpeechMusic_20210519_logNormShiftAmp_mXs,2020.1.2,MacIntel,60,,,,,,,,,,,,,,,,,,,,,,,,,,1,5.9291,,0,1,143,293,17,1,stimuli/stim_20210519_power2amp/equal_lnn_AM1Hz_s25_33.m4a,,,
,,,,,41244,2021-06-06_09h43.22.305,judgeSpeechMusic_20210519_logNormShiftAmp_mXs,2020.1.2,MacIntel,60,,,,,,,,,,,,,,,,,,,,,,,,,,1,5.6265,,0,1,144,294,23,1,stimuli/stim_20210519_power2amp/equal_lnn_AM1Hz_s35_31.m4a,,,
,,,,,41244,2021-06-06_09h43.22.305,judgeSpeechMusic_20210519_logNormShiftAmp_mXs,2020.1.2,MacIntel,60,,,,,,,,,,,,,,,,,,,,,,,,,,1,5.8224,,0,1,145,295,14,1,stimuli/stim_20210519_power2amp/equal_lnn_AM1Hz_s25_28.m4a,,,
,,,,,41244,2021-06-06_09h43.22.305,judgeSpeechMusic_20210519_logNormShiftAmp_mXs,2020.1.2,MacIntel,60,,,,,,,,,,,,,,,,,,,,,,,,,,2,5.611,,0,1,146,296,135,1,stimuli/stim_20210519_power2amp/equal_lnn_AM4Hz_s45_18.m4a,,,
,,,,,41244,2021-06-06_09h43.22.305,judgeSpeechMusic_20210519_logNormShiftAmp_mXs,2020.1.2,MacIntel,60,,,,,,,,,,,,,,,,,,,,,,,,,,1,5.5563,,0,1,147,297,38,1,stimuli/stim_20210519_power2amp/equal_lnn_AM1Hz_s45_10.m4a,,,
,,,,,41244,2021-06-06_09h43.22.305,judgeSpeechMusic_20210519_logNormShiftAmp_mXs,2020.1.2,MacIntel,60,,,,,,,,,,,,,,,,,,,,,,,,,,1,5.873,,0,1,148,298,41,1,stimuli/stim_20210519_power2amp/equal_lnn_AM1Hz_s55_5.m4a,,,
,,,,,41244,2021-06-06_09h43.22.305,judgeSpeechMusic_20210519_logNormShiftAmp_mXs,2020.1.2,MacIntel,60,,,,,,,,,,,,,,,,,,,,,,,,,,2,5.5885,,0,1,149,299,63,1,stimuli/stim_20210519_power2amp/equal_lnn_AM2.5Hz_s25_13.m4a,,,
,,,,,41244,2021-06-06_09h43.22.305,judgeSpeechMusic_20210519_logNormShiftAmp_mXs,2020.1.2,MacIntel,60,,,,,,,,,,,,,,,,,,,,,,,,,,,,,,,,,,,,,space,7.7884
