volAdjustRep.thisRepN,volAdjustRep.thisTrialN,volAdjustRep.thisN,volAdjustRep.thisIndex,volAdjustRep.ran,participant,date,expName,psychopyVersion,OS,frameRate,headphoneResponse.keys,headphoneResponse.corr,headphoneResponse.rt,headphoneTrial.thisRepN,headphoneTrial.thisTrialN,headphoneTrial.thisN,headphoneTrial.thisIndex,headphoneTrial.ran,headphone_sound1,headphone_sound2,headphone_sound3,corrAns,trainSlider.response,trainSlider.rt,beepTrainResponse.keys,beepTrainResponse.corr,trainingTrials.thisRepN,trainingTrials.thisTrialN,trainingTrials.thisN,trainingTrials.thisIndex,trainingTrials.ran,trainAudioFile,beepTrainResponse.rt,readyReal_resp.keys,readyReal_resp.rt,ratingSlider.response,ratingSlider.rt,beepResp.keys,beepResp.corr,expTrials.thisRepN,expTrials.thisTrialN,expTrials.thisN,expTrials.thisIndex,expTrials.ran,audioFile,beepResp.rt,end_resp.keys,end_resp.rt
0,0,0,0,1,41255,2021-05-26_15h06.24.916,judgeSpeechMusic_20210519_logNormShiftAmp_mXs,2020.1.2,MacIntel,60,,,,,,,,,,,,,,,,,,,,,,,,,,,,,,,,,,,,,,
1,0,1,0,1,41255,2021-05-26_15h06.24.916,judgeSpeechMusic_20210519_logNormShiftAmp_mXs,2020.1.2,MacIntel,60,,,,,,,,,,,,,,,,,,,,,,,,,,,,,,,,,,,,,,
2,0,2,0,1,41255,2021-05-26_15h06.24.916,judgeSpeechMusic_20210519_logNormShiftAmp_mXs,2020.1.2,MacIntel,60,,,,,,,,,,,,,,,,,,,,,,,,,,,,,,,,,,,,,,
,,,,,41255,2021-05-26_15h06.24.916,judgeSpeechMusic_20210519_logNormShiftAmp_mXs,2020.1.2,MacIntel,60,2,1,3.230665,0,0,0,1,1,stimuli/screen_antiphase.wav,stimuli/screen_quiet.wav,stimuli/screen_origin.wav,2,,,,,,,,,,,,,,,,,,,,,,,,,,
,,,,,41255,2021-05-26_15h06.24.916,judgeSpeechMusic_20210519_logNormShiftAmp_mXs,2020.1.2,MacIntel,60,1,0,3.01169,0,1,1,3,1,stimuli/screen_origin.wav,stimuli/screen_quiet.wav,stimuli/screen_antiphase.wav,2,,,,,,,,,,,,,,,,,,,,,,,,,,
,,,,,41255,2021-05-26_15h06.24.916,judgeSpeechMusic_20210519_logNormShiftAmp_mXs,2020.1.2,MacIntel,60,3,1,0.53531,0,2,2,0,1,stimuli/screen_antiphase.wav,stimuli/screen_origin.wav,stimuli/screen_quiet.wav,3,,,,,,,,,,,,,,,,,,,,,,,,,,
,,,,,41255,2021-05-26_15h06.24.916,judgeSpeechMusic_20210519_logNormShiftAmp_mXs,2020.1.2,MacIntel,60,3,1,0.76717,0,3,3,2,1,stimuli/screen_origin.wav,stimuli/screen_antiphase.wav,stimuli/screen_quiet.wav,3,,,,,,,,,,,,,,,,,,,,,,,,,,
,,,,,41255,2021-05-26_15h06.24.916,judgeSpeechMusic_20210519_logNormShiftAmp_mXs,2020.1.2,MacIntel,60,1,1,0.668,0,4,4,4,1,stimuli/screen_quiet.wav,stimuli/screen_antiphase.wav,stimuli/screen_origin.wav,1,,,,,,,,,,,,,,,,,,,,,,,,,,
,,,,,41255,2021-05-26_15h06.24.916,judgeSpeechMusic_20210519_logNormShiftAmp_mXs,2020.1.2,MacIntel,60,1,1,0.499935,0,5,5,5,1,stimuli/screen_quiet.wav,stimuli/screen_origin.wav,stimuli/screen_antiphase.wav,1,,,,,,,,,,,,,,,,,,,,,,,,,,
,,,,,41255,2021-05-26_15h06.24.916,judgeSpeechMusic_20210519_logNormShiftAmp_mXs,2020.1.2,MacIntel,60,,,,,,,,,,,,,2,13.94488,,0,0,0,0,0,1,stimuli/stim_20210519_power2amp/equal_lnn_AM_training1.5Hz_s20.m4a,,,,,,,,,,,,,,,,
,,,,,41255,2021-05-26_15h06.24.916,judgeSpeechMusic_20210519_logNormShiftAmp_mXs,2020.1.2,MacIntel,60,,,,,,,,,,,,,1,15.143465,,0,0,1,1,3,1,stimuli/stim_20210519_power2amp/equal_lnn_AM_training3.5Hz_s50.m4a,,,,,,,,,,,,,,,,
,,,,,41255,2021-05-26_15h06.24.916,judgeSpeechMusic_20210519_logNormShiftAmp_mXs,2020.1.2,MacIntel,60,,,,,,,,,,,,,2,8.27874,1,1,0,2,2,1,1,stimuli/stim_20210519_power2amp/equal_lnn_AM_training1.5Hz_s50.m4a,1.978775,,,,,,,,,,,,,,,
,,,,,41255,2021-05-26_15h06.24.916,judgeSpeechMusic_20210519_logNormShiftAmp_mXs,2020.1.2,MacIntel,60,,,,,,,,,,,,,1,7.26289,,0,0,3,3,2,1,stimuli/stim_20210519_power2amp/equal_lnn_AM_training3.5Hz_s20.m4a,,,,,,,,,,,,,,,,
,,,,,41255,2021-05-26_15h06.24.916,judgeSpeechMusic_20210519_logNormShiftAmp_mXs,2020.1.2,MacIntel,60,,,,,,,,,,,,,,,,,,,,,,,,space,4.06252,2,9.14823,,0,0,0,0,145,1,stimuli/stim_20210519_power2amp/equal_lnn_AM4Hz_s55_25.m4a,,,
,,,,,41255,2021-05-26_15h06.24.916,judgeSpeechMusic_20210519_logNormShiftAmp_mXs,2020.1.2,MacIntel,60,,,,,,,,,,,,,,,,,,,,,,,,,,1,6.259845,,0,0,1,1,106,1,stimuli/stim_20210519_power2amp/equal_lnn_AM4Hz_s15_11.m4a,,,
,,,,,41255,2021-05-26_15h06.24.916,judgeSpeechMusic_20210519_logNormShiftAmp_mXs,2020.1.2,MacIntel,60,,,,,,,,,,,,,,,,,,,,,,,,,,1,6.66191,,0,0,2,2,9,1,stimuli/stim_20210519_power2amp/equal_lnn_AM1Hz_s15_6.m4a,,,
,,,,,41255,2021-05-26_15h06.24.916,judgeSpeechMusic_20210519_logNormShiftAmp_mXs,2020.1.2,MacIntel,60,,,,,,,,,,,,,,,,,,,,,,,,,,1,5.92867,,0,0,3,3,25,1,stimuli/stim_20210519_power2amp/equal_lnn_AM1Hz_s35_35.m4a,,,
,,,,,41255,2021-05-26_15h06.24.916,judgeSpeechMusic_20210519_logNormShiftAmp_mXs,2020.1.2,MacIntel,60,,,,,,,,,,,,,,,,,,,,,,,,,,2,6.912705,,0,0,4,4,68,1,stimuli/stim_20210519_power2amp/equal_lnn_AM2.5Hz_s25_18.m4a,,,
,,,,,41255,2021-05-26_15h06.24.916,judgeSpeechMusic_20210519_logNormShiftAmp_mXs,2020.1.2,MacIntel,60,,,,,,,,,,,,,,,,,,,,,,,,,,1,6.677865,,0,0,5,5,4,1,stimuli/stim_20210519_power2amp/equal_lnn_AM1Hz_s15_15.m4a,,,
,,,,,41255,2021-05-26_15h06.24.916,judgeSpeechMusic_20210519_logNormShiftAmp_mXs,2020.1.2,MacIntel,60,,,,,,,,,,,,,,,,,,,,,,,,,,1,8.69569,,0,0,6,6,31,1,stimuli/stim_20210519_power2amp/equal_lnn_AM1Hz_s45_47.m4a,,,
,,,,,41255,2021-05-26_15h06.24.916,judgeSpeechMusic_20210519_logNormShiftAmp_mXs,2020.1.2,MacIntel,60,,,,,,,,,,,,,,,,,,,,,,,,,,2,6.561255,,0,0,7,7,92,1,stimuli/stim_20210519_power2amp/equal_lnn_AM2.5Hz_s55_29.m4a,,,
,,,,,41255,2021-05-26_15h06.24.916,judgeSpeechMusic_20210519_logNormShiftAmp_mXs,2020.1.2,MacIntel,60,,,,,,,,,,,,,,,,,,,,,,,,,,2,6.678095,,0,0,8,8,65,1,stimuli/stim_20210519_power2amp/equal_lnn_AM2.5Hz_s25_19.m4a,,,
,,,,,41255,2021-05-26_15h06.24.916,judgeSpeechMusic_20210519_logNormShiftAmp_mXs,2020.1.2,MacIntel,60,,,,,,,,,,,,,,,,,,,,,,,,,,2,7.162255,,0,0,9,9,34,1,stimuli/stim_20210519_power2amp/equal_lnn_AM1Hz_s45_26.m4a,,,
,,,,,41255,2021-05-26_15h06.24.916,judgeSpeechMusic_20210519_logNormShiftAmp_mXs,2020.1.2,MacIntel,60,,,,,,,,,,,,,,,,,,,,,,,,,,2,6.49454,,0,0,10,10,108,1,stimuli/stim_20210519_power2amp/equal_lnn_AM4Hz_s15_43.m4a,,,
,,,,,41255,2021-05-26_15h06.24.916,judgeSpeechMusic_20210519_logNormShiftAmp_mXs,2020.1.2,MacIntel,60,,,,,,,,,,,,,,,,,,,,,,,,,,1,6.17976,,0,0,11,11,74,1,stimuli/stim_20210519_power2amp/equal_lnn_AM2.5Hz_s35_48.m4a,,,
,,,,,41255,2021-05-26_15h06.24.916,judgeSpeechMusic_20210519_logNormShiftAmp_mXs,2020.1.2,MacIntel,60,,,,,,,,,,,,,,,,,,,,,,,,,,1,6.113375,,0,0,12,12,86,1,stimuli/stim_20210519_power2amp/equal_lnn_AM2.5Hz_s45_26.m4a,,,
,,,,,41255,2021-05-26_15h06.24.916,judgeSpeechMusic_20210519_logNormShiftAmp_mXs,2020.1.2,MacIntel,60,,,,,,,,,,,,,,,,,,,,,,,,,,2,8.545905,,0,0,13,13,133,1,stimuli/stim_20210519_power2amp/equal_lnn_AM4Hz_s45_33.m4a,,,
,,,,,41255,2021-05-26_15h06.24.916,judgeSpeechMusic_20210519_logNormShiftAmp_mXs,2020.1.2,MacIntel,60,,,,,,,,,,,,,,,,,,,,,,,,,,2,7.495905,,0,0,14,14,121,1,stimuli/stim_20210519_power2amp/equal_lnn_AM4Hz_s35_36.m4a,,,
,,,,,41255,2021-05-26_15h06.24.916,judgeSpeechMusic_20210519_logNormShiftAmp_mXs,2020.1.2,MacIntel,60,,,,,,,,,,,,,,,,,,,,,,,,,,2,7.878805,,0,0,15,15,130,1,stimuli/stim_20210519_power2amp/equal_lnn_AM4Hz_s45_37.m4a,,,
,,,,,41255,2021-05-26_15h06.24.916,judgeSpeechMusic_20210519_logNormShiftAmp_mXs,2020.1.2,MacIntel,60,,,,,,,,,,,,,,,,,,,,,,,,,,1,7.396285,,0,0,16,16,42,1,stimuli/stim_20210519_power2amp/equal_lnn_AM1Hz_s55_15.m4a,,,
,,,,,41255,2021-05-26_15h06.24.916,judgeSpeechMusic_20210519_logNormShiftAmp_mXs,2020.1.2,MacIntel,60,,,,,,,,,,,,,,,,,,,,,,,,,,2,9.664985,,0,0,17,17,43,1,stimuli/stim_20210519_power2amp/equal_lnn_AM1Hz_s55_19.m4a,,,
,,,,,41255,2021-05-26_15h06.24.916,judgeSpeechMusic_20210519_logNormShiftAmp_mXs,2020.1.2,MacIntel,60,,,,,,,,,,,,,,,,,,,,,,,,,,2,12.426605,,0,0,18,18,23,1,stimuli/stim_20210519_power2amp/equal_lnn_AM1Hz_s35_8.m4a,,,
,,,,,41255,2021-05-26_15h06.24.916,judgeSpeechMusic_20210519_logNormShiftAmp_mXs,2020.1.2,MacIntel,60,,,,,,,,,,,,,,,,,,,,,,,,,,1,10.37818,,0,0,19,19,26,1,stimuli/stim_20210519_power2amp/equal_lnn_AM1Hz_s35_11.m4a,,,
,,,,,41255,2021-05-26_15h06.24.916,judgeSpeechMusic_20210519_logNormShiftAmp_mXs,2020.1.2,MacIntel,60,,,,,,,,,,,,,,,,,,,,,,,,,,1,5.962235,,0,0,20,20,112,1,stimuli/stim_20210519_power2amp/equal_lnn_AM4Hz_s25_13.m4a,,,
,,,,,41255,2021-05-26_15h06.24.916,judgeSpeechMusic_20210519_logNormShiftAmp_mXs,2020.1.2,MacIntel,60,,,,,,,,,,,,,,,,,,,,,,,,,,1,5.77851,,0,0,21,21,59,1,stimuli/stim_20210519_power2amp/equal_lnn_AM2.5Hz_s15_21.m4a,,,
,,,,,41255,2021-05-26_15h06.24.916,judgeSpeechMusic_20210519_logNormShiftAmp_mXs,2020.1.2,MacIntel,60,,,,,,,,,,,,,,,,,,,,,,,,,,2,6.67867,,0,0,22,22,96,1,stimuli/stim_20210519_power2amp/equal_lnn_AM2.5Hz_s55_21.m4a,,,
,,,,,41255,2021-05-26_15h06.24.916,judgeSpeechMusic_20210519_logNormShiftAmp_mXs,2020.1.2,MacIntel,60,,,,,,,,,,,,,,,,,,,,,,,,,,1,6.230565,,0,0,23,23,66,1,stimuli/stim_20210519_power2amp/equal_lnn_AM2.5Hz_s25_5.m4a,,,
,,,,,41255,2021-05-26_15h06.24.916,judgeSpeechMusic_20210519_logNormShiftAmp_mXs,2020.1.2,MacIntel,60,,,,,,,,,,,,,,,,,,,,,,,,,,1,5.814475,,0,0,24,24,8,1,stimuli/stim_20210519_power2amp/equal_lnn_AM1Hz_s15_31.m4a,,,
,,,,,41255,2021-05-26_15h06.24.916,judgeSpeechMusic_20210519_logNormShiftAmp_mXs,2020.1.2,MacIntel,60,,,,,,,,,,,,,,,,,,,,,,,,,,1,6.912055,,0,0,25,25,28,1,stimuli/stim_20210519_power2amp/equal_lnn_AM1Hz_s35_45.m4a,,,
,,,,,41255,2021-05-26_15h06.24.916,judgeSpeechMusic_20210519_logNormShiftAmp_mXs,2020.1.2,MacIntel,60,,,,,,,,,,,,,,,,,,,,,,,,,,1,6.01186,,0,0,26,26,71,1,stimuli/stim_20210519_power2amp/equal_lnn_AM2.5Hz_s35_37.m4a,,,
,,,,,41255,2021-05-26_15h06.24.916,judgeSpeechMusic_20210519_logNormShiftAmp_mXs,2020.1.2,MacIntel,60,,,,,,,,,,,,,,,,,,,,,,,,,,2,6.87957,,0,0,27,27,138,1,stimuli/stim_20210519_power2amp/equal_lnn_AM4Hz_s45_5.m4a,,,
,,,,,41255,2021-05-26_15h06.24.916,judgeSpeechMusic_20210519_logNormShiftAmp_mXs,2020.1.2,MacIntel,60,,,,,,,,,,,,,,,,,,,,,,,,,,2,6.39483,,0,0,28,28,88,1,stimuli/stim_20210519_power2amp/equal_lnn_AM2.5Hz_s45_1.m4a,,,
,,,,,41255,2021-05-26_15h06.24.916,judgeSpeechMusic_20210519_logNormShiftAmp_mXs,2020.1.2,MacIntel,60,,,,,,,,,,,,,,,,,,,,,,,,,,2,5.94449,,0,0,29,29,45,1,stimuli/stim_20210519_power2amp/equal_lnn_AM1Hz_s55_33.m4a,,,
,,,,,41255,2021-05-26_15h06.24.916,judgeSpeechMusic_20210519_logNormShiftAmp_mXs,2020.1.2,MacIntel,60,,,,,,,,,,,,,,,,,,,,,,,,,,2,5.81083,,0,0,30,30,118,1,stimuli/stim_20210519_power2amp/equal_lnn_AM4Hz_s25_6.m4a,,,
,,,,,41255,2021-05-26_15h06.24.916,judgeSpeechMusic_20210519_logNormShiftAmp_mXs,2020.1.2,MacIntel,60,,,,,,,,,,,,,,,,,,,,,,,,,,1,5.77795,,0,0,31,31,12,1,stimuli/stim_20210519_power2amp/equal_lnn_AM1Hz_s25_18.m4a,,,
,,,,,41255,2021-05-26_15h06.24.916,judgeSpeechMusic_20210519_logNormShiftAmp_mXs,2020.1.2,MacIntel,60,,,,,,,,,,,,,,,,,,,,,,,,,,2,6.463505,1,1,0,32,32,115,1,stimuli/stim_20210519_power2amp/equal_lnn_AM4Hz_s25_45.m4a,1.646625,,
,,,,,41255,2021-05-26_15h06.24.916,judgeSpeechMusic_20210519_logNormShiftAmp_mXs,2020.1.2,MacIntel,60,,,,,,,,,,,,,,,,,,,,,,,,,,1,7.444155,,0,0,33,33,11,1,stimuli/stim_20210519_power2amp/equal_lnn_AM1Hz_s25_2.m4a,,,
,,,,,41255,2021-05-26_15h06.24.916,judgeSpeechMusic_20210519_logNormShiftAmp_mXs,2020.1.2,MacIntel,60,,,,,,,,,,,,,,,,,,,,,,,,,,1,6.181365,,0,0,34,34,41,1,stimuli/stim_20210519_power2amp/equal_lnn_AM1Hz_s55_39.m4a,,,
,,,,,41255,2021-05-26_15h06.24.916,judgeSpeechMusic_20210519_logNormShiftAmp_mXs,2020.1.2,MacIntel,60,,,,,,,,,,,,,,,,,,,,,,,,,,2,6.99481,,0,0,35,35,35,1,stimuli/stim_20210519_power2amp/equal_lnn_AM1Hz_s45_14.m4a,,,
,,,,,41255,2021-05-26_15h06.24.916,judgeSpeechMusic_20210519_logNormShiftAmp_mXs,2020.1.2,MacIntel,60,,,,,,,,,,,,,,,,,,,,,,,,,,1,7.14394,,0,0,36,36,144,1,stimuli/stim_20210519_power2amp/equal_lnn_AM4Hz_s55_22.m4a,,,
,,,,,41255,2021-05-26_15h06.24.916,judgeSpeechMusic_20210519_logNormShiftAmp_mXs,2020.1.2,MacIntel,60,,,,,,,,,,,,,,,,,,,,,,,,,,1,6.029685,,0,0,37,37,78,1,stimuli/stim_20210519_power2amp/equal_lnn_AM2.5Hz_s35_19.m4a,,,
,,,,,41255,2021-05-26_15h06.24.916,judgeSpeechMusic_20210519_logNormShiftAmp_mXs,2020.1.2,MacIntel,60,,,,,,,,,,,,,,,,,,,,,,,,,,2,6.17828,,0,0,38,38,114,1,stimuli/stim_20210519_power2amp/equal_lnn_AM4Hz_s25_50.m4a,,,
,,,,,41255,2021-05-26_15h06.24.916,judgeSpeechMusic_20210519_logNormShiftAmp_mXs,2020.1.2,MacIntel,60,,,,,,,,,,,,,,,,,,,,,,,,,,1,6.02848,,0,0,39,39,125,1,stimuli/stim_20210519_power2amp/equal_lnn_AM4Hz_s35_25.m4a,,,
,,,,,41255,2021-05-26_15h06.24.916,judgeSpeechMusic_20210519_logNormShiftAmp_mXs,2020.1.2,MacIntel,60,,,,,,,,,,,,,,,,,,,,,,,,,,1,5.97745,,0,0,40,40,131,1,stimuli/stim_20210519_power2amp/equal_lnn_AM4Hz_s45_17.m4a,,,
,,,,,41255,2021-05-26_15h06.24.916,judgeSpeechMusic_20210519_logNormShiftAmp_mXs,2020.1.2,MacIntel,60,,,,,,,,,,,,,,,,,,,,,,,,,,2,6.180555,,0,0,41,41,90,1,stimuli/stim_20210519_power2amp/equal_lnn_AM2.5Hz_s55_3.m4a,,,
,,,,,41255,2021-05-26_15h06.24.916,judgeSpeechMusic_20210519_logNormShiftAmp_mXs,2020.1.2,MacIntel,60,,,,,,,,,,,,,,,,,,,,,,,,,,1,6.09485,,0,0,42,42,20,1,stimuli/stim_20210519_power2amp/equal_lnn_AM1Hz_s35_21.m4a,,,
,,,,,41255,2021-05-26_15h06.24.916,judgeSpeechMusic_20210519_logNormShiftAmp_mXs,2020.1.2,MacIntel,60,,,,,,,,,,,,,,,,,,,,,,,,,,2,6.47817,,0,0,43,43,116,1,stimuli/stim_20210519_power2amp/equal_lnn_AM4Hz_s25_16.m4a,,,
,,,,,41255,2021-05-26_15h06.24.916,judgeSpeechMusic_20210519_logNormShiftAmp_mXs,2020.1.2,MacIntel,60,,,,,,,,,,,,,,,,,,,,,,,,,,2,6.762295,,0,0,44,44,122,1,stimuli/stim_20210519_power2amp/equal_lnn_AM4Hz_s35_6.m4a,,,
,,,,,41255,2021-05-26_15h06.24.916,judgeSpeechMusic_20210519_logNormShiftAmp_mXs,2020.1.2,MacIntel,60,,,,,,,,,,,,,,,,,,,,,,,,,,2,6.312045,,0,0,45,45,87,1,stimuli/stim_20210519_power2amp/equal_lnn_AM2.5Hz_s45_50.m4a,,,
,,,,,41255,2021-05-26_15h06.24.916,judgeSpeechMusic_20210519_logNormShiftAmp_mXs,2020.1.2,MacIntel,60,,,,,,,,,,,,,,,,,,,,,,,,,,1,5.69592,,0,0,46,46,39,1,stimuli/stim_20210519_power2amp/equal_lnn_AM1Hz_s45_28.m4a,,,
,,,,,41255,2021-05-26_15h06.24.916,judgeSpeechMusic_20210519_logNormShiftAmp_mXs,2020.1.2,MacIntel,60,,,,,,,,,,,,,,,,,,,,,,,,,,1,9.512485,,0,0,47,47,22,1,stimuli/stim_20210519_power2amp/equal_lnn_AM1Hz_s35_30.m4a,,,
,,,,,41255,2021-05-26_15h06.24.916,judgeSpeechMusic_20210519_logNormShiftAmp_mXs,2020.1.2,MacIntel,60,,,,,,,,,,,,,,,,,,,,,,,,,,1,5.812045,,0,0,48,48,123,1,stimuli/stim_20210519_power2amp/equal_lnn_AM4Hz_s35_50.m4a,,,
,,,,,41255,2021-05-26_15h06.24.916,judgeSpeechMusic_20210519_logNormShiftAmp_mXs,2020.1.2,MacIntel,60,,,,,,,,,,,,,,,,,,,,,,,,,,2,7.96178,,0,0,49,49,21,1,stimuli/stim_20210519_power2amp/equal_lnn_AM1Hz_s35_14.m4a,,,
,,,,,41255,2021-05-26_15h06.24.916,judgeSpeechMusic_20210519_logNormShiftAmp_mXs,2020.1.2,MacIntel,60,,,,,,,,,,,,,,,,,,,,,,,,,,1,6.511935,,0,0,50,50,53,1,stimuli/stim_20210519_power2amp/equal_lnn_AM2.5Hz_s15_15.m4a,,,
,,,,,41255,2021-05-26_15h06.24.916,judgeSpeechMusic_20210519_logNormShiftAmp_mXs,2020.1.2,MacIntel,60,,,,,,,,,,,,,,,,,,,,,,,,,,2,7.277755,,0,0,51,51,30,1,stimuli/stim_20210519_power2amp/equal_lnn_AM1Hz_s45_17.m4a,,,
,,,,,41255,2021-05-26_15h06.24.916,judgeSpeechMusic_20210519_logNormShiftAmp_mXs,2020.1.2,MacIntel,60,,,,,,,,,,,,,,,,,,,,,,,,,,1,6.37937,,0,0,52,52,52,1,stimuli/stim_20210519_power2amp/equal_lnn_AM2.5Hz_s15_9.m4a,,,
,,,,,41255,2021-05-26_15h06.24.916,judgeSpeechMusic_20210519_logNormShiftAmp_mXs,2020.1.2,MacIntel,60,,,,,,,,,,,,,,,,,,,,,,,,,,2,6.14715,,0,0,53,53,103,1,stimuli/stim_20210519_power2amp/equal_lnn_AM4Hz_s15_38.m4a,,,
,,,,,41255,2021-05-26_15h06.24.916,judgeSpeechMusic_20210519_logNormShiftAmp_mXs,2020.1.2,MacIntel,60,,,,,,,,,,,,,,,,,,,,,,,,,,2,6.831215,,0,0,54,54,120,1,stimuli/stim_20210519_power2amp/equal_lnn_AM4Hz_s35_7.m4a,,,
,,,,,41255,2021-05-26_15h06.24.916,judgeSpeechMusic_20210519_logNormShiftAmp_mXs,2020.1.2,MacIntel,60,,,,,,,,,,,,,,,,,,,,,,,,,,2,7.493865,3,1,0,55,55,55,1,stimuli/stim_20210519_power2amp/equal_lnn_AM2.5Hz_s15_17.m4a,3.513435,,
,,,,,41255,2021-05-26_15h06.24.916,judgeSpeechMusic_20210519_logNormShiftAmp_mXs,2020.1.2,MacIntel,60,,,,,,,,,,,,,,,,,,,,,,,,,,1,11.24487,,0,0,56,56,143,1,stimuli/stim_20210519_power2amp/equal_lnn_AM4Hz_s55_14.m4a,,,
,,,,,41255,2021-05-26_15h06.24.916,judgeSpeechMusic_20210519_logNormShiftAmp_mXs,2020.1.2,MacIntel,60,,,,,,,,,,,,,,,,,,,,,,,,,,1,6.07935,,0,0,57,57,109,1,stimuli/stim_20210519_power2amp/equal_lnn_AM4Hz_s15_37.m4a,,,
,,,,,41255,2021-05-26_15h06.24.916,judgeSpeechMusic_20210519_logNormShiftAmp_mXs,2020.1.2,MacIntel,60,,,,,,,,,,,,,,,,,,,,,,,,,,1,5.694655,,0,0,58,58,85,1,stimuli/stim_20210519_power2amp/equal_lnn_AM2.5Hz_s45_15.m4a,,,
,,,,,41255,2021-05-26_15h06.24.916,judgeSpeechMusic_20210519_logNormShiftAmp_mXs,2020.1.2,MacIntel,60,,,,,,,,,,,,,,,,,,,,,,,,,,1,7.179095,,0,0,59,59,51,1,stimuli/stim_20210519_power2amp/equal_lnn_AM2.5Hz_s15_24.m4a,,,
,,,,,41255,2021-05-26_15h06.24.916,judgeSpeechMusic_20210519_logNormShiftAmp_mXs,2020.1.2,MacIntel,60,,,,,,,,,,,,,,,,,,,,,,,,,,2,7.37831,,0,0,60,60,110,1,stimuli/stim_20210519_power2amp/equal_lnn_AM4Hz_s25_28.m4a,,,
,,,,,41255,2021-05-26_15h06.24.916,judgeSpeechMusic_20210519_logNormShiftAmp_mXs,2020.1.2,MacIntel,60,,,,,,,,,,,,,,,,,,,,,,,,,,1,6.12978,,0,0,61,61,82,1,stimuli/stim_20210519_power2amp/equal_lnn_AM2.5Hz_s45_46.m4a,,,
,,,,,41255,2021-05-26_15h06.24.916,judgeSpeechMusic_20210519_logNormShiftAmp_mXs,2020.1.2,MacIntel,60,,,,,,,,,,,,,,,,,,,,,,,,,,1,5.72889,,0,0,62,62,104,1,stimuli/stim_20210519_power2amp/equal_lnn_AM4Hz_s15_50.m4a,,,
,,,,,41255,2021-05-26_15h06.24.916,judgeSpeechMusic_20210519_logNormShiftAmp_mXs,2020.1.2,MacIntel,60,,,,,,,,,,,,,,,,,,,,,,,,,,2,8.296305,,0,0,63,63,50,1,stimuli/stim_20210519_power2amp/equal_lnn_AM2.5Hz_s15_35.m4a,,,
,,,,,41255,2021-05-26_15h06.24.916,judgeSpeechMusic_20210519_logNormShiftAmp_mXs,2020.1.2,MacIntel,60,,,,,,,,,,,,,,,,,,,,,,,,,,2,6.59672,,0,0,64,64,54,1,stimuli/stim_20210519_power2amp/equal_lnn_AM2.5Hz_s15_47.m4a,,,
,,,,,41255,2021-05-26_15h06.24.916,judgeSpeechMusic_20210519_logNormShiftAmp_mXs,2020.1.2,MacIntel,60,,,,,,,,,,,,,,,,,,,,,,,,,,1,5.69549,,0,0,65,65,105,1,stimuli/stim_20210519_power2amp/equal_lnn_AM4Hz_s15_8.m4a,,,
,,,,,41255,2021-05-26_15h06.24.916,judgeSpeechMusic_20210519_logNormShiftAmp_mXs,2020.1.2,MacIntel,60,,,,,,,,,,,,,,,,,,,,,,,,,,2,6.81249,,0,0,66,66,97,1,stimuli/stim_20210519_power2amp/equal_lnn_AM2.5Hz_s55_40.m4a,,,
,,,,,41255,2021-05-26_15h06.24.916,judgeSpeechMusic_20210519_logNormShiftAmp_mXs,2020.1.2,MacIntel,60,,,,,,,,,,,,,,,,,,,,,,,,,,2,7.978895,,0,0,67,67,72,1,stimuli/stim_20210519_power2amp/equal_lnn_AM2.5Hz_s35_24.m4a,,,
,,,,,41255,2021-05-26_15h06.24.916,judgeSpeechMusic_20210519_logNormShiftAmp_mXs,2020.1.2,MacIntel,60,,,,,,,,,,,,,,,,,,,,,,,,,,1,6.661905,,0,0,68,68,13,1,stimuli/stim_20210519_power2amp/equal_lnn_AM1Hz_s25_11.m4a,,,
,,,,,41255,2021-05-26_15h06.24.916,judgeSpeechMusic_20210519_logNormShiftAmp_mXs,2020.1.2,MacIntel,60,,,,,,,,,,,,,,,,,,,,,,,,,,2,8.611475,,0,0,69,69,142,1,stimuli/stim_20210519_power2amp/equal_lnn_AM4Hz_s55_16.m4a,,,
,,,,,41255,2021-05-26_15h06.24.916,judgeSpeechMusic_20210519_logNormShiftAmp_mXs,2020.1.2,MacIntel,60,,,,,,,,,,,,,,,,,,,,,,,,,,1,6.41147,,0,0,70,70,38,1,stimuli/stim_20210519_power2amp/equal_lnn_AM1Hz_s45_12.m4a,,,
,,,,,41255,2021-05-26_15h06.24.916,judgeSpeechMusic_20210519_logNormShiftAmp_mXs,2020.1.2,MacIntel,60,,,,,,,,,,,,,,,,,,,,,,,,,,1,5.631085,,0,0,71,71,69,1,stimuli/stim_20210519_power2amp/equal_lnn_AM2.5Hz_s25_38.m4a,,,
,,,,,41255,2021-05-26_15h06.24.916,judgeSpeechMusic_20210519_logNormShiftAmp_mXs,2020.1.2,MacIntel,60,,,,,,,,,,,,,,,,,,,,,,,,,,2,5.945715,,0,0,72,72,99,1,stimuli/stim_20210519_power2amp/equal_lnn_AM2.5Hz_s55_2.m4a,,,
,,,,,41255,2021-05-26_15h06.24.916,judgeSpeechMusic_20210519_logNormShiftAmp_mXs,2020.1.2,MacIntel,60,,,,,,,,,,,,,,,,,,,,,,,,,,1,5.85821,,0,0,73,73,73,1,stimuli/stim_20210519_power2amp/equal_lnn_AM2.5Hz_s35_14.m4a,,,
,,,,,41255,2021-05-26_15h06.24.916,judgeSpeechMusic_20210519_logNormShiftAmp_mXs,2020.1.2,MacIntel,60,,,,,,,,,,,,,,,,,,,,,,,,,,2,6.711795,,0,0,74,74,93,1,stimuli/stim_20210519_power2amp/equal_lnn_AM2.5Hz_s55_37.m4a,,,
,,,,,41255,2021-05-26_15h06.24.916,judgeSpeechMusic_20210519_logNormShiftAmp_mXs,2020.1.2,MacIntel,60,,,,,,,,,,,,,,,,,,,,,,,,,,1,5.84733,,0,0,75,75,147,1,stimuli/stim_20210519_power2amp/equal_lnn_AM4Hz_s55_33.m4a,,,
,,,,,41255,2021-05-26_15h06.24.916,judgeSpeechMusic_20210519_logNormShiftAmp_mXs,2020.1.2,MacIntel,60,,,,,,,,,,,,,,,,,,,,,,,,,,1,6.11189,1,1,0,76,76,18,1,stimuli/stim_20210519_power2amp/equal_lnn_AM1Hz_s25_24.m4a,1.563195,,
,,,,,41255,2021-05-26_15h06.24.916,judgeSpeechMusic_20210519_logNormShiftAmp_mXs,2020.1.2,MacIntel,60,,,,,,,,,,,,,,,,,,,,,,,,,,2,7.19544,,0,0,77,77,84,1,stimuli/stim_20210519_power2amp/equal_lnn_AM2.5Hz_s45_16.m4a,,,
,,,,,41255,2021-05-26_15h06.24.916,judgeSpeechMusic_20210519_logNormShiftAmp_mXs,2020.1.2,MacIntel,60,,,,,,,,,,,,,,,,,,,,,,,,,,1,7.44566,,0,0,78,78,149,1,stimuli/stim_20210519_power2amp/equal_lnn_AM4Hz_s55_24.m4a,,,
,,,,,41255,2021-05-26_15h06.24.916,judgeSpeechMusic_20210519_logNormShiftAmp_mXs,2020.1.2,MacIntel,60,,,,,,,,,,,,,,,,,,,,,,,,,,2,6.12746,,0,0,79,79,89,1,stimuli/stim_20210519_power2amp/equal_lnn_AM2.5Hz_s45_36.m4a,,,
,,,,,41255,2021-05-26_15h06.24.916,judgeSpeechMusic_20210519_logNormShiftAmp_mXs,2020.1.2,MacIntel,60,,,,,,,,,,,,,,,,,,,,,,,,,,2,6.52932,,0,0,80,80,77,1,stimuli/stim_20210519_power2amp/equal_lnn_AM2.5Hz_s35_6.m4a,,,
,,,,,41255,2021-05-26_15h06.24.916,judgeSpeechMusic_20210519_logNormShiftAmp_mXs,2020.1.2,MacIntel,60,,,,,,,,,,,,,,,,,,,,,,,,,,2,6.012965,,0,0,81,81,95,1,stimuli/stim_20210519_power2amp/equal_lnn_AM2.5Hz_s55_36.m4a,,,
,,,,,41255,2021-05-26_15h06.24.916,judgeSpeechMusic_20210519_logNormShiftAmp_mXs,2020.1.2,MacIntel,60,,,,,,,,,,,,,,,,,,,,,,,,,,1,5.84576,,0,0,82,82,19,1,stimuli/stim_20210519_power2amp/equal_lnn_AM1Hz_s25_41.m4a,,,
,,,,,41255,2021-05-26_15h06.24.916,judgeSpeechMusic_20210519_logNormShiftAmp_mXs,2020.1.2,MacIntel,60,,,,,,,,,,,,,,,,,,,,,,,,,,2,7.044965,,0,0,83,83,32,1,stimuli/stim_20210519_power2amp/equal_lnn_AM1Hz_s45_39.m4a,,,
,,,,,41255,2021-05-26_15h06.24.916,judgeSpeechMusic_20210519_logNormShiftAmp_mXs,2020.1.2,MacIntel,60,,,,,,,,,,,,,,,,,,,,,,,,,,1,7.995485,,0,0,84,84,47,1,stimuli/stim_20210519_power2amp/equal_lnn_AM1Hz_s55_31.m4a,,,
,,,,,41255,2021-05-26_15h06.24.916,judgeSpeechMusic_20210519_logNormShiftAmp_mXs,2020.1.2,MacIntel,60,,,,,,,,,,,,,,,,,,,,,,,,,,1,5.846385,,0,0,85,85,80,1,stimuli/stim_20210519_power2amp/equal_lnn_AM2.5Hz_s45_14.m4a,,,
,,,,,41255,2021-05-26_15h06.24.916,judgeSpeechMusic_20210519_logNormShiftAmp_mXs,2020.1.2,MacIntel,60,,,,,,,,,,,,,,,,,,,,,,,,,,2,6.763425,,0,0,86,86,46,1,stimuli/stim_20210519_power2amp/equal_lnn_AM1Hz_s55_42.m4a,,,
,,,,,41255,2021-05-26_15h06.24.916,judgeSpeechMusic_20210519_logNormShiftAmp_mXs,2020.1.2,MacIntel,60,,,,,,,,,,,,,,,,,,,,,,,,,,1,6.912135,,0,0,87,87,111,1,stimuli/stim_20210519_power2amp/equal_lnn_AM4Hz_s25_32.m4a,,,
,,,,,41255,2021-05-26_15h06.24.916,judgeSpeechMusic_20210519_logNormShiftAmp_mXs,2020.1.2,MacIntel,60,,,,,,,,,,,,,,,,,,,,,,,,,,2,6.361895,,0,0,88,88,48,1,stimuli/stim_20210519_power2amp/equal_lnn_AM1Hz_s55_7.m4a,,,
,,,,,41255,2021-05-26_15h06.24.916,judgeSpeechMusic_20210519_logNormShiftAmp_mXs,2020.1.2,MacIntel,60,,,,,,,,,,,,,,,,,,,,,,,,,,1,6.97782,,0,0,89,89,7,1,stimuli/stim_20210519_power2amp/equal_lnn_AM1Hz_s15_42.m4a,,,
,,,,,41255,2021-05-26_15h06.24.916,judgeSpeechMusic_20210519_logNormShiftAmp_mXs,2020.1.2,MacIntel,60,,,,,,,,,,,,,,,,,,,,,,,,,,2,8.1766,,0,0,90,90,62,1,stimuli/stim_20210519_power2amp/equal_lnn_AM2.5Hz_s25_4.m4a,,,
,,,,,41255,2021-05-26_15h06.24.916,judgeSpeechMusic_20210519_logNormShiftAmp_mXs,2020.1.2,MacIntel,60,,,,,,,,,,,,,,,,,,,,,,,,,,2,7.12703,,0,0,91,91,119,1,stimuli/stim_20210519_power2amp/equal_lnn_AM4Hz_s25_22.m4a,,,
,,,,,41255,2021-05-26_15h06.24.916,judgeSpeechMusic_20210519_logNormShiftAmp_mXs,2020.1.2,MacIntel,60,,,,,,,,,,,,,,,,,,,,,,,,,,2,7.896875,,0,0,92,92,117,1,stimuli/stim_20210519_power2amp/equal_lnn_AM4Hz_s25_12.m4a,,,
,,,,,41255,2021-05-26_15h06.24.916,judgeSpeechMusic_20210519_logNormShiftAmp_mXs,2020.1.2,MacIntel,60,,,,,,,,,,,,,,,,,,,,,,,,,,2,8.21135,,0,0,93,93,75,1,stimuli/stim_20210519_power2amp/equal_lnn_AM2.5Hz_s35_22.m4a,,,
,,,,,41255,2021-05-26_15h06.24.916,judgeSpeechMusic_20210519_logNormShiftAmp_mXs,2020.1.2,MacIntel,60,,,,,,,,,,,,,,,,,,,,,,,,,,2,7.961365,,0,0,94,94,67,1,stimuli/stim_20210519_power2amp/equal_lnn_AM2.5Hz_s25_35.m4a,,,
,,,,,41255,2021-05-26_15h06.24.916,judgeSpeechMusic_20210519_logNormShiftAmp_mXs,2020.1.2,MacIntel,60,,,,,,,,,,,,,,,,,,,,,,,,,,1,5.912025,,0,0,95,95,36,1,stimuli/stim_20210519_power2amp/equal_lnn_AM1Hz_s45_48.m4a,,,
,,,,,41255,2021-05-26_15h06.24.916,judgeSpeechMusic_20210519_logNormShiftAmp_mXs,2020.1.2,MacIntel,60,,,,,,,,,,,,,,,,,,,,,,,,,,1,5.82771,,0,0,96,96,33,1,stimuli/stim_20210519_power2amp/equal_lnn_AM1Hz_s45_36.m4a,,,
,,,,,41255,2021-05-26_15h06.24.916,judgeSpeechMusic_20210519_logNormShiftAmp_mXs,2020.1.2,MacIntel,60,,,,,,,,,,,,,,,,,,,,,,,,,,1,5.7951,,0,0,97,97,132,1,stimuli/stim_20210519_power2amp/equal_lnn_AM4Hz_s45_30.m4a,,,
,,,,,41255,2021-05-26_15h06.24.916,judgeSpeechMusic_20210519_logNormShiftAmp_mXs,2020.1.2,MacIntel,60,,,,,,,,,,,,,,,,,,,,,,,,,,1,5.89713,,0,0,98,98,107,1,stimuli/stim_20210519_power2amp/equal_lnn_AM4Hz_s15_44.m4a,,,
,,,,,41255,2021-05-26_15h06.24.916,judgeSpeechMusic_20210519_logNormShiftAmp_mXs,2020.1.2,MacIntel,60,,,,,,,,,,,,,,,,,,,,,,,,,,2,5.99533,4,0,0,99,99,94,1,stimuli/stim_20210519_power2amp/equal_lnn_AM2.5Hz_s55_33.m4a,3.263455,,
,,,,,41255,2021-05-26_15h06.24.916,judgeSpeechMusic_20210519_logNormShiftAmp_mXs,2020.1.2,MacIntel,60,,,,,,,,,,,,,,,,,,,,,,,,,,1,6.47768,,0,0,100,100,102,1,stimuli/stim_20210519_power2amp/equal_lnn_AM4Hz_s15_16.m4a,,,
,,,,,41255,2021-05-26_15h06.24.916,judgeSpeechMusic_20210519_logNormShiftAmp_mXs,2020.1.2,MacIntel,60,,,,,,,,,,,,,,,,,,,,,,,,,,2,8.730135,,0,0,101,101,128,1,stimuli/stim_20210519_power2amp/equal_lnn_AM4Hz_s35_22.m4a,,,
,,,,,41255,2021-05-26_15h06.24.916,judgeSpeechMusic_20210519_logNormShiftAmp_mXs,2020.1.2,MacIntel,60,,,,,,,,,,,,,,,,,,,,,,,,,,2,8.711555,,0,0,102,102,10,1,stimuli/stim_20210519_power2amp/equal_lnn_AM1Hz_s25_15.m4a,,,
,,,,,41255,2021-05-26_15h06.24.916,judgeSpeechMusic_20210519_logNormShiftAmp_mXs,2020.1.2,MacIntel,60,,,,,,,,,,,,,,,,,,,,,,,,,,1,5.828605,,0,0,103,103,24,1,stimuli/stim_20210519_power2amp/equal_lnn_AM1Hz_s35_32.m4a,,,
,,,,,41255,2021-05-26_15h06.24.916,judgeSpeechMusic_20210519_logNormShiftAmp_mXs,2020.1.2,MacIntel,60,,,,,,,,,,,,,,,,,,,,,,,,,,1,5.863295,,0,0,104,104,64,1,stimuli/stim_20210519_power2amp/equal_lnn_AM2.5Hz_s25_29.m4a,,,
,,,,,41255,2021-05-26_15h06.24.916,judgeSpeechMusic_20210519_logNormShiftAmp_mXs,2020.1.2,MacIntel,60,,,,,,,,,,,,,,,,,,,,,,,,,,1,5.894455,,0,0,105,105,17,1,stimuli/stim_20210519_power2amp/equal_lnn_AM1Hz_s25_33.m4a,,,
,,,,,41255,2021-05-26_15h06.24.916,judgeSpeechMusic_20210519_logNormShiftAmp_mXs,2020.1.2,MacIntel,60,,,,,,,,,,,,,,,,,,,,,,,,,,2,6.161935,,0,0,106,106,49,1,stimuli/stim_20210519_power2amp/equal_lnn_AM1Hz_s55_28.m4a,,,
,,,,,41255,2021-05-26_15h06.24.916,judgeSpeechMusic_20210519_logNormShiftAmp_mXs,2020.1.2,MacIntel,60,,,,,,,,,,,,,,,,,,,,,,,,,,1,5.794095,,0,0,107,107,27,1,stimuli/stim_20210519_power2amp/equal_lnn_AM1Hz_s35_20.m4a,,,
,,,,,41255,2021-05-26_15h06.24.916,judgeSpeechMusic_20210519_logNormShiftAmp_mXs,2020.1.2,MacIntel,60,,,,,,,,,,,,,,,,,,,,,,,,,,1,5.80682,,0,0,108,108,14,1,stimuli/stim_20210519_power2amp/equal_lnn_AM1Hz_s25_31.m4a,,,
,,,,,41255,2021-05-26_15h06.24.916,judgeSpeechMusic_20210519_logNormShiftAmp_mXs,2020.1.2,MacIntel,60,,,,,,,,,,,,,,,,,,,,,,,,,,2,5.727855,,0,0,109,109,81,1,stimuli/stim_20210519_power2amp/equal_lnn_AM2.5Hz_s45_28.m4a,,,
,,,,,41255,2021-05-26_15h06.24.916,judgeSpeechMusic_20210519_logNormShiftAmp_mXs,2020.1.2,MacIntel,60,,,,,,,,,,,,,,,,,,,,,,,,,,2,6.04602,,0,0,110,110,98,1,stimuli/stim_20210519_power2amp/equal_lnn_AM2.5Hz_s55_31.m4a,,,
,,,,,41255,2021-05-26_15h06.24.916,judgeSpeechMusic_20210519_logNormShiftAmp_mXs,2020.1.2,MacIntel,60,,,,,,,,,,,,,,,,,,,,,,,,,,2,5.64527,,0,0,111,111,83,1,stimuli/stim_20210519_power2amp/equal_lnn_AM2.5Hz_s45_24.m4a,,,
,,,,,41255,2021-05-26_15h06.24.916,judgeSpeechMusic_20210519_logNormShiftAmp_mXs,2020.1.2,MacIntel,60,,,,,,,,,,,,,,,,,,,,,,,,,,1,5.84517,,0,0,112,112,58,1,stimuli/stim_20210519_power2amp/equal_lnn_AM2.5Hz_s15_49.m4a,,,
,,,,,41255,2021-05-26_15h06.24.916,judgeSpeechMusic_20210519_logNormShiftAmp_mXs,2020.1.2,MacIntel,60,,,,,,,,,,,,,,,,,,,,,,,,,,2,5.744605,,0,0,113,113,70,1,stimuli/stim_20210519_power2amp/equal_lnn_AM2.5Hz_s35_35.m4a,,,
,,,,,41255,2021-05-26_15h06.24.916,judgeSpeechMusic_20210519_logNormShiftAmp_mXs,2020.1.2,MacIntel,60,,,,,,,,,,,,,,,,,,,,,,,,,,1,5.89489,,0,0,114,114,44,1,stimuli/stim_20210519_power2amp/equal_lnn_AM1Hz_s55_16.m4a,,,
,,,,,41255,2021-05-26_15h06.24.916,judgeSpeechMusic_20210519_logNormShiftAmp_mXs,2020.1.2,MacIntel,60,,,,,,,,,,,,,,,,,,,,,,,,,,2,5.92845,,0,0,115,115,40,1,stimuli/stim_20210519_power2amp/equal_lnn_AM1Hz_s55_34.m4a,,,
,,,,,41255,2021-05-26_15h06.24.916,judgeSpeechMusic_20210519_logNormShiftAmp_mXs,2020.1.2,MacIntel,60,,,,,,,,,,,,,,,,,,,,,,,,,,1,6.31189,,0,0,116,116,3,1,stimuli/stim_20210519_power2amp/equal_lnn_AM1Hz_s15_25.m4a,,,
,,,,,41255,2021-05-26_15h06.24.916,judgeSpeechMusic_20210519_logNormShiftAmp_mXs,2020.1.2,MacIntel,60,,,,,,,,,,,,,,,,,,,,,,,,,,1,6.36483,,0,0,117,117,0,1,stimuli/stim_20210519_power2amp/equal_lnn_AM1Hz_s15_16.m4a,,,
,,,,,41255,2021-05-26_15h06.24.916,judgeSpeechMusic_20210519_logNormShiftAmp_mXs,2020.1.2,MacIntel,60,,,,,,,,,,,,,,,,,,,,,,,,,,2,5.94473,,0,0,118,118,79,1,stimuli/stim_20210519_power2amp/equal_lnn_AM2.5Hz_s35_15.m4a,,,
,,,,,41255,2021-05-26_15h06.24.916,judgeSpeechMusic_20210519_logNormShiftAmp_mXs,2020.1.2,MacIntel,60,,,,,,,,,,,,,,,,,,,,,,,,,,2,5.92845,,0,0,119,119,56,1,stimuli/stim_20210519_power2amp/equal_lnn_AM2.5Hz_s15_1.m4a,,,
,,,,,41255,2021-05-26_15h06.24.916,judgeSpeechMusic_20210519_logNormShiftAmp_mXs,2020.1.2,MacIntel,60,,,,,,,,,,,,,,,,,,,,,,,,,,2,6.74409,,0,0,120,120,134,1,stimuli/stim_20210519_power2amp/equal_lnn_AM4Hz_s45_48.m4a,,,
,,,,,41255,2021-05-26_15h06.24.916,judgeSpeechMusic_20210519_logNormShiftAmp_mXs,2020.1.2,MacIntel,60,,,,,,,,,,,,,,,,,,,,,,,,,,1,5.94562,,0,0,121,121,61,1,stimuli/stim_20210519_power2amp/equal_lnn_AM2.5Hz_s25_3.m4a,,,
,,,,,41255,2021-05-26_15h06.24.916,judgeSpeechMusic_20210519_logNormShiftAmp_mXs,2020.1.2,MacIntel,60,,,,,,,,,,,,,,,,,,,,,,,,,,2,6.12941,2,1,0,122,122,63,1,stimuli/stim_20210519_power2amp/equal_lnn_AM2.5Hz_s25_10.m4a,1.34563,,
,,,,,41255,2021-05-26_15h06.24.916,judgeSpeechMusic_20210519_logNormShiftAmp_mXs,2020.1.2,MacIntel,60,,,,,,,,,,,,,,,,,,,,,,,,,,2,6.41331,,0,0,123,123,139,1,stimuli/stim_20210519_power2amp/equal_lnn_AM4Hz_s45_13.m4a,,,
,,,,,41255,2021-05-26_15h06.24.916,judgeSpeechMusic_20210519_logNormShiftAmp_mXs,2020.1.2,MacIntel,60,,,,,,,,,,,,,,,,,,,,,,,,,,1,6.71118,,0,0,124,124,6,1,stimuli/stim_20210519_power2amp/equal_lnn_AM1Hz_s15_38.m4a,,,
,,,,,41255,2021-05-26_15h06.24.916,judgeSpeechMusic_20210519_logNormShiftAmp_mXs,2020.1.2,MacIntel,60,,,,,,,,,,,,,,,,,,,,,,,,,,2,7.07935,,0,0,125,125,148,1,stimuli/stim_20210519_power2amp/equal_lnn_AM4Hz_s55_18.m4a,,,
,,,,,41255,2021-05-26_15h06.24.916,judgeSpeechMusic_20210519_logNormShiftAmp_mXs,2020.1.2,MacIntel,60,,,,,,,,,,,,,,,,,,,,,,,,,,1,5.92552,,0,0,126,126,100,1,stimuli/stim_20210519_power2amp/equal_lnn_AM4Hz_s15_17.m4a,,,
,,,,,41255,2021-05-26_15h06.24.916,judgeSpeechMusic_20210519_logNormShiftAmp_mXs,2020.1.2,MacIntel,60,,,,,,,,,,,,,,,,,,,,,,,,,,2,5.810275,,0,0,127,127,76,1,stimuli/stim_20210519_power2amp/equal_lnn_AM2.5Hz_s35_41.m4a,,,
,,,,,41255,2021-05-26_15h06.24.916,judgeSpeechMusic_20210519_logNormShiftAmp_mXs,2020.1.2,MacIntel,60,,,,,,,,,,,,,,,,,,,,,,,,,,2,7.128405,,0,0,128,128,137,1,stimuli/stim_20210519_power2amp/equal_lnn_AM4Hz_s45_7.m4a,,,
,,,,,41255,2021-05-26_15h06.24.916,judgeSpeechMusic_20210519_logNormShiftAmp_mXs,2020.1.2,MacIntel,60,,,,,,,,,,,,,,,,,,,,,,,,,,2,5.84642,,0,0,129,129,126,1,stimuli/stim_20210519_power2amp/equal_lnn_AM4Hz_s35_12.m4a,,,
,,,,,41255,2021-05-26_15h06.24.916,judgeSpeechMusic_20210519_logNormShiftAmp_mXs,2020.1.2,MacIntel,60,,,,,,,,,,,,,,,,,,,,,,,,,,1,5.780655,,0,0,130,130,1,1,stimuli/stim_20210519_power2amp/equal_lnn_AM1Hz_s15_30.m4a,,,
,,,,,41255,2021-05-26_15h06.24.916,judgeSpeechMusic_20210519_logNormShiftAmp_mXs,2020.1.2,MacIntel,60,,,,,,,,,,,,,,,,,,,,,,,,,,2,6.74602,,0,0,131,131,127,1,stimuli/stim_20210519_power2amp/equal_lnn_AM4Hz_s35_28.m4a,,,
,,,,,41255,2021-05-26_15h06.24.916,judgeSpeechMusic_20210519_logNormShiftAmp_mXs,2020.1.2,MacIntel,60,,,,,,,,,,,,,,,,,,,,,,,,,,1,6.37953,,0,0,132,132,29,1,stimuli/stim_20210519_power2amp/equal_lnn_AM1Hz_s35_25.m4a,,,
,,,,,41255,2021-05-26_15h06.24.916,judgeSpeechMusic_20210519_logNormShiftAmp_mXs,2020.1.2,MacIntel,60,,,,,,,,,,,,,,,,,,,,,,,,,,2,5.94908,,0,0,133,133,101,1,stimuli/stim_20210519_power2amp/equal_lnn_AM4Hz_s15_35.m4a,,,
,,,,,41255,2021-05-26_15h06.24.916,judgeSpeechMusic_20210519_logNormShiftAmp_mXs,2020.1.2,MacIntel,60,,,,,,,,,,,,,,,,,,,,,,,,,,2,6.245455,,0,0,134,134,146,1,stimuli/stim_20210519_power2amp/equal_lnn_AM4Hz_s55_34.m4a,,,
,,,,,41255,2021-05-26_15h06.24.916,judgeSpeechMusic_20210519_logNormShiftAmp_mXs,2020.1.2,MacIntel,60,,,,,,,,,,,,,,,,,,,,,,,,,,1,6.39493,,0,0,135,135,129,1,stimuli/stim_20210519_power2amp/equal_lnn_AM4Hz_s35_30.m4a,,,
,,,,,41255,2021-05-26_15h06.24.916,judgeSpeechMusic_20210519_logNormShiftAmp_mXs,2020.1.2,MacIntel,60,,,,,,,,,,,,,,,,,,,,,,,,,,1,6.862285,,0,0,136,136,91,1,stimuli/stim_20210519_power2amp/equal_lnn_AM2.5Hz_s55_35.m4a,,,
,,,,,41255,2021-05-26_15h06.24.916,judgeSpeechMusic_20210519_logNormShiftAmp_mXs,2020.1.2,MacIntel,60,,,,,,,,,,,,,,,,,,,,,,,,,,1,6.94563,,0,0,137,137,57,1,stimuli/stim_20210519_power2amp/equal_lnn_AM2.5Hz_s15_12.m4a,,,
,,,,,41255,2021-05-26_15h06.24.916,judgeSpeechMusic_20210519_logNormShiftAmp_mXs,2020.1.2,MacIntel,60,,,,,,,,,,,,,,,,,,,,,,,,,,1,5.689425,,0,0,138,138,140,1,stimuli/stim_20210519_power2amp/equal_lnn_AM4Hz_s55_27.m4a,,,
,,,,,41255,2021-05-26_15h06.24.916,judgeSpeechMusic_20210519_logNormShiftAmp_mXs,2020.1.2,MacIntel,60,,,,,,,,,,,,,,,,,,,,,,,,,,1,5.66112,,0,0,139,139,2,1,stimuli/stim_20210519_power2amp/equal_lnn_AM1Hz_s15_18.m4a,,,
,,,,,41255,2021-05-26_15h06.24.916,judgeSpeechMusic_20210519_logNormShiftAmp_mXs,2020.1.2,MacIntel,60,,,,,,,,,,,,,,,,,,,,,,,,,,1,5.947095,,0,0,140,140,37,1,stimuli/stim_20210519_power2amp/equal_lnn_AM1Hz_s45_45.m4a,,,
,,,,,41255,2021-05-26_15h06.24.916,judgeSpeechMusic_20210519_logNormShiftAmp_mXs,2020.1.2,MacIntel,60,,,,,,,,,,,,,,,,,,,,,,,,,,2,5.995465,,0,0,141,141,135,1,stimuli/stim_20210519_power2amp/equal_lnn_AM4Hz_s45_27.m4a,,,
,,,,,41255,2021-05-26_15h06.24.916,judgeSpeechMusic_20210519_logNormShiftAmp_mXs,2020.1.2,MacIntel,60,,,,,,,,,,,,,,,,,,,,,,,,,,1,6.51209,,0,0,142,142,15,1,stimuli/stim_20210519_power2amp/equal_lnn_AM1Hz_s25_42.m4a,,,
,,,,,41255,2021-05-26_15h06.24.916,judgeSpeechMusic_20210519_logNormShiftAmp_mXs,2020.1.2,MacIntel,60,,,,,,,,,,,,,,,,,,,,,,,,,,2,7.11287,,0,0,143,143,60,1,stimuli/stim_20210519_power2amp/equal_lnn_AM2.5Hz_s25_7.m4a,,,
,,,,,41255,2021-05-26_15h06.24.916,judgeSpeechMusic_20210519_logNormShiftAmp_mXs,2020.1.2,MacIntel,60,,,,,,,,,,,,,,,,,,,,,,,,,,1,6.180435,,0,0,144,144,5,1,stimuli/stim_20210519_power2amp/equal_lnn_AM1Hz_s15_40.m4a,,,
,,,,,41255,2021-05-26_15h06.24.916,judgeSpeechMusic_20210519_logNormShiftAmp_mXs,2020.1.2,MacIntel,60,,,,,,,,,,,,,,,,,,,,,,,,,,2,5.879805,,0,0,145,145,113,1,stimuli/stim_20210519_power2amp/equal_lnn_AM4Hz_s25_15.m4a,,,
,,,,,41255,2021-05-26_15h06.24.916,judgeSpeechMusic_20210519_logNormShiftAmp_mXs,2020.1.2,MacIntel,60,,,,,,,,,,,,,,,,,,,,,,,,,,2,6.01213,,0,0,146,146,124,1,stimuli/stim_20210519_power2amp/equal_lnn_AM4Hz_s35_44.m4a,,,
,,,,,41255,2021-05-26_15h06.24.916,judgeSpeechMusic_20210519_logNormShiftAmp_mXs,2020.1.2,MacIntel,60,,,,,,,,,,,,,,,,,,,,,,,,,,2,6.04522,1,1,0,147,147,141,1,stimuli/stim_20210519_power2amp/equal_lnn_AM4Hz_s55_40.m4a,2.26342,,
,,,,,41255,2021-05-26_15h06.24.916,judgeSpeechMusic_20210519_logNormShiftAmp_mXs,2020.1.2,MacIntel,60,,,,,,,,,,,,,,,,,,,,,,,,,,2,10.81075,,0,0,148,148,136,1,stimuli/stim_20210519_power2amp/equal_lnn_AM4Hz_s45_4.m4a,,,
,,,,,41255,2021-05-26_15h06.24.916,judgeSpeechMusic_20210519_logNormShiftAmp_mXs,2020.1.2,MacIntel,60,,,,,,,,,,,,,,,,,,,,,,,,,,1,5.87757,,0,0,149,149,16,1,stimuli/stim_20210519_power2amp/equal_lnn_AM1Hz_s25_13.m4a,,,
,,,,,41255,2021-05-26_15h06.24.916,judgeSpeechMusic_20210519_logNormShiftAmp_mXs,2020.1.2,MacIntel,60,,,,,,,,,,,,,,,,,,,,,,,,,,2,6.010705,,0,1,0,150,114,1,stimuli/stim_20210519_power2amp/equal_lnn_AM4Hz_s25_50.m4a,,,
,,,,,41255,2021-05-26_15h06.24.916,judgeSpeechMusic_20210519_logNormShiftAmp_mXs,2020.1.2,MacIntel,60,,,,,,,,,,,,,,,,,,,,,,,,,,2,5.81221,,0,1,1,151,110,1,stimuli/stim_20210519_power2amp/equal_lnn_AM4Hz_s25_28.m4a,,,
,,,,,41255,2021-05-26_15h06.24.916,judgeSpeechMusic_20210519_logNormShiftAmp_mXs,2020.1.2,MacIntel,60,,,,,,,,,,,,,,,,,,,,,,,,,,1,6.678,,0,1,2,152,40,1,stimuli/stim_20210519_power2amp/equal_lnn_AM1Hz_s55_34.m4a,,,
,,,,,41255,2021-05-26_15h06.24.916,judgeSpeechMusic_20210519_logNormShiftAmp_mXs,2020.1.2,MacIntel,60,,,,,,,,,,,,,,,,,,,,,,,,,,2,6.47898,,0,1,3,153,80,1,stimuli/stim_20210519_power2amp/equal_lnn_AM2.5Hz_s45_14.m4a,,,
,,,,,41255,2021-05-26_15h06.24.916,judgeSpeechMusic_20210519_logNormShiftAmp_mXs,2020.1.2,MacIntel,60,,,,,,,,,,,,,,,,,,,,,,,,,,1,5.912645,,0,1,4,154,15,1,stimuli/stim_20210519_power2amp/equal_lnn_AM1Hz_s25_42.m4a,,,
,,,,,41255,2021-05-26_15h06.24.916,judgeSpeechMusic_20210519_logNormShiftAmp_mXs,2020.1.2,MacIntel,60,,,,,,,,,,,,,,,,,,,,,,,,,,1,5.74638,,0,1,5,155,1,1,stimuli/stim_20210519_power2amp/equal_lnn_AM1Hz_s15_30.m4a,,,
,,,,,41255,2021-05-26_15h06.24.916,judgeSpeechMusic_20210519_logNormShiftAmp_mXs,2020.1.2,MacIntel,60,,,,,,,,,,,,,,,,,,,,,,,,,,2,5.863625,,0,1,6,156,120,1,stimuli/stim_20210519_power2amp/equal_lnn_AM4Hz_s35_7.m4a,,,
,,,,,41255,2021-05-26_15h06.24.916,judgeSpeechMusic_20210519_logNormShiftAmp_mXs,2020.1.2,MacIntel,60,,,,,,,,,,,,,,,,,,,,,,,,,,1,5.829605,,0,1,7,157,131,1,stimuli/stim_20210519_power2amp/equal_lnn_AM4Hz_s45_17.m4a,,,
,,,,,41255,2021-05-26_15h06.24.916,judgeSpeechMusic_20210519_logNormShiftAmp_mXs,2020.1.2,MacIntel,60,,,,,,,,,,,,,,,,,,,,,,,,,,1,5.69515,,0,1,8,158,39,1,stimuli/stim_20210519_power2amp/equal_lnn_AM1Hz_s45_28.m4a,,,
,,,,,41255,2021-05-26_15h06.24.916,judgeSpeechMusic_20210519_logNormShiftAmp_mXs,2020.1.2,MacIntel,60,,,,,,,,,,,,,,,,,,,,,,,,,,2,7.76155,,0,1,9,159,145,1,stimuli/stim_20210519_power2amp/equal_lnn_AM4Hz_s55_25.m4a,,,
,,,,,41255,2021-05-26_15h06.24.916,judgeSpeechMusic_20210519_logNormShiftAmp_mXs,2020.1.2,MacIntel,60,,,,,,,,,,,,,,,,,,,,,,,,,,2,5.89519,,0,1,10,160,70,1,stimuli/stim_20210519_power2amp/equal_lnn_AM2.5Hz_s35_35.m4a,,,
,,,,,41255,2021-05-26_15h06.24.916,judgeSpeechMusic_20210519_logNormShiftAmp_mXs,2020.1.2,MacIntel,60,,,,,,,,,,,,,,,,,,,,,,,,,,2,5.961925,,0,1,11,161,125,1,stimuli/stim_20210519_power2amp/equal_lnn_AM4Hz_s35_25.m4a,,,
,,,,,41255,2021-05-26_15h06.24.916,judgeSpeechMusic_20210519_logNormShiftAmp_mXs,2020.1.2,MacIntel,60,,,,,,,,,,,,,,,,,,,,,,,,,,1,5.596285,,0,1,12,162,20,1,stimuli/stim_20210519_power2amp/equal_lnn_AM1Hz_s35_21.m4a,,,
,,,,,41255,2021-05-26_15h06.24.916,judgeSpeechMusic_20210519_logNormShiftAmp_mXs,2020.1.2,MacIntel,60,,,,,,,,,,,,,,,,,,,,,,,,,,2,5.96259,,0,1,13,163,99,1,stimuli/stim_20210519_power2amp/equal_lnn_AM2.5Hz_s55_2.m4a,,,
,,,,,41255,2021-05-26_15h06.24.916,judgeSpeechMusic_20210519_logNormShiftAmp_mXs,2020.1.2,MacIntel,60,,,,,,,,,,,,,,,,,,,,,,,,,,1,6.08143,,0,1,14,164,3,1,stimuli/stim_20210519_power2amp/equal_lnn_AM1Hz_s15_25.m4a,,,
,,,,,41255,2021-05-26_15h06.24.916,judgeSpeechMusic_20210519_logNormShiftAmp_mXs,2020.1.2,MacIntel,60,,,,,,,,,,,,,,,,,,,,,,,,,,1,5.62981,,0,1,15,165,52,1,stimuli/stim_20210519_power2amp/equal_lnn_AM2.5Hz_s15_9.m4a,,,
,,,,,41255,2021-05-26_15h06.24.916,judgeSpeechMusic_20210519_logNormShiftAmp_mXs,2020.1.2,MacIntel,60,,,,,,,,,,,,,,,,,,,,,,,,,,1,6.829915,,0,1,16,166,138,1,stimuli/stim_20210519_power2amp/equal_lnn_AM4Hz_s45_5.m4a,,,
,,,,,41255,2021-05-26_15h06.24.916,judgeSpeechMusic_20210519_logNormShiftAmp_mXs,2020.1.2,MacIntel,60,,,,,,,,,,,,,,,,,,,,,,,,,,2,6.661785,,0,1,17,167,54,1,stimuli/stim_20210519_power2amp/equal_lnn_AM2.5Hz_s15_47.m4a,,,
,,,,,41255,2021-05-26_15h06.24.916,judgeSpeechMusic_20210519_logNormShiftAmp_mXs,2020.1.2,MacIntel,60,,,,,,,,,,,,,,,,,,,,,,,,,,1,5.91165,,0,1,18,168,50,1,stimuli/stim_20210519_power2amp/equal_lnn_AM2.5Hz_s15_35.m4a,,,
,,,,,41255,2021-05-26_15h06.24.916,judgeSpeechMusic_20210519_logNormShiftAmp_mXs,2020.1.2,MacIntel,60,,,,,,,,,,,,,,,,,,,,,,,,,,1,6.03216,,0,1,19,169,14,1,stimuli/stim_20210519_power2amp/equal_lnn_AM1Hz_s25_31.m4a,,,
,,,,,41255,2021-05-26_15h06.24.916,judgeSpeechMusic_20210519_logNormShiftAmp_mXs,2020.1.2,MacIntel,60,,,,,,,,,,,,,,,,,,,,,,,,,,2,6.12988,3,1,1,20,170,83,1,stimuli/stim_20210519_power2amp/equal_lnn_AM2.5Hz_s45_24.m4a,4.862785,,
,,,,,41255,2021-05-26_15h06.24.916,judgeSpeechMusic_20210519_logNormShiftAmp_mXs,2020.1.2,MacIntel,60,,,,,,,,,,,,,,,,,,,,,,,,,,2,5.779145,,0,1,21,171,101,1,stimuli/stim_20210519_power2amp/equal_lnn_AM4Hz_s15_35.m4a,,,
,,,,,41255,2021-05-26_15h06.24.916,judgeSpeechMusic_20210519_logNormShiftAmp_mXs,2020.1.2,MacIntel,60,,,,,,,,,,,,,,,,,,,,,,,,,,2,6.245835,,0,1,22,172,135,1,stimuli/stim_20210519_power2amp/equal_lnn_AM4Hz_s45_27.m4a,,,
,,,,,41255,2021-05-26_15h06.24.916,judgeSpeechMusic_20210519_logNormShiftAmp_mXs,2020.1.2,MacIntel,60,,,,,,,,,,,,,,,,,,,,,,,,,,2,6.396675,,0,1,23,173,124,1,stimuli/stim_20210519_power2amp/equal_lnn_AM4Hz_s35_44.m4a,,,
,,,,,41255,2021-05-26_15h06.24.916,judgeSpeechMusic_20210519_logNormShiftAmp_mXs,2020.1.2,MacIntel,60,,,,,,,,,,,,,,,,,,,,,,,,,,2,6.929985,,0,1,24,174,117,1,stimuli/stim_20210519_power2amp/equal_lnn_AM4Hz_s25_12.m4a,,,
,,,,,41255,2021-05-26_15h06.24.916,judgeSpeechMusic_20210519_logNormShiftAmp_mXs,2020.1.2,MacIntel,60,,,,,,,,,,,,,,,,,,,,,,,,,,1,6.16269,,0,1,25,175,133,1,stimuli/stim_20210519_power2amp/equal_lnn_AM4Hz_s45_33.m4a,,,
,,,,,41255,2021-05-26_15h06.24.916,judgeSpeechMusic_20210519_logNormShiftAmp_mXs,2020.1.2,MacIntel,60,,,,,,,,,,,,,,,,,,,,,,,,,,1,6.296255,,0,1,26,176,5,1,stimuli/stim_20210519_power2amp/equal_lnn_AM1Hz_s15_40.m4a,,,
,,,,,41255,2021-05-26_15h06.24.916,judgeSpeechMusic_20210519_logNormShiftAmp_mXs,2020.1.2,MacIntel,60,,,,,,,,,,,,,,,,,,,,,,,,,,1,5.96183,,0,1,27,177,0,1,stimuli/stim_20210519_power2amp/equal_lnn_AM1Hz_s15_16.m4a,,,
,,,,,41255,2021-05-26_15h06.24.916,judgeSpeechMusic_20210519_logNormShiftAmp_mXs,2020.1.2,MacIntel,60,,,,,,,,,,,,,,,,,,,,,,,,,,2,6.0965,,0,1,28,178,60,1,stimuli/stim_20210519_power2amp/equal_lnn_AM2.5Hz_s25_7.m4a,,,
,,,,,41255,2021-05-26_15h06.24.916,judgeSpeechMusic_20210519_logNormShiftAmp_mXs,2020.1.2,MacIntel,60,,,,,,,,,,,,,,,,,,,,,,,,,,2,5.945605,,0,1,29,179,72,1,stimuli/stim_20210519_power2amp/equal_lnn_AM2.5Hz_s35_24.m4a,,,
,,,,,41255,2021-05-26_15h06.24.916,judgeSpeechMusic_20210519_logNormShiftAmp_mXs,2020.1.2,MacIntel,60,,,,,,,,,,,,,,,,,,,,,,,,,,2,6.42776,,0,1,30,180,48,1,stimuli/stim_20210519_power2amp/equal_lnn_AM1Hz_s55_7.m4a,,,
,,,,,41255,2021-05-26_15h06.24.916,judgeSpeechMusic_20210519_logNormShiftAmp_mXs,2020.1.2,MacIntel,60,,,,,,,,,,,,,,,,,,,,,,,,,,2,7.130855,,0,1,31,181,67,1,stimuli/stim_20210519_power2amp/equal_lnn_AM2.5Hz_s25_35.m4a,,,
,,,,,41255,2021-05-26_15h06.24.916,judgeSpeechMusic_20210519_logNormShiftAmp_mXs,2020.1.2,MacIntel,60,,,,,,,,,,,,,,,,,,,,,,,,,,2,5.829385,,0,1,32,182,126,1,stimuli/stim_20210519_power2amp/equal_lnn_AM4Hz_s35_12.m4a,,,
,,,,,41255,2021-05-26_15h06.24.916,judgeSpeechMusic_20210519_logNormShiftAmp_mXs,2020.1.2,MacIntel,60,,,,,,,,,,,,,,,,,,,,,,,,,,1,6.42849,,0,1,33,183,21,1,stimuli/stim_20210519_power2amp/equal_lnn_AM1Hz_s35_14.m4a,,,
,,,,,41255,2021-05-26_15h06.24.916,judgeSpeechMusic_20210519_logNormShiftAmp_mXs,2020.1.2,MacIntel,60,,,,,,,,,,,,,,,,,,,,,,,,,,1,5.7646,,0,1,34,184,55,1,stimuli/stim_20210519_power2amp/equal_lnn_AM2.5Hz_s15_17.m4a,,,
,,,,,41255,2021-05-26_15h06.24.916,judgeSpeechMusic_20210519_logNormShiftAmp_mXs,2020.1.2,MacIntel,60,,,,,,,,,,,,,,,,,,,,,,,,,,2,7.260765,,0,1,35,185,94,1,stimuli/stim_20210519_power2amp/equal_lnn_AM2.5Hz_s55_33.m4a,,,
,,,,,41255,2021-05-26_15h06.24.916,judgeSpeechMusic_20210519_logNormShiftAmp_mXs,2020.1.2,MacIntel,60,,,,,,,,,,,,,,,,,,,,,,,,,,2,7.36266,,0,1,36,186,90,1,stimuli/stim_20210519_power2amp/equal_lnn_AM2.5Hz_s55_3.m4a,,,
,,,,,41255,2021-05-26_15h06.24.916,judgeSpeechMusic_20210519_logNormShiftAmp_mXs,2020.1.2,MacIntel,60,,,,,,,,,,,,,,,,,,,,,,,,,,1,5.9293,,0,1,37,187,18,1,stimuli/stim_20210519_power2amp/equal_lnn_AM1Hz_s25_24.m4a,,,
,,,,,41255,2021-05-26_15h06.24.916,judgeSpeechMusic_20210519_logNormShiftAmp_mXs,2020.1.2,MacIntel,60,,,,,,,,,,,,,,,,,,,,,,,,,,2,5.77808,,0,1,38,188,74,1,stimuli/stim_20210519_power2amp/equal_lnn_AM2.5Hz_s35_48.m4a,,,
,,,,,41255,2021-05-26_15h06.24.916,judgeSpeechMusic_20210519_logNormShiftAmp_mXs,2020.1.2,MacIntel,60,,,,,,,,,,,,,,,,,,,,,,,,,,1,5.929105,,0,1,39,189,13,1,stimuli/stim_20210519_power2amp/equal_lnn_AM1Hz_s25_11.m4a,,,
,,,,,41255,2021-05-26_15h06.24.916,judgeSpeechMusic_20210519_logNormShiftAmp_mXs,2020.1.2,MacIntel,60,,,,,,,,,,,,,,,,,,,,,,,,,,2,6.146755,,0,1,40,190,144,1,stimuli/stim_20210519_power2amp/equal_lnn_AM4Hz_s55_22.m4a,,,
,,,,,41255,2021-05-26_15h06.24.916,judgeSpeechMusic_20210519_logNormShiftAmp_mXs,2020.1.2,MacIntel,60,,,,,,,,,,,,,,,,,,,,,,,,,,1,5.6291,,0,1,41,191,19,1,stimuli/stim_20210519_power2amp/equal_lnn_AM1Hz_s25_41.m4a,,,
,,,,,41255,2021-05-26_15h06.24.916,judgeSpeechMusic_20210519_logNormShiftAmp_mXs,2020.1.2,MacIntel,60,,,,,,,,,,,,,,,,,,,,,,,,,,1,7.27966,,0,1,42,192,28,1,stimuli/stim_20210519_power2amp/equal_lnn_AM1Hz_s35_45.m4a,,,
,,,,,41255,2021-05-26_15h06.24.916,judgeSpeechMusic_20210519_logNormShiftAmp_mXs,2020.1.2,MacIntel,60,,,,,,,,,,,,,,,,,,,,,,,,,,1,6.01244,3,1,1,43,193,47,1,stimuli/stim_20210519_power2amp/equal_lnn_AM1Hz_s55_31.m4a,0.963645,,
,,,,,41255,2021-05-26_15h06.24.916,judgeSpeechMusic_20210519_logNormShiftAmp_mXs,2020.1.2,MacIntel,60,,,,,,,,,,,,,,,,,,,,,,,,,,2,6.945905,,0,1,44,194,63,1,stimuli/stim_20210519_power2amp/equal_lnn_AM2.5Hz_s25_10.m4a,,,
,,,,,41255,2021-05-26_15h06.24.916,judgeSpeechMusic_20210519_logNormShiftAmp_mXs,2020.1.2,MacIntel,60,,,,,,,,,,,,,,,,,,,,,,,,,,2,6.028295,,0,1,45,195,113,1,stimuli/stim_20210519_power2amp/equal_lnn_AM4Hz_s25_15.m4a,,,
,,,,,41255,2021-05-26_15h06.24.916,judgeSpeechMusic_20210519_logNormShiftAmp_mXs,2020.1.2,MacIntel,60,,,,,,,,,,,,,,,,,,,,,,,,,,2,5.99619,,0,1,46,196,75,1,stimuli/stim_20210519_power2amp/equal_lnn_AM2.5Hz_s35_22.m4a,,,
,,,,,41255,2021-05-26_15h06.24.916,judgeSpeechMusic_20210519_logNormShiftAmp_mXs,2020.1.2,MacIntel,60,,,,,,,,,,,,,,,,,,,,,,,,,,1,6.14594,,0,1,47,197,46,1,stimuli/stim_20210519_power2amp/equal_lnn_AM1Hz_s55_42.m4a,,,
,,,,,41255,2021-05-26_15h06.24.916,judgeSpeechMusic_20210519_logNormShiftAmp_mXs,2020.1.2,MacIntel,60,,,,,,,,,,,,,,,,,,,,,,,,,,2,6.095005,,0,1,48,198,68,1,stimuli/stim_20210519_power2amp/equal_lnn_AM2.5Hz_s25_18.m4a,,,
,,,,,41255,2021-05-26_15h06.24.916,judgeSpeechMusic_20210519_logNormShiftAmp_mXs,2020.1.2,MacIntel,60,,,,,,,,,,,,,,,,,,,,,,,,,,1,6.04644,,0,1,49,199,65,1,stimuli/stim_20210519_power2amp/equal_lnn_AM2.5Hz_s25_19.m4a,,,
,,,,,41255,2021-05-26_15h06.24.916,judgeSpeechMusic_20210519_logNormShiftAmp_mXs,2020.1.2,MacIntel,60,,,,,,,,,,,,,,,,,,,,,,,,,,2,7.030505,,0,1,50,200,103,1,stimuli/stim_20210519_power2amp/equal_lnn_AM4Hz_s15_38.m4a,,,
,,,,,41255,2021-05-26_15h06.24.916,judgeSpeechMusic_20210519_logNormShiftAmp_mXs,2020.1.2,MacIntel,60,,,,,,,,,,,,,,,,,,,,,,,,,,2,5.978095,,0,1,51,201,137,1,stimuli/stim_20210519_power2amp/equal_lnn_AM4Hz_s45_7.m4a,,,
,,,,,41255,2021-05-26_15h06.24.916,judgeSpeechMusic_20210519_logNormShiftAmp_mXs,2020.1.2,MacIntel,60,,,,,,,,,,,,,,,,,,,,,,,,,,2,6.179405,,0,1,52,202,121,1,stimuli/stim_20210519_power2amp/equal_lnn_AM4Hz_s35_36.m4a,,,
,,,,,41255,2021-05-26_15h06.24.916,judgeSpeechMusic_20210519_logNormShiftAmp_mXs,2020.1.2,MacIntel,60,,,,,,,,,,,,,,,,,,,,,,,,,,1,6.09625,,0,1,53,203,27,1,stimuli/stim_20210519_power2amp/equal_lnn_AM1Hz_s35_20.m4a,,,
,,,,,41255,2021-05-26_15h06.24.916,judgeSpeechMusic_20210519_logNormShiftAmp_mXs,2020.1.2,MacIntel,60,,,,,,,,,,,,,,,,,,,,,,,,,,1,5.597765,,0,1,54,204,7,1,stimuli/stim_20210519_power2amp/equal_lnn_AM1Hz_s15_42.m4a,,,
,,,,,41255,2021-05-26_15h06.24.916,judgeSpeechMusic_20210519_logNormShiftAmp_mXs,2020.1.2,MacIntel,60,,,,,,,,,,,,,,,,,,,,,,,,,,2,6.078585,,0,1,55,205,45,1,stimuli/stim_20210519_power2amp/equal_lnn_AM1Hz_s55_33.m4a,,,
,,,,,41255,2021-05-26_15h06.24.916,judgeSpeechMusic_20210519_logNormShiftAmp_mXs,2020.1.2,MacIntel,60,,,,,,,,,,,,,,,,,,,,,,,,,,2,5.644195,,0,1,56,206,149,1,stimuli/stim_20210519_power2amp/equal_lnn_AM4Hz_s55_24.m4a,,,
,,,,,41255,2021-05-26_15h06.24.916,judgeSpeechMusic_20210519_logNormShiftAmp_mXs,2020.1.2,MacIntel,60,,,,,,,,,,,,,,,,,,,,,,,,,,1,6.16224,,0,1,57,207,36,1,stimuli/stim_20210519_power2amp/equal_lnn_AM1Hz_s45_48.m4a,,,
,,,,,41255,2021-05-26_15h06.24.916,judgeSpeechMusic_20210519_logNormShiftAmp_mXs,2020.1.2,MacIntel,60,,,,,,,,,,,,,,,,,,,,,,,,,,1,6.078945,,0,1,58,208,66,1,stimuli/stim_20210519_power2amp/equal_lnn_AM2.5Hz_s25_5.m4a,,,
,,,,,41255,2021-05-26_15h06.24.916,judgeSpeechMusic_20210519_logNormShiftAmp_mXs,2020.1.2,MacIntel,60,,,,,,,,,,,,,,,,,,,,,,,,,,2,6.14826,,0,1,59,209,71,1,stimuli/stim_20210519_power2amp/equal_lnn_AM2.5Hz_s35_37.m4a,,,
,,,,,41255,2021-05-26_15h06.24.916,judgeSpeechMusic_20210519_logNormShiftAmp_mXs,2020.1.2,MacIntel,60,,,,,,,,,,,,,,,,,,,,,,,,,,2,6.348635,,0,1,60,210,95,1,stimuli/stim_20210519_power2amp/equal_lnn_AM2.5Hz_s55_36.m4a,,,
,,,,,41255,2021-05-26_15h06.24.916,judgeSpeechMusic_20210519_logNormShiftAmp_mXs,2020.1.2,MacIntel,60,,,,,,,,,,,,,,,,,,,,,,,,,,1,5.84671,,0,1,61,211,38,1,stimuli/stim_20210519_power2amp/equal_lnn_AM1Hz_s45_12.m4a,,,
,,,,,41255,2021-05-26_15h06.24.916,judgeSpeechMusic_20210519_logNormShiftAmp_mXs,2020.1.2,MacIntel,60,,,,,,,,,,,,,,,,,,,,,,,,,,1,6.012885,,0,1,62,212,17,1,stimuli/stim_20210519_power2amp/equal_lnn_AM1Hz_s25_33.m4a,,,
,,,,,41255,2021-05-26_15h06.24.916,judgeSpeechMusic_20210519_logNormShiftAmp_mXs,2020.1.2,MacIntel,60,,,,,,,,,,,,,,,,,,,,,,,,,,1,6.112965,,0,1,63,213,77,1,stimuli/stim_20210519_power2amp/equal_lnn_AM2.5Hz_s35_6.m4a,,,
,,,,,41255,2021-05-26_15h06.24.916,judgeSpeechMusic_20210519_logNormShiftAmp_mXs,2020.1.2,MacIntel,60,,,,,,,,,,,,,,,,,,,,,,,,,,2,7.04468,,0,1,64,214,69,1,stimuli/stim_20210519_power2amp/equal_lnn_AM2.5Hz_s25_38.m4a,,,
,,,,,41255,2021-05-26_15h06.24.916,judgeSpeechMusic_20210519_logNormShiftAmp_mXs,2020.1.2,MacIntel,60,,,,,,,,,,,,,,,,,,,,,,,,,,2,7.395865,,0,1,65,215,23,1,stimuli/stim_20210519_power2amp/equal_lnn_AM1Hz_s35_8.m4a,,,
,,,,,41255,2021-05-26_15h06.24.916,judgeSpeechMusic_20210519_logNormShiftAmp_mXs,2020.1.2,MacIntel,60,,,,,,,,,,,,,,,,,,,,,,,,,,1,7.978435,,0,1,66,216,4,1,stimuli/stim_20210519_power2amp/equal_lnn_AM1Hz_s15_15.m4a,,,
,,,,,41255,2021-05-26_15h06.24.916,judgeSpeechMusic_20210519_logNormShiftAmp_mXs,2020.1.2,MacIntel,60,,,,,,,,,,,,,,,,,,,,,,,,,,2,5.8796,3,1,1,67,217,104,1,stimuli/stim_20210519_power2amp/equal_lnn_AM4Hz_s15_50.m4a,0.947695,,
,,,,,41255,2021-05-26_15h06.24.916,judgeSpeechMusic_20210519_logNormShiftAmp_mXs,2020.1.2,MacIntel,60,,,,,,,,,,,,,,,,,,,,,,,,,,2,6.52828,,0,1,68,218,100,1,stimuli/stim_20210519_power2amp/equal_lnn_AM4Hz_s15_17.m4a,,,
,,,,,41255,2021-05-26_15h06.24.916,judgeSpeechMusic_20210519_logNormShiftAmp_mXs,2020.1.2,MacIntel,60,,,,,,,,,,,,,,,,,,,,,,,,,,2,5.996485,,0,1,69,219,82,1,stimuli/stim_20210519_power2amp/equal_lnn_AM2.5Hz_s45_46.m4a,,,
,,,,,41255,2021-05-26_15h06.24.916,judgeSpeechMusic_20210519_logNormShiftAmp_mXs,2020.1.2,MacIntel,60,,,,,,,,,,,,,,,,,,,,,,,,,,2,6.745815,,0,1,70,220,32,1,stimuli/stim_20210519_power2amp/equal_lnn_AM1Hz_s45_39.m4a,,,
,,,,,41255,2021-05-26_15h06.24.916,judgeSpeechMusic_20210519_logNormShiftAmp_mXs,2020.1.2,MacIntel,60,,,,,,,,,,,,,,,,,,,,,,,,,,1,5.930035,,0,1,71,221,147,1,stimuli/stim_20210519_power2amp/equal_lnn_AM4Hz_s55_33.m4a,,,
,,,,,41255,2021-05-26_15h06.24.916,judgeSpeechMusic_20210519_logNormShiftAmp_mXs,2020.1.2,MacIntel,60,,,,,,,,,,,,,,,,,,,,,,,,,,1,5.945345,,0,1,72,222,11,1,stimuli/stim_20210519_power2amp/equal_lnn_AM1Hz_s25_2.m4a,,,
,,,,,41255,2021-05-26_15h06.24.916,judgeSpeechMusic_20210519_logNormShiftAmp_mXs,2020.1.2,MacIntel,60,,,,,,,,,,,,,,,,,,,,,,,,,,2,5.696065,,0,1,73,223,91,1,stimuli/stim_20210519_power2amp/equal_lnn_AM2.5Hz_s55_35.m4a,,,
,,,,,41255,2021-05-26_15h06.24.916,judgeSpeechMusic_20210519_logNormShiftAmp_mXs,2020.1.2,MacIntel,60,,,,,,,,,,,,,,,,,,,,,,,,,,1,5.69647,,0,1,74,224,12,1,stimuli/stim_20210519_power2amp/equal_lnn_AM1Hz_s25_18.m4a,,,
,,,,,41255,2021-05-26_15h06.24.916,judgeSpeechMusic_20210519_logNormShiftAmp_mXs,2020.1.2,MacIntel,60,,,,,,,,,,,,,,,,,,,,,,,,,,1,5.78136,,0,1,75,225,53,1,stimuli/stim_20210519_power2amp/equal_lnn_AM2.5Hz_s15_15.m4a,,,
,,,,,41255,2021-05-26_15h06.24.916,judgeSpeechMusic_20210519_logNormShiftAmp_mXs,2020.1.2,MacIntel,60,,,,,,,,,,,,,,,,,,,,,,,,,,2,5.828505,,0,1,76,226,118,1,stimuli/stim_20210519_power2amp/equal_lnn_AM4Hz_s25_6.m4a,,,
,,,,,41255,2021-05-26_15h06.24.916,judgeSpeechMusic_20210519_logNormShiftAmp_mXs,2020.1.2,MacIntel,60,,,,,,,,,,,,,,,,,,,,,,,,,,1,6.0796,,0,1,77,227,6,1,stimuli/stim_20210519_power2amp/equal_lnn_AM1Hz_s15_38.m4a,,,
,,,,,41255,2021-05-26_15h06.24.916,judgeSpeechMusic_20210519_logNormShiftAmp_mXs,2020.1.2,MacIntel,60,,,,,,,,,,,,,,,,,,,,,,,,,,1,7.96239,,0,1,78,228,29,1,stimuli/stim_20210519_power2amp/equal_lnn_AM1Hz_s35_25.m4a,,,
,,,,,41255,2021-05-26_15h06.24.916,judgeSpeechMusic_20210519_logNormShiftAmp_mXs,2020.1.2,MacIntel,60,,,,,,,,,,,,,,,,,,,,,,,,,,2,6.563465,,0,1,79,229,112,1,stimuli/stim_20210519_power2amp/equal_lnn_AM4Hz_s25_13.m4a,,,
,,,,,41255,2021-05-26_15h06.24.916,judgeSpeechMusic_20210519_logNormShiftAmp_mXs,2020.1.2,MacIntel,60,,,,,,,,,,,,,,,,,,,,,,,,,,2,6.51316,,0,1,80,230,108,1,stimuli/stim_20210519_power2amp/equal_lnn_AM4Hz_s15_43.m4a,,,
,,,,,41255,2021-05-26_15h06.24.916,judgeSpeechMusic_20210519_logNormShiftAmp_mXs,2020.1.2,MacIntel,60,,,,,,,,,,,,,,,,,,,,,,,,,,2,5.826825,,0,1,81,231,98,1,stimuli/stim_20210519_power2amp/equal_lnn_AM2.5Hz_s55_31.m4a,,,
,,,,,41255,2021-05-26_15h06.24.916,judgeSpeechMusic_20210519_logNormShiftAmp_mXs,2020.1.2,MacIntel,60,,,,,,,,,,,,,,,,,,,,,,,,,,2,6.09499,,0,1,82,232,115,1,stimuli/stim_20210519_power2amp/equal_lnn_AM4Hz_s25_45.m4a,,,
,,,,,41255,2021-05-26_15h06.24.916,judgeSpeechMusic_20210519_logNormShiftAmp_mXs,2020.1.2,MacIntel,60,,,,,,,,,,,,,,,,,,,,,,,,,,1,6.54487,,0,1,83,233,35,1,stimuli/stim_20210519_power2amp/equal_lnn_AM1Hz_s45_14.m4a,,,
,,,,,41255,2021-05-26_15h06.24.916,judgeSpeechMusic_20210519_logNormShiftAmp_mXs,2020.1.2,MacIntel,60,,,,,,,,,,,,,,,,,,,,,,,,,,1,5.87844,,0,1,84,234,37,1,stimuli/stim_20210519_power2amp/equal_lnn_AM1Hz_s45_45.m4a,,,
,,,,,41255,2021-05-26_15h06.24.916,judgeSpeechMusic_20210519_logNormShiftAmp_mXs,2020.1.2,MacIntel,60,,,,,,,,,,,,,,,,,,,,,,,,,,2,5.695715,,0,1,85,235,49,1,stimuli/stim_20210519_power2amp/equal_lnn_AM1Hz_s55_28.m4a,,,
,,,,,41255,2021-05-26_15h06.24.916,judgeSpeechMusic_20210519_logNormShiftAmp_mXs,2020.1.2,MacIntel,60,,,,,,,,,,,,,,,,,,,,,,,,,,2,5.79711,,0,1,86,236,142,1,stimuli/stim_20210519_power2amp/equal_lnn_AM4Hz_s55_16.m4a,,,
,,,,,41255,2021-05-26_15h06.24.916,judgeSpeechMusic_20210519_logNormShiftAmp_mXs,2020.1.2,MacIntel,60,,,,,,,,,,,,,,,,,,,,,,,,,,2,5.77974,,0,1,87,237,143,1,stimuli/stim_20210519_power2amp/equal_lnn_AM4Hz_s55_14.m4a,,,
,,,,,41255,2021-05-26_15h06.24.916,judgeSpeechMusic_20210519_logNormShiftAmp_mXs,2020.1.2,MacIntel,60,,,,,,,,,,,,,,,,,,,,,,,,,,2,6.21304,,0,1,88,238,134,1,stimuli/stim_20210519_power2amp/equal_lnn_AM4Hz_s45_48.m4a,,,
,,,,,41255,2021-05-26_15h06.24.916,judgeSpeechMusic_20210519_logNormShiftAmp_mXs,2020.1.2,MacIntel,60,,,,,,,,,,,,,,,,,,,,,,,,,,1,5.99506,1,1,1,89,239,84,1,stimuli/stim_20210519_power2amp/equal_lnn_AM2.5Hz_s45_16.m4a,0.814505,,
,,,,,41255,2021-05-26_15h06.24.916,judgeSpeechMusic_20210519_logNormShiftAmp_mXs,2020.1.2,MacIntel,60,,,,,,,,,,,,,,,,,,,,,,,,,,2,5.86164,,0,1,90,240,102,1,stimuli/stim_20210519_power2amp/equal_lnn_AM4Hz_s15_16.m4a,,,
,,,,,41255,2021-05-26_15h06.24.916,judgeSpeechMusic_20210519_logNormShiftAmp_mXs,2020.1.2,MacIntel,60,,,,,,,,,,,,,,,,,,,,,,,,,,1,5.79557,,0,1,91,241,85,1,stimuli/stim_20210519_power2amp/equal_lnn_AM2.5Hz_s45_15.m4a,,,
,,,,,41255,2021-05-26_15h06.24.916,judgeSpeechMusic_20210519_logNormShiftAmp_mXs,2020.1.2,MacIntel,60,,,,,,,,,,,,,,,,,,,,,,,,,,2,5.69517,,0,1,92,242,141,1,stimuli/stim_20210519_power2amp/equal_lnn_AM4Hz_s55_40.m4a,,,
,,,,,41255,2021-05-26_15h06.24.916,judgeSpeechMusic_20210519_logNormShiftAmp_mXs,2020.1.2,MacIntel,60,,,,,,,,,,,,,,,,,,,,,,,,,,1,5.646915,,0,1,93,243,78,1,stimuli/stim_20210519_power2amp/equal_lnn_AM2.5Hz_s35_19.m4a,,,
,,,,,41255,2021-05-26_15h06.24.916,judgeSpeechMusic_20210519_logNormShiftAmp_mXs,2020.1.2,MacIntel,60,,,,,,,,,,,,,,,,,,,,,,,,,,2,6.71263,,0,1,94,244,76,1,stimuli/stim_20210519_power2amp/equal_lnn_AM2.5Hz_s35_41.m4a,,,
,,,,,41255,2021-05-26_15h06.24.916,judgeSpeechMusic_20210519_logNormShiftAmp_mXs,2020.1.2,MacIntel,60,,,,,,,,,,,,,,,,,,,,,,,,,,1,6.329675,,0,1,95,245,25,1,stimuli/stim_20210519_power2amp/equal_lnn_AM1Hz_s35_35.m4a,,,
,,,,,41255,2021-05-26_15h06.24.916,judgeSpeechMusic_20210519_logNormShiftAmp_mXs,2020.1.2,MacIntel,60,,,,,,,,,,,,,,,,,,,,,,,,,,1,8.196295,,0,1,96,246,30,1,stimuli/stim_20210519_power2amp/equal_lnn_AM1Hz_s45_17.m4a,,,
,,,,,41255,2021-05-26_15h06.24.916,judgeSpeechMusic_20210519_logNormShiftAmp_mXs,2020.1.2,MacIntel,60,,,,,,,,,,,,,,,,,,,,,,,,,,2,6.445825,,0,1,97,247,106,1,stimuli/stim_20210519_power2amp/equal_lnn_AM4Hz_s15_11.m4a,,,
,,,,,41255,2021-05-26_15h06.24.916,judgeSpeechMusic_20210519_logNormShiftAmp_mXs,2020.1.2,MacIntel,60,,,,,,,,,,,,,,,,,,,,,,,,,,1,6.761315,,0,1,98,248,9,1,stimuli/stim_20210519_power2amp/equal_lnn_AM1Hz_s15_6.m4a,,,
,,,,,41255,2021-05-26_15h06.24.916,judgeSpeechMusic_20210519_logNormShiftAmp_mXs,2020.1.2,MacIntel,60,,,,,,,,,,,,,,,,,,,,,,,,,,2,6.613085,,0,1,99,249,88,1,stimuli/stim_20210519_power2amp/equal_lnn_AM2.5Hz_s45_1.m4a,,,
,,,,,41255,2021-05-26_15h06.24.916,judgeSpeechMusic_20210519_logNormShiftAmp_mXs,2020.1.2,MacIntel,60,,,,,,,,,,,,,,,,,,,,,,,,,,2,7.06283,,0,1,100,250,123,1,stimuli/stim_20210519_power2amp/equal_lnn_AM4Hz_s35_50.m4a,,,
,,,,,41255,2021-05-26_15h06.24.916,judgeSpeechMusic_20210519_logNormShiftAmp_mXs,2020.1.2,MacIntel,60,,,,,,,,,,,,,,,,,,,,,,,,,,1,5.97806,,0,1,101,251,51,1,stimuli/stim_20210519_power2amp/equal_lnn_AM2.5Hz_s15_24.m4a,,,
,,,,,41255,2021-05-26_15h06.24.916,judgeSpeechMusic_20210519_logNormShiftAmp_mXs,2020.1.2,MacIntel,60,,,,,,,,,,,,,,,,,,,,,,,,,,1,5.6286,,0,1,102,252,10,1,stimuli/stim_20210519_power2amp/equal_lnn_AM1Hz_s25_15.m4a,,,
,,,,,41255,2021-05-26_15h06.24.916,judgeSpeechMusic_20210519_logNormShiftAmp_mXs,2020.1.2,MacIntel,60,,,,,,,,,,,,,,,,,,,,,,,,,,2,5.713555,,0,1,103,253,86,1,stimuli/stim_20210519_power2amp/equal_lnn_AM2.5Hz_s45_26.m4a,,,
,,,,,41255,2021-05-26_15h06.24.916,judgeSpeechMusic_20210519_logNormShiftAmp_mXs,2020.1.2,MacIntel,60,,,,,,,,,,,,,,,,,,,,,,,,,,2,5.7453,,0,1,104,254,139,1,stimuli/stim_20210519_power2amp/equal_lnn_AM4Hz_s45_13.m4a,,,
,,,,,41255,2021-05-26_15h06.24.916,judgeSpeechMusic_20210519_logNormShiftAmp_mXs,2020.1.2,MacIntel,60,,,,,,,,,,,,,,,,,,,,,,,,,,1,5.828875,,0,1,105,255,64,1,stimuli/stim_20210519_power2amp/equal_lnn_AM2.5Hz_s25_29.m4a,,,
,,,,,41255,2021-05-26_15h06.24.916,judgeSpeechMusic_20210519_logNormShiftAmp_mXs,2020.1.2,MacIntel,60,,,,,,,,,,,,,,,,,,,,,,,,,,1,6.045965,,0,1,106,256,57,1,stimuli/stim_20210519_power2amp/equal_lnn_AM2.5Hz_s15_12.m4a,,,
,,,,,41255,2021-05-26_15h06.24.916,judgeSpeechMusic_20210519_logNormShiftAmp_mXs,2020.1.2,MacIntel,60,,,,,,,,,,,,,,,,,,,,,,,,,,1,5.91158,,0,1,107,257,61,1,stimuli/stim_20210519_power2amp/equal_lnn_AM2.5Hz_s25_3.m4a,,,
,,,,,41255,2021-05-26_15h06.24.916,judgeSpeechMusic_20210519_logNormShiftAmp_mXs,2020.1.2,MacIntel,60,,,,,,,,,,,,,,,,,,,,,,,,,,2,5.845335,,0,1,108,258,93,1,stimuli/stim_20210519_power2amp/equal_lnn_AM2.5Hz_s55_37.m4a,,,
,,,,,41255,2021-05-26_15h06.24.916,judgeSpeechMusic_20210519_logNormShiftAmp_mXs,2020.1.2,MacIntel,60,,,,,,,,,,,,,,,,,,,,,,,,,,1,5.630245,,0,1,109,259,24,1,stimuli/stim_20210519_power2amp/equal_lnn_AM1Hz_s35_32.m4a,,,
,,,,,41255,2021-05-26_15h06.24.916,judgeSpeechMusic_20210519_logNormShiftAmp_mXs,2020.1.2,MacIntel,60,,,,,,,,,,,,,,,,,,,,,,,,,,2,6.02924,,0,1,110,260,62,1,stimuli/stim_20210519_power2amp/equal_lnn_AM2.5Hz_s25_4.m4a,,,
,,,,,41255,2021-05-26_15h06.24.916,judgeSpeechMusic_20210519_logNormShiftAmp_mXs,2020.1.2,MacIntel,60,,,,,,,,,,,,,,,,,,,,,,,,,,2,5.61292,,0,1,111,261,107,1,stimuli/stim_20210519_power2amp/equal_lnn_AM4Hz_s15_44.m4a,,,
,,,,,41255,2021-05-26_15h06.24.916,judgeSpeechMusic_20210519_logNormShiftAmp_mXs,2020.1.2,MacIntel,60,,,,,,,,,,,,,,,,,,,,,,,,,,2,5.7452,,0,1,112,262,130,1,stimuli/stim_20210519_power2amp/equal_lnn_AM4Hz_s45_37.m4a,,,
,,,,,41255,2021-05-26_15h06.24.916,judgeSpeechMusic_20210519_logNormShiftAmp_mXs,2020.1.2,MacIntel,60,,,,,,,,,,,,,,,,,,,,,,,,,,2,6.08231,2,1,1,113,263,136,1,stimuli/stim_20210519_power2amp/equal_lnn_AM4Hz_s45_4.m4a,0.42994,,
,,,,,41255,2021-05-26_15h06.24.916,judgeSpeechMusic_20210519_logNormShiftAmp_mXs,2020.1.2,MacIntel,60,,,,,,,,,,,,,,,,,,,,,,,,,,2,5.81304,,0,1,114,264,97,1,stimuli/stim_20210519_power2amp/equal_lnn_AM2.5Hz_s55_40.m4a,,,
,,,,,41255,2021-05-26_15h06.24.916,judgeSpeechMusic_20210519_logNormShiftAmp_mXs,2020.1.2,MacIntel,60,,,,,,,,,,,,,,,,,,,,,,,,,,2,5.59612,,0,1,115,265,128,1,stimuli/stim_20210519_power2amp/equal_lnn_AM4Hz_s35_22.m4a,,,
,,,,,41255,2021-05-26_15h06.24.916,judgeSpeechMusic_20210519_logNormShiftAmp_mXs,2020.1.2,MacIntel,60,,,,,,,,,,,,,,,,,,,,,,,,,,2,5.628285,,0,1,116,266,59,1,stimuli/stim_20210519_power2amp/equal_lnn_AM2.5Hz_s15_21.m4a,,,
,,,,,41255,2021-05-26_15h06.24.916,judgeSpeechMusic_20210519_logNormShiftAmp_mXs,2020.1.2,MacIntel,60,,,,,,,,,,,,,,,,,,,,,,,,,,2,5.728315,,0,1,117,267,105,1,stimuli/stim_20210519_power2amp/equal_lnn_AM4Hz_s15_8.m4a,,,
,,,,,41255,2021-05-26_15h06.24.916,judgeSpeechMusic_20210519_logNormShiftAmp_mXs,2020.1.2,MacIntel,60,,,,,,,,,,,,,,,,,,,,,,,,,,2,6.147945,,0,1,118,268,146,1,stimuli/stim_20210519_power2amp/equal_lnn_AM4Hz_s55_34.m4a,,,
,,,,,41255,2021-05-26_15h06.24.916,judgeSpeechMusic_20210519_logNormShiftAmp_mXs,2020.1.2,MacIntel,60,,,,,,,,,,,,,,,,,,,,,,,,,,1,5.94553,,0,1,119,269,148,1,stimuli/stim_20210519_power2amp/equal_lnn_AM4Hz_s55_18.m4a,,,
,,,,,41255,2021-05-26_15h06.24.916,judgeSpeechMusic_20210519_logNormShiftAmp_mXs,2020.1.2,MacIntel,60,,,,,,,,,,,,,,,,,,,,,,,,,,2,6.448715,,0,1,120,270,96,1,stimuli/stim_20210519_power2amp/equal_lnn_AM2.5Hz_s55_21.m4a,,,
,,,,,41255,2021-05-26_15h06.24.916,judgeSpeechMusic_20210519_logNormShiftAmp_mXs,2020.1.2,MacIntel,60,,,,,,,,,,,,,,,,,,,,,,,,,,1,5.844855,,0,1,121,271,33,1,stimuli/stim_20210519_power2amp/equal_lnn_AM1Hz_s45_36.m4a,,,
,,,,,41255,2021-05-26_15h06.24.916,judgeSpeechMusic_20210519_logNormShiftAmp_mXs,2020.1.2,MacIntel,60,,,,,,,,,,,,,,,,,,,,,,,,,,1,5.712445,,0,1,122,272,44,1,stimuli/stim_20210519_power2amp/equal_lnn_AM1Hz_s55_16.m4a,,,
,,,,,41255,2021-05-26_15h06.24.916,judgeSpeechMusic_20210519_logNormShiftAmp_mXs,2020.1.2,MacIntel,60,,,,,,,,,,,,,,,,,,,,,,,,,,1,5.798585,,0,1,123,273,56,1,stimuli/stim_20210519_power2amp/equal_lnn_AM2.5Hz_s15_1.m4a,,,
,,,,,41255,2021-05-26_15h06.24.916,judgeSpeechMusic_20210519_logNormShiftAmp_mXs,2020.1.2,MacIntel,60,,,,,,,,,,,,,,,,,,,,,,,,,,2,6.11253,,0,1,124,274,89,1,stimuli/stim_20210519_power2amp/equal_lnn_AM2.5Hz_s45_36.m4a,,,
,,,,,41255,2021-05-26_15h06.24.916,judgeSpeechMusic_20210519_logNormShiftAmp_mXs,2020.1.2,MacIntel,60,,,,,,,,,,,,,,,,,,,,,,,,,,2,5.71251,,0,1,125,275,116,1,stimuli/stim_20210519_power2amp/equal_lnn_AM4Hz_s25_16.m4a,,,
,,,,,41255,2021-05-26_15h06.24.916,judgeSpeechMusic_20210519_logNormShiftAmp_mXs,2020.1.2,MacIntel,60,,,,,,,,,,,,,,,,,,,,,,,,,,2,5.74487,,0,1,126,276,81,1,stimuli/stim_20210519_power2amp/equal_lnn_AM2.5Hz_s45_28.m4a,,,
,,,,,41255,2021-05-26_15h06.24.916,judgeSpeechMusic_20210519_logNormShiftAmp_mXs,2020.1.2,MacIntel,60,,,,,,,,,,,,,,,,,,,,,,,,,,2,6.04609,,0,1,127,277,92,1,stimuli/stim_20210519_power2amp/equal_lnn_AM2.5Hz_s55_29.m4a,,,
,,,,,41255,2021-05-26_15h06.24.916,judgeSpeechMusic_20210519_logNormShiftAmp_mXs,2020.1.2,MacIntel,60,,,,,,,,,,,,,,,,,,,,,,,,,,1,5.828575,,0,1,128,278,2,1,stimuli/stim_20210519_power2amp/equal_lnn_AM1Hz_s15_18.m4a,,,
,,,,,41255,2021-05-26_15h06.24.916,judgeSpeechMusic_20210519_logNormShiftAmp_mXs,2020.1.2,MacIntel,60,,,,,,,,,,,,,,,,,,,,,,,,,,2,5.64668,,0,1,129,279,140,1,stimuli/stim_20210519_power2amp/equal_lnn_AM4Hz_s55_27.m4a,,,
,,,,,41255,2021-05-26_15h06.24.916,judgeSpeechMusic_20210519_logNormShiftAmp_mXs,2020.1.2,MacIntel,60,,,,,,,,,,,,,,,,,,,,,,,,,,2,5.847035,,0,1,130,280,132,1,stimuli/stim_20210519_power2amp/equal_lnn_AM4Hz_s45_30.m4a,,,
,,,,,41255,2021-05-26_15h06.24.916,judgeSpeechMusic_20210519_logNormShiftAmp_mXs,2020.1.2,MacIntel,60,,,,,,,,,,,,,,,,,,,,,,,,,,1,5.812545,,0,1,131,281,43,1,stimuli/stim_20210519_power2amp/equal_lnn_AM1Hz_s55_19.m4a,,,
,,,,,41255,2021-05-26_15h06.24.916,judgeSpeechMusic_20210519_logNormShiftAmp_mXs,2020.1.2,MacIntel,60,,,,,,,,,,,,,,,,,,,,,,,,,,1,5.728665,,0,1,132,282,22,1,stimuli/stim_20210519_power2amp/equal_lnn_AM1Hz_s35_30.m4a,,,
,,,,,41255,2021-05-26_15h06.24.916,judgeSpeechMusic_20210519_logNormShiftAmp_mXs,2020.1.2,MacIntel,60,,,,,,,,,,,,,,,,,,,,,,,,,,2,5.86161,,0,1,133,283,111,1,stimuli/stim_20210519_power2amp/equal_lnn_AM4Hz_s25_32.m4a,,,
,,,,,41255,2021-05-26_15h06.24.916,judgeSpeechMusic_20210519_logNormShiftAmp_mXs,2020.1.2,MacIntel,60,,,,,,,,,,,,,,,,,,,,,,,,,,2,5.7117,,0,1,134,284,122,1,stimuli/stim_20210519_power2amp/equal_lnn_AM4Hz_s35_6.m4a,,,
,,,,,41255,2021-05-26_15h06.24.916,judgeSpeechMusic_20210519_logNormShiftAmp_mXs,2020.1.2,MacIntel,60,,,,,,,,,,,,,,,,,,,,,,,,,,1,5.862185,,0,1,135,285,31,1,stimuli/stim_20210519_power2amp/equal_lnn_AM1Hz_s45_47.m4a,,,
,,,,,41255,2021-05-26_15h06.24.916,judgeSpeechMusic_20210519_logNormShiftAmp_mXs,2020.1.2,MacIntel,60,,,,,,,,,,,,,,,,,,,,,,,,,,1,5.71179,,0,1,136,286,87,1,stimuli/stim_20210519_power2amp/equal_lnn_AM2.5Hz_s45_50.m4a,,,
,,,,,41255,2021-05-26_15h06.24.916,judgeSpeechMusic_20210519_logNormShiftAmp_mXs,2020.1.2,MacIntel,60,,,,,,,,,,,,,,,,,,,,,,,,,,1,6.17974,4,1,1,137,287,34,1,stimuli/stim_20210519_power2amp/equal_lnn_AM1Hz_s45_26.m4a,2.162235,,
,,,,,41255,2021-05-26_15h06.24.916,judgeSpeechMusic_20210519_logNormShiftAmp_mXs,2020.1.2,MacIntel,60,,,,,,,,,,,,,,,,,,,,,,,,,,2,6.127195,,0,1,138,288,129,1,stimuli/stim_20210519_power2amp/equal_lnn_AM4Hz_s35_30.m4a,,,
,,,,,41255,2021-05-26_15h06.24.916,judgeSpeechMusic_20210519_logNormShiftAmp_mXs,2020.1.2,MacIntel,60,,,,,,,,,,,,,,,,,,,,,,,,,,2,6.414885,,0,1,139,289,58,1,stimuli/stim_20210519_power2amp/equal_lnn_AM2.5Hz_s15_49.m4a,,,
,,,,,41255,2021-05-26_15h06.24.916,judgeSpeechMusic_20210519_logNormShiftAmp_mXs,2020.1.2,MacIntel,60,,,,,,,,,,,,,,,,,,,,,,,,,,2,5.61266,,0,1,140,290,127,1,stimuli/stim_20210519_power2amp/equal_lnn_AM4Hz_s35_28.m4a,,,
,,,,,41255,2021-05-26_15h06.24.916,judgeSpeechMusic_20210519_logNormShiftAmp_mXs,2020.1.2,MacIntel,60,,,,,,,,,,,,,,,,,,,,,,,,,,1,5.62894,,0,1,141,291,41,1,stimuli/stim_20210519_power2amp/equal_lnn_AM1Hz_s55_39.m4a,,,
,,,,,41255,2021-05-26_15h06.24.916,judgeSpeechMusic_20210519_logNormShiftAmp_mXs,2020.1.2,MacIntel,60,,,,,,,,,,,,,,,,,,,,,,,,,,1,5.81412,,0,1,142,292,26,1,stimuli/stim_20210519_power2amp/equal_lnn_AM1Hz_s35_11.m4a,,,
,,,,,41255,2021-05-26_15h06.24.916,judgeSpeechMusic_20210519_logNormShiftAmp_mXs,2020.1.2,MacIntel,60,,,,,,,,,,,,,,,,,,,,,,,,,,1,5.51239,,0,1,143,293,8,1,stimuli/stim_20210519_power2amp/equal_lnn_AM1Hz_s15_31.m4a,,,
,,,,,41255,2021-05-26_15h06.24.916,judgeSpeechMusic_20210519_logNormShiftAmp_mXs,2020.1.2,MacIntel,60,,,,,,,,,,,,,,,,,,,,,,,,,,2,6.0461,,0,1,144,294,119,1,stimuli/stim_20210519_power2amp/equal_lnn_AM4Hz_s25_22.m4a,,,
,,,,,41255,2021-05-26_15h06.24.916,judgeSpeechMusic_20210519_logNormShiftAmp_mXs,2020.1.2,MacIntel,60,,,,,,,,,,,,,,,,,,,,,,,,,,2,5.746345,,0,1,145,295,73,1,stimuli/stim_20210519_power2amp/equal_lnn_AM2.5Hz_s35_14.m4a,,,
,,,,,41255,2021-05-26_15h06.24.916,judgeSpeechMusic_20210519_logNormShiftAmp_mXs,2020.1.2,MacIntel,60,,,,,,,,,,,,,,,,,,,,,,,,,,2,6.24605,,0,1,146,296,42,1,stimuli/stim_20210519_power2amp/equal_lnn_AM1Hz_s55_15.m4a,,,
,,,,,41255,2021-05-26_15h06.24.916,judgeSpeechMusic_20210519_logNormShiftAmp_mXs,2020.1.2,MacIntel,60,,,,,,,,,,,,,,,,,,,,,,,,,,1,5.96261,,0,1,147,297,16,1,stimuli/stim_20210519_power2amp/equal_lnn_AM1Hz_s25_13.m4a,,,
,,,,,41255,2021-05-26_15h06.24.916,judgeSpeechMusic_20210519_logNormShiftAmp_mXs,2020.1.2,MacIntel,60,,,,,,,,,,,,,,,,,,,,,,,,,,1,6.188985,,0,1,148,298,79,1,stimuli/stim_20210519_power2amp/equal_lnn_AM2.5Hz_s35_15.m4a,,,
,,,,,41255,2021-05-26_15h06.24.916,judgeSpeechMusic_20210519_logNormShiftAmp_mXs,2020.1.2,MacIntel,60,,,,,,,,,,,,,,,,,,,,,,,,,,2,5.873355,,0,1,149,299,109,1,stimuli/stim_20210519_power2amp/equal_lnn_AM4Hz_s15_37.m4a,,,
,,,,,41255,2021-05-26_15h06.24.916,judgeSpeechMusic_20210519_logNormShiftAmp_mXs,2020.1.2,MacIntel,60,,,,,,,,,,,,,,,,,,,,,,,,,,,,,,,,,,,,,space,4.31236
