volAdjustRep.thisRepN,volAdjustRep.thisTrialN,volAdjustRep.thisN,volAdjustRep.thisIndex,volAdjustRep.ran,participant,date,expName,psychopyVersion,OS,frameRate,headphoneResponse.keys,headphoneResponse.corr,headphoneResponse.rt,headphoneTrial.thisRepN,headphoneTrial.thisTrialN,headphoneTrial.thisN,headphoneTrial.thisIndex,headphoneTrial.ran,headphone_sound1,headphone_sound2,headphone_sound3,corrAns,trainSlider.response,trainSlider.rt,beepTrainResponse.keys,beepTrainResponse.corr,trainingTrials.thisRepN,trainingTrials.thisTrialN,trainingTrials.thisN,trainingTrials.thisIndex,trainingTrials.ran,trainAudioFile,beepTrainResponse.rt,readyReal_resp.keys,readyReal_resp.rt,ratingSlider.response,ratingSlider.rt,beepResp.keys,beepResp.corr,expTrials.thisRepN,expTrials.thisTrialN,expTrials.thisN,expTrials.thisIndex,expTrials.ran,audioFile,beepResp.rt,end_resp.keys,end_resp.rt
0,0,0,0,1,41258,2021-05-31_07h41.18.344,judgeSpeechMusic_20210519_logNormShiftAmp_mXs,2020.1.2,Win32,60,,,,,,,,,,,,,,,,,,,,,,,,,,,,,,,,,,,,,,
,,,,,41258,2021-05-31_07h41.18.344,judgeSpeechMusic_20210519_logNormShiftAmp_mXs,2020.1.2,Win32,60,2,1,0.5467,0,0,0,1,1,stimuli/screen_antiphase.wav,stimuli/screen_quiet.wav,stimuli/screen_origin.wav,2,,,,,,,,,,,,,,,,,,,,,,,,,,
,,,,,41258,2021-05-31_07h41.18.344,judgeSpeechMusic_20210519_logNormShiftAmp_mXs,2020.1.2,Win32,60,3,1,0.5879,0,1,1,0,1,stimuli/screen_antiphase.wav,stimuli/screen_origin.wav,stimuli/screen_quiet.wav,3,,,,,,,,,,,,,,,,,,,,,,,,,,
,,,,,41258,2021-05-31_07h41.18.344,judgeSpeechMusic_20210519_logNormShiftAmp_mXs,2020.1.2,Win32,60,2,1,0.6342,0,2,2,3,1,stimuli/screen_origin.wav,stimuli/screen_quiet.wav,stimuli/screen_antiphase.wav,2,,,,,,,,,,,,,,,,,,,,,,,,,,
,,,,,41258,2021-05-31_07h41.18.344,judgeSpeechMusic_20210519_logNormShiftAmp_mXs,2020.1.2,Win32,60,3,1,0.5235,0,3,3,2,1,stimuli/screen_origin.wav,stimuli/screen_antiphase.wav,stimuli/screen_quiet.wav,3,,,,,,,,,,,,,,,,,,,,,,,,,,
,,,,,41258,2021-05-31_07h41.18.344,judgeSpeechMusic_20210519_logNormShiftAmp_mXs,2020.1.2,Win32,60,1,1,0.6188,0,4,4,4,1,stimuli/screen_quiet.wav,stimuli/screen_antiphase.wav,stimuli/screen_origin.wav,1,,,,,,,,,,,,,,,,,,,,,,,,,,
,,,,,41258,2021-05-31_07h41.18.344,judgeSpeechMusic_20210519_logNormShiftAmp_mXs,2020.1.2,Win32,60,1,1,0.8192,0,5,5,5,1,stimuli/screen_quiet.wav,stimuli/screen_origin.wav,stimuli/screen_antiphase.wav,1,,,,,,,,,,,,,,,,,,,,,,,,,,
,,,,,41258,2021-05-31_07h41.18.344,judgeSpeechMusic_20210519_logNormShiftAmp_mXs,2020.1.2,Win32,60,,,,,,,,,,,,,2,10.4807,,0,0,0,0,0,1,stimuli/stim_20210519_power2amp/equal_lnn_AM_training1.5Hz_s20.m4a,,,,,,,,,,,,,,,,
,,,,,41258,2021-05-31_07h41.18.344,judgeSpeechMusic_20210519_logNormShiftAmp_mXs,2020.1.2,Win32,60,,,,,,,,,,,,,1,6.9755,,0,0,1,1,2,1,stimuli/stim_20210519_power2amp/equal_lnn_AM_training3.5Hz_s20.m4a,,,,,,,,,,,,,,,,
,,,,,41258,2021-05-31_07h41.18.344,judgeSpeechMusic_20210519_logNormShiftAmp_mXs,2020.1.2,Win32,60,,,,,,,,,,,,,2,7.0551,4,1,0,2,2,1,1,stimuli/stim_20210519_power2amp/equal_lnn_AM_training1.5Hz_s50.m4a,1.2873,,,,,,,,,,,,,,,
,,,,,41258,2021-05-31_07h41.18.344,judgeSpeechMusic_20210519_logNormShiftAmp_mXs,2020.1.2,Win32,60,,,,,,,,,,,,,2,7.3726,,0,0,3,3,3,1,stimuli/stim_20210519_power2amp/equal_lnn_AM_training3.5Hz_s50.m4a,,,,,,,,,,,,,,,,
,,,,,41258,2021-05-31_07h41.18.344,judgeSpeechMusic_20210519_logNormShiftAmp_mXs,2020.1.2,Win32,60,,,,,,,,,,,,,,,,,,,,,,,,space,3.2493,2,6.7143,,0,0,0,0,53,1,stimuli/stim_20210519_power2amp/equal_lnn_AM2.5Hz_s15_48.m4a,,,
,,,,,41258,2021-05-31_07h41.18.344,judgeSpeechMusic_20210519_logNormShiftAmp_mXs,2020.1.2,Win32,60,,,,,,,,,,,,,,,,,,,,,,,,,,2,6.37,,0,0,1,1,33,1,stimuli/stim_20210519_power2amp/equal_lnn_AM1Hz_s45_11.m4a,,,
,,,,,41258,2021-05-31_07h41.18.344,judgeSpeechMusic_20210519_logNormShiftAmp_mXs,2020.1.2,Win32,60,,,,,,,,,,,,,,,,,,,,,,,,,,1,6.573,,0,0,2,2,3,1,stimuli/stim_20210519_power2amp/equal_lnn_AM1Hz_s15_48.m4a,,,
,,,,,41258,2021-05-31_07h41.18.344,judgeSpeechMusic_20210519_logNormShiftAmp_mXs,2020.1.2,Win32,60,,,,,,,,,,,,,,,,,,,,,,,,,,1,8.1883,,0,0,3,3,51,1,stimuli/stim_20210519_power2amp/equal_lnn_AM2.5Hz_s15_6.m4a,,,
,,,,,41258,2021-05-31_07h41.18.344,judgeSpeechMusic_20210519_logNormShiftAmp_mXs,2020.1.2,Win32,60,,,,,,,,,,,,,,,,,,,,,,,,,,2,6.3554,,0,0,4,4,104,1,stimuli/stim_20210519_power2amp/equal_lnn_AM4Hz_s15_25.m4a,,,
,,,,,41258,2021-05-31_07h41.18.344,judgeSpeechMusic_20210519_logNormShiftAmp_mXs,2020.1.2,Win32,60,,,,,,,,,,,,,,,,,,,,,,,,,,2,6.3223,,0,0,5,5,52,1,stimuli/stim_20210519_power2amp/equal_lnn_AM2.5Hz_s15_4.m4a,,,
,,,,,41258,2021-05-31_07h41.18.344,judgeSpeechMusic_20210519_logNormShiftAmp_mXs,2020.1.2,Win32,60,,,,,,,,,,,,,,,,,,,,,,,,,,1,6.1121,,0,0,6,6,132,1,stimuli/stim_20210519_power2amp/equal_lnn_AM4Hz_s45_16.m4a,,,
,,,,,41258,2021-05-31_07h41.18.344,judgeSpeechMusic_20210519_logNormShiftAmp_mXs,2020.1.2,Win32,60,,,,,,,,,,,,,,,,,,,,,,,,,,2,10.8966,,0,0,7,7,68,1,stimuli/stim_20210519_power2amp/equal_lnn_AM2.5Hz_s25_36.m4a,,,
,,,,,41258,2021-05-31_07h41.18.344,judgeSpeechMusic_20210519_logNormShiftAmp_mXs,2020.1.2,Win32,60,,,,,,,,,,,,,,,,,,,,,,,,,,2,5.8312,,0,0,8,8,130,1,stimuli/stim_20210519_power2amp/equal_lnn_AM4Hz_s45_38.m4a,,,
,,,,,41258,2021-05-31_07h41.18.344,judgeSpeechMusic_20210519_logNormShiftAmp_mXs,2020.1.2,Win32,60,,,,,,,,,,,,,,,,,,,,,,,,,,1,5.9377,,0,0,9,9,42,1,stimuli/stim_20210519_power2amp/equal_lnn_AM1Hz_s55_17.m4a,,,
,,,,,41258,2021-05-31_07h41.18.344,judgeSpeechMusic_20210519_logNormShiftAmp_mXs,2020.1.2,Win32,60,,,,,,,,,,,,,,,,,,,,,,,,,,2,6.4397,,0,0,10,10,127,1,stimuli/stim_20210519_power2amp/equal_lnn_AM4Hz_s35_27.m4a,,,
,,,,,41258,2021-05-31_07h41.18.344,judgeSpeechMusic_20210519_logNormShiftAmp_mXs,2020.1.2,Win32,60,,,,,,,,,,,,,,,,,,,,,,,,,,2,7.3722,,0,0,11,11,61,1,stimuli/stim_20210519_power2amp/equal_lnn_AM2.5Hz_s25_20.m4a,,,
,,,,,41258,2021-05-31_07h41.18.344,judgeSpeechMusic_20210519_logNormShiftAmp_mXs,2020.1.2,Win32,60,,,,,,,,,,,,,,,,,,,,,,,,,,1,6.3056,,0,0,12,12,4,1,stimuli/stim_20210519_power2amp/equal_lnn_AM1Hz_s15_8.m4a,,,
,,,,,41258,2021-05-31_07h41.18.344,judgeSpeechMusic_20210519_logNormShiftAmp_mXs,2020.1.2,Win32,60,,,,,,,,,,,,,,,,,,,,,,,,,,1,5.8714,,0,0,13,13,17,1,stimuli/stim_20210519_power2amp/equal_lnn_AM1Hz_s25_11.m4a,,,
,,,,,41258,2021-05-31_07h41.18.344,judgeSpeechMusic_20210519_logNormShiftAmp_mXs,2020.1.2,Win32,60,,,,,,,,,,,,,,,,,,,,,,,,,,1,7.4381,,0,0,14,14,101,1,stimuli/stim_20210519_power2amp/equal_lnn_AM4Hz_s15_48.m4a,,,
,,,,,41258,2021-05-31_07h41.18.344,judgeSpeechMusic_20210519_logNormShiftAmp_mXs,2020.1.2,Win32,60,,,,,,,,,,,,,,,,,,,,,,,,,,2,7.2551,,0,0,15,15,75,1,stimuli/stim_20210519_power2amp/equal_lnn_AM2.5Hz_s35_5.m4a,,,
,,,,,41258,2021-05-31_07h41.18.344,judgeSpeechMusic_20210519_logNormShiftAmp_mXs,2020.1.2,Win32,60,,,,,,,,,,,,,,,,,,,,,,,,,,1,6.1799,,0,0,16,16,5,1,stimuli/stim_20210519_power2amp/equal_lnn_AM1Hz_s15_40.m4a,,,
,,,,,41258,2021-05-31_07h41.18.344,judgeSpeechMusic_20210519_logNormShiftAmp_mXs,2020.1.2,Win32,60,,,,,,,,,,,,,,,,,,,,,,,,,,2,5.8224,,0,0,17,17,122,1,stimuli/stim_20210519_power2amp/equal_lnn_AM4Hz_s35_33.m4a,,,
,,,,,41258,2021-05-31_07h41.18.344,judgeSpeechMusic_20210519_logNormShiftAmp_mXs,2020.1.2,Win32,60,,,,,,,,,,,,,,,,,,,,,,,,,,2,6.1067,,0,0,18,18,108,1,stimuli/stim_20210519_power2amp/equal_lnn_AM4Hz_s15_43.m4a,,,
,,,,,41258,2021-05-31_07h41.18.344,judgeSpeechMusic_20210519_logNormShiftAmp_mXs,2020.1.2,Win32,60,,,,,,,,,,,,,,,,,,,,,,,,,,1,6.9718,,0,0,19,19,128,1,stimuli/stim_20210519_power2amp/equal_lnn_AM4Hz_s35_50.m4a,,,
,,,,,41258,2021-05-31_07h41.18.344,judgeSpeechMusic_20210519_logNormShiftAmp_mXs,2020.1.2,Win32,60,,,,,,,,,,,,,,,,,,,,,,,,,,2,6.2764,,0,0,20,20,77,1,stimuli/stim_20210519_power2amp/equal_lnn_AM2.5Hz_s35_16.m4a,,,
,,,,,41258,2021-05-31_07h41.18.344,judgeSpeechMusic_20210519_logNormShiftAmp_mXs,2020.1.2,Win32,60,,,,,,,,,,,,,,,,,,,,,,,,,,2,6.1386,,0,0,21,21,82,1,stimuli/stim_20210519_power2amp/equal_lnn_AM2.5Hz_s45_29.m4a,,,
,,,,,41258,2021-05-31_07h41.18.344,judgeSpeechMusic_20210519_logNormShiftAmp_mXs,2020.1.2,Win32,60,,,,,,,,,,,,,,,,,,,,,,,,,,2,5.8727,,0,0,22,22,147,1,stimuli/stim_20210519_power2amp/equal_lnn_AM4Hz_s55_48.m4a,,,
,,,,,41258,2021-05-31_07h41.18.344,judgeSpeechMusic_20210519_logNormShiftAmp_mXs,2020.1.2,Win32,60,,,,,,,,,,,,,,,,,,,,,,,,,,1,6.331,,0,0,23,23,10,1,stimuli/stim_20210519_power2amp/equal_lnn_AM1Hz_s25_31.m4a,,,
,,,,,41258,2021-05-31_07h41.18.344,judgeSpeechMusic_20210519_logNormShiftAmp_mXs,2020.1.2,Win32,60,,,,,,,,,,,,,,,,,,,,,,,,,,1,7.812,,0,0,24,24,91,1,stimuli/stim_20210519_power2amp/equal_lnn_AM2.5Hz_s55_49.m4a,,,
,,,,,41258,2021-05-31_07h41.18.344,judgeSpeechMusic_20210519_logNormShiftAmp_mXs,2020.1.2,Win32,60,,,,,,,,,,,,,,,,,,,,,,,,,,1,5.9454,,0,0,25,25,44,1,stimuli/stim_20210519_power2amp/equal_lnn_AM1Hz_s55_5.m4a,,,
,,,,,41258,2021-05-31_07h41.18.344,judgeSpeechMusic_20210519_logNormShiftAmp_mXs,2020.1.2,Win32,60,,,,,,,,,,,,,,,,,,,,,,,,,,1,6.6894,,0,0,26,26,47,1,stimuli/stim_20210519_power2amp/equal_lnn_AM1Hz_s55_2.m4a,,,
,,,,,41258,2021-05-31_07h41.18.344,judgeSpeechMusic_20210519_logNormShiftAmp_mXs,2020.1.2,Win32,60,,,,,,,,,,,,,,,,,,,,,,,,,,1,5.9055,,0,0,27,27,7,1,stimuli/stim_20210519_power2amp/equal_lnn_AM1Hz_s15_9.m4a,,,
,,,,,41258,2021-05-31_07h41.18.344,judgeSpeechMusic_20210519_logNormShiftAmp_mXs,2020.1.2,Win32,60,,,,,,,,,,,,,,,,,,,,,,,,,,1,6.6391,,0,0,28,28,16,1,stimuli/stim_20210519_power2amp/equal_lnn_AM1Hz_s25_8.m4a,,,
,,,,,41258,2021-05-31_07h41.18.344,judgeSpeechMusic_20210519_logNormShiftAmp_mXs,2020.1.2,Win32,60,,,,,,,,,,,,,,,,,,,,,,,,,,1,6.3613,,0,0,29,29,138,1,stimuli/stim_20210519_power2amp/equal_lnn_AM4Hz_s45_25.m4a,,,
,,,,,41258,2021-05-31_07h41.18.344,judgeSpeechMusic_20210519_logNormShiftAmp_mXs,2020.1.2,Win32,60,,,,,,,,,,,,,,,,,,,,,,,,,,2,5.8546,,0,0,30,30,88,1,stimuli/stim_20210519_power2amp/equal_lnn_AM2.5Hz_s45_11.m4a,,,
,,,,,41258,2021-05-31_07h41.18.344,judgeSpeechMusic_20210519_logNormShiftAmp_mXs,2020.1.2,Win32,60,,,,,,,,,,,,,,,,,,,,,,,,,,2,6.7605,,0,0,31,31,112,1,stimuli/stim_20210519_power2amp/equal_lnn_AM4Hz_s25_50.m4a,,,
,,,,,41258,2021-05-31_07h41.18.344,judgeSpeechMusic_20210519_logNormShiftAmp_mXs,2020.1.2,Win32,60,,,,,,,,,,,,,,,,,,,,,,,,,,1,5.9392,2,1,0,32,32,25,1,stimuli/stim_20210519_power2amp/equal_lnn_AM1Hz_s35_43.m4a,1.1033,,
,,,,,41258,2021-05-31_07h41.18.344,judgeSpeechMusic_20210519_logNormShiftAmp_mXs,2020.1.2,Win32,60,,,,,,,,,,,,,,,,,,,,,,,,,,2,6.4707,,0,0,33,33,60,1,stimuli/stim_20210519_power2amp/equal_lnn_AM2.5Hz_s25_47.m4a,,,
,,,,,41258,2021-05-31_07h41.18.344,judgeSpeechMusic_20210519_logNormShiftAmp_mXs,2020.1.2,Win32,60,,,,,,,,,,,,,,,,,,,,,,,,,,2,8.6381,,0,0,34,34,41,1,stimuli/stim_20210519_power2amp/equal_lnn_AM1Hz_s55_22.m4a,,,
,,,,,41258,2021-05-31_07h41.18.344,judgeSpeechMusic_20210519_logNormShiftAmp_mXs,2020.1.2,Win32,60,,,,,,,,,,,,,,,,,,,,,,,,,,2,5.9722,,0,0,35,35,71,1,stimuli/stim_20210519_power2amp/equal_lnn_AM2.5Hz_s35_9.m4a,,,
,,,,,41258,2021-05-31_07h41.18.344,judgeSpeechMusic_20210519_logNormShiftAmp_mXs,2020.1.2,Win32,60,,,,,,,,,,,,,,,,,,,,,,,,,,1,6.0963,,0,0,36,36,140,1,stimuli/stim_20210519_power2amp/equal_lnn_AM4Hz_s55_41.m4a,,,
,,,,,41258,2021-05-31_07h41.18.344,judgeSpeechMusic_20210519_logNormShiftAmp_mXs,2020.1.2,Win32,60,,,,,,,,,,,,,,,,,,,,,,,,,,2,6.2036,,0,0,37,37,129,1,stimuli/stim_20210519_power2amp/equal_lnn_AM4Hz_s35_41.m4a,,,
,,,,,41258,2021-05-31_07h41.18.344,judgeSpeechMusic_20210519_logNormShiftAmp_mXs,2020.1.2,Win32,60,,,,,,,,,,,,,,,,,,,,,,,,,,2,6.9723,,0,0,38,38,139,1,stimuli/stim_20210519_power2amp/equal_lnn_AM4Hz_s45_24.m4a,,,
,,,,,41258,2021-05-31_07h41.18.344,judgeSpeechMusic_20210519_logNormShiftAmp_mXs,2020.1.2,Win32,60,,,,,,,,,,,,,,,,,,,,,,,,,,1,6.3284,,0,0,39,39,26,1,stimuli/stim_20210519_power2amp/equal_lnn_AM1Hz_s35_3.m4a,,,
,,,,,41258,2021-05-31_07h41.18.344,judgeSpeechMusic_20210519_logNormShiftAmp_mXs,2020.1.2,Win32,60,,,,,,,,,,,,,,,,,,,,,,,,,,2,6.2006,,0,0,40,40,141,1,stimuli/stim_20210519_power2amp/equal_lnn_AM4Hz_s55_47.m4a,,,
,,,,,41258,2021-05-31_07h41.18.344,judgeSpeechMusic_20210519_logNormShiftAmp_mXs,2020.1.2,Win32,60,,,,,,,,,,,,,,,,,,,,,,,,,,2,6.0556,,0,0,41,41,137,1,stimuli/stim_20210519_power2amp/equal_lnn_AM4Hz_s45_8.m4a,,,
,,,,,41258,2021-05-31_07h41.18.344,judgeSpeechMusic_20210519_logNormShiftAmp_mXs,2020.1.2,Win32,60,,,,,,,,,,,,,,,,,,,,,,,,,,2,6.6728,,0,0,42,42,6,1,stimuli/stim_20210519_power2amp/equal_lnn_AM1Hz_s15_50.m4a,,,
,,,,,41258,2021-05-31_07h41.18.344,judgeSpeechMusic_20210519_logNormShiftAmp_mXs,2020.1.2,Win32,60,,,,,,,,,,,,,,,,,,,,,,,,,,1,6.8811,,0,0,43,43,145,1,stimuli/stim_20210519_power2amp/equal_lnn_AM4Hz_s55_20.m4a,,,
,,,,,41258,2021-05-31_07h41.18.344,judgeSpeechMusic_20210519_logNormShiftAmp_mXs,2020.1.2,Win32,60,,,,,,,,,,,,,,,,,,,,,,,,,,1,7.222,,0,0,44,44,14,1,stimuli/stim_20210519_power2amp/equal_lnn_AM1Hz_s25_50.m4a,,,
,,,,,41258,2021-05-31_07h41.18.344,judgeSpeechMusic_20210519_logNormShiftAmp_mXs,2020.1.2,Win32,60,,,,,,,,,,,,,,,,,,,,,,,,,,2,8.9895,,0,0,45,45,43,1,stimuli/stim_20210519_power2amp/equal_lnn_AM1Hz_s55_37.m4a,,,
,,,,,41258,2021-05-31_07h41.18.344,judgeSpeechMusic_20210519_logNormShiftAmp_mXs,2020.1.2,Win32,60,,,,,,,,,,,,,,,,,,,,,,,,,,2,5.8887,,0,0,46,46,84,1,stimuli/stim_20210519_power2amp/equal_lnn_AM2.5Hz_s45_23.m4a,,,
,,,,,41258,2021-05-31_07h41.18.344,judgeSpeechMusic_20210519_logNormShiftAmp_mXs,2020.1.2,Win32,60,,,,,,,,,,,,,,,,,,,,,,,,,,1,6.1285,,0,0,47,47,27,1,stimuli/stim_20210519_power2amp/equal_lnn_AM1Hz_s35_12.m4a,,,
,,,,,41258,2021-05-31_07h41.18.344,judgeSpeechMusic_20210519_logNormShiftAmp_mXs,2020.1.2,Win32,60,,,,,,,,,,,,,,,,,,,,,,,,,,2,6.7055,,0,0,48,48,105,1,stimuli/stim_20210519_power2amp/equal_lnn_AM4Hz_s15_7.m4a,,,
,,,,,41258,2021-05-31_07h41.18.344,judgeSpeechMusic_20210519_logNormShiftAmp_mXs,2020.1.2,Win32,60,,,,,,,,,,,,,,,,,,,,,,,,,,2,6.7085,,0,0,49,49,74,1,stimuli/stim_20210519_power2amp/equal_lnn_AM2.5Hz_s35_28.m4a,,,
,,,,,41258,2021-05-31_07h41.18.344,judgeSpeechMusic_20210519_logNormShiftAmp_mXs,2020.1.2,Win32,60,,,,,,,,,,,,,,,,,,,,,,,,,,2,7.255,,0,0,50,50,100,1,stimuli/stim_20210519_power2amp/equal_lnn_AM4Hz_s15_47.m4a,,,
,,,,,41258,2021-05-31_07h41.18.344,judgeSpeechMusic_20210519_logNormShiftAmp_mXs,2020.1.2,Win32,60,,,,,,,,,,,,,,,,,,,,,,,,,,2,5.9774,,0,0,51,51,99,1,stimuli/stim_20210519_power2amp/equal_lnn_AM2.5Hz_s55_41.m4a,,,
,,,,,41258,2021-05-31_07h41.18.344,judgeSpeechMusic_20210519_logNormShiftAmp_mXs,2020.1.2,Win32,60,,,,,,,,,,,,,,,,,,,,,,,,,,2,5.9221,,0,0,52,52,55,1,stimuli/stim_20210519_power2amp/equal_lnn_AM2.5Hz_s15_31.m4a,,,
,,,,,41258,2021-05-31_07h41.18.344,judgeSpeechMusic_20210519_logNormShiftAmp_mXs,2020.1.2,Win32,60,,,,,,,,,,,,,,,,,,,,,,,,,,1,5.9387,,0,0,53,53,135,1,stimuli/stim_20210519_power2amp/equal_lnn_AM4Hz_s45_40.m4a,,,
,,,,,41258,2021-05-31_07h41.18.344,judgeSpeechMusic_20210519_logNormShiftAmp_mXs,2020.1.2,Win32,60,,,,,,,,,,,,,,,,,,,,,,,,,,1,6.3892,,0,0,54,54,31,1,stimuli/stim_20210519_power2amp/equal_lnn_AM1Hz_s45_46.m4a,,,
,,,,,41258,2021-05-31_07h41.18.344,judgeSpeechMusic_20210519_logNormShiftAmp_mXs,2020.1.2,Win32,60,,,,,,,,,,,,,,,,,,,,,,,,,,2,6.0955,,0,0,55,55,73,1,stimuli/stim_20210519_power2amp/equal_lnn_AM2.5Hz_s35_26.m4a,,,
,,,,,41258,2021-05-31_07h41.18.344,judgeSpeechMusic_20210519_logNormShiftAmp_mXs,2020.1.2,Win32,60,,,,,,,,,,,,,,,,,,,,,,,,,,1,7.8063,2,1,0,56,56,13,1,stimuli/stim_20210519_power2amp/equal_lnn_AM1Hz_s25_17.m4a,0.7579,,
,,,,,41258,2021-05-31_07h41.18.344,judgeSpeechMusic_20210519_logNormShiftAmp_mXs,2020.1.2,Win32,60,,,,,,,,,,,,,,,,,,,,,,,,,,2,6.9532,,0,0,57,57,72,1,stimuli/stim_20210519_power2amp/equal_lnn_AM2.5Hz_s35_39.m4a,,,
,,,,,41258,2021-05-31_07h41.18.344,judgeSpeechMusic_20210519_logNormShiftAmp_mXs,2020.1.2,Win32,60,,,,,,,,,,,,,,,,,,,,,,,,,,2,5.9109,,0,0,58,58,98,1,stimuli/stim_20210519_power2amp/equal_lnn_AM2.5Hz_s55_11.m4a,,,
,,,,,41258,2021-05-31_07h41.18.344,judgeSpeechMusic_20210519_logNormShiftAmp_mXs,2020.1.2,Win32,60,,,,,,,,,,,,,,,,,,,,,,,,,,1,6.3386,,0,0,59,59,78,1,stimuli/stim_20210519_power2amp/equal_lnn_AM2.5Hz_s35_2.m4a,,,
,,,,,41258,2021-05-31_07h41.18.344,judgeSpeechMusic_20210519_logNormShiftAmp_mXs,2020.1.2,Win32,60,,,,,,,,,,,,,,,,,,,,,,,,,,1,6.6731,,0,0,60,60,2,1,stimuli/stim_20210519_power2amp/equal_lnn_AM1Hz_s15_25.m4a,,,
,,,,,41258,2021-05-31_07h41.18.344,judgeSpeechMusic_20210519_logNormShiftAmp_mXs,2020.1.2,Win32,60,,,,,,,,,,,,,,,,,,,,,,,,,,2,6.0435,,0,0,61,61,113,1,stimuli/stim_20210519_power2amp/equal_lnn_AM4Hz_s25_12.m4a,,,
,,,,,41258,2021-05-31_07h41.18.344,judgeSpeechMusic_20210519_logNormShiftAmp_mXs,2020.1.2,Win32,60,,,,,,,,,,,,,,,,,,,,,,,,,,1,7.356,,0,0,62,62,45,1,stimuli/stim_20210519_power2amp/equal_lnn_AM1Hz_s55_20.m4a,,,
,,,,,41258,2021-05-31_07h41.18.344,judgeSpeechMusic_20210519_logNormShiftAmp_mXs,2020.1.2,Win32,60,,,,,,,,,,,,,,,,,,,,,,,,,,2,5.9893,,0,0,63,63,83,1,stimuli/stim_20210519_power2amp/equal_lnn_AM2.5Hz_s45_6.m4a,,,
,,,,,41258,2021-05-31_07h41.18.344,judgeSpeechMusic_20210519_logNormShiftAmp_mXs,2020.1.2,Win32,60,,,,,,,,,,,,,,,,,,,,,,,,,,2,6.8724,,0,0,64,64,92,1,stimuli/stim_20210519_power2amp/equal_lnn_AM2.5Hz_s55_40.m4a,,,
,,,,,41258,2021-05-31_07h41.18.344,judgeSpeechMusic_20210519_logNormShiftAmp_mXs,2020.1.2,Win32,60,,,,,,,,,,,,,,,,,,,,,,,,,,1,6.3386,,0,0,65,65,24,1,stimuli/stim_20210519_power2amp/equal_lnn_AM1Hz_s35_42.m4a,,,
,,,,,41258,2021-05-31_07h41.18.344,judgeSpeechMusic_20210519_logNormShiftAmp_mXs,2020.1.2,Win32,60,,,,,,,,,,,,,,,,,,,,,,,,,,2,6.6972,,0,0,66,66,117,1,stimuli/stim_20210519_power2amp/equal_lnn_AM4Hz_s25_23.m4a,,,
,,,,,41258,2021-05-31_07h41.18.344,judgeSpeechMusic_20210519_logNormShiftAmp_mXs,2020.1.2,Win32,60,,,,,,,,,,,,,,,,,,,,,,,,,,2,8.1404,,0,0,67,67,89,1,stimuli/stim_20210519_power2amp/equal_lnn_AM2.5Hz_s45_48.m4a,,,
,,,,,41258,2021-05-31_07h41.18.344,judgeSpeechMusic_20210519_logNormShiftAmp_mXs,2020.1.2,Win32,60,,,,,,,,,,,,,,,,,,,,,,,,,,1,5.9889,,0,0,68,68,38,1,stimuli/stim_20210519_power2amp/equal_lnn_AM1Hz_s45_44.m4a,,,
,,,,,41258,2021-05-31_07h41.18.344,judgeSpeechMusic_20210519_logNormShiftAmp_mXs,2020.1.2,Win32,60,,,,,,,,,,,,,,,,,,,,,,,,,,1,5.9237,,0,0,69,69,93,1,stimuli/stim_20210519_power2amp/equal_lnn_AM2.5Hz_s55_20.m4a,,,
,,,,,41258,2021-05-31_07h41.18.344,judgeSpeechMusic_20210519_logNormShiftAmp_mXs,2020.1.2,Win32,60,,,,,,,,,,,,,,,,,,,,,,,,,,1,6.1554,,0,0,70,70,1,1,stimuli/stim_20210519_power2amp/equal_lnn_AM1Hz_s15_2.m4a,,,
,,,,,41258,2021-05-31_07h41.18.344,judgeSpeechMusic_20210519_logNormShiftAmp_mXs,2020.1.2,Win32,60,,,,,,,,,,,,,,,,,,,,,,,,,,1,6.594,,0,0,71,71,57,1,stimuli/stim_20210519_power2amp/equal_lnn_AM2.5Hz_s15_43.m4a,,,
,,,,,41258,2021-05-31_07h41.18.344,judgeSpeechMusic_20210519_logNormShiftAmp_mXs,2020.1.2,Win32,60,,,,,,,,,,,,,,,,,,,,,,,,,,2,5.8058,,0,0,72,72,114,1,stimuli/stim_20210519_power2amp/equal_lnn_AM4Hz_s25_25.m4a,,,
,,,,,41258,2021-05-31_07h41.18.344,judgeSpeechMusic_20210519_logNormShiftAmp_mXs,2020.1.2,Win32,60,,,,,,,,,,,,,,,,,,,,,,,,,,2,6.0221,,0,0,73,73,133,1,stimuli/stim_20210519_power2amp/equal_lnn_AM4Hz_s45_13.m4a,,,
,,,,,41258,2021-05-31_07h41.18.344,judgeSpeechMusic_20210519_logNormShiftAmp_mXs,2020.1.2,Win32,60,,,,,,,,,,,,,,,,,,,,,,,,,,2,7.3449,,0,0,74,74,40,1,stimuli/stim_20210519_power2amp/equal_lnn_AM1Hz_s55_15.m4a,,,
,,,,,41258,2021-05-31_07h41.18.344,judgeSpeechMusic_20210519_logNormShiftAmp_mXs,2020.1.2,Win32,60,,,,,,,,,,,,,,,,,,,,,,,,,,1,6.0577,,0,0,75,75,20,1,stimuli/stim_20210519_power2amp/equal_lnn_AM1Hz_s35_40.m4a,,,
,,,,,41258,2021-05-31_07h41.18.344,judgeSpeechMusic_20210519_logNormShiftAmp_mXs,2020.1.2,Win32,60,,,,,,,,,,,,,,,,,,,,,,,,,,2,6.9892,,0,0,76,76,96,1,stimuli/stim_20210519_power2amp/equal_lnn_AM2.5Hz_s55_6.m4a,,,
,,,,,41258,2021-05-31_07h41.18.344,judgeSpeechMusic_20210519_logNormShiftAmp_mXs,2020.1.2,Win32,60,,,,,,,,,,,,,,,,,,,,,,,,,,1,6.3403,,0,0,77,77,136,1,stimuli/stim_20210519_power2amp/equal_lnn_AM4Hz_s45_47.m4a,,,
,,,,,41258,2021-05-31_07h41.18.344,judgeSpeechMusic_20210519_logNormShiftAmp_mXs,2020.1.2,Win32,60,,,,,,,,,,,,,,,,,,,,,,,,,,2,6.6723,,0,0,78,78,111,1,stimuli/stim_20210519_power2amp/equal_lnn_AM4Hz_s25_22.m4a,,,
,,,,,41258,2021-05-31_07h41.18.344,judgeSpeechMusic_20210519_logNormShiftAmp_mXs,2020.1.2,Win32,60,,,,,,,,,,,,,,,,,,,,,,,,,,1,5.9218,,0,0,79,79,36,1,stimuli/stim_20210519_power2amp/equal_lnn_AM1Hz_s45_35.m4a,,,
,,,,,41258,2021-05-31_07h41.18.344,judgeSpeechMusic_20210519_logNormShiftAmp_mXs,2020.1.2,Win32,60,,,,,,,,,,,,,,,,,,,,,,,,,,1,8.1704,,0,0,80,80,59,1,stimuli/stim_20210519_power2amp/equal_lnn_AM2.5Hz_s15_40.m4a,,,
,,,,,41258,2021-05-31_07h41.18.344,judgeSpeechMusic_20210519_logNormShiftAmp_mXs,2020.1.2,Win32,60,,,,,,,,,,,,,,,,,,,,,,,,,,1,5.9225,4,1,0,81,81,146,1,stimuli/stim_20210519_power2amp/equal_lnn_AM4Hz_s55_42.m4a,0.5422,,
,,,,,41258,2021-05-31_07h41.18.344,judgeSpeechMusic_20210519_logNormShiftAmp_mXs,2020.1.2,Win32,60,,,,,,,,,,,,,,,,,,,,,,,,,,1,6.4227,,0,0,82,82,22,1,stimuli/stim_20210519_power2amp/equal_lnn_AM1Hz_s35_33.m4a,,,
,,,,,41258,2021-05-31_07h41.18.344,judgeSpeechMusic_20210519_logNormShiftAmp_mXs,2020.1.2,Win32,60,,,,,,,,,,,,,,,,,,,,,,,,,,2,8.0887,,0,0,83,83,15,1,stimuli/stim_20210519_power2amp/equal_lnn_AM1Hz_s25_39.m4a,,,
,,,,,41258,2021-05-31_07h41.18.344,judgeSpeechMusic_20210519_logNormShiftAmp_mXs,2020.1.2,Win32,60,,,,,,,,,,,,,,,,,,,,,,,,,,2,5.8587,,0,0,84,84,62,1,stimuli/stim_20210519_power2amp/equal_lnn_AM2.5Hz_s25_13.m4a,,,
,,,,,41258,2021-05-31_07h41.18.344,judgeSpeechMusic_20210519_logNormShiftAmp_mXs,2020.1.2,Win32,60,,,,,,,,,,,,,,,,,,,,,,,,,,2,8.5646,,0,0,85,85,80,1,stimuli/stim_20210519_power2amp/equal_lnn_AM2.5Hz_s45_4.m4a,,,
,,,,,41258,2021-05-31_07h41.18.344,judgeSpeechMusic_20210519_logNormShiftAmp_mXs,2020.1.2,Win32,60,,,,,,,,,,,,,,,,,,,,,,,,,,1,6.4789,,0,0,86,86,102,1,stimuli/stim_20210519_power2amp/equal_lnn_AM4Hz_s15_11.m4a,,,
,,,,,41258,2021-05-31_07h41.18.344,judgeSpeechMusic_20210519_logNormShiftAmp_mXs,2020.1.2,Win32,60,,,,,,,,,,,,,,,,,,,,,,,,,,1,6.206,,0,0,87,87,90,1,stimuli/stim_20210519_power2amp/equal_lnn_AM2.5Hz_s55_31.m4a,,,
,,,,,41258,2021-05-31_07h41.18.344,judgeSpeechMusic_20210519_logNormShiftAmp_mXs,2020.1.2,Win32,60,,,,,,,,,,,,,,,,,,,,,,,,,,2,7.0809,,0,0,88,88,64,1,stimuli/stim_20210519_power2amp/equal_lnn_AM2.5Hz_s25_50.m4a,,,
,,,,,41258,2021-05-31_07h41.18.344,judgeSpeechMusic_20210519_logNormShiftAmp_mXs,2020.1.2,Win32,60,,,,,,,,,,,,,,,,,,,,,,,,,,2,5.9906,,0,0,89,89,79,1,stimuli/stim_20210519_power2amp/equal_lnn_AM2.5Hz_s35_13.m4a,,,
,,,,,41258,2021-05-31_07h41.18.344,judgeSpeechMusic_20210519_logNormShiftAmp_mXs,2020.1.2,Win32,60,,,,,,,,,,,,,,,,,,,,,,,,,,2,6.1696,,0,0,90,90,29,1,stimuli/stim_20210519_power2amp/equal_lnn_AM1Hz_s35_39.m4a,,,
,,,,,41258,2021-05-31_07h41.18.344,judgeSpeechMusic_20210519_logNormShiftAmp_mXs,2020.1.2,Win32,60,,,,,,,,,,,,,,,,,,,,,,,,,,2,6.1974,,0,0,91,91,21,1,stimuli/stim_20210519_power2amp/equal_lnn_AM1Hz_s35_27.m4a,,,
,,,,,41258,2021-05-31_07h41.18.344,judgeSpeechMusic_20210519_logNormShiftAmp_mXs,2020.1.2,Win32,60,,,,,,,,,,,,,,,,,,,,,,,,,,1,5.9464,,0,0,92,92,107,1,stimuli/stim_20210519_power2amp/equal_lnn_AM4Hz_s15_16.m4a,,,
,,,,,41258,2021-05-31_07h41.18.344,judgeSpeechMusic_20210519_logNormShiftAmp_mXs,2020.1.2,Win32,60,,,,,,,,,,,,,,,,,,,,,,,,,,2,5.7771,,0,0,93,93,63,1,stimuli/stim_20210519_power2amp/equal_lnn_AM2.5Hz_s25_42.m4a,,,
,,,,,41258,2021-05-31_07h41.18.344,judgeSpeechMusic_20210519_logNormShiftAmp_mXs,2020.1.2,Win32,60,,,,,,,,,,,,,,,,,,,,,,,,,,2,5.6891,,0,0,94,94,103,1,stimuli/stim_20210519_power2amp/equal_lnn_AM4Hz_s15_18.m4a,,,
,,,,,41258,2021-05-31_07h41.18.344,judgeSpeechMusic_20210519_logNormShiftAmp_mXs,2020.1.2,Win32,60,,,,,,,,,,,,,,,,,,,,,,,,,,2,6.2555,,0,0,95,95,66,1,stimuli/stim_20210519_power2amp/equal_lnn_AM2.5Hz_s25_9.m4a,,,
,,,,,41258,2021-05-31_07h41.18.344,judgeSpeechMusic_20210519_logNormShiftAmp_mXs,2020.1.2,Win32,60,,,,,,,,,,,,,,,,,,,,,,,,,,2,5.7305,,0,0,96,96,86,1,stimuli/stim_20210519_power2amp/equal_lnn_AM2.5Hz_s45_40.m4a,,,
,,,,,41258,2021-05-31_07h41.18.344,judgeSpeechMusic_20210519_logNormShiftAmp_mXs,2020.1.2,Win32,60,,,,,,,,,,,,,,,,,,,,,,,,,,1,5.9461,,0,0,97,97,124,1,stimuli/stim_20210519_power2amp/equal_lnn_AM4Hz_s35_47.m4a,,,
,,,,,41258,2021-05-31_07h41.18.344,judgeSpeechMusic_20210519_logNormShiftAmp_mXs,2020.1.2,Win32,60,,,,,,,,,,,,,,,,,,,,,,,,,,1,5.7894,,0,0,98,98,46,1,stimuli/stim_20210519_power2amp/equal_lnn_AM1Hz_s55_32.m4a,,,
,,,,,41258,2021-05-31_07h41.18.344,judgeSpeechMusic_20210519_logNormShiftAmp_mXs,2020.1.2,Win32,60,,,,,,,,,,,,,,,,,,,,,,,,,,2,5.7393,,0,0,99,99,87,1,stimuli/stim_20210519_power2amp/equal_lnn_AM2.5Hz_s45_2.m4a,,,
,,,,,41258,2021-05-31_07h41.18.344,judgeSpeechMusic_20210519_logNormShiftAmp_mXs,2020.1.2,Win32,60,,,,,,,,,,,,,,,,,,,,,,,,,,2,6.523,,0,0,100,100,126,1,stimuli/stim_20210519_power2amp/equal_lnn_AM4Hz_s35_39.m4a,,,
,,,,,41258,2021-05-31_07h41.18.344,judgeSpeechMusic_20210519_logNormShiftAmp_mXs,2020.1.2,Win32,60,,,,,,,,,,,,,,,,,,,,,,,,,,1,6.6601,3,0,0,101,101,23,1,stimuli/stim_20210519_power2amp/equal_lnn_AM1Hz_s35_34.m4a,3.6584,,
,,,,,41258,2021-05-31_07h41.18.344,judgeSpeechMusic_20210519_logNormShiftAmp_mXs,2020.1.2,Win32,60,,,,,,,,,,,,,,,,,,,,,,,,,,2,6.5195,,0,0,102,102,35,1,stimuli/stim_20210519_power2amp/equal_lnn_AM1Hz_s45_48.m4a,,,
,,,,,41258,2021-05-31_07h41.18.344,judgeSpeechMusic_20210519_logNormShiftAmp_mXs,2020.1.2,Win32,60,,,,,,,,,,,,,,,,,,,,,,,,,,1,6.3472,,0,0,103,103,37,1,stimuli/stim_20210519_power2amp/equal_lnn_AM1Hz_s45_21.m4a,,,
,,,,,41258,2021-05-31_07h41.18.344,judgeSpeechMusic_20210519_logNormShiftAmp_mXs,2020.1.2,Win32,60,,,,,,,,,,,,,,,,,,,,,,,,,,1,6.0389,,0,0,104,104,48,1,stimuli/stim_20210519_power2amp/equal_lnn_AM1Hz_s55_14.m4a,,,
,,,,,41258,2021-05-31_07h41.18.344,judgeSpeechMusic_20210519_logNormShiftAmp_mXs,2020.1.2,Win32,60,,,,,,,,,,,,,,,,,,,,,,,,,,1,6.789,,0,0,105,105,69,1,stimuli/stim_20210519_power2amp/equal_lnn_AM2.5Hz_s25_8.m4a,,,
,,,,,41258,2021-05-31_07h41.18.344,judgeSpeechMusic_20210519_logNormShiftAmp_mXs,2020.1.2,Win32,60,,,,,,,,,,,,,,,,,,,,,,,,,,1,6.0278,,0,0,106,106,115,1,stimuli/stim_20210519_power2amp/equal_lnn_AM4Hz_s25_29.m4a,,,
,,,,,41258,2021-05-31_07h41.18.344,judgeSpeechMusic_20210519_logNormShiftAmp_mXs,2020.1.2,Win32,60,,,,,,,,,,,,,,,,,,,,,,,,,,2,6.6563,,0,0,107,107,116,1,stimuli/stim_20210519_power2amp/equal_lnn_AM4Hz_s25_47.m4a,,,
,,,,,41258,2021-05-31_07h41.18.344,judgeSpeechMusic_20210519_logNormShiftAmp_mXs,2020.1.2,Win32,60,,,,,,,,,,,,,,,,,,,,,,,,,,2,6.256,,0,0,108,108,50,1,stimuli/stim_20210519_power2amp/equal_lnn_AM2.5Hz_s15_37.m4a,,,
,,,,,41258,2021-05-31_07h41.18.344,judgeSpeechMusic_20210519_logNormShiftAmp_mXs,2020.1.2,Win32,60,,,,,,,,,,,,,,,,,,,,,,,,,,2,6.806,,0,0,109,109,142,1,stimuli/stim_20210519_power2amp/equal_lnn_AM4Hz_s55_29.m4a,,,
,,,,,41258,2021-05-31_07h41.18.344,judgeSpeechMusic_20210519_logNormShiftAmp_mXs,2020.1.2,Win32,60,,,,,,,,,,,,,,,,,,,,,,,,,,2,6.2096,,0,0,110,110,121,1,stimuli/stim_20210519_power2amp/equal_lnn_AM4Hz_s35_31.m4a,,,
,,,,,41258,2021-05-31_07h41.18.344,judgeSpeechMusic_20210519_logNormShiftAmp_mXs,2020.1.2,Win32,60,,,,,,,,,,,,,,,,,,,,,,,,,,1,7.2228,,0,0,111,111,58,1,stimuli/stim_20210519_power2amp/equal_lnn_AM2.5Hz_s15_29.m4a,,,
,,,,,41258,2021-05-31_07h41.18.344,judgeSpeechMusic_20210519_logNormShiftAmp_mXs,2020.1.2,Win32,60,,,,,,,,,,,,,,,,,,,,,,,,,,1,6.4723,,0,0,112,112,134,1,stimuli/stim_20210519_power2amp/equal_lnn_AM4Hz_s45_46.m4a,,,
,,,,,41258,2021-05-31_07h41.18.344,judgeSpeechMusic_20210519_logNormShiftAmp_mXs,2020.1.2,Win32,60,,,,,,,,,,,,,,,,,,,,,,,,,,2,6.0558,,0,0,113,113,131,1,stimuli/stim_20210519_power2amp/equal_lnn_AM4Hz_s45_35.m4a,,,
,,,,,41258,2021-05-31_07h41.18.344,judgeSpeechMusic_20210519_logNormShiftAmp_mXs,2020.1.2,Win32,60,,,,,,,,,,,,,,,,,,,,,,,,,,1,6.5646,,0,0,114,114,34,1,stimuli/stim_20210519_power2amp/equal_lnn_AM1Hz_s45_24.m4a,,,
,,,,,41258,2021-05-31_07h41.18.344,judgeSpeechMusic_20210519_logNormShiftAmp_mXs,2020.1.2,Win32,60,,,,,,,,,,,,,,,,,,,,,,,,,,2,7.1219,,0,0,115,115,125,1,stimuli/stim_20210519_power2amp/equal_lnn_AM4Hz_s35_28.m4a,,,
,,,,,41258,2021-05-31_07h41.18.344,judgeSpeechMusic_20210519_logNormShiftAmp_mXs,2020.1.2,Win32,60,,,,,,,,,,,,,,,,,,,,,,,,,,2,6.0123,,0,0,116,116,143,1,stimuli/stim_20210519_power2amp/equal_lnn_AM4Hz_s55_3.m4a,,,
,,,,,41258,2021-05-31_07h41.18.344,judgeSpeechMusic_20210519_logNormShiftAmp_mXs,2020.1.2,Win32,60,,,,,,,,,,,,,,,,,,,,,,,,,,1,7.0269,,0,0,117,117,28,1,stimuli/stim_20210519_power2amp/equal_lnn_AM1Hz_s35_41.m4a,,,
,,,,,41258,2021-05-31_07h41.18.344,judgeSpeechMusic_20210519_logNormShiftAmp_mXs,2020.1.2,Win32,60,,,,,,,,,,,,,,,,,,,,,,,,,,1,7.2467,,0,0,118,118,39,1,stimuli/stim_20210519_power2amp/equal_lnn_AM1Hz_s45_15.m4a,,,
,,,,,41258,2021-05-31_07h41.18.344,judgeSpeechMusic_20210519_logNormShiftAmp_mXs,2020.1.2,Win32,60,,,,,,,,,,,,,,,,,,,,,,,,,,2,6.8398,,0,0,119,119,95,1,stimuli/stim_20210519_power2amp/equal_lnn_AM2.5Hz_s55_9.m4a,,,
,,,,,41258,2021-05-31_07h41.18.344,judgeSpeechMusic_20210519_logNormShiftAmp_mXs,2020.1.2,Win32,60,,,,,,,,,,,,,,,,,,,,,,,,,,1,6.7546,,0,0,120,120,8,1,stimuli/stim_20210519_power2amp/equal_lnn_AM1Hz_s15_38.m4a,,,
,,,,,41258,2021-05-31_07h41.18.344,judgeSpeechMusic_20210519_logNormShiftAmp_mXs,2020.1.2,Win32,60,,,,,,,,,,,,,,,,,,,,,,,,,,2,7.373,,0,0,121,121,149,1,stimuli/stim_20210519_power2amp/equal_lnn_AM4Hz_s55_4.m4a,,,
,,,,,41258,2021-05-31_07h41.18.344,judgeSpeechMusic_20210519_logNormShiftAmp_mXs,2020.1.2,Win32,60,,,,,,,,,,,,,,,,,,,,,,,,,,2,6.2741,,0,0,122,122,118,1,stimuli/stim_20210519_power2amp/equal_lnn_AM4Hz_s25_24.m4a,,,
,,,,,41258,2021-05-31_07h41.18.344,judgeSpeechMusic_20210519_logNormShiftAmp_mXs,2020.1.2,Win32,60,,,,,,,,,,,,,,,,,,,,,,,,,,1,8.2059,,0,0,123,123,9,1,stimuli/stim_20210519_power2amp/equal_lnn_AM1Hz_s15_15.m4a,,,
,,,,,41258,2021-05-31_07h41.18.344,judgeSpeechMusic_20210519_logNormShiftAmp_mXs,2020.1.2,Win32,60,,,,,,,,,,,,,,,,,,,,,,,,,,2,7.7726,,0,0,124,124,85,1,stimuli/stim_20210519_power2amp/equal_lnn_AM2.5Hz_s45_9.m4a,,,
,,,,,41258,2021-05-31_07h41.18.344,judgeSpeechMusic_20210519_logNormShiftAmp_mXs,2020.1.2,Win32,60,,,,,,,,,,,,,,,,,,,,,,,,,,2,8.1232,,0,0,125,125,110,1,stimuli/stim_20210519_power2amp/equal_lnn_AM4Hz_s25_40.m4a,,,
,,,,,41258,2021-05-31_07h41.18.344,judgeSpeechMusic_20210519_logNormShiftAmp_mXs,2020.1.2,Win32,60,,,,,,,,,,,,,,,,,,,,,,,,,,2,6.6297,4,1,0,126,126,30,1,stimuli/stim_20210519_power2amp/equal_lnn_AM1Hz_s45_22.m4a,0.641,,
,,,,,41258,2021-05-31_07h41.18.344,judgeSpeechMusic_20210519_logNormShiftAmp_mXs,2020.1.2,Win32,60,,,,,,,,,,,,,,,,,,,,,,,,,,2,6.9749,,0,0,127,127,109,1,stimuli/stim_20210519_power2amp/equal_lnn_AM4Hz_s15_26.m4a,,,
,,,,,41258,2021-05-31_07h41.18.344,judgeSpeechMusic_20210519_logNormShiftAmp_mXs,2020.1.2,Win32,60,,,,,,,,,,,,,,,,,,,,,,,,,,1,6.2256,,0,0,128,128,106,1,stimuli/stim_20210519_power2amp/equal_lnn_AM4Hz_s15_14.m4a,,,
,,,,,41258,2021-05-31_07h41.18.344,judgeSpeechMusic_20210519_logNormShiftAmp_mXs,2020.1.2,Win32,60,,,,,,,,,,,,,,,,,,,,,,,,,,1,6.656,,0,0,129,129,56,1,stimuli/stim_20210519_power2amp/equal_lnn_AM2.5Hz_s15_41.m4a,,,
,,,,,41258,2021-05-31_07h41.18.344,judgeSpeechMusic_20210519_logNormShiftAmp_mXs,2020.1.2,Win32,60,,,,,,,,,,,,,,,,,,,,,,,,,,2,6.6455,,0,0,130,130,76,1,stimuli/stim_20210519_power2amp/equal_lnn_AM2.5Hz_s35_41.m4a,,,
,,,,,41258,2021-05-31_07h41.18.344,judgeSpeechMusic_20210519_logNormShiftAmp_mXs,2020.1.2,Win32,60,,,,,,,,,,,,,,,,,,,,,,,,,,2,6.0729,,0,0,131,131,70,1,stimuli/stim_20210519_power2amp/equal_lnn_AM2.5Hz_s35_34.m4a,,,
,,,,,41258,2021-05-31_07h41.18.344,judgeSpeechMusic_20210519_logNormShiftAmp_mXs,2020.1.2,Win32,60,,,,,,,,,,,,,,,,,,,,,,,,,,1,5.8565,,0,0,132,132,144,1,stimuli/stim_20210519_power2amp/equal_lnn_AM4Hz_s55_13.m4a,,,
,,,,,41258,2021-05-31_07h41.18.344,judgeSpeechMusic_20210519_logNormShiftAmp_mXs,2020.1.2,Win32,60,,,,,,,,,,,,,,,,,,,,,,,,,,1,7.7291,,0,0,133,133,81,1,stimuli/stim_20210519_power2amp/equal_lnn_AM2.5Hz_s45_18.m4a,,,
,,,,,41258,2021-05-31_07h41.18.344,judgeSpeechMusic_20210519_logNormShiftAmp_mXs,2020.1.2,Win32,60,,,,,,,,,,,,,,,,,,,,,,,,,,2,7.391,,0,0,134,134,97,1,stimuli/stim_20210519_power2amp/equal_lnn_AM2.5Hz_s55_38.m4a,,,
,,,,,41258,2021-05-31_07h41.18.344,judgeSpeechMusic_20210519_logNormShiftAmp_mXs,2020.1.2,Win32,60,,,,,,,,,,,,,,,,,,,,,,,,,,1,5.8887,,0,0,135,135,11,1,stimuli/stim_20210519_power2amp/equal_lnn_AM1Hz_s25_16.m4a,,,
,,,,,41258,2021-05-31_07h41.18.344,judgeSpeechMusic_20210519_logNormShiftAmp_mXs,2020.1.2,Win32,60,,,,,,,,,,,,,,,,,,,,,,,,,,1,6.2723,,0,0,136,136,32,1,stimuli/stim_20210519_power2amp/equal_lnn_AM1Hz_s45_5.m4a,,,
,,,,,41258,2021-05-31_07h41.18.344,judgeSpeechMusic_20210519_logNormShiftAmp_mXs,2020.1.2,Win32,60,,,,,,,,,,,,,,,,,,,,,,,,,,2,7.4738,,0,0,137,137,49,1,stimuli/stim_20210519_power2amp/equal_lnn_AM1Hz_s55_11.m4a,,,
,,,,,41258,2021-05-31_07h41.18.344,judgeSpeechMusic_20210519_logNormShiftAmp_mXs,2020.1.2,Win32,60,,,,,,,,,,,,,,,,,,,,,,,,,,1,6.8723,,0,0,138,138,19,1,stimuli/stim_20210519_power2amp/equal_lnn_AM1Hz_s25_28.m4a,,,
,,,,,41258,2021-05-31_07h41.18.344,judgeSpeechMusic_20210519_logNormShiftAmp_mXs,2020.1.2,Win32,60,,,,,,,,,,,,,,,,,,,,,,,,,,2,6.963,,0,0,139,139,148,1,stimuli/stim_20210519_power2amp/equal_lnn_AM4Hz_s55_7.m4a,,,
,,,,,41258,2021-05-31_07h41.18.344,judgeSpeechMusic_20210519_logNormShiftAmp_mXs,2020.1.2,Win32,60,,,,,,,,,,,,,,,,,,,,,,,,,,2,5.9692,,0,0,140,140,123,1,stimuli/stim_20210519_power2amp/equal_lnn_AM4Hz_s35_46.m4a,,,
,,,,,41258,2021-05-31_07h41.18.344,judgeSpeechMusic_20210519_logNormShiftAmp_mXs,2020.1.2,Win32,60,,,,,,,,,,,,,,,,,,,,,,,,,,2,5.8393,,0,0,141,141,120,1,stimuli/stim_20210519_power2amp/equal_lnn_AM4Hz_s35_13.m4a,,,
,,,,,41258,2021-05-31_07h41.18.344,judgeSpeechMusic_20210519_logNormShiftAmp_mXs,2020.1.2,Win32,60,,,,,,,,,,,,,,,,,,,,,,,,,,1,6.923,,0,0,142,142,54,1,stimuli/stim_20210519_power2amp/equal_lnn_AM2.5Hz_s15_47.m4a,,,
,,,,,41258,2021-05-31_07h41.18.344,judgeSpeechMusic_20210519_logNormShiftAmp_mXs,2020.1.2,Win32,60,,,,,,,,,,,,,,,,,,,,,,,,,,1,6.4731,,0,0,143,143,12,1,stimuli/stim_20210519_power2amp/equal_lnn_AM1Hz_s25_38.m4a,,,
,,,,,41258,2021-05-31_07h41.18.344,judgeSpeechMusic_20210519_logNormShiftAmp_mXs,2020.1.2,Win32,60,,,,,,,,,,,,,,,,,,,,,,,,,,2,6.806,,0,0,144,144,65,1,stimuli/stim_20210519_power2amp/equal_lnn_AM2.5Hz_s25_12.m4a,,,
,,,,,41258,2021-05-31_07h41.18.344,judgeSpeechMusic_20210519_logNormShiftAmp_mXs,2020.1.2,Win32,60,,,,,,,,,,,,,,,,,,,,,,,,,,1,6.3276,,0,0,145,145,67,1,stimuli/stim_20210519_power2amp/equal_lnn_AM2.5Hz_s25_39.m4a,,,
,,,,,41258,2021-05-31_07h41.18.344,judgeSpeechMusic_20210519_logNormShiftAmp_mXs,2020.1.2,Win32,60,,,,,,,,,,,,,,,,,,,,,,,,,,1,5.7633,,0,0,146,146,18,1,stimuli/stim_20210519_power2amp/equal_lnn_AM1Hz_s25_36.m4a,,,
,,,,,41258,2021-05-31_07h41.18.344,judgeSpeechMusic_20210519_logNormShiftAmp_mXs,2020.1.2,Win32,60,,,,,,,,,,,,,,,,,,,,,,,,,,1,5.8455,,0,0,147,147,0,1,stimuli/stim_20210519_power2amp/equal_lnn_AM1Hz_s15_20.m4a,,,
,,,,,41258,2021-05-31_07h41.18.344,judgeSpeechMusic_20210519_logNormShiftAmp_mXs,2020.1.2,Win32,60,,,,,,,,,,,,,,,,,,,,,,,,,,2,5.9899,,0,0,148,148,94,1,stimuli/stim_20210519_power2amp/equal_lnn_AM2.5Hz_s55_33.m4a,,,
,,,,,41258,2021-05-31_07h41.18.344,judgeSpeechMusic_20210519_logNormShiftAmp_mXs,2020.1.2,Win32,60,,,,,,,,,,,,,,,,,,,,,,,,,,2,6.0638,3,1,0,149,149,119,1,stimuli/stim_20210519_power2amp/equal_lnn_AM4Hz_s25_49.m4a,1.148,,
,,,,,41258,2021-05-31_07h41.18.344,judgeSpeechMusic_20210519_logNormShiftAmp_mXs,2020.1.2,Win32,60,,,,,,,,,,,,,,,,,,,,,,,,,,2,5.9365,,0,1,0,150,89,1,stimuli/stim_20210519_power2amp/equal_lnn_AM2.5Hz_s45_48.m4a,,,
,,,,,41258,2021-05-31_07h41.18.344,judgeSpeechMusic_20210519_logNormShiftAmp_mXs,2020.1.2,Win32,60,,,,,,,,,,,,,,,,,,,,,,,,,,2,6.746,,0,1,1,151,85,1,stimuli/stim_20210519_power2amp/equal_lnn_AM2.5Hz_s45_9.m4a,,,
,,,,,41258,2021-05-31_07h41.18.344,judgeSpeechMusic_20210519_logNormShiftAmp_mXs,2020.1.2,Win32,60,,,,,,,,,,,,,,,,,,,,,,,,,,2,5.7228,,0,1,2,152,122,1,stimuli/stim_20210519_power2amp/equal_lnn_AM4Hz_s35_33.m4a,,,
,,,,,41258,2021-05-31_07h41.18.344,judgeSpeechMusic_20210519_logNormShiftAmp_mXs,2020.1.2,Win32,60,,,,,,,,,,,,,,,,,,,,,,,,,,1,6.9613,,0,1,3,153,78,1,stimuli/stim_20210519_power2amp/equal_lnn_AM2.5Hz_s35_2.m4a,,,
,,,,,41258,2021-05-31_07h41.18.344,judgeSpeechMusic_20210519_logNormShiftAmp_mXs,2020.1.2,Win32,60,,,,,,,,,,,,,,,,,,,,,,,,,,2,6.9793,,0,1,4,154,61,1,stimuli/stim_20210519_power2amp/equal_lnn_AM2.5Hz_s25_20.m4a,,,
,,,,,41258,2021-05-31_07h41.18.344,judgeSpeechMusic_20210519_logNormShiftAmp_mXs,2020.1.2,Win32,60,,,,,,,,,,,,,,,,,,,,,,,,,,1,6.1393,,0,1,5,155,138,1,stimuli/stim_20210519_power2amp/equal_lnn_AM4Hz_s45_25.m4a,,,
,,,,,41258,2021-05-31_07h41.18.344,judgeSpeechMusic_20210519_logNormShiftAmp_mXs,2020.1.2,Win32,60,,,,,,,,,,,,,,,,,,,,,,,,,,1,5.79,,0,1,6,156,5,1,stimuli/stim_20210519_power2amp/equal_lnn_AM1Hz_s15_40.m4a,,,
,,,,,41258,2021-05-31_07h41.18.344,judgeSpeechMusic_20210519_logNormShiftAmp_mXs,2020.1.2,Win32,60,,,,,,,,,,,,,,,,,,,,,,,,,,1,6.3731,,0,1,7,157,53,1,stimuli/stim_20210519_power2amp/equal_lnn_AM2.5Hz_s15_48.m4a,,,
,,,,,41258,2021-05-31_07h41.18.344,judgeSpeechMusic_20210519_logNormShiftAmp_mXs,2020.1.2,Win32,60,,,,,,,,,,,,,,,,,,,,,,,,,,2,5.9559,,0,1,8,158,141,1,stimuli/stim_20210519_power2amp/equal_lnn_AM4Hz_s55_47.m4a,,,
,,,,,41258,2021-05-31_07h41.18.344,judgeSpeechMusic_20210519_logNormShiftAmp_mXs,2020.1.2,Win32,60,,,,,,,,,,,,,,,,,,,,,,,,,,2,6.8724,,0,1,9,159,143,1,stimuli/stim_20210519_power2amp/equal_lnn_AM4Hz_s55_3.m4a,,,
,,,,,41258,2021-05-31_07h41.18.344,judgeSpeechMusic_20210519_logNormShiftAmp_mXs,2020.1.2,Win32,60,,,,,,,,,,,,,,,,,,,,,,,,,,2,6.8409,,0,1,10,160,82,1,stimuli/stim_20210519_power2amp/equal_lnn_AM2.5Hz_s45_29.m4a,,,
,,,,,41258,2021-05-31_07h41.18.344,judgeSpeechMusic_20210519_logNormShiftAmp_mXs,2020.1.2,Win32,60,,,,,,,,,,,,,,,,,,,,,,,,,,2,6.676,,0,1,11,161,63,1,stimuli/stim_20210519_power2amp/equal_lnn_AM2.5Hz_s25_42.m4a,,,
,,,,,41258,2021-05-31_07h41.18.344,judgeSpeechMusic_20210519_logNormShiftAmp_mXs,2020.1.2,Win32,60,,,,,,,,,,,,,,,,,,,,,,,,,,2,8.114,,0,1,12,162,125,1,stimuli/stim_20210519_power2amp/equal_lnn_AM4Hz_s35_28.m4a,,,
,,,,,41258,2021-05-31_07h41.18.344,judgeSpeechMusic_20210519_logNormShiftAmp_mXs,2020.1.2,Win32,60,,,,,,,,,,,,,,,,,,,,,,,,,,1,7.1564,,0,1,13,163,7,1,stimuli/stim_20210519_power2amp/equal_lnn_AM1Hz_s15_9.m4a,,,
,,,,,41258,2021-05-31_07h41.18.344,judgeSpeechMusic_20210519_logNormShiftAmp_mXs,2020.1.2,Win32,60,,,,,,,,,,,,,,,,,,,,,,,,,,2,6.3064,,0,1,14,164,84,1,stimuli/stim_20210519_power2amp/equal_lnn_AM2.5Hz_s45_23.m4a,,,
,,,,,41258,2021-05-31_07h41.18.344,judgeSpeechMusic_20210519_logNormShiftAmp_mXs,2020.1.2,Win32,60,,,,,,,,,,,,,,,,,,,,,,,,,,1,6.1286,,0,1,15,165,55,1,stimuli/stim_20210519_power2amp/equal_lnn_AM2.5Hz_s15_31.m4a,,,
,,,,,41258,2021-05-31_07h41.18.344,judgeSpeechMusic_20210519_logNormShiftAmp_mXs,2020.1.2,Win32,60,,,,,,,,,,,,,,,,,,,,,,,,,,1,5.7394,,0,1,16,166,87,1,stimuli/stim_20210519_power2amp/equal_lnn_AM2.5Hz_s45_2.m4a,,,
,,,,,41258,2021-05-31_07h41.18.344,judgeSpeechMusic_20210519_logNormShiftAmp_mXs,2020.1.2,Win32,60,,,,,,,,,,,,,,,,,,,,,,,,,,1,6.4979,,0,1,17,167,57,1,stimuli/stim_20210519_power2amp/equal_lnn_AM2.5Hz_s15_43.m4a,,,
,,,,,41258,2021-05-31_07h41.18.344,judgeSpeechMusic_20210519_logNormShiftAmp_mXs,2020.1.2,Win32,60,,,,,,,,,,,,,,,,,,,,,,,,,,2,5.763,,0,1,18,168,88,1,stimuli/stim_20210519_power2amp/equal_lnn_AM2.5Hz_s45_11.m4a,,,
,,,,,41258,2021-05-31_07h41.18.344,judgeSpeechMusic_20210519_logNormShiftAmp_mXs,2020.1.2,Win32,60,,,,,,,,,,,,,,,,,,,,,,,,,,2,6.0064,,0,1,19,169,92,1,stimuli/stim_20210519_power2amp/equal_lnn_AM2.5Hz_s55_40.m4a,,,
,,,,,41258,2021-05-31_07h41.18.344,judgeSpeechMusic_20210519_logNormShiftAmp_mXs,2020.1.2,Win32,60,,,,,,,,,,,,,,,,,,,,,,,,,,2,5.8728,3,0,1,20,170,131,1,stimuli/stim_20210519_power2amp/equal_lnn_AM4Hz_s45_35.m4a,0.9418,,
,,,,,41258,2021-05-31_07h41.18.344,judgeSpeechMusic_20210519_logNormShiftAmp_mXs,2020.1.2,Win32,60,,,,,,,,,,,,,,,,,,,,,,,,,,1,6.9191,,0,1,21,171,25,1,stimuli/stim_20210519_power2amp/equal_lnn_AM1Hz_s35_43.m4a,,,
,,,,,41258,2021-05-31_07h41.18.344,judgeSpeechMusic_20210519_logNormShiftAmp_mXs,2020.1.2,Win32,60,,,,,,,,,,,,,,,,,,,,,,,,,,2,5.7801,,0,1,22,172,149,1,stimuli/stim_20210519_power2amp/equal_lnn_AM4Hz_s55_4.m4a,,,
,,,,,41258,2021-05-31_07h41.18.344,judgeSpeechMusic_20210519_logNormShiftAmp_mXs,2020.1.2,Win32,60,,,,,,,,,,,,,,,,,,,,,,,,,,2,6.2724,,0,1,23,173,108,1,stimuli/stim_20210519_power2amp/equal_lnn_AM4Hz_s15_43.m4a,,,
,,,,,41258,2021-05-31_07h41.18.344,judgeSpeechMusic_20210519_logNormShiftAmp_mXs,2020.1.2,Win32,60,,,,,,,,,,,,,,,,,,,,,,,,,,2,7.2098,,0,1,24,174,68,1,stimuli/stim_20210519_power2amp/equal_lnn_AM2.5Hz_s25_36.m4a,,,
,,,,,41258,2021-05-31_07h41.18.344,judgeSpeechMusic_20210519_logNormShiftAmp_mXs,2020.1.2,Win32,60,,,,,,,,,,,,,,,,,,,,,,,,,,1,7.0905,,0,1,25,175,13,1,stimuli/stim_20210519_power2amp/equal_lnn_AM1Hz_s25_17.m4a,,,
,,,,,41258,2021-05-31_07h41.18.344,judgeSpeechMusic_20210519_logNormShiftAmp_mXs,2020.1.2,Win32,60,,,,,,,,,,,,,,,,,,,,,,,,,,2,8.3061,,0,1,26,176,93,1,stimuli/stim_20210519_power2amp/equal_lnn_AM2.5Hz_s55_20.m4a,,,
,,,,,41258,2021-05-31_07h41.18.344,judgeSpeechMusic_20210519_logNormShiftAmp_mXs,2020.1.2,Win32,60,,,,,,,,,,,,,,,,,,,,,,,,,,2,7.1206,,0,1,27,177,111,1,stimuli/stim_20210519_power2amp/equal_lnn_AM4Hz_s25_22.m4a,,,
,,,,,41258,2021-05-31_07h41.18.344,judgeSpeechMusic_20210519_logNormShiftAmp_mXs,2020.1.2,Win32,60,,,,,,,,,,,,,,,,,,,,,,,,,,1,10.14,,0,1,28,178,39,1,stimuli/stim_20210519_power2amp/equal_lnn_AM1Hz_s45_15.m4a,,,
,,,,,41258,2021-05-31_07h41.18.344,judgeSpeechMusic_20210519_logNormShiftAmp_mXs,2020.1.2,Win32,60,,,,,,,,,,,,,,,,,,,,,,,,,,1,7.7324,,0,1,29,179,101,1,stimuli/stim_20210519_power2amp/equal_lnn_AM4Hz_s15_48.m4a,,,
,,,,,41258,2021-05-31_07h41.18.344,judgeSpeechMusic_20210519_logNormShiftAmp_mXs,2020.1.2,Win32,60,,,,,,,,,,,,,,,,,,,,,,,,,,2,7.8575,,0,1,30,180,109,1,stimuli/stim_20210519_power2amp/equal_lnn_AM4Hz_s15_26.m4a,,,
,,,,,41258,2021-05-31_07h41.18.344,judgeSpeechMusic_20210519_logNormShiftAmp_mXs,2020.1.2,Win32,60,,,,,,,,,,,,,,,,,,,,,,,,,,2,7.9744,,0,1,31,181,36,1,stimuli/stim_20210519_power2amp/equal_lnn_AM1Hz_s45_35.m4a,,,
,,,,,41258,2021-05-31_07h41.18.344,judgeSpeechMusic_20210519_logNormShiftAmp_mXs,2020.1.2,Win32,60,,,,,,,,,,,,,,,,,,,,,,,,,,2,8.0394,,0,1,32,182,94,1,stimuli/stim_20210519_power2amp/equal_lnn_AM2.5Hz_s55_33.m4a,,,
,,,,,41258,2021-05-31_07h41.18.344,judgeSpeechMusic_20210519_logNormShiftAmp_mXs,2020.1.2,Win32,60,,,,,,,,,,,,,,,,,,,,,,,,,,1,5.9887,,0,1,33,183,42,1,stimuli/stim_20210519_power2amp/equal_lnn_AM1Hz_s55_17.m4a,,,
,,,,,41258,2021-05-31_07h41.18.344,judgeSpeechMusic_20210519_logNormShiftAmp_mXs,2020.1.2,Win32,60,,,,,,,,,,,,,,,,,,,,,,,,,,1,5.7622,,0,1,34,184,134,1,stimuli/stim_20210519_power2amp/equal_lnn_AM4Hz_s45_46.m4a,,,
,,,,,41258,2021-05-31_07h41.18.344,judgeSpeechMusic_20210519_logNormShiftAmp_mXs,2020.1.2,Win32,60,,,,,,,,,,,,,,,,,,,,,,,,,,2,6.2223,,0,1,35,185,56,1,stimuli/stim_20210519_power2amp/equal_lnn_AM2.5Hz_s15_41.m4a,,,
,,,,,41258,2021-05-31_07h41.18.344,judgeSpeechMusic_20210519_logNormShiftAmp_mXs,2020.1.2,Win32,60,,,,,,,,,,,,,,,,,,,,,,,,,,2,5.6056,,0,1,36,186,71,1,stimuli/stim_20210519_power2amp/equal_lnn_AM2.5Hz_s35_9.m4a,,,
,,,,,41258,2021-05-31_07h41.18.344,judgeSpeechMusic_20210519_logNormShiftAmp_mXs,2020.1.2,Win32,60,,,,,,,,,,,,,,,,,,,,,,,,,,2,7.3399,,0,1,37,187,81,1,stimuli/stim_20210519_power2amp/equal_lnn_AM2.5Hz_s45_18.m4a,,,
,,,,,41258,2021-05-31_07h41.18.344,judgeSpeechMusic_20210519_logNormShiftAmp_mXs,2020.1.2,Win32,60,,,,,,,,,,,,,,,,,,,,,,,,,,2,6.2484,,0,1,38,188,124,1,stimuli/stim_20210519_power2amp/equal_lnn_AM4Hz_s35_47.m4a,,,
,,,,,41258,2021-05-31_07h41.18.344,judgeSpeechMusic_20210519_logNormShiftAmp_mXs,2020.1.2,Win32,60,,,,,,,,,,,,,,,,,,,,,,,,,,1,6.5436,,0,1,39,189,48,1,stimuli/stim_20210519_power2amp/equal_lnn_AM1Hz_s55_14.m4a,,,
,,,,,41258,2021-05-31_07h41.18.344,judgeSpeechMusic_20210519_logNormShiftAmp_mXs,2020.1.2,Win32,60,,,,,,,,,,,,,,,,,,,,,,,,,,1,7.4401,,0,1,40,190,47,1,stimuli/stim_20210519_power2amp/equal_lnn_AM1Hz_s55_2.m4a,,,
,,,,,41258,2021-05-31_07h41.18.344,judgeSpeechMusic_20210519_logNormShiftAmp_mXs,2020.1.2,Win32,60,,,,,,,,,,,,,,,,,,,,,,,,,,2,7.2806,,0,1,41,191,83,1,stimuli/stim_20210519_power2amp/equal_lnn_AM2.5Hz_s45_6.m4a,,,
,,,,,41258,2021-05-31_07h41.18.344,judgeSpeechMusic_20210519_logNormShiftAmp_mXs,2020.1.2,Win32,60,,,,,,,,,,,,,,,,,,,,,,,,,,1,9.489,,0,1,42,192,16,1,stimuli/stim_20210519_power2amp/equal_lnn_AM1Hz_s25_8.m4a,,,
,,,,,41258,2021-05-31_07h41.18.344,judgeSpeechMusic_20210519_logNormShiftAmp_mXs,2020.1.2,Win32,60,,,,,,,,,,,,,,,,,,,,,,,,,,2,5.8626,,0,1,43,193,104,1,stimuli/stim_20210519_power2amp/equal_lnn_AM4Hz_s15_25.m4a,,,
,,,,,41258,2021-05-31_07h41.18.344,judgeSpeechMusic_20210519_logNormShiftAmp_mXs,2020.1.2,Win32,60,,,,,,,,,,,,,,,,,,,,,,,,,,2,6.772,,0,1,44,194,33,1,stimuli/stim_20210519_power2amp/equal_lnn_AM1Hz_s45_11.m4a,,,
,,,,,41258,2021-05-31_07h41.18.344,judgeSpeechMusic_20210519_logNormShiftAmp_mXs,2020.1.2,Win32,60,,,,,,,,,,,,,,,,,,,,,,,,,,1,6.2553,1,1,1,45,195,12,1,stimuli/stim_20210519_power2amp/equal_lnn_AM1Hz_s25_38.m4a,1.0413,,
,,,,,41258,2021-05-31_07h41.18.344,judgeSpeechMusic_20210519_logNormShiftAmp_mXs,2020.1.2,Win32,60,,,,,,,,,,,,,,,,,,,,,,,,,,2,6.2351,,0,1,46,196,52,1,stimuli/stim_20210519_power2amp/equal_lnn_AM2.5Hz_s15_4.m4a,,,
,,,,,41258,2021-05-31_07h41.18.344,judgeSpeechMusic_20210519_logNormShiftAmp_mXs,2020.1.2,Win32,60,,,,,,,,,,,,,,,,,,,,,,,,,,2,7.0259,,0,1,47,197,62,1,stimuli/stim_20210519_power2amp/equal_lnn_AM2.5Hz_s25_13.m4a,,,
,,,,,41258,2021-05-31_07h41.18.344,judgeSpeechMusic_20210519_logNormShiftAmp_mXs,2020.1.2,Win32,60,,,,,,,,,,,,,,,,,,,,,,,,,,1,6.4483,,0,1,48,198,0,1,stimuli/stim_20210519_power2amp/equal_lnn_AM1Hz_s15_20.m4a,,,
,,,,,41258,2021-05-31_07h41.18.344,judgeSpeechMusic_20210519_logNormShiftAmp_mXs,2020.1.2,Win32,60,,,,,,,,,,,,,,,,,,,,,,,,,,1,5.7564,,0,1,49,199,132,1,stimuli/stim_20210519_power2amp/equal_lnn_AM4Hz_s45_16.m4a,,,
,,,,,41258,2021-05-31_07h41.18.344,judgeSpeechMusic_20210519_logNormShiftAmp_mXs,2020.1.2,Win32,60,,,,,,,,,,,,,,,,,,,,,,,,,,2,6.4446,,0,1,50,200,96,1,stimuli/stim_20210519_power2amp/equal_lnn_AM2.5Hz_s55_6.m4a,,,
,,,,,41258,2021-05-31_07h41.18.344,judgeSpeechMusic_20210519_logNormShiftAmp_mXs,2020.1.2,Win32,60,,,,,,,,,,,,,,,,,,,,,,,,,,1,6.0591,,0,1,51,201,51,1,stimuli/stim_20210519_power2amp/equal_lnn_AM2.5Hz_s15_6.m4a,,,
,,,,,41258,2021-05-31_07h41.18.344,judgeSpeechMusic_20210519_logNormShiftAmp_mXs,2020.1.2,Win32,60,,,,,,,,,,,,,,,,,,,,,,,,,,2,6.797,,0,1,52,202,65,1,stimuli/stim_20210519_power2amp/equal_lnn_AM2.5Hz_s25_12.m4a,,,
,,,,,41258,2021-05-31_07h41.18.344,judgeSpeechMusic_20210519_logNormShiftAmp_mXs,2020.1.2,Win32,60,,,,,,,,,,,,,,,,,,,,,,,,,,2,6.1714,,0,1,53,203,130,1,stimuli/stim_20210519_power2amp/equal_lnn_AM4Hz_s45_38.m4a,,,
,,,,,41258,2021-05-31_07h41.18.344,judgeSpeechMusic_20210519_logNormShiftAmp_mXs,2020.1.2,Win32,60,,,,,,,,,,,,,,,,,,,,,,,,,,2,5.7808,,0,1,54,204,76,1,stimuli/stim_20210519_power2amp/equal_lnn_AM2.5Hz_s35_41.m4a,,,
,,,,,41258,2021-05-31_07h41.18.344,judgeSpeechMusic_20210519_logNormShiftAmp_mXs,2020.1.2,Win32,60,,,,,,,,,,,,,,,,,,,,,,,,,,2,6.005,,0,1,55,205,77,1,stimuli/stim_20210519_power2amp/equal_lnn_AM2.5Hz_s35_16.m4a,,,
,,,,,41258,2021-05-31_07h41.18.344,judgeSpeechMusic_20210519_logNormShiftAmp_mXs,2020.1.2,Win32,60,,,,,,,,,,,,,,,,,,,,,,,,,,1,6.1949,,0,1,56,206,54,1,stimuli/stim_20210519_power2amp/equal_lnn_AM2.5Hz_s15_47.m4a,,,
,,,,,41258,2021-05-31_07h41.18.344,judgeSpeechMusic_20210519_logNormShiftAmp_mXs,2020.1.2,Win32,60,,,,,,,,,,,,,,,,,,,,,,,,,,2,6.2554,,0,1,57,207,74,1,stimuli/stim_20210519_power2amp/equal_lnn_AM2.5Hz_s35_28.m4a,,,
,,,,,41258,2021-05-31_07h41.18.344,judgeSpeechMusic_20210519_logNormShiftAmp_mXs,2020.1.2,Win32,60,,,,,,,,,,,,,,,,,,,,,,,,,,2,6.258,,0,1,58,208,72,1,stimuli/stim_20210519_power2amp/equal_lnn_AM2.5Hz_s35_39.m4a,,,
,,,,,41258,2021-05-31_07h41.18.344,judgeSpeechMusic_20210519_logNormShiftAmp_mXs,2020.1.2,Win32,60,,,,,,,,,,,,,,,,,,,,,,,,,,1,5.8744,,0,1,59,209,146,1,stimuli/stim_20210519_power2amp/equal_lnn_AM4Hz_s55_42.m4a,,,
,,,,,41258,2021-05-31_07h41.18.344,judgeSpeechMusic_20210519_logNormShiftAmp_mXs,2020.1.2,Win32,60,,,,,,,,,,,,,,,,,,,,,,,,,,1,5.9723,,0,1,60,210,80,1,stimuli/stim_20210519_power2amp/equal_lnn_AM2.5Hz_s45_4.m4a,,,
,,,,,41258,2021-05-31_07h41.18.344,judgeSpeechMusic_20210519_logNormShiftAmp_mXs,2020.1.2,Win32,60,,,,,,,,,,,,,,,,,,,,,,,,,,1,5.9233,,0,1,61,211,44,1,stimuli/stim_20210519_power2amp/equal_lnn_AM1Hz_s55_5.m4a,,,
,,,,,41258,2021-05-31_07h41.18.344,judgeSpeechMusic_20210519_logNormShiftAmp_mXs,2020.1.2,Win32,60,,,,,,,,,,,,,,,,,,,,,,,,,,2,8.3577,,0,1,62,212,147,1,stimuli/stim_20210519_power2amp/equal_lnn_AM4Hz_s55_48.m4a,,,
,,,,,41258,2021-05-31_07h41.18.344,judgeSpeechMusic_20210519_logNormShiftAmp_mXs,2020.1.2,Win32,60,,,,,,,,,,,,,,,,,,,,,,,,,,2,6.1976,,0,1,63,213,123,1,stimuli/stim_20210519_power2amp/equal_lnn_AM4Hz_s35_46.m4a,,,
,,,,,41258,2021-05-31_07h41.18.344,judgeSpeechMusic_20210519_logNormShiftAmp_mXs,2020.1.2,Win32,60,,,,,,,,,,,,,,,,,,,,,,,,,,1,5.7432,,0,1,64,214,11,1,stimuli/stim_20210519_power2amp/equal_lnn_AM1Hz_s25_16.m4a,,,
,,,,,41258,2021-05-31_07h41.18.344,judgeSpeechMusic_20210519_logNormShiftAmp_mXs,2020.1.2,Win32,60,,,,,,,,,,,,,,,,,,,,,,,,,,2,5.9388,,0,1,65,215,114,1,stimuli/stim_20210519_power2amp/equal_lnn_AM4Hz_s25_25.m4a,,,
,,,,,41258,2021-05-31_07h41.18.344,judgeSpeechMusic_20210519_logNormShiftAmp_mXs,2020.1.2,Win32,60,,,,,,,,,,,,,,,,,,,,,,,,,,2,5.939,3,0,1,66,216,64,1,stimuli/stim_20210519_power2amp/equal_lnn_AM2.5Hz_s25_50.m4a,3.3801,,
,,,,,41258,2021-05-31_07h41.18.344,judgeSpeechMusic_20210519_logNormShiftAmp_mXs,2020.1.2,Win32,60,,,,,,,,,,,,,,,,,,,,,,,,,,2,6.7527,,0,1,67,217,67,1,stimuli/stim_20210519_power2amp/equal_lnn_AM2.5Hz_s25_39.m4a,,,
,,,,,41258,2021-05-31_07h41.18.344,judgeSpeechMusic_20210519_logNormShiftAmp_mXs,2020.1.2,Win32,60,,,,,,,,,,,,,,,,,,,,,,,,,,2,7.8129,,0,1,68,218,29,1,stimuli/stim_20210519_power2amp/equal_lnn_AM1Hz_s35_39.m4a,,,
,,,,,41258,2021-05-31_07h41.18.344,judgeSpeechMusic_20210519_logNormShiftAmp_mXs,2020.1.2,Win32,60,,,,,,,,,,,,,,,,,,,,,,,,,,2,6.6648,,0,1,69,219,58,1,stimuli/stim_20210519_power2amp/equal_lnn_AM2.5Hz_s15_29.m4a,,,
,,,,,41258,2021-05-31_07h41.18.344,judgeSpeechMusic_20210519_logNormShiftAmp_mXs,2020.1.2,Win32,60,,,,,,,,,,,,,,,,,,,,,,,,,,2,5.9608,,0,1,70,220,98,1,stimuli/stim_20210519_power2amp/equal_lnn_AM2.5Hz_s55_11.m4a,,,
,,,,,41258,2021-05-31_07h41.18.344,judgeSpeechMusic_20210519_logNormShiftAmp_mXs,2020.1.2,Win32,60,,,,,,,,,,,,,,,,,,,,,,,,,,2,8.223,,0,1,71,221,21,1,stimuli/stim_20210519_power2amp/equal_lnn_AM1Hz_s35_27.m4a,,,
,,,,,41258,2021-05-31_07h41.18.344,judgeSpeechMusic_20210519_logNormShiftAmp_mXs,2020.1.2,Win32,60,,,,,,,,,,,,,,,,,,,,,,,,,,2,5.7232,,0,1,72,222,136,1,stimuli/stim_20210519_power2amp/equal_lnn_AM4Hz_s45_47.m4a,,,
,,,,,41258,2021-05-31_07h41.18.344,judgeSpeechMusic_20210519_logNormShiftAmp_mXs,2020.1.2,Win32,60,,,,,,,,,,,,,,,,,,,,,,,,,,2,5.723,,0,1,73,223,117,1,stimuli/stim_20210519_power2amp/equal_lnn_AM4Hz_s25_23.m4a,,,
,,,,,41258,2021-05-31_07h41.18.344,judgeSpeechMusic_20210519_logNormShiftAmp_mXs,2020.1.2,Win32,60,,,,,,,,,,,,,,,,,,,,,,,,,,1,7.7064,,0,1,74,224,73,1,stimuli/stim_20210519_power2amp/equal_lnn_AM2.5Hz_s35_26.m4a,,,
,,,,,41258,2021-05-31_07h41.18.344,judgeSpeechMusic_20210519_logNormShiftAmp_mXs,2020.1.2,Win32,60,,,,,,,,,,,,,,,,,,,,,,,,,,1,5.8482,,0,1,75,225,6,1,stimuli/stim_20210519_power2amp/equal_lnn_AM1Hz_s15_50.m4a,,,
,,,,,41258,2021-05-31_07h41.18.344,judgeSpeechMusic_20210519_logNormShiftAmp_mXs,2020.1.2,Win32,60,,,,,,,,,,,,,,,,,,,,,,,,,,2,6.8732,,0,1,76,226,69,1,stimuli/stim_20210519_power2amp/equal_lnn_AM2.5Hz_s25_8.m4a,,,
,,,,,41258,2021-05-31_07h41.18.344,judgeSpeechMusic_20210519_logNormShiftAmp_mXs,2020.1.2,Win32,60,,,,,,,,,,,,,,,,,,,,,,,,,,2,7.0258,,0,1,77,227,107,1,stimuli/stim_20210519_power2amp/equal_lnn_AM4Hz_s15_16.m4a,,,
,,,,,41258,2021-05-31_07h41.18.344,judgeSpeechMusic_20210519_logNormShiftAmp_mXs,2020.1.2,Win32,60,,,,,,,,,,,,,,,,,,,,,,,,,,2,7.3603,,0,1,78,228,116,1,stimuli/stim_20210519_power2amp/equal_lnn_AM4Hz_s25_47.m4a,,,
,,,,,41258,2021-05-31_07h41.18.344,judgeSpeechMusic_20210519_logNormShiftAmp_mXs,2020.1.2,Win32,60,,,,,,,,,,,,,,,,,,,,,,,,,,2,6.9882,,0,1,79,229,4,1,stimuli/stim_20210519_power2amp/equal_lnn_AM1Hz_s15_8.m4a,,,
,,,,,41258,2021-05-31_07h41.18.344,judgeSpeechMusic_20210519_logNormShiftAmp_mXs,2020.1.2,Win32,60,,,,,,,,,,,,,,,,,,,,,,,,,,1,6.1859,,0,1,80,230,45,1,stimuli/stim_20210519_power2amp/equal_lnn_AM1Hz_s55_20.m4a,,,
,,,,,41258,2021-05-31_07h41.18.344,judgeSpeechMusic_20210519_logNormShiftAmp_mXs,2020.1.2,Win32,60,,,,,,,,,,,,,,,,,,,,,,,,,,2,7.4285,,0,1,81,231,129,1,stimuli/stim_20210519_power2amp/equal_lnn_AM4Hz_s35_41.m4a,,,
,,,,,41258,2021-05-31_07h41.18.344,judgeSpeechMusic_20210519_logNormShiftAmp_mXs,2020.1.2,Win32,60,,,,,,,,,,,,,,,,,,,,,,,,,,2,9.623,,0,1,82,232,148,1,stimuli/stim_20210519_power2amp/equal_lnn_AM4Hz_s55_7.m4a,,,
,,,,,41258,2021-05-31_07h41.18.344,judgeSpeechMusic_20210519_logNormShiftAmp_mXs,2020.1.2,Win32,60,,,,,,,,,,,,,,,,,,,,,,,,,,2,6.8212,,0,1,83,233,95,1,stimuli/stim_20210519_power2amp/equal_lnn_AM2.5Hz_s55_9.m4a,,,
,,,,,41258,2021-05-31_07h41.18.344,judgeSpeechMusic_20210519_logNormShiftAmp_mXs,2020.1.2,Win32,60,,,,,,,,,,,,,,,,,,,,,,,,,,2,7.8063,,0,1,84,234,120,1,stimuli/stim_20210519_power2amp/equal_lnn_AM4Hz_s35_13.m4a,,,
,,,,,41258,2021-05-31_07h41.18.344,judgeSpeechMusic_20210519_logNormShiftAmp_mXs,2020.1.2,Win32,60,,,,,,,,,,,,,,,,,,,,,,,,,,1,5.7393,,0,1,85,235,38,1,stimuli/stim_20210519_power2amp/equal_lnn_AM1Hz_s45_44.m4a,,,
,,,,,41258,2021-05-31_07h41.18.344,judgeSpeechMusic_20210519_logNormShiftAmp_mXs,2020.1.2,Win32,60,,,,,,,,,,,,,,,,,,,,,,,,,,1,6.9647,,0,1,86,236,23,1,stimuli/stim_20210519_power2amp/equal_lnn_AM1Hz_s35_34.m4a,,,
,,,,,41258,2021-05-31_07h41.18.344,judgeSpeechMusic_20210519_logNormShiftAmp_mXs,2020.1.2,Win32,60,,,,,,,,,,,,,,,,,,,,,,,,,,2,6.7921,,0,1,87,237,59,1,stimuli/stim_20210519_power2amp/equal_lnn_AM2.5Hz_s15_40.m4a,,,
,,,,,41258,2021-05-31_07h41.18.344,judgeSpeechMusic_20210519_logNormShiftAmp_mXs,2020.1.2,Win32,60,,,,,,,,,,,,,,,,,,,,,,,,,,1,7.5388,,0,1,88,238,10,1,stimuli/stim_20210519_power2amp/equal_lnn_AM1Hz_s25_31.m4a,,,
,,,,,41258,2021-05-31_07h41.18.344,judgeSpeechMusic_20210519_logNormShiftAmp_mXs,2020.1.2,Win32,60,,,,,,,,,,,,,,,,,,,,,,,,,,1,7.808,,0,1,89,239,43,1,stimuli/stim_20210519_power2amp/equal_lnn_AM1Hz_s55_37.m4a,,,
,,,,,41258,2021-05-31_07h41.18.344,judgeSpeechMusic_20210519_logNormShiftAmp_mXs,2020.1.2,Win32,60,,,,,,,,,,,,,,,,,,,,,,,,,,2,7.1919,3,1,1,90,240,113,1,stimuli/stim_20210519_power2amp/equal_lnn_AM4Hz_s25_12.m4a,0.9074,,
,,,,,41258,2021-05-31_07h41.18.344,judgeSpeechMusic_20210519_logNormShiftAmp_mXs,2020.1.2,Win32,60,,,,,,,,,,,,,,,,,,,,,,,,,,1,6.7751,,0,1,91,241,20,1,stimuli/stim_20210519_power2amp/equal_lnn_AM1Hz_s35_40.m4a,,,
,,,,,41258,2021-05-31_07h41.18.344,judgeSpeechMusic_20210519_logNormShiftAmp_mXs,2020.1.2,Win32,60,,,,,,,,,,,,,,,,,,,,,,,,,,2,6.0061,,0,1,92,242,50,1,stimuli/stim_20210519_power2amp/equal_lnn_AM2.5Hz_s15_37.m4a,,,
,,,,,41258,2021-05-31_07h41.18.344,judgeSpeechMusic_20210519_logNormShiftAmp_mXs,2020.1.2,Win32,60,,,,,,,,,,,,,,,,,,,,,,,,,,2,7.7103,,0,1,93,243,46,1,stimuli/stim_20210519_power2amp/equal_lnn_AM1Hz_s55_32.m4a,,,
,,,,,41258,2021-05-31_07h41.18.344,judgeSpeechMusic_20210519_logNormShiftAmp_mXs,2020.1.2,Win32,60,,,,,,,,,,,,,,,,,,,,,,,,,,2,7.5231,,0,1,94,244,28,1,stimuli/stim_20210519_power2amp/equal_lnn_AM1Hz_s35_41.m4a,,,
,,,,,41258,2021-05-31_07h41.18.344,judgeSpeechMusic_20210519_logNormShiftAmp_mXs,2020.1.2,Win32,60,,,,,,,,,,,,,,,,,,,,,,,,,,2,6.4066,,0,1,95,245,115,1,stimuli/stim_20210519_power2amp/equal_lnn_AM4Hz_s25_29.m4a,,,
,,,,,41258,2021-05-31_07h41.18.344,judgeSpeechMusic_20210519_logNormShiftAmp_mXs,2020.1.2,Win32,60,,,,,,,,,,,,,,,,,,,,,,,,,,2,9.9066,,0,1,96,246,19,1,stimuli/stim_20210519_power2amp/equal_lnn_AM1Hz_s25_28.m4a,,,
,,,,,41258,2021-05-31_07h41.18.344,judgeSpeechMusic_20210519_logNormShiftAmp_mXs,2020.1.2,Win32,60,,,,,,,,,,,,,,,,,,,,,,,,,,2,5.876,,0,1,97,247,70,1,stimuli/stim_20210519_power2amp/equal_lnn_AM2.5Hz_s35_34.m4a,,,
,,,,,41258,2021-05-31_07h41.18.344,judgeSpeechMusic_20210519_logNormShiftAmp_mXs,2020.1.2,Win32,60,,,,,,,,,,,,,,,,,,,,,,,,,,1,6.3144,,0,1,98,248,49,1,stimuli/stim_20210519_power2amp/equal_lnn_AM1Hz_s55_11.m4a,,,
,,,,,41258,2021-05-31_07h41.18.344,judgeSpeechMusic_20210519_logNormShiftAmp_mXs,2020.1.2,Win32,60,,,,,,,,,,,,,,,,,,,,,,,,,,1,7.2961,,0,1,99,249,15,1,stimuli/stim_20210519_power2amp/equal_lnn_AM1Hz_s25_39.m4a,,,
,,,,,41258,2021-05-31_07h41.18.344,judgeSpeechMusic_20210519_logNormShiftAmp_mXs,2020.1.2,Win32,60,,,,,,,,,,,,,,,,,,,,,,,,,,2,6.622,,0,1,100,250,135,1,stimuli/stim_20210519_power2amp/equal_lnn_AM4Hz_s45_40.m4a,,,
,,,,,41258,2021-05-31_07h41.18.344,judgeSpeechMusic_20210519_logNormShiftAmp_mXs,2020.1.2,Win32,60,,,,,,,,,,,,,,,,,,,,,,,,,,1,7.4146,,0,1,101,251,145,1,stimuli/stim_20210519_power2amp/equal_lnn_AM4Hz_s55_20.m4a,,,
,,,,,41258,2021-05-31_07h41.18.344,judgeSpeechMusic_20210519_logNormShiftAmp_mXs,2020.1.2,Win32,60,,,,,,,,,,,,,,,,,,,,,,,,,,2,6.8383,,0,1,102,252,97,1,stimuli/stim_20210519_power2amp/equal_lnn_AM2.5Hz_s55_38.m4a,,,
,,,,,41258,2021-05-31_07h41.18.344,judgeSpeechMusic_20210519_logNormShiftAmp_mXs,2020.1.2,Win32,60,,,,,,,,,,,,,,,,,,,,,,,,,,2,7.3232,,0,1,103,253,110,1,stimuli/stim_20210519_power2amp/equal_lnn_AM4Hz_s25_40.m4a,,,
,,,,,41258,2021-05-31_07h41.18.344,judgeSpeechMusic_20210519_logNormShiftAmp_mXs,2020.1.2,Win32,60,,,,,,,,,,,,,,,,,,,,,,,,,,1,7.7718,,0,1,104,254,24,1,stimuli/stim_20210519_power2amp/equal_lnn_AM1Hz_s35_42.m4a,,,
,,,,,41258,2021-05-31_07h41.18.344,judgeSpeechMusic_20210519_logNormShiftAmp_mXs,2020.1.2,Win32,60,,,,,,,,,,,,,,,,,,,,,,,,,,1,9.9074,,0,1,105,255,18,1,stimuli/stim_20210519_power2amp/equal_lnn_AM1Hz_s25_36.m4a,,,
,,,,,41258,2021-05-31_07h41.18.344,judgeSpeechMusic_20210519_logNormShiftAmp_mXs,2020.1.2,Win32,60,,,,,,,,,,,,,,,,,,,,,,,,,,1,9.2915,,0,1,106,256,9,1,stimuli/stim_20210519_power2amp/equal_lnn_AM1Hz_s15_15.m4a,,,
,,,,,41258,2021-05-31_07h41.18.344,judgeSpeechMusic_20210519_logNormShiftAmp_mXs,2020.1.2,Win32,60,,,,,,,,,,,,,,,,,,,,,,,,,,1,5.7558,,0,1,107,257,127,1,stimuli/stim_20210519_power2amp/equal_lnn_AM4Hz_s35_27.m4a,,,
,,,,,41258,2021-05-31_07h41.18.344,judgeSpeechMusic_20210519_logNormShiftAmp_mXs,2020.1.2,Win32,60,,,,,,,,,,,,,,,,,,,,,,,,,,2,7.1235,,0,1,108,258,41,1,stimuli/stim_20210519_power2amp/equal_lnn_AM1Hz_s55_22.m4a,,,
,,,,,41258,2021-05-31_07h41.18.344,judgeSpeechMusic_20210519_logNormShiftAmp_mXs,2020.1.2,Win32,60,,,,,,,,,,,,,,,,,,,,,,,,,,2,6.4815,,0,1,109,259,26,1,stimuli/stim_20210519_power2amp/equal_lnn_AM1Hz_s35_3.m4a,,,
,,,,,41258,2021-05-31_07h41.18.344,judgeSpeechMusic_20210519_logNormShiftAmp_mXs,2020.1.2,Win32,60,,,,,,,,,,,,,,,,,,,,,,,,,,2,6.8528,,0,1,110,260,22,1,stimuli/stim_20210519_power2amp/equal_lnn_AM1Hz_s35_33.m4a,,,
,,,,,41258,2021-05-31_07h41.18.344,judgeSpeechMusic_20210519_logNormShiftAmp_mXs,2020.1.2,Win32,60,,,,,,,,,,,,,,,,,,,,,,,,,,2,5.8555,,0,1,111,261,139,1,stimuli/stim_20210519_power2amp/equal_lnn_AM4Hz_s45_24.m4a,,,
,,,,,41258,2021-05-31_07h41.18.344,judgeSpeechMusic_20210519_logNormShiftAmp_mXs,2020.1.2,Win32,60,,,,,,,,,,,,,,,,,,,,,,,,,,2,5.7239,,0,1,112,262,79,1,stimuli/stim_20210519_power2amp/equal_lnn_AM2.5Hz_s35_13.m4a,,,
,,,,,41258,2021-05-31_07h41.18.344,judgeSpeechMusic_20210519_logNormShiftAmp_mXs,2020.1.2,Win32,60,,,,,,,,,,,,,,,,,,,,,,,,,,1,6.5402,,0,1,113,263,14,1,stimuli/stim_20210519_power2amp/equal_lnn_AM1Hz_s25_50.m4a,,,
,,,,,41258,2021-05-31_07h41.18.344,judgeSpeechMusic_20210519_logNormShiftAmp_mXs,2020.1.2,Win32,60,,,,,,,,,,,,,,,,,,,,,,,,,,1,8.1765,,0,1,114,264,140,1,stimuli/stim_20210519_power2amp/equal_lnn_AM4Hz_s55_41.m4a,,,
,,,,,41258,2021-05-31_07h41.18.344,judgeSpeechMusic_20210519_logNormShiftAmp_mXs,2020.1.2,Win32,60,,,,,,,,,,,,,,,,,,,,,,,,,,2,6.9893,3,1,1,115,265,40,1,stimuli/stim_20210519_power2amp/equal_lnn_AM1Hz_s55_15.m4a,1.0443,,
,,,,,41258,2021-05-31_07h41.18.344,judgeSpeechMusic_20210519_logNormShiftAmp_mXs,2020.1.2,Win32,60,,,,,,,,,,,,,,,,,,,,,,,,,,1,6.1936,,0,1,116,266,17,1,stimuli/stim_20210519_power2amp/equal_lnn_AM1Hz_s25_11.m4a,,,
,,,,,41258,2021-05-31_07h41.18.344,judgeSpeechMusic_20210519_logNormShiftAmp_mXs,2020.1.2,Win32,60,,,,,,,,,,,,,,,,,,,,,,,,,,2,5.9546,,0,1,117,267,99,1,stimuli/stim_20210519_power2amp/equal_lnn_AM2.5Hz_s55_41.m4a,,,
,,,,,41258,2021-05-31_07h41.18.344,judgeSpeechMusic_20210519_logNormShiftAmp_mXs,2020.1.2,Win32,60,,,,,,,,,,,,,,,,,,,,,,,,,,1,7.0224,,0,1,118,268,8,1,stimuli/stim_20210519_power2amp/equal_lnn_AM1Hz_s15_38.m4a,,,
,,,,,41258,2021-05-31_07h41.18.344,judgeSpeechMusic_20210519_logNormShiftAmp_mXs,2020.1.2,Win32,60,,,,,,,,,,,,,,,,,,,,,,,,,,2,6.9731,,0,1,119,269,103,1,stimuli/stim_20210519_power2amp/equal_lnn_AM4Hz_s15_18.m4a,,,
,,,,,41258,2021-05-31_07h41.18.344,judgeSpeechMusic_20210519_logNormShiftAmp_mXs,2020.1.2,Win32,60,,,,,,,,,,,,,,,,,,,,,,,,,,2,6.5401,,0,1,120,270,133,1,stimuli/stim_20210519_power2amp/equal_lnn_AM4Hz_s45_13.m4a,,,
,,,,,41258,2021-05-31_07h41.18.344,judgeSpeechMusic_20210519_logNormShiftAmp_mXs,2020.1.2,Win32,60,,,,,,,,,,,,,,,,,,,,,,,,,,2,5.7725,,0,1,121,271,102,1,stimuli/stim_20210519_power2amp/equal_lnn_AM4Hz_s15_11.m4a,,,
,,,,,41258,2021-05-31_07h41.18.344,judgeSpeechMusic_20210519_logNormShiftAmp_mXs,2020.1.2,Win32,60,,,,,,,,,,,,,,,,,,,,,,,,,,2,5.7226,,0,1,122,272,105,1,stimuli/stim_20210519_power2amp/equal_lnn_AM4Hz_s15_7.m4a,,,
,,,,,41258,2021-05-31_07h41.18.344,judgeSpeechMusic_20210519_logNormShiftAmp_mXs,2020.1.2,Win32,60,,,,,,,,,,,,,,,,,,,,,,,,,,1,5.6729,,0,1,123,273,35,1,stimuli/stim_20210519_power2amp/equal_lnn_AM1Hz_s45_48.m4a,,,
,,,,,41258,2021-05-31_07h41.18.344,judgeSpeechMusic_20210519_logNormShiftAmp_mXs,2020.1.2,Win32,60,,,,,,,,,,,,,,,,,,,,,,,,,,1,5.7089,,0,1,124,274,3,1,stimuli/stim_20210519_power2amp/equal_lnn_AM1Hz_s15_48.m4a,,,
,,,,,41258,2021-05-31_07h41.18.344,judgeSpeechMusic_20210519_logNormShiftAmp_mXs,2020.1.2,Win32,60,,,,,,,,,,,,,,,,,,,,,,,,,,1,6.9772,,0,1,125,275,90,1,stimuli/stim_20210519_power2amp/equal_lnn_AM2.5Hz_s55_31.m4a,,,
,,,,,41258,2021-05-31_07h41.18.344,judgeSpeechMusic_20210519_logNormShiftAmp_mXs,2020.1.2,Win32,60,,,,,,,,,,,,,,,,,,,,,,,,,,2,7.8733,,0,1,126,276,30,1,stimuli/stim_20210519_power2amp/equal_lnn_AM1Hz_s45_22.m4a,,,
,,,,,41258,2021-05-31_07h41.18.344,judgeSpeechMusic_20210519_logNormShiftAmp_mXs,2020.1.2,Win32,60,,,,,,,,,,,,,,,,,,,,,,,,,,2,6.6748,,0,1,127,277,121,1,stimuli/stim_20210519_power2amp/equal_lnn_AM4Hz_s35_31.m4a,,,
,,,,,41258,2021-05-31_07h41.18.344,judgeSpeechMusic_20210519_logNormShiftAmp_mXs,2020.1.2,Win32,60,,,,,,,,,,,,,,,,,,,,,,,,,,2,6.7897,,0,1,128,278,119,1,stimuli/stim_20210519_power2amp/equal_lnn_AM4Hz_s25_49.m4a,,,
,,,,,41258,2021-05-31_07h41.18.344,judgeSpeechMusic_20210519_logNormShiftAmp_mXs,2020.1.2,Win32,60,,,,,,,,,,,,,,,,,,,,,,,,,,2,5.9922,,0,1,129,279,142,1,stimuli/stim_20210519_power2amp/equal_lnn_AM4Hz_s55_29.m4a,,,
,,,,,41258,2021-05-31_07h41.18.344,judgeSpeechMusic_20210519_logNormShiftAmp_mXs,2020.1.2,Win32,60,,,,,,,,,,,,,,,,,,,,,,,,,,2,5.9432,,0,1,130,280,66,1,stimuli/stim_20210519_power2amp/equal_lnn_AM2.5Hz_s25_9.m4a,,,
,,,,,41258,2021-05-31_07h41.18.344,judgeSpeechMusic_20210519_logNormShiftAmp_mXs,2020.1.2,Win32,60,,,,,,,,,,,,,,,,,,,,,,,,,,2,6.1396,,0,1,131,281,144,1,stimuli/stim_20210519_power2amp/equal_lnn_AM4Hz_s55_13.m4a,,,
,,,,,41258,2021-05-31_07h41.18.344,judgeSpeechMusic_20210519_logNormShiftAmp_mXs,2020.1.2,Win32,60,,,,,,,,,,,,,,,,,,,,,,,,,,1,5.8726,,0,1,132,282,126,1,stimuli/stim_20210519_power2amp/equal_lnn_AM4Hz_s35_39.m4a,,,
,,,,,41258,2021-05-31_07h41.18.344,judgeSpeechMusic_20210519_logNormShiftAmp_mXs,2020.1.2,Win32,60,,,,,,,,,,,,,,,,,,,,,,,,,,2,6.046,,0,1,133,283,137,1,stimuli/stim_20210519_power2amp/equal_lnn_AM4Hz_s45_8.m4a,,,
,,,,,41258,2021-05-31_07h41.18.344,judgeSpeechMusic_20210519_logNormShiftAmp_mXs,2020.1.2,Win32,60,,,,,,,,,,,,,,,,,,,,,,,,,,1,5.9237,,0,1,134,284,2,1,stimuli/stim_20210519_power2amp/equal_lnn_AM1Hz_s15_25.m4a,,,
,,,,,41258,2021-05-31_07h41.18.344,judgeSpeechMusic_20210519_logNormShiftAmp_mXs,2020.1.2,Win32,60,,,,,,,,,,,,,,,,,,,,,,,,,,2,7.1554,2,1,1,135,285,106,1,stimuli/stim_20210519_power2amp/equal_lnn_AM4Hz_s15_14.m4a,0.693,,
,,,,,41258,2021-05-31_07h41.18.344,judgeSpeechMusic_20210519_logNormShiftAmp_mXs,2020.1.2,Win32,60,,,,,,,,,,,,,,,,,,,,,,,,,,1,6.0207,,0,1,136,286,112,1,stimuli/stim_20210519_power2amp/equal_lnn_AM4Hz_s25_50.m4a,,,
,,,,,41258,2021-05-31_07h41.18.344,judgeSpeechMusic_20210519_logNormShiftAmp_mXs,2020.1.2,Win32,60,,,,,,,,,,,,,,,,,,,,,,,,,,2,6.5117,,0,1,137,287,128,1,stimuli/stim_20210519_power2amp/equal_lnn_AM4Hz_s35_50.m4a,,,
,,,,,41258,2021-05-31_07h41.18.344,judgeSpeechMusic_20210519_logNormShiftAmp_mXs,2020.1.2,Win32,60,,,,,,,,,,,,,,,,,,,,,,,,,,2,6.5705,,0,1,138,288,91,1,stimuli/stim_20210519_power2amp/equal_lnn_AM2.5Hz_s55_49.m4a,,,
,,,,,41258,2021-05-31_07h41.18.344,judgeSpeechMusic_20210519_logNormShiftAmp_mXs,2020.1.2,Win32,60,,,,,,,,,,,,,,,,,,,,,,,,,,1,7.1773,,0,1,139,289,31,1,stimuli/stim_20210519_power2amp/equal_lnn_AM1Hz_s45_46.m4a,,,
,,,,,41258,2021-05-31_07h41.18.344,judgeSpeechMusic_20210519_logNormShiftAmp_mXs,2020.1.2,Win32,60,,,,,,,,,,,,,,,,,,,,,,,,,,1,6.0513,,0,1,140,290,75,1,stimuli/stim_20210519_power2amp/equal_lnn_AM2.5Hz_s35_5.m4a,,,
,,,,,41258,2021-05-31_07h41.18.344,judgeSpeechMusic_20210519_logNormShiftAmp_mXs,2020.1.2,Win32,60,,,,,,,,,,,,,,,,,,,,,,,,,,2,5.7535,,0,1,141,291,37,1,stimuli/stim_20210519_power2amp/equal_lnn_AM1Hz_s45_21.m4a,,,
,,,,,41258,2021-05-31_07h41.18.344,judgeSpeechMusic_20210519_logNormShiftAmp_mXs,2020.1.2,Win32,60,,,,,,,,,,,,,,,,,,,,,,,,,,1,6.4046,,0,1,142,292,32,1,stimuli/stim_20210519_power2amp/equal_lnn_AM1Hz_s45_5.m4a,,,
,,,,,41258,2021-05-31_07h41.18.344,judgeSpeechMusic_20210519_logNormShiftAmp_mXs,2020.1.2,Win32,60,,,,,,,,,,,,,,,,,,,,,,,,,,2,6.0078,,0,1,143,293,118,1,stimuli/stim_20210519_power2amp/equal_lnn_AM4Hz_s25_24.m4a,,,
,,,,,41258,2021-05-31_07h41.18.344,judgeSpeechMusic_20210519_logNormShiftAmp_mXs,2020.1.2,Win32,60,,,,,,,,,,,,,,,,,,,,,,,,,,2,6.7067,,0,1,144,294,86,1,stimuli/stim_20210519_power2amp/equal_lnn_AM2.5Hz_s45_40.m4a,,,
,,,,,41258,2021-05-31_07h41.18.344,judgeSpeechMusic_20210519_logNormShiftAmp_mXs,2020.1.2,Win32,60,,,,,,,,,,,,,,,,,,,,,,,,,,2,7.0889,,0,1,145,295,100,1,stimuli/stim_20210519_power2amp/equal_lnn_AM4Hz_s15_47.m4a,,,
,,,,,41258,2021-05-31_07h41.18.344,judgeSpeechMusic_20210519_logNormShiftAmp_mXs,2020.1.2,Win32,60,,,,,,,,,,,,,,,,,,,,,,,,,,1,6.0225,,0,1,146,296,1,1,stimuli/stim_20210519_power2amp/equal_lnn_AM1Hz_s15_2.m4a,,,
,,,,,41258,2021-05-31_07h41.18.344,judgeSpeechMusic_20210519_logNormShiftAmp_mXs,2020.1.2,Win32,60,,,,,,,,,,,,,,,,,,,,,,,,,,2,6.7296,,0,1,147,297,60,1,stimuli/stim_20210519_power2amp/equal_lnn_AM2.5Hz_s25_47.m4a,,,
,,,,,41258,2021-05-31_07h41.18.344,judgeSpeechMusic_20210519_logNormShiftAmp_mXs,2020.1.2,Win32,60,,,,,,,,,,,,,,,,,,,,,,,,,,2,7.5874,,0,1,148,298,27,1,stimuli/stim_20210519_power2amp/equal_lnn_AM1Hz_s35_12.m4a,,,
,,,,,41258,2021-05-31_07h41.18.344,judgeSpeechMusic_20210519_logNormShiftAmp_mXs,2020.1.2,Win32,60,,,,,,,,,,,,,,,,,,,,,,,,,,2,7.2111,,0,1,149,299,34,1,stimuli/stim_20210519_power2amp/equal_lnn_AM1Hz_s45_24.m4a,,,
,,,,,41258,2021-05-31_07h41.18.344,judgeSpeechMusic_20210519_logNormShiftAmp_mXs,2020.1.2,Win32,60,,,,,,,,,,,,,,,,,,,,,,,,,,,,,,,,,,,,,space,5.2275
