headphoneResponse.keys,headphoneResponse.corr,headphoneResponse.rt,headphoneTrial.thisRepN,headphoneTrial.thisTrialN,headphoneTrial.thisN,headphoneTrial.thisIndex,headphoneTrial.ran,headphone_sound1,headphone_sound2,headphone_sound3,corrAns,participant,date,expName,psychopyVersion,OS,frameRate,trainSlider.response,trainSlider.rt,beepTrainResponse.keys,beepTrainResponse.corr,trainingTrials.thisRepN,trainingTrials.thisTrialN,trainingTrials.thisN,trainingTrials.thisIndex,trainingTrials.ran,trainAudioFile,beepTrainResponse.rt,readyReal_resp.keys,readyReal_resp.rt,ratingSlider.response,ratingSlider.rt,beepResp.keys,beepResp.corr,expTrials.thisRepN,expTrials.thisTrialN,expTrials.thisN,expTrials.thisIndex,expTrials.ran,audioFile,beepResp.rt,end_resp.keys,end_resp.rt
2,1,1.50446,0,0,0,3,1,stimuli/screen_origin.wav,stimuli/screen_quiet.wav,stimuli/screen_antiphase.wav,2,41257,2021-06-05_15h34.04.348,judgeSpeechMusic_20210519_logNormShiftAmp_mXs,2020.1.2,MacIntel,60,,,,,,,,,,,,,,,,,,,,,,,,,,
1,1,3.597615,0,1,1,4,1,stimuli/screen_quiet.wav,stimuli/screen_antiphase.wav,stimuli/screen_origin.wav,1,41257,2021-06-05_15h34.04.348,judgeSpeechMusic_20210519_logNormShiftAmp_mXs,2020.1.2,MacIntel,60,,,,,,,,,,,,,,,,,,,,,,,,,,
3,1,1.08541,0,2,2,2,1,stimuli/screen_origin.wav,stimuli/screen_antiphase.wav,stimuli/screen_quiet.wav,3,41257,2021-06-05_15h34.04.348,judgeSpeechMusic_20210519_logNormShiftAmp_mXs,2020.1.2,MacIntel,60,,,,,,,,,,,,,,,,,,,,,,,,,,
2,1,1.666885,0,3,3,1,1,stimuli/screen_antiphase.wav,stimuli/screen_quiet.wav,stimuli/screen_origin.wav,2,41257,2021-06-05_15h34.04.348,judgeSpeechMusic_20210519_logNormShiftAmp_mXs,2020.1.2,MacIntel,60,,,,,,,,,,,,,,,,,,,,,,,,,,
1,1,1.088395,0,4,4,5,1,stimuli/screen_quiet.wav,stimuli/screen_origin.wav,stimuli/screen_antiphase.wav,1,41257,2021-06-05_15h34.04.348,judgeSpeechMusic_20210519_logNormShiftAmp_mXs,2020.1.2,MacIntel,60,,,,,,,,,,,,,,,,,,,,,,,,,,
3,1,1.43515,0,5,5,0,1,stimuli/screen_antiphase.wav,stimuli/screen_origin.wav,stimuli/screen_quiet.wav,3,41257,2021-06-05_15h34.04.348,judgeSpeechMusic_20210519_logNormShiftAmp_mXs,2020.1.2,MacIntel,60,,,,,,,,,,,,,,,,,,,,,,,,,,
,,,,,,,,,,,,41257,2021-06-05_15h34.04.348,judgeSpeechMusic_20210519_logNormShiftAmp_mXs,2020.1.2,MacIntel,60,1,18.399805,,0,0,0,0,2,1,stimuli/stim_20210519_power2amp/equal_lnn_AM_training3.5Hz_s20.m4a,,,,,,,,,,,,,,,,
,,,,,,,,,,,,41257,2021-06-05_15h34.04.348,judgeSpeechMusic_20210519_logNormShiftAmp_mXs,2020.1.2,MacIntel,60,1,9.453215,,0,0,1,1,3,1,stimuli/stim_20210519_power2amp/equal_lnn_AM_training3.5Hz_s50.m4a,,,,,,,,,,,,,,,,
,,,,,,,,,,,,41257,2021-06-05_15h34.04.348,judgeSpeechMusic_20210519_logNormShiftAmp_mXs,2020.1.2,MacIntel,60,2,7.526435,3,1,0,2,2,1,1,stimuli/stim_20210519_power2amp/equal_lnn_AM_training1.5Hz_s50.m4a,2.07501,,,,,,,,,,,,,,,
,,,,,,,,,,,,41257,2021-06-05_15h34.04.348,judgeSpeechMusic_20210519_logNormShiftAmp_mXs,2020.1.2,MacIntel,60,2,9.555595,,0,0,3,3,0,1,stimuli/stim_20210519_power2amp/equal_lnn_AM_training1.5Hz_s20.m4a,,,,,,,,,,,,,,,,
,,,,,,,,,,,,41257,2021-06-05_15h34.04.348,judgeSpeechMusic_20210519_logNormShiftAmp_mXs,2020.1.2,MacIntel,60,,,,,,,,,,,,space,39.581315,1,12.6218,,0,0,0,0,12,1,stimuli/stim_20210519_power2amp/equal_lnn_AM1Hz_s25_33.m4a,,,
,,,,,,,,,,,,41257,2021-06-05_15h34.04.348,judgeSpeechMusic_20210519_logNormShiftAmp_mXs,2020.1.2,MacIntel,60,,,,,,,,,,,,,,1,8.942895,,0,0,1,1,40,1,stimuli/stim_20210519_power2amp/equal_lnn_AM1Hz_s55_27.m4a,,,
,,,,,,,,,,,,41257,2021-06-05_15h34.04.348,judgeSpeechMusic_20210519_logNormShiftAmp_mXs,2020.1.2,MacIntel,60,,,,,,,,,,,,,,2,7.256185,,0,0,2,2,90,1,stimuli/stim_20210519_power2amp/equal_lnn_AM2.5Hz_s55_36.m4a,,,
,,,,,,,,,,,,41257,2021-06-05_15h34.04.348,judgeSpeechMusic_20210519_logNormShiftAmp_mXs,2020.1.2,MacIntel,60,,,,,,,,,,,,,,2,6.14243,,0,0,3,3,147,1,stimuli/stim_20210519_power2amp/equal_lnn_AM4Hz_s55_27.m4a,,,
,,,,,,,,,,,,41257,2021-06-05_15h34.04.348,judgeSpeechMusic_20210519_logNormShiftAmp_mXs,2020.1.2,MacIntel,60,,,,,,,,,,,,,,1,6.30986,,0,0,4,4,139,1,stimuli/stim_20210519_power2amp/equal_lnn_AM4Hz_s45_21.m4a,,,
,,,,,,,,,,,,41257,2021-06-05_15h34.04.348,judgeSpeechMusic_20210519_logNormShiftAmp_mXs,2020.1.2,MacIntel,60,,,,,,,,,,,,,,2,7.45945,,0,0,5,5,87,1,stimuli/stim_20210519_power2amp/equal_lnn_AM2.5Hz_s45_5.m4a,,,
,,,,,,,,,,,,41257,2021-06-05_15h34.04.348,judgeSpeechMusic_20210519_logNormShiftAmp_mXs,2020.1.2,MacIntel,60,,,,,,,,,,,,,,2,6.143175,,0,0,6,6,103,1,stimuli/stim_20210519_power2amp/equal_lnn_AM4Hz_s15_14.m4a,,,
,,,,,,,,,,,,41257,2021-06-05_15h34.04.348,judgeSpeechMusic_20210519_logNormShiftAmp_mXs,2020.1.2,MacIntel,60,,,,,,,,,,,,,,2,7.041955,,0,0,7,7,120,1,stimuli/stim_20210519_power2amp/equal_lnn_AM4Hz_s35_17.m4a,,,
,,,,,,,,,,,,41257,2021-06-05_15h34.04.348,judgeSpeechMusic_20210519_logNormShiftAmp_mXs,2020.1.2,MacIntel,60,,,,,,,,,,,,,,2,11.7428,,0,0,8,8,45,1,stimuli/stim_20210519_power2amp/equal_lnn_AM1Hz_s55_28.m4a,,,
,,,,,,,,,,,,41257,2021-06-05_15h34.04.348,judgeSpeechMusic_20210519_logNormShiftAmp_mXs,2020.1.2,MacIntel,60,,,,,,,,,,,,,,2,6.044355,,0,0,9,9,89,1,stimuli/stim_20210519_power2amp/equal_lnn_AM2.5Hz_s45_26.m4a,,,
,,,,,,,,,,,,41257,2021-06-05_15h34.04.348,judgeSpeechMusic_20210519_logNormShiftAmp_mXs,2020.1.2,MacIntel,60,,,,,,,,,,,,,,1,6.45904,,0,0,10,10,2,1,stimuli/stim_20210519_power2amp/equal_lnn_AM1Hz_s15_35.m4a,,,
,,,,,,,,,,,,41257,2021-06-05_15h34.04.348,judgeSpeechMusic_20210519_logNormShiftAmp_mXs,2020.1.2,MacIntel,60,,,,,,,,,,,,,,1,6.31082,,0,0,11,11,121,1,stimuli/stim_20210519_power2amp/equal_lnn_AM4Hz_s35_46.m4a,,,
,,,,,,,,,,,,41257,2021-06-05_15h34.04.348,judgeSpeechMusic_20210519_logNormShiftAmp_mXs,2020.1.2,MacIntel,60,,,,,,,,,,,,,,2,6.894565,,0,0,12,12,38,1,stimuli/stim_20210519_power2amp/equal_lnn_AM1Hz_s45_21.m4a,,,
,,,,,,,,,,,,41257,2021-06-05_15h34.04.348,judgeSpeechMusic_20210519_logNormShiftAmp_mXs,2020.1.2,MacIntel,60,,,,,,,,,,,,,,2,5.9274,,0,0,13,13,15,1,stimuli/stim_20210519_power2amp/equal_lnn_AM1Hz_s25_17.m4a,,,
,,,,,,,,,,,,41257,2021-06-05_15h34.04.348,judgeSpeechMusic_20210519_logNormShiftAmp_mXs,2020.1.2,MacIntel,60,,,,,,,,,,,,,,2,5.928145,,0,0,14,14,79,1,stimuli/stim_20210519_power2amp/equal_lnn_AM2.5Hz_s35_16.m4a,,,
,,,,,,,,,,,,41257,2021-06-05_15h34.04.348,judgeSpeechMusic_20210519_logNormShiftAmp_mXs,2020.1.2,MacIntel,60,,,,,,,,,,,,,,1,6.707705,,0,0,15,15,7,1,stimuli/stim_20210519_power2amp/equal_lnn_AM1Hz_s15_1.m4a,,,
,,,,,,,,,,,,41257,2021-06-05_15h34.04.348,judgeSpeechMusic_20210519_logNormShiftAmp_mXs,2020.1.2,MacIntel,60,,,,,,,,,,,,,,2,7.411415,,0,0,16,16,132,1,stimuli/stim_20210519_power2amp/equal_lnn_AM4Hz_s45_25.m4a,,,
,,,,,,,,,,,,41257,2021-06-05_15h34.04.348,judgeSpeechMusic_20210519_logNormShiftAmp_mXs,2020.1.2,MacIntel,60,,,,,,,,,,,,,,2,6.208735,,0,0,17,17,55,1,stimuli/stim_20210519_power2amp/equal_lnn_AM2.5Hz_s15_12.m4a,,,
,,,,,,,,,,,,41257,2021-06-05_15h34.04.348,judgeSpeechMusic_20210519_logNormShiftAmp_mXs,2020.1.2,MacIntel,60,,,,,,,,,,,,,,2,6.239775,,0,0,18,18,50,1,stimuli/stim_20210519_power2amp/equal_lnn_AM2.5Hz_s15_3.m4a,,,
,,,,,,,,,,,,41257,2021-06-05_15h34.04.348,judgeSpeechMusic_20210519_logNormShiftAmp_mXs,2020.1.2,MacIntel,60,,,,,,,,,,,,,,1,7.07801,,0,0,19,19,145,1,stimuli/stim_20210519_power2amp/equal_lnn_AM4Hz_s55_28.m4a,,,
,,,,,,,,,,,,41257,2021-06-05_15h34.04.348,judgeSpeechMusic_20210519_logNormShiftAmp_mXs,2020.1.2,MacIntel,60,,,,,,,,,,,,,,2,6.111,,0,0,20,20,68,1,stimuli/stim_20210519_power2amp/equal_lnn_AM2.5Hz_s25_8.m4a,,,
,,,,,,,,,,,,41257,2021-06-05_15h34.04.348,judgeSpeechMusic_20210519_logNormShiftAmp_mXs,2020.1.2,MacIntel,60,,,,,,,,,,,,,,2,7.91238,,0,0,21,21,13,1,stimuli/stim_20210519_power2amp/equal_lnn_AM1Hz_s25_7.m4a,,,
,,,,,,,,,,,,41257,2021-06-05_15h34.04.348,judgeSpeechMusic_20210519_logNormShiftAmp_mXs,2020.1.2,MacIntel,60,,,,,,,,,,,,,,2,5.89271,,0,0,22,22,23,1,stimuli/stim_20210519_power2amp/equal_lnn_AM1Hz_s35_44.m4a,,,
,,,,,,,,,,,,41257,2021-06-05_15h34.04.348,judgeSpeechMusic_20210519_logNormShiftAmp_mXs,2020.1.2,MacIntel,60,,,,,,,,,,,,,,2,6.859785,,0,0,23,23,130,1,stimuli/stim_20210519_power2amp/equal_lnn_AM4Hz_s45_42.m4a,,,
,,,,,,,,,,,,41257,2021-06-05_15h34.04.348,judgeSpeechMusic_20210519_logNormShiftAmp_mXs,2020.1.2,MacIntel,60,,,,,,,,,,,,,,1,6.696635,,0,0,24,24,93,1,stimuli/stim_20210519_power2amp/equal_lnn_AM2.5Hz_s55_38.m4a,,,
,,,,,,,,,,,,41257,2021-06-05_15h34.04.348,judgeSpeechMusic_20210519_logNormShiftAmp_mXs,2020.1.2,MacIntel,60,,,,,,,,,,,,,,2,7.025425,,0,0,25,25,102,1,stimuli/stim_20210519_power2amp/equal_lnn_AM4Hz_s15_49.m4a,,,
,,,,,,,,,,,,41257,2021-06-05_15h34.04.348,judgeSpeechMusic_20210519_logNormShiftAmp_mXs,2020.1.2,MacIntel,60,,,,,,,,,,,,,,1,6.527015,,0,0,26,26,76,1,stimuli/stim_20210519_power2amp/equal_lnn_AM2.5Hz_s35_45.m4a,,,
,,,,,,,,,,,,41257,2021-06-05_15h34.04.348,judgeSpeechMusic_20210519_logNormShiftAmp_mXs,2020.1.2,MacIntel,60,,,,,,,,,,,,,,2,6.6299,,0,0,27,27,11,1,stimuli/stim_20210519_power2amp/equal_lnn_AM1Hz_s25_13.m4a,,,
,,,,,,,,,,,,41257,2021-06-05_15h34.04.348,judgeSpeechMusic_20210519_logNormShiftAmp_mXs,2020.1.2,MacIntel,60,,,,,,,,,,,,,,1,6.55872,,0,0,28,28,138,1,stimuli/stim_20210519_power2amp/equal_lnn_AM4Hz_s45_16.m4a,,,
,,,,,,,,,,,,41257,2021-06-05_15h34.04.348,judgeSpeechMusic_20210519_logNormShiftAmp_mXs,2020.1.2,MacIntel,60,,,,,,,,,,,,,,2,6.276485,,0,0,29,29,144,1,stimuli/stim_20210519_power2amp/equal_lnn_AM4Hz_s55_15.m4a,,,
,,,,,,,,,,,,41257,2021-06-05_15h34.04.348,judgeSpeechMusic_20210519_logNormShiftAmp_mXs,2020.1.2,MacIntel,60,,,,,,,,,,,,,,2,6.711335,,0,0,30,30,108,1,stimuli/stim_20210519_power2amp/equal_lnn_AM4Hz_s15_9.m4a,,,
,,,,,,,,,,,,41257,2021-06-05_15h34.04.348,judgeSpeechMusic_20210519_logNormShiftAmp_mXs,2020.1.2,MacIntel,60,,,,,,,,,,,,,,1,7.27285,,0,0,31,31,96,1,stimuli/stim_20210519_power2amp/equal_lnn_AM2.5Hz_s55_1.m4a,,,
,,,,,,,,,,,,41257,2021-06-05_15h34.04.348,judgeSpeechMusic_20210519_logNormShiftAmp_mXs,2020.1.2,MacIntel,60,,,,,,,,,,,,,,2,6.53075,,0,0,32,32,119,1,stimuli/stim_20210519_power2amp/equal_lnn_AM4Hz_s25_47.m4a,,,
,,,,,,,,,,,,41257,2021-06-05_15h34.04.348,judgeSpeechMusic_20210519_logNormShiftAmp_mXs,2020.1.2,MacIntel,60,,,,,,,,,,,,,,1,7.57787,1,1,0,33,33,113,1,stimuli/stim_20210519_power2amp/equal_lnn_AM4Hz_s25_20.m4a,3.02705,,
,,,,,,,,,,,,41257,2021-06-05_15h34.04.348,judgeSpeechMusic_20210519_logNormShiftAmp_mXs,2020.1.2,MacIntel,60,,,,,,,,,,,,,,1,7.324605,,0,0,34,34,58,1,stimuli/stim_20210519_power2amp/equal_lnn_AM2.5Hz_s15_26.m4a,,,
,,,,,,,,,,,,41257,2021-06-05_15h34.04.348,judgeSpeechMusic_20210519_logNormShiftAmp_mXs,2020.1.2,MacIntel,60,,,,,,,,,,,,,,2,7.1408,,0,0,35,35,123,1,stimuli/stim_20210519_power2amp/equal_lnn_AM4Hz_s35_21.m4a,,,
,,,,,,,,,,,,41257,2021-06-05_15h34.04.348,judgeSpeechMusic_20210519_logNormShiftAmp_mXs,2020.1.2,MacIntel,60,,,,,,,,,,,,,,2,5.84254,,0,0,36,36,106,1,stimuli/stim_20210519_power2amp/equal_lnn_AM4Hz_s15_26.m4a,,,
,,,,,,,,,,,,41257,2021-06-05_15h34.04.348,judgeSpeechMusic_20210519_logNormShiftAmp_mXs,2020.1.2,MacIntel,60,,,,,,,,,,,,,,2,7.41218,,0,0,37,37,91,1,stimuli/stim_20210519_power2amp/equal_lnn_AM2.5Hz_s55_12.m4a,,,
,,,,,,,,,,,,41257,2021-06-05_15h34.04.348,judgeSpeechMusic_20210519_logNormShiftAmp_mXs,2020.1.2,MacIntel,60,,,,,,,,,,,,,,2,6.30762,,0,0,38,38,128,1,stimuli/stim_20210519_power2amp/equal_lnn_AM4Hz_s35_49.m4a,,,
,,,,,,,,,,,,41257,2021-06-05_15h34.04.348,judgeSpeechMusic_20210519_logNormShiftAmp_mXs,2020.1.2,MacIntel,60,,,,,,,,,,,,,,2,7.22684,,0,0,39,39,39,1,stimuli/stim_20210519_power2amp/equal_lnn_AM1Hz_s45_47.m4a,,,
,,,,,,,,,,,,41257,2021-06-05_15h34.04.348,judgeSpeechMusic_20210519_logNormShiftAmp_mXs,2020.1.2,MacIntel,60,,,,,,,,,,,,,,2,8.429535,,0,0,40,40,124,1,stimuli/stim_20210519_power2amp/equal_lnn_AM4Hz_s35_48.m4a,,,
,,,,,,,,,,,,41257,2021-06-05_15h34.04.348,judgeSpeechMusic_20210519_logNormShiftAmp_mXs,2020.1.2,MacIntel,60,,,,,,,,,,,,,,1,6.49302,,0,0,41,41,104,1,stimuli/stim_20210519_power2amp/equal_lnn_AM4Hz_s15_22.m4a,,,
,,,,,,,,,,,,41257,2021-06-05_15h34.04.348,judgeSpeechMusic_20210519_logNormShiftAmp_mXs,2020.1.2,MacIntel,60,,,,,,,,,,,,,,2,7.6216,,0,0,42,42,65,1,stimuli/stim_20210519_power2amp/equal_lnn_AM2.5Hz_s25_48.m4a,,,
,,,,,,,,,,,,41257,2021-06-05_15h34.04.348,judgeSpeechMusic_20210519_logNormShiftAmp_mXs,2020.1.2,MacIntel,60,,,,,,,,,,,,,,1,7.292885,,0,0,43,43,146,1,stimuli/stim_20210519_power2amp/equal_lnn_AM4Hz_s55_5.m4a,,,
,,,,,,,,,,,,41257,2021-06-05_15h34.04.348,judgeSpeechMusic_20210519_logNormShiftAmp_mXs,2020.1.2,MacIntel,60,,,,,,,,,,,,,,1,6.244405,,0,0,44,44,149,1,stimuli/stim_20210519_power2amp/equal_lnn_AM4Hz_s55_48.m4a,,,
,,,,,,,,,,,,41257,2021-06-05_15h34.04.348,judgeSpeechMusic_20210519_logNormShiftAmp_mXs,2020.1.2,MacIntel,60,,,,,,,,,,,,,,2,7.40838,,0,0,45,45,57,1,stimuli/stim_20210519_power2amp/equal_lnn_AM2.5Hz_s15_14.m4a,,,
,,,,,,,,,,,,41257,2021-06-05_15h34.04.348,judgeSpeechMusic_20210519_logNormShiftAmp_mXs,2020.1.2,MacIntel,60,,,,,,,,,,,,,,2,6.12752,,0,0,46,46,100,1,stimuli/stim_20210519_power2amp/equal_lnn_AM4Hz_s15_6.m4a,,,
,,,,,,,,,,,,41257,2021-06-05_15h34.04.348,judgeSpeechMusic_20210519_logNormShiftAmp_mXs,2020.1.2,MacIntel,60,,,,,,,,,,,,,,1,9.342755,,0,0,47,47,56,1,stimuli/stim_20210519_power2amp/equal_lnn_AM2.5Hz_s15_15.m4a,,,
,,,,,,,,,,,,41257,2021-06-05_15h34.04.348,judgeSpeechMusic_20210519_logNormShiftAmp_mXs,2020.1.2,MacIntel,60,,,,,,,,,,,,,,2,10.47004,,0,0,48,48,67,1,stimuli/stim_20210519_power2amp/equal_lnn_AM2.5Hz_s25_29.m4a,,,
,,,,,,,,,,,,41257,2021-06-05_15h34.04.348,judgeSpeechMusic_20210519_logNormShiftAmp_mXs,2020.1.2,MacIntel,60,,,,,,,,,,,,,,2,7.892175,,0,0,49,49,29,1,stimuli/stim_20210519_power2amp/equal_lnn_AM1Hz_s35_11.m4a,,,
,,,,,,,,,,,,41257,2021-06-05_15h34.04.348,judgeSpeechMusic_20210519_logNormShiftAmp_mXs,2020.1.2,MacIntel,60,,,,,,,,,,,,,,1,6.293875,,0,0,50,50,27,1,stimuli/stim_20210519_power2amp/equal_lnn_AM1Hz_s35_26.m4a,,,
,,,,,,,,,,,,41257,2021-06-05_15h34.04.348,judgeSpeechMusic_20210519_logNormShiftAmp_mXs,2020.1.2,MacIntel,60,,,,,,,,,,,,,,1,6.612085,,0,0,51,51,134,1,stimuli/stim_20210519_power2amp/equal_lnn_AM4Hz_s45_30.m4a,,,
,,,,,,,,,,,,41257,2021-06-05_15h34.04.348,judgeSpeechMusic_20210519_logNormShiftAmp_mXs,2020.1.2,MacIntel,60,,,,,,,,,,,,,,2,7.109245,,0,0,52,52,63,1,stimuli/stim_20210519_power2amp/equal_lnn_AM2.5Hz_s25_14.m4a,,,
,,,,,,,,,,,,41257,2021-06-05_15h34.04.348,judgeSpeechMusic_20210519_logNormShiftAmp_mXs,2020.1.2,MacIntel,60,,,,,,,,,,,,,,2,8.20873,2,1,0,53,53,62,1,stimuli/stim_20210519_power2amp/equal_lnn_AM2.5Hz_s25_37.m4a,0.595045,,
,,,,,,,,,,,,41257,2021-06-05_15h34.04.348,judgeSpeechMusic_20210519_logNormShiftAmp_mXs,2020.1.2,MacIntel,60,,,,,,,,,,,,,,2,9.160515,,0,0,54,54,73,1,stimuli/stim_20210519_power2amp/equal_lnn_AM2.5Hz_s35_34.m4a,,,
,,,,,,,,,,,,41257,2021-06-05_15h34.04.348,judgeSpeechMusic_20210519_logNormShiftAmp_mXs,2020.1.2,MacIntel,60,,,,,,,,,,,,,,2,5.925535,,0,0,55,55,133,1,stimuli/stim_20210519_power2amp/equal_lnn_AM4Hz_s45_43.m4a,,,
,,,,,,,,,,,,41257,2021-06-05_15h34.04.348,judgeSpeechMusic_20210519_logNormShiftAmp_mXs,2020.1.2,MacIntel,60,,,,,,,,,,,,,,2,7.29283,,0,0,56,56,111,1,stimuli/stim_20210519_power2amp/equal_lnn_AM4Hz_s25_28.m4a,,,
,,,,,,,,,,,,41257,2021-06-05_15h34.04.348,judgeSpeechMusic_20210519_logNormShiftAmp_mXs,2020.1.2,MacIntel,60,,,,,,,,,,,,,,1,10.04229,,0,0,57,57,82,1,stimuli/stim_20210519_power2amp/equal_lnn_AM2.5Hz_s45_50.m4a,,,
,,,,,,,,,,,,41257,2021-06-05_15h34.04.348,judgeSpeechMusic_20210519_logNormShiftAmp_mXs,2020.1.2,MacIntel,60,,,,,,,,,,,,,,2,7.775155,,0,0,58,58,37,1,stimuli/stim_20210519_power2amp/equal_lnn_AM1Hz_s45_5.m4a,,,
,,,,,,,,,,,,41257,2021-06-05_15h34.04.348,judgeSpeechMusic_20210519_logNormShiftAmp_mXs,2020.1.2,MacIntel,60,,,,,,,,,,,,,,1,7.61951,,0,0,59,59,20,1,stimuli/stim_20210519_power2amp/equal_lnn_AM1Hz_s35_24.m4a,,,
,,,,,,,,,,,,41257,2021-06-05_15h34.04.348,judgeSpeechMusic_20210519_logNormShiftAmp_mXs,2020.1.2,MacIntel,60,,,,,,,,,,,,,,2,8.85976,,0,0,60,60,14,1,stimuli/stim_20210519_power2amp/equal_lnn_AM1Hz_s25_14.m4a,,,
,,,,,,,,,,,,41257,2021-06-05_15h34.04.348,judgeSpeechMusic_20210519_logNormShiftAmp_mXs,2020.1.2,MacIntel,60,,,,,,,,,,,,,,1,8.50989,,0,0,61,61,0,1,stimuli/stim_20210519_power2amp/equal_lnn_AM1Hz_s15_9.m4a,,,
,,,,,,,,,,,,41257,2021-06-05_15h34.04.348,judgeSpeechMusic_20210519_logNormShiftAmp_mXs,2020.1.2,MacIntel,60,,,,,,,,,,,,,,2,9.673835,,0,0,62,62,101,1,stimuli/stim_20210519_power2amp/equal_lnn_AM4Hz_s15_29.m4a,,,
,,,,,,,,,,,,41257,2021-06-05_15h34.04.348,judgeSpeechMusic_20210519_logNormShiftAmp_mXs,2020.1.2,MacIntel,60,,,,,,,,,,,,,,2,12.29187,,0,0,63,63,61,1,stimuli/stim_20210519_power2amp/equal_lnn_AM2.5Hz_s25_35.m4a,,,
,,,,,,,,,,,,41257,2021-06-05_15h34.04.348,judgeSpeechMusic_20210519_logNormShiftAmp_mXs,2020.1.2,MacIntel,60,,,,,,,,,,,,,,1,6.80868,,0,0,64,64,140,1,stimuli/stim_20210519_power2amp/equal_lnn_AM4Hz_s55_45.m4a,,,
,,,,,,,,,,,,41257,2021-06-05_15h34.04.348,judgeSpeechMusic_20210519_logNormShiftAmp_mXs,2020.1.2,MacIntel,60,,,,,,,,,,,,,,2,9.61156,,0,0,65,65,71,1,stimuli/stim_20210519_power2amp/equal_lnn_AM2.5Hz_s35_28.m4a,,,
,,,,,,,,,,,,41257,2021-06-05_15h34.04.348,judgeSpeechMusic_20210519_logNormShiftAmp_mXs,2020.1.2,MacIntel,60,,,,,,,,,,,,,,2,6.495445,,0,0,66,66,77,1,stimuli/stim_20210519_power2amp/equal_lnn_AM2.5Hz_s35_40.m4a,,,
,,,,,,,,,,,,41257,2021-06-05_15h34.04.348,judgeSpeechMusic_20210519_logNormShiftAmp_mXs,2020.1.2,MacIntel,60,,,,,,,,,,,,,,2,9.243565,,0,0,67,67,83,1,stimuli/stim_20210519_power2amp/equal_lnn_AM2.5Hz_s45_34.m4a,,,
,,,,,,,,,,,,41257,2021-06-05_15h34.04.348,judgeSpeechMusic_20210519_logNormShiftAmp_mXs,2020.1.2,MacIntel,60,,,,,,,,,,,,,,1,9.130535,,0,0,68,68,28,1,stimuli/stim_20210519_power2amp/equal_lnn_AM1Hz_s35_15.m4a,,,
,,,,,,,,,,,,41257,2021-06-05_15h34.04.348,judgeSpeechMusic_20210519_logNormShiftAmp_mXs,2020.1.2,MacIntel,60,,,,,,,,,,,,,,2,9.50849,,0,0,69,69,3,1,stimuli/stim_20210519_power2amp/equal_lnn_AM1Hz_s15_8.m4a,,,
,,,,,,,,,,,,41257,2021-06-05_15h34.04.348,judgeSpeechMusic_20210519_logNormShiftAmp_mXs,2020.1.2,MacIntel,60,,,,,,,,,,,,,,1,9.59187,,0,0,70,70,94,1,stimuli/stim_20210519_power2amp/equal_lnn_AM2.5Hz_s55_40.m4a,,,
,,,,,,,,,,,,41257,2021-06-05_15h34.04.348,judgeSpeechMusic_20210519_logNormShiftAmp_mXs,2020.1.2,MacIntel,60,,,,,,,,,,,,,,1,10.27511,,0,0,71,71,54,1,stimuli/stim_20210519_power2amp/equal_lnn_AM2.5Hz_s15_10.m4a,,,
,,,,,,,,,,,,41257,2021-06-05_15h34.04.348,judgeSpeechMusic_20210519_logNormShiftAmp_mXs,2020.1.2,MacIntel,60,,,,,,,,,,,,,,2,10.995705,,0,0,72,72,25,1,stimuli/stim_20210519_power2amp/equal_lnn_AM1Hz_s35_43.m4a,,,
,,,,,,,,,,,,41257,2021-06-05_15h34.04.348,judgeSpeechMusic_20210519_logNormShiftAmp_mXs,2020.1.2,MacIntel,60,,,,,,,,,,,,,,1,21.405785,,0,0,73,73,142,1,stimuli/stim_20210519_power2amp/equal_lnn_AM4Hz_s55_16.m4a,,,
,,,,,,,,,,,,41257,2021-06-05_15h34.04.348,judgeSpeechMusic_20210519_logNormShiftAmp_mXs,2020.1.2,MacIntel,60,,,,,,,,,,,,,,2,11.11156,,0,0,74,74,116,1,stimuli/stim_20210519_power2amp/equal_lnn_AM4Hz_s25_14.m4a,,,
,,,,,,,,,,,,41257,2021-06-05_15h34.04.348,judgeSpeechMusic_20210519_logNormShiftAmp_mXs,2020.1.2,MacIntel,60,,,,,,,,,,,,,,1,9.042375,1,1,0,75,75,92,1,stimuli/stim_20210519_power2amp/equal_lnn_AM2.5Hz_s55_33.m4a,0.497485,,
,,,,,,,,,,,,41257,2021-06-05_15h34.04.348,judgeSpeechMusic_20210519_logNormShiftAmp_mXs,2020.1.2,MacIntel,60,,,,,,,,,,,,,,1,9.862695,,0,0,76,76,110,1,stimuli/stim_20210519_power2amp/equal_lnn_AM4Hz_s25_9.m4a,,,
,,,,,,,,,,,,41257,2021-06-05_15h34.04.348,judgeSpeechMusic_20210519_logNormShiftAmp_mXs,2020.1.2,MacIntel,60,,,,,,,,,,,,,,1,10.8092,,0,0,77,77,118,1,stimuli/stim_20210519_power2amp/equal_lnn_AM4Hz_s25_4.m4a,,,
,,,,,,,,,,,,41257,2021-06-05_15h34.04.348,judgeSpeechMusic_20210519_logNormShiftAmp_mXs,2020.1.2,MacIntel,60,,,,,,,,,,,,,,2,7.62575,,0,0,78,78,43,1,stimuli/stim_20210519_power2amp/equal_lnn_AM1Hz_s55_30.m4a,,,
,,,,,,,,,,,,41257,2021-06-05_15h34.04.348,judgeSpeechMusic_20210519_logNormShiftAmp_mXs,2020.1.2,MacIntel,60,,,,,,,,,,,,,,1,9.811065,,0,0,79,79,117,1,stimuli/stim_20210519_power2amp/equal_lnn_AM4Hz_s25_12.m4a,,,
,,,,,,,,,,,,41257,2021-06-05_15h34.04.348,judgeSpeechMusic_20210519_logNormShiftAmp_mXs,2020.1.2,MacIntel,60,,,,,,,,,,,,,,1,9.5737,,0,0,80,80,109,1,stimuli/stim_20210519_power2amp/equal_lnn_AM4Hz_s15_30.m4a,,,
,,,,,,,,,,,,41257,2021-06-05_15h34.04.348,judgeSpeechMusic_20210519_logNormShiftAmp_mXs,2020.1.2,MacIntel,60,,,,,,,,,,,,,,2,7.875245,,0,0,81,81,32,1,stimuli/stim_20210519_power2amp/equal_lnn_AM1Hz_s45_2.m4a,,,
,,,,,,,,,,,,41257,2021-06-05_15h34.04.348,judgeSpeechMusic_20210519_logNormShiftAmp_mXs,2020.1.2,MacIntel,60,,,,,,,,,,,,,,1,7.81027,,0,0,82,82,129,1,stimuli/stim_20210519_power2amp/equal_lnn_AM4Hz_s35_24.m4a,,,
,,,,,,,,,,,,41257,2021-06-05_15h34.04.348,judgeSpeechMusic_20210519_logNormShiftAmp_mXs,2020.1.2,MacIntel,60,,,,,,,,,,,,,,2,9.21046,,0,0,83,83,84,1,stimuli/stim_20210519_power2amp/equal_lnn_AM2.5Hz_s45_49.m4a,,,
,,,,,,,,,,,,41257,2021-06-05_15h34.04.348,judgeSpeechMusic_20210519_logNormShiftAmp_mXs,2020.1.2,MacIntel,60,,,,,,,,,,,,,,1,9.1422,,0,0,84,84,75,1,stimuli/stim_20210519_power2amp/equal_lnn_AM2.5Hz_s35_3.m4a,,,
,,,,,,,,,,,,41257,2021-06-05_15h34.04.348,judgeSpeechMusic_20210519_logNormShiftAmp_mXs,2020.1.2,MacIntel,60,,,,,,,,,,,,,,2,9.02549,,0,0,85,85,112,1,stimuli/stim_20210519_power2amp/equal_lnn_AM4Hz_s25_22.m4a,,,
,,,,,,,,,,,,41257,2021-06-05_15h34.04.348,judgeSpeechMusic_20210519_logNormShiftAmp_mXs,2020.1.2,MacIntel,60,,,,,,,,,,,,,,1,11.34498,,0,0,86,86,95,1,stimuli/stim_20210519_power2amp/equal_lnn_AM2.5Hz_s55_49.m4a,,,
,,,,,,,,,,,,41257,2021-06-05_15h34.04.348,judgeSpeechMusic_20210519_logNormShiftAmp_mXs,2020.1.2,MacIntel,60,,,,,,,,,,,,,,1,6.00914,,0,0,87,87,1,1,stimuli/stim_20210519_power2amp/equal_lnn_AM1Hz_s15_27.m4a,,,
,,,,,,,,,,,,41257,2021-06-05_15h34.04.348,judgeSpeechMusic_20210519_logNormShiftAmp_mXs,2020.1.2,MacIntel,60,,,,,,,,,,,,,,1,7.610075,,0,0,88,88,35,1,stimuli/stim_20210519_power2amp/equal_lnn_AM1Hz_s45_17.m4a,,,
,,,,,,,,,,,,41257,2021-06-05_15h34.04.348,judgeSpeechMusic_20210519_logNormShiftAmp_mXs,2020.1.2,MacIntel,60,,,,,,,,,,,,,,1,8.37756,,0,0,89,89,49,1,stimuli/stim_20210519_power2amp/equal_lnn_AM1Hz_s55_5.m4a,,,
,,,,,,,,,,,,41257,2021-06-05_15h34.04.348,judgeSpeechMusic_20210519_logNormShiftAmp_mXs,2020.1.2,MacIntel,60,,,,,,,,,,,,,,1,9.59182,,0,0,90,90,99,1,stimuli/stim_20210519_power2amp/equal_lnn_AM2.5Hz_s55_13.m4a,,,
,,,,,,,,,,,,41257,2021-06-05_15h34.04.348,judgeSpeechMusic_20210519_logNormShiftAmp_mXs,2020.1.2,MacIntel,60,,,,,,,,,,,,,,1,8.5427,,0,0,91,91,19,1,stimuli/stim_20210519_power2amp/equal_lnn_AM1Hz_s25_21.m4a,,,
,,,,,,,,,,,,41257,2021-06-05_15h34.04.348,judgeSpeechMusic_20210519_logNormShiftAmp_mXs,2020.1.2,MacIntel,60,,,,,,,,,,,,,,2,14.77956,,0,0,92,92,52,1,stimuli/stim_20210519_power2amp/equal_lnn_AM2.5Hz_s15_41.m4a,,,
,,,,,,,,,,,,41257,2021-06-05_15h34.04.348,judgeSpeechMusic_20210519_logNormShiftAmp_mXs,2020.1.2,MacIntel,60,,,,,,,,,,,,,,2,11.89303,,0,0,93,93,33,1,stimuli/stim_20210519_power2amp/equal_lnn_AM1Hz_s45_40.m4a,,,
,,,,,,,,,,,,41257,2021-06-05_15h34.04.348,judgeSpeechMusic_20210519_logNormShiftAmp_mXs,2020.1.2,MacIntel,60,,,,,,,,,,,,,,2,8.214795,,0,0,94,94,115,1,stimuli/stim_20210519_power2amp/equal_lnn_AM4Hz_s25_50.m4a,,,
,,,,,,,,,,,,41257,2021-06-05_15h34.04.348,judgeSpeechMusic_20210519_logNormShiftAmp_mXs,2020.1.2,MacIntel,60,,,,,,,,,,,,,,2,11.19214,,0,0,95,95,107,1,stimuli/stim_20210519_power2amp/equal_lnn_AM4Hz_s15_20.m4a,,,
,,,,,,,,,,,,41257,2021-06-05_15h34.04.348,judgeSpeechMusic_20210519_logNormShiftAmp_mXs,2020.1.2,MacIntel,60,,,,,,,,,,,,,,1,9.264785,,0,0,96,96,44,1,stimuli/stim_20210519_power2amp/equal_lnn_AM1Hz_s55_18.m4a,,,
,,,,,,,,,,,,41257,2021-06-05_15h34.04.348,judgeSpeechMusic_20210519_logNormShiftAmp_mXs,2020.1.2,MacIntel,60,,,,,,,,,,,,,,2,8.321145,,0,0,97,97,26,1,stimuli/stim_20210519_power2amp/equal_lnn_AM1Hz_s35_32.m4a,,,
,,,,,,,,,,,,41257,2021-06-05_15h34.04.348,judgeSpeechMusic_20210519_logNormShiftAmp_mXs,2020.1.2,MacIntel,60,,,,,,,,,,,,,,1,11.761755,2,1,0,98,98,51,1,stimuli/stim_20210519_power2amp/equal_lnn_AM2.5Hz_s15_44.m4a,2.277375,,
,,,,,,,,,,,,41257,2021-06-05_15h34.04.348,judgeSpeechMusic_20210519_logNormShiftAmp_mXs,2020.1.2,MacIntel,60,,,,,,,,,,,,,,1,7.50905,,0,0,99,99,36,1,stimuli/stim_20210519_power2amp/equal_lnn_AM1Hz_s45_24.m4a,,,
,,,,,,,,,,,,41257,2021-06-05_15h34.04.348,judgeSpeechMusic_20210519_logNormShiftAmp_mXs,2020.1.2,MacIntel,60,,,,,,,,,,,,,,1,7.795135,,0,0,100,100,70,1,stimuli/stim_20210519_power2amp/equal_lnn_AM2.5Hz_s35_33.m4a,,,
,,,,,,,,,,,,41257,2021-06-05_15h34.04.348,judgeSpeechMusic_20210519_logNormShiftAmp_mXs,2020.1.2,MacIntel,60,,,,,,,,,,,,,,1,6.87755,,0,0,101,101,5,1,stimuli/stim_20210519_power2amp/equal_lnn_AM1Hz_s15_28.m4a,,,
,,,,,,,,,,,,41257,2021-06-05_15h34.04.348,judgeSpeechMusic_20210519_logNormShiftAmp_mXs,2020.1.2,MacIntel,60,,,,,,,,,,,,,,1,11.308985,,0,0,102,102,125,1,stimuli/stim_20210519_power2amp/equal_lnn_AM4Hz_s35_5.m4a,,,
,,,,,,,,,,,,41257,2021-06-05_15h34.04.348,judgeSpeechMusic_20210519_logNormShiftAmp_mXs,2020.1.2,MacIntel,60,,,,,,,,,,,,,,2,9.32794,,0,0,103,103,8,1,stimuli/stim_20210519_power2amp/equal_lnn_AM1Hz_s15_41.m4a,,,
,,,,,,,,,,,,41257,2021-06-05_15h34.04.348,judgeSpeechMusic_20210519_logNormShiftAmp_mXs,2020.1.2,MacIntel,60,,,,,,,,,,,,,,1,10.30824,,0,0,104,104,66,1,stimuli/stim_20210519_power2amp/equal_lnn_AM2.5Hz_s25_27.m4a,,,
,,,,,,,,,,,,41257,2021-06-05_15h34.04.348,judgeSpeechMusic_20210519_logNormShiftAmp_mXs,2020.1.2,MacIntel,60,,,,,,,,,,,,,,2,7.79269,,0,0,105,105,126,1,stimuli/stim_20210519_power2amp/equal_lnn_AM4Hz_s35_36.m4a,,,
,,,,,,,,,,,,41257,2021-06-05_15h34.04.348,judgeSpeechMusic_20210519_logNormShiftAmp_mXs,2020.1.2,MacIntel,60,,,,,,,,,,,,,,2,13.51011,,0,0,106,106,80,1,stimuli/stim_20210519_power2amp/equal_lnn_AM2.5Hz_s45_31.m4a,,,
,,,,,,,,,,,,41257,2021-06-05_15h34.04.348,judgeSpeechMusic_20210519_logNormShiftAmp_mXs,2020.1.2,MacIntel,60,,,,,,,,,,,,,,1,7.84716,,0,0,107,107,141,1,stimuli/stim_20210519_power2amp/equal_lnn_AM4Hz_s55_23.m4a,,,
,,,,,,,,,,,,41257,2021-06-05_15h34.04.348,judgeSpeechMusic_20210519_logNormShiftAmp_mXs,2020.1.2,MacIntel,60,,,,,,,,,,,,,,2,9.32297,,0,0,108,108,85,1,stimuli/stim_20210519_power2amp/equal_lnn_AM2.5Hz_s45_19.m4a,,,
,,,,,,,,,,,,41257,2021-06-05_15h34.04.348,judgeSpeechMusic_20210519_logNormShiftAmp_mXs,2020.1.2,MacIntel,60,,,,,,,,,,,,,,2,9.70806,,0,0,109,109,143,1,stimuli/stim_20210519_power2amp/equal_lnn_AM4Hz_s55_22.m4a,,,
,,,,,,,,,,,,41257,2021-06-05_15h34.04.348,judgeSpeechMusic_20210519_logNormShiftAmp_mXs,2020.1.2,MacIntel,60,,,,,,,,,,,,,,1,8.52285,,0,0,110,110,10,1,stimuli/stim_20210519_power2amp/equal_lnn_AM1Hz_s25_4.m4a,,,
,,,,,,,,,,,,41257,2021-06-05_15h34.04.348,judgeSpeechMusic_20210519_logNormShiftAmp_mXs,2020.1.2,MacIntel,60,,,,,,,,,,,,,,2,6.98951,,0,0,111,111,135,1,stimuli/stim_20210519_power2amp/equal_lnn_AM4Hz_s45_50.m4a,,,
,,,,,,,,,,,,41257,2021-06-05_15h34.04.348,judgeSpeechMusic_20210519_logNormShiftAmp_mXs,2020.1.2,MacIntel,60,,,,,,,,,,,,,,1,10.610255,,0,0,112,112,47,1,stimuli/stim_20210519_power2amp/equal_lnn_AM1Hz_s55_26.m4a,,,
,,,,,,,,,,,,41257,2021-06-05_15h34.04.348,judgeSpeechMusic_20210519_logNormShiftAmp_mXs,2020.1.2,MacIntel,60,,,,,,,,,,,,,,1,8.560175,,0,0,113,113,34,1,stimuli/stim_20210519_power2amp/equal_lnn_AM1Hz_s45_9.m4a,,,
,,,,,,,,,,,,41257,2021-06-05_15h34.04.348,judgeSpeechMusic_20210519_logNormShiftAmp_mXs,2020.1.2,MacIntel,60,,,,,,,,,,,,,,1,15.007595,,0,0,114,114,9,1,stimuli/stim_20210519_power2amp/equal_lnn_AM1Hz_s15_29.m4a,,,
,,,,,,,,,,,,41257,2021-06-05_15h34.04.348,judgeSpeechMusic_20210519_logNormShiftAmp_mXs,2020.1.2,MacIntel,60,,,,,,,,,,,,,,1,9.079625,,0,0,115,115,4,1,stimuli/stim_20210519_power2amp/equal_lnn_AM1Hz_s15_13.m4a,,,
,,,,,,,,,,,,41257,2021-06-05_15h34.04.348,judgeSpeechMusic_20210519_logNormShiftAmp_mXs,2020.1.2,MacIntel,60,,,,,,,,,,,,,,2,7.44262,,0,0,116,116,78,1,stimuli/stim_20210519_power2amp/equal_lnn_AM2.5Hz_s35_42.m4a,,,
,,,,,,,,,,,,41257,2021-06-05_15h34.04.348,judgeSpeechMusic_20210519_logNormShiftAmp_mXs,2020.1.2,MacIntel,60,,,,,,,,,,,,,,1,10.81398,,0,0,117,117,98,1,stimuli/stim_20210519_power2amp/equal_lnn_AM2.5Hz_s55_50.m4a,,,
,,,,,,,,,,,,41257,2021-06-05_15h34.04.348,judgeSpeechMusic_20210519_logNormShiftAmp_mXs,2020.1.2,MacIntel,60,,,,,,,,,,,,,,1,8.876855,,0,0,118,118,22,1,stimuli/stim_20210519_power2amp/equal_lnn_AM1Hz_s35_42.m4a,,,
,,,,,,,,,,,,41257,2021-06-05_15h34.04.348,judgeSpeechMusic_20210519_logNormShiftAmp_mXs,2020.1.2,MacIntel,60,,,,,,,,,,,,,,1,14.42768,2,0,0,119,119,59,1,stimuli/stim_20210519_power2amp/equal_lnn_AM2.5Hz_s15_17.m4a,1.8936,,
,,,,,,,,,,,,41257,2021-06-05_15h34.04.348,judgeSpeechMusic_20210519_logNormShiftAmp_mXs,2020.1.2,MacIntel,60,,,,,,,,,,,,,,1,7.93027,,0,0,120,120,18,1,stimuli/stim_20210519_power2amp/equal_lnn_AM1Hz_s25_50.m4a,,,
,,,,,,,,,,,,41257,2021-06-05_15h34.04.348,judgeSpeechMusic_20210519_logNormShiftAmp_mXs,2020.1.2,MacIntel,60,,,,,,,,,,,,,,1,7.24084,,0,0,121,121,122,1,stimuli/stim_20210519_power2amp/equal_lnn_AM4Hz_s35_12.m4a,,,
,,,,,,,,,,,,41257,2021-06-05_15h34.04.348,judgeSpeechMusic_20210519_logNormShiftAmp_mXs,2020.1.2,MacIntel,60,,,,,,,,,,,,,,1,6.309845,,0,0,122,122,137,1,stimuli/stim_20210519_power2amp/equal_lnn_AM4Hz_s45_40.m4a,,,
,,,,,,,,,,,,41257,2021-06-05_15h34.04.348,judgeSpeechMusic_20210519_logNormShiftAmp_mXs,2020.1.2,MacIntel,60,,,,,,,,,,,,,,1,6.6967,,0,0,123,123,69,1,stimuli/stim_20210519_power2amp/equal_lnn_AM2.5Hz_s25_24.m4a,,,
,,,,,,,,,,,,41257,2021-06-05_15h34.04.348,judgeSpeechMusic_20210519_logNormShiftAmp_mXs,2020.1.2,MacIntel,60,,,,,,,,,,,,,,1,8.974675,,0,0,124,124,46,1,stimuli/stim_20210519_power2amp/equal_lnn_AM1Hz_s55_10.m4a,,,
,,,,,,,,,,,,41257,2021-06-05_15h34.04.348,judgeSpeechMusic_20210519_logNormShiftAmp_mXs,2020.1.2,MacIntel,60,,,,,,,,,,,,,,1,6.50904,,0,0,125,125,41,1,stimuli/stim_20210519_power2amp/equal_lnn_AM1Hz_s55_16.m4a,,,
,,,,,,,,,,,,41257,2021-06-05_15h34.04.348,judgeSpeechMusic_20210519_logNormShiftAmp_mXs,2020.1.2,MacIntel,60,,,,,,,,,,,,,,2,6.69785,,0,0,126,126,53,1,stimuli/stim_20210519_power2amp/equal_lnn_AM2.5Hz_s15_47.m4a,,,
,,,,,,,,,,,,41257,2021-06-05_15h34.04.348,judgeSpeechMusic_20210519_logNormShiftAmp_mXs,2020.1.2,MacIntel,60,,,,,,,,,,,,,,2,6.75672,,0,0,127,127,72,1,stimuli/stim_20210519_power2amp/equal_lnn_AM2.5Hz_s35_2.m4a,,,
,,,,,,,,,,,,41257,2021-06-05_15h34.04.348,judgeSpeechMusic_20210519_logNormShiftAmp_mXs,2020.1.2,MacIntel,60,,,,,,,,,,,,,,2,6.459455,,0,0,128,128,131,1,stimuli/stim_20210519_power2amp/equal_lnn_AM4Hz_s45_15.m4a,,,
,,,,,,,,,,,,41257,2021-06-05_15h34.04.348,judgeSpeechMusic_20210519_logNormShiftAmp_mXs,2020.1.2,MacIntel,60,,,,,,,,,,,,,,1,6.74315,,0,0,129,129,148,1,stimuli/stim_20210519_power2amp/equal_lnn_AM4Hz_s55_9.m4a,,,
,,,,,,,,,,,,41257,2021-06-05_15h34.04.348,judgeSpeechMusic_20210519_logNormShiftAmp_mXs,2020.1.2,MacIntel,60,,,,,,,,,,,,,,1,7.577025,,0,0,130,130,42,1,stimuli/stim_20210519_power2amp/equal_lnn_AM1Hz_s55_36.m4a,,,
,,,,,,,,,,,,41257,2021-06-05_15h34.04.348,judgeSpeechMusic_20210519_logNormShiftAmp_mXs,2020.1.2,MacIntel,60,,,,,,,,,,,,,,2,7.641885,,0,0,131,131,114,1,stimuli/stim_20210519_power2amp/equal_lnn_AM4Hz_s25_29.m4a,,,
,,,,,,,,,,,,41257,2021-06-05_15h34.04.348,judgeSpeechMusic_20210519_logNormShiftAmp_mXs,2020.1.2,MacIntel,60,,,,,,,,,,,,,,1,7.52632,,0,0,132,132,136,1,stimuli/stim_20210519_power2amp/equal_lnn_AM4Hz_s45_9.m4a,,,
,,,,,,,,,,,,41257,2021-06-05_15h34.04.348,judgeSpeechMusic_20210519_logNormShiftAmp_mXs,2020.1.2,MacIntel,60,,,,,,,,,,,,,,2,7.495315,,0,0,133,133,17,1,stimuli/stim_20210519_power2amp/equal_lnn_AM1Hz_s25_3.m4a,,,
,,,,,,,,,,,,41257,2021-06-05_15h34.04.348,judgeSpeechMusic_20210519_logNormShiftAmp_mXs,2020.1.2,MacIntel,60,,,,,,,,,,,,,,1,7.09536,,0,0,134,134,97,1,stimuli/stim_20210519_power2amp/equal_lnn_AM2.5Hz_s55_41.m4a,,,
,,,,,,,,,,,,41257,2021-06-05_15h34.04.348,judgeSpeechMusic_20210519_logNormShiftAmp_mXs,2020.1.2,MacIntel,60,,,,,,,,,,,,,,1,8.11007,,0,0,135,135,24,1,stimuli/stim_20210519_power2amp/equal_lnn_AM1Hz_s35_35.m4a,,,
,,,,,,,,,,,,41257,2021-06-05_15h34.04.348,judgeSpeechMusic_20210519_logNormShiftAmp_mXs,2020.1.2,MacIntel,60,,,,,,,,,,,,,,2,7.776715,,0,0,136,136,31,1,stimuli/stim_20210519_power2amp/equal_lnn_AM1Hz_s45_45.m4a,,,
,,,,,,,,,,,,41257,2021-06-05_15h34.04.348,judgeSpeechMusic_20210519_logNormShiftAmp_mXs,2020.1.2,MacIntel,60,,,,,,,,,,,,,,1,7.09385,,0,0,137,137,105,1,stimuli/stim_20210519_power2amp/equal_lnn_AM4Hz_s15_28.m4a,,,
,,,,,,,,,,,,41257,2021-06-05_15h34.04.348,judgeSpeechMusic_20210519_logNormShiftAmp_mXs,2020.1.2,MacIntel,60,,,,,,,,,,,,,,2,7.04477,,0,0,138,138,64,1,stimuli/stim_20210519_power2amp/equal_lnn_AM2.5Hz_s25_38.m4a,,,
,,,,,,,,,,,,41257,2021-06-05_15h34.04.348,judgeSpeechMusic_20210519_logNormShiftAmp_mXs,2020.1.2,MacIntel,60,,,,,,,,,,,,,,1,7.144785,,0,0,139,139,81,1,stimuli/stim_20210519_power2amp/equal_lnn_AM2.5Hz_s45_48.m4a,,,
,,,,,,,,,,,,41257,2021-06-05_15h34.04.348,judgeSpeechMusic_20210519_logNormShiftAmp_mXs,2020.1.2,MacIntel,60,,,,,,,,,,,,,,1,6.67895,,0,0,140,140,48,1,stimuli/stim_20210519_power2amp/equal_lnn_AM1Hz_s55_33.m4a,,,
,,,,,,,,,,,,41257,2021-06-05_15h34.04.348,judgeSpeechMusic_20210519_logNormShiftAmp_mXs,2020.1.2,MacIntel,60,,,,,,,,,,,,,,1,6.526825,,0,0,141,141,6,1,stimuli/stim_20210519_power2amp/equal_lnn_AM1Hz_s15_44.m4a,,,
,,,,,,,,,,,,41257,2021-06-05_15h34.04.348,judgeSpeechMusic_20210519_logNormShiftAmp_mXs,2020.1.2,MacIntel,60,,,,,,,,,,,,,,1,9.857555,3,1,0,142,142,88,1,stimuli/stim_20210519_power2amp/equal_lnn_AM2.5Hz_s45_41.m4a,2.50831,,
,,,,,,,,,,,,41257,2021-06-05_15h34.04.348,judgeSpeechMusic_20210519_logNormShiftAmp_mXs,2020.1.2,MacIntel,60,,,,,,,,,,,,,,2,7.15474,,0,0,143,143,60,1,stimuli/stim_20210519_power2amp/equal_lnn_AM2.5Hz_s25_21.m4a,,,
,,,,,,,,,,,,41257,2021-06-05_15h34.04.348,judgeSpeechMusic_20210519_logNormShiftAmp_mXs,2020.1.2,MacIntel,60,,,,,,,,,,,,,,1,6.44598,,0,0,144,144,21,1,stimuli/stim_20210519_power2amp/equal_lnn_AM1Hz_s35_6.m4a,,,
,,,,,,,,,,,,41257,2021-06-05_15h34.04.348,judgeSpeechMusic_20210519_logNormShiftAmp_mXs,2020.1.2,MacIntel,60,,,,,,,,,,,,,,1,7.027095,,0,0,145,145,30,1,stimuli/stim_20210519_power2amp/equal_lnn_AM1Hz_s45_10.m4a,,,
,,,,,,,,,,,,41257,2021-06-05_15h34.04.348,judgeSpeechMusic_20210519_logNormShiftAmp_mXs,2020.1.2,MacIntel,60,,,,,,,,,,,,,,2,6.909235,,0,0,146,146,74,1,stimuli/stim_20210519_power2amp/equal_lnn_AM2.5Hz_s35_9.m4a,,,
,,,,,,,,,,,,41257,2021-06-05_15h34.04.348,judgeSpeechMusic_20210519_logNormShiftAmp_mXs,2020.1.2,MacIntel,60,,,,,,,,,,,,,,1,7.27743,,0,0,147,147,16,1,stimuli/stim_20210519_power2amp/equal_lnn_AM1Hz_s25_16.m4a,,,
,,,,,,,,,,,,41257,2021-06-05_15h34.04.348,judgeSpeechMusic_20210519_logNormShiftAmp_mXs,2020.1.2,MacIntel,60,,,,,,,,,,,,,,2,6.678325,,0,0,148,148,86,1,stimuli/stim_20210519_power2amp/equal_lnn_AM2.5Hz_s45_27.m4a,,,
,,,,,,,,,,,,41257,2021-06-05_15h34.04.348,judgeSpeechMusic_20210519_logNormShiftAmp_mXs,2020.1.2,MacIntel,60,,,,,,,,,,,,,,1,6.52574,,0,0,149,149,127,1,stimuli/stim_20210519_power2amp/equal_lnn_AM4Hz_s35_44.m4a,,,
,,,,,,,,,,,,41257,2021-06-05_15h34.04.348,judgeSpeechMusic_20210519_logNormShiftAmp_mXs,2020.1.2,MacIntel,60,,,,,,,,,,,,,,1,5.945125,,0,1,0,150,140,1,stimuli/stim_20210519_power2amp/equal_lnn_AM4Hz_s55_45.m4a,,,
,,,,,,,,,,,,41257,2021-06-05_15h34.04.348,judgeSpeechMusic_20210519_logNormShiftAmp_mXs,2020.1.2,MacIntel,60,,,,,,,,,,,,,,1,6.361645,,0,1,1,151,122,1,stimuli/stim_20210519_power2amp/equal_lnn_AM4Hz_s35_12.m4a,,,
,,,,,,,,,,,,41257,2021-06-05_15h34.04.348,judgeSpeechMusic_20210519_logNormShiftAmp_mXs,2020.1.2,MacIntel,60,,,,,,,,,,,,,,2,7.89601,,0,1,2,152,34,1,stimuli/stim_20210519_power2amp/equal_lnn_AM1Hz_s45_9.m4a,,,
,,,,,,,,,,,,41257,2021-06-05_15h34.04.348,judgeSpeechMusic_20210519_logNormShiftAmp_mXs,2020.1.2,MacIntel,60,,,,,,,,,,,,,,1,10.259065,,0,1,3,153,113,1,stimuli/stim_20210519_power2amp/equal_lnn_AM4Hz_s25_20.m4a,,,
,,,,,,,,,,,,41257,2021-06-05_15h34.04.348,judgeSpeechMusic_20210519_logNormShiftAmp_mXs,2020.1.2,MacIntel,60,,,,,,,,,,,,,,1,7.67851,,0,1,4,154,9,1,stimuli/stim_20210519_power2amp/equal_lnn_AM1Hz_s15_29.m4a,,,
,,,,,,,,,,,,41257,2021-06-05_15h34.04.348,judgeSpeechMusic_20210519_logNormShiftAmp_mXs,2020.1.2,MacIntel,60,,,,,,,,,,,,,,1,22.62854,,0,1,5,155,56,1,stimuli/stim_20210519_power2amp/equal_lnn_AM2.5Hz_s15_15.m4a,,,
,,,,,,,,,,,,41257,2021-06-05_15h34.04.348,judgeSpeechMusic_20210519_logNormShiftAmp_mXs,2020.1.2,MacIntel,60,,,,,,,,,,,,,,1,6.845175,,0,1,6,156,48,1,stimuli/stim_20210519_power2amp/equal_lnn_AM1Hz_s55_33.m4a,,,
,,,,,,,,,,,,41257,2021-06-05_15h34.04.348,judgeSpeechMusic_20210519_logNormShiftAmp_mXs,2020.1.2,MacIntel,60,,,,,,,,,,,,,,2,6.848045,,0,1,7,157,129,1,stimuli/stim_20210519_power2amp/equal_lnn_AM4Hz_s35_24.m4a,,,
,,,,,,,,,,,,41257,2021-06-05_15h34.04.348,judgeSpeechMusic_20210519_logNormShiftAmp_mXs,2020.1.2,MacIntel,60,,,,,,,,,,,,,,1,7.145245,,0,1,8,158,72,1,stimuli/stim_20210519_power2amp/equal_lnn_AM2.5Hz_s35_2.m4a,,,
,,,,,,,,,,,,41257,2021-06-05_15h34.04.348,judgeSpeechMusic_20210519_logNormShiftAmp_mXs,2020.1.2,MacIntel,60,,,,,,,,,,,,,,1,14.674135,,0,1,9,159,108,1,stimuli/stim_20210519_power2amp/equal_lnn_AM4Hz_s15_9.m4a,,,
,,,,,,,,,,,,41257,2021-06-05_15h34.04.348,judgeSpeechMusic_20210519_logNormShiftAmp_mXs,2020.1.2,MacIntel,60,,,,,,,,,,,,,,2,7.458675,,0,1,10,160,20,1,stimuli/stim_20210519_power2amp/equal_lnn_AM1Hz_s35_24.m4a,,,
,,,,,,,,,,,,41257,2021-06-05_15h34.04.348,judgeSpeechMusic_20210519_logNormShiftAmp_mXs,2020.1.2,MacIntel,60,,,,,,,,,,,,,,1,6.24542,,0,1,11,161,114,1,stimuli/stim_20210519_power2amp/equal_lnn_AM4Hz_s25_29.m4a,,,
,,,,,,,,,,,,41257,2021-06-05_15h34.04.348,judgeSpeechMusic_20210519_logNormShiftAmp_mXs,2020.1.2,MacIntel,60,,,,,,,,,,,,,,1,6.910465,4,0,1,12,162,14,1,stimuli/stim_20210519_power2amp/equal_lnn_AM1Hz_s25_14.m4a,2.478475,,
,,,,,,,,,,,,41257,2021-06-05_15h34.04.348,judgeSpeechMusic_20210519_logNormShiftAmp_mXs,2020.1.2,MacIntel,60,,,,,,,,,,,,,,2,12.554945,,0,1,13,163,73,1,stimuli/stim_20210519_power2amp/equal_lnn_AM2.5Hz_s35_34.m4a,,,
,,,,,,,,,,,,41257,2021-06-05_15h34.04.348,judgeSpeechMusic_20210519_logNormShiftAmp_mXs,2020.1.2,MacIntel,60,,,,,,,,,,,,,,2,14.548535,,0,1,14,164,146,1,stimuli/stim_20210519_power2amp/equal_lnn_AM4Hz_s55_5.m4a,,,
,,,,,,,,,,,,41257,2021-06-05_15h34.04.348,judgeSpeechMusic_20210519_logNormShiftAmp_mXs,2020.1.2,MacIntel,60,,,,,,,,,,,,,,2,7.507575,,0,1,15,165,139,1,stimuli/stim_20210519_power2amp/equal_lnn_AM4Hz_s45_21.m4a,,,
,,,,,,,,,,,,41257,2021-06-05_15h34.04.348,judgeSpeechMusic_20210519_logNormShiftAmp_mXs,2020.1.2,MacIntel,60,,,,,,,,,,,,,,1,7.81543,,0,1,16,166,92,1,stimuli/stim_20210519_power2amp/equal_lnn_AM2.5Hz_s55_33.m4a,,,
,,,,,,,,,,,,41257,2021-06-05_15h34.04.348,judgeSpeechMusic_20210519_logNormShiftAmp_mXs,2020.1.2,MacIntel,60,,,,,,,,,,,,,,2,8.823605,,0,1,17,167,22,1,stimuli/stim_20210519_power2amp/equal_lnn_AM1Hz_s35_42.m4a,,,
,,,,,,,,,,,,41257,2021-06-05_15h34.04.348,judgeSpeechMusic_20210519_logNormShiftAmp_mXs,2020.1.2,MacIntel,60,,,,,,,,,,,,,,1,8.278675,,0,1,18,168,0,1,stimuli/stim_20210519_power2amp/equal_lnn_AM1Hz_s15_9.m4a,,,
,,,,,,,,,,,,41257,2021-06-05_15h34.04.348,judgeSpeechMusic_20210519_logNormShiftAmp_mXs,2020.1.2,MacIntel,60,,,,,,,,,,,,,,2,8.10995,,0,1,19,169,137,1,stimuli/stim_20210519_power2amp/equal_lnn_AM4Hz_s45_40.m4a,,,
,,,,,,,,,,,,41257,2021-06-05_15h34.04.348,judgeSpeechMusic_20210519_logNormShiftAmp_mXs,2020.1.2,MacIntel,60,,,,,,,,,,,,,,2,8.361715,,0,1,20,170,93,1,stimuli/stim_20210519_power2amp/equal_lnn_AM2.5Hz_s55_38.m4a,,,
,,,,,,,,,,,,41257,2021-06-05_15h34.04.348,judgeSpeechMusic_20210519_logNormShiftAmp_mXs,2020.1.2,MacIntel,60,,,,,,,,,,,,,,2,7.01215,,0,1,21,171,125,1,stimuli/stim_20210519_power2amp/equal_lnn_AM4Hz_s35_5.m4a,,,
,,,,,,,,,,,,41257,2021-06-05_15h34.04.348,judgeSpeechMusic_20210519_logNormShiftAmp_mXs,2020.1.2,MacIntel,60,,,,,,,,,,,,,,1,7.59299,,0,1,22,172,97,1,stimuli/stim_20210519_power2amp/equal_lnn_AM2.5Hz_s55_41.m4a,,,
,,,,,,,,,,,,41257,2021-06-05_15h34.04.348,judgeSpeechMusic_20210519_logNormShiftAmp_mXs,2020.1.2,MacIntel,60,,,,,,,,,,,,,,2,10.210395,,0,1,23,173,145,1,stimuli/stim_20210519_power2amp/equal_lnn_AM4Hz_s55_28.m4a,,,
,,,,,,,,,,,,41257,2021-06-05_15h34.04.348,judgeSpeechMusic_20210519_logNormShiftAmp_mXs,2020.1.2,MacIntel,60,,,,,,,,,,,,,,1,6.82456,,0,1,24,174,78,1,stimuli/stim_20210519_power2amp/equal_lnn_AM2.5Hz_s35_42.m4a,,,
,,,,,,,,,,,,41257,2021-06-05_15h34.04.348,judgeSpeechMusic_20210519_logNormShiftAmp_mXs,2020.1.2,MacIntel,60,,,,,,,,,,,,,,2,7.37798,,0,1,25,175,60,1,stimuli/stim_20210519_power2amp/equal_lnn_AM2.5Hz_s25_21.m4a,,,
,,,,,,,,,,,,41257,2021-06-05_15h34.04.348,judgeSpeechMusic_20210519_logNormShiftAmp_mXs,2020.1.2,MacIntel,60,,,,,,,,,,,,,,1,11.97922,,0,1,26,176,51,1,stimuli/stim_20210519_power2amp/equal_lnn_AM2.5Hz_s15_44.m4a,,,
,,,,,,,,,,,,41257,2021-06-05_15h34.04.348,judgeSpeechMusic_20210519_logNormShiftAmp_mXs,2020.1.2,MacIntel,60,,,,,,,,,,,,,,2,9.244035,,0,1,27,177,10,1,stimuli/stim_20210519_power2amp/equal_lnn_AM1Hz_s25_4.m4a,,,
,,,,,,,,,,,,41257,2021-06-05_15h34.04.348,judgeSpeechMusic_20210519_logNormShiftAmp_mXs,2020.1.2,MacIntel,60,,,,,,,,,,,,,,2,7.29091,,0,1,28,178,35,1,stimuli/stim_20210519_power2amp/equal_lnn_AM1Hz_s45_17.m4a,,,
,,,,,,,,,,,,41257,2021-06-05_15h34.04.348,judgeSpeechMusic_20210519_logNormShiftAmp_mXs,2020.1.2,MacIntel,60,,,,,,,,,,,,,,2,7.21048,,0,1,29,179,126,1,stimuli/stim_20210519_power2amp/equal_lnn_AM4Hz_s35_36.m4a,,,
,,,,,,,,,,,,41257,2021-06-05_15h34.04.348,judgeSpeechMusic_20210519_logNormShiftAmp_mXs,2020.1.2,MacIntel,60,,,,,,,,,,,,,,1,8.374925,,0,1,30,180,5,1,stimuli/stim_20210519_power2amp/equal_lnn_AM1Hz_s15_28.m4a,,,
,,,,,,,,,,,,41257,2021-06-05_15h34.04.348,judgeSpeechMusic_20210519_logNormShiftAmp_mXs,2020.1.2,MacIntel,60,,,,,,,,,,,,,,1,7.84501,,0,1,31,181,38,1,stimuli/stim_20210519_power2amp/equal_lnn_AM1Hz_s45_21.m4a,,,
,,,,,,,,,,,,41257,2021-06-05_15h34.04.348,judgeSpeechMusic_20210519_logNormShiftAmp_mXs,2020.1.2,MacIntel,60,,,,,,,,,,,,,,2,7.956255,1,0,1,32,182,6,1,stimuli/stim_20210519_power2amp/equal_lnn_AM1Hz_s15_44.m4a,3.399335,,
,,,,,,,,,,,,41257,2021-06-05_15h34.04.348,judgeSpeechMusic_20210519_logNormShiftAmp_mXs,2020.1.2,MacIntel,60,,,,,,,,,,,,,,2,7.04555,,0,1,33,183,55,1,stimuli/stim_20210519_power2amp/equal_lnn_AM2.5Hz_s15_12.m4a,,,
,,,,,,,,,,,,41257,2021-06-05_15h34.04.348,judgeSpeechMusic_20210519_logNormShiftAmp_mXs,2020.1.2,MacIntel,60,,,,,,,,,,,,,,1,6.844195,,0,1,34,184,133,1,stimuli/stim_20210519_power2amp/equal_lnn_AM4Hz_s45_43.m4a,,,
,,,,,,,,,,,,41257,2021-06-05_15h34.04.348,judgeSpeechMusic_20210519_logNormShiftAmp_mXs,2020.1.2,MacIntel,60,,,,,,,,,,,,,,2,7.49042,,0,1,35,185,149,1,stimuli/stim_20210519_power2amp/equal_lnn_AM4Hz_s55_48.m4a,,,
,,,,,,,,,,,,41257,2021-06-05_15h34.04.348,judgeSpeechMusic_20210519_logNormShiftAmp_mXs,2020.1.2,MacIntel,60,,,,,,,,,,,,,,1,7.25902,,0,1,36,186,53,1,stimuli/stim_20210519_power2amp/equal_lnn_AM2.5Hz_s15_47.m4a,,,
,,,,,,,,,,,,41257,2021-06-05_15h34.04.348,judgeSpeechMusic_20210519_logNormShiftAmp_mXs,2020.1.2,MacIntel,60,,,,,,,,,,,,,,2,7.46441,,0,1,37,187,76,1,stimuli/stim_20210519_power2amp/equal_lnn_AM2.5Hz_s35_45.m4a,,,
,,,,,,,,,,,,41257,2021-06-05_15h34.04.348,judgeSpeechMusic_20210519_logNormShiftAmp_mXs,2020.1.2,MacIntel,60,,,,,,,,,,,,,,2,6.925095,,0,1,38,188,80,1,stimuli/stim_20210519_power2amp/equal_lnn_AM2.5Hz_s45_31.m4a,,,
,,,,,,,,,,,,41257,2021-06-05_15h34.04.348,judgeSpeechMusic_20210519_logNormShiftAmp_mXs,2020.1.2,MacIntel,60,,,,,,,,,,,,,,2,7.1444,,0,1,39,189,25,1,stimuli/stim_20210519_power2amp/equal_lnn_AM1Hz_s35_43.m4a,,,
,,,,,,,,,,,,41257,2021-06-05_15h34.04.348,judgeSpeechMusic_20210519_logNormShiftAmp_mXs,2020.1.2,MacIntel,60,,,,,,,,,,,,,,1,9.042135,,0,1,40,190,59,1,stimuli/stim_20210519_power2amp/equal_lnn_AM2.5Hz_s15_17.m4a,,,
,,,,,,,,,,,,41257,2021-06-05_15h34.04.348,judgeSpeechMusic_20210519_logNormShiftAmp_mXs,2020.1.2,MacIntel,60,,,,,,,,,,,,,,1,7.72553,,0,1,41,191,98,1,stimuli/stim_20210519_power2amp/equal_lnn_AM2.5Hz_s55_50.m4a,,,
,,,,,,,,,,,,41257,2021-06-05_15h34.04.348,judgeSpeechMusic_20210519_logNormShiftAmp_mXs,2020.1.2,MacIntel,60,,,,,,,,,,,,,,2,8.54206,,0,1,42,192,148,1,stimuli/stim_20210519_power2amp/equal_lnn_AM4Hz_s55_9.m4a,,,
,,,,,,,,,,,,41257,2021-06-05_15h34.04.348,judgeSpeechMusic_20210519_logNormShiftAmp_mXs,2020.1.2,MacIntel,60,,,,,,,,,,,,,,2,7.127675,,0,1,43,193,111,1,stimuli/stim_20210519_power2amp/equal_lnn_AM4Hz_s25_28.m4a,,,
,,,,,,,,,,,,41257,2021-06-05_15h34.04.348,judgeSpeechMusic_20210519_logNormShiftAmp_mXs,2020.1.2,MacIntel,60,,,,,,,,,,,,,,1,7.6609,,0,1,44,194,104,1,stimuli/stim_20210519_power2amp/equal_lnn_AM4Hz_s15_22.m4a,,,
,,,,,,,,,,,,41257,2021-06-05_15h34.04.348,judgeSpeechMusic_20210519_logNormShiftAmp_mXs,2020.1.2,MacIntel,60,,,,,,,,,,,,,,1,7.061475,,0,1,45,195,96,1,stimuli/stim_20210519_power2amp/equal_lnn_AM2.5Hz_s55_1.m4a,,,
,,,,,,,,,,,,41257,2021-06-05_15h34.04.348,judgeSpeechMusic_20210519_logNormShiftAmp_mXs,2020.1.2,MacIntel,60,,,,,,,,,,,,,,2,6.794315,,0,1,46,196,84,1,stimuli/stim_20210519_power2amp/equal_lnn_AM2.5Hz_s45_49.m4a,,,
,,,,,,,,,,,,41257,2021-06-05_15h34.04.348,judgeSpeechMusic_20210519_logNormShiftAmp_mXs,2020.1.2,MacIntel,60,,,,,,,,,,,,,,1,11.91072,,0,1,47,197,52,1,stimuli/stim_20210519_power2amp/equal_lnn_AM2.5Hz_s15_41.m4a,,,
,,,,,,,,,,,,41257,2021-06-05_15h34.04.348,judgeSpeechMusic_20210519_logNormShiftAmp_mXs,2020.1.2,MacIntel,60,,,,,,,,,,,,,,1,6.64273,,0,1,48,198,28,1,stimuli/stim_20210519_power2amp/equal_lnn_AM1Hz_s35_15.m4a,,,
,,,,,,,,,,,,41257,2021-06-05_15h34.04.348,judgeSpeechMusic_20210519_logNormShiftAmp_mXs,2020.1.2,MacIntel,60,,,,,,,,,,,,,,1,6.85934,,0,1,49,199,12,1,stimuli/stim_20210519_power2amp/equal_lnn_AM1Hz_s25_33.m4a,,,
,,,,,,,,,,,,41257,2021-06-05_15h34.04.348,judgeSpeechMusic_20210519_logNormShiftAmp_mXs,2020.1.2,MacIntel,60,,,,,,,,,,,,,,1,7.31118,,0,1,50,200,130,1,stimuli/stim_20210519_power2amp/equal_lnn_AM4Hz_s45_42.m4a,,,
,,,,,,,,,,,,41257,2021-06-05_15h34.04.348,judgeSpeechMusic_20210519_logNormShiftAmp_mXs,2020.1.2,MacIntel,60,,,,,,,,,,,,,,2,9.16034,,0,1,51,201,37,1,stimuli/stim_20210519_power2amp/equal_lnn_AM1Hz_s45_5.m4a,,,
,,,,,,,,,,,,41257,2021-06-05_15h34.04.348,judgeSpeechMusic_20210519_logNormShiftAmp_mXs,2020.1.2,MacIntel,60,,,,,,,,,,,,,,2,8.028355,2,1,1,52,202,7,1,stimuli/stim_20210519_power2amp/equal_lnn_AM1Hz_s15_1.m4a,3.34269,,
,,,,,,,,,,,,41257,2021-06-05_15h34.04.348,judgeSpeechMusic_20210519_logNormShiftAmp_mXs,2020.1.2,MacIntel,60,,,,,,,,,,,,,,2,9.991595,,0,1,53,203,115,1,stimuli/stim_20210519_power2amp/equal_lnn_AM4Hz_s25_50.m4a,,,
,,,,,,,,,,,,41257,2021-06-05_15h34.04.348,judgeSpeechMusic_20210519_logNormShiftAmp_mXs,2020.1.2,MacIntel,60,,,,,,,,,,,,,,2,11.061845,,0,1,54,204,107,1,stimuli/stim_20210519_power2amp/equal_lnn_AM4Hz_s15_20.m4a,,,
,,,,,,,,,,,,41257,2021-06-05_15h34.04.348,judgeSpeechMusic_20210519_logNormShiftAmp_mXs,2020.1.2,MacIntel,60,,,,,,,,,,,,,,2,7.01381,,0,1,55,205,132,1,stimuli/stim_20210519_power2amp/equal_lnn_AM4Hz_s45_25.m4a,,,
,,,,,,,,,,,,41257,2021-06-05_15h34.04.348,judgeSpeechMusic_20210519_logNormShiftAmp_mXs,2020.1.2,MacIntel,60,,,,,,,,,,,,,,1,6.858945,,0,1,56,206,66,1,stimuli/stim_20210519_power2amp/equal_lnn_AM2.5Hz_s25_27.m4a,,,
,,,,,,,,,,,,41257,2021-06-05_15h34.04.348,judgeSpeechMusic_20210519_logNormShiftAmp_mXs,2020.1.2,MacIntel,60,,,,,,,,,,,,,,1,10.72646,,0,1,57,207,41,1,stimuli/stim_20210519_power2amp/equal_lnn_AM1Hz_s55_16.m4a,,,
,,,,,,,,,,,,41257,2021-06-05_15h34.04.348,judgeSpeechMusic_20210519_logNormShiftAmp_mXs,2020.1.2,MacIntel,60,,,,,,,,,,,,,,2,7.70869,,0,1,58,208,83,1,stimuli/stim_20210519_power2amp/equal_lnn_AM2.5Hz_s45_34.m4a,,,
,,,,,,,,,,,,41257,2021-06-05_15h34.04.348,judgeSpeechMusic_20210519_logNormShiftAmp_mXs,2020.1.2,MacIntel,60,,,,,,,,,,,,,,1,6.893115,,0,1,59,209,88,1,stimuli/stim_20210519_power2amp/equal_lnn_AM2.5Hz_s45_41.m4a,,,
,,,,,,,,,,,,41257,2021-06-05_15h34.04.348,judgeSpeechMusic_20210519_logNormShiftAmp_mXs,2020.1.2,MacIntel,60,,,,,,,,,,,,,,1,12.92692,,0,1,60,210,87,1,stimuli/stim_20210519_power2amp/equal_lnn_AM2.5Hz_s45_5.m4a,,,
,,,,,,,,,,,,41257,2021-06-05_15h34.04.348,judgeSpeechMusic_20210519_logNormShiftAmp_mXs,2020.1.2,MacIntel,60,,,,,,,,,,,,,,2,8.79279,,0,1,61,211,106,1,stimuli/stim_20210519_power2amp/equal_lnn_AM4Hz_s15_26.m4a,,,
,,,,,,,,,,,,41257,2021-06-05_15h34.04.348,judgeSpeechMusic_20210519_logNormShiftAmp_mXs,2020.1.2,MacIntel,60,,,,,,,,,,,,,,1,8.594745,,0,1,62,212,112,1,stimuli/stim_20210519_power2amp/equal_lnn_AM4Hz_s25_22.m4a,,,
,,,,,,,,,,,,41257,2021-06-05_15h34.04.348,judgeSpeechMusic_20210519_logNormShiftAmp_mXs,2020.1.2,MacIntel,60,,,,,,,,,,,,,,1,10.125265,,0,1,63,213,147,1,stimuli/stim_20210519_power2amp/equal_lnn_AM4Hz_s55_27.m4a,,,
,,,,,,,,,,,,41257,2021-06-05_15h34.04.348,judgeSpeechMusic_20210519_logNormShiftAmp_mXs,2020.1.2,MacIntel,60,,,,,,,,,,,,,,1,9.40965,,0,1,64,214,2,1,stimuli/stim_20210519_power2amp/equal_lnn_AM1Hz_s15_35.m4a,,,
,,,,,,,,,,,,41257,2021-06-05_15h34.04.348,judgeSpeechMusic_20210519_logNormShiftAmp_mXs,2020.1.2,MacIntel,60,,,,,,,,,,,,,,1,6.86022,,0,1,65,215,17,1,stimuli/stim_20210519_power2amp/equal_lnn_AM1Hz_s25_3.m4a,,,
,,,,,,,,,,,,41257,2021-06-05_15h34.04.348,judgeSpeechMusic_20210519_logNormShiftAmp_mXs,2020.1.2,MacIntel,60,,,,,,,,,,,,,,2,7.097285,,0,1,66,216,39,1,stimuli/stim_20210519_power2amp/equal_lnn_AM1Hz_s45_47.m4a,,,
,,,,,,,,,,,,41257,2021-06-05_15h34.04.348,judgeSpeechMusic_20210519_logNormShiftAmp_mXs,2020.1.2,MacIntel,60,,,,,,,,,,,,,,1,6.30782,,0,1,67,217,54,1,stimuli/stim_20210519_power2amp/equal_lnn_AM2.5Hz_s15_10.m4a,,,
,,,,,,,,,,,,41257,2021-06-05_15h34.04.348,judgeSpeechMusic_20210519_logNormShiftAmp_mXs,2020.1.2,MacIntel,60,,,,,,,,,,,,,,1,6.496375,,0,1,68,218,57,1,stimuli/stim_20210519_power2amp/equal_lnn_AM2.5Hz_s15_14.m4a,,,
,,,,,,,,,,,,41257,2021-06-05_15h34.04.348,judgeSpeechMusic_20210519_logNormShiftAmp_mXs,2020.1.2,MacIntel,60,,,,,,,,,,,,,,2,5.90823,,0,1,69,219,117,1,stimuli/stim_20210519_power2amp/equal_lnn_AM4Hz_s25_12.m4a,,,
,,,,,,,,,,,,41257,2021-06-05_15h34.04.348,judgeSpeechMusic_20210519_logNormShiftAmp_mXs,2020.1.2,MacIntel,60,,,,,,,,,,,,,,2,6.657915,,0,1,70,220,127,1,stimuli/stim_20210519_power2amp/equal_lnn_AM4Hz_s35_44.m4a,,,
,,,,,,,,,,,,41257,2021-06-05_15h34.04.348,judgeSpeechMusic_20210519_logNormShiftAmp_mXs,2020.1.2,MacIntel,60,,,,,,,,,,,,,,1,6.611095,,0,1,71,221,13,1,stimuli/stim_20210519_power2amp/equal_lnn_AM1Hz_s25_7.m4a,,,
,,,,,,,,,,,,41257,2021-06-05_15h34.04.348,judgeSpeechMusic_20210519_logNormShiftAmp_mXs,2020.1.2,MacIntel,60,,,,,,,,,,,,,,2,6.709485,,0,1,72,222,68,1,stimuli/stim_20210519_power2amp/equal_lnn_AM2.5Hz_s25_8.m4a,,,
,,,,,,,,,,,,41257,2021-06-05_15h34.04.348,judgeSpeechMusic_20210519_logNormShiftAmp_mXs,2020.1.2,MacIntel,60,,,,,,,,,,,,,,1,6.376175,,0,1,73,223,91,1,stimuli/stim_20210519_power2amp/equal_lnn_AM2.5Hz_s55_12.m4a,,,
,,,,,,,,,,,,41257,2021-06-05_15h34.04.348,judgeSpeechMusic_20210519_logNormShiftAmp_mXs,2020.1.2,MacIntel,60,,,,,,,,,,,,,,1,6.35698,2,1,1,74,224,118,1,stimuli/stim_20210519_power2amp/equal_lnn_AM4Hz_s25_4.m4a,1.914855,,
,,,,,,,,,,,,41257,2021-06-05_15h34.04.348,judgeSpeechMusic_20210519_logNormShiftAmp_mXs,2020.1.2,MacIntel,60,,,,,,,,,,,,,,1,6.25757,,0,1,75,225,77,1,stimuli/stim_20210519_power2amp/equal_lnn_AM2.5Hz_s35_40.m4a,,,
,,,,,,,,,,,,41257,2021-06-05_15h34.04.348,judgeSpeechMusic_20210519_logNormShiftAmp_mXs,2020.1.2,MacIntel,60,,,,,,,,,,,,,,2,6.858445,,0,1,76,226,131,1,stimuli/stim_20210519_power2amp/equal_lnn_AM4Hz_s45_15.m4a,,,
,,,,,,,,,,,,41257,2021-06-05_15h34.04.348,judgeSpeechMusic_20210519_logNormShiftAmp_mXs,2020.1.2,MacIntel,60,,,,,,,,,,,,,,2,6.02784,,0,1,77,227,64,1,stimuli/stim_20210519_power2amp/equal_lnn_AM2.5Hz_s25_38.m4a,,,
,,,,,,,,,,,,41257,2021-06-05_15h34.04.348,judgeSpeechMusic_20210519_logNormShiftAmp_mXs,2020.1.2,MacIntel,60,,,,,,,,,,,,,,1,6.72671,,0,1,78,228,143,1,stimuli/stim_20210519_power2amp/equal_lnn_AM4Hz_s55_22.m4a,,,
,,,,,,,,,,,,41257,2021-06-05_15h34.04.348,judgeSpeechMusic_20210519_logNormShiftAmp_mXs,2020.1.2,MacIntel,60,,,,,,,,,,,,,,2,7.92647,,0,1,79,229,79,1,stimuli/stim_20210519_power2amp/equal_lnn_AM2.5Hz_s35_16.m4a,,,
,,,,,,,,,,,,41257,2021-06-05_15h34.04.348,judgeSpeechMusic_20210519_logNormShiftAmp_mXs,2020.1.2,MacIntel,60,,,,,,,,,,,,,,1,6.391235,,0,1,80,230,134,1,stimuli/stim_20210519_power2amp/equal_lnn_AM4Hz_s45_30.m4a,,,
,,,,,,,,,,,,41257,2021-06-05_15h34.04.348,judgeSpeechMusic_20210519_logNormShiftAmp_mXs,2020.1.2,MacIntel,60,,,,,,,,,,,,,,1,6.52474,,0,1,81,231,142,1,stimuli/stim_20210519_power2amp/equal_lnn_AM4Hz_s55_16.m4a,,,
,,,,,,,,,,,,41257,2021-06-05_15h34.04.348,judgeSpeechMusic_20210519_logNormShiftAmp_mXs,2020.1.2,MacIntel,60,,,,,,,,,,,,,,1,7.013535,,0,1,82,232,50,1,stimuli/stim_20210519_power2amp/equal_lnn_AM2.5Hz_s15_3.m4a,,,
,,,,,,,,,,,,41257,2021-06-05_15h34.04.348,judgeSpeechMusic_20210519_logNormShiftAmp_mXs,2020.1.2,MacIntel,60,,,,,,,,,,,,,,2,8.26129,,0,1,83,233,141,1,stimuli/stim_20210519_power2amp/equal_lnn_AM4Hz_s55_23.m4a,,,
,,,,,,,,,,,,41257,2021-06-05_15h34.04.348,judgeSpeechMusic_20210519_logNormShiftAmp_mXs,2020.1.2,MacIntel,60,,,,,,,,,,,,,,1,7.49238,,0,1,84,234,29,1,stimuli/stim_20210519_power2amp/equal_lnn_AM1Hz_s35_11.m4a,,,
,,,,,,,,,,,,41257,2021-06-05_15h34.04.348,judgeSpeechMusic_20210519_logNormShiftAmp_mXs,2020.1.2,MacIntel,60,,,,,,,,,,,,,,1,7.79252,,0,1,85,235,75,1,stimuli/stim_20210519_power2amp/equal_lnn_AM2.5Hz_s35_3.m4a,,,
,,,,,,,,,,,,41257,2021-06-05_15h34.04.348,judgeSpeechMusic_20210519_logNormShiftAmp_mXs,2020.1.2,MacIntel,60,,,,,,,,,,,,,,1,6.79489,,0,1,86,236,15,1,stimuli/stim_20210519_power2amp/equal_lnn_AM1Hz_s25_17.m4a,,,
,,,,,,,,,,,,41257,2021-06-05_15h34.04.348,judgeSpeechMusic_20210519_logNormShiftAmp_mXs,2020.1.2,MacIntel,60,,,,,,,,,,,,,,2,8.42715,,0,1,87,237,3,1,stimuli/stim_20210519_power2amp/equal_lnn_AM1Hz_s15_8.m4a,,,
,,,,,,,,,,,,41257,2021-06-05_15h34.04.348,judgeSpeechMusic_20210519_logNormShiftAmp_mXs,2020.1.2,MacIntel,60,,,,,,,,,,,,,,2,11.560105,,0,1,88,238,102,1,stimuli/stim_20210519_power2amp/equal_lnn_AM4Hz_s15_49.m4a,,,
,,,,,,,,,,,,41257,2021-06-05_15h34.04.348,judgeSpeechMusic_20210519_logNormShiftAmp_mXs,2020.1.2,MacIntel,60,,,,,,,,,,,,,,2,39.59517,,0,1,89,239,109,1,stimuli/stim_20210519_power2amp/equal_lnn_AM4Hz_s15_30.m4a,,,
,,,,,,,,,,,,41257,2021-06-05_15h34.04.348,judgeSpeechMusic_20210519_logNormShiftAmp_mXs,2020.1.2,MacIntel,60,,,,,,,,,,,,,,1,9.766315,,0,1,90,240,135,1,stimuli/stim_20210519_power2amp/equal_lnn_AM4Hz_s45_50.m4a,,,
,,,,,,,,,,,,41257,2021-06-05_15h34.04.348,judgeSpeechMusic_20210519_logNormShiftAmp_mXs,2020.1.2,MacIntel,60,,,,,,,,,,,,,,1,6.643485,,0,1,91,241,86,1,stimuli/stim_20210519_power2amp/equal_lnn_AM2.5Hz_s45_27.m4a,,,
,,,,,,,,,,,,41257,2021-06-05_15h34.04.348,judgeSpeechMusic_20210519_logNormShiftAmp_mXs,2020.1.2,MacIntel,60,,,,,,,,,,,,,,1,7.0957,,0,1,92,242,42,1,stimuli/stim_20210519_power2amp/equal_lnn_AM1Hz_s55_36.m4a,,,
,,,,,,,,,,,,41257,2021-06-05_15h34.04.348,judgeSpeechMusic_20210519_logNormShiftAmp_mXs,2020.1.2,MacIntel,60,,,,,,,,,,,,,,2,6.527715,,0,1,93,243,71,1,stimuli/stim_20210519_power2amp/equal_lnn_AM2.5Hz_s35_28.m4a,,,
,,,,,,,,,,,,41257,2021-06-05_15h34.04.348,judgeSpeechMusic_20210519_logNormShiftAmp_mXs,2020.1.2,MacIntel,60,,,,,,,,,,,,,,2,5.795205,2,1,1,94,244,128,1,stimuli/stim_20210519_power2amp/equal_lnn_AM4Hz_s35_49.m4a,0.54527,,
,,,,,,,,,,,,41257,2021-06-05_15h34.04.348,judgeSpeechMusic_20210519_logNormShiftAmp_mXs,2020.1.2,MacIntel,60,,,,,,,,,,,,,,2,7.55846,,0,1,95,245,4,1,stimuli/stim_20210519_power2amp/equal_lnn_AM1Hz_s15_13.m4a,,,
,,,,,,,,,,,,41257,2021-06-05_15h34.04.348,judgeSpeechMusic_20210519_logNormShiftAmp_mXs,2020.1.2,MacIntel,60,,,,,,,,,,,,,,2,6.82693,,0,1,96,246,110,1,stimuli/stim_20210519_power2amp/equal_lnn_AM4Hz_s25_9.m4a,,,
,,,,,,,,,,,,41257,2021-06-05_15h34.04.348,judgeSpeechMusic_20210519_logNormShiftAmp_mXs,2020.1.2,MacIntel,60,,,,,,,,,,,,,,1,8.440335,,0,1,97,247,124,1,stimuli/stim_20210519_power2amp/equal_lnn_AM4Hz_s35_48.m4a,,,
,,,,,,,,,,,,41257,2021-06-05_15h34.04.348,judgeSpeechMusic_20210519_logNormShiftAmp_mXs,2020.1.2,MacIntel,60,,,,,,,,,,,,,,1,10.29492,,0,1,98,248,99,1,stimuli/stim_20210519_power2amp/equal_lnn_AM2.5Hz_s55_13.m4a,,,
,,,,,,,,,,,,41257,2021-06-05_15h34.04.348,judgeSpeechMusic_20210519_logNormShiftAmp_mXs,2020.1.2,MacIntel,60,,,,,,,,,,,,,,1,7.77922,,0,1,99,249,58,1,stimuli/stim_20210519_power2amp/equal_lnn_AM2.5Hz_s15_26.m4a,,,
,,,,,,,,,,,,41257,2021-06-05_15h34.04.348,judgeSpeechMusic_20210519_logNormShiftAmp_mXs,2020.1.2,MacIntel,60,,,,,,,,,,,,,,1,9.855815,,0,1,100,250,33,1,stimuli/stim_20210519_power2amp/equal_lnn_AM1Hz_s45_40.m4a,,,
,,,,,,,,,,,,41257,2021-06-05_15h34.04.348,judgeSpeechMusic_20210519_logNormShiftAmp_mXs,2020.1.2,MacIntel,60,,,,,,,,,,,,,,1,455.035565,,0,1,101,251,61,1,stimuli/stim_20210519_power2amp/equal_lnn_AM2.5Hz_s25_35.m4a,,,
,,,,,,,,,,,,41257,2021-06-05_15h34.04.348,judgeSpeechMusic_20210519_logNormShiftAmp_mXs,2020.1.2,MacIntel,60,,,,,,,,,,,,,,1,7.017025,,0,1,102,252,24,1,stimuli/stim_20210519_power2amp/equal_lnn_AM1Hz_s35_35.m4a,,,
,,,,,,,,,,,,41257,2021-06-05_15h34.04.348,judgeSpeechMusic_20210519_logNormShiftAmp_mXs,2020.1.2,MacIntel,60,,,,,,,,,,,,,,1,5.929415,,0,1,103,253,26,1,stimuli/stim_20210519_power2amp/equal_lnn_AM1Hz_s35_32.m4a,,,
,,,,,,,,,,,,41257,2021-06-05_15h34.04.348,judgeSpeechMusic_20210519_logNormShiftAmp_mXs,2020.1.2,MacIntel,60,,,,,,,,,,,,,,2,8.43066,,0,1,104,254,100,1,stimuli/stim_20210519_power2amp/equal_lnn_AM4Hz_s15_6.m4a,,,
,,,,,,,,,,,,41257,2021-06-05_15h34.04.348,judgeSpeechMusic_20210519_logNormShiftAmp_mXs,2020.1.2,MacIntel,60,,,,,,,,,,,,,,2,5.959525,,0,1,105,255,95,1,stimuli/stim_20210519_power2amp/equal_lnn_AM2.5Hz_s55_49.m4a,,,
,,,,,,,,,,,,41257,2021-06-05_15h34.04.348,judgeSpeechMusic_20210519_logNormShiftAmp_mXs,2020.1.2,MacIntel,60,,,,,,,,,,,,,,2,7.863145,,0,1,106,256,94,1,stimuli/stim_20210519_power2amp/equal_lnn_AM2.5Hz_s55_40.m4a,,,
,,,,,,,,,,,,41257,2021-06-05_15h34.04.348,judgeSpeechMusic_20210519_logNormShiftAmp_mXs,2020.1.2,MacIntel,60,,,,,,,,,,,,,,2,6.992725,,0,1,107,257,123,1,stimuli/stim_20210519_power2amp/equal_lnn_AM4Hz_s35_21.m4a,,,
,,,,,,,,,,,,41257,2021-06-05_15h34.04.348,judgeSpeechMusic_20210519_logNormShiftAmp_mXs,2020.1.2,MacIntel,60,,,,,,,,,,,,,,2,7.859805,,0,1,108,258,138,1,stimuli/stim_20210519_power2amp/equal_lnn_AM4Hz_s45_16.m4a,,,
,,,,,,,,,,,,41257,2021-06-05_15h34.04.348,judgeSpeechMusic_20210519_logNormShiftAmp_mXs,2020.1.2,MacIntel,60,,,,,,,,,,,,,,2,7.292855,,0,1,109,259,43,1,stimuli/stim_20210519_power2amp/equal_lnn_AM1Hz_s55_30.m4a,,,
,,,,,,,,,,,,41257,2021-06-05_15h34.04.348,judgeSpeechMusic_20210519_logNormShiftAmp_mXs,2020.1.2,MacIntel,60,,,,,,,,,,,,,,2,9.02406,,0,1,110,260,32,1,stimuli/stim_20210519_power2amp/equal_lnn_AM1Hz_s45_2.m4a,,,
,,,,,,,,,,,,41257,2021-06-05_15h34.04.348,judgeSpeechMusic_20210519_logNormShiftAmp_mXs,2020.1.2,MacIntel,60,,,,,,,,,,,,,,2,13.229145,,0,1,111,261,74,1,stimuli/stim_20210519_power2amp/equal_lnn_AM2.5Hz_s35_9.m4a,,,
,,,,,,,,,,,,41257,2021-06-05_15h34.04.348,judgeSpeechMusic_20210519_logNormShiftAmp_mXs,2020.1.2,MacIntel,60,,,,,,,,,,,,,,1,6.959185,,0,1,112,262,46,1,stimuli/stim_20210519_power2amp/equal_lnn_AM1Hz_s55_10.m4a,,,
,,,,,,,,,,,,41257,2021-06-05_15h34.04.348,judgeSpeechMusic_20210519_logNormShiftAmp_mXs,2020.1.2,MacIntel,60,,,,,,,,,,,,,,1,7.161495,,0,1,113,263,136,1,stimuli/stim_20210519_power2amp/equal_lnn_AM4Hz_s45_9.m4a,,,
,,,,,,,,,,,,41257,2021-06-05_15h34.04.348,judgeSpeechMusic_20210519_logNormShiftAmp_mXs,2020.1.2,MacIntel,60,,,,,,,,,,,,,,1,8.22924,,0,1,114,264,101,1,stimuli/stim_20210519_power2amp/equal_lnn_AM4Hz_s15_29.m4a,,,
,,,,,,,,,,,,41257,2021-06-05_15h34.04.348,judgeSpeechMusic_20210519_logNormShiftAmp_mXs,2020.1.2,MacIntel,60,,,,,,,,,,,,,,1,6.393205,,0,1,115,265,85,1,stimuli/stim_20210519_power2amp/equal_lnn_AM2.5Hz_s45_19.m4a,,,
,,,,,,,,,,,,41257,2021-06-05_15h34.04.348,judgeSpeechMusic_20210519_logNormShiftAmp_mXs,2020.1.2,MacIntel,60,,,,,,,,,,,,,,1,7.041055,3,1,1,116,266,16,1,stimuli/stim_20210519_power2amp/equal_lnn_AM1Hz_s25_16.m4a,2.56459,,
,,,,,,,,,,,,41257,2021-06-05_15h34.04.348,judgeSpeechMusic_20210519_logNormShiftAmp_mXs,2020.1.2,MacIntel,60,,,,,,,,,,,,,,1,6.726145,,0,1,117,267,62,1,stimuli/stim_20210519_power2amp/equal_lnn_AM2.5Hz_s25_37.m4a,,,
,,,,,,,,,,,,41257,2021-06-05_15h34.04.348,judgeSpeechMusic_20210519_logNormShiftAmp_mXs,2020.1.2,MacIntel,60,,,,,,,,,,,,,,1,6.559785,,0,1,118,268,82,1,stimuli/stim_20210519_power2amp/equal_lnn_AM2.5Hz_s45_50.m4a,,,
,,,,,,,,,,,,41257,2021-06-05_15h34.04.348,judgeSpeechMusic_20210519_logNormShiftAmp_mXs,2020.1.2,MacIntel,60,,,,,,,,,,,,,,1,7.678565,,0,1,119,269,44,1,stimuli/stim_20210519_power2amp/equal_lnn_AM1Hz_s55_18.m4a,,,
,,,,,,,,,,,,41257,2021-06-05_15h34.04.348,judgeSpeechMusic_20210519_logNormShiftAmp_mXs,2020.1.2,MacIntel,60,,,,,,,,,,,,,,2,11.529475,,0,1,120,270,30,1,stimuli/stim_20210519_power2amp/equal_lnn_AM1Hz_s45_10.m4a,,,
,,,,,,,,,,,,41257,2021-06-05_15h34.04.348,judgeSpeechMusic_20210519_logNormShiftAmp_mXs,2020.1.2,MacIntel,60,,,,,,,,,,,,,,2,7.49526,,0,1,121,271,1,1,stimuli/stim_20210519_power2amp/equal_lnn_AM1Hz_s15_27.m4a,,,
,,,,,,,,,,,,41257,2021-06-05_15h34.04.348,judgeSpeechMusic_20210519_logNormShiftAmp_mXs,2020.1.2,MacIntel,60,,,,,,,,,,,,,,2,6.025585,,0,1,122,272,89,1,stimuli/stim_20210519_power2amp/equal_lnn_AM2.5Hz_s45_26.m4a,,,
,,,,,,,,,,,,41257,2021-06-05_15h34.04.348,judgeSpeechMusic_20210519_logNormShiftAmp_mXs,2020.1.2,MacIntel,60,,,,,,,,,,,,,,2,8.42423,,0,1,123,273,36,1,stimuli/stim_20210519_power2amp/equal_lnn_AM1Hz_s45_24.m4a,,,
,,,,,,,,,,,,41257,2021-06-05_15h34.04.348,judgeSpeechMusic_20210519_logNormShiftAmp_mXs,2020.1.2,MacIntel,60,,,,,,,,,,,,,,2,6.94465,,0,1,124,274,81,1,stimuli/stim_20210519_power2amp/equal_lnn_AM2.5Hz_s45_48.m4a,,,
,,,,,,,,,,,,41257,2021-06-05_15h34.04.348,judgeSpeechMusic_20210519_logNormShiftAmp_mXs,2020.1.2,MacIntel,60,,,,,,,,,,,,,,2,8.3924,,0,1,125,275,40,1,stimuli/stim_20210519_power2amp/equal_lnn_AM1Hz_s55_27.m4a,,,
,,,,,,,,,,,,41257,2021-06-05_15h34.04.348,judgeSpeechMusic_20210519_logNormShiftAmp_mXs,2020.1.2,MacIntel,60,,,,,,,,,,,,,,2,7.193315,,0,1,126,276,23,1,stimuli/stim_20210519_power2amp/equal_lnn_AM1Hz_s35_44.m4a,,,
,,,,,,,,,,,,41257,2021-06-05_15h34.04.348,judgeSpeechMusic_20210519_logNormShiftAmp_mXs,2020.1.2,MacIntel,60,,,,,,,,,,,,,,2,161.522255,,0,1,127,277,8,1,stimuli/stim_20210519_power2amp/equal_lnn_AM1Hz_s15_41.m4a,,,
,,,,,,,,,,,,41257,2021-06-05_15h34.04.348,judgeSpeechMusic_20210519_logNormShiftAmp_mXs,2020.1.2,MacIntel,60,,,,,,,,,,,,,,2,7.143765,,0,1,128,278,65,1,stimuli/stim_20210519_power2amp/equal_lnn_AM2.5Hz_s25_48.m4a,,,
,,,,,,,,,,,,41257,2021-06-05_15h34.04.348,judgeSpeechMusic_20210519_logNormShiftAmp_mXs,2020.1.2,MacIntel,60,,,,,,,,,,,,,,2,6.85701,,0,1,129,279,47,1,stimuli/stim_20210519_power2amp/equal_lnn_AM1Hz_s55_26.m4a,,,
,,,,,,,,,,,,41257,2021-06-05_15h34.04.348,judgeSpeechMusic_20210519_logNormShiftAmp_mXs,2020.1.2,MacIntel,60,,,,,,,,,,,,,,1,10.29332,,0,1,130,280,103,1,stimuli/stim_20210519_power2amp/equal_lnn_AM4Hz_s15_14.m4a,,,
,,,,,,,,,,,,41257,2021-06-05_15h34.04.348,judgeSpeechMusic_20210519_logNormShiftAmp_mXs,2020.1.2,MacIntel,60,,,,,,,,,,,,,,1,7.175395,,0,1,131,281,63,1,stimuli/stim_20210519_power2amp/equal_lnn_AM2.5Hz_s25_14.m4a,,,
,,,,,,,,,,,,41257,2021-06-05_15h34.04.348,judgeSpeechMusic_20210519_logNormShiftAmp_mXs,2020.1.2,MacIntel,60,,,,,,,,,,,,,,1,6.44233,,0,1,132,282,11,1,stimuli/stim_20210519_power2amp/equal_lnn_AM1Hz_s25_13.m4a,,,
,,,,,,,,,,,,41257,2021-06-05_15h34.04.348,judgeSpeechMusic_20210519_logNormShiftAmp_mXs,2020.1.2,MacIntel,60,,,,,,,,,,,,,,2,7.80861,,0,1,133,283,19,1,stimuli/stim_20210519_power2amp/equal_lnn_AM1Hz_s25_21.m4a,,,
,,,,,,,,,,,,41257,2021-06-05_15h34.04.348,judgeSpeechMusic_20210519_logNormShiftAmp_mXs,2020.1.2,MacIntel,60,,,,,,,,,,,,,,2,6.840575,,0,1,134,284,21,1,stimuli/stim_20210519_power2amp/equal_lnn_AM1Hz_s35_6.m4a,,,
,,,,,,,,,,,,41257,2021-06-05_15h34.04.348,judgeSpeechMusic_20210519_logNormShiftAmp_mXs,2020.1.2,MacIntel,60,,,,,,,,,,,,,,2,256.46835,,0,1,135,285,120,1,stimuli/stim_20210519_power2amp/equal_lnn_AM4Hz_s35_17.m4a,,,
,,,,,,,,,,,,41257,2021-06-05_15h34.04.348,judgeSpeechMusic_20210519_logNormShiftAmp_mXs,2020.1.2,MacIntel,60,,,,,,,,,,,,,,1,6.87634,,0,1,136,286,105,1,stimuli/stim_20210519_power2amp/equal_lnn_AM4Hz_s15_28.m4a,,,
,,,,,,,,,,,,41257,2021-06-05_15h34.04.348,judgeSpeechMusic_20210519_logNormShiftAmp_mXs,2020.1.2,MacIntel,60,,,,,,,,,,,,,,1,6.29387,,0,1,137,287,45,1,stimuli/stim_20210519_power2amp/equal_lnn_AM1Hz_s55_28.m4a,,,
,,,,,,,,,,,,41257,2021-06-05_15h34.04.348,judgeSpeechMusic_20210519_logNormShiftAmp_mXs,2020.1.2,MacIntel,60,,,,,,,,,,,,,,1,6.02804,,0,1,138,288,18,1,stimuli/stim_20210519_power2amp/equal_lnn_AM1Hz_s25_50.m4a,,,
,,,,,,,,,,,,41257,2021-06-05_15h34.04.348,judgeSpeechMusic_20210519_logNormShiftAmp_mXs,2020.1.2,MacIntel,60,,,,,,,,,,,,,,1,5.98042,,0,1,139,289,67,1,stimuli/stim_20210519_power2amp/equal_lnn_AM2.5Hz_s25_29.m4a,,,
,,,,,,,,,,,,41257,2021-06-05_15h34.04.348,judgeSpeechMusic_20210519_logNormShiftAmp_mXs,2020.1.2,MacIntel,60,,,,,,,,,,,,,,1,5.961615,,0,1,140,290,49,1,stimuli/stim_20210519_power2amp/equal_lnn_AM1Hz_s55_5.m4a,,,
,,,,,,,,,,,,41257,2021-06-05_15h34.04.348,judgeSpeechMusic_20210519_logNormShiftAmp_mXs,2020.1.2,MacIntel,60,,,,,,,,,,,,,,1,6.391565,,0,1,141,291,119,1,stimuli/stim_20210519_power2amp/equal_lnn_AM4Hz_s25_47.m4a,,,
,,,,,,,,,,,,41257,2021-06-05_15h34.04.348,judgeSpeechMusic_20210519_logNormShiftAmp_mXs,2020.1.2,MacIntel,60,,,,,,,,,,,,,,2,5.910105,,0,1,142,292,90,1,stimuli/stim_20210519_power2amp/equal_lnn_AM2.5Hz_s55_36.m4a,,,
,,,,,,,,,,,,41257,2021-06-05_15h34.04.348,judgeSpeechMusic_20210519_logNormShiftAmp_mXs,2020.1.2,MacIntel,60,,,,,,,,,,,,,,2,5.793115,,0,1,143,293,116,1,stimuli/stim_20210519_power2amp/equal_lnn_AM4Hz_s25_14.m4a,,,
,,,,,,,,,,,,41257,2021-06-05_15h34.04.348,judgeSpeechMusic_20210519_logNormShiftAmp_mXs,2020.1.2,MacIntel,60,,,,,,,,,,,,,,2,5.691515,,0,1,144,294,144,1,stimuli/stim_20210519_power2amp/equal_lnn_AM4Hz_s55_15.m4a,,,
,,,,,,,,,,,,41257,2021-06-05_15h34.04.348,judgeSpeechMusic_20210519_logNormShiftAmp_mXs,2020.1.2,MacIntel,60,,,,,,,,,,,,,,1,5.7258,,0,1,145,295,70,1,stimuli/stim_20210519_power2amp/equal_lnn_AM2.5Hz_s35_33.m4a,,,
,,,,,,,,,,,,41257,2021-06-05_15h34.04.348,judgeSpeechMusic_20210519_logNormShiftAmp_mXs,2020.1.2,MacIntel,60,,,,,,,,,,,,,,1,5.676685,,0,1,146,296,69,1,stimuli/stim_20210519_power2amp/equal_lnn_AM2.5Hz_s25_24.m4a,,,
,,,,,,,,,,,,41257,2021-06-05_15h34.04.348,judgeSpeechMusic_20210519_logNormShiftAmp_mXs,2020.1.2,MacIntel,60,,,,,,,,,,,,,,1,5.76081,,0,1,147,297,121,1,stimuli/stim_20210519_power2amp/equal_lnn_AM4Hz_s35_46.m4a,,,
,,,,,,,,,,,,41257,2021-06-05_15h34.04.348,judgeSpeechMusic_20210519_logNormShiftAmp_mXs,2020.1.2,MacIntel,60,,,,,,,,,,,,,,1,6.760595,,0,1,148,298,27,1,stimuli/stim_20210519_power2amp/equal_lnn_AM1Hz_s35_26.m4a,,,
,,,,,,,,,,,,41257,2021-06-05_15h34.04.348,judgeSpeechMusic_20210519_logNormShiftAmp_mXs,2020.1.2,MacIntel,60,,,,,,,,,,,,,,2,6.49299,,0,1,149,299,31,1,stimuli/stim_20210519_power2amp/equal_lnn_AM1Hz_s45_45.m4a,,,
,,,,,,,,,,,,41257,2021-06-05_15h34.04.348,judgeSpeechMusic_20210519_logNormShiftAmp_mXs,2020.1.2,MacIntel,60,,,,,,,,,,,,,,,,,,,,,,,,,space,3.445695
