headphoneResponse.keys,headphoneResponse.corr,headphoneResponse.rt,headphoneTrial.thisRepN,headphoneTrial.thisTrialN,headphoneTrial.thisN,headphoneTrial.thisIndex,headphoneTrial.ran,headphone_sound1,headphone_sound2,headphone_sound3,corrAns,participant,date,expName,psychopyVersion,OS,frameRate,trainSlider.response,trainSlider.rt,beepTrainResponse.keys,beepTrainResponse.corr,trainingTrials.thisRepN,trainingTrials.thisTrialN,trainingTrials.thisN,trainingTrials.thisIndex,trainingTrials.ran,trainAudioFile,beepTrainResponse.rt,readyReal_resp.keys,readyReal_resp.rt,ratingSlider.response,ratingSlider.rt,beepResp.keys,beepResp.corr,expTrials.thisRepN,expTrials.thisTrialN,expTrials.thisN,expTrials.thisIndex,expTrials.ran,audioFile,beepResp.rt,end_resp.keys,end_resp.rt
3,1,2.379095,0,0,0,2,1,stimuli/screen_origin.wav,stimuli/screen_antiphase.wav,stimuli/screen_quiet.wav,3,41253,2021-05-25_13h54.23.668,judgeSpeechMusic_20210519_logNormShiftAmp_mXs,2020.1.2,Win32,60,,,,,,,,,,,,,,,,,,,,,,,,,,
1,1,1.89806,0,1,1,4,1,stimuli/screen_quiet.wav,stimuli/screen_antiphase.wav,stimuli/screen_origin.wav,1,41253,2021-05-25_13h54.23.668,judgeSpeechMusic_20210519_logNormShiftAmp_mXs,2020.1.2,Win32,60,,,,,,,,,,,,,,,,,,,,,,,,,,
1,1,1.04085,0,2,2,5,1,stimuli/screen_quiet.wav,stimuli/screen_origin.wav,stimuli/screen_antiphase.wav,1,41253,2021-05-25_13h54.23.668,judgeSpeechMusic_20210519_logNormShiftAmp_mXs,2020.1.2,Win32,60,,,,,,,,,,,,,,,,,,,,,,,,,,
3,1,1.003155,0,3,3,0,1,stimuli/screen_antiphase.wav,stimuli/screen_origin.wav,stimuli/screen_quiet.wav,3,41253,2021-05-25_13h54.23.668,judgeSpeechMusic_20210519_logNormShiftAmp_mXs,2020.1.2,Win32,60,,,,,,,,,,,,,,,,,,,,,,,,,,
2,1,1.505965,0,4,4,1,1,stimuli/screen_antiphase.wav,stimuli/screen_quiet.wav,stimuli/screen_origin.wav,2,41253,2021-05-25_13h54.23.668,judgeSpeechMusic_20210519_logNormShiftAmp_mXs,2020.1.2,Win32,60,,,,,,,,,,,,,,,,,,,,,,,,,,
2,1,0.888965,0,5,5,3,1,stimuli/screen_origin.wav,stimuli/screen_quiet.wav,stimuli/screen_antiphase.wav,2,41253,2021-05-25_13h54.23.668,judgeSpeechMusic_20210519_logNormShiftAmp_mXs,2020.1.2,Win32,60,,,,,,,,,,,,,,,,,,,,,,,,,,
,,,,,,,,,,,,41253,2021-05-25_13h54.23.668,judgeSpeechMusic_20210519_logNormShiftAmp_mXs,2020.1.2,Win32,60,2,14.57233,,0,0,0,0,3,1,stimuli/stim_20210519_power2amp/equal_lnn_AM_training3.5Hz_s50.m4a,,,,,,,,,,,,,,,,
,,,,,,,,,,,,41253,2021-05-25_13h54.23.668,judgeSpeechMusic_20210519_logNormShiftAmp_mXs,2020.1.2,Win32,60,2,10.677895,,0,0,1,1,2,1,stimuli/stim_20210519_power2amp/equal_lnn_AM_training3.5Hz_s20.m4a,,,,,,,,,,,,,,,,
,,,,,,,,,,,,41253,2021-05-25_13h54.23.668,judgeSpeechMusic_20210519_logNormShiftAmp_mXs,2020.1.2,Win32,60,1,6.55439,1,1,0,2,2,1,1,stimuli/stim_20210519_power2amp/equal_lnn_AM_training1.5Hz_s50.m4a,2.371825,,,,,,,,,,,,,,,
,,,,,,,,,,,,41253,2021-05-25_13h54.23.668,judgeSpeechMusic_20210519_logNormShiftAmp_mXs,2020.1.2,Win32,60,1,11.31088,,0,0,3,3,0,1,stimuli/stim_20210519_power2amp/equal_lnn_AM_training1.5Hz_s20.m4a,,,,,,,,,,,,,,,,
,,,,,,,,,,,,41253,2021-05-25_13h54.23.668,judgeSpeechMusic_20210519_logNormShiftAmp_mXs,2020.1.2,Win32,60,,,,,,,,,,,,space,4.477545,2,7.51461,,0,0,0,0,121,1,stimuli/stim_20210519_power2amp/equal_lnn_AM4Hz_s35_4.m4a,,,
,,,,,,,,,,,,41253,2021-05-25_13h54.23.668,judgeSpeechMusic_20210519_logNormShiftAmp_mXs,2020.1.2,Win32,60,,,,,,,,,,,,,,1,6.13298,,0,0,1,1,22,1,stimuli/stim_20210519_power2amp/equal_lnn_AM1Hz_s35_39.m4a,,,
,,,,,,,,,,,,41253,2021-05-25_13h54.23.668,judgeSpeechMusic_20210519_logNormShiftAmp_mXs,2020.1.2,Win32,60,,,,,,,,,,,,,,1,6.123555,,0,0,2,2,13,1,stimuli/stim_20210519_power2amp/equal_lnn_AM1Hz_s25_2.m4a,,,
,,,,,,,,,,,,41253,2021-05-25_13h54.23.668,judgeSpeechMusic_20210519_logNormShiftAmp_mXs,2020.1.2,Win32,60,,,,,,,,,,,,,,2,6.370255,,0,0,3,3,76,1,stimuli/stim_20210519_power2amp/equal_lnn_AM2.5Hz_s35_45.m4a,,,
,,,,,,,,,,,,41253,2021-05-25_13h54.23.668,judgeSpeechMusic_20210519_logNormShiftAmp_mXs,2020.1.2,Win32,60,,,,,,,,,,,,,,2,5.868555,,0,0,4,4,78,1,stimuli/stim_20210519_power2amp/equal_lnn_AM2.5Hz_s35_49.m4a,,,
,,,,,,,,,,,,41253,2021-05-25_13h54.23.668,judgeSpeechMusic_20210519_logNormShiftAmp_mXs,2020.1.2,Win32,60,,,,,,,,,,,,,,2,8.40277,,0,0,5,5,124,1,stimuli/stim_20210519_power2amp/equal_lnn_AM4Hz_s35_1.m4a,,,
,,,,,,,,,,,,41253,2021-05-25_13h54.23.668,judgeSpeechMusic_20210519_logNormShiftAmp_mXs,2020.1.2,Win32,60,,,,,,,,,,,,,,1,5.93673,,0,0,6,6,40,1,stimuli/stim_20210519_power2amp/equal_lnn_AM1Hz_s55_3.m4a,,,
,,,,,,,,,,,,41253,2021-05-25_13h54.23.668,judgeSpeechMusic_20210519_logNormShiftAmp_mXs,2020.1.2,Win32,60,,,,,,,,,,,,,,2,6.35338,,0,0,7,7,135,1,stimuli/stim_20210519_power2amp/equal_lnn_AM4Hz_s45_37.m4a,,,
,,,,,,,,,,,,41253,2021-05-25_13h54.23.668,judgeSpeechMusic_20210519_logNormShiftAmp_mXs,2020.1.2,Win32,60,,,,,,,,,,,,,,2,6.353895,,0,0,8,8,134,1,stimuli/stim_20210519_power2amp/equal_lnn_AM4Hz_s45_18.m4a,,,
,,,,,,,,,,,,41253,2021-05-25_13h54.23.668,judgeSpeechMusic_20210519_logNormShiftAmp_mXs,2020.1.2,Win32,60,,,,,,,,,,,,,,2,6.346995,,0,0,9,9,120,1,stimuli/stim_20210519_power2amp/equal_lnn_AM4Hz_s35_15.m4a,,,
,,,,,,,,,,,,41253,2021-05-25_13h54.23.668,judgeSpeechMusic_20210519_logNormShiftAmp_mXs,2020.1.2,Win32,60,,,,,,,,,,,,,,1,5.950055,,0,0,10,10,2,1,stimuli/stim_20210519_power2amp/equal_lnn_AM1Hz_s15_48.m4a,,,
,,,,,,,,,,,,41253,2021-05-25_13h54.23.668,judgeSpeechMusic_20210519_logNormShiftAmp_mXs,2020.1.2,Win32,60,,,,,,,,,,,,,,1,6.14133,,0,0,11,11,109,1,stimuli/stim_20210519_power2amp/equal_lnn_AM4Hz_s15_6.m4a,,,
,,,,,,,,,,,,41253,2021-05-25_13h54.23.668,judgeSpeechMusic_20210519_logNormShiftAmp_mXs,2020.1.2,Win32,60,,,,,,,,,,,,,,1,6.002815,,0,0,12,12,38,1,stimuli/stim_20210519_power2amp/equal_lnn_AM1Hz_s45_32.m4a,,,
,,,,,,,,,,,,41253,2021-05-25_13h54.23.668,judgeSpeechMusic_20210519_logNormShiftAmp_mXs,2020.1.2,Win32,60,,,,,,,,,,,,,,2,5.8039,,0,0,13,13,99,1,stimuli/stim_20210519_power2amp/equal_lnn_AM2.5Hz_s55_10.m4a,,,
,,,,,,,,,,,,41253,2021-05-25_13h54.23.668,judgeSpeechMusic_20210519_logNormShiftAmp_mXs,2020.1.2,Win32,60,,,,,,,,,,,,,,2,5.780105,,0,0,14,14,130,1,stimuli/stim_20210519_power2amp/equal_lnn_AM4Hz_s45_3.m4a,,,
,,,,,,,,,,,,41253,2021-05-25_13h54.23.668,judgeSpeechMusic_20210519_logNormShiftAmp_mXs,2020.1.2,Win32,60,,,,,,,,,,,,,,1,6.042895,,0,0,15,15,15,1,stimuli/stim_20210519_power2amp/equal_lnn_AM1Hz_s25_25.m4a,,,
,,,,,,,,,,,,41253,2021-05-25_13h54.23.668,judgeSpeechMusic_20210519_logNormShiftAmp_mXs,2020.1.2,Win32,60,,,,,,,,,,,,,,2,6.718985,,0,0,16,16,114,1,stimuli/stim_20210519_power2amp/equal_lnn_AM4Hz_s25_33.m4a,,,
,,,,,,,,,,,,41253,2021-05-25_13h54.23.668,judgeSpeechMusic_20210519_logNormShiftAmp_mXs,2020.1.2,Win32,60,,,,,,,,,,,,,,1,6.235855,,0,0,17,17,55,1,stimuli/stim_20210519_power2amp/equal_lnn_AM2.5Hz_s15_35.m4a,,,
,,,,,,,,,,,,41253,2021-05-25_13h54.23.668,judgeSpeechMusic_20210519_logNormShiftAmp_mXs,2020.1.2,Win32,60,,,,,,,,,,,,,,1,6.123785,,0,0,18,18,9,1,stimuli/stim_20210519_power2amp/equal_lnn_AM1Hz_s15_41.m4a,,,
,,,,,,,,,,,,41253,2021-05-25_13h54.23.668,judgeSpeechMusic_20210519_logNormShiftAmp_mXs,2020.1.2,Win32,60,,,,,,,,,,,,,,2,6.26112,,0,0,19,19,69,1,stimuli/stim_20210519_power2amp/equal_lnn_AM2.5Hz_s25_22.m4a,,,
,,,,,,,,,,,,41253,2021-05-25_13h54.23.668,judgeSpeechMusic_20210519_logNormShiftAmp_mXs,2020.1.2,Win32,60,,,,,,,,,,,,,,1,7.32167,,0,0,20,20,0,1,stimuli/stim_20210519_power2amp/equal_lnn_AM1Hz_s15_32.m4a,,,
,,,,,,,,,,,,41253,2021-05-25_13h54.23.668,judgeSpeechMusic_20210519_logNormShiftAmp_mXs,2020.1.2,Win32,60,,,,,,,,,,,,,,2,5.77249,,0,0,21,21,140,1,stimuli/stim_20210519_power2amp/equal_lnn_AM4Hz_s55_2.m4a,,,
,,,,,,,,,,,,41253,2021-05-25_13h54.23.668,judgeSpeechMusic_20210519_logNormShiftAmp_mXs,2020.1.2,Win32,60,,,,,,,,,,,,,,2,5.54492,,0,0,22,22,132,1,stimuli/stim_20210519_power2amp/equal_lnn_AM4Hz_s45_43.m4a,,,
,,,,,,,,,,,,41253,2021-05-25_13h54.23.668,judgeSpeechMusic_20210519_logNormShiftAmp_mXs,2020.1.2,Win32,60,,,,,,,,,,,,,,2,6.886855,,0,0,23,23,62,1,stimuli/stim_20210519_power2amp/equal_lnn_AM2.5Hz_s25_5.m4a,,,
,,,,,,,,,,,,41253,2021-05-25_13h54.23.668,judgeSpeechMusic_20210519_logNormShiftAmp_mXs,2020.1.2,Win32,60,,,,,,,,,,,,,,1,5.73634,,0,0,24,24,28,1,stimuli/stim_20210519_power2amp/equal_lnn_AM1Hz_s35_7.m4a,,,
,,,,,,,,,,,,41253,2021-05-25_13h54.23.668,judgeSpeechMusic_20210519_logNormShiftAmp_mXs,2020.1.2,Win32,60,,,,,,,,,,,,,,2,5.74264,,0,0,25,25,110,1,stimuli/stim_20210519_power2amp/equal_lnn_AM4Hz_s25_11.m4a,,,
,,,,,,,,,,,,41253,2021-05-25_13h54.23.668,judgeSpeechMusic_20210519_logNormShiftAmp_mXs,2020.1.2,Win32,60,,,,,,,,,,,,,,2,6.58941,,0,0,26,26,94,1,stimuli/stim_20210519_power2amp/equal_lnn_AM2.5Hz_s55_37.m4a,,,
,,,,,,,,,,,,41253,2021-05-25_13h54.23.668,judgeSpeechMusic_20210519_logNormShiftAmp_mXs,2020.1.2,Win32,60,,,,,,,,,,,,,,2,5.603595,,0,0,27,27,92,1,stimuli/stim_20210519_power2amp/equal_lnn_AM2.5Hz_s55_46.m4a,,,
,,,,,,,,,,,,41253,2021-05-25_13h54.23.668,judgeSpeechMusic_20210519_logNormShiftAmp_mXs,2020.1.2,Win32,60,,,,,,,,,,,,,,1,6.053005,,0,0,28,28,82,1,stimuli/stim_20210519_power2amp/equal_lnn_AM2.5Hz_s45_11.m4a,,,
,,,,,,,,,,,,41253,2021-05-25_13h54.23.668,judgeSpeechMusic_20210519_logNormShiftAmp_mXs,2020.1.2,Win32,60,,,,,,,,,,,,,,2,5.96905,,0,0,29,29,129,1,stimuli/stim_20210519_power2amp/equal_lnn_AM4Hz_s35_13.m4a,,,
,,,,,,,,,,,,41253,2021-05-25_13h54.23.668,judgeSpeechMusic_20210519_logNormShiftAmp_mXs,2020.1.2,Win32,60,,,,,,,,,,,,,,2,6.414675,,0,0,30,30,102,1,stimuli/stim_20210519_power2amp/equal_lnn_AM4Hz_s15_43.m4a,,,
,,,,,,,,,,,,41253,2021-05-25_13h54.23.668,judgeSpeechMusic_20210519_logNormShiftAmp_mXs,2020.1.2,Win32,60,,,,,,,,,,,,,,1,6.084125,,0,0,31,31,74,1,stimuli/stim_20210519_power2amp/equal_lnn_AM2.5Hz_s35_46.m4a,,,
,,,,,,,,,,,,41253,2021-05-25_13h54.23.668,judgeSpeechMusic_20210519_logNormShiftAmp_mXs,2020.1.2,Win32,60,,,,,,,,,,,,,,1,5.87889,,0,0,32,32,84,1,stimuli/stim_20210519_power2amp/equal_lnn_AM2.5Hz_s45_23.m4a,,,
,,,,,,,,,,,,41253,2021-05-25_13h54.23.668,judgeSpeechMusic_20210519_logNormShiftAmp_mXs,2020.1.2,Win32,60,,,,,,,,,,,,,,1,6.29793,,0,0,33,33,46,1,stimuli/stim_20210519_power2amp/equal_lnn_AM1Hz_s55_5.m4a,,,
,,,,,,,,,,,,41253,2021-05-25_13h54.23.668,judgeSpeechMusic_20210519_logNormShiftAmp_mXs,2020.1.2,Win32,60,,,,,,,,,,,,,,1,6.60611,,0,0,34,34,85,1,stimuli/stim_20210519_power2amp/equal_lnn_AM2.5Hz_s45_39.m4a,,,
,,,,,,,,,,,,41253,2021-05-25_13h54.23.668,judgeSpeechMusic_20210519_logNormShiftAmp_mXs,2020.1.2,Win32,60,,,,,,,,,,,,,,1,6.67221,,0,0,35,35,19,1,stimuli/stim_20210519_power2amp/equal_lnn_AM1Hz_s25_9.m4a,,,
,,,,,,,,,,,,41253,2021-05-25_13h54.23.668,judgeSpeechMusic_20210519_logNormShiftAmp_mXs,2020.1.2,Win32,60,,,,,,,,,,,,,,1,7.236745,3,1,0,36,36,42,1,stimuli/stim_20210519_power2amp/equal_lnn_AM1Hz_s55_28.m4a,1.37552,,
,,,,,,,,,,,,41253,2021-05-25_13h54.23.668,judgeSpeechMusic_20210519_logNormShiftAmp_mXs,2020.1.2,Win32,60,,,,,,,,,,,,,,2,7.487745,,0,0,37,37,50,1,stimuli/stim_20210519_power2amp/equal_lnn_AM2.5Hz_s15_1.m4a,,,
,,,,,,,,,,,,41253,2021-05-25_13h54.23.668,judgeSpeechMusic_20210519_logNormShiftAmp_mXs,2020.1.2,Win32,60,,,,,,,,,,,,,,2,7.22294,,0,0,38,38,47,1,stimuli/stim_20210519_power2amp/equal_lnn_AM1Hz_s55_23.m4a,,,
,,,,,,,,,,,,41253,2021-05-25_13h54.23.668,judgeSpeechMusic_20210519_logNormShiftAmp_mXs,2020.1.2,Win32,60,,,,,,,,,,,,,,2,8.8041,,0,0,39,39,54,1,stimuli/stim_20210519_power2amp/equal_lnn_AM2.5Hz_s15_13.m4a,,,
,,,,,,,,,,,,41253,2021-05-25_13h54.23.668,judgeSpeechMusic_20210519_logNormShiftAmp_mXs,2020.1.2,Win32,60,,,,,,,,,,,,,,2,6.564665,,0,0,40,40,90,1,stimuli/stim_20210519_power2amp/equal_lnn_AM2.5Hz_s55_18.m4a,,,
,,,,,,,,,,,,41253,2021-05-25_13h54.23.668,judgeSpeechMusic_20210519_logNormShiftAmp_mXs,2020.1.2,Win32,60,,,,,,,,,,,,,,2,6.53165,,0,0,41,41,122,1,stimuli/stim_20210519_power2amp/equal_lnn_AM4Hz_s35_25.m4a,,,
,,,,,,,,,,,,41253,2021-05-25_13h54.23.668,judgeSpeechMusic_20210519_logNormShiftAmp_mXs,2020.1.2,Win32,60,,,,,,,,,,,,,,2,6.075195,,0,0,42,42,80,1,stimuli/stim_20210519_power2amp/equal_lnn_AM2.5Hz_s45_5.m4a,,,
,,,,,,,,,,,,41253,2021-05-25_13h54.23.668,judgeSpeechMusic_20210519_logNormShiftAmp_mXs,2020.1.2,Win32,60,,,,,,,,,,,,,,1,6.60438,,0,0,43,43,36,1,stimuli/stim_20210519_power2amp/equal_lnn_AM1Hz_s45_42.m4a,,,
,,,,,,,,,,,,41253,2021-05-25_13h54.23.668,judgeSpeechMusic_20210519_logNormShiftAmp_mXs,2020.1.2,Win32,60,,,,,,,,,,,,,,2,9.08753,,0,0,44,44,88,1,stimuli/stim_20210519_power2amp/equal_lnn_AM2.5Hz_s45_3.m4a,,,
,,,,,,,,,,,,41253,2021-05-25_13h54.23.668,judgeSpeechMusic_20210519_logNormShiftAmp_mXs,2020.1.2,Win32,60,,,,,,,,,,,,,,2,9.261685,,0,0,45,45,68,1,stimuli/stim_20210519_power2amp/equal_lnn_AM2.5Hz_s25_10.m4a,,,
,,,,,,,,,,,,41253,2021-05-25_13h54.23.668,judgeSpeechMusic_20210519_logNormShiftAmp_mXs,2020.1.2,Win32,60,,,,,,,,,,,,,,1,6.42996,,0,0,46,46,67,1,stimuli/stim_20210519_power2amp/equal_lnn_AM2.5Hz_s25_2.m4a,,,
,,,,,,,,,,,,41253,2021-05-25_13h54.23.668,judgeSpeechMusic_20210519_logNormShiftAmp_mXs,2020.1.2,Win32,60,,,,,,,,,,,,,,2,6.17074,,0,0,47,47,79,1,stimuli/stim_20210519_power2amp/equal_lnn_AM2.5Hz_s35_4.m4a,,,
,,,,,,,,,,,,41253,2021-05-25_13h54.23.668,judgeSpeechMusic_20210519_logNormShiftAmp_mXs,2020.1.2,Win32,60,,,,,,,,,,,,,,2,7.22063,,0,0,48,48,117,1,stimuli/stim_20210519_power2amp/equal_lnn_AM4Hz_s25_1.m4a,,,
,,,,,,,,,,,,41253,2021-05-25_13h54.23.668,judgeSpeechMusic_20210519_logNormShiftAmp_mXs,2020.1.2,Win32,60,,,,,,,,,,,,,,2,8.1605,,0,0,49,49,71,1,stimuli/stim_20210519_power2amp/equal_lnn_AM2.5Hz_s35_34.m4a,,,
,,,,,,,,,,,,41253,2021-05-25_13h54.23.668,judgeSpeechMusic_20210519_logNormShiftAmp_mXs,2020.1.2,Win32,60,,,,,,,,,,,,,,1,6.01983,,0,0,50,50,5,1,stimuli/stim_20210519_power2amp/equal_lnn_AM1Hz_s15_17.m4a,,,
,,,,,,,,,,,,41253,2021-05-25_13h54.23.668,judgeSpeechMusic_20210519_logNormShiftAmp_mXs,2020.1.2,Win32,60,,,,,,,,,,,,,,1,5.66032,,0,0,51,51,35,1,stimuli/stim_20210519_power2amp/equal_lnn_AM1Hz_s45_28.m4a,,,
,,,,,,,,,,,,41253,2021-05-25_13h54.23.668,judgeSpeechMusic_20210519_logNormShiftAmp_mXs,2020.1.2,Win32,60,,,,,,,,,,,,,,1,5.904965,,0,0,52,52,24,1,stimuli/stim_20210519_power2amp/equal_lnn_AM1Hz_s35_17.m4a,,,
,,,,,,,,,,,,41253,2021-05-25_13h54.23.668,judgeSpeechMusic_20210519_logNormShiftAmp_mXs,2020.1.2,Win32,60,,,,,,,,,,,,,,1,6.011535,,0,0,53,53,30,1,stimuli/stim_20210519_power2amp/equal_lnn_AM1Hz_s45_41.m4a,,,
,,,,,,,,,,,,41253,2021-05-25_13h54.23.668,judgeSpeechMusic_20210519_logNormShiftAmp_mXs,2020.1.2,Win32,60,,,,,,,,,,,,,,1,6.05473,,0,0,54,54,108,1,stimuli/stim_20210519_power2amp/equal_lnn_AM4Hz_s15_49.m4a,,,
,,,,,,,,,,,,41253,2021-05-25_13h54.23.668,judgeSpeechMusic_20210519_logNormShiftAmp_mXs,2020.1.2,Win32,60,,,,,,,,,,,,,,2,6.60981,,0,0,55,55,147,1,stimuli/stim_20210519_power2amp/equal_lnn_AM4Hz_s55_26.m4a,,,
,,,,,,,,,,,,41253,2021-05-25_13h54.23.668,judgeSpeechMusic_20210519_logNormShiftAmp_mXs,2020.1.2,Win32,60,,,,,,,,,,,,,,2,6.960335,,0,0,56,56,103,1,stimuli/stim_20210519_power2amp/equal_lnn_AM4Hz_s15_1.m4a,,,
,,,,,,,,,,,,41253,2021-05-25_13h54.23.668,judgeSpeechMusic_20210519_logNormShiftAmp_mXs,2020.1.2,Win32,60,,,,,,,,,,,,,,2,7.08975,,0,0,57,57,107,1,stimuli/stim_20210519_power2amp/equal_lnn_AM4Hz_s15_48.m4a,,,
,,,,,,,,,,,,41253,2021-05-25_13h54.23.668,judgeSpeechMusic_20210519_logNormShiftAmp_mXs,2020.1.2,Win32,60,,,,,,,,,,,,,,2,5.82099,,0,0,58,58,148,1,stimuli/stim_20210519_power2amp/equal_lnn_AM4Hz_s55_6.m4a,,,
,,,,,,,,,,,,41253,2021-05-25_13h54.23.668,judgeSpeechMusic_20210519_logNormShiftAmp_mXs,2020.1.2,Win32,60,,,,,,,,,,,,,,1,6.653765,3,1,0,59,59,26,1,stimuli/stim_20210519_power2amp/equal_lnn_AM1Hz_s35_30.m4a,1.24446,,
,,,,,,,,,,,,41253,2021-05-25_13h54.23.668,judgeSpeechMusic_20210519_logNormShiftAmp_mXs,2020.1.2,Win32,60,,,,,,,,,,,,,,2,7.104755,,0,0,60,60,87,1,stimuli/stim_20210519_power2amp/equal_lnn_AM2.5Hz_s45_33.m4a,,,
,,,,,,,,,,,,41253,2021-05-25_13h54.23.668,judgeSpeechMusic_20210519_logNormShiftAmp_mXs,2020.1.2,Win32,60,,,,,,,,,,,,,,1,7.571125,,0,0,61,61,75,1,stimuli/stim_20210519_power2amp/equal_lnn_AM2.5Hz_s35_24.m4a,,,
,,,,,,,,,,,,41253,2021-05-25_13h54.23.668,judgeSpeechMusic_20210519_logNormShiftAmp_mXs,2020.1.2,Win32,60,,,,,,,,,,,,,,2,6.029445,,0,0,62,62,98,1,stimuli/stim_20210519_power2amp/equal_lnn_AM2.5Hz_s55_14.m4a,,,
,,,,,,,,,,,,41253,2021-05-25_13h54.23.668,judgeSpeechMusic_20210519_logNormShiftAmp_mXs,2020.1.2,Win32,60,,,,,,,,,,,,,,1,7.5207,,0,0,63,63,7,1,stimuli/stim_20210519_power2amp/equal_lnn_AM1Hz_s15_2.m4a,,,
,,,,,,,,,,,,41253,2021-05-25_13h54.23.668,judgeSpeechMusic_20210519_logNormShiftAmp_mXs,2020.1.2,Win32,60,,,,,,,,,,,,,,1,6.074985,,0,0,64,64,37,1,stimuli/stim_20210519_power2amp/equal_lnn_AM1Hz_s45_27.m4a,,,
,,,,,,,,,,,,41253,2021-05-25_13h54.23.668,judgeSpeechMusic_20210519_logNormShiftAmp_mXs,2020.1.2,Win32,60,,,,,,,,,,,,,,1,5.921995,,0,0,65,65,57,1,stimuli/stim_20210519_power2amp/equal_lnn_AM2.5Hz_s15_48.m4a,,,
,,,,,,,,,,,,41253,2021-05-25_13h54.23.668,judgeSpeechMusic_20210519_logNormShiftAmp_mXs,2020.1.2,Win32,60,,,,,,,,,,,,,,1,6.253155,,0,0,66,66,77,1,stimuli/stim_20210519_power2amp/equal_lnn_AM2.5Hz_s35_22.m4a,,,
,,,,,,,,,,,,41253,2021-05-25_13h54.23.668,judgeSpeechMusic_20210519_logNormShiftAmp_mXs,2020.1.2,Win32,60,,,,,,,,,,,,,,2,8.85417,,0,0,67,67,115,1,stimuli/stim_20210519_power2amp/equal_lnn_AM4Hz_s25_4.m4a,,,
,,,,,,,,,,,,41253,2021-05-25_13h54.23.668,judgeSpeechMusic_20210519_logNormShiftAmp_mXs,2020.1.2,Win32,60,,,,,,,,,,,,,,2,6.106855,,0,0,68,68,91,1,stimuli/stim_20210519_power2amp/equal_lnn_AM2.5Hz_s55_20.m4a,,,
,,,,,,,,,,,,41253,2021-05-25_13h54.23.668,judgeSpeechMusic_20210519_logNormShiftAmp_mXs,2020.1.2,Win32,60,,,,,,,,,,,,,,1,5.968975,,0,0,69,69,53,1,stimuli/stim_20210519_power2amp/equal_lnn_AM2.5Hz_s15_33.m4a,,,
,,,,,,,,,,,,41253,2021-05-25_13h54.23.668,judgeSpeechMusic_20210519_logNormShiftAmp_mXs,2020.1.2,Win32,60,,,,,,,,,,,,,,2,6.742315,,0,0,70,70,142,1,stimuli/stim_20210519_power2amp/equal_lnn_AM4Hz_s55_24.m4a,,,
,,,,,,,,,,,,41253,2021-05-25_13h54.23.668,judgeSpeechMusic_20210519_logNormShiftAmp_mXs,2020.1.2,Win32,60,,,,,,,,,,,,,,2,6.35937,,0,0,71,71,106,1,stimuli/stim_20210519_power2amp/equal_lnn_AM4Hz_s15_31.m4a,,,
,,,,,,,,,,,,41253,2021-05-25_13h54.23.668,judgeSpeechMusic_20210519_logNormShiftAmp_mXs,2020.1.2,Win32,60,,,,,,,,,,,,,,2,5.93793,,0,0,72,72,141,1,stimuli/stim_20210519_power2amp/equal_lnn_AM4Hz_s55_5.m4a,,,
,,,,,,,,,,,,41253,2021-05-25_13h54.23.668,judgeSpeechMusic_20210519_logNormShiftAmp_mXs,2020.1.2,Win32,60,,,,,,,,,,,,,,1,6.453325,,0,0,73,73,20,1,stimuli/stim_20210519_power2amp/equal_lnn_AM1Hz_s35_16.m4a,,,
,,,,,,,,,,,,41253,2021-05-25_13h54.23.668,judgeSpeechMusic_20210519_logNormShiftAmp_mXs,2020.1.2,Win32,60,,,,,,,,,,,,,,2,6.375375,,0,0,74,74,111,1,stimuli/stim_20210519_power2amp/equal_lnn_AM4Hz_s25_2.m4a,,,
,,,,,,,,,,,,41253,2021-05-25_13h54.23.668,judgeSpeechMusic_20210519_logNormShiftAmp_mXs,2020.1.2,Win32,60,,,,,,,,,,,,,,2,11.161355,,0,0,75,75,70,1,stimuli/stim_20210519_power2amp/equal_lnn_AM2.5Hz_s35_20.m4a,,,
,,,,,,,,,,,,41253,2021-05-25_13h54.23.668,judgeSpeechMusic_20210519_logNormShiftAmp_mXs,2020.1.2,Win32,60,,,,,,,,,,,,,,2,6.670605,,0,0,76,76,81,1,stimuli/stim_20210519_power2amp/equal_lnn_AM2.5Hz_s45_14.m4a,,,
,,,,,,,,,,,,41253,2021-05-25_13h54.23.668,judgeSpeechMusic_20210519_logNormShiftAmp_mXs,2020.1.2,Win32,60,,,,,,,,,,,,,,1,5.768805,,0,0,77,77,39,1,stimuli/stim_20210519_power2amp/equal_lnn_AM1Hz_s45_21.m4a,,,
,,,,,,,,,,,,41253,2021-05-25_13h54.23.668,judgeSpeechMusic_20210519_logNormShiftAmp_mXs,2020.1.2,Win32,60,,,,,,,,,,,,,,1,6.45446,,0,0,78,78,4,1,stimuli/stim_20210519_power2amp/equal_lnn_AM1Hz_s15_21.m4a,,,
,,,,,,,,,,,,41253,2021-05-25_13h54.23.668,judgeSpeechMusic_20210519_logNormShiftAmp_mXs,2020.1.2,Win32,60,,,,,,,,,,,,,,2,7.56863,,0,0,79,79,138,1,stimuli/stim_20210519_power2amp/equal_lnn_AM4Hz_s45_23.m4a,,,
,,,,,,,,,,,,41253,2021-05-25_13h54.23.668,judgeSpeechMusic_20210519_logNormShiftAmp_mXs,2020.1.2,Win32,60,,,,,,,,,,,,,,1,7.26612,,0,0,80,80,113,1,stimuli/stim_20210519_power2amp/equal_lnn_AM4Hz_s25_47.m4a,,,
,,,,,,,,,,,,41253,2021-05-25_13h54.23.668,judgeSpeechMusic_20210519_logNormShiftAmp_mXs,2020.1.2,Win32,60,,,,,,,,,,,,,,1,6.141565,,0,0,81,81,41,1,stimuli/stim_20210519_power2amp/equal_lnn_AM1Hz_s55_11.m4a,,,
,,,,,,,,,,,,41253,2021-05-25_13h54.23.668,judgeSpeechMusic_20210519_logNormShiftAmp_mXs,2020.1.2,Win32,60,,,,,,,,,,,,,,1,8.035245,,0,0,82,82,27,1,stimuli/stim_20210519_power2amp/equal_lnn_AM1Hz_s35_24.m4a,,,
,,,,,,,,,,,,41253,2021-05-25_13h54.23.668,judgeSpeechMusic_20210519_logNormShiftAmp_mXs,2020.1.2,Win32,60,,,,,,,,,,,,,,2,5.986365,,0,0,83,83,73,1,stimuli/stim_20210519_power2amp/equal_lnn_AM2.5Hz_s35_2.m4a,,,
,,,,,,,,,,,,41253,2021-05-25_13h54.23.668,judgeSpeechMusic_20210519_logNormShiftAmp_mXs,2020.1.2,Win32,60,,,,,,,,,,,,,,2,63.036355,1,0,0,84,84,6,1,stimuli/stim_20210519_power2amp/equal_lnn_AM1Hz_s15_9.m4a,7.3604,,
,,,,,,,,,,,,41253,2021-05-25_13h54.23.668,judgeSpeechMusic_20210519_logNormShiftAmp_mXs,2020.1.2,Win32,60,,,,,,,,,,,,,,2,7.542275,,0,0,85,85,137,1,stimuli/stim_20210519_power2amp/equal_lnn_AM4Hz_s45_13.m4a,,,
,,,,,,,,,,,,41253,2021-05-25_13h54.23.668,judgeSpeechMusic_20210519_logNormShiftAmp_mXs,2020.1.2,Win32,60,,,,,,,,,,,,,,2,10.379285,,0,0,86,86,128,1,stimuli/stim_20210519_power2amp/equal_lnn_AM4Hz_s35_40.m4a,,,
,,,,,,,,,,,,41253,2021-05-25_13h54.23.668,judgeSpeechMusic_20210519_logNormShiftAmp_mXs,2020.1.2,Win32,60,,,,,,,,,,,,,,1,8.19294,,0,0,87,87,61,1,stimuli/stim_20210519_power2amp/equal_lnn_AM2.5Hz_s25_46.m4a,,,
,,,,,,,,,,,,41253,2021-05-25_13h54.23.668,judgeSpeechMusic_20210519_logNormShiftAmp_mXs,2020.1.2,Win32,60,,,,,,,,,,,,,,1,6.043515,,0,0,88,88,12,1,stimuli/stim_20210519_power2amp/equal_lnn_AM1Hz_s25_27.m4a,,,
,,,,,,,,,,,,41253,2021-05-25_13h54.23.668,judgeSpeechMusic_20210519_logNormShiftAmp_mXs,2020.1.2,Win32,60,,,,,,,,,,,,,,1,6.440625,,0,0,89,89,8,1,stimuli/stim_20210519_power2amp/equal_lnn_AM1Hz_s15_30.m4a,,,
,,,,,,,,,,,,41253,2021-05-25_13h54.23.668,judgeSpeechMusic_20210519_logNormShiftAmp_mXs,2020.1.2,Win32,60,,,,,,,,,,,,,,2,7.05866,,0,0,90,90,125,1,stimuli/stim_20210519_power2amp/equal_lnn_AM4Hz_s35_10.m4a,,,
,,,,,,,,,,,,41253,2021-05-25_13h54.23.668,judgeSpeechMusic_20210519_logNormShiftAmp_mXs,2020.1.2,Win32,60,,,,,,,,,,,,,,2,5.871765,,0,0,91,91,96,1,stimuli/stim_20210519_power2amp/equal_lnn_AM2.5Hz_s55_25.m4a,,,
,,,,,,,,,,,,41253,2021-05-25_13h54.23.668,judgeSpeechMusic_20210519_logNormShiftAmp_mXs,2020.1.2,Win32,60,,,,,,,,,,,,,,1,6.05992,,0,0,92,92,16,1,stimuli/stim_20210519_power2amp/equal_lnn_AM1Hz_s25_23.m4a,,,
,,,,,,,,,,,,41253,2021-05-25_13h54.23.668,judgeSpeechMusic_20210519_logNormShiftAmp_mXs,2020.1.2,Win32,60,,,,,,,,,,,,,,1,6.00283,,0,0,93,93,58,1,stimuli/stim_20210519_power2amp/equal_lnn_AM2.5Hz_s15_26.m4a,,,
,,,,,,,,,,,,41253,2021-05-25_13h54.23.668,judgeSpeechMusic_20210519_logNormShiftAmp_mXs,2020.1.2,Win32,60,,,,,,,,,,,,,,1,6.06069,,0,0,94,94,43,1,stimuli/stim_20210519_power2amp/equal_lnn_AM1Hz_s55_10.m4a,,,
,,,,,,,,,,,,41253,2021-05-25_13h54.23.668,judgeSpeechMusic_20210519_logNormShiftAmp_mXs,2020.1.2,Win32,60,,,,,,,,,,,,,,2,10.92112,,0,0,95,95,143,1,stimuli/stim_20210519_power2amp/equal_lnn_AM4Hz_s55_33.m4a,,,
,,,,,,,,,,,,41253,2021-05-25_13h54.23.668,judgeSpeechMusic_20210519_logNormShiftAmp_mXs,2020.1.2,Win32,60,,,,,,,,,,,,,,2,6.1546,,0,0,96,96,118,1,stimuli/stim_20210519_power2amp/equal_lnn_AM4Hz_s25_9.m4a,,,
,,,,,,,,,,,,41253,2021-05-25_13h54.23.668,judgeSpeechMusic_20210519_logNormShiftAmp_mXs,2020.1.2,Win32,60,,,,,,,,,,,,,,1,5.880035,,0,0,97,97,34,1,stimuli/stim_20210519_power2amp/equal_lnn_AM1Hz_s45_39.m4a,,,
,,,,,,,,,,,,41253,2021-05-25_13h54.23.668,judgeSpeechMusic_20210519_logNormShiftAmp_mXs,2020.1.2,Win32,60,,,,,,,,,,,,,,2,6.12587,,0,0,98,98,112,1,stimuli/stim_20210519_power2amp/equal_lnn_AM4Hz_s25_28.m4a,,,
,,,,,,,,,,,,41253,2021-05-25_13h54.23.668,judgeSpeechMusic_20210519_logNormShiftAmp_mXs,2020.1.2,Win32,60,,,,,,,,,,,,,,2,7.862045,,0,0,99,99,32,1,stimuli/stim_20210519_power2amp/equal_lnn_AM1Hz_s45_36.m4a,,,
,,,,,,,,,,,,41253,2021-05-25_13h54.23.668,judgeSpeechMusic_20210519_logNormShiftAmp_mXs,2020.1.2,Win32,60,,,,,,,,,,,,,,2,6.555615,,0,0,100,100,59,1,stimuli/stim_20210519_power2amp/equal_lnn_AM2.5Hz_s15_16.m4a,,,
,,,,,,,,,,,,41253,2021-05-25_13h54.23.668,judgeSpeechMusic_20210519_logNormShiftAmp_mXs,2020.1.2,Win32,60,,,,,,,,,,,,,,1,7.203775,,0,0,101,101,17,1,stimuli/stim_20210519_power2amp/equal_lnn_AM1Hz_s25_40.m4a,,,
,,,,,,,,,,,,41253,2021-05-25_13h54.23.668,judgeSpeechMusic_20210519_logNormShiftAmp_mXs,2020.1.2,Win32,60,,,,,,,,,,,,,,2,5.887685,,0,0,102,102,133,1,stimuli/stim_20210519_power2amp/equal_lnn_AM4Hz_s45_29.m4a,,,
,,,,,,,,,,,,41253,2021-05-25_13h54.23.668,judgeSpeechMusic_20210519_logNormShiftAmp_mXs,2020.1.2,Win32,60,,,,,,,,,,,,,,2,6.25605,,0,0,103,103,131,1,stimuli/stim_20210519_power2amp/equal_lnn_AM4Hz_s45_19.m4a,,,
,,,,,,,,,,,,41253,2021-05-25_13h54.23.668,judgeSpeechMusic_20210519_logNormShiftAmp_mXs,2020.1.2,Win32,60,,,,,,,,,,,,,,2,6.43923,,0,0,104,104,95,1,stimuli/stim_20210519_power2amp/equal_lnn_AM2.5Hz_s55_16.m4a,,,
,,,,,,,,,,,,41253,2021-05-25_13h54.23.668,judgeSpeechMusic_20210519_logNormShiftAmp_mXs,2020.1.2,Win32,60,,,,,,,,,,,,,,2,10.489355,,0,0,105,105,52,1,stimuli/stim_20210519_power2amp/equal_lnn_AM2.5Hz_s15_27.m4a,,,
,,,,,,,,,,,,41253,2021-05-25_13h54.23.668,judgeSpeechMusic_20210519_logNormShiftAmp_mXs,2020.1.2,Win32,60,,,,,,,,,,,,,,1,7.792205,,0,0,106,106,64,1,stimuli/stim_20210519_power2amp/equal_lnn_AM2.5Hz_s25_13.m4a,,,
,,,,,,,,,,,,41253,2021-05-25_13h54.23.668,judgeSpeechMusic_20210519_logNormShiftAmp_mXs,2020.1.2,Win32,60,,,,,,,,,,,,,,2,7.404865,,0,0,107,107,119,1,stimuli/stim_20210519_power2amp/equal_lnn_AM4Hz_s25_16.m4a,,,
,,,,,,,,,,,,41253,2021-05-25_13h54.23.668,judgeSpeechMusic_20210519_logNormShiftAmp_mXs,2020.1.2,Win32,60,,,,,,,,,,,,,,1,6.77288,3,1,0,108,108,25,1,stimuli/stim_20210519_power2amp/equal_lnn_AM1Hz_s35_50.m4a,1.942195,,
,,,,,,,,,,,,41253,2021-05-25_13h54.23.668,judgeSpeechMusic_20210519_logNormShiftAmp_mXs,2020.1.2,Win32,60,,,,,,,,,,,,,,2,6.20496,,0,0,109,109,126,1,stimuli/stim_20210519_power2amp/equal_lnn_AM4Hz_s35_7.m4a,,,
,,,,,,,,,,,,41253,2021-05-25_13h54.23.668,judgeSpeechMusic_20210519_logNormShiftAmp_mXs,2020.1.2,Win32,60,,,,,,,,,,,,,,2,6.92561,,0,0,110,110,100,1,stimuli/stim_20210519_power2amp/equal_lnn_AM4Hz_s15_28.m4a,,,
,,,,,,,,,,,,41253,2021-05-25_13h54.23.668,judgeSpeechMusic_20210519_logNormShiftAmp_mXs,2020.1.2,Win32,60,,,,,,,,,,,,,,2,6.17004,,0,0,111,111,136,1,stimuli/stim_20210519_power2amp/equal_lnn_AM4Hz_s45_16.m4a,,,
,,,,,,,,,,,,41253,2021-05-25_13h54.23.668,judgeSpeechMusic_20210519_logNormShiftAmp_mXs,2020.1.2,Win32,60,,,,,,,,,,,,,,2,6.078045,,0,0,112,112,104,1,stimuli/stim_20210519_power2amp/equal_lnn_AM4Hz_s15_29.m4a,,,
,,,,,,,,,,,,41253,2021-05-25_13h54.23.668,judgeSpeechMusic_20210519_logNormShiftAmp_mXs,2020.1.2,Win32,60,,,,,,,,,,,,,,1,6.116375,,0,0,113,113,29,1,stimuli/stim_20210519_power2amp/equal_lnn_AM1Hz_s35_34.m4a,,,
,,,,,,,,,,,,41253,2021-05-25_13h54.23.668,judgeSpeechMusic_20210519_logNormShiftAmp_mXs,2020.1.2,Win32,60,,,,,,,,,,,,,,2,8.03965,,0,0,114,114,86,1,stimuli/stim_20210519_power2amp/equal_lnn_AM2.5Hz_s45_1.m4a,,,
,,,,,,,,,,,,41253,2021-05-25_13h54.23.668,judgeSpeechMusic_20210519_logNormShiftAmp_mXs,2020.1.2,Win32,60,,,,,,,,,,,,,,2,7.26268,,0,0,115,115,66,1,stimuli/stim_20210519_power2amp/equal_lnn_AM2.5Hz_s25_42.m4a,,,
,,,,,,,,,,,,41253,2021-05-25_13h54.23.668,judgeSpeechMusic_20210519_logNormShiftAmp_mXs,2020.1.2,Win32,60,,,,,,,,,,,,,,2,9.30384,,0,0,116,116,63,1,stimuli/stim_20210519_power2amp/equal_lnn_AM2.5Hz_s25_30.m4a,,,
,,,,,,,,,,,,41253,2021-05-25_13h54.23.668,judgeSpeechMusic_20210519_logNormShiftAmp_mXs,2020.1.2,Win32,60,,,,,,,,,,,,,,2,6.270265,,0,0,117,117,116,1,stimuli/stim_20210519_power2amp/equal_lnn_AM4Hz_s25_50.m4a,,,
,,,,,,,,,,,,41253,2021-05-25_13h54.23.668,judgeSpeechMusic_20210519_logNormShiftAmp_mXs,2020.1.2,Win32,60,,,,,,,,,,,,,,1,7.08074,,0,0,118,118,33,1,stimuli/stim_20210519_power2amp/equal_lnn_AM1Hz_s45_15.m4a,,,
,,,,,,,,,,,,41253,2021-05-25_13h54.23.668,judgeSpeechMusic_20210519_logNormShiftAmp_mXs,2020.1.2,Win32,60,,,,,,,,,,,,,,2,8.600845,,0,0,119,119,72,1,stimuli/stim_20210519_power2amp/equal_lnn_AM2.5Hz_s35_40.m4a,,,
,,,,,,,,,,,,41253,2021-05-25_13h54.23.668,judgeSpeechMusic_20210519_logNormShiftAmp_mXs,2020.1.2,Win32,60,,,,,,,,,,,,,,1,5.82689,,0,0,120,120,31,1,stimuli/stim_20210519_power2amp/equal_lnn_AM1Hz_s45_29.m4a,,,
,,,,,,,,,,,,41253,2021-05-25_13h54.23.668,judgeSpeechMusic_20210519_logNormShiftAmp_mXs,2020.1.2,Win32,60,,,,,,,,,,,,,,1,7.555345,,0,0,121,121,3,1,stimuli/stim_20210519_power2amp/equal_lnn_AM1Hz_s15_28.m4a,,,
,,,,,,,,,,,,41253,2021-05-25_13h54.23.668,judgeSpeechMusic_20210519_logNormShiftAmp_mXs,2020.1.2,Win32,60,,,,,,,,,,,,,,2,8.44435,,0,0,122,122,144,1,stimuli/stim_20210519_power2amp/equal_lnn_AM4Hz_s55_29.m4a,,,
,,,,,,,,,,,,41253,2021-05-25_13h54.23.668,judgeSpeechMusic_20210519_logNormShiftAmp_mXs,2020.1.2,Win32,60,,,,,,,,,,,,,,2,6.174855,,0,0,123,123,89,1,stimuli/stim_20210519_power2amp/equal_lnn_AM2.5Hz_s45_21.m4a,,,
,,,,,,,,,,,,41253,2021-05-25_13h54.23.668,judgeSpeechMusic_20210519_logNormShiftAmp_mXs,2020.1.2,Win32,60,,,,,,,,,,,,,,1,6.671205,,0,0,124,124,11,1,stimuli/stim_20210519_power2amp/equal_lnn_AM1Hz_s25_32.m4a,,,
,,,,,,,,,,,,41253,2021-05-25_13h54.23.668,judgeSpeechMusic_20210519_logNormShiftAmp_mXs,2020.1.2,Win32,60,,,,,,,,,,,,,,1,6.49336,,0,0,125,125,56,1,stimuli/stim_20210519_power2amp/equal_lnn_AM2.5Hz_s15_14.m4a,,,
,,,,,,,,,,,,41253,2021-05-25_13h54.23.668,judgeSpeechMusic_20210519_logNormShiftAmp_mXs,2020.1.2,Win32,60,,,,,,,,,,,,,,2,6.92796,,0,0,126,126,65,1,stimuli/stim_20210519_power2amp/equal_lnn_AM2.5Hz_s25_40.m4a,,,
,,,,,,,,,,,,41253,2021-05-25_13h54.23.668,judgeSpeechMusic_20210519_logNormShiftAmp_mXs,2020.1.2,Win32,60,,,,,,,,,,,,,,2,7.97099,,0,0,127,127,93,1,stimuli/stim_20210519_power2amp/equal_lnn_AM2.5Hz_s55_7.m4a,,,
,,,,,,,,,,,,41253,2021-05-25_13h54.23.668,judgeSpeechMusic_20210519_logNormShiftAmp_mXs,2020.1.2,Win32,60,,,,,,,,,,,,,,2,5.78933,,0,0,128,128,146,1,stimuli/stim_20210519_power2amp/equal_lnn_AM4Hz_s55_15.m4a,,,
,,,,,,,,,,,,41253,2021-05-25_13h54.23.668,judgeSpeechMusic_20210519_logNormShiftAmp_mXs,2020.1.2,Win32,60,,,,,,,,,,,,,,2,7.29355,,0,0,129,129,45,1,stimuli/stim_20210519_power2amp/equal_lnn_AM1Hz_s55_34.m4a,,,
,,,,,,,,,,,,41253,2021-05-25_13h54.23.668,judgeSpeechMusic_20210519_logNormShiftAmp_mXs,2020.1.2,Win32,60,,,,,,,,,,,,,,2,7.35408,,0,0,130,130,101,1,stimuli/stim_20210519_power2amp/equal_lnn_AM4Hz_s15_5.m4a,,,
,,,,,,,,,,,,41253,2021-05-25_13h54.23.668,judgeSpeechMusic_20210519_logNormShiftAmp_mXs,2020.1.2,Win32,60,,,,,,,,,,,,,,2,6.90306,,0,0,131,131,105,1,stimuli/stim_20210519_power2amp/equal_lnn_AM4Hz_s15_27.m4a,,,
,,,,,,,,,,,,41253,2021-05-25_13h54.23.668,judgeSpeechMusic_20210519_logNormShiftAmp_mXs,2020.1.2,Win32,60,,,,,,,,,,,,,,2,7.410075,,0,0,132,132,60,1,stimuli/stim_20210519_power2amp/equal_lnn_AM2.5Hz_s25_44.m4a,,,
,,,,,,,,,,,,41253,2021-05-25_13h54.23.668,judgeSpeechMusic_20210519_logNormShiftAmp_mXs,2020.1.2,Win32,60,,,,,,,,,,,,,,1,6.56987,3,1,0,133,133,21,1,stimuli/stim_20210519_power2amp/equal_lnn_AM1Hz_s35_42.m4a,1.11089,,
,,,,,,,,,,,,41253,2021-05-25_13h54.23.668,judgeSpeechMusic_20210519_logNormShiftAmp_mXs,2020.1.2,Win32,60,,,,,,,,,,,,,,2,16.676475,,0,0,134,134,123,1,stimuli/stim_20210519_power2amp/equal_lnn_AM4Hz_s35_2.m4a,,,
,,,,,,,,,,,,41253,2021-05-25_13h54.23.668,judgeSpeechMusic_20210519_logNormShiftAmp_mXs,2020.1.2,Win32,60,,,,,,,,,,,,,,2,6.47417,,0,0,135,135,145,1,stimuli/stim_20210519_power2amp/equal_lnn_AM4Hz_s55_14.m4a,,,
,,,,,,,,,,,,41253,2021-05-25_13h54.23.668,judgeSpeechMusic_20210519_logNormShiftAmp_mXs,2020.1.2,Win32,60,,,,,,,,,,,,,,2,6.03841,,0,0,136,136,139,1,stimuli/stim_20210519_power2amp/equal_lnn_AM4Hz_s45_34.m4a,,,
,,,,,,,,,,,,41253,2021-05-25_13h54.23.668,judgeSpeechMusic_20210519_logNormShiftAmp_mXs,2020.1.2,Win32,60,,,,,,,,,,,,,,2,6.127225,,0,0,137,137,83,1,stimuli/stim_20210519_power2amp/equal_lnn_AM2.5Hz_s45_40.m4a,,,
,,,,,,,,,,,,41253,2021-05-25_13h54.23.668,judgeSpeechMusic_20210519_logNormShiftAmp_mXs,2020.1.2,Win32,60,,,,,,,,,,,,,,2,6.30493,,0,0,138,138,97,1,stimuli/stim_20210519_power2amp/equal_lnn_AM2.5Hz_s55_30.m4a,,,
,,,,,,,,,,,,41253,2021-05-25_13h54.23.668,judgeSpeechMusic_20210519_logNormShiftAmp_mXs,2020.1.2,Win32,60,,,,,,,,,,,,,,1,6.153875,,0,0,139,139,23,1,stimuli/stim_20210519_power2amp/equal_lnn_AM1Hz_s35_9.m4a,,,
,,,,,,,,,,,,41253,2021-05-25_13h54.23.668,judgeSpeechMusic_20210519_logNormShiftAmp_mXs,2020.1.2,Win32,60,,,,,,,,,,,,,,1,5.853875,,0,0,140,140,44,1,stimuli/stim_20210519_power2amp/equal_lnn_AM1Hz_s55_24.m4a,,,
,,,,,,,,,,,,41253,2021-05-25_13h54.23.668,judgeSpeechMusic_20210519_logNormShiftAmp_mXs,2020.1.2,Win32,60,,,,,,,,,,,,,,1,6.58852,,0,0,141,141,51,1,stimuli/stim_20210519_power2amp/equal_lnn_AM2.5Hz_s15_31.m4a,,,
,,,,,,,,,,,,41253,2021-05-25_13h54.23.668,judgeSpeechMusic_20210519_logNormShiftAmp_mXs,2020.1.2,Win32,60,,,,,,,,,,,,,,1,5.9396,,0,0,142,142,10,1,stimuli/stim_20210519_power2amp/equal_lnn_AM1Hz_s25_24.m4a,,,
,,,,,,,,,,,,41253,2021-05-25_13h54.23.668,judgeSpeechMusic_20210519_logNormShiftAmp_mXs,2020.1.2,Win32,60,,,,,,,,,,,,,,1,7.47032,,0,0,143,143,14,1,stimuli/stim_20210519_power2amp/equal_lnn_AM1Hz_s25_29.m4a,,,
,,,,,,,,,,,,41253,2021-05-25_13h54.23.668,judgeSpeechMusic_20210519_logNormShiftAmp_mXs,2020.1.2,Win32,60,,,,,,,,,,,,,,2,6.435925,,0,0,144,144,127,1,stimuli/stim_20210519_power2amp/equal_lnn_AM4Hz_s35_32.m4a,,,
,,,,,,,,,,,,41253,2021-05-25_13h54.23.668,judgeSpeechMusic_20210519_logNormShiftAmp_mXs,2020.1.2,Win32,60,,,,,,,,,,,,,,1,6.7101,,0,0,145,145,1,1,stimuli/stim_20210519_power2amp/equal_lnn_AM1Hz_s15_27.m4a,,,
,,,,,,,,,,,,41253,2021-05-25_13h54.23.668,judgeSpeechMusic_20210519_logNormShiftAmp_mXs,2020.1.2,Win32,60,,,,,,,,,,,,,,1,5.79267,,0,0,146,146,49,1,stimuli/stim_20210519_power2amp/equal_lnn_AM1Hz_s55_20.m4a,,,
,,,,,,,,,,,,41253,2021-05-25_13h54.23.668,judgeSpeechMusic_20210519_logNormShiftAmp_mXs,2020.1.2,Win32,60,,,,,,,,,,,,,,1,6.777615,,0,0,147,147,18,1,stimuli/stim_20210519_power2amp/equal_lnn_AM1Hz_s25_46.m4a,,,
,,,,,,,,,,,,41253,2021-05-25_13h54.23.668,judgeSpeechMusic_20210519_logNormShiftAmp_mXs,2020.1.2,Win32,60,,,,,,,,,,,,,,1,5.7888,,0,0,148,148,48,1,stimuli/stim_20210519_power2amp/equal_lnn_AM1Hz_s55_18.m4a,,,
,,,,,,,,,,,,41253,2021-05-25_13h54.23.668,judgeSpeechMusic_20210519_logNormShiftAmp_mXs,2020.1.2,Win32,60,,,,,,,,,,,,,,2,6.380315,,0,0,149,149,149,1,stimuli/stim_20210519_power2amp/equal_lnn_AM4Hz_s55_43.m4a,,,
,,,,,,,,,,,,41253,2021-05-25_13h54.23.668,judgeSpeechMusic_20210519_logNormShiftAmp_mXs,2020.1.2,Win32,60,,,,,,,,,,,,,,2,6.284675,,0,1,0,150,74,1,stimuli/stim_20210519_power2amp/equal_lnn_AM2.5Hz_s35_46.m4a,,,
,,,,,,,,,,,,41253,2021-05-25_13h54.23.668,judgeSpeechMusic_20210519_logNormShiftAmp_mXs,2020.1.2,Win32,60,,,,,,,,,,,,,,1,6.706305,,0,1,1,151,103,1,stimuli/stim_20210519_power2amp/equal_lnn_AM4Hz_s15_1.m4a,,,
,,,,,,,,,,,,41253,2021-05-25_13h54.23.668,judgeSpeechMusic_20210519_logNormShiftAmp_mXs,2020.1.2,Win32,60,,,,,,,,,,,,,,1,5.83986,,0,1,2,152,0,1,stimuli/stim_20210519_power2amp/equal_lnn_AM1Hz_s15_32.m4a,,,
,,,,,,,,,,,,41253,2021-05-25_13h54.23.668,judgeSpeechMusic_20210519_logNormShiftAmp_mXs,2020.1.2,Win32,60,,,,,,,,,,,,,,1,5.988845,,0,1,3,153,57,1,stimuli/stim_20210519_power2amp/equal_lnn_AM2.5Hz_s15_48.m4a,,,
,,,,,,,,,,,,41253,2021-05-25_13h54.23.668,judgeSpeechMusic_20210519_logNormShiftAmp_mXs,2020.1.2,Win32,60,,,,,,,,,,,,,,2,5.787325,,0,1,4,154,149,1,stimuli/stim_20210519_power2amp/equal_lnn_AM4Hz_s55_43.m4a,,,
,,,,,,,,,,,,41253,2021-05-25_13h54.23.668,judgeSpeechMusic_20210519_logNormShiftAmp_mXs,2020.1.2,Win32,60,,,,,,,,,,,,,,1,6.219545,,0,1,5,155,28,1,stimuli/stim_20210519_power2amp/equal_lnn_AM1Hz_s35_7.m4a,,,
,,,,,,,,,,,,41253,2021-05-25_13h54.23.668,judgeSpeechMusic_20210519_logNormShiftAmp_mXs,2020.1.2,Win32,60,,,,,,,,,,,,,,2,9.005065,1,1,1,6,156,98,1,stimuli/stim_20210519_power2amp/equal_lnn_AM2.5Hz_s55_14.m4a,0.95697,,
,,,,,,,,,,,,41253,2021-05-25_13h54.23.668,judgeSpeechMusic_20210519_logNormShiftAmp_mXs,2020.1.2,Win32,60,,,,,,,,,,,,,,1,7.651935,,0,1,7,157,50,1,stimuli/stim_20210519_power2amp/equal_lnn_AM2.5Hz_s15_1.m4a,,,
,,,,,,,,,,,,41253,2021-05-25_13h54.23.668,judgeSpeechMusic_20210519_logNormShiftAmp_mXs,2020.1.2,Win32,60,,,,,,,,,,,,,,1,6.136575,,0,1,8,158,77,1,stimuli/stim_20210519_power2amp/equal_lnn_AM2.5Hz_s35_22.m4a,,,
,,,,,,,,,,,,41253,2021-05-25_13h54.23.668,judgeSpeechMusic_20210519_logNormShiftAmp_mXs,2020.1.2,Win32,60,,,,,,,,,,,,,,1,7.953455,,0,1,9,159,117,1,stimuli/stim_20210519_power2amp/equal_lnn_AM4Hz_s25_1.m4a,,,
,,,,,,,,,,,,41253,2021-05-25_13h54.23.668,judgeSpeechMusic_20210519_logNormShiftAmp_mXs,2020.1.2,Win32,60,,,,,,,,,,,,,,2,6.16702,,0,1,10,160,101,1,stimuli/stim_20210519_power2amp/equal_lnn_AM4Hz_s15_5.m4a,,,
,,,,,,,,,,,,41253,2021-05-25_13h54.23.668,judgeSpeechMusic_20210519_logNormShiftAmp_mXs,2020.1.2,Win32,60,,,,,,,,,,,,,,1,5.74684,,0,1,11,161,85,1,stimuli/stim_20210519_power2amp/equal_lnn_AM2.5Hz_s45_39.m4a,,,
,,,,,,,,,,,,41253,2021-05-25_13h54.23.668,judgeSpeechMusic_20210519_logNormShiftAmp_mXs,2020.1.2,Win32,60,,,,,,,,,,,,,,1,5.85917,,0,1,12,162,40,1,stimuli/stim_20210519_power2amp/equal_lnn_AM1Hz_s55_3.m4a,,,
,,,,,,,,,,,,41253,2021-05-25_13h54.23.668,judgeSpeechMusic_20210519_logNormShiftAmp_mXs,2020.1.2,Win32,60,,,,,,,,,,,,,,2,6.75391,,0,1,13,163,147,1,stimuli/stim_20210519_power2amp/equal_lnn_AM4Hz_s55_26.m4a,,,
,,,,,,,,,,,,41253,2021-05-25_13h54.23.668,judgeSpeechMusic_20210519_logNormShiftAmp_mXs,2020.1.2,Win32,60,,,,,,,,,,,,,,2,7.0064,,0,1,14,164,80,1,stimuli/stim_20210519_power2amp/equal_lnn_AM2.5Hz_s45_5.m4a,,,
,,,,,,,,,,,,41253,2021-05-25_13h54.23.668,judgeSpeechMusic_20210519_logNormShiftAmp_mXs,2020.1.2,Win32,60,,,,,,,,,,,,,,2,6.504055,,0,1,15,165,114,1,stimuli/stim_20210519_power2amp/equal_lnn_AM4Hz_s25_33.m4a,,,
,,,,,,,,,,,,41253,2021-05-25_13h54.23.668,judgeSpeechMusic_20210519_logNormShiftAmp_mXs,2020.1.2,Win32,60,,,,,,,,,,,,,,2,6.09078,,0,1,16,166,99,1,stimuli/stim_20210519_power2amp/equal_lnn_AM2.5Hz_s55_10.m4a,,,
,,,,,,,,,,,,41253,2021-05-25_13h54.23.668,judgeSpeechMusic_20210519_logNormShiftAmp_mXs,2020.1.2,Win32,60,,,,,,,,,,,,,,2,6.018725,,0,1,17,167,60,1,stimuli/stim_20210519_power2amp/equal_lnn_AM2.5Hz_s25_44.m4a,,,
,,,,,,,,,,,,41253,2021-05-25_13h54.23.668,judgeSpeechMusic_20210519_logNormShiftAmp_mXs,2020.1.2,Win32,60,,,,,,,,,,,,,,2,6.61049,,0,1,18,168,132,1,stimuli/stim_20210519_power2amp/equal_lnn_AM4Hz_s45_43.m4a,,,
,,,,,,,,,,,,41253,2021-05-25_13h54.23.668,judgeSpeechMusic_20210519_logNormShiftAmp_mXs,2020.1.2,Win32,60,,,,,,,,,,,,,,2,7.658915,,0,1,19,169,126,1,stimuli/stim_20210519_power2amp/equal_lnn_AM4Hz_s35_7.m4a,,,
,,,,,,,,,,,,41253,2021-05-25_13h54.23.668,judgeSpeechMusic_20210519_logNormShiftAmp_mXs,2020.1.2,Win32,60,,,,,,,,,,,,,,1,6.521355,,0,1,20,170,39,1,stimuli/stim_20210519_power2amp/equal_lnn_AM1Hz_s45_21.m4a,,,
,,,,,,,,,,,,41253,2021-05-25_13h54.23.668,judgeSpeechMusic_20210519_logNormShiftAmp_mXs,2020.1.2,Win32,60,,,,,,,,,,,,,,2,6.078255,,0,1,21,171,86,1,stimuli/stim_20210519_power2amp/equal_lnn_AM2.5Hz_s45_1.m4a,,,
,,,,,,,,,,,,41253,2021-05-25_13h54.23.668,judgeSpeechMusic_20210519_logNormShiftAmp_mXs,2020.1.2,Win32,60,,,,,,,,,,,,,,2,7.86963,,0,1,22,172,104,1,stimuli/stim_20210519_power2amp/equal_lnn_AM4Hz_s15_29.m4a,,,
,,,,,,,,,,,,41253,2021-05-25_13h54.23.668,judgeSpeechMusic_20210519_logNormShiftAmp_mXs,2020.1.2,Win32,60,,,,,,,,,,,,,,2,6.24513,,0,1,23,173,83,1,stimuli/stim_20210519_power2amp/equal_lnn_AM2.5Hz_s45_40.m4a,,,
,,,,,,,,,,,,41253,2021-05-25_13h54.23.668,judgeSpeechMusic_20210519_logNormShiftAmp_mXs,2020.1.2,Win32,60,,,,,,,,,,,,,,1,8.378355,,0,1,24,174,81,1,stimuli/stim_20210519_power2amp/equal_lnn_AM2.5Hz_s45_14.m4a,,,
,,,,,,,,,,,,41253,2021-05-25_13h54.23.668,judgeSpeechMusic_20210519_logNormShiftAmp_mXs,2020.1.2,Win32,60,,,,,,,,,,,,,,2,6.53706,,0,1,25,175,76,1,stimuli/stim_20210519_power2amp/equal_lnn_AM2.5Hz_s35_45.m4a,,,
,,,,,,,,,,,,41253,2021-05-25_13h54.23.668,judgeSpeechMusic_20210519_logNormShiftAmp_mXs,2020.1.2,Win32,60,,,,,,,,,,,,,,2,17.28696,,0,1,26,176,84,1,stimuli/stim_20210519_power2amp/equal_lnn_AM2.5Hz_s45_23.m4a,,,
,,,,,,,,,,,,41253,2021-05-25_13h54.23.668,judgeSpeechMusic_20210519_logNormShiftAmp_mXs,2020.1.2,Win32,60,,,,,,,,,,,,,,1,6.203665,,0,1,27,177,4,1,stimuli/stim_20210519_power2amp/equal_lnn_AM1Hz_s15_21.m4a,,,
,,,,,,,,,,,,41253,2021-05-25_13h54.23.668,judgeSpeechMusic_20210519_logNormShiftAmp_mXs,2020.1.2,Win32,60,,,,,,,,,,,,,,2,6.17179,,0,1,28,178,110,1,stimuli/stim_20210519_power2amp/equal_lnn_AM4Hz_s25_11.m4a,,,
,,,,,,,,,,,,41253,2021-05-25_13h54.23.668,judgeSpeechMusic_20210519_logNormShiftAmp_mXs,2020.1.2,Win32,60,,,,,,,,,,,,,,2,7.103375,3,1,1,29,179,139,1,stimuli/stim_20210519_power2amp/equal_lnn_AM4Hz_s45_34.m4a,1.23102,,
,,,,,,,,,,,,41253,2021-05-25_13h54.23.668,judgeSpeechMusic_20210519_logNormShiftAmp_mXs,2020.1.2,Win32,60,,,,,,,,,,,,,,2,6.046895,,0,1,30,180,119,1,stimuli/stim_20210519_power2amp/equal_lnn_AM4Hz_s25_16.m4a,,,
,,,,,,,,,,,,41253,2021-05-25_13h54.23.668,judgeSpeechMusic_20210519_logNormShiftAmp_mXs,2020.1.2,Win32,60,,,,,,,,,,,,,,2,6.26099,,0,1,31,181,124,1,stimuli/stim_20210519_power2amp/equal_lnn_AM4Hz_s35_1.m4a,,,
,,,,,,,,,,,,41253,2021-05-25_13h54.23.668,judgeSpeechMusic_20210519_logNormShiftAmp_mXs,2020.1.2,Win32,60,,,,,,,,,,,,,,2,8.538795,,0,1,32,182,144,1,stimuli/stim_20210519_power2amp/equal_lnn_AM4Hz_s55_29.m4a,,,
,,,,,,,,,,,,41253,2021-05-25_13h54.23.668,judgeSpeechMusic_20210519_logNormShiftAmp_mXs,2020.1.2,Win32,60,,,,,,,,,,,,,,2,7.211295,,0,1,33,183,138,1,stimuli/stim_20210519_power2amp/equal_lnn_AM4Hz_s45_23.m4a,,,
,,,,,,,,,,,,41253,2021-05-25_13h54.23.668,judgeSpeechMusic_20210519_logNormShiftAmp_mXs,2020.1.2,Win32,60,,,,,,,,,,,,,,1,10.069585,,0,1,34,184,29,1,stimuli/stim_20210519_power2amp/equal_lnn_AM1Hz_s35_34.m4a,,,
,,,,,,,,,,,,41253,2021-05-25_13h54.23.668,judgeSpeechMusic_20210519_logNormShiftAmp_mXs,2020.1.2,Win32,60,,,,,,,,,,,,,,2,6.409865,,0,1,35,185,135,1,stimuli/stim_20210519_power2amp/equal_lnn_AM4Hz_s45_37.m4a,,,
,,,,,,,,,,,,41253,2021-05-25_13h54.23.668,judgeSpeechMusic_20210519_logNormShiftAmp_mXs,2020.1.2,Win32,60,,,,,,,,,,,,,,2,6.27365,,0,1,36,186,115,1,stimuli/stim_20210519_power2amp/equal_lnn_AM4Hz_s25_4.m4a,,,
,,,,,,,,,,,,41253,2021-05-25_13h54.23.668,judgeSpeechMusic_20210519_logNormShiftAmp_mXs,2020.1.2,Win32,60,,,,,,,,,,,,,,1,6.35569,,0,1,37,187,30,1,stimuli/stim_20210519_power2amp/equal_lnn_AM1Hz_s45_41.m4a,,,
,,,,,,,,,,,,41253,2021-05-25_13h54.23.668,judgeSpeechMusic_20210519_logNormShiftAmp_mXs,2020.1.2,Win32,60,,,,,,,,,,,,,,2,6.072835,,0,1,38,188,131,1,stimuli/stim_20210519_power2amp/equal_lnn_AM4Hz_s45_19.m4a,,,
,,,,,,,,,,,,41253,2021-05-25_13h54.23.668,judgeSpeechMusic_20210519_logNormShiftAmp_mXs,2020.1.2,Win32,60,,,,,,,,,,,,,,2,7.22388,,0,1,39,189,133,1,stimuli/stim_20210519_power2amp/equal_lnn_AM4Hz_s45_29.m4a,,,
,,,,,,,,,,,,41253,2021-05-25_13h54.23.668,judgeSpeechMusic_20210519_logNormShiftAmp_mXs,2020.1.2,Win32,60,,,,,,,,,,,,,,1,6.87718,,0,1,40,190,35,1,stimuli/stim_20210519_power2amp/equal_lnn_AM1Hz_s45_28.m4a,,,
,,,,,,,,,,,,41253,2021-05-25_13h54.23.668,judgeSpeechMusic_20210519_logNormShiftAmp_mXs,2020.1.2,Win32,60,,,,,,,,,,,,,,2,6.037585,,0,1,41,191,122,1,stimuli/stim_20210519_power2amp/equal_lnn_AM4Hz_s35_25.m4a,,,
,,,,,,,,,,,,41253,2021-05-25_13h54.23.668,judgeSpeechMusic_20210519_logNormShiftAmp_mXs,2020.1.2,Win32,60,,,,,,,,,,,,,,2,14.66751,,0,1,42,192,111,1,stimuli/stim_20210519_power2amp/equal_lnn_AM4Hz_s25_2.m4a,,,
,,,,,,,,,,,,41253,2021-05-25_13h54.23.668,judgeSpeechMusic_20210519_logNormShiftAmp_mXs,2020.1.2,Win32,60,,,,,,,,,,,,,,1,6.08203,,0,1,43,193,5,1,stimuli/stim_20210519_power2amp/equal_lnn_AM1Hz_s15_17.m4a,,,
,,,,,,,,,,,,41253,2021-05-25_13h54.23.668,judgeSpeechMusic_20210519_logNormShiftAmp_mXs,2020.1.2,Win32,60,,,,,,,,,,,,,,2,6.736025,,0,1,44,194,136,1,stimuli/stim_20210519_power2amp/equal_lnn_AM4Hz_s45_16.m4a,,,
,,,,,,,,,,,,41253,2021-05-25_13h54.23.668,judgeSpeechMusic_20210519_logNormShiftAmp_mXs,2020.1.2,Win32,60,,,,,,,,,,,,,,1,5.844635,,0,1,45,195,9,1,stimuli/stim_20210519_power2amp/equal_lnn_AM1Hz_s15_41.m4a,,,
,,,,,,,,,,,,41253,2021-05-25_13h54.23.668,judgeSpeechMusic_20210519_logNormShiftAmp_mXs,2020.1.2,Win32,60,,,,,,,,,,,,,,1,6.0231,,0,1,46,196,44,1,stimuli/stim_20210519_power2amp/equal_lnn_AM1Hz_s55_24.m4a,,,
,,,,,,,,,,,,41253,2021-05-25_13h54.23.668,judgeSpeechMusic_20210519_logNormShiftAmp_mXs,2020.1.2,Win32,60,,,,,,,,,,,,,,1,6.76972,,0,1,47,197,15,1,stimuli/stim_20210519_power2amp/equal_lnn_AM1Hz_s25_25.m4a,,,
,,,,,,,,,,,,41253,2021-05-25_13h54.23.668,judgeSpeechMusic_20210519_logNormShiftAmp_mXs,2020.1.2,Win32,60,,,,,,,,,,,,,,1,6.863645,,0,1,48,198,97,1,stimuli/stim_20210519_power2amp/equal_lnn_AM2.5Hz_s55_30.m4a,,,
,,,,,,,,,,,,41253,2021-05-25_13h54.23.668,judgeSpeechMusic_20210519_logNormShiftAmp_mXs,2020.1.2,Win32,60,,,,,,,,,,,,,,1,6.31075,4,1,1,49,199,56,1,stimuli/stim_20210519_power2amp/equal_lnn_AM2.5Hz_s15_14.m4a,1.476315,,
,,,,,,,,,,,,41253,2021-05-25_13h54.23.668,judgeSpeechMusic_20210519_logNormShiftAmp_mXs,2020.1.2,Win32,60,,,,,,,,,,,,,,2,6.423045,,0,1,50,200,142,1,stimuli/stim_20210519_power2amp/equal_lnn_AM4Hz_s55_24.m4a,,,
,,,,,,,,,,,,41253,2021-05-25_13h54.23.668,judgeSpeechMusic_20210519_logNormShiftAmp_mXs,2020.1.2,Win32,60,,,,,,,,,,,,,,1,6.02073,,0,1,51,201,3,1,stimuli/stim_20210519_power2amp/equal_lnn_AM1Hz_s15_28.m4a,,,
,,,,,,,,,,,,41253,2021-05-25_13h54.23.668,judgeSpeechMusic_20210519_logNormShiftAmp_mXs,2020.1.2,Win32,60,,,,,,,,,,,,,,2,5.76218,,0,1,52,202,140,1,stimuli/stim_20210519_power2amp/equal_lnn_AM4Hz_s55_2.m4a,,,
,,,,,,,,,,,,41253,2021-05-25_13h54.23.668,judgeSpeechMusic_20210519_logNormShiftAmp_mXs,2020.1.2,Win32,60,,,,,,,,,,,,,,1,6.77945,,0,1,53,203,67,1,stimuli/stim_20210519_power2amp/equal_lnn_AM2.5Hz_s25_2.m4a,,,
,,,,,,,,,,,,41253,2021-05-25_13h54.23.668,judgeSpeechMusic_20210519_logNormShiftAmp_mXs,2020.1.2,Win32,60,,,,,,,,,,,,,,1,5.912475,,0,1,54,204,19,1,stimuli/stim_20210519_power2amp/equal_lnn_AM1Hz_s25_9.m4a,,,
,,,,,,,,,,,,41253,2021-05-25_13h54.23.668,judgeSpeechMusic_20210519_logNormShiftAmp_mXs,2020.1.2,Win32,60,,,,,,,,,,,,,,1,6.371585,,0,1,55,205,108,1,stimuli/stim_20210519_power2amp/equal_lnn_AM4Hz_s15_49.m4a,,,
,,,,,,,,,,,,41253,2021-05-25_13h54.23.668,judgeSpeechMusic_20210519_logNormShiftAmp_mXs,2020.1.2,Win32,60,,,,,,,,,,,,,,2,7.92217,,0,1,56,206,95,1,stimuli/stim_20210519_power2amp/equal_lnn_AM2.5Hz_s55_16.m4a,,,
,,,,,,,,,,,,41253,2021-05-25_13h54.23.668,judgeSpeechMusic_20210519_logNormShiftAmp_mXs,2020.1.2,Win32,60,,,,,,,,,,,,,,1,8.08747,,0,1,57,207,25,1,stimuli/stim_20210519_power2amp/equal_lnn_AM1Hz_s35_50.m4a,,,
,,,,,,,,,,,,41253,2021-05-25_13h54.23.668,judgeSpeechMusic_20210519_logNormShiftAmp_mXs,2020.1.2,Win32,60,,,,,,,,,,,,,,2,6.40897,,0,1,58,208,128,1,stimuli/stim_20210519_power2amp/equal_lnn_AM4Hz_s35_40.m4a,,,
,,,,,,,,,,,,41253,2021-05-25_13h54.23.668,judgeSpeechMusic_20210519_logNormShiftAmp_mXs,2020.1.2,Win32,60,,,,,,,,,,,,,,2,6.18648,,0,1,59,209,129,1,stimuli/stim_20210519_power2amp/equal_lnn_AM4Hz_s35_13.m4a,,,
,,,,,,,,,,,,41253,2021-05-25_13h54.23.668,judgeSpeechMusic_20210519_logNormShiftAmp_mXs,2020.1.2,Win32,60,,,,,,,,,,,,,,1,5.988125,,0,1,60,210,24,1,stimuli/stim_20210519_power2amp/equal_lnn_AM1Hz_s35_17.m4a,,,
,,,,,,,,,,,,41253,2021-05-25_13h54.23.668,judgeSpeechMusic_20210519_logNormShiftAmp_mXs,2020.1.2,Win32,60,,,,,,,,,,,,,,2,5.854145,,0,1,61,211,109,1,stimuli/stim_20210519_power2amp/equal_lnn_AM4Hz_s15_6.m4a,,,
,,,,,,,,,,,,41253,2021-05-25_13h54.23.668,judgeSpeechMusic_20210519_logNormShiftAmp_mXs,2020.1.2,Win32,60,,,,,,,,,,,,,,2,5.942015,,0,1,62,212,141,1,stimuli/stim_20210519_power2amp/equal_lnn_AM4Hz_s55_5.m4a,,,
,,,,,,,,,,,,41253,2021-05-25_13h54.23.668,judgeSpeechMusic_20210519_logNormShiftAmp_mXs,2020.1.2,Win32,60,,,,,,,,,,,,,,1,7.021235,,0,1,63,213,65,1,stimuli/stim_20210519_power2amp/equal_lnn_AM2.5Hz_s25_40.m4a,,,
,,,,,,,,,,,,41253,2021-05-25_13h54.23.668,judgeSpeechMusic_20210519_logNormShiftAmp_mXs,2020.1.2,Win32,60,,,,,,,,,,,,,,1,5.860945,,0,1,64,214,55,1,stimuli/stim_20210519_power2amp/equal_lnn_AM2.5Hz_s15_35.m4a,,,
,,,,,,,,,,,,41253,2021-05-25_13h54.23.668,judgeSpeechMusic_20210519_logNormShiftAmp_mXs,2020.1.2,Win32,60,,,,,,,,,,,,,,1,5.691405,,0,1,65,215,61,1,stimuli/stim_20210519_power2amp/equal_lnn_AM2.5Hz_s25_46.m4a,,,
,,,,,,,,,,,,41253,2021-05-25_13h54.23.668,judgeSpeechMusic_20210519_logNormShiftAmp_mXs,2020.1.2,Win32,60,,,,,,,,,,,,,,2,9.378745,,0,1,66,216,125,1,stimuli/stim_20210519_power2amp/equal_lnn_AM4Hz_s35_10.m4a,,,
,,,,,,,,,,,,41253,2021-05-25_13h54.23.668,judgeSpeechMusic_20210519_logNormShiftAmp_mXs,2020.1.2,Win32,60,,,,,,,,,,,,,,1,6.20338,,0,1,67,217,10,1,stimuli/stim_20210519_power2amp/equal_lnn_AM1Hz_s25_24.m4a,,,
,,,,,,,,,,,,41253,2021-05-25_13h54.23.668,judgeSpeechMusic_20210519_logNormShiftAmp_mXs,2020.1.2,Win32,60,,,,,,,,,,,,,,2,6.1545,,0,1,68,218,105,1,stimuli/stim_20210519_power2amp/equal_lnn_AM4Hz_s15_27.m4a,,,
,,,,,,,,,,,,41253,2021-05-25_13h54.23.668,judgeSpeechMusic_20210519_logNormShiftAmp_mXs,2020.1.2,Win32,60,,,,,,,,,,,,,,2,7.52219,,0,1,69,219,94,1,stimuli/stim_20210519_power2amp/equal_lnn_AM2.5Hz_s55_37.m4a,,,
,,,,,,,,,,,,41253,2021-05-25_13h54.23.668,judgeSpeechMusic_20210519_logNormShiftAmp_mXs,2020.1.2,Win32,60,,,,,,,,,,,,,,2,5.636795,,0,1,70,220,71,1,stimuli/stim_20210519_power2amp/equal_lnn_AM2.5Hz_s35_34.m4a,,,
,,,,,,,,,,,,41253,2021-05-25_13h54.23.668,judgeSpeechMusic_20210519_logNormShiftAmp_mXs,2020.1.2,Win32,60,,,,,,,,,,,,,,1,5.760745,,0,1,71,221,68,1,stimuli/stim_20210519_power2amp/equal_lnn_AM2.5Hz_s25_10.m4a,,,
,,,,,,,,,,,,41253,2021-05-25_13h54.23.668,judgeSpeechMusic_20210519_logNormShiftAmp_mXs,2020.1.2,Win32,60,,,,,,,,,,,,,,1,6.15451,4,1,1,72,222,21,1,stimuli/stim_20210519_power2amp/equal_lnn_AM1Hz_s35_42.m4a,2.52429,,
,,,,,,,,,,,,41253,2021-05-25_13h54.23.668,judgeSpeechMusic_20210519_logNormShiftAmp_mXs,2020.1.2,Win32,60,,,,,,,,,,,,,,1,7.61931,,0,1,73,223,23,1,stimuli/stim_20210519_power2amp/equal_lnn_AM1Hz_s35_9.m4a,,,
,,,,,,,,,,,,41253,2021-05-25_13h54.23.668,judgeSpeechMusic_20210519_logNormShiftAmp_mXs,2020.1.2,Win32,60,,,,,,,,,,,,,,1,6.644545,,0,1,74,224,54,1,stimuli/stim_20210519_power2amp/equal_lnn_AM2.5Hz_s15_13.m4a,,,
,,,,,,,,,,,,41253,2021-05-25_13h54.23.668,judgeSpeechMusic_20210519_logNormShiftAmp_mXs,2020.1.2,Win32,60,,,,,,,,,,,,,,1,8.15536,,0,1,75,225,96,1,stimuli/stim_20210519_power2amp/equal_lnn_AM2.5Hz_s55_25.m4a,,,
,,,,,,,,,,,,41253,2021-05-25_13h54.23.668,judgeSpeechMusic_20210519_logNormShiftAmp_mXs,2020.1.2,Win32,60,,,,,,,,,,,,,,1,6.52086,,0,1,76,226,59,1,stimuli/stim_20210519_power2amp/equal_lnn_AM2.5Hz_s15_16.m4a,,,
,,,,,,,,,,,,41253,2021-05-25_13h54.23.668,judgeSpeechMusic_20210519_logNormShiftAmp_mXs,2020.1.2,Win32,60,,,,,,,,,,,,,,2,7.11223,,0,1,77,227,107,1,stimuli/stim_20210519_power2amp/equal_lnn_AM4Hz_s15_48.m4a,,,
,,,,,,,,,,,,41253,2021-05-25_13h54.23.668,judgeSpeechMusic_20210519_logNormShiftAmp_mXs,2020.1.2,Win32,60,,,,,,,,,,,,,,1,6.34052,,0,1,78,228,38,1,stimuli/stim_20210519_power2amp/equal_lnn_AM1Hz_s45_32.m4a,,,
,,,,,,,,,,,,41253,2021-05-25_13h54.23.668,judgeSpeechMusic_20210519_logNormShiftAmp_mXs,2020.1.2,Win32,60,,,,,,,,,,,,,,1,6.17037,,0,1,79,229,43,1,stimuli/stim_20210519_power2amp/equal_lnn_AM1Hz_s55_10.m4a,,,
,,,,,,,,,,,,41253,2021-05-25_13h54.23.668,judgeSpeechMusic_20210519_logNormShiftAmp_mXs,2020.1.2,Win32,60,,,,,,,,,,,,,,1,5.78831,,0,1,80,230,93,1,stimuli/stim_20210519_power2amp/equal_lnn_AM2.5Hz_s55_7.m4a,,,
,,,,,,,,,,,,41253,2021-05-25_13h54.23.668,judgeSpeechMusic_20210519_logNormShiftAmp_mXs,2020.1.2,Win32,60,,,,,,,,,,,,,,1,5.89244,,0,1,81,231,17,1,stimuli/stim_20210519_power2amp/equal_lnn_AM1Hz_s25_40.m4a,,,
,,,,,,,,,,,,41253,2021-05-25_13h54.23.668,judgeSpeechMusic_20210519_logNormShiftAmp_mXs,2020.1.2,Win32,60,,,,,,,,,,,,,,1,5.904745,,0,1,82,232,7,1,stimuli/stim_20210519_power2amp/equal_lnn_AM1Hz_s15_2.m4a,,,
,,,,,,,,,,,,41253,2021-05-25_13h54.23.668,judgeSpeechMusic_20210519_logNormShiftAmp_mXs,2020.1.2,Win32,60,,,,,,,,,,,,,,1,7.160965,,0,1,83,233,64,1,stimuli/stim_20210519_power2amp/equal_lnn_AM2.5Hz_s25_13.m4a,,,
,,,,,,,,,,,,41253,2021-05-25_13h54.23.668,judgeSpeechMusic_20210519_logNormShiftAmp_mXs,2020.1.2,Win32,60,,,,,,,,,,,,,,1,7.738035,,0,1,84,234,62,1,stimuli/stim_20210519_power2amp/equal_lnn_AM2.5Hz_s25_5.m4a,,,
,,,,,,,,,,,,41253,2021-05-25_13h54.23.668,judgeSpeechMusic_20210519_logNormShiftAmp_mXs,2020.1.2,Win32,60,,,,,,,,,,,,,,2,5.98737,,0,1,85,235,91,1,stimuli/stim_20210519_power2amp/equal_lnn_AM2.5Hz_s55_20.m4a,,,
,,,,,,,,,,,,41253,2021-05-25_13h54.23.668,judgeSpeechMusic_20210519_logNormShiftAmp_mXs,2020.1.2,Win32,60,,,,,,,,,,,,,,1,6.337925,,0,1,86,236,72,1,stimuli/stim_20210519_power2amp/equal_lnn_AM2.5Hz_s35_40.m4a,,,
,,,,,,,,,,,,41253,2021-05-25_13h54.23.668,judgeSpeechMusic_20210519_logNormShiftAmp_mXs,2020.1.2,Win32,60,,,,,,,,,,,,,,1,7.871485,,0,1,87,237,47,1,stimuli/stim_20210519_power2amp/equal_lnn_AM1Hz_s55_23.m4a,,,
,,,,,,,,,,,,41253,2021-05-25_13h54.23.668,judgeSpeechMusic_20210519_logNormShiftAmp_mXs,2020.1.2,Win32,60,,,,,,,,,,,,,,2,10.221935,,0,1,88,238,127,1,stimuli/stim_20210519_power2amp/equal_lnn_AM4Hz_s35_32.m4a,,,
,,,,,,,,,,,,41253,2021-05-25_13h54.23.668,judgeSpeechMusic_20210519_logNormShiftAmp_mXs,2020.1.2,Win32,60,,,,,,,,,,,,,,2,6.17477,,0,1,89,239,42,1,stimuli/stim_20210519_power2amp/equal_lnn_AM1Hz_s55_28.m4a,,,
,,,,,,,,,,,,41253,2021-05-25_13h54.23.668,judgeSpeechMusic_20210519_logNormShiftAmp_mXs,2020.1.2,Win32,60,,,,,,,,,,,,,,2,5.688735,,0,1,90,240,145,1,stimuli/stim_20210519_power2amp/equal_lnn_AM4Hz_s55_14.m4a,,,
,,,,,,,,,,,,41253,2021-05-25_13h54.23.668,judgeSpeechMusic_20210519_logNormShiftAmp_mXs,2020.1.2,Win32,60,,,,,,,,,,,,,,1,6.67121,,0,1,91,241,14,1,stimuli/stim_20210519_power2amp/equal_lnn_AM1Hz_s25_29.m4a,,,
,,,,,,,,,,,,41253,2021-05-25_13h54.23.668,judgeSpeechMusic_20210519_logNormShiftAmp_mXs,2020.1.2,Win32,60,,,,,,,,,,,,,,1,5.9275,,0,1,92,242,52,1,stimuli/stim_20210519_power2amp/equal_lnn_AM2.5Hz_s15_27.m4a,,,
,,,,,,,,,,,,41253,2021-05-25_13h54.23.668,judgeSpeechMusic_20210519_logNormShiftAmp_mXs,2020.1.2,Win32,60,,,,,,,,,,,,,,1,6.470715,,0,1,93,243,45,1,stimuli/stim_20210519_power2amp/equal_lnn_AM1Hz_s55_34.m4a,,,
,,,,,,,,,,,,41253,2021-05-25_13h54.23.668,judgeSpeechMusic_20210519_logNormShiftAmp_mXs,2020.1.2,Win32,60,,,,,,,,,,,,,,2,6.45468,2,1,1,94,244,146,1,stimuli/stim_20210519_power2amp/equal_lnn_AM4Hz_s55_15.m4a,1.775205,,
,,,,,,,,,,,,41253,2021-05-25_13h54.23.668,judgeSpeechMusic_20210519_logNormShiftAmp_mXs,2020.1.2,Win32,60,,,,,,,,,,,,,,2,7.186915,,0,1,95,245,112,1,stimuli/stim_20210519_power2amp/equal_lnn_AM4Hz_s25_28.m4a,,,
,,,,,,,,,,,,41253,2021-05-25_13h54.23.668,judgeSpeechMusic_20210519_logNormShiftAmp_mXs,2020.1.2,Win32,60,,,,,,,,,,,,,,1,5.928605,,0,1,96,246,11,1,stimuli/stim_20210519_power2amp/equal_lnn_AM1Hz_s25_32.m4a,,,
,,,,,,,,,,,,41253,2021-05-25_13h54.23.668,judgeSpeechMusic_20210519_logNormShiftAmp_mXs,2020.1.2,Win32,60,,,,,,,,,,,,,,1,9.97471,,0,1,97,247,32,1,stimuli/stim_20210519_power2amp/equal_lnn_AM1Hz_s45_36.m4a,,,
,,,,,,,,,,,,41253,2021-05-25_13h54.23.668,judgeSpeechMusic_20210519_logNormShiftAmp_mXs,2020.1.2,Win32,60,,,,,,,,,,,,,,1,6.73827,,0,1,98,248,69,1,stimuli/stim_20210519_power2amp/equal_lnn_AM2.5Hz_s25_22.m4a,,,
,,,,,,,,,,,,41253,2021-05-25_13h54.23.668,judgeSpeechMusic_20210519_logNormShiftAmp_mXs,2020.1.2,Win32,60,,,,,,,,,,,,,,1,11.623975,,0,1,99,249,41,1,stimuli/stim_20210519_power2amp/equal_lnn_AM1Hz_s55_11.m4a,,,
,,,,,,,,,,,,41253,2021-05-25_13h54.23.668,judgeSpeechMusic_20210519_logNormShiftAmp_mXs,2020.1.2,Win32,60,,,,,,,,,,,,,,1,6.955265,,0,1,100,250,2,1,stimuli/stim_20210519_power2amp/equal_lnn_AM1Hz_s15_48.m4a,,,
,,,,,,,,,,,,41253,2021-05-25_13h54.23.668,judgeSpeechMusic_20210519_logNormShiftAmp_mXs,2020.1.2,Win32,60,,,,,,,,,,,,,,1,7.929255,,0,1,101,251,22,1,stimuli/stim_20210519_power2amp/equal_lnn_AM1Hz_s35_39.m4a,,,
,,,,,,,,,,,,41253,2021-05-25_13h54.23.668,judgeSpeechMusic_20210519_logNormShiftAmp_mXs,2020.1.2,Win32,60,,,,,,,,,,,,,,2,5.98309,,0,1,102,252,148,1,stimuli/stim_20210519_power2amp/equal_lnn_AM4Hz_s55_6.m4a,,,
,,,,,,,,,,,,41253,2021-05-25_13h54.23.668,judgeSpeechMusic_20210519_logNormShiftAmp_mXs,2020.1.2,Win32,60,,,,,,,,,,,,,,2,5.841635,,0,1,103,253,75,1,stimuli/stim_20210519_power2amp/equal_lnn_AM2.5Hz_s35_24.m4a,,,
,,,,,,,,,,,,41253,2021-05-25_13h54.23.668,judgeSpeechMusic_20210519_logNormShiftAmp_mXs,2020.1.2,Win32,60,,,,,,,,,,,,,,2,5.837695,,0,1,104,254,88,1,stimuli/stim_20210519_power2amp/equal_lnn_AM2.5Hz_s45_3.m4a,,,
,,,,,,,,,,,,41253,2021-05-25_13h54.23.668,judgeSpeechMusic_20210519_logNormShiftAmp_mXs,2020.1.2,Win32,60,,,,,,,,,,,,,,1,6.12104,,0,1,105,255,34,1,stimuli/stim_20210519_power2amp/equal_lnn_AM1Hz_s45_39.m4a,,,
,,,,,,,,,,,,41253,2021-05-25_13h54.23.668,judgeSpeechMusic_20210519_logNormShiftAmp_mXs,2020.1.2,Win32,60,,,,,,,,,,,,,,1,17.9212,,0,1,106,256,18,1,stimuli/stim_20210519_power2amp/equal_lnn_AM1Hz_s25_46.m4a,,,
,,,,,,,,,,,,41253,2021-05-25_13h54.23.668,judgeSpeechMusic_20210519_logNormShiftAmp_mXs,2020.1.2,Win32,60,,,,,,,,,,,,,,1,7.571135,,0,1,107,257,53,1,stimuli/stim_20210519_power2amp/equal_lnn_AM2.5Hz_s15_33.m4a,,,
,,,,,,,,,,,,41253,2021-05-25_13h54.23.668,judgeSpeechMusic_20210519_logNormShiftAmp_mXs,2020.1.2,Win32,60,,,,,,,,,,,,,,2,6.6066,,0,1,108,258,121,1,stimuli/stim_20210519_power2amp/equal_lnn_AM4Hz_s35_4.m4a,,,
,,,,,,,,,,,,41253,2021-05-25_13h54.23.668,judgeSpeechMusic_20210519_logNormShiftAmp_mXs,2020.1.2,Win32,60,,,,,,,,,,,,,,2,7.07415,,0,1,109,259,100,1,stimuli/stim_20210519_power2amp/equal_lnn_AM4Hz_s15_28.m4a,,,
,,,,,,,,,,,,41253,2021-05-25_13h54.23.668,judgeSpeechMusic_20210519_logNormShiftAmp_mXs,2020.1.2,Win32,60,,,,,,,,,,,,,,1,9.689315,,0,1,110,260,26,1,stimuli/stim_20210519_power2amp/equal_lnn_AM1Hz_s35_30.m4a,,,
,,,,,,,,,,,,41253,2021-05-25_13h54.23.668,judgeSpeechMusic_20210519_logNormShiftAmp_mXs,2020.1.2,Win32,60,,,,,,,,,,,,,,1,7.727205,,0,1,111,261,78,1,stimuli/stim_20210519_power2amp/equal_lnn_AM2.5Hz_s35_49.m4a,,,
,,,,,,,,,,,,41253,2021-05-25_13h54.23.668,judgeSpeechMusic_20210519_logNormShiftAmp_mXs,2020.1.2,Win32,60,,,,,,,,,,,,,,2,5.887445,,0,1,112,262,143,1,stimuli/stim_20210519_power2amp/equal_lnn_AM4Hz_s55_33.m4a,,,
,,,,,,,,,,,,41253,2021-05-25_13h54.23.668,judgeSpeechMusic_20210519_logNormShiftAmp_mXs,2020.1.2,Win32,60,,,,,,,,,,,,,,2,7.30066,,0,1,113,263,46,1,stimuli/stim_20210519_power2amp/equal_lnn_AM1Hz_s55_5.m4a,,,
,,,,,,,,,,,,41253,2021-05-25_13h54.23.668,judgeSpeechMusic_20210519_logNormShiftAmp_mXs,2020.1.2,Win32,60,,,,,,,,,,,,,,2,7.08767,,0,1,114,264,118,1,stimuli/stim_20210519_power2amp/equal_lnn_AM4Hz_s25_9.m4a,,,
,,,,,,,,,,,,41253,2021-05-25_13h54.23.668,judgeSpeechMusic_20210519_logNormShiftAmp_mXs,2020.1.2,Win32,60,,,,,,,,,,,,,,1,8.37398,,0,1,115,265,48,1,stimuli/stim_20210519_power2amp/equal_lnn_AM1Hz_s55_18.m4a,,,
,,,,,,,,,,,,41253,2021-05-25_13h54.23.668,judgeSpeechMusic_20210519_logNormShiftAmp_mXs,2020.1.2,Win32,60,,,,,,,,,,,,,,2,6.868765,,0,1,116,266,130,1,stimuli/stim_20210519_power2amp/equal_lnn_AM4Hz_s45_3.m4a,,,
,,,,,,,,,,,,41253,2021-05-25_13h54.23.668,judgeSpeechMusic_20210519_logNormShiftAmp_mXs,2020.1.2,Win32,60,,,,,,,,,,,,,,2,12.756995,2,1,1,117,267,73,1,stimuli/stim_20210519_power2amp/equal_lnn_AM2.5Hz_s35_2.m4a,3.057625,,
,,,,,,,,,,,,41253,2021-05-25_13h54.23.668,judgeSpeechMusic_20210519_logNormShiftAmp_mXs,2020.1.2,Win32,60,,,,,,,,,,,,,,2,6.592205,,0,1,118,268,137,1,stimuli/stim_20210519_power2amp/equal_lnn_AM4Hz_s45_13.m4a,,,
,,,,,,,,,,,,41253,2021-05-25_13h54.23.668,judgeSpeechMusic_20210519_logNormShiftAmp_mXs,2020.1.2,Win32,60,,,,,,,,,,,,,,1,6.1415,,0,1,119,269,33,1,stimuli/stim_20210519_power2amp/equal_lnn_AM1Hz_s45_15.m4a,,,
,,,,,,,,,,,,41253,2021-05-25_13h54.23.668,judgeSpeechMusic_20210519_logNormShiftAmp_mXs,2020.1.2,Win32,60,,,,,,,,,,,,,,1,7.58619,,0,1,120,270,49,1,stimuli/stim_20210519_power2amp/equal_lnn_AM1Hz_s55_20.m4a,,,
,,,,,,,,,,,,41253,2021-05-25_13h54.23.668,judgeSpeechMusic_20210519_logNormShiftAmp_mXs,2020.1.2,Win32,60,,,,,,,,,,,,,,2,6.063255,,0,1,121,271,134,1,stimuli/stim_20210519_power2amp/equal_lnn_AM4Hz_s45_18.m4a,,,
,,,,,,,,,,,,41253,2021-05-25_13h54.23.668,judgeSpeechMusic_20210519_logNormShiftAmp_mXs,2020.1.2,Win32,60,,,,,,,,,,,,,,2,7.136865,,0,1,122,272,113,1,stimuli/stim_20210519_power2amp/equal_lnn_AM4Hz_s25_47.m4a,,,
,,,,,,,,,,,,41253,2021-05-25_13h54.23.668,judgeSpeechMusic_20210519_logNormShiftAmp_mXs,2020.1.2,Win32,60,,,,,,,,,,,,,,2,8.04641,,0,1,123,273,16,1,stimuli/stim_20210519_power2amp/equal_lnn_AM1Hz_s25_23.m4a,,,
,,,,,,,,,,,,41253,2021-05-25_13h54.23.668,judgeSpeechMusic_20210519_logNormShiftAmp_mXs,2020.1.2,Win32,60,,,,,,,,,,,,,,1,5.774945,,0,1,124,274,20,1,stimuli/stim_20210519_power2amp/equal_lnn_AM1Hz_s35_16.m4a,,,
,,,,,,,,,,,,41253,2021-05-25_13h54.23.668,judgeSpeechMusic_20210519_logNormShiftAmp_mXs,2020.1.2,Win32,60,,,,,,,,,,,,,,2,11.271305,,0,1,125,275,58,1,stimuli/stim_20210519_power2amp/equal_lnn_AM2.5Hz_s15_26.m4a,,,
,,,,,,,,,,,,41253,2021-05-25_13h54.23.668,judgeSpeechMusic_20210519_logNormShiftAmp_mXs,2020.1.2,Win32,60,,,,,,,,,,,,,,1,6.470645,,0,1,126,276,13,1,stimuli/stim_20210519_power2amp/equal_lnn_AM1Hz_s25_2.m4a,,,
,,,,,,,,,,,,41253,2021-05-25_13h54.23.668,judgeSpeechMusic_20210519_logNormShiftAmp_mXs,2020.1.2,Win32,60,,,,,,,,,,,,,,2,10.988635,,0,1,127,277,87,1,stimuli/stim_20210519_power2amp/equal_lnn_AM2.5Hz_s45_33.m4a,,,
,,,,,,,,,,,,41253,2021-05-25_13h54.23.668,judgeSpeechMusic_20210519_logNormShiftAmp_mXs,2020.1.2,Win32,60,,,,,,,,,,,,,,2,12.242255,,0,1,128,278,106,1,stimuli/stim_20210519_power2amp/equal_lnn_AM4Hz_s15_31.m4a,,,
,,,,,,,,,,,,41253,2021-05-25_13h54.23.668,judgeSpeechMusic_20210519_logNormShiftAmp_mXs,2020.1.2,Win32,60,,,,,,,,,,,,,,2,14.054825,,0,1,129,279,120,1,stimuli/stim_20210519_power2amp/equal_lnn_AM4Hz_s35_15.m4a,,,
,,,,,,,,,,,,41253,2021-05-25_13h54.23.668,judgeSpeechMusic_20210519_logNormShiftAmp_mXs,2020.1.2,Win32,60,,,,,,,,,,,,,,1,5.974625,,0,1,130,280,70,1,stimuli/stim_20210519_power2amp/equal_lnn_AM2.5Hz_s35_20.m4a,,,
,,,,,,,,,,,,41253,2021-05-25_13h54.23.668,judgeSpeechMusic_20210519_logNormShiftAmp_mXs,2020.1.2,Win32,60,,,,,,,,,,,,,,1,6.55665,,0,1,131,281,27,1,stimuli/stim_20210519_power2amp/equal_lnn_AM1Hz_s35_24.m4a,,,
,,,,,,,,,,,,41253,2021-05-25_13h54.23.668,judgeSpeechMusic_20210519_logNormShiftAmp_mXs,2020.1.2,Win32,60,,,,,,,,,,,,,,1,6.02626,,0,1,132,282,36,1,stimuli/stim_20210519_power2amp/equal_lnn_AM1Hz_s45_42.m4a,,,
,,,,,,,,,,,,41253,2021-05-25_13h54.23.668,judgeSpeechMusic_20210519_logNormShiftAmp_mXs,2020.1.2,Win32,60,,,,,,,,,,,,,,2,11.11124,,0,1,133,283,123,1,stimuli/stim_20210519_power2amp/equal_lnn_AM4Hz_s35_2.m4a,,,
,,,,,,,,,,,,41253,2021-05-25_13h54.23.668,judgeSpeechMusic_20210519_logNormShiftAmp_mXs,2020.1.2,Win32,60,,,,,,,,,,,,,,2,10.72086,,0,1,134,284,37,1,stimuli/stim_20210519_power2amp/equal_lnn_AM1Hz_s45_27.m4a,,,
,,,,,,,,,,,,41253,2021-05-25_13h54.23.668,judgeSpeechMusic_20210519_logNormShiftAmp_mXs,2020.1.2,Win32,60,,,,,,,,,,,,,,2,9.187715,,0,1,135,285,63,1,stimuli/stim_20210519_power2amp/equal_lnn_AM2.5Hz_s25_30.m4a,,,
,,,,,,,,,,,,41253,2021-05-25_13h54.23.668,judgeSpeechMusic_20210519_logNormShiftAmp_mXs,2020.1.2,Win32,60,,,,,,,,,,,,,,2,6.08741,,0,1,136,286,116,1,stimuli/stim_20210519_power2amp/equal_lnn_AM4Hz_s25_50.m4a,,,
,,,,,,,,,,,,41253,2021-05-25_13h54.23.668,judgeSpeechMusic_20210519_logNormShiftAmp_mXs,2020.1.2,Win32,60,,,,,,,,,,,,,,2,9.52484,,0,1,137,287,79,1,stimuli/stim_20210519_power2amp/equal_lnn_AM2.5Hz_s35_4.m4a,,,
,,,,,,,,,,,,41253,2021-05-25_13h54.23.668,judgeSpeechMusic_20210519_logNormShiftAmp_mXs,2020.1.2,Win32,60,,,,,,,,,,,,,,2,7.687605,,0,1,138,288,82,1,stimuli/stim_20210519_power2amp/equal_lnn_AM2.5Hz_s45_11.m4a,,,
,,,,,,,,,,,,41253,2021-05-25_13h54.23.668,judgeSpeechMusic_20210519_logNormShiftAmp_mXs,2020.1.2,Win32,60,,,,,,,,,,,,,,1,7.771,4,1,1,139,289,12,1,stimuli/stim_20210519_power2amp/equal_lnn_AM1Hz_s25_27.m4a,3.011535,,
,,,,,,,,,,,,41253,2021-05-25_13h54.23.668,judgeSpeechMusic_20210519_logNormShiftAmp_mXs,2020.1.2,Win32,60,,,,,,,,,,,,,,1,6.62212,,0,1,140,290,8,1,stimuli/stim_20210519_power2amp/equal_lnn_AM1Hz_s15_30.m4a,,,
,,,,,,,,,,,,41253,2021-05-25_13h54.23.668,judgeSpeechMusic_20210519_logNormShiftAmp_mXs,2020.1.2,Win32,60,,,,,,,,,,,,,,2,6.39411,,0,1,141,291,92,1,stimuli/stim_20210519_power2amp/equal_lnn_AM2.5Hz_s55_46.m4a,,,
,,,,,,,,,,,,41253,2021-05-25_13h54.23.668,judgeSpeechMusic_20210519_logNormShiftAmp_mXs,2020.1.2,Win32,60,,,,,,,,,,,,,,2,5.790215,,0,1,142,292,89,1,stimuli/stim_20210519_power2amp/equal_lnn_AM2.5Hz_s45_21.m4a,,,
,,,,,,,,,,,,41253,2021-05-25_13h54.23.668,judgeSpeechMusic_20210519_logNormShiftAmp_mXs,2020.1.2,Win32,60,,,,,,,,,,,,,,1,6.454315,,0,1,143,293,6,1,stimuli/stim_20210519_power2amp/equal_lnn_AM1Hz_s15_9.m4a,,,
,,,,,,,,,,,,41253,2021-05-25_13h54.23.668,judgeSpeechMusic_20210519_logNormShiftAmp_mXs,2020.1.2,Win32,60,,,,,,,,,,,,,,1,7.239665,,0,1,144,294,51,1,stimuli/stim_20210519_power2amp/equal_lnn_AM2.5Hz_s15_31.m4a,,,
,,,,,,,,,,,,41253,2021-05-25_13h54.23.668,judgeSpeechMusic_20210519_logNormShiftAmp_mXs,2020.1.2,Win32,60,,,,,,,,,,,,,,1,6.4048,,0,1,145,295,31,1,stimuli/stim_20210519_power2amp/equal_lnn_AM1Hz_s45_29.m4a,,,
,,,,,,,,,,,,41253,2021-05-25_13h54.23.668,judgeSpeechMusic_20210519_logNormShiftAmp_mXs,2020.1.2,Win32,60,,,,,,,,,,,,,,2,7.13705,,0,1,146,296,90,1,stimuli/stim_20210519_power2amp/equal_lnn_AM2.5Hz_s55_18.m4a,,,
,,,,,,,,,,,,41253,2021-05-25_13h54.23.668,judgeSpeechMusic_20210519_logNormShiftAmp_mXs,2020.1.2,Win32,60,,,,,,,,,,,,,,2,8.33979,,0,1,147,297,66,1,stimuli/stim_20210519_power2amp/equal_lnn_AM2.5Hz_s25_42.m4a,,,
,,,,,,,,,,,,41253,2021-05-25_13h54.23.668,judgeSpeechMusic_20210519_logNormShiftAmp_mXs,2020.1.2,Win32,60,,,,,,,,,,,,,,1,5.738625,,0,1,148,298,1,1,stimuli/stim_20210519_power2amp/equal_lnn_AM1Hz_s15_27.m4a,,,
,,,,,,,,,,,,41253,2021-05-25_13h54.23.668,judgeSpeechMusic_20210519_logNormShiftAmp_mXs,2020.1.2,Win32,60,,,,,,,,,,,,,,1,7.721735,,0,1,149,299,102,1,stimuli/stim_20210519_power2amp/equal_lnn_AM4Hz_s15_43.m4a,,,
,,,,,,,,,,,,41253,2021-05-25_13h54.23.668,judgeSpeechMusic_20210519_logNormShiftAmp_mXs,2020.1.2,Win32,60,,,,,,,,,,,,,,,,,,,,,,,,,space,7.75974
