headphoneResponse.keys,headphoneResponse.corr,headphoneResponse.rt,headphoneTrial.thisRepN,headphoneTrial.thisTrialN,headphoneTrial.thisN,headphoneTrial.thisIndex,headphoneTrial.ran,headphone_sound1,headphone_sound2,headphone_sound3,corrAns,participant,date,expName,psychopyVersion,OS,frameRate,trainSlider.response,trainSlider.rt,beepTrainResponse.keys,beepTrainResponse.corr,trainingTrials.thisRepN,trainingTrials.thisTrialN,trainingTrials.thisN,trainingTrials.thisIndex,trainingTrials.ran,trainAudioFile,beepTrainResponse.rt,readyReal_resp.keys,readyReal_resp.rt,ratingSlider.response,ratingSlider.rt,beepResp.keys,beepResp.corr,expTrials.thisRepN,expTrials.thisTrialN,expTrials.thisN,expTrials.thisIndex,expTrials.ran,audioFile,beepResp.rt,end_resp.keys,end_resp.rt
3,1,1.0872,0,0,0,0,1,stimuli/screen_antiphase.wav,stimuli/screen_origin.wav,stimuli/screen_quiet.wav,3,41269,2021-06-01_12h44.01.571,judgeSpeechMusic_20210519_logNormShiftAmp_mXs,2020.1.2,Win32,60,,,,,,,,,,,,,,,,,,,,,,,,,,
1,1,0.2985,0,1,1,5,1,stimuli/screen_quiet.wav,stimuli/screen_origin.wav,stimuli/screen_antiphase.wav,1,41269,2021-06-01_12h44.01.571,judgeSpeechMusic_20210519_logNormShiftAmp_mXs,2020.1.2,Win32,60,,,,,,,,,,,,,,,,,,,,,,,,,,
2,1,0.2512,0,2,2,1,1,stimuli/screen_antiphase.wav,stimuli/screen_quiet.wav,stimuli/screen_origin.wav,2,41269,2021-06-01_12h44.01.571,judgeSpeechMusic_20210519_logNormShiftAmp_mXs,2020.1.2,Win32,60,,,,,,,,,,,,,,,,,,,,,,,,,,
1,1,0.5525,0,3,3,4,1,stimuli/screen_quiet.wav,stimuli/screen_antiphase.wav,stimuli/screen_origin.wav,1,41269,2021-06-01_12h44.01.571,judgeSpeechMusic_20210519_logNormShiftAmp_mXs,2020.1.2,Win32,60,,,,,,,,,,,,,,,,,,,,,,,,,,
2,1,0.3241,0,4,4,3,1,stimuli/screen_origin.wav,stimuli/screen_quiet.wav,stimuli/screen_antiphase.wav,2,41269,2021-06-01_12h44.01.571,judgeSpeechMusic_20210519_logNormShiftAmp_mXs,2020.1.2,Win32,60,,,,,,,,,,,,,,,,,,,,,,,,,,
3,1,0.3675,0,5,5,2,1,stimuli/screen_origin.wav,stimuli/screen_antiphase.wav,stimuli/screen_quiet.wav,3,41269,2021-06-01_12h44.01.571,judgeSpeechMusic_20210519_logNormShiftAmp_mXs,2020.1.2,Win32,60,,,,,,,,,,,,,,,,,,,,,,,,,,
,,,,,,,,,,,,41269,2021-06-01_12h44.01.571,judgeSpeechMusic_20210519_logNormShiftAmp_mXs,2020.1.2,Win32,60,2,11.8105,,0,0,0,0,3,1,stimuli/stim_20210519_power2amp/equal_lnn_AM_training3.5Hz_s50.m4a,,,,,,,,,,,,,,,,
,,,,,,,,,,,,41269,2021-06-01_12h44.01.571,judgeSpeechMusic_20210519_logNormShiftAmp_mXs,2020.1.2,Win32,60,2,10.8193,,0,0,1,1,2,1,stimuli/stim_20210519_power2amp/equal_lnn_AM_training3.5Hz_s20.m4a,,,,,,,,,,,,,,,,
,,,,,,,,,,,,41269,2021-06-01_12h44.01.571,judgeSpeechMusic_20210519_logNormShiftAmp_mXs,2020.1.2,Win32,60,1,6.6496,1,1,0,2,2,1,1,stimuli/stim_20210519_power2amp/equal_lnn_AM_training1.5Hz_s50.m4a,1.3337,,,,,,,,,,,,,,,
,,,,,,,,,,,,41269,2021-06-01_12h44.01.571,judgeSpeechMusic_20210519_logNormShiftAmp_mXs,2020.1.2,Win32,60,1,8.0974,,0,0,3,3,0,1,stimuli/stim_20210519_power2amp/equal_lnn_AM_training1.5Hz_s20.m4a,,,,,,,,,,,,,,,,
,,,,,,,,,,,,41269,2021-06-01_12h44.01.571,judgeSpeechMusic_20210519_logNormShiftAmp_mXs,2020.1.2,Win32,60,,,,,,,,,,,,space,6.6607,1,8.8902,,0,0,0,0,11,1,stimuli/stim_20210519_power2amp/equal_lnn_AM1Hz_s25_15.m4a,,,
,,,,,,,,,,,,41269,2021-06-01_12h44.01.571,judgeSpeechMusic_20210519_logNormShiftAmp_mXs,2020.1.2,Win32,60,,,,,,,,,,,,,,1,11.4632,,0,0,1,1,144,1,stimuli/stim_20210519_power2amp/equal_lnn_AM4Hz_s55_23.m4a,,,
,,,,,,,,,,,,41269,2021-06-01_12h44.01.571,judgeSpeechMusic_20210519_logNormShiftAmp_mXs,2020.1.2,Win32,60,,,,,,,,,,,,,,2,6.4749,,0,0,2,2,69,1,stimuli/stim_20210519_power2amp/equal_lnn_AM2.5Hz_s25_30.m4a,,,
,,,,,,,,,,,,41269,2021-06-01_12h44.01.571,judgeSpeechMusic_20210519_logNormShiftAmp_mXs,2020.1.2,Win32,60,,,,,,,,,,,,,,2,6.3329,,0,0,3,3,43,1,stimuli/stim_20210519_power2amp/equal_lnn_AM1Hz_s55_20.m4a,,,
,,,,,,,,,,,,41269,2021-06-01_12h44.01.571,judgeSpeechMusic_20210519_logNormShiftAmp_mXs,2020.1.2,Win32,60,,,,,,,,,,,,,,1,6.4359,,0,0,4,4,0,1,stimuli/stim_20210519_power2amp/equal_lnn_AM1Hz_s15_13.m4a,,,
,,,,,,,,,,,,41269,2021-06-01_12h44.01.571,judgeSpeechMusic_20210519_logNormShiftAmp_mXs,2020.1.2,Win32,60,,,,,,,,,,,,,,1,6.1174,,0,0,5,5,98,1,stimuli/stim_20210519_power2amp/equal_lnn_AM2.5Hz_s55_46.m4a,,,
,,,,,,,,,,,,41269,2021-06-01_12h44.01.571,judgeSpeechMusic_20210519_logNormShiftAmp_mXs,2020.1.2,Win32,60,,,,,,,,,,,,,,1,10.3692,,0,0,6,6,13,1,stimuli/stim_20210519_power2amp/equal_lnn_AM1Hz_s25_4.m4a,,,
,,,,,,,,,,,,41269,2021-06-01_12h44.01.571,judgeSpeechMusic_20210519_logNormShiftAmp_mXs,2020.1.2,Win32,60,,,,,,,,,,,,,,1,9.9819,,0,0,7,7,89,1,stimuli/stim_20210519_power2amp/equal_lnn_AM2.5Hz_s45_50.m4a,,,
,,,,,,,,,,,,41269,2021-06-01_12h44.01.571,judgeSpeechMusic_20210519_logNormShiftAmp_mXs,2020.1.2,Win32,60,,,,,,,,,,,,,,2,7.3799,,0,0,8,8,146,1,stimuli/stim_20210519_power2amp/equal_lnn_AM4Hz_s55_42.m4a,,,
,,,,,,,,,,,,41269,2021-06-01_12h44.01.571,judgeSpeechMusic_20210519_logNormShiftAmp_mXs,2020.1.2,Win32,60,,,,,,,,,,,,,,2,6.0785,,0,0,9,9,42,1,stimuli/stim_20210519_power2amp/equal_lnn_AM1Hz_s55_7.m4a,,,
,,,,,,,,,,,,41269,2021-06-01_12h44.01.571,judgeSpeechMusic_20210519_logNormShiftAmp_mXs,2020.1.2,Win32,60,,,,,,,,,,,,,,2,6.5169,,0,0,10,10,92,1,stimuli/stim_20210519_power2amp/equal_lnn_AM2.5Hz_s55_47.m4a,,,
,,,,,,,,,,,,41269,2021-06-01_12h44.01.571,judgeSpeechMusic_20210519_logNormShiftAmp_mXs,2020.1.2,Win32,60,,,,,,,,,,,,,,1,6.269,,0,0,11,11,17,1,stimuli/stim_20210519_power2amp/equal_lnn_AM1Hz_s25_20.m4a,,,
,,,,,,,,,,,,41269,2021-06-01_12h44.01.571,judgeSpeechMusic_20210519_logNormShiftAmp_mXs,2020.1.2,Win32,60,,,,,,,,,,,,,,1,6.1427,,0,0,12,12,102,1,stimuli/stim_20210519_power2amp/equal_lnn_AM4Hz_s15_11.m4a,,,
,,,,,,,,,,,,41269,2021-06-01_12h44.01.571,judgeSpeechMusic_20210519_logNormShiftAmp_mXs,2020.1.2,Win32,60,,,,,,,,,,,,,,1,7.0156,,0,0,13,13,50,1,stimuli/stim_20210519_power2amp/equal_lnn_AM2.5Hz_s15_3.m4a,,,
,,,,,,,,,,,,41269,2021-06-01_12h44.01.571,judgeSpeechMusic_20210519_logNormShiftAmp_mXs,2020.1.2,Win32,60,,,,,,,,,,,,,,1,11.5127,,0,0,14,14,4,1,stimuli/stim_20210519_power2amp/equal_lnn_AM1Hz_s15_22.m4a,,,
,,,,,,,,,,,,41269,2021-06-01_12h44.01.571,judgeSpeechMusic_20210519_logNormShiftAmp_mXs,2020.1.2,Win32,60,,,,,,,,,,,,,,1,7.6125,,0,0,15,15,101,1,stimuli/stim_20210519_power2amp/equal_lnn_AM4Hz_s15_40.m4a,,,
,,,,,,,,,,,,41269,2021-06-01_12h44.01.571,judgeSpeechMusic_20210519_logNormShiftAmp_mXs,2020.1.2,Win32,60,,,,,,,,,,,,,,2,6.2135,,0,0,16,16,40,1,stimuli/stim_20210519_power2amp/equal_lnn_AM1Hz_s55_33.m4a,,,
,,,,,,,,,,,,41269,2021-06-01_12h44.01.571,judgeSpeechMusic_20210519_logNormShiftAmp_mXs,2020.1.2,Win32,60,,,,,,,,,,,,,,2,6.2132,,0,0,17,17,111,1,stimuli/stim_20210519_power2amp/equal_lnn_AM4Hz_s25_44.m4a,,,
,,,,,,,,,,,,41269,2021-06-01_12h44.01.571,judgeSpeechMusic_20210519_logNormShiftAmp_mXs,2020.1.2,Win32,60,,,,,,,,,,,,,,2,7.9967,,0,0,18,18,26,1,stimuli/stim_20210519_power2amp/equal_lnn_AM1Hz_s35_26.m4a,,,
,,,,,,,,,,,,41269,2021-06-01_12h44.01.571,judgeSpeechMusic_20210519_logNormShiftAmp_mXs,2020.1.2,Win32,60,,,,,,,,,,,,,,2,6.8953,,0,0,19,19,77,1,stimuli/stim_20210519_power2amp/equal_lnn_AM2.5Hz_s35_6.m4a,,,
,,,,,,,,,,,,41269,2021-06-01_12h44.01.571,judgeSpeechMusic_20210519_logNormShiftAmp_mXs,2020.1.2,Win32,60,,,,,,,,,,,,,,2,12.6901,,0,0,20,20,8,1,stimuli/stim_20210519_power2amp/equal_lnn_AM1Hz_s15_35.m4a,,,
,,,,,,,,,,,,41269,2021-06-01_12h44.01.571,judgeSpeechMusic_20210519_logNormShiftAmp_mXs,2020.1.2,Win32,60,,,,,,,,,,,,,,1,6.1912,,0,0,21,21,45,1,stimuli/stim_20210519_power2amp/equal_lnn_AM1Hz_s55_32.m4a,,,
,,,,,,,,,,,,41269,2021-06-01_12h44.01.571,judgeSpeechMusic_20210519_logNormShiftAmp_mXs,2020.1.2,Win32,60,,,,,,,,,,,,,,2,7.2826,,0,0,22,22,15,1,stimuli/stim_20210519_power2amp/equal_lnn_AM1Hz_s25_27.m4a,,,
,,,,,,,,,,,,41269,2021-06-01_12h44.01.571,judgeSpeechMusic_20210519_logNormShiftAmp_mXs,2020.1.2,Win32,60,,,,,,,,,,,,,,1,5.799,,0,0,23,23,130,1,stimuli/stim_20210519_power2amp/equal_lnn_AM4Hz_s45_16.m4a,,,
,,,,,,,,,,,,41269,2021-06-01_12h44.01.571,judgeSpeechMusic_20210519_logNormShiftAmp_mXs,2020.1.2,Win32,60,,,,,,,,,,,,,,1,6.7691,,0,0,24,24,1,1,stimuli/stim_20210519_power2amp/equal_lnn_AM1Hz_s15_15.m4a,,,
,,,,,,,,,,,,41269,2021-06-01_12h44.01.571,judgeSpeechMusic_20210519_logNormShiftAmp_mXs,2020.1.2,Win32,60,,,,,,,,,,,,,,2,6.499,,0,0,25,25,16,1,stimuli/stim_20210519_power2amp/equal_lnn_AM1Hz_s25_50.m4a,,,
,,,,,,,,,,,,41269,2021-06-01_12h44.01.571,judgeSpeechMusic_20210519_logNormShiftAmp_mXs,2020.1.2,Win32,60,,,,,,,,,,,,,,2,6.8528,,0,0,26,26,85,1,stimuli/stim_20210519_power2amp/equal_lnn_AM2.5Hz_s45_35.m4a,,,
,,,,,,,,,,,,41269,2021-06-01_12h44.01.571,judgeSpeechMusic_20210519_logNormShiftAmp_mXs,2020.1.2,Win32,60,,,,,,,,,,,,,,1,6.0163,,0,0,27,27,10,1,stimuli/stim_20210519_power2amp/equal_lnn_AM1Hz_s25_6.m4a,,,
,,,,,,,,,,,,41269,2021-06-01_12h44.01.571,judgeSpeechMusic_20210519_logNormShiftAmp_mXs,2020.1.2,Win32,60,,,,,,,,,,,,,,2,7.2156,,0,0,28,28,30,1,stimuli/stim_20210519_power2amp/equal_lnn_AM1Hz_s45_20.m4a,,,
,,,,,,,,,,,,41269,2021-06-01_12h44.01.571,judgeSpeechMusic_20210519_logNormShiftAmp_mXs,2020.1.2,Win32,60,,,,,,,,,,,,,,1,6.0665,,0,0,29,29,87,1,stimuli/stim_20210519_power2amp/equal_lnn_AM2.5Hz_s45_37.m4a,,,
,,,,,,,,,,,,41269,2021-06-01_12h44.01.571,judgeSpeechMusic_20210519_logNormShiftAmp_mXs,2020.1.2,Win32,60,,,,,,,,,,,,,,1,5.9046,,0,0,30,30,71,1,stimuli/stim_20210519_power2amp/equal_lnn_AM2.5Hz_s35_25.m4a,,,
,,,,,,,,,,,,41269,2021-06-01_12h44.01.571,judgeSpeechMusic_20210519_logNormShiftAmp_mXs,2020.1.2,Win32,60,,,,,,,,,,,,,,1,5.899,,0,0,31,31,149,1,stimuli/stim_20210519_power2amp/equal_lnn_AM4Hz_s55_38.m4a,,,
,,,,,,,,,,,,41269,2021-06-01_12h44.01.571,judgeSpeechMusic_20210519_logNormShiftAmp_mXs,2020.1.2,Win32,60,,,,,,,,,,,,,,2,6.8642,2,1,0,32,32,51,1,stimuli/stim_20210519_power2amp/equal_lnn_AM2.5Hz_s15_31.m4a,1.1741,,
,,,,,,,,,,,,41269,2021-06-01_12h44.01.571,judgeSpeechMusic_20210519_logNormShiftAmp_mXs,2020.1.2,Win32,60,,,,,,,,,,,,,,2,6.8014,,0,0,33,33,126,1,stimuli/stim_20210519_power2amp/equal_lnn_AM4Hz_s35_17.m4a,,,
,,,,,,,,,,,,41269,2021-06-01_12h44.01.571,judgeSpeechMusic_20210519_logNormShiftAmp_mXs,2020.1.2,Win32,60,,,,,,,,,,,,,,1,5.7776,,0,0,34,34,105,1,stimuli/stim_20210519_power2amp/equal_lnn_AM4Hz_s15_17.m4a,,,
,,,,,,,,,,,,41269,2021-06-01_12h44.01.571,judgeSpeechMusic_20210519_logNormShiftAmp_mXs,2020.1.2,Win32,60,,,,,,,,,,,,,,2,7.537,,0,0,35,35,90,1,stimuli/stim_20210519_power2amp/equal_lnn_AM2.5Hz_s55_35.m4a,,,
,,,,,,,,,,,,41269,2021-06-01_12h44.01.571,judgeSpeechMusic_20210519_logNormShiftAmp_mXs,2020.1.2,Win32,60,,,,,,,,,,,,,,1,6.1643,,0,0,36,36,113,1,stimuli/stim_20210519_power2amp/equal_lnn_AM4Hz_s25_14.m4a,,,
,,,,,,,,,,,,41269,2021-06-01_12h44.01.571,judgeSpeechMusic_20210519_logNormShiftAmp_mXs,2020.1.2,Win32,60,,,,,,,,,,,,,,1,6.2038,,0,0,37,37,88,1,stimuli/stim_20210519_power2amp/equal_lnn_AM2.5Hz_s45_4.m4a,,,
,,,,,,,,,,,,41269,2021-06-01_12h44.01.571,judgeSpeechMusic_20210519_logNormShiftAmp_mXs,2020.1.2,Win32,60,,,,,,,,,,,,,,2,8.6293,,0,0,38,38,38,1,stimuli/stim_20210519_power2amp/equal_lnn_AM1Hz_s45_25.m4a,,,
,,,,,,,,,,,,41269,2021-06-01_12h44.01.571,judgeSpeechMusic_20210519_logNormShiftAmp_mXs,2020.1.2,Win32,60,,,,,,,,,,,,,,1,8.3492,,0,0,39,39,65,1,stimuli/stim_20210519_power2amp/equal_lnn_AM2.5Hz_s25_44.m4a,,,
,,,,,,,,,,,,41269,2021-06-01_12h44.01.571,judgeSpeechMusic_20210519_logNormShiftAmp_mXs,2020.1.2,Win32,60,,,,,,,,,,,,,,1,5.9532,,0,0,40,40,107,1,stimuli/stim_20210519_power2amp/equal_lnn_AM4Hz_s15_41.m4a,,,
,,,,,,,,,,,,41269,2021-06-01_12h44.01.571,judgeSpeechMusic_20210519_logNormShiftAmp_mXs,2020.1.2,Win32,60,,,,,,,,,,,,,,1,5.7822,,0,0,41,41,59,1,stimuli/stim_20210519_power2amp/equal_lnn_AM2.5Hz_s15_4.m4a,,,
,,,,,,,,,,,,41269,2021-06-01_12h44.01.571,judgeSpeechMusic_20210519_logNormShiftAmp_mXs,2020.1.2,Win32,60,,,,,,,,,,,,,,1,6.8196,,0,0,42,42,78,1,stimuli/stim_20210519_power2amp/equal_lnn_AM2.5Hz_s35_38.m4a,,,
,,,,,,,,,,,,41269,2021-06-01_12h44.01.571,judgeSpeechMusic_20210519_logNormShiftAmp_mXs,2020.1.2,Win32,60,,,,,,,,,,,,,,2,5.882,,0,0,43,43,67,1,stimuli/stim_20210519_power2amp/equal_lnn_AM2.5Hz_s25_12.m4a,,,
,,,,,,,,,,,,41269,2021-06-01_12h44.01.571,judgeSpeechMusic_20210519_logNormShiftAmp_mXs,2020.1.2,Win32,60,,,,,,,,,,,,,,1,6.203,,0,0,44,44,147,1,stimuli/stim_20210519_power2amp/equal_lnn_AM4Hz_s55_17.m4a,,,
,,,,,,,,,,,,41269,2021-06-01_12h44.01.571,judgeSpeechMusic_20210519_logNormShiftAmp_mXs,2020.1.2,Win32,60,,,,,,,,,,,,,,1,7.0037,,0,0,45,45,109,1,stimuli/stim_20210519_power2amp/equal_lnn_AM4Hz_s15_10.m4a,,,
,,,,,,,,,,,,41269,2021-06-01_12h44.01.571,judgeSpeechMusic_20210519_logNormShiftAmp_mXs,2020.1.2,Win32,60,,,,,,,,,,,,,,2,6.5686,,0,0,46,46,148,1,stimuli/stim_20210519_power2amp/equal_lnn_AM4Hz_s55_40.m4a,,,
,,,,,,,,,,,,41269,2021-06-01_12h44.01.571,judgeSpeechMusic_20210519_logNormShiftAmp_mXs,2020.1.2,Win32,60,,,,,,,,,,,,,,1,6.4257,,0,0,47,47,48,1,stimuli/stim_20210519_power2amp/equal_lnn_AM1Hz_s55_31.m4a,,,
,,,,,,,,,,,,41269,2021-06-01_12h44.01.571,judgeSpeechMusic_20210519_logNormShiftAmp_mXs,2020.1.2,Win32,60,,,,,,,,,,,,,,1,7.7723,,0,0,48,48,27,1,stimuli/stim_20210519_power2amp/equal_lnn_AM1Hz_s35_27.m4a,,,
,,,,,,,,,,,,41269,2021-06-01_12h44.01.571,judgeSpeechMusic_20210519_logNormShiftAmp_mXs,2020.1.2,Win32,60,,,,,,,,,,,,,,2,6.6988,,0,0,49,49,141,1,stimuli/stim_20210519_power2amp/equal_lnn_AM4Hz_s55_1.m4a,,,
,,,,,,,,,,,,41269,2021-06-01_12h44.01.571,judgeSpeechMusic_20210519_logNormShiftAmp_mXs,2020.1.2,Win32,60,,,,,,,,,,,,,,2,6.033,,0,0,50,50,134,1,stimuli/stim_20210519_power2amp/equal_lnn_AM4Hz_s45_50.m4a,,,
,,,,,,,,,,,,41269,2021-06-01_12h44.01.571,judgeSpeechMusic_20210519_logNormShiftAmp_mXs,2020.1.2,Win32,60,,,,,,,,,,,,,,1,6.8061,,0,0,51,51,91,1,stimuli/stim_20210519_power2amp/equal_lnn_AM2.5Hz_s55_11.m4a,,,
,,,,,,,,,,,,41269,2021-06-01_12h44.01.571,judgeSpeechMusic_20210519_logNormShiftAmp_mXs,2020.1.2,Win32,60,,,,,,,,,,,,,,2,6.0976,3,1,0,52,52,31,1,stimuli/stim_20210519_power2amp/equal_lnn_AM1Hz_s45_17.m4a,0.8678,,
,,,,,,,,,,,,41269,2021-06-01_12h44.01.571,judgeSpeechMusic_20210519_logNormShiftAmp_mXs,2020.1.2,Win32,60,,,,,,,,,,,,,,1,6.2324,,0,0,53,53,106,1,stimuli/stim_20210519_power2amp/equal_lnn_AM4Hz_s15_37.m4a,,,
,,,,,,,,,,,,41269,2021-06-01_12h44.01.571,judgeSpeechMusic_20210519_logNormShiftAmp_mXs,2020.1.2,Win32,60,,,,,,,,,,,,,,1,8.4875,,0,0,54,54,3,1,stimuli/stim_20210519_power2amp/equal_lnn_AM1Hz_s15_14.m4a,,,
,,,,,,,,,,,,41269,2021-06-01_12h44.01.571,judgeSpeechMusic_20210519_logNormShiftAmp_mXs,2020.1.2,Win32,60,,,,,,,,,,,,,,2,5.9716,,0,0,55,55,143,1,stimuli/stim_20210519_power2amp/equal_lnn_AM4Hz_s55_48.m4a,,,
,,,,,,,,,,,,41269,2021-06-01_12h44.01.571,judgeSpeechMusic_20210519_logNormShiftAmp_mXs,2020.1.2,Win32,60,,,,,,,,,,,,,,2,6.0015,,0,0,56,56,116,1,stimuli/stim_20210519_power2amp/equal_lnn_AM4Hz_s25_41.m4a,,,
,,,,,,,,,,,,41269,2021-06-01_12h44.01.571,judgeSpeechMusic_20210519_logNormShiftAmp_mXs,2020.1.2,Win32,60,,,,,,,,,,,,,,1,5.8995,,0,0,57,57,39,1,stimuli/stim_20210519_power2amp/equal_lnn_AM1Hz_s45_26.m4a,,,
,,,,,,,,,,,,41269,2021-06-01_12h44.01.571,judgeSpeechMusic_20210519_logNormShiftAmp_mXs,2020.1.2,Win32,60,,,,,,,,,,,,,,1,7.2824,,0,0,58,58,33,1,stimuli/stim_20210519_power2amp/equal_lnn_AM1Hz_s45_41.m4a,,,
,,,,,,,,,,,,41269,2021-06-01_12h44.01.571,judgeSpeechMusic_20210519_logNormShiftAmp_mXs,2020.1.2,Win32,60,,,,,,,,,,,,,,2,10.2241,,0,0,59,59,52,1,stimuli/stim_20210519_power2amp/equal_lnn_AM2.5Hz_s15_36.m4a,,,
,,,,,,,,,,,,41269,2021-06-01_12h44.01.571,judgeSpeechMusic_20210519_logNormShiftAmp_mXs,2020.1.2,Win32,60,,,,,,,,,,,,,,2,5.8007,,0,0,60,60,47,1,stimuli/stim_20210519_power2amp/equal_lnn_AM1Hz_s55_4.m4a,,,
,,,,,,,,,,,,41269,2021-06-01_12h44.01.571,judgeSpeechMusic_20210519_logNormShiftAmp_mXs,2020.1.2,Win32,60,,,,,,,,,,,,,,2,5.7829,,0,0,61,61,79,1,stimuli/stim_20210519_power2amp/equal_lnn_AM2.5Hz_s35_32.m4a,,,
,,,,,,,,,,,,41269,2021-06-01_12h44.01.571,judgeSpeechMusic_20210519_logNormShiftAmp_mXs,2020.1.2,Win32,60,,,,,,,,,,,,,,1,7.6569,,0,0,62,62,127,1,stimuli/stim_20210519_power2amp/equal_lnn_AM4Hz_s35_9.m4a,,,
,,,,,,,,,,,,41269,2021-06-01_12h44.01.571,judgeSpeechMusic_20210519_logNormShiftAmp_mXs,2020.1.2,Win32,60,,,,,,,,,,,,,,2,8.4844,,0,0,63,63,18,1,stimuli/stim_20210519_power2amp/equal_lnn_AM1Hz_s25_32.m4a,,,
,,,,,,,,,,,,41269,2021-06-01_12h44.01.571,judgeSpeechMusic_20210519_logNormShiftAmp_mXs,2020.1.2,Win32,60,,,,,,,,,,,,,,1,6.1992,,0,0,64,64,103,1,stimuli/stim_20210519_power2amp/equal_lnn_AM4Hz_s15_3.m4a,,,
,,,,,,,,,,,,41269,2021-06-01_12h44.01.571,judgeSpeechMusic_20210519_logNormShiftAmp_mXs,2020.1.2,Win32,60,,,,,,,,,,,,,,1,6.3406,,0,0,65,65,74,1,stimuli/stim_20210519_power2amp/equal_lnn_AM2.5Hz_s35_10.m4a,,,
,,,,,,,,,,,,41269,2021-06-01_12h44.01.571,judgeSpeechMusic_20210519_logNormShiftAmp_mXs,2020.1.2,Win32,60,,,,,,,,,,,,,,2,5.804,,0,0,66,66,63,1,stimuli/stim_20210519_power2amp/equal_lnn_AM2.5Hz_s25_11.m4a,,,
,,,,,,,,,,,,41269,2021-06-01_12h44.01.571,judgeSpeechMusic_20210519_logNormShiftAmp_mXs,2020.1.2,Win32,60,,,,,,,,,,,,,,1,6.3158,,0,0,67,67,6,1,stimuli/stim_20210519_power2amp/equal_lnn_AM1Hz_s15_16.m4a,,,
,,,,,,,,,,,,41269,2021-06-01_12h44.01.571,judgeSpeechMusic_20210519_logNormShiftAmp_mXs,2020.1.2,Win32,60,,,,,,,,,,,,,,1,9.0709,,0,0,68,68,12,1,stimuli/stim_20210519_power2amp/equal_lnn_AM1Hz_s25_7.m4a,,,
,,,,,,,,,,,,41269,2021-06-01_12h44.01.571,judgeSpeechMusic_20210519_logNormShiftAmp_mXs,2020.1.2,Win32,60,,,,,,,,,,,,,,2,6.5323,,0,0,69,69,55,1,stimuli/stim_20210519_power2amp/equal_lnn_AM2.5Hz_s15_22.m4a,,,
,,,,,,,,,,,,41269,2021-06-01_12h44.01.571,judgeSpeechMusic_20210519_logNormShiftAmp_mXs,2020.1.2,Win32,60,,,,,,,,,,,,,,2,6.3155,,0,0,70,70,41,1,stimuli/stim_20210519_power2amp/equal_lnn_AM1Hz_s55_5.m4a,,,
,,,,,,,,,,,,41269,2021-06-01_12h44.01.571,judgeSpeechMusic_20210519_logNormShiftAmp_mXs,2020.1.2,Win32,60,,,,,,,,,,,,,,1,5.9041,,0,0,71,71,84,1,stimuli/stim_20210519_power2amp/equal_lnn_AM2.5Hz_s45_32.m4a,,,
,,,,,,,,,,,,41269,2021-06-01_12h44.01.571,judgeSpeechMusic_20210519_logNormShiftAmp_mXs,2020.1.2,Win32,60,,,,,,,,,,,,,,2,5.7104,1,1,0,72,72,68,1,stimuli/stim_20210519_power2amp/equal_lnn_AM2.5Hz_s25_14.m4a,0.4522,,
,,,,,,,,,,,,41269,2021-06-01_12h44.01.571,judgeSpeechMusic_20210519_logNormShiftAmp_mXs,2020.1.2,Win32,60,,,,,,,,,,,,,,1,5.8915,,0,0,73,73,139,1,stimuli/stim_20210519_power2amp/equal_lnn_AM4Hz_s45_17.m4a,,,
,,,,,,,,,,,,41269,2021-06-01_12h44.01.571,judgeSpeechMusic_20210519_logNormShiftAmp_mXs,2020.1.2,Win32,60,,,,,,,,,,,,,,1,7.9156,,0,0,74,74,81,1,stimuli/stim_20210519_power2amp/equal_lnn_AM2.5Hz_s45_6.m4a,,,
,,,,,,,,,,,,41269,2021-06-01_12h44.01.571,judgeSpeechMusic_20210519_logNormShiftAmp_mXs,2020.1.2,Win32,60,,,,,,,,,,,,,,2,7.5634,,0,0,75,75,80,1,stimuli/stim_20210519_power2amp/equal_lnn_AM2.5Hz_s45_19.m4a,,,
,,,,,,,,,,,,41269,2021-06-01_12h44.01.571,judgeSpeechMusic_20210519_logNormShiftAmp_mXs,2020.1.2,Win32,60,,,,,,,,,,,,,,2,7.4663,,0,0,76,76,128,1,stimuli/stim_20210519_power2amp/equal_lnn_AM4Hz_s35_22.m4a,,,
,,,,,,,,,,,,41269,2021-06-01_12h44.01.571,judgeSpeechMusic_20210519_logNormShiftAmp_mXs,2020.1.2,Win32,60,,,,,,,,,,,,,,1,6.0488,,0,0,77,77,34,1,stimuli/stim_20210519_power2amp/equal_lnn_AM1Hz_s45_27.m4a,,,
,,,,,,,,,,,,41269,2021-06-01_12h44.01.571,judgeSpeechMusic_20210519_logNormShiftAmp_mXs,2020.1.2,Win32,60,,,,,,,,,,,,,,2,7.1753,,0,0,78,78,97,1,stimuli/stim_20210519_power2amp/equal_lnn_AM2.5Hz_s55_29.m4a,,,
,,,,,,,,,,,,41269,2021-06-01_12h44.01.571,judgeSpeechMusic_20210519_logNormShiftAmp_mXs,2020.1.2,Win32,60,,,,,,,,,,,,,,2,6.3155,,0,0,79,79,76,1,stimuli/stim_20210519_power2amp/equal_lnn_AM2.5Hz_s35_29.m4a,,,
,,,,,,,,,,,,41269,2021-06-01_12h44.01.571,judgeSpeechMusic_20210519_logNormShiftAmp_mXs,2020.1.2,Win32,60,,,,,,,,,,,,,,2,5.8514,,0,0,80,80,66,1,stimuli/stim_20210519_power2amp/equal_lnn_AM2.5Hz_s25_37.m4a,,,
,,,,,,,,,,,,41269,2021-06-01_12h44.01.571,judgeSpeechMusic_20210519_logNormShiftAmp_mXs,2020.1.2,Win32,60,,,,,,,,,,,,,,1,6.6245,,0,0,81,81,58,1,stimuli/stim_20210519_power2amp/equal_lnn_AM2.5Hz_s15_32.m4a,,,
,,,,,,,,,,,,41269,2021-06-01_12h44.01.571,judgeSpeechMusic_20210519_logNormShiftAmp_mXs,2020.1.2,Win32,60,,,,,,,,,,,,,,2,6.5718,,0,0,82,82,44,1,stimuli/stim_20210519_power2amp/equal_lnn_AM1Hz_s55_45.m4a,,,
,,,,,,,,,,,,41269,2021-06-01_12h44.01.571,judgeSpeechMusic_20210519_logNormShiftAmp_mXs,2020.1.2,Win32,60,,,,,,,,,,,,,,1,6.4324,,0,0,83,83,73,1,stimuli/stim_20210519_power2amp/equal_lnn_AM2.5Hz_s35_7.m4a,,,
,,,,,,,,,,,,41269,2021-06-01_12h44.01.571,judgeSpeechMusic_20210519_logNormShiftAmp_mXs,2020.1.2,Win32,60,,,,,,,,,,,,,,1,6.0163,,0,0,84,84,100,1,stimuli/stim_20210519_power2amp/equal_lnn_AM4Hz_s15_13.m4a,,,
,,,,,,,,,,,,41269,2021-06-01_12h44.01.571,judgeSpeechMusic_20210519_logNormShiftAmp_mXs,2020.1.2,Win32,60,,,,,,,,,,,,,,2,5.6825,,0,0,85,85,114,1,stimuli/stim_20210519_power2amp/equal_lnn_AM4Hz_s25_33.m4a,,,
,,,,,,,,,,,,41269,2021-06-01_12h44.01.571,judgeSpeechMusic_20210519_logNormShiftAmp_mXs,2020.1.2,Win32,60,,,,,,,,,,,,,,1,5.7467,,0,0,86,86,56,1,stimuli/stim_20210519_power2amp/equal_lnn_AM2.5Hz_s15_25.m4a,,,
,,,,,,,,,,,,41269,2021-06-01_12h44.01.571,judgeSpeechMusic_20210519_logNormShiftAmp_mXs,2020.1.2,Win32,60,,,,,,,,,,,,,,2,6.6133,,0,0,87,87,54,1,stimuli/stim_20210519_power2amp/equal_lnn_AM2.5Hz_s15_28.m4a,,,
,,,,,,,,,,,,41269,2021-06-01_12h44.01.571,judgeSpeechMusic_20210519_logNormShiftAmp_mXs,2020.1.2,Win32,60,,,,,,,,,,,,,,2,10.6163,,0,0,88,88,129,1,stimuli/stim_20210519_power2amp/equal_lnn_AM4Hz_s35_10.m4a,,,
,,,,,,,,,,,,41269,2021-06-01_12h44.01.571,judgeSpeechMusic_20210519_logNormShiftAmp_mXs,2020.1.2,Win32,60,,,,,,,,,,,,,,1,6.2411,,0,0,89,89,110,1,stimuli/stim_20210519_power2amp/equal_lnn_AM4Hz_s25_26.m4a,,,
,,,,,,,,,,,,41269,2021-06-01_12h44.01.571,judgeSpeechMusic_20210519_logNormShiftAmp_mXs,2020.1.2,Win32,60,,,,,,,,,,,,,,2,6.5479,,0,0,90,90,72,1,stimuli/stim_20210519_power2amp/equal_lnn_AM2.5Hz_s35_28.m4a,,,
,,,,,,,,,,,,41269,2021-06-01_12h44.01.571,judgeSpeechMusic_20210519_logNormShiftAmp_mXs,2020.1.2,Win32,60,,,,,,,,,,,,,,1,5.98,,0,0,91,91,19,1,stimuli/stim_20210519_power2amp/equal_lnn_AM1Hz_s25_29.m4a,,,
,,,,,,,,,,,,41269,2021-06-01_12h44.01.571,judgeSpeechMusic_20210519_logNormShiftAmp_mXs,2020.1.2,Win32,60,,,,,,,,,,,,,,2,5.7694,2,1,0,92,92,75,1,stimuli/stim_20210519_power2amp/equal_lnn_AM2.5Hz_s35_26.m4a,0.3537,,
,,,,,,,,,,,,41269,2021-06-01_12h44.01.571,judgeSpeechMusic_20210519_logNormShiftAmp_mXs,2020.1.2,Win32,60,,,,,,,,,,,,,,2,6.0677,,0,0,93,93,136,1,stimuli/stim_20210519_power2amp/equal_lnn_AM4Hz_s45_43.m4a,,,
,,,,,,,,,,,,41269,2021-06-01_12h44.01.571,judgeSpeechMusic_20210519_logNormShiftAmp_mXs,2020.1.2,Win32,60,,,,,,,,,,,,,,2,6.4658,,0,0,94,94,36,1,stimuli/stim_20210519_power2amp/equal_lnn_AM1Hz_s45_39.m4a,,,
,,,,,,,,,,,,41269,2021-06-01_12h44.01.571,judgeSpeechMusic_20210519_logNormShiftAmp_mXs,2020.1.2,Win32,60,,,,,,,,,,,,,,1,6.2203,,0,0,95,95,142,1,stimuli/stim_20210519_power2amp/equal_lnn_AM4Hz_s55_12.m4a,,,
,,,,,,,,,,,,41269,2021-06-01_12h44.01.571,judgeSpeechMusic_20210519_logNormShiftAmp_mXs,2020.1.2,Win32,60,,,,,,,,,,,,,,2,6.1163,,0,0,96,96,29,1,stimuli/stim_20210519_power2amp/equal_lnn_AM1Hz_s35_28.m4a,,,
,,,,,,,,,,,,41269,2021-06-01_12h44.01.571,judgeSpeechMusic_20210519_logNormShiftAmp_mXs,2020.1.2,Win32,60,,,,,,,,,,,,,,1,6.6825,,0,0,97,97,104,1,stimuli/stim_20210519_power2amp/equal_lnn_AM4Hz_s15_23.m4a,,,
,,,,,,,,,,,,41269,2021-06-01_12h44.01.571,judgeSpeechMusic_20210519_logNormShiftAmp_mXs,2020.1.2,Win32,60,,,,,,,,,,,,,,1,5.914,,0,0,98,98,60,1,stimuli/stim_20210519_power2amp/equal_lnn_AM2.5Hz_s25_29.m4a,,,
,,,,,,,,,,,,41269,2021-06-01_12h44.01.571,judgeSpeechMusic_20210519_logNormShiftAmp_mXs,2020.1.2,Win32,60,,,,,,,,,,,,,,2,5.8633,,0,0,99,99,131,1,stimuli/stim_20210519_power2amp/equal_lnn_AM4Hz_s45_1.m4a,,,
,,,,,,,,,,,,41269,2021-06-01_12h44.01.571,judgeSpeechMusic_20210519_logNormShiftAmp_mXs,2020.1.2,Win32,60,,,,,,,,,,,,,,2,6.7712,,0,0,100,100,117,1,stimuli/stim_20210519_power2amp/equal_lnn_AM4Hz_s25_17.m4a,,,
,,,,,,,,,,,,41269,2021-06-01_12h44.01.571,judgeSpeechMusic_20210519_logNormShiftAmp_mXs,2020.1.2,Win32,60,,,,,,,,,,,,,,2,5.8786,,0,0,101,101,7,1,stimuli/stim_20210519_power2amp/equal_lnn_AM1Hz_s15_29.m4a,,,
,,,,,,,,,,,,41269,2021-06-01_12h44.01.571,judgeSpeechMusic_20210519_logNormShiftAmp_mXs,2020.1.2,Win32,60,,,,,,,,,,,,,,1,6.525,,0,0,102,102,53,1,stimuli/stim_20210519_power2amp/equal_lnn_AM2.5Hz_s15_8.m4a,,,
,,,,,,,,,,,,41269,2021-06-01_12h44.01.571,judgeSpeechMusic_20210519_logNormShiftAmp_mXs,2020.1.2,Win32,60,,,,,,,,,,,,,,2,7.1423,,0,0,103,103,22,1,stimuli/stim_20210519_power2amp/equal_lnn_AM1Hz_s35_18.m4a,,,
,,,,,,,,,,,,41269,2021-06-01_12h44.01.571,judgeSpeechMusic_20210519_logNormShiftAmp_mXs,2020.1.2,Win32,60,,,,,,,,,,,,,,1,5.8993,,0,0,104,104,118,1,stimuli/stim_20210519_power2amp/equal_lnn_AM4Hz_s25_21.m4a,,,
,,,,,,,,,,,,41269,2021-06-01_12h44.01.571,judgeSpeechMusic_20210519_logNormShiftAmp_mXs,2020.1.2,Win32,60,,,,,,,,,,,,,,2,7.4136,,0,0,105,105,23,1,stimuli/stim_20210519_power2amp/equal_lnn_AM1Hz_s35_3.m4a,,,
,,,,,,,,,,,,41269,2021-06-01_12h44.01.571,judgeSpeechMusic_20210519_logNormShiftAmp_mXs,2020.1.2,Win32,60,,,,,,,,,,,,,,2,6.5737,,0,0,106,106,140,1,stimuli/stim_20210519_power2amp/equal_lnn_AM4Hz_s55_8.m4a,,,
,,,,,,,,,,,,41269,2021-06-01_12h44.01.571,judgeSpeechMusic_20210519_logNormShiftAmp_mXs,2020.1.2,Win32,60,,,,,,,,,,,,,,1,6.825,,0,0,107,107,121,1,stimuli/stim_20210519_power2amp/equal_lnn_AM4Hz_s35_48.m4a,,,
,,,,,,,,,,,,41269,2021-06-01_12h44.01.571,judgeSpeechMusic_20210519_logNormShiftAmp_mXs,2020.1.2,Win32,60,,,,,,,,,,,,,,2,10.077,,0,0,108,108,112,1,stimuli/stim_20210519_power2amp/equal_lnn_AM4Hz_s25_39.m4a,,,
,,,,,,,,,,,,41269,2021-06-01_12h44.01.571,judgeSpeechMusic_20210519_logNormShiftAmp_mXs,2020.1.2,Win32,60,,,,,,,,,,,,,,2,7.366,,0,0,109,109,125,1,stimuli/stim_20210519_power2amp/equal_lnn_AM4Hz_s35_3.m4a,,,
,,,,,,,,,,,,41269,2021-06-01_12h44.01.571,judgeSpeechMusic_20210519_logNormShiftAmp_mXs,2020.1.2,Win32,60,,,,,,,,,,,,,,2,7.4835,,0,0,110,110,115,1,stimuli/stim_20210519_power2amp/equal_lnn_AM4Hz_s25_1.m4a,,,
,,,,,,,,,,,,41269,2021-06-01_12h44.01.571,judgeSpeechMusic_20210519_logNormShiftAmp_mXs,2020.1.2,Win32,60,,,,,,,,,,,,,,1,6.054,,0,0,111,111,95,1,stimuli/stim_20210519_power2amp/equal_lnn_AM2.5Hz_s55_15.m4a,,,
,,,,,,,,,,,,41269,2021-06-01_12h44.01.571,judgeSpeechMusic_20210519_logNormShiftAmp_mXs,2020.1.2,Win32,60,,,,,,,,,,,,,,1,7.5821,2,1,0,112,112,32,1,stimuli/stim_20210519_power2amp/equal_lnn_AM1Hz_s45_12.m4a,0.332,,
,,,,,,,,,,,,41269,2021-06-01_12h44.01.571,judgeSpeechMusic_20210519_logNormShiftAmp_mXs,2020.1.2,Win32,60,,,,,,,,,,,,,,1,6.2164,,0,0,113,113,14,1,stimuli/stim_20210519_power2amp/equal_lnn_AM1Hz_s25_46.m4a,,,
,,,,,,,,,,,,41269,2021-06-01_12h44.01.571,judgeSpeechMusic_20210519_logNormShiftAmp_mXs,2020.1.2,Win32,60,,,,,,,,,,,,,,2,7.5793,,0,0,114,114,83,1,stimuli/stim_20210519_power2amp/equal_lnn_AM2.5Hz_s45_22.m4a,,,
,,,,,,,,,,,,41269,2021-06-01_12h44.01.571,judgeSpeechMusic_20210519_logNormShiftAmp_mXs,2020.1.2,Win32,60,,,,,,,,,,,,,,1,7.6139,,0,0,115,115,49,1,stimuli/stim_20210519_power2amp/equal_lnn_AM1Hz_s55_23.m4a,,,
,,,,,,,,,,,,41269,2021-06-01_12h44.01.571,judgeSpeechMusic_20210519_logNormShiftAmp_mXs,2020.1.2,Win32,60,,,,,,,,,,,,,,2,12.2927,,0,0,116,116,86,1,stimuli/stim_20210519_power2amp/equal_lnn_AM2.5Hz_s45_17.m4a,,,
,,,,,,,,,,,,41269,2021-06-01_12h44.01.571,judgeSpeechMusic_20210519_logNormShiftAmp_mXs,2020.1.2,Win32,60,,,,,,,,,,,,,,1,5.9275,,0,0,117,117,145,1,stimuli/stim_20210519_power2amp/equal_lnn_AM4Hz_s55_33.m4a,,,
,,,,,,,,,,,,41269,2021-06-01_12h44.01.571,judgeSpeechMusic_20210519_logNormShiftAmp_mXs,2020.1.2,Win32,60,,,,,,,,,,,,,,2,6.1326,,0,0,118,118,122,1,stimuli/stim_20210519_power2amp/equal_lnn_AM4Hz_s35_7.m4a,,,
,,,,,,,,,,,,41269,2021-06-01_12h44.01.571,judgeSpeechMusic_20210519_logNormShiftAmp_mXs,2020.1.2,Win32,60,,,,,,,,,,,,,,2,6.0473,,0,0,119,119,120,1,stimuli/stim_20210519_power2amp/equal_lnn_AM4Hz_s35_26.m4a,,,
,,,,,,,,,,,,41269,2021-06-01_12h44.01.571,judgeSpeechMusic_20210519_logNormShiftAmp_mXs,2020.1.2,Win32,60,,,,,,,,,,,,,,2,5.973,,0,0,120,120,70,1,stimuli/stim_20210519_power2amp/equal_lnn_AM2.5Hz_s35_34.m4a,,,
,,,,,,,,,,,,41269,2021-06-01_12h44.01.571,judgeSpeechMusic_20210519_logNormShiftAmp_mXs,2020.1.2,Win32,60,,,,,,,,,,,,,,1,6.9624,,0,0,121,121,61,1,stimuli/stim_20210519_power2amp/equal_lnn_AM2.5Hz_s25_4.m4a,,,
,,,,,,,,,,,,41269,2021-06-01_12h44.01.571,judgeSpeechMusic_20210519_logNormShiftAmp_mXs,2020.1.2,Win32,60,,,,,,,,,,,,,,1,5.6827,,0,0,122,122,37,1,stimuli/stim_20210519_power2amp/equal_lnn_AM1Hz_s45_32.m4a,,,
,,,,,,,,,,,,41269,2021-06-01_12h44.01.571,judgeSpeechMusic_20210519_logNormShiftAmp_mXs,2020.1.2,Win32,60,,,,,,,,,,,,,,1,8.9117,,0,0,123,123,57,1,stimuli/stim_20210519_power2amp/equal_lnn_AM2.5Hz_s15_23.m4a,,,
,,,,,,,,,,,,41269,2021-06-01_12h44.01.571,judgeSpeechMusic_20210519_logNormShiftAmp_mXs,2020.1.2,Win32,60,,,,,,,,,,,,,,2,6.0152,,0,0,124,124,138,1,stimuli/stim_20210519_power2amp/equal_lnn_AM4Hz_s45_7.m4a,,,
,,,,,,,,,,,,41269,2021-06-01_12h44.01.571,judgeSpeechMusic_20210519_logNormShiftAmp_mXs,2020.1.2,Win32,60,,,,,,,,,,,,,,2,5.7692,,0,0,125,125,94,1,stimuli/stim_20210519_power2amp/equal_lnn_AM2.5Hz_s55_34.m4a,,,
,,,,,,,,,,,,41269,2021-06-01_12h44.01.571,judgeSpeechMusic_20210519_logNormShiftAmp_mXs,2020.1.2,Win32,60,,,,,,,,,,,,,,1,5.6267,,0,0,126,126,24,1,stimuli/stim_20210519_power2amp/equal_lnn_AM1Hz_s35_46.m4a,,,
,,,,,,,,,,,,41269,2021-06-01_12h44.01.571,judgeSpeechMusic_20210519_logNormShiftAmp_mXs,2020.1.2,Win32,60,,,,,,,,,,,,,,2,9.3323,,0,0,127,127,99,1,stimuli/stim_20210519_power2amp/equal_lnn_AM2.5Hz_s55_38.m4a,,,
,,,,,,,,,,,,41269,2021-06-01_12h44.01.571,judgeSpeechMusic_20210519_logNormShiftAmp_mXs,2020.1.2,Win32,60,,,,,,,,,,,,,,1,6.6467,,0,0,128,128,9,1,stimuli/stim_20210519_power2amp/equal_lnn_AM1Hz_s15_45.m4a,,,
,,,,,,,,,,,,41269,2021-06-01_12h44.01.571,judgeSpeechMusic_20210519_logNormShiftAmp_mXs,2020.1.2,Win32,60,,,,,,,,,,,,,,2,9.6102,,0,0,129,129,64,1,stimuli/stim_20210519_power2amp/equal_lnn_AM2.5Hz_s25_21.m4a,,,
,,,,,,,,,,,,41269,2021-06-01_12h44.01.571,judgeSpeechMusic_20210519_logNormShiftAmp_mXs,2020.1.2,Win32,60,,,,,,,,,,,,,,1,6.6871,,0,0,130,130,35,1,stimuli/stim_20210519_power2amp/equal_lnn_AM1Hz_s45_8.m4a,,,
,,,,,,,,,,,,41269,2021-06-01_12h44.01.571,judgeSpeechMusic_20210519_logNormShiftAmp_mXs,2020.1.2,Win32,60,,,,,,,,,,,,,,1,6.5963,,0,0,131,131,123,1,stimuli/stim_20210519_power2amp/equal_lnn_AM4Hz_s35_34.m4a,,,
,,,,,,,,,,,,41269,2021-06-01_12h44.01.571,judgeSpeechMusic_20210519_logNormShiftAmp_mXs,2020.1.2,Win32,60,,,,,,,,,,,,,,2,6.5755,,0,0,132,132,21,1,stimuli/stim_20210519_power2amp/equal_lnn_AM1Hz_s35_20.m4a,,,
,,,,,,,,,,,,41269,2021-06-01_12h44.01.571,judgeSpeechMusic_20210519_logNormShiftAmp_mXs,2020.1.2,Win32,60,,,,,,,,,,,,,,2,7.916,,0,0,133,133,108,1,stimuli/stim_20210519_power2amp/equal_lnn_AM4Hz_s15_21.m4a,,,
,,,,,,,,,,,,41269,2021-06-01_12h44.01.571,judgeSpeechMusic_20210519_logNormShiftAmp_mXs,2020.1.2,Win32,60,,,,,,,,,,,,,,2,11.2422,,0,0,134,134,96,1,stimuli/stim_20210519_power2amp/equal_lnn_AM2.5Hz_s55_37.m4a,,,
,,,,,,,,,,,,41269,2021-06-01_12h44.01.571,judgeSpeechMusic_20210519_logNormShiftAmp_mXs,2020.1.2,Win32,60,,,,,,,,,,,,,,2,9.4195,4,1,0,135,135,132,1,stimuli/stim_20210519_power2amp/equal_lnn_AM4Hz_s45_13.m4a,0.9582,,
,,,,,,,,,,,,41269,2021-06-01_12h44.01.571,judgeSpeechMusic_20210519_logNormShiftAmp_mXs,2020.1.2,Win32,60,,,,,,,,,,,,,,1,5.9327,,0,0,136,136,119,1,stimuli/stim_20210519_power2amp/equal_lnn_AM4Hz_s25_20.m4a,,,
,,,,,,,,,,,,41269,2021-06-01_12h44.01.571,judgeSpeechMusic_20210519_logNormShiftAmp_mXs,2020.1.2,Win32,60,,,,,,,,,,,,,,1,6.3134,,0,0,137,137,137,1,stimuli/stim_20210519_power2amp/equal_lnn_AM4Hz_s45_47.m4a,,,
,,,,,,,,,,,,41269,2021-06-01_12h44.01.571,judgeSpeechMusic_20210519_logNormShiftAmp_mXs,2020.1.2,Win32,60,,,,,,,,,,,,,,2,7.4137,,0,0,138,138,124,1,stimuli/stim_20210519_power2amp/equal_lnn_AM4Hz_s35_38.m4a,,,
,,,,,,,,,,,,41269,2021-06-01_12h44.01.571,judgeSpeechMusic_20210519_logNormShiftAmp_mXs,2020.1.2,Win32,60,,,,,,,,,,,,,,1,5.9111,,0,0,139,139,25,1,stimuli/stim_20210519_power2amp/equal_lnn_AM1Hz_s35_35.m4a,,,
,,,,,,,,,,,,41269,2021-06-01_12h44.01.571,judgeSpeechMusic_20210519_logNormShiftAmp_mXs,2020.1.2,Win32,60,,,,,,,,,,,,,,2,6.0086,,0,0,140,140,62,1,stimuli/stim_20210519_power2amp/equal_lnn_AM2.5Hz_s25_42.m4a,,,
,,,,,,,,,,,,41269,2021-06-01_12h44.01.571,judgeSpeechMusic_20210519_logNormShiftAmp_mXs,2020.1.2,Win32,60,,,,,,,,,,,,,,2,6.3565,,0,0,141,141,5,1,stimuli/stim_20210519_power2amp/equal_lnn_AM1Hz_s15_30.m4a,,,
,,,,,,,,,,,,41269,2021-06-01_12h44.01.571,judgeSpeechMusic_20210519_logNormShiftAmp_mXs,2020.1.2,Win32,60,,,,,,,,,,,,,,2,6.0328,,0,0,142,142,82,1,stimuli/stim_20210519_power2amp/equal_lnn_AM2.5Hz_s45_8.m4a,,,
,,,,,,,,,,,,41269,2021-06-01_12h44.01.571,judgeSpeechMusic_20210519_logNormShiftAmp_mXs,2020.1.2,Win32,60,,,,,,,,,,,,,,1,6.1861,,0,0,143,143,135,1,stimuli/stim_20210519_power2amp/equal_lnn_AM4Hz_s45_20.m4a,,,
,,,,,,,,,,,,41269,2021-06-01_12h44.01.571,judgeSpeechMusic_20210519_logNormShiftAmp_mXs,2020.1.2,Win32,60,,,,,,,,,,,,,,2,7.2777,,0,0,144,144,133,1,stimuli/stim_20210519_power2amp/equal_lnn_AM4Hz_s45_27.m4a,,,
,,,,,,,,,,,,41269,2021-06-01_12h44.01.571,judgeSpeechMusic_20210519_logNormShiftAmp_mXs,2020.1.2,Win32,60,,,,,,,,,,,,,,1,6.1881,,0,0,145,145,93,1,stimuli/stim_20210519_power2amp/equal_lnn_AM2.5Hz_s55_40.m4a,,,
,,,,,,,,,,,,41269,2021-06-01_12h44.01.571,judgeSpeechMusic_20210519_logNormShiftAmp_mXs,2020.1.2,Win32,60,,,,,,,,,,,,,,2,7.0933,,0,0,146,146,2,1,stimuli/stim_20210519_power2amp/equal_lnn_AM1Hz_s15_11.m4a,,,
,,,,,,,,,,,,41269,2021-06-01_12h44.01.571,judgeSpeechMusic_20210519_logNormShiftAmp_mXs,2020.1.2,Win32,60,,,,,,,,,,,,,,1,7.299,,0,0,147,147,46,1,stimuli/stim_20210519_power2amp/equal_lnn_AM1Hz_s55_43.m4a,,,
,,,,,,,,,,,,41269,2021-06-01_12h44.01.571,judgeSpeechMusic_20210519_logNormShiftAmp_mXs,2020.1.2,Win32,60,,,,,,,,,,,,,,1,6.7693,,0,0,148,148,28,1,stimuli/stim_20210519_power2amp/equal_lnn_AM1Hz_s35_1.m4a,,,
,,,,,,,,,,,,41269,2021-06-01_12h44.01.571,judgeSpeechMusic_20210519_logNormShiftAmp_mXs,2020.1.2,Win32,60,,,,,,,,,,,,,,2,7.5324,,0,0,149,149,20,1,stimuli/stim_20210519_power2amp/equal_lnn_AM1Hz_s35_17.m4a,,,
,,,,,,,,,,,,41269,2021-06-01_12h44.01.571,judgeSpeechMusic_20210519_logNormShiftAmp_mXs,2020.1.2,Win32,60,,,,,,,,,,,,,,1,5.9432,,0,1,0,150,13,1,stimuli/stim_20210519_power2amp/equal_lnn_AM1Hz_s25_4.m4a,,,
,,,,,,,,,,,,41269,2021-06-01_12h44.01.571,judgeSpeechMusic_20210519_logNormShiftAmp_mXs,2020.1.2,Win32,60,,,,,,,,,,,,,,1,5.8494,,0,1,1,151,133,1,stimuli/stim_20210519_power2amp/equal_lnn_AM4Hz_s45_27.m4a,,,
,,,,,,,,,,,,41269,2021-06-01_12h44.01.571,judgeSpeechMusic_20210519_logNormShiftAmp_mXs,2020.1.2,Win32,60,,,,,,,,,,,,,,2,5.8897,,0,1,2,152,139,1,stimuli/stim_20210519_power2amp/equal_lnn_AM4Hz_s45_17.m4a,,,
,,,,,,,,,,,,41269,2021-06-01_12h44.01.571,judgeSpeechMusic_20210519_logNormShiftAmp_mXs,2020.1.2,Win32,60,,,,,,,,,,,,,,1,6.5195,,0,1,3,153,35,1,stimuli/stim_20210519_power2amp/equal_lnn_AM1Hz_s45_8.m4a,,,
,,,,,,,,,,,,41269,2021-06-01_12h44.01.571,judgeSpeechMusic_20210519_logNormShiftAmp_mXs,2020.1.2,Win32,60,,,,,,,,,,,,,,2,7.5563,,0,1,4,154,11,1,stimuli/stim_20210519_power2amp/equal_lnn_AM1Hz_s25_15.m4a,,,
,,,,,,,,,,,,41269,2021-06-01_12h44.01.571,judgeSpeechMusic_20210519_logNormShiftAmp_mXs,2020.1.2,Win32,60,,,,,,,,,,,,,,1,8.1323,,0,1,5,155,143,1,stimuli/stim_20210519_power2amp/equal_lnn_AM4Hz_s55_48.m4a,,,
,,,,,,,,,,,,41269,2021-06-01_12h44.01.571,judgeSpeechMusic_20210519_logNormShiftAmp_mXs,2020.1.2,Win32,60,,,,,,,,,,,,,,2,6.388,2,1,1,6,156,81,1,stimuli/stim_20210519_power2amp/equal_lnn_AM2.5Hz_s45_6.m4a,1.3112,,
,,,,,,,,,,,,41269,2021-06-01_12h44.01.571,judgeSpeechMusic_20210519_logNormShiftAmp_mXs,2020.1.2,Win32,60,,,,,,,,,,,,,,2,6.6758,,0,1,7,157,136,1,stimuli/stim_20210519_power2amp/equal_lnn_AM4Hz_s45_43.m4a,,,
,,,,,,,,,,,,41269,2021-06-01_12h44.01.571,judgeSpeechMusic_20210519_logNormShiftAmp_mXs,2020.1.2,Win32,60,,,,,,,,,,,,,,1,6.0852,,0,1,8,158,21,1,stimuli/stim_20210519_power2amp/equal_lnn_AM1Hz_s35_20.m4a,,,
,,,,,,,,,,,,41269,2021-06-01_12h44.01.571,judgeSpeechMusic_20210519_logNormShiftAmp_mXs,2020.1.2,Win32,60,,,,,,,,,,,,,,1,6.5083,,0,1,9,159,76,1,stimuli/stim_20210519_power2amp/equal_lnn_AM2.5Hz_s35_29.m4a,,,
,,,,,,,,,,,,41269,2021-06-01_12h44.01.571,judgeSpeechMusic_20210519_logNormShiftAmp_mXs,2020.1.2,Win32,60,,,,,,,,,,,,,,2,6.4175,,0,1,10,160,85,1,stimuli/stim_20210519_power2amp/equal_lnn_AM2.5Hz_s45_35.m4a,,,
,,,,,,,,,,,,41269,2021-06-01_12h44.01.571,judgeSpeechMusic_20210519_logNormShiftAmp_mXs,2020.1.2,Win32,60,,,,,,,,,,,,,,1,6.4198,,0,1,11,161,57,1,stimuli/stim_20210519_power2amp/equal_lnn_AM2.5Hz_s15_23.m4a,,,
,,,,,,,,,,,,41269,2021-06-01_12h44.01.571,judgeSpeechMusic_20210519_logNormShiftAmp_mXs,2020.1.2,Win32,60,,,,,,,,,,,,,,1,8.9489,,0,1,12,162,6,1,stimuli/stim_20210519_power2amp/equal_lnn_AM1Hz_s15_16.m4a,,,
,,,,,,,,,,,,41269,2021-06-01_12h44.01.571,judgeSpeechMusic_20210519_logNormShiftAmp_mXs,2020.1.2,Win32,60,,,,,,,,,,,,,,2,6.0801,,0,1,13,163,101,1,stimuli/stim_20210519_power2amp/equal_lnn_AM4Hz_s15_40.m4a,,,
,,,,,,,,,,,,41269,2021-06-01_12h44.01.571,judgeSpeechMusic_20210519_logNormShiftAmp_mXs,2020.1.2,Win32,60,,,,,,,,,,,,,,2,5.8763,,0,1,14,164,119,1,stimuli/stim_20210519_power2amp/equal_lnn_AM4Hz_s25_20.m4a,,,
,,,,,,,,,,,,41269,2021-06-01_12h44.01.571,judgeSpeechMusic_20210519_logNormShiftAmp_mXs,2020.1.2,Win32,60,,,,,,,,,,,,,,1,6.2191,,0,1,15,165,102,1,stimuli/stim_20210519_power2amp/equal_lnn_AM4Hz_s15_11.m4a,,,
,,,,,,,,,,,,41269,2021-06-01_12h44.01.571,judgeSpeechMusic_20210519_logNormShiftAmp_mXs,2020.1.2,Win32,60,,,,,,,,,,,,,,1,6.7465,,0,1,16,166,8,1,stimuli/stim_20210519_power2amp/equal_lnn_AM1Hz_s15_35.m4a,,,
,,,,,,,,,,,,41269,2021-06-01_12h44.01.571,judgeSpeechMusic_20210519_logNormShiftAmp_mXs,2020.1.2,Win32,60,,,,,,,,,,,,,,2,6.0787,,0,1,17,167,29,1,stimuli/stim_20210519_power2amp/equal_lnn_AM1Hz_s35_28.m4a,,,
,,,,,,,,,,,,41269,2021-06-01_12h44.01.571,judgeSpeechMusic_20210519_logNormShiftAmp_mXs,2020.1.2,Win32,60,,,,,,,,,,,,,,1,6.1188,,0,1,18,168,25,1,stimuli/stim_20210519_power2amp/equal_lnn_AM1Hz_s35_35.m4a,,,
,,,,,,,,,,,,41269,2021-06-01_12h44.01.571,judgeSpeechMusic_20210519_logNormShiftAmp_mXs,2020.1.2,Win32,60,,,,,,,,,,,,,,1,5.7656,,0,1,19,169,50,1,stimuli/stim_20210519_power2amp/equal_lnn_AM2.5Hz_s15_3.m4a,,,
,,,,,,,,,,,,41269,2021-06-01_12h44.01.571,judgeSpeechMusic_20210519_logNormShiftAmp_mXs,2020.1.2,Win32,60,,,,,,,,,,,,,,2,6.1379,,0,1,20,170,138,1,stimuli/stim_20210519_power2amp/equal_lnn_AM4Hz_s45_7.m4a,,,
,,,,,,,,,,,,41269,2021-06-01_12h44.01.571,judgeSpeechMusic_20210519_logNormShiftAmp_mXs,2020.1.2,Win32,60,,,,,,,,,,,,,,2,6.7583,,0,1,21,171,125,1,stimuli/stim_20210519_power2amp/equal_lnn_AM4Hz_s35_3.m4a,,,
,,,,,,,,,,,,41269,2021-06-01_12h44.01.571,judgeSpeechMusic_20210519_logNormShiftAmp_mXs,2020.1.2,Win32,60,,,,,,,,,,,,,,1,5.9731,,0,1,22,172,68,1,stimuli/stim_20210519_power2amp/equal_lnn_AM2.5Hz_s25_14.m4a,,,
,,,,,,,,,,,,41269,2021-06-01_12h44.01.571,judgeSpeechMusic_20210519_logNormShiftAmp_mXs,2020.1.2,Win32,60,,,,,,,,,,,,,,2,6.7324,,0,1,23,173,18,1,stimuli/stim_20210519_power2amp/equal_lnn_AM1Hz_s25_32.m4a,,,
,,,,,,,,,,,,41269,2021-06-01_12h44.01.571,judgeSpeechMusic_20210519_logNormShiftAmp_mXs,2020.1.2,Win32,60,,,,,,,,,,,,,,1,6.9137,,0,1,24,174,121,1,stimuli/stim_20210519_power2amp/equal_lnn_AM4Hz_s35_48.m4a,,,
,,,,,,,,,,,,41269,2021-06-01_12h44.01.571,judgeSpeechMusic_20210519_logNormShiftAmp_mXs,2020.1.2,Win32,60,,,,,,,,,,,,,,2,8.1972,,0,1,25,175,71,1,stimuli/stim_20210519_power2amp/equal_lnn_AM2.5Hz_s35_25.m4a,,,
,,,,,,,,,,,,41269,2021-06-01_12h44.01.571,judgeSpeechMusic_20210519_logNormShiftAmp_mXs,2020.1.2,Win32,60,,,,,,,,,,,,,,1,5.9986,,0,1,26,176,16,1,stimuli/stim_20210519_power2amp/equal_lnn_AM1Hz_s25_50.m4a,,,
,,,,,,,,,,,,41269,2021-06-01_12h44.01.571,judgeSpeechMusic_20210519_logNormShiftAmp_mXs,2020.1.2,Win32,60,,,,,,,,,,,,,,2,6.2266,,0,1,27,177,92,1,stimuli/stim_20210519_power2amp/equal_lnn_AM2.5Hz_s55_47.m4a,,,
,,,,,,,,,,,,41269,2021-06-01_12h44.01.571,judgeSpeechMusic_20210519_logNormShiftAmp_mXs,2020.1.2,Win32,60,,,,,,,,,,,,,,2,6.0205,,0,1,28,178,90,1,stimuli/stim_20210519_power2amp/equal_lnn_AM2.5Hz_s55_35.m4a,,,
,,,,,,,,,,,,41269,2021-06-01_12h44.01.571,judgeSpeechMusic_20210519_logNormShiftAmp_mXs,2020.1.2,Win32,60,,,,,,,,,,,,,,2,6.9325,,0,1,29,179,98,1,stimuli/stim_20210519_power2amp/equal_lnn_AM2.5Hz_s55_46.m4a,,,
,,,,,,,,,,,,41269,2021-06-01_12h44.01.571,judgeSpeechMusic_20210519_logNormShiftAmp_mXs,2020.1.2,Win32,60,,,,,,,,,,,,,,1,7.4716,,0,1,30,180,131,1,stimuli/stim_20210519_power2amp/equal_lnn_AM4Hz_s45_1.m4a,,,
,,,,,,,,,,,,41269,2021-06-01_12h44.01.571,judgeSpeechMusic_20210519_logNormShiftAmp_mXs,2020.1.2,Win32,60,,,,,,,,,,,,,,1,5.8163,2,1,1,31,181,27,1,stimuli/stim_20210519_power2amp/equal_lnn_AM1Hz_s35_27.m4a,0.3688,,
,,,,,,,,,,,,41269,2021-06-01_12h44.01.571,judgeSpeechMusic_20210519_logNormShiftAmp_mXs,2020.1.2,Win32,60,,,,,,,,,,,,,,1,5.7661,,0,1,32,182,114,1,stimuli/stim_20210519_power2amp/equal_lnn_AM4Hz_s25_33.m4a,,,
,,,,,,,,,,,,41269,2021-06-01_12h44.01.571,judgeSpeechMusic_20210519_logNormShiftAmp_mXs,2020.1.2,Win32,60,,,,,,,,,,,,,,2,7.2426,,0,1,33,183,39,1,stimuli/stim_20210519_power2amp/equal_lnn_AM1Hz_s45_26.m4a,,,
,,,,,,,,,,,,41269,2021-06-01_12h44.01.571,judgeSpeechMusic_20210519_logNormShiftAmp_mXs,2020.1.2,Win32,60,,,,,,,,,,,,,,2,6.5529,,0,1,34,184,149,1,stimuli/stim_20210519_power2amp/equal_lnn_AM4Hz_s55_38.m4a,,,
,,,,,,,,,,,,41269,2021-06-01_12h44.01.571,judgeSpeechMusic_20210519_logNormShiftAmp_mXs,2020.1.2,Win32,60,,,,,,,,,,,,,,1,6.0584,,0,1,35,185,77,1,stimuli/stim_20210519_power2amp/equal_lnn_AM2.5Hz_s35_6.m4a,,,
,,,,,,,,,,,,41269,2021-06-01_12h44.01.571,judgeSpeechMusic_20210519_logNormShiftAmp_mXs,2020.1.2,Win32,60,,,,,,,,,,,,,,1,6.4183,,0,1,36,186,130,1,stimuli/stim_20210519_power2amp/equal_lnn_AM4Hz_s45_16.m4a,,,
,,,,,,,,,,,,41269,2021-06-01_12h44.01.571,judgeSpeechMusic_20210519_logNormShiftAmp_mXs,2020.1.2,Win32,60,,,,,,,,,,,,,,2,7.1292,,0,1,37,187,95,1,stimuli/stim_20210519_power2amp/equal_lnn_AM2.5Hz_s55_15.m4a,,,
,,,,,,,,,,,,41269,2021-06-01_12h44.01.571,judgeSpeechMusic_20210519_logNormShiftAmp_mXs,2020.1.2,Win32,60,,,,,,,,,,,,,,2,6.0995,,0,1,38,188,128,1,stimuli/stim_20210519_power2amp/equal_lnn_AM4Hz_s35_22.m4a,,,
,,,,,,,,,,,,41269,2021-06-01_12h44.01.571,judgeSpeechMusic_20210519_logNormShiftAmp_mXs,2020.1.2,Win32,60,,,,,,,,,,,,,,1,5.8305,,0,1,39,189,141,1,stimuli/stim_20210519_power2amp/equal_lnn_AM4Hz_s55_1.m4a,,,
,,,,,,,,,,,,41269,2021-06-01_12h44.01.571,judgeSpeechMusic_20210519_logNormShiftAmp_mXs,2020.1.2,Win32,60,,,,,,,,,,,,,,2,6.4945,,0,1,40,190,42,1,stimuli/stim_20210519_power2amp/equal_lnn_AM1Hz_s55_7.m4a,,,
,,,,,,,,,,,,41269,2021-06-01_12h44.01.571,judgeSpeechMusic_20210519_logNormShiftAmp_mXs,2020.1.2,Win32,60,,,,,,,,,,,,,,1,6.0254,,0,1,41,191,72,1,stimuli/stim_20210519_power2amp/equal_lnn_AM2.5Hz_s35_28.m4a,,,
,,,,,,,,,,,,41269,2021-06-01_12h44.01.571,judgeSpeechMusic_20210519_logNormShiftAmp_mXs,2020.1.2,Win32,60,,,,,,,,,,,,,,1,5.7396,,0,1,42,192,40,1,stimuli/stim_20210519_power2amp/equal_lnn_AM1Hz_s55_33.m4a,,,
,,,,,,,,,,,,41269,2021-06-01_12h44.01.571,judgeSpeechMusic_20210519_logNormShiftAmp_mXs,2020.1.2,Win32,60,,,,,,,,,,,,,,1,6.6819,,0,1,43,193,31,1,stimuli/stim_20210519_power2amp/equal_lnn_AM1Hz_s45_17.m4a,,,
,,,,,,,,,,,,41269,2021-06-01_12h44.01.571,judgeSpeechMusic_20210519_logNormShiftAmp_mXs,2020.1.2,Win32,60,,,,,,,,,,,,,,1,9.7939,,0,1,44,194,32,1,stimuli/stim_20210519_power2amp/equal_lnn_AM1Hz_s45_12.m4a,,,
,,,,,,,,,,,,41269,2021-06-01_12h44.01.571,judgeSpeechMusic_20210519_logNormShiftAmp_mXs,2020.1.2,Win32,60,,,,,,,,,,,,,,1,5.7652,,0,1,45,195,117,1,stimuli/stim_20210519_power2amp/equal_lnn_AM4Hz_s25_17.m4a,,,
,,,,,,,,,,,,41269,2021-06-01_12h44.01.571,judgeSpeechMusic_20210519_logNormShiftAmp_mXs,2020.1.2,Win32,60,,,,,,,,,,,,,,2,6.0972,,0,1,46,196,19,1,stimuli/stim_20210519_power2amp/equal_lnn_AM1Hz_s25_29.m4a,,,
,,,,,,,,,,,,41269,2021-06-01_12h44.01.571,judgeSpeechMusic_20210519_logNormShiftAmp_mXs,2020.1.2,Win32,60,,,,,,,,,,,,,,2,6.0595,,0,1,47,197,73,1,stimuli/stim_20210519_power2amp/equal_lnn_AM2.5Hz_s35_7.m4a,,,
,,,,,,,,,,,,41269,2021-06-01_12h44.01.571,judgeSpeechMusic_20210519_logNormShiftAmp_mXs,2020.1.2,Win32,60,,,,,,,,,,,,,,2,6.4105,,0,1,48,198,108,1,stimuli/stim_20210519_power2amp/equal_lnn_AM4Hz_s15_21.m4a,,,
,,,,,,,,,,,,41269,2021-06-01_12h44.01.571,judgeSpeechMusic_20210519_logNormShiftAmp_mXs,2020.1.2,Win32,60,,,,,,,,,,,,,,1,6.927,,0,1,49,199,78,1,stimuli/stim_20210519_power2amp/equal_lnn_AM2.5Hz_s35_38.m4a,,,
,,,,,,,,,,,,41269,2021-06-01_12h44.01.571,judgeSpeechMusic_20210519_logNormShiftAmp_mXs,2020.1.2,Win32,60,,,,,,,,,,,,,,2,5.9151,,0,1,50,200,113,1,stimuli/stim_20210519_power2amp/equal_lnn_AM4Hz_s25_14.m4a,,,
,,,,,,,,,,,,41269,2021-06-01_12h44.01.571,judgeSpeechMusic_20210519_logNormShiftAmp_mXs,2020.1.2,Win32,60,,,,,,,,,,,,,,2,6.0534,,0,1,51,201,99,1,stimuli/stim_20210519_power2amp/equal_lnn_AM2.5Hz_s55_38.m4a,,,
,,,,,,,,,,,,41269,2021-06-01_12h44.01.571,judgeSpeechMusic_20210519_logNormShiftAmp_mXs,2020.1.2,Win32,60,,,,,,,,,,,,,,1,5.9603,,0,1,52,202,49,1,stimuli/stim_20210519_power2amp/equal_lnn_AM1Hz_s55_23.m4a,,,
,,,,,,,,,,,,41269,2021-06-01_12h44.01.571,judgeSpeechMusic_20210519_logNormShiftAmp_mXs,2020.1.2,Win32,60,,,,,,,,,,,,,,2,6.0484,,0,1,53,203,52,1,stimuli/stim_20210519_power2amp/equal_lnn_AM2.5Hz_s15_36.m4a,,,
,,,,,,,,,,,,41269,2021-06-01_12h44.01.571,judgeSpeechMusic_20210519_logNormShiftAmp_mXs,2020.1.2,Win32,60,,,,,,,,,,,,,,1,5.8639,,0,1,54,204,53,1,stimuli/stim_20210519_power2amp/equal_lnn_AM2.5Hz_s15_8.m4a,,,
,,,,,,,,,,,,41269,2021-06-01_12h44.01.571,judgeSpeechMusic_20210519_logNormShiftAmp_mXs,2020.1.2,Win32,60,,,,,,,,,,,,,,1,5.7804,3,1,1,55,205,58,1,stimuli/stim_20210519_power2amp/equal_lnn_AM2.5Hz_s15_32.m4a,1.4014,,
,,,,,,,,,,,,41269,2021-06-01_12h44.01.571,judgeSpeechMusic_20210519_logNormShiftAmp_mXs,2020.1.2,Win32,60,,,,,,,,,,,,,,2,7.8306,,0,1,56,206,94,1,stimuli/stim_20210519_power2amp/equal_lnn_AM2.5Hz_s55_34.m4a,,,
,,,,,,,,,,,,41269,2021-06-01_12h44.01.571,judgeSpeechMusic_20210519_logNormShiftAmp_mXs,2020.1.2,Win32,60,,,,,,,,,,,,,,1,5.9445,,0,1,57,207,140,1,stimuli/stim_20210519_power2amp/equal_lnn_AM4Hz_s55_8.m4a,,,
,,,,,,,,,,,,41269,2021-06-01_12h44.01.571,judgeSpeechMusic_20210519_logNormShiftAmp_mXs,2020.1.2,Win32,60,,,,,,,,,,,,,,2,6.0995,,0,1,58,208,116,1,stimuli/stim_20210519_power2amp/equal_lnn_AM4Hz_s25_41.m4a,,,
,,,,,,,,,,,,41269,2021-06-01_12h44.01.571,judgeSpeechMusic_20210519_logNormShiftAmp_mXs,2020.1.2,Win32,60,,,,,,,,,,,,,,2,6.0962,,0,1,59,209,91,1,stimuli/stim_20210519_power2amp/equal_lnn_AM2.5Hz_s55_11.m4a,,,
,,,,,,,,,,,,41269,2021-06-01_12h44.01.571,judgeSpeechMusic_20210519_logNormShiftAmp_mXs,2020.1.2,Win32,60,,,,,,,,,,,,,,2,6.0818,,0,1,60,210,135,1,stimuli/stim_20210519_power2amp/equal_lnn_AM4Hz_s45_20.m4a,,,
,,,,,,,,,,,,41269,2021-06-01_12h44.01.571,judgeSpeechMusic_20210519_logNormShiftAmp_mXs,2020.1.2,Win32,60,,,,,,,,,,,,,,2,6.1803,,0,1,61,211,46,1,stimuli/stim_20210519_power2amp/equal_lnn_AM1Hz_s55_43.m4a,,,
,,,,,,,,,,,,41269,2021-06-01_12h44.01.571,judgeSpeechMusic_20210519_logNormShiftAmp_mXs,2020.1.2,Win32,60,,,,,,,,,,,,,,1,5.8641,,0,1,62,212,122,1,stimuli/stim_20210519_power2amp/equal_lnn_AM4Hz_s35_7.m4a,,,
,,,,,,,,,,,,41269,2021-06-01_12h44.01.571,judgeSpeechMusic_20210519_logNormShiftAmp_mXs,2020.1.2,Win32,60,,,,,,,,,,,,,,1,6.6133,,0,1,63,213,79,1,stimuli/stim_20210519_power2amp/equal_lnn_AM2.5Hz_s35_32.m4a,,,
,,,,,,,,,,,,41269,2021-06-01_12h44.01.571,judgeSpeechMusic_20210519_logNormShiftAmp_mXs,2020.1.2,Win32,60,,,,,,,,,,,,,,1,5.8494,,0,1,64,214,54,1,stimuli/stim_20210519_power2amp/equal_lnn_AM2.5Hz_s15_28.m4a,,,
,,,,,,,,,,,,41269,2021-06-01_12h44.01.571,judgeSpeechMusic_20210519_logNormShiftAmp_mXs,2020.1.2,Win32,60,,,,,,,,,,,,,,2,5.875,,0,1,65,215,45,1,stimuli/stim_20210519_power2amp/equal_lnn_AM1Hz_s55_32.m4a,,,
,,,,,,,,,,,,41269,2021-06-01_12h44.01.571,judgeSpeechMusic_20210519_logNormShiftAmp_mXs,2020.1.2,Win32,60,,,,,,,,,,,,,,2,6.6004,,0,1,66,216,62,1,stimuli/stim_20210519_power2amp/equal_lnn_AM2.5Hz_s25_42.m4a,,,
,,,,,,,,,,,,41269,2021-06-01_12h44.01.571,judgeSpeechMusic_20210519_logNormShiftAmp_mXs,2020.1.2,Win32,60,,,,,,,,,,,,,,1,5.8741,,0,1,67,217,5,1,stimuli/stim_20210519_power2amp/equal_lnn_AM1Hz_s15_30.m4a,,,
,,,,,,,,,,,,41269,2021-06-01_12h44.01.571,judgeSpeechMusic_20210519_logNormShiftAmp_mXs,2020.1.2,Win32,60,,,,,,,,,,,,,,1,5.8402,,0,1,68,218,100,1,stimuli/stim_20210519_power2amp/equal_lnn_AM4Hz_s15_13.m4a,,,
,,,,,,,,,,,,41269,2021-06-01_12h44.01.571,judgeSpeechMusic_20210519_logNormShiftAmp_mXs,2020.1.2,Win32,60,,,,,,,,,,,,,,2,6.66,,0,1,69,219,56,1,stimuli/stim_20210519_power2amp/equal_lnn_AM2.5Hz_s15_25.m4a,,,
,,,,,,,,,,,,41269,2021-06-01_12h44.01.571,judgeSpeechMusic_20210519_logNormShiftAmp_mXs,2020.1.2,Win32,60,,,,,,,,,,,,,,1,7.9634,,0,1,70,220,1,1,stimuli/stim_20210519_power2amp/equal_lnn_AM1Hz_s15_15.m4a,,,
,,,,,,,,,,,,41269,2021-06-01_12h44.01.571,judgeSpeechMusic_20210519_logNormShiftAmp_mXs,2020.1.2,Win32,60,,,,,,,,,,,,,,1,5.7857,,0,1,71,221,69,1,stimuli/stim_20210519_power2amp/equal_lnn_AM2.5Hz_s25_30.m4a,,,
,,,,,,,,,,,,41269,2021-06-01_12h44.01.571,judgeSpeechMusic_20210519_logNormShiftAmp_mXs,2020.1.2,Win32,60,,,,,,,,,,,,,,1,6.9992,,0,1,72,222,26,1,stimuli/stim_20210519_power2amp/equal_lnn_AM1Hz_s35_26.m4a,,,
,,,,,,,,,,,,41269,2021-06-01_12h44.01.571,judgeSpeechMusic_20210519_logNormShiftAmp_mXs,2020.1.2,Win32,60,,,,,,,,,,,,,,1,6.0898,,0,1,73,223,3,1,stimuli/stim_20210519_power2amp/equal_lnn_AM1Hz_s15_14.m4a,,,
,,,,,,,,,,,,41269,2021-06-01_12h44.01.571,judgeSpeechMusic_20210519_logNormShiftAmp_mXs,2020.1.2,Win32,60,,,,,,,,,,,,,,2,5.849,,0,1,74,224,75,1,stimuli/stim_20210519_power2amp/equal_lnn_AM2.5Hz_s35_26.m4a,,,
,,,,,,,,,,,,41269,2021-06-01_12h44.01.571,judgeSpeechMusic_20210519_logNormShiftAmp_mXs,2020.1.2,Win32,60,,,,,,,,,,,,,,2,8.9303,,0,1,75,225,142,1,stimuli/stim_20210519_power2amp/equal_lnn_AM4Hz_s55_12.m4a,,,
,,,,,,,,,,,,41269,2021-06-01_12h44.01.571,judgeSpeechMusic_20210519_logNormShiftAmp_mXs,2020.1.2,Win32,60,,,,,,,,,,,,,,2,5.8636,,0,1,76,226,48,1,stimuli/stim_20210519_power2amp/equal_lnn_AM1Hz_s55_31.m4a,,,
,,,,,,,,,,,,41269,2021-06-01_12h44.01.571,judgeSpeechMusic_20210519_logNormShiftAmp_mXs,2020.1.2,Win32,60,,,,,,,,,,,,,,2,5.9867,3,1,1,77,227,60,1,stimuli/stim_20210519_power2amp/equal_lnn_AM2.5Hz_s25_29.m4a,1.8737,,
,,,,,,,,,,,,41269,2021-06-01_12h44.01.571,judgeSpeechMusic_20210519_logNormShiftAmp_mXs,2020.1.2,Win32,60,,,,,,,,,,,,,,1,6.5719,,0,1,78,228,4,1,stimuli/stim_20210519_power2amp/equal_lnn_AM1Hz_s15_22.m4a,,,
,,,,,,,,,,,,41269,2021-06-01_12h44.01.571,judgeSpeechMusic_20210519_logNormShiftAmp_mXs,2020.1.2,Win32,60,,,,,,,,,,,,,,1,6.2822,,0,1,79,229,89,1,stimuli/stim_20210519_power2amp/equal_lnn_AM2.5Hz_s45_50.m4a,,,
,,,,,,,,,,,,41269,2021-06-01_12h44.01.571,judgeSpeechMusic_20210519_logNormShiftAmp_mXs,2020.1.2,Win32,60,,,,,,,,,,,,,,2,6.7478,,0,1,80,230,37,1,stimuli/stim_20210519_power2amp/equal_lnn_AM1Hz_s45_32.m4a,,,
,,,,,,,,,,,,41269,2021-06-01_12h44.01.571,judgeSpeechMusic_20210519_logNormShiftAmp_mXs,2020.1.2,Win32,60,,,,,,,,,,,,,,1,5.9472,,0,1,81,231,134,1,stimuli/stim_20210519_power2amp/equal_lnn_AM4Hz_s45_50.m4a,,,
,,,,,,,,,,,,41269,2021-06-01_12h44.01.571,judgeSpeechMusic_20210519_logNormShiftAmp_mXs,2020.1.2,Win32,60,,,,,,,,,,,,,,2,6.4988,,0,1,82,232,38,1,stimuli/stim_20210519_power2amp/equal_lnn_AM1Hz_s45_25.m4a,,,
,,,,,,,,,,,,41269,2021-06-01_12h44.01.571,judgeSpeechMusic_20210519_logNormShiftAmp_mXs,2020.1.2,Win32,60,,,,,,,,,,,,,,1,6.4644,,0,1,83,233,15,1,stimuli/stim_20210519_power2amp/equal_lnn_AM1Hz_s25_27.m4a,,,
,,,,,,,,,,,,41269,2021-06-01_12h44.01.571,judgeSpeechMusic_20210519_logNormShiftAmp_mXs,2020.1.2,Win32,60,,,,,,,,,,,,,,1,5.9475,,0,1,84,234,12,1,stimuli/stim_20210519_power2amp/equal_lnn_AM1Hz_s25_7.m4a,,,
,,,,,,,,,,,,41269,2021-06-01_12h44.01.571,judgeSpeechMusic_20210519_logNormShiftAmp_mXs,2020.1.2,Win32,60,,,,,,,,,,,,,,1,5.8804,,0,1,85,235,82,1,stimuli/stim_20210519_power2amp/equal_lnn_AM2.5Hz_s45_8.m4a,,,
,,,,,,,,,,,,41269,2021-06-01_12h44.01.571,judgeSpeechMusic_20210519_logNormShiftAmp_mXs,2020.1.2,Win32,60,,,,,,,,,,,,,,1,6.0472,,0,1,86,236,66,1,stimuli/stim_20210519_power2amp/equal_lnn_AM2.5Hz_s25_37.m4a,,,
,,,,,,,,,,,,41269,2021-06-01_12h44.01.571,judgeSpeechMusic_20210519_logNormShiftAmp_mXs,2020.1.2,Win32,60,,,,,,,,,,,,,,2,5.8659,,0,1,87,237,120,1,stimuli/stim_20210519_power2amp/equal_lnn_AM4Hz_s35_26.m4a,,,
,,,,,,,,,,,,41269,2021-06-01_12h44.01.571,judgeSpeechMusic_20210519_logNormShiftAmp_mXs,2020.1.2,Win32,60,,,,,,,,,,,,,,2,5.6577,,0,1,88,238,148,1,stimuli/stim_20210519_power2amp/equal_lnn_AM4Hz_s55_40.m4a,,,
,,,,,,,,,,,,41269,2021-06-01_12h44.01.571,judgeSpeechMusic_20210519_logNormShiftAmp_mXs,2020.1.2,Win32,60,,,,,,,,,,,,,,2,5.9029,,0,1,89,239,34,1,stimuli/stim_20210519_power2amp/equal_lnn_AM1Hz_s45_27.m4a,,,
,,,,,,,,,,,,41269,2021-06-01_12h44.01.571,judgeSpeechMusic_20210519_logNormShiftAmp_mXs,2020.1.2,Win32,60,,,,,,,,,,,,,,1,6.0878,,0,1,90,240,61,1,stimuli/stim_20210519_power2amp/equal_lnn_AM2.5Hz_s25_4.m4a,,,
,,,,,,,,,,,,41269,2021-06-01_12h44.01.571,judgeSpeechMusic_20210519_logNormShiftAmp_mXs,2020.1.2,Win32,60,,,,,,,,,,,,,,1,5.9661,,0,1,91,241,86,1,stimuli/stim_20210519_power2amp/equal_lnn_AM2.5Hz_s45_17.m4a,,,
,,,,,,,,,,,,41269,2021-06-01_12h44.01.571,judgeSpeechMusic_20210519_logNormShiftAmp_mXs,2020.1.2,Win32,60,,,,,,,,,,,,,,1,5.7975,,0,1,92,242,144,1,stimuli/stim_20210519_power2amp/equal_lnn_AM4Hz_s55_23.m4a,,,
,,,,,,,,,,,,41269,2021-06-01_12h44.01.571,judgeSpeechMusic_20210519_logNormShiftAmp_mXs,2020.1.2,Win32,60,,,,,,,,,,,,,,1,5.699,,0,1,93,243,110,1,stimuli/stim_20210519_power2amp/equal_lnn_AM4Hz_s25_26.m4a,,,
,,,,,,,,,,,,41269,2021-06-01_12h44.01.571,judgeSpeechMusic_20210519_logNormShiftAmp_mXs,2020.1.2,Win32,60,,,,,,,,,,,,,,2,7.4475,,0,1,94,244,20,1,stimuli/stim_20210519_power2amp/equal_lnn_AM1Hz_s35_17.m4a,,,
,,,,,,,,,,,,41269,2021-06-01_12h44.01.571,judgeSpeechMusic_20210519_logNormShiftAmp_mXs,2020.1.2,Win32,60,,,,,,,,,,,,,,2,7.1986,,0,1,95,245,70,1,stimuli/stim_20210519_power2amp/equal_lnn_AM2.5Hz_s35_34.m4a,,,
,,,,,,,,,,,,41269,2021-06-01_12h44.01.571,judgeSpeechMusic_20210519_logNormShiftAmp_mXs,2020.1.2,Win32,60,,,,,,,,,,,,,,2,8.0642,,0,1,96,246,0,1,stimuli/stim_20210519_power2amp/equal_lnn_AM1Hz_s15_13.m4a,,,
,,,,,,,,,,,,41269,2021-06-01_12h44.01.571,judgeSpeechMusic_20210519_logNormShiftAmp_mXs,2020.1.2,Win32,60,,,,,,,,,,,,,,2,5.816,,0,1,97,247,65,1,stimuli/stim_20210519_power2amp/equal_lnn_AM2.5Hz_s25_44.m4a,,,
,,,,,,,,,,,,41269,2021-06-01_12h44.01.571,judgeSpeechMusic_20210519_logNormShiftAmp_mXs,2020.1.2,Win32,60,,,,,,,,,,,,,,1,5.6993,,0,1,98,248,28,1,stimuli/stim_20210519_power2amp/equal_lnn_AM1Hz_s35_1.m4a,,,
,,,,,,,,,,,,41269,2021-06-01_12h44.01.571,judgeSpeechMusic_20210519_logNormShiftAmp_mXs,2020.1.2,Win32,60,,,,,,,,,,,,,,1,5.9662,,0,1,99,249,124,1,stimuli/stim_20210519_power2amp/equal_lnn_AM4Hz_s35_38.m4a,,,
,,,,,,,,,,,,41269,2021-06-01_12h44.01.571,judgeSpeechMusic_20210519_logNormShiftAmp_mXs,2020.1.2,Win32,60,,,,,,,,,,,,,,2,6.3009,,0,1,100,250,146,1,stimuli/stim_20210519_power2amp/equal_lnn_AM4Hz_s55_42.m4a,,,
,,,,,,,,,,,,41269,2021-06-01_12h44.01.571,judgeSpeechMusic_20210519_logNormShiftAmp_mXs,2020.1.2,Win32,60,,,,,,,,,,,,,,2,5.8612,,0,1,101,251,147,1,stimuli/stim_20210519_power2amp/equal_lnn_AM4Hz_s55_17.m4a,,,
,,,,,,,,,,,,41269,2021-06-01_12h44.01.571,judgeSpeechMusic_20210519_logNormShiftAmp_mXs,2020.1.2,Win32,60,,,,,,,,,,,,,,2,6.1357,3,1,1,102,252,107,1,stimuli/stim_20210519_power2amp/equal_lnn_AM4Hz_s15_41.m4a,1.123,,
,,,,,,,,,,,,41269,2021-06-01_12h44.01.571,judgeSpeechMusic_20210519_logNormShiftAmp_mXs,2020.1.2,Win32,60,,,,,,,,,,,,,,1,5.8321,,0,1,103,253,43,1,stimuli/stim_20210519_power2amp/equal_lnn_AM1Hz_s55_20.m4a,,,
,,,,,,,,,,,,41269,2021-06-01_12h44.01.571,judgeSpeechMusic_20210519_logNormShiftAmp_mXs,2020.1.2,Win32,60,,,,,,,,,,,,,,2,6.2662,,0,1,104,254,115,1,stimuli/stim_20210519_power2amp/equal_lnn_AM4Hz_s25_1.m4a,,,
,,,,,,,,,,,,41269,2021-06-01_12h44.01.571,judgeSpeechMusic_20210519_logNormShiftAmp_mXs,2020.1.2,Win32,60,,,,,,,,,,,,,,2,6.3963,,0,1,105,255,129,1,stimuli/stim_20210519_power2amp/equal_lnn_AM4Hz_s35_10.m4a,,,
,,,,,,,,,,,,41269,2021-06-01_12h44.01.571,judgeSpeechMusic_20210519_logNormShiftAmp_mXs,2020.1.2,Win32,60,,,,,,,,,,,,,,1,5.6725,,0,1,106,256,105,1,stimuli/stim_20210519_power2amp/equal_lnn_AM4Hz_s15_17.m4a,,,
,,,,,,,,,,,,41269,2021-06-01_12h44.01.571,judgeSpeechMusic_20210519_logNormShiftAmp_mXs,2020.1.2,Win32,60,,,,,,,,,,,,,,2,6.4251,,0,1,107,257,106,1,stimuli/stim_20210519_power2amp/equal_lnn_AM4Hz_s15_37.m4a,,,
,,,,,,,,,,,,41269,2021-06-01_12h44.01.571,judgeSpeechMusic_20210519_logNormShiftAmp_mXs,2020.1.2,Win32,60,,,,,,,,,,,,,,2,6.0334,,0,1,108,258,132,1,stimuli/stim_20210519_power2amp/equal_lnn_AM4Hz_s45_13.m4a,,,
,,,,,,,,,,,,41269,2021-06-01_12h44.01.571,judgeSpeechMusic_20210519_logNormShiftAmp_mXs,2020.1.2,Win32,60,,,,,,,,,,,,,,1,6.2273,,0,1,109,259,88,1,stimuli/stim_20210519_power2amp/equal_lnn_AM2.5Hz_s45_4.m4a,,,
,,,,,,,,,,,,41269,2021-06-01_12h44.01.571,judgeSpeechMusic_20210519_logNormShiftAmp_mXs,2020.1.2,Win32,60,,,,,,,,,,,,,,2,5.7916,,0,1,110,260,64,1,stimuli/stim_20210519_power2amp/equal_lnn_AM2.5Hz_s25_21.m4a,,,
,,,,,,,,,,,,41269,2021-06-01_12h44.01.571,judgeSpeechMusic_20210519_logNormShiftAmp_mXs,2020.1.2,Win32,60,,,,,,,,,,,,,,2,6.6902,,0,1,111,261,36,1,stimuli/stim_20210519_power2amp/equal_lnn_AM1Hz_s45_39.m4a,,,
,,,,,,,,,,,,41269,2021-06-01_12h44.01.571,judgeSpeechMusic_20210519_logNormShiftAmp_mXs,2020.1.2,Win32,60,,,,,,,,,,,,,,1,5.8829,,0,1,112,262,145,1,stimuli/stim_20210519_power2amp/equal_lnn_AM4Hz_s55_33.m4a,,,
,,,,,,,,,,,,41269,2021-06-01_12h44.01.571,judgeSpeechMusic_20210519_logNormShiftAmp_mXs,2020.1.2,Win32,60,,,,,,,,,,,,,,1,5.6716,,0,1,113,263,87,1,stimuli/stim_20210519_power2amp/equal_lnn_AM2.5Hz_s45_37.m4a,,,
,,,,,,,,,,,,41269,2021-06-01_12h44.01.571,judgeSpeechMusic_20210519_logNormShiftAmp_mXs,2020.1.2,Win32,60,,,,,,,,,,,,,,1,7.8524,,0,1,114,264,47,1,stimuli/stim_20210519_power2amp/equal_lnn_AM1Hz_s55_4.m4a,,,
,,,,,,,,,,,,41269,2021-06-01_12h44.01.571,judgeSpeechMusic_20210519_logNormShiftAmp_mXs,2020.1.2,Win32,60,,,,,,,,,,,,,,2,6.2104,,0,1,115,265,44,1,stimuli/stim_20210519_power2amp/equal_lnn_AM1Hz_s55_45.m4a,,,
,,,,,,,,,,,,41269,2021-06-01_12h44.01.571,judgeSpeechMusic_20210519_logNormShiftAmp_mXs,2020.1.2,Win32,60,,,,,,,,,,,,,,2,6.6824,,0,1,116,266,17,1,stimuli/stim_20210519_power2amp/equal_lnn_AM1Hz_s25_20.m4a,,,
,,,,,,,,,,,,41269,2021-06-01_12h44.01.571,judgeSpeechMusic_20210519_logNormShiftAmp_mXs,2020.1.2,Win32,60,,,,,,,,,,,,,,2,6.9595,,0,1,117,267,93,1,stimuli/stim_20210519_power2amp/equal_lnn_AM2.5Hz_s55_40.m4a,,,
,,,,,,,,,,,,41269,2021-06-01_12h44.01.571,judgeSpeechMusic_20210519_logNormShiftAmp_mXs,2020.1.2,Win32,60,,,,,,,,,,,,,,1,8.0289,,0,1,118,268,22,1,stimuli/stim_20210519_power2amp/equal_lnn_AM1Hz_s35_18.m4a,,,
,,,,,,,,,,,,41269,2021-06-01_12h44.01.571,judgeSpeechMusic_20210519_logNormShiftAmp_mXs,2020.1.2,Win32,60,,,,,,,,,,,,,,2,6.6349,,0,1,119,269,2,1,stimuli/stim_20210519_power2amp/equal_lnn_AM1Hz_s15_11.m4a,,,
,,,,,,,,,,,,41269,2021-06-01_12h44.01.571,judgeSpeechMusic_20210519_logNormShiftAmp_mXs,2020.1.2,Win32,60,,,,,,,,,,,,,,1,6.2829,,0,1,120,270,74,1,stimuli/stim_20210519_power2amp/equal_lnn_AM2.5Hz_s35_10.m4a,,,
,,,,,,,,,,,,41269,2021-06-01_12h44.01.571,judgeSpeechMusic_20210519_logNormShiftAmp_mXs,2020.1.2,Win32,60,,,,,,,,,,,,,,1,5.8471,,0,1,121,271,10,1,stimuli/stim_20210519_power2amp/equal_lnn_AM1Hz_s25_6.m4a,,,
,,,,,,,,,,,,41269,2021-06-01_12h44.01.571,judgeSpeechMusic_20210519_logNormShiftAmp_mXs,2020.1.2,Win32,60,,,,,,,,,,,,,,1,5.656,,0,1,122,272,103,1,stimuli/stim_20210519_power2amp/equal_lnn_AM4Hz_s15_3.m4a,,,
,,,,,,,,,,,,41269,2021-06-01_12h44.01.571,judgeSpeechMusic_20210519_logNormShiftAmp_mXs,2020.1.2,Win32,60,,,,,,,,,,,,,,1,6.6801,2,1,1,123,273,9,1,stimuli/stim_20210519_power2amp/equal_lnn_AM1Hz_s15_45.m4a,0.3481,,
,,,,,,,,,,,,41269,2021-06-01_12h44.01.571,judgeSpeechMusic_20210519_logNormShiftAmp_mXs,2020.1.2,Win32,60,,,,,,,,,,,,,,1,5.9264,,0,1,124,274,67,1,stimuli/stim_20210519_power2amp/equal_lnn_AM2.5Hz_s25_12.m4a,,,
,,,,,,,,,,,,41269,2021-06-01_12h44.01.571,judgeSpeechMusic_20210519_logNormShiftAmp_mXs,2020.1.2,Win32,60,,,,,,,,,,,,,,1,6.2266,,0,1,125,275,123,1,stimuli/stim_20210519_power2amp/equal_lnn_AM4Hz_s35_34.m4a,,,
,,,,,,,,,,,,41269,2021-06-01_12h44.01.571,judgeSpeechMusic_20210519_logNormShiftAmp_mXs,2020.1.2,Win32,60,,,,,,,,,,,,,,2,7.4664,,0,1,126,276,55,1,stimuli/stim_20210519_power2amp/equal_lnn_AM2.5Hz_s15_22.m4a,,,
,,,,,,,,,,,,41269,2021-06-01_12h44.01.571,judgeSpeechMusic_20210519_logNormShiftAmp_mXs,2020.1.2,Win32,60,,,,,,,,,,,,,,2,6.145,,0,1,127,277,127,1,stimuli/stim_20210519_power2amp/equal_lnn_AM4Hz_s35_9.m4a,,,
,,,,,,,,,,,,41269,2021-06-01_12h44.01.571,judgeSpeechMusic_20210519_logNormShiftAmp_mXs,2020.1.2,Win32,60,,,,,,,,,,,,,,1,6.5333,,0,1,128,278,111,1,stimuli/stim_20210519_power2amp/equal_lnn_AM4Hz_s25_44.m4a,,,
,,,,,,,,,,,,41269,2021-06-01_12h44.01.571,judgeSpeechMusic_20210519_logNormShiftAmp_mXs,2020.1.2,Win32,60,,,,,,,,,,,,,,1,6.6695,,0,1,129,279,59,1,stimuli/stim_20210519_power2amp/equal_lnn_AM2.5Hz_s15_4.m4a,,,
,,,,,,,,,,,,41269,2021-06-01_12h44.01.571,judgeSpeechMusic_20210519_logNormShiftAmp_mXs,2020.1.2,Win32,60,,,,,,,,,,,,,,1,6.3205,,0,1,130,280,112,1,stimuli/stim_20210519_power2amp/equal_lnn_AM4Hz_s25_39.m4a,,,
,,,,,,,,,,,,41269,2021-06-01_12h44.01.571,judgeSpeechMusic_20210519_logNormShiftAmp_mXs,2020.1.2,Win32,60,,,,,,,,,,,,,,2,5.6325,,0,1,131,281,97,1,stimuli/stim_20210519_power2amp/equal_lnn_AM2.5Hz_s55_29.m4a,,,
,,,,,,,,,,,,41269,2021-06-01_12h44.01.571,judgeSpeechMusic_20210519_logNormShiftAmp_mXs,2020.1.2,Win32,60,,,,,,,,,,,,,,1,5.969,,0,1,132,282,80,1,stimuli/stim_20210519_power2amp/equal_lnn_AM2.5Hz_s45_19.m4a,,,
,,,,,,,,,,,,41269,2021-06-01_12h44.01.571,judgeSpeechMusic_20210519_logNormShiftAmp_mXs,2020.1.2,Win32,60,,,,,,,,,,,,,,1,5.6782,,0,1,133,283,23,1,stimuli/stim_20210519_power2amp/equal_lnn_AM1Hz_s35_3.m4a,,,
,,,,,,,,,,,,41269,2021-06-01_12h44.01.571,judgeSpeechMusic_20210519_logNormShiftAmp_mXs,2020.1.2,Win32,60,,,,,,,,,,,,,,2,7.0491,,0,1,134,284,83,1,stimuli/stim_20210519_power2amp/equal_lnn_AM2.5Hz_s45_22.m4a,,,
,,,,,,,,,,,,41269,2021-06-01_12h44.01.571,judgeSpeechMusic_20210519_logNormShiftAmp_mXs,2020.1.2,Win32,60,,,,,,,,,,,,,,1,5.6387,,0,1,135,285,109,1,stimuli/stim_20210519_power2amp/equal_lnn_AM4Hz_s15_10.m4a,,,
,,,,,,,,,,,,41269,2021-06-01_12h44.01.571,judgeSpeechMusic_20210519_logNormShiftAmp_mXs,2020.1.2,Win32,60,,,,,,,,,,,,,,2,5.6184,,0,1,136,286,126,1,stimuli/stim_20210519_power2amp/equal_lnn_AM4Hz_s35_17.m4a,,,
,,,,,,,,,,,,41269,2021-06-01_12h44.01.571,judgeSpeechMusic_20210519_logNormShiftAmp_mXs,2020.1.2,Win32,60,,,,,,,,,,,,,,1,6.3012,,0,1,137,287,33,1,stimuli/stim_20210519_power2amp/equal_lnn_AM1Hz_s45_41.m4a,,,
,,,,,,,,,,,,41269,2021-06-01_12h44.01.571,judgeSpeechMusic_20210519_logNormShiftAmp_mXs,2020.1.2,Win32,60,,,,,,,,,,,,,,1,6.6309,,0,1,138,288,7,1,stimuli/stim_20210519_power2amp/equal_lnn_AM1Hz_s15_29.m4a,,,
,,,,,,,,,,,,41269,2021-06-01_12h44.01.571,judgeSpeechMusic_20210519_logNormShiftAmp_mXs,2020.1.2,Win32,60,,,,,,,,,,,,,,1,5.8084,,0,1,139,289,14,1,stimuli/stim_20210519_power2amp/equal_lnn_AM1Hz_s25_46.m4a,,,
,,,,,,,,,,,,41269,2021-06-01_12h44.01.571,judgeSpeechMusic_20210519_logNormShiftAmp_mXs,2020.1.2,Win32,60,,,,,,,,,,,,,,1,5.8667,,0,1,140,290,30,1,stimuli/stim_20210519_power2amp/equal_lnn_AM1Hz_s45_20.m4a,,,
,,,,,,,,,,,,41269,2021-06-01_12h44.01.571,judgeSpeechMusic_20210519_logNormShiftAmp_mXs,2020.1.2,Win32,60,,,,,,,,,,,,,,1,5.6139,,0,1,141,291,104,1,stimuli/stim_20210519_power2amp/equal_lnn_AM4Hz_s15_23.m4a,,,
,,,,,,,,,,,,41269,2021-06-01_12h44.01.571,judgeSpeechMusic_20210519_logNormShiftAmp_mXs,2020.1.2,Win32,60,,,,,,,,,,,,,,2,5.8926,,0,1,142,292,96,1,stimuli/stim_20210519_power2amp/equal_lnn_AM2.5Hz_s55_37.m4a,,,
,,,,,,,,,,,,41269,2021-06-01_12h44.01.571,judgeSpeechMusic_20210519_logNormShiftAmp_mXs,2020.1.2,Win32,60,,,,,,,,,,,,,,2,6.1572,,0,1,143,293,63,1,stimuli/stim_20210519_power2amp/equal_lnn_AM2.5Hz_s25_11.m4a,,,
,,,,,,,,,,,,41269,2021-06-01_12h44.01.571,judgeSpeechMusic_20210519_logNormShiftAmp_mXs,2020.1.2,Win32,60,,,,,,,,,,,,,,1,6.0325,,0,1,144,294,118,1,stimuli/stim_20210519_power2amp/equal_lnn_AM4Hz_s25_21.m4a,,,
,,,,,,,,,,,,41269,2021-06-01_12h44.01.571,judgeSpeechMusic_20210519_logNormShiftAmp_mXs,2020.1.2,Win32,60,,,,,,,,,,,,,,1,6.3138,,0,1,145,295,84,1,stimuli/stim_20210519_power2amp/equal_lnn_AM2.5Hz_s45_32.m4a,,,
,,,,,,,,,,,,41269,2021-06-01_12h44.01.571,judgeSpeechMusic_20210519_logNormShiftAmp_mXs,2020.1.2,Win32,60,,,,,,,,,,,,,,1,5.9763,,0,1,146,296,24,1,stimuli/stim_20210519_power2amp/equal_lnn_AM1Hz_s35_46.m4a,,,
,,,,,,,,,,,,41269,2021-06-01_12h44.01.571,judgeSpeechMusic_20210519_logNormShiftAmp_mXs,2020.1.2,Win32,60,,,,,,,,,,,,,,2,6.057,,0,1,147,297,41,1,stimuli/stim_20210519_power2amp/equal_lnn_AM1Hz_s55_5.m4a,,,
,,,,,,,,,,,,41269,2021-06-01_12h44.01.571,judgeSpeechMusic_20210519_logNormShiftAmp_mXs,2020.1.2,Win32,60,,,,,,,,,,,,,,2,5.683,,0,1,148,298,137,1,stimuli/stim_20210519_power2amp/equal_lnn_AM4Hz_s45_47.m4a,,,
,,,,,,,,,,,,41269,2021-06-01_12h44.01.571,judgeSpeechMusic_20210519_logNormShiftAmp_mXs,2020.1.2,Win32,60,,,,,,,,,,,,,,2,5.8139,,0,1,149,299,51,1,stimuli/stim_20210519_power2amp/equal_lnn_AM2.5Hz_s15_31.m4a,,,
,,,,,,,,,,,,41269,2021-06-01_12h44.01.571,judgeSpeechMusic_20210519_logNormShiftAmp_mXs,2020.1.2,Win32,60,,,,,,,,,,,,,,,,,,,,,,,,,space,4.2864
