headphoneResponse.keys,headphoneResponse.corr,headphoneResponse.rt,headphoneTrial.thisRepN,headphoneTrial.thisTrialN,headphoneTrial.thisN,headphoneTrial.thisIndex,headphoneTrial.ran,headphone_sound1,headphone_sound2,headphone_sound3,corrAns,participant,date,expName,psychopyVersion,OS,frameRate,trainSlider.response,trainSlider.rt,beepTrainResponse.keys,beepTrainResponse.corr,trainingTrials.thisRepN,trainingTrials.thisTrialN,trainingTrials.thisN,trainingTrials.thisIndex,trainingTrials.ran,trainAudioFile,beepTrainResponse.rt,readyReal_resp.keys,readyReal_resp.rt,ratingSlider.response,ratingSlider.rt,beepResp.keys,beepResp.corr,expTrials.thisRepN,expTrials.thisTrialN,expTrials.thisN,expTrials.thisIndex,expTrials.ran,audioFile,beepResp.rt,end_resp.keys,end_resp.rt
3,1,0.70071,0,0,0,2,1,stimuli/screen_origin.wav,stimuli/screen_antiphase.wav,stimuli/screen_quiet.wav,3,41261,2021-05-29_18h31.48.265,judgeSpeechMusic_20210519_logNormShiftAmp_mXs,2020.1.2,MacIntel,60,,,,,,,,,,,,,,,,,,,,,,,,,,
1,1,2.873285,0,1,1,5,1,stimuli/screen_quiet.wav,stimuli/screen_origin.wav,stimuli/screen_antiphase.wav,1,41261,2021-05-29_18h31.48.265,judgeSpeechMusic_20210519_logNormShiftAmp_mXs,2020.1.2,MacIntel,60,,,,,,,,,,,,,,,,,,,,,,,,,,
2,1,0.61917,0,2,2,3,1,stimuli/screen_origin.wav,stimuli/screen_quiet.wav,stimuli/screen_antiphase.wav,2,41261,2021-05-29_18h31.48.265,judgeSpeechMusic_20210519_logNormShiftAmp_mXs,2020.1.2,MacIntel,60,,,,,,,,,,,,,,,,,,,,,,,,,,
3,1,0.903085,0,3,3,0,1,stimuli/screen_antiphase.wav,stimuli/screen_origin.wav,stimuli/screen_quiet.wav,3,41261,2021-05-29_18h31.48.265,judgeSpeechMusic_20210519_logNormShiftAmp_mXs,2020.1.2,MacIntel,60,,,,,,,,,,,,,,,,,,,,,,,,,,
2,1,0.53563,0,4,4,1,1,stimuli/screen_antiphase.wav,stimuli/screen_quiet.wav,stimuli/screen_origin.wav,2,41261,2021-05-29_18h31.48.265,judgeSpeechMusic_20210519_logNormShiftAmp_mXs,2020.1.2,MacIntel,60,,,,,,,,,,,,,,,,,,,,,,,,,,
1,1,0.519505,0,5,5,4,1,stimuli/screen_quiet.wav,stimuli/screen_antiphase.wav,stimuli/screen_origin.wav,1,41261,2021-05-29_18h31.48.265,judgeSpeechMusic_20210519_logNormShiftAmp_mXs,2020.1.2,MacIntel,60,,,,,,,,,,,,,,,,,,,,,,,,,,
,,,,,,,,,,,,41261,2021-05-29_18h31.48.265,judgeSpeechMusic_20210519_logNormShiftAmp_mXs,2020.1.2,MacIntel,60,2,12.130535,,0,0,0,0,3,1,stimuli/stim_20210519_power2amp/equal_lnn_AM_training3.5Hz_s50.m4a,,,,,,,,,,,,,,,,
,,,,,,,,,,,,41261,2021-05-29_18h31.48.265,judgeSpeechMusic_20210519_logNormShiftAmp_mXs,2020.1.2,MacIntel,60,2,6.45716,,0,0,1,1,1,1,stimuli/stim_20210519_power2amp/equal_lnn_AM_training1.5Hz_s50.m4a,,,,,,,,,,,,,,,,
,,,,,,,,,,,,41261,2021-05-29_18h31.48.265,judgeSpeechMusic_20210519_logNormShiftAmp_mXs,2020.1.2,MacIntel,60,1,6.9604,2,1,0,2,2,0,1,stimuli/stim_20210519_power2amp/equal_lnn_AM_training1.5Hz_s20.m4a,3.10888,,,,,,,,,,,,,,,
,,,,,,,,,,,,41261,2021-05-29_18h31.48.265,judgeSpeechMusic_20210519_logNormShiftAmp_mXs,2020.1.2,MacIntel,60,2,6.327805,,0,0,3,3,2,1,stimuli/stim_20210519_power2amp/equal_lnn_AM_training3.5Hz_s20.m4a,,,,,,,,,,,,,,,,
,,,,,,,,,,,,41261,2021-05-29_18h31.48.265,judgeSpeechMusic_20210519_logNormShiftAmp_mXs,2020.1.2,MacIntel,60,,,,,,,,,,,,space,6.40246,2,7.72798,,0,0,0,0,139,1,stimuli/stim_20210519_power2amp/equal_lnn_AM4Hz_s45_39.m4a,,,
,,,,,,,,,,,,41261,2021-05-29_18h31.48.265,judgeSpeechMusic_20210519_logNormShiftAmp_mXs,2020.1.2,MacIntel,60,,,,,,,,,,,,,,1,5.889035,,0,0,1,1,52,1,stimuli/stim_20210519_power2amp/equal_lnn_AM2.5Hz_s15_21.m4a,,,
,,,,,,,,,,,,41261,2021-05-29_18h31.48.265,judgeSpeechMusic_20210519_logNormShiftAmp_mXs,2020.1.2,MacIntel,60,,,,,,,,,,,,,,1,5.66302,,0,0,2,2,22,1,stimuli/stim_20210519_power2amp/equal_lnn_AM1Hz_s35_46.m4a,,,
,,,,,,,,,,,,41261,2021-05-29_18h31.48.265,judgeSpeechMusic_20210519_logNormShiftAmp_mXs,2020.1.2,MacIntel,60,,,,,,,,,,,,,,1,5.741255,,0,0,3,3,7,1,stimuli/stim_20210519_power2amp/equal_lnn_AM1Hz_s15_28.m4a,,,
,,,,,,,,,,,,41261,2021-05-29_18h31.48.265,judgeSpeechMusic_20210519_logNormShiftAmp_mXs,2020.1.2,MacIntel,60,,,,,,,,,,,,,,1,6.29357,,0,0,4,4,31,1,stimuli/stim_20210519_power2amp/equal_lnn_AM1Hz_s45_27.m4a,,,
,,,,,,,,,,,,41261,2021-05-29_18h31.48.265,judgeSpeechMusic_20210519_logNormShiftAmp_mXs,2020.1.2,MacIntel,60,,,,,,,,,,,,,,2,6.391895,,0,0,5,5,68,1,stimuli/stim_20210519_power2amp/equal_lnn_AM2.5Hz_s25_10.m4a,,,
,,,,,,,,,,,,41261,2021-05-29_18h31.48.265,judgeSpeechMusic_20210519_logNormShiftAmp_mXs,2020.1.2,MacIntel,60,,,,,,,,,,,,,,2,6.424655,,0,0,6,6,44,1,stimuli/stim_20210519_power2amp/equal_lnn_AM1Hz_s55_38.m4a,,,
,,,,,,,,,,,,41261,2021-05-29_18h31.48.265,judgeSpeechMusic_20210519_logNormShiftAmp_mXs,2020.1.2,MacIntel,60,,,,,,,,,,,,,,2,5.74317,,0,0,7,7,105,1,stimuli/stim_20210519_power2amp/equal_lnn_AM4Hz_s15_13.m4a,,,
,,,,,,,,,,,,41261,2021-05-29_18h31.48.265,judgeSpeechMusic_20210519_logNormShiftAmp_mXs,2020.1.2,MacIntel,60,,,,,,,,,,,,,,2,7.725915,,0,0,8,8,117,1,stimuli/stim_20210519_power2amp/equal_lnn_AM4Hz_s25_21.m4a,,,
,,,,,,,,,,,,41261,2021-05-29_18h31.48.265,judgeSpeechMusic_20210519_logNormShiftAmp_mXs,2020.1.2,MacIntel,60,,,,,,,,,,,,,,2,5.99406,,0,0,9,9,78,1,stimuli/stim_20210519_power2amp/equal_lnn_AM2.5Hz_s35_8.m4a,,,
,,,,,,,,,,,,41261,2021-05-29_18h31.48.265,judgeSpeechMusic_20210519_logNormShiftAmp_mXs,2020.1.2,MacIntel,60,,,,,,,,,,,,,,2,16.019395,,0,0,10,10,93,1,stimuli/stim_20210519_power2amp/equal_lnn_AM2.5Hz_s55_22.m4a,,,
,,,,,,,,,,,,41261,2021-05-29_18h31.48.265,judgeSpeechMusic_20210519_logNormShiftAmp_mXs,2020.1.2,MacIntel,60,,,,,,,,,,,,,,1,5.795435,,0,0,11,11,21,1,stimuli/stim_20210519_power2amp/equal_lnn_AM1Hz_s35_38.m4a,,,
,,,,,,,,,,,,41261,2021-05-29_18h31.48.265,judgeSpeechMusic_20210519_logNormShiftAmp_mXs,2020.1.2,MacIntel,60,,,,,,,,,,,,,,1,5.374305,,0,0,12,12,70,1,stimuli/stim_20210519_power2amp/equal_lnn_AM2.5Hz_s35_50.m4a,,,
,,,,,,,,,,,,41261,2021-05-29_18h31.48.265,judgeSpeechMusic_20210519_logNormShiftAmp_mXs,2020.1.2,MacIntel,60,,,,,,,,,,,,,,1,5.82733,,0,0,13,13,48,1,stimuli/stim_20210519_power2amp/equal_lnn_AM1Hz_s55_12.m4a,,,
,,,,,,,,,,,,41261,2021-05-29_18h31.48.265,judgeSpeechMusic_20210519_logNormShiftAmp_mXs,2020.1.2,MacIntel,60,,,,,,,,,,,,,,1,5.875395,,0,0,14,14,12,1,stimuli/stim_20210519_power2amp/equal_lnn_AM1Hz_s25_37.m4a,,,
,,,,,,,,,,,,41261,2021-05-29_18h31.48.265,judgeSpeechMusic_20210519_logNormShiftAmp_mXs,2020.1.2,MacIntel,60,,,,,,,,,,,,,,2,5.27513,,0,0,15,15,140,1,stimuli/stim_20210519_power2amp/equal_lnn_AM4Hz_s55_40.m4a,,,
,,,,,,,,,,,,41261,2021-05-29_18h31.48.265,judgeSpeechMusic_20210519_logNormShiftAmp_mXs,2020.1.2,MacIntel,60,,,,,,,,,,,,,,1,7.51402,,0,0,16,16,82,1,stimuli/stim_20210519_power2amp/equal_lnn_AM2.5Hz_s45_13.m4a,,,
,,,,,,,,,,,,41261,2021-05-29_18h31.48.265,judgeSpeechMusic_20210519_logNormShiftAmp_mXs,2020.1.2,MacIntel,60,,,,,,,,,,,,,,1,5.640795,,0,0,17,17,55,1,stimuli/stim_20210519_power2amp/equal_lnn_AM2.5Hz_s15_37.m4a,,,
,,,,,,,,,,,,41261,2021-05-29_18h31.48.265,judgeSpeechMusic_20210519_logNormShiftAmp_mXs,2020.1.2,MacIntel,60,,,,,,,,,,,,,,1,5.641585,,0,0,18,18,29,1,stimuli/stim_20210519_power2amp/equal_lnn_AM1Hz_s35_22.m4a,,,
,,,,,,,,,,,,41261,2021-05-29_18h31.48.265,judgeSpeechMusic_20210519_logNormShiftAmp_mXs,2020.1.2,MacIntel,60,,,,,,,,,,,,,,1,6.324635,,0,0,19,19,57,1,stimuli/stim_20210519_power2amp/equal_lnn_AM2.5Hz_s15_46.m4a,,,
,,,,,,,,,,,,41261,2021-05-29_18h31.48.265,judgeSpeechMusic_20210519_logNormShiftAmp_mXs,2020.1.2,MacIntel,60,,,,,,,,,,,,,,2,5.595295,,0,0,20,20,143,1,stimuli/stim_20210519_power2amp/equal_lnn_AM4Hz_s55_5.m4a,,,
,,,,,,,,,,,,41261,2021-05-29_18h31.48.265,judgeSpeechMusic_20210519_logNormShiftAmp_mXs,2020.1.2,MacIntel,60,,,,,,,,,,,,,,1,5.64145,,0,0,21,21,25,1,stimuli/stim_20210519_power2amp/equal_lnn_AM1Hz_s35_23.m4a,,,
,,,,,,,,,,,,41261,2021-05-29_18h31.48.265,judgeSpeechMusic_20210519_logNormShiftAmp_mXs,2020.1.2,MacIntel,60,,,,,,,,,,,,,,2,9.460205,,0,0,22,22,40,1,stimuli/stim_20210519_power2amp/equal_lnn_AM1Hz_s55_34.m4a,,,
,,,,,,,,,,,,41261,2021-05-29_18h31.48.265,judgeSpeechMusic_20210519_logNormShiftAmp_mXs,2020.1.2,MacIntel,60,,,,,,,,,,,,,,2,6.292005,,0,0,23,23,71,1,stimuli/stim_20210519_power2amp/equal_lnn_AM2.5Hz_s35_25.m4a,,,
,,,,,,,,,,,,41261,2021-05-29_18h31.48.265,judgeSpeechMusic_20210519_logNormShiftAmp_mXs,2020.1.2,MacIntel,60,,,,,,,,,,,,,,2,8.5458,,0,0,24,24,106,1,stimuli/stim_20210519_power2amp/equal_lnn_AM4Hz_s15_40.m4a,,,
,,,,,,,,,,,,41261,2021-05-29_18h31.48.265,judgeSpeechMusic_20210519_logNormShiftAmp_mXs,2020.1.2,MacIntel,60,,,,,,,,,,,,,,2,12.111295,,0,0,25,25,39,1,stimuli/stim_20210519_power2amp/equal_lnn_AM1Hz_s45_33.m4a,,,
,,,,,,,,,,,,41261,2021-05-29_18h31.48.265,judgeSpeechMusic_20210519_logNormShiftAmp_mXs,2020.1.2,MacIntel,60,,,,,,,,,,,,,,2,16.434835,,0,0,26,26,56,1,stimuli/stim_20210519_power2amp/equal_lnn_AM2.5Hz_s15_33.m4a,,,
,,,,,,,,,,,,41261,2021-05-29_18h31.48.265,judgeSpeechMusic_20210519_logNormShiftAmp_mXs,2020.1.2,MacIntel,60,,,,,,,,,,,,,,2,28.001255,,0,0,27,27,138,1,stimuli/stim_20210519_power2amp/equal_lnn_AM4Hz_s45_17.m4a,,,
,,,,,,,,,,,,41261,2021-05-29_18h31.48.265,judgeSpeechMusic_20210519_logNormShiftAmp_mXs,2020.1.2,MacIntel,60,,,,,,,,,,,,,,2,7.9091,,0,0,28,28,146,1,stimuli/stim_20210519_power2amp/equal_lnn_AM4Hz_s55_13.m4a,,,
,,,,,,,,,,,,41261,2021-05-29_18h31.48.265,judgeSpeechMusic_20210519_logNormShiftAmp_mXs,2020.1.2,MacIntel,60,,,,,,,,,,,,,,1,5.61237,,0,0,29,29,79,1,stimuli/stim_20210519_power2amp/equal_lnn_AM2.5Hz_s35_7.m4a,,,
,,,,,,,,,,,,41261,2021-05-29_18h31.48.265,judgeSpeechMusic_20210519_logNormShiftAmp_mXs,2020.1.2,MacIntel,60,,,,,,,,,,,,,,2,5.243445,,0,0,30,30,128,1,stimuli/stim_20210519_power2amp/equal_lnn_AM4Hz_s35_17.m4a,,,
,,,,,,,,,,,,41261,2021-05-29_18h31.48.265,judgeSpeechMusic_20210519_logNormShiftAmp_mXs,2020.1.2,MacIntel,60,,,,,,,,,,,,,,2,5.60913,,0,0,31,31,135,1,stimuli/stim_20210519_power2amp/equal_lnn_AM4Hz_s45_22.m4a,,,
,,,,,,,,,,,,41261,2021-05-29_18h31.48.265,judgeSpeechMusic_20210519_logNormShiftAmp_mXs,2020.1.2,MacIntel,60,,,,,,,,,,,,,,2,5.614085,,0,0,32,32,149,1,stimuli/stim_20210519_power2amp/equal_lnn_AM4Hz_s55_1.m4a,,,
,,,,,,,,,,,,41261,2021-05-29_18h31.48.265,judgeSpeechMusic_20210519_logNormShiftAmp_mXs,2020.1.2,MacIntel,60,,,,,,,,,,,,,,1,6.44055,3,0,0,33,33,60,1,stimuli/stim_20210519_power2amp/equal_lnn_AM2.5Hz_s25_11.m4a,4.36549,,
,,,,,,,,,,,,41261,2021-05-29_18h31.48.265,judgeSpeechMusic_20210519_logNormShiftAmp_mXs,2020.1.2,MacIntel,60,,,,,,,,,,,,,,1,8.041785,,0,0,34,34,19,1,stimuli/stim_20210519_power2amp/equal_lnn_AM1Hz_s25_22.m4a,,,
,,,,,,,,,,,,41261,2021-05-29_18h31.48.265,judgeSpeechMusic_20210519_logNormShiftAmp_mXs,2020.1.2,MacIntel,60,,,,,,,,,,,,,,2,5.7759,,0,0,35,35,125,1,stimuli/stim_20210519_power2amp/equal_lnn_AM4Hz_s35_36.m4a,,,
,,,,,,,,,,,,41261,2021-05-29_18h31.48.265,judgeSpeechMusic_20210519_logNormShiftAmp_mXs,2020.1.2,MacIntel,60,,,,,,,,,,,,,,1,5.839335,,0,0,36,36,72,1,stimuli/stim_20210519_power2amp/equal_lnn_AM2.5Hz_s35_41.m4a,,,
,,,,,,,,,,,,41261,2021-05-29_18h31.48.265,judgeSpeechMusic_20210519_logNormShiftAmp_mXs,2020.1.2,MacIntel,60,,,,,,,,,,,,,,2,5.84308,,0,0,37,37,17,1,stimuli/stim_20210519_power2amp/equal_lnn_AM1Hz_s25_23.m4a,,,
,,,,,,,,,,,,41261,2021-05-29_18h31.48.265,judgeSpeechMusic_20210519_logNormShiftAmp_mXs,2020.1.2,MacIntel,60,,,,,,,,,,,,,,2,5.89257,,0,0,38,38,108,1,stimuli/stim_20210519_power2amp/equal_lnn_AM4Hz_s15_21.m4a,,,
,,,,,,,,,,,,41261,2021-05-29_18h31.48.265,judgeSpeechMusic_20210519_logNormShiftAmp_mXs,2020.1.2,MacIntel,60,,,,,,,,,,,,,,1,7.71369,,0,0,39,39,137,1,stimuli/stim_20210519_power2amp/equal_lnn_AM4Hz_s45_21.m4a,,,
,,,,,,,,,,,,41261,2021-05-29_18h31.48.265,judgeSpeechMusic_20210519_logNormShiftAmp_mXs,2020.1.2,MacIntel,60,,,,,,,,,,,,,,1,6.48428,,0,0,40,40,80,1,stimuli/stim_20210519_power2amp/equal_lnn_AM2.5Hz_s45_47.m4a,,,
,,,,,,,,,,,,41261,2021-05-29_18h31.48.265,judgeSpeechMusic_20210519_logNormShiftAmp_mXs,2020.1.2,MacIntel,60,,,,,,,,,,,,,,1,5.80862,,0,0,41,41,107,1,stimuli/stim_20210519_power2amp/equal_lnn_AM4Hz_s15_9.m4a,,,
,,,,,,,,,,,,41261,2021-05-29_18h31.48.265,judgeSpeechMusic_20210519_logNormShiftAmp_mXs,2020.1.2,MacIntel,60,,,,,,,,,,,,,,2,54.464205,,0,0,42,42,65,1,stimuli/stim_20210519_power2amp/equal_lnn_AM2.5Hz_s25_41.m4a,,,
,,,,,,,,,,,,41261,2021-05-29_18h31.48.265,judgeSpeechMusic_20210519_logNormShiftAmp_mXs,2020.1.2,MacIntel,60,,,,,,,,,,,,,,1,6.743355,,0,0,43,43,10,1,stimuli/stim_20210519_power2amp/equal_lnn_AM1Hz_s25_46.m4a,,,
,,,,,,,,,,,,41261,2021-05-29_18h31.48.265,judgeSpeechMusic_20210519_logNormShiftAmp_mXs,2020.1.2,MacIntel,60,,,,,,,,,,,,,,1,7.065995,,0,0,44,44,85,1,stimuli/stim_20210519_power2amp/equal_lnn_AM2.5Hz_s45_10.m4a,,,
,,,,,,,,,,,,41261,2021-05-29_18h31.48.265,judgeSpeechMusic_20210519_logNormShiftAmp_mXs,2020.1.2,MacIntel,60,,,,,,,,,,,,,,1,9.691995,,0,0,45,45,129,1,stimuli/stim_20210519_power2amp/equal_lnn_AM4Hz_s35_24.m4a,,,
,,,,,,,,,,,,41261,2021-05-29_18h31.48.265,judgeSpeechMusic_20210519_logNormShiftAmp_mXs,2020.1.2,MacIntel,60,,,,,,,,,,,,,,2,15.017745,,0,0,46,46,45,1,stimuli/stim_20210519_power2amp/equal_lnn_AM1Hz_s55_37.m4a,,,
,,,,,,,,,,,,41261,2021-05-29_18h31.48.265,judgeSpeechMusic_20210519_logNormShiftAmp_mXs,2020.1.2,MacIntel,60,,,,,,,,,,,,,,2,5.29089,,0,0,47,47,134,1,stimuli/stim_20210519_power2amp/equal_lnn_AM4Hz_s45_15.m4a,,,
,,,,,,,,,,,,41261,2021-05-29_18h31.48.265,judgeSpeechMusic_20210519_logNormShiftAmp_mXs,2020.1.2,MacIntel,60,,,,,,,,,,,,,,1,6.44742,,0,0,48,48,28,1,stimuli/stim_20210519_power2amp/equal_lnn_AM1Hz_s35_11.m4a,,,
,,,,,,,,,,,,41261,2021-05-29_18h31.48.265,judgeSpeechMusic_20210519_logNormShiftAmp_mXs,2020.1.2,MacIntel,60,,,,,,,,,,,,,,2,260.81123,,0,0,49,49,86,1,stimuli/stim_20210519_power2amp/equal_lnn_AM2.5Hz_s45_28.m4a,,,
,,,,,,,,,,,,41261,2021-05-29_18h31.48.265,judgeSpeechMusic_20210519_logNormShiftAmp_mXs,2020.1.2,MacIntel,60,,,,,,,,,,,,,,2,7.062165,,0,0,50,50,61,1,stimuli/stim_20210519_power2amp/equal_lnn_AM2.5Hz_s25_13.m4a,,,
,,,,,,,,,,,,41261,2021-05-29_18h31.48.265,judgeSpeechMusic_20210519_logNormShiftAmp_mXs,2020.1.2,MacIntel,60,,,,,,,,,,,,,,2,6.010765,,0,0,51,51,43,1,stimuli/stim_20210519_power2amp/equal_lnn_AM1Hz_s55_42.m4a,,,
,,,,,,,,,,,,41261,2021-05-29_18h31.48.265,judgeSpeechMusic_20210519_logNormShiftAmp_mXs,2020.1.2,MacIntel,60,,,,,,,,,,,,,,2,27.04374,,0,0,52,52,34,1,stimuli/stim_20210519_power2amp/equal_lnn_AM1Hz_s45_22.m4a,,,
,,,,,,,,,,,,41261,2021-05-29_18h31.48.265,judgeSpeechMusic_20210519_logNormShiftAmp_mXs,2020.1.2,MacIntel,60,,,,,,,,,,,,,,2,5.27145,,0,0,53,53,136,1,stimuli/stim_20210519_power2amp/equal_lnn_AM4Hz_s45_20.m4a,,,
,,,,,,,,,,,,41261,2021-05-29_18h31.48.265,judgeSpeechMusic_20210519_logNormShiftAmp_mXs,2020.1.2,MacIntel,60,,,,,,,,,,,,,,2,31.188565,,0,0,54,54,14,1,stimuli/stim_20210519_power2amp/equal_lnn_AM1Hz_s25_3.m4a,,,
,,,,,,,,,,,,41261,2021-05-29_18h31.48.265,judgeSpeechMusic_20210519_logNormShiftAmp_mXs,2020.1.2,MacIntel,60,,,,,,,,,,,,,,2,5.99299,,0,0,55,55,96,1,stimuli/stim_20210519_power2amp/equal_lnn_AM2.5Hz_s55_43.m4a,,,
,,,,,,,,,,,,41261,2021-05-29_18h31.48.265,judgeSpeechMusic_20210519_logNormShiftAmp_mXs,2020.1.2,MacIntel,60,,,,,,,,,,,,,,1,28.451775,,0,0,56,56,66,1,stimuli/stim_20210519_power2amp/equal_lnn_AM2.5Hz_s25_22.m4a,,,
,,,,,,,,,,,,41261,2021-05-29_18h31.48.265,judgeSpeechMusic_20210519_logNormShiftAmp_mXs,2020.1.2,MacIntel,60,,,,,,,,,,,,,,2,5.974835,1,1,0,57,57,119,1,stimuli/stim_20210519_power2amp/equal_lnn_AM4Hz_s25_28.m4a,1.297575,,
,,,,,,,,,,,,41261,2021-05-29_18h31.48.265,judgeSpeechMusic_20210519_logNormShiftAmp_mXs,2020.1.2,MacIntel,60,,,,,,,,,,,,,,2,5.84251,,0,0,58,58,131,1,stimuli/stim_20210519_power2amp/equal_lnn_AM4Hz_s45_13.m4a,,,
,,,,,,,,,,,,41261,2021-05-29_18h31.48.265,judgeSpeechMusic_20210519_logNormShiftAmp_mXs,2020.1.2,MacIntel,60,,,,,,,,,,,,,,1,5.70827,,0,0,59,59,98,1,stimuli/stim_20210519_power2amp/equal_lnn_AM2.5Hz_s55_19.m4a,,,
,,,,,,,,,,,,41261,2021-05-29_18h31.48.265,judgeSpeechMusic_20210519_logNormShiftAmp_mXs,2020.1.2,MacIntel,60,,,,,,,,,,,,,,1,6.57585,,0,0,60,60,109,1,stimuli/stim_20210519_power2amp/equal_lnn_AM4Hz_s15_3.m4a,,,
,,,,,,,,,,,,41261,2021-05-29_18h31.48.265,judgeSpeechMusic_20210519_logNormShiftAmp_mXs,2020.1.2,MacIntel,60,,,,,,,,,,,,,,2,7.94391,,0,0,61,61,64,1,stimuli/stim_20210519_power2amp/equal_lnn_AM2.5Hz_s25_16.m4a,,,
,,,,,,,,,,,,41261,2021-05-29_18h31.48.265,judgeSpeechMusic_20210519_logNormShiftAmp_mXs,2020.1.2,MacIntel,60,,,,,,,,,,,,,,2,46.54371,,0,0,62,62,130,1,stimuli/stim_20210519_power2amp/equal_lnn_AM4Hz_s45_25.m4a,,,
,,,,,,,,,,,,41261,2021-05-29_18h31.48.265,judgeSpeechMusic_20210519_logNormShiftAmp_mXs,2020.1.2,MacIntel,60,,,,,,,,,,,,,,1,24.90157,,0,0,63,63,54,1,stimuli/stim_20210519_power2amp/equal_lnn_AM2.5Hz_s15_40.m4a,,,
,,,,,,,,,,,,41261,2021-05-29_18h31.48.265,judgeSpeechMusic_20210519_logNormShiftAmp_mXs,2020.1.2,MacIntel,60,,,,,,,,,,,,,,2,6.591715,,0,0,64,64,115,1,stimuli/stim_20210519_power2amp/equal_lnn_AM4Hz_s25_27.m4a,,,
,,,,,,,,,,,,41261,2021-05-29_18h31.48.265,judgeSpeechMusic_20210519_logNormShiftAmp_mXs,2020.1.2,MacIntel,60,,,,,,,,,,,,,,1,22.666385,,0,0,65,65,92,1,stimuli/stim_20210519_power2amp/equal_lnn_AM2.5Hz_s55_40.m4a,,,
,,,,,,,,,,,,41261,2021-05-29_18h31.48.265,judgeSpeechMusic_20210519_logNormShiftAmp_mXs,2020.1.2,MacIntel,60,,,,,,,,,,,,,,1,462.974885,,0,0,66,66,141,1,stimuli/stim_20210519_power2amp/equal_lnn_AM4Hz_s55_38.m4a,,,
,,,,,,,,,,,,41261,2021-05-29_18h31.48.265,judgeSpeechMusic_20210519_logNormShiftAmp_mXs,2020.1.2,MacIntel,60,,,,,,,,,,,,,,1,5.94208,,0,0,67,67,69,1,stimuli/stim_20210519_power2amp/equal_lnn_AM2.5Hz_s25_18.m4a,,,
,,,,,,,,,,,,41261,2021-05-29_18h31.48.265,judgeSpeechMusic_20210519_logNormShiftAmp_mXs,2020.1.2,MacIntel,60,,,,,,,,,,,,,,2,27.88944,,0,0,68,68,35,1,stimuli/stim_20210519_power2amp/equal_lnn_AM1Hz_s45_12.m4a,,,
,,,,,,,,,,,,41261,2021-05-29_18h31.48.265,judgeSpeechMusic_20210519_logNormShiftAmp_mXs,2020.1.2,MacIntel,60,,,,,,,,,,,,,,2,6.82372,,0,0,69,69,6,1,stimuli/stim_20210519_power2amp/equal_lnn_AM1Hz_s15_24.m4a,,,
,,,,,,,,,,,,41261,2021-05-29_18h31.48.265,judgeSpeechMusic_20210519_logNormShiftAmp_mXs,2020.1.2,MacIntel,60,,,,,,,,,,,,,,2,5.84464,,0,0,70,70,95,1,stimuli/stim_20210519_power2amp/equal_lnn_AM2.5Hz_s55_28.m4a,,,
,,,,,,,,,,,,41261,2021-05-29_18h31.48.265,judgeSpeechMusic_20210519_logNormShiftAmp_mXs,2020.1.2,MacIntel,60,,,,,,,,,,,,,,1,6.5259,,0,0,71,71,26,1,stimuli/stim_20210519_power2amp/equal_lnn_AM1Hz_s35_10.m4a,,,
,,,,,,,,,,,,41261,2021-05-29_18h31.48.265,judgeSpeechMusic_20210519_logNormShiftAmp_mXs,2020.1.2,MacIntel,60,,,,,,,,,,,,,,1,5.275835,,0,0,72,72,9,1,stimuli/stim_20210519_power2amp/equal_lnn_AM1Hz_s15_2.m4a,,,
,,,,,,,,,,,,41261,2021-05-29_18h31.48.265,judgeSpeechMusic_20210519_logNormShiftAmp_mXs,2020.1.2,MacIntel,60,,,,,,,,,,,,,,1,5.225925,,0,0,73,73,13,1,stimuli/stim_20210519_power2amp/equal_lnn_AM1Hz_s25_31.m4a,,,
,,,,,,,,,,,,41261,2021-05-29_18h31.48.265,judgeSpeechMusic_20210519_logNormShiftAmp_mXs,2020.1.2,MacIntel,60,,,,,,,,,,,,,,2,5.299665,,0,0,74,74,73,1,stimuli/stim_20210519_power2amp/equal_lnn_AM2.5Hz_s35_6.m4a,,,
,,,,,,,,,,,,41261,2021-05-29_18h31.48.265,judgeSpeechMusic_20210519_logNormShiftAmp_mXs,2020.1.2,MacIntel,60,,,,,,,,,,,,,,2,5.393225,,0,0,75,75,127,1,stimuli/stim_20210519_power2amp/equal_lnn_AM4Hz_s35_25.m4a,,,
,,,,,,,,,,,,41261,2021-05-29_18h31.48.265,judgeSpeechMusic_20210519_logNormShiftAmp_mXs,2020.1.2,MacIntel,60,,,,,,,,,,,,,,2,7.161415,,0,0,76,76,89,1,stimuli/stim_20210519_power2amp/equal_lnn_AM2.5Hz_s45_44.m4a,,,
,,,,,,,,,,,,41261,2021-05-29_18h31.48.265,judgeSpeechMusic_20210519_logNormShiftAmp_mXs,2020.1.2,MacIntel,60,,,,,,,,,,,,,,2,7.477455,,0,0,77,77,90,1,stimuli/stim_20210519_power2amp/equal_lnn_AM2.5Hz_s55_30.m4a,,,
,,,,,,,,,,,,41261,2021-05-29_18h31.48.265,judgeSpeechMusic_20210519_logNormShiftAmp_mXs,2020.1.2,MacIntel,60,,,,,,,,,,,,,,1,8.011555,,0,0,78,78,11,1,stimuli/stim_20210519_power2amp/equal_lnn_AM1Hz_s25_50.m4a,,,
,,,,,,,,,,,,41261,2021-05-29_18h31.48.265,judgeSpeechMusic_20210519_logNormShiftAmp_mXs,2020.1.2,MacIntel,60,,,,,,,,,,,,,,2,6.792165,,0,0,79,79,63,1,stimuli/stim_20210519_power2amp/equal_lnn_AM2.5Hz_s25_36.m4a,,,
,,,,,,,,,,,,41261,2021-05-29_18h31.48.265,judgeSpeechMusic_20210519_logNormShiftAmp_mXs,2020.1.2,MacIntel,60,,,,,,,,,,,,,,1,9.079665,3,1,0,80,80,32,1,stimuli/stim_20210519_power2amp/equal_lnn_AM1Hz_s45_18.m4a,2.02975,,
,,,,,,,,,,,,41261,2021-05-29_18h31.48.265,judgeSpeechMusic_20210519_logNormShiftAmp_mXs,2020.1.2,MacIntel,60,,,,,,,,,,,,,,2,6.208615,,0,0,81,81,121,1,stimuli/stim_20210519_power2amp/equal_lnn_AM4Hz_s35_39.m4a,,,
,,,,,,,,,,,,41261,2021-05-29_18h31.48.265,judgeSpeechMusic_20210519_logNormShiftAmp_mXs,2020.1.2,MacIntel,60,,,,,,,,,,,,,,1,5.87889,,0,0,82,82,38,1,stimuli/stim_20210519_power2amp/equal_lnn_AM1Hz_s45_42.m4a,,,
,,,,,,,,,,,,41261,2021-05-29_18h31.48.265,judgeSpeechMusic_20210519_logNormShiftAmp_mXs,2020.1.2,MacIntel,60,,,,,,,,,,,,,,1,6.10963,,0,0,83,83,37,1,stimuli/stim_20210519_power2amp/equal_lnn_AM1Hz_s45_6.m4a,,,
,,,,,,,,,,,,41261,2021-05-29_18h31.48.265,judgeSpeechMusic_20210519_logNormShiftAmp_mXs,2020.1.2,MacIntel,60,,,,,,,,,,,,,,2,5.64132,,0,0,84,84,114,1,stimuli/stim_20210519_power2amp/equal_lnn_AM4Hz_s25_45.m4a,,,
,,,,,,,,,,,,41261,2021-05-29_18h31.48.265,judgeSpeechMusic_20210519_logNormShiftAmp_mXs,2020.1.2,MacIntel,60,,,,,,,,,,,,,,2,6.10862,,0,0,85,85,24,1,stimuli/stim_20210519_power2amp/equal_lnn_AM1Hz_s35_36.m4a,,,
,,,,,,,,,,,,41261,2021-05-29_18h31.48.265,judgeSpeechMusic_20210519_logNormShiftAmp_mXs,2020.1.2,MacIntel,60,,,,,,,,,,,,,,2,5.25921,,0,0,86,86,145,1,stimuli/stim_20210519_power2amp/equal_lnn_AM4Hz_s55_6.m4a,,,
,,,,,,,,,,,,41261,2021-05-29_18h31.48.265,judgeSpeechMusic_20210519_logNormShiftAmp_mXs,2020.1.2,MacIntel,60,,,,,,,,,,,,,,1,5.629235,,0,0,87,87,103,1,stimuli/stim_20210519_power2amp/equal_lnn_AM4Hz_s15_14.m4a,,,
,,,,,,,,,,,,41261,2021-05-29_18h31.48.265,judgeSpeechMusic_20210519_logNormShiftAmp_mXs,2020.1.2,MacIntel,60,,,,,,,,,,,,,,1,5.29515,,0,0,88,88,0,1,stimuli/stim_20210519_power2amp/equal_lnn_AM1Hz_s15_16.m4a,,,
,,,,,,,,,,,,41261,2021-05-29_18h31.48.265,judgeSpeechMusic_20210519_logNormShiftAmp_mXs,2020.1.2,MacIntel,60,,,,,,,,,,,,,,2,5.40891,,0,0,89,89,87,1,stimuli/stim_20210519_power2amp/equal_lnn_AM2.5Hz_s45_21.m4a,,,
,,,,,,,,,,,,41261,2021-05-29_18h31.48.265,judgeSpeechMusic_20210519_logNormShiftAmp_mXs,2020.1.2,MacIntel,60,,,,,,,,,,,,,,1,6.71356,,0,0,90,90,27,1,stimuli/stim_20210519_power2amp/equal_lnn_AM1Hz_s35_37.m4a,,,
,,,,,,,,,,,,41261,2021-05-29_18h31.48.265,judgeSpeechMusic_20210519_logNormShiftAmp_mXs,2020.1.2,MacIntel,60,,,,,,,,,,,,,,1,10.942955,,0,0,91,91,74,1,stimuli/stim_20210519_power2amp/equal_lnn_AM2.5Hz_s35_4.m4a,,,
,,,,,,,,,,,,41261,2021-05-29_18h31.48.265,judgeSpeechMusic_20210519_logNormShiftAmp_mXs,2020.1.2,MacIntel,60,,,,,,,,,,,,,,1,5.34469,,0,0,92,92,23,1,stimuli/stim_20210519_power2amp/equal_lnn_AM1Hz_s35_32.m4a,,,
,,,,,,,,,,,,41261,2021-05-29_18h31.48.265,judgeSpeechMusic_20210519_logNormShiftAmp_mXs,2020.1.2,MacIntel,60,,,,,,,,,,,,,,2,5.65725,,0,0,93,93,97,1,stimuli/stim_20210519_power2amp/equal_lnn_AM2.5Hz_s55_13.m4a,,,
,,,,,,,,,,,,41261,2021-05-29_18h31.48.265,judgeSpeechMusic_20210519_logNormShiftAmp_mXs,2020.1.2,MacIntel,60,,,,,,,,,,,,,,2,5.337475,,0,0,94,94,46,1,stimuli/stim_20210519_power2amp/equal_lnn_AM1Hz_s55_44.m4a,,,
,,,,,,,,,,,,41261,2021-05-29_18h31.48.265,judgeSpeechMusic_20210519_logNormShiftAmp_mXs,2020.1.2,MacIntel,60,,,,,,,,,,,,,,2,5.92568,,0,0,95,95,42,1,stimuli/stim_20210519_power2amp/equal_lnn_AM1Hz_s55_28.m4a,,,
,,,,,,,,,,,,41261,2021-05-29_18h31.48.265,judgeSpeechMusic_20210519_logNormShiftAmp_mXs,2020.1.2,MacIntel,60,,,,,,,,,,,,,,1,9.17753,,0,0,96,96,122,1,stimuli/stim_20210519_power2amp/equal_lnn_AM4Hz_s35_16.m4a,,,
,,,,,,,,,,,,41261,2021-05-29_18h31.48.265,judgeSpeechMusic_20210519_logNormShiftAmp_mXs,2020.1.2,MacIntel,60,,,,,,,,,,,,,,2,5.99587,,0,0,97,97,113,1,stimuli/stim_20210519_power2amp/equal_lnn_AM4Hz_s25_10.m4a,,,
,,,,,,,,,,,,41261,2021-05-29_18h31.48.265,judgeSpeechMusic_20210519_logNormShiftAmp_mXs,2020.1.2,MacIntel,60,,,,,,,,,,,,,,1,6.913125,,0,0,98,98,33,1,stimuli/stim_20210519_power2amp/equal_lnn_AM1Hz_s45_45.m4a,,,
,,,,,,,,,,,,41261,2021-05-29_18h31.48.265,judgeSpeechMusic_20210519_logNormShiftAmp_mXs,2020.1.2,MacIntel,60,,,,,,,,,,,,,,1,5.40951,,0,0,99,99,49,1,stimuli/stim_20210519_power2amp/equal_lnn_AM1Hz_s55_16.m4a,,,
,,,,,,,,,,,,41261,2021-05-29_18h31.48.265,judgeSpeechMusic_20210519_logNormShiftAmp_mXs,2020.1.2,MacIntel,60,,,,,,,,,,,,,,2,5.49362,,0,0,100,100,2,1,stimuli/stim_20210519_power2amp/equal_lnn_AM1Hz_s15_9.m4a,,,
,,,,,,,,,,,,41261,2021-05-29_18h31.48.265,judgeSpeechMusic_20210519_logNormShiftAmp_mXs,2020.1.2,MacIntel,60,,,,,,,,,,,,,,2,5.225645,,0,0,101,101,111,1,stimuli/stim_20210519_power2amp/equal_lnn_AM4Hz_s25_2.m4a,,,
,,,,,,,,,,,,41261,2021-05-29_18h31.48.265,judgeSpeechMusic_20210519_logNormShiftAmp_mXs,2020.1.2,MacIntel,60,,,,,,,,,,,,,,1,5.34136,,0,0,102,102,1,1,stimuli/stim_20210519_power2amp/equal_lnn_AM1Hz_s15_12.m4a,,,
,,,,,,,,,,,,41261,2021-05-29_18h31.48.265,judgeSpeechMusic_20210519_logNormShiftAmp_mXs,2020.1.2,MacIntel,60,,,,,,,,,,,,,,2,6.19248,,0,0,103,103,76,1,stimuli/stim_20210519_power2amp/equal_lnn_AM2.5Hz_s35_1.m4a,,,
,,,,,,,,,,,,41261,2021-05-29_18h31.48.265,judgeSpeechMusic_20210519_logNormShiftAmp_mXs,2020.1.2,MacIntel,60,,,,,,,,,,,,,,2,5.35625,4,0,0,104,104,51,1,stimuli/stim_20210519_power2amp/equal_lnn_AM2.5Hz_s15_28.m4a,1.6108,,
,,,,,,,,,,,,41261,2021-05-29_18h31.48.265,judgeSpeechMusic_20210519_logNormShiftAmp_mXs,2020.1.2,MacIntel,60,,,,,,,,,,,,,,1,5.50365,,0,0,105,105,20,1,stimuli/stim_20210519_power2amp/equal_lnn_AM1Hz_s35_1.m4a,,,
,,,,,,,,,,,,41261,2021-05-29_18h31.48.265,judgeSpeechMusic_20210519_logNormShiftAmp_mXs,2020.1.2,MacIntel,60,,,,,,,,,,,,,,2,5.374425,,0,0,106,106,126,1,stimuli/stim_20210519_power2amp/equal_lnn_AM4Hz_s35_35.m4a,,,
,,,,,,,,,,,,41261,2021-05-29_18h31.48.265,judgeSpeechMusic_20210519_logNormShiftAmp_mXs,2020.1.2,MacIntel,60,,,,,,,,,,,,,,1,6.093385,,0,0,107,107,75,1,stimuli/stim_20210519_power2amp/equal_lnn_AM2.5Hz_s35_45.m4a,,,
,,,,,,,,,,,,41261,2021-05-29_18h31.48.265,judgeSpeechMusic_20210519_logNormShiftAmp_mXs,2020.1.2,MacIntel,60,,,,,,,,,,,,,,2,6.24735,,0,0,108,108,123,1,stimuli/stim_20210519_power2amp/equal_lnn_AM4Hz_s35_33.m4a,,,
,,,,,,,,,,,,41261,2021-05-29_18h31.48.265,judgeSpeechMusic_20210519_logNormShiftAmp_mXs,2020.1.2,MacIntel,60,,,,,,,,,,,,,,2,6.21187,,0,0,109,109,110,1,stimuli/stim_20210519_power2amp/equal_lnn_AM4Hz_s25_41.m4a,,,
,,,,,,,,,,,,41261,2021-05-29_18h31.48.265,judgeSpeechMusic_20210519_logNormShiftAmp_mXs,2020.1.2,MacIntel,60,,,,,,,,,,,,,,1,5.57952,,0,0,110,110,4,1,stimuli/stim_20210519_power2amp/equal_lnn_AM1Hz_s15_23.m4a,,,
,,,,,,,,,,,,41261,2021-05-29_18h31.48.265,judgeSpeechMusic_20210519_logNormShiftAmp_mXs,2020.1.2,MacIntel,60,,,,,,,,,,,,,,1,5.374515,,0,0,111,111,47,1,stimuli/stim_20210519_power2amp/equal_lnn_AM1Hz_s55_36.m4a,,,
,,,,,,,,,,,,41261,2021-05-29_18h31.48.265,judgeSpeechMusic_20210519_logNormShiftAmp_mXs,2020.1.2,MacIntel,60,,,,,,,,,,,,,,2,6.74431,,0,0,112,112,99,1,stimuli/stim_20210519_power2amp/equal_lnn_AM2.5Hz_s55_36.m4a,,,
,,,,,,,,,,,,41261,2021-05-29_18h31.48.265,judgeSpeechMusic_20210519_logNormShiftAmp_mXs,2020.1.2,MacIntel,60,,,,,,,,,,,,,,1,5.37447,,0,0,113,113,8,1,stimuli/stim_20210519_power2amp/equal_lnn_AM1Hz_s15_7.m4a,,,
,,,,,,,,,,,,41261,2021-05-29_18h31.48.265,judgeSpeechMusic_20210519_logNormShiftAmp_mXs,2020.1.2,MacIntel,60,,,,,,,,,,,,,,1,5.546615,,0,0,114,114,133,1,stimuli/stim_20210519_power2amp/equal_lnn_AM4Hz_s45_5.m4a,,,
,,,,,,,,,,,,41261,2021-05-29_18h31.48.265,judgeSpeechMusic_20210519_logNormShiftAmp_mXs,2020.1.2,MacIntel,60,,,,,,,,,,,,,,1,5.641715,,0,0,115,115,15,1,stimuli/stim_20210519_power2amp/equal_lnn_AM1Hz_s25_36.m4a,,,
,,,,,,,,,,,,41261,2021-05-29_18h31.48.265,judgeSpeechMusic_20210519_logNormShiftAmp_mXs,2020.1.2,MacIntel,60,,,,,,,,,,,,,,2,5.37518,,0,0,116,116,116,1,stimuli/stim_20210519_power2amp/equal_lnn_AM4Hz_s25_22.m4a,,,
,,,,,,,,,,,,41261,2021-05-29_18h31.48.265,judgeSpeechMusic_20210519_logNormShiftAmp_mXs,2020.1.2,MacIntel,60,,,,,,,,,,,,,,2,6.075615,,0,0,117,117,102,1,stimuli/stim_20210519_power2amp/equal_lnn_AM4Hz_s15_15.m4a,,,
,,,,,,,,,,,,41261,2021-05-29_18h31.48.265,judgeSpeechMusic_20210519_logNormShiftAmp_mXs,2020.1.2,MacIntel,60,,,,,,,,,,,,,,1,10.66273,,0,0,118,118,5,1,stimuli/stim_20210519_power2amp/equal_lnn_AM1Hz_s15_38.m4a,,,
,,,,,,,,,,,,41261,2021-05-29_18h31.48.265,judgeSpeechMusic_20210519_logNormShiftAmp_mXs,2020.1.2,MacIntel,60,,,,,,,,,,,,,,2,6.13995,,0,0,119,119,62,1,stimuli/stim_20210519_power2amp/equal_lnn_AM2.5Hz_s25_14.m4a,,,
,,,,,,,,,,,,41261,2021-05-29_18h31.48.265,judgeSpeechMusic_20210519_logNormShiftAmp_mXs,2020.1.2,MacIntel,60,,,,,,,,,,,,,,1,5.680255,,0,0,120,120,112,1,stimuli/stim_20210519_power2amp/equal_lnn_AM4Hz_s25_3.m4a,,,
,,,,,,,,,,,,41261,2021-05-29_18h31.48.265,judgeSpeechMusic_20210519_logNormShiftAmp_mXs,2020.1.2,MacIntel,60,,,,,,,,,,,,,,1,5.275565,,0,0,121,121,18,1,stimuli/stim_20210519_power2amp/equal_lnn_AM1Hz_s25_14.m4a,,,
,,,,,,,,,,,,41261,2021-05-29_18h31.48.265,judgeSpeechMusic_20210519_logNormShiftAmp_mXs,2020.1.2,MacIntel,60,,,,,,,,,,,,,,1,5.40866,,0,0,122,122,67,1,stimuli/stim_20210519_power2amp/equal_lnn_AM2.5Hz_s25_29.m4a,,,
,,,,,,,,,,,,41261,2021-05-29_18h31.48.265,judgeSpeechMusic_20210519_logNormShiftAmp_mXs,2020.1.2,MacIntel,60,,,,,,,,,,,,,,1,5.377035,,0,0,123,123,100,1,stimuli/stim_20210519_power2amp/equal_lnn_AM4Hz_s15_47.m4a,,,
,,,,,,,,,,,,41261,2021-05-29_18h31.48.265,judgeSpeechMusic_20210519_logNormShiftAmp_mXs,2020.1.2,MacIntel,60,,,,,,,,,,,,,,1,5.27686,,0,0,124,124,148,1,stimuli/stim_20210519_power2amp/equal_lnn_AM4Hz_s55_23.m4a,,,
,,,,,,,,,,,,41261,2021-05-29_18h31.48.265,judgeSpeechMusic_20210519_logNormShiftAmp_mXs,2020.1.2,MacIntel,60,,,,,,,,,,,,,,1,5.26016,2,1,0,125,125,142,1,stimuli/stim_20210519_power2amp/equal_lnn_AM4Hz_s55_14.m4a,0.562235,,
,,,,,,,,,,,,41261,2021-05-29_18h31.48.265,judgeSpeechMusic_20210519_logNormShiftAmp_mXs,2020.1.2,MacIntel,60,,,,,,,,,,,,,,2,6.627565,,0,0,126,126,118,1,stimuli/stim_20210519_power2amp/equal_lnn_AM4Hz_s25_25.m4a,,,
,,,,,,,,,,,,41261,2021-05-29_18h31.48.265,judgeSpeechMusic_20210519_logNormShiftAmp_mXs,2020.1.2,MacIntel,60,,,,,,,,,,,,,,2,5.83105,,0,0,127,127,58,1,stimuli/stim_20210519_power2amp/equal_lnn_AM2.5Hz_s15_1.m4a,,,
,,,,,,,,,,,,41261,2021-05-29_18h31.48.265,judgeSpeechMusic_20210519_logNormShiftAmp_mXs,2020.1.2,MacIntel,60,,,,,,,,,,,,,,2,16.778895,,0,0,128,128,124,1,stimuli/stim_20210519_power2amp/equal_lnn_AM4Hz_s35_31.m4a,,,
,,,,,,,,,,,,41261,2021-05-29_18h31.48.265,judgeSpeechMusic_20210519_logNormShiftAmp_mXs,2020.1.2,MacIntel,60,,,,,,,,,,,,,,2,5.24208,,0,0,129,129,77,1,stimuli/stim_20210519_power2amp/equal_lnn_AM2.5Hz_s35_35.m4a,,,
,,,,,,,,,,,,41261,2021-05-29_18h31.48.265,judgeSpeechMusic_20210519_logNormShiftAmp_mXs,2020.1.2,MacIntel,60,,,,,,,,,,,,,,2,6.360445,,0,0,130,130,83,1,stimuli/stim_20210519_power2amp/equal_lnn_AM2.5Hz_s45_22.m4a,,,
,,,,,,,,,,,,41261,2021-05-29_18h31.48.265,judgeSpeechMusic_20210519_logNormShiftAmp_mXs,2020.1.2,MacIntel,60,,,,,,,,,,,,,,1,6.110385,,0,0,131,131,3,1,stimuli/stim_20210519_power2amp/equal_lnn_AM1Hz_s15_50.m4a,,,
,,,,,,,,,,,,41261,2021-05-29_18h31.48.265,judgeSpeechMusic_20210519_logNormShiftAmp_mXs,2020.1.2,MacIntel,60,,,,,,,,,,,,,,2,5.340615,,0,0,132,132,147,1,stimuli/stim_20210519_power2amp/equal_lnn_AM4Hz_s55_24.m4a,,,
,,,,,,,,,,,,41261,2021-05-29_18h31.48.265,judgeSpeechMusic_20210519_logNormShiftAmp_mXs,2020.1.2,MacIntel,60,,,,,,,,,,,,,,2,5.38115,,0,0,133,133,104,1,stimuli/stim_20210519_power2amp/equal_lnn_AM4Hz_s15_12.m4a,,,
,,,,,,,,,,,,41261,2021-05-29_18h31.48.265,judgeSpeechMusic_20210519_logNormShiftAmp_mXs,2020.1.2,MacIntel,60,,,,,,,,,,,,,,2,5.290885,,0,0,134,134,81,1,stimuli/stim_20210519_power2amp/equal_lnn_AM2.5Hz_s45_33.m4a,,,
,,,,,,,,,,,,41261,2021-05-29_18h31.48.265,judgeSpeechMusic_20210519_logNormShiftAmp_mXs,2020.1.2,MacIntel,60,,,,,,,,,,,,,,2,5.31296,,0,0,135,135,30,1,stimuli/stim_20210519_power2amp/equal_lnn_AM1Hz_s45_17.m4a,,,
,,,,,,,,,,,,41261,2021-05-29_18h31.48.265,judgeSpeechMusic_20210519_logNormShiftAmp_mXs,2020.1.2,MacIntel,60,,,,,,,,,,,,,,2,5.826745,,0,0,136,136,50,1,stimuli/stim_20210519_power2amp/equal_lnn_AM2.5Hz_s15_38.m4a,,,
,,,,,,,,,,,,41261,2021-05-29_18h31.48.265,judgeSpeechMusic_20210519_logNormShiftAmp_mXs,2020.1.2,MacIntel,60,,,,,,,,,,,,,,2,5.67551,,0,0,137,137,94,1,stimuli/stim_20210519_power2amp/equal_lnn_AM2.5Hz_s55_45.m4a,,,
,,,,,,,,,,,,41261,2021-05-29_18h31.48.265,judgeSpeechMusic_20210519_logNormShiftAmp_mXs,2020.1.2,MacIntel,60,,,,,,,,,,,,,,2,9.845805,,0,0,138,138,101,1,stimuli/stim_20210519_power2amp/equal_lnn_AM4Hz_s15_48.m4a,,,
,,,,,,,,,,,,41261,2021-05-29_18h31.48.265,judgeSpeechMusic_20210519_logNormShiftAmp_mXs,2020.1.2,MacIntel,60,,,,,,,,,,,,,,2,20.865915,,0,0,139,139,16,1,stimuli/stim_20210519_power2amp/equal_lnn_AM1Hz_s25_6.m4a,,,
,,,,,,,,,,,,41261,2021-05-29_18h31.48.265,judgeSpeechMusic_20210519_logNormShiftAmp_mXs,2020.1.2,MacIntel,60,,,,,,,,,,,,,,1,5.945765,,0,0,140,140,91,1,stimuli/stim_20210519_power2amp/equal_lnn_AM2.5Hz_s55_31.m4a,,,
,,,,,,,,,,,,41261,2021-05-29_18h31.48.265,judgeSpeechMusic_20210519_logNormShiftAmp_mXs,2020.1.2,MacIntel,60,,,,,,,,,,,,,,2,5.658825,,0,0,141,141,120,1,stimuli/stim_20210519_power2amp/equal_lnn_AM4Hz_s35_6.m4a,,,
,,,,,,,,,,,,41261,2021-05-29_18h31.48.265,judgeSpeechMusic_20210519_logNormShiftAmp_mXs,2020.1.2,MacIntel,60,,,,,,,,,,,,,,2,5.594525,,0,0,142,142,88,1,stimuli/stim_20210519_power2amp/equal_lnn_AM2.5Hz_s45_7.m4a,,,
,,,,,,,,,,,,41261,2021-05-29_18h31.48.265,judgeSpeechMusic_20210519_logNormShiftAmp_mXs,2020.1.2,MacIntel,60,,,,,,,,,,,,,,1,5.60951,,0,0,143,143,144,1,stimuli/stim_20210519_power2amp/equal_lnn_AM4Hz_s55_3.m4a,,,
,,,,,,,,,,,,41261,2021-05-29_18h31.48.265,judgeSpeechMusic_20210519_logNormShiftAmp_mXs,2020.1.2,MacIntel,60,,,,,,,,,,,,,,1,5.57422,,0,0,144,144,132,1,stimuli/stim_20210519_power2amp/equal_lnn_AM4Hz_s45_9.m4a,,,
,,,,,,,,,,,,41261,2021-05-29_18h31.48.265,judgeSpeechMusic_20210519_logNormShiftAmp_mXs,2020.1.2,MacIntel,60,,,,,,,,,,,,,,2,12.695385,,0,0,145,145,59,1,stimuli/stim_20210519_power2amp/equal_lnn_AM2.5Hz_s15_19.m4a,,,
,,,,,,,,,,,,41261,2021-05-29_18h31.48.265,judgeSpeechMusic_20210519_logNormShiftAmp_mXs,2020.1.2,MacIntel,60,,,,,,,,,,,,,,1,5.325265,4,1,0,146,146,41,1,stimuli/stim_20210519_power2amp/equal_lnn_AM1Hz_s55_18.m4a,2.17227,,
,,,,,,,,,,,,41261,2021-05-29_18h31.48.265,judgeSpeechMusic_20210519_logNormShiftAmp_mXs,2020.1.2,MacIntel,60,,,,,,,,,,,,,,2,6.14533,,0,0,147,147,84,1,stimuli/stim_20210519_power2amp/equal_lnn_AM2.5Hz_s45_41.m4a,,,
,,,,,,,,,,,,41261,2021-05-29_18h31.48.265,judgeSpeechMusic_20210519_logNormShiftAmp_mXs,2020.1.2,MacIntel,60,,,,,,,,,,,,,,2,5.896715,,0,0,148,148,53,1,stimuli/stim_20210519_power2amp/equal_lnn_AM2.5Hz_s15_3.m4a,,,
,,,,,,,,,,,,41261,2021-05-29_18h31.48.265,judgeSpeechMusic_20210519_logNormShiftAmp_mXs,2020.1.2,MacIntel,60,,,,,,,,,,,,,,2,5.50848,,0,0,149,149,36,1,stimuli/stim_20210519_power2amp/equal_lnn_AM1Hz_s45_34.m4a,,,
,,,,,,,,,,,,41261,2021-05-29_18h31.48.265,judgeSpeechMusic_20210519_logNormShiftAmp_mXs,2020.1.2,MacIntel,60,,,,,,,,,,,,,,2,7.982195,,0,1,0,150,144,1,stimuli/stim_20210519_power2amp/equal_lnn_AM4Hz_s55_3.m4a,,,
,,,,,,,,,,,,41261,2021-05-29_18h31.48.265,judgeSpeechMusic_20210519_logNormShiftAmp_mXs,2020.1.2,MacIntel,60,,,,,,,,,,,,,,2,6.749585,,0,1,1,151,133,1,stimuli/stim_20210519_power2amp/equal_lnn_AM4Hz_s45_5.m4a,,,
,,,,,,,,,,,,41261,2021-05-29_18h31.48.265,judgeSpeechMusic_20210519_logNormShiftAmp_mXs,2020.1.2,MacIntel,60,,,,,,,,,,,,,,1,6.136055,,0,1,2,152,62,1,stimuli/stim_20210519_power2amp/equal_lnn_AM2.5Hz_s25_14.m4a,,,
,,,,,,,,,,,,41261,2021-05-29_18h31.48.265,judgeSpeechMusic_20210519_logNormShiftAmp_mXs,2020.1.2,MacIntel,60,,,,,,,,,,,,,,1,6.271385,,0,1,3,153,35,1,stimuli/stim_20210519_power2amp/equal_lnn_AM1Hz_s45_12.m4a,,,
,,,,,,,,,,,,41261,2021-05-29_18h31.48.265,judgeSpeechMusic_20210519_logNormShiftAmp_mXs,2020.1.2,MacIntel,60,,,,,,,,,,,,,,1,5.509285,,0,1,4,154,22,1,stimuli/stim_20210519_power2amp/equal_lnn_AM1Hz_s35_46.m4a,,,
,,,,,,,,,,,,41261,2021-05-29_18h31.48.265,judgeSpeechMusic_20210519_logNormShiftAmp_mXs,2020.1.2,MacIntel,60,,,,,,,,,,,,,,1,5.82633,,0,1,5,155,97,1,stimuli/stim_20210519_power2amp/equal_lnn_AM2.5Hz_s55_13.m4a,,,
,,,,,,,,,,,,41261,2021-05-29_18h31.48.265,judgeSpeechMusic_20210519_logNormShiftAmp_mXs,2020.1.2,MacIntel,60,,,,,,,,,,,,,,2,6.627135,,0,1,6,156,53,1,stimuli/stim_20210519_power2amp/equal_lnn_AM2.5Hz_s15_3.m4a,,,
,,,,,,,,,,,,41261,2021-05-29_18h31.48.265,judgeSpeechMusic_20210519_logNormShiftAmp_mXs,2020.1.2,MacIntel,60,,,,,,,,,,,,,,2,5.258855,,0,1,7,157,23,1,stimuli/stim_20210519_power2amp/equal_lnn_AM1Hz_s35_32.m4a,,,
,,,,,,,,,,,,41261,2021-05-29_18h31.48.265,judgeSpeechMusic_20210519_logNormShiftAmp_mXs,2020.1.2,MacIntel,60,,,,,,,,,,,,,,1,15.84537,,0,1,8,158,44,1,stimuli/stim_20210519_power2amp/equal_lnn_AM1Hz_s55_38.m4a,,,
,,,,,,,,,,,,41261,2021-05-29_18h31.48.265,judgeSpeechMusic_20210519_logNormShiftAmp_mXs,2020.1.2,MacIntel,60,,,,,,,,,,,,,,2,7.46049,,0,1,9,159,125,1,stimuli/stim_20210519_power2amp/equal_lnn_AM4Hz_s35_36.m4a,,,
,,,,,,,,,,,,41261,2021-05-29_18h31.48.265,judgeSpeechMusic_20210519_logNormShiftAmp_mXs,2020.1.2,MacIntel,60,,,,,,,,,,,,,,2,7.244425,,0,1,10,160,100,1,stimuli/stim_20210519_power2amp/equal_lnn_AM4Hz_s15_47.m4a,,,
,,,,,,,,,,,,41261,2021-05-29_18h31.48.265,judgeSpeechMusic_20210519_logNormShiftAmp_mXs,2020.1.2,MacIntel,60,,,,,,,,,,,,,,1,6.60867,,0,1,11,161,10,1,stimuli/stim_20210519_power2amp/equal_lnn_AM1Hz_s25_46.m4a,,,
,,,,,,,,,,,,41261,2021-05-29_18h31.48.265,judgeSpeechMusic_20210519_logNormShiftAmp_mXs,2020.1.2,MacIntel,60,,,,,,,,,,,,,,1,27.06879,,0,1,12,162,86,1,stimuli/stim_20210519_power2amp/equal_lnn_AM2.5Hz_s45_28.m4a,,,
,,,,,,,,,,,,41261,2021-05-29_18h31.48.265,judgeSpeechMusic_20210519_logNormShiftAmp_mXs,2020.1.2,MacIntel,60,,,,,,,,,,,,,,2,5.791155,,0,1,13,163,132,1,stimuli/stim_20210519_power2amp/equal_lnn_AM4Hz_s45_9.m4a,,,
,,,,,,,,,,,,41261,2021-05-29_18h31.48.265,judgeSpeechMusic_20210519_logNormShiftAmp_mXs,2020.1.2,MacIntel,60,,,,,,,,,,,,,,2,5.392775,,0,1,14,164,94,1,stimuli/stim_20210519_power2amp/equal_lnn_AM2.5Hz_s55_45.m4a,,,
,,,,,,,,,,,,41261,2021-05-29_18h31.48.265,judgeSpeechMusic_20210519_logNormShiftAmp_mXs,2020.1.2,MacIntel,60,,,,,,,,,,,,,,1,7.042745,,0,1,15,165,4,1,stimuli/stim_20210519_power2amp/equal_lnn_AM1Hz_s15_23.m4a,,,
,,,,,,,,,,,,41261,2021-05-29_18h31.48.265,judgeSpeechMusic_20210519_logNormShiftAmp_mXs,2020.1.2,MacIntel,60,,,,,,,,,,,,,,1,5.209145,,0,1,16,166,21,1,stimuli/stim_20210519_power2amp/equal_lnn_AM1Hz_s35_38.m4a,,,
,,,,,,,,,,,,41261,2021-05-29_18h31.48.265,judgeSpeechMusic_20210519_logNormShiftAmp_mXs,2020.1.2,MacIntel,60,,,,,,,,,,,,,,1,5.89211,,0,1,17,167,147,1,stimuli/stim_20210519_power2amp/equal_lnn_AM4Hz_s55_24.m4a,,,
,,,,,,,,,,,,41261,2021-05-29_18h31.48.265,judgeSpeechMusic_20210519_logNormShiftAmp_mXs,2020.1.2,MacIntel,60,,,,,,,,,,,,,,2,5.695465,,0,1,18,168,46,1,stimuli/stim_20210519_power2amp/equal_lnn_AM1Hz_s55_44.m4a,,,
,,,,,,,,,,,,41261,2021-05-29_18h31.48.265,judgeSpeechMusic_20210519_logNormShiftAmp_mXs,2020.1.2,MacIntel,60,,,,,,,,,,,,,,1,5.45784,4,1,1,19,169,3,1,stimuli/stim_20210519_power2amp/equal_lnn_AM1Hz_s15_50.m4a,2.146655,,
,,,,,,,,,,,,41261,2021-05-29_18h31.48.265,judgeSpeechMusic_20210519_logNormShiftAmp_mXs,2020.1.2,MacIntel,60,,,,,,,,,,,,,,2,6.962535,,0,1,20,170,73,1,stimuli/stim_20210519_power2amp/equal_lnn_AM2.5Hz_s35_6.m4a,,,
,,,,,,,,,,,,41261,2021-05-29_18h31.48.265,judgeSpeechMusic_20210519_logNormShiftAmp_mXs,2020.1.2,MacIntel,60,,,,,,,,,,,,,,2,5.34455,,0,1,21,171,142,1,stimuli/stim_20210519_power2amp/equal_lnn_AM4Hz_s55_14.m4a,,,
,,,,,,,,,,,,41261,2021-05-29_18h31.48.265,judgeSpeechMusic_20210519_logNormShiftAmp_mXs,2020.1.2,MacIntel,60,,,,,,,,,,,,,,2,5.324905,,0,1,22,172,107,1,stimuli/stim_20210519_power2amp/equal_lnn_AM4Hz_s15_9.m4a,,,
,,,,,,,,,,,,41261,2021-05-29_18h31.48.265,judgeSpeechMusic_20210519_logNormShiftAmp_mXs,2020.1.2,MacIntel,60,,,,,,,,,,,,,,2,5.391985,,0,1,23,173,120,1,stimuli/stim_20210519_power2amp/equal_lnn_AM4Hz_s35_6.m4a,,,
,,,,,,,,,,,,41261,2021-05-29_18h31.48.265,judgeSpeechMusic_20210519_logNormShiftAmp_mXs,2020.1.2,MacIntel,60,,,,,,,,,,,,,,2,5.358515,,0,1,24,174,84,1,stimuli/stim_20210519_power2amp/equal_lnn_AM2.5Hz_s45_41.m4a,,,
,,,,,,,,,,,,41261,2021-05-29_18h31.48.265,judgeSpeechMusic_20210519_logNormShiftAmp_mXs,2020.1.2,MacIntel,60,,,,,,,,,,,,,,1,5.80919,,0,1,25,175,27,1,stimuli/stim_20210519_power2amp/equal_lnn_AM1Hz_s35_37.m4a,,,
,,,,,,,,,,,,41261,2021-05-29_18h31.48.265,judgeSpeechMusic_20210519_logNormShiftAmp_mXs,2020.1.2,MacIntel,60,,,,,,,,,,,,,,1,5.29282,,0,1,26,176,16,1,stimuli/stim_20210519_power2amp/equal_lnn_AM1Hz_s25_6.m4a,,,
,,,,,,,,,,,,41261,2021-05-29_18h31.48.265,judgeSpeechMusic_20210519_logNormShiftAmp_mXs,2020.1.2,MacIntel,60,,,,,,,,,,,,,,1,5.310255,,0,1,27,177,122,1,stimuli/stim_20210519_power2amp/equal_lnn_AM4Hz_s35_16.m4a,,,
,,,,,,,,,,,,41261,2021-05-29_18h31.48.265,judgeSpeechMusic_20210519_logNormShiftAmp_mXs,2020.1.2,MacIntel,60,,,,,,,,,,,,,,1,5.3432,,0,1,28,178,59,1,stimuli/stim_20210519_power2amp/equal_lnn_AM2.5Hz_s15_19.m4a,,,
,,,,,,,,,,,,41261,2021-05-29_18h31.48.265,judgeSpeechMusic_20210519_logNormShiftAmp_mXs,2020.1.2,MacIntel,60,,,,,,,,,,,,,,1,5.929905,,0,1,29,179,42,1,stimuli/stim_20210519_power2amp/equal_lnn_AM1Hz_s55_28.m4a,,,
,,,,,,,,,,,,41261,2021-05-29_18h31.48.265,judgeSpeechMusic_20210519_logNormShiftAmp_mXs,2020.1.2,MacIntel,60,,,,,,,,,,,,,,1,6.39438,,0,1,30,180,29,1,stimuli/stim_20210519_power2amp/equal_lnn_AM1Hz_s35_22.m4a,,,
,,,,,,,,,,,,41261,2021-05-29_18h31.48.265,judgeSpeechMusic_20210519_logNormShiftAmp_mXs,2020.1.2,MacIntel,60,,,,,,,,,,,,,,1,5.27723,,0,1,31,181,141,1,stimuli/stim_20210519_power2amp/equal_lnn_AM4Hz_s55_38.m4a,,,
,,,,,,,,,,,,41261,2021-05-29_18h31.48.265,judgeSpeechMusic_20210519_logNormShiftAmp_mXs,2020.1.2,MacIntel,60,,,,,,,,,,,,,,1,5.508875,,0,1,32,182,65,1,stimuli/stim_20210519_power2amp/equal_lnn_AM2.5Hz_s25_41.m4a,,,
,,,,,,,,,,,,41261,2021-05-29_18h31.48.265,judgeSpeechMusic_20210519_logNormShiftAmp_mXs,2020.1.2,MacIntel,60,,,,,,,,,,,,,,1,5.33673,,0,1,33,183,98,1,stimuli/stim_20210519_power2amp/equal_lnn_AM2.5Hz_s55_19.m4a,,,
,,,,,,,,,,,,41261,2021-05-29_18h31.48.265,judgeSpeechMusic_20210519_logNormShiftAmp_mXs,2020.1.2,MacIntel,60,,,,,,,,,,,,,,1,6.971955,,0,1,34,184,43,1,stimuli/stim_20210519_power2amp/equal_lnn_AM1Hz_s55_42.m4a,,,
,,,,,,,,,,,,41261,2021-05-29_18h31.48.265,judgeSpeechMusic_20210519_logNormShiftAmp_mXs,2020.1.2,MacIntel,60,,,,,,,,,,,,,,2,5.414745,,0,1,35,185,121,1,stimuli/stim_20210519_power2amp/equal_lnn_AM4Hz_s35_39.m4a,,,
,,,,,,,,,,,,41261,2021-05-29_18h31.48.265,judgeSpeechMusic_20210519_logNormShiftAmp_mXs,2020.1.2,MacIntel,60,,,,,,,,,,,,,,2,5.34602,,0,1,36,186,88,1,stimuli/stim_20210519_power2amp/equal_lnn_AM2.5Hz_s45_7.m4a,,,
,,,,,,,,,,,,41261,2021-05-29_18h31.48.265,judgeSpeechMusic_20210519_logNormShiftAmp_mXs,2020.1.2,MacIntel,60,,,,,,,,,,,,,,2,7.362465,,0,1,37,187,105,1,stimuli/stim_20210519_power2amp/equal_lnn_AM4Hz_s15_13.m4a,,,
,,,,,,,,,,,,41261,2021-05-29_18h31.48.265,judgeSpeechMusic_20210519_logNormShiftAmp_mXs,2020.1.2,MacIntel,60,,,,,,,,,,,,,,2,9.343035,,0,1,38,188,126,1,stimuli/stim_20210519_power2amp/equal_lnn_AM4Hz_s35_35.m4a,,,
,,,,,,,,,,,,41261,2021-05-29_18h31.48.265,judgeSpeechMusic_20210519_logNormShiftAmp_mXs,2020.1.2,MacIntel,60,,,,,,,,,,,,,,2,5.972575,,0,1,39,189,77,1,stimuli/stim_20210519_power2amp/equal_lnn_AM2.5Hz_s35_35.m4a,,,
,,,,,,,,,,,,41261,2021-05-29_18h31.48.265,judgeSpeechMusic_20210519_logNormShiftAmp_mXs,2020.1.2,MacIntel,60,,,,,,,,,,,,,,1,30.728855,4,1,1,40,190,36,1,stimuli/stim_20210519_power2amp/equal_lnn_AM1Hz_s45_34.m4a,2.121215,,
,,,,,,,,,,,,41261,2021-05-29_18h31.48.265,judgeSpeechMusic_20210519_logNormShiftAmp_mXs,2020.1.2,MacIntel,60,,,,,,,,,,,,,,2,5.21701,,0,1,41,191,52,1,stimuli/stim_20210519_power2amp/equal_lnn_AM2.5Hz_s15_21.m4a,,,
,,,,,,,,,,,,41261,2021-05-29_18h31.48.265,judgeSpeechMusic_20210519_logNormShiftAmp_mXs,2020.1.2,MacIntel,60,,,,,,,,,,,,,,2,5.244775,,0,1,42,192,93,1,stimuli/stim_20210519_power2amp/equal_lnn_AM2.5Hz_s55_22.m4a,,,
,,,,,,,,,,,,41261,2021-05-29_18h31.48.265,judgeSpeechMusic_20210519_logNormShiftAmp_mXs,2020.1.2,MacIntel,60,,,,,,,,,,,,,,2,5.225915,,0,1,43,193,143,1,stimuli/stim_20210519_power2amp/equal_lnn_AM4Hz_s55_5.m4a,,,
,,,,,,,,,,,,41261,2021-05-29_18h31.48.265,judgeSpeechMusic_20210519_logNormShiftAmp_mXs,2020.1.2,MacIntel,60,,,,,,,,,,,,,,2,55.983185,,0,1,44,194,76,1,stimuli/stim_20210519_power2amp/equal_lnn_AM2.5Hz_s35_1.m4a,,,
,,,,,,,,,,,,41261,2021-05-29_18h31.48.265,judgeSpeechMusic_20210519_logNormShiftAmp_mXs,2020.1.2,MacIntel,60,,,,,,,,,,,,,,2,5.36019,,0,1,45,195,135,1,stimuli/stim_20210519_power2amp/equal_lnn_AM4Hz_s45_22.m4a,,,
,,,,,,,,,,,,41261,2021-05-29_18h31.48.265,judgeSpeechMusic_20210519_logNormShiftAmp_mXs,2020.1.2,MacIntel,60,,,,,,,,,,,,,,2,12.91704,,0,1,46,196,95,1,stimuli/stim_20210519_power2amp/equal_lnn_AM2.5Hz_s55_28.m4a,,,
,,,,,,,,,,,,41261,2021-05-29_18h31.48.265,judgeSpeechMusic_20210519_logNormShiftAmp_mXs,2020.1.2,MacIntel,60,,,,,,,,,,,,,,1,8.493015,,0,1,47,197,24,1,stimuli/stim_20210519_power2amp/equal_lnn_AM1Hz_s35_36.m4a,,,
,,,,,,,,,,,,41261,2021-05-29_18h31.48.265,judgeSpeechMusic_20210519_logNormShiftAmp_mXs,2020.1.2,MacIntel,60,,,,,,,,,,,,,,1,5.27502,,0,1,48,198,34,1,stimuli/stim_20210519_power2amp/equal_lnn_AM1Hz_s45_22.m4a,,,
,,,,,,,,,,,,41261,2021-05-29_18h31.48.265,judgeSpeechMusic_20210519_logNormShiftAmp_mXs,2020.1.2,MacIntel,60,,,,,,,,,,,,,,1,15.44895,,0,1,49,199,134,1,stimuli/stim_20210519_power2amp/equal_lnn_AM4Hz_s45_15.m4a,,,
,,,,,,,,,,,,41261,2021-05-29_18h31.48.265,judgeSpeechMusic_20210519_logNormShiftAmp_mXs,2020.1.2,MacIntel,60,,,,,,,,,,,,,,2,31.988175,,0,1,50,200,69,1,stimuli/stim_20210519_power2amp/equal_lnn_AM2.5Hz_s25_18.m4a,,,
,,,,,,,,,,,,41261,2021-05-29_18h31.48.265,judgeSpeechMusic_20210519_logNormShiftAmp_mXs,2020.1.2,MacIntel,60,,,,,,,,,,,,,,2,5.25828,,0,1,51,201,115,1,stimuli/stim_20210519_power2amp/equal_lnn_AM4Hz_s25_27.m4a,,,
,,,,,,,,,,,,41261,2021-05-29_18h31.48.265,judgeSpeechMusic_20210519_logNormShiftAmp_mXs,2020.1.2,MacIntel,60,,,,,,,,,,,,,,2,5.359205,,0,1,52,202,137,1,stimuli/stim_20210519_power2amp/equal_lnn_AM4Hz_s45_21.m4a,,,
,,,,,,,,,,,,41261,2021-05-29_18h31.48.265,judgeSpeechMusic_20210519_logNormShiftAmp_mXs,2020.1.2,MacIntel,60,,,,,,,,,,,,,,2,12.74609,,0,1,53,203,57,1,stimuli/stim_20210519_power2amp/equal_lnn_AM2.5Hz_s15_46.m4a,,,
,,,,,,,,,,,,41261,2021-05-29_18h31.48.265,judgeSpeechMusic_20210519_logNormShiftAmp_mXs,2020.1.2,MacIntel,60,,,,,,,,,,,,,,2,5.72811,,0,1,54,204,60,1,stimuli/stim_20210519_power2amp/equal_lnn_AM2.5Hz_s25_11.m4a,,,
,,,,,,,,,,,,41261,2021-05-29_18h31.48.265,judgeSpeechMusic_20210519_logNormShiftAmp_mXs,2020.1.2,MacIntel,60,,,,,,,,,,,,,,2,5.395195,,0,1,55,205,131,1,stimuli/stim_20210519_power2amp/equal_lnn_AM4Hz_s45_13.m4a,,,
,,,,,,,,,,,,41261,2021-05-29_18h31.48.265,judgeSpeechMusic_20210519_logNormShiftAmp_mXs,2020.1.2,MacIntel,60,,,,,,,,,,,,,,2,5.30972,,0,1,56,206,64,1,stimuli/stim_20210519_power2amp/equal_lnn_AM2.5Hz_s25_16.m4a,,,
,,,,,,,,,,,,41261,2021-05-29_18h31.48.265,judgeSpeechMusic_20210519_logNormShiftAmp_mXs,2020.1.2,MacIntel,60,,,,,,,,,,,,,,2,5.3452,,0,1,57,207,128,1,stimuli/stim_20210519_power2amp/equal_lnn_AM4Hz_s35_17.m4a,,,
,,,,,,,,,,,,41261,2021-05-29_18h31.48.265,judgeSpeechMusic_20210519_logNormShiftAmp_mXs,2020.1.2,MacIntel,60,,,,,,,,,,,,,,2,5.590615,,0,1,58,208,130,1,stimuli/stim_20210519_power2amp/equal_lnn_AM4Hz_s45_25.m4a,,,
,,,,,,,,,,,,41261,2021-05-29_18h31.48.265,judgeSpeechMusic_20210519_logNormShiftAmp_mXs,2020.1.2,MacIntel,60,,,,,,,,,,,,,,1,8.162515,,0,1,59,209,37,1,stimuli/stim_20210519_power2amp/equal_lnn_AM1Hz_s45_6.m4a,,,
,,,,,,,,,,,,41261,2021-05-29_18h31.48.265,judgeSpeechMusic_20210519_logNormShiftAmp_mXs,2020.1.2,MacIntel,60,,,,,,,,,,,,,,2,5.311115,,0,1,60,210,108,1,stimuli/stim_20210519_power2amp/equal_lnn_AM4Hz_s15_21.m4a,,,
,,,,,,,,,,,,41261,2021-05-29_18h31.48.265,judgeSpeechMusic_20210519_logNormShiftAmp_mXs,2020.1.2,MacIntel,60,,,,,,,,,,,,,,2,5.27901,,0,1,61,211,101,1,stimuli/stim_20210519_power2amp/equal_lnn_AM4Hz_s15_48.m4a,,,
,,,,,,,,,,,,41261,2021-05-29_18h31.48.265,judgeSpeechMusic_20210519_logNormShiftAmp_mXs,2020.1.2,MacIntel,60,,,,,,,,,,,,,,1,5.225575,,0,1,62,212,72,1,stimuli/stim_20210519_power2amp/equal_lnn_AM2.5Hz_s35_41.m4a,,,
,,,,,,,,,,,,41261,2021-05-29_18h31.48.265,judgeSpeechMusic_20210519_logNormShiftAmp_mXs,2020.1.2,MacIntel,60,,,,,,,,,,,,,,1,5.359025,,0,1,63,213,71,1,stimuli/stim_20210519_power2amp/equal_lnn_AM2.5Hz_s35_25.m4a,,,
,,,,,,,,,,,,41261,2021-05-29_18h31.48.265,judgeSpeechMusic_20210519_logNormShiftAmp_mXs,2020.1.2,MacIntel,60,,,,,,,,,,,,,,1,5.377725,1,1,1,64,214,129,1,stimuli/stim_20210519_power2amp/equal_lnn_AM4Hz_s35_24.m4a,0.32794,,
,,,,,,,,,,,,41261,2021-05-29_18h31.48.265,judgeSpeechMusic_20210519_logNormShiftAmp_mXs,2020.1.2,MacIntel,60,,,,,,,,,,,,,,1,5.27771,,0,1,65,215,50,1,stimuli/stim_20210519_power2amp/equal_lnn_AM2.5Hz_s15_38.m4a,,,
,,,,,,,,,,,,41261,2021-05-29_18h31.48.265,judgeSpeechMusic_20210519_logNormShiftAmp_mXs,2020.1.2,MacIntel,60,,,,,,,,,,,,,,2,5.47346,,0,1,66,216,124,1,stimuli/stim_20210519_power2amp/equal_lnn_AM4Hz_s35_31.m4a,,,
,,,,,,,,,,,,41261,2021-05-29_18h31.48.265,judgeSpeechMusic_20210519_logNormShiftAmp_mXs,2020.1.2,MacIntel,60,,,,,,,,,,,,,,2,5.77413,,0,1,67,217,80,1,stimuli/stim_20210519_power2amp/equal_lnn_AM2.5Hz_s45_47.m4a,,,
,,,,,,,,,,,,41261,2021-05-29_18h31.48.265,judgeSpeechMusic_20210519_logNormShiftAmp_mXs,2020.1.2,MacIntel,60,,,,,,,,,,,,,,1,5.42569,,0,1,68,218,14,1,stimuli/stim_20210519_power2amp/equal_lnn_AM1Hz_s25_3.m4a,,,
,,,,,,,,,,,,41261,2021-05-29_18h31.48.265,judgeSpeechMusic_20210519_logNormShiftAmp_mXs,2020.1.2,MacIntel,60,,,,,,,,,,,,,,1,5.27488,,0,1,69,219,68,1,stimuli/stim_20210519_power2amp/equal_lnn_AM2.5Hz_s25_10.m4a,,,
,,,,,,,,,,,,41261,2021-05-29_18h31.48.265,judgeSpeechMusic_20210519_logNormShiftAmp_mXs,2020.1.2,MacIntel,60,,,,,,,,,,,,,,1,5.21322,,0,1,70,220,55,1,stimuli/stim_20210519_power2amp/equal_lnn_AM2.5Hz_s15_37.m4a,,,
,,,,,,,,,,,,41261,2021-05-29_18h31.48.265,judgeSpeechMusic_20210519_logNormShiftAmp_mXs,2020.1.2,MacIntel,60,,,,,,,,,,,,,,1,5.22704,,0,1,71,221,13,1,stimuli/stim_20210519_power2amp/equal_lnn_AM1Hz_s25_31.m4a,,,
,,,,,,,,,,,,41261,2021-05-29_18h31.48.265,judgeSpeechMusic_20210519_logNormShiftAmp_mXs,2020.1.2,MacIntel,60,,,,,,,,,,,,,,1,5.225085,,0,1,72,222,12,1,stimuli/stim_20210519_power2amp/equal_lnn_AM1Hz_s25_37.m4a,,,
,,,,,,,,,,,,41261,2021-05-29_18h31.48.265,judgeSpeechMusic_20210519_logNormShiftAmp_mXs,2020.1.2,MacIntel,60,,,,,,,,,,,,,,2,5.409475,,0,1,73,223,140,1,stimuli/stim_20210519_power2amp/equal_lnn_AM4Hz_s55_40.m4a,,,
,,,,,,,,,,,,41261,2021-05-29_18h31.48.265,judgeSpeechMusic_20210519_logNormShiftAmp_mXs,2020.1.2,MacIntel,60,,,,,,,,,,,,,,2,5.3095,,0,1,74,224,146,1,stimuli/stim_20210519_power2amp/equal_lnn_AM4Hz_s55_13.m4a,,,
,,,,,,,,,,,,41261,2021-05-29_18h31.48.265,judgeSpeechMusic_20210519_logNormShiftAmp_mXs,2020.1.2,MacIntel,60,,,,,,,,,,,,,,1,5.409315,,0,1,75,225,28,1,stimuli/stim_20210519_power2amp/equal_lnn_AM1Hz_s35_11.m4a,,,
,,,,,,,,,,,,41261,2021-05-29_18h31.48.265,judgeSpeechMusic_20210519_logNormShiftAmp_mXs,2020.1.2,MacIntel,60,,,,,,,,,,,,,,1,5.307755,,0,1,76,226,145,1,stimuli/stim_20210519_power2amp/equal_lnn_AM4Hz_s55_6.m4a,,,
,,,,,,,,,,,,41261,2021-05-29_18h31.48.265,judgeSpeechMusic_20210519_logNormShiftAmp_mXs,2020.1.2,MacIntel,60,,,,,,,,,,,,,,1,5.89303,,0,1,77,227,99,1,stimuli/stim_20210519_power2amp/equal_lnn_AM2.5Hz_s55_36.m4a,,,
,,,,,,,,,,,,41261,2021-05-29_18h31.48.265,judgeSpeechMusic_20210519_logNormShiftAmp_mXs,2020.1.2,MacIntel,60,,,,,,,,,,,,,,1,5.442085,,0,1,78,228,110,1,stimuli/stim_20210519_power2amp/equal_lnn_AM4Hz_s25_41.m4a,,,
,,,,,,,,,,,,41261,2021-05-29_18h31.48.265,judgeSpeechMusic_20210519_logNormShiftAmp_mXs,2020.1.2,MacIntel,60,,,,,,,,,,,,,,1,5.310705,,0,1,79,229,19,1,stimuli/stim_20210519_power2amp/equal_lnn_AM1Hz_s25_22.m4a,,,
,,,,,,,,,,,,41261,2021-05-29_18h31.48.265,judgeSpeechMusic_20210519_logNormShiftAmp_mXs,2020.1.2,MacIntel,60,,,,,,,,,,,,,,2,5.827765,,0,1,80,230,127,1,stimuli/stim_20210519_power2amp/equal_lnn_AM4Hz_s35_25.m4a,,,
,,,,,,,,,,,,41261,2021-05-29_18h31.48.265,judgeSpeechMusic_20210519_logNormShiftAmp_mXs,2020.1.2,MacIntel,60,,,,,,,,,,,,,,2,6.64434,,0,1,81,231,26,1,stimuli/stim_20210519_power2amp/equal_lnn_AM1Hz_s35_10.m4a,,,
,,,,,,,,,,,,41261,2021-05-29_18h31.48.265,judgeSpeechMusic_20210519_logNormShiftAmp_mXs,2020.1.2,MacIntel,60,,,,,,,,,,,,,,2,5.307525,,0,1,82,232,87,1,stimuli/stim_20210519_power2amp/equal_lnn_AM2.5Hz_s45_21.m4a,,,
,,,,,,,,,,,,41261,2021-05-29_18h31.48.265,judgeSpeechMusic_20210519_logNormShiftAmp_mXs,2020.1.2,MacIntel,60,,,,,,,,,,,,,,2,5.759995,,0,1,83,233,103,1,stimuli/stim_20210519_power2amp/equal_lnn_AM4Hz_s15_14.m4a,,,
,,,,,,,,,,,,41261,2021-05-29_18h31.48.265,judgeSpeechMusic_20210519_logNormShiftAmp_mXs,2020.1.2,MacIntel,60,,,,,,,,,,,,,,1,6.61245,,0,1,84,234,74,1,stimuli/stim_20210519_power2amp/equal_lnn_AM2.5Hz_s35_4.m4a,,,
,,,,,,,,,,,,41261,2021-05-29_18h31.48.265,judgeSpeechMusic_20210519_logNormShiftAmp_mXs,2020.1.2,MacIntel,60,,,,,,,,,,,,,,2,6.075795,,0,1,85,235,58,1,stimuli/stim_20210519_power2amp/equal_lnn_AM2.5Hz_s15_1.m4a,,,
,,,,,,,,,,,,41261,2021-05-29_18h31.48.265,judgeSpeechMusic_20210519_logNormShiftAmp_mXs,2020.1.2,MacIntel,60,,,,,,,,,,,,,,1,6.458455,,0,1,86,236,48,1,stimuli/stim_20210519_power2amp/equal_lnn_AM1Hz_s55_12.m4a,,,
,,,,,,,,,,,,41261,2021-05-29_18h31.48.265,judgeSpeechMusic_20210519_logNormShiftAmp_mXs,2020.1.2,MacIntel,60,,,,,,,,,,,,,,2,25.28771,,0,1,87,237,91,1,stimuli/stim_20210519_power2amp/equal_lnn_AM2.5Hz_s55_31.m4a,,,
,,,,,,,,,,,,41261,2021-05-29_18h31.48.265,judgeSpeechMusic_20210519_logNormShiftAmp_mXs,2020.1.2,MacIntel,60,,,,,,,,,,,,,,2,5.341445,2,1,1,88,238,38,1,stimuli/stim_20210519_power2amp/equal_lnn_AM1Hz_s45_42.m4a,0.330445,,
,,,,,,,,,,,,41261,2021-05-29_18h31.48.265,judgeSpeechMusic_20210519_logNormShiftAmp_mXs,2020.1.2,MacIntel,60,,,,,,,,,,,,,,1,5.31194,,0,1,89,239,9,1,stimuli/stim_20210519_power2amp/equal_lnn_AM1Hz_s15_2.m4a,,,
,,,,,,,,,,,,41261,2021-05-29_18h31.48.265,judgeSpeechMusic_20210519_logNormShiftAmp_mXs,2020.1.2,MacIntel,60,,,,,,,,,,,,,,1,5.36986,,0,1,90,240,70,1,stimuli/stim_20210519_power2amp/equal_lnn_AM2.5Hz_s35_50.m4a,,,
,,,,,,,,,,,,41261,2021-05-29_18h31.48.265,judgeSpeechMusic_20210519_logNormShiftAmp_mXs,2020.1.2,MacIntel,60,,,,,,,,,,,,,,1,5.40804,,0,1,91,241,45,1,stimuli/stim_20210519_power2amp/equal_lnn_AM1Hz_s55_37.m4a,,,
,,,,,,,,,,,,41261,2021-05-29_18h31.48.265,judgeSpeechMusic_20210519_logNormShiftAmp_mXs,2020.1.2,MacIntel,60,,,,,,,,,,,,,,1,5.40929,,0,1,92,242,6,1,stimuli/stim_20210519_power2amp/equal_lnn_AM1Hz_s15_24.m4a,,,
,,,,,,,,,,,,41261,2021-05-29_18h31.48.265,judgeSpeechMusic_20210519_logNormShiftAmp_mXs,2020.1.2,MacIntel,60,,,,,,,,,,,,,,1,5.3252,,0,1,93,243,109,1,stimuli/stim_20210519_power2amp/equal_lnn_AM4Hz_s15_3.m4a,,,
,,,,,,,,,,,,41261,2021-05-29_18h31.48.265,judgeSpeechMusic_20210519_logNormShiftAmp_mXs,2020.1.2,MacIntel,60,,,,,,,,,,,,,,1,5.2333,,0,1,94,244,148,1,stimuli/stim_20210519_power2amp/equal_lnn_AM4Hz_s55_23.m4a,,,
,,,,,,,,,,,,41261,2021-05-29_18h31.48.265,judgeSpeechMusic_20210519_logNormShiftAmp_mXs,2020.1.2,MacIntel,60,,,,,,,,,,,,,,1,9.3615,,0,1,95,245,8,1,stimuli/stim_20210519_power2amp/equal_lnn_AM1Hz_s15_7.m4a,,,
,,,,,,,,,,,,41261,2021-05-29_18h31.48.265,judgeSpeechMusic_20210519_logNormShiftAmp_mXs,2020.1.2,MacIntel,60,,,,,,,,,,,,,,2,5.513125,,0,1,96,246,61,1,stimuli/stim_20210519_power2amp/equal_lnn_AM2.5Hz_s25_13.m4a,,,
,,,,,,,,,,,,41261,2021-05-29_18h31.48.265,judgeSpeechMusic_20210519_logNormShiftAmp_mXs,2020.1.2,MacIntel,60,,,,,,,,,,,,,,2,7.074805,,0,1,97,247,90,1,stimuli/stim_20210519_power2amp/equal_lnn_AM2.5Hz_s55_30.m4a,,,
,,,,,,,,,,,,41261,2021-05-29_18h31.48.265,judgeSpeechMusic_20210519_logNormShiftAmp_mXs,2020.1.2,MacIntel,60,,,,,,,,,,,,,,1,17.7504,,0,1,98,248,33,1,stimuli/stim_20210519_power2amp/equal_lnn_AM1Hz_s45_45.m4a,,,
,,,,,,,,,,,,41261,2021-05-29_18h31.48.265,judgeSpeechMusic_20210519_logNormShiftAmp_mXs,2020.1.2,MacIntel,60,,,,,,,,,,,,,,1,5.29238,,0,1,99,249,18,1,stimuli/stim_20210519_power2amp/equal_lnn_AM1Hz_s25_14.m4a,,,
,,,,,,,,,,,,41261,2021-05-29_18h31.48.265,judgeSpeechMusic_20210519_logNormShiftAmp_mXs,2020.1.2,MacIntel,60,,,,,,,,,,,,,,2,11.886615,,0,1,100,250,79,1,stimuli/stim_20210519_power2amp/equal_lnn_AM2.5Hz_s35_7.m4a,,,
,,,,,,,,,,,,41261,2021-05-29_18h31.48.265,judgeSpeechMusic_20210519_logNormShiftAmp_mXs,2020.1.2,MacIntel,60,,,,,,,,,,,,,,2,8.59239,,0,1,101,251,0,1,stimuli/stim_20210519_power2amp/equal_lnn_AM1Hz_s15_16.m4a,,,
,,,,,,,,,,,,41261,2021-05-29_18h31.48.265,judgeSpeechMusic_20210519_logNormShiftAmp_mXs,2020.1.2,MacIntel,60,,,,,,,,,,,,,,2,7.10857,,0,1,102,252,82,1,stimuli/stim_20210519_power2amp/equal_lnn_AM2.5Hz_s45_13.m4a,,,
,,,,,,,,,,,,41261,2021-05-29_18h31.48.265,judgeSpeechMusic_20210519_logNormShiftAmp_mXs,2020.1.2,MacIntel,60,,,,,,,,,,,,,,2,5.958625,,0,1,103,253,32,1,stimuli/stim_20210519_power2amp/equal_lnn_AM1Hz_s45_18.m4a,,,
,,,,,,,,,,,,41261,2021-05-29_18h31.48.265,judgeSpeechMusic_20210519_logNormShiftAmp_mXs,2020.1.2,MacIntel,60,,,,,,,,,,,,,,2,14.74722,,0,1,104,254,25,1,stimuli/stim_20210519_power2amp/equal_lnn_AM1Hz_s35_23.m4a,,,
,,,,,,,,,,,,41261,2021-05-29_18h31.48.265,judgeSpeechMusic_20210519_logNormShiftAmp_mXs,2020.1.2,MacIntel,60,,,,,,,,,,,,,,2,6.28022,,0,1,105,255,7,1,stimuli/stim_20210519_power2amp/equal_lnn_AM1Hz_s15_28.m4a,,,
,,,,,,,,,,,,41261,2021-05-29_18h31.48.265,judgeSpeechMusic_20210519_logNormShiftAmp_mXs,2020.1.2,MacIntel,60,,,,,,,,,,,,,,2,7.34202,,0,1,106,256,15,1,stimuli/stim_20210519_power2amp/equal_lnn_AM1Hz_s25_36.m4a,,,
,,,,,,,,,,,,41261,2021-05-29_18h31.48.265,judgeSpeechMusic_20210519_logNormShiftAmp_mXs,2020.1.2,MacIntel,60,,,,,,,,,,,,,,2,14.26214,,0,1,107,257,75,1,stimuli/stim_20210519_power2amp/equal_lnn_AM2.5Hz_s35_45.m4a,,,
,,,,,,,,,,,,41261,2021-05-29_18h31.48.265,judgeSpeechMusic_20210519_logNormShiftAmp_mXs,2020.1.2,MacIntel,60,,,,,,,,,,,,,,2,7.110465,,0,1,108,258,78,1,stimuli/stim_20210519_power2amp/equal_lnn_AM2.5Hz_s35_8.m4a,,,
,,,,,,,,,,,,41261,2021-05-29_18h31.48.265,judgeSpeechMusic_20210519_logNormShiftAmp_mXs,2020.1.2,MacIntel,60,,,,,,,,,,,,,,2,5.25678,,0,1,109,259,106,1,stimuli/stim_20210519_power2amp/equal_lnn_AM4Hz_s15_40.m4a,,,
,,,,,,,,,,,,41261,2021-05-29_18h31.48.265,judgeSpeechMusic_20210519_logNormShiftAmp_mXs,2020.1.2,MacIntel,60,,,,,,,,,,,,,,2,5.64414,,0,1,110,260,81,1,stimuli/stim_20210519_power2amp/equal_lnn_AM2.5Hz_s45_33.m4a,,,
,,,,,,,,,,,,41261,2021-05-29_18h31.48.265,judgeSpeechMusic_20210519_logNormShiftAmp_mXs,2020.1.2,MacIntel,60,,,,,,,,,,,,,,2,5.628375,3,1,1,111,261,104,1,stimuli/stim_20210519_power2amp/equal_lnn_AM4Hz_s15_12.m4a,0.92719,,
,,,,,,,,,,,,41261,2021-05-29_18h31.48.265,judgeSpeechMusic_20210519_logNormShiftAmp_mXs,2020.1.2,MacIntel,60,,,,,,,,,,,,,,2,5.679765,,0,1,112,262,31,1,stimuli/stim_20210519_power2amp/equal_lnn_AM1Hz_s45_27.m4a,,,
,,,,,,,,,,,,41261,2021-05-29_18h31.48.265,judgeSpeechMusic_20210519_logNormShiftAmp_mXs,2020.1.2,MacIntel,60,,,,,,,,,,,,,,2,5.51206,,0,1,113,263,96,1,stimuli/stim_20210519_power2amp/equal_lnn_AM2.5Hz_s55_43.m4a,,,
,,,,,,,,,,,,41261,2021-05-29_18h31.48.265,judgeSpeechMusic_20210519_logNormShiftAmp_mXs,2020.1.2,MacIntel,60,,,,,,,,,,,,,,2,5.84122,,0,1,114,264,11,1,stimuli/stim_20210519_power2amp/equal_lnn_AM1Hz_s25_50.m4a,,,
,,,,,,,,,,,,41261,2021-05-29_18h31.48.265,judgeSpeechMusic_20210519_logNormShiftAmp_mXs,2020.1.2,MacIntel,60,,,,,,,,,,,,,,2,5.392895,,0,1,115,265,111,1,stimuli/stim_20210519_power2amp/equal_lnn_AM4Hz_s25_2.m4a,,,
,,,,,,,,,,,,41261,2021-05-29_18h31.48.265,judgeSpeechMusic_20210519_logNormShiftAmp_mXs,2020.1.2,MacIntel,60,,,,,,,,,,,,,,2,5.861135,,0,1,116,266,116,1,stimuli/stim_20210519_power2amp/equal_lnn_AM4Hz_s25_22.m4a,,,
,,,,,,,,,,,,41261,2021-05-29_18h31.48.265,judgeSpeechMusic_20210519_logNormShiftAmp_mXs,2020.1.2,MacIntel,60,,,,,,,,,,,,,,1,6.142415,,0,1,117,267,49,1,stimuli/stim_20210519_power2amp/equal_lnn_AM1Hz_s55_16.m4a,,,
,,,,,,,,,,,,41261,2021-05-29_18h31.48.265,judgeSpeechMusic_20210519_logNormShiftAmp_mXs,2020.1.2,MacIntel,60,,,,,,,,,,,,,,1,6.875255,,0,1,118,268,39,1,stimuli/stim_20210519_power2amp/equal_lnn_AM1Hz_s45_33.m4a,,,
,,,,,,,,,,,,41261,2021-05-29_18h31.48.265,judgeSpeechMusic_20210519_logNormShiftAmp_mXs,2020.1.2,MacIntel,60,,,,,,,,,,,,,,1,5.52514,,0,1,119,269,5,1,stimuli/stim_20210519_power2amp/equal_lnn_AM1Hz_s15_38.m4a,,,
,,,,,,,,,,,,41261,2021-05-29_18h31.48.265,judgeSpeechMusic_20210519_logNormShiftAmp_mXs,2020.1.2,MacIntel,60,,,,,,,,,,,,,,1,6.26018,,0,1,120,270,17,1,stimuli/stim_20210519_power2amp/equal_lnn_AM1Hz_s25_23.m4a,,,
,,,,,,,,,,,,41261,2021-05-29_18h31.48.265,judgeSpeechMusic_20210519_logNormShiftAmp_mXs,2020.1.2,MacIntel,60,,,,,,,,,,,,,,2,5.491995,,0,1,121,271,54,1,stimuli/stim_20210519_power2amp/equal_lnn_AM2.5Hz_s15_40.m4a,,,
,,,,,,,,,,,,41261,2021-05-29_18h31.48.265,judgeSpeechMusic_20210519_logNormShiftAmp_mXs,2020.1.2,MacIntel,60,,,,,,,,,,,,,,1,5.25667,,0,1,122,272,1,1,stimuli/stim_20210519_power2amp/equal_lnn_AM1Hz_s15_12.m4a,,,
,,,,,,,,,,,,41261,2021-05-29_18h31.48.265,judgeSpeechMusic_20210519_logNormShiftAmp_mXs,2020.1.2,MacIntel,60,,,,,,,,,,,,,,1,5.229365,,0,1,123,273,66,1,stimuli/stim_20210519_power2amp/equal_lnn_AM2.5Hz_s25_22.m4a,,,
,,,,,,,,,,,,41261,2021-05-29_18h31.48.265,judgeSpeechMusic_20210519_logNormShiftAmp_mXs,2020.1.2,MacIntel,60,,,,,,,,,,,,,,1,5.225015,,0,1,124,274,56,1,stimuli/stim_20210519_power2amp/equal_lnn_AM2.5Hz_s15_33.m4a,,,
,,,,,,,,,,,,41261,2021-05-29_18h31.48.265,judgeSpeechMusic_20210519_logNormShiftAmp_mXs,2020.1.2,MacIntel,60,,,,,,,,,,,,,,2,5.41248,,0,1,125,275,114,1,stimuli/stim_20210519_power2amp/equal_lnn_AM4Hz_s25_45.m4a,,,
,,,,,,,,,,,,41261,2021-05-29_18h31.48.265,judgeSpeechMusic_20210519_logNormShiftAmp_mXs,2020.1.2,MacIntel,60,,,,,,,,,,,,,,1,5.27308,,0,1,126,276,51,1,stimuli/stim_20210519_power2amp/equal_lnn_AM2.5Hz_s15_28.m4a,,,
,,,,,,,,,,,,41261,2021-05-29_18h31.48.265,judgeSpeechMusic_20210519_logNormShiftAmp_mXs,2020.1.2,MacIntel,60,,,,,,,,,,,,,,1,5.242585,,0,1,127,277,83,1,stimuli/stim_20210519_power2amp/equal_lnn_AM2.5Hz_s45_22.m4a,,,
,,,,,,,,,,,,41261,2021-05-29_18h31.48.265,judgeSpeechMusic_20210519_logNormShiftAmp_mXs,2020.1.2,MacIntel,60,,,,,,,,,,,,,,2,5.377635,,0,1,128,278,113,1,stimuli/stim_20210519_power2amp/equal_lnn_AM4Hz_s25_10.m4a,,,
,,,,,,,,,,,,41261,2021-05-29_18h31.48.265,judgeSpeechMusic_20210519_logNormShiftAmp_mXs,2020.1.2,MacIntel,60,,,,,,,,,,,,,,2,5.307705,,0,1,129,279,118,1,stimuli/stim_20210519_power2amp/equal_lnn_AM4Hz_s25_25.m4a,,,
,,,,,,,,,,,,41261,2021-05-29_18h31.48.265,judgeSpeechMusic_20210519_logNormShiftAmp_mXs,2020.1.2,MacIntel,60,,,,,,,,,,,,,,2,5.26316,,0,1,130,280,136,1,stimuli/stim_20210519_power2amp/equal_lnn_AM4Hz_s45_20.m4a,,,
,,,,,,,,,,,,41261,2021-05-29_18h31.48.265,judgeSpeechMusic_20210519_logNormShiftAmp_mXs,2020.1.2,MacIntel,60,,,,,,,,,,,,,,2,5.692305,,0,1,131,281,20,1,stimuli/stim_20210519_power2amp/equal_lnn_AM1Hz_s35_1.m4a,,,
,,,,,,,,,,,,41261,2021-05-29_18h31.48.265,judgeSpeechMusic_20210519_logNormShiftAmp_mXs,2020.1.2,MacIntel,60,,,,,,,,,,,,,,1,5.293055,,0,1,132,282,40,1,stimuli/stim_20210519_power2amp/equal_lnn_AM1Hz_s55_34.m4a,,,
,,,,,,,,,,,,41261,2021-05-29_18h31.48.265,judgeSpeechMusic_20210519_logNormShiftAmp_mXs,2020.1.2,MacIntel,60,,,,,,,,,,,,,,1,7.561055,3,1,1,133,283,41,1,stimuli/stim_20210519_power2amp/equal_lnn_AM1Hz_s55_18.m4a,0.79432,,
,,,,,,,,,,,,41261,2021-05-29_18h31.48.265,judgeSpeechMusic_20210519_logNormShiftAmp_mXs,2020.1.2,MacIntel,60,,,,,,,,,,,,,,2,8.710065,,0,1,134,284,119,1,stimuli/stim_20210519_power2amp/equal_lnn_AM4Hz_s25_28.m4a,,,
,,,,,,,,,,,,41261,2021-05-29_18h31.48.265,judgeSpeechMusic_20210519_logNormShiftAmp_mXs,2020.1.2,MacIntel,60,,,,,,,,,,,,,,2,6.44108,,0,1,135,285,67,1,stimuli/stim_20210519_power2amp/equal_lnn_AM2.5Hz_s25_29.m4a,,,
,,,,,,,,,,,,41261,2021-05-29_18h31.48.265,judgeSpeechMusic_20210519_logNormShiftAmp_mXs,2020.1.2,MacIntel,60,,,,,,,,,,,,,,2,5.645095,,0,1,136,286,89,1,stimuli/stim_20210519_power2amp/equal_lnn_AM2.5Hz_s45_44.m4a,,,
,,,,,,,,,,,,41261,2021-05-29_18h31.48.265,judgeSpeechMusic_20210519_logNormShiftAmp_mXs,2020.1.2,MacIntel,60,,,,,,,,,,,,,,2,5.337555,,0,1,137,287,138,1,stimuli/stim_20210519_power2amp/equal_lnn_AM4Hz_s45_17.m4a,,,
,,,,,,,,,,,,41261,2021-05-29_18h31.48.265,judgeSpeechMusic_20210519_logNormShiftAmp_mXs,2020.1.2,MacIntel,60,,,,,,,,,,,,,,2,5.310515,,0,1,138,288,117,1,stimuli/stim_20210519_power2amp/equal_lnn_AM4Hz_s25_21.m4a,,,
,,,,,,,,,,,,41261,2021-05-29_18h31.48.265,judgeSpeechMusic_20210519_logNormShiftAmp_mXs,2020.1.2,MacIntel,60,,,,,,,,,,,,,,2,5.375895,,0,1,139,289,112,1,stimuli/stim_20210519_power2amp/equal_lnn_AM4Hz_s25_3.m4a,,,
,,,,,,,,,,,,41261,2021-05-29_18h31.48.265,judgeSpeechMusic_20210519_logNormShiftAmp_mXs,2020.1.2,MacIntel,60,,,,,,,,,,,,,,2,6.12713,,0,1,140,290,123,1,stimuli/stim_20210519_power2amp/equal_lnn_AM4Hz_s35_33.m4a,,,
,,,,,,,,,,,,41261,2021-05-29_18h31.48.265,judgeSpeechMusic_20210519_logNormShiftAmp_mXs,2020.1.2,MacIntel,60,,,,,,,,,,,,,,2,5.495255,,0,1,141,291,85,1,stimuli/stim_20210519_power2amp/equal_lnn_AM2.5Hz_s45_10.m4a,,,
,,,,,,,,,,,,41261,2021-05-29_18h31.48.265,judgeSpeechMusic_20210519_logNormShiftAmp_mXs,2020.1.2,MacIntel,60,,,,,,,,,,,,,,2,5.258515,,0,1,142,292,149,1,stimuli/stim_20210519_power2amp/equal_lnn_AM4Hz_s55_1.m4a,,,
,,,,,,,,,,,,41261,2021-05-29_18h31.48.265,judgeSpeechMusic_20210519_logNormShiftAmp_mXs,2020.1.2,MacIntel,60,,,,,,,,,,,,,,1,5.976305,,0,1,143,293,2,1,stimuli/stim_20210519_power2amp/equal_lnn_AM1Hz_s15_9.m4a,,,
,,,,,,,,,,,,41261,2021-05-29_18h31.48.265,judgeSpeechMusic_20210519_logNormShiftAmp_mXs,2020.1.2,MacIntel,60,,,,,,,,,,,,,,1,5.277455,,0,1,144,294,47,1,stimuli/stim_20210519_power2amp/equal_lnn_AM1Hz_s55_36.m4a,,,
,,,,,,,,,,,,41261,2021-05-29_18h31.48.265,judgeSpeechMusic_20210519_logNormShiftAmp_mXs,2020.1.2,MacIntel,60,,,,,,,,,,,,,,1,5.39632,,0,1,145,295,92,1,stimuli/stim_20210519_power2amp/equal_lnn_AM2.5Hz_s55_40.m4a,,,
,,,,,,,,,,,,41261,2021-05-29_18h31.48.265,judgeSpeechMusic_20210519_logNormShiftAmp_mXs,2020.1.2,MacIntel,60,,,,,,,,,,,,,,1,5.39184,,0,1,146,296,139,1,stimuli/stim_20210519_power2amp/equal_lnn_AM4Hz_s45_39.m4a,,,
,,,,,,,,,,,,41261,2021-05-29_18h31.48.265,judgeSpeechMusic_20210519_logNormShiftAmp_mXs,2020.1.2,MacIntel,60,,,,,,,,,,,,,,1,5.25251,,0,1,147,297,30,1,stimuli/stim_20210519_power2amp/equal_lnn_AM1Hz_s45_17.m4a,,,
,,,,,,,,,,,,41261,2021-05-29_18h31.48.265,judgeSpeechMusic_20210519_logNormShiftAmp_mXs,2020.1.2,MacIntel,60,,,,,,,,,,,,,,1,7.479285,,0,1,148,298,63,1,stimuli/stim_20210519_power2amp/equal_lnn_AM2.5Hz_s25_36.m4a,,,
,,,,,,,,,,,,41261,2021-05-29_18h31.48.265,judgeSpeechMusic_20210519_logNormShiftAmp_mXs,2020.1.2,MacIntel,60,,,,,,,,,,,,,,2,5.873795,,0,1,149,299,102,1,stimuli/stim_20210519_power2amp/equal_lnn_AM4Hz_s15_15.m4a,,,
,,,,,,,,,,,,41261,2021-05-29_18h31.48.265,judgeSpeechMusic_20210519_logNormShiftAmp_mXs,2020.1.2,MacIntel,60,,,,,,,,,,,,,,,,,,,,,,,,,space,7.217565
