volAdjustRep.thisRepN,volAdjustRep.thisTrialN,volAdjustRep.thisN,volAdjustRep.thisIndex,volAdjustRep.ran,participant,date,expName,psychopyVersion,OS,frameRate,headphoneResponse.keys,headphoneResponse.corr,headphoneResponse.rt,headphoneTrial.thisRepN,headphoneTrial.thisTrialN,headphoneTrial.thisN,headphoneTrial.thisIndex,headphoneTrial.ran,headphone_sound1,headphone_sound2,headphone_sound3,corrAns,trainSlider.response,trainSlider.rt,beepTrainResponse.keys,beepTrainResponse.corr,trainingTrials.thisRepN,trainingTrials.thisTrialN,trainingTrials.thisN,trainingTrials.thisIndex,trainingTrials.ran,trainAudioFile,beepTrainResponse.rt,readyReal_resp.keys,readyReal_resp.rt,ratingSlider.response,ratingSlider.rt,beepResp.keys,beepResp.corr,expTrials.thisRepN,expTrials.thisTrialN,expTrials.thisN,expTrials.thisIndex,expTrials.ran,audioFile,beepResp.rt,end_resp.keys,end_resp.rt
0,0,0,0,1,41275,2021-06-07_21h03.22.019,judgeSpeechMusic_20210519_logNormShiftAmp_mXs,2020.1.2,MacIntel,60,,,,,,,,,,,,,,,,,,,,,,,,,,,,,,,,,,,,,,
,,,,,41275,2021-06-07_21h03.22.019,judgeSpeechMusic_20210519_logNormShiftAmp_mXs,2020.1.2,MacIntel,60,3,1,1.64502,0,0,0,2,1,stimuli/screen_origin.wav,stimuli/screen_antiphase.wav,stimuli/screen_quiet.wav,3,,,,,,,,,,,,,,,,,,,,,,,,,,
,,,,,41275,2021-06-07_21h03.22.019,judgeSpeechMusic_20210519_logNormShiftAmp_mXs,2020.1.2,MacIntel,60,1,1,1.139105,0,1,1,4,1,stimuli/screen_quiet.wav,stimuli/screen_antiphase.wav,stimuli/screen_origin.wav,1,,,,,,,,,,,,,,,,,,,,,,,,,,
,,,,,41275,2021-06-07_21h03.22.019,judgeSpeechMusic_20210519_logNormShiftAmp_mXs,2020.1.2,MacIntel,60,2,1,3.69089,0,2,2,1,1,stimuli/screen_antiphase.wav,stimuli/screen_quiet.wav,stimuli/screen_origin.wav,2,,,,,,,,,,,,,,,,,,,,,,,,,,
,,,,,41275,2021-06-07_21h03.22.019,judgeSpeechMusic_20210519_logNormShiftAmp_mXs,2020.1.2,MacIntel,60,1,1,1.036395,0,3,3,5,1,stimuli/screen_quiet.wav,stimuli/screen_origin.wav,stimuli/screen_antiphase.wav,1,,,,,,,,,,,,,,,,,,,,,,,,,,
,,,,,41275,2021-06-07_21h03.22.019,judgeSpeechMusic_20210519_logNormShiftAmp_mXs,2020.1.2,MacIntel,60,3,1,0.933895,0,4,4,0,1,stimuli/screen_antiphase.wav,stimuli/screen_origin.wav,stimuli/screen_quiet.wav,3,,,,,,,,,,,,,,,,,,,,,,,,,,
,,,,,41275,2021-06-07_21h03.22.019,judgeSpeechMusic_20210519_logNormShiftAmp_mXs,2020.1.2,MacIntel,60,2,1,0.73886,0,5,5,3,1,stimuli/screen_origin.wav,stimuli/screen_quiet.wav,stimuli/screen_antiphase.wav,2,,,,,,,,,,,,,,,,,,,,,,,,,,
,,,,,41275,2021-06-07_21h03.22.019,judgeSpeechMusic_20210519_logNormShiftAmp_mXs,2020.1.2,MacIntel,60,,,,,,,,,,,,,2,14.24625,,0,0,0,0,0,1,stimuli/stim_20210519_power2amp/equal_lnn_AM_training1.5Hz_s20.m4a,,,,,,,,,,,,,,,,
,,,,,41275,2021-06-07_21h03.22.019,judgeSpeechMusic_20210519_logNormShiftAmp_mXs,2020.1.2,MacIntel,60,,,,,,,,,,,,,2,8.315335,,0,0,1,1,2,1,stimuli/stim_20210519_power2amp/equal_lnn_AM_training3.5Hz_s20.m4a,,,,,,,,,,,,,,,,
,,,,,41275,2021-06-07_21h03.22.019,judgeSpeechMusic_20210519_logNormShiftAmp_mXs,2020.1.2,MacIntel,60,,,,,,,,,,,,,2,6.630495,4,1,0,2,2,1,1,stimuli/stim_20210519_power2amp/equal_lnn_AM_training1.5Hz_s50.m4a,1.64277,,,,,,,,,,,,,,,
,,,,,41275,2021-06-07_21h03.22.019,judgeSpeechMusic_20210519_logNormShiftAmp_mXs,2020.1.2,MacIntel,60,,,,,,,,,,,,,1,7.359375,,0,0,3,3,3,1,stimuli/stim_20210519_power2amp/equal_lnn_AM_training3.5Hz_s50.m4a,,,,,,,,,,,,,,,,
,,,,,41275,2021-06-07_21h03.22.019,judgeSpeechMusic_20210519_logNormShiftAmp_mXs,2020.1.2,MacIntel,60,,,,,,,,,,,,,,,,,,,,,,,,space,9.277365,2,7.063015,,0,0,0,0,105,1,stimuli/stim_20210519_power2amp/equal_lnn_AM4Hz_s15_45.m4a,,,
,,,,,41275,2021-06-07_21h03.22.019,judgeSpeechMusic_20210519_logNormShiftAmp_mXs,2020.1.2,MacIntel,60,,,,,,,,,,,,,,,,,,,,,,,,,,1,8.10346,,0,0,1,1,85,1,stimuli/stim_20210519_power2amp/equal_lnn_AM2.5Hz_s45_29.m4a,,,
,,,,,41275,2021-06-07_21h03.22.019,judgeSpeechMusic_20210519_logNormShiftAmp_mXs,2020.1.2,MacIntel,60,,,,,,,,,,,,,,,,,,,,,,,,,,2,8.658805,,0,0,2,2,117,1,stimuli/stim_20210519_power2amp/equal_lnn_AM4Hz_s25_45.m4a,,,
,,,,,41275,2021-06-07_21h03.22.019,judgeSpeechMusic_20210519_logNormShiftAmp_mXs,2020.1.2,MacIntel,60,,,,,,,,,,,,,,,,,,,,,,,,,,1,7.09295,,0,0,3,3,132,1,stimuli/stim_20210519_power2amp/equal_lnn_AM4Hz_s45_49.m4a,,,
,,,,,41275,2021-06-07_21h03.22.019,judgeSpeechMusic_20210519_logNormShiftAmp_mXs,2020.1.2,MacIntel,60,,,,,,,,,,,,,,,,,,,,,,,,,,1,6.306025,,0,0,4,4,51,1,stimuli/stim_20210519_power2amp/equal_lnn_AM2.5Hz_s15_25.m4a,,,
,,,,,41275,2021-06-07_21h03.22.019,judgeSpeechMusic_20210519_logNormShiftAmp_mXs,2020.1.2,MacIntel,60,,,,,,,,,,,,,,,,,,,,,,,,,,1,5.924425,,0,0,5,5,15,1,stimuli/stim_20210519_power2amp/equal_lnn_AM1Hz_s25_39.m4a,,,
,,,,,41275,2021-06-07_21h03.22.019,judgeSpeechMusic_20210519_logNormShiftAmp_mXs,2020.1.2,MacIntel,60,,,,,,,,,,,,,,,,,,,,,,,,,,2,5.961695,,0,0,6,6,119,1,stimuli/stim_20210519_power2amp/equal_lnn_AM4Hz_s25_20.m4a,,,
,,,,,41275,2021-06-07_21h03.22.019,judgeSpeechMusic_20210519_logNormShiftAmp_mXs,2020.1.2,MacIntel,60,,,,,,,,,,,,,,,,,,,,,,,,,,1,8.589135,,0,0,7,7,146,1,stimuli/stim_20210519_power2amp/equal_lnn_AM4Hz_s55_24.m4a,,,
,,,,,41275,2021-06-07_21h03.22.019,judgeSpeechMusic_20210519_logNormShiftAmp_mXs,2020.1.2,MacIntel,60,,,,,,,,,,,,,,,,,,,,,,,,,,2,6.42761,,0,0,8,8,89,1,stimuli/stim_20210519_power2amp/equal_lnn_AM2.5Hz_s45_27.m4a,,,
,,,,,41275,2021-06-07_21h03.22.019,judgeSpeechMusic_20210519_logNormShiftAmp_mXs,2020.1.2,MacIntel,60,,,,,,,,,,,,,,,,,,,,,,,,,,2,6.01286,,0,0,9,9,74,1,stimuli/stim_20210519_power2amp/equal_lnn_AM2.5Hz_s35_18.m4a,,,
,,,,,41275,2021-06-07_21h03.22.019,judgeSpeechMusic_20210519_logNormShiftAmp_mXs,2020.1.2,MacIntel,60,,,,,,,,,,,,,,,,,,,,,,,,,,1,6.692475,,0,0,10,10,66,1,stimuli/stim_20210519_power2amp/equal_lnn_AM2.5Hz_s25_7.m4a,,,
,,,,,41275,2021-06-07_21h03.22.019,judgeSpeechMusic_20210519_logNormShiftAmp_mXs,2020.1.2,MacIntel,60,,,,,,,,,,,,,,,,,,,,,,,,,,1,5.74345,,0,0,11,11,133,1,stimuli/stim_20210519_power2amp/equal_lnn_AM4Hz_s45_10.m4a,,,
,,,,,41275,2021-06-07_21h03.22.019,judgeSpeechMusic_20210519_logNormShiftAmp_mXs,2020.1.2,MacIntel,60,,,,,,,,,,,,,,,,,,,,,,,,,,1,5.74055,,0,0,12,12,94,1,stimuli/stim_20210519_power2amp/equal_lnn_AM2.5Hz_s55_21.m4a,,,
,,,,,41275,2021-06-07_21h03.22.019,judgeSpeechMusic_20210519_logNormShiftAmp_mXs,2020.1.2,MacIntel,60,,,,,,,,,,,,,,,,,,,,,,,,,,2,5.747975,,0,0,13,13,96,1,stimuli/stim_20210519_power2amp/equal_lnn_AM2.5Hz_s55_6.m4a,,,
,,,,,41275,2021-06-07_21h03.22.019,judgeSpeechMusic_20210519_logNormShiftAmp_mXs,2020.1.2,MacIntel,60,,,,,,,,,,,,,,,,,,,,,,,,,,2,7.39702,,0,0,14,14,129,1,stimuli/stim_20210519_power2amp/equal_lnn_AM4Hz_s35_34.m4a,,,
,,,,,41275,2021-06-07_21h03.22.019,judgeSpeechMusic_20210519_logNormShiftAmp_mXs,2020.1.2,MacIntel,60,,,,,,,,,,,,,,,,,,,,,,,,,,2,5.95496,,0,0,15,15,111,1,stimuli/stim_20210519_power2amp/equal_lnn_AM4Hz_s25_41.m4a,,,
,,,,,41275,2021-06-07_21h03.22.019,judgeSpeechMusic_20210519_logNormShiftAmp_mXs,2020.1.2,MacIntel,60,,,,,,,,,,,,,,,,,,,,,,,,,,2,6.27922,,0,0,16,16,62,1,stimuli/stim_20210519_power2amp/equal_lnn_AM2.5Hz_s25_23.m4a,,,
,,,,,41275,2021-06-07_21h03.22.019,judgeSpeechMusic_20210519_logNormShiftAmp_mXs,2020.1.2,MacIntel,60,,,,,,,,,,,,,,,,,,,,,,,,,,1,6.144645,,0,0,17,17,0,1,stimuli/stim_20210519_power2amp/equal_lnn_AM1Hz_s15_7.m4a,,,
,,,,,41275,2021-06-07_21h03.22.019,judgeSpeechMusic_20210519_logNormShiftAmp_mXs,2020.1.2,MacIntel,60,,,,,,,,,,,,,,,,,,,,,,,,,,1,5.7909,,0,0,18,18,99,1,stimuli/stim_20210519_power2amp/equal_lnn_AM2.5Hz_s55_39.m4a,,,
,,,,,41275,2021-06-07_21h03.22.019,judgeSpeechMusic_20210519_logNormShiftAmp_mXs,2020.1.2,MacIntel,60,,,,,,,,,,,,,,,,,,,,,,,,,,1,5.77357,,0,0,19,19,18,1,stimuli/stim_20210519_power2amp/equal_lnn_AM1Hz_s25_26.m4a,,,
,,,,,41275,2021-06-07_21h03.22.019,judgeSpeechMusic_20210519_logNormShiftAmp_mXs,2020.1.2,MacIntel,60,,,,,,,,,,,,,,,,,,,,,,,,,,1,6.513945,,0,0,20,20,44,1,stimuli/stim_20210519_power2amp/equal_lnn_AM1Hz_s55_30.m4a,,,
,,,,,41275,2021-06-07_21h03.22.019,judgeSpeechMusic_20210519_logNormShiftAmp_mXs,2020.1.2,MacIntel,60,,,,,,,,,,,,,,,,,,,,,,,,,,2,6.88585,,0,0,21,21,108,1,stimuli/stim_20210519_power2amp/equal_lnn_AM4Hz_s15_21.m4a,,,
,,,,,41275,2021-06-07_21h03.22.019,judgeSpeechMusic_20210519_logNormShiftAmp_mXs,2020.1.2,MacIntel,60,,,,,,,,,,,,,,,,,,,,,,,,,,2,6.325235,,0,0,22,22,69,1,stimuli/stim_20210519_power2amp/equal_lnn_AM2.5Hz_s25_20.m4a,,,
,,,,,41275,2021-06-07_21h03.22.019,judgeSpeechMusic_20210519_logNormShiftAmp_mXs,2020.1.2,MacIntel,60,,,,,,,,,,,,,,,,,,,,,,,,,,2,6.20616,,0,0,23,23,113,1,stimuli/stim_20210519_power2amp/equal_lnn_AM4Hz_s25_22.m4a,,,
,,,,,41275,2021-06-07_21h03.22.019,judgeSpeechMusic_20210519_logNormShiftAmp_mXs,2020.1.2,MacIntel,60,,,,,,,,,,,,,,,,,,,,,,,,,,1,6.12816,,0,0,24,24,4,1,stimuli/stim_20210519_power2amp/equal_lnn_AM1Hz_s15_13.m4a,,,
,,,,,41275,2021-06-07_21h03.22.019,judgeSpeechMusic_20210519_logNormShiftAmp_mXs,2020.1.2,MacIntel,60,,,,,,,,,,,,,,,,,,,,,,,,,,1,5.922445,,0,0,25,25,79,1,stimuli/stim_20210519_power2amp/equal_lnn_AM2.5Hz_s35_25.m4a,,,
,,,,,41275,2021-06-07_21h03.22.019,judgeSpeechMusic_20210519_logNormShiftAmp_mXs,2020.1.2,MacIntel,60,,,,,,,,,,,,,,,,,,,,,,,,,,1,5.789715,,0,0,26,26,26,1,stimuli/stim_20210519_power2amp/equal_lnn_AM1Hz_s35_1.m4a,,,
,,,,,41275,2021-06-07_21h03.22.019,judgeSpeechMusic_20210519_logNormShiftAmp_mXs,2020.1.2,MacIntel,60,,,,,,,,,,,,,,,,,,,,,,,,,,2,6.90967,,0,0,27,27,144,1,stimuli/stim_20210519_power2amp/equal_lnn_AM4Hz_s55_30.m4a,,,
,,,,,41275,2021-06-07_21h03.22.019,judgeSpeechMusic_20210519_logNormShiftAmp_mXs,2020.1.2,MacIntel,60,,,,,,,,,,,,,,,,,,,,,,,,,,2,5.976115,,0,0,28,28,61,1,stimuli/stim_20210519_power2amp/equal_lnn_AM2.5Hz_s25_25.m4a,,,
,,,,,41275,2021-06-07_21h03.22.019,judgeSpeechMusic_20210519_logNormShiftAmp_mXs,2020.1.2,MacIntel,60,,,,,,,,,,,,,,,,,,,,,,,,,,1,6.147485,,0,0,29,29,145,1,stimuli/stim_20210519_power2amp/equal_lnn_AM4Hz_s55_5.m4a,,,
,,,,,41275,2021-06-07_21h03.22.019,judgeSpeechMusic_20210519_logNormShiftAmp_mXs,2020.1.2,MacIntel,60,,,,,,,,,,,,,,,,,,,,,,,,,,2,6.211445,,0,0,30,30,84,1,stimuli/stim_20210519_power2amp/equal_lnn_AM2.5Hz_s45_47.m4a,,,
,,,,,41275,2021-06-07_21h03.22.019,judgeSpeechMusic_20210519_logNormShiftAmp_mXs,2020.1.2,MacIntel,60,,,,,,,,,,,,,,,,,,,,,,,,,,2,6.31224,,0,0,31,31,91,1,stimuli/stim_20210519_power2amp/equal_lnn_AM2.5Hz_s55_29.m4a,,,
,,,,,41275,2021-06-07_21h03.22.019,judgeSpeechMusic_20210519_logNormShiftAmp_mXs,2020.1.2,MacIntel,60,,,,,,,,,,,,,,,,,,,,,,,,,,1,6.96358,,0,0,32,32,115,1,stimuli/stim_20210519_power2amp/equal_lnn_AM4Hz_s25_25.m4a,,,
,,,,,41275,2021-06-07_21h03.22.019,judgeSpeechMusic_20210519_logNormShiftAmp_mXs,2020.1.2,MacIntel,60,,,,,,,,,,,,,,,,,,,,,,,,,,1,5.85871,,0,0,33,33,141,1,stimuli/stim_20210519_power2amp/equal_lnn_AM4Hz_s55_19.m4a,,,
,,,,,41275,2021-06-07_21h03.22.019,judgeSpeechMusic_20210519_logNormShiftAmp_mXs,2020.1.2,MacIntel,60,,,,,,,,,,,,,,,,,,,,,,,,,,2,6.93131,,0,0,34,34,110,1,stimuli/stim_20210519_power2amp/equal_lnn_AM4Hz_s25_38.m4a,,,
,,,,,41275,2021-06-07_21h03.22.019,judgeSpeechMusic_20210519_logNormShiftAmp_mXs,2020.1.2,MacIntel,60,,,,,,,,,,,,,,,,,,,,,,,,,,1,6.43805,,0,0,35,35,47,1,stimuli/stim_20210519_power2amp/equal_lnn_AM1Hz_s55_13.m4a,,,
,,,,,41275,2021-06-07_21h03.22.019,judgeSpeechMusic_20210519_logNormShiftAmp_mXs,2020.1.2,MacIntel,60,,,,,,,,,,,,,,,,,,,,,,,,,,2,6.72849,,0,0,36,36,58,1,stimuli/stim_20210519_power2amp/equal_lnn_AM2.5Hz_s15_29.m4a,,,
,,,,,41275,2021-06-07_21h03.22.019,judgeSpeechMusic_20210519_logNormShiftAmp_mXs,2020.1.2,MacIntel,60,,,,,,,,,,,,,,,,,,,,,,,,,,1,6.34344,,0,0,37,37,92,1,stimuli/stim_20210519_power2amp/equal_lnn_AM2.5Hz_s55_43.m4a,,,
,,,,,41275,2021-06-07_21h03.22.019,judgeSpeechMusic_20210519_logNormShiftAmp_mXs,2020.1.2,MacIntel,60,,,,,,,,,,,,,,,,,,,,,,,,,,1,7.027775,,0,0,38,38,39,1,stimuli/stim_20210519_power2amp/equal_lnn_AM1Hz_s45_18.m4a,,,
,,,,,41275,2021-06-07_21h03.22.019,judgeSpeechMusic_20210519_logNormShiftAmp_mXs,2020.1.2,MacIntel,60,,,,,,,,,,,,,,,,,,,,,,,,,,2,6.124115,,0,0,39,39,77,1,stimuli/stim_20210519_power2amp/equal_lnn_AM2.5Hz_s35_43.m4a,,,
,,,,,41275,2021-06-07_21h03.22.019,judgeSpeechMusic_20210519_logNormShiftAmp_mXs,2020.1.2,MacIntel,60,,,,,,,,,,,,,,,,,,,,,,,,,,2,6.62239,2,1,0,40,40,64,1,stimuli/stim_20210519_power2amp/equal_lnn_AM2.5Hz_s25_40.m4a,1.241895,,
,,,,,41275,2021-06-07_21h03.22.019,judgeSpeechMusic_20210519_logNormShiftAmp_mXs,2020.1.2,MacIntel,60,,,,,,,,,,,,,,,,,,,,,,,,,,1,7.40977,,0,0,41,41,95,1,stimuli/stim_20210519_power2amp/equal_lnn_AM2.5Hz_s55_3.m4a,,,
,,,,,41275,2021-06-07_21h03.22.019,judgeSpeechMusic_20210519_logNormShiftAmp_mXs,2020.1.2,MacIntel,60,,,,,,,,,,,,,,,,,,,,,,,,,,2,5.958905,,0,0,42,42,30,1,stimuli/stim_20210519_power2amp/equal_lnn_AM1Hz_s45_2.m4a,,,
,,,,,41275,2021-06-07_21h03.22.019,judgeSpeechMusic_20210519_logNormShiftAmp_mXs,2020.1.2,MacIntel,60,,,,,,,,,,,,,,,,,,,,,,,,,,2,5.906415,,0,0,43,43,122,1,stimuli/stim_20210519_power2amp/equal_lnn_AM4Hz_s35_10.m4a,,,
,,,,,41275,2021-06-07_21h03.22.019,judgeSpeechMusic_20210519_logNormShiftAmp_mXs,2020.1.2,MacIntel,60,,,,,,,,,,,,,,,,,,,,,,,,,,1,5.84039,,0,0,44,44,49,1,stimuli/stim_20210519_power2amp/equal_lnn_AM1Hz_s55_24.m4a,,,
,,,,,41275,2021-06-07_21h03.22.019,judgeSpeechMusic_20210519_logNormShiftAmp_mXs,2020.1.2,MacIntel,60,,,,,,,,,,,,,,,,,,,,,,,,,,1,6.006455,,0,0,45,45,31,1,stimuli/stim_20210519_power2amp/equal_lnn_AM1Hz_s45_26.m4a,,,
,,,,,41275,2021-06-07_21h03.22.019,judgeSpeechMusic_20210519_logNormShiftAmp_mXs,2020.1.2,MacIntel,60,,,,,,,,,,,,,,,,,,,,,,,,,,1,7.489735,,0,0,46,46,112,1,stimuli/stim_20210519_power2amp/equal_lnn_AM4Hz_s25_47.m4a,,,
,,,,,41275,2021-06-07_21h03.22.019,judgeSpeechMusic_20210519_logNormShiftAmp_mXs,2020.1.2,MacIntel,60,,,,,,,,,,,,,,,,,,,,,,,,,,2,6.238545,,0,0,47,47,135,1,stimuli/stim_20210519_power2amp/equal_lnn_AM4Hz_s45_5.m4a,,,
,,,,,41275,2021-06-07_21h03.22.019,judgeSpeechMusic_20210519_logNormShiftAmp_mXs,2020.1.2,MacIntel,60,,,,,,,,,,,,,,,,,,,,,,,,,,2,6.109135,,0,0,48,48,125,1,stimuli/stim_20210519_power2amp/equal_lnn_AM4Hz_s35_20.m4a,,,
,,,,,41275,2021-06-07_21h03.22.019,judgeSpeechMusic_20210519_logNormShiftAmp_mXs,2020.1.2,MacIntel,60,,,,,,,,,,,,,,,,,,,,,,,,,,2,6.481155,,0,0,49,49,56,1,stimuli/stim_20210519_power2amp/equal_lnn_AM2.5Hz_s15_6.m4a,,,
,,,,,41275,2021-06-07_21h03.22.019,judgeSpeechMusic_20210519_logNormShiftAmp_mXs,2020.1.2,MacIntel,60,,,,,,,,,,,,,,,,,,,,,,,,,,2,7.924395,,0,0,50,50,16,1,stimuli/stim_20210519_power2amp/equal_lnn_AM1Hz_s25_21.m4a,,,
,,,,,41275,2021-06-07_21h03.22.019,judgeSpeechMusic_20210519_logNormShiftAmp_mXs,2020.1.2,MacIntel,60,,,,,,,,,,,,,,,,,,,,,,,,,,1,6.121905,,0,0,51,51,53,1,stimuli/stim_20210519_power2amp/equal_lnn_AM2.5Hz_s15_38.m4a,,,
,,,,,41275,2021-06-07_21h03.22.019,judgeSpeechMusic_20210519_logNormShiftAmp_mXs,2020.1.2,MacIntel,60,,,,,,,,,,,,,,,,,,,,,,,,,,1,5.977945,,0,0,52,52,83,1,stimuli/stim_20210519_power2amp/equal_lnn_AM2.5Hz_s45_20.m4a,,,
,,,,,41275,2021-06-07_21h03.22.019,judgeSpeechMusic_20210519_logNormShiftAmp_mXs,2020.1.2,MacIntel,60,,,,,,,,,,,,,,,,,,,,,,,,,,2,6.740515,,0,0,53,53,114,1,stimuli/stim_20210519_power2amp/equal_lnn_AM4Hz_s25_12.m4a,,,
,,,,,41275,2021-06-07_21h03.22.019,judgeSpeechMusic_20210519_logNormShiftAmp_mXs,2020.1.2,MacIntel,60,,,,,,,,,,,,,,,,,,,,,,,,,,2,6.04423,,0,0,54,54,137,1,stimuli/stim_20210519_power2amp/equal_lnn_AM4Hz_s45_19.m4a,,,
,,,,,41275,2021-06-07_21h03.22.019,judgeSpeechMusic_20210519_logNormShiftAmp_mXs,2020.1.2,MacIntel,60,,,,,,,,,,,,,,,,,,,,,,,,,,2,6.022715,,0,0,55,55,116,1,stimuli/stim_20210519_power2amp/equal_lnn_AM4Hz_s25_2.m4a,,,
,,,,,41275,2021-06-07_21h03.22.019,judgeSpeechMusic_20210519_logNormShiftAmp_mXs,2020.1.2,MacIntel,60,,,,,,,,,,,,,,,,,,,,,,,,,,1,5.812825,,0,0,56,56,8,1,stimuli/stim_20210519_power2amp/equal_lnn_AM1Hz_s15_15.m4a,,,
,,,,,41275,2021-06-07_21h03.22.019,judgeSpeechMusic_20210519_logNormShiftAmp_mXs,2020.1.2,MacIntel,60,,,,,,,,,,,,,,,,,,,,,,,,,,2,5.822995,,0,0,57,57,81,1,stimuli/stim_20210519_power2amp/equal_lnn_AM2.5Hz_s45_11.m4a,,,
,,,,,41275,2021-06-07_21h03.22.019,judgeSpeechMusic_20210519_logNormShiftAmp_mXs,2020.1.2,MacIntel,60,,,,,,,,,,,,,,,,,,,,,,,,,,1,5.880215,,0,0,58,58,52,1,stimuli/stim_20210519_power2amp/equal_lnn_AM2.5Hz_s15_39.m4a,,,
,,,,,41275,2021-06-07_21h03.22.019,judgeSpeechMusic_20210519_logNormShiftAmp_mXs,2020.1.2,MacIntel,60,,,,,,,,,,,,,,,,,,,,,,,,,,1,5.729045,,0,0,59,59,33,1,stimuli/stim_20210519_power2amp/equal_lnn_AM1Hz_s45_17.m4a,,,
,,,,,41275,2021-06-07_21h03.22.019,judgeSpeechMusic_20210519_logNormShiftAmp_mXs,2020.1.2,MacIntel,60,,,,,,,,,,,,,,,,,,,,,,,,,,1,6.30913,,0,0,60,60,50,1,stimuli/stim_20210519_power2amp/equal_lnn_AM2.5Hz_s15_46.m4a,,,
,,,,,41275,2021-06-07_21h03.22.019,judgeSpeechMusic_20210519_logNormShiftAmp_mXs,2020.1.2,MacIntel,60,,,,,,,,,,,,,,,,,,,,,,,,,,1,5.69628,,0,0,61,61,25,1,stimuli/stim_20210519_power2amp/equal_lnn_AM1Hz_s35_40.m4a,,,
,,,,,41275,2021-06-07_21h03.22.019,judgeSpeechMusic_20210519_logNormShiftAmp_mXs,2020.1.2,MacIntel,60,,,,,,,,,,,,,,,,,,,,,,,,,,2,6.529325,2,1,0,62,62,60,1,stimuli/stim_20210519_power2amp/equal_lnn_AM2.5Hz_s25_42.m4a,1.15975,,
,,,,,41275,2021-06-07_21h03.22.019,judgeSpeechMusic_20210519_logNormShiftAmp_mXs,2020.1.2,MacIntel,60,,,,,,,,,,,,,,,,,,,,,,,,,,1,6.775595,,0,0,63,63,6,1,stimuli/stim_20210519_power2amp/equal_lnn_AM1Hz_s15_14.m4a,,,
,,,,,41275,2021-06-07_21h03.22.019,judgeSpeechMusic_20210519_logNormShiftAmp_mXs,2020.1.2,MacIntel,60,,,,,,,,,,,,,,,,,,,,,,,,,,2,6.07716,,0,0,64,64,107,1,stimuli/stim_20210519_power2amp/equal_lnn_AM4Hz_s15_4.m4a,,,
,,,,,41275,2021-06-07_21h03.22.019,judgeSpeechMusic_20210519_logNormShiftAmp_mXs,2020.1.2,MacIntel,60,,,,,,,,,,,,,,,,,,,,,,,,,,1,6.138405,,0,0,65,65,9,1,stimuli/stim_20210519_power2amp/equal_lnn_AM1Hz_s15_28.m4a,,,
,,,,,41275,2021-06-07_21h03.22.019,judgeSpeechMusic_20210519_logNormShiftAmp_mXs,2020.1.2,MacIntel,60,,,,,,,,,,,,,,,,,,,,,,,,,,2,5.839685,,0,0,66,66,90,1,stimuli/stim_20210519_power2amp/equal_lnn_AM2.5Hz_s55_36.m4a,,,
,,,,,41275,2021-06-07_21h03.22.019,judgeSpeechMusic_20210519_logNormShiftAmp_mXs,2020.1.2,MacIntel,60,,,,,,,,,,,,,,,,,,,,,,,,,,1,6.86104,,0,0,67,67,143,1,stimuli/stim_20210519_power2amp/equal_lnn_AM4Hz_s55_35.m4a,,,
,,,,,41275,2021-06-07_21h03.22.019,judgeSpeechMusic_20210519_logNormShiftAmp_mXs,2020.1.2,MacIntel,60,,,,,,,,,,,,,,,,,,,,,,,,,,2,6.960065,,0,0,68,68,71,1,stimuli/stim_20210519_power2amp/equal_lnn_AM2.5Hz_s35_17.m4a,,,
,,,,,41275,2021-06-07_21h03.22.019,judgeSpeechMusic_20210519_logNormShiftAmp_mXs,2020.1.2,MacIntel,60,,,,,,,,,,,,,,,,,,,,,,,,,,1,6.12505,,0,0,69,69,118,1,stimuli/stim_20210519_power2amp/equal_lnn_AM4Hz_s25_18.m4a,,,
,,,,,41275,2021-06-07_21h03.22.019,judgeSpeechMusic_20210519_logNormShiftAmp_mXs,2020.1.2,MacIntel,60,,,,,,,,,,,,,,,,,,,,,,,,,,2,5.81248,,0,0,70,70,130,1,stimuli/stim_20210519_power2amp/equal_lnn_AM4Hz_s45_15.m4a,,,
,,,,,41275,2021-06-07_21h03.22.019,judgeSpeechMusic_20210519_logNormShiftAmp_mXs,2020.1.2,MacIntel,60,,,,,,,,,,,,,,,,,,,,,,,,,,1,5.90606,,0,0,71,71,19,1,stimuli/stim_20210519_power2amp/equal_lnn_AM1Hz_s25_27.m4a,,,
,,,,,41275,2021-06-07_21h03.22.019,judgeSpeechMusic_20210519_logNormShiftAmp_mXs,2020.1.2,MacIntel,60,,,,,,,,,,,,,,,,,,,,,,,,,,2,5.972455,,0,0,72,72,148,1,stimuli/stim_20210519_power2amp/equal_lnn_AM4Hz_s55_17.m4a,,,
,,,,,41275,2021-06-07_21h03.22.019,judgeSpeechMusic_20210519_logNormShiftAmp_mXs,2020.1.2,MacIntel,60,,,,,,,,,,,,,,,,,,,,,,,,,,2,5.643355,,0,0,73,73,149,1,stimuli/stim_20210519_power2amp/equal_lnn_AM4Hz_s55_14.m4a,,,
,,,,,41275,2021-06-07_21h03.22.019,judgeSpeechMusic_20210519_logNormShiftAmp_mXs,2020.1.2,MacIntel,60,,,,,,,,,,,,,,,,,,,,,,,,,,2,5.938255,,0,0,74,74,80,1,stimuli/stim_20210519_power2amp/equal_lnn_AM2.5Hz_s45_36.m4a,,,
,,,,,41275,2021-06-07_21h03.22.019,judgeSpeechMusic_20210519_logNormShiftAmp_mXs,2020.1.2,MacIntel,60,,,,,,,,,,,,,,,,,,,,,,,,,,1,5.79274,,0,0,75,75,11,1,stimuli/stim_20210519_power2amp/equal_lnn_AM1Hz_s25_30.m4a,,,
,,,,,41275,2021-06-07_21h03.22.019,judgeSpeechMusic_20210519_logNormShiftAmp_mXs,2020.1.2,MacIntel,60,,,,,,,,,,,,,,,,,,,,,,,,,,2,6.158275,,0,0,76,76,126,1,stimuli/stim_20210519_power2amp/equal_lnn_AM4Hz_s35_14.m4a,,,
,,,,,41275,2021-06-07_21h03.22.019,judgeSpeechMusic_20210519_logNormShiftAmp_mXs,2020.1.2,MacIntel,60,,,,,,,,,,,,,,,,,,,,,,,,,,2,5.693525,,0,0,77,77,136,1,stimuli/stim_20210519_power2amp/equal_lnn_AM4Hz_s45_22.m4a,,,
,,,,,41275,2021-06-07_21h03.22.019,judgeSpeechMusic_20210519_logNormShiftAmp_mXs,2020.1.2,MacIntel,60,,,,,,,,,,,,,,,,,,,,,,,,,,2,5.70823,,0,0,78,78,103,1,stimuli/stim_20210519_power2amp/equal_lnn_AM4Hz_s15_38.m4a,,,
,,,,,41275,2021-06-07_21h03.22.019,judgeSpeechMusic_20210519_logNormShiftAmp_mXs,2020.1.2,MacIntel,60,,,,,,,,,,,,,,,,,,,,,,,,,,2,5.677175,,0,0,79,79,123,1,stimuli/stim_20210519_power2amp/equal_lnn_AM4Hz_s35_18.m4a,,,
,,,,,41275,2021-06-07_21h03.22.019,judgeSpeechMusic_20210519_logNormShiftAmp_mXs,2020.1.2,MacIntel,60,,,,,,,,,,,,,,,,,,,,,,,,,,2,6.04192,,0,0,80,80,142,1,stimuli/stim_20210519_power2amp/equal_lnn_AM4Hz_s55_28.m4a,,,
,,,,,41275,2021-06-07_21h03.22.019,judgeSpeechMusic_20210519_logNormShiftAmp_mXs,2020.1.2,MacIntel,60,,,,,,,,,,,,,,,,,,,,,,,,,,2,5.62757,,0,0,81,81,102,1,stimuli/stim_20210519_power2amp/equal_lnn_AM4Hz_s15_9.m4a,,,
,,,,,41275,2021-06-07_21h03.22.019,judgeSpeechMusic_20210519_logNormShiftAmp_mXs,2020.1.2,MacIntel,60,,,,,,,,,,,,,,,,,,,,,,,,,,1,5.8759,,0,0,82,82,67,1,stimuli/stim_20210519_power2amp/equal_lnn_AM2.5Hz_s25_39.m4a,,,
,,,,,41275,2021-06-07_21h03.22.019,judgeSpeechMusic_20210519_logNormShiftAmp_mXs,2020.1.2,MacIntel,60,,,,,,,,,,,,,,,,,,,,,,,,,,1,5.728505,,0,0,83,83,78,1,stimuli/stim_20210519_power2amp/equal_lnn_AM2.5Hz_s35_15.m4a,,,
,,,,,41275,2021-06-07_21h03.22.019,judgeSpeechMusic_20210519_logNormShiftAmp_mXs,2020.1.2,MacIntel,60,,,,,,,,,,,,,,,,,,,,,,,,,,1,5.56334,,0,0,84,84,37,1,stimuli/stim_20210519_power2amp/equal_lnn_AM1Hz_s45_27.m4a,,,
,,,,,41275,2021-06-07_21h03.22.019,judgeSpeechMusic_20210519_logNormShiftAmp_mXs,2020.1.2,MacIntel,60,,,,,,,,,,,,,,,,,,,,,,,,,,2,5.627215,3,1,0,85,85,101,1,stimuli/stim_20210519_power2amp/equal_lnn_AM4Hz_s15_5.m4a,0.728155,,
,,,,,41275,2021-06-07_21h03.22.019,judgeSpeechMusic_20210519_logNormShiftAmp_mXs,2020.1.2,MacIntel,60,,,,,,,,,,,,,,,,,,,,,,,,,,1,5.92388,,0,0,86,86,12,1,stimuli/stim_20210519_power2amp/equal_lnn_AM1Hz_s25_12.m4a,,,
,,,,,41275,2021-06-07_21h03.22.019,judgeSpeechMusic_20210519_logNormShiftAmp_mXs,2020.1.2,MacIntel,60,,,,,,,,,,,,,,,,,,,,,,,,,,1,5.889295,,0,0,87,87,13,1,stimuli/stim_20210519_power2amp/equal_lnn_AM1Hz_s25_44.m4a,,,
,,,,,41275,2021-06-07_21h03.22.019,judgeSpeechMusic_20210519_logNormShiftAmp_mXs,2020.1.2,MacIntel,60,,,,,,,,,,,,,,,,,,,,,,,,,,1,5.861595,,0,0,88,88,63,1,stimuli/stim_20210519_power2amp/equal_lnn_AM2.5Hz_s25_31.m4a,,,
,,,,,41275,2021-06-07_21h03.22.019,judgeSpeechMusic_20210519_logNormShiftAmp_mXs,2020.1.2,MacIntel,60,,,,,,,,,,,,,,,,,,,,,,,,,,1,5.69464,,0,0,89,89,82,1,stimuli/stim_20210519_power2amp/equal_lnn_AM2.5Hz_s45_44.m4a,,,
,,,,,41275,2021-06-07_21h03.22.019,judgeSpeechMusic_20210519_logNormShiftAmp_mXs,2020.1.2,MacIntel,60,,,,,,,,,,,,,,,,,,,,,,,,,,1,6.33158,,0,0,90,90,35,1,stimuli/stim_20210519_power2amp/equal_lnn_AM1Hz_s45_43.m4a,,,
,,,,,41275,2021-06-07_21h03.22.019,judgeSpeechMusic_20210519_logNormShiftAmp_mXs,2020.1.2,MacIntel,60,,,,,,,,,,,,,,,,,,,,,,,,,,2,6.3138,,0,0,91,91,109,1,stimuli/stim_20210519_power2amp/equal_lnn_AM4Hz_s15_27.m4a,,,
,,,,,41275,2021-06-07_21h03.22.019,judgeSpeechMusic_20210519_logNormShiftAmp_mXs,2020.1.2,MacIntel,60,,,,,,,,,,,,,,,,,,,,,,,,,,2,6.194465,,0,0,92,92,75,1,stimuli/stim_20210519_power2amp/equal_lnn_AM2.5Hz_s35_10.m4a,,,
,,,,,41275,2021-06-07_21h03.22.019,judgeSpeechMusic_20210519_logNormShiftAmp_mXs,2020.1.2,MacIntel,60,,,,,,,,,,,,,,,,,,,,,,,,,,1,5.777085,,0,0,93,93,7,1,stimuli/stim_20210519_power2amp/equal_lnn_AM1Hz_s15_47.m4a,,,
,,,,,41275,2021-06-07_21h03.22.019,judgeSpeechMusic_20210519_logNormShiftAmp_mXs,2020.1.2,MacIntel,60,,,,,,,,,,,,,,,,,,,,,,,,,,2,5.93977,,0,0,94,94,54,1,stimuli/stim_20210519_power2amp/equal_lnn_AM2.5Hz_s15_14.m4a,,,
,,,,,41275,2021-06-07_21h03.22.019,judgeSpeechMusic_20210519_logNormShiftAmp_mXs,2020.1.2,MacIntel,60,,,,,,,,,,,,,,,,,,,,,,,,,,2,5.704825,,0,0,95,95,72,1,stimuli/stim_20210519_power2amp/equal_lnn_AM2.5Hz_s35_31.m4a,,,
,,,,,41275,2021-06-07_21h03.22.019,judgeSpeechMusic_20210519_logNormShiftAmp_mXs,2020.1.2,MacIntel,60,,,,,,,,,,,,,,,,,,,,,,,,,,2,6.124695,,0,0,96,96,100,1,stimuli/stim_20210519_power2amp/equal_lnn_AM4Hz_s15_22.m4a,,,
,,,,,41275,2021-06-07_21h03.22.019,judgeSpeechMusic_20210519_logNormShiftAmp_mXs,2020.1.2,MacIntel,60,,,,,,,,,,,,,,,,,,,,,,,,,,1,6.640605,,0,0,97,97,42,1,stimuli/stim_20210519_power2amp/equal_lnn_AM1Hz_s55_14.m4a,,,
,,,,,41275,2021-06-07_21h03.22.019,judgeSpeechMusic_20210519_logNormShiftAmp_mXs,2020.1.2,MacIntel,60,,,,,,,,,,,,,,,,,,,,,,,,,,1,5.77283,,0,0,98,98,20,1,stimuli/stim_20210519_power2amp/equal_lnn_AM1Hz_s35_13.m4a,,,
,,,,,41275,2021-06-07_21h03.22.019,judgeSpeechMusic_20210519_logNormShiftAmp_mXs,2020.1.2,MacIntel,60,,,,,,,,,,,,,,,,,,,,,,,,,,1,6.14143,,0,0,99,99,59,1,stimuli/stim_20210519_power2amp/equal_lnn_AM2.5Hz_s15_49.m4a,,,
,,,,,41275,2021-06-07_21h03.22.019,judgeSpeechMusic_20210519_logNormShiftAmp_mXs,2020.1.2,MacIntel,60,,,,,,,,,,,,,,,,,,,,,,,,,,1,6.21324,,0,0,100,100,14,1,stimuli/stim_20210519_power2amp/equal_lnn_AM1Hz_s25_18.m4a,,,
,,,,,41275,2021-06-07_21h03.22.019,judgeSpeechMusic_20210519_logNormShiftAmp_mXs,2020.1.2,MacIntel,60,,,,,,,,,,,,,,,,,,,,,,,,,,1,5.84422,,0,0,101,101,1,1,stimuli/stim_20210519_power2amp/equal_lnn_AM1Hz_s15_49.m4a,,,
,,,,,41275,2021-06-07_21h03.22.019,judgeSpeechMusic_20210519_logNormShiftAmp_mXs,2020.1.2,MacIntel,60,,,,,,,,,,,,,,,,,,,,,,,,,,2,6.393275,,0,0,102,102,124,1,stimuli/stim_20210519_power2amp/equal_lnn_AM4Hz_s35_37.m4a,,,
,,,,,41275,2021-06-07_21h03.22.019,judgeSpeechMusic_20210519_logNormShiftAmp_mXs,2020.1.2,MacIntel,60,,,,,,,,,,,,,,,,,,,,,,,,,,2,6.03143,,0,0,103,103,131,1,stimuli/stim_20210519_power2amp/equal_lnn_AM4Hz_s45_4.m4a,,,
,,,,,41275,2021-06-07_21h03.22.019,judgeSpeechMusic_20210519_logNormShiftAmp_mXs,2020.1.2,MacIntel,60,,,,,,,,,,,,,,,,,,,,,,,,,,2,5.694385,,0,0,104,104,104,1,stimuli/stim_20210519_power2amp/equal_lnn_AM4Hz_s15_44.m4a,,,
,,,,,41275,2021-06-07_21h03.22.019,judgeSpeechMusic_20210519_logNormShiftAmp_mXs,2020.1.2,MacIntel,60,,,,,,,,,,,,,,,,,,,,,,,,,,1,7.091375,4,1,0,105,105,34,1,stimuli/stim_20210519_power2amp/equal_lnn_AM1Hz_s45_29.m4a,1.546995,,
,,,,,41275,2021-06-07_21h03.22.019,judgeSpeechMusic_20210519_logNormShiftAmp_mXs,2020.1.2,MacIntel,60,,,,,,,,,,,,,,,,,,,,,,,,,,2,6.94754,,0,0,106,106,86,1,stimuli/stim_20210519_power2amp/equal_lnn_AM2.5Hz_s45_30.m4a,,,
,,,,,41275,2021-06-07_21h03.22.019,judgeSpeechMusic_20210519_logNormShiftAmp_mXs,2020.1.2,MacIntel,60,,,,,,,,,,,,,,,,,,,,,,,,,,1,6.673965,,0,0,107,107,17,1,stimuli/stim_20210519_power2amp/equal_lnn_AM1Hz_s25_3.m4a,,,
,,,,,41275,2021-06-07_21h03.22.019,judgeSpeechMusic_20210519_logNormShiftAmp_mXs,2020.1.2,MacIntel,60,,,,,,,,,,,,,,,,,,,,,,,,,,1,5.67292,,0,0,108,108,27,1,stimuli/stim_20210519_power2amp/equal_lnn_AM1Hz_s35_3.m4a,,,
,,,,,41275,2021-06-07_21h03.22.019,judgeSpeechMusic_20210519_logNormShiftAmp_mXs,2020.1.2,MacIntel,60,,,,,,,,,,,,,,,,,,,,,,,,,,1,5.745555,,0,0,109,109,48,1,stimuli/stim_20210519_power2amp/equal_lnn_AM1Hz_s55_19.m4a,,,
,,,,,41275,2021-06-07_21h03.22.019,judgeSpeechMusic_20210519_logNormShiftAmp_mXs,2020.1.2,MacIntel,60,,,,,,,,,,,,,,,,,,,,,,,,,,2,6.49596,,0,0,110,110,97,1,stimuli/stim_20210519_power2amp/equal_lnn_AM2.5Hz_s55_18.m4a,,,
,,,,,41275,2021-06-07_21h03.22.019,judgeSpeechMusic_20210519_logNormShiftAmp_mXs,2020.1.2,MacIntel,60,,,,,,,,,,,,,,,,,,,,,,,,,,1,6.462815,,0,0,111,111,40,1,stimuli/stim_20210519_power2amp/equal_lnn_AM1Hz_s55_23.m4a,,,
,,,,,41275,2021-06-07_21h03.22.019,judgeSpeechMusic_20210519_logNormShiftAmp_mXs,2020.1.2,MacIntel,60,,,,,,,,,,,,,,,,,,,,,,,,,,1,7.47956,,0,0,112,112,43,1,stimuli/stim_20210519_power2amp/equal_lnn_AM1Hz_s55_33.m4a,,,
,,,,,41275,2021-06-07_21h03.22.019,judgeSpeechMusic_20210519_logNormShiftAmp_mXs,2020.1.2,MacIntel,60,,,,,,,,,,,,,,,,,,,,,,,,,,2,6.33922,,0,0,113,113,138,1,stimuli/stim_20210519_power2amp/equal_lnn_AM4Hz_s45_34.m4a,,,
,,,,,41275,2021-06-07_21h03.22.019,judgeSpeechMusic_20210519_logNormShiftAmp_mXs,2020.1.2,MacIntel,60,,,,,,,,,,,,,,,,,,,,,,,,,,2,5.745435,,0,0,114,114,65,1,stimuli/stim_20210519_power2amp/equal_lnn_AM2.5Hz_s25_45.m4a,,,
,,,,,41275,2021-06-07_21h03.22.019,judgeSpeechMusic_20210519_logNormShiftAmp_mXs,2020.1.2,MacIntel,60,,,,,,,,,,,,,,,,,,,,,,,,,,1,6.39297,,0,0,115,115,24,1,stimuli/stim_20210519_power2amp/equal_lnn_AM1Hz_s35_46.m4a,,,
,,,,,41275,2021-06-07_21h03.22.019,judgeSpeechMusic_20210519_logNormShiftAmp_mXs,2020.1.2,MacIntel,60,,,,,,,,,,,,,,,,,,,,,,,,,,1,8.147905,,0,0,116,116,32,1,stimuli/stim_20210519_power2amp/equal_lnn_AM1Hz_s45_48.m4a,,,
,,,,,41275,2021-06-07_21h03.22.019,judgeSpeechMusic_20210519_logNormShiftAmp_mXs,2020.1.2,MacIntel,60,,,,,,,,,,,,,,,,,,,,,,,,,,1,6.17349,,0,0,117,117,87,1,stimuli/stim_20210519_power2amp/equal_lnn_AM2.5Hz_s45_34.m4a,,,
,,,,,41275,2021-06-07_21h03.22.019,judgeSpeechMusic_20210519_logNormShiftAmp_mXs,2020.1.2,MacIntel,60,,,,,,,,,,,,,,,,,,,,,,,,,,2,6.245725,,0,0,118,118,127,1,stimuli/stim_20210519_power2amp/equal_lnn_AM4Hz_s35_22.m4a,,,
,,,,,41275,2021-06-07_21h03.22.019,judgeSpeechMusic_20210519_logNormShiftAmp_mXs,2020.1.2,MacIntel,60,,,,,,,,,,,,,,,,,,,,,,,,,,2,7.24551,,0,0,119,119,88,1,stimuli/stim_20210519_power2amp/equal_lnn_AM2.5Hz_s45_38.m4a,,,
,,,,,41275,2021-06-07_21h03.22.019,judgeSpeechMusic_20210519_logNormShiftAmp_mXs,2020.1.2,MacIntel,60,,,,,,,,,,,,,,,,,,,,,,,,,,2,6.34649,,0,0,120,120,106,1,stimuli/stim_20210519_power2amp/equal_lnn_AM4Hz_s15_12.m4a,,,
,,,,,41275,2021-06-07_21h03.22.019,judgeSpeechMusic_20210519_logNormShiftAmp_mXs,2020.1.2,MacIntel,60,,,,,,,,,,,,,,,,,,,,,,,,,,1,6.47655,,0,0,121,121,121,1,stimuli/stim_20210519_power2amp/equal_lnn_AM4Hz_s35_30.m4a,,,
,,,,,41275,2021-06-07_21h03.22.019,judgeSpeechMusic_20210519_logNormShiftAmp_mXs,2020.1.2,MacIntel,60,,,,,,,,,,,,,,,,,,,,,,,,,,1,5.91304,,0,0,122,122,2,1,stimuli/stim_20210519_power2amp/equal_lnn_AM1Hz_s15_4.m4a,,,
,,,,,41275,2021-06-07_21h03.22.019,judgeSpeechMusic_20210519_logNormShiftAmp_mXs,2020.1.2,MacIntel,60,,,,,,,,,,,,,,,,,,,,,,,,,,2,5.746495,,0,0,123,123,68,1,stimuli/stim_20210519_power2amp/equal_lnn_AM2.5Hz_s25_49.m4a,,,
,,,,,41275,2021-06-07_21h03.22.019,judgeSpeechMusic_20210519_logNormShiftAmp_mXs,2020.1.2,MacIntel,60,,,,,,,,,,,,,,,,,,,,,,,,,,1,6.26002,,0,0,124,124,23,1,stimuli/stim_20210519_power2amp/equal_lnn_AM1Hz_s35_24.m4a,,,
,,,,,41275,2021-06-07_21h03.22.019,judgeSpeechMusic_20210519_logNormShiftAmp_mXs,2020.1.2,MacIntel,60,,,,,,,,,,,,,,,,,,,,,,,,,,2,6.421735,3,1,0,125,125,147,1,stimuli/stim_20210519_power2amp/equal_lnn_AM4Hz_s55_12.m4a,1.798495,,
,,,,,41275,2021-06-07_21h03.22.019,judgeSpeechMusic_20210519_logNormShiftAmp_mXs,2020.1.2,MacIntel,60,,,,,,,,,,,,,,,,,,,,,,,,,,2,6.31252,,0,0,126,126,120,1,stimuli/stim_20210519_power2amp/equal_lnn_AM4Hz_s35_23.m4a,,,
,,,,,41275,2021-06-07_21h03.22.019,judgeSpeechMusic_20210519_logNormShiftAmp_mXs,2020.1.2,MacIntel,60,,,,,,,,,,,,,,,,,,,,,,,,,,1,5.705655,,0,0,127,127,134,1,stimuli/stim_20210519_power2amp/equal_lnn_AM4Hz_s45_33.m4a,,,
,,,,,41275,2021-06-07_21h03.22.019,judgeSpeechMusic_20210519_logNormShiftAmp_mXs,2020.1.2,MacIntel,60,,,,,,,,,,,,,,,,,,,,,,,,,,2,6.09303,,0,0,128,128,139,1,stimuli/stim_20210519_power2amp/equal_lnn_AM4Hz_s45_39.m4a,,,
,,,,,41275,2021-06-07_21h03.22.019,judgeSpeechMusic_20210519_logNormShiftAmp_mXs,2020.1.2,MacIntel,60,,,,,,,,,,,,,,,,,,,,,,,,,,2,5.96402,,0,0,129,129,140,1,stimuli/stim_20210519_power2amp/equal_lnn_AM4Hz_s55_33.m4a,,,
,,,,,41275,2021-06-07_21h03.22.019,judgeSpeechMusic_20210519_logNormShiftAmp_mXs,2020.1.2,MacIntel,60,,,,,,,,,,,,,,,,,,,,,,,,,,2,5.644795,,0,0,130,130,98,1,stimuli/stim_20210519_power2amp/equal_lnn_AM2.5Hz_s55_15.m4a,,,
,,,,,41275,2021-06-07_21h03.22.019,judgeSpeechMusic_20210519_logNormShiftAmp_mXs,2020.1.2,MacIntel,60,,,,,,,,,,,,,,,,,,,,,,,,,,1,6.395775,,0,0,131,131,3,1,stimuli/stim_20210519_power2amp/equal_lnn_AM1Hz_s15_41.m4a,,,
,,,,,41275,2021-06-07_21h03.22.019,judgeSpeechMusic_20210519_logNormShiftAmp_mXs,2020.1.2,MacIntel,60,,,,,,,,,,,,,,,,,,,,,,,,,,2,6.30598,,0,0,132,132,55,1,stimuli/stim_20210519_power2amp/equal_lnn_AM2.5Hz_s15_33.m4a,,,
,,,,,41275,2021-06-07_21h03.22.019,judgeSpeechMusic_20210519_logNormShiftAmp_mXs,2020.1.2,MacIntel,60,,,,,,,,,,,,,,,,,,,,,,,,,,1,6.39623,,0,0,133,133,22,1,stimuli/stim_20210519_power2amp/equal_lnn_AM1Hz_s35_43.m4a,,,
,,,,,41275,2021-06-07_21h03.22.019,judgeSpeechMusic_20210519_logNormShiftAmp_mXs,2020.1.2,MacIntel,60,,,,,,,,,,,,,,,,,,,,,,,,,,2,6.01056,,0,0,134,134,93,1,stimuli/stim_20210519_power2amp/equal_lnn_AM2.5Hz_s55_48.m4a,,,
,,,,,41275,2021-06-07_21h03.22.019,judgeSpeechMusic_20210519_logNormShiftAmp_mXs,2020.1.2,MacIntel,60,,,,,,,,,,,,,,,,,,,,,,,,,,1,6.509425,,0,0,135,135,10,1,stimuli/stim_20210519_power2amp/equal_lnn_AM1Hz_s25_14.m4a,,,
,,,,,41275,2021-06-07_21h03.22.019,judgeSpeechMusic_20210519_logNormShiftAmp_mXs,2020.1.2,MacIntel,60,,,,,,,,,,,,,,,,,,,,,,,,,,1,5.66281,,0,0,136,136,70,1,stimuli/stim_20210519_power2amp/equal_lnn_AM2.5Hz_s35_33.m4a,,,
,,,,,41275,2021-06-07_21h03.22.019,judgeSpeechMusic_20210519_logNormShiftAmp_mXs,2020.1.2,MacIntel,60,,,,,,,,,,,,,,,,,,,,,,,,,,1,7.11128,,0,0,137,137,36,1,stimuli/stim_20210519_power2amp/equal_lnn_AM1Hz_s45_40.m4a,,,
,,,,,41275,2021-06-07_21h03.22.019,judgeSpeechMusic_20210519_logNormShiftAmp_mXs,2020.1.2,MacIntel,60,,,,,,,,,,,,,,,,,,,,,,,,,,2,6.081035,,0,0,138,138,128,1,stimuli/stim_20210519_power2amp/equal_lnn_AM4Hz_s35_31.m4a,,,
,,,,,41275,2021-06-07_21h03.22.019,judgeSpeechMusic_20210519_logNormShiftAmp_mXs,2020.1.2,MacIntel,60,,,,,,,,,,,,,,,,,,,,,,,,,,1,6.21272,,0,0,139,139,46,1,stimuli/stim_20210519_power2amp/equal_lnn_AM1Hz_s55_6.m4a,,,
,,,,,41275,2021-06-07_21h03.22.019,judgeSpeechMusic_20210519_logNormShiftAmp_mXs,2020.1.2,MacIntel,60,,,,,,,,,,,,,,,,,,,,,,,,,,1,5.941695,,0,0,140,140,45,1,stimuli/stim_20210519_power2amp/equal_lnn_AM1Hz_s55_45.m4a,,,
,,,,,41275,2021-06-07_21h03.22.019,judgeSpeechMusic_20210519_logNormShiftAmp_mXs,2020.1.2,MacIntel,60,,,,,,,,,,,,,,,,,,,,,,,,,,1,6.29146,,0,0,141,141,29,1,stimuli/stim_20210519_power2amp/equal_lnn_AM1Hz_s35_7.m4a,,,
,,,,,41275,2021-06-07_21h03.22.019,judgeSpeechMusic_20210519_logNormShiftAmp_mXs,2020.1.2,MacIntel,60,,,,,,,,,,,,,,,,,,,,,,,,,,1,5.79549,,0,0,142,142,38,1,stimuli/stim_20210519_power2amp/equal_lnn_AM1Hz_s45_28.m4a,,,
,,,,,41275,2021-06-07_21h03.22.019,judgeSpeechMusic_20210519_logNormShiftAmp_mXs,2020.1.2,MacIntel,60,,,,,,,,,,,,,,,,,,,,,,,,,,1,5.68973,,0,0,143,143,41,1,stimuli/stim_20210519_power2amp/equal_lnn_AM1Hz_s55_22.m4a,,,
,,,,,41275,2021-06-07_21h03.22.019,judgeSpeechMusic_20210519_logNormShiftAmp_mXs,2020.1.2,MacIntel,60,,,,,,,,,,,,,,,,,,,,,,,,,,1,5.678175,,0,0,144,144,21,1,stimuli/stim_20210519_power2amp/equal_lnn_AM1Hz_s35_42.m4a,,,
,,,,,41275,2021-06-07_21h03.22.019,judgeSpeechMusic_20210519_logNormShiftAmp_mXs,2020.1.2,MacIntel,60,,,,,,,,,,,,,,,,,,,,,,,,,,2,6.44028,,0,0,145,145,73,1,stimuli/stim_20210519_power2amp/equal_lnn_AM2.5Hz_s35_21.m4a,,,
,,,,,41275,2021-06-07_21h03.22.019,judgeSpeechMusic_20210519_logNormShiftAmp_mXs,2020.1.2,MacIntel,60,,,,,,,,,,,,,,,,,,,,,,,,,,1,6.788215,,0,0,146,146,5,1,stimuli/stim_20210519_power2amp/equal_lnn_AM1Hz_s15_2.m4a,,,
,,,,,41275,2021-06-07_21h03.22.019,judgeSpeechMusic_20210519_logNormShiftAmp_mXs,2020.1.2,MacIntel,60,,,,,,,,,,,,,,,,,,,,,,,,,,1,5.774235,,0,0,147,147,28,1,stimuli/stim_20210519_power2amp/equal_lnn_AM1Hz_s35_32.m4a,,,
,,,,,41275,2021-06-07_21h03.22.019,judgeSpeechMusic_20210519_logNormShiftAmp_mXs,2020.1.2,MacIntel,60,,,,,,,,,,,,,,,,,,,,,,,,,,2,6.159825,,0,0,148,148,76,1,stimuli/stim_20210519_power2amp/equal_lnn_AM2.5Hz_s35_34.m4a,,,
,,,,,41275,2021-06-07_21h03.22.019,judgeSpeechMusic_20210519_logNormShiftAmp_mXs,2020.1.2,MacIntel,60,,,,,,,,,,,,,,,,,,,,,,,,,,2,5.69424,,0,0,149,149,57,1,stimuli/stim_20210519_power2amp/equal_lnn_AM2.5Hz_s15_43.m4a,,,
,,,,,41275,2021-06-07_21h03.22.019,judgeSpeechMusic_20210519_logNormShiftAmp_mXs,2020.1.2,MacIntel,60,,,,,,,,,,,,,,,,,,,,,,,,,,1,6.257745,3,1,1,0,150,35,1,stimuli/stim_20210519_power2amp/equal_lnn_AM1Hz_s45_43.m4a,1.02737,,
,,,,,41275,2021-06-07_21h03.22.019,judgeSpeechMusic_20210519_logNormShiftAmp_mXs,2020.1.2,MacIntel,60,,,,,,,,,,,,,,,,,,,,,,,,,,2,6.42751,,0,1,1,151,98,1,stimuli/stim_20210519_power2amp/equal_lnn_AM2.5Hz_s55_15.m4a,,,
,,,,,41275,2021-06-07_21h03.22.019,judgeSpeechMusic_20210519_logNormShiftAmp_mXs,2020.1.2,MacIntel,60,,,,,,,,,,,,,,,,,,,,,,,,,,1,5.87882,,0,1,2,152,41,1,stimuli/stim_20210519_power2amp/equal_lnn_AM1Hz_s55_22.m4a,,,
,,,,,41275,2021-06-07_21h03.22.019,judgeSpeechMusic_20210519_logNormShiftAmp_mXs,2020.1.2,MacIntel,60,,,,,,,,,,,,,,,,,,,,,,,,,,2,5.71096,,0,1,3,153,131,1,stimuli/stim_20210519_power2amp/equal_lnn_AM4Hz_s45_4.m4a,,,
,,,,,41275,2021-06-07_21h03.22.019,judgeSpeechMusic_20210519_logNormShiftAmp_mXs,2020.1.2,MacIntel,60,,,,,,,,,,,,,,,,,,,,,,,,,,2,7.09645,,0,1,4,154,3,1,stimuli/stim_20210519_power2amp/equal_lnn_AM1Hz_s15_41.m4a,,,
,,,,,41275,2021-06-07_21h03.22.019,judgeSpeechMusic_20210519_logNormShiftAmp_mXs,2020.1.2,MacIntel,60,,,,,,,,,,,,,,,,,,,,,,,,,,2,5.793825,,0,1,5,155,101,1,stimuli/stim_20210519_power2amp/equal_lnn_AM4Hz_s15_5.m4a,,,
,,,,,41275,2021-06-07_21h03.22.019,judgeSpeechMusic_20210519_logNormShiftAmp_mXs,2020.1.2,MacIntel,60,,,,,,,,,,,,,,,,,,,,,,,,,,2,5.69067,,0,1,6,156,103,1,stimuli/stim_20210519_power2amp/equal_lnn_AM4Hz_s15_38.m4a,,,
,,,,,41275,2021-06-07_21h03.22.019,judgeSpeechMusic_20210519_logNormShiftAmp_mXs,2020.1.2,MacIntel,60,,,,,,,,,,,,,,,,,,,,,,,,,,2,6.04399,,0,1,7,157,69,1,stimuli/stim_20210519_power2amp/equal_lnn_AM2.5Hz_s25_20.m4a,,,
,,,,,41275,2021-06-07_21h03.22.019,judgeSpeechMusic_20210519_logNormShiftAmp_mXs,2020.1.2,MacIntel,60,,,,,,,,,,,,,,,,,,,,,,,,,,1,6.141845,,0,1,8,158,140,1,stimuli/stim_20210519_power2amp/equal_lnn_AM4Hz_s55_33.m4a,,,
,,,,,41275,2021-06-07_21h03.22.019,judgeSpeechMusic_20210519_logNormShiftAmp_mXs,2020.1.2,MacIntel,60,,,,,,,,,,,,,,,,,,,,,,,,,,1,6.57435,,0,1,9,159,26,1,stimuli/stim_20210519_power2amp/equal_lnn_AM1Hz_s35_1.m4a,,,
,,,,,41275,2021-06-07_21h03.22.019,judgeSpeechMusic_20210519_logNormShiftAmp_mXs,2020.1.2,MacIntel,60,,,,,,,,,,,,,,,,,,,,,,,,,,2,6.41262,,0,1,10,160,55,1,stimuli/stim_20210519_power2amp/equal_lnn_AM2.5Hz_s15_33.m4a,,,
,,,,,41275,2021-06-07_21h03.22.019,judgeSpeechMusic_20210519_logNormShiftAmp_mXs,2020.1.2,MacIntel,60,,,,,,,,,,,,,,,,,,,,,,,,,,1,6.977465,,0,1,11,161,15,1,stimuli/stim_20210519_power2amp/equal_lnn_AM1Hz_s25_39.m4a,,,
,,,,,41275,2021-06-07_21h03.22.019,judgeSpeechMusic_20210519_logNormShiftAmp_mXs,2020.1.2,MacIntel,60,,,,,,,,,,,,,,,,,,,,,,,,,,2,8.0472,,0,1,12,162,58,1,stimuli/stim_20210519_power2amp/equal_lnn_AM2.5Hz_s15_29.m4a,,,
,,,,,41275,2021-06-07_21h03.22.019,judgeSpeechMusic_20210519_logNormShiftAmp_mXs,2020.1.2,MacIntel,60,,,,,,,,,,,,,,,,,,,,,,,,,,1,7.961915,,0,1,13,163,2,1,stimuli/stim_20210519_power2amp/equal_lnn_AM1Hz_s15_4.m4a,,,
,,,,,41275,2021-06-07_21h03.22.019,judgeSpeechMusic_20210519_logNormShiftAmp_mXs,2020.1.2,MacIntel,60,,,,,,,,,,,,,,,,,,,,,,,,,,2,7.29448,,0,1,14,164,48,1,stimuli/stim_20210519_power2amp/equal_lnn_AM1Hz_s55_19.m4a,,,
,,,,,41275,2021-06-07_21h03.22.019,judgeSpeechMusic_20210519_logNormShiftAmp_mXs,2020.1.2,MacIntel,60,,,,,,,,,,,,,,,,,,,,,,,,,,2,6.02482,,0,1,15,165,110,1,stimuli/stim_20210519_power2amp/equal_lnn_AM4Hz_s25_38.m4a,,,
,,,,,41275,2021-06-07_21h03.22.019,judgeSpeechMusic_20210519_logNormShiftAmp_mXs,2020.1.2,MacIntel,60,,,,,,,,,,,,,,,,,,,,,,,,,,2,6.861185,,0,1,16,166,60,1,stimuli/stim_20210519_power2amp/equal_lnn_AM2.5Hz_s25_42.m4a,,,
,,,,,41275,2021-06-07_21h03.22.019,judgeSpeechMusic_20210519_logNormShiftAmp_mXs,2020.1.2,MacIntel,60,,,,,,,,,,,,,,,,,,,,,,,,,,2,6.261705,,0,1,17,167,125,1,stimuli/stim_20210519_power2amp/equal_lnn_AM4Hz_s35_20.m4a,,,
,,,,,41275,2021-06-07_21h03.22.019,judgeSpeechMusic_20210519_logNormShiftAmp_mXs,2020.1.2,MacIntel,60,,,,,,,,,,,,,,,,,,,,,,,,,,2,5.81113,,0,1,18,168,121,1,stimuli/stim_20210519_power2amp/equal_lnn_AM4Hz_s35_30.m4a,,,
,,,,,41275,2021-06-07_21h03.22.019,judgeSpeechMusic_20210519_logNormShiftAmp_mXs,2020.1.2,MacIntel,60,,,,,,,,,,,,,,,,,,,,,,,,,,2,6.227725,,0,1,19,169,113,1,stimuli/stim_20210519_power2amp/equal_lnn_AM4Hz_s25_22.m4a,,,
,,,,,41275,2021-06-07_21h03.22.019,judgeSpeechMusic_20210519_logNormShiftAmp_mXs,2020.1.2,MacIntel,60,,,,,,,,,,,,,,,,,,,,,,,,,,1,6.32326,,0,1,20,170,61,1,stimuli/stim_20210519_power2amp/equal_lnn_AM2.5Hz_s25_25.m4a,,,
,,,,,41275,2021-06-07_21h03.22.019,judgeSpeechMusic_20210519_logNormShiftAmp_mXs,2020.1.2,MacIntel,60,,,,,,,,,,,,,,,,,,,,,,,,,,2,7.57978,,0,1,21,171,97,1,stimuli/stim_20210519_power2amp/equal_lnn_AM2.5Hz_s55_18.m4a,,,
,,,,,41275,2021-06-07_21h03.22.019,judgeSpeechMusic_20210519_logNormShiftAmp_mXs,2020.1.2,MacIntel,60,,,,,,,,,,,,,,,,,,,,,,,,,,1,6.646655,,0,1,22,172,118,1,stimuli/stim_20210519_power2amp/equal_lnn_AM4Hz_s25_18.m4a,,,
,,,,,41275,2021-06-07_21h03.22.019,judgeSpeechMusic_20210519_logNormShiftAmp_mXs,2020.1.2,MacIntel,60,,,,,,,,,,,,,,,,,,,,,,,,,,2,7.138205,,0,1,23,173,147,1,stimuli/stim_20210519_power2amp/equal_lnn_AM4Hz_s55_12.m4a,,,
,,,,,41275,2021-06-07_21h03.22.019,judgeSpeechMusic_20210519_logNormShiftAmp_mXs,2020.1.2,MacIntel,60,,,,,,,,,,,,,,,,,,,,,,,,,,1,6.957995,2,1,1,24,174,16,1,stimuli/stim_20210519_power2amp/equal_lnn_AM1Hz_s25_21.m4a,1.592245,,
,,,,,41275,2021-06-07_21h03.22.019,judgeSpeechMusic_20210519_logNormShiftAmp_mXs,2020.1.2,MacIntel,60,,,,,,,,,,,,,,,,,,,,,,,,,,2,6.94312,,0,1,25,175,139,1,stimuli/stim_20210519_power2amp/equal_lnn_AM4Hz_s45_39.m4a,,,
,,,,,41275,2021-06-07_21h03.22.019,judgeSpeechMusic_20210519_logNormShiftAmp_mXs,2020.1.2,MacIntel,60,,,,,,,,,,,,,,,,,,,,,,,,,,1,6.76081,,0,1,26,176,112,1,stimuli/stim_20210519_power2amp/equal_lnn_AM4Hz_s25_47.m4a,,,
,,,,,41275,2021-06-07_21h03.22.019,judgeSpeechMusic_20210519_logNormShiftAmp_mXs,2020.1.2,MacIntel,60,,,,,,,,,,,,,,,,,,,,,,,,,,1,7.78144,,0,1,27,177,145,1,stimuli/stim_20210519_power2amp/equal_lnn_AM4Hz_s55_5.m4a,,,
,,,,,41275,2021-06-07_21h03.22.019,judgeSpeechMusic_20210519_logNormShiftAmp_mXs,2020.1.2,MacIntel,60,,,,,,,,,,,,,,,,,,,,,,,,,,1,5.807535,,0,1,28,178,18,1,stimuli/stim_20210519_power2amp/equal_lnn_AM1Hz_s25_26.m4a,,,
,,,,,41275,2021-06-07_21h03.22.019,judgeSpeechMusic_20210519_logNormShiftAmp_mXs,2020.1.2,MacIntel,60,,,,,,,,,,,,,,,,,,,,,,,,,,2,7.273045,,0,1,29,179,94,1,stimuli/stim_20210519_power2amp/equal_lnn_AM2.5Hz_s55_21.m4a,,,
,,,,,41275,2021-06-07_21h03.22.019,judgeSpeechMusic_20210519_logNormShiftAmp_mXs,2020.1.2,MacIntel,60,,,,,,,,,,,,,,,,,,,,,,,,,,2,6.42455,,0,1,30,180,54,1,stimuli/stim_20210519_power2amp/equal_lnn_AM2.5Hz_s15_14.m4a,,,
,,,,,41275,2021-06-07_21h03.22.019,judgeSpeechMusic_20210519_logNormShiftAmp_mXs,2020.1.2,MacIntel,60,,,,,,,,,,,,,,,,,,,,,,,,,,2,6.009485,,0,1,31,181,141,1,stimuli/stim_20210519_power2amp/equal_lnn_AM4Hz_s55_19.m4a,,,
,,,,,41275,2021-06-07_21h03.22.019,judgeSpeechMusic_20210519_logNormShiftAmp_mXs,2020.1.2,MacIntel,60,,,,,,,,,,,,,,,,,,,,,,,,,,1,6.46156,,0,1,32,182,80,1,stimuli/stim_20210519_power2amp/equal_lnn_AM2.5Hz_s45_36.m4a,,,
,,,,,41275,2021-06-07_21h03.22.019,judgeSpeechMusic_20210519_logNormShiftAmp_mXs,2020.1.2,MacIntel,60,,,,,,,,,,,,,,,,,,,,,,,,,,1,7.36066,,0,1,33,183,47,1,stimuli/stim_20210519_power2amp/equal_lnn_AM1Hz_s55_13.m4a,,,
,,,,,41275,2021-06-07_21h03.22.019,judgeSpeechMusic_20210519_logNormShiftAmp_mXs,2020.1.2,MacIntel,60,,,,,,,,,,,,,,,,,,,,,,,,,,2,6.895875,,0,1,34,184,100,1,stimuli/stim_20210519_power2amp/equal_lnn_AM4Hz_s15_22.m4a,,,
,,,,,41275,2021-06-07_21h03.22.019,judgeSpeechMusic_20210519_logNormShiftAmp_mXs,2020.1.2,MacIntel,60,,,,,,,,,,,,,,,,,,,,,,,,,,1,8.146625,,0,1,35,185,29,1,stimuli/stim_20210519_power2amp/equal_lnn_AM1Hz_s35_7.m4a,,,
,,,,,41275,2021-06-07_21h03.22.019,judgeSpeechMusic_20210519_logNormShiftAmp_mXs,2020.1.2,MacIntel,60,,,,,,,,,,,,,,,,,,,,,,,,,,2,7.64609,,0,1,36,186,142,1,stimuli/stim_20210519_power2amp/equal_lnn_AM4Hz_s55_28.m4a,,,
,,,,,41275,2021-06-07_21h03.22.019,judgeSpeechMusic_20210519_logNormShiftAmp_mXs,2020.1.2,MacIntel,60,,,,,,,,,,,,,,,,,,,,,,,,,,2,8.62743,,0,1,37,187,70,1,stimuli/stim_20210519_power2amp/equal_lnn_AM2.5Hz_s35_33.m4a,,,
,,,,,41275,2021-06-07_21h03.22.019,judgeSpeechMusic_20210519_logNormShiftAmp_mXs,2020.1.2,MacIntel,60,,,,,,,,,,,,,,,,,,,,,,,,,,1,6.47496,,0,1,38,188,13,1,stimuli/stim_20210519_power2amp/equal_lnn_AM1Hz_s25_44.m4a,,,
,,,,,41275,2021-06-07_21h03.22.019,judgeSpeechMusic_20210519_logNormShiftAmp_mXs,2020.1.2,MacIntel,60,,,,,,,,,,,,,,,,,,,,,,,,,,2,7.12678,,0,1,39,189,119,1,stimuli/stim_20210519_power2amp/equal_lnn_AM4Hz_s25_20.m4a,,,
,,,,,41275,2021-06-07_21h03.22.019,judgeSpeechMusic_20210519_logNormShiftAmp_mXs,2020.1.2,MacIntel,60,,,,,,,,,,,,,,,,,,,,,,,,,,1,8.32826,,0,1,40,190,49,1,stimuli/stim_20210519_power2amp/equal_lnn_AM1Hz_s55_24.m4a,,,
,,,,,41275,2021-06-07_21h03.22.019,judgeSpeechMusic_20210519_logNormShiftAmp_mXs,2020.1.2,MacIntel,60,,,,,,,,,,,,,,,,,,,,,,,,,,2,8.55968,,0,1,41,191,129,1,stimuli/stim_20210519_power2amp/equal_lnn_AM4Hz_s35_34.m4a,,,
,,,,,41275,2021-06-07_21h03.22.019,judgeSpeechMusic_20210519_logNormShiftAmp_mXs,2020.1.2,MacIntel,60,,,,,,,,,,,,,,,,,,,,,,,,,,1,6.909905,,0,1,42,192,79,1,stimuli/stim_20210519_power2amp/equal_lnn_AM2.5Hz_s35_25.m4a,,,
,,,,,41275,2021-06-07_21h03.22.019,judgeSpeechMusic_20210519_logNormShiftAmp_mXs,2020.1.2,MacIntel,60,,,,,,,,,,,,,,,,,,,,,,,,,,2,6.64038,,0,1,43,193,10,1,stimuli/stim_20210519_power2amp/equal_lnn_AM1Hz_s25_14.m4a,,,
,,,,,41275,2021-06-07_21h03.22.019,judgeSpeechMusic_20210519_logNormShiftAmp_mXs,2020.1.2,MacIntel,60,,,,,,,,,,,,,,,,,,,,,,,,,,1,6.58003,3,1,1,44,194,111,1,stimuli/stim_20210519_power2amp/equal_lnn_AM4Hz_s25_41.m4a,1.177225,,
,,,,,41275,2021-06-07_21h03.22.019,judgeSpeechMusic_20210519_logNormShiftAmp_mXs,2020.1.2,MacIntel,60,,,,,,,,,,,,,,,,,,,,,,,,,,1,6.91165,,0,1,45,195,21,1,stimuli/stim_20210519_power2amp/equal_lnn_AM1Hz_s35_42.m4a,,,
,,,,,41275,2021-06-07_21h03.22.019,judgeSpeechMusic_20210519_logNormShiftAmp_mXs,2020.1.2,MacIntel,60,,,,,,,,,,,,,,,,,,,,,,,,,,2,7.92839,,0,1,46,196,64,1,stimuli/stim_20210519_power2amp/equal_lnn_AM2.5Hz_s25_40.m4a,,,
,,,,,41275,2021-06-07_21h03.22.019,judgeSpeechMusic_20210519_logNormShiftAmp_mXs,2020.1.2,MacIntel,60,,,,,,,,,,,,,,,,,,,,,,,,,,1,6.643635,,0,1,47,197,34,1,stimuli/stim_20210519_power2amp/equal_lnn_AM1Hz_s45_29.m4a,,,
,,,,,41275,2021-06-07_21h03.22.019,judgeSpeechMusic_20210519_logNormShiftAmp_mXs,2020.1.2,MacIntel,60,,,,,,,,,,,,,,,,,,,,,,,,,,2,6.760725,,0,1,48,198,78,1,stimuli/stim_20210519_power2amp/equal_lnn_AM2.5Hz_s35_15.m4a,,,
,,,,,41275,2021-06-07_21h03.22.019,judgeSpeechMusic_20210519_logNormShiftAmp_mXs,2020.1.2,MacIntel,60,,,,,,,,,,,,,,,,,,,,,,,,,,2,7.440405,,0,1,49,199,148,1,stimuli/stim_20210519_power2amp/equal_lnn_AM4Hz_s55_17.m4a,,,
,,,,,41275,2021-06-07_21h03.22.019,judgeSpeechMusic_20210519_logNormShiftAmp_mXs,2020.1.2,MacIntel,60,,,,,,,,,,,,,,,,,,,,,,,,,,1,7.539685,,0,1,50,200,43,1,stimuli/stim_20210519_power2amp/equal_lnn_AM1Hz_s55_33.m4a,,,
,,,,,41275,2021-06-07_21h03.22.019,judgeSpeechMusic_20210519_logNormShiftAmp_mXs,2020.1.2,MacIntel,60,,,,,,,,,,,,,,,,,,,,,,,,,,1,7.00784,,0,1,51,201,37,1,stimuli/stim_20210519_power2amp/equal_lnn_AM1Hz_s45_27.m4a,,,
,,,,,41275,2021-06-07_21h03.22.019,judgeSpeechMusic_20210519_logNormShiftAmp_mXs,2020.1.2,MacIntel,60,,,,,,,,,,,,,,,,,,,,,,,,,,1,5.898295,,0,1,52,202,23,1,stimuli/stim_20210519_power2amp/equal_lnn_AM1Hz_s35_24.m4a,,,
,,,,,41275,2021-06-07_21h03.22.019,judgeSpeechMusic_20210519_logNormShiftAmp_mXs,2020.1.2,MacIntel,60,,,,,,,,,,,,,,,,,,,,,,,,,,2,8.311555,,0,1,53,203,116,1,stimuli/stim_20210519_power2amp/equal_lnn_AM4Hz_s25_2.m4a,,,
,,,,,41275,2021-06-07_21h03.22.019,judgeSpeechMusic_20210519_logNormShiftAmp_mXs,2020.1.2,MacIntel,60,,,,,,,,,,,,,,,,,,,,,,,,,,2,6.504385,,0,1,54,204,76,1,stimuli/stim_20210519_power2amp/equal_lnn_AM2.5Hz_s35_34.m4a,,,
,,,,,41275,2021-06-07_21h03.22.019,judgeSpeechMusic_20210519_logNormShiftAmp_mXs,2020.1.2,MacIntel,60,,,,,,,,,,,,,,,,,,,,,,,,,,1,7.1586,,0,1,55,205,136,1,stimuli/stim_20210519_power2amp/equal_lnn_AM4Hz_s45_22.m4a,,,
,,,,,41275,2021-06-07_21h03.22.019,judgeSpeechMusic_20210519_logNormShiftAmp_mXs,2020.1.2,MacIntel,60,,,,,,,,,,,,,,,,,,,,,,,,,,1,6.19117,,0,1,56,206,0,1,stimuli/stim_20210519_power2amp/equal_lnn_AM1Hz_s15_7.m4a,,,
,,,,,41275,2021-06-07_21h03.22.019,judgeSpeechMusic_20210519_logNormShiftAmp_mXs,2020.1.2,MacIntel,60,,,,,,,,,,,,,,,,,,,,,,,,,,2,6.49734,,0,1,57,207,99,1,stimuli/stim_20210519_power2amp/equal_lnn_AM2.5Hz_s55_39.m4a,,,
,,,,,41275,2021-06-07_21h03.22.019,judgeSpeechMusic_20210519_logNormShiftAmp_mXs,2020.1.2,MacIntel,60,,,,,,,,,,,,,,,,,,,,,,,,,,1,6.878425,,0,1,58,208,28,1,stimuli/stim_20210519_power2amp/equal_lnn_AM1Hz_s35_32.m4a,,,
,,,,,41275,2021-06-07_21h03.22.019,judgeSpeechMusic_20210519_logNormShiftAmp_mXs,2020.1.2,MacIntel,60,,,,,,,,,,,,,,,,,,,,,,,,,,2,6.45908,,0,1,59,209,68,1,stimuli/stim_20210519_power2amp/equal_lnn_AM2.5Hz_s25_49.m4a,,,
,,,,,41275,2021-06-07_21h03.22.019,judgeSpeechMusic_20210519_logNormShiftAmp_mXs,2020.1.2,MacIntel,60,,,,,,,,,,,,,,,,,,,,,,,,,,1,6.926805,,0,1,60,210,126,1,stimuli/stim_20210519_power2amp/equal_lnn_AM4Hz_s35_14.m4a,,,
,,,,,41275,2021-06-07_21h03.22.019,judgeSpeechMusic_20210519_logNormShiftAmp_mXs,2020.1.2,MacIntel,60,,,,,,,,,,,,,,,,,,,,,,,,,,1,6.358525,,0,1,61,211,20,1,stimuli/stim_20210519_power2amp/equal_lnn_AM1Hz_s35_13.m4a,,,
,,,,,41275,2021-06-07_21h03.22.019,judgeSpeechMusic_20210519_logNormShiftAmp_mXs,2020.1.2,MacIntel,60,,,,,,,,,,,,,,,,,,,,,,,,,,1,10.995005,,0,1,62,212,87,1,stimuli/stim_20210519_power2amp/equal_lnn_AM2.5Hz_s45_34.m4a,,,
,,,,,41275,2021-06-07_21h03.22.019,judgeSpeechMusic_20210519_logNormShiftAmp_mXs,2020.1.2,MacIntel,60,,,,,,,,,,,,,,,,,,,,,,,,,,2,7.531055,,0,1,63,213,144,1,stimuli/stim_20210519_power2amp/equal_lnn_AM4Hz_s55_30.m4a,,,
,,,,,41275,2021-06-07_21h03.22.019,judgeSpeechMusic_20210519_logNormShiftAmp_mXs,2020.1.2,MacIntel,60,,,,,,,,,,,,,,,,,,,,,,,,,,1,7.4133,,0,1,64,214,114,1,stimuli/stim_20210519_power2amp/equal_lnn_AM4Hz_s25_12.m4a,,,
,,,,,41275,2021-06-07_21h03.22.019,judgeSpeechMusic_20210519_logNormShiftAmp_mXs,2020.1.2,MacIntel,60,,,,,,,,,,,,,,,,,,,,,,,,,,2,8.591035,,0,1,65,215,107,1,stimuli/stim_20210519_power2amp/equal_lnn_AM4Hz_s15_4.m4a,,,
,,,,,41275,2021-06-07_21h03.22.019,judgeSpeechMusic_20210519_logNormShiftAmp_mXs,2020.1.2,MacIntel,60,,,,,,,,,,,,,,,,,,,,,,,,,,1,7.462955,4,1,1,66,216,22,1,stimuli/stim_20210519_power2amp/equal_lnn_AM1Hz_s35_43.m4a,1.41078,,
,,,,,41275,2021-06-07_21h03.22.019,judgeSpeechMusic_20210519_logNormShiftAmp_mXs,2020.1.2,MacIntel,60,,,,,,,,,,,,,,,,,,,,,,,,,,1,8.51086,,0,1,67,217,115,1,stimuli/stim_20210519_power2amp/equal_lnn_AM4Hz_s25_25.m4a,,,
,,,,,41275,2021-06-07_21h03.22.019,judgeSpeechMusic_20210519_logNormShiftAmp_mXs,2020.1.2,MacIntel,60,,,,,,,,,,,,,,,,,,,,,,,,,,2,6.84191,,0,1,68,218,108,1,stimuli/stim_20210519_power2amp/equal_lnn_AM4Hz_s15_21.m4a,,,
,,,,,41275,2021-06-07_21h03.22.019,judgeSpeechMusic_20210519_logNormShiftAmp_mXs,2020.1.2,MacIntel,60,,,,,,,,,,,,,,,,,,,,,,,,,,1,7.944325,,0,1,69,219,92,1,stimuli/stim_20210519_power2amp/equal_lnn_AM2.5Hz_s55_43.m4a,,,
,,,,,41275,2021-06-07_21h03.22.019,judgeSpeechMusic_20210519_logNormShiftAmp_mXs,2020.1.2,MacIntel,60,,,,,,,,,,,,,,,,,,,,,,,,,,1,6.3936,,0,1,70,220,25,1,stimuli/stim_20210519_power2amp/equal_lnn_AM1Hz_s35_40.m4a,,,
,,,,,41275,2021-06-07_21h03.22.019,judgeSpeechMusic_20210519_logNormShiftAmp_mXs,2020.1.2,MacIntel,60,,,,,,,,,,,,,,,,,,,,,,,,,,2,6.195445,,0,1,71,221,57,1,stimuli/stim_20210519_power2amp/equal_lnn_AM2.5Hz_s15_43.m4a,,,
,,,,,41275,2021-06-07_21h03.22.019,judgeSpeechMusic_20210519_logNormShiftAmp_mXs,2020.1.2,MacIntel,60,,,,,,,,,,,,,,,,,,,,,,,,,,2,6.79303,,0,1,72,222,105,1,stimuli/stim_20210519_power2amp/equal_lnn_AM4Hz_s15_45.m4a,,,
,,,,,41275,2021-06-07_21h03.22.019,judgeSpeechMusic_20210519_logNormShiftAmp_mXs,2020.1.2,MacIntel,60,,,,,,,,,,,,,,,,,,,,,,,,,,1,8.67909,,0,1,73,223,6,1,stimuli/stim_20210519_power2amp/equal_lnn_AM1Hz_s15_14.m4a,,,
,,,,,41275,2021-06-07_21h03.22.019,judgeSpeechMusic_20210519_logNormShiftAmp_mXs,2020.1.2,MacIntel,60,,,,,,,,,,,,,,,,,,,,,,,,,,2,6.992395,,0,1,74,224,46,1,stimuli/stim_20210519_power2amp/equal_lnn_AM1Hz_s55_6.m4a,,,
,,,,,41275,2021-06-07_21h03.22.019,judgeSpeechMusic_20210519_logNormShiftAmp_mXs,2020.1.2,MacIntel,60,,,,,,,,,,,,,,,,,,,,,,,,,,2,6.612945,,0,1,75,225,135,1,stimuli/stim_20210519_power2amp/equal_lnn_AM4Hz_s45_5.m4a,,,
,,,,,41275,2021-06-07_21h03.22.019,judgeSpeechMusic_20210519_logNormShiftAmp_mXs,2020.1.2,MacIntel,60,,,,,,,,,,,,,,,,,,,,,,,,,,2,6.92349,,0,1,76,226,149,1,stimuli/stim_20210519_power2amp/equal_lnn_AM4Hz_s55_14.m4a,,,
,,,,,41275,2021-06-07_21h03.22.019,judgeSpeechMusic_20210519_logNormShiftAmp_mXs,2020.1.2,MacIntel,60,,,,,,,,,,,,,,,,,,,,,,,,,,1,6.60779,,0,1,77,227,44,1,stimuli/stim_20210519_power2amp/equal_lnn_AM1Hz_s55_30.m4a,,,
,,,,,41275,2021-06-07_21h03.22.019,judgeSpeechMusic_20210519_logNormShiftAmp_mXs,2020.1.2,MacIntel,60,,,,,,,,,,,,,,,,,,,,,,,,,,1,6.24317,,0,1,78,228,38,1,stimuli/stim_20210519_power2amp/equal_lnn_AM1Hz_s45_28.m4a,,,
,,,,,41275,2021-06-07_21h03.22.019,judgeSpeechMusic_20210519_logNormShiftAmp_mXs,2020.1.2,MacIntel,60,,,,,,,,,,,,,,,,,,,,,,,,,,2,7.413005,,0,1,79,229,86,1,stimuli/stim_20210519_power2amp/equal_lnn_AM2.5Hz_s45_30.m4a,,,
,,,,,41275,2021-06-07_21h03.22.019,judgeSpeechMusic_20210519_logNormShiftAmp_mXs,2020.1.2,MacIntel,60,,,,,,,,,,,,,,,,,,,,,,,,,,2,6.31493,,0,1,80,230,71,1,stimuli/stim_20210519_power2amp/equal_lnn_AM2.5Hz_s35_17.m4a,,,
,,,,,41275,2021-06-07_21h03.22.019,judgeSpeechMusic_20210519_logNormShiftAmp_mXs,2020.1.2,MacIntel,60,,,,,,,,,,,,,,,,,,,,,,,,,,2,5.88058,,0,1,81,231,122,1,stimuli/stim_20210519_power2amp/equal_lnn_AM4Hz_s35_10.m4a,,,
,,,,,41275,2021-06-07_21h03.22.019,judgeSpeechMusic_20210519_logNormShiftAmp_mXs,2020.1.2,MacIntel,60,,,,,,,,,,,,,,,,,,,,,,,,,,1,6.68901,,0,1,82,232,27,1,stimuli/stim_20210519_power2amp/equal_lnn_AM1Hz_s35_3.m4a,,,
,,,,,41275,2021-06-07_21h03.22.019,judgeSpeechMusic_20210519_logNormShiftAmp_mXs,2020.1.2,MacIntel,60,,,,,,,,,,,,,,,,,,,,,,,,,,1,8.058485,,0,1,83,233,40,1,stimuli/stim_20210519_power2amp/equal_lnn_AM1Hz_s55_23.m4a,,,
,,,,,41275,2021-06-07_21h03.22.019,judgeSpeechMusic_20210519_logNormShiftAmp_mXs,2020.1.2,MacIntel,60,,,,,,,,,,,,,,,,,,,,,,,,,,1,6.610665,,0,1,84,234,5,1,stimuli/stim_20210519_power2amp/equal_lnn_AM1Hz_s15_2.m4a,,,
,,,,,41275,2021-06-07_21h03.22.019,judgeSpeechMusic_20210519_logNormShiftAmp_mXs,2020.1.2,MacIntel,60,,,,,,,,,,,,,,,,,,,,,,,,,,1,8.61016,,0,1,85,235,82,1,stimuli/stim_20210519_power2amp/equal_lnn_AM2.5Hz_s45_44.m4a,,,
,,,,,41275,2021-06-07_21h03.22.019,judgeSpeechMusic_20210519_logNormShiftAmp_mXs,2020.1.2,MacIntel,60,,,,,,,,,,,,,,,,,,,,,,,,,,2,7.02393,,0,1,86,236,124,1,stimuli/stim_20210519_power2amp/equal_lnn_AM4Hz_s35_37.m4a,,,
,,,,,41275,2021-06-07_21h03.22.019,judgeSpeechMusic_20210519_logNormShiftAmp_mXs,2020.1.2,MacIntel,60,,,,,,,,,,,,,,,,,,,,,,,,,,1,7.67811,,0,1,87,237,56,1,stimuli/stim_20210519_power2amp/equal_lnn_AM2.5Hz_s15_6.m4a,,,
,,,,,41275,2021-06-07_21h03.22.019,judgeSpeechMusic_20210519_logNormShiftAmp_mXs,2020.1.2,MacIntel,60,,,,,,,,,,,,,,,,,,,,,,,,,,2,7.7106,,0,1,88,238,52,1,stimuli/stim_20210519_power2amp/equal_lnn_AM2.5Hz_s15_39.m4a,,,
,,,,,41275,2021-06-07_21h03.22.019,judgeSpeechMusic_20210519_logNormShiftAmp_mXs,2020.1.2,MacIntel,60,,,,,,,,,,,,,,,,,,,,,,,,,,2,11.12836,,0,1,89,239,63,1,stimuli/stim_20210519_power2amp/equal_lnn_AM2.5Hz_s25_31.m4a,,,
,,,,,41275,2021-06-07_21h03.22.019,judgeSpeechMusic_20210519_logNormShiftAmp_mXs,2020.1.2,MacIntel,60,,,,,,,,,,,,,,,,,,,,,,,,,,1,6.96093,3,1,1,90,240,33,1,stimuli/stim_20210519_power2amp/equal_lnn_AM1Hz_s45_17.m4a,0.95954,,
,,,,,41275,2021-06-07_21h03.22.019,judgeSpeechMusic_20210519_logNormShiftAmp_mXs,2020.1.2,MacIntel,60,,,,,,,,,,,,,,,,,,,,,,,,,,2,6.974985,,0,1,91,241,95,1,stimuli/stim_20210519_power2amp/equal_lnn_AM2.5Hz_s55_3.m4a,,,
,,,,,41275,2021-06-07_21h03.22.019,judgeSpeechMusic_20210519_logNormShiftAmp_mXs,2020.1.2,MacIntel,60,,,,,,,,,,,,,,,,,,,,,,,,,,2,6.10595,,0,1,92,242,128,1,stimuli/stim_20210519_power2amp/equal_lnn_AM4Hz_s35_31.m4a,,,
,,,,,41275,2021-06-07_21h03.22.019,judgeSpeechMusic_20210519_logNormShiftAmp_mXs,2020.1.2,MacIntel,60,,,,,,,,,,,,,,,,,,,,,,,,,,2,7.576365,,0,1,93,243,109,1,stimuli/stim_20210519_power2amp/equal_lnn_AM4Hz_s15_27.m4a,,,
,,,,,41275,2021-06-07_21h03.22.019,judgeSpeechMusic_20210519_logNormShiftAmp_mXs,2020.1.2,MacIntel,60,,,,,,,,,,,,,,,,,,,,,,,,,,2,6.441865,,0,1,94,244,104,1,stimuli/stim_20210519_power2amp/equal_lnn_AM4Hz_s15_44.m4a,,,
,,,,,41275,2021-06-07_21h03.22.019,judgeSpeechMusic_20210519_logNormShiftAmp_mXs,2020.1.2,MacIntel,60,,,,,,,,,,,,,,,,,,,,,,,,,,1,7.00893,,0,1,95,245,31,1,stimuli/stim_20210519_power2amp/equal_lnn_AM1Hz_s45_26.m4a,,,
,,,,,41275,2021-06-07_21h03.22.019,judgeSpeechMusic_20210519_logNormShiftAmp_mXs,2020.1.2,MacIntel,60,,,,,,,,,,,,,,,,,,,,,,,,,,2,7.813585,,0,1,96,246,120,1,stimuli/stim_20210519_power2amp/equal_lnn_AM4Hz_s35_23.m4a,,,
,,,,,41275,2021-06-07_21h03.22.019,judgeSpeechMusic_20210519_logNormShiftAmp_mXs,2020.1.2,MacIntel,60,,,,,,,,,,,,,,,,,,,,,,,,,,2,7.912975,,0,1,97,247,106,1,stimuli/stim_20210519_power2amp/equal_lnn_AM4Hz_s15_12.m4a,,,
,,,,,41275,2021-06-07_21h03.22.019,judgeSpeechMusic_20210519_logNormShiftAmp_mXs,2020.1.2,MacIntel,60,,,,,,,,,,,,,,,,,,,,,,,,,,2,6.112775,,0,1,98,248,65,1,stimuli/stim_20210519_power2amp/equal_lnn_AM2.5Hz_s25_45.m4a,,,
,,,,,41275,2021-06-07_21h03.22.019,judgeSpeechMusic_20210519_logNormShiftAmp_mXs,2020.1.2,MacIntel,60,,,,,,,,,,,,,,,,,,,,,,,,,,1,7.680285,,0,1,99,249,137,1,stimuli/stim_20210519_power2amp/equal_lnn_AM4Hz_s45_19.m4a,,,
,,,,,41275,2021-06-07_21h03.22.019,judgeSpeechMusic_20210519_logNormShiftAmp_mXs,2020.1.2,MacIntel,60,,,,,,,,,,,,,,,,,,,,,,,,,,1,7.05866,,0,1,100,250,14,1,stimuli/stim_20210519_power2amp/equal_lnn_AM1Hz_s25_18.m4a,,,
,,,,,41275,2021-06-07_21h03.22.019,judgeSpeechMusic_20210519_logNormShiftAmp_mXs,2020.1.2,MacIntel,60,,,,,,,,,,,,,,,,,,,,,,,,,,1,7.47662,,0,1,101,251,89,1,stimuli/stim_20210519_power2amp/equal_lnn_AM2.5Hz_s45_27.m4a,,,
,,,,,41275,2021-06-07_21h03.22.019,judgeSpeechMusic_20210519_logNormShiftAmp_mXs,2020.1.2,MacIntel,60,,,,,,,,,,,,,,,,,,,,,,,,,,1,7.24342,,0,1,102,252,19,1,stimuli/stim_20210519_power2amp/equal_lnn_AM1Hz_s25_27.m4a,,,
,,,,,41275,2021-06-07_21h03.22.019,judgeSpeechMusic_20210519_logNormShiftAmp_mXs,2020.1.2,MacIntel,60,,,,,,,,,,,,,,,,,,,,,,,,,,1,7.26131,,0,1,103,253,36,1,stimuli/stim_20210519_power2amp/equal_lnn_AM1Hz_s45_40.m4a,,,
,,,,,41275,2021-06-07_21h03.22.019,judgeSpeechMusic_20210519_logNormShiftAmp_mXs,2020.1.2,MacIntel,60,,,,,,,,,,,,,,,,,,,,,,,,,,1,6.75915,,0,1,104,254,11,1,stimuli/stim_20210519_power2amp/equal_lnn_AM1Hz_s25_30.m4a,,,
,,,,,41275,2021-06-07_21h03.22.019,judgeSpeechMusic_20210519_logNormShiftAmp_mXs,2020.1.2,MacIntel,60,,,,,,,,,,,,,,,,,,,,,,,,,,2,7.876515,,0,1,105,255,66,1,stimuli/stim_20210519_power2amp/equal_lnn_AM2.5Hz_s25_7.m4a,,,
,,,,,41275,2021-06-07_21h03.22.019,judgeSpeechMusic_20210519_logNormShiftAmp_mXs,2020.1.2,MacIntel,60,,,,,,,,,,,,,,,,,,,,,,,,,,1,7.676145,,0,1,106,256,32,1,stimuli/stim_20210519_power2amp/equal_lnn_AM1Hz_s45_48.m4a,,,
,,,,,41275,2021-06-07_21h03.22.019,judgeSpeechMusic_20210519_logNormShiftAmp_mXs,2020.1.2,MacIntel,60,,,,,,,,,,,,,,,,,,,,,,,,,,2,7.510185,,0,1,107,257,59,1,stimuli/stim_20210519_power2amp/equal_lnn_AM2.5Hz_s15_49.m4a,,,
,,,,,41275,2021-06-07_21h03.22.019,judgeSpeechMusic_20210519_logNormShiftAmp_mXs,2020.1.2,MacIntel,60,,,,,,,,,,,,,,,,,,,,,,,,,,1,6.326555,,0,1,108,258,67,1,stimuli/stim_20210519_power2amp/equal_lnn_AM2.5Hz_s25_39.m4a,,,
,,,,,41275,2021-06-07_21h03.22.019,judgeSpeechMusic_20210519_logNormShiftAmp_mXs,2020.1.2,MacIntel,60,,,,,,,,,,,,,,,,,,,,,,,,,,2,5.726795,,0,1,109,259,96,1,stimuli/stim_20210519_power2amp/equal_lnn_AM2.5Hz_s55_6.m4a,,,
,,,,,41275,2021-06-07_21h03.22.019,judgeSpeechMusic_20210519_logNormShiftAmp_mXs,2020.1.2,MacIntel,60,,,,,,,,,,,,,,,,,,,,,,,,,,2,9.112745,2,1,1,110,260,117,1,stimuli/stim_20210519_power2amp/equal_lnn_AM4Hz_s25_45.m4a,1.261755,,
,,,,,41275,2021-06-07_21h03.22.019,judgeSpeechMusic_20210519_logNormShiftAmp_mXs,2020.1.2,MacIntel,60,,,,,,,,,,,,,,,,,,,,,,,,,,2,6.706465,,0,1,111,261,123,1,stimuli/stim_20210519_power2amp/equal_lnn_AM4Hz_s35_18.m4a,,,
,,,,,41275,2021-06-07_21h03.22.019,judgeSpeechMusic_20210519_logNormShiftAmp_mXs,2020.1.2,MacIntel,60,,,,,,,,,,,,,,,,,,,,,,,,,,2,6.33797,,0,1,112,262,130,1,stimuli/stim_20210519_power2amp/equal_lnn_AM4Hz_s45_15.m4a,,,
,,,,,41275,2021-06-07_21h03.22.019,judgeSpeechMusic_20210519_logNormShiftAmp_mXs,2020.1.2,MacIntel,60,,,,,,,,,,,,,,,,,,,,,,,,,,1,7.5242,,0,1,113,263,39,1,stimuli/stim_20210519_power2amp/equal_lnn_AM1Hz_s45_18.m4a,,,
,,,,,41275,2021-06-07_21h03.22.019,judgeSpeechMusic_20210519_logNormShiftAmp_mXs,2020.1.2,MacIntel,60,,,,,,,,,,,,,,,,,,,,,,,,,,2,9.625675,,0,1,114,264,132,1,stimuli/stim_20210519_power2amp/equal_lnn_AM4Hz_s45_49.m4a,,,
,,,,,41275,2021-06-07_21h03.22.019,judgeSpeechMusic_20210519_logNormShiftAmp_mXs,2020.1.2,MacIntel,60,,,,,,,,,,,,,,,,,,,,,,,,,,2,6.05716,,0,1,115,265,93,1,stimuli/stim_20210519_power2amp/equal_lnn_AM2.5Hz_s55_48.m4a,,,
,,,,,41275,2021-06-07_21h03.22.019,judgeSpeechMusic_20210519_logNormShiftAmp_mXs,2020.1.2,MacIntel,60,,,,,,,,,,,,,,,,,,,,,,,,,,1,7.558485,,0,1,116,266,143,1,stimuli/stim_20210519_power2amp/equal_lnn_AM4Hz_s55_35.m4a,,,
,,,,,41275,2021-06-07_21h03.22.019,judgeSpeechMusic_20210519_logNormShiftAmp_mXs,2020.1.2,MacIntel,60,,,,,,,,,,,,,,,,,,,,,,,,,,1,5.6745,,0,1,117,267,75,1,stimuli/stim_20210519_power2amp/equal_lnn_AM2.5Hz_s35_10.m4a,,,
,,,,,41275,2021-06-07_21h03.22.019,judgeSpeechMusic_20210519_logNormShiftAmp_mXs,2020.1.2,MacIntel,60,,,,,,,,,,,,,,,,,,,,,,,,,,1,5.858385,,0,1,118,268,8,1,stimuli/stim_20210519_power2amp/equal_lnn_AM1Hz_s15_15.m4a,,,
,,,,,41275,2021-06-07_21h03.22.019,judgeSpeechMusic_20210519_logNormShiftAmp_mXs,2020.1.2,MacIntel,60,,,,,,,,,,,,,,,,,,,,,,,,,,2,5.82385,,0,1,119,269,127,1,stimuli/stim_20210519_power2amp/equal_lnn_AM4Hz_s35_22.m4a,,,
,,,,,41275,2021-06-07_21h03.22.019,judgeSpeechMusic_20210519_logNormShiftAmp_mXs,2020.1.2,MacIntel,60,,,,,,,,,,,,,,,,,,,,,,,,,,2,5.94515,,0,1,120,270,102,1,stimuli/stim_20210519_power2amp/equal_lnn_AM4Hz_s15_9.m4a,,,
,,,,,41275,2021-06-07_21h03.22.019,judgeSpeechMusic_20210519_logNormShiftAmp_mXs,2020.1.2,MacIntel,60,,,,,,,,,,,,,,,,,,,,,,,,,,1,6.67798,,0,1,121,271,24,1,stimuli/stim_20210519_power2amp/equal_lnn_AM1Hz_s35_46.m4a,,,
,,,,,41275,2021-06-07_21h03.22.019,judgeSpeechMusic_20210519_logNormShiftAmp_mXs,2020.1.2,MacIntel,60,,,,,,,,,,,,,,,,,,,,,,,,,,1,6.411365,,0,1,122,272,45,1,stimuli/stim_20210519_power2amp/equal_lnn_AM1Hz_s55_45.m4a,,,
,,,,,41275,2021-06-07_21h03.22.019,judgeSpeechMusic_20210519_logNormShiftAmp_mXs,2020.1.2,MacIntel,60,,,,,,,,,,,,,,,,,,,,,,,,,,1,5.928555,,0,1,123,273,42,1,stimuli/stim_20210519_power2amp/equal_lnn_AM1Hz_s55_14.m4a,,,
,,,,,41275,2021-06-07_21h03.22.019,judgeSpeechMusic_20210519_logNormShiftAmp_mXs,2020.1.2,MacIntel,60,,,,,,,,,,,,,,,,,,,,,,,,,,1,6.47259,,0,1,124,274,12,1,stimuli/stim_20210519_power2amp/equal_lnn_AM1Hz_s25_12.m4a,,,
,,,,,41275,2021-06-07_21h03.22.019,judgeSpeechMusic_20210519_logNormShiftAmp_mXs,2020.1.2,MacIntel,60,,,,,,,,,,,,,,,,,,,,,,,,,,2,7.17633,,0,1,125,275,77,1,stimuli/stim_20210519_power2amp/equal_lnn_AM2.5Hz_s35_43.m4a,,,
,,,,,41275,2021-06-07_21h03.22.019,judgeSpeechMusic_20210519_logNormShiftAmp_mXs,2020.1.2,MacIntel,60,,,,,,,,,,,,,,,,,,,,,,,,,,2,7.10828,,0,1,126,276,72,1,stimuli/stim_20210519_power2amp/equal_lnn_AM2.5Hz_s35_31.m4a,,,
,,,,,41275,2021-06-07_21h03.22.019,judgeSpeechMusic_20210519_logNormShiftAmp_mXs,2020.1.2,MacIntel,60,,,,,,,,,,,,,,,,,,,,,,,,,,1,7.797315,,0,1,127,277,146,1,stimuli/stim_20210519_power2amp/equal_lnn_AM4Hz_s55_24.m4a,,,
,,,,,41275,2021-06-07_21h03.22.019,judgeSpeechMusic_20210519_logNormShiftAmp_mXs,2020.1.2,MacIntel,60,,,,,,,,,,,,,,,,,,,,,,,,,,1,6.164435,,0,1,128,278,84,1,stimuli/stim_20210519_power2amp/equal_lnn_AM2.5Hz_s45_47.m4a,,,
,,,,,41275,2021-06-07_21h03.22.019,judgeSpeechMusic_20210519_logNormShiftAmp_mXs,2020.1.2,MacIntel,60,,,,,,,,,,,,,,,,,,,,,,,,,,2,7.209565,,0,1,129,279,7,1,stimuli/stim_20210519_power2amp/equal_lnn_AM1Hz_s15_47.m4a,,,
,,,,,41275,2021-06-07_21h03.22.019,judgeSpeechMusic_20210519_logNormShiftAmp_mXs,2020.1.2,MacIntel,60,,,,,,,,,,,,,,,,,,,,,,,,,,1,8.36495,3,1,1,130,280,62,1,stimuli/stim_20210519_power2amp/equal_lnn_AM2.5Hz_s25_23.m4a,0.96417,,
,,,,,41275,2021-06-07_21h03.22.019,judgeSpeechMusic_20210519_logNormShiftAmp_mXs,2020.1.2,MacIntel,60,,,,,,,,,,,,,,,,,,,,,,,,,,2,7.77724,,0,1,131,281,50,1,stimuli/stim_20210519_power2amp/equal_lnn_AM2.5Hz_s15_46.m4a,,,
,,,,,41275,2021-06-07_21h03.22.019,judgeSpeechMusic_20210519_logNormShiftAmp_mXs,2020.1.2,MacIntel,60,,,,,,,,,,,,,,,,,,,,,,,,,,2,6.559665,,0,1,132,282,83,1,stimuli/stim_20210519_power2amp/equal_lnn_AM2.5Hz_s45_20.m4a,,,
,,,,,41275,2021-06-07_21h03.22.019,judgeSpeechMusic_20210519_logNormShiftAmp_mXs,2020.1.2,MacIntel,60,,,,,,,,,,,,,,,,,,,,,,,,,,1,7.42259,,0,1,133,283,17,1,stimuli/stim_20210519_power2amp/equal_lnn_AM1Hz_s25_3.m4a,,,
,,,,,41275,2021-06-07_21h03.22.019,judgeSpeechMusic_20210519_logNormShiftAmp_mXs,2020.1.2,MacIntel,60,,,,,,,,,,,,,,,,,,,,,,,,,,1,6.626295,,0,1,134,284,74,1,stimuli/stim_20210519_power2amp/equal_lnn_AM2.5Hz_s35_18.m4a,,,
,,,,,41275,2021-06-07_21h03.22.019,judgeSpeechMusic_20210519_logNormShiftAmp_mXs,2020.1.2,MacIntel,60,,,,,,,,,,,,,,,,,,,,,,,,,,1,5.91042,,0,1,135,285,1,1,stimuli/stim_20210519_power2amp/equal_lnn_AM1Hz_s15_49.m4a,,,
,,,,,41275,2021-06-07_21h03.22.019,judgeSpeechMusic_20210519_logNormShiftAmp_mXs,2020.1.2,MacIntel,60,,,,,,,,,,,,,,,,,,,,,,,,,,2,7.22723,,0,1,136,286,91,1,stimuli/stim_20210519_power2amp/equal_lnn_AM2.5Hz_s55_29.m4a,,,
,,,,,41275,2021-06-07_21h03.22.019,judgeSpeechMusic_20210519_logNormShiftAmp_mXs,2020.1.2,MacIntel,60,,,,,,,,,,,,,,,,,,,,,,,,,,1,8.356895,,0,1,137,287,134,1,stimuli/stim_20210519_power2amp/equal_lnn_AM4Hz_s45_33.m4a,,,
,,,,,41275,2021-06-07_21h03.22.019,judgeSpeechMusic_20210519_logNormShiftAmp_mXs,2020.1.2,MacIntel,60,,,,,,,,,,,,,,,,,,,,,,,,,,2,6.010245,,0,1,138,288,73,1,stimuli/stim_20210519_power2amp/equal_lnn_AM2.5Hz_s35_21.m4a,,,
,,,,,41275,2021-06-07_21h03.22.019,judgeSpeechMusic_20210519_logNormShiftAmp_mXs,2020.1.2,MacIntel,60,,,,,,,,,,,,,,,,,,,,,,,,,,1,7.70704,,0,1,139,289,9,1,stimuli/stim_20210519_power2amp/equal_lnn_AM1Hz_s15_28.m4a,,,
,,,,,41275,2021-06-07_21h03.22.019,judgeSpeechMusic_20210519_logNormShiftAmp_mXs,2020.1.2,MacIntel,60,,,,,,,,,,,,,,,,,,,,,,,,,,1,7.225715,,0,1,140,290,53,1,stimuli/stim_20210519_power2amp/equal_lnn_AM2.5Hz_s15_38.m4a,,,
,,,,,41275,2021-06-07_21h03.22.019,judgeSpeechMusic_20210519_logNormShiftAmp_mXs,2020.1.2,MacIntel,60,,,,,,,,,,,,,,,,,,,,,,,,,,2,5.675605,,0,1,141,291,133,1,stimuli/stim_20210519_power2amp/equal_lnn_AM4Hz_s45_10.m4a,,,
,,,,,41275,2021-06-07_21h03.22.019,judgeSpeechMusic_20210519_logNormShiftAmp_mXs,2020.1.2,MacIntel,60,,,,,,,,,,,,,,,,,,,,,,,,,,2,5.961065,,0,1,142,292,138,1,stimuli/stim_20210519_power2amp/equal_lnn_AM4Hz_s45_34.m4a,,,
,,,,,41275,2021-06-07_21h03.22.019,judgeSpeechMusic_20210519_logNormShiftAmp_mXs,2020.1.2,MacIntel,60,,,,,,,,,,,,,,,,,,,,,,,,,,1,7.760885,,0,1,143,293,81,1,stimuli/stim_20210519_power2amp/equal_lnn_AM2.5Hz_s45_11.m4a,,,
,,,,,41275,2021-06-07_21h03.22.019,judgeSpeechMusic_20210519_logNormShiftAmp_mXs,2020.1.2,MacIntel,60,,,,,,,,,,,,,,,,,,,,,,,,,,1,6.524765,,0,1,144,294,51,1,stimuli/stim_20210519_power2amp/equal_lnn_AM2.5Hz_s15_25.m4a,,,
,,,,,41275,2021-06-07_21h03.22.019,judgeSpeechMusic_20210519_logNormShiftAmp_mXs,2020.1.2,MacIntel,60,,,,,,,,,,,,,,,,,,,,,,,,,,1,6.94145,,0,1,145,295,30,1,stimuli/stim_20210519_power2amp/equal_lnn_AM1Hz_s45_2.m4a,,,
,,,,,41275,2021-06-07_21h03.22.019,judgeSpeechMusic_20210519_logNormShiftAmp_mXs,2020.1.2,MacIntel,60,,,,,,,,,,,,,,,,,,,,,,,,,,1,6.157515,,0,1,146,296,4,1,stimuli/stim_20210519_power2amp/equal_lnn_AM1Hz_s15_13.m4a,,,
,,,,,41275,2021-06-07_21h03.22.019,judgeSpeechMusic_20210519_logNormShiftAmp_mXs,2020.1.2,MacIntel,60,,,,,,,,,,,,,,,,,,,,,,,,,,2,5.875375,,0,1,147,297,90,1,stimuli/stim_20210519_power2amp/equal_lnn_AM2.5Hz_s55_36.m4a,,,
,,,,,41275,2021-06-07_21h03.22.019,judgeSpeechMusic_20210519_logNormShiftAmp_mXs,2020.1.2,MacIntel,60,,,,,,,,,,,,,,,,,,,,,,,,,,2,6.50751,,0,1,148,298,88,1,stimuli/stim_20210519_power2amp/equal_lnn_AM2.5Hz_s45_38.m4a,,,
,,,,,41275,2021-06-07_21h03.22.019,judgeSpeechMusic_20210519_logNormShiftAmp_mXs,2020.1.2,MacIntel,60,,,,,,,,,,,,,,,,,,,,,,,,,,2,5.87962,,0,1,149,299,85,1,stimuli/stim_20210519_power2amp/equal_lnn_AM2.5Hz_s45_29.m4a,,,
,,,,,41275,2021-06-07_21h03.22.019,judgeSpeechMusic_20210519_logNormShiftAmp_mXs,2020.1.2,MacIntel,60,,,,,,,,,,,,,,,,,,,,,,,,,,,,,,,,,,,,,space,16.75593
