volAdjustRep.thisRepN,volAdjustRep.thisTrialN,volAdjustRep.thisN,volAdjustRep.thisIndex,volAdjustRep.ran,participant,date,expName,psychopyVersion,OS,frameRate,headphoneResponse.keys,headphoneResponse.corr,headphoneResponse.rt,headphoneTrial.thisRepN,headphoneTrial.thisTrialN,headphoneTrial.thisN,headphoneTrial.thisIndex,headphoneTrial.ran,headphone_sound1,headphone_sound2,headphone_sound3,corrAns,trainSlider.response,trainSlider.rt,beepTrainResponse.keys,beepTrainResponse.corr,trainingTrials.thisRepN,trainingTrials.thisTrialN,trainingTrials.thisN,trainingTrials.thisIndex,trainingTrials.ran,trainAudioFile,beepTrainResponse.rt,readyReal_resp.keys,readyReal_resp.rt,ratingSlider.response,ratingSlider.rt,beepResp.keys,beepResp.corr,expTrials.thisRepN,expTrials.thisTrialN,expTrials.thisN,expTrials.thisIndex,expTrials.ran,audioFile,beepResp.rt,end_resp.keys,end_resp.rt
0,0,0,0,1,41276,2021-06-05_18h02.34.004,judgeSpeechMusic_20210519_logNormShiftAmp_mXs,2020.1.2,MacIntel,60,,,,,,,,,,,,,,,,,,,,,,,,,,,,,,,,,,,,,,
,,,,,41276,2021-06-05_18h02.34.004,judgeSpeechMusic_20210519_logNormShiftAmp_mXs,2020.1.2,MacIntel,60,3,1,2.4996,0,0,0,0,1,stimuli/screen_antiphase.wav,stimuli/screen_origin.wav,stimuli/screen_quiet.wav,3,,,,,,,,,,,,,,,,,,,,,,,,,,
,,,,,41276,2021-06-05_18h02.34.004,judgeSpeechMusic_20210519_logNormShiftAmp_mXs,2020.1.2,MacIntel,60,1,1,3.6166,0,1,1,5,1,stimuli/screen_quiet.wav,stimuli/screen_origin.wav,stimuli/screen_antiphase.wav,1,,,,,,,,,,,,,,,,,,,,,,,,,,
,,,,,41276,2021-06-05_18h02.34.004,judgeSpeechMusic_20210519_logNormShiftAmp_mXs,2020.1.2,MacIntel,60,2,1,2.2996,0,2,2,1,1,stimuli/screen_antiphase.wav,stimuli/screen_quiet.wav,stimuli/screen_origin.wav,2,,,,,,,,,,,,,,,,,,,,,,,,,,
,,,,,41276,2021-06-05_18h02.34.004,judgeSpeechMusic_20210519_logNormShiftAmp_mXs,2020.1.2,MacIntel,60,1,1,0.5847,0,3,3,4,1,stimuli/screen_quiet.wav,stimuli/screen_antiphase.wav,stimuli/screen_origin.wav,1,,,,,,,,,,,,,,,,,,,,,,,,,,
,,,,,41276,2021-06-05_18h02.34.004,judgeSpeechMusic_20210519_logNormShiftAmp_mXs,2020.1.2,MacIntel,60,3,1,0.708,0,4,4,2,1,stimuli/screen_origin.wav,stimuli/screen_antiphase.wav,stimuli/screen_quiet.wav,3,,,,,,,,,,,,,,,,,,,,,,,,,,
,,,,,41276,2021-06-05_18h02.34.004,judgeSpeechMusic_20210519_logNormShiftAmp_mXs,2020.1.2,MacIntel,60,2,1,0.3779,0,5,5,3,1,stimuli/screen_origin.wav,stimuli/screen_quiet.wav,stimuli/screen_antiphase.wav,2,,,,,,,,,,,,,,,,,,,,,,,,,,
,,,,,41276,2021-06-05_18h02.34.004,judgeSpeechMusic_20210519_logNormShiftAmp_mXs,2020.1.2,MacIntel,60,,,,,,,,,,,,,2,17.2093,,0,0,0,0,1,1,stimuli/stim_20210519_power2amp/equal_lnn_AM_training1.5Hz_s50.m4a,,,,,,,,,,,,,,,,
,,,,,41276,2021-06-05_18h02.34.004,judgeSpeechMusic_20210519_logNormShiftAmp_mXs,2020.1.2,MacIntel,60,,,,,,,,,,,,,2,10.8529,,0,0,1,1,3,1,stimuli/stim_20210519_power2amp/equal_lnn_AM_training3.5Hz_s50.m4a,,,,,,,,,,,,,,,,
,,,,,41276,2021-06-05_18h02.34.004,judgeSpeechMusic_20210519_logNormShiftAmp_mXs,2020.1.2,MacIntel,60,,,,,,,,,,,,,1,8.0517,3,0,0,2,2,2,1,stimuli/stim_20210519_power2amp/equal_lnn_AM_training3.5Hz_s20.m4a,3.1899,,,,,,,,,,,,,,,
,,,,,41276,2021-06-05_18h02.34.004,judgeSpeechMusic_20210519_logNormShiftAmp_mXs,2020.1.2,MacIntel,60,,,,,,,,,,,,,1,11.3112,,0,0,3,3,0,1,stimuli/stim_20210519_power2amp/equal_lnn_AM_training1.5Hz_s20.m4a,,,,,,,,,,,,,,,,
,,,,,41276,2021-06-05_18h02.34.004,judgeSpeechMusic_20210519_logNormShiftAmp_mXs,2020.1.2,MacIntel,60,,,,,,,,,,,,,,,,,,,,,,,,space,6.5253,2,6.9755,,0,0,0,0,63,1,stimuli/stim_20210519_power2amp/equal_lnn_AM2.5Hz_s25_8.m4a,,,
,,,,,41276,2021-06-05_18h02.34.004,judgeSpeechMusic_20210519_logNormShiftAmp_mXs,2020.1.2,MacIntel,60,,,,,,,,,,,,,,,,,,,,,,,,,,1,6.1931,,0,0,1,1,103,1,stimuli/stim_20210519_power2amp/equal_lnn_AM4Hz_s15_48.m4a,,,
,,,,,41276,2021-06-05_18h02.34.004,judgeSpeechMusic_20210519_logNormShiftAmp_mXs,2020.1.2,MacIntel,60,,,,,,,,,,,,,,,,,,,,,,,,,,1,6.1198,,0,0,2,2,132,1,stimuli/stim_20210519_power2amp/equal_lnn_AM4Hz_s45_24.m4a,,,
,,,,,41276,2021-06-05_18h02.34.004,judgeSpeechMusic_20210519_logNormShiftAmp_mXs,2020.1.2,MacIntel,60,,,,,,,,,,,,,,,,,,,,,,,,,,2,7.8028,,0,0,3,3,81,1,stimuli/stim_20210519_power2amp/equal_lnn_AM2.5Hz_s45_9.m4a,,,
,,,,,41276,2021-06-05_18h02.34.004,judgeSpeechMusic_20210519_logNormShiftAmp_mXs,2020.1.2,MacIntel,60,,,,,,,,,,,,,,,,,,,,,,,,,,2,6.2676,,0,0,4,4,20,1,stimuli/stim_20210519_power2amp/equal_lnn_AM1Hz_s35_36.m4a,,,
,,,,,41276,2021-06-05_18h02.34.004,judgeSpeechMusic_20210519_logNormShiftAmp_mXs,2020.1.2,MacIntel,60,,,,,,,,,,,,,,,,,,,,,,,,,,1,6.6807,,0,0,5,5,27,1,stimuli/stim_20210519_power2amp/equal_lnn_AM1Hz_s35_6.m4a,,,
,,,,,41276,2021-06-05_18h02.34.004,judgeSpeechMusic_20210519_logNormShiftAmp_mXs,2020.1.2,MacIntel,60,,,,,,,,,,,,,,,,,,,,,,,,,,2,6.3703,,0,0,6,6,95,1,stimuli/stim_20210519_power2amp/equal_lnn_AM2.5Hz_s55_7.m4a,,,
,,,,,41276,2021-06-05_18h02.34.004,judgeSpeechMusic_20210519_logNormShiftAmp_mXs,2020.1.2,MacIntel,60,,,,,,,,,,,,,,,,,,,,,,,,,,2,6.5411,,0,0,7,7,113,1,stimuli/stim_20210519_power2amp/equal_lnn_AM4Hz_s25_8.m4a,,,
,,,,,41276,2021-06-05_18h02.34.004,judgeSpeechMusic_20210519_logNormShiftAmp_mXs,2020.1.2,MacIntel,60,,,,,,,,,,,,,,,,,,,,,,,,,,1,5.9391,,0,0,8,8,21,1,stimuli/stim_20210519_power2amp/equal_lnn_AM1Hz_s35_29.m4a,,,
,,,,,41276,2021-06-05_18h02.34.004,judgeSpeechMusic_20210519_logNormShiftAmp_mXs,2020.1.2,MacIntel,60,,,,,,,,,,,,,,,,,,,,,,,,,,2,5.9047,,0,0,9,9,53,1,stimuli/stim_20210519_power2amp/equal_lnn_AM2.5Hz_s15_46.m4a,,,
,,,,,41276,2021-06-05_18h02.34.004,judgeSpeechMusic_20210519_logNormShiftAmp_mXs,2020.1.2,MacIntel,60,,,,,,,,,,,,,,,,,,,,,,,,,,2,5.7144,,0,0,10,10,127,1,stimuli/stim_20210519_power2amp/equal_lnn_AM4Hz_s35_21.m4a,,,
,,,,,41276,2021-06-05_18h02.34.004,judgeSpeechMusic_20210519_logNormShiftAmp_mXs,2020.1.2,MacIntel,60,,,,,,,,,,,,,,,,,,,,,,,,,,2,7.4041,,0,0,11,11,138,1,stimuli/stim_20210519_power2amp/equal_lnn_AM4Hz_s45_39.m4a,,,
,,,,,41276,2021-06-05_18h02.34.004,judgeSpeechMusic_20210519_logNormShiftAmp_mXs,2020.1.2,MacIntel,60,,,,,,,,,,,,,,,,,,,,,,,,,,1,5.7376,,0,0,12,12,59,1,stimuli/stim_20210519_power2amp/equal_lnn_AM2.5Hz_s15_25.m4a,,,
,,,,,41276,2021-06-05_18h02.34.004,judgeSpeechMusic_20210519_logNormShiftAmp_mXs,2020.1.2,MacIntel,60,,,,,,,,,,,,,,,,,,,,,,,,,,2,5.827,,0,0,13,13,121,1,stimuli/stim_20210519_power2amp/equal_lnn_AM4Hz_s35_50.m4a,,,
,,,,,41276,2021-06-05_18h02.34.004,judgeSpeechMusic_20210519_logNormShiftAmp_mXs,2020.1.2,MacIntel,60,,,,,,,,,,,,,,,,,,,,,,,,,,2,5.895,,0,0,14,14,84,1,stimuli/stim_20210519_power2amp/equal_lnn_AM2.5Hz_s45_8.m4a,,,
,,,,,41276,2021-06-05_18h02.34.004,judgeSpeechMusic_20210519_logNormShiftAmp_mXs,2020.1.2,MacIntel,60,,,,,,,,,,,,,,,,,,,,,,,,,,1,5.9352,,0,0,15,15,79,1,stimuli/stim_20210519_power2amp/equal_lnn_AM2.5Hz_s35_4.m4a,,,
,,,,,41276,2021-06-05_18h02.34.004,judgeSpeechMusic_20210519_logNormShiftAmp_mXs,2020.1.2,MacIntel,60,,,,,,,,,,,,,,,,,,,,,,,,,,1,5.7528,,0,0,16,16,30,1,stimuli/stim_20210519_power2amp/equal_lnn_AM1Hz_s45_10.m4a,,,
,,,,,41276,2021-06-05_18h02.34.004,judgeSpeechMusic_20210519_logNormShiftAmp_mXs,2020.1.2,MacIntel,60,,,,,,,,,,,,,,,,,,,,,,,,,,2,6.2183,,0,0,17,17,111,1,stimuli/stim_20210519_power2amp/equal_lnn_AM4Hz_s25_40.m4a,,,
,,,,,41276,2021-06-05_18h02.34.004,judgeSpeechMusic_20210519_logNormShiftAmp_mXs,2020.1.2,MacIntel,60,,,,,,,,,,,,,,,,,,,,,,,,,,1,5.8024,,0,0,18,18,13,1,stimuli/stim_20210519_power2amp/equal_lnn_AM1Hz_s25_18.m4a,,,
,,,,,41276,2021-06-05_18h02.34.004,judgeSpeechMusic_20210519_logNormShiftAmp_mXs,2020.1.2,MacIntel,60,,,,,,,,,,,,,,,,,,,,,,,,,,1,5.7013,,0,0,19,19,33,1,stimuli/stim_20210519_power2amp/equal_lnn_AM1Hz_s45_30.m4a,,,
,,,,,41276,2021-06-05_18h02.34.004,judgeSpeechMusic_20210519_logNormShiftAmp_mXs,2020.1.2,MacIntel,60,,,,,,,,,,,,,,,,,,,,,,,,,,2,5.9398,,0,0,20,20,110,1,stimuli/stim_20210519_power2amp/equal_lnn_AM4Hz_s25_19.m4a,,,
,,,,,41276,2021-06-05_18h02.34.004,judgeSpeechMusic_20210519_logNormShiftAmp_mXs,2020.1.2,MacIntel,60,,,,,,,,,,,,,,,,,,,,,,,,,,2,5.6913,,0,0,21,21,133,1,stimuli/stim_20210519_power2amp/equal_lnn_AM4Hz_s45_47.m4a,,,
,,,,,41276,2021-06-05_18h02.34.004,judgeSpeechMusic_20210519_logNormShiftAmp_mXs,2020.1.2,MacIntel,60,,,,,,,,,,,,,,,,,,,,,,,,,,1,5.7214,,0,0,22,22,75,1,stimuli/stim_20210519_power2amp/equal_lnn_AM2.5Hz_s35_6.m4a,,,
,,,,,41276,2021-06-05_18h02.34.004,judgeSpeechMusic_20210519_logNormShiftAmp_mXs,2020.1.2,MacIntel,60,,,,,,,,,,,,,,,,,,,,,,,,,,1,5.8441,,0,0,23,23,37,1,stimuli/stim_20210519_power2amp/equal_lnn_AM1Hz_s45_7.m4a,,,
,,,,,41276,2021-06-05_18h02.34.004,judgeSpeechMusic_20210519_logNormShiftAmp_mXs,2020.1.2,MacIntel,60,,,,,,,,,,,,,,,,,,,,,,,,,,2,5.8785,,0,0,24,24,104,1,stimuli/stim_20210519_power2amp/equal_lnn_AM4Hz_s15_29.m4a,,,
,,,,,41276,2021-06-05_18h02.34.004,judgeSpeechMusic_20210519_logNormShiftAmp_mXs,2020.1.2,MacIntel,60,,,,,,,,,,,,,,,,,,,,,,,,,,1,5.7867,,0,0,25,25,4,1,stimuli/stim_20210519_power2amp/equal_lnn_AM1Hz_s15_27.m4a,,,
,,,,,41276,2021-06-05_18h02.34.004,judgeSpeechMusic_20210519_logNormShiftAmp_mXs,2020.1.2,MacIntel,60,,,,,,,,,,,,,,,,,,,,,,,,,,1,5.7046,,0,0,26,26,49,1,stimuli/stim_20210519_power2amp/equal_lnn_AM1Hz_s55_22.m4a,,,
,,,,,41276,2021-06-05_18h02.34.004,judgeSpeechMusic_20210519_logNormShiftAmp_mXs,2020.1.2,MacIntel,60,,,,,,,,,,,,,,,,,,,,,,,,,,1,5.8351,,0,0,27,27,8,1,stimuli/stim_20210519_power2amp/equal_lnn_AM1Hz_s15_44.m4a,,,
,,,,,41276,2021-06-05_18h02.34.004,judgeSpeechMusic_20210519_logNormShiftAmp_mXs,2020.1.2,MacIntel,60,,,,,,,,,,,,,,,,,,,,,,,,,,2,6.0614,,0,0,28,28,80,1,stimuli/stim_20210519_power2amp/equal_lnn_AM2.5Hz_s45_6.m4a,,,
,,,,,41276,2021-06-05_18h02.34.004,judgeSpeechMusic_20210519_logNormShiftAmp_mXs,2020.1.2,MacIntel,60,,,,,,,,,,,,,,,,,,,,,,,,,,1,5.7092,,0,0,29,29,28,1,stimuli/stim_20210519_power2amp/equal_lnn_AM1Hz_s35_44.m4a,,,
,,,,,41276,2021-06-05_18h02.34.004,judgeSpeechMusic_20210519_logNormShiftAmp_mXs,2020.1.2,MacIntel,60,,,,,,,,,,,,,,,,,,,,,,,,,,2,5.9919,,0,0,30,30,112,1,stimuli/stim_20210519_power2amp/equal_lnn_AM4Hz_s25_1.m4a,,,
,,,,,41276,2021-06-05_18h02.34.004,judgeSpeechMusic_20210519_logNormShiftAmp_mXs,2020.1.2,MacIntel,60,,,,,,,,,,,,,,,,,,,,,,,,,,1,5.7225,3,1,0,31,31,57,1,stimuli/stim_20210519_power2amp/equal_lnn_AM2.5Hz_s15_41.m4a,3.2541,,
,,,,,41276,2021-06-05_18h02.34.004,judgeSpeechMusic_20210519_logNormShiftAmp_mXs,2020.1.2,MacIntel,60,,,,,,,,,,,,,,,,,,,,,,,,,,1,5.9005,,0,0,32,32,61,1,stimuli/stim_20210519_power2amp/equal_lnn_AM2.5Hz_s25_33.m4a,,,
,,,,,41276,2021-06-05_18h02.34.004,judgeSpeechMusic_20210519_logNormShiftAmp_mXs,2020.1.2,MacIntel,60,,,,,,,,,,,,,,,,,,,,,,,,,,1,5.7218,,0,0,33,33,15,1,stimuli/stim_20210519_power2amp/equal_lnn_AM1Hz_s25_24.m4a,,,
,,,,,41276,2021-06-05_18h02.34.004,judgeSpeechMusic_20210519_logNormShiftAmp_mXs,2020.1.2,MacIntel,60,,,,,,,,,,,,,,,,,,,,,,,,,,2,5.9295,,0,0,34,34,70,1,stimuli/stim_20210519_power2amp/equal_lnn_AM2.5Hz_s35_10.m4a,,,
,,,,,41276,2021-06-05_18h02.34.004,judgeSpeechMusic_20210519_logNormShiftAmp_mXs,2020.1.2,MacIntel,60,,,,,,,,,,,,,,,,,,,,,,,,,,1,5.8101,,0,0,35,35,34,1,stimuli/stim_20210519_power2amp/equal_lnn_AM1Hz_s45_23.m4a,,,
,,,,,41276,2021-06-05_18h02.34.004,judgeSpeechMusic_20210519_logNormShiftAmp_mXs,2020.1.2,MacIntel,60,,,,,,,,,,,,,,,,,,,,,,,,,,2,5.9753,,0,0,36,36,73,1,stimuli/stim_20210519_power2amp/equal_lnn_AM2.5Hz_s35_3.m4a,,,
,,,,,41276,2021-06-05_18h02.34.004,judgeSpeechMusic_20210519_logNormShiftAmp_mXs,2020.1.2,MacIntel,60,,,,,,,,,,,,,,,,,,,,,,,,,,2,5.7856,,0,0,37,37,137,1,stimuli/stim_20210519_power2amp/equal_lnn_AM4Hz_s45_28.m4a,,,
,,,,,41276,2021-06-05_18h02.34.004,judgeSpeechMusic_20210519_logNormShiftAmp_mXs,2020.1.2,MacIntel,60,,,,,,,,,,,,,,,,,,,,,,,,,,2,5.7201,,0,0,38,38,124,1,stimuli/stim_20210519_power2amp/equal_lnn_AM4Hz_s35_9.m4a,,,
,,,,,41276,2021-06-05_18h02.34.004,judgeSpeechMusic_20210519_logNormShiftAmp_mXs,2020.1.2,MacIntel,60,,,,,,,,,,,,,,,,,,,,,,,,,,2,5.9442,,0,0,39,39,119,1,stimuli/stim_20210519_power2amp/equal_lnn_AM4Hz_s25_18.m4a,,,
,,,,,41276,2021-06-05_18h02.34.004,judgeSpeechMusic_20210519_logNormShiftAmp_mXs,2020.1.2,MacIntel,60,,,,,,,,,,,,,,,,,,,,,,,,,,2,5.7036,,0,0,40,40,141,1,stimuli/stim_20210519_power2amp/equal_lnn_AM4Hz_s55_28.m4a,,,
,,,,,41276,2021-06-05_18h02.34.004,judgeSpeechMusic_20210519_logNormShiftAmp_mXs,2020.1.2,MacIntel,60,,,,,,,,,,,,,,,,,,,,,,,,,,1,6.5122,,0,0,41,41,12,1,stimuli/stim_20210519_power2amp/equal_lnn_AM1Hz_s25_20.m4a,,,
,,,,,41276,2021-06-05_18h02.34.004,judgeSpeechMusic_20210519_logNormShiftAmp_mXs,2020.1.2,MacIntel,60,,,,,,,,,,,,,,,,,,,,,,,,,,2,6.7756,,0,0,42,42,71,1,stimuli/stim_20210519_power2amp/equal_lnn_AM2.5Hz_s35_16.m4a,,,
,,,,,41276,2021-06-05_18h02.34.004,judgeSpeechMusic_20210519_logNormShiftAmp_mXs,2020.1.2,MacIntel,60,,,,,,,,,,,,,,,,,,,,,,,,,,1,6.1709,,0,0,43,43,26,1,stimuli/stim_20210519_power2amp/equal_lnn_AM1Hz_s35_7.m4a,,,
,,,,,41276,2021-06-05_18h02.34.004,judgeSpeechMusic_20210519_logNormShiftAmp_mXs,2020.1.2,MacIntel,60,,,,,,,,,,,,,,,,,,,,,,,,,,2,5.7731,,0,0,44,44,100,1,stimuli/stim_20210519_power2amp/equal_lnn_AM4Hz_s15_27.m4a,,,
,,,,,41276,2021-06-05_18h02.34.004,judgeSpeechMusic_20210519_logNormShiftAmp_mXs,2020.1.2,MacIntel,60,,,,,,,,,,,,,,,,,,,,,,,,,,2,6.02,,0,0,45,45,87,1,stimuli/stim_20210519_power2amp/equal_lnn_AM2.5Hz_s45_42.m4a,,,
,,,,,41276,2021-06-05_18h02.34.004,judgeSpeechMusic_20210519_logNormShiftAmp_mXs,2020.1.2,MacIntel,60,,,,,,,,,,,,,,,,,,,,,,,,,,2,6.0873,,0,0,46,46,116,1,stimuli/stim_20210519_power2amp/equal_lnn_AM4Hz_s25_45.m4a,,,
,,,,,41276,2021-06-05_18h02.34.004,judgeSpeechMusic_20210519_logNormShiftAmp_mXs,2020.1.2,MacIntel,60,,,,,,,,,,,,,,,,,,,,,,,,,,2,5.9536,,0,0,47,47,88,1,stimuli/stim_20210519_power2amp/equal_lnn_AM2.5Hz_s45_1.m4a,,,
,,,,,41276,2021-06-05_18h02.34.004,judgeSpeechMusic_20210519_logNormShiftAmp_mXs,2020.1.2,MacIntel,60,,,,,,,,,,,,,,,,,,,,,,,,,,1,7.2565,,0,0,48,48,50,1,stimuli/stim_20210519_power2amp/equal_lnn_AM2.5Hz_s15_38.m4a,,,
,,,,,41276,2021-06-05_18h02.34.004,judgeSpeechMusic_20210519_logNormShiftAmp_mXs,2020.1.2,MacIntel,60,,,,,,,,,,,,,,,,,,,,,,,,,,2,8.9703,,0,0,49,49,74,1,stimuli/stim_20210519_power2amp/equal_lnn_AM2.5Hz_s35_28.m4a,,,
,,,,,41276,2021-06-05_18h02.34.004,judgeSpeechMusic_20210519_logNormShiftAmp_mXs,2020.1.2,MacIntel,60,,,,,,,,,,,,,,,,,,,,,,,,,,2,5.7791,,0,0,50,50,102,1,stimuli/stim_20210519_power2amp/equal_lnn_AM4Hz_s15_13.m4a,,,
,,,,,41276,2021-06-05_18h02.34.004,judgeSpeechMusic_20210519_logNormShiftAmp_mXs,2020.1.2,MacIntel,60,,,,,,,,,,,,,,,,,,,,,,,,,,1,5.9535,2,1,0,51,51,94,1,stimuli/stim_20210519_power2amp/equal_lnn_AM2.5Hz_s55_43.m4a,1.1414,,
,,,,,41276,2021-06-05_18h02.34.004,judgeSpeechMusic_20210519_logNormShiftAmp_mXs,2020.1.2,MacIntel,60,,,,,,,,,,,,,,,,,,,,,,,,,,1,5.6707,,0,0,52,52,48,1,stimuli/stim_20210519_power2amp/equal_lnn_AM1Hz_s55_45.m4a,,,
,,,,,41276,2021-06-05_18h02.34.004,judgeSpeechMusic_20210519_logNormShiftAmp_mXs,2020.1.2,MacIntel,60,,,,,,,,,,,,,,,,,,,,,,,,,,1,6.3574,,0,0,53,53,17,1,stimuli/stim_20210519_power2amp/equal_lnn_AM1Hz_s25_19.m4a,,,
,,,,,41276,2021-06-05_18h02.34.004,judgeSpeechMusic_20210519_logNormShiftAmp_mXs,2020.1.2,MacIntel,60,,,,,,,,,,,,,,,,,,,,,,,,,,1,6.2033,,0,0,54,54,51,1,stimuli/stim_20210519_power2amp/equal_lnn_AM2.5Hz_s15_12.m4a,,,
,,,,,41276,2021-06-05_18h02.34.004,judgeSpeechMusic_20210519_logNormShiftAmp_mXs,2020.1.2,MacIntel,60,,,,,,,,,,,,,,,,,,,,,,,,,,1,6.0299,,0,0,55,55,44,1,stimuli/stim_20210519_power2amp/equal_lnn_AM1Hz_s55_48.m4a,,,
,,,,,41276,2021-06-05_18h02.34.004,judgeSpeechMusic_20210519_logNormShiftAmp_mXs,2020.1.2,MacIntel,60,,,,,,,,,,,,,,,,,,,,,,,,,,2,5.7548,,0,0,56,56,128,1,stimuli/stim_20210519_power2amp/equal_lnn_AM4Hz_s35_22.m4a,,,
,,,,,41276,2021-06-05_18h02.34.004,judgeSpeechMusic_20210519_logNormShiftAmp_mXs,2020.1.2,MacIntel,60,,,,,,,,,,,,,,,,,,,,,,,,,,1,5.7715,,0,0,57,57,3,1,stimuli/stim_20210519_power2amp/equal_lnn_AM1Hz_s15_49.m4a,,,
,,,,,41276,2021-06-05_18h02.34.004,judgeSpeechMusic_20210519_logNormShiftAmp_mXs,2020.1.2,MacIntel,60,,,,,,,,,,,,,,,,,,,,,,,,,,1,6.4876,,0,0,58,58,60,1,stimuli/stim_20210519_power2amp/equal_lnn_AM2.5Hz_s25_48.m4a,,,
,,,,,41276,2021-06-05_18h02.34.004,judgeSpeechMusic_20210519_logNormShiftAmp_mXs,2020.1.2,MacIntel,60,,,,,,,,,,,,,,,,,,,,,,,,,,2,5.8692,,0,0,59,59,108,1,stimuli/stim_20210519_power2amp/equal_lnn_AM4Hz_s15_6.m4a,,,
,,,,,41276,2021-06-05_18h02.34.004,judgeSpeechMusic_20210519_logNormShiftAmp_mXs,2020.1.2,MacIntel,60,,,,,,,,,,,,,,,,,,,,,,,,,,2,6.3185,,0,0,60,60,91,1,stimuli/stim_20210519_power2amp/equal_lnn_AM2.5Hz_s55_2.m4a,,,
,,,,,41276,2021-06-05_18h02.34.004,judgeSpeechMusic_20210519_logNormShiftAmp_mXs,2020.1.2,MacIntel,60,,,,,,,,,,,,,,,,,,,,,,,,,,2,6.865,,0,0,61,61,147,1,stimuli/stim_20210519_power2amp/equal_lnn_AM4Hz_s55_8.m4a,,,
,,,,,41276,2021-06-05_18h02.34.004,judgeSpeechMusic_20210519_logNormShiftAmp_mXs,2020.1.2,MacIntel,60,,,,,,,,,,,,,,,,,,,,,,,,,,2,6.646,,0,0,62,62,131,1,stimuli/stim_20210519_power2amp/equal_lnn_AM4Hz_s45_17.m4a,,,
,,,,,41276,2021-06-05_18h02.34.004,judgeSpeechMusic_20210519_logNormShiftAmp_mXs,2020.1.2,MacIntel,60,,,,,,,,,,,,,,,,,,,,,,,,,,1,5.9248,,0,0,63,63,14,1,stimuli/stim_20210519_power2amp/equal_lnn_AM1Hz_s25_26.m4a,,,
,,,,,41276,2021-06-05_18h02.34.004,judgeSpeechMusic_20210519_logNormShiftAmp_mXs,2020.1.2,MacIntel,60,,,,,,,,,,,,,,,,,,,,,,,,,,2,6.4277,,0,0,64,64,117,1,stimuli/stim_20210519_power2amp/equal_lnn_AM4Hz_s25_32.m4a,,,
,,,,,41276,2021-06-05_18h02.34.004,judgeSpeechMusic_20210519_logNormShiftAmp_mXs,2020.1.2,MacIntel,60,,,,,,,,,,,,,,,,,,,,,,,,,,2,6.2436,,0,0,65,65,62,1,stimuli/stim_20210519_power2amp/equal_lnn_AM2.5Hz_s25_44.m4a,,,
,,,,,41276,2021-06-05_18h02.34.004,judgeSpeechMusic_20210519_logNormShiftAmp_mXs,2020.1.2,MacIntel,60,,,,,,,,,,,,,,,,,,,,,,,,,,2,6.0535,,0,0,66,66,89,1,stimuli/stim_20210519_power2amp/equal_lnn_AM2.5Hz_s45_21.m4a,,,
,,,,,41276,2021-06-05_18h02.34.004,judgeSpeechMusic_20210519_logNormShiftAmp_mXs,2020.1.2,MacIntel,60,,,,,,,,,,,,,,,,,,,,,,,,,,1,6.263,,0,0,67,67,41,1,stimuli/stim_20210519_power2amp/equal_lnn_AM1Hz_s55_11.m4a,,,
,,,,,41276,2021-06-05_18h02.34.004,judgeSpeechMusic_20210519_logNormShiftAmp_mXs,2020.1.2,MacIntel,60,,,,,,,,,,,,,,,,,,,,,,,,,,2,6.8545,,0,0,68,68,125,1,stimuli/stim_20210519_power2amp/equal_lnn_AM4Hz_s35_35.m4a,,,
,,,,,41276,2021-06-05_18h02.34.004,judgeSpeechMusic_20210519_logNormShiftAmp_mXs,2020.1.2,MacIntel,60,,,,,,,,,,,,,,,,,,,,,,,,,,1,6.1186,,0,0,69,69,0,1,stimuli/stim_20210519_power2amp/equal_lnn_AM1Hz_s15_15.m4a,,,
,,,,,41276,2021-06-05_18h02.34.004,judgeSpeechMusic_20210519_logNormShiftAmp_mXs,2020.1.2,MacIntel,60,,,,,,,,,,,,,,,,,,,,,,,,,,1,6.7673,,0,0,70,70,67,1,stimuli/stim_20210519_power2amp/equal_lnn_AM2.5Hz_s25_24.m4a,,,
,,,,,41276,2021-06-05_18h02.34.004,judgeSpeechMusic_20210519_logNormShiftAmp_mXs,2020.1.2,MacIntel,60,,,,,,,,,,,,,,,,,,,,,,,,,,1,6.5079,2,1,0,71,71,40,1,stimuli/stim_20210519_power2amp/equal_lnn_AM1Hz_s55_16.m4a,1.107,,
,,,,,41276,2021-06-05_18h02.34.004,judgeSpeechMusic_20210519_logNormShiftAmp_mXs,2020.1.2,MacIntel,60,,,,,,,,,,,,,,,,,,,,,,,,,,1,6.4069,,0,0,72,72,55,1,stimuli/stim_20210519_power2amp/equal_lnn_AM2.5Hz_s15_5.m4a,,,
,,,,,41276,2021-06-05_18h02.34.004,judgeSpeechMusic_20210519_logNormShiftAmp_mXs,2020.1.2,MacIntel,60,,,,,,,,,,,,,,,,,,,,,,,,,,1,6.3603,,0,0,73,73,99,1,stimuli/stim_20210519_power2amp/equal_lnn_AM2.5Hz_s55_13.m4a,,,
,,,,,41276,2021-06-05_18h02.34.004,judgeSpeechMusic_20210519_logNormShiftAmp_mXs,2020.1.2,MacIntel,60,,,,,,,,,,,,,,,,,,,,,,,,,,2,6.2278,,0,0,74,74,92,1,stimuli/stim_20210519_power2amp/equal_lnn_AM2.5Hz_s55_3.m4a,,,
,,,,,41276,2021-06-05_18h02.34.004,judgeSpeechMusic_20210519_logNormShiftAmp_mXs,2020.1.2,MacIntel,60,,,,,,,,,,,,,,,,,,,,,,,,,,2,6.1914,,0,0,75,75,69,1,stimuli/stim_20210519_power2amp/equal_lnn_AM2.5Hz_s25_18.m4a,,,
,,,,,41276,2021-06-05_18h02.34.004,judgeSpeechMusic_20210519_logNormShiftAmp_mXs,2020.1.2,MacIntel,60,,,,,,,,,,,,,,,,,,,,,,,,,,2,6.79,,0,0,76,76,129,1,stimuli/stim_20210519_power2amp/equal_lnn_AM4Hz_s35_20.m4a,,,
,,,,,41276,2021-06-05_18h02.34.004,judgeSpeechMusic_20210519_logNormShiftAmp_mXs,2020.1.2,MacIntel,60,,,,,,,,,,,,,,,,,,,,,,,,,,1,5.8934,,0,0,77,77,23,1,stimuli/stim_20210519_power2amp/equal_lnn_AM1Hz_s35_33.m4a,,,
,,,,,41276,2021-06-05_18h02.34.004,judgeSpeechMusic_20210519_logNormShiftAmp_mXs,2020.1.2,MacIntel,60,,,,,,,,,,,,,,,,,,,,,,,,,,1,6.3613,,0,0,78,78,1,1,stimuli/stim_20210519_power2amp/equal_lnn_AM1Hz_s15_46.m4a,,,
,,,,,41276,2021-06-05_18h02.34.004,judgeSpeechMusic_20210519_logNormShiftAmp_mXs,2020.1.2,MacIntel,60,,,,,,,,,,,,,,,,,,,,,,,,,,2,6.62,,0,0,79,79,101,1,stimuli/stim_20210519_power2amp/equal_lnn_AM4Hz_s15_11.m4a,,,
,,,,,41276,2021-06-05_18h02.34.004,judgeSpeechMusic_20210519_logNormShiftAmp_mXs,2020.1.2,MacIntel,60,,,,,,,,,,,,,,,,,,,,,,,,,,2,6.3018,,0,0,80,80,122,1,stimuli/stim_20210519_power2amp/equal_lnn_AM4Hz_s35_47.m4a,,,
,,,,,41276,2021-06-05_18h02.34.004,judgeSpeechMusic_20210519_logNormShiftAmp_mXs,2020.1.2,MacIntel,60,,,,,,,,,,,,,,,,,,,,,,,,,,2,7.0066,,0,0,81,81,106,1,stimuli/stim_20210519_power2amp/equal_lnn_AM4Hz_s15_30.m4a,,,
,,,,,41276,2021-06-05_18h02.34.004,judgeSpeechMusic_20210519_logNormShiftAmp_mXs,2020.1.2,MacIntel,60,,,,,,,,,,,,,,,,,,,,,,,,,,2,7.498,,0,0,82,82,45,1,stimuli/stim_20210519_power2amp/equal_lnn_AM1Hz_s55_28.m4a,,,
,,,,,41276,2021-06-05_18h02.34.004,judgeSpeechMusic_20210519_logNormShiftAmp_mXs,2020.1.2,MacIntel,60,,,,,,,,,,,,,,,,,,,,,,,,,,2,5.9471,,0,0,83,83,85,1,stimuli/stim_20210519_power2amp/equal_lnn_AM2.5Hz_s45_41.m4a,,,
,,,,,41276,2021-06-05_18h02.34.004,judgeSpeechMusic_20210519_logNormShiftAmp_mXs,2020.1.2,MacIntel,60,,,,,,,,,,,,,,,,,,,,,,,,,,1,5.7468,,0,0,84,84,16,1,stimuli/stim_20210519_power2amp/equal_lnn_AM1Hz_s25_9.m4a,,,
,,,,,41276,2021-06-05_18h02.34.004,judgeSpeechMusic_20210519_logNormShiftAmp_mXs,2020.1.2,MacIntel,60,,,,,,,,,,,,,,,,,,,,,,,,,,2,7.1607,,0,0,85,85,65,1,stimuli/stim_20210519_power2amp/equal_lnn_AM2.5Hz_s25_21.m4a,,,
,,,,,41276,2021-06-05_18h02.34.004,judgeSpeechMusic_20210519_logNormShiftAmp_mXs,2020.1.2,MacIntel,60,,,,,,,,,,,,,,,,,,,,,,,,,,1,6.5363,,0,0,86,86,39,1,stimuli/stim_20210519_power2amp/equal_lnn_AM1Hz_s45_5.m4a,,,
,,,,,41276,2021-06-05_18h02.34.004,judgeSpeechMusic_20210519_logNormShiftAmp_mXs,2020.1.2,MacIntel,60,,,,,,,,,,,,,,,,,,,,,,,,,,1,6.4051,,0,0,87,87,9,1,stimuli/stim_20210519_power2amp/equal_lnn_AM1Hz_s15_33.m4a,,,
,,,,,41276,2021-06-05_18h02.34.004,judgeSpeechMusic_20210519_logNormShiftAmp_mXs,2020.1.2,MacIntel,60,,,,,,,,,,,,,,,,,,,,,,,,,,1,6.2607,,0,0,88,88,43,1,stimuli/stim_20210519_power2amp/equal_lnn_AM1Hz_s55_4.m4a,,,
,,,,,41276,2021-06-05_18h02.34.004,judgeSpeechMusic_20210519_logNormShiftAmp_mXs,2020.1.2,MacIntel,60,,,,,,,,,,,,,,,,,,,,,,,,,,1,5.8579,,0,0,89,89,46,1,stimuli/stim_20210519_power2amp/equal_lnn_AM1Hz_s55_23.m4a,,,
,,,,,41276,2021-06-05_18h02.34.004,judgeSpeechMusic_20210519_logNormShiftAmp_mXs,2020.1.2,MacIntel,60,,,,,,,,,,,,,,,,,,,,,,,,,,1,6.3031,,0,0,90,90,32,1,stimuli/stim_20210519_power2amp/equal_lnn_AM1Hz_s45_50.m4a,,,
,,,,,41276,2021-06-05_18h02.34.004,judgeSpeechMusic_20210519_logNormShiftAmp_mXs,2020.1.2,MacIntel,60,,,,,,,,,,,,,,,,,,,,,,,,,,2,6.7214,4,1,0,91,91,115,1,stimuli/stim_20210519_power2amp/equal_lnn_AM4Hz_s25_50.m4a,1.1232,,
,,,,,41276,2021-06-05_18h02.34.004,judgeSpeechMusic_20210519_logNormShiftAmp_mXs,2020.1.2,MacIntel,60,,,,,,,,,,,,,,,,,,,,,,,,,,1,6.174,,0,0,92,92,2,1,stimuli/stim_20210519_power2amp/equal_lnn_AM1Hz_s15_2.m4a,,,
,,,,,41276,2021-06-05_18h02.34.004,judgeSpeechMusic_20210519_logNormShiftAmp_mXs,2020.1.2,MacIntel,60,,,,,,,,,,,,,,,,,,,,,,,,,,2,5.7479,,0,0,93,93,139,1,stimuli/stim_20210519_power2amp/equal_lnn_AM4Hz_s45_45.m4a,,,
,,,,,41276,2021-06-05_18h02.34.004,judgeSpeechMusic_20210519_logNormShiftAmp_mXs,2020.1.2,MacIntel,60,,,,,,,,,,,,,,,,,,,,,,,,,,2,6.1094,,0,0,94,94,96,1,stimuli/stim_20210519_power2amp/equal_lnn_AM2.5Hz_s55_18.m4a,,,
,,,,,41276,2021-06-05_18h02.34.004,judgeSpeechMusic_20210519_logNormShiftAmp_mXs,2020.1.2,MacIntel,60,,,,,,,,,,,,,,,,,,,,,,,,,,1,5.8617,,0,0,95,95,31,1,stimuli/stim_20210519_power2amp/equal_lnn_AM1Hz_s45_48.m4a,,,
,,,,,41276,2021-06-05_18h02.34.004,judgeSpeechMusic_20210519_logNormShiftAmp_mXs,2020.1.2,MacIntel,60,,,,,,,,,,,,,,,,,,,,,,,,,,2,6.1031,,0,0,96,96,143,1,stimuli/stim_20210519_power2amp/equal_lnn_AM4Hz_s55_41.m4a,,,
,,,,,41276,2021-06-05_18h02.34.004,judgeSpeechMusic_20210519_logNormShiftAmp_mXs,2020.1.2,MacIntel,60,,,,,,,,,,,,,,,,,,,,,,,,,,2,6.3233,,0,0,97,97,148,1,stimuli/stim_20210519_power2amp/equal_lnn_AM4Hz_s55_12.m4a,,,
,,,,,41276,2021-06-05_18h02.34.004,judgeSpeechMusic_20210519_logNormShiftAmp_mXs,2020.1.2,MacIntel,60,,,,,,,,,,,,,,,,,,,,,,,,,,2,6.4877,,0,0,98,98,98,1,stimuli/stim_20210519_power2amp/equal_lnn_AM2.5Hz_s55_44.m4a,,,
,,,,,41276,2021-06-05_18h02.34.004,judgeSpeechMusic_20210519_logNormShiftAmp_mXs,2020.1.2,MacIntel,60,,,,,,,,,,,,,,,,,,,,,,,,,,1,6.2543,,0,0,99,99,5,1,stimuli/stim_20210519_power2amp/equal_lnn_AM1Hz_s15_7.m4a,,,
,,,,,41276,2021-06-05_18h02.34.004,judgeSpeechMusic_20210519_logNormShiftAmp_mXs,2020.1.2,MacIntel,60,,,,,,,,,,,,,,,,,,,,,,,,,,2,8.6558,,0,0,100,100,90,1,stimuli/stim_20210519_power2amp/equal_lnn_AM2.5Hz_s55_26.m4a,,,
,,,,,41276,2021-06-05_18h02.34.004,judgeSpeechMusic_20210519_logNormShiftAmp_mXs,2020.1.2,MacIntel,60,,,,,,,,,,,,,,,,,,,,,,,,,,1,5.7559,,0,0,101,101,11,1,stimuli/stim_20210519_power2amp/equal_lnn_AM1Hz_s25_16.m4a,,,
,,,,,41276,2021-06-05_18h02.34.004,judgeSpeechMusic_20210519_logNormShiftAmp_mXs,2020.1.2,MacIntel,60,,,,,,,,,,,,,,,,,,,,,,,,,,2,6.2989,,0,0,102,102,136,1,stimuli/stim_20210519_power2amp/equal_lnn_AM4Hz_s45_29.m4a,,,
,,,,,41276,2021-06-05_18h02.34.004,judgeSpeechMusic_20210519_logNormShiftAmp_mXs,2020.1.2,MacIntel,60,,,,,,,,,,,,,,,,,,,,,,,,,,2,6.5549,,0,0,103,103,118,1,stimuli/stim_20210519_power2amp/equal_lnn_AM4Hz_s25_35.m4a,,,
,,,,,41276,2021-06-05_18h02.34.004,judgeSpeechMusic_20210519_logNormShiftAmp_mXs,2020.1.2,MacIntel,60,,,,,,,,,,,,,,,,,,,,,,,,,,2,7.5244,,0,0,104,104,142,1,stimuli/stim_20210519_power2amp/equal_lnn_AM4Hz_s55_4.m4a,,,
,,,,,41276,2021-06-05_18h02.34.004,judgeSpeechMusic_20210519_logNormShiftAmp_mXs,2020.1.2,MacIntel,60,,,,,,,,,,,,,,,,,,,,,,,,,,1,7.304,,0,0,105,105,72,1,stimuli/stim_20210519_power2amp/equal_lnn_AM2.5Hz_s35_36.m4a,,,
,,,,,41276,2021-06-05_18h02.34.004,judgeSpeechMusic_20210519_logNormShiftAmp_mXs,2020.1.2,MacIntel,60,,,,,,,,,,,,,,,,,,,,,,,,,,2,6.054,,0,0,106,106,120,1,stimuli/stim_20210519_power2amp/equal_lnn_AM4Hz_s35_13.m4a,,,
,,,,,41276,2021-06-05_18h02.34.004,judgeSpeechMusic_20210519_logNormShiftAmp_mXs,2020.1.2,MacIntel,60,,,,,,,,,,,,,,,,,,,,,,,,,,2,6.3354,,0,0,107,107,105,1,stimuli/stim_20210519_power2amp/equal_lnn_AM4Hz_s15_28.m4a,,,
,,,,,41276,2021-06-05_18h02.34.004,judgeSpeechMusic_20210519_logNormShiftAmp_mXs,2020.1.2,MacIntel,60,,,,,,,,,,,,,,,,,,,,,,,,,,1,6.2547,,0,0,108,108,29,1,stimuli/stim_20210519_power2amp/equal_lnn_AM1Hz_s35_25.m4a,,,
,,,,,41276,2021-06-05_18h02.34.004,judgeSpeechMusic_20210519_logNormShiftAmp_mXs,2020.1.2,MacIntel,60,,,,,,,,,,,,,,,,,,,,,,,,,,1,7.4291,,0,0,109,109,6,1,stimuli/stim_20210519_power2amp/equal_lnn_AM1Hz_s15_31.m4a,,,
,,,,,41276,2021-06-05_18h02.34.004,judgeSpeechMusic_20210519_logNormShiftAmp_mXs,2020.1.2,MacIntel,60,,,,,,,,,,,,,,,,,,,,,,,,,,1,6.3584,,0,0,110,110,7,1,stimuli/stim_20210519_power2amp/equal_lnn_AM1Hz_s15_6.m4a,,,
,,,,,41276,2021-06-05_18h02.34.004,judgeSpeechMusic_20210519_logNormShiftAmp_mXs,2020.1.2,MacIntel,60,,,,,,,,,,,,,,,,,,,,,,,,,,1,6.3378,,0,0,111,111,68,1,stimuli/stim_20210519_power2amp/equal_lnn_AM2.5Hz_s25_43.m4a,,,
,,,,,41276,2021-06-05_18h02.34.004,judgeSpeechMusic_20210519_logNormShiftAmp_mXs,2020.1.2,MacIntel,60,,,,,,,,,,,,,,,,,,,,,,,,,,1,6.3257,3,1,0,112,112,42,1,stimuli/stim_20210519_power2amp/equal_lnn_AM1Hz_s55_46.m4a,1.3579,,
,,,,,41276,2021-06-05_18h02.34.004,judgeSpeechMusic_20210519_logNormShiftAmp_mXs,2020.1.2,MacIntel,60,,,,,,,,,,,,,,,,,,,,,,,,,,2,6.4069,,0,0,113,113,146,1,stimuli/stim_20210519_power2amp/equal_lnn_AM4Hz_s55_19.m4a,,,
,,,,,41276,2021-06-05_18h02.34.004,judgeSpeechMusic_20210519_logNormShiftAmp_mXs,2020.1.2,MacIntel,60,,,,,,,,,,,,,,,,,,,,,,,,,,1,6.5302,,0,0,114,114,22,1,stimuli/stim_20210519_power2amp/equal_lnn_AM1Hz_s35_5.m4a,,,
,,,,,41276,2021-06-05_18h02.34.004,judgeSpeechMusic_20210519_logNormShiftAmp_mXs,2020.1.2,MacIntel,60,,,,,,,,,,,,,,,,,,,,,,,,,,2,6.4527,,0,0,115,115,145,1,stimuli/stim_20210519_power2amp/equal_lnn_AM4Hz_s55_34.m4a,,,
,,,,,41276,2021-06-05_18h02.34.004,judgeSpeechMusic_20210519_logNormShiftAmp_mXs,2020.1.2,MacIntel,60,,,,,,,,,,,,,,,,,,,,,,,,,,2,6.2749,,0,0,116,116,97,1,stimuli/stim_20210519_power2amp/equal_lnn_AM2.5Hz_s55_8.m4a,,,
,,,,,41276,2021-06-05_18h02.34.004,judgeSpeechMusic_20210519_logNormShiftAmp_mXs,2020.1.2,MacIntel,60,,,,,,,,,,,,,,,,,,,,,,,,,,2,6.1103,,0,0,117,117,64,1,stimuli/stim_20210519_power2amp/equal_lnn_AM2.5Hz_s25_16.m4a,,,
,,,,,41276,2021-06-05_18h02.34.004,judgeSpeechMusic_20210519_logNormShiftAmp_mXs,2020.1.2,MacIntel,60,,,,,,,,,,,,,,,,,,,,,,,,,,1,7.5116,,0,0,118,118,18,1,stimuli/stim_20210519_power2amp/equal_lnn_AM1Hz_s25_6.m4a,,,
,,,,,41276,2021-06-05_18h02.34.004,judgeSpeechMusic_20210519_logNormShiftAmp_mXs,2020.1.2,MacIntel,60,,,,,,,,,,,,,,,,,,,,,,,,,,1,6.1182,,0,0,119,119,36,1,stimuli/stim_20210519_power2amp/equal_lnn_AM1Hz_s45_12.m4a,,,
,,,,,41276,2021-06-05_18h02.34.004,judgeSpeechMusic_20210519_logNormShiftAmp_mXs,2020.1.2,MacIntel,60,,,,,,,,,,,,,,,,,,,,,,,,,,1,6.5804,,0,0,120,120,19,1,stimuli/stim_20210519_power2amp/equal_lnn_AM1Hz_s25_15.m4a,,,
,,,,,41276,2021-06-05_18h02.34.004,judgeSpeechMusic_20210519_logNormShiftAmp_mXs,2020.1.2,MacIntel,60,,,,,,,,,,,,,,,,,,,,,,,,,,2,6.4607,,0,0,121,121,109,1,stimuli/stim_20210519_power2amp/equal_lnn_AM4Hz_s15_43.m4a,,,
,,,,,41276,2021-06-05_18h02.34.004,judgeSpeechMusic_20210519_logNormShiftAmp_mXs,2020.1.2,MacIntel,60,,,,,,,,,,,,,,,,,,,,,,,,,,1,7.8012,,0,0,122,122,10,1,stimuli/stim_20210519_power2amp/equal_lnn_AM1Hz_s25_43.m4a,,,
,,,,,41276,2021-06-05_18h02.34.004,judgeSpeechMusic_20210519_logNormShiftAmp_mXs,2020.1.2,MacIntel,60,,,,,,,,,,,,,,,,,,,,,,,,,,2,6.26,,0,0,123,123,123,1,stimuli/stim_20210519_power2amp/equal_lnn_AM4Hz_s35_19.m4a,,,
,,,,,41276,2021-06-05_18h02.34.004,judgeSpeechMusic_20210519_logNormShiftAmp_mXs,2020.1.2,MacIntel,60,,,,,,,,,,,,,,,,,,,,,,,,,,2,9.3755,,0,0,124,124,130,1,stimuli/stim_20210519_power2amp/equal_lnn_AM4Hz_s45_44.m4a,,,
,,,,,41276,2021-06-05_18h02.34.004,judgeSpeechMusic_20210519_logNormShiftAmp_mXs,2020.1.2,MacIntel,60,,,,,,,,,,,,,,,,,,,,,,,,,,2,8.2949,,0,0,125,125,76,1,stimuli/stim_20210519_power2amp/equal_lnn_AM2.5Hz_s35_5.m4a,,,
,,,,,41276,2021-06-05_18h02.34.004,judgeSpeechMusic_20210519_logNormShiftAmp_mXs,2020.1.2,MacIntel,60,,,,,,,,,,,,,,,,,,,,,,,,,,1,5.9176,,0,0,126,126,77,1,stimuli/stim_20210519_power2amp/equal_lnn_AM2.5Hz_s35_50.m4a,,,
,,,,,41276,2021-06-05_18h02.34.004,judgeSpeechMusic_20210519_logNormShiftAmp_mXs,2020.1.2,MacIntel,60,,,,,,,,,,,,,,,,,,,,,,,,,,2,6.7055,,0,0,127,127,86,1,stimuli/stim_20210519_power2amp/equal_lnn_AM2.5Hz_s45_22.m4a,,,
,,,,,41276,2021-06-05_18h02.34.004,judgeSpeechMusic_20210519_logNormShiftAmp_mXs,2020.1.2,MacIntel,60,,,,,,,,,,,,,,,,,,,,,,,,,,2,6.2704,,0,0,128,128,126,1,stimuli/stim_20210519_power2amp/equal_lnn_AM4Hz_s35_23.m4a,,,
,,,,,41276,2021-06-05_18h02.34.004,judgeSpeechMusic_20210519_logNormShiftAmp_mXs,2020.1.2,MacIntel,60,,,,,,,,,,,,,,,,,,,,,,,,,,2,6.4953,,0,0,129,129,114,1,stimuli/stim_20210519_power2amp/equal_lnn_AM4Hz_s25_5.m4a,,,
,,,,,41276,2021-06-05_18h02.34.004,judgeSpeechMusic_20210519_logNormShiftAmp_mXs,2020.1.2,MacIntel,60,,,,,,,,,,,,,,,,,,,,,,,,,,2,5.8049,,0,0,130,130,149,1,stimuli/stim_20210519_power2amp/equal_lnn_AM4Hz_s55_48.m4a,,,
,,,,,41276,2021-06-05_18h02.34.004,judgeSpeechMusic_20210519_logNormShiftAmp_mXs,2020.1.2,MacIntel,60,,,,,,,,,,,,,,,,,,,,,,,,,,1,6.2902,,0,0,131,131,35,1,stimuli/stim_20210519_power2amp/equal_lnn_AM1Hz_s45_36.m4a,,,
,,,,,41276,2021-06-05_18h02.34.004,judgeSpeechMusic_20210519_logNormShiftAmp_mXs,2020.1.2,MacIntel,60,,,,,,,,,,,,,,,,,,,,,,,,,,1,9.5485,,0,0,132,132,78,1,stimuli/stim_20210519_power2amp/equal_lnn_AM2.5Hz_s35_33.m4a,,,
,,,,,41276,2021-06-05_18h02.34.004,judgeSpeechMusic_20210519_logNormShiftAmp_mXs,2020.1.2,MacIntel,60,,,,,,,,,,,,,,,,,,,,,,,,,,2,6.9699,,0,0,133,133,52,1,stimuli/stim_20210519_power2amp/equal_lnn_AM2.5Hz_s15_40.m4a,,,
,,,,,41276,2021-06-05_18h02.34.004,judgeSpeechMusic_20210519_logNormShiftAmp_mXs,2020.1.2,MacIntel,60,,,,,,,,,,,,,,,,,,,,,,,,,,2,6.7263,,0,0,134,134,83,1,stimuli/stim_20210519_power2amp/equal_lnn_AM2.5Hz_s45_20.m4a,,,
,,,,,41276,2021-06-05_18h02.34.004,judgeSpeechMusic_20210519_logNormShiftAmp_mXs,2020.1.2,MacIntel,60,,,,,,,,,,,,,,,,,,,,,,,,,,1,7.2627,2,1,0,135,135,38,1,stimuli/stim_20210519_power2amp/equal_lnn_AM1Hz_s45_45.m4a,0.5912,,
,,,,,41276,2021-06-05_18h02.34.004,judgeSpeechMusic_20210519_logNormShiftAmp_mXs,2020.1.2,MacIntel,60,,,,,,,,,,,,,,,,,,,,,,,,,,1,5.8802,,0,0,136,136,56,1,stimuli/stim_20210519_power2amp/equal_lnn_AM2.5Hz_s15_30.m4a,,,
,,,,,41276,2021-06-05_18h02.34.004,judgeSpeechMusic_20210519_logNormShiftAmp_mXs,2020.1.2,MacIntel,60,,,,,,,,,,,,,,,,,,,,,,,,,,1,6.0864,,0,0,137,137,47,1,stimuli/stim_20210519_power2amp/equal_lnn_AM1Hz_s55_10.m4a,,,
,,,,,41276,2021-06-05_18h02.34.004,judgeSpeechMusic_20210519_logNormShiftAmp_mXs,2020.1.2,MacIntel,60,,,,,,,,,,,,,,,,,,,,,,,,,,2,6.0737,,0,0,138,138,134,1,stimuli/stim_20210519_power2amp/equal_lnn_AM4Hz_s45_5.m4a,,,
,,,,,41276,2021-06-05_18h02.34.004,judgeSpeechMusic_20210519_logNormShiftAmp_mXs,2020.1.2,MacIntel,60,,,,,,,,,,,,,,,,,,,,,,,,,,2,6.4179,,0,0,139,139,144,1,stimuli/stim_20210519_power2amp/equal_lnn_AM4Hz_s55_30.m4a,,,
,,,,,41276,2021-06-05_18h02.34.004,judgeSpeechMusic_20210519_logNormShiftAmp_mXs,2020.1.2,MacIntel,60,,,,,,,,,,,,,,,,,,,,,,,,,,1,7.4538,,0,0,140,140,24,1,stimuli/stim_20210519_power2amp/equal_lnn_AM1Hz_s35_32.m4a,,,
,,,,,41276,2021-06-05_18h02.34.004,judgeSpeechMusic_20210519_logNormShiftAmp_mXs,2020.1.2,MacIntel,60,,,,,,,,,,,,,,,,,,,,,,,,,,2,5.9021,,0,0,141,141,93,1,stimuli/stim_20210519_power2amp/equal_lnn_AM2.5Hz_s55_24.m4a,,,
,,,,,41276,2021-06-05_18h02.34.004,judgeSpeechMusic_20210519_logNormShiftAmp_mXs,2020.1.2,MacIntel,60,,,,,,,,,,,,,,,,,,,,,,,,,,2,6.8958,,0,0,142,142,135,1,stimuli/stim_20210519_power2amp/equal_lnn_AM4Hz_s45_13.m4a,,,
,,,,,41276,2021-06-05_18h02.34.004,judgeSpeechMusic_20210519_logNormShiftAmp_mXs,2020.1.2,MacIntel,60,,,,,,,,,,,,,,,,,,,,,,,,,,1,6.1251,,0,0,143,143,82,1,stimuli/stim_20210519_power2amp/equal_lnn_AM2.5Hz_s45_13.m4a,,,
,,,,,41276,2021-06-05_18h02.34.004,judgeSpeechMusic_20210519_logNormShiftAmp_mXs,2020.1.2,MacIntel,60,,,,,,,,,,,,,,,,,,,,,,,,,,1,6.3231,,0,0,144,144,58,1,stimuli/stim_20210519_power2amp/equal_lnn_AM2.5Hz_s15_45.m4a,,,
,,,,,41276,2021-06-05_18h02.34.004,judgeSpeechMusic_20210519_logNormShiftAmp_mXs,2020.1.2,MacIntel,60,,,,,,,,,,,,,,,,,,,,,,,,,,1,6.2257,,0,0,145,145,25,1,stimuli/stim_20210519_power2amp/equal_lnn_AM1Hz_s35_35.m4a,,,
,,,,,41276,2021-06-05_18h02.34.004,judgeSpeechMusic_20210519_logNormShiftAmp_mXs,2020.1.2,MacIntel,60,,,,,,,,,,,,,,,,,,,,,,,,,,2,6.1292,,0,0,146,146,54,1,stimuli/stim_20210519_power2amp/equal_lnn_AM2.5Hz_s15_24.m4a,,,
,,,,,41276,2021-06-05_18h02.34.004,judgeSpeechMusic_20210519_logNormShiftAmp_mXs,2020.1.2,MacIntel,60,,,,,,,,,,,,,,,,,,,,,,,,,,2,10.6893,,0,0,147,147,140,1,stimuli/stim_20210519_power2amp/equal_lnn_AM4Hz_s55_18.m4a,,,
,,,,,41276,2021-06-05_18h02.34.004,judgeSpeechMusic_20210519_logNormShiftAmp_mXs,2020.1.2,MacIntel,60,,,,,,,,,,,,,,,,,,,,,,,,,,2,6.0548,,0,0,148,148,107,1,stimuli/stim_20210519_power2amp/equal_lnn_AM4Hz_s15_2.m4a,,,
,,,,,41276,2021-06-05_18h02.34.004,judgeSpeechMusic_20210519_logNormShiftAmp_mXs,2020.1.2,MacIntel,60,,,,,,,,,,,,,,,,,,,,,,,,,,2,6.6778,,0,0,149,149,66,1,stimuli/stim_20210519_power2amp/equal_lnn_AM2.5Hz_s25_26.m4a,,,
,,,,,41276,2021-06-05_18h02.34.004,judgeSpeechMusic_20210519_logNormShiftAmp_mXs,2020.1.2,MacIntel,60,,,,,,,,,,,,,,,,,,,,,,,,,,2,7.487,,0,1,0,150,110,1,stimuli/stim_20210519_power2amp/equal_lnn_AM4Hz_s25_19.m4a,,,
,,,,,41276,2021-06-05_18h02.34.004,judgeSpeechMusic_20210519_logNormShiftAmp_mXs,2020.1.2,MacIntel,60,,,,,,,,,,,,,,,,,,,,,,,,,,1,7.6614,,0,1,1,151,34,1,stimuli/stim_20210519_power2amp/equal_lnn_AM1Hz_s45_23.m4a,,,
,,,,,41276,2021-06-05_18h02.34.004,judgeSpeechMusic_20210519_logNormShiftAmp_mXs,2020.1.2,MacIntel,60,,,,,,,,,,,,,,,,,,,,,,,,,,2,7.5986,,0,1,2,152,134,1,stimuli/stim_20210519_power2amp/equal_lnn_AM4Hz_s45_5.m4a,,,
,,,,,41276,2021-06-05_18h02.34.004,judgeSpeechMusic_20210519_logNormShiftAmp_mXs,2020.1.2,MacIntel,60,,,,,,,,,,,,,,,,,,,,,,,,,,1,7.6519,,0,1,3,153,31,1,stimuli/stim_20210519_power2amp/equal_lnn_AM1Hz_s45_48.m4a,,,
,,,,,41276,2021-06-05_18h02.34.004,judgeSpeechMusic_20210519_logNormShiftAmp_mXs,2020.1.2,MacIntel,60,,,,,,,,,,,,,,,,,,,,,,,,,,2,8.2576,,0,1,4,154,52,1,stimuli/stim_20210519_power2amp/equal_lnn_AM2.5Hz_s15_40.m4a,,,
,,,,,41276,2021-06-05_18h02.34.004,judgeSpeechMusic_20210519_logNormShiftAmp_mXs,2020.1.2,MacIntel,60,,,,,,,,,,,,,,,,,,,,,,,,,,2,5.9202,,0,1,5,155,127,1,stimuli/stim_20210519_power2amp/equal_lnn_AM4Hz_s35_21.m4a,,,
,,,,,41276,2021-06-05_18h02.34.004,judgeSpeechMusic_20210519_logNormShiftAmp_mXs,2020.1.2,MacIntel,60,,,,,,,,,,,,,,,,,,,,,,,,,,2,9.3178,,0,1,6,156,59,1,stimuli/stim_20210519_power2amp/equal_lnn_AM2.5Hz_s15_25.m4a,,,
,,,,,41276,2021-06-05_18h02.34.004,judgeSpeechMusic_20210519_logNormShiftAmp_mXs,2020.1.2,MacIntel,60,,,,,,,,,,,,,,,,,,,,,,,,,,1,8.7877,,0,1,7,157,18,1,stimuli/stim_20210519_power2amp/equal_lnn_AM1Hz_s25_6.m4a,,,
,,,,,41276,2021-06-05_18h02.34.004,judgeSpeechMusic_20210519_logNormShiftAmp_mXs,2020.1.2,MacIntel,60,,,,,,,,,,,,,,,,,,,,,,,,,,2,10.0114,,0,1,8,158,94,1,stimuli/stim_20210519_power2amp/equal_lnn_AM2.5Hz_s55_43.m4a,,,
,,,,,41276,2021-06-05_18h02.34.004,judgeSpeechMusic_20210519_logNormShiftAmp_mXs,2020.1.2,MacIntel,60,,,,,,,,,,,,,,,,,,,,,,,,,,1,6.3244,,0,1,9,159,15,1,stimuli/stim_20210519_power2amp/equal_lnn_AM1Hz_s25_24.m4a,,,
,,,,,41276,2021-06-05_18h02.34.004,judgeSpeechMusic_20210519_logNormShiftAmp_mXs,2020.1.2,MacIntel,60,,,,,,,,,,,,,,,,,,,,,,,,,,2,6.569,3,1,1,10,160,124,1,stimuli/stim_20210519_power2amp/equal_lnn_AM4Hz_s35_9.m4a,1.123,,
,,,,,41276,2021-06-05_18h02.34.004,judgeSpeechMusic_20210519_logNormShiftAmp_mXs,2020.1.2,MacIntel,60,,,,,,,,,,,,,,,,,,,,,,,,,,2,6.7558,,0,1,11,161,113,1,stimuli/stim_20210519_power2amp/equal_lnn_AM4Hz_s25_8.m4a,,,
,,,,,41276,2021-06-05_18h02.34.004,judgeSpeechMusic_20210519_logNormShiftAmp_mXs,2020.1.2,MacIntel,60,,,,,,,,,,,,,,,,,,,,,,,,,,1,6.8369,,0,1,12,162,40,1,stimuli/stim_20210519_power2amp/equal_lnn_AM1Hz_s55_16.m4a,,,
,,,,,41276,2021-06-05_18h02.34.004,judgeSpeechMusic_20210519_logNormShiftAmp_mXs,2020.1.2,MacIntel,60,,,,,,,,,,,,,,,,,,,,,,,,,,2,6.5047,,0,1,13,163,139,1,stimuli/stim_20210519_power2amp/equal_lnn_AM4Hz_s45_45.m4a,,,
,,,,,41276,2021-06-05_18h02.34.004,judgeSpeechMusic_20210519_logNormShiftAmp_mXs,2020.1.2,MacIntel,60,,,,,,,,,,,,,,,,,,,,,,,,,,1,7.6975,,0,1,14,164,14,1,stimuli/stim_20210519_power2amp/equal_lnn_AM1Hz_s25_26.m4a,,,
,,,,,41276,2021-06-05_18h02.34.004,judgeSpeechMusic_20210519_logNormShiftAmp_mXs,2020.1.2,MacIntel,60,,,,,,,,,,,,,,,,,,,,,,,,,,1,6.9596,,0,1,15,165,6,1,stimuli/stim_20210519_power2amp/equal_lnn_AM1Hz_s15_31.m4a,,,
,,,,,41276,2021-06-05_18h02.34.004,judgeSpeechMusic_20210519_logNormShiftAmp_mXs,2020.1.2,MacIntel,60,,,,,,,,,,,,,,,,,,,,,,,,,,2,6.954,,0,1,16,166,65,1,stimuli/stim_20210519_power2amp/equal_lnn_AM2.5Hz_s25_21.m4a,,,
,,,,,41276,2021-06-05_18h02.34.004,judgeSpeechMusic_20210519_logNormShiftAmp_mXs,2020.1.2,MacIntel,60,,,,,,,,,,,,,,,,,,,,,,,,,,2,6.3906,,0,1,17,167,126,1,stimuli/stim_20210519_power2amp/equal_lnn_AM4Hz_s35_23.m4a,,,
,,,,,41276,2021-06-05_18h02.34.004,judgeSpeechMusic_20210519_logNormShiftAmp_mXs,2020.1.2,MacIntel,60,,,,,,,,,,,,,,,,,,,,,,,,,,2,10.9701,,0,1,18,168,13,1,stimuli/stim_20210519_power2amp/equal_lnn_AM1Hz_s25_18.m4a,,,
,,,,,41276,2021-06-05_18h02.34.004,judgeSpeechMusic_20210519_logNormShiftAmp_mXs,2020.1.2,MacIntel,60,,,,,,,,,,,,,,,,,,,,,,,,,,2,7.5456,,0,1,19,169,118,1,stimuli/stim_20210519_power2amp/equal_lnn_AM4Hz_s25_35.m4a,,,
,,,,,41276,2021-06-05_18h02.34.004,judgeSpeechMusic_20210519_logNormShiftAmp_mXs,2020.1.2,MacIntel,60,,,,,,,,,,,,,,,,,,,,,,,,,,1,8.9233,,0,1,20,170,45,1,stimuli/stim_20210519_power2amp/equal_lnn_AM1Hz_s55_28.m4a,,,
,,,,,41276,2021-06-05_18h02.34.004,judgeSpeechMusic_20210519_logNormShiftAmp_mXs,2020.1.2,MacIntel,60,,,,,,,,,,,,,,,,,,,,,,,,,,2,5.7064,,0,1,21,171,88,1,stimuli/stim_20210519_power2amp/equal_lnn_AM2.5Hz_s45_1.m4a,,,
,,,,,41276,2021-06-05_18h02.34.004,judgeSpeechMusic_20210519_logNormShiftAmp_mXs,2020.1.2,MacIntel,60,,,,,,,,,,,,,,,,,,,,,,,,,,2,5.7563,,0,1,22,172,81,1,stimuli/stim_20210519_power2amp/equal_lnn_AM2.5Hz_s45_9.m4a,,,
,,,,,41276,2021-06-05_18h02.34.004,judgeSpeechMusic_20210519_logNormShiftAmp_mXs,2020.1.2,MacIntel,60,,,,,,,,,,,,,,,,,,,,,,,,,,1,5.7101,,0,1,23,173,27,1,stimuli/stim_20210519_power2amp/equal_lnn_AM1Hz_s35_6.m4a,,,
,,,,,41276,2021-06-05_18h02.34.004,judgeSpeechMusic_20210519_logNormShiftAmp_mXs,2020.1.2,MacIntel,60,,,,,,,,,,,,,,,,,,,,,,,,,,1,5.7094,,0,1,24,174,57,1,stimuli/stim_20210519_power2amp/equal_lnn_AM2.5Hz_s15_41.m4a,,,
,,,,,41276,2021-06-05_18h02.34.004,judgeSpeechMusic_20210519_logNormShiftAmp_mXs,2020.1.2,MacIntel,60,,,,,,,,,,,,,,,,,,,,,,,,,,1,6.7225,,0,1,25,175,11,1,stimuli/stim_20210519_power2amp/equal_lnn_AM1Hz_s25_16.m4a,,,
,,,,,41276,2021-06-05_18h02.34.004,judgeSpeechMusic_20210519_logNormShiftAmp_mXs,2020.1.2,MacIntel,60,,,,,,,,,,,,,,,,,,,,,,,,,,1,5.7879,,0,1,26,176,99,1,stimuli/stim_20210519_power2amp/equal_lnn_AM2.5Hz_s55_13.m4a,,,
,,,,,41276,2021-06-05_18h02.34.004,judgeSpeechMusic_20210519_logNormShiftAmp_mXs,2020.1.2,MacIntel,60,,,,,,,,,,,,,,,,,,,,,,,,,,2,7.3537,,0,1,27,177,67,1,stimuli/stim_20210519_power2amp/equal_lnn_AM2.5Hz_s25_24.m4a,,,
,,,,,41276,2021-06-05_18h02.34.004,judgeSpeechMusic_20210519_logNormShiftAmp_mXs,2020.1.2,MacIntel,60,,,,,,,,,,,,,,,,,,,,,,,,,,2,6.4039,,0,1,28,178,71,1,stimuli/stim_20210519_power2amp/equal_lnn_AM2.5Hz_s35_16.m4a,,,
,,,,,41276,2021-06-05_18h02.34.004,judgeSpeechMusic_20210519_logNormShiftAmp_mXs,2020.1.2,MacIntel,60,,,,,,,,,,,,,,,,,,,,,,,,,,2,6.5757,,0,1,29,179,114,1,stimuli/stim_20210519_power2amp/equal_lnn_AM4Hz_s25_5.m4a,,,
,,,,,41276,2021-06-05_18h02.34.004,judgeSpeechMusic_20210519_logNormShiftAmp_mXs,2020.1.2,MacIntel,60,,,,,,,,,,,,,,,,,,,,,,,,,,2,6.3792,,0,1,30,180,73,1,stimuli/stim_20210519_power2amp/equal_lnn_AM2.5Hz_s35_3.m4a,,,
,,,,,41276,2021-06-05_18h02.34.004,judgeSpeechMusic_20210519_logNormShiftAmp_mXs,2020.1.2,MacIntel,60,,,,,,,,,,,,,,,,,,,,,,,,,,2,6.2324,,0,1,31,181,107,1,stimuli/stim_20210519_power2amp/equal_lnn_AM4Hz_s15_2.m4a,,,
,,,,,41276,2021-06-05_18h02.34.004,judgeSpeechMusic_20210519_logNormShiftAmp_mXs,2020.1.2,MacIntel,60,,,,,,,,,,,,,,,,,,,,,,,,,,2,5.8827,,0,1,32,182,135,1,stimuli/stim_20210519_power2amp/equal_lnn_AM4Hz_s45_13.m4a,,,
,,,,,41276,2021-06-05_18h02.34.004,judgeSpeechMusic_20210519_logNormShiftAmp_mXs,2020.1.2,MacIntel,60,,,,,,,,,,,,,,,,,,,,,,,,,,2,7.6429,,0,1,33,183,144,1,stimuli/stim_20210519_power2amp/equal_lnn_AM4Hz_s55_30.m4a,,,
,,,,,41276,2021-06-05_18h02.34.004,judgeSpeechMusic_20210519_logNormShiftAmp_mXs,2020.1.2,MacIntel,60,,,,,,,,,,,,,,,,,,,,,,,,,,1,7.1973,,0,1,34,184,30,1,stimuli/stim_20210519_power2amp/equal_lnn_AM1Hz_s45_10.m4a,,,
,,,,,41276,2021-06-05_18h02.34.004,judgeSpeechMusic_20210519_logNormShiftAmp_mXs,2020.1.2,MacIntel,60,,,,,,,,,,,,,,,,,,,,,,,,,,2,6.6609,4,1,1,35,185,100,1,stimuli/stim_20210519_power2amp/equal_lnn_AM4Hz_s15_27.m4a,3.9876,,
,,,,,41276,2021-06-05_18h02.34.004,judgeSpeechMusic_20210519_logNormShiftAmp_mXs,2020.1.2,MacIntel,60,,,,,,,,,,,,,,,,,,,,,,,,,,1,7.0621,,0,1,36,186,43,1,stimuli/stim_20210519_power2amp/equal_lnn_AM1Hz_s55_4.m4a,,,
,,,,,41276,2021-06-05_18h02.34.004,judgeSpeechMusic_20210519_logNormShiftAmp_mXs,2020.1.2,MacIntel,60,,,,,,,,,,,,,,,,,,,,,,,,,,2,5.8678,,0,1,37,187,62,1,stimuli/stim_20210519_power2amp/equal_lnn_AM2.5Hz_s25_44.m4a,,,
,,,,,41276,2021-06-05_18h02.34.004,judgeSpeechMusic_20210519_logNormShiftAmp_mXs,2020.1.2,MacIntel,60,,,,,,,,,,,,,,,,,,,,,,,,,,2,6.8621,,0,1,38,188,98,1,stimuli/stim_20210519_power2amp/equal_lnn_AM2.5Hz_s55_44.m4a,,,
,,,,,41276,2021-06-05_18h02.34.004,judgeSpeechMusic_20210519_logNormShiftAmp_mXs,2020.1.2,MacIntel,60,,,,,,,,,,,,,,,,,,,,,,,,,,2,6.4049,,0,1,39,189,119,1,stimuli/stim_20210519_power2amp/equal_lnn_AM4Hz_s25_18.m4a,,,
,,,,,41276,2021-06-05_18h02.34.004,judgeSpeechMusic_20210519_logNormShiftAmp_mXs,2020.1.2,MacIntel,60,,,,,,,,,,,,,,,,,,,,,,,,,,2,6.3744,,0,1,40,190,76,1,stimuli/stim_20210519_power2amp/equal_lnn_AM2.5Hz_s35_5.m4a,,,
,,,,,41276,2021-06-05_18h02.34.004,judgeSpeechMusic_20210519_logNormShiftAmp_mXs,2020.1.2,MacIntel,60,,,,,,,,,,,,,,,,,,,,,,,,,,1,5.7108,,0,1,41,191,7,1,stimuli/stim_20210519_power2amp/equal_lnn_AM1Hz_s15_6.m4a,,,
,,,,,41276,2021-06-05_18h02.34.004,judgeSpeechMusic_20210519_logNormShiftAmp_mXs,2020.1.2,MacIntel,60,,,,,,,,,,,,,,,,,,,,,,,,,,2,6.944,,0,1,42,192,122,1,stimuli/stim_20210519_power2amp/equal_lnn_AM4Hz_s35_47.m4a,,,
,,,,,41276,2021-06-05_18h02.34.004,judgeSpeechMusic_20210519_logNormShiftAmp_mXs,2020.1.2,MacIntel,60,,,,,,,,,,,,,,,,,,,,,,,,,,2,5.7371,,0,1,43,193,148,1,stimuli/stim_20210519_power2amp/equal_lnn_AM4Hz_s55_12.m4a,,,
,,,,,41276,2021-06-05_18h02.34.004,judgeSpeechMusic_20210519_logNormShiftAmp_mXs,2020.1.2,MacIntel,60,,,,,,,,,,,,,,,,,,,,,,,,,,2,6.5786,,0,1,44,194,140,1,stimuli/stim_20210519_power2amp/equal_lnn_AM4Hz_s55_18.m4a,,,
,,,,,41276,2021-06-05_18h02.34.004,judgeSpeechMusic_20210519_logNormShiftAmp_mXs,2020.1.2,MacIntel,60,,,,,,,,,,,,,,,,,,,,,,,,,,2,5.8161,,0,1,45,195,61,1,stimuli/stim_20210519_power2amp/equal_lnn_AM2.5Hz_s25_33.m4a,,,
,,,,,41276,2021-06-05_18h02.34.004,judgeSpeechMusic_20210519_logNormShiftAmp_mXs,2020.1.2,MacIntel,60,,,,,,,,,,,,,,,,,,,,,,,,,,1,9.019,,0,1,46,196,23,1,stimuli/stim_20210519_power2amp/equal_lnn_AM1Hz_s35_33.m4a,,,
,,,,,41276,2021-06-05_18h02.34.004,judgeSpeechMusic_20210519_logNormShiftAmp_mXs,2020.1.2,MacIntel,60,,,,,,,,,,,,,,,,,,,,,,,,,,1,5.9215,,0,1,47,197,26,1,stimuli/stim_20210519_power2amp/equal_lnn_AM1Hz_s35_7.m4a,,,
,,,,,41276,2021-06-05_18h02.34.004,judgeSpeechMusic_20210519_logNormShiftAmp_mXs,2020.1.2,MacIntel,60,,,,,,,,,,,,,,,,,,,,,,,,,,2,5.7255,,0,1,48,198,131,1,stimuli/stim_20210519_power2amp/equal_lnn_AM4Hz_s45_17.m4a,,,
,,,,,41276,2021-06-05_18h02.34.004,judgeSpeechMusic_20210519_logNormShiftAmp_mXs,2020.1.2,MacIntel,60,,,,,,,,,,,,,,,,,,,,,,,,,,1,5.7879,,0,1,49,199,112,1,stimuli/stim_20210519_power2amp/equal_lnn_AM4Hz_s25_1.m4a,,,
,,,,,41276,2021-06-05_18h02.34.004,judgeSpeechMusic_20210519_logNormShiftAmp_mXs,2020.1.2,MacIntel,60,,,,,,,,,,,,,,,,,,,,,,,,,,1,6.0114,,0,1,50,200,17,1,stimuli/stim_20210519_power2amp/equal_lnn_AM1Hz_s25_19.m4a,,,
,,,,,41276,2021-06-05_18h02.34.004,judgeSpeechMusic_20210519_logNormShiftAmp_mXs,2020.1.2,MacIntel,60,,,,,,,,,,,,,,,,,,,,,,,,,,2,6.1543,,0,1,51,201,108,1,stimuli/stim_20210519_power2amp/equal_lnn_AM4Hz_s15_6.m4a,,,
,,,,,41276,2021-06-05_18h02.34.004,judgeSpeechMusic_20210519_logNormShiftAmp_mXs,2020.1.2,MacIntel,60,,,,,,,,,,,,,,,,,,,,,,,,,,1,7.9562,,0,1,52,202,16,1,stimuli/stim_20210519_power2amp/equal_lnn_AM1Hz_s25_9.m4a,,,
,,,,,41276,2021-06-05_18h02.34.004,judgeSpeechMusic_20210519_logNormShiftAmp_mXs,2020.1.2,MacIntel,60,,,,,,,,,,,,,,,,,,,,,,,,,,1,7.6556,,0,1,53,203,48,1,stimuli/stim_20210519_power2amp/equal_lnn_AM1Hz_s55_45.m4a,,,
,,,,,41276,2021-06-05_18h02.34.004,judgeSpeechMusic_20210519_logNormShiftAmp_mXs,2020.1.2,MacIntel,60,,,,,,,,,,,,,,,,,,,,,,,,,,1,5.8013,,0,1,54,204,47,1,stimuli/stim_20210519_power2amp/equal_lnn_AM1Hz_s55_10.m4a,,,
,,,,,41276,2021-06-05_18h02.34.004,judgeSpeechMusic_20210519_logNormShiftAmp_mXs,2020.1.2,MacIntel,60,,,,,,,,,,,,,,,,,,,,,,,,,,2,7.0357,,0,1,55,205,138,1,stimuli/stim_20210519_power2amp/equal_lnn_AM4Hz_s45_39.m4a,,,
,,,,,41276,2021-06-05_18h02.34.004,judgeSpeechMusic_20210519_logNormShiftAmp_mXs,2020.1.2,MacIntel,60,,,,,,,,,,,,,,,,,,,,,,,,,,2,5.9875,,0,1,56,206,104,1,stimuli/stim_20210519_power2amp/equal_lnn_AM4Hz_s15_29.m4a,,,
,,,,,41276,2021-06-05_18h02.34.004,judgeSpeechMusic_20210519_logNormShiftAmp_mXs,2020.1.2,MacIntel,60,,,,,,,,,,,,,,,,,,,,,,,,,,2,6.6774,1,1,1,57,207,90,1,stimuli/stim_20210519_power2amp/equal_lnn_AM2.5Hz_s55_26.m4a,1.2077,,
,,,,,41276,2021-06-05_18h02.34.004,judgeSpeechMusic_20210519_logNormShiftAmp_mXs,2020.1.2,MacIntel,60,,,,,,,,,,,,,,,,,,,,,,,,,,1,7.352,,0,1,58,208,5,1,stimuli/stim_20210519_power2amp/equal_lnn_AM1Hz_s15_7.m4a,,,
,,,,,41276,2021-06-05_18h02.34.004,judgeSpeechMusic_20210519_logNormShiftAmp_mXs,2020.1.2,MacIntel,60,,,,,,,,,,,,,,,,,,,,,,,,,,1,6.0395,,0,1,59,209,1,1,stimuli/stim_20210519_power2amp/equal_lnn_AM1Hz_s15_46.m4a,,,
,,,,,41276,2021-06-05_18h02.34.004,judgeSpeechMusic_20210519_logNormShiftAmp_mXs,2020.1.2,MacIntel,60,,,,,,,,,,,,,,,,,,,,,,,,,,2,6.4879,,0,1,60,210,95,1,stimuli/stim_20210519_power2amp/equal_lnn_AM2.5Hz_s55_7.m4a,,,
,,,,,41276,2021-06-05_18h02.34.004,judgeSpeechMusic_20210519_logNormShiftAmp_mXs,2020.1.2,MacIntel,60,,,,,,,,,,,,,,,,,,,,,,,,,,2,5.7249,,0,1,61,211,141,1,stimuli/stim_20210519_power2amp/equal_lnn_AM4Hz_s55_28.m4a,,,
,,,,,41276,2021-06-05_18h02.34.004,judgeSpeechMusic_20210519_logNormShiftAmp_mXs,2020.1.2,MacIntel,60,,,,,,,,,,,,,,,,,,,,,,,,,,1,5.8388,,0,1,62,212,25,1,stimuli/stim_20210519_power2amp/equal_lnn_AM1Hz_s35_35.m4a,,,
,,,,,41276,2021-06-05_18h02.34.004,judgeSpeechMusic_20210519_logNormShiftAmp_mXs,2020.1.2,MacIntel,60,,,,,,,,,,,,,,,,,,,,,,,,,,1,5.9436,,0,1,63,213,46,1,stimuli/stim_20210519_power2amp/equal_lnn_AM1Hz_s55_23.m4a,,,
,,,,,41276,2021-06-05_18h02.34.004,judgeSpeechMusic_20210519_logNormShiftAmp_mXs,2020.1.2,MacIntel,60,,,,,,,,,,,,,,,,,,,,,,,,,,2,6.8998,,0,1,64,214,149,1,stimuli/stim_20210519_power2amp/equal_lnn_AM4Hz_s55_48.m4a,,,
,,,,,41276,2021-06-05_18h02.34.004,judgeSpeechMusic_20210519_logNormShiftAmp_mXs,2020.1.2,MacIntel,60,,,,,,,,,,,,,,,,,,,,,,,,,,2,6.4065,,0,1,65,215,111,1,stimuli/stim_20210519_power2amp/equal_lnn_AM4Hz_s25_40.m4a,,,
,,,,,41276,2021-06-05_18h02.34.004,judgeSpeechMusic_20210519_logNormShiftAmp_mXs,2020.1.2,MacIntel,60,,,,,,,,,,,,,,,,,,,,,,,,,,2,6.3314,,0,1,66,216,68,1,stimuli/stim_20210519_power2amp/equal_lnn_AM2.5Hz_s25_43.m4a,,,
,,,,,41276,2021-06-05_18h02.34.004,judgeSpeechMusic_20210519_logNormShiftAmp_mXs,2020.1.2,MacIntel,60,,,,,,,,,,,,,,,,,,,,,,,,,,2,5.7198,,0,1,67,217,105,1,stimuli/stim_20210519_power2amp/equal_lnn_AM4Hz_s15_28.m4a,,,
,,,,,41276,2021-06-05_18h02.34.004,judgeSpeechMusic_20210519_logNormShiftAmp_mXs,2020.1.2,MacIntel,60,,,,,,,,,,,,,,,,,,,,,,,,,,1,5.8018,,0,1,68,218,92,1,stimuli/stim_20210519_power2amp/equal_lnn_AM2.5Hz_s55_3.m4a,,,
,,,,,41276,2021-06-05_18h02.34.004,judgeSpeechMusic_20210519_logNormShiftAmp_mXs,2020.1.2,MacIntel,60,,,,,,,,,,,,,,,,,,,,,,,,,,2,5.752,,0,1,69,219,102,1,stimuli/stim_20210519_power2amp/equal_lnn_AM4Hz_s15_13.m4a,,,
,,,,,41276,2021-06-05_18h02.34.004,judgeSpeechMusic_20210519_logNormShiftAmp_mXs,2020.1.2,MacIntel,60,,,,,,,,,,,,,,,,,,,,,,,,,,1,5.7379,,0,1,70,220,41,1,stimuli/stim_20210519_power2amp/equal_lnn_AM1Hz_s55_11.m4a,,,
,,,,,41276,2021-06-05_18h02.34.004,judgeSpeechMusic_20210519_logNormShiftAmp_mXs,2020.1.2,MacIntel,60,,,,,,,,,,,,,,,,,,,,,,,,,,2,9.9648,,0,1,71,221,97,1,stimuli/stim_20210519_power2amp/equal_lnn_AM2.5Hz_s55_8.m4a,,,
,,,,,41276,2021-06-05_18h02.34.004,judgeSpeechMusic_20210519_logNormShiftAmp_mXs,2020.1.2,MacIntel,60,,,,,,,,,,,,,,,,,,,,,,,,,,2,6.7485,,0,1,72,222,115,1,stimuli/stim_20210519_power2amp/equal_lnn_AM4Hz_s25_50.m4a,,,
,,,,,41276,2021-06-05_18h02.34.004,judgeSpeechMusic_20210519_logNormShiftAmp_mXs,2020.1.2,MacIntel,60,,,,,,,,,,,,,,,,,,,,,,,,,,2,6.0162,,0,1,73,223,80,1,stimuli/stim_20210519_power2amp/equal_lnn_AM2.5Hz_s45_6.m4a,,,
,,,,,41276,2021-06-05_18h02.34.004,judgeSpeechMusic_20210519_logNormShiftAmp_mXs,2020.1.2,MacIntel,60,,,,,,,,,,,,,,,,,,,,,,,,,,2,5.7837,,0,1,74,224,143,1,stimuli/stim_20210519_power2amp/equal_lnn_AM4Hz_s55_41.m4a,,,
,,,,,41276,2021-06-05_18h02.34.004,judgeSpeechMusic_20210519_logNormShiftAmp_mXs,2020.1.2,MacIntel,60,,,,,,,,,,,,,,,,,,,,,,,,,,2,5.7698,,0,1,75,225,109,1,stimuli/stim_20210519_power2amp/equal_lnn_AM4Hz_s15_43.m4a,,,
,,,,,41276,2021-06-05_18h02.34.004,judgeSpeechMusic_20210519_logNormShiftAmp_mXs,2020.1.2,MacIntel,60,,,,,,,,,,,,,,,,,,,,,,,,,,2,5.9232,,0,1,76,226,130,1,stimuli/stim_20210519_power2amp/equal_lnn_AM4Hz_s45_44.m4a,,,
,,,,,41276,2021-06-05_18h02.34.004,judgeSpeechMusic_20210519_logNormShiftAmp_mXs,2020.1.2,MacIntel,60,,,,,,,,,,,,,,,,,,,,,,,,,,2,7.3022,,0,1,77,227,53,1,stimuli/stim_20210519_power2amp/equal_lnn_AM2.5Hz_s15_46.m4a,,,
,,,,,41276,2021-06-05_18h02.34.004,judgeSpeechMusic_20210519_logNormShiftAmp_mXs,2020.1.2,MacIntel,60,,,,,,,,,,,,,,,,,,,,,,,,,,1,6.2375,,0,1,78,228,8,1,stimuli/stim_20210519_power2amp/equal_lnn_AM1Hz_s15_44.m4a,,,
,,,,,41276,2021-06-05_18h02.34.004,judgeSpeechMusic_20210519_logNormShiftAmp_mXs,2020.1.2,MacIntel,60,,,,,,,,,,,,,,,,,,,,,,,,,,1,5.8055,3,1,1,79,229,10,1,stimuli/stim_20210519_power2amp/equal_lnn_AM1Hz_s25_43.m4a,1.7407,,
,,,,,41276,2021-06-05_18h02.34.004,judgeSpeechMusic_20210519_logNormShiftAmp_mXs,2020.1.2,MacIntel,60,,,,,,,,,,,,,,,,,,,,,,,,,,2,5.9943,,0,1,80,230,120,1,stimuli/stim_20210519_power2amp/equal_lnn_AM4Hz_s35_13.m4a,,,
,,,,,41276,2021-06-05_18h02.34.004,judgeSpeechMusic_20210519_logNormShiftAmp_mXs,2020.1.2,MacIntel,60,,,,,,,,,,,,,,,,,,,,,,,,,,1,6.9214,,0,1,81,231,3,1,stimuli/stim_20210519_power2amp/equal_lnn_AM1Hz_s15_49.m4a,,,
,,,,,41276,2021-06-05_18h02.34.004,judgeSpeechMusic_20210519_logNormShiftAmp_mXs,2020.1.2,MacIntel,60,,,,,,,,,,,,,,,,,,,,,,,,,,1,5.799,,0,1,82,232,49,1,stimuli/stim_20210519_power2amp/equal_lnn_AM1Hz_s55_22.m4a,,,
,,,,,41276,2021-06-05_18h02.34.004,judgeSpeechMusic_20210519_logNormShiftAmp_mXs,2020.1.2,MacIntel,60,,,,,,,,,,,,,,,,,,,,,,,,,,2,5.7047,,0,1,83,233,50,1,stimuli/stim_20210519_power2amp/equal_lnn_AM2.5Hz_s15_38.m4a,,,
,,,,,41276,2021-06-05_18h02.34.004,judgeSpeechMusic_20210519_logNormShiftAmp_mXs,2020.1.2,MacIntel,60,,,,,,,,,,,,,,,,,,,,,,,,,,1,6.2798,,0,1,84,234,33,1,stimuli/stim_20210519_power2amp/equal_lnn_AM1Hz_s45_30.m4a,,,
,,,,,41276,2021-06-05_18h02.34.004,judgeSpeechMusic_20210519_logNormShiftAmp_mXs,2020.1.2,MacIntel,60,,,,,,,,,,,,,,,,,,,,,,,,,,2,5.8026,,0,1,85,235,103,1,stimuli/stim_20210519_power2amp/equal_lnn_AM4Hz_s15_48.m4a,,,
,,,,,41276,2021-06-05_18h02.34.004,judgeSpeechMusic_20210519_logNormShiftAmp_mXs,2020.1.2,MacIntel,60,,,,,,,,,,,,,,,,,,,,,,,,,,1,5.8987,,0,1,86,236,9,1,stimuli/stim_20210519_power2amp/equal_lnn_AM1Hz_s15_33.m4a,,,
,,,,,41276,2021-06-05_18h02.34.004,judgeSpeechMusic_20210519_logNormShiftAmp_mXs,2020.1.2,MacIntel,60,,,,,,,,,,,,,,,,,,,,,,,,,,1,5.8096,,0,1,87,237,28,1,stimuli/stim_20210519_power2amp/equal_lnn_AM1Hz_s35_44.m4a,,,
,,,,,41276,2021-06-05_18h02.34.004,judgeSpeechMusic_20210519_logNormShiftAmp_mXs,2020.1.2,MacIntel,60,,,,,,,,,,,,,,,,,,,,,,,,,,1,5.7759,,0,1,88,238,77,1,stimuli/stim_20210519_power2amp/equal_lnn_AM2.5Hz_s35_50.m4a,,,
,,,,,41276,2021-06-05_18h02.34.004,judgeSpeechMusic_20210519_logNormShiftAmp_mXs,2020.1.2,MacIntel,60,,,,,,,,,,,,,,,,,,,,,,,,,,2,5.76,,0,1,89,239,64,1,stimuli/stim_20210519_power2amp/equal_lnn_AM2.5Hz_s25_16.m4a,,,
,,,,,41276,2021-06-05_18h02.34.004,judgeSpeechMusic_20210519_logNormShiftAmp_mXs,2020.1.2,MacIntel,60,,,,,,,,,,,,,,,,,,,,,,,,,,2,5.7033,,0,1,90,240,133,1,stimuli/stim_20210519_power2amp/equal_lnn_AM4Hz_s45_47.m4a,,,
,,,,,41276,2021-06-05_18h02.34.004,judgeSpeechMusic_20210519_logNormShiftAmp_mXs,2020.1.2,MacIntel,60,,,,,,,,,,,,,,,,,,,,,,,,,,1,6.9312,,0,1,91,241,83,1,stimuli/stim_20210519_power2amp/equal_lnn_AM2.5Hz_s45_20.m4a,,,
,,,,,41276,2021-06-05_18h02.34.004,judgeSpeechMusic_20210519_logNormShiftAmp_mXs,2020.1.2,MacIntel,60,,,,,,,,,,,,,,,,,,,,,,,,,,1,5.8261,,0,1,92,242,38,1,stimuli/stim_20210519_power2amp/equal_lnn_AM1Hz_s45_45.m4a,,,
,,,,,41276,2021-06-05_18h02.34.004,judgeSpeechMusic_20210519_logNormShiftAmp_mXs,2020.1.2,MacIntel,60,,,,,,,,,,,,,,,,,,,,,,,,,,2,5.9439,,0,1,93,243,116,1,stimuli/stim_20210519_power2amp/equal_lnn_AM4Hz_s25_45.m4a,,,
,,,,,41276,2021-06-05_18h02.34.004,judgeSpeechMusic_20210519_logNormShiftAmp_mXs,2020.1.2,MacIntel,60,,,,,,,,,,,,,,,,,,,,,,,,,,2,7.4708,,0,1,94,244,136,1,stimuli/stim_20210519_power2amp/equal_lnn_AM4Hz_s45_29.m4a,,,
,,,,,41276,2021-06-05_18h02.34.004,judgeSpeechMusic_20210519_logNormShiftAmp_mXs,2020.1.2,MacIntel,60,,,,,,,,,,,,,,,,,,,,,,,,,,2,6.6206,,0,1,95,245,93,1,stimuli/stim_20210519_power2amp/equal_lnn_AM2.5Hz_s55_24.m4a,,,
,,,,,41276,2021-06-05_18h02.34.004,judgeSpeechMusic_20210519_logNormShiftAmp_mXs,2020.1.2,MacIntel,60,,,,,,,,,,,,,,,,,,,,,,,,,,2,7.126,,0,1,96,246,51,1,stimuli/stim_20210519_power2amp/equal_lnn_AM2.5Hz_s15_12.m4a,,,
,,,,,41276,2021-06-05_18h02.34.004,judgeSpeechMusic_20210519_logNormShiftAmp_mXs,2020.1.2,MacIntel,60,,,,,,,,,,,,,,,,,,,,,,,,,,1,5.8579,,0,1,97,247,21,1,stimuli/stim_20210519_power2amp/equal_lnn_AM1Hz_s35_29.m4a,,,
,,,,,41276,2021-06-05_18h02.34.004,judgeSpeechMusic_20210519_logNormShiftAmp_mXs,2020.1.2,MacIntel,60,,,,,,,,,,,,,,,,,,,,,,,,,,2,7.18,,0,1,98,248,145,1,stimuli/stim_20210519_power2amp/equal_lnn_AM4Hz_s55_34.m4a,,,
,,,,,41276,2021-06-05_18h02.34.004,judgeSpeechMusic_20210519_logNormShiftAmp_mXs,2020.1.2,MacIntel,60,,,,,,,,,,,,,,,,,,,,,,,,,,1,5.686,4,1,1,99,249,96,1,stimuli/stim_20210519_power2amp/equal_lnn_AM2.5Hz_s55_18.m4a,0.7729,,
,,,,,41276,2021-06-05_18h02.34.004,judgeSpeechMusic_20210519_logNormShiftAmp_mXs,2020.1.2,MacIntel,60,,,,,,,,,,,,,,,,,,,,,,,,,,1,5.8524,,0,1,100,250,35,1,stimuli/stim_20210519_power2amp/equal_lnn_AM1Hz_s45_36.m4a,,,
,,,,,41276,2021-06-05_18h02.34.004,judgeSpeechMusic_20210519_logNormShiftAmp_mXs,2020.1.2,MacIntel,60,,,,,,,,,,,,,,,,,,,,,,,,,,2,5.7801,,0,1,101,251,85,1,stimuli/stim_20210519_power2amp/equal_lnn_AM2.5Hz_s45_41.m4a,,,
,,,,,41276,2021-06-05_18h02.34.004,judgeSpeechMusic_20210519_logNormShiftAmp_mXs,2020.1.2,MacIntel,60,,,,,,,,,,,,,,,,,,,,,,,,,,1,5.7167,,0,1,102,252,2,1,stimuli/stim_20210519_power2amp/equal_lnn_AM1Hz_s15_2.m4a,,,
,,,,,41276,2021-06-05_18h02.34.004,judgeSpeechMusic_20210519_logNormShiftAmp_mXs,2020.1.2,MacIntel,60,,,,,,,,,,,,,,,,,,,,,,,,,,1,5.6969,,0,1,103,253,75,1,stimuli/stim_20210519_power2amp/equal_lnn_AM2.5Hz_s35_6.m4a,,,
,,,,,41276,2021-06-05_18h02.34.004,judgeSpeechMusic_20210519_logNormShiftAmp_mXs,2020.1.2,MacIntel,60,,,,,,,,,,,,,,,,,,,,,,,,,,1,5.6573,,0,1,104,254,60,1,stimuli/stim_20210519_power2amp/equal_lnn_AM2.5Hz_s25_48.m4a,,,
,,,,,41276,2021-06-05_18h02.34.004,judgeSpeechMusic_20210519_logNormShiftAmp_mXs,2020.1.2,MacIntel,60,,,,,,,,,,,,,,,,,,,,,,,,,,1,6.3032,,0,1,105,255,24,1,stimuli/stim_20210519_power2amp/equal_lnn_AM1Hz_s35_32.m4a,,,
,,,,,41276,2021-06-05_18h02.34.004,judgeSpeechMusic_20210519_logNormShiftAmp_mXs,2020.1.2,MacIntel,60,,,,,,,,,,,,,,,,,,,,,,,,,,2,5.8206,,0,1,106,256,147,1,stimuli/stim_20210519_power2amp/equal_lnn_AM4Hz_s55_8.m4a,,,
,,,,,41276,2021-06-05_18h02.34.004,judgeSpeechMusic_20210519_logNormShiftAmp_mXs,2020.1.2,MacIntel,60,,,,,,,,,,,,,,,,,,,,,,,,,,1,8.4119,,0,1,107,257,4,1,stimuli/stim_20210519_power2amp/equal_lnn_AM1Hz_s15_27.m4a,,,
,,,,,41276,2021-06-05_18h02.34.004,judgeSpeechMusic_20210519_logNormShiftAmp_mXs,2020.1.2,MacIntel,60,,,,,,,,,,,,,,,,,,,,,,,,,,2,6.5055,,0,1,108,258,146,1,stimuli/stim_20210519_power2amp/equal_lnn_AM4Hz_s55_19.m4a,,,
,,,,,41276,2021-06-05_18h02.34.004,judgeSpeechMusic_20210519_logNormShiftAmp_mXs,2020.1.2,MacIntel,60,,,,,,,,,,,,,,,,,,,,,,,,,,1,7.0177,,0,1,109,259,78,1,stimuli/stim_20210519_power2amp/equal_lnn_AM2.5Hz_s35_33.m4a,,,
,,,,,41276,2021-06-05_18h02.34.004,judgeSpeechMusic_20210519_logNormShiftAmp_mXs,2020.1.2,MacIntel,60,,,,,,,,,,,,,,,,,,,,,,,,,,1,6.3872,,0,1,110,260,37,1,stimuli/stim_20210519_power2amp/equal_lnn_AM1Hz_s45_7.m4a,,,
,,,,,41276,2021-06-05_18h02.34.004,judgeSpeechMusic_20210519_logNormShiftAmp_mXs,2020.1.2,MacIntel,60,,,,,,,,,,,,,,,,,,,,,,,,,,1,8.069,,0,1,111,261,54,1,stimuli/stim_20210519_power2amp/equal_lnn_AM2.5Hz_s15_24.m4a,,,
,,,,,41276,2021-06-05_18h02.34.004,judgeSpeechMusic_20210519_logNormShiftAmp_mXs,2020.1.2,MacIntel,60,,,,,,,,,,,,,,,,,,,,,,,,,,2,5.9087,,0,1,112,262,58,1,stimuli/stim_20210519_power2amp/equal_lnn_AM2.5Hz_s15_45.m4a,,,
,,,,,41276,2021-06-05_18h02.34.004,judgeSpeechMusic_20210519_logNormShiftAmp_mXs,2020.1.2,MacIntel,60,,,,,,,,,,,,,,,,,,,,,,,,,,2,5.6337,,0,1,113,263,106,1,stimuli/stim_20210519_power2amp/equal_lnn_AM4Hz_s15_30.m4a,,,
,,,,,41276,2021-06-05_18h02.34.004,judgeSpeechMusic_20210519_logNormShiftAmp_mXs,2020.1.2,MacIntel,60,,,,,,,,,,,,,,,,,,,,,,,,,,1,5.9119,,0,1,114,264,56,1,stimuli/stim_20210519_power2amp/equal_lnn_AM2.5Hz_s15_30.m4a,,,
,,,,,41276,2021-06-05_18h02.34.004,judgeSpeechMusic_20210519_logNormShiftAmp_mXs,2020.1.2,MacIntel,60,,,,,,,,,,,,,,,,,,,,,,,,,,2,6.3178,,0,1,115,265,129,1,stimuli/stim_20210519_power2amp/equal_lnn_AM4Hz_s35_20.m4a,,,
,,,,,41276,2021-06-05_18h02.34.004,judgeSpeechMusic_20210519_logNormShiftAmp_mXs,2020.1.2,MacIntel,60,,,,,,,,,,,,,,,,,,,,,,,,,,2,5.7742,,0,1,116,266,142,1,stimuli/stim_20210519_power2amp/equal_lnn_AM4Hz_s55_4.m4a,,,
,,,,,41276,2021-06-05_18h02.34.004,judgeSpeechMusic_20210519_logNormShiftAmp_mXs,2020.1.2,MacIntel,60,,,,,,,,,,,,,,,,,,,,,,,,,,1,5.6887,,0,1,117,267,20,1,stimuli/stim_20210519_power2amp/equal_lnn_AM1Hz_s35_36.m4a,,,
,,,,,41276,2021-06-05_18h02.34.004,judgeSpeechMusic_20210519_logNormShiftAmp_mXs,2020.1.2,MacIntel,60,,,,,,,,,,,,,,,,,,,,,,,,,,2,5.939,,0,1,118,268,123,1,stimuli/stim_20210519_power2amp/equal_lnn_AM4Hz_s35_19.m4a,,,
,,,,,41276,2021-06-05_18h02.34.004,judgeSpeechMusic_20210519_logNormShiftAmp_mXs,2020.1.2,MacIntel,60,,,,,,,,,,,,,,,,,,,,,,,,,,1,5.7214,,0,1,119,269,55,1,stimuli/stim_20210519_power2amp/equal_lnn_AM2.5Hz_s15_5.m4a,,,
,,,,,41276,2021-06-05_18h02.34.004,judgeSpeechMusic_20210519_logNormShiftAmp_mXs,2020.1.2,MacIntel,60,,,,,,,,,,,,,,,,,,,,,,,,,,2,6.0046,,0,1,120,270,72,1,stimuli/stim_20210519_power2amp/equal_lnn_AM2.5Hz_s35_36.m4a,,,
,,,,,41276,2021-06-05_18h02.34.004,judgeSpeechMusic_20210519_logNormShiftAmp_mXs,2020.1.2,MacIntel,60,,,,,,,,,,,,,,,,,,,,,,,,,,2,7.6734,,0,1,121,271,66,1,stimuli/stim_20210519_power2amp/equal_lnn_AM2.5Hz_s25_26.m4a,,,
,,,,,41276,2021-06-05_18h02.34.004,judgeSpeechMusic_20210519_logNormShiftAmp_mXs,2020.1.2,MacIntel,60,,,,,,,,,,,,,,,,,,,,,,,,,,2,5.8649,,0,1,122,272,84,1,stimuli/stim_20210519_power2amp/equal_lnn_AM2.5Hz_s45_8.m4a,,,
,,,,,41276,2021-06-05_18h02.34.004,judgeSpeechMusic_20210519_logNormShiftAmp_mXs,2020.1.2,MacIntel,60,,,,,,,,,,,,,,,,,,,,,,,,,,2,5.686,,0,1,123,273,117,1,stimuli/stim_20210519_power2amp/equal_lnn_AM4Hz_s25_32.m4a,,,
,,,,,41276,2021-06-05_18h02.34.004,judgeSpeechMusic_20210519_logNormShiftAmp_mXs,2020.1.2,MacIntel,60,,,,,,,,,,,,,,,,,,,,,,,,,,2,5.6563,1,1,1,124,274,101,1,stimuli/stim_20210519_power2amp/equal_lnn_AM4Hz_s15_11.m4a,0.6703,,
,,,,,41276,2021-06-05_18h02.34.004,judgeSpeechMusic_20210519_logNormShiftAmp_mXs,2020.1.2,MacIntel,60,,,,,,,,,,,,,,,,,,,,,,,,,,2,5.9522,,0,1,125,275,128,1,stimuli/stim_20210519_power2amp/equal_lnn_AM4Hz_s35_22.m4a,,,
,,,,,41276,2021-06-05_18h02.34.004,judgeSpeechMusic_20210519_logNormShiftAmp_mXs,2020.1.2,MacIntel,60,,,,,,,,,,,,,,,,,,,,,,,,,,1,6.5193,,0,1,126,276,29,1,stimuli/stim_20210519_power2amp/equal_lnn_AM1Hz_s35_25.m4a,,,
,,,,,41276,2021-06-05_18h02.34.004,judgeSpeechMusic_20210519_logNormShiftAmp_mXs,2020.1.2,MacIntel,60,,,,,,,,,,,,,,,,,,,,,,,,,,1,8.5187,,0,1,127,277,39,1,stimuli/stim_20210519_power2amp/equal_lnn_AM1Hz_s45_5.m4a,,,
,,,,,41276,2021-06-05_18h02.34.004,judgeSpeechMusic_20210519_logNormShiftAmp_mXs,2020.1.2,MacIntel,60,,,,,,,,,,,,,,,,,,,,,,,,,,1,5.6598,,0,1,128,278,82,1,stimuli/stim_20210519_power2amp/equal_lnn_AM2.5Hz_s45_13.m4a,,,
,,,,,41276,2021-06-05_18h02.34.004,judgeSpeechMusic_20210519_logNormShiftAmp_mXs,2020.1.2,MacIntel,60,,,,,,,,,,,,,,,,,,,,,,,,,,2,5.6931,,0,1,129,279,91,1,stimuli/stim_20210519_power2amp/equal_lnn_AM2.5Hz_s55_2.m4a,,,
,,,,,41276,2021-06-05_18h02.34.004,judgeSpeechMusic_20210519_logNormShiftAmp_mXs,2020.1.2,MacIntel,60,,,,,,,,,,,,,,,,,,,,,,,,,,2,5.8797,,0,1,130,280,79,1,stimuli/stim_20210519_power2amp/equal_lnn_AM2.5Hz_s35_4.m4a,,,
,,,,,41276,2021-06-05_18h02.34.004,judgeSpeechMusic_20210519_logNormShiftAmp_mXs,2020.1.2,MacIntel,60,,,,,,,,,,,,,,,,,,,,,,,,,,2,5.6353,,0,1,131,281,125,1,stimuli/stim_20210519_power2amp/equal_lnn_AM4Hz_s35_35.m4a,,,
,,,,,41276,2021-06-05_18h02.34.004,judgeSpeechMusic_20210519_logNormShiftAmp_mXs,2020.1.2,MacIntel,60,,,,,,,,,,,,,,,,,,,,,,,,,,1,5.9187,,0,1,132,282,12,1,stimuli/stim_20210519_power2amp/equal_lnn_AM1Hz_s25_20.m4a,,,
,,,,,41276,2021-06-05_18h02.34.004,judgeSpeechMusic_20210519_logNormShiftAmp_mXs,2020.1.2,MacIntel,60,,,,,,,,,,,,,,,,,,,,,,,,,,2,7.4021,,0,1,133,283,137,1,stimuli/stim_20210519_power2amp/equal_lnn_AM4Hz_s45_28.m4a,,,
,,,,,41276,2021-06-05_18h02.34.004,judgeSpeechMusic_20210519_logNormShiftAmp_mXs,2020.1.2,MacIntel,60,,,,,,,,,,,,,,,,,,,,,,,,,,1,6.4934,,0,1,134,284,0,1,stimuli/stim_20210519_power2amp/equal_lnn_AM1Hz_s15_15.m4a,,,
,,,,,41276,2021-06-05_18h02.34.004,judgeSpeechMusic_20210519_logNormShiftAmp_mXs,2020.1.2,MacIntel,60,,,,,,,,,,,,,,,,,,,,,,,,,,2,6.4651,,0,1,135,285,132,1,stimuli/stim_20210519_power2amp/equal_lnn_AM4Hz_s45_24.m4a,,,
,,,,,41276,2021-06-05_18h02.34.004,judgeSpeechMusic_20210519_logNormShiftAmp_mXs,2020.1.2,MacIntel,60,,,,,,,,,,,,,,,,,,,,,,,,,,1,6.0559,,0,1,136,286,36,1,stimuli/stim_20210519_power2amp/equal_lnn_AM1Hz_s45_12.m4a,,,
,,,,,41276,2021-06-05_18h02.34.004,judgeSpeechMusic_20210519_logNormShiftAmp_mXs,2020.1.2,MacIntel,60,,,,,,,,,,,,,,,,,,,,,,,,,,1,5.7028,,0,1,137,287,44,1,stimuli/stim_20210519_power2amp/equal_lnn_AM1Hz_s55_48.m4a,,,
,,,,,41276,2021-06-05_18h02.34.004,judgeSpeechMusic_20210519_logNormShiftAmp_mXs,2020.1.2,MacIntel,60,,,,,,,,,,,,,,,,,,,,,,,,,,1,5.6788,,0,1,138,288,22,1,stimuli/stim_20210519_power2amp/equal_lnn_AM1Hz_s35_5.m4a,,,
,,,,,41276,2021-06-05_18h02.34.004,judgeSpeechMusic_20210519_logNormShiftAmp_mXs,2020.1.2,MacIntel,60,,,,,,,,,,,,,,,,,,,,,,,,,,2,6.1606,,0,1,139,289,69,1,stimuli/stim_20210519_power2amp/equal_lnn_AM2.5Hz_s25_18.m4a,,,
,,,,,41276,2021-06-05_18h02.34.004,judgeSpeechMusic_20210519_logNormShiftAmp_mXs,2020.1.2,MacIntel,60,,,,,,,,,,,,,,,,,,,,,,,,,,2,5.6424,,0,1,140,290,74,1,stimuli/stim_20210519_power2amp/equal_lnn_AM2.5Hz_s35_28.m4a,,,
,,,,,41276,2021-06-05_18h02.34.004,judgeSpeechMusic_20210519_logNormShiftAmp_mXs,2020.1.2,MacIntel,60,,,,,,,,,,,,,,,,,,,,,,,,,,2,5.5993,,0,1,141,291,70,1,stimuli/stim_20210519_power2amp/equal_lnn_AM2.5Hz_s35_10.m4a,,,
,,,,,41276,2021-06-05_18h02.34.004,judgeSpeechMusic_20210519_logNormShiftAmp_mXs,2020.1.2,MacIntel,60,,,,,,,,,,,,,,,,,,,,,,,,,,2,5.576,,0,1,142,292,89,1,stimuli/stim_20210519_power2amp/equal_lnn_AM2.5Hz_s45_21.m4a,,,
,,,,,41276,2021-06-05_18h02.34.004,judgeSpeechMusic_20210519_logNormShiftAmp_mXs,2020.1.2,MacIntel,60,,,,,,,,,,,,,,,,,,,,,,,,,,1,5.9119,,0,1,143,293,42,1,stimuli/stim_20210519_power2amp/equal_lnn_AM1Hz_s55_46.m4a,,,
,,,,,41276,2021-06-05_18h02.34.004,judgeSpeechMusic_20210519_logNormShiftAmp_mXs,2020.1.2,MacIntel,60,,,,,,,,,,,,,,,,,,,,,,,,,,1,5.7868,,0,1,144,294,32,1,stimuli/stim_20210519_power2amp/equal_lnn_AM1Hz_s45_50.m4a,,,
,,,,,41276,2021-06-05_18h02.34.004,judgeSpeechMusic_20210519_logNormShiftAmp_mXs,2020.1.2,MacIntel,60,,,,,,,,,,,,,,,,,,,,,,,,,,2,5.6125,,0,1,145,295,121,1,stimuli/stim_20210519_power2amp/equal_lnn_AM4Hz_s35_50.m4a,,,
,,,,,41276,2021-06-05_18h02.34.004,judgeSpeechMusic_20210519_logNormShiftAmp_mXs,2020.1.2,MacIntel,60,,,,,,,,,,,,,,,,,,,,,,,,,,1,5.9357,,0,1,146,296,63,1,stimuli/stim_20210519_power2amp/equal_lnn_AM2.5Hz_s25_8.m4a,,,
,,,,,41276,2021-06-05_18h02.34.004,judgeSpeechMusic_20210519_logNormShiftAmp_mXs,2020.1.2,MacIntel,60,,,,,,,,,,,,,,,,,,,,,,,,,,1,5.8716,,0,1,147,297,19,1,stimuli/stim_20210519_power2amp/equal_lnn_AM1Hz_s25_15.m4a,,,
,,,,,41276,2021-06-05_18h02.34.004,judgeSpeechMusic_20210519_logNormShiftAmp_mXs,2020.1.2,MacIntel,60,,,,,,,,,,,,,,,,,,,,,,,,,,2,5.6874,,0,1,148,298,87,1,stimuli/stim_20210519_power2amp/equal_lnn_AM2.5Hz_s45_42.m4a,,,
,,,,,41276,2021-06-05_18h02.34.004,judgeSpeechMusic_20210519_logNormShiftAmp_mXs,2020.1.2,MacIntel,60,,,,,,,,,,,,,,,,,,,,,,,,,,2,5.9832,,0,1,149,299,86,1,stimuli/stim_20210519_power2amp/equal_lnn_AM2.5Hz_s45_22.m4a,,,
,,,,,41276,2021-06-05_18h02.34.004,judgeSpeechMusic_20210519_logNormShiftAmp_mXs,2020.1.2,MacIntel,60,,,,,,,,,,,,,,,,,,,,,,,,,,,,,,,,,,,,,space,3.0685
