headphoneResponse.keys,headphoneResponse.corr,headphoneResponse.rt,headphoneTrial.thisRepN,headphoneTrial.thisTrialN,headphoneTrial.thisN,headphoneTrial.thisIndex,headphoneTrial.ran,headphone_sound1,headphone_sound2,headphone_sound3,corrAns,participant,date,expName,psychopyVersion,OS,frameRate,trainSlider.response,trainSlider.rt,beepTrainResponse.keys,beepTrainResponse.corr,trainingTrials.thisRepN,trainingTrials.thisTrialN,trainingTrials.thisN,trainingTrials.thisIndex,trainingTrials.ran,trainAudioFile,beepTrainResponse.rt,readyReal_resp.keys,readyReal_resp.rt,ratingSlider.response,ratingSlider.rt,beepResp.keys,beepResp.corr,expTrials.thisRepN,expTrials.thisTrialN,expTrials.thisN,expTrials.thisIndex,expTrials.ran,audioFile,beepResp.rt,end_resp.keys,end_resp.rt
2,1,0.6011,0,0,0,3,1,stimuli/screen_origin.wav,stimuli/screen_quiet.wav,stimuli/screen_antiphase.wav,2,41296,2021-06-18_19h35.19.498,judgeSpeechMusic_20210519_logNormShiftAmp_mXs,2020.1.2,MacIntel,60,,,,,,,,,,,,,,,,,,,,,,,,,,
3,1,0.0853,0,1,1,0,1,stimuli/screen_antiphase.wav,stimuli/screen_origin.wav,stimuli/screen_quiet.wav,3,41296,2021-06-18_19h35.19.498,judgeSpeechMusic_20210519_logNormShiftAmp_mXs,2020.1.2,MacIntel,60,,,,,,,,,,,,,,,,,,,,,,,,,,
2,1,0.4774,0,2,2,1,1,stimuli/screen_antiphase.wav,stimuli/screen_quiet.wav,stimuli/screen_origin.wav,2,41296,2021-06-18_19h35.19.498,judgeSpeechMusic_20210519_logNormShiftAmp_mXs,2020.1.2,MacIntel,60,,,,,,,,,,,,,,,,,,,,,,,,,,
1,1,0.4739,0,3,3,5,1,stimuli/screen_quiet.wav,stimuli/screen_origin.wav,stimuli/screen_antiphase.wav,1,41296,2021-06-18_19h35.19.498,judgeSpeechMusic_20210519_logNormShiftAmp_mXs,2020.1.2,MacIntel,60,,,,,,,,,,,,,,,,,,,,,,,,,,
3,1,0.2995,0,4,4,2,1,stimuli/screen_origin.wav,stimuli/screen_antiphase.wav,stimuli/screen_quiet.wav,3,41296,2021-06-18_19h35.19.498,judgeSpeechMusic_20210519_logNormShiftAmp_mXs,2020.1.2,MacIntel,60,,,,,,,,,,,,,,,,,,,,,,,,,,
1,1,0.2388,0,5,5,4,1,stimuli/screen_quiet.wav,stimuli/screen_antiphase.wav,stimuli/screen_origin.wav,1,41296,2021-06-18_19h35.19.498,judgeSpeechMusic_20210519_logNormShiftAmp_mXs,2020.1.2,MacIntel,60,,,,,,,,,,,,,,,,,,,,,,,,,,
,,,,,,,,,,,,41296,2021-06-18_19h35.19.498,judgeSpeechMusic_20210519_logNormShiftAmp_mXs,2020.1.2,MacIntel,60,2,12.5973,,0,0,0,0,3,1,stimuli/stim_20210519_power2amp/equal_lnn_AM_training3.5Hz_s50.m4a,,,,,,,,,,,,,,,,
,,,,,,,,,,,,41296,2021-06-18_19h35.19.498,judgeSpeechMusic_20210519_logNormShiftAmp_mXs,2020.1.2,MacIntel,60,1,7.0845,,0,0,1,1,0,1,stimuli/stim_20210519_power2amp/equal_lnn_AM_training1.5Hz_s20.m4a,,,,,,,,,,,,,,,,
,,,,,,,,,,,,41296,2021-06-18_19h35.19.498,judgeSpeechMusic_20210519_logNormShiftAmp_mXs,2020.1.2,MacIntel,60,1,7.4477,2,1,0,2,2,2,1,stimuli/stim_20210519_power2amp/equal_lnn_AM_training3.5Hz_s20.m4a,1.5713,,,,,,,,,,,,,,,
,,,,,,,,,,,,41296,2021-06-18_19h35.19.498,judgeSpeechMusic_20210519_logNormShiftAmp_mXs,2020.1.2,MacIntel,60,1,11.9467,,0,0,3,3,1,1,stimuli/stim_20210519_power2amp/equal_lnn_AM_training1.5Hz_s50.m4a,,,,,,,,,,,,,,,,
,,,,,,,,,,,,41296,2021-06-18_19h35.19.498,judgeSpeechMusic_20210519_logNormShiftAmp_mXs,2020.1.2,MacIntel,60,,,,,,,,,,,,space,7.4966,2,8.6246,,0,0,0,0,103,1,stimuli/stim_20210519_power2amp/equal_lnn_AM4Hz_s15_43.m4a,,,
,,,,,,,,,,,,41296,2021-06-18_19h35.19.498,judgeSpeechMusic_20210519_logNormShiftAmp_mXs,2020.1.2,MacIntel,60,,,,,,,,,,,,,,2,6.744,,0,0,1,1,123,1,stimuli/stim_20210519_power2amp/equal_lnn_AM4Hz_s35_50.m4a,,,
,,,,,,,,,,,,41296,2021-06-18_19h35.19.498,judgeSpeechMusic_20210519_logNormShiftAmp_mXs,2020.1.2,MacIntel,60,,,,,,,,,,,,,,1,6.3082,,0,0,2,2,62,1,stimuli/stim_20210519_power2amp/equal_lnn_AM2.5Hz_s25_31.m4a,,,
,,,,,,,,,,,,41296,2021-06-18_19h35.19.498,judgeSpeechMusic_20210519_logNormShiftAmp_mXs,2020.1.2,MacIntel,60,,,,,,,,,,,,,,1,6.96,,0,0,3,3,31,1,stimuli/stim_20210519_power2amp/equal_lnn_AM1Hz_s45_25.m4a,,,
,,,,,,,,,,,,41296,2021-06-18_19h35.19.498,judgeSpeechMusic_20210519_logNormShiftAmp_mXs,2020.1.2,MacIntel,60,,,,,,,,,,,,,,1,5.9646,,0,0,4,4,8,1,stimuli/stim_20210519_power2amp/equal_lnn_AM1Hz_s15_20.m4a,,,
,,,,,,,,,,,,41296,2021-06-18_19h35.19.498,judgeSpeechMusic_20210519_logNormShiftAmp_mXs,2020.1.2,MacIntel,60,,,,,,,,,,,,,,1,6.9209,,0,0,5,5,66,1,stimuli/stim_20210519_power2amp/equal_lnn_AM2.5Hz_s25_22.m4a,,,
,,,,,,,,,,,,41296,2021-06-18_19h35.19.498,judgeSpeechMusic_20210519_logNormShiftAmp_mXs,2020.1.2,MacIntel,60,,,,,,,,,,,,,,2,8.6377,,0,0,6,6,113,1,stimuli/stim_20210519_power2amp/equal_lnn_AM4Hz_s25_1.m4a,,,
,,,,,,,,,,,,41296,2021-06-18_19h35.19.498,judgeSpeechMusic_20210519_logNormShiftAmp_mXs,2020.1.2,MacIntel,60,,,,,,,,,,,,,,1,6.074,,0,0,7,7,110,1,stimuli/stim_20210519_power2amp/equal_lnn_AM4Hz_s25_21.m4a,,,
,,,,,,,,,,,,41296,2021-06-18_19h35.19.498,judgeSpeechMusic_20210519_logNormShiftAmp_mXs,2020.1.2,MacIntel,60,,,,,,,,,,,,,,2,23.681,,0,0,8,8,50,1,stimuli/stim_20210519_power2amp/equal_lnn_AM2.5Hz_s15_21.m4a,,,
,,,,,,,,,,,,41296,2021-06-18_19h35.19.498,judgeSpeechMusic_20210519_logNormShiftAmp_mXs,2020.1.2,MacIntel,60,,,,,,,,,,,,,,2,5.7943,,0,0,9,9,120,1,stimuli/stim_20210519_power2amp/equal_lnn_AM4Hz_s35_49.m4a,,,
,,,,,,,,,,,,41296,2021-06-18_19h35.19.498,judgeSpeechMusic_20210519_logNormShiftAmp_mXs,2020.1.2,MacIntel,60,,,,,,,,,,,,,,2,6.3628,,0,0,10,10,111,1,stimuli/stim_20210519_power2amp/equal_lnn_AM4Hz_s25_22.m4a,,,
,,,,,,,,,,,,41296,2021-06-18_19h35.19.498,judgeSpeechMusic_20210519_logNormShiftAmp_mXs,2020.1.2,MacIntel,60,,,,,,,,,,,,,,1,6.055,,0,0,11,11,7,1,stimuli/stim_20210519_power2amp/equal_lnn_AM1Hz_s15_30.m4a,,,
,,,,,,,,,,,,41296,2021-06-18_19h35.19.498,judgeSpeechMusic_20210519_logNormShiftAmp_mXs,2020.1.2,MacIntel,60,,,,,,,,,,,,,,2,5.9303,,0,0,12,12,102,1,stimuli/stim_20210519_power2amp/equal_lnn_AM4Hz_s15_49.m4a,,,
,,,,,,,,,,,,41296,2021-06-18_19h35.19.498,judgeSpeechMusic_20210519_logNormShiftAmp_mXs,2020.1.2,MacIntel,60,,,,,,,,,,,,,,1,6.3363,,0,0,13,13,36,1,stimuli/stim_20210519_power2amp/equal_lnn_AM1Hz_s45_18.m4a,,,
,,,,,,,,,,,,41296,2021-06-18_19h35.19.498,judgeSpeechMusic_20210519_logNormShiftAmp_mXs,2020.1.2,MacIntel,60,,,,,,,,,,,,,,2,5.877,,0,0,14,14,141,1,stimuli/stim_20210519_power2amp/equal_lnn_AM4Hz_s55_22.m4a,,,
,,,,,,,,,,,,41296,2021-06-18_19h35.19.498,judgeSpeechMusic_20210519_logNormShiftAmp_mXs,2020.1.2,MacIntel,60,,,,,,,,,,,,,,2,14.2777,,0,0,15,15,55,1,stimuli/stim_20210519_power2amp/equal_lnn_AM2.5Hz_s15_27.m4a,,,
,,,,,,,,,,,,41296,2021-06-18_19h35.19.498,judgeSpeechMusic_20210519_logNormShiftAmp_mXs,2020.1.2,MacIntel,60,,,,,,,,,,,,,,2,6.7478,,0,0,16,16,101,1,stimuli/stim_20210519_power2amp/equal_lnn_AM4Hz_s15_23.m4a,,,
,,,,,,,,,,,,41296,2021-06-18_19h35.19.498,judgeSpeechMusic_20210519_logNormShiftAmp_mXs,2020.1.2,MacIntel,60,,,,,,,,,,,,,,2,6.3159,,0,0,17,17,54,1,stimuli/stim_20210519_power2amp/equal_lnn_AM2.5Hz_s15_2.m4a,,,
,,,,,,,,,,,,41296,2021-06-18_19h35.19.498,judgeSpeechMusic_20210519_logNormShiftAmp_mXs,2020.1.2,MacIntel,60,,,,,,,,,,,,,,1,6.2601,,0,0,18,18,26,1,stimuli/stim_20210519_power2amp/equal_lnn_AM1Hz_s35_13.m4a,,,
,,,,,,,,,,,,41296,2021-06-18_19h35.19.498,judgeSpeechMusic_20210519_logNormShiftAmp_mXs,2020.1.2,MacIntel,60,,,,,,,,,,,,,,2,6.0449,,0,0,19,19,46,1,stimuli/stim_20210519_power2amp/equal_lnn_AM1Hz_s55_7.m4a,,,
,,,,,,,,,,,,41296,2021-06-18_19h35.19.498,judgeSpeechMusic_20210519_logNormShiftAmp_mXs,2020.1.2,MacIntel,60,,,,,,,,,,,,,,1,5.7798,,0,0,20,20,3,1,stimuli/stim_20210519_power2amp/equal_lnn_AM1Hz_s15_15.m4a,,,
,,,,,,,,,,,,41296,2021-06-18_19h35.19.498,judgeSpeechMusic_20210519_logNormShiftAmp_mXs,2020.1.2,MacIntel,60,,,,,,,,,,,,,,2,6.6425,,0,0,21,21,132,1,stimuli/stim_20210519_power2amp/equal_lnn_AM4Hz_s45_35.m4a,,,
,,,,,,,,,,,,41296,2021-06-18_19h35.19.498,judgeSpeechMusic_20210519_logNormShiftAmp_mXs,2020.1.2,MacIntel,60,,,,,,,,,,,,,,1,6.0964,,0,0,22,22,75,1,stimuli/stim_20210519_power2amp/equal_lnn_AM2.5Hz_s35_49.m4a,,,
,,,,,,,,,,,,41296,2021-06-18_19h35.19.498,judgeSpeechMusic_20210519_logNormShiftAmp_mXs,2020.1.2,MacIntel,60,,,,,,,,,,,,,,1,5.8209,,0,0,23,23,32,1,stimuli/stim_20210519_power2amp/equal_lnn_AM1Hz_s45_15.m4a,,,
,,,,,,,,,,,,41296,2021-06-18_19h35.19.498,judgeSpeechMusic_20210519_logNormShiftAmp_mXs,2020.1.2,MacIntel,60,,,,,,,,,,,,,,2,6.7594,,0,0,24,24,117,1,stimuli/stim_20210519_power2amp/equal_lnn_AM4Hz_s25_31.m4a,,,
,,,,,,,,,,,,41296,2021-06-18_19h35.19.498,judgeSpeechMusic_20210519_logNormShiftAmp_mXs,2020.1.2,MacIntel,60,,,,,,,,,,,,,,1,8.3399,,0,0,25,25,42,1,stimuli/stim_20210519_power2amp/equal_lnn_AM1Hz_s55_50.m4a,,,
,,,,,,,,,,,,41296,2021-06-18_19h35.19.498,judgeSpeechMusic_20210519_logNormShiftAmp_mXs,2020.1.2,MacIntel,60,,,,,,,,,,,,,,2,6.8796,,0,0,26,26,133,1,stimuli/stim_20210519_power2amp/equal_lnn_AM4Hz_s45_33.m4a,,,
,,,,,,,,,,,,41296,2021-06-18_19h35.19.498,judgeSpeechMusic_20210519_logNormShiftAmp_mXs,2020.1.2,MacIntel,60,,,,,,,,,,,,,,1,6.0098,,0,0,27,27,51,1,stimuli/stim_20210519_power2amp/equal_lnn_AM2.5Hz_s15_16.m4a,,,
,,,,,,,,,,,,41296,2021-06-18_19h35.19.498,judgeSpeechMusic_20210519_logNormShiftAmp_mXs,2020.1.2,MacIntel,60,,,,,,,,,,,,,,2,5.7628,,0,0,28,28,122,1,stimuli/stim_20210519_power2amp/equal_lnn_AM4Hz_s35_41.m4a,,,
,,,,,,,,,,,,41296,2021-06-18_19h35.19.498,judgeSpeechMusic_20210519_logNormShiftAmp_mXs,2020.1.2,MacIntel,60,,,,,,,,,,,,,,1,6.5293,,0,0,29,29,43,1,stimuli/stim_20210519_power2amp/equal_lnn_AM1Hz_s55_18.m4a,,,
,,,,,,,,,,,,41296,2021-06-18_19h35.19.498,judgeSpeechMusic_20210519_logNormShiftAmp_mXs,2020.1.2,MacIntel,60,,,,,,,,,,,,,,1,7.7235,,0,0,30,30,21,1,stimuli/stim_20210519_power2amp/equal_lnn_AM1Hz_s35_4.m4a,,,
,,,,,,,,,,,,41296,2021-06-18_19h35.19.498,judgeSpeechMusic_20210519_logNormShiftAmp_mXs,2020.1.2,MacIntel,60,,,,,,,,,,,,,,1,6.9429,,0,0,31,31,79,1,stimuli/stim_20210519_power2amp/equal_lnn_AM2.5Hz_s35_8.m4a,,,
,,,,,,,,,,,,41296,2021-06-18_19h35.19.498,judgeSpeechMusic_20210519_logNormShiftAmp_mXs,2020.1.2,MacIntel,60,,,,,,,,,,,,,,2,5.9806,,0,0,32,32,138,1,stimuli/stim_20210519_power2amp/equal_lnn_AM4Hz_s45_22.m4a,,,
,,,,,,,,,,,,41296,2021-06-18_19h35.19.498,judgeSpeechMusic_20210519_logNormShiftAmp_mXs,2020.1.2,MacIntel,60,,,,,,,,,,,,,,2,6.3195,3,1,0,33,33,143,1,stimuli/stim_20210519_power2amp/equal_lnn_AM4Hz_s55_42.m4a,1.7061,,
,,,,,,,,,,,,41296,2021-06-18_19h35.19.498,judgeSpeechMusic_20210519_logNormShiftAmp_mXs,2020.1.2,MacIntel,60,,,,,,,,,,,,,,2,7.6621,,0,0,34,34,105,1,stimuli/stim_20210519_power2amp/equal_lnn_AM4Hz_s15_31.m4a,,,
,,,,,,,,,,,,41296,2021-06-18_19h35.19.498,judgeSpeechMusic_20210519_logNormShiftAmp_mXs,2020.1.2,MacIntel,60,,,,,,,,,,,,,,2,5.8761,,0,0,35,35,76,1,stimuli/stim_20210519_power2amp/equal_lnn_AM2.5Hz_s35_35.m4a,,,
,,,,,,,,,,,,41296,2021-06-18_19h35.19.498,judgeSpeechMusic_20210519_logNormShiftAmp_mXs,2020.1.2,MacIntel,60,,,,,,,,,,,,,,1,6.129,,0,0,36,36,130,1,stimuli/stim_20210519_power2amp/equal_lnn_AM4Hz_s45_12.m4a,,,
,,,,,,,,,,,,41296,2021-06-18_19h35.19.498,judgeSpeechMusic_20210519_logNormShiftAmp_mXs,2020.1.2,MacIntel,60,,,,,,,,,,,,,,1,6.6132,,0,0,37,37,85,1,stimuli/stim_20210519_power2amp/equal_lnn_AM2.5Hz_s45_5.m4a,,,
,,,,,,,,,,,,41296,2021-06-18_19h35.19.498,judgeSpeechMusic_20210519_logNormShiftAmp_mXs,2020.1.2,MacIntel,60,,,,,,,,,,,,,,2,8.2288,,0,0,38,38,119,1,stimuli/stim_20210519_power2amp/equal_lnn_AM4Hz_s25_34.m4a,,,
,,,,,,,,,,,,41296,2021-06-18_19h35.19.498,judgeSpeechMusic_20210519_logNormShiftAmp_mXs,2020.1.2,MacIntel,60,,,,,,,,,,,,,,1,6.1874,,0,0,39,39,14,1,stimuli/stim_20210519_power2amp/equal_lnn_AM1Hz_s25_4.m4a,,,
,,,,,,,,,,,,41296,2021-06-18_19h35.19.498,judgeSpeechMusic_20210519_logNormShiftAmp_mXs,2020.1.2,MacIntel,60,,,,,,,,,,,,,,2,10.7227,,0,0,40,40,44,1,stimuli/stim_20210519_power2amp/equal_lnn_AM1Hz_s55_6.m4a,,,
,,,,,,,,,,,,41296,2021-06-18_19h35.19.498,judgeSpeechMusic_20210519_logNormShiftAmp_mXs,2020.1.2,MacIntel,60,,,,,,,,,,,,,,2,15.6882,,0,0,41,41,40,1,stimuli/stim_20210519_power2amp/equal_lnn_AM1Hz_s55_38.m4a,,,
,,,,,,,,,,,,41296,2021-06-18_19h35.19.498,judgeSpeechMusic_20210519_logNormShiftAmp_mXs,2020.1.2,MacIntel,60,,,,,,,,,,,,,,1,11.0772,,0,0,42,42,60,1,stimuli/stim_20210519_power2amp/equal_lnn_AM2.5Hz_s25_18.m4a,,,
,,,,,,,,,,,,41296,2021-06-18_19h35.19.498,judgeSpeechMusic_20210519_logNormShiftAmp_mXs,2020.1.2,MacIntel,60,,,,,,,,,,,,,,2,6.3456,,0,0,43,43,106,1,stimuli/stim_20210519_power2amp/equal_lnn_AM4Hz_s15_24.m4a,,,
,,,,,,,,,,,,41296,2021-06-18_19h35.19.498,judgeSpeechMusic_20210519_logNormShiftAmp_mXs,2020.1.2,MacIntel,60,,,,,,,,,,,,,,1,6.1959,,0,0,44,44,29,1,stimuli/stim_20210519_power2amp/equal_lnn_AM1Hz_s35_8.m4a,,,
,,,,,,,,,,,,41296,2021-06-18_19h35.19.498,judgeSpeechMusic_20210519_logNormShiftAmp_mXs,2020.1.2,MacIntel,60,,,,,,,,,,,,,,1,5.997,,0,0,45,45,6,1,stimuli/stim_20210519_power2amp/equal_lnn_AM1Hz_s15_10.m4a,,,
,,,,,,,,,,,,41296,2021-06-18_19h35.19.498,judgeSpeechMusic_20210519_logNormShiftAmp_mXs,2020.1.2,MacIntel,60,,,,,,,,,,,,,,1,5.9792,,0,0,46,46,135,1,stimuli/stim_20210519_power2amp/equal_lnn_AM4Hz_s45_47.m4a,,,
,,,,,,,,,,,,41296,2021-06-18_19h35.19.498,judgeSpeechMusic_20210519_logNormShiftAmp_mXs,2020.1.2,MacIntel,60,,,,,,,,,,,,,,1,5.7627,,0,0,47,47,125,1,stimuli/stim_20210519_power2amp/equal_lnn_AM4Hz_s35_11.m4a,,,
,,,,,,,,,,,,41296,2021-06-18_19h35.19.498,judgeSpeechMusic_20210519_logNormShiftAmp_mXs,2020.1.2,MacIntel,60,,,,,,,,,,,,,,1,5.6615,,0,0,48,48,1,1,stimuli/stim_20210519_power2amp/equal_lnn_AM1Hz_s15_28.m4a,,,
,,,,,,,,,,,,41296,2021-06-18_19h35.19.498,judgeSpeechMusic_20210519_logNormShiftAmp_mXs,2020.1.2,MacIntel,60,,,,,,,,,,,,,,1,5.871,,0,0,49,49,100,1,stimuli/stim_20210519_power2amp/equal_lnn_AM4Hz_s15_10.m4a,,,
,,,,,,,,,,,,41296,2021-06-18_19h35.19.498,judgeSpeechMusic_20210519_logNormShiftAmp_mXs,2020.1.2,MacIntel,60,,,,,,,,,,,,,,1,6.1561,,0,0,50,50,65,1,stimuli/stim_20210519_power2amp/equal_lnn_AM2.5Hz_s25_23.m4a,,,
,,,,,,,,,,,,41296,2021-06-18_19h35.19.498,judgeSpeechMusic_20210519_logNormShiftAmp_mXs,2020.1.2,MacIntel,60,,,,,,,,,,,,,,1,6.0475,,0,0,51,51,37,1,stimuli/stim_20210519_power2amp/equal_lnn_AM1Hz_s45_3.m4a,,,
,,,,,,,,,,,,41296,2021-06-18_19h35.19.498,judgeSpeechMusic_20210519_logNormShiftAmp_mXs,2020.1.2,MacIntel,60,,,,,,,,,,,,,,1,5.7436,,0,0,52,52,39,1,stimuli/stim_20210519_power2amp/equal_lnn_AM1Hz_s45_40.m4a,,,
,,,,,,,,,,,,41296,2021-06-18_19h35.19.498,judgeSpeechMusic_20210519_logNormShiftAmp_mXs,2020.1.2,MacIntel,60,,,,,,,,,,,,,,2,5.8218,,0,0,53,53,115,1,stimuli/stim_20210519_power2amp/equal_lnn_AM4Hz_s25_20.m4a,,,
,,,,,,,,,,,,41296,2021-06-18_19h35.19.498,judgeSpeechMusic_20210519_logNormShiftAmp_mXs,2020.1.2,MacIntel,60,,,,,,,,,,,,,,2,5.6582,,0,0,54,54,112,1,stimuli/stim_20210519_power2amp/equal_lnn_AM4Hz_s25_39.m4a,,,
,,,,,,,,,,,,41296,2021-06-18_19h35.19.498,judgeSpeechMusic_20210519_logNormShiftAmp_mXs,2020.1.2,MacIntel,60,,,,,,,,,,,,,,2,5.68,,0,0,55,55,45,1,stimuli/stim_20210519_power2amp/equal_lnn_AM1Hz_s55_35.m4a,,,
,,,,,,,,,,,,41296,2021-06-18_19h35.19.498,judgeSpeechMusic_20210519_logNormShiftAmp_mXs,2020.1.2,MacIntel,60,,,,,,,,,,,,,,1,21.5636,,0,0,56,56,95,1,stimuli/stim_20210519_power2amp/equal_lnn_AM2.5Hz_s55_19.m4a,,,
,,,,,,,,,,,,41296,2021-06-18_19h35.19.498,judgeSpeechMusic_20210519_logNormShiftAmp_mXs,2020.1.2,MacIntel,60,,,,,,,,,,,,,,2,6.2259,2,1,0,57,57,27,1,stimuli/stim_20210519_power2amp/equal_lnn_AM1Hz_s35_33.m4a,1.0805,,
,,,,,,,,,,,,41296,2021-06-18_19h35.19.498,judgeSpeechMusic_20210519_logNormShiftAmp_mXs,2020.1.2,MacIntel,60,,,,,,,,,,,,,,1,6.7108,,0,0,58,58,134,1,stimuli/stim_20210519_power2amp/equal_lnn_AM4Hz_s45_42.m4a,,,
,,,,,,,,,,,,41296,2021-06-18_19h35.19.498,judgeSpeechMusic_20210519_logNormShiftAmp_mXs,2020.1.2,MacIntel,60,,,,,,,,,,,,,,1,6.0466,,0,0,59,59,12,1,stimuli/stim_20210519_power2amp/equal_lnn_AM1Hz_s25_20.m4a,,,
,,,,,,,,,,,,41296,2021-06-18_19h35.19.498,judgeSpeechMusic_20210519_logNormShiftAmp_mXs,2020.1.2,MacIntel,60,,,,,,,,,,,,,,2,6.4126,,0,0,60,60,118,1,stimuli/stim_20210519_power2amp/equal_lnn_AM4Hz_s25_23.m4a,,,
,,,,,,,,,,,,41296,2021-06-18_19h35.19.498,judgeSpeechMusic_20210519_logNormShiftAmp_mXs,2020.1.2,MacIntel,60,,,,,,,,,,,,,,2,7.5371,,0,0,61,61,109,1,stimuli/stim_20210519_power2amp/equal_lnn_AM4Hz_s15_19.m4a,,,
,,,,,,,,,,,,41296,2021-06-18_19h35.19.498,judgeSpeechMusic_20210519_logNormShiftAmp_mXs,2020.1.2,MacIntel,60,,,,,,,,,,,,,,2,5.763,,0,0,62,62,140,1,stimuli/stim_20210519_power2amp/equal_lnn_AM4Hz_s55_12.m4a,,,
,,,,,,,,,,,,41296,2021-06-18_19h35.19.498,judgeSpeechMusic_20210519_logNormShiftAmp_mXs,2020.1.2,MacIntel,60,,,,,,,,,,,,,,1,5.8235,,0,0,63,63,22,1,stimuli/stim_20210519_power2amp/equal_lnn_AM1Hz_s35_7.m4a,,,
,,,,,,,,,,,,41296,2021-06-18_19h35.19.498,judgeSpeechMusic_20210519_logNormShiftAmp_mXs,2020.1.2,MacIntel,60,,,,,,,,,,,,,,2,5.6639,,0,0,64,64,73,1,stimuli/stim_20210519_power2amp/equal_lnn_AM2.5Hz_s35_40.m4a,,,
,,,,,,,,,,,,41296,2021-06-18_19h35.19.498,judgeSpeechMusic_20210519_logNormShiftAmp_mXs,2020.1.2,MacIntel,60,,,,,,,,,,,,,,2,6.2517,,0,0,65,65,128,1,stimuli/stim_20210519_power2amp/equal_lnn_AM4Hz_s35_15.m4a,,,
,,,,,,,,,,,,41296,2021-06-18_19h35.19.498,judgeSpeechMusic_20210519_logNormShiftAmp_mXs,2020.1.2,MacIntel,60,,,,,,,,,,,,,,2,5.7887,,0,0,66,66,114,1,stimuli/stim_20210519_power2amp/equal_lnn_AM4Hz_s25_49.m4a,,,
,,,,,,,,,,,,41296,2021-06-18_19h35.19.498,judgeSpeechMusic_20210519_logNormShiftAmp_mXs,2020.1.2,MacIntel,60,,,,,,,,,,,,,,1,5.961,,0,0,67,67,30,1,stimuli/stim_20210519_power2amp/equal_lnn_AM1Hz_s45_10.m4a,,,
,,,,,,,,,,,,41296,2021-06-18_19h35.19.498,judgeSpeechMusic_20210519_logNormShiftAmp_mXs,2020.1.2,MacIntel,60,,,,,,,,,,,,,,1,5.8538,,0,0,68,68,90,1,stimuli/stim_20210519_power2amp/equal_lnn_AM2.5Hz_s55_6.m4a,,,
,,,,,,,,,,,,41296,2021-06-18_19h35.19.498,judgeSpeechMusic_20210519_logNormShiftAmp_mXs,2020.1.2,MacIntel,60,,,,,,,,,,,,,,1,6.8287,,0,0,69,69,144,1,stimuli/stim_20210519_power2amp/equal_lnn_AM4Hz_s55_7.m4a,,,
,,,,,,,,,,,,41296,2021-06-18_19h35.19.498,judgeSpeechMusic_20210519_logNormShiftAmp_mXs,2020.1.2,MacIntel,60,,,,,,,,,,,,,,2,7.3823,,0,0,70,70,63,1,stimuli/stim_20210519_power2amp/equal_lnn_AM2.5Hz_s25_37.m4a,,,
,,,,,,,,,,,,41296,2021-06-18_19h35.19.498,judgeSpeechMusic_20210519_logNormShiftAmp_mXs,2020.1.2,MacIntel,60,,,,,,,,,,,,,,1,6.0381,,0,0,71,71,48,1,stimuli/stim_20210519_power2amp/equal_lnn_AM1Hz_s55_21.m4a,,,
,,,,,,,,,,,,41296,2021-06-18_19h35.19.498,judgeSpeechMusic_20210519_logNormShiftAmp_mXs,2020.1.2,MacIntel,60,,,,,,,,,,,,,,1,5.9301,,0,0,72,72,15,1,stimuli/stim_20210519_power2amp/equal_lnn_AM1Hz_s25_33.m4a,,,
,,,,,,,,,,,,41296,2021-06-18_19h35.19.498,judgeSpeechMusic_20210519_logNormShiftAmp_mXs,2020.1.2,MacIntel,60,,,,,,,,,,,,,,1,6.2639,,0,0,73,73,68,1,stimuli/stim_20210519_power2amp/equal_lnn_AM2.5Hz_s25_36.m4a,,,
,,,,,,,,,,,,41296,2021-06-18_19h35.19.498,judgeSpeechMusic_20210519_logNormShiftAmp_mXs,2020.1.2,MacIntel,60,,,,,,,,,,,,,,1,5.6451,,0,0,74,74,147,1,stimuli/stim_20210519_power2amp/equal_lnn_AM4Hz_s55_5.m4a,,,
,,,,,,,,,,,,41296,2021-06-18_19h35.19.498,judgeSpeechMusic_20210519_logNormShiftAmp_mXs,2020.1.2,MacIntel,60,,,,,,,,,,,,,,1,5.7957,,0,0,75,75,18,1,stimuli/stim_20210519_power2amp/equal_lnn_AM1Hz_s25_10.m4a,,,
,,,,,,,,,,,,41296,2021-06-18_19h35.19.498,judgeSpeechMusic_20210519_logNormShiftAmp_mXs,2020.1.2,MacIntel,60,,,,,,,,,,,,,,1,5.6795,,0,0,76,76,93,1,stimuli/stim_20210519_power2amp/equal_lnn_AM2.5Hz_s55_3.m4a,,,
,,,,,,,,,,,,41296,2021-06-18_19h35.19.498,judgeSpeechMusic_20210519_logNormShiftAmp_mXs,2020.1.2,MacIntel,60,,,,,,,,,,,,,,2,6.0453,,0,0,77,77,146,1,stimuli/stim_20210519_power2amp/equal_lnn_AM4Hz_s55_6.m4a,,,
,,,,,,,,,,,,41296,2021-06-18_19h35.19.498,judgeSpeechMusic_20210519_logNormShiftAmp_mXs,2020.1.2,MacIntel,60,,,,,,,,,,,,,,1,5.9122,4,1,0,78,78,33,1,stimuli/stim_20210519_power2amp/equal_lnn_AM1Hz_s45_29.m4a,1.7571,,
,,,,,,,,,,,,41296,2021-06-18_19h35.19.498,judgeSpeechMusic_20210519_logNormShiftAmp_mXs,2020.1.2,MacIntel,60,,,,,,,,,,,,,,2,6.1618,,0,0,79,79,116,1,stimuli/stim_20210519_power2amp/equal_lnn_AM4Hz_s25_2.m4a,,,
,,,,,,,,,,,,41296,2021-06-18_19h35.19.498,judgeSpeechMusic_20210519_logNormShiftAmp_mXs,2020.1.2,MacIntel,60,,,,,,,,,,,,,,2,8.521,,0,0,80,80,19,1,stimuli/stim_20210519_power2amp/equal_lnn_AM1Hz_s25_41.m4a,,,
,,,,,,,,,,,,41296,2021-06-18_19h35.19.498,judgeSpeechMusic_20210519_logNormShiftAmp_mXs,2020.1.2,MacIntel,60,,,,,,,,,,,,,,2,7.4271,,0,0,81,81,86,1,stimuli/stim_20210519_power2amp/equal_lnn_AM2.5Hz_s45_44.m4a,,,
,,,,,,,,,,,,41296,2021-06-18_19h35.19.498,judgeSpeechMusic_20210519_logNormShiftAmp_mXs,2020.1.2,MacIntel,60,,,,,,,,,,,,,,2,5.596,,0,0,82,82,137,1,stimuli/stim_20210519_power2amp/equal_lnn_AM4Hz_s45_8.m4a,,,
,,,,,,,,,,,,41296,2021-06-18_19h35.19.498,judgeSpeechMusic_20210519_logNormShiftAmp_mXs,2020.1.2,MacIntel,60,,,,,,,,,,,,,,1,6.7157,,0,0,83,83,5,1,stimuli/stim_20210519_power2amp/equal_lnn_AM1Hz_s15_35.m4a,,,
,,,,,,,,,,,,41296,2021-06-18_19h35.19.498,judgeSpeechMusic_20210519_logNormShiftAmp_mXs,2020.1.2,MacIntel,60,,,,,,,,,,,,,,1,6.4517,,0,0,84,84,2,1,stimuli/stim_20210519_power2amp/equal_lnn_AM1Hz_s15_34.m4a,,,
,,,,,,,,,,,,41296,2021-06-18_19h35.19.498,judgeSpeechMusic_20210519_logNormShiftAmp_mXs,2020.1.2,MacIntel,60,,,,,,,,,,,,,,1,6.3926,,0,0,85,85,94,1,stimuli/stim_20210519_power2amp/equal_lnn_AM2.5Hz_s55_4.m4a,,,
,,,,,,,,,,,,41296,2021-06-18_19h35.19.498,judgeSpeechMusic_20210519_logNormShiftAmp_mXs,2020.1.2,MacIntel,60,,,,,,,,,,,,,,1,5.7145,,0,0,86,86,28,1,stimuli/stim_20210519_power2amp/equal_lnn_AM1Hz_s35_45.m4a,,,
,,,,,,,,,,,,41296,2021-06-18_19h35.19.498,judgeSpeechMusic_20210519_logNormShiftAmp_mXs,2020.1.2,MacIntel,60,,,,,,,,,,,,,,1,7.0536,,0,0,87,87,58,1,stimuli/stim_20210519_power2amp/equal_lnn_AM2.5Hz_s15_12.m4a,,,
,,,,,,,,,,,,41296,2021-06-18_19h35.19.498,judgeSpeechMusic_20210519_logNormShiftAmp_mXs,2020.1.2,MacIntel,60,,,,,,,,,,,,,,2,5.5963,,0,0,88,88,99,1,stimuli/stim_20210519_power2amp/equal_lnn_AM2.5Hz_s55_17.m4a,,,
,,,,,,,,,,,,41296,2021-06-18_19h35.19.498,judgeSpeechMusic_20210519_logNormShiftAmp_mXs,2020.1.2,MacIntel,60,,,,,,,,,,,,,,2,6.2086,,0,0,89,89,129,1,stimuli/stim_20210519_power2amp/equal_lnn_AM4Hz_s35_20.m4a,,,
,,,,,,,,,,,,41296,2021-06-18_19h35.19.498,judgeSpeechMusic_20210519_logNormShiftAmp_mXs,2020.1.2,MacIntel,60,,,,,,,,,,,,,,2,5.9314,,0,0,90,90,97,1,stimuli/stim_20210519_power2amp/equal_lnn_AM2.5Hz_s55_27.m4a,,,
,,,,,,,,,,,,41296,2021-06-18_19h35.19.498,judgeSpeechMusic_20210519_logNormShiftAmp_mXs,2020.1.2,MacIntel,60,,,,,,,,,,,,,,2,5.7471,,0,0,91,91,72,1,stimuli/stim_20210519_power2amp/equal_lnn_AM2.5Hz_s35_25.m4a,,,
,,,,,,,,,,,,41296,2021-06-18_19h35.19.498,judgeSpeechMusic_20210519_logNormShiftAmp_mXs,2020.1.2,MacIntel,60,,,,,,,,,,,,,,1,6.2097,,0,0,92,92,34,1,stimuli/stim_20210519_power2amp/equal_lnn_AM1Hz_s45_32.m4a,,,
,,,,,,,,,,,,41296,2021-06-18_19h35.19.498,judgeSpeechMusic_20210519_logNormShiftAmp_mXs,2020.1.2,MacIntel,60,,,,,,,,,,,,,,1,9.6052,,0,0,93,93,24,1,stimuli/stim_20210519_power2amp/equal_lnn_AM1Hz_s35_19.m4a,,,
,,,,,,,,,,,,41296,2021-06-18_19h35.19.498,judgeSpeechMusic_20210519_logNormShiftAmp_mXs,2020.1.2,MacIntel,60,,,,,,,,,,,,,,2,6.7041,,0,0,94,94,64,1,stimuli/stim_20210519_power2amp/equal_lnn_AM2.5Hz_s25_41.m4a,,,
,,,,,,,,,,,,41296,2021-06-18_19h35.19.498,judgeSpeechMusic_20210519_logNormShiftAmp_mXs,2020.1.2,MacIntel,60,,,,,,,,,,,,,,2,6.1385,,0,0,95,95,126,1,stimuli/stim_20210519_power2amp/equal_lnn_AM4Hz_s35_23.m4a,,,
,,,,,,,,,,,,41296,2021-06-18_19h35.19.498,judgeSpeechMusic_20210519_logNormShiftAmp_mXs,2020.1.2,MacIntel,60,,,,,,,,,,,,,,2,6.2143,,0,0,96,96,74,1,stimuli/stim_20210519_power2amp/equal_lnn_AM2.5Hz_s35_38.m4a,,,
,,,,,,,,,,,,41296,2021-06-18_19h35.19.498,judgeSpeechMusic_20210519_logNormShiftAmp_mXs,2020.1.2,MacIntel,60,,,,,,,,,,,,,,1,5.828,,0,0,97,97,35,1,stimuli/stim_20210519_power2amp/equal_lnn_AM1Hz_s45_43.m4a,,,
,,,,,,,,,,,,41296,2021-06-18_19h35.19.498,judgeSpeechMusic_20210519_logNormShiftAmp_mXs,2020.1.2,MacIntel,60,,,,,,,,,,,,,,2,6.6128,,0,0,98,98,23,1,stimuli/stim_20210519_power2amp/equal_lnn_AM1Hz_s35_40.m4a,,,
,,,,,,,,,,,,41296,2021-06-18_19h35.19.498,judgeSpeechMusic_20210519_logNormShiftAmp_mXs,2020.1.2,MacIntel,60,,,,,,,,,,,,,,1,6.3549,,0,0,99,99,98,1,stimuli/stim_20210519_power2amp/equal_lnn_AM2.5Hz_s55_10.m4a,,,
,,,,,,,,,,,,41296,2021-06-18_19h35.19.498,judgeSpeechMusic_20210519_logNormShiftAmp_mXs,2020.1.2,MacIntel,60,,,,,,,,,,,,,,1,6.3098,,0,0,100,100,38,1,stimuli/stim_20210519_power2amp/equal_lnn_AM1Hz_s45_31.m4a,,,
,,,,,,,,,,,,41296,2021-06-18_19h35.19.498,judgeSpeechMusic_20210519_logNormShiftAmp_mXs,2020.1.2,MacIntel,60,,,,,,,,,,,,,,1,9.9292,4,1,0,101,101,89,1,stimuli/stim_20210519_power2amp/equal_lnn_AM2.5Hz_s45_28.m4a,1.1492,,
,,,,,,,,,,,,41296,2021-06-18_19h35.19.498,judgeSpeechMusic_20210519_logNormShiftAmp_mXs,2020.1.2,MacIntel,60,,,,,,,,,,,,,,1,5.8293,,0,0,102,102,142,1,stimuli/stim_20210519_power2amp/equal_lnn_AM4Hz_s55_34.m4a,,,
,,,,,,,,,,,,41296,2021-06-18_19h35.19.498,judgeSpeechMusic_20210519_logNormShiftAmp_mXs,2020.1.2,MacIntel,60,,,,,,,,,,,,,,2,6.2804,,0,0,103,103,56,1,stimuli/stim_20210519_power2amp/equal_lnn_AM2.5Hz_s15_13.m4a,,,
,,,,,,,,,,,,41296,2021-06-18_19h35.19.498,judgeSpeechMusic_20210519_logNormShiftAmp_mXs,2020.1.2,MacIntel,60,,,,,,,,,,,,,,1,6.7934,,0,0,104,104,4,1,stimuli/stim_20210519_power2amp/equal_lnn_AM1Hz_s15_5.m4a,,,
,,,,,,,,,,,,41296,2021-06-18_19h35.19.498,judgeSpeechMusic_20210519_logNormShiftAmp_mXs,2020.1.2,MacIntel,60,,,,,,,,,,,,,,1,6.2441,,0,0,105,105,57,1,stimuli/stim_20210519_power2amp/equal_lnn_AM2.5Hz_s15_49.m4a,,,
,,,,,,,,,,,,41296,2021-06-18_19h35.19.498,judgeSpeechMusic_20210519_logNormShiftAmp_mXs,2020.1.2,MacIntel,60,,,,,,,,,,,,,,1,6.4554,,0,0,106,106,78,1,stimuli/stim_20210519_power2amp/equal_lnn_AM2.5Hz_s35_34.m4a,,,
,,,,,,,,,,,,41296,2021-06-18_19h35.19.498,judgeSpeechMusic_20210519_logNormShiftAmp_mXs,2020.1.2,MacIntel,60,,,,,,,,,,,,,,2,6.3215,,0,0,107,107,92,1,stimuli/stim_20210519_power2amp/equal_lnn_AM2.5Hz_s55_18.m4a,,,
,,,,,,,,,,,,41296,2021-06-18_19h35.19.498,judgeSpeechMusic_20210519_logNormShiftAmp_mXs,2020.1.2,MacIntel,60,,,,,,,,,,,,,,2,5.6802,,0,0,108,108,80,1,stimuli/stim_20210519_power2amp/equal_lnn_AM2.5Hz_s45_10.m4a,,,
,,,,,,,,,,,,41296,2021-06-18_19h35.19.498,judgeSpeechMusic_20210519_logNormShiftAmp_mXs,2020.1.2,MacIntel,60,,,,,,,,,,,,,,2,5.7965,,0,0,109,109,127,1,stimuli/stim_20210519_power2amp/equal_lnn_AM4Hz_s35_1.m4a,,,
,,,,,,,,,,,,41296,2021-06-18_19h35.19.498,judgeSpeechMusic_20210519_logNormShiftAmp_mXs,2020.1.2,MacIntel,60,,,,,,,,,,,,,,2,6.2602,,0,0,110,110,81,1,stimuli/stim_20210519_power2amp/equal_lnn_AM2.5Hz_s45_2.m4a,,,
,,,,,,,,,,,,41296,2021-06-18_19h35.19.498,judgeSpeechMusic_20210519_logNormShiftAmp_mXs,2020.1.2,MacIntel,60,,,,,,,,,,,,,,2,6.0626,,0,0,111,111,49,1,stimuli/stim_20210519_power2amp/equal_lnn_AM1Hz_s55_19.m4a,,,
,,,,,,,,,,,,41296,2021-06-18_19h35.19.498,judgeSpeechMusic_20210519_logNormShiftAmp_mXs,2020.1.2,MacIntel,60,,,,,,,,,,,,,,2,5.6419,,0,0,112,112,53,1,stimuli/stim_20210519_power2amp/equal_lnn_AM2.5Hz_s15_18.m4a,,,
,,,,,,,,,,,,41296,2021-06-18_19h35.19.498,judgeSpeechMusic_20210519_logNormShiftAmp_mXs,2020.1.2,MacIntel,60,,,,,,,,,,,,,,1,6.129,,0,0,113,113,17,1,stimuli/stim_20210519_power2amp/equal_lnn_AM1Hz_s25_30.m4a,,,
,,,,,,,,,,,,41296,2021-06-18_19h35.19.498,judgeSpeechMusic_20210519_logNormShiftAmp_mXs,2020.1.2,MacIntel,60,,,,,,,,,,,,,,1,6.1628,,0,0,114,114,13,1,stimuli/stim_20210519_power2amp/equal_lnn_AM1Hz_s25_1.m4a,,,
,,,,,,,,,,,,41296,2021-06-18_19h35.19.498,judgeSpeechMusic_20210519_logNormShiftAmp_mXs,2020.1.2,MacIntel,60,,,,,,,,,,,,,,1,5.8448,,0,0,115,115,11,1,stimuli/stim_20210519_power2amp/equal_lnn_AM1Hz_s25_2.m4a,,,
,,,,,,,,,,,,41296,2021-06-18_19h35.19.498,judgeSpeechMusic_20210519_logNormShiftAmp_mXs,2020.1.2,MacIntel,60,,,,,,,,,,,,,,1,5.6686,,0,0,116,116,25,1,stimuli/stim_20210519_power2amp/equal_lnn_AM1Hz_s35_48.m4a,,,
,,,,,,,,,,,,41296,2021-06-18_19h35.19.498,judgeSpeechMusic_20210519_logNormShiftAmp_mXs,2020.1.2,MacIntel,60,,,,,,,,,,,,,,2,6.2381,,0,0,117,117,104,1,stimuli/stim_20210519_power2amp/equal_lnn_AM4Hz_s15_17.m4a,,,
,,,,,,,,,,,,41296,2021-06-18_19h35.19.498,judgeSpeechMusic_20210519_logNormShiftAmp_mXs,2020.1.2,MacIntel,60,,,,,,,,,,,,,,1,6.3793,,0,0,118,118,16,1,stimuli/stim_20210519_power2amp/equal_lnn_AM1Hz_s25_49.m4a,,,
,,,,,,,,,,,,41296,2021-06-18_19h35.19.498,judgeSpeechMusic_20210519_logNormShiftAmp_mXs,2020.1.2,MacIntel,60,,,,,,,,,,,,,,2,6.6295,,0,0,119,119,67,1,stimuli/stim_20210519_power2amp/equal_lnn_AM2.5Hz_s25_42.m4a,,,
,,,,,,,,,,,,41296,2021-06-18_19h35.19.498,judgeSpeechMusic_20210519_logNormShiftAmp_mXs,2020.1.2,MacIntel,60,,,,,,,,,,,,,,2,5.9317,,0,0,120,120,83,1,stimuli/stim_20210519_power2amp/equal_lnn_AM2.5Hz_s45_27.m4a,,,
,,,,,,,,,,,,41296,2021-06-18_19h35.19.498,judgeSpeechMusic_20210519_logNormShiftAmp_mXs,2020.1.2,MacIntel,60,,,,,,,,,,,,,,1,6.6552,,0,0,121,121,20,1,stimuli/stim_20210519_power2amp/equal_lnn_AM1Hz_s35_2.m4a,,,
,,,,,,,,,,,,41296,2021-06-18_19h35.19.498,judgeSpeechMusic_20210519_logNormShiftAmp_mXs,2020.1.2,MacIntel,60,,,,,,,,,,,,,,1,5.7298,,0,0,122,122,124,1,stimuli/stim_20210519_power2amp/equal_lnn_AM4Hz_s35_2.m4a,,,
,,,,,,,,,,,,41296,2021-06-18_19h35.19.498,judgeSpeechMusic_20210519_logNormShiftAmp_mXs,2020.1.2,MacIntel,60,,,,,,,,,,,,,,1,5.9779,1,1,0,123,123,96,1,stimuli/stim_20210519_power2amp/equal_lnn_AM2.5Hz_s55_9.m4a,0.948,,
,,,,,,,,,,,,41296,2021-06-18_19h35.19.498,judgeSpeechMusic_20210519_logNormShiftAmp_mXs,2020.1.2,MacIntel,60,,,,,,,,,,,,,,2,6.4971,,0,0,124,124,121,1,stimuli/stim_20210519_power2amp/equal_lnn_AM4Hz_s35_37.m4a,,,
,,,,,,,,,,,,41296,2021-06-18_19h35.19.498,judgeSpeechMusic_20210519_logNormShiftAmp_mXs,2020.1.2,MacIntel,60,,,,,,,,,,,,,,1,6.4616,,0,0,125,125,47,1,stimuli/stim_20210519_power2amp/equal_lnn_AM1Hz_s55_12.m4a,,,
,,,,,,,,,,,,41296,2021-06-18_19h35.19.498,judgeSpeechMusic_20210519_logNormShiftAmp_mXs,2020.1.2,MacIntel,60,,,,,,,,,,,,,,2,6.6704,,0,0,126,126,70,1,stimuli/stim_20210519_power2amp/equal_lnn_AM2.5Hz_s35_29.m4a,,,
,,,,,,,,,,,,41296,2021-06-18_19h35.19.498,judgeSpeechMusic_20210519_logNormShiftAmp_mXs,2020.1.2,MacIntel,60,,,,,,,,,,,,,,2,5.68,,0,0,127,127,131,1,stimuli/stim_20210519_power2amp/equal_lnn_AM4Hz_s45_19.m4a,,,
,,,,,,,,,,,,41296,2021-06-18_19h35.19.498,judgeSpeechMusic_20210519_logNormShiftAmp_mXs,2020.1.2,MacIntel,60,,,,,,,,,,,,,,1,5.8812,,0,0,128,128,9,1,stimuli/stim_20210519_power2amp/equal_lnn_AM1Hz_s15_50.m4a,,,
,,,,,,,,,,,,41296,2021-06-18_19h35.19.498,judgeSpeechMusic_20210519_logNormShiftAmp_mXs,2020.1.2,MacIntel,60,,,,,,,,,,,,,,1,5.6192,,0,0,129,129,0,1,stimuli/stim_20210519_power2amp/equal_lnn_AM1Hz_s15_45.m4a,,,
,,,,,,,,,,,,41296,2021-06-18_19h35.19.498,judgeSpeechMusic_20210519_logNormShiftAmp_mXs,2020.1.2,MacIntel,60,,,,,,,,,,,,,,2,5.9058,,0,0,130,130,91,1,stimuli/stim_20210519_power2amp/equal_lnn_AM2.5Hz_s55_42.m4a,,,
,,,,,,,,,,,,41296,2021-06-18_19h35.19.498,judgeSpeechMusic_20210519_logNormShiftAmp_mXs,2020.1.2,MacIntel,60,,,,,,,,,,,,,,1,6.5373,,0,0,131,131,41,1,stimuli/stim_20210519_power2amp/equal_lnn_AM1Hz_s55_37.m4a,,,
,,,,,,,,,,,,41296,2021-06-18_19h35.19.498,judgeSpeechMusic_20210519_logNormShiftAmp_mXs,2020.1.2,MacIntel,60,,,,,,,,,,,,,,2,6.4895,,0,0,132,132,87,1,stimuli/stim_20210519_power2amp/equal_lnn_AM2.5Hz_s45_42.m4a,,,
,,,,,,,,,,,,41296,2021-06-18_19h35.19.498,judgeSpeechMusic_20210519_logNormShiftAmp_mXs,2020.1.2,MacIntel,60,,,,,,,,,,,,,,2,5.7396,,0,0,133,133,88,1,stimuli/stim_20210519_power2amp/equal_lnn_AM2.5Hz_s45_21.m4a,,,
,,,,,,,,,,,,41296,2021-06-18_19h35.19.498,judgeSpeechMusic_20210519_logNormShiftAmp_mXs,2020.1.2,MacIntel,60,,,,,,,,,,,,,,2,5.7459,,0,0,134,134,149,1,stimuli/stim_20210519_power2amp/equal_lnn_AM4Hz_s55_44.m4a,,,
,,,,,,,,,,,,41296,2021-06-18_19h35.19.498,judgeSpeechMusic_20210519_logNormShiftAmp_mXs,2020.1.2,MacIntel,60,,,,,,,,,,,,,,2,6.4202,,0,0,135,135,82,1,stimuli/stim_20210519_power2amp/equal_lnn_AM2.5Hz_s45_46.m4a,,,
,,,,,,,,,,,,41296,2021-06-18_19h35.19.498,judgeSpeechMusic_20210519_logNormShiftAmp_mXs,2020.1.2,MacIntel,60,,,,,,,,,,,,,,2,6.2385,,0,0,136,136,71,1,stimuli/stim_20210519_power2amp/equal_lnn_AM2.5Hz_s35_7.m4a,,,
,,,,,,,,,,,,41296,2021-06-18_19h35.19.498,judgeSpeechMusic_20210519_logNormShiftAmp_mXs,2020.1.2,MacIntel,60,,,,,,,,,,,,,,2,6.0986,,0,0,137,137,52,1,stimuli/stim_20210519_power2amp/equal_lnn_AM2.5Hz_s15_4.m4a,,,
,,,,,,,,,,,,41296,2021-06-18_19h35.19.498,judgeSpeechMusic_20210519_logNormShiftAmp_mXs,2020.1.2,MacIntel,60,,,,,,,,,,,,,,1,6.1699,,0,0,138,138,107,1,stimuli/stim_20210519_power2amp/equal_lnn_AM4Hz_s15_30.m4a,,,
,,,,,,,,,,,,41296,2021-06-18_19h35.19.498,judgeSpeechMusic_20210519_logNormShiftAmp_mXs,2020.1.2,MacIntel,60,,,,,,,,,,,,,,1,6.3385,,0,0,139,139,10,1,stimuli/stim_20210519_power2amp/equal_lnn_AM1Hz_s25_37.m4a,,,
,,,,,,,,,,,,41296,2021-06-18_19h35.19.498,judgeSpeechMusic_20210519_logNormShiftAmp_mXs,2020.1.2,MacIntel,60,,,,,,,,,,,,,,1,8.0301,,0,0,140,140,139,1,stimuli/stim_20210519_power2amp/equal_lnn_AM4Hz_s45_17.m4a,,,
,,,,,,,,,,,,41296,2021-06-18_19h35.19.498,judgeSpeechMusic_20210519_logNormShiftAmp_mXs,2020.1.2,MacIntel,60,,,,,,,,,,,,,,2,6.1611,,0,0,141,141,148,1,stimuli/stim_20210519_power2amp/equal_lnn_AM4Hz_s55_9.m4a,,,
,,,,,,,,,,,,41296,2021-06-18_19h35.19.498,judgeSpeechMusic_20210519_logNormShiftAmp_mXs,2020.1.2,MacIntel,60,,,,,,,,,,,,,,2,7.8459,,0,0,142,142,108,1,stimuli/stim_20210519_power2amp/equal_lnn_AM4Hz_s15_36.m4a,,,
,,,,,,,,,,,,41296,2021-06-18_19h35.19.498,judgeSpeechMusic_20210519_logNormShiftAmp_mXs,2020.1.2,MacIntel,60,,,,,,,,,,,,,,2,6.6266,,0,0,143,143,145,1,stimuli/stim_20210519_power2amp/equal_lnn_AM4Hz_s55_17.m4a,,,
,,,,,,,,,,,,41296,2021-06-18_19h35.19.498,judgeSpeechMusic_20210519_logNormShiftAmp_mXs,2020.1.2,MacIntel,60,,,,,,,,,,,,,,2,5.673,,0,0,144,144,136,1,stimuli/stim_20210519_power2amp/equal_lnn_AM4Hz_s45_50.m4a,,,
,,,,,,,,,,,,41296,2021-06-18_19h35.19.498,judgeSpeechMusic_20210519_logNormShiftAmp_mXs,2020.1.2,MacIntel,60,,,,,,,,,,,,,,1,5.9941,3,1,0,145,145,59,1,stimuli/stim_20210519_power2amp/equal_lnn_AM2.5Hz_s15_20.m4a,0.44,,
,,,,,,,,,,,,41296,2021-06-18_19h35.19.498,judgeSpeechMusic_20210519_logNormShiftAmp_mXs,2020.1.2,MacIntel,60,,,,,,,,,,,,,,2,6.0446,,0,0,146,146,77,1,stimuli/stim_20210519_power2amp/equal_lnn_AM2.5Hz_s35_44.m4a,,,
,,,,,,,,,,,,41296,2021-06-18_19h35.19.498,judgeSpeechMusic_20210519_logNormShiftAmp_mXs,2020.1.2,MacIntel,60,,,,,,,,,,,,,,2,6.3448,,0,0,147,147,84,1,stimuli/stim_20210519_power2amp/equal_lnn_AM2.5Hz_s45_29.m4a,,,
,,,,,,,,,,,,41296,2021-06-18_19h35.19.498,judgeSpeechMusic_20210519_logNormShiftAmp_mXs,2020.1.2,MacIntel,60,,,,,,,,,,,,,,2,6.0432,,0,0,148,148,69,1,stimuli/stim_20210519_power2amp/equal_lnn_AM2.5Hz_s25_47.m4a,,,
,,,,,,,,,,,,41296,2021-06-18_19h35.19.498,judgeSpeechMusic_20210519_logNormShiftAmp_mXs,2020.1.2,MacIntel,60,,,,,,,,,,,,,,2,6.0108,,0,0,149,149,61,1,stimuli/stim_20210519_power2amp/equal_lnn_AM2.5Hz_s25_48.m4a,,,
,,,,,,,,,,,,41296,2021-06-18_19h35.19.498,judgeSpeechMusic_20210519_logNormShiftAmp_mXs,2020.1.2,MacIntel,60,,,,,,,,,,,,,,2,5.6726,,0,1,0,150,72,1,stimuli/stim_20210519_power2amp/equal_lnn_AM2.5Hz_s35_25.m4a,,,
,,,,,,,,,,,,41296,2021-06-18_19h35.19.498,judgeSpeechMusic_20210519_logNormShiftAmp_mXs,2020.1.2,MacIntel,60,,,,,,,,,,,,,,1,6.4778,,0,1,1,151,16,1,stimuli/stim_20210519_power2amp/equal_lnn_AM1Hz_s25_49.m4a,,,
,,,,,,,,,,,,41296,2021-06-18_19h35.19.498,judgeSpeechMusic_20210519_logNormShiftAmp_mXs,2020.1.2,MacIntel,60,,,,,,,,,,,,,,1,6.0262,,0,1,2,152,47,1,stimuli/stim_20210519_power2amp/equal_lnn_AM1Hz_s55_12.m4a,,,
,,,,,,,,,,,,41296,2021-06-18_19h35.19.498,judgeSpeechMusic_20210519_logNormShiftAmp_mXs,2020.1.2,MacIntel,60,,,,,,,,,,,,,,1,6.7084,,0,1,3,153,137,1,stimuli/stim_20210519_power2amp/equal_lnn_AM4Hz_s45_8.m4a,,,
,,,,,,,,,,,,41296,2021-06-18_19h35.19.498,judgeSpeechMusic_20210519_logNormShiftAmp_mXs,2020.1.2,MacIntel,60,,,,,,,,,,,,,,2,5.6107,,0,1,4,154,118,1,stimuli/stim_20210519_power2amp/equal_lnn_AM4Hz_s25_23.m4a,,,
,,,,,,,,,,,,41296,2021-06-18_19h35.19.498,judgeSpeechMusic_20210519_logNormShiftAmp_mXs,2020.1.2,MacIntel,60,,,,,,,,,,,,,,1,6.1876,,0,1,5,155,110,1,stimuli/stim_20210519_power2amp/equal_lnn_AM4Hz_s25_21.m4a,,,
,,,,,,,,,,,,41296,2021-06-18_19h35.19.498,judgeSpeechMusic_20210519_logNormShiftAmp_mXs,2020.1.2,MacIntel,60,,,,,,,,,,,,,,1,5.6781,,0,1,6,156,39,1,stimuli/stim_20210519_power2amp/equal_lnn_AM1Hz_s45_40.m4a,,,
,,,,,,,,,,,,41296,2021-06-18_19h35.19.498,judgeSpeechMusic_20210519_logNormShiftAmp_mXs,2020.1.2,MacIntel,60,,,,,,,,,,,,,,1,6.529,,0,1,7,157,102,1,stimuli/stim_20210519_power2amp/equal_lnn_AM4Hz_s15_49.m4a,,,
,,,,,,,,,,,,41296,2021-06-18_19h35.19.498,judgeSpeechMusic_20210519_logNormShiftAmp_mXs,2020.1.2,MacIntel,60,,,,,,,,,,,,,,1,5.7947,,0,1,8,158,35,1,stimuli/stim_20210519_power2amp/equal_lnn_AM1Hz_s45_43.m4a,,,
,,,,,,,,,,,,41296,2021-06-18_19h35.19.498,judgeSpeechMusic_20210519_logNormShiftAmp_mXs,2020.1.2,MacIntel,60,,,,,,,,,,,,,,1,6.1319,,0,1,9,159,11,1,stimuli/stim_20210519_power2amp/equal_lnn_AM1Hz_s25_2.m4a,,,
,,,,,,,,,,,,41296,2021-06-18_19h35.19.498,judgeSpeechMusic_20210519_logNormShiftAmp_mXs,2020.1.2,MacIntel,60,,,,,,,,,,,,,,1,6.4809,,0,1,10,160,12,1,stimuli/stim_20210519_power2amp/equal_lnn_AM1Hz_s25_20.m4a,,,
,,,,,,,,,,,,41296,2021-06-18_19h35.19.498,judgeSpeechMusic_20210519_logNormShiftAmp_mXs,2020.1.2,MacIntel,60,,,,,,,,,,,,,,2,6.4807,,0,1,11,161,54,1,stimuli/stim_20210519_power2amp/equal_lnn_AM2.5Hz_s15_2.m4a,,,
,,,,,,,,,,,,41296,2021-06-18_19h35.19.498,judgeSpeechMusic_20210519_logNormShiftAmp_mXs,2020.1.2,MacIntel,60,,,,,,,,,,,,,,2,6.9907,,0,1,12,162,131,1,stimuli/stim_20210519_power2amp/equal_lnn_AM4Hz_s45_19.m4a,,,
,,,,,,,,,,,,41296,2021-06-18_19h35.19.498,judgeSpeechMusic_20210519_logNormShiftAmp_mXs,2020.1.2,MacIntel,60,,,,,,,,,,,,,,2,5.8292,,0,1,13,163,87,1,stimuli/stim_20210519_power2amp/equal_lnn_AM2.5Hz_s45_42.m4a,,,
,,,,,,,,,,,,41296,2021-06-18_19h35.19.498,judgeSpeechMusic_20210519_logNormShiftAmp_mXs,2020.1.2,MacIntel,60,,,,,,,,,,,,,,2,6.9291,,0,1,14,164,56,1,stimuli/stim_20210519_power2amp/equal_lnn_AM2.5Hz_s15_13.m4a,,,
,,,,,,,,,,,,41296,2021-06-18_19h35.19.498,judgeSpeechMusic_20210519_logNormShiftAmp_mXs,2020.1.2,MacIntel,60,,,,,,,,,,,,,,2,5.8477,,0,1,15,165,25,1,stimuli/stim_20210519_power2amp/equal_lnn_AM1Hz_s35_48.m4a,,,
,,,,,,,,,,,,41296,2021-06-18_19h35.19.498,judgeSpeechMusic_20210519_logNormShiftAmp_mXs,2020.1.2,MacIntel,60,,,,,,,,,,,,,,1,6.8285,,0,1,16,166,98,1,stimuli/stim_20210519_power2amp/equal_lnn_AM2.5Hz_s55_10.m4a,,,
,,,,,,,,,,,,41296,2021-06-18_19h35.19.498,judgeSpeechMusic_20210519_logNormShiftAmp_mXs,2020.1.2,MacIntel,60,,,,,,,,,,,,,,1,7.2564,,0,1,17,167,123,1,stimuli/stim_20210519_power2amp/equal_lnn_AM4Hz_s35_50.m4a,,,
,,,,,,,,,,,,41296,2021-06-18_19h35.19.498,judgeSpeechMusic_20210519_logNormShiftAmp_mXs,2020.1.2,MacIntel,60,,,,,,,,,,,,,,1,6.9608,,0,1,18,168,28,1,stimuli/stim_20210519_power2amp/equal_lnn_AM1Hz_s35_45.m4a,,,
,,,,,,,,,,,,41296,2021-06-18_19h35.19.498,judgeSpeechMusic_20210519_logNormShiftAmp_mXs,2020.1.2,MacIntel,60,,,,,,,,,,,,,,2,7.4628,,0,1,19,169,141,1,stimuli/stim_20210519_power2amp/equal_lnn_AM4Hz_s55_22.m4a,,,
,,,,,,,,,,,,41296,2021-06-18_19h35.19.498,judgeSpeechMusic_20210519_logNormShiftAmp_mXs,2020.1.2,MacIntel,60,,,,,,,,,,,,,,2,10.2318,3,1,1,20,170,122,1,stimuli/stim_20210519_power2amp/equal_lnn_AM4Hz_s35_41.m4a,0.6579,,
,,,,,,,,,,,,41296,2021-06-18_19h35.19.498,judgeSpeechMusic_20210519_logNormShiftAmp_mXs,2020.1.2,MacIntel,60,,,,,,,,,,,,,,2,6.3889,,0,1,21,171,103,1,stimuli/stim_20210519_power2amp/equal_lnn_AM4Hz_s15_43.m4a,,,
,,,,,,,,,,,,41296,2021-06-18_19h35.19.498,judgeSpeechMusic_20210519_logNormShiftAmp_mXs,2020.1.2,MacIntel,60,,,,,,,,,,,,,,2,7.2877,,0,1,22,172,136,1,stimuli/stim_20210519_power2amp/equal_lnn_AM4Hz_s45_50.m4a,,,
,,,,,,,,,,,,41296,2021-06-18_19h35.19.498,judgeSpeechMusic_20210519_logNormShiftAmp_mXs,2020.1.2,MacIntel,60,,,,,,,,,,,,,,2,5.9955,,0,1,23,173,42,1,stimuli/stim_20210519_power2amp/equal_lnn_AM1Hz_s55_50.m4a,,,
,,,,,,,,,,,,41296,2021-06-18_19h35.19.498,judgeSpeechMusic_20210519_logNormShiftAmp_mXs,2020.1.2,MacIntel,60,,,,,,,,,,,,,,1,6.9969,,0,1,24,174,8,1,stimuli/stim_20210519_power2amp/equal_lnn_AM1Hz_s15_20.m4a,,,
,,,,,,,,,,,,41296,2021-06-18_19h35.19.498,judgeSpeechMusic_20210519_logNormShiftAmp_mXs,2020.1.2,MacIntel,60,,,,,,,,,,,,,,2,6.7407,,0,1,25,175,126,1,stimuli/stim_20210519_power2amp/equal_lnn_AM4Hz_s35_23.m4a,,,
,,,,,,,,,,,,41296,2021-06-18_19h35.19.498,judgeSpeechMusic_20210519_logNormShiftAmp_mXs,2020.1.2,MacIntel,60,,,,,,,,,,,,,,1,9.8131,,0,1,26,176,38,1,stimuli/stim_20210519_power2amp/equal_lnn_AM1Hz_s45_31.m4a,,,
,,,,,,,,,,,,41296,2021-06-18_19h35.19.498,judgeSpeechMusic_20210519_logNormShiftAmp_mXs,2020.1.2,MacIntel,60,,,,,,,,,,,,,,2,9.5461,,0,1,27,177,95,1,stimuli/stim_20210519_power2amp/equal_lnn_AM2.5Hz_s55_19.m4a,,,
,,,,,,,,,,,,41296,2021-06-18_19h35.19.498,judgeSpeechMusic_20210519_logNormShiftAmp_mXs,2020.1.2,MacIntel,60,,,,,,,,,,,,,,2,6.2018,,0,1,28,178,112,1,stimuli/stim_20210519_power2amp/equal_lnn_AM4Hz_s25_39.m4a,,,
,,,,,,,,,,,,41296,2021-06-18_19h35.19.498,judgeSpeechMusic_20210519_logNormShiftAmp_mXs,2020.1.2,MacIntel,60,,,,,,,,,,,,,,2,6.4292,,0,1,29,179,68,1,stimuli/stim_20210519_power2amp/equal_lnn_AM2.5Hz_s25_36.m4a,,,
,,,,,,,,,,,,41296,2021-06-18_19h35.19.498,judgeSpeechMusic_20210519_logNormShiftAmp_mXs,2020.1.2,MacIntel,60,,,,,,,,,,,,,,1,7.2661,,0,1,30,180,48,1,stimuli/stim_20210519_power2amp/equal_lnn_AM1Hz_s55_21.m4a,,,
,,,,,,,,,,,,41296,2021-06-18_19h35.19.498,judgeSpeechMusic_20210519_logNormShiftAmp_mXs,2020.1.2,MacIntel,60,,,,,,,,,,,,,,1,6.5709,,0,1,31,181,19,1,stimuli/stim_20210519_power2amp/equal_lnn_AM1Hz_s25_41.m4a,,,
,,,,,,,,,,,,41296,2021-06-18_19h35.19.498,judgeSpeechMusic_20210519_logNormShiftAmp_mXs,2020.1.2,MacIntel,60,,,,,,,,,,,,,,1,5.6797,,0,1,32,182,100,1,stimuli/stim_20210519_power2amp/equal_lnn_AM4Hz_s15_10.m4a,,,
,,,,,,,,,,,,41296,2021-06-18_19h35.19.498,judgeSpeechMusic_20210519_logNormShiftAmp_mXs,2020.1.2,MacIntel,60,,,,,,,,,,,,,,1,6.7132,,0,1,33,183,65,1,stimuli/stim_20210519_power2amp/equal_lnn_AM2.5Hz_s25_23.m4a,,,
,,,,,,,,,,,,41296,2021-06-18_19h35.19.498,judgeSpeechMusic_20210519_logNormShiftAmp_mXs,2020.1.2,MacIntel,60,,,,,,,,,,,,,,2,7.8773,,0,1,34,184,78,1,stimuli/stim_20210519_power2amp/equal_lnn_AM2.5Hz_s35_34.m4a,,,
,,,,,,,,,,,,41296,2021-06-18_19h35.19.498,judgeSpeechMusic_20210519_logNormShiftAmp_mXs,2020.1.2,MacIntel,60,,,,,,,,,,,,,,2,5.2451,,0,1,35,185,135,1,stimuli/stim_20210519_power2amp/equal_lnn_AM4Hz_s45_47.m4a,,,
,,,,,,,,,,,,41296,2021-06-18_19h35.19.498,judgeSpeechMusic_20210519_logNormShiftAmp_mXs,2020.1.2,MacIntel,60,,,,,,,,,,,,,,2,6.0457,,0,1,36,186,46,1,stimuli/stim_20210519_power2amp/equal_lnn_AM1Hz_s55_7.m4a,,,
,,,,,,,,,,,,41296,2021-06-18_19h35.19.498,judgeSpeechMusic_20210519_logNormShiftAmp_mXs,2020.1.2,MacIntel,60,,,,,,,,,,,,,,2,5.78,,0,1,37,187,73,1,stimuli/stim_20210519_power2amp/equal_lnn_AM2.5Hz_s35_40.m4a,,,
,,,,,,,,,,,,41296,2021-06-18_19h35.19.498,judgeSpeechMusic_20210519_logNormShiftAmp_mXs,2020.1.2,MacIntel,60,,,,,,,,,,,,,,2,5.688,,0,1,38,188,128,1,stimuli/stim_20210519_power2amp/equal_lnn_AM4Hz_s35_15.m4a,,,
,,,,,,,,,,,,41296,2021-06-18_19h35.19.498,judgeSpeechMusic_20210519_logNormShiftAmp_mXs,2020.1.2,MacIntel,60,,,,,,,,,,,,,,2,5.5544,,0,1,39,189,62,1,stimuli/stim_20210519_power2amp/equal_lnn_AM2.5Hz_s25_31.m4a,,,
,,,,,,,,,,,,41296,2021-06-18_19h35.19.498,judgeSpeechMusic_20210519_logNormShiftAmp_mXs,2020.1.2,MacIntel,60,,,,,,,,,,,,,,2,5.8464,,0,1,40,190,94,1,stimuli/stim_20210519_power2amp/equal_lnn_AM2.5Hz_s55_4.m4a,,,
,,,,,,,,,,,,41296,2021-06-18_19h35.19.498,judgeSpeechMusic_20210519_logNormShiftAmp_mXs,2020.1.2,MacIntel,60,,,,,,,,,,,,,,2,6.841,,0,1,41,191,90,1,stimuli/stim_20210519_power2amp/equal_lnn_AM2.5Hz_s55_6.m4a,,,
,,,,,,,,,,,,41296,2021-06-18_19h35.19.498,judgeSpeechMusic_20210519_logNormShiftAmp_mXs,2020.1.2,MacIntel,60,,,,,,,,,,,,,,1,7.2584,,0,1,42,192,31,1,stimuli/stim_20210519_power2amp/equal_lnn_AM1Hz_s45_25.m4a,,,
,,,,,,,,,,,,41296,2021-06-18_19h35.19.498,judgeSpeechMusic_20210519_logNormShiftAmp_mXs,2020.1.2,MacIntel,60,,,,,,,,,,,,,,2,5.8969,2,1,1,43,193,105,1,stimuli/stim_20210519_power2amp/equal_lnn_AM4Hz_s15_31.m4a,0.5329,,
,,,,,,,,,,,,41296,2021-06-18_19h35.19.498,judgeSpeechMusic_20210519_logNormShiftAmp_mXs,2020.1.2,MacIntel,60,,,,,,,,,,,,,,1,6.3071,,0,1,44,194,58,1,stimuli/stim_20210519_power2amp/equal_lnn_AM2.5Hz_s15_12.m4a,,,
,,,,,,,,,,,,41296,2021-06-18_19h35.19.498,judgeSpeechMusic_20210519_logNormShiftAmp_mXs,2020.1.2,MacIntel,60,,,,,,,,,,,,,,1,8.6813,,0,1,45,195,5,1,stimuli/stim_20210519_power2amp/equal_lnn_AM1Hz_s15_35.m4a,,,
,,,,,,,,,,,,41296,2021-06-18_19h35.19.498,judgeSpeechMusic_20210519_logNormShiftAmp_mXs,2020.1.2,MacIntel,60,,,,,,,,,,,,,,2,6.3277,,0,1,46,196,89,1,stimuli/stim_20210519_power2amp/equal_lnn_AM2.5Hz_s45_28.m4a,,,
,,,,,,,,,,,,41296,2021-06-18_19h35.19.498,judgeSpeechMusic_20210519_logNormShiftAmp_mXs,2020.1.2,MacIntel,60,,,,,,,,,,,,,,2,5.4942,,0,1,47,197,127,1,stimuli/stim_20210519_power2amp/equal_lnn_AM4Hz_s35_1.m4a,,,
,,,,,,,,,,,,41296,2021-06-18_19h35.19.498,judgeSpeechMusic_20210519_logNormShiftAmp_mXs,2020.1.2,MacIntel,60,,,,,,,,,,,,,,2,6.2796,,0,1,48,198,82,1,stimuli/stim_20210519_power2amp/equal_lnn_AM2.5Hz_s45_46.m4a,,,
,,,,,,,,,,,,41296,2021-06-18_19h35.19.498,judgeSpeechMusic_20210519_logNormShiftAmp_mXs,2020.1.2,MacIntel,60,,,,,,,,,,,,,,2,5.4297,,0,1,49,199,108,1,stimuli/stim_20210519_power2amp/equal_lnn_AM4Hz_s15_36.m4a,,,
,,,,,,,,,,,,41296,2021-06-18_19h35.19.498,judgeSpeechMusic_20210519_logNormShiftAmp_mXs,2020.1.2,MacIntel,60,,,,,,,,,,,,,,1,6.8389,,0,1,50,200,9,1,stimuli/stim_20210519_power2amp/equal_lnn_AM1Hz_s15_50.m4a,,,
,,,,,,,,,,,,41296,2021-06-18_19h35.19.498,judgeSpeechMusic_20210519_logNormShiftAmp_mXs,2020.1.2,MacIntel,60,,,,,,,,,,,,,,2,5.9287,,0,1,51,201,120,1,stimuli/stim_20210519_power2amp/equal_lnn_AM4Hz_s35_49.m4a,,,
,,,,,,,,,,,,41296,2021-06-18_19h35.19.498,judgeSpeechMusic_20210519_logNormShiftAmp_mXs,2020.1.2,MacIntel,60,,,,,,,,,,,,,,1,7.2212,,0,1,52,202,37,1,stimuli/stim_20210519_power2amp/equal_lnn_AM1Hz_s45_3.m4a,,,
,,,,,,,,,,,,41296,2021-06-18_19h35.19.498,judgeSpeechMusic_20210519_logNormShiftAmp_mXs,2020.1.2,MacIntel,60,,,,,,,,,,,,,,2,6.6464,,0,1,53,203,61,1,stimuli/stim_20210519_power2amp/equal_lnn_AM2.5Hz_s25_48.m4a,,,
,,,,,,,,,,,,41296,2021-06-18_19h35.19.498,judgeSpeechMusic_20210519_logNormShiftAmp_mXs,2020.1.2,MacIntel,60,,,,,,,,,,,,,,1,6.78,,0,1,54,204,29,1,stimuli/stim_20210519_power2amp/equal_lnn_AM1Hz_s35_8.m4a,,,
,,,,,,,,,,,,41296,2021-06-18_19h35.19.498,judgeSpeechMusic_20210519_logNormShiftAmp_mXs,2020.1.2,MacIntel,60,,,,,,,,,,,,,,2,7.1282,,0,1,55,205,148,1,stimuli/stim_20210519_power2amp/equal_lnn_AM4Hz_s55_9.m4a,,,
,,,,,,,,,,,,41296,2021-06-18_19h35.19.498,judgeSpeechMusic_20210519_logNormShiftAmp_mXs,2020.1.2,MacIntel,60,,,,,,,,,,,,,,1,7.3253,,0,1,56,206,10,1,stimuli/stim_20210519_power2amp/equal_lnn_AM1Hz_s25_37.m4a,,,
,,,,,,,,,,,,41296,2021-06-18_19h35.19.498,judgeSpeechMusic_20210519_logNormShiftAmp_mXs,2020.1.2,MacIntel,60,,,,,,,,,,,,,,2,8.2812,,0,1,57,207,140,1,stimuli/stim_20210519_power2amp/equal_lnn_AM4Hz_s55_12.m4a,,,
,,,,,,,,,,,,41296,2021-06-18_19h35.19.498,judgeSpeechMusic_20210519_logNormShiftAmp_mXs,2020.1.2,MacIntel,60,,,,,,,,,,,,,,2,7.1935,,0,1,58,208,74,1,stimuli/stim_20210519_power2amp/equal_lnn_AM2.5Hz_s35_38.m4a,,,
,,,,,,,,,,,,41296,2021-06-18_19h35.19.498,judgeSpeechMusic_20210519_logNormShiftAmp_mXs,2020.1.2,MacIntel,60,,,,,,,,,,,,,,1,7.6778,,0,1,59,209,13,1,stimuli/stim_20210519_power2amp/equal_lnn_AM1Hz_s25_1.m4a,,,
,,,,,,,,,,,,41296,2021-06-18_19h35.19.498,judgeSpeechMusic_20210519_logNormShiftAmp_mXs,2020.1.2,MacIntel,60,,,,,,,,,,,,,,1,6.8134,,0,1,60,210,34,1,stimuli/stim_20210519_power2amp/equal_lnn_AM1Hz_s45_32.m4a,,,
,,,,,,,,,,,,41296,2021-06-18_19h35.19.498,judgeSpeechMusic_20210519_logNormShiftAmp_mXs,2020.1.2,MacIntel,60,,,,,,,,,,,,,,1,11.0807,,0,1,61,211,142,1,stimuli/stim_20210519_power2amp/equal_lnn_AM4Hz_s55_34.m4a,,,
,,,,,,,,,,,,41296,2021-06-18_19h35.19.498,judgeSpeechMusic_20210519_logNormShiftAmp_mXs,2020.1.2,MacIntel,60,,,,,,,,,,,,,,2,5.612,,0,1,62,212,76,1,stimuli/stim_20210519_power2amp/equal_lnn_AM2.5Hz_s35_35.m4a,,,
,,,,,,,,,,,,41296,2021-06-18_19h35.19.498,judgeSpeechMusic_20210519_logNormShiftAmp_mXs,2020.1.2,MacIntel,60,,,,,,,,,,,,,,2,6.2265,2,1,1,63,213,88,1,stimuli/stim_20210519_power2amp/equal_lnn_AM2.5Hz_s45_21.m4a,0.6061,,
,,,,,,,,,,,,41296,2021-06-18_19h35.19.498,judgeSpeechMusic_20210519_logNormShiftAmp_mXs,2020.1.2,MacIntel,60,,,,,,,,,,,,,,2,7.4626,,0,1,64,214,40,1,stimuli/stim_20210519_power2amp/equal_lnn_AM1Hz_s55_38.m4a,,,
,,,,,,,,,,,,41296,2021-06-18_19h35.19.498,judgeSpeechMusic_20210519_logNormShiftAmp_mXs,2020.1.2,MacIntel,60,,,,,,,,,,,,,,1,7.9131,,0,1,65,215,33,1,stimuli/stim_20210519_power2amp/equal_lnn_AM1Hz_s45_29.m4a,,,
,,,,,,,,,,,,41296,2021-06-18_19h35.19.498,judgeSpeechMusic_20210519_logNormShiftAmp_mXs,2020.1.2,MacIntel,60,,,,,,,,,,,,,,2,6.0947,,0,1,66,216,93,1,stimuli/stim_20210519_power2amp/equal_lnn_AM2.5Hz_s55_3.m4a,,,
,,,,,,,,,,,,41296,2021-06-18_19h35.19.498,judgeSpeechMusic_20210519_logNormShiftAmp_mXs,2020.1.2,MacIntel,60,,,,,,,,,,,,,,2,6.0616,,0,1,67,217,149,1,stimuli/stim_20210519_power2amp/equal_lnn_AM4Hz_s55_44.m4a,,,
,,,,,,,,,,,,41296,2021-06-18_19h35.19.498,judgeSpeechMusic_20210519_logNormShiftAmp_mXs,2020.1.2,MacIntel,60,,,,,,,,,,,,,,2,6.7643,,0,1,68,218,130,1,stimuli/stim_20210519_power2amp/equal_lnn_AM4Hz_s45_12.m4a,,,
,,,,,,,,,,,,41296,2021-06-18_19h35.19.498,judgeSpeechMusic_20210519_logNormShiftAmp_mXs,2020.1.2,MacIntel,60,,,,,,,,,,,,,,2,5.8452,,0,1,69,219,138,1,stimuli/stim_20210519_power2amp/equal_lnn_AM4Hz_s45_22.m4a,,,
,,,,,,,,,,,,41296,2021-06-18_19h35.19.498,judgeSpeechMusic_20210519_logNormShiftAmp_mXs,2020.1.2,MacIntel,60,,,,,,,,,,,,,,2,6.2473,,0,1,70,220,70,1,stimuli/stim_20210519_power2amp/equal_lnn_AM2.5Hz_s35_29.m4a,,,
,,,,,,,,,,,,41296,2021-06-18_19h35.19.498,judgeSpeechMusic_20210519_logNormShiftAmp_mXs,2020.1.2,MacIntel,60,,,,,,,,,,,,,,2,6.6953,,0,1,71,221,146,1,stimuli/stim_20210519_power2amp/equal_lnn_AM4Hz_s55_6.m4a,,,
,,,,,,,,,,,,41296,2021-06-18_19h35.19.498,judgeSpeechMusic_20210519_logNormShiftAmp_mXs,2020.1.2,MacIntel,60,,,,,,,,,,,,,,2,5.444,,0,1,72,222,139,1,stimuli/stim_20210519_power2amp/equal_lnn_AM4Hz_s45_17.m4a,,,
,,,,,,,,,,,,41296,2021-06-18_19h35.19.498,judgeSpeechMusic_20210519_logNormShiftAmp_mXs,2020.1.2,MacIntel,60,,,,,,,,,,,,,,1,5.8615,,0,1,73,223,52,1,stimuli/stim_20210519_power2amp/equal_lnn_AM2.5Hz_s15_4.m4a,,,
,,,,,,,,,,,,41296,2021-06-18_19h35.19.498,judgeSpeechMusic_20210519_logNormShiftAmp_mXs,2020.1.2,MacIntel,60,,,,,,,,,,,,,,2,5.6459,,0,1,74,224,96,1,stimuli/stim_20210519_power2amp/equal_lnn_AM2.5Hz_s55_9.m4a,,,
,,,,,,,,,,,,41296,2021-06-18_19h35.19.498,judgeSpeechMusic_20210519_logNormShiftAmp_mXs,2020.1.2,MacIntel,60,,,,,,,,,,,,,,1,6.0971,,0,1,75,225,45,1,stimuli/stim_20210519_power2amp/equal_lnn_AM1Hz_s55_35.m4a,,,
,,,,,,,,,,,,41296,2021-06-18_19h35.19.498,judgeSpeechMusic_20210519_logNormShiftAmp_mXs,2020.1.2,MacIntel,60,,,,,,,,,,,,,,1,5.612,,0,1,76,226,49,1,stimuli/stim_20210519_power2amp/equal_lnn_AM1Hz_s55_19.m4a,,,
,,,,,,,,,,,,41296,2021-06-18_19h35.19.498,judgeSpeechMusic_20210519_logNormShiftAmp_mXs,2020.1.2,MacIntel,60,,,,,,,,,,,,,,1,9.2955,,0,1,77,227,121,1,stimuli/stim_20210519_power2amp/equal_lnn_AM4Hz_s35_37.m4a,,,
,,,,,,,,,,,,41296,2021-06-18_19h35.19.498,judgeSpeechMusic_20210519_logNormShiftAmp_mXs,2020.1.2,MacIntel,60,,,,,,,,,,,,,,1,5.5628,,0,1,78,228,27,1,stimuli/stim_20210519_power2amp/equal_lnn_AM1Hz_s35_33.m4a,,,
,,,,,,,,,,,,41296,2021-06-18_19h35.19.498,judgeSpeechMusic_20210519_logNormShiftAmp_mXs,2020.1.2,MacIntel,60,,,,,,,,,,,,,,1,5.9603,,0,1,79,229,26,1,stimuli/stim_20210519_power2amp/equal_lnn_AM1Hz_s35_13.m4a,,,
,,,,,,,,,,,,41296,2021-06-18_19h35.19.498,judgeSpeechMusic_20210519_logNormShiftAmp_mXs,2020.1.2,MacIntel,60,,,,,,,,,,,,,,2,6.3962,,0,1,80,230,86,1,stimuli/stim_20210519_power2amp/equal_lnn_AM2.5Hz_s45_44.m4a,,,
,,,,,,,,,,,,41296,2021-06-18_19h35.19.498,judgeSpeechMusic_20210519_logNormShiftAmp_mXs,2020.1.2,MacIntel,60,,,,,,,,,,,,,,1,7.7277,,0,1,81,231,51,1,stimuli/stim_20210519_power2amp/equal_lnn_AM2.5Hz_s15_16.m4a,,,
,,,,,,,,,,,,41296,2021-06-18_19h35.19.498,judgeSpeechMusic_20210519_logNormShiftAmp_mXs,2020.1.2,MacIntel,60,,,,,,,,,,,,,,1,6.829,,0,1,82,232,23,1,stimuli/stim_20210519_power2amp/equal_lnn_AM1Hz_s35_40.m4a,,,
,,,,,,,,,,,,41296,2021-06-18_19h35.19.498,judgeSpeechMusic_20210519_logNormShiftAmp_mXs,2020.1.2,MacIntel,60,,,,,,,,,,,,,,1,5.794,4,1,1,83,233,15,1,stimuli/stim_20210519_power2amp/equal_lnn_AM1Hz_s25_33.m4a,0.4658,,
,,,,,,,,,,,,41296,2021-06-18_19h35.19.498,judgeSpeechMusic_20210519_logNormShiftAmp_mXs,2020.1.2,MacIntel,60,,,,,,,,,,,,,,1,6.8454,,0,1,84,234,0,1,stimuli/stim_20210519_power2amp/equal_lnn_AM1Hz_s15_45.m4a,,,
,,,,,,,,,,,,41296,2021-06-18_19h35.19.498,judgeSpeechMusic_20210519_logNormShiftAmp_mXs,2020.1.2,MacIntel,60,,,,,,,,,,,,,,1,7.7281,,0,1,85,235,66,1,stimuli/stim_20210519_power2amp/equal_lnn_AM2.5Hz_s25_22.m4a,,,
,,,,,,,,,,,,41296,2021-06-18_19h35.19.498,judgeSpeechMusic_20210519_logNormShiftAmp_mXs,2020.1.2,MacIntel,60,,,,,,,,,,,,,,2,6.8796,,0,1,86,236,104,1,stimuli/stim_20210519_power2amp/equal_lnn_AM4Hz_s15_17.m4a,,,
,,,,,,,,,,,,41296,2021-06-18_19h35.19.498,judgeSpeechMusic_20210519_logNormShiftAmp_mXs,2020.1.2,MacIntel,60,,,,,,,,,,,,,,2,6.0776,,0,1,87,237,114,1,stimuli/stim_20210519_power2amp/equal_lnn_AM4Hz_s25_49.m4a,,,
,,,,,,,,,,,,41296,2021-06-18_19h35.19.498,judgeSpeechMusic_20210519_logNormShiftAmp_mXs,2020.1.2,MacIntel,60,,,,,,,,,,,,,,2,5.8115,,0,1,88,238,125,1,stimuli/stim_20210519_power2amp/equal_lnn_AM4Hz_s35_11.m4a,,,
,,,,,,,,,,,,41296,2021-06-18_19h35.19.498,judgeSpeechMusic_20210519_logNormShiftAmp_mXs,2020.1.2,MacIntel,60,,,,,,,,,,,,,,2,6.3304,,0,1,89,239,116,1,stimuli/stim_20210519_power2amp/equal_lnn_AM4Hz_s25_2.m4a,,,
,,,,,,,,,,,,41296,2021-06-18_19h35.19.498,judgeSpeechMusic_20210519_logNormShiftAmp_mXs,2020.1.2,MacIntel,60,,,,,,,,,,,,,,2,6.5804,,0,1,90,240,84,1,stimuli/stim_20210519_power2amp/equal_lnn_AM2.5Hz_s45_29.m4a,,,
,,,,,,,,,,,,41296,2021-06-18_19h35.19.498,judgeSpeechMusic_20210519_logNormShiftAmp_mXs,2020.1.2,MacIntel,60,,,,,,,,,,,,,,1,6.3053,,0,1,91,241,3,1,stimuli/stim_20210519_power2amp/equal_lnn_AM1Hz_s15_15.m4a,,,
,,,,,,,,,,,,41296,2021-06-18_19h35.19.498,judgeSpeechMusic_20210519_logNormShiftAmp_mXs,2020.1.2,MacIntel,60,,,,,,,,,,,,,,2,6.8451,,0,1,92,242,57,1,stimuli/stim_20210519_power2amp/equal_lnn_AM2.5Hz_s15_49.m4a,,,
,,,,,,,,,,,,41296,2021-06-18_19h35.19.498,judgeSpeechMusic_20210519_logNormShiftAmp_mXs,2020.1.2,MacIntel,60,,,,,,,,,,,,,,1,7.6613,,0,1,93,243,133,1,stimuli/stim_20210519_power2amp/equal_lnn_AM4Hz_s45_33.m4a,,,
,,,,,,,,,,,,41296,2021-06-18_19h35.19.498,judgeSpeechMusic_20210519_logNormShiftAmp_mXs,2020.1.2,MacIntel,60,,,,,,,,,,,,,,1,6.7579,,0,1,94,244,77,1,stimuli/stim_20210519_power2amp/equal_lnn_AM2.5Hz_s35_44.m4a,,,
,,,,,,,,,,,,41296,2021-06-18_19h35.19.498,judgeSpeechMusic_20210519_logNormShiftAmp_mXs,2020.1.2,MacIntel,60,,,,,,,,,,,,,,1,6.4566,,0,1,95,245,17,1,stimuli/stim_20210519_power2amp/equal_lnn_AM1Hz_s25_30.m4a,,,
,,,,,,,,,,,,41296,2021-06-18_19h35.19.498,judgeSpeechMusic_20210519_logNormShiftAmp_mXs,2020.1.2,MacIntel,60,,,,,,,,,,,,,,1,5.8225,,0,1,96,246,107,1,stimuli/stim_20210519_power2amp/equal_lnn_AM4Hz_s15_30.m4a,,,
,,,,,,,,,,,,41296,2021-06-18_19h35.19.498,judgeSpeechMusic_20210519_logNormShiftAmp_mXs,2020.1.2,MacIntel,60,,,,,,,,,,,,,,2,7.2627,,0,1,97,247,115,1,stimuli/stim_20210519_power2amp/equal_lnn_AM4Hz_s25_20.m4a,,,
,,,,,,,,,,,,41296,2021-06-18_19h35.19.498,judgeSpeechMusic_20210519_logNormShiftAmp_mXs,2020.1.2,MacIntel,60,,,,,,,,,,,,,,1,6.0793,,0,1,98,248,30,1,stimuli/stim_20210519_power2amp/equal_lnn_AM1Hz_s45_10.m4a,,,
,,,,,,,,,,,,41296,2021-06-18_19h35.19.498,judgeSpeechMusic_20210519_logNormShiftAmp_mXs,2020.1.2,MacIntel,60,,,,,,,,,,,,,,1,6.826,,0,1,99,249,69,1,stimuli/stim_20210519_power2amp/equal_lnn_AM2.5Hz_s25_47.m4a,,,
,,,,,,,,,,,,41296,2021-06-18_19h35.19.498,judgeSpeechMusic_20210519_logNormShiftAmp_mXs,2020.1.2,MacIntel,60,,,,,,,,,,,,,,1,6.8805,,0,1,100,250,44,1,stimuli/stim_20210519_power2amp/equal_lnn_AM1Hz_s55_6.m4a,,,
,,,,,,,,,,,,41296,2021-06-18_19h35.19.498,judgeSpeechMusic_20210519_logNormShiftAmp_mXs,2020.1.2,MacIntel,60,,,,,,,,,,,,,,1,6.1124,,0,1,101,251,144,1,stimuli/stim_20210519_power2amp/equal_lnn_AM4Hz_s55_7.m4a,,,
,,,,,,,,,,,,41296,2021-06-18_19h35.19.498,judgeSpeechMusic_20210519_logNormShiftAmp_mXs,2020.1.2,MacIntel,60,,,,,,,,,,,,,,1,7.0353,,0,1,102,252,119,1,stimuli/stim_20210519_power2amp/equal_lnn_AM4Hz_s25_34.m4a,,,
,,,,,,,,,,,,41296,2021-06-18_19h35.19.498,judgeSpeechMusic_20210519_logNormShiftAmp_mXs,2020.1.2,MacIntel,60,,,,,,,,,,,,,,1,7.9536,,0,1,103,253,67,1,stimuli/stim_20210519_power2amp/equal_lnn_AM2.5Hz_s25_42.m4a,,,
,,,,,,,,,,,,41296,2021-06-18_19h35.19.498,judgeSpeechMusic_20210519_logNormShiftAmp_mXs,2020.1.2,MacIntel,60,,,,,,,,,,,,,,2,6.3123,,0,1,104,254,129,1,stimuli/stim_20210519_power2amp/equal_lnn_AM4Hz_s35_20.m4a,,,
,,,,,,,,,,,,41296,2021-06-18_19h35.19.498,judgeSpeechMusic_20210519_logNormShiftAmp_mXs,2020.1.2,MacIntel,60,,,,,,,,,,,,,,1,7.446,,0,1,105,255,18,1,stimuli/stim_20210519_power2amp/equal_lnn_AM1Hz_s25_10.m4a,,,
,,,,,,,,,,,,41296,2021-06-18_19h35.19.498,judgeSpeechMusic_20210519_logNormShiftAmp_mXs,2020.1.2,MacIntel,60,,,,,,,,,,,,,,1,7.491,4,1,1,106,256,64,1,stimuli/stim_20210519_power2amp/equal_lnn_AM2.5Hz_s25_41.m4a,0.8922,,
,,,,,,,,,,,,41296,2021-06-18_19h35.19.498,judgeSpeechMusic_20210519_logNormShiftAmp_mXs,2020.1.2,MacIntel,60,,,,,,,,,,,,,,2,6.4279,,0,1,107,257,21,1,stimuli/stim_20210519_power2amp/equal_lnn_AM1Hz_s35_4.m4a,,,
,,,,,,,,,,,,41296,2021-06-18_19h35.19.498,judgeSpeechMusic_20210519_logNormShiftAmp_mXs,2020.1.2,MacIntel,60,,,,,,,,,,,,,,2,5.8971,,0,1,108,258,145,1,stimuli/stim_20210519_power2amp/equal_lnn_AM4Hz_s55_17.m4a,,,
,,,,,,,,,,,,41296,2021-06-18_19h35.19.498,judgeSpeechMusic_20210519_logNormShiftAmp_mXs,2020.1.2,MacIntel,60,,,,,,,,,,,,,,2,6.1946,,0,1,109,259,55,1,stimuli/stim_20210519_power2amp/equal_lnn_AM2.5Hz_s15_27.m4a,,,
,,,,,,,,,,,,41296,2021-06-18_19h35.19.498,judgeSpeechMusic_20210519_logNormShiftAmp_mXs,2020.1.2,MacIntel,60,,,,,,,,,,,,,,2,5.7126,,0,1,110,260,106,1,stimuli/stim_20210519_power2amp/equal_lnn_AM4Hz_s15_24.m4a,,,
,,,,,,,,,,,,41296,2021-06-18_19h35.19.498,judgeSpeechMusic_20210519_logNormShiftAmp_mXs,2020.1.2,MacIntel,60,,,,,,,,,,,,,,2,6.4626,,0,1,111,261,97,1,stimuli/stim_20210519_power2amp/equal_lnn_AM2.5Hz_s55_27.m4a,,,
,,,,,,,,,,,,41296,2021-06-18_19h35.19.498,judgeSpeechMusic_20210519_logNormShiftAmp_mXs,2020.1.2,MacIntel,60,,,,,,,,,,,,,,2,11.3603,,0,1,112,262,6,1,stimuli/stim_20210519_power2amp/equal_lnn_AM1Hz_s15_10.m4a,,,
,,,,,,,,,,,,41296,2021-06-18_19h35.19.498,judgeSpeechMusic_20210519_logNormShiftAmp_mXs,2020.1.2,MacIntel,60,,,,,,,,,,,,,,2,6.4577,,0,1,113,263,134,1,stimuli/stim_20210519_power2amp/equal_lnn_AM4Hz_s45_42.m4a,,,
,,,,,,,,,,,,41296,2021-06-18_19h35.19.498,judgeSpeechMusic_20210519_logNormShiftAmp_mXs,2020.1.2,MacIntel,60,,,,,,,,,,,,,,2,6.6298,,0,1,114,264,60,1,stimuli/stim_20210519_power2amp/equal_lnn_AM2.5Hz_s25_18.m4a,,,
,,,,,,,,,,,,41296,2021-06-18_19h35.19.498,judgeSpeechMusic_20210519_logNormShiftAmp_mXs,2020.1.2,MacIntel,60,,,,,,,,,,,,,,2,5.9304,,0,1,115,265,99,1,stimuli/stim_20210519_power2amp/equal_lnn_AM2.5Hz_s55_17.m4a,,,
,,,,,,,,,,,,41296,2021-06-18_19h35.19.498,judgeSpeechMusic_20210519_logNormShiftAmp_mXs,2020.1.2,MacIntel,60,,,,,,,,,,,,,,1,6.5308,,0,1,116,266,4,1,stimuli/stim_20210519_power2amp/equal_lnn_AM1Hz_s15_5.m4a,,,
,,,,,,,,,,,,41296,2021-06-18_19h35.19.498,judgeSpeechMusic_20210519_logNormShiftAmp_mXs,2020.1.2,MacIntel,60,,,,,,,,,,,,,,1,5.9883,,0,1,117,267,75,1,stimuli/stim_20210519_power2amp/equal_lnn_AM2.5Hz_s35_49.m4a,,,
,,,,,,,,,,,,41296,2021-06-18_19h35.19.498,judgeSpeechMusic_20210519_logNormShiftAmp_mXs,2020.1.2,MacIntel,60,,,,,,,,,,,,,,1,6.4623,,0,1,118,268,92,1,stimuli/stim_20210519_power2amp/equal_lnn_AM2.5Hz_s55_18.m4a,,,
,,,,,,,,,,,,41296,2021-06-18_19h35.19.498,judgeSpeechMusic_20210519_logNormShiftAmp_mXs,2020.1.2,MacIntel,60,,,,,,,,,,,,,,1,5.3821,,0,1,119,269,32,1,stimuli/stim_20210519_power2amp/equal_lnn_AM1Hz_s45_15.m4a,,,
,,,,,,,,,,,,41296,2021-06-18_19h35.19.498,judgeSpeechMusic_20210519_logNormShiftAmp_mXs,2020.1.2,MacIntel,60,,,,,,,,,,,,,,1,10.0936,,0,1,120,270,7,1,stimuli/stim_20210519_power2amp/equal_lnn_AM1Hz_s15_30.m4a,,,
,,,,,,,,,,,,41296,2021-06-18_19h35.19.498,judgeSpeechMusic_20210519_logNormShiftAmp_mXs,2020.1.2,MacIntel,60,,,,,,,,,,,,,,1,9.8646,,0,1,121,271,71,1,stimuli/stim_20210519_power2amp/equal_lnn_AM2.5Hz_s35_7.m4a,,,
,,,,,,,,,,,,41296,2021-06-18_19h35.19.498,judgeSpeechMusic_20210519_logNormShiftAmp_mXs,2020.1.2,MacIntel,60,,,,,,,,,,,,,,1,8.2963,,0,1,122,272,41,1,stimuli/stim_20210519_power2amp/equal_lnn_AM1Hz_s55_37.m4a,,,
,,,,,,,,,,,,41296,2021-06-18_19h35.19.498,judgeSpeechMusic_20210519_logNormShiftAmp_mXs,2020.1.2,MacIntel,60,,,,,,,,,,,,,,1,6.8436,,0,1,123,273,36,1,stimuli/stim_20210519_power2amp/equal_lnn_AM1Hz_s45_18.m4a,,,
,,,,,,,,,,,,41296,2021-06-18_19h35.19.498,judgeSpeechMusic_20210519_logNormShiftAmp_mXs,2020.1.2,MacIntel,60,,,,,,,,,,,,,,2,5.628,,0,1,124,274,91,1,stimuli/stim_20210519_power2amp/equal_lnn_AM2.5Hz_s55_42.m4a,,,
,,,,,,,,,,,,41296,2021-06-18_19h35.19.498,judgeSpeechMusic_20210519_logNormShiftAmp_mXs,2020.1.2,MacIntel,60,,,,,,,,,,,,,,2,7.3695,,0,1,125,275,117,1,stimuli/stim_20210519_power2amp/equal_lnn_AM4Hz_s25_31.m4a,,,
,,,,,,,,,,,,41296,2021-06-18_19h35.19.498,judgeSpeechMusic_20210519_logNormShiftAmp_mXs,2020.1.2,MacIntel,60,,,,,,,,,,,,,,1,8.0454,,0,1,126,276,43,1,stimuli/stim_20210519_power2amp/equal_lnn_AM1Hz_s55_18.m4a,,,
,,,,,,,,,,,,41296,2021-06-18_19h35.19.498,judgeSpeechMusic_20210519_logNormShiftAmp_mXs,2020.1.2,MacIntel,60,,,,,,,,,,,,,,1,8.2955,,0,1,127,277,53,1,stimuli/stim_20210519_power2amp/equal_lnn_AM2.5Hz_s15_18.m4a,,,
,,,,,,,,,,,,41296,2021-06-18_19h35.19.498,judgeSpeechMusic_20210519_logNormShiftAmp_mXs,2020.1.2,MacIntel,60,,,,,,,,,,,,,,2,6.3613,,0,1,128,278,85,1,stimuli/stim_20210519_power2amp/equal_lnn_AM2.5Hz_s45_5.m4a,,,
,,,,,,,,,,,,41296,2021-06-18_19h35.19.498,judgeSpeechMusic_20210519_logNormShiftAmp_mXs,2020.1.2,MacIntel,60,,,,,,,,,,,,,,1,5.8378,4,1,1,129,279,24,1,stimuli/stim_20210519_power2amp/equal_lnn_AM1Hz_s35_19.m4a,0.6493,,
,,,,,,,,,,,,41296,2021-06-18_19h35.19.498,judgeSpeechMusic_20210519_logNormShiftAmp_mXs,2020.1.2,MacIntel,60,,,,,,,,,,,,,,1,5.908,,0,1,130,280,50,1,stimuli/stim_20210519_power2amp/equal_lnn_AM2.5Hz_s15_21.m4a,,,
,,,,,,,,,,,,41296,2021-06-18_19h35.19.498,judgeSpeechMusic_20210519_logNormShiftAmp_mXs,2020.1.2,MacIntel,60,,,,,,,,,,,,,,1,5.958,,0,1,131,281,143,1,stimuli/stim_20210519_power2amp/equal_lnn_AM4Hz_s55_42.m4a,,,
,,,,,,,,,,,,41296,2021-06-18_19h35.19.498,judgeSpeechMusic_20210519_logNormShiftAmp_mXs,2020.1.2,MacIntel,60,,,,,,,,,,,,,,2,6.6265,,0,1,132,282,113,1,stimuli/stim_20210519_power2amp/equal_lnn_AM4Hz_s25_1.m4a,,,
,,,,,,,,,,,,41296,2021-06-18_19h35.19.498,judgeSpeechMusic_20210519_logNormShiftAmp_mXs,2020.1.2,MacIntel,60,,,,,,,,,,,,,,2,6.3315,,0,1,133,283,109,1,stimuli/stim_20210519_power2amp/equal_lnn_AM4Hz_s15_19.m4a,,,
,,,,,,,,,,,,41296,2021-06-18_19h35.19.498,judgeSpeechMusic_20210519_logNormShiftAmp_mXs,2020.1.2,MacIntel,60,,,,,,,,,,,,,,1,8.6771,,0,1,134,284,20,1,stimuli/stim_20210519_power2amp/equal_lnn_AM1Hz_s35_2.m4a,,,
,,,,,,,,,,,,41296,2021-06-18_19h35.19.498,judgeSpeechMusic_20210519_logNormShiftAmp_mXs,2020.1.2,MacIntel,60,,,,,,,,,,,,,,1,8.3643,,0,1,135,285,2,1,stimuli/stim_20210519_power2amp/equal_lnn_AM1Hz_s15_34.m4a,,,
,,,,,,,,,,,,41296,2021-06-18_19h35.19.498,judgeSpeechMusic_20210519_logNormShiftAmp_mXs,2020.1.2,MacIntel,60,,,,,,,,,,,,,,2,7.2265,,0,1,136,286,79,1,stimuli/stim_20210519_power2amp/equal_lnn_AM2.5Hz_s35_8.m4a,,,
,,,,,,,,,,,,41296,2021-06-18_19h35.19.498,judgeSpeechMusic_20210519_logNormShiftAmp_mXs,2020.1.2,MacIntel,60,,,,,,,,,,,,,,2,6.4456,,0,1,137,287,132,1,stimuli/stim_20210519_power2amp/equal_lnn_AM4Hz_s45_35.m4a,,,
,,,,,,,,,,,,41296,2021-06-18_19h35.19.498,judgeSpeechMusic_20210519_logNormShiftAmp_mXs,2020.1.2,MacIntel,60,,,,,,,,,,,,,,2,9.4074,,0,1,138,288,80,1,stimuli/stim_20210519_power2amp/equal_lnn_AM2.5Hz_s45_10.m4a,,,
,,,,,,,,,,,,41296,2021-06-18_19h35.19.498,judgeSpeechMusic_20210519_logNormShiftAmp_mXs,2020.1.2,MacIntel,60,,,,,,,,,,,,,,1,5.9304,,0,1,139,289,22,1,stimuli/stim_20210519_power2amp/equal_lnn_AM1Hz_s35_7.m4a,,,
,,,,,,,,,,,,41296,2021-06-18_19h35.19.498,judgeSpeechMusic_20210519_logNormShiftAmp_mXs,2020.1.2,MacIntel,60,,,,,,,,,,,,,,2,5.8125,,0,1,140,290,111,1,stimuli/stim_20210519_power2amp/equal_lnn_AM4Hz_s25_22.m4a,,,
,,,,,,,,,,,,41296,2021-06-18_19h35.19.498,judgeSpeechMusic_20210519_logNormShiftAmp_mXs,2020.1.2,MacIntel,60,,,,,,,,,,,,,,2,6.2035,,0,1,141,291,147,1,stimuli/stim_20210519_power2amp/equal_lnn_AM4Hz_s55_5.m4a,,,
,,,,,,,,,,,,41296,2021-06-18_19h35.19.498,judgeSpeechMusic_20210519_logNormShiftAmp_mXs,2020.1.2,MacIntel,60,,,,,,,,,,,,,,2,6.213,,0,1,142,292,63,1,stimuli/stim_20210519_power2amp/equal_lnn_AM2.5Hz_s25_37.m4a,,,
,,,,,,,,,,,,41296,2021-06-18_19h35.19.498,judgeSpeechMusic_20210519_logNormShiftAmp_mXs,2020.1.2,MacIntel,60,,,,,,,,,,,,,,1,5.7194,,0,1,143,293,59,1,stimuli/stim_20210519_power2amp/equal_lnn_AM2.5Hz_s15_20.m4a,,,
,,,,,,,,,,,,41296,2021-06-18_19h35.19.498,judgeSpeechMusic_20210519_logNormShiftAmp_mXs,2020.1.2,MacIntel,60,,,,,,,,,,,,,,2,6.3644,,0,1,144,294,81,1,stimuli/stim_20210519_power2amp/equal_lnn_AM2.5Hz_s45_2.m4a,,,
,,,,,,,,,,,,41296,2021-06-18_19h35.19.498,judgeSpeechMusic_20210519_logNormShiftAmp_mXs,2020.1.2,MacIntel,60,,,,,,,,,,,,,,1,6.3286,,0,1,145,295,1,1,stimuli/stim_20210519_power2amp/equal_lnn_AM1Hz_s15_28.m4a,,,
,,,,,,,,,,,,41296,2021-06-18_19h35.19.498,judgeSpeechMusic_20210519_logNormShiftAmp_mXs,2020.1.2,MacIntel,60,,,,,,,,,,,,,,1,5.9274,,0,1,146,296,101,1,stimuli/stim_20210519_power2amp/equal_lnn_AM4Hz_s15_23.m4a,,,
,,,,,,,,,,,,41296,2021-06-18_19h35.19.498,judgeSpeechMusic_20210519_logNormShiftAmp_mXs,2020.1.2,MacIntel,60,,,,,,,,,,,,,,2,8.0393,,0,1,147,297,83,1,stimuli/stim_20210519_power2amp/equal_lnn_AM2.5Hz_s45_27.m4a,,,
,,,,,,,,,,,,41296,2021-06-18_19h35.19.498,judgeSpeechMusic_20210519_logNormShiftAmp_mXs,2020.1.2,MacIntel,60,,,,,,,,,,,,,,1,5.9797,,0,1,148,298,14,1,stimuli/stim_20210519_power2amp/equal_lnn_AM1Hz_s25_4.m4a,,,
,,,,,,,,,,,,41296,2021-06-18_19h35.19.498,judgeSpeechMusic_20210519_logNormShiftAmp_mXs,2020.1.2,MacIntel,60,,,,,,,,,,,,,,2,13.5052,,0,1,149,299,124,1,stimuli/stim_20210519_power2amp/equal_lnn_AM4Hz_s35_2.m4a,,,
,,,,,,,,,,,,41296,2021-06-18_19h35.19.498,judgeSpeechMusic_20210519_logNormShiftAmp_mXs,2020.1.2,MacIntel,60,,,,,,,,,,,,,,,,,,,,,,,,,space,9.2427
