volAdjustRep.thisRepN,volAdjustRep.thisTrialN,volAdjustRep.thisN,volAdjustRep.thisIndex,volAdjustRep.ran,participant,date,expName,psychopyVersion,OS,frameRate,headphoneResponse.keys,headphoneResponse.corr,headphoneResponse.rt,headphoneTrial.thisRepN,headphoneTrial.thisTrialN,headphoneTrial.thisN,headphoneTrial.thisIndex,headphoneTrial.ran,headphone_sound1,headphone_sound2,headphone_sound3,corrAns,trainSlider.response,trainSlider.rt,beepTrainResponse.keys,beepTrainResponse.corr,trainingTrials.thisRepN,trainingTrials.thisTrialN,trainingTrials.thisN,trainingTrials.thisIndex,trainingTrials.ran,trainAudioFile,beepTrainResponse.rt,readyReal_resp.keys,readyReal_resp.rt,ratingSlider.response,ratingSlider.rt,beepResp.keys,beepResp.corr,expTrials.thisRepN,expTrials.thisTrialN,expTrials.thisN,expTrials.thisIndex,expTrials.ran,audioFile,beepResp.rt,end_resp.keys,end_resp.rt
0,0,0,0,1,34830,2021-05-03_18h45.27.294,judgeSpeechMusic_20210407_logNormShiftAmp,2020.1.2,MacIntel,60,,,,,,,,,,,,,,,,,,,,,,,,,,,,,,,,,,,,,,
,,,,,34830,2021-05-03_18h45.27.294,judgeSpeechMusic_20210407_logNormShiftAmp,2020.1.2,MacIntel,60,1,1,7.30067,0,0,0,4,1,stimuli/screen_quiet.wav,stimuli/screen_antiphase.wav,stimuli/screen_origin.wav,1,,,,,,,,,,,,,,,,,,,,,,,,,,
,,,,,34830,2021-05-03_18h45.27.294,judgeSpeechMusic_20210407_logNormShiftAmp,2020.1.2,MacIntel,60,3,1,1.07258,0,1,1,0,1,stimuli/screen_antiphase.wav,stimuli/screen_origin.wav,stimuli/screen_quiet.wav,3,,,,,,,,,,,,,,,,,,,,,,,,,,
,,,,,34830,2021-05-03_18h45.27.294,judgeSpeechMusic_20210407_logNormShiftAmp,2020.1.2,MacIntel,60,2,1,1.234005,0,2,2,1,1,stimuli/screen_antiphase.wav,stimuli/screen_quiet.wav,stimuli/screen_origin.wav,2,,,,,,,,,,,,,,,,,,,,,,,,,,
,,,,,34830,2021-05-03_18h45.27.294,judgeSpeechMusic_20210407_logNormShiftAmp,2020.1.2,MacIntel,60,2,1,0.483835,0,3,3,3,1,stimuli/screen_origin.wav,stimuli/screen_quiet.wav,stimuli/screen_antiphase.wav,2,,,,,,,,,,,,,,,,,,,,,,,,,,
,,,,,34830,2021-05-03_18h45.27.294,judgeSpeechMusic_20210407_logNormShiftAmp,2020.1.2,MacIntel,60,1,1,0.484835,0,4,4,5,1,stimuli/screen_quiet.wav,stimuli/screen_origin.wav,stimuli/screen_antiphase.wav,1,,,,,,,,,,,,,,,,,,,,,,,,,,
,,,,,34830,2021-05-03_18h45.27.294,judgeSpeechMusic_20210407_logNormShiftAmp,2020.1.2,MacIntel,60,3,1,0.46846,0,5,5,2,1,stimuli/screen_origin.wav,stimuli/screen_antiphase.wav,stimuli/screen_quiet.wav,3,,,,,,,,,,,,,,,,,,,,,,,,,,
,,,,,34830,2021-05-03_18h45.27.294,judgeSpeechMusic_20210407_logNormShiftAmp,2020.1.2,MacIntel,60,,,,,,,,,,,,,1,15.06008,,0,0,0,0,2,1,stimuli/stim_20210407_power2amp/equal_lnn_AM_training3.9Hz.m4a,,,,,,,,,,,,,,,,
,,,,,34830,2021-05-03_18h45.27.294,judgeSpeechMusic_20210407_logNormShiftAmp,2020.1.2,MacIntel,60,,,,,,,,,,,,,1,22.2195,,0,0,1,1,3,1,stimuli/stim_20210407_power2amp/equal_lnn_AM_training5.1Hz.m4a,,,,,,,,,,,,,,,,
,,,,,34830,2021-05-03_18h45.27.294,judgeSpeechMusic_20210407_logNormShiftAmp,2020.1.2,MacIntel,60,,,,,,,,,,,,,1,6.72246,1,1,0,2,2,1,1,stimuli/stim_20210407_power2amp/equal_lnn_AM_training2.7Hz.m4a,1.279085,,,,,,,,,,,,,,,
,,,,,34830,2021-05-03_18h45.27.294,judgeSpeechMusic_20210407_logNormShiftAmp,2020.1.2,MacIntel,60,,,,,,,,,,,,,1,6.920875,,0,0,3,3,0,1,stimuli/stim_20210407_power2amp/equal_lnn_AM_training1.5Hz.m4a,,,,,,,,,,,,,,,,
,,,,,34830,2021-05-03_18h45.27.294,judgeSpeechMusic_20210407_logNormShiftAmp,2020.1.2,MacIntel,60,,,,,,,,,,,,,,,,,,,,,,,,space,9.21575,1,7.228665,,0,0,0,0,29,1,stimuli/stim_20210407_power2amp/equal_lnn_AM1.2Hz_26.m4a,,,
,,,,,34830,2021-05-03_18h45.27.294,judgeSpeechMusic_20210407_logNormShiftAmp,2020.1.2,MacIntel,60,,,,,,,,,,,,,,,,,,,,,,,,,,1,5.885875,,0,0,1,1,49,1,stimuli/stim_20210407_power2amp/equal_lnn_AM2.4Hz_11.m4a,,,
,,,,,34830,2021-05-03_18h45.27.294,judgeSpeechMusic_20210407_logNormShiftAmp,2020.1.2,MacIntel,60,,,,,,,,,,,,,,,,,,,,,,,,,,2,5.920455,,0,0,2,2,94,1,stimuli/stim_20210407_power2amp/equal_lnn_AM4.2Hz_69.m4a,,,
,,,,,34830,2021-05-03_18h45.27.294,judgeSpeechMusic_20210407_logNormShiftAmp,2020.1.2,MacIntel,60,,,,,,,,,,,,,,,,,,,,,,,,,,2,6.124455,,0,0,3,3,93,1,stimuli/stim_20210407_power2amp/equal_lnn_AM4.2Hz_78.m4a,,,
,,,,,34830,2021-05-03_18h45.27.294,judgeSpeechMusic_20210407_logNormShiftAmp,2020.1.2,MacIntel,60,,,,,,,,,,,,,,,,,,,,,,,,,,1,6.06008,,0,0,4,4,36,1,stimuli/stim_20210407_power2amp/equal_lnn_AM1.8Hz_49.m4a,,,
,,,,,34830,2021-05-03_18h45.27.294,judgeSpeechMusic_20210407_logNormShiftAmp,2020.1.2,MacIntel,60,,,,,,,,,,,,,,,,,,,,,,,,,,2,6.061835,,0,0,5,5,97,1,stimuli/stim_20210407_power2amp/equal_lnn_AM4.2Hz_8.m4a,,,
,,,,,34830,2021-05-03_18h45.27.294,judgeSpeechMusic_20210407_logNormShiftAmp,2020.1.2,MacIntel,60,,,,,,,,,,,,,,,,,,,,,,,,,,1,5.88625,,0,0,6,6,108,1,stimuli/stim_20210407_power2amp/equal_lnn_AM4.8Hz_83.m4a,,,
,,,,,34830,2021-05-03_18h45.27.294,judgeSpeechMusic_20210407_logNormShiftAmp,2020.1.2,MacIntel,60,,,,,,,,,,,,,,,,,,,,,,,,,,1,5.671255,,0,0,7,7,9,1,stimuli/stim_20210407_power2amp/equal_lnn_AM0.6Hz_65.m4a,,,
,,,,,34830,2021-05-03_18h45.27.294,judgeSpeechMusic_20210407_logNormShiftAmp,2020.1.2,MacIntel,60,,,,,,,,,,,,,,,,,,,,,,,,,,1,6.160205,,0,0,8,8,30,1,stimuli/stim_20210407_power2amp/equal_lnn_AM1.8Hz_77.m4a,,,
,,,,,34830,2021-05-03_18h45.27.294,judgeSpeechMusic_20210407_logNormShiftAmp,2020.1.2,MacIntel,60,,,,,,,,,,,,,,,,,,,,,,,,,,1,7.088835,,0,0,9,9,45,1,stimuli/stim_20210407_power2amp/equal_lnn_AM2.4Hz_3.m4a,,,
,,,,,34830,2021-05-03_18h45.27.294,judgeSpeechMusic_20210407_logNormShiftAmp,2020.1.2,MacIntel,60,,,,,,,,,,,,,,,,,,,,,,,,,,1,6.04392,,0,0,10,10,63,1,stimuli/stim_20210407_power2amp/equal_lnn_AM3Hz_50.m4a,,,
,,,,,34830,2021-05-03_18h45.27.294,judgeSpeechMusic_20210407_logNormShiftAmp,2020.1.2,MacIntel,60,,,,,,,,,,,,,,,,,,,,,,,,,,1,7.97575,,0,0,11,11,10,1,stimuli/stim_20210407_power2amp/equal_lnn_AM0.6Hz_83.m4a,,,
,,,,,34830,2021-05-03_18h45.27.294,judgeSpeechMusic_20210407_logNormShiftAmp,2020.1.2,MacIntel,60,,,,,,,,,,,,,,,,,,,,,,,,,,1,7.19221,,0,0,12,12,32,1,stimuli/stim_20210407_power2amp/equal_lnn_AM1.8Hz_92.m4a,,,
,,,,,34830,2021-05-03_18h45.27.294,judgeSpeechMusic_20210407_logNormShiftAmp,2020.1.2,MacIntel,60,,,,,,,,,,,,,,,,,,,,,,,,,,1,5.77083,,0,0,13,13,123,1,stimuli/stim_20210407_power2amp/equal_lnn_AM5.4Hz_20.m4a,,,
,,,,,34830,2021-05-03_18h45.27.294,judgeSpeechMusic_20210407_logNormShiftAmp,2020.1.2,MacIntel,60,,,,,,,,,,,,,,,,,,,,,,,,,,1,7.05537,,0,0,14,14,0,1,stimuli/stim_20210407_power2amp/equal_lnn_AM0.6Hz_91.m4a,,,
,,,,,34830,2021-05-03_18h45.27.294,judgeSpeechMusic_20210407_logNormShiftAmp,2020.1.2,MacIntel,60,,,,,,,,,,,,,,,,,,,,,,,,,,2,7.442995,,0,0,15,15,118,1,stimuli/stim_20210407_power2amp/equal_lnn_AM4.8Hz_53.m4a,,,
,,,,,34830,2021-05-03_18h45.27.294,judgeSpeechMusic_20210407_logNormShiftAmp,2020.1.2,MacIntel,60,,,,,,,,,,,,,,,,,,,,,,,,,,2,6.159335,,0,0,16,16,37,1,stimuli/stim_20210407_power2amp/equal_lnn_AM1.8Hz_21.m4a,,,
,,,,,34830,2021-05-03_18h45.27.294,judgeSpeechMusic_20210407_logNormShiftAmp,2020.1.2,MacIntel,60,,,,,,,,,,,,,,,,,,,,,,,,,,2,5.66546,,0,0,17,17,71,1,stimuli/stim_20210407_power2amp/equal_lnn_AM3Hz_5.m4a,,,
,,,,,34830,2021-05-03_18h45.27.294,judgeSpeechMusic_20210407_logNormShiftAmp,2020.1.2,MacIntel,60,,,,,,,,,,,,,,,,,,,,,,,,,,1,6.66046,,0,0,18,18,1,1,stimuli/stim_20210407_power2amp/equal_lnn_AM0.6Hz_56.m4a,,,
,,,,,34830,2021-05-03_18h45.27.294,judgeSpeechMusic_20210407_logNormShiftAmp,2020.1.2,MacIntel,60,,,,,,,,,,,,,,,,,,,,,,,,,,1,5.610415,,0,0,19,19,142,1,stimuli/stim_20210407_power2amp/equal_lnn_AM6Hz_29.m4a,,,
,,,,,34830,2021-05-03_18h45.27.294,judgeSpeechMusic_20210407_logNormShiftAmp,2020.1.2,MacIntel,60,,,,,,,,,,,,,,,,,,,,,,,,,,1,6.914165,,0,0,20,20,116,1,stimuli/stim_20210407_power2amp/equal_lnn_AM4.8Hz_50.m4a,,,
,,,,,34830,2021-05-03_18h45.27.294,judgeSpeechMusic_20210407_logNormShiftAmp,2020.1.2,MacIntel,60,,,,,,,,,,,,,,,,,,,,,,,,,,2,7.471285,,0,0,21,21,106,1,stimuli/stim_20210407_power2amp/equal_lnn_AM4.8Hz_25.m4a,,,
,,,,,34830,2021-05-03_18h45.27.294,judgeSpeechMusic_20210407_logNormShiftAmp,2020.1.2,MacIntel,60,,,,,,,,,,,,,,,,,,,,,,,,,,1,6.65392,,0,0,22,22,51,1,stimuli/stim_20210407_power2amp/equal_lnn_AM2.4Hz_54.m4a,,,
,,,,,34830,2021-05-03_18h45.27.294,judgeSpeechMusic_20210407_logNormShiftAmp,2020.1.2,MacIntel,60,,,,,,,,,,,,,,,,,,,,,,,,,,2,6.01346,,0,0,23,23,135,1,stimuli/stim_20210407_power2amp/equal_lnn_AM6Hz_28.m4a,,,
,,,,,34830,2021-05-03_18h45.27.294,judgeSpeechMusic_20210407_logNormShiftAmp,2020.1.2,MacIntel,60,,,,,,,,,,,,,,,,,,,,,,,,,,1,6.8535,,0,0,24,24,21,1,stimuli/stim_20210407_power2amp/equal_lnn_AM1.2Hz_92.m4a,,,
,,,,,34830,2021-05-03_18h45.27.294,judgeSpeechMusic_20210407_logNormShiftAmp,2020.1.2,MacIntel,60,,,,,,,,,,,,,,,,,,,,,,,,,,1,5.64829,,0,0,25,25,129,1,stimuli/stim_20210407_power2amp/equal_lnn_AM5.4Hz_97.m4a,,,
,,,,,34830,2021-05-03_18h45.27.294,judgeSpeechMusic_20210407_logNormShiftAmp,2020.1.2,MacIntel,60,,,,,,,,,,,,,,,,,,,,,,,,,,2,7.07738,,0,0,26,26,53,1,stimuli/stim_20210407_power2amp/equal_lnn_AM2.4Hz_98.m4a,,,
,,,,,34830,2021-05-03_18h45.27.294,judgeSpeechMusic_20210407_logNormShiftAmp,2020.1.2,MacIntel,60,,,,,,,,,,,,,,,,,,,,,,,,,,2,8.436495,,0,0,27,27,35,1,stimuli/stim_20210407_power2amp/equal_lnn_AM1.8Hz_15.m4a,,,
,,,,,34830,2021-05-03_18h45.27.294,judgeSpeechMusic_20210407_logNormShiftAmp,2020.1.2,MacIntel,60,,,,,,,,,,,,,,,,,,,,,,,,,,2,13.361295,,0,0,28,28,57,1,stimuli/stim_20210407_power2amp/equal_lnn_AM2.4Hz_2.m4a,,,
,,,,,34830,2021-05-03_18h45.27.294,judgeSpeechMusic_20210407_logNormShiftAmp,2020.1.2,MacIntel,60,,,,,,,,,,,,,,,,,,,,,,,,,,1,9.60617,,0,0,29,29,92,1,stimuli/stim_20210407_power2amp/equal_lnn_AM4.2Hz_75.m4a,,,
,,,,,34830,2021-05-03_18h45.27.294,judgeSpeechMusic_20210407_logNormShiftAmp,2020.1.2,MacIntel,60,,,,,,,,,,,,,,,,,,,,,,,,,,2,6.971295,,0,0,30,30,82,1,stimuli/stim_20210407_power2amp/equal_lnn_AM3.6Hz_61.m4a,,,
,,,,,34830,2021-05-03_18h45.27.294,judgeSpeechMusic_20210407_logNormShiftAmp,2020.1.2,MacIntel,60,,,,,,,,,,,,,,,,,,,,,,,,,,2,7.52792,,0,0,31,31,66,1,stimuli/stim_20210407_power2amp/equal_lnn_AM3Hz_36.m4a,,,
,,,,,34830,2021-05-03_18h45.27.294,judgeSpeechMusic_20210407_logNormShiftAmp,2020.1.2,MacIntel,60,,,,,,,,,,,,,,,,,,,,,,,,,,2,26.837005,,0,0,32,32,69,1,stimuli/stim_20210407_power2amp/equal_lnn_AM3Hz_16.m4a,,,
,,,,,34830,2021-05-03_18h45.27.294,judgeSpeechMusic_20210407_logNormShiftAmp,2020.1.2,MacIntel,60,,,,,,,,,,,,,,,,,,,,,,,,,,2,7.561415,,0,0,33,33,125,1,stimuli/stim_20210407_power2amp/equal_lnn_AM5.4Hz_42.m4a,,,
,,,,,34830,2021-05-03_18h45.27.294,judgeSpeechMusic_20210407_logNormShiftAmp,2020.1.2,MacIntel,60,,,,,,,,,,,,,,,,,,,,,,,,,,2,6.51175,,0,0,34,34,110,1,stimuli/stim_20210407_power2amp/equal_lnn_AM4.8Hz_30.m4a,,,
,,,,,34830,2021-05-03_18h45.27.294,judgeSpeechMusic_20210407_logNormShiftAmp,2020.1.2,MacIntel,60,,,,,,,,,,,,,,,,,,,,,,,,,,1,16.38025,,0,0,35,35,72,1,stimuli/stim_20210407_power2amp/equal_lnn_AM3Hz_44.m4a,,,
,,,,,34830,2021-05-03_18h45.27.294,judgeSpeechMusic_20210407_logNormShiftAmp,2020.1.2,MacIntel,60,,,,,,,,,,,,,,,,,,,,,,,,,,1,11.410795,,0,0,36,36,64,1,stimuli/stim_20210407_power2amp/equal_lnn_AM3Hz_74.m4a,,,
,,,,,34830,2021-05-03_18h45.27.294,judgeSpeechMusic_20210407_logNormShiftAmp,2020.1.2,MacIntel,60,,,,,,,,,,,,,,,,,,,,,,,,,,2,6.204455,,0,0,37,37,109,1,stimuli/stim_20210407_power2amp/equal_lnn_AM4.8Hz_77.m4a,,,
,,,,,34830,2021-05-03_18h45.27.294,judgeSpeechMusic_20210407_logNormShiftAmp,2020.1.2,MacIntel,60,,,,,,,,,,,,,,,,,,,,,,,,,,2,5.68821,,0,0,38,38,128,1,stimuli/stim_20210407_power2amp/equal_lnn_AM5.4Hz_61.m4a,,,
,,,,,34830,2021-05-03_18h45.27.294,judgeSpeechMusic_20210407_logNormShiftAmp,2020.1.2,MacIntel,60,,,,,,,,,,,,,,,,,,,,,,,,,,2,7.570835,3,1,0,39,39,6,1,stimuli/stim_20210407_power2amp/equal_lnn_AM0.6Hz_19.m4a,1.33875,,
,,,,,34830,2021-05-03_18h45.27.294,judgeSpeechMusic_20210407_logNormShiftAmp,2020.1.2,MacIntel,60,,,,,,,,,,,,,,,,,,,,,,,,,,2,5.720745,,0,0,40,40,22,1,stimuli/stim_20210407_power2amp/equal_lnn_AM1.2Hz_48.m4a,,,
,,,,,34830,2021-05-03_18h45.27.294,judgeSpeechMusic_20210407_logNormShiftAmp,2020.1.2,MacIntel,60,,,,,,,,,,,,,,,,,,,,,,,,,,1,5.86742,,0,0,41,41,124,1,stimuli/stim_20210407_power2amp/equal_lnn_AM5.4Hz_11.m4a,,,
,,,,,34830,2021-05-03_18h45.27.294,judgeSpeechMusic_20210407_logNormShiftAmp,2020.1.2,MacIntel,60,,,,,,,,,,,,,,,,,,,,,,,,,,2,5.85254,,0,0,42,42,84,1,stimuli/stim_20210407_power2amp/equal_lnn_AM3.6Hz_45.m4a,,,
,,,,,34830,2021-05-03_18h45.27.294,judgeSpeechMusic_20210407_logNormShiftAmp,2020.1.2,MacIntel,60,,,,,,,,,,,,,,,,,,,,,,,,,,2,5.874415,,0,0,43,43,137,1,stimuli/stim_20210407_power2amp/equal_lnn_AM6Hz_81.m4a,,,
,,,,,34830,2021-05-03_18h45.27.294,judgeSpeechMusic_20210407_logNormShiftAmp,2020.1.2,MacIntel,60,,,,,,,,,,,,,,,,,,,,,,,,,,2,6.81083,,0,0,44,44,131,1,stimuli/stim_20210407_power2amp/equal_lnn_AM5.4Hz_32.m4a,,,
,,,,,34830,2021-05-03_18h45.27.294,judgeSpeechMusic_20210407_logNormShiftAmp,2020.1.2,MacIntel,60,,,,,,,,,,,,,,,,,,,,,,,,,,2,5.99437,,0,0,45,45,16,1,stimuli/stim_20210407_power2amp/equal_lnn_AM1.2Hz_73.m4a,,,
,,,,,34830,2021-05-03_18h45.27.294,judgeSpeechMusic_20210407_logNormShiftAmp,2020.1.2,MacIntel,60,,,,,,,,,,,,,,,,,,,,,,,,,,2,5.942335,,0,0,46,46,133,1,stimuli/stim_20210407_power2amp/equal_lnn_AM5.4Hz_95.m4a,,,
,,,,,34830,2021-05-03_18h45.27.294,judgeSpeechMusic_20210407_logNormShiftAmp,2020.1.2,MacIntel,60,,,,,,,,,,,,,,,,,,,,,,,,,,2,5.84054,,0,0,47,47,103,1,stimuli/stim_20210407_power2amp/equal_lnn_AM4.2Hz_70.m4a,,,
,,,,,34830,2021-05-03_18h45.27.294,judgeSpeechMusic_20210407_logNormShiftAmp,2020.1.2,MacIntel,60,,,,,,,,,,,,,,,,,,,,,,,,,,2,12.637955,,0,0,48,48,145,1,stimuli/stim_20210407_power2amp/equal_lnn_AM6Hz_50.m4a,,,
,,,,,34830,2021-05-03_18h45.27.294,judgeSpeechMusic_20210407_logNormShiftAmp,2020.1.2,MacIntel,60,,,,,,,,,,,,,,,,,,,,,,,,,,1,8.12158,,0,0,49,49,143,1,stimuli/stim_20210407_power2amp/equal_lnn_AM6Hz_86.m4a,,,
,,,,,34830,2021-05-03_18h45.27.294,judgeSpeechMusic_20210407_logNormShiftAmp,2020.1.2,MacIntel,60,,,,,,,,,,,,,,,,,,,,,,,,,,2,11.556875,,0,0,50,50,85,1,stimuli/stim_20210407_power2amp/equal_lnn_AM3.6Hz_43.m4a,,,
,,,,,34830,2021-05-03_18h45.27.294,judgeSpeechMusic_20210407_logNormShiftAmp,2020.1.2,MacIntel,60,,,,,,,,,,,,,,,,,,,,,,,,,,1,12.54792,,0,0,51,51,86,1,stimuli/stim_20210407_power2amp/equal_lnn_AM3.6Hz_48.m4a,,,
,,,,,34830,2021-05-03_18h45.27.294,judgeSpeechMusic_20210407_logNormShiftAmp,2020.1.2,MacIntel,60,,,,,,,,,,,,,,,,,,,,,,,,,,1,21.819795,,0,0,52,52,44,1,stimuli/stim_20210407_power2amp/equal_lnn_AM1.8Hz_48.m4a,,,
,,,,,34830,2021-05-03_18h45.27.294,judgeSpeechMusic_20210407_logNormShiftAmp,2020.1.2,MacIntel,60,,,,,,,,,,,,,,,,,,,,,,,,,,2,5.62717,,0,0,53,53,100,1,stimuli/stim_20210407_power2amp/equal_lnn_AM4.2Hz_40.m4a,,,
,,,,,34830,2021-05-03_18h45.27.294,judgeSpeechMusic_20210407_logNormShiftAmp,2020.1.2,MacIntel,60,,,,,,,,,,,,,,,,,,,,,,,,,,2,6.510415,,0,0,54,54,68,1,stimuli/stim_20210407_power2amp/equal_lnn_AM3Hz_3.m4a,,,
,,,,,34830,2021-05-03_18h45.27.294,judgeSpeechMusic_20210407_logNormShiftAmp,2020.1.2,MacIntel,60,,,,,,,,,,,,,,,,,,,,,,,,,,2,5.596875,,0,0,55,55,146,1,stimuli/stim_20210407_power2amp/equal_lnn_AM6Hz_76.m4a,,,
,,,,,34830,2021-05-03_18h45.27.294,judgeSpeechMusic_20210407_logNormShiftAmp,2020.1.2,MacIntel,60,,,,,,,,,,,,,,,,,,,,,,,,,,2,6.53746,,0,0,56,56,144,1,stimuli/stim_20210407_power2amp/equal_lnn_AM6Hz_72.m4a,,,
,,,,,34830,2021-05-03_18h45.27.294,judgeSpeechMusic_20210407_logNormShiftAmp,2020.1.2,MacIntel,60,,,,,,,,,,,,,,,,,,,,,,,,,,1,7.50421,,0,0,57,57,23,1,stimuli/stim_20210407_power2amp/equal_lnn_AM1.2Hz_29.m4a,,,
,,,,,34830,2021-05-03_18h45.27.294,judgeSpeechMusic_20210407_logNormShiftAmp,2020.1.2,MacIntel,60,,,,,,,,,,,,,,,,,,,,,,,,,,1,6.903795,,0,0,58,58,47,1,stimuli/stim_20210407_power2amp/equal_lnn_AM2.4Hz_10.m4a,,,
,,,,,34830,2021-05-03_18h45.27.294,judgeSpeechMusic_20210407_logNormShiftAmp,2020.1.2,MacIntel,60,,,,,,,,,,,,,,,,,,,,,,,,,,1,6.47029,,0,0,59,59,78,1,stimuli/stim_20210407_power2amp/equal_lnn_AM3.6Hz_70.m4a,,,
,,,,,34830,2021-05-03_18h45.27.294,judgeSpeechMusic_20210407_logNormShiftAmp,2020.1.2,MacIntel,60,,,,,,,,,,,,,,,,,,,,,,,,,,1,7.210375,,0,0,60,60,14,1,stimuli/stim_20210407_power2amp/equal_lnn_AM0.6Hz_67.m4a,,,
,,,,,34830,2021-05-03_18h45.27.294,judgeSpeechMusic_20210407_logNormShiftAmp,2020.1.2,MacIntel,60,,,,,,,,,,,,,,,,,,,,,,,,,,1,5.975125,,0,0,61,61,119,1,stimuli/stim_20210407_power2amp/equal_lnn_AM4.8Hz_41.m4a,,,
,,,,,34830,2021-05-03_18h45.27.294,judgeSpeechMusic_20210407_logNormShiftAmp,2020.1.2,MacIntel,60,,,,,,,,,,,,,,,,,,,,,,,,,,1,5.6725,,0,0,62,62,89,1,stimuli/stim_20210407_power2amp/equal_lnn_AM3.6Hz_97.m4a,,,
,,,,,34830,2021-05-03_18h45.27.294,judgeSpeechMusic_20210407_logNormShiftAmp,2020.1.2,MacIntel,60,,,,,,,,,,,,,,,,,,,,,,,,,,1,8.80396,,0,0,63,63,126,1,stimuli/stim_20210407_power2amp/equal_lnn_AM5.4Hz_73.m4a,,,
,,,,,34830,2021-05-03_18h45.27.294,judgeSpeechMusic_20210407_logNormShiftAmp,2020.1.2,MacIntel,60,,,,,,,,,,,,,,,,,,,,,,,,,,1,7.39033,3,1,0,64,64,112,1,stimuli/stim_20210407_power2amp/equal_lnn_AM4.8Hz_76.m4a,1.43521,,
,,,,,34830,2021-05-03_18h45.27.294,judgeSpeechMusic_20210407_logNormShiftAmp,2020.1.2,MacIntel,60,,,,,,,,,,,,,,,,,,,,,,,,,,1,7.23404,,0,0,65,65,132,1,stimuli/stim_20210407_power2amp/equal_lnn_AM5.4Hz_76.m4a,,,
,,,,,34830,2021-05-03_18h45.27.294,judgeSpeechMusic_20210407_logNormShiftAmp,2020.1.2,MacIntel,60,,,,,,,,,,,,,,,,,,,,,,,,,,2,6.411665,,0,0,66,66,115,1,stimuli/stim_20210407_power2amp/equal_lnn_AM4.8Hz_22.m4a,,,
,,,,,34830,2021-05-03_18h45.27.294,judgeSpeechMusic_20210407_logNormShiftAmp,2020.1.2,MacIntel,60,,,,,,,,,,,,,,,,,,,,,,,,,,2,6.57283,,0,0,67,67,54,1,stimuli/stim_20210407_power2amp/equal_lnn_AM2.4Hz_22.m4a,,,
,,,,,34830,2021-05-03_18h45.27.294,judgeSpeechMusic_20210407_logNormShiftAmp,2020.1.2,MacIntel,60,,,,,,,,,,,,,,,,,,,,,,,,,,1,7.388495,,0,0,68,68,140,1,stimuli/stim_20210407_power2amp/equal_lnn_AM6Hz_17.m4a,,,
,,,,,34830,2021-05-03_18h45.27.294,judgeSpeechMusic_20210407_logNormShiftAmp,2020.1.2,MacIntel,60,,,,,,,,,,,,,,,,,,,,,,,,,,2,7.01396,,0,0,69,69,19,1,stimuli/stim_20210407_power2amp/equal_lnn_AM1.2Hz_97.m4a,,,
,,,,,34830,2021-05-03_18h45.27.294,judgeSpeechMusic_20210407_logNormShiftAmp,2020.1.2,MacIntel,60,,,,,,,,,,,,,,,,,,,,,,,,,,1,6.58767,,0,0,70,70,26,1,stimuli/stim_20210407_power2amp/equal_lnn_AM1.2Hz_25.m4a,,,
,,,,,34830,2021-05-03_18h45.27.294,judgeSpeechMusic_20210407_logNormShiftAmp,2020.1.2,MacIntel,60,,,,,,,,,,,,,,,,,,,,,,,,,,1,6.079585,,0,0,71,71,52,1,stimuli/stim_20210407_power2amp/equal_lnn_AM2.4Hz_40.m4a,,,
,,,,,34830,2021-05-03_18h45.27.294,judgeSpeechMusic_20210407_logNormShiftAmp,2020.1.2,MacIntel,60,,,,,,,,,,,,,,,,,,,,,,,,,,1,7.364955,,0,0,72,72,7,1,stimuli/stim_20210407_power2amp/equal_lnn_AM0.6Hz_24.m4a,,,
,,,,,34830,2021-05-03_18h45.27.294,judgeSpeechMusic_20210407_logNormShiftAmp,2020.1.2,MacIntel,60,,,,,,,,,,,,,,,,,,,,,,,,,,1,10.50387,,0,0,73,73,104,1,stimuli/stim_20210407_power2amp/equal_lnn_AM4.2Hz_73.m4a,,,
,,,,,34830,2021-05-03_18h45.27.294,judgeSpeechMusic_20210407_logNormShiftAmp,2020.1.2,MacIntel,60,,,,,,,,,,,,,,,,,,,,,,,,,,1,16.368125,,0,0,74,74,111,1,stimuli/stim_20210407_power2amp/equal_lnn_AM4.8Hz_89.m4a,,,
,,,,,34830,2021-05-03_18h45.27.294,judgeSpeechMusic_20210407_logNormShiftAmp,2020.1.2,MacIntel,60,,,,,,,,,,,,,,,,,,,,,,,,,,1,13.924705,,0,0,75,75,25,1,stimuli/stim_20210407_power2amp/equal_lnn_AM1.2Hz_17.m4a,,,
,,,,,34830,2021-05-03_18h45.27.294,judgeSpeechMusic_20210407_logNormShiftAmp,2020.1.2,MacIntel,60,,,,,,,,,,,,,,,,,,,,,,,,,,1,6.405455,,0,0,76,76,15,1,stimuli/stim_20210407_power2amp/equal_lnn_AM1.2Hz_34.m4a,,,
,,,,,34830,2021-05-03_18h45.27.294,judgeSpeechMusic_20210407_logNormShiftAmp,2020.1.2,MacIntel,60,,,,,,,,,,,,,,,,,,,,,,,,,,1,7.647415,,0,0,77,77,67,1,stimuli/stim_20210407_power2amp/equal_lnn_AM3Hz_57.m4a,,,
,,,,,34830,2021-05-03_18h45.27.294,judgeSpeechMusic_20210407_logNormShiftAmp,2020.1.2,MacIntel,60,,,,,,,,,,,,,,,,,,,,,,,,,,1,5.58633,,0,0,78,78,28,1,stimuli/stim_20210407_power2amp/equal_lnn_AM1.2Hz_12.m4a,,,
,,,,,34830,2021-05-03_18h45.27.294,judgeSpeechMusic_20210407_logNormShiftAmp,2020.1.2,MacIntel,60,,,,,,,,,,,,,,,,,,,,,,,,,,1,5.548,,0,0,79,79,2,1,stimuli/stim_20210407_power2amp/equal_lnn_AM0.6Hz_3.m4a,,,
,,,,,34830,2021-05-03_18h45.27.294,judgeSpeechMusic_20210407_logNormShiftAmp,2020.1.2,MacIntel,60,,,,,,,,,,,,,,,,,,,,,,,,,,1,8.15913,,0,0,80,80,138,1,stimuli/stim_20210407_power2amp/equal_lnn_AM6Hz_90.m4a,,,
,,,,,34830,2021-05-03_18h45.27.294,judgeSpeechMusic_20210407_logNormShiftAmp,2020.1.2,MacIntel,60,,,,,,,,,,,,,,,,,,,,,,,,,,2,8.087335,,0,0,81,81,39,1,stimuli/stim_20210407_power2amp/equal_lnn_AM1.8Hz_93.m4a,,,
,,,,,34830,2021-05-03_18h45.27.294,judgeSpeechMusic_20210407_logNormShiftAmp,2020.1.2,MacIntel,60,,,,,,,,,,,,,,,,,,,,,,,,,,2,9.303375,,0,0,82,82,80,1,stimuli/stim_20210407_power2amp/equal_lnn_AM3.6Hz_84.m4a,,,
,,,,,34830,2021-05-03_18h45.27.294,judgeSpeechMusic_20210407_logNormShiftAmp,2020.1.2,MacIntel,60,,,,,,,,,,,,,,,,,,,,,,,,,,2,23.079335,,0,0,83,83,34,1,stimuli/stim_20210407_power2amp/equal_lnn_AM1.8Hz_63.m4a,,,
,,,,,34830,2021-05-03_18h45.27.294,judgeSpeechMusic_20210407_logNormShiftAmp,2020.1.2,MacIntel,60,,,,,,,,,,,,,,,,,,,,,,,,,,2,14.921505,,0,0,84,84,31,1,stimuli/stim_20210407_power2amp/equal_lnn_AM1.8Hz_94.m4a,,,
,,,,,34830,2021-05-03_18h45.27.294,judgeSpeechMusic_20210407_logNormShiftAmp,2020.1.2,MacIntel,60,,,,,,,,,,,,,,,,,,,,,,,,,,2,6.303245,,0,0,85,85,134,1,stimuli/stim_20210407_power2amp/equal_lnn_AM5.4Hz_51.m4a,,,
,,,,,34830,2021-05-03_18h45.27.294,judgeSpeechMusic_20210407_logNormShiftAmp,2020.1.2,MacIntel,60,,,,,,,,,,,,,,,,,,,,,,,,,,1,7.82117,2,1,0,86,86,88,1,stimuli/stim_20210407_power2amp/equal_lnn_AM3.6Hz_90.m4a,1.246875,,
,,,,,34830,2021-05-03_18h45.27.294,judgeSpeechMusic_20210407_logNormShiftAmp,2020.1.2,MacIntel,60,,,,,,,,,,,,,,,,,,,,,,,,,,2,7.27204,,0,0,87,87,149,1,stimuli/stim_20210407_power2amp/equal_lnn_AM6Hz_94.m4a,,,
,,,,,34830,2021-05-03_18h45.27.294,judgeSpeechMusic_20210407_logNormShiftAmp,2020.1.2,MacIntel,60,,,,,,,,,,,,,,,,,,,,,,,,,,2,7.39029,,0,0,88,88,75,1,stimuli/stim_20210407_power2amp/equal_lnn_AM3.6Hz_96.m4a,,,
,,,,,34830,2021-05-03_18h45.27.294,judgeSpeechMusic_20210407_logNormShiftAmp,2020.1.2,MacIntel,60,,,,,,,,,,,,,,,,,,,,,,,,,,1,9.476415,,0,0,89,89,114,1,stimuli/stim_20210407_power2amp/equal_lnn_AM4.8Hz_51.m4a,,,
,,,,,34830,2021-05-03_18h45.27.294,judgeSpeechMusic_20210407_logNormShiftAmp,2020.1.2,MacIntel,60,,,,,,,,,,,,,,,,,,,,,,,,,,1,15.29421,,0,0,90,90,120,1,stimuli/stim_20210407_power2amp/equal_lnn_AM5.4Hz_83.m4a,,,
,,,,,34830,2021-05-03_18h45.27.294,judgeSpeechMusic_20210407_logNormShiftAmp,2020.1.2,MacIntel,60,,,,,,,,,,,,,,,,,,,,,,,,,,1,14.37379,,0,0,91,91,101,1,stimuli/stim_20210407_power2amp/equal_lnn_AM4.2Hz_30.m4a,,,
,,,,,34830,2021-05-03_18h45.27.294,judgeSpeechMusic_20210407_logNormShiftAmp,2020.1.2,MacIntel,60,,,,,,,,,,,,,,,,,,,,,,,,,,1,6.096335,,0,0,92,92,5,1,stimuli/stim_20210407_power2amp/equal_lnn_AM0.6Hz_32.m4a,,,
,,,,,34830,2021-05-03_18h45.27.294,judgeSpeechMusic_20210407_logNormShiftAmp,2020.1.2,MacIntel,60,,,,,,,,,,,,,,,,,,,,,,,,,,1,7.79433,,0,0,93,93,46,1,stimuli/stim_20210407_power2amp/equal_lnn_AM2.4Hz_62.m4a,,,
,,,,,34830,2021-05-03_18h45.27.294,judgeSpeechMusic_20210407_logNormShiftAmp,2020.1.2,MacIntel,60,,,,,,,,,,,,,,,,,,,,,,,,,,1,8.83908,,0,0,94,94,20,1,stimuli/stim_20210407_power2amp/equal_lnn_AM1.2Hz_100.m4a,,,
,,,,,34830,2021-05-03_18h45.27.294,judgeSpeechMusic_20210407_logNormShiftAmp,2020.1.2,MacIntel,60,,,,,,,,,,,,,,,,,,,,,,,,,,1,8.419165,,0,0,95,95,141,1,stimuli/stim_20210407_power2amp/equal_lnn_AM6Hz_88.m4a,,,
,,,,,34830,2021-05-03_18h45.27.294,judgeSpeechMusic_20210407_logNormShiftAmp,2020.1.2,MacIntel,60,,,,,,,,,,,,,,,,,,,,,,,,,,1,11.90429,,0,0,96,96,11,1,stimuli/stim_20210407_power2amp/equal_lnn_AM0.6Hz_6.m4a,,,
,,,,,34830,2021-05-03_18h45.27.294,judgeSpeechMusic_20210407_logNormShiftAmp,2020.1.2,MacIntel,60,,,,,,,,,,,,,,,,,,,,,,,,,,1,9.01033,,0,0,97,97,65,1,stimuli/stim_20210407_power2amp/equal_lnn_AM3Hz_93.m4a,,,
,,,,,34830,2021-05-03_18h45.27.294,judgeSpeechMusic_20210407_logNormShiftAmp,2020.1.2,MacIntel,60,,,,,,,,,,,,,,,,,,,,,,,,,,1,6.688,,0,0,98,98,81,1,stimuli/stim_20210407_power2amp/equal_lnn_AM3.6Hz_78.m4a,,,
,,,,,34830,2021-05-03_18h45.27.294,judgeSpeechMusic_20210407_logNormShiftAmp,2020.1.2,MacIntel,60,,,,,,,,,,,,,,,,,,,,,,,,,,1,6.52037,,0,0,99,99,139,1,stimuli/stim_20210407_power2amp/equal_lnn_AM6Hz_93.m4a,,,
,,,,,34830,2021-05-03_18h45.27.294,judgeSpeechMusic_20210407_logNormShiftAmp,2020.1.2,MacIntel,60,,,,,,,,,,,,,,,,,,,,,,,,,,1,12.554205,,0,0,100,100,60,1,stimuli/stim_20210407_power2amp/equal_lnn_AM3Hz_34.m4a,,,
,,,,,34830,2021-05-03_18h45.27.294,judgeSpeechMusic_20210407_logNormShiftAmp,2020.1.2,MacIntel,60,,,,,,,,,,,,,,,,,,,,,,,,,,2,16.698375,,0,0,101,101,24,1,stimuli/stim_20210407_power2amp/equal_lnn_AM1.2Hz_74.m4a,,,
,,,,,34830,2021-05-03_18h45.27.294,judgeSpeechMusic_20210407_logNormShiftAmp,2020.1.2,MacIntel,60,,,,,,,,,,,,,,,,,,,,,,,,,,1,9.57921,,0,0,102,102,8,1,stimuli/stim_20210407_power2amp/equal_lnn_AM0.6Hz_87.m4a,,,
,,,,,34830,2021-05-03_18h45.27.294,judgeSpeechMusic_20210407_logNormShiftAmp,2020.1.2,MacIntel,60,,,,,,,,,,,,,,,,,,,,,,,,,,2,7.160335,,0,0,103,103,83,1,stimuli/stim_20210407_power2amp/equal_lnn_AM3.6Hz_29.m4a,,,
,,,,,34830,2021-05-03_18h45.27.294,judgeSpeechMusic_20210407_logNormShiftAmp,2020.1.2,MacIntel,60,,,,,,,,,,,,,,,,,,,,,,,,,,2,8.05554,,0,0,104,104,117,1,stimuli/stim_20210407_power2amp/equal_lnn_AM4.8Hz_15.m4a,,,
,,,,,34830,2021-05-03_18h45.27.294,judgeSpeechMusic_20210407_logNormShiftAmp,2020.1.2,MacIntel,60,,,,,,,,,,,,,,,,,,,,,,,,,,2,14.35933,,0,0,105,105,18,1,stimuli/stim_20210407_power2amp/equal_lnn_AM1.2Hz_47.m4a,,,
,,,,,34830,2021-05-03_18h45.27.294,judgeSpeechMusic_20210407_logNormShiftAmp,2020.1.2,MacIntel,60,,,,,,,,,,,,,,,,,,,,,,,,,,1,7.90288,,0,0,106,106,4,1,stimuli/stim_20210407_power2amp/equal_lnn_AM0.6Hz_52.m4a,,,
,,,,,34830,2021-05-03_18h45.27.294,judgeSpeechMusic_20210407_logNormShiftAmp,2020.1.2,MacIntel,60,,,,,,,,,,,,,,,,,,,,,,,,,,1,5.58796,3,1,0,107,107,105,1,stimuli/stim_20210407_power2amp/equal_lnn_AM4.8Hz_9.m4a,1.423915,,
,,,,,34830,2021-05-03_18h45.27.294,judgeSpeechMusic_20210407_logNormShiftAmp,2020.1.2,MacIntel,60,,,,,,,,,,,,,,,,,,,,,,,,,,1,7.284205,,0,0,108,108,50,1,stimuli/stim_20210407_power2amp/equal_lnn_AM2.4Hz_49.m4a,,,
,,,,,34830,2021-05-03_18h45.27.294,judgeSpeechMusic_20210407_logNormShiftAmp,2020.1.2,MacIntel,60,,,,,,,,,,,,,,,,,,,,,,,,,,2,9.023495,,0,0,109,109,56,1,stimuli/stim_20210407_power2amp/equal_lnn_AM2.4Hz_37.m4a,,,
,,,,,34830,2021-05-03_18h45.27.294,judgeSpeechMusic_20210407_logNormShiftAmp,2020.1.2,MacIntel,60,,,,,,,,,,,,,,,,,,,,,,,,,,1,7.895835,,0,0,110,110,87,1,stimuli/stim_20210407_power2amp/equal_lnn_AM3.6Hz_92.m4a,,,
,,,,,34830,2021-05-03_18h45.27.294,judgeSpeechMusic_20210407_logNormShiftAmp,2020.1.2,MacIntel,60,,,,,,,,,,,,,,,,,,,,,,,,,,2,6.482205,,0,0,111,111,127,1,stimuli/stim_20210407_power2amp/equal_lnn_AM5.4Hz_28.m4a,,,
,,,,,34830,2021-05-03_18h45.27.294,judgeSpeechMusic_20210407_logNormShiftAmp,2020.1.2,MacIntel,60,,,,,,,,,,,,,,,,,,,,,,,,,,1,8.592255,,0,0,112,112,42,1,stimuli/stim_20210407_power2amp/equal_lnn_AM1.8Hz_23.m4a,,,
,,,,,34830,2021-05-03_18h45.27.294,judgeSpeechMusic_20210407_logNormShiftAmp,2020.1.2,MacIntel,60,,,,,,,,,,,,,,,,,,,,,,,,,,1,9.02696,,0,0,113,113,76,1,stimuli/stim_20210407_power2amp/equal_lnn_AM3.6Hz_30.m4a,,,
,,,,,34830,2021-05-03_18h45.27.294,judgeSpeechMusic_20210407_logNormShiftAmp,2020.1.2,MacIntel,60,,,,,,,,,,,,,,,,,,,,,,,,,,1,5.560665,,0,0,114,114,95,1,stimuli/stim_20210407_power2amp/equal_lnn_AM4.2Hz_93.m4a,,,
,,,,,34830,2021-05-03_18h45.27.294,judgeSpeechMusic_20210407_logNormShiftAmp,2020.1.2,MacIntel,60,,,,,,,,,,,,,,,,,,,,,,,,,,1,6.904165,,0,0,115,115,74,1,stimuli/stim_20210407_power2amp/equal_lnn_AM3Hz_45.m4a,,,
,,,,,34830,2021-05-03_18h45.27.294,judgeSpeechMusic_20210407_logNormShiftAmp,2020.1.2,MacIntel,60,,,,,,,,,,,,,,,,,,,,,,,,,,1,15.081585,,0,0,116,116,12,1,stimuli/stim_20210407_power2amp/equal_lnn_AM0.6Hz_79.m4a,,,
,,,,,34830,2021-05-03_18h45.27.294,judgeSpeechMusic_20210407_logNormShiftAmp,2020.1.2,MacIntel,60,,,,,,,,,,,,,,,,,,,,,,,,,,1,51.74804,,0,0,117,117,38,1,stimuli/stim_20210407_power2amp/equal_lnn_AM1.8Hz_47.m4a,,,
,,,,,34830,2021-05-03_18h45.27.294,judgeSpeechMusic_20210407_logNormShiftAmp,2020.1.2,MacIntel,60,,,,,,,,,,,,,,,,,,,,,,,,,,1,7.84171,,0,0,118,118,70,1,stimuli/stim_20210407_power2amp/equal_lnn_AM3Hz_38.m4a,,,
,,,,,34830,2021-05-03_18h45.27.294,judgeSpeechMusic_20210407_logNormShiftAmp,2020.1.2,MacIntel,60,,,,,,,,,,,,,,,,,,,,,,,,,,1,8.65375,,0,0,119,119,91,1,stimuli/stim_20210407_power2amp/equal_lnn_AM4.2Hz_38.m4a,,,
,,,,,34830,2021-05-03_18h45.27.294,judgeSpeechMusic_20210407_logNormShiftAmp,2020.1.2,MacIntel,60,,,,,,,,,,,,,,,,,,,,,,,,,,1,30.345205,,0,0,120,120,98,1,stimuli/stim_20210407_power2amp/equal_lnn_AM4.2Hz_74.m4a,,,
,,,,,34830,2021-05-03_18h45.27.294,judgeSpeechMusic_20210407_logNormShiftAmp,2020.1.2,MacIntel,60,,,,,,,,,,,,,,,,,,,,,,,,,,1,11.4565,,0,0,121,121,55,1,stimuli/stim_20210407_power2amp/equal_lnn_AM2.4Hz_12.m4a,,,
,,,,,34830,2021-05-03_18h45.27.294,judgeSpeechMusic_20210407_logNormShiftAmp,2020.1.2,MacIntel,60,,,,,,,,,,,,,,,,,,,,,,,,,,1,9.03779,,0,0,122,122,27,1,stimuli/stim_20210407_power2amp/equal_lnn_AM1.2Hz_21.m4a,,,
,,,,,34830,2021-05-03_18h45.27.294,judgeSpeechMusic_20210407_logNormShiftAmp,2020.1.2,MacIntel,60,,,,,,,,,,,,,,,,,,,,,,,,,,1,12.00483,,0,0,123,123,33,1,stimuli/stim_20210407_power2amp/equal_lnn_AM1.8Hz_17.m4a,,,
,,,,,34830,2021-05-03_18h45.27.294,judgeSpeechMusic_20210407_logNormShiftAmp,2020.1.2,MacIntel,60,,,,,,,,,,,,,,,,,,,,,,,,,,1,9.734955,,0,0,124,124,147,1,stimuli/stim_20210407_power2amp/equal_lnn_AM6Hz_16.m4a,,,
,,,,,34830,2021-05-03_18h45.27.294,judgeSpeechMusic_20210407_logNormShiftAmp,2020.1.2,MacIntel,60,,,,,,,,,,,,,,,,,,,,,,,,,,1,5.806835,,0,0,125,125,136,1,stimuli/stim_20210407_power2amp/equal_lnn_AM6Hz_12.m4a,,,
,,,,,34830,2021-05-03_18h45.27.294,judgeSpeechMusic_20210407_logNormShiftAmp,2020.1.2,MacIntel,60,,,,,,,,,,,,,,,,,,,,,,,,,,1,6.21525,,0,0,126,126,107,1,stimuli/stim_20210407_power2amp/equal_lnn_AM4.8Hz_54.m4a,,,
,,,,,34830,2021-05-03_18h45.27.294,judgeSpeechMusic_20210407_logNormShiftAmp,2020.1.2,MacIntel,60,,,,,,,,,,,,,,,,,,,,,,,,,,1,6.728,,0,0,127,127,121,1,stimuli/stim_20210407_power2amp/equal_lnn_AM5.4Hz_4.m4a,,,
,,,,,34830,2021-05-03_18h45.27.294,judgeSpeechMusic_20210407_logNormShiftAmp,2020.1.2,MacIntel,60,,,,,,,,,,,,,,,,,,,,,,,,,,1,6.18704,4,1,0,128,128,62,1,stimuli/stim_20210407_power2amp/equal_lnn_AM3Hz_41.m4a,0.93817,,
,,,,,34830,2021-05-03_18h45.27.294,judgeSpeechMusic_20210407_logNormShiftAmp,2020.1.2,MacIntel,60,,,,,,,,,,,,,,,,,,,,,,,,,,1,6.676545,,0,0,129,129,43,1,stimuli/stim_20210407_power2amp/equal_lnn_AM1.8Hz_86.m4a,,,
,,,,,34830,2021-05-03_18h45.27.294,judgeSpeechMusic_20210407_logNormShiftAmp,2020.1.2,MacIntel,60,,,,,,,,,,,,,,,,,,,,,,,,,,1,13.618875,,0,0,130,130,148,1,stimuli/stim_20210407_power2amp/equal_lnn_AM6Hz_48.m4a,,,
,,,,,34830,2021-05-03_18h45.27.294,judgeSpeechMusic_20210407_logNormShiftAmp,2020.1.2,MacIntel,60,,,,,,,,,,,,,,,,,,,,,,,,,,1,6.177745,,0,0,131,131,113,1,stimuli/stim_20210407_power2amp/equal_lnn_AM4.8Hz_75.m4a,,,
,,,,,34830,2021-05-03_18h45.27.294,judgeSpeechMusic_20210407_logNormShiftAmp,2020.1.2,MacIntel,60,,,,,,,,,,,,,,,,,,,,,,,,,,1,18.33642,,0,0,132,132,77,1,stimuli/stim_20210407_power2amp/equal_lnn_AM3.6Hz_6.m4a,,,
,,,,,34830,2021-05-03_18h45.27.294,judgeSpeechMusic_20210407_logNormShiftAmp,2020.1.2,MacIntel,60,,,,,,,,,,,,,,,,,,,,,,,,,,1,6.211205,,0,0,133,133,59,1,stimuli/stim_20210407_power2amp/equal_lnn_AM2.4Hz_52.m4a,,,
,,,,,34830,2021-05-03_18h45.27.294,judgeSpeechMusic_20210407_logNormShiftAmp,2020.1.2,MacIntel,60,,,,,,,,,,,,,,,,,,,,,,,,,,1,6.025875,,0,0,134,134,48,1,stimuli/stim_20210407_power2amp/equal_lnn_AM2.4Hz_73.m4a,,,
,,,,,34830,2021-05-03_18h45.27.294,judgeSpeechMusic_20210407_logNormShiftAmp,2020.1.2,MacIntel,60,,,,,,,,,,,,,,,,,,,,,,,,,,1,6.93029,,0,0,135,135,96,1,stimuli/stim_20210407_power2amp/equal_lnn_AM4.2Hz_5.m4a,,,
,,,,,34830,2021-05-03_18h45.27.294,judgeSpeechMusic_20210407_logNormShiftAmp,2020.1.2,MacIntel,60,,,,,,,,,,,,,,,,,,,,,,,,,,1,6.379215,,0,0,136,136,13,1,stimuli/stim_20210407_power2amp/equal_lnn_AM0.6Hz_21.m4a,,,
,,,,,34830,2021-05-03_18h45.27.294,judgeSpeechMusic_20210407_logNormShiftAmp,2020.1.2,MacIntel,60,,,,,,,,,,,,,,,,,,,,,,,,,,1,7.586545,,0,0,137,137,79,1,stimuli/stim_20210407_power2amp/equal_lnn_AM3.6Hz_79.m4a,,,
,,,,,34830,2021-05-03_18h45.27.294,judgeSpeechMusic_20210407_logNormShiftAmp,2020.1.2,MacIntel,60,,,,,,,,,,,,,,,,,,,,,,,,,,1,6.204255,,0,0,138,138,40,1,stimuli/stim_20210407_power2amp/equal_lnn_AM1.8Hz_100.m4a,,,
,,,,,34830,2021-05-03_18h45.27.294,judgeSpeechMusic_20210407_logNormShiftAmp,2020.1.2,MacIntel,60,,,,,,,,,,,,,,,,,,,,,,,,,,1,6.34392,,0,0,139,139,58,1,stimuli/stim_20210407_power2amp/equal_lnn_AM2.4Hz_43.m4a,,,
,,,,,34830,2021-05-03_18h45.27.294,judgeSpeechMusic_20210407_logNormShiftAmp,2020.1.2,MacIntel,60,,,,,,,,,,,,,,,,,,,,,,,,,,1,6.70625,,0,0,140,140,99,1,stimuli/stim_20210407_power2amp/equal_lnn_AM4.2Hz_50.m4a,,,
,,,,,34830,2021-05-03_18h45.27.294,judgeSpeechMusic_20210407_logNormShiftAmp,2020.1.2,MacIntel,60,,,,,,,,,,,,,,,,,,,,,,,,,,1,7.120205,,0,0,141,141,41,1,stimuli/stim_20210407_power2amp/equal_lnn_AM1.8Hz_70.m4a,,,
,,,,,34830,2021-05-03_18h45.27.294,judgeSpeechMusic_20210407_logNormShiftAmp,2020.1.2,MacIntel,60,,,,,,,,,,,,,,,,,,,,,,,,,,2,13.689335,,0,0,142,142,3,1,stimuli/stim_20210407_power2amp/equal_lnn_AM0.6Hz_97.m4a,,,
,,,,,34830,2021-05-03_18h45.27.294,judgeSpeechMusic_20210407_logNormShiftAmp,2020.1.2,MacIntel,60,,,,,,,,,,,,,,,,,,,,,,,,,,2,5.82075,,0,0,143,143,130,1,stimuli/stim_20210407_power2amp/equal_lnn_AM5.4Hz_8.m4a,,,
,,,,,34830,2021-05-03_18h45.27.294,judgeSpeechMusic_20210407_logNormShiftAmp,2020.1.2,MacIntel,60,,,,,,,,,,,,,,,,,,,,,,,,,,2,5.62371,,0,0,144,144,90,1,stimuli/stim_20210407_power2amp/equal_lnn_AM4.2Hz_28.m4a,,,
,,,,,34830,2021-05-03_18h45.27.294,judgeSpeechMusic_20210407_logNormShiftAmp,2020.1.2,MacIntel,60,,,,,,,,,,,,,,,,,,,,,,,,,,2,7.75221,,0,0,145,145,61,1,stimuli/stim_20210407_power2amp/equal_lnn_AM3Hz_75.m4a,,,
,,,,,34830,2021-05-03_18h45.27.294,judgeSpeechMusic_20210407_logNormShiftAmp,2020.1.2,MacIntel,60,,,,,,,,,,,,,,,,,,,,,,,,,,1,6.94483,,0,0,146,146,102,1,stimuli/stim_20210407_power2amp/equal_lnn_AM4.2Hz_42.m4a,,,
,,,,,34830,2021-05-03_18h45.27.294,judgeSpeechMusic_20210407_logNormShiftAmp,2020.1.2,MacIntel,60,,,,,,,,,,,,,,,,,,,,,,,,,,2,6.614215,,0,0,147,147,122,1,stimuli/stim_20210407_power2amp/equal_lnn_AM5.4Hz_24.m4a,,,
,,,,,34830,2021-05-03_18h45.27.294,judgeSpeechMusic_20210407_logNormShiftAmp,2020.1.2,MacIntel,60,,,,,,,,,,,,,,,,,,,,,,,,,,2,6.393335,,0,0,148,148,17,1,stimuli/stim_20210407_power2amp/equal_lnn_AM1.2Hz_14.m4a,,,
,,,,,34830,2021-05-03_18h45.27.294,judgeSpeechMusic_20210407_logNormShiftAmp,2020.1.2,MacIntel,60,,,,,,,,,,,,,,,,,,,,,,,,,,1,6.396045,,0,0,149,149,73,1,stimuli/stim_20210407_power2amp/equal_lnn_AM3Hz_53.m4a,,,
,,,,,34830,2021-05-03_18h45.27.294,judgeSpeechMusic_20210407_logNormShiftAmp,2020.1.2,MacIntel,60,,,,,,,,,,,,,,,,,,,,,,,,,,2,8.40096,3,1,1,0,150,4,1,stimuli/stim_20210407_power2amp/equal_lnn_AM0.6Hz_52.m4a,0.64833,,
,,,,,34830,2021-05-03_18h45.27.294,judgeSpeechMusic_20210407_logNormShiftAmp,2020.1.2,MacIntel,60,,,,,,,,,,,,,,,,,,,,,,,,,,1,10.037335,,0,1,1,151,106,1,stimuli/stim_20210407_power2amp/equal_lnn_AM4.8Hz_25.m4a,,,
,,,,,34830,2021-05-03_18h45.27.294,judgeSpeechMusic_20210407_logNormShiftAmp,2020.1.2,MacIntel,60,,,,,,,,,,,,,,,,,,,,,,,,,,2,7.04575,,0,1,2,152,140,1,stimuli/stim_20210407_power2amp/equal_lnn_AM6Hz_17.m4a,,,
,,,,,34830,2021-05-03_18h45.27.294,judgeSpeechMusic_20210407_logNormShiftAmp,2020.1.2,MacIntel,60,,,,,,,,,,,,,,,,,,,,,,,,,,2,8.42175,,0,1,3,153,36,1,stimuli/stim_20210407_power2amp/equal_lnn_AM1.8Hz_49.m4a,,,
,,,,,34830,2021-05-03_18h45.27.294,judgeSpeechMusic_20210407_logNormShiftAmp,2020.1.2,MacIntel,60,,,,,,,,,,,,,,,,,,,,,,,,,,1,8.504835,,0,1,4,154,38,1,stimuli/stim_20210407_power2amp/equal_lnn_AM1.8Hz_47.m4a,,,
,,,,,34830,2021-05-03_18h45.27.294,judgeSpeechMusic_20210407_logNormShiftAmp,2020.1.2,MacIntel,60,,,,,,,,,,,,,,,,,,,,,,,,,,2,6.255085,,0,1,5,155,101,1,stimuli/stim_20210407_power2amp/equal_lnn_AM4.2Hz_30.m4a,,,
,,,,,34830,2021-05-03_18h45.27.294,judgeSpeechMusic_20210407_logNormShiftAmp,2020.1.2,MacIntel,60,,,,,,,,,,,,,,,,,,,,,,,,,,2,6.3785,,0,1,6,156,123,1,stimuli/stim_20210407_power2amp/equal_lnn_AM5.4Hz_20.m4a,,,
,,,,,34830,2021-05-03_18h45.27.294,judgeSpeechMusic_20210407_logNormShiftAmp,2020.1.2,MacIntel,60,,,,,,,,,,,,,,,,,,,,,,,,,,2,9.37329,,0,1,7,157,83,1,stimuli/stim_20210407_power2amp/equal_lnn_AM3.6Hz_29.m4a,,,
,,,,,34830,2021-05-03_18h45.27.294,judgeSpeechMusic_20210407_logNormShiftAmp,2020.1.2,MacIntel,60,,,,,,,,,,,,,,,,,,,,,,,,,,1,6.623165,,0,1,8,158,84,1,stimuli/stim_20210407_power2amp/equal_lnn_AM3.6Hz_45.m4a,,,
,,,,,34830,2021-05-03_18h45.27.294,judgeSpeechMusic_20210407_logNormShiftAmp,2020.1.2,MacIntel,60,,,,,,,,,,,,,,,,,,,,,,,,,,1,21.14858,,0,1,9,159,10,1,stimuli/stim_20210407_power2amp/equal_lnn_AM0.6Hz_83.m4a,,,
,,,,,34830,2021-05-03_18h45.27.294,judgeSpeechMusic_20210407_logNormShiftAmp,2020.1.2,MacIntel,60,,,,,,,,,,,,,,,,,,,,,,,,,,1,18.803585,,0,1,10,160,126,1,stimuli/stim_20210407_power2amp/equal_lnn_AM5.4Hz_73.m4a,,,
,,,,,34830,2021-05-03_18h45.27.294,judgeSpeechMusic_20210407_logNormShiftAmp,2020.1.2,MacIntel,60,,,,,,,,,,,,,,,,,,,,,,,,,,2,6.736625,,0,1,11,161,89,1,stimuli/stim_20210407_power2amp/equal_lnn_AM3.6Hz_97.m4a,,,
,,,,,34830,2021-05-03_18h45.27.294,judgeSpeechMusic_20210407_logNormShiftAmp,2020.1.2,MacIntel,60,,,,,,,,,,,,,,,,,,,,,,,,,,1,5.70529,,0,1,12,162,42,1,stimuli/stim_20210407_power2amp/equal_lnn_AM1.8Hz_23.m4a,,,
,,,,,34830,2021-05-03_18h45.27.294,judgeSpeechMusic_20210407_logNormShiftAmp,2020.1.2,MacIntel,60,,,,,,,,,,,,,,,,,,,,,,,,,,1,5.65271,,0,1,13,163,111,1,stimuli/stim_20210407_power2amp/equal_lnn_AM4.8Hz_89.m4a,,,
,,,,,34830,2021-05-03_18h45.27.294,judgeSpeechMusic_20210407_logNormShiftAmp,2020.1.2,MacIntel,60,,,,,,,,,,,,,,,,,,,,,,,,,,1,10.471415,,0,1,14,164,128,1,stimuli/stim_20210407_power2amp/equal_lnn_AM5.4Hz_61.m4a,,,
,,,,,34830,2021-05-03_18h45.27.294,judgeSpeechMusic_20210407_logNormShiftAmp,2020.1.2,MacIntel,60,,,,,,,,,,,,,,,,,,,,,,,,,,1,6.227665,,0,1,15,165,118,1,stimuli/stim_20210407_power2amp/equal_lnn_AM4.8Hz_53.m4a,,,
,,,,,34830,2021-05-03_18h45.27.294,judgeSpeechMusic_20210407_logNormShiftAmp,2020.1.2,MacIntel,60,,,,,,,,,,,,,,,,,,,,,,,,,,1,5.62975,,0,1,16,166,40,1,stimuli/stim_20210407_power2amp/equal_lnn_AM1.8Hz_100.m4a,,,
,,,,,34830,2021-05-03_18h45.27.294,judgeSpeechMusic_20210407_logNormShiftAmp,2020.1.2,MacIntel,60,,,,,,,,,,,,,,,,,,,,,,,,,,1,10.195375,,0,1,17,167,72,1,stimuli/stim_20210407_power2amp/equal_lnn_AM3Hz_44.m4a,,,
,,,,,34830,2021-05-03_18h45.27.294,judgeSpeechMusic_20210407_logNormShiftAmp,2020.1.2,MacIntel,60,,,,,,,,,,,,,,,,,,,,,,,,,,1,8.17108,,0,1,18,168,139,1,stimuli/stim_20210407_power2amp/equal_lnn_AM6Hz_93.m4a,,,
,,,,,34830,2021-05-03_18h45.27.294,judgeSpeechMusic_20210407_logNormShiftAmp,2020.1.2,MacIntel,60,,,,,,,,,,,,,,,,,,,,,,,,,,1,6.794795,,0,1,19,169,96,1,stimuli/stim_20210407_power2amp/equal_lnn_AM4.2Hz_5.m4a,,,
,,,,,34830,2021-05-03_18h45.27.294,judgeSpeechMusic_20210407_logNormShiftAmp,2020.1.2,MacIntel,60,,,,,,,,,,,,,,,,,,,,,,,,,,1,8.43629,,0,1,20,170,102,1,stimuli/stim_20210407_power2amp/equal_lnn_AM4.2Hz_42.m4a,,,
,,,,,34830,2021-05-03_18h45.27.294,judgeSpeechMusic_20210407_logNormShiftAmp,2020.1.2,MacIntel,60,,,,,,,,,,,,,,,,,,,,,,,,,,1,6.981835,4,1,1,21,171,112,1,stimuli/stim_20210407_power2amp/equal_lnn_AM4.8Hz_76.m4a,1.061335,,
,,,,,34830,2021-05-03_18h45.27.294,judgeSpeechMusic_20210407_logNormShiftAmp,2020.1.2,MacIntel,60,,,,,,,,,,,,,,,,,,,,,,,,,,2,9.817915,,0,1,22,172,33,1,stimuli/stim_20210407_power2amp/equal_lnn_AM1.8Hz_17.m4a,,,
,,,,,34830,2021-05-03_18h45.27.294,judgeSpeechMusic_20210407_logNormShiftAmp,2020.1.2,MacIntel,60,,,,,,,,,,,,,,,,,,,,,,,,,,1,7.571585,,0,1,23,173,120,1,stimuli/stim_20210407_power2amp/equal_lnn_AM5.4Hz_83.m4a,,,
,,,,,34830,2021-05-03_18h45.27.294,judgeSpeechMusic_20210407_logNormShiftAmp,2020.1.2,MacIntel,60,,,,,,,,,,,,,,,,,,,,,,,,,,1,6.48896,,0,1,24,174,94,1,stimuli/stim_20210407_power2amp/equal_lnn_AM4.2Hz_69.m4a,,,
,,,,,34830,2021-05-03_18h45.27.294,judgeSpeechMusic_20210407_logNormShiftAmp,2020.1.2,MacIntel,60,,,,,,,,,,,,,,,,,,,,,,,,,,2,6.06042,,0,1,25,175,98,1,stimuli/stim_20210407_power2amp/equal_lnn_AM4.2Hz_74.m4a,,,
,,,,,34830,2021-05-03_18h45.27.294,judgeSpeechMusic_20210407_logNormShiftAmp,2020.1.2,MacIntel,60,,,,,,,,,,,,,,,,,,,,,,,,,,1,6.80925,,0,1,26,176,11,1,stimuli/stim_20210407_power2amp/equal_lnn_AM0.6Hz_6.m4a,,,
,,,,,34830,2021-05-03_18h45.27.294,judgeSpeechMusic_20210407_logNormShiftAmp,2020.1.2,MacIntel,60,,,,,,,,,,,,,,,,,,,,,,,,,,1,11.404415,,0,1,27,177,61,1,stimuli/stim_20210407_power2amp/equal_lnn_AM3Hz_75.m4a,,,
,,,,,34830,2021-05-03_18h45.27.294,judgeSpeechMusic_20210407_logNormShiftAmp,2020.1.2,MacIntel,60,,,,,,,,,,,,,,,,,,,,,,,,,,1,6.97758,,0,1,28,178,60,1,stimuli/stim_20210407_power2amp/equal_lnn_AM3Hz_34.m4a,,,
,,,,,34830,2021-05-03_18h45.27.294,judgeSpeechMusic_20210407_logNormShiftAmp,2020.1.2,MacIntel,60,,,,,,,,,,,,,,,,,,,,,,,,,,1,13.7775,,0,1,29,179,53,1,stimuli/stim_20210407_power2amp/equal_lnn_AM2.4Hz_98.m4a,,,
,,,,,34830,2021-05-03_18h45.27.294,judgeSpeechMusic_20210407_logNormShiftAmp,2020.1.2,MacIntel,60,,,,,,,,,,,,,,,,,,,,,,,,,,1,16.13021,,0,1,30,180,71,1,stimuli/stim_20210407_power2amp/equal_lnn_AM3Hz_5.m4a,,,
,,,,,34830,2021-05-03_18h45.27.294,judgeSpeechMusic_20210407_logNormShiftAmp,2020.1.2,MacIntel,60,,,,,,,,,,,,,,,,,,,,,,,,,,1,8.95396,,0,1,31,181,114,1,stimuli/stim_20210407_power2amp/equal_lnn_AM4.8Hz_51.m4a,,,
,,,,,34830,2021-05-03_18h45.27.294,judgeSpeechMusic_20210407_logNormShiftAmp,2020.1.2,MacIntel,60,,,,,,,,,,,,,,,,,,,,,,,,,,1,24.271755,,0,1,32,182,49,1,stimuli/stim_20210407_power2amp/equal_lnn_AM2.4Hz_11.m4a,,,
,,,,,34830,2021-05-03_18h45.27.294,judgeSpeechMusic_20210407_logNormShiftAmp,2020.1.2,MacIntel,60,,,,,,,,,,,,,,,,,,,,,,,,,,1,16.4215,,0,1,33,183,79,1,stimuli/stim_20210407_power2amp/equal_lnn_AM3.6Hz_79.m4a,,,
,,,,,34830,2021-05-03_18h45.27.294,judgeSpeechMusic_20210407_logNormShiftAmp,2020.1.2,MacIntel,60,,,,,,,,,,,,,,,,,,,,,,,,,,1,7.966875,,0,1,34,184,74,1,stimuli/stim_20210407_power2amp/equal_lnn_AM3Hz_45.m4a,,,
,,,,,34830,2021-05-03_18h45.27.294,judgeSpeechMusic_20210407_logNormShiftAmp,2020.1.2,MacIntel,60,,,,,,,,,,,,,,,,,,,,,,,,,,1,15.86042,,0,1,35,185,26,1,stimuli/stim_20210407_power2amp/equal_lnn_AM1.2Hz_25.m4a,,,
,,,,,34830,2021-05-03_18h45.27.294,judgeSpeechMusic_20210407_logNormShiftAmp,2020.1.2,MacIntel,60,,,,,,,,,,,,,,,,,,,,,,,,,,1,8.748545,,0,1,36,186,144,1,stimuli/stim_20210407_power2amp/equal_lnn_AM6Hz_72.m4a,,,
,,,,,34830,2021-05-03_18h45.27.294,judgeSpeechMusic_20210407_logNormShiftAmp,2020.1.2,MacIntel,60,,,,,,,,,,,,,,,,,,,,,,,,,,2,5.85625,,0,1,37,187,103,1,stimuli/stim_20210407_power2amp/equal_lnn_AM4.2Hz_70.m4a,,,
,,,,,34830,2021-05-03_18h45.27.294,judgeSpeechMusic_20210407_logNormShiftAmp,2020.1.2,MacIntel,60,,,,,,,,,,,,,,,,,,,,,,,,,,2,5.691495,,0,1,38,188,129,1,stimuli/stim_20210407_power2amp/equal_lnn_AM5.4Hz_97.m4a,,,
,,,,,34830,2021-05-03_18h45.27.294,judgeSpeechMusic_20210407_logNormShiftAmp,2020.1.2,MacIntel,60,,,,,,,,,,,,,,,,,,,,,,,,,,2,17.272585,,0,1,39,189,56,1,stimuli/stim_20210407_power2amp/equal_lnn_AM2.4Hz_37.m4a,,,
,,,,,34830,2021-05-03_18h45.27.294,judgeSpeechMusic_20210407_logNormShiftAmp,2020.1.2,MacIntel,60,,,,,,,,,,,,,,,,,,,,,,,,,,1,7.43729,,0,1,40,190,146,1,stimuli/stim_20210407_power2amp/equal_lnn_AM6Hz_76.m4a,,,
,,,,,34830,2021-05-03_18h45.27.294,judgeSpeechMusic_20210407_logNormShiftAmp,2020.1.2,MacIntel,60,,,,,,,,,,,,,,,,,,,,,,,,,,1,7.804585,,0,1,41,191,122,1,stimuli/stim_20210407_power2amp/equal_lnn_AM5.4Hz_24.m4a,,,
,,,,,34830,2021-05-03_18h45.27.294,judgeSpeechMusic_20210407_logNormShiftAmp,2020.1.2,MacIntel,60,,,,,,,,,,,,,,,,,,,,,,,,,,1,51.877255,3,0,1,42,192,2,1,stimuli/stim_20210407_power2amp/equal_lnn_AM0.6Hz_3.m4a,15.00692,,
,,,,,34830,2021-05-03_18h45.27.294,judgeSpeechMusic_20210407_logNormShiftAmp,2020.1.2,MacIntel,60,,,,,,,,,,,,,,,,,,,,,,,,,,1,68.86604,,0,1,43,193,110,1,stimuli/stim_20210407_power2amp/equal_lnn_AM4.8Hz_30.m4a,,,
,,,,,34830,2021-05-03_18h45.27.294,judgeSpeechMusic_20210407_logNormShiftAmp,2020.1.2,MacIntel,60,,,,,,,,,,,,,,,,,,,,,,,,,,1,6.90233,,0,1,44,194,48,1,stimuli/stim_20210407_power2amp/equal_lnn_AM2.4Hz_73.m4a,,,
,,,,,34830,2021-05-03_18h45.27.294,judgeSpeechMusic_20210407_logNormShiftAmp,2020.1.2,MacIntel,60,,,,,,,,,,,,,,,,,,,,,,,,,,1,6.50596,,0,1,45,195,88,1,stimuli/stim_20210407_power2amp/equal_lnn_AM3.6Hz_90.m4a,,,
,,,,,34830,2021-05-03_18h45.27.294,judgeSpeechMusic_20210407_logNormShiftAmp,2020.1.2,MacIntel,60,,,,,,,,,,,,,,,,,,,,,,,,,,1,5.77058,,0,1,46,196,93,1,stimuli/stim_20210407_power2amp/equal_lnn_AM4.2Hz_78.m4a,,,
,,,,,34830,2021-05-03_18h45.27.294,judgeSpeechMusic_20210407_logNormShiftAmp,2020.1.2,MacIntel,60,,,,,,,,,,,,,,,,,,,,,,,,,,1,9.24304,,0,1,47,197,39,1,stimuli/stim_20210407_power2amp/equal_lnn_AM1.8Hz_93.m4a,,,
,,,,,34830,2021-05-03_18h45.27.294,judgeSpeechMusic_20210407_logNormShiftAmp,2020.1.2,MacIntel,60,,,,,,,,,,,,,,,,,,,,,,,,,,1,6.844835,,0,1,48,198,99,1,stimuli/stim_20210407_power2amp/equal_lnn_AM4.2Hz_50.m4a,,,
,,,,,34830,2021-05-03_18h45.27.294,judgeSpeechMusic_20210407_logNormShiftAmp,2020.1.2,MacIntel,60,,,,,,,,,,,,,,,,,,,,,,,,,,1,10.144705,,0,1,49,199,104,1,stimuli/stim_20210407_power2amp/equal_lnn_AM4.2Hz_73.m4a,,,
,,,,,34830,2021-05-03_18h45.27.294,judgeSpeechMusic_20210407_logNormShiftAmp,2020.1.2,MacIntel,60,,,,,,,,,,,,,,,,,,,,,,,,,,1,11.56079,,0,1,50,200,130,1,stimuli/stim_20210407_power2amp/equal_lnn_AM5.4Hz_8.m4a,,,
,,,,,34830,2021-05-03_18h45.27.294,judgeSpeechMusic_20210407_logNormShiftAmp,2020.1.2,MacIntel,60,,,,,,,,,,,,,,,,,,,,,,,,,,1,8.381,,0,1,51,201,75,1,stimuli/stim_20210407_power2amp/equal_lnn_AM3.6Hz_96.m4a,,,
,,,,,34830,2021-05-03_18h45.27.294,judgeSpeechMusic_20210407_logNormShiftAmp,2020.1.2,MacIntel,60,,,,,,,,,,,,,,,,,,,,,,,,,,1,7.13738,,0,1,52,202,116,1,stimuli/stim_20210407_power2amp/equal_lnn_AM4.8Hz_50.m4a,,,
,,,,,34830,2021-05-03_18h45.27.294,judgeSpeechMusic_20210407_logNormShiftAmp,2020.1.2,MacIntel,60,,,,,,,,,,,,,,,,,,,,,,,,,,1,8.46396,,0,1,53,203,86,1,stimuli/stim_20210407_power2amp/equal_lnn_AM3.6Hz_48.m4a,,,
,,,,,34830,2021-05-03_18h45.27.294,judgeSpeechMusic_20210407_logNormShiftAmp,2020.1.2,MacIntel,60,,,,,,,,,,,,,,,,,,,,,,,,,,2,5.659255,,0,1,54,204,51,1,stimuli/stim_20210407_power2amp/equal_lnn_AM2.4Hz_54.m4a,,,
,,,,,34830,2021-05-03_18h45.27.294,judgeSpeechMusic_20210407_logNormShiftAmp,2020.1.2,MacIntel,60,,,,,,,,,,,,,,,,,,,,,,,,,,2,8.140835,,0,1,55,205,117,1,stimuli/stim_20210407_power2amp/equal_lnn_AM4.8Hz_15.m4a,,,
,,,,,34830,2021-05-03_18h45.27.294,judgeSpeechMusic_20210407_logNormShiftAmp,2020.1.2,MacIntel,60,,,,,,,,,,,,,,,,,,,,,,,,,,1,6.148415,,0,1,56,206,20,1,stimuli/stim_20210407_power2amp/equal_lnn_AM1.2Hz_100.m4a,,,
,,,,,34830,2021-05-03_18h45.27.294,judgeSpeechMusic_20210407_logNormShiftAmp,2020.1.2,MacIntel,60,,,,,,,,,,,,,,,,,,,,,,,,,,2,7.946705,,0,1,57,207,62,1,stimuli/stim_20210407_power2amp/equal_lnn_AM3Hz_41.m4a,,,
,,,,,34830,2021-05-03_18h45.27.294,judgeSpeechMusic_20210407_logNormShiftAmp,2020.1.2,MacIntel,60,,,,,,,,,,,,,,,,,,,,,,,,,,2,14.78796,,0,1,58,208,73,1,stimuli/stim_20210407_power2amp/equal_lnn_AM3Hz_53.m4a,,,
,,,,,34830,2021-05-03_18h45.27.294,judgeSpeechMusic_20210407_logNormShiftAmp,2020.1.2,MacIntel,60,,,,,,,,,,,,,,,,,,,,,,,,,,1,7.72904,,0,1,59,209,5,1,stimuli/stim_20210407_power2amp/equal_lnn_AM0.6Hz_32.m4a,,,
,,,,,34830,2021-05-03_18h45.27.294,judgeSpeechMusic_20210407_logNormShiftAmp,2020.1.2,MacIntel,60,,,,,,,,,,,,,,,,,,,,,,,,,,2,20.570705,,0,1,60,210,15,1,stimuli/stim_20210407_power2amp/equal_lnn_AM1.2Hz_34.m4a,,,
,,,,,34830,2021-05-03_18h45.27.294,judgeSpeechMusic_20210407_logNormShiftAmp,2020.1.2,MacIntel,60,,,,,,,,,,,,,,,,,,,,,,,,,,2,14.13746,,0,1,61,211,132,1,stimuli/stim_20210407_power2amp/equal_lnn_AM5.4Hz_76.m4a,,,
,,,,,34830,2021-05-03_18h45.27.294,judgeSpeechMusic_20210407_logNormShiftAmp,2020.1.2,MacIntel,60,,,,,,,,,,,,,,,,,,,,,,,,,,2,5.588875,,0,1,62,212,119,1,stimuli/stim_20210407_power2amp/equal_lnn_AM4.8Hz_41.m4a,,,
,,,,,34830,2021-05-03_18h45.27.294,judgeSpeechMusic_20210407_logNormShiftAmp,2020.1.2,MacIntel,60,,,,,,,,,,,,,,,,,,,,,,,,,,1,6.010835,,0,1,63,213,143,1,stimuli/stim_20210407_power2amp/equal_lnn_AM6Hz_86.m4a,,,
,,,,,34830,2021-05-03_18h45.27.294,judgeSpeechMusic_20210407_logNormShiftAmp,2020.1.2,MacIntel,60,,,,,,,,,,,,,,,,,,,,,,,,,,1,6.853915,3,1,1,64,214,138,1,stimuli/stim_20210407_power2amp/equal_lnn_AM6Hz_90.m4a,1.773835,,
,,,,,34830,2021-05-03_18h45.27.294,judgeSpeechMusic_20210407_logNormShiftAmp,2020.1.2,MacIntel,60,,,,,,,,,,,,,,,,,,,,,,,,,,2,8.872205,,0,1,65,215,97,1,stimuli/stim_20210407_power2amp/equal_lnn_AM4.2Hz_8.m4a,,,
,,,,,34830,2021-05-03_18h45.27.294,judgeSpeechMusic_20210407_logNormShiftAmp,2020.1.2,MacIntel,60,,,,,,,,,,,,,,,,,,,,,,,,,,1,7.67496,,0,1,66,216,135,1,stimuli/stim_20210407_power2amp/equal_lnn_AM6Hz_28.m4a,,,
,,,,,34830,2021-05-03_18h45.27.294,judgeSpeechMusic_20210407_logNormShiftAmp,2020.1.2,MacIntel,60,,,,,,,,,,,,,,,,,,,,,,,,,,2,10.120455,,0,1,67,217,54,1,stimuli/stim_20210407_power2amp/equal_lnn_AM2.4Hz_22.m4a,,,
,,,,,34830,2021-05-03_18h45.27.294,judgeSpeechMusic_20210407_logNormShiftAmp,2020.1.2,MacIntel,60,,,,,,,,,,,,,,,,,,,,,,,,,,2,9.92441,,0,1,68,218,81,1,stimuli/stim_20210407_power2amp/equal_lnn_AM3.6Hz_78.m4a,,,
,,,,,34830,2021-05-03_18h45.27.294,judgeSpeechMusic_20210407_logNormShiftAmp,2020.1.2,MacIntel,60,,,,,,,,,,,,,,,,,,,,,,,,,,2,8.220585,,0,1,69,219,21,1,stimuli/stim_20210407_power2amp/equal_lnn_AM1.2Hz_92.m4a,,,
,,,,,34830,2021-05-03_18h45.27.294,judgeSpeechMusic_20210407_logNormShiftAmp,2020.1.2,MacIntel,60,,,,,,,,,,,,,,,,,,,,,,,,,,1,5.756045,,0,1,70,220,18,1,stimuli/stim_20210407_power2amp/equal_lnn_AM1.2Hz_47.m4a,,,
,,,,,34830,2021-05-03_18h45.27.294,judgeSpeechMusic_20210407_logNormShiftAmp,2020.1.2,MacIntel,60,,,,,,,,,,,,,,,,,,,,,,,,,,1,16.605455,,0,1,71,221,29,1,stimuli/stim_20210407_power2amp/equal_lnn_AM1.2Hz_26.m4a,,,
,,,,,34830,2021-05-03_18h45.27.294,judgeSpeechMusic_20210407_logNormShiftAmp,2020.1.2,MacIntel,60,,,,,,,,,,,,,,,,,,,,,,,,,,2,23.16992,,0,1,72,222,85,1,stimuli/stim_20210407_power2amp/equal_lnn_AM3.6Hz_43.m4a,,,
,,,,,34830,2021-05-03_18h45.27.294,judgeSpeechMusic_20210407_logNormShiftAmp,2020.1.2,MacIntel,60,,,,,,,,,,,,,,,,,,,,,,,,,,1,7.961245,,0,1,73,223,66,1,stimuli/stim_20210407_power2amp/equal_lnn_AM3Hz_36.m4a,,,
,,,,,34830,2021-05-03_18h45.27.294,judgeSpeechMusic_20210407_logNormShiftAmp,2020.1.2,MacIntel,60,,,,,,,,,,,,,,,,,,,,,,,,,,1,8.039,,0,1,74,224,6,1,stimuli/stim_20210407_power2amp/equal_lnn_AM0.6Hz_19.m4a,,,
,,,,,34830,2021-05-03_18h45.27.294,judgeSpeechMusic_20210407_logNormShiftAmp,2020.1.2,MacIntel,60,,,,,,,,,,,,,,,,,,,,,,,,,,1,9.22146,,0,1,75,225,91,1,stimuli/stim_20210407_power2amp/equal_lnn_AM4.2Hz_38.m4a,,,
,,,,,34830,2021-05-03_18h45.27.294,judgeSpeechMusic_20210407_logNormShiftAmp,2020.1.2,MacIntel,60,,,,,,,,,,,,,,,,,,,,,,,,,,1,5.68879,,0,1,76,226,105,1,stimuli/stim_20210407_power2amp/equal_lnn_AM4.8Hz_9.m4a,,,
,,,,,34830,2021-05-03_18h45.27.294,judgeSpeechMusic_20210407_logNormShiftAmp,2020.1.2,MacIntel,60,,,,,,,,,,,,,,,,,,,,,,,,,,1,9.537705,,0,1,77,227,43,1,stimuli/stim_20210407_power2amp/equal_lnn_AM1.8Hz_86.m4a,,,
,,,,,34830,2021-05-03_18h45.27.294,judgeSpeechMusic_20210407_logNormShiftAmp,2020.1.2,MacIntel,60,,,,,,,,,,,,,,,,,,,,,,,,,,2,6.71104,,0,1,78,228,24,1,stimuli/stim_20210407_power2amp/equal_lnn_AM1.2Hz_74.m4a,,,
,,,,,34830,2021-05-03_18h45.27.294,judgeSpeechMusic_20210407_logNormShiftAmp,2020.1.2,MacIntel,60,,,,,,,,,,,,,,,,,,,,,,,,,,2,9.555045,,0,1,79,229,100,1,stimuli/stim_20210407_power2amp/equal_lnn_AM4.2Hz_40.m4a,,,
,,,,,34830,2021-05-03_18h45.27.294,judgeSpeechMusic_20210407_logNormShiftAmp,2020.1.2,MacIntel,60,,,,,,,,,,,,,,,,,,,,,,,,,,2,7.181295,,0,1,80,230,80,1,stimuli/stim_20210407_power2amp/equal_lnn_AM3.6Hz_84.m4a,,,
,,,,,34830,2021-05-03_18h45.27.294,judgeSpeechMusic_20210407_logNormShiftAmp,2020.1.2,MacIntel,60,,,,,,,,,,,,,,,,,,,,,,,,,,2,10.91829,,0,1,81,231,52,1,stimuli/stim_20210407_power2amp/equal_lnn_AM2.4Hz_40.m4a,,,
,,,,,34830,2021-05-03_18h45.27.294,judgeSpeechMusic_20210407_logNormShiftAmp,2020.1.2,MacIntel,60,,,,,,,,,,,,,,,,,,,,,,,,,,2,6.99329,,0,1,82,232,28,1,stimuli/stim_20210407_power2amp/equal_lnn_AM1.2Hz_12.m4a,,,
,,,,,34830,2021-05-03_18h45.27.294,judgeSpeechMusic_20210407_logNormShiftAmp,2020.1.2,MacIntel,60,,,,,,,,,,,,,,,,,,,,,,,,,,2,15.22908,,0,1,83,233,0,1,stimuli/stim_20210407_power2amp/equal_lnn_AM0.6Hz_91.m4a,,,
,,,,,34830,2021-05-03_18h45.27.294,judgeSpeechMusic_20210407_logNormShiftAmp,2020.1.2,MacIntel,60,,,,,,,,,,,,,,,,,,,,,,,,,,2,28.77067,,0,1,84,234,44,1,stimuli/stim_20210407_power2amp/equal_lnn_AM1.8Hz_48.m4a,,,
,,,,,34830,2021-05-03_18h45.27.294,judgeSpeechMusic_20210407_logNormShiftAmp,2020.1.2,MacIntel,60,,,,,,,,,,,,,,,,,,,,,,,,,,2,22.966165,4,1,1,85,235,34,1,stimuli/stim_20210407_power2amp/equal_lnn_AM1.8Hz_63.m4a,1.123585,,
,,,,,34830,2021-05-03_18h45.27.294,judgeSpeechMusic_20210407_logNormShiftAmp,2020.1.2,MacIntel,60,,,,,,,,,,,,,,,,,,,,,,,,,,2,5.85683,,0,1,86,236,82,1,stimuli/stim_20210407_power2amp/equal_lnn_AM3.6Hz_61.m4a,,,
,,,,,34830,2021-05-03_18h45.27.294,judgeSpeechMusic_20210407_logNormShiftAmp,2020.1.2,MacIntel,60,,,,,,,,,,,,,,,,,,,,,,,,,,2,9.5865,,0,1,87,237,65,1,stimuli/stim_20210407_power2amp/equal_lnn_AM3Hz_93.m4a,,,
,,,,,34830,2021-05-03_18h45.27.294,judgeSpeechMusic_20210407_logNormShiftAmp,2020.1.2,MacIntel,60,,,,,,,,,,,,,,,,,,,,,,,,,,2,15.25579,,0,1,88,238,107,1,stimuli/stim_20210407_power2amp/equal_lnn_AM4.8Hz_54.m4a,,,
,,,,,34830,2021-05-03_18h45.27.294,judgeSpeechMusic_20210407_logNormShiftAmp,2020.1.2,MacIntel,60,,,,,,,,,,,,,,,,,,,,,,,,,,2,7.789875,,0,1,89,239,64,1,stimuli/stim_20210407_power2amp/equal_lnn_AM3Hz_74.m4a,,,
,,,,,34830,2021-05-03_18h45.27.294,judgeSpeechMusic_20210407_logNormShiftAmp,2020.1.2,MacIntel,60,,,,,,,,,,,,,,,,,,,,,,,,,,1,7.478875,,0,1,90,240,41,1,stimuli/stim_20210407_power2amp/equal_lnn_AM1.8Hz_70.m4a,,,
,,,,,34830,2021-05-03_18h45.27.294,judgeSpeechMusic_20210407_logNormShiftAmp,2020.1.2,MacIntel,60,,,,,,,,,,,,,,,,,,,,,,,,,,1,7.792,,0,1,91,241,23,1,stimuli/stim_20210407_power2amp/equal_lnn_AM1.2Hz_29.m4a,,,
,,,,,34830,2021-05-03_18h45.27.294,judgeSpeechMusic_20210407_logNormShiftAmp,2020.1.2,MacIntel,60,,,,,,,,,,,,,,,,,,,,,,,,,,2,6.786455,,0,1,92,242,125,1,stimuli/stim_20210407_power2amp/equal_lnn_AM5.4Hz_42.m4a,,,
,,,,,34830,2021-05-03_18h45.27.294,judgeSpeechMusic_20210407_logNormShiftAmp,2020.1.2,MacIntel,60,,,,,,,,,,,,,,,,,,,,,,,,,,2,28.11029,,0,1,93,243,147,1,stimuli/stim_20210407_power2amp/equal_lnn_AM6Hz_16.m4a,,,
,,,,,34830,2021-05-03_18h45.27.294,judgeSpeechMusic_20210407_logNormShiftAmp,2020.1.2,MacIntel,60,,,,,,,,,,,,,,,,,,,,,,,,,,2,9.181835,,0,1,94,244,121,1,stimuli/stim_20210407_power2amp/equal_lnn_AM5.4Hz_4.m4a,,,
,,,,,34830,2021-05-03_18h45.27.294,judgeSpeechMusic_20210407_logNormShiftAmp,2020.1.2,MacIntel,60,,,,,,,,,,,,,,,,,,,,,,,,,,2,5.654,,0,1,95,245,109,1,stimuli/stim_20210407_power2amp/equal_lnn_AM4.8Hz_77.m4a,,,
,,,,,34830,2021-05-03_18h45.27.294,judgeSpeechMusic_20210407_logNormShiftAmp,2020.1.2,MacIntel,60,,,,,,,,,,,,,,,,,,,,,,,,,,1,5.61912,,0,1,96,246,30,1,stimuli/stim_20210407_power2amp/equal_lnn_AM1.8Hz_77.m4a,,,
,,,,,34830,2021-05-03_18h45.27.294,judgeSpeechMusic_20210407_logNormShiftAmp,2020.1.2,MacIntel,60,,,,,,,,,,,,,,,,,,,,,,,,,,1,7.773,,0,1,97,247,149,1,stimuli/stim_20210407_power2amp/equal_lnn_AM6Hz_94.m4a,,,
,,,,,34830,2021-05-03_18h45.27.294,judgeSpeechMusic_20210407_logNormShiftAmp,2020.1.2,MacIntel,60,,,,,,,,,,,,,,,,,,,,,,,,,,1,8.83004,,0,1,98,248,113,1,stimuli/stim_20210407_power2amp/equal_lnn_AM4.8Hz_75.m4a,,,
,,,,,34830,2021-05-03_18h45.27.294,judgeSpeechMusic_20210407_logNormShiftAmp,2020.1.2,MacIntel,60,,,,,,,,,,,,,,,,,,,,,,,,,,1,13.35333,,0,1,99,249,14,1,stimuli/stim_20210407_power2amp/equal_lnn_AM0.6Hz_67.m4a,,,
,,,,,34830,2021-05-03_18h45.27.294,judgeSpeechMusic_20210407_logNormShiftAmp,2020.1.2,MacIntel,60,,,,,,,,,,,,,,,,,,,,,,,,,,1,8.692085,,0,1,100,250,3,1,stimuli/stim_20210407_power2amp/equal_lnn_AM0.6Hz_97.m4a,,,
,,,,,34830,2021-05-03_18h45.27.294,judgeSpeechMusic_20210407_logNormShiftAmp,2020.1.2,MacIntel,60,,,,,,,,,,,,,,,,,,,,,,,,,,2,6.123085,,0,1,101,251,32,1,stimuli/stim_20210407_power2amp/equal_lnn_AM1.8Hz_92.m4a,,,
,,,,,34830,2021-05-03_18h45.27.294,judgeSpeechMusic_20210407_logNormShiftAmp,2020.1.2,MacIntel,60,,,,,,,,,,,,,,,,,,,,,,,,,,1,5.676875,,0,1,102,252,127,1,stimuli/stim_20210407_power2amp/equal_lnn_AM5.4Hz_28.m4a,,,
,,,,,34830,2021-05-03_18h45.27.294,judgeSpeechMusic_20210407_logNormShiftAmp,2020.1.2,MacIntel,60,,,,,,,,,,,,,,,,,,,,,,,,,,2,5.678705,,0,1,103,253,35,1,stimuli/stim_20210407_power2amp/equal_lnn_AM1.8Hz_15.m4a,,,
,,,,,34830,2021-05-03_18h45.27.294,judgeSpeechMusic_20210407_logNormShiftAmp,2020.1.2,MacIntel,60,,,,,,,,,,,,,,,,,,,,,,,,,,2,5.536335,,0,1,104,254,87,1,stimuli/stim_20210407_power2amp/equal_lnn_AM3.6Hz_92.m4a,,,
,,,,,34830,2021-05-03_18h45.27.294,judgeSpeechMusic_20210407_logNormShiftAmp,2020.1.2,MacIntel,60,,,,,,,,,,,,,,,,,,,,,,,,,,2,12.27925,,0,1,105,255,90,1,stimuli/stim_20210407_power2amp/equal_lnn_AM4.2Hz_28.m4a,,,
,,,,,34830,2021-05-03_18h45.27.294,judgeSpeechMusic_20210407_logNormShiftAmp,2020.1.2,MacIntel,60,,,,,,,,,,,,,,,,,,,,,,,,,,2,19.76883,,0,1,106,256,137,1,stimuli/stim_20210407_power2amp/equal_lnn_AM6Hz_81.m4a,,,
,,,,,34830,2021-05-03_18h45.27.294,judgeSpeechMusic_20210407_logNormShiftAmp,2020.1.2,MacIntel,60,,,,,,,,,,,,,,,,,,,,,,,,,,2,6.31175,4,1,1,107,257,78,1,stimuli/stim_20210407_power2amp/equal_lnn_AM3.6Hz_70.m4a,0.761915,,
,,,,,34830,2021-05-03_18h45.27.294,judgeSpeechMusic_20210407_logNormShiftAmp,2020.1.2,MacIntel,60,,,,,,,,,,,,,,,,,,,,,,,,,,2,6.269415,,0,1,108,258,46,1,stimuli/stim_20210407_power2amp/equal_lnn_AM2.4Hz_62.m4a,,,
,,,,,34830,2021-05-03_18h45.27.294,judgeSpeechMusic_20210407_logNormShiftAmp,2020.1.2,MacIntel,60,,,,,,,,,,,,,,,,,,,,,,,,,,2,8.181625,,0,1,109,259,13,1,stimuli/stim_20210407_power2amp/equal_lnn_AM0.6Hz_21.m4a,,,
,,,,,34830,2021-05-03_18h45.27.294,judgeSpeechMusic_20210407_logNormShiftAmp,2020.1.2,MacIntel,60,,,,,,,,,,,,,,,,,,,,,,,,,,2,8.69208,,0,1,110,260,59,1,stimuli/stim_20210407_power2amp/equal_lnn_AM2.4Hz_52.m4a,,,
,,,,,34830,2021-05-03_18h45.27.294,judgeSpeechMusic_20210407_logNormShiftAmp,2020.1.2,MacIntel,60,,,,,,,,,,,,,,,,,,,,,,,,,,2,8.20491,,0,1,111,261,57,1,stimuli/stim_20210407_power2amp/equal_lnn_AM2.4Hz_2.m4a,,,
,,,,,34830,2021-05-03_18h45.27.294,judgeSpeechMusic_20210407_logNormShiftAmp,2020.1.2,MacIntel,60,,,,,,,,,,,,,,,,,,,,,,,,,,2,6.42125,,0,1,112,262,7,1,stimuli/stim_20210407_power2amp/equal_lnn_AM0.6Hz_24.m4a,,,
,,,,,34830,2021-05-03_18h45.27.294,judgeSpeechMusic_20210407_logNormShiftAmp,2020.1.2,MacIntel,60,,,,,,,,,,,,,,,,,,,,,,,,,,2,5.674665,,0,1,113,263,77,1,stimuli/stim_20210407_power2amp/equal_lnn_AM3.6Hz_6.m4a,,,
,,,,,34830,2021-05-03_18h45.27.294,judgeSpeechMusic_20210407_logNormShiftAmp,2020.1.2,MacIntel,60,,,,,,,,,,,,,,,,,,,,,,,,,,2,6.642545,,0,1,114,264,55,1,stimuli/stim_20210407_power2amp/equal_lnn_AM2.4Hz_12.m4a,,,
,,,,,34830,2021-05-03_18h45.27.294,judgeSpeechMusic_20210407_logNormShiftAmp,2020.1.2,MacIntel,60,,,,,,,,,,,,,,,,,,,,,,,,,,2,7.888255,,0,1,115,265,37,1,stimuli/stim_20210407_power2amp/equal_lnn_AM1.8Hz_21.m4a,,,
,,,,,34830,2021-05-03_18h45.27.294,judgeSpeechMusic_20210407_logNormShiftAmp,2020.1.2,MacIntel,60,,,,,,,,,,,,,,,,,,,,,,,,,,2,8.224295,,0,1,116,266,69,1,stimuli/stim_20210407_power2amp/equal_lnn_AM3Hz_16.m4a,,,
,,,,,34830,2021-05-03_18h45.27.294,judgeSpeechMusic_20210407_logNormShiftAmp,2020.1.2,MacIntel,60,,,,,,,,,,,,,,,,,,,,,,,,,,2,6.736835,,0,1,117,267,25,1,stimuli/stim_20210407_power2amp/equal_lnn_AM1.2Hz_17.m4a,,,
,,,,,34830,2021-05-03_18h45.27.294,judgeSpeechMusic_20210407_logNormShiftAmp,2020.1.2,MacIntel,60,,,,,,,,,,,,,,,,,,,,,,,,,,2,6.92492,,0,1,118,268,67,1,stimuli/stim_20210407_power2amp/equal_lnn_AM3Hz_57.m4a,,,
,,,,,34830,2021-05-03_18h45.27.294,judgeSpeechMusic_20210407_logNormShiftAmp,2020.1.2,MacIntel,60,,,,,,,,,,,,,,,,,,,,,,,,,,2,8.037915,,0,1,119,269,8,1,stimuli/stim_20210407_power2amp/equal_lnn_AM0.6Hz_87.m4a,,,
,,,,,34830,2021-05-03_18h45.27.294,judgeSpeechMusic_20210407_logNormShiftAmp,2020.1.2,MacIntel,60,,,,,,,,,,,,,,,,,,,,,,,,,,2,6.186835,,0,1,120,270,50,1,stimuli/stim_20210407_power2amp/equal_lnn_AM2.4Hz_49.m4a,,,
,,,,,34830,2021-05-03_18h45.27.294,judgeSpeechMusic_20210407_logNormShiftAmp,2020.1.2,MacIntel,60,,,,,,,,,,,,,,,,,,,,,,,,,,2,6.18687,,0,1,121,271,145,1,stimuli/stim_20210407_power2amp/equal_lnn_AM6Hz_50.m4a,,,
,,,,,34830,2021-05-03_18h45.27.294,judgeSpeechMusic_20210407_logNormShiftAmp,2020.1.2,MacIntel,60,,,,,,,,,,,,,,,,,,,,,,,,,,2,5.603295,,0,1,122,272,76,1,stimuli/stim_20210407_power2amp/equal_lnn_AM3.6Hz_30.m4a,,,
,,,,,34830,2021-05-03_18h45.27.294,judgeSpeechMusic_20210407_logNormShiftAmp,2020.1.2,MacIntel,60,,,,,,,,,,,,,,,,,,,,,,,,,,2,5.99025,,0,1,123,273,131,1,stimuli/stim_20210407_power2amp/equal_lnn_AM5.4Hz_32.m4a,,,
,,,,,34830,2021-05-03_18h45.27.294,judgeSpeechMusic_20210407_logNormShiftAmp,2020.1.2,MacIntel,60,,,,,,,,,,,,,,,,,,,,,,,,,,2,6.08579,,0,1,124,274,115,1,stimuli/stim_20210407_power2amp/equal_lnn_AM4.8Hz_22.m4a,,,
,,,,,34830,2021-05-03_18h45.27.294,judgeSpeechMusic_20210407_logNormShiftAmp,2020.1.2,MacIntel,60,,,,,,,,,,,,,,,,,,,,,,,,,,2,6.244955,,0,1,125,275,19,1,stimuli/stim_20210407_power2amp/equal_lnn_AM1.2Hz_97.m4a,,,
,,,,,34830,2021-05-03_18h45.27.294,judgeSpeechMusic_20210407_logNormShiftAmp,2020.1.2,MacIntel,60,,,,,,,,,,,,,,,,,,,,,,,,,,2,5.68671,,0,1,126,276,92,1,stimuli/stim_20210407_power2amp/equal_lnn_AM4.2Hz_75.m4a,,,
,,,,,34830,2021-05-03_18h45.27.294,judgeSpeechMusic_20210407_logNormShiftAmp,2020.1.2,MacIntel,60,,,,,,,,,,,,,,,,,,,,,,,,,,2,5.731085,,0,1,127,277,47,1,stimuli/stim_20210407_power2amp/equal_lnn_AM2.4Hz_10.m4a,,,
,,,,,34830,2021-05-03_18h45.27.294,judgeSpeechMusic_20210407_logNormShiftAmp,2020.1.2,MacIntel,60,,,,,,,,,,,,,,,,,,,,,,,,,,2,5.87179,,0,1,128,278,58,1,stimuli/stim_20210407_power2amp/equal_lnn_AM2.4Hz_43.m4a,,,
,,,,,34830,2021-05-03_18h45.27.294,judgeSpeechMusic_20210407_logNormShiftAmp,2020.1.2,MacIntel,60,,,,,,,,,,,,,,,,,,,,,,,,,,2,5.454625,4,1,1,129,279,108,1,stimuli/stim_20210407_power2amp/equal_lnn_AM4.8Hz_83.m4a,1.140165,,
,,,,,34830,2021-05-03_18h45.27.294,judgeSpeechMusic_20210407_logNormShiftAmp,2020.1.2,MacIntel,60,,,,,,,,,,,,,,,,,,,,,,,,,,2,12.285495,,0,1,130,280,134,1,stimuli/stim_20210407_power2amp/equal_lnn_AM5.4Hz_51.m4a,,,
,,,,,34830,2021-05-03_18h45.27.294,judgeSpeechMusic_20210407_logNormShiftAmp,2020.1.2,MacIntel,60,,,,,,,,,,,,,,,,,,,,,,,,,,2,6.22029,,0,1,131,281,9,1,stimuli/stim_20210407_power2amp/equal_lnn_AM0.6Hz_65.m4a,,,
,,,,,34830,2021-05-03_18h45.27.294,judgeSpeechMusic_20210407_logNormShiftAmp,2020.1.2,MacIntel,60,,,,,,,,,,,,,,,,,,,,,,,,,,2,5.77025,,0,1,132,282,16,1,stimuli/stim_20210407_power2amp/equal_lnn_AM1.2Hz_73.m4a,,,
,,,,,34830,2021-05-03_18h45.27.294,judgeSpeechMusic_20210407_logNormShiftAmp,2020.1.2,MacIntel,60,,,,,,,,,,,,,,,,,,,,,,,,,,2,5.76683,,0,1,133,283,31,1,stimuli/stim_20210407_power2amp/equal_lnn_AM1.8Hz_94.m4a,,,
,,,,,34830,2021-05-03_18h45.27.294,judgeSpeechMusic_20210407_logNormShiftAmp,2020.1.2,MacIntel,60,,,,,,,,,,,,,,,,,,,,,,,,,,2,7.35379,,0,1,134,284,133,1,stimuli/stim_20210407_power2amp/equal_lnn_AM5.4Hz_95.m4a,,,
,,,,,34830,2021-05-03_18h45.27.294,judgeSpeechMusic_20210407_logNormShiftAmp,2020.1.2,MacIntel,60,,,,,,,,,,,,,,,,,,,,,,,,,,2,7.629165,,0,1,135,285,142,1,stimuli/stim_20210407_power2amp/equal_lnn_AM6Hz_29.m4a,,,
,,,,,34830,2021-05-03_18h45.27.294,judgeSpeechMusic_20210407_logNormShiftAmp,2020.1.2,MacIntel,60,,,,,,,,,,,,,,,,,,,,,,,,,,2,11.811585,,0,1,136,286,124,1,stimuli/stim_20210407_power2amp/equal_lnn_AM5.4Hz_11.m4a,,,
,,,,,34830,2021-05-03_18h45.27.294,judgeSpeechMusic_20210407_logNormShiftAmp,2020.1.2,MacIntel,60,,,,,,,,,,,,,,,,,,,,,,,,,,2,6.506995,,0,1,137,287,68,1,stimuli/stim_20210407_power2amp/equal_lnn_AM3Hz_3.m4a,,,
,,,,,34830,2021-05-03_18h45.27.294,judgeSpeechMusic_20210407_logNormShiftAmp,2020.1.2,MacIntel,60,,,,,,,,,,,,,,,,,,,,,,,,,,2,6.121375,,0,1,138,288,12,1,stimuli/stim_20210407_power2amp/equal_lnn_AM0.6Hz_79.m4a,,,
,,,,,34830,2021-05-03_18h45.27.294,judgeSpeechMusic_20210407_logNormShiftAmp,2020.1.2,MacIntel,60,,,,,,,,,,,,,,,,,,,,,,,,,,2,6.13913,,0,1,139,289,148,1,stimuli/stim_20210407_power2amp/equal_lnn_AM6Hz_48.m4a,,,
,,,,,34830,2021-05-03_18h45.27.294,judgeSpeechMusic_20210407_logNormShiftAmp,2020.1.2,MacIntel,60,,,,,,,,,,,,,,,,,,,,,,,,,,2,5.990085,,0,1,140,290,95,1,stimuli/stim_20210407_power2amp/equal_lnn_AM4.2Hz_93.m4a,,,
,,,,,34830,2021-05-03_18h45.27.294,judgeSpeechMusic_20210407_logNormShiftAmp,2020.1.2,MacIntel,60,,,,,,,,,,,,,,,,,,,,,,,,,,2,5.22233,,0,1,141,291,63,1,stimuli/stim_20210407_power2amp/equal_lnn_AM3Hz_50.m4a,,,
,,,,,34830,2021-05-03_18h45.27.294,judgeSpeechMusic_20210407_logNormShiftAmp,2020.1.2,MacIntel,60,,,,,,,,,,,,,,,,,,,,,,,,,,2,5.655,,0,1,142,292,1,1,stimuli/stim_20210407_power2amp/equal_lnn_AM0.6Hz_56.m4a,,,
,,,,,34830,2021-05-03_18h45.27.294,judgeSpeechMusic_20210407_logNormShiftAmp,2020.1.2,MacIntel,60,,,,,,,,,,,,,,,,,,,,,,,,,,2,5.971335,,0,1,143,293,70,1,stimuli/stim_20210407_power2amp/equal_lnn_AM3Hz_38.m4a,,,
,,,,,34830,2021-05-03_18h45.27.294,judgeSpeechMusic_20210407_logNormShiftAmp,2020.1.2,MacIntel,60,,,,,,,,,,,,,,,,,,,,,,,,,,2,6.46867,,0,1,144,294,22,1,stimuli/stim_20210407_power2amp/equal_lnn_AM1.2Hz_48.m4a,,,
,,,,,34830,2021-05-03_18h45.27.294,judgeSpeechMusic_20210407_logNormShiftAmp,2020.1.2,MacIntel,60,,,,,,,,,,,,,,,,,,,,,,,,,,2,7.28821,,0,1,145,295,27,1,stimuli/stim_20210407_power2amp/equal_lnn_AM1.2Hz_21.m4a,,,
,,,,,34830,2021-05-03_18h45.27.294,judgeSpeechMusic_20210407_logNormShiftAmp,2020.1.2,MacIntel,60,,,,,,,,,,,,,,,,,,,,,,,,,,2,8.97833,,0,1,146,296,136,1,stimuli/stim_20210407_power2amp/equal_lnn_AM6Hz_12.m4a,,,
,,,,,34830,2021-05-03_18h45.27.294,judgeSpeechMusic_20210407_logNormShiftAmp,2020.1.2,MacIntel,60,,,,,,,,,,,,,,,,,,,,,,,,,,2,6.20333,,0,1,147,297,45,1,stimuli/stim_20210407_power2amp/equal_lnn_AM2.4Hz_3.m4a,,,
,,,,,34830,2021-05-03_18h45.27.294,judgeSpeechMusic_20210407_logNormShiftAmp,2020.1.2,MacIntel,60,,,,,,,,,,,,,,,,,,,,,,,,,,2,5.819875,,0,1,148,298,141,1,stimuli/stim_20210407_power2amp/equal_lnn_AM6Hz_88.m4a,,,
,,,,,34830,2021-05-03_18h45.27.294,judgeSpeechMusic_20210407_logNormShiftAmp,2020.1.2,MacIntel,60,,,,,,,,,,,,,,,,,,,,,,,,,,2,6.00367,,0,1,149,299,17,1,stimuli/stim_20210407_power2amp/equal_lnn_AM1.2Hz_14.m4a,,,
,,,,,34830,2021-05-03_18h45.27.294,judgeSpeechMusic_20210407_logNormShiftAmp,2020.1.2,MacIntel,60,,,,,,,,,,,,,,,,,,,,,,,,,,,,,,,,,,,,,space,2.760795
