volAdjustRep.thisRepN,volAdjustRep.thisTrialN,volAdjustRep.thisN,volAdjustRep.thisIndex,volAdjustRep.ran,participant,date,expName,psychopyVersion,OS,frameRate,headphoneResponse.keys,headphoneResponse.corr,headphoneResponse.rt,headphoneTrial.thisRepN,headphoneTrial.thisTrialN,headphoneTrial.thisN,headphoneTrial.thisIndex,headphoneTrial.ran,headphone_sound1,headphone_sound2,headphone_sound3,corrAns,trainSlider.response,trainSlider.rt,beepTrainResponse.keys,beepTrainResponse.corr,trainingTrials.thisRepN,trainingTrials.thisTrialN,trainingTrials.thisN,trainingTrials.thisIndex,trainingTrials.ran,trainAudioFile,beepTrainResponse.rt,readyReal_resp.keys,readyReal_resp.rt,ratingSlider.response,ratingSlider.rt,beepResp.keys,beepResp.corr,expTrials.thisRepN,expTrials.thisTrialN,expTrials.thisN,expTrials.thisIndex,expTrials.ran,audioFile,beepResp.rt,end_resp.keys,end_resp.rt
0,0,0,0,1,36091,2021-05-01_20h39.51.197,judgeSpeechMusic_20210407_logNormShiftAmp,2020.1.2,MacIntel,60,,,,,,,,,,,,,,,,,,,,,,,,,,,,,,,,,,,,,,
,,,,,36091,2021-05-01_20h39.51.197,judgeSpeechMusic_20210407_logNormShiftAmp,2020.1.2,MacIntel,60,1,1,1.83188,0,0,0,5,1,stimuli/screen_quiet.wav,stimuli/screen_origin.wav,stimuli/screen_antiphase.wav,1,,,,,,,,,,,,,,,,,,,,,,,,,,
,,,,,36091,2021-05-01_20h39.51.197,judgeSpeechMusic_20210407_logNormShiftAmp,2020.1.2,MacIntel,60,3,1,1.002515,0,1,1,2,1,stimuli/screen_origin.wav,stimuli/screen_antiphase.wav,stimuli/screen_quiet.wav,3,,,,,,,,,,,,,,,,,,,,,,,,,,
,,,,,36091,2021-05-01_20h39.51.197,judgeSpeechMusic_20210407_logNormShiftAmp,2020.1.2,MacIntel,60,2,1,0.680735,0,2,2,3,1,stimuli/screen_origin.wav,stimuli/screen_quiet.wav,stimuli/screen_antiphase.wav,2,,,,,,,,,,,,,,,,,,,,,,,,,,
,,,,,36091,2021-05-01_20h39.51.197,judgeSpeechMusic_20210407_logNormShiftAmp,2020.1.2,MacIntel,60,1,1,0.947845,0,3,3,4,1,stimuli/screen_quiet.wav,stimuli/screen_antiphase.wav,stimuli/screen_origin.wav,1,,,,,,,,,,,,,,,,,,,,,,,,,,
,,,,,36091,2021-05-01_20h39.51.197,judgeSpeechMusic_20210407_logNormShiftAmp,2020.1.2,MacIntel,60,3,1,0.53081,0,4,4,0,1,stimuli/screen_antiphase.wav,stimuli/screen_origin.wav,stimuli/screen_quiet.wav,3,,,,,,,,,,,,,,,,,,,,,,,,,,
,,,,,36091,2021-05-01_20h39.51.197,judgeSpeechMusic_20210407_logNormShiftAmp,2020.1.2,MacIntel,60,2,1,0.58321,0,5,5,1,1,stimuli/screen_antiphase.wav,stimuli/screen_quiet.wav,stimuli/screen_origin.wav,2,,,,,,,,,,,,,,,,,,,,,,,,,,
,,,,,36091,2021-05-01_20h39.51.197,judgeSpeechMusic_20210407_logNormShiftAmp,2020.1.2,MacIntel,60,,,,,,,,,,,,,1,12.786975,,0,0,0,0,2,1,stimuli/stim_20210407_power2amp/equal_lnn_AM_training3.9Hz.m4a,,,,,,,,,,,,,,,,
,,,,,36091,2021-05-01_20h39.51.197,judgeSpeechMusic_20210407_logNormShiftAmp,2020.1.2,MacIntel,60,,,,,,,,,,,,,2,6.6594,,0,0,1,1,1,1,stimuli/stim_20210407_power2amp/equal_lnn_AM_training2.7Hz.m4a,,,,,,,,,,,,,,,,
,,,,,36091,2021-05-01_20h39.51.197,judgeSpeechMusic_20210407_logNormShiftAmp,2020.1.2,MacIntel,60,,,,,,,,,,,,,1,6.975355,1,1,0,2,2,3,1,stimuli/stim_20210407_power2amp/equal_lnn_AM_training5.1Hz.m4a,1.05803,,,,,,,,,,,,,,,
,,,,,36091,2021-05-01_20h39.51.197,judgeSpeechMusic_20210407_logNormShiftAmp,2020.1.2,MacIntel,60,,,,,,,,,,,,,2,6.84398,,0,0,3,3,0,1,stimuli/stim_20210407_power2amp/equal_lnn_AM_training1.5Hz.m4a,,,,,,,,,,,,,,,,
,,,,,36091,2021-05-01_20h39.51.197,judgeSpeechMusic_20210407_logNormShiftAmp,2020.1.2,MacIntel,60,,,,,,,,,,,,,,,,,,,,,,,,space,4.44275,1,6.178595,,0,0,0,0,125,1,stimuli/stim_20210407_power2amp/equal_lnn_AM5.4Hz_72.m4a,,,
,,,,,36091,2021-05-01_20h39.51.197,judgeSpeechMusic_20210407_logNormShiftAmp,2020.1.2,MacIntel,60,,,,,,,,,,,,,,,,,,,,,,,,,,1,6.34077,,0,0,1,1,127,1,stimuli/stim_20210407_power2amp/equal_lnn_AM5.4Hz_14.m4a,,,
,,,,,36091,2021-05-01_20h39.51.197,judgeSpeechMusic_20210407_logNormShiftAmp,2020.1.2,MacIntel,60,,,,,,,,,,,,,,,,,,,,,,,,,,1,6.239405,,0,0,2,2,140,1,stimuli/stim_20210407_power2amp/equal_lnn_AM6Hz_36.m4a,,,
,,,,,36091,2021-05-01_20h39.51.197,judgeSpeechMusic_20210407_logNormShiftAmp,2020.1.2,MacIntel,60,,,,,,,,,,,,,,,,,,,,,,,,,,1,6.111805,,0,0,3,3,83,1,stimuli/stim_20210407_power2amp/equal_lnn_AM3.6Hz_58.m4a,,,
,,,,,36091,2021-05-01_20h39.51.197,judgeSpeechMusic_20210407_logNormShiftAmp,2020.1.2,MacIntel,60,,,,,,,,,,,,,,,,,,,,,,,,,,1,5.92737,,0,0,4,4,149,1,stimuli/stim_20210407_power2amp/equal_lnn_AM6Hz_26.m4a,,,
,,,,,36091,2021-05-01_20h39.51.197,judgeSpeechMusic_20210407_logNormShiftAmp,2020.1.2,MacIntel,60,,,,,,,,,,,,,,,,,,,,,,,,,,2,5.89551,,0,0,5,5,87,1,stimuli/stim_20210407_power2amp/equal_lnn_AM3.6Hz_88.m4a,,,
,,,,,36091,2021-05-01_20h39.51.197,judgeSpeechMusic_20210407_logNormShiftAmp,2020.1.2,MacIntel,60,,,,,,,,,,,,,,,,,,,,,,,,,,1,6.13584,,0,0,6,6,143,1,stimuli/stim_20210407_power2amp/equal_lnn_AM6Hz_64.m4a,,,
,,,,,36091,2021-05-01_20h39.51.197,judgeSpeechMusic_20210407_logNormShiftAmp,2020.1.2,MacIntel,60,,,,,,,,,,,,,,,,,,,,,,,,,,2,6.49228,,0,0,7,7,46,1,stimuli/stim_20210407_power2amp/equal_lnn_AM2.4Hz_24.m4a,,,
,,,,,36091,2021-05-01_20h39.51.197,judgeSpeechMusic_20210407_logNormShiftAmp,2020.1.2,MacIntel,60,,,,,,,,,,,,,,,,,,,,,,,,,,2,6.158235,,0,0,8,8,34,1,stimuli/stim_20210407_power2amp/equal_lnn_AM1.8Hz_74.m4a,,,
,,,,,36091,2021-05-01_20h39.51.197,judgeSpeechMusic_20210407_logNormShiftAmp,2020.1.2,MacIntel,60,,,,,,,,,,,,,,,,,,,,,,,,,,2,6.042735,,0,0,9,9,32,1,stimuli/stim_20210407_power2amp/equal_lnn_AM1.8Hz_17.m4a,,,
,,,,,36091,2021-05-01_20h39.51.197,judgeSpeechMusic_20210407_logNormShiftAmp,2020.1.2,MacIntel,60,,,,,,,,,,,,,,,,,,,,,,,,,,2,5.960945,,0,0,10,10,95,1,stimuli/stim_20210407_power2amp/equal_lnn_AM4.2Hz_44.m4a,,,
,,,,,36091,2021-05-01_20h39.51.197,judgeSpeechMusic_20210407_logNormShiftAmp,2020.1.2,MacIntel,60,,,,,,,,,,,,,,,,,,,,,,,,,,1,6.844635,,0,0,11,11,120,1,stimuli/stim_20210407_power2amp/equal_lnn_AM5.4Hz_53.m4a,,,
,,,,,36091,2021-05-01_20h39.51.197,judgeSpeechMusic_20210407_logNormShiftAmp,2020.1.2,MacIntel,60,,,,,,,,,,,,,,,,,,,,,,,,,,1,7.755835,,0,0,12,12,50,1,stimuli/stim_20210407_power2amp/equal_lnn_AM2.4Hz_78.m4a,,,
,,,,,36091,2021-05-01_20h39.51.197,judgeSpeechMusic_20210407_logNormShiftAmp,2020.1.2,MacIntel,60,,,,,,,,,,,,,,,,,,,,,,,,,,2,6.52213,,0,0,13,13,129,1,stimuli/stim_20210407_power2amp/equal_lnn_AM5.4Hz_95.m4a,,,
,,,,,36091,2021-05-01_20h39.51.197,judgeSpeechMusic_20210407_logNormShiftAmp,2020.1.2,MacIntel,60,,,,,,,,,,,,,,,,,,,,,,,,,,2,5.92824,,0,0,14,14,9,1,stimuli/stim_20210407_power2amp/equal_lnn_AM0.6Hz_47.m4a,,,
,,,,,36091,2021-05-01_20h39.51.197,judgeSpeechMusic_20210407_logNormShiftAmp,2020.1.2,MacIntel,60,,,,,,,,,,,,,,,,,,,,,,,,,,2,14.369655,,0,0,15,15,56,1,stimuli/stim_20210407_power2amp/equal_lnn_AM2.4Hz_22.m4a,,,
,,,,,36091,2021-05-01_20h39.51.197,judgeSpeechMusic_20210407_logNormShiftAmp,2020.1.2,MacIntel,60,,,,,,,,,,,,,,,,,,,,,,,,,,1,7.827415,,0,0,16,16,63,1,stimuli/stim_20210407_power2amp/equal_lnn_AM3Hz_32.m4a,,,
,,,,,36091,2021-05-01_20h39.51.197,judgeSpeechMusic_20210407_logNormShiftAmp,2020.1.2,MacIntel,60,,,,,,,,,,,,,,,,,,,,,,,,,,1,6.794325,,0,0,17,17,136,1,stimuli/stim_20210407_power2amp/equal_lnn_AM6Hz_5.m4a,,,
,,,,,36091,2021-05-01_20h39.51.197,judgeSpeechMusic_20210407_logNormShiftAmp,2020.1.2,MacIntel,60,,,,,,,,,,,,,,,,,,,,,,,,,,1,7.311195,,0,0,18,18,96,1,stimuli/stim_20210407_power2amp/equal_lnn_AM4.2Hz_96.m4a,,,
,,,,,36091,2021-05-01_20h39.51.197,judgeSpeechMusic_20210407_logNormShiftAmp,2020.1.2,MacIntel,60,,,,,,,,,,,,,,,,,,,,,,,,,,2,5.812675,,0,0,19,19,76,1,stimuli/stim_20210407_power2amp/equal_lnn_AM3.6Hz_87.m4a,,,
,,,,,36091,2021-05-01_20h39.51.197,judgeSpeechMusic_20210407_logNormShiftAmp,2020.1.2,MacIntel,60,,,,,,,,,,,,,,,,,,,,,,,,,,1,7.0094,,0,0,20,20,131,1,stimuli/stim_20210407_power2amp/equal_lnn_AM5.4Hz_3.m4a,,,
,,,,,36091,2021-05-01_20h39.51.197,judgeSpeechMusic_20210407_logNormShiftAmp,2020.1.2,MacIntel,60,,,,,,,,,,,,,,,,,,,,,,,,,,1,15.42672,,0,0,21,21,23,1,stimuli/stim_20210407_power2amp/equal_lnn_AM1.2Hz_92.m4a,,,
,,,,,36091,2021-05-01_20h39.51.197,judgeSpeechMusic_20210407_logNormShiftAmp,2020.1.2,MacIntel,60,,,,,,,,,,,,,,,,,,,,,,,,,,1,6.69069,,0,0,22,22,91,1,stimuli/stim_20210407_power2amp/equal_lnn_AM4.2Hz_53.m4a,,,
,,,,,36091,2021-05-01_20h39.51.197,judgeSpeechMusic_20210407_logNormShiftAmp,2020.1.2,MacIntel,60,,,,,,,,,,,,,,,,,,,,,,,,,,1,16.545325,,0,0,23,23,59,1,stimuli/stim_20210407_power2amp/equal_lnn_AM2.4Hz_59.m4a,,,
,,,,,36091,2021-05-01_20h39.51.197,judgeSpeechMusic_20210407_logNormShiftAmp,2020.1.2,MacIntel,60,,,,,,,,,,,,,,,,,,,,,,,,,,1,6.541665,,0,0,24,24,139,1,stimuli/stim_20210407_power2amp/equal_lnn_AM6Hz_9.m4a,,,
,,,,,36091,2021-05-01_20h39.51.197,judgeSpeechMusic_20210407_logNormShiftAmp,2020.1.2,MacIntel,60,,,,,,,,,,,,,,,,,,,,,,,,,,2,7.296865,,0,0,25,25,74,1,stimuli/stim_20210407_power2amp/equal_lnn_AM3Hz_67.m4a,,,
,,,,,36091,2021-05-01_20h39.51.197,judgeSpeechMusic_20210407_logNormShiftAmp,2020.1.2,MacIntel,60,,,,,,,,,,,,,,,,,,,,,,,,,,1,5.963335,,0,0,26,26,114,1,stimuli/stim_20210407_power2amp/equal_lnn_AM4.8Hz_4.m4a,,,
,,,,,36091,2021-05-01_20h39.51.197,judgeSpeechMusic_20210407_logNormShiftAmp,2020.1.2,MacIntel,60,,,,,,,,,,,,,,,,,,,,,,,,,,1,9.85198,,0,0,27,27,88,1,stimuli/stim_20210407_power2amp/equal_lnn_AM3.6Hz_9.m4a,,,
,,,,,36091,2021-05-01_20h39.51.197,judgeSpeechMusic_20210407_logNormShiftAmp,2020.1.2,MacIntel,60,,,,,,,,,,,,,,,,,,,,,,,,,,2,6.31762,,0,0,28,28,108,1,stimuli/stim_20210407_power2amp/equal_lnn_AM4.8Hz_86.m4a,,,
,,,,,36091,2021-05-01_20h39.51.197,judgeSpeechMusic_20210407_logNormShiftAmp,2020.1.2,MacIntel,60,,,,,,,,,,,,,,,,,,,,,,,,,,1,14.111125,,0,0,29,29,19,1,stimuli/stim_20210407_power2amp/equal_lnn_AM1.2Hz_85.m4a,,,
,,,,,36091,2021-05-01_20h39.51.197,judgeSpeechMusic_20210407_logNormShiftAmp,2020.1.2,MacIntel,60,,,,,,,,,,,,,,,,,,,,,,,,,,1,6.387515,,0,0,30,30,71,1,stimuli/stim_20210407_power2amp/equal_lnn_AM3Hz_64.m4a,,,
,,,,,36091,2021-05-01_20h39.51.197,judgeSpeechMusic_20210407_logNormShiftAmp,2020.1.2,MacIntel,60,,,,,,,,,,,,,,,,,,,,,,,,,,2,5.811345,,0,0,31,31,57,1,stimuli/stim_20210407_power2amp/equal_lnn_AM2.4Hz_15.m4a,,,
,,,,,36091,2021-05-01_20h39.51.197,judgeSpeechMusic_20210407_logNormShiftAmp,2020.1.2,MacIntel,60,,,,,,,,,,,,,,,,,,,,,,,,,,1,6.741225,2,1,0,32,32,109,1,stimuli/stim_20210407_power2amp/equal_lnn_AM4.8Hz_40.m4a,0.594895,,
,,,,,36091,2021-05-01_20h39.51.197,judgeSpeechMusic_20210407_logNormShiftAmp,2020.1.2,MacIntel,60,,,,,,,,,,,,,,,,,,,,,,,,,,1,6.20719,,0,0,33,33,14,1,stimuli/stim_20210407_power2amp/equal_lnn_AM0.6Hz_58.m4a,,,
,,,,,36091,2021-05-01_20h39.51.197,judgeSpeechMusic_20210407_logNormShiftAmp,2020.1.2,MacIntel,60,,,,,,,,,,,,,,,,,,,,,,,,,,1,6.57643,,0,0,34,34,68,1,stimuli/stim_20210407_power2amp/equal_lnn_AM3Hz_46.m4a,,,
,,,,,36091,2021-05-01_20h39.51.197,judgeSpeechMusic_20210407_logNormShiftAmp,2020.1.2,MacIntel,60,,,,,,,,,,,,,,,,,,,,,,,,,,2,6.575815,,0,0,35,35,10,1,stimuli/stim_20210407_power2amp/equal_lnn_AM0.6Hz_63.m4a,,,
,,,,,36091,2021-05-01_20h39.51.197,judgeSpeechMusic_20210407_logNormShiftAmp,2020.1.2,MacIntel,60,,,,,,,,,,,,,,,,,,,,,,,,,,1,6.058025,,0,0,36,36,118,1,stimuli/stim_20210407_power2amp/equal_lnn_AM4.8Hz_46.m4a,,,
,,,,,36091,2021-05-01_20h39.51.197,judgeSpeechMusic_20210407_logNormShiftAmp,2020.1.2,MacIntel,60,,,,,,,,,,,,,,,,,,,,,,,,,,2,6.30679,,0,0,37,37,12,1,stimuli/stim_20210407_power2amp/equal_lnn_AM0.6Hz_66.m4a,,,
,,,,,36091,2021-05-01_20h39.51.197,judgeSpeechMusic_20210407_logNormShiftAmp,2020.1.2,MacIntel,60,,,,,,,,,,,,,,,,,,,,,,,,,,1,6.51153,,0,0,38,38,64,1,stimuli/stim_20210407_power2amp/equal_lnn_AM3Hz_11.m4a,,,
,,,,,36091,2021-05-01_20h39.51.197,judgeSpeechMusic_20210407_logNormShiftAmp,2020.1.2,MacIntel,60,,,,,,,,,,,,,,,,,,,,,,,,,,1,8.12158,,0,0,39,39,69,1,stimuli/stim_20210407_power2amp/equal_lnn_AM3Hz_40.m4a,,,
,,,,,36091,2021-05-01_20h39.51.197,judgeSpeechMusic_20210407_logNormShiftAmp,2020.1.2,MacIntel,60,,,,,,,,,,,,,,,,,,,,,,,,,,2,6.24347,,0,0,40,40,40,1,stimuli/stim_20210407_power2amp/equal_lnn_AM1.8Hz_36.m4a,,,
,,,,,36091,2021-05-01_20h39.51.197,judgeSpeechMusic_20210407_logNormShiftAmp,2020.1.2,MacIntel,60,,,,,,,,,,,,,,,,,,,,,,,,,,1,10.316505,,0,0,41,41,28,1,stimuli/stim_20210407_power2amp/equal_lnn_AM1.2Hz_96.m4a,,,
,,,,,36091,2021-05-01_20h39.51.197,judgeSpeechMusic_20210407_logNormShiftAmp,2020.1.2,MacIntel,60,,,,,,,,,,,,,,,,,,,,,,,,,,1,6.72616,,0,0,42,42,116,1,stimuli/stim_20210407_power2amp/equal_lnn_AM4.8Hz_79.m4a,,,
,,,,,36091,2021-05-01_20h39.51.197,judgeSpeechMusic_20210407_logNormShiftAmp,2020.1.2,MacIntel,60,,,,,,,,,,,,,,,,,,,,,,,,,,2,7.36041,,0,0,43,43,126,1,stimuli/stim_20210407_power2amp/equal_lnn_AM5.4Hz_58.m4a,,,
,,,,,36091,2021-05-01_20h39.51.197,judgeSpeechMusic_20210407_logNormShiftAmp,2020.1.2,MacIntel,60,,,,,,,,,,,,,,,,,,,,,,,,,,1,14.084615,,0,0,44,44,21,1,stimuli/stim_20210407_power2amp/equal_lnn_AM1.2Hz_91.m4a,,,
,,,,,36091,2021-05-01_20h39.51.197,judgeSpeechMusic_20210407_logNormShiftAmp,2020.1.2,MacIntel,60,,,,,,,,,,,,,,,,,,,,,,,,,,2,5.936235,,0,0,45,45,85,1,stimuli/stim_20210407_power2amp/equal_lnn_AM3.6Hz_54.m4a,,,
,,,,,36091,2021-05-01_20h39.51.197,judgeSpeechMusic_20210407_logNormShiftAmp,2020.1.2,MacIntel,60,,,,,,,,,,,,,,,,,,,,,,,,,,2,8.06011,,0,0,46,46,111,1,stimuli/stim_20210407_power2amp/equal_lnn_AM4.8Hz_98.m4a,,,
,,,,,36091,2021-05-01_20h39.51.197,judgeSpeechMusic_20210407_logNormShiftAmp,2020.1.2,MacIntel,60,,,,,,,,,,,,,,,,,,,,,,,,,,1,7.57452,,0,0,47,47,117,1,stimuli/stim_20210407_power2amp/equal_lnn_AM4.8Hz_39.m4a,,,
,,,,,36091,2021-05-01_20h39.51.197,judgeSpeechMusic_20210407_logNormShiftAmp,2020.1.2,MacIntel,60,,,,,,,,,,,,,,,,,,,,,,,,,,1,5.81662,,0,0,48,48,110,1,stimuli/stim_20210407_power2amp/equal_lnn_AM4.8Hz_10.m4a,,,
,,,,,36091,2021-05-01_20h39.51.197,judgeSpeechMusic_20210407_logNormShiftAmp,2020.1.2,MacIntel,60,,,,,,,,,,,,,,,,,,,,,,,,,,2,6.90913,,0,0,49,49,102,1,stimuli/stim_20210407_power2amp/equal_lnn_AM4.2Hz_94.m4a,,,
,,,,,36091,2021-05-01_20h39.51.197,judgeSpeechMusic_20210407_logNormShiftAmp,2020.1.2,MacIntel,60,,,,,,,,,,,,,,,,,,,,,,,,,,1,25.97429,,0,0,50,50,113,1,stimuli/stim_20210407_power2amp/equal_lnn_AM4.8Hz_63.m4a,,,
,,,,,36091,2021-05-01_20h39.51.197,judgeSpeechMusic_20210407_logNormShiftAmp,2020.1.2,MacIntel,60,,,,,,,,,,,,,,,,,,,,,,,,,,2,7.64123,,0,0,51,51,16,1,stimuli/stim_20210407_power2amp/equal_lnn_AM1.2Hz_21.m4a,,,
,,,,,36091,2021-05-01_20h39.51.197,judgeSpeechMusic_20210407_logNormShiftAmp,2020.1.2,MacIntel,60,,,,,,,,,,,,,,,,,,,,,,,,,,1,11.08606,,0,0,52,52,103,1,stimuli/stim_20210407_power2amp/equal_lnn_AM4.2Hz_83.m4a,,,
,,,,,36091,2021-05-01_20h39.51.197,judgeSpeechMusic_20210407_logNormShiftAmp,2020.1.2,MacIntel,60,,,,,,,,,,,,,,,,,,,,,,,,,,1,5.874,,0,0,53,53,147,1,stimuli/stim_20210407_power2amp/equal_lnn_AM6Hz_17.m4a,,,
,,,,,36091,2021-05-01_20h39.51.197,judgeSpeechMusic_20210407_logNormShiftAmp,2020.1.2,MacIntel,60,,,,,,,,,,,,,,,,,,,,,,,,,,2,9.62796,,0,0,54,54,62,1,stimuli/stim_20210407_power2amp/equal_lnn_AM3Hz_5.m4a,,,
,,,,,36091,2021-05-01_20h39.51.197,judgeSpeechMusic_20210407_logNormShiftAmp,2020.1.2,MacIntel,60,,,,,,,,,,,,,,,,,,,,,,,,,,2,6.45494,,0,0,55,55,2,1,stimuli/stim_20210407_power2amp/equal_lnn_AM0.6Hz_65.m4a,,,
,,,,,36091,2021-05-01_20h39.51.197,judgeSpeechMusic_20210407_logNormShiftAmp,2020.1.2,MacIntel,60,,,,,,,,,,,,,,,,,,,,,,,,,,1,6.926745,,0,0,56,56,101,1,stimuli/stim_20210407_power2amp/equal_lnn_AM4.2Hz_78.m4a,,,
,,,,,36091,2021-05-01_20h39.51.197,judgeSpeechMusic_20210407_logNormShiftAmp,2020.1.2,MacIntel,60,,,,,,,,,,,,,,,,,,,,,,,,,,2,15.42702,1,1,0,57,57,31,1,stimuli/stim_20210407_power2amp/equal_lnn_AM1.8Hz_10.m4a,0.647545,,
,,,,,36091,2021-05-01_20h39.51.197,judgeSpeechMusic_20210407_logNormShiftAmp,2020.1.2,MacIntel,60,,,,,,,,,,,,,,,,,,,,,,,,,,2,6.1792,,0,0,58,58,55,1,stimuli/stim_20210407_power2amp/equal_lnn_AM2.4Hz_86.m4a,,,
,,,,,36091,2021-05-01_20h39.51.197,judgeSpeechMusic_20210407_logNormShiftAmp,2020.1.2,MacIntel,60,,,,,,,,,,,,,,,,,,,,,,,,,,1,7.44073,,0,0,59,59,134,1,stimuli/stim_20210407_power2amp/equal_lnn_AM5.4Hz_45.m4a,,,
,,,,,36091,2021-05-01_20h39.51.197,judgeSpeechMusic_20210407_logNormShiftAmp,2020.1.2,MacIntel,60,,,,,,,,,,,,,,,,,,,,,,,,,,1,6.39448,,0,0,60,60,30,1,stimuli/stim_20210407_power2amp/equal_lnn_AM1.8Hz_82.m4a,,,
,,,,,36091,2021-05-01_20h39.51.197,judgeSpeechMusic_20210407_logNormShiftAmp,2020.1.2,MacIntel,60,,,,,,,,,,,,,,,,,,,,,,,,,,1,6.008205,,0,0,61,61,132,1,stimuli/stim_20210407_power2amp/equal_lnn_AM5.4Hz_76.m4a,,,
,,,,,36091,2021-05-01_20h39.51.197,judgeSpeechMusic_20210407_logNormShiftAmp,2020.1.2,MacIntel,60,,,,,,,,,,,,,,,,,,,,,,,,,,2,6.342935,,0,0,62,62,122,1,stimuli/stim_20210407_power2amp/equal_lnn_AM5.4Hz_46.m4a,,,
,,,,,36091,2021-05-01_20h39.51.197,judgeSpeechMusic_20210407_logNormShiftAmp,2020.1.2,MacIntel,60,,,,,,,,,,,,,,,,,,,,,,,,,,1,5.594435,,0,0,63,63,78,1,stimuli/stim_20210407_power2amp/equal_lnn_AM3.6Hz_76.m4a,,,
,,,,,36091,2021-05-01_20h39.51.197,judgeSpeechMusic_20210407_logNormShiftAmp,2020.1.2,MacIntel,60,,,,,,,,,,,,,,,,,,,,,,,,,,2,6.193805,,0,0,64,64,39,1,stimuli/stim_20210407_power2amp/equal_lnn_AM1.8Hz_80.m4a,,,
,,,,,36091,2021-05-01_20h39.51.197,judgeSpeechMusic_20210407_logNormShiftAmp,2020.1.2,MacIntel,60,,,,,,,,,,,,,,,,,,,,,,,,,,2,5.706865,,0,0,65,65,22,1,stimuli/stim_20210407_power2amp/equal_lnn_AM1.2Hz_84.m4a,,,
,,,,,36091,2021-05-01_20h39.51.197,judgeSpeechMusic_20210407_logNormShiftAmp,2020.1.2,MacIntel,60,,,,,,,,,,,,,,,,,,,,,,,,,,2,5.961035,,0,0,66,66,6,1,stimuli/stim_20210407_power2amp/equal_lnn_AM0.6Hz_51.m4a,,,
,,,,,36091,2021-05-01_20h39.51.197,judgeSpeechMusic_20210407_logNormShiftAmp,2020.1.2,MacIntel,60,,,,,,,,,,,,,,,,,,,,,,,,,,2,6.36063,,0,0,67,67,65,1,stimuli/stim_20210407_power2amp/equal_lnn_AM3Hz_61.m4a,,,
,,,,,36091,2021-05-01_20h39.51.197,judgeSpeechMusic_20210407_logNormShiftAmp,2020.1.2,MacIntel,60,,,,,,,,,,,,,,,,,,,,,,,,,,2,6.26462,,0,0,68,68,27,1,stimuli/stim_20210407_power2amp/equal_lnn_AM1.2Hz_45.m4a,,,
,,,,,36091,2021-05-01_20h39.51.197,judgeSpeechMusic_20210407_logNormShiftAmp,2020.1.2,MacIntel,60,,,,,,,,,,,,,,,,,,,,,,,,,,1,7.3605,,0,0,69,69,135,1,stimuli/stim_20210407_power2amp/equal_lnn_AM6Hz_95.m4a,,,
,,,,,36091,2021-05-01_20h39.51.197,judgeSpeechMusic_20210407_logNormShiftAmp,2020.1.2,MacIntel,60,,,,,,,,,,,,,,,,,,,,,,,,,,1,6.427075,,0,0,70,70,8,1,stimuli/stim_20210407_power2amp/equal_lnn_AM0.6Hz_8.m4a,,,
,,,,,36091,2021-05-01_20h39.51.197,judgeSpeechMusic_20210407_logNormShiftAmp,2020.1.2,MacIntel,60,,,,,,,,,,,,,,,,,,,,,,,,,,2,7.15877,,0,0,71,71,79,1,stimuli/stim_20210407_power2amp/equal_lnn_AM3.6Hz_61.m4a,,,
,,,,,36091,2021-05-01_20h39.51.197,judgeSpeechMusic_20210407_logNormShiftAmp,2020.1.2,MacIntel,60,,,,,,,,,,,,,,,,,,,,,,,,,,2,11.083715,,0,0,72,72,75,1,stimuli/stim_20210407_power2amp/equal_lnn_AM3.6Hz_97.m4a,,,
,,,,,36091,2021-05-01_20h39.51.197,judgeSpeechMusic_20210407_logNormShiftAmp,2020.1.2,MacIntel,60,,,,,,,,,,,,,,,,,,,,,,,,,,1,9.845495,,0,0,73,73,29,1,stimuli/stim_20210407_power2amp/equal_lnn_AM1.2Hz_11.m4a,,,
,,,,,36091,2021-05-01_20h39.51.197,judgeSpeechMusic_20210407_logNormShiftAmp,2020.1.2,MacIntel,60,,,,,,,,,,,,,,,,,,,,,,,,,,2,8.34034,,0,0,74,74,61,1,stimuli/stim_20210407_power2amp/equal_lnn_AM3Hz_62.m4a,,,
,,,,,36091,2021-05-01_20h39.51.197,judgeSpeechMusic_20210407_logNormShiftAmp,2020.1.2,MacIntel,60,,,,,,,,,,,,,,,,,,,,,,,,,,1,8.44424,,0,0,75,75,52,1,stimuli/stim_20210407_power2amp/equal_lnn_AM2.4Hz_84.m4a,,,
,,,,,36091,2021-05-01_20h39.51.197,judgeSpeechMusic_20210407_logNormShiftAmp,2020.1.2,MacIntel,60,,,,,,,,,,,,,,,,,,,,,,,,,,1,6.0427,,0,0,76,76,26,1,stimuli/stim_20210407_power2amp/equal_lnn_AM1.2Hz_5.m4a,,,
,,,,,36091,2021-05-01_20h39.51.197,judgeSpeechMusic_20210407_logNormShiftAmp,2020.1.2,MacIntel,60,,,,,,,,,,,,,,,,,,,,,,,,,,2,7.245395,,0,0,77,77,133,1,stimuli/stim_20210407_power2amp/equal_lnn_AM5.4Hz_41.m4a,,,
,,,,,36091,2021-05-01_20h39.51.197,judgeSpeechMusic_20210407_logNormShiftAmp,2020.1.2,MacIntel,60,,,,,,,,,,,,,,,,,,,,,,,,,,1,8.62853,,0,0,78,78,35,1,stimuli/stim_20210407_power2amp/equal_lnn_AM1.8Hz_65.m4a,,,
,,,,,36091,2021-05-01_20h39.51.197,judgeSpeechMusic_20210407_logNormShiftAmp,2020.1.2,MacIntel,60,,,,,,,,,,,,,,,,,,,,,,,,,,2,7.55049,2,1,0,79,79,128,1,stimuli/stim_20210407_power2amp/equal_lnn_AM5.4Hz_54.m4a,0.87742,,
,,,,,36091,2021-05-01_20h39.51.197,judgeSpeechMusic_20210407_logNormShiftAmp,2020.1.2,MacIntel,60,,,,,,,,,,,,,,,,,,,,,,,,,,1,6.64483,,0,0,80,80,94,1,stimuli/stim_20210407_power2amp/equal_lnn_AM4.2Hz_17.m4a,,,
,,,,,36091,2021-05-01_20h39.51.197,judgeSpeechMusic_20210407_logNormShiftAmp,2020.1.2,MacIntel,60,,,,,,,,,,,,,,,,,,,,,,,,,,2,7.376325,,0,0,81,81,3,1,stimuli/stim_20210407_power2amp/equal_lnn_AM0.6Hz_77.m4a,,,
,,,,,36091,2021-05-01_20h39.51.197,judgeSpeechMusic_20210407_logNormShiftAmp,2020.1.2,MacIntel,60,,,,,,,,,,,,,,,,,,,,,,,,,,1,7.4278,,0,0,82,82,47,1,stimuli/stim_20210407_power2amp/equal_lnn_AM2.4Hz_68.m4a,,,
,,,,,36091,2021-05-01_20h39.51.197,judgeSpeechMusic_20210407_logNormShiftAmp,2020.1.2,MacIntel,60,,,,,,,,,,,,,,,,,,,,,,,,,,2,7.59203,,0,0,83,83,99,1,stimuli/stim_20210407_power2amp/equal_lnn_AM4.2Hz_92.m4a,,,
,,,,,36091,2021-05-01_20h39.51.197,judgeSpeechMusic_20210407_logNormShiftAmp,2020.1.2,MacIntel,60,,,,,,,,,,,,,,,,,,,,,,,,,,2,9.673185,,0,0,84,84,44,1,stimuli/stim_20210407_power2amp/equal_lnn_AM1.8Hz_48.m4a,,,
,,,,,36091,2021-05-01_20h39.51.197,judgeSpeechMusic_20210407_logNormShiftAmp,2020.1.2,MacIntel,60,,,,,,,,,,,,,,,,,,,,,,,,,,1,9.079415,,0,0,85,85,51,1,stimuli/stim_20210407_power2amp/equal_lnn_AM2.4Hz_51.m4a,,,
,,,,,36091,2021-05-01_20h39.51.197,judgeSpeechMusic_20210407_logNormShiftAmp,2020.1.2,MacIntel,60,,,,,,,,,,,,,,,,,,,,,,,,,,2,7.074825,,0,0,86,86,43,1,stimuli/stim_20210407_power2amp/equal_lnn_AM1.8Hz_8.m4a,,,
,,,,,36091,2021-05-01_20h39.51.197,judgeSpeechMusic_20210407_logNormShiftAmp,2020.1.2,MacIntel,60,,,,,,,,,,,,,,,,,,,,,,,,,,1,6.74583,,0,0,87,87,15,1,stimuli/stim_20210407_power2amp/equal_lnn_AM1.2Hz_18.m4a,,,
,,,,,36091,2021-05-01_20h39.51.197,judgeSpeechMusic_20210407_logNormShiftAmp,2020.1.2,MacIntel,60,,,,,,,,,,,,,,,,,,,,,,,,,,1,7.04263,,0,0,88,88,138,1,stimuli/stim_20210407_power2amp/equal_lnn_AM6Hz_70.m4a,,,
,,,,,36091,2021-05-01_20h39.51.197,judgeSpeechMusic_20210407_logNormShiftAmp,2020.1.2,MacIntel,60,,,,,,,,,,,,,,,,,,,,,,,,,,2,11.897825,,0,0,89,89,82,1,stimuli/stim_20210407_power2amp/equal_lnn_AM3.6Hz_5.m4a,,,
,,,,,36091,2021-05-01_20h39.51.197,judgeSpeechMusic_20210407_logNormShiftAmp,2020.1.2,MacIntel,60,,,,,,,,,,,,,,,,,,,,,,,,,,2,13.23264,,0,0,90,90,104,1,stimuli/stim_20210407_power2amp/equal_lnn_AM4.2Hz_24.m4a,,,
,,,,,36091,2021-05-01_20h39.51.197,judgeSpeechMusic_20210407_logNormShiftAmp,2020.1.2,MacIntel,60,,,,,,,,,,,,,,,,,,,,,,,,,,1,6.97721,,0,0,91,91,90,1,stimuli/stim_20210407_power2amp/equal_lnn_AM4.2Hz_98.m4a,,,
,,,,,36091,2021-05-01_20h39.51.197,judgeSpeechMusic_20210407_logNormShiftAmp,2020.1.2,MacIntel,60,,,,,,,,,,,,,,,,,,,,,,,,,,2,7.661665,,0,0,92,92,124,1,stimuli/stim_20210407_power2amp/equal_lnn_AM5.4Hz_57.m4a,,,
,,,,,36091,2021-05-01_20h39.51.197,judgeSpeechMusic_20210407_logNormShiftAmp,2020.1.2,MacIntel,60,,,,,,,,,,,,,,,,,,,,,,,,,,2,6.994515,,0,0,93,93,53,1,stimuli/stim_20210407_power2amp/equal_lnn_AM2.4Hz_16.m4a,,,
,,,,,36091,2021-05-01_20h39.51.197,judgeSpeechMusic_20210407_logNormShiftAmp,2020.1.2,MacIntel,60,,,,,,,,,,,,,,,,,,,,,,,,,,1,8.30865,,0,0,94,94,0,1,stimuli/stim_20210407_power2amp/equal_lnn_AM0.6Hz_13.m4a,,,
,,,,,36091,2021-05-01_20h39.51.197,judgeSpeechMusic_20210407_logNormShiftAmp,2020.1.2,MacIntel,60,,,,,,,,,,,,,,,,,,,,,,,,,,2,7.6245,,0,0,95,95,36,1,stimuli/stim_20210407_power2amp/equal_lnn_AM1.8Hz_75.m4a,,,
,,,,,36091,2021-05-01_20h39.51.197,judgeSpeechMusic_20210407_logNormShiftAmp,2020.1.2,MacIntel,60,,,,,,,,,,,,,,,,,,,,,,,,,,1,7.236675,,0,0,96,96,37,1,stimuli/stim_20210407_power2amp/equal_lnn_AM1.8Hz_92.m4a,,,
,,,,,36091,2021-05-01_20h39.51.197,judgeSpeechMusic_20210407_logNormShiftAmp,2020.1.2,MacIntel,60,,,,,,,,,,,,,,,,,,,,,,,,,,1,6.18974,,0,0,97,97,1,1,stimuli/stim_20210407_power2amp/equal_lnn_AM0.6Hz_86.m4a,,,
,,,,,36091,2021-05-01_20h39.51.197,judgeSpeechMusic_20210407_logNormShiftAmp,2020.1.2,MacIntel,60,,,,,,,,,,,,,,,,,,,,,,,,,,2,7.24497,,0,0,98,98,58,1,stimuli/stim_20210407_power2amp/equal_lnn_AM2.4Hz_27.m4a,,,
,,,,,36091,2021-05-01_20h39.51.197,judgeSpeechMusic_20210407_logNormShiftAmp,2020.1.2,MacIntel,60,,,,,,,,,,,,,,,,,,,,,,,,,,1,6.89399,,0,0,99,99,84,1,stimuli/stim_20210407_power2amp/equal_lnn_AM3.6Hz_80.m4a,,,
,,,,,36091,2021-05-01_20h39.51.197,judgeSpeechMusic_20210407_logNormShiftAmp,2020.1.2,MacIntel,60,,,,,,,,,,,,,,,,,,,,,,,,,,1,6.39617,,0,0,100,100,115,1,stimuli/stim_20210407_power2amp/equal_lnn_AM4.8Hz_45.m4a,,,
,,,,,36091,2021-05-01_20h39.51.197,judgeSpeechMusic_20210407_logNormShiftAmp,2020.1.2,MacIntel,60,,,,,,,,,,,,,,,,,,,,,,,,,,2,7.896085,,0,0,101,101,77,1,stimuli/stim_20210407_power2amp/equal_lnn_AM3.6Hz_93.m4a,,,
,,,,,36091,2021-05-01_20h39.51.197,judgeSpeechMusic_20210407_logNormShiftAmp,2020.1.2,MacIntel,60,,,,,,,,,,,,,,,,,,,,,,,,,,1,8.261555,,0,0,102,102,13,1,stimuli/stim_20210407_power2amp/equal_lnn_AM0.6Hz_85.m4a,,,
,,,,,36091,2021-05-01_20h39.51.197,judgeSpeechMusic_20210407_logNormShiftAmp,2020.1.2,MacIntel,60,,,,,,,,,,,,,,,,,,,,,,,,,,2,9.161715,2,1,0,103,103,93,1,stimuli/stim_20210407_power2amp/equal_lnn_AM4.2Hz_25.m4a,0.79963,,
,,,,,36091,2021-05-01_20h39.51.197,judgeSpeechMusic_20210407_logNormShiftAmp,2020.1.2,MacIntel,60,,,,,,,,,,,,,,,,,,,,,,,,,,2,10.32505,,0,0,104,104,144,1,stimuli/stim_20210407_power2amp/equal_lnn_AM6Hz_1.m4a,,,
,,,,,36091,2021-05-01_20h39.51.197,judgeSpeechMusic_20210407_logNormShiftAmp,2020.1.2,MacIntel,60,,,,,,,,,,,,,,,,,,,,,,,,,,1,7.45994,,0,0,105,105,38,1,stimuli/stim_20210407_power2amp/equal_lnn_AM1.8Hz_54.m4a,,,
,,,,,36091,2021-05-01_20h39.51.197,judgeSpeechMusic_20210407_logNormShiftAmp,2020.1.2,MacIntel,60,,,,,,,,,,,,,,,,,,,,,,,,,,2,10.3108,,0,0,106,106,119,1,stimuli/stim_20210407_power2amp/equal_lnn_AM4.8Hz_61.m4a,,,
,,,,,36091,2021-05-01_20h39.51.197,judgeSpeechMusic_20210407_logNormShiftAmp,2020.1.2,MacIntel,60,,,,,,,,,,,,,,,,,,,,,,,,,,1,9.14273,,0,0,107,107,86,1,stimuli/stim_20210407_power2amp/equal_lnn_AM3.6Hz_31.m4a,,,
,,,,,36091,2021-05-01_20h39.51.197,judgeSpeechMusic_20210407_logNormShiftAmp,2020.1.2,MacIntel,60,,,,,,,,,,,,,,,,,,,,,,,,,,1,14.79493,,0,0,108,108,107,1,stimuli/stim_20210407_power2amp/equal_lnn_AM4.8Hz_97.m4a,,,
,,,,,36091,2021-05-01_20h39.51.197,judgeSpeechMusic_20210407_logNormShiftAmp,2020.1.2,MacIntel,60,,,,,,,,,,,,,,,,,,,,,,,,,,1,6.57122,,0,0,109,109,89,1,stimuli/stim_20210407_power2amp/equal_lnn_AM3.6Hz_84.m4a,,,
,,,,,36091,2021-05-01_20h39.51.197,judgeSpeechMusic_20210407_logNormShiftAmp,2020.1.2,MacIntel,60,,,,,,,,,,,,,,,,,,,,,,,,,,1,5.67643,,0,0,110,110,25,1,stimuli/stim_20210407_power2amp/equal_lnn_AM1.2Hz_17.m4a,,,
,,,,,36091,2021-05-01_20h39.51.197,judgeSpeechMusic_20210407_logNormShiftAmp,2020.1.2,MacIntel,60,,,,,,,,,,,,,,,,,,,,,,,,,,2,7.008055,,0,0,111,111,66,1,stimuli/stim_20210407_power2amp/equal_lnn_AM3Hz_97.m4a,,,
,,,,,36091,2021-05-01_20h39.51.197,judgeSpeechMusic_20210407_logNormShiftAmp,2020.1.2,MacIntel,60,,,,,,,,,,,,,,,,,,,,,,,,,,1,6.510505,,0,0,112,112,42,1,stimuli/stim_20210407_power2amp/equal_lnn_AM1.8Hz_42.m4a,,,
,,,,,36091,2021-05-01_20h39.51.197,judgeSpeechMusic_20210407_logNormShiftAmp,2020.1.2,MacIntel,60,,,,,,,,,,,,,,,,,,,,,,,,,,1,6.628735,,0,0,113,113,45,1,stimuli/stim_20210407_power2amp/equal_lnn_AM2.4Hz_52.m4a,,,
,,,,,36091,2021-05-01_20h39.51.197,judgeSpeechMusic_20210407_logNormShiftAmp,2020.1.2,MacIntel,60,,,,,,,,,,,,,,,,,,,,,,,,,,2,8.124745,,0,0,114,114,49,1,stimuli/stim_20210407_power2amp/equal_lnn_AM2.4Hz_94.m4a,,,
,,,,,36091,2021-05-01_20h39.51.197,judgeSpeechMusic_20210407_logNormShiftAmp,2020.1.2,MacIntel,60,,,,,,,,,,,,,,,,,,,,,,,,,,1,7.20985,,0,0,115,115,81,1,stimuli/stim_20210407_power2amp/equal_lnn_AM3.6Hz_55.m4a,,,
,,,,,36091,2021-05-01_20h39.51.197,judgeSpeechMusic_20210407_logNormShiftAmp,2020.1.2,MacIntel,60,,,,,,,,,,,,,,,,,,,,,,,,,,2,7.344885,,0,0,116,116,54,1,stimuli/stim_20210407_power2amp/equal_lnn_AM2.4Hz_70.m4a,,,
,,,,,36091,2021-05-01_20h39.51.197,judgeSpeechMusic_20210407_logNormShiftAmp,2020.1.2,MacIntel,60,,,,,,,,,,,,,,,,,,,,,,,,,,1,7.261495,,0,0,117,117,18,1,stimuli/stim_20210407_power2amp/equal_lnn_AM1.2Hz_78.m4a,,,
,,,,,36091,2021-05-01_20h39.51.197,judgeSpeechMusic_20210407_logNormShiftAmp,2020.1.2,MacIntel,60,,,,,,,,,,,,,,,,,,,,,,,,,,1,6.17523,,0,0,118,118,112,1,stimuli/stim_20210407_power2amp/equal_lnn_AM4.8Hz_51.m4a,,,
,,,,,36091,2021-05-01_20h39.51.197,judgeSpeechMusic_20210407_logNormShiftAmp,2020.1.2,MacIntel,60,,,,,,,,,,,,,,,,,,,,,,,,,,1,13.260215,,0,0,119,119,41,1,stimuli/stim_20210407_power2amp/equal_lnn_AM1.8Hz_49.m4a,,,
,,,,,36091,2021-05-01_20h39.51.197,judgeSpeechMusic_20210407_logNormShiftAmp,2020.1.2,MacIntel,60,,,,,,,,,,,,,,,,,,,,,,,,,,2,8.375445,,0,0,120,120,48,1,stimuli/stim_20210407_power2amp/equal_lnn_AM2.4Hz_79.m4a,,,
,,,,,36091,2021-05-01_20h39.51.197,judgeSpeechMusic_20210407_logNormShiftAmp,2020.1.2,MacIntel,60,,,,,,,,,,,,,,,,,,,,,,,,,,1,8.210455,,0,0,121,121,17,1,stimuli/stim_20210407_power2amp/equal_lnn_AM1.2Hz_87.m4a,,,
,,,,,36091,2021-05-01_20h39.51.197,judgeSpeechMusic_20210407_logNormShiftAmp,2020.1.2,MacIntel,60,,,,,,,,,,,,,,,,,,,,,,,,,,2,6.794795,,0,0,122,122,24,1,stimuli/stim_20210407_power2amp/equal_lnn_AM1.2Hz_37.m4a,,,
,,,,,36091,2021-05-01_20h39.51.197,judgeSpeechMusic_20210407_logNormShiftAmp,2020.1.2,MacIntel,60,,,,,,,,,,,,,,,,,,,,,,,,,,1,6.36515,1,1,0,123,123,130,1,stimuli/stim_20210407_power2amp/equal_lnn_AM5.4Hz_86.m4a,0.712815,,
,,,,,36091,2021-05-01_20h39.51.197,judgeSpeechMusic_20210407_logNormShiftAmp,2020.1.2,MacIntel,60,,,,,,,,,,,,,,,,,,,,,,,,,,1,7.77484,,0,0,124,124,20,1,stimuli/stim_20210407_power2amp/equal_lnn_AM1.2Hz_62.m4a,,,
,,,,,36091,2021-05-01_20h39.51.197,judgeSpeechMusic_20210407_logNormShiftAmp,2020.1.2,MacIntel,60,,,,,,,,,,,,,,,,,,,,,,,,,,2,7.10284,,0,0,125,125,141,1,stimuli/stim_20210407_power2amp/equal_lnn_AM6Hz_15.m4a,,,
,,,,,36091,2021-05-01_20h39.51.197,judgeSpeechMusic_20210407_logNormShiftAmp,2020.1.2,MacIntel,60,,,,,,,,,,,,,,,,,,,,,,,,,,2,9.613175,,0,0,126,126,80,1,stimuli/stim_20210407_power2amp/equal_lnn_AM3.6Hz_50.m4a,,,
,,,,,36091,2021-05-01_20h39.51.197,judgeSpeechMusic_20210407_logNormShiftAmp,2020.1.2,MacIntel,60,,,,,,,,,,,,,,,,,,,,,,,,,,1,8.328705,,0,0,127,127,60,1,stimuli/stim_20210407_power2amp/equal_lnn_AM3Hz_28.m4a,,,
,,,,,36091,2021-05-01_20h39.51.197,judgeSpeechMusic_20210407_logNormShiftAmp,2020.1.2,MacIntel,60,,,,,,,,,,,,,,,,,,,,,,,,,,1,7.24197,,0,0,128,128,142,1,stimuli/stim_20210407_power2amp/equal_lnn_AM6Hz_79.m4a,,,
,,,,,36091,2021-05-01_20h39.51.197,judgeSpeechMusic_20210407_logNormShiftAmp,2020.1.2,MacIntel,60,,,,,,,,,,,,,,,,,,,,,,,,,,2,7.744425,,0,0,129,129,148,1,stimuli/stim_20210407_power2amp/equal_lnn_AM6Hz_21.m4a,,,
,,,,,36091,2021-05-01_20h39.51.197,judgeSpeechMusic_20210407_logNormShiftAmp,2020.1.2,MacIntel,60,,,,,,,,,,,,,,,,,,,,,,,,,,1,8.04544,,0,0,130,130,145,1,stimuli/stim_20210407_power2amp/equal_lnn_AM6Hz_63.m4a,,,
,,,,,36091,2021-05-01_20h39.51.197,judgeSpeechMusic_20210407_logNormShiftAmp,2020.1.2,MacIntel,60,,,,,,,,,,,,,,,,,,,,,,,,,,2,16.540585,,0,0,131,131,121,1,stimuli/stim_20210407_power2amp/equal_lnn_AM5.4Hz_71.m4a,,,
,,,,,36091,2021-05-01_20h39.51.197,judgeSpeechMusic_20210407_logNormShiftAmp,2020.1.2,MacIntel,60,,,,,,,,,,,,,,,,,,,,,,,,,,1,6.210555,,0,0,132,132,137,1,stimuli/stim_20210407_power2amp/equal_lnn_AM6Hz_10.m4a,,,
,,,,,36091,2021-05-01_20h39.51.197,judgeSpeechMusic_20210407_logNormShiftAmp,2020.1.2,MacIntel,60,,,,,,,,,,,,,,,,,,,,,,,,,,2,6.024345,,0,0,133,133,73,1,stimuli/stim_20210407_power2amp/equal_lnn_AM3Hz_56.m4a,,,
,,,,,36091,2021-05-01_20h39.51.197,judgeSpeechMusic_20210407_logNormShiftAmp,2020.1.2,MacIntel,60,,,,,,,,,,,,,,,,,,,,,,,,,,2,11.67811,,0,0,134,134,105,1,stimuli/stim_20210407_power2amp/equal_lnn_AM4.8Hz_71.m4a,,,
,,,,,36091,2021-05-01_20h39.51.197,judgeSpeechMusic_20210407_logNormShiftAmp,2020.1.2,MacIntel,60,,,,,,,,,,,,,,,,,,,,,,,,,,1,8.138935,,0,0,135,135,92,1,stimuli/stim_20210407_power2amp/equal_lnn_AM4.2Hz_95.m4a,,,
,,,,,36091,2021-05-01_20h39.51.197,judgeSpeechMusic_20210407_logNormShiftAmp,2020.1.2,MacIntel,60,,,,,,,,,,,,,,,,,,,,,,,,,,2,6.03968,,0,0,136,136,70,1,stimuli/stim_20210407_power2amp/equal_lnn_AM3Hz_77.m4a,,,
,,,,,36091,2021-05-01_20h39.51.197,judgeSpeechMusic_20210407_logNormShiftAmp,2020.1.2,MacIntel,60,,,,,,,,,,,,,,,,,,,,,,,,,,1,8.277125,,0,0,137,137,7,1,stimuli/stim_20210407_power2amp/equal_lnn_AM0.6Hz_89.m4a,,,
,,,,,36091,2021-05-01_20h39.51.197,judgeSpeechMusic_20210407_logNormShiftAmp,2020.1.2,MacIntel,60,,,,,,,,,,,,,,,,,,,,,,,,,,2,7.226945,,0,0,138,138,72,1,stimuli/stim_20210407_power2amp/equal_lnn_AM3Hz_100.m4a,,,
,,,,,36091,2021-05-01_20h39.51.197,judgeSpeechMusic_20210407_logNormShiftAmp,2020.1.2,MacIntel,60,,,,,,,,,,,,,,,,,,,,,,,,,,1,12.24602,,0,0,139,139,123,1,stimuli/stim_20210407_power2amp/equal_lnn_AM5.4Hz_38.m4a,,,
,,,,,36091,2021-05-01_20h39.51.197,judgeSpeechMusic_20210407_logNormShiftAmp,2020.1.2,MacIntel,60,,,,,,,,,,,,,,,,,,,,,,,,,,2,10.87761,,0,0,140,140,67,1,stimuli/stim_20210407_power2amp/equal_lnn_AM3Hz_57.m4a,,,
,,,,,36091,2021-05-01_20h39.51.197,judgeSpeechMusic_20210407_logNormShiftAmp,2020.1.2,MacIntel,60,,,,,,,,,,,,,,,,,,,,,,,,,,1,8.89375,,0,0,141,141,98,1,stimuli/stim_20210407_power2amp/equal_lnn_AM4.2Hz_45.m4a,,,
,,,,,36091,2021-05-01_20h39.51.197,judgeSpeechMusic_20210407_logNormShiftAmp,2020.1.2,MacIntel,60,,,,,,,,,,,,,,,,,,,,,,,,,,2,12.314705,,0,0,142,142,5,1,stimuli/stim_20210407_power2amp/equal_lnn_AM0.6Hz_52.m4a,,,
,,,,,36091,2021-05-01_20h39.51.197,judgeSpeechMusic_20210407_logNormShiftAmp,2020.1.2,MacIntel,60,,,,,,,,,,,,,,,,,,,,,,,,,,1,11.003865,1,1,0,143,143,11,1,stimuli/stim_20210407_power2amp/equal_lnn_AM0.6Hz_99.m4a,1.364425,,
,,,,,36091,2021-05-01_20h39.51.197,judgeSpeechMusic_20210407_logNormShiftAmp,2020.1.2,MacIntel,60,,,,,,,,,,,,,,,,,,,,,,,,,,1,9.455095,,0,0,144,144,97,1,stimuli/stim_20210407_power2amp/equal_lnn_AM4.2Hz_55.m4a,,,
,,,,,36091,2021-05-01_20h39.51.197,judgeSpeechMusic_20210407_logNormShiftAmp,2020.1.2,MacIntel,60,,,,,,,,,,,,,,,,,,,,,,,,,,1,7.392395,,0,0,145,145,4,1,stimuli/stim_20210407_power2amp/equal_lnn_AM0.6Hz_26.m4a,,,
,,,,,36091,2021-05-01_20h39.51.197,judgeSpeechMusic_20210407_logNormShiftAmp,2020.1.2,MacIntel,60,,,,,,,,,,,,,,,,,,,,,,,,,,2,9.411465,,0,0,146,146,33,1,stimuli/stim_20210407_power2amp/equal_lnn_AM1.8Hz_40.m4a,,,
,,,,,36091,2021-05-01_20h39.51.197,judgeSpeechMusic_20210407_logNormShiftAmp,2020.1.2,MacIntel,60,,,,,,,,,,,,,,,,,,,,,,,,,,1,10.656905,,0,0,147,147,100,1,stimuli/stim_20210407_power2amp/equal_lnn_AM4.2Hz_26.m4a,,,
,,,,,36091,2021-05-01_20h39.51.197,judgeSpeechMusic_20210407_logNormShiftAmp,2020.1.2,MacIntel,60,,,,,,,,,,,,,,,,,,,,,,,,,,2,9.87804,,0,0,148,148,146,1,stimuli/stim_20210407_power2amp/equal_lnn_AM6Hz_32.m4a,,,
,,,,,36091,2021-05-01_20h39.51.197,judgeSpeechMusic_20210407_logNormShiftAmp,2020.1.2,MacIntel,60,,,,,,,,,,,,,,,,,,,,,,,,,,1,7.928005,,0,0,149,149,106,1,stimuli/stim_20210407_power2amp/equal_lnn_AM4.8Hz_44.m4a,,,
,,,,,36091,2021-05-01_20h39.51.197,judgeSpeechMusic_20210407_logNormShiftAmp,2020.1.2,MacIntel,60,,,,,,,,,,,,,,,,,,,,,,,,,,1,8.161375,,0,1,0,150,122,1,stimuli/stim_20210407_power2amp/equal_lnn_AM5.4Hz_46.m4a,,,
,,,,,36091,2021-05-01_20h39.51.197,judgeSpeechMusic_20210407_logNormShiftAmp,2020.1.2,MacIntel,60,,,,,,,,,,,,,,,,,,,,,,,,,,2,10.75581,,0,1,1,151,3,1,stimuli/stim_20210407_power2amp/equal_lnn_AM0.6Hz_77.m4a,,,
,,,,,36091,2021-05-01_20h39.51.197,judgeSpeechMusic_20210407_logNormShiftAmp,2020.1.2,MacIntel,60,,,,,,,,,,,,,,,,,,,,,,,,,,1,7.86049,,0,1,2,152,108,1,stimuli/stim_20210407_power2amp/equal_lnn_AM4.8Hz_86.m4a,,,
,,,,,36091,2021-05-01_20h39.51.197,judgeSpeechMusic_20210407_logNormShiftAmp,2020.1.2,MacIntel,60,,,,,,,,,,,,,,,,,,,,,,,,,,1,8.746085,,0,1,3,153,106,1,stimuli/stim_20210407_power2amp/equal_lnn_AM4.8Hz_44.m4a,,,
,,,,,36091,2021-05-01_20h39.51.197,judgeSpeechMusic_20210407_logNormShiftAmp,2020.1.2,MacIntel,60,,,,,,,,,,,,,,,,,,,,,,,,,,2,9.37186,,0,1,4,154,72,1,stimuli/stim_20210407_power2amp/equal_lnn_AM3Hz_100.m4a,,,
,,,,,36091,2021-05-01_20h39.51.197,judgeSpeechMusic_20210407_logNormShiftAmp,2020.1.2,MacIntel,60,,,,,,,,,,,,,,,,,,,,,,,,,,2,8.84518,,0,1,5,155,41,1,stimuli/stim_20210407_power2amp/equal_lnn_AM1.8Hz_49.m4a,,,
,,,,,36091,2021-05-01_20h39.51.197,judgeSpeechMusic_20210407_logNormShiftAmp,2020.1.2,MacIntel,60,,,,,,,,,,,,,,,,,,,,,,,,,,2,7.378,,0,1,6,156,38,1,stimuli/stim_20210407_power2amp/equal_lnn_AM1.8Hz_54.m4a,,,
,,,,,36091,2021-05-01_20h39.51.197,judgeSpeechMusic_20210407_logNormShiftAmp,2020.1.2,MacIntel,60,,,,,,,,,,,,,,,,,,,,,,,,,,1,7.41056,,0,1,7,157,55,1,stimuli/stim_20210407_power2amp/equal_lnn_AM2.4Hz_86.m4a,,,
,,,,,36091,2021-05-01_20h39.51.197,judgeSpeechMusic_20210407_logNormShiftAmp,2020.1.2,MacIntel,60,,,,,,,,,,,,,,,,,,,,,,,,,,1,7.893805,,0,1,8,158,50,1,stimuli/stim_20210407_power2amp/equal_lnn_AM2.4Hz_78.m4a,,,
,,,,,36091,2021-05-01_20h39.51.197,judgeSpeechMusic_20210407_logNormShiftAmp,2020.1.2,MacIntel,60,,,,,,,,,,,,,,,,,,,,,,,,,,2,10.206915,,0,1,9,159,91,1,stimuli/stim_20210407_power2amp/equal_lnn_AM4.2Hz_53.m4a,,,
,,,,,36091,2021-05-01_20h39.51.197,judgeSpeechMusic_20210407_logNormShiftAmp,2020.1.2,MacIntel,60,,,,,,,,,,,,,,,,,,,,,,,,,,2,8.82967,,0,1,10,160,45,1,stimuli/stim_20210407_power2amp/equal_lnn_AM2.4Hz_52.m4a,,,
,,,,,36091,2021-05-01_20h39.51.197,judgeSpeechMusic_20210407_logNormShiftAmp,2020.1.2,MacIntel,60,,,,,,,,,,,,,,,,,,,,,,,,,,1,8.31053,,0,1,11,161,70,1,stimuli/stim_20210407_power2amp/equal_lnn_AM3Hz_77.m4a,,,
,,,,,36091,2021-05-01_20h39.51.197,judgeSpeechMusic_20210407_logNormShiftAmp,2020.1.2,MacIntel,60,,,,,,,,,,,,,,,,,,,,,,,,,,2,6.726255,,0,1,12,162,43,1,stimuli/stim_20210407_power2amp/equal_lnn_AM1.8Hz_8.m4a,,,
,,,,,36091,2021-05-01_20h39.51.197,judgeSpeechMusic_20210407_logNormShiftAmp,2020.1.2,MacIntel,60,,,,,,,,,,,,,,,,,,,,,,,,,,1,19.871825,3,1,1,13,163,126,1,stimuli/stim_20210407_power2amp/equal_lnn_AM5.4Hz_58.m4a,0.667035,,
,,,,,36091,2021-05-01_20h39.51.197,judgeSpeechMusic_20210407_logNormShiftAmp,2020.1.2,MacIntel,60,,,,,,,,,,,,,,,,,,,,,,,,,,1,6.438645,,0,1,14,164,145,1,stimuli/stim_20210407_power2amp/equal_lnn_AM6Hz_63.m4a,,,
,,,,,36091,2021-05-01_20h39.51.197,judgeSpeechMusic_20210407_logNormShiftAmp,2020.1.2,MacIntel,60,,,,,,,,,,,,,,,,,,,,,,,,,,1,11.77875,,0,1,15,165,92,1,stimuli/stim_20210407_power2amp/equal_lnn_AM4.2Hz_95.m4a,,,
,,,,,36091,2021-05-01_20h39.51.197,judgeSpeechMusic_20210407_logNormShiftAmp,2020.1.2,MacIntel,60,,,,,,,,,,,,,,,,,,,,,,,,,,1,6.359845,,0,1,16,166,96,1,stimuli/stim_20210407_power2amp/equal_lnn_AM4.2Hz_96.m4a,,,
,,,,,36091,2021-05-01_20h39.51.197,judgeSpeechMusic_20210407_logNormShiftAmp,2020.1.2,MacIntel,60,,,,,,,,,,,,,,,,,,,,,,,,,,1,6.44493,,0,1,17,167,2,1,stimuli/stim_20210407_power2amp/equal_lnn_AM0.6Hz_65.m4a,,,
,,,,,36091,2021-05-01_20h39.51.197,judgeSpeechMusic_20210407_logNormShiftAmp,2020.1.2,MacIntel,60,,,,,,,,,,,,,,,,,,,,,,,,,,1,7.133315,,0,1,18,168,132,1,stimuli/stim_20210407_power2amp/equal_lnn_AM5.4Hz_76.m4a,,,
,,,,,36091,2021-05-01_20h39.51.197,judgeSpeechMusic_20210407_logNormShiftAmp,2020.1.2,MacIntel,60,,,,,,,,,,,,,,,,,,,,,,,,,,1,15.03593,,0,1,19,169,13,1,stimuli/stim_20210407_power2amp/equal_lnn_AM0.6Hz_85.m4a,,,
,,,,,36091,2021-05-01_20h39.51.197,judgeSpeechMusic_20210407_logNormShiftAmp,2020.1.2,MacIntel,60,,,,,,,,,,,,,,,,,,,,,,,,,,1,6.62746,,0,1,20,170,125,1,stimuli/stim_20210407_power2amp/equal_lnn_AM5.4Hz_72.m4a,,,
,,,,,36091,2021-05-01_20h39.51.197,judgeSpeechMusic_20210407_logNormShiftAmp,2020.1.2,MacIntel,60,,,,,,,,,,,,,,,,,,,,,,,,,,2,8.125995,,0,1,21,171,29,1,stimuli/stim_20210407_power2amp/equal_lnn_AM1.2Hz_11.m4a,,,
,,,,,36091,2021-05-01_20h39.51.197,judgeSpeechMusic_20210407_logNormShiftAmp,2020.1.2,MacIntel,60,,,,,,,,,,,,,,,,,,,,,,,,,,1,9.659485,,0,1,22,172,71,1,stimuli/stim_20210407_power2amp/equal_lnn_AM3Hz_64.m4a,,,
,,,,,36091,2021-05-01_20h39.51.197,judgeSpeechMusic_20210407_logNormShiftAmp,2020.1.2,MacIntel,60,,,,,,,,,,,,,,,,,,,,,,,,,,2,12.893925,,0,1,23,173,149,1,stimuli/stim_20210407_power2amp/equal_lnn_AM6Hz_26.m4a,,,
,,,,,36091,2021-05-01_20h39.51.197,judgeSpeechMusic_20210407_logNormShiftAmp,2020.1.2,MacIntel,60,,,,,,,,,,,,,,,,,,,,,,,,,,2,13.65788,,0,1,24,174,15,1,stimuli/stim_20210407_power2amp/equal_lnn_AM1.2Hz_18.m4a,,,
,,,,,36091,2021-05-01_20h39.51.197,judgeSpeechMusic_20210407_logNormShiftAmp,2020.1.2,MacIntel,60,,,,,,,,,,,,,,,,,,,,,,,,,,1,7.10719,,0,1,25,175,109,1,stimuli/stim_20210407_power2amp/equal_lnn_AM4.8Hz_40.m4a,,,
,,,,,36091,2021-05-01_20h39.51.197,judgeSpeechMusic_20210407_logNormShiftAmp,2020.1.2,MacIntel,60,,,,,,,,,,,,,,,,,,,,,,,,,,1,7.045275,,0,1,26,176,83,1,stimuli/stim_20210407_power2amp/equal_lnn_AM3.6Hz_58.m4a,,,
,,,,,36091,2021-05-01_20h39.51.197,judgeSpeechMusic_20210407_logNormShiftAmp,2020.1.2,MacIntel,60,,,,,,,,,,,,,,,,,,,,,,,,,,1,8.343565,,0,1,27,177,5,1,stimuli/stim_20210407_power2amp/equal_lnn_AM0.6Hz_52.m4a,,,
,,,,,36091,2021-05-01_20h39.51.197,judgeSpeechMusic_20210407_logNormShiftAmp,2020.1.2,MacIntel,60,,,,,,,,,,,,,,,,,,,,,,,,,,2,14.710065,,0,1,28,178,34,1,stimuli/stim_20210407_power2amp/equal_lnn_AM1.8Hz_74.m4a,,,
,,,,,36091,2021-05-01_20h39.51.197,judgeSpeechMusic_20210407_logNormShiftAmp,2020.1.2,MacIntel,60,,,,,,,,,,,,,,,,,,,,,,,,,,1,12.89177,,0,1,29,179,27,1,stimuli/stim_20210407_power2amp/equal_lnn_AM1.2Hz_45.m4a,,,
,,,,,36091,2021-05-01_20h39.51.197,judgeSpeechMusic_20210407_logNormShiftAmp,2020.1.2,MacIntel,60,,,,,,,,,,,,,,,,,,,,,,,,,,2,8.855815,,0,1,30,180,61,1,stimuli/stim_20210407_power2amp/equal_lnn_AM3Hz_62.m4a,,,
,,,,,36091,2021-05-01_20h39.51.197,judgeSpeechMusic_20210407_logNormShiftAmp,2020.1.2,MacIntel,60,,,,,,,,,,,,,,,,,,,,,,,,,,1,8.846415,,0,1,31,181,118,1,stimuli/stim_20210407_power2amp/equal_lnn_AM4.8Hz_46.m4a,,,
,,,,,36091,2021-05-01_20h39.51.197,judgeSpeechMusic_20210407_logNormShiftAmp,2020.1.2,MacIntel,60,,,,,,,,,,,,,,,,,,,,,,,,,,1,7.9414,,0,1,32,182,117,1,stimuli/stim_20210407_power2amp/equal_lnn_AM4.8Hz_39.m4a,,,
,,,,,36091,2021-05-01_20h39.51.197,judgeSpeechMusic_20210407_logNormShiftAmp,2020.1.2,MacIntel,60,,,,,,,,,,,,,,,,,,,,,,,,,,1,9.01041,,0,1,33,183,121,1,stimuli/stim_20210407_power2amp/equal_lnn_AM5.4Hz_71.m4a,,,
,,,,,36091,2021-05-01_20h39.51.197,judgeSpeechMusic_20210407_logNormShiftAmp,2020.1.2,MacIntel,60,,,,,,,,,,,,,,,,,,,,,,,,,,1,11.031585,,0,1,34,184,120,1,stimuli/stim_20210407_power2amp/equal_lnn_AM5.4Hz_53.m4a,,,
,,,,,36091,2021-05-01_20h39.51.197,judgeSpeechMusic_20210407_logNormShiftAmp,2020.1.2,MacIntel,60,,,,,,,,,,,,,,,,,,,,,,,,,,1,12.195415,,0,1,35,185,98,1,stimuli/stim_20210407_power2amp/equal_lnn_AM4.2Hz_45.m4a,,,
,,,,,36091,2021-05-01_20h39.51.197,judgeSpeechMusic_20210407_logNormShiftAmp,2020.1.2,MacIntel,60,,,,,,,,,,,,,,,,,,,,,,,,,,2,11.123,1,1,1,36,186,32,1,stimuli/stim_20210407_power2amp/equal_lnn_AM1.8Hz_17.m4a,0.998785,,
,,,,,36091,2021-05-01_20h39.51.197,judgeSpeechMusic_20210407_logNormShiftAmp,2020.1.2,MacIntel,60,,,,,,,,,,,,,,,,,,,,,,,,,,1,12.57052,,0,1,37,187,101,1,stimuli/stim_20210407_power2amp/equal_lnn_AM4.2Hz_78.m4a,,,
,,,,,36091,2021-05-01_20h39.51.197,judgeSpeechMusic_20210407_logNormShiftAmp,2020.1.2,MacIntel,60,,,,,,,,,,,,,,,,,,,,,,,,,,2,13.993925,,0,1,38,188,6,1,stimuli/stim_20210407_power2amp/equal_lnn_AM0.6Hz_51.m4a,,,
,,,,,36091,2021-05-01_20h39.51.197,judgeSpeechMusic_20210407_logNormShiftAmp,2020.1.2,MacIntel,60,,,,,,,,,,,,,,,,,,,,,,,,,,1,8.358145,,0,1,39,189,137,1,stimuli/stim_20210407_power2amp/equal_lnn_AM6Hz_10.m4a,,,
,,,,,36091,2021-05-01_20h39.51.197,judgeSpeechMusic_20210407_logNormShiftAmp,2020.1.2,MacIntel,60,,,,,,,,,,,,,,,,,,,,,,,,,,2,6.24043,,0,1,40,190,74,1,stimuli/stim_20210407_power2amp/equal_lnn_AM3Hz_67.m4a,,,
,,,,,36091,2021-05-01_20h39.51.197,judgeSpeechMusic_20210407_logNormShiftAmp,2020.1.2,MacIntel,60,,,,,,,,,,,,,,,,,,,,,,,,,,1,5.92792,,0,1,41,191,89,1,stimuli/stim_20210407_power2amp/equal_lnn_AM3.6Hz_84.m4a,,,
,,,,,36091,2021-05-01_20h39.51.197,judgeSpeechMusic_20210407_logNormShiftAmp,2020.1.2,MacIntel,60,,,,,,,,,,,,,,,,,,,,,,,,,,1,8.693845,,0,1,42,192,129,1,stimuli/stim_20210407_power2amp/equal_lnn_AM5.4Hz_95.m4a,,,
,,,,,36091,2021-05-01_20h39.51.197,judgeSpeechMusic_20210407_logNormShiftAmp,2020.1.2,MacIntel,60,,,,,,,,,,,,,,,,,,,,,,,,,,2,7.30752,,0,1,43,193,59,1,stimuli/stim_20210407_power2amp/equal_lnn_AM2.4Hz_59.m4a,,,
,,,,,36091,2021-05-01_20h39.51.197,judgeSpeechMusic_20210407_logNormShiftAmp,2020.1.2,MacIntel,60,,,,,,,,,,,,,,,,,,,,,,,,,,1,12.920115,,0,1,44,194,111,1,stimuli/stim_20210407_power2amp/equal_lnn_AM4.8Hz_98.m4a,,,
,,,,,36091,2021-05-01_20h39.51.197,judgeSpeechMusic_20210407_logNormShiftAmp,2020.1.2,MacIntel,60,,,,,,,,,,,,,,,,,,,,,,,,,,1,10.02678,,0,1,45,195,79,1,stimuli/stim_20210407_power2amp/equal_lnn_AM3.6Hz_61.m4a,,,
,,,,,36091,2021-05-01_20h39.51.197,judgeSpeechMusic_20210407_logNormShiftAmp,2020.1.2,MacIntel,60,,,,,,,,,,,,,,,,,,,,,,,,,,2,15.227285,,0,1,46,196,14,1,stimuli/stim_20210407_power2amp/equal_lnn_AM0.6Hz_58.m4a,,,
,,,,,36091,2021-05-01_20h39.51.197,judgeSpeechMusic_20210407_logNormShiftAmp,2020.1.2,MacIntel,60,,,,,,,,,,,,,,,,,,,,,,,,,,1,7.75894,,0,1,47,197,123,1,stimuli/stim_20210407_power2amp/equal_lnn_AM5.4Hz_38.m4a,,,
,,,,,36091,2021-05-01_20h39.51.197,judgeSpeechMusic_20210407_logNormShiftAmp,2020.1.2,MacIntel,60,,,,,,,,,,,,,,,,,,,,,,,,,,2,8.081495,,0,1,48,198,87,1,stimuli/stim_20210407_power2amp/equal_lnn_AM3.6Hz_88.m4a,,,
,,,,,36091,2021-05-01_20h39.51.197,judgeSpeechMusic_20210407_logNormShiftAmp,2020.1.2,MacIntel,60,,,,,,,,,,,,,,,,,,,,,,,,,,1,8.50908,,0,1,49,199,148,1,stimuli/stim_20210407_power2amp/equal_lnn_AM6Hz_21.m4a,,,
,,,,,36091,2021-05-01_20h39.51.197,judgeSpeechMusic_20210407_logNormShiftAmp,2020.1.2,MacIntel,60,,,,,,,,,,,,,,,,,,,,,,,,,,1,9.04331,,0,1,50,200,81,1,stimuli/stim_20210407_power2amp/equal_lnn_AM3.6Hz_55.m4a,,,
,,,,,36091,2021-05-01_20h39.51.197,judgeSpeechMusic_20210407_logNormShiftAmp,2020.1.2,MacIntel,60,,,,,,,,,,,,,,,,,,,,,,,,,,2,12.160125,,0,1,51,201,48,1,stimuli/stim_20210407_power2amp/equal_lnn_AM2.4Hz_79.m4a,,,
,,,,,36091,2021-05-01_20h39.51.197,judgeSpeechMusic_20210407_logNormShiftAmp,2020.1.2,MacIntel,60,,,,,,,,,,,,,,,,,,,,,,,,,,2,8.78658,,0,1,52,202,78,1,stimuli/stim_20210407_power2amp/equal_lnn_AM3.6Hz_76.m4a,,,
,,,,,36091,2021-05-01_20h39.51.197,judgeSpeechMusic_20210407_logNormShiftAmp,2020.1.2,MacIntel,60,,,,,,,,,,,,,,,,,,,,,,,,,,1,11.162545,,0,1,53,203,102,1,stimuli/stim_20210407_power2amp/equal_lnn_AM4.2Hz_94.m4a,,,
,,,,,36091,2021-05-01_20h39.51.197,judgeSpeechMusic_20210407_logNormShiftAmp,2020.1.2,MacIntel,60,,,,,,,,,,,,,,,,,,,,,,,,,,1,7.1229,,0,1,54,204,95,1,stimuli/stim_20210407_power2amp/equal_lnn_AM4.2Hz_44.m4a,,,
,,,,,36091,2021-05-01_20h39.51.197,judgeSpeechMusic_20210407_logNormShiftAmp,2020.1.2,MacIntel,60,,,,,,,,,,,,,,,,,,,,,,,,,,2,15.570355,,0,1,55,205,0,1,stimuli/stim_20210407_power2amp/equal_lnn_AM0.6Hz_13.m4a,,,
,,,,,36091,2021-05-01_20h39.51.197,judgeSpeechMusic_20210407_logNormShiftAmp,2020.1.2,MacIntel,60,,,,,,,,,,,,,,,,,,,,,,,,,,2,6.448345,4,1,1,56,206,54,1,stimuli/stim_20210407_power2amp/equal_lnn_AM2.4Hz_70.m4a,0.748035,,
,,,,,36091,2021-05-01_20h39.51.197,judgeSpeechMusic_20210407_logNormShiftAmp,2020.1.2,MacIntel,60,,,,,,,,,,,,,,,,,,,,,,,,,,2,15.33655,,0,1,57,207,12,1,stimuli/stim_20210407_power2amp/equal_lnn_AM0.6Hz_66.m4a,,,
,,,,,36091,2021-05-01_20h39.51.197,judgeSpeechMusic_20210407_logNormShiftAmp,2020.1.2,MacIntel,60,,,,,,,,,,,,,,,,,,,,,,,,,,1,9.770035,,0,1,58,208,80,1,stimuli/stim_20210407_power2amp/equal_lnn_AM3.6Hz_50.m4a,,,
,,,,,36091,2021-05-01_20h39.51.197,judgeSpeechMusic_20210407_logNormShiftAmp,2020.1.2,MacIntel,60,,,,,,,,,,,,,,,,,,,,,,,,,,1,8.97052,,0,1,59,209,147,1,stimuli/stim_20210407_power2amp/equal_lnn_AM6Hz_17.m4a,,,
,,,,,36091,2021-05-01_20h39.51.197,judgeSpeechMusic_20210407_logNormShiftAmp,2020.1.2,MacIntel,60,,,,,,,,,,,,,,,,,,,,,,,,,,1,7.14531,,0,1,60,210,85,1,stimuli/stim_20210407_power2amp/equal_lnn_AM3.6Hz_54.m4a,,,
,,,,,36091,2021-05-01_20h39.51.197,judgeSpeechMusic_20210407_logNormShiftAmp,2020.1.2,MacIntel,60,,,,,,,,,,,,,,,,,,,,,,,,,,2,12.94272,,0,1,61,211,7,1,stimuli/stim_20210407_power2amp/equal_lnn_AM0.6Hz_89.m4a,,,
,,,,,36091,2021-05-01_20h39.51.197,judgeSpeechMusic_20210407_logNormShiftAmp,2020.1.2,MacIntel,60,,,,,,,,,,,,,,,,,,,,,,,,,,1,13.010475,,0,1,62,212,11,1,stimuli/stim_20210407_power2amp/equal_lnn_AM0.6Hz_99.m4a,,,
,,,,,36091,2021-05-01_20h39.51.197,judgeSpeechMusic_20210407_logNormShiftAmp,2020.1.2,MacIntel,60,,,,,,,,,,,,,,,,,,,,,,,,,,1,9.241465,,0,1,63,213,146,1,stimuli/stim_20210407_power2amp/equal_lnn_AM6Hz_32.m4a,,,
,,,,,36091,2021-05-01_20h39.51.197,judgeSpeechMusic_20210407_logNormShiftAmp,2020.1.2,MacIntel,60,,,,,,,,,,,,,,,,,,,,,,,,,,2,11.344175,,0,1,64,214,25,1,stimuli/stim_20210407_power2amp/equal_lnn_AM1.2Hz_17.m4a,,,
,,,,,36091,2021-05-01_20h39.51.197,judgeSpeechMusic_20210407_logNormShiftAmp,2020.1.2,MacIntel,60,,,,,,,,,,,,,,,,,,,,,,,,,,1,7.724535,,0,1,65,215,84,1,stimuli/stim_20210407_power2amp/equal_lnn_AM3.6Hz_80.m4a,,,
,,,,,36091,2021-05-01_20h39.51.197,judgeSpeechMusic_20210407_logNormShiftAmp,2020.1.2,MacIntel,60,,,,,,,,,,,,,,,,,,,,,,,,,,1,8.29688,,0,1,66,216,140,1,stimuli/stim_20210407_power2amp/equal_lnn_AM6Hz_36.m4a,,,
,,,,,36091,2021-05-01_20h39.51.197,judgeSpeechMusic_20210407_logNormShiftAmp,2020.1.2,MacIntel,60,,,,,,,,,,,,,,,,,,,,,,,,,,1,10.11053,,0,1,67,217,37,1,stimuli/stim_20210407_power2amp/equal_lnn_AM1.8Hz_92.m4a,,,
,,,,,36091,2021-05-01_20h39.51.197,judgeSpeechMusic_20210407_logNormShiftAmp,2020.1.2,MacIntel,60,,,,,,,,,,,,,,,,,,,,,,,,,,1,7.561675,,0,1,68,218,65,1,stimuli/stim_20210407_power2amp/equal_lnn_AM3Hz_61.m4a,,,
,,,,,36091,2021-05-01_20h39.51.197,judgeSpeechMusic_20210407_logNormShiftAmp,2020.1.2,MacIntel,60,,,,,,,,,,,,,,,,,,,,,,,,,,1,6.6111,,0,1,69,219,19,1,stimuli/stim_20210407_power2amp/equal_lnn_AM1.2Hz_85.m4a,,,
,,,,,36091,2021-05-01_20h39.51.197,judgeSpeechMusic_20210407_logNormShiftAmp,2020.1.2,MacIntel,60,,,,,,,,,,,,,,,,,,,,,,,,,,1,8.24,,0,1,70,220,40,1,stimuli/stim_20210407_power2amp/equal_lnn_AM1.8Hz_36.m4a,,,
,,,,,36091,2021-05-01_20h39.51.197,judgeSpeechMusic_20210407_logNormShiftAmp,2020.1.2,MacIntel,60,,,,,,,,,,,,,,,,,,,,,,,,,,1,13.815415,,0,1,71,221,100,1,stimuli/stim_20210407_power2amp/equal_lnn_AM4.2Hz_26.m4a,,,
,,,,,36091,2021-05-01_20h39.51.197,judgeSpeechMusic_20210407_logNormShiftAmp,2020.1.2,MacIntel,60,,,,,,,,,,,,,,,,,,,,,,,,,,2,8.533825,,0,1,72,222,77,1,stimuli/stim_20210407_power2amp/equal_lnn_AM3.6Hz_93.m4a,,,
,,,,,36091,2021-05-01_20h39.51.197,judgeSpeechMusic_20210407_logNormShiftAmp,2020.1.2,MacIntel,60,,,,,,,,,,,,,,,,,,,,,,,,,,1,6.591035,,0,1,73,223,73,1,stimuli/stim_20210407_power2amp/equal_lnn_AM3Hz_56.m4a,,,
,,,,,36091,2021-05-01_20h39.51.197,judgeSpeechMusic_20210407_logNormShiftAmp,2020.1.2,MacIntel,60,,,,,,,,,,,,,,,,,,,,,,,,,,1,14.12624,,0,1,74,224,26,1,stimuli/stim_20210407_power2amp/equal_lnn_AM1.2Hz_5.m4a,,,
,,,,,36091,2021-05-01_20h39.51.197,judgeSpeechMusic_20210407_logNormShiftAmp,2020.1.2,MacIntel,60,,,,,,,,,,,,,,,,,,,,,,,,,,1,6.509135,,0,1,75,225,144,1,stimuli/stim_20210407_power2amp/equal_lnn_AM6Hz_1.m4a,,,
,,,,,36091,2021-05-01_20h39.51.197,judgeSpeechMusic_20210407_logNormShiftAmp,2020.1.2,MacIntel,60,,,,,,,,,,,,,,,,,,,,,,,,,,2,15.862445,,0,1,76,226,99,1,stimuli/stim_20210407_power2amp/equal_lnn_AM4.2Hz_92.m4a,,,
,,,,,36091,2021-05-01_20h39.51.197,judgeSpeechMusic_20210407_logNormShiftAmp,2020.1.2,MacIntel,60,,,,,,,,,,,,,,,,,,,,,,,,,,1,13.114175,3,1,1,77,227,24,1,stimuli/stim_20210407_power2amp/equal_lnn_AM1.2Hz_37.m4a,0.663125,,
,,,,,36091,2021-05-01_20h39.51.197,judgeSpeechMusic_20210407_logNormShiftAmp,2020.1.2,MacIntel,60,,,,,,,,,,,,,,,,,,,,,,,,,,1,12.286605,,0,1,78,228,51,1,stimuli/stim_20210407_power2amp/equal_lnn_AM2.4Hz_51.m4a,,,
,,,,,36091,2021-05-01_20h39.51.197,judgeSpeechMusic_20210407_logNormShiftAmp,2020.1.2,MacIntel,60,,,,,,,,,,,,,,,,,,,,,,,,,,1,15.707905,,0,1,79,229,42,1,stimuli/stim_20210407_power2amp/equal_lnn_AM1.8Hz_42.m4a,,,
,,,,,36091,2021-05-01_20h39.51.197,judgeSpeechMusic_20210407_logNormShiftAmp,2020.1.2,MacIntel,60,,,,,,,,,,,,,,,,,,,,,,,,,,2,10.70973,,0,1,80,230,8,1,stimuli/stim_20210407_power2amp/equal_lnn_AM0.6Hz_8.m4a,,,
,,,,,36091,2021-05-01_20h39.51.197,judgeSpeechMusic_20210407_logNormShiftAmp,2020.1.2,MacIntel,60,,,,,,,,,,,,,,,,,,,,,,,,,,2,11.17783,,0,1,81,231,49,1,stimuli/stim_20210407_power2amp/equal_lnn_AM2.4Hz_94.m4a,,,
,,,,,36091,2021-05-01_20h39.51.197,judgeSpeechMusic_20210407_logNormShiftAmp,2020.1.2,MacIntel,60,,,,,,,,,,,,,,,,,,,,,,,,,,1,9.17419,,0,1,82,232,136,1,stimuli/stim_20210407_power2amp/equal_lnn_AM6Hz_5.m4a,,,
,,,,,36091,2021-05-01_20h39.51.197,judgeSpeechMusic_20210407_logNormShiftAmp,2020.1.2,MacIntel,60,,,,,,,,,,,,,,,,,,,,,,,,,,1,7.27472,,0,1,83,233,131,1,stimuli/stim_20210407_power2amp/equal_lnn_AM5.4Hz_3.m4a,,,
,,,,,36091,2021-05-01_20h39.51.197,judgeSpeechMusic_20210407_logNormShiftAmp,2020.1.2,MacIntel,60,,,,,,,,,,,,,,,,,,,,,,,,,,2,9.309545,,0,1,84,234,1,1,stimuli/stim_20210407_power2amp/equal_lnn_AM0.6Hz_86.m4a,,,
,,,,,36091,2021-05-01_20h39.51.197,judgeSpeechMusic_20210407_logNormShiftAmp,2020.1.2,MacIntel,60,,,,,,,,,,,,,,,,,,,,,,,,,,1,6.991295,,0,1,85,235,28,1,stimuli/stim_20210407_power2amp/equal_lnn_AM1.2Hz_96.m4a,,,
,,,,,36091,2021-05-01_20h39.51.197,judgeSpeechMusic_20210407_logNormShiftAmp,2020.1.2,MacIntel,60,,,,,,,,,,,,,,,,,,,,,,,,,,1,6.61443,,0,1,86,236,47,1,stimuli/stim_20210407_power2amp/equal_lnn_AM2.4Hz_68.m4a,,,
,,,,,36091,2021-05-01_20h39.51.197,judgeSpeechMusic_20210407_logNormShiftAmp,2020.1.2,MacIntel,60,,,,,,,,,,,,,,,,,,,,,,,,,,2,12.57813,,0,1,87,237,46,1,stimuli/stim_20210407_power2amp/equal_lnn_AM2.4Hz_24.m4a,,,
,,,,,36091,2021-05-01_20h39.51.197,judgeSpeechMusic_20210407_logNormShiftAmp,2020.1.2,MacIntel,60,,,,,,,,,,,,,,,,,,,,,,,,,,1,18.662675,,0,1,88,238,69,1,stimuli/stim_20210407_power2amp/equal_lnn_AM3Hz_40.m4a,,,
,,,,,36091,2021-05-01_20h39.51.197,judgeSpeechMusic_20210407_logNormShiftAmp,2020.1.2,MacIntel,60,,,,,,,,,,,,,,,,,,,,,,,,,,1,7.52217,,0,1,89,239,62,1,stimuli/stim_20210407_power2amp/equal_lnn_AM3Hz_5.m4a,,,
,,,,,36091,2021-05-01_20h39.51.197,judgeSpeechMusic_20210407_logNormShiftAmp,2020.1.2,MacIntel,60,,,,,,,,,,,,,,,,,,,,,,,,,,1,16.1696,,0,1,90,240,35,1,stimuli/stim_20210407_power2amp/equal_lnn_AM1.8Hz_65.m4a,,,
,,,,,36091,2021-05-01_20h39.51.197,judgeSpeechMusic_20210407_logNormShiftAmp,2020.1.2,MacIntel,60,,,,,,,,,,,,,,,,,,,,,,,,,,1,19.674415,,0,1,91,241,33,1,stimuli/stim_20210407_power2amp/equal_lnn_AM1.8Hz_40.m4a,,,
,,,,,36091,2021-05-01_20h39.51.197,judgeSpeechMusic_20210407_logNormShiftAmp,2020.1.2,MacIntel,60,,,,,,,,,,,,,,,,,,,,,,,,,,1,7.454165,,0,1,92,242,76,1,stimuli/stim_20210407_power2amp/equal_lnn_AM3.6Hz_87.m4a,,,
,,,,,36091,2021-05-01_20h39.51.197,judgeSpeechMusic_20210407_logNormShiftAmp,2020.1.2,MacIntel,60,,,,,,,,,,,,,,,,,,,,,,,,,,1,13.92763,,0,1,93,243,23,1,stimuli/stim_20210407_power2amp/equal_lnn_AM1.2Hz_92.m4a,,,
,,,,,36091,2021-05-01_20h39.51.197,judgeSpeechMusic_20210407_logNormShiftAmp,2020.1.2,MacIntel,60,,,,,,,,,,,,,,,,,,,,,,,,,,1,11.4415,,0,1,94,244,134,1,stimuli/stim_20210407_power2amp/equal_lnn_AM5.4Hz_45.m4a,,,
,,,,,36091,2021-05-01_20h39.51.197,judgeSpeechMusic_20210407_logNormShiftAmp,2020.1.2,MacIntel,60,,,,,,,,,,,,,,,,,,,,,,,,,,1,5.92808,,0,1,95,245,63,1,stimuli/stim_20210407_power2amp/equal_lnn_AM3Hz_32.m4a,,,
,,,,,36091,2021-05-01_20h39.51.197,judgeSpeechMusic_20210407_logNormShiftAmp,2020.1.2,MacIntel,60,,,,,,,,,,,,,,,,,,,,,,,,,,1,6.508045,,0,1,96,246,115,1,stimuli/stim_20210407_power2amp/equal_lnn_AM4.8Hz_45.m4a,,,
,,,,,36091,2021-05-01_20h39.51.197,judgeSpeechMusic_20210407_logNormShiftAmp,2020.1.2,MacIntel,60,,,,,,,,,,,,,,,,,,,,,,,,,,2,6.312195,,0,1,97,247,52,1,stimuli/stim_20210407_power2amp/equal_lnn_AM2.4Hz_84.m4a,,,
,,,,,36091,2021-05-01_20h39.51.197,judgeSpeechMusic_20210407_logNormShiftAmp,2020.1.2,MacIntel,60,,,,,,,,,,,,,,,,,,,,,,,,,,1,7.36357,,0,1,98,248,10,1,stimuli/stim_20210407_power2amp/equal_lnn_AM0.6Hz_63.m4a,,,
,,,,,36091,2021-05-01_20h39.51.197,judgeSpeechMusic_20210407_logNormShiftAmp,2020.1.2,MacIntel,60,,,,,,,,,,,,,,,,,,,,,,,,,,2,6.276215,3,1,1,99,249,60,1,stimuli/stim_20210407_power2amp/equal_lnn_AM3Hz_28.m4a,0.779195,,
,,,,,36091,2021-05-01_20h39.51.197,judgeSpeechMusic_20210407_logNormShiftAmp,2020.1.2,MacIntel,60,,,,,,,,,,,,,,,,,,,,,,,,,,1,7.5302,,0,1,100,250,133,1,stimuli/stim_20210407_power2amp/equal_lnn_AM5.4Hz_41.m4a,,,
,,,,,36091,2021-05-01_20h39.51.197,judgeSpeechMusic_20210407_logNormShiftAmp,2020.1.2,MacIntel,60,,,,,,,,,,,,,,,,,,,,,,,,,,1,6.904395,,0,1,101,251,36,1,stimuli/stim_20210407_power2amp/equal_lnn_AM1.8Hz_75.m4a,,,
,,,,,36091,2021-05-01_20h39.51.197,judgeSpeechMusic_20210407_logNormShiftAmp,2020.1.2,MacIntel,60,,,,,,,,,,,,,,,,,,,,,,,,,,1,16.224605,,0,1,102,252,107,1,stimuli/stim_20210407_power2amp/equal_lnn_AM4.8Hz_97.m4a,,,
,,,,,36091,2021-05-01_20h39.51.197,judgeSpeechMusic_20210407_logNormShiftAmp,2020.1.2,MacIntel,60,,,,,,,,,,,,,,,,,,,,,,,,,,1,7.61593,,0,1,103,253,127,1,stimuli/stim_20210407_power2amp/equal_lnn_AM5.4Hz_14.m4a,,,
,,,,,36091,2021-05-01_20h39.51.197,judgeSpeechMusic_20210407_logNormShiftAmp,2020.1.2,MacIntel,60,,,,,,,,,,,,,,,,,,,,,,,,,,1,10.695005,,0,1,104,254,66,1,stimuli/stim_20210407_power2amp/equal_lnn_AM3Hz_97.m4a,,,
,,,,,36091,2021-05-01_20h39.51.197,judgeSpeechMusic_20210407_logNormShiftAmp,2020.1.2,MacIntel,60,,,,,,,,,,,,,,,,,,,,,,,,,,1,6.993555,,0,1,105,255,97,1,stimuli/stim_20210407_power2amp/equal_lnn_AM4.2Hz_55.m4a,,,
,,,,,36091,2021-05-01_20h39.51.197,judgeSpeechMusic_20210407_logNormShiftAmp,2020.1.2,MacIntel,60,,,,,,,,,,,,,,,,,,,,,,,,,,1,7.83516,,0,1,106,256,44,1,stimuli/stim_20210407_power2amp/equal_lnn_AM1.8Hz_48.m4a,,,
,,,,,36091,2021-05-01_20h39.51.197,judgeSpeechMusic_20210407_logNormShiftAmp,2020.1.2,MacIntel,60,,,,,,,,,,,,,,,,,,,,,,,,,,1,14.393425,,0,1,107,257,58,1,stimuli/stim_20210407_power2amp/equal_lnn_AM2.4Hz_27.m4a,,,
,,,,,36091,2021-05-01_20h39.51.197,judgeSpeechMusic_20210407_logNormShiftAmp,2020.1.2,MacIntel,60,,,,,,,,,,,,,,,,,,,,,,,,,,1,10.060365,,0,1,108,258,31,1,stimuli/stim_20210407_power2amp/equal_lnn_AM1.8Hz_10.m4a,,,
,,,,,36091,2021-05-01_20h39.51.197,judgeSpeechMusic_20210407_logNormShiftAmp,2020.1.2,MacIntel,60,,,,,,,,,,,,,,,,,,,,,,,,,,1,8.12996,,0,1,109,259,139,1,stimuli/stim_20210407_power2amp/equal_lnn_AM6Hz_9.m4a,,,
,,,,,36091,2021-05-01_20h39.51.197,judgeSpeechMusic_20210407_logNormShiftAmp,2020.1.2,MacIntel,60,,,,,,,,,,,,,,,,,,,,,,,,,,1,8.862845,,0,1,110,260,143,1,stimuli/stim_20210407_power2amp/equal_lnn_AM6Hz_64.m4a,,,
,,,,,36091,2021-05-01_20h39.51.197,judgeSpeechMusic_20210407_logNormShiftAmp,2020.1.2,MacIntel,60,,,,,,,,,,,,,,,,,,,,,,,,,,1,7.528195,,0,1,111,261,93,1,stimuli/stim_20210407_power2amp/equal_lnn_AM4.2Hz_25.m4a,,,
,,,,,36091,2021-05-01_20h39.51.197,judgeSpeechMusic_20210407_logNormShiftAmp,2020.1.2,MacIntel,60,,,,,,,,,,,,,,,,,,,,,,,,,,1,7.49278,,0,1,112,262,138,1,stimuli/stim_20210407_power2amp/equal_lnn_AM6Hz_70.m4a,,,
,,,,,36091,2021-05-01_20h39.51.197,judgeSpeechMusic_20210407_logNormShiftAmp,2020.1.2,MacIntel,60,,,,,,,,,,,,,,,,,,,,,,,,,,1,13.141745,,0,1,113,263,18,1,stimuli/stim_20210407_power2amp/equal_lnn_AM1.2Hz_78.m4a,,,
,,,,,36091,2021-05-01_20h39.51.197,judgeSpeechMusic_20210407_logNormShiftAmp,2020.1.2,MacIntel,60,,,,,,,,,,,,,,,,,,,,,,,,,,2,16.04066,,0,1,114,264,94,1,stimuli/stim_20210407_power2amp/equal_lnn_AM4.2Hz_17.m4a,,,
,,,,,36091,2021-05-01_20h39.51.197,judgeSpeechMusic_20210407_logNormShiftAmp,2020.1.2,MacIntel,60,,,,,,,,,,,,,,,,,,,,,,,,,,1,7.176785,,0,1,115,265,112,1,stimuli/stim_20210407_power2amp/equal_lnn_AM4.8Hz_51.m4a,,,
,,,,,36091,2021-05-01_20h39.51.197,judgeSpeechMusic_20210407_logNormShiftAmp,2020.1.2,MacIntel,60,,,,,,,,,,,,,,,,,,,,,,,,,,1,8.675875,,0,1,116,266,141,1,stimuli/stim_20210407_power2amp/equal_lnn_AM6Hz_15.m4a,,,
,,,,,36091,2021-05-01_20h39.51.197,judgeSpeechMusic_20210407_logNormShiftAmp,2020.1.2,MacIntel,60,,,,,,,,,,,,,,,,,,,,,,,,,,1,13.595395,,0,1,117,267,114,1,stimuli/stim_20210407_power2amp/equal_lnn_AM4.8Hz_4.m4a,,,
,,,,,36091,2021-05-01_20h39.51.197,judgeSpeechMusic_20210407_logNormShiftAmp,2020.1.2,MacIntel,60,,,,,,,,,,,,,,,,,,,,,,,,,,2,9.631115,,0,1,118,268,56,1,stimuli/stim_20210407_power2amp/equal_lnn_AM2.4Hz_22.m4a,,,
,,,,,36091,2021-05-01_20h39.51.197,judgeSpeechMusic_20210407_logNormShiftAmp,2020.1.2,MacIntel,60,,,,,,,,,,,,,,,,,,,,,,,,,,1,6.09274,,0,1,119,269,67,1,stimuli/stim_20210407_power2amp/equal_lnn_AM3Hz_57.m4a,,,
,,,,,36091,2021-05-01_20h39.51.197,judgeSpeechMusic_20210407_logNormShiftAmp,2020.1.2,MacIntel,60,,,,,,,,,,,,,,,,,,,,,,,,,,1,10.760545,,0,1,120,270,22,1,stimuli/stim_20210407_power2amp/equal_lnn_AM1.2Hz_84.m4a,,,
,,,,,36091,2021-05-01_20h39.51.197,judgeSpeechMusic_20210407_logNormShiftAmp,2020.1.2,MacIntel,60,,,,,,,,,,,,,,,,,,,,,,,,,,1,10.3242,3,1,1,121,271,88,1,stimuli/stim_20210407_power2amp/equal_lnn_AM3.6Hz_9.m4a,1.17759,,
,,,,,36091,2021-05-01_20h39.51.197,judgeSpeechMusic_20210407_logNormShiftAmp,2020.1.2,MacIntel,60,,,,,,,,,,,,,,,,,,,,,,,,,,1,8.720815,,0,1,122,272,21,1,stimuli/stim_20210407_power2amp/equal_lnn_AM1.2Hz_91.m4a,,,
,,,,,36091,2021-05-01_20h39.51.197,judgeSpeechMusic_20210407_logNormShiftAmp,2020.1.2,MacIntel,60,,,,,,,,,,,,,,,,,,,,,,,,,,1,6.760765,,0,1,123,273,124,1,stimuli/stim_20210407_power2amp/equal_lnn_AM5.4Hz_57.m4a,,,
,,,,,36091,2021-05-01_20h39.51.197,judgeSpeechMusic_20210407_logNormShiftAmp,2020.1.2,MacIntel,60,,,,,,,,,,,,,,,,,,,,,,,,,,1,6.180365,,0,1,124,274,64,1,stimuli/stim_20210407_power2amp/equal_lnn_AM3Hz_11.m4a,,,
,,,,,36091,2021-05-01_20h39.51.197,judgeSpeechMusic_20210407_logNormShiftAmp,2020.1.2,MacIntel,60,,,,,,,,,,,,,,,,,,,,,,,,,,2,9.379935,,0,1,125,275,9,1,stimuli/stim_20210407_power2amp/equal_lnn_AM0.6Hz_47.m4a,,,
,,,,,36091,2021-05-01_20h39.51.197,judgeSpeechMusic_20210407_logNormShiftAmp,2020.1.2,MacIntel,60,,,,,,,,,,,,,,,,,,,,,,,,,,1,9.24297,,0,1,126,276,39,1,stimuli/stim_20210407_power2amp/equal_lnn_AM1.8Hz_80.m4a,,,
,,,,,36091,2021-05-01_20h39.51.197,judgeSpeechMusic_20210407_logNormShiftAmp,2020.1.2,MacIntel,60,,,,,,,,,,,,,,,,,,,,,,,,,,2,8.912025,,0,1,127,277,105,1,stimuli/stim_20210407_power2amp/equal_lnn_AM4.8Hz_71.m4a,,,
,,,,,36091,2021-05-01_20h39.51.197,judgeSpeechMusic_20210407_logNormShiftAmp,2020.1.2,MacIntel,60,,,,,,,,,,,,,,,,,,,,,,,,,,1,7.342055,,0,1,128,278,128,1,stimuli/stim_20210407_power2amp/equal_lnn_AM5.4Hz_54.m4a,,,
,,,,,36091,2021-05-01_20h39.51.197,judgeSpeechMusic_20210407_logNormShiftAmp,2020.1.2,MacIntel,60,,,,,,,,,,,,,,,,,,,,,,,,,,1,10.84508,,0,1,129,279,142,1,stimuli/stim_20210407_power2amp/equal_lnn_AM6Hz_79.m4a,,,
,,,,,36091,2021-05-01_20h39.51.197,judgeSpeechMusic_20210407_logNormShiftAmp,2020.1.2,MacIntel,60,,,,,,,,,,,,,,,,,,,,,,,,,,1,15.329935,,0,1,130,280,90,1,stimuli/stim_20210407_power2amp/equal_lnn_AM4.2Hz_98.m4a,,,
,,,,,36091,2021-05-01_20h39.51.197,judgeSpeechMusic_20210407_logNormShiftAmp,2020.1.2,MacIntel,60,,,,,,,,,,,,,,,,,,,,,,,,,,1,8.291055,,0,1,131,281,110,1,stimuli/stim_20210407_power2amp/equal_lnn_AM4.8Hz_10.m4a,,,
,,,,,36091,2021-05-01_20h39.51.197,judgeSpeechMusic_20210407_logNormShiftAmp,2020.1.2,MacIntel,60,,,,,,,,,,,,,,,,,,,,,,,,,,2,7.83775,,0,1,132,282,86,1,stimuli/stim_20210407_power2amp/equal_lnn_AM3.6Hz_31.m4a,,,
,,,,,36091,2021-05-01_20h39.51.197,judgeSpeechMusic_20210407_logNormShiftAmp,2020.1.2,MacIntel,60,,,,,,,,,,,,,,,,,,,,,,,,,,1,7.34388,,0,1,133,283,17,1,stimuli/stim_20210407_power2amp/equal_lnn_AM1.2Hz_87.m4a,,,
,,,,,36091,2021-05-01_20h39.51.197,judgeSpeechMusic_20210407_logNormShiftAmp,2020.1.2,MacIntel,60,,,,,,,,,,,,,,,,,,,,,,,,,,1,11.57891,,0,1,134,284,4,1,stimuli/stim_20210407_power2amp/equal_lnn_AM0.6Hz_26.m4a,,,
,,,,,36091,2021-05-01_20h39.51.197,judgeSpeechMusic_20210407_logNormShiftAmp,2020.1.2,MacIntel,60,,,,,,,,,,,,,,,,,,,,,,,,,,2,12.543585,,0,1,135,285,104,1,stimuli/stim_20210407_power2amp/equal_lnn_AM4.2Hz_24.m4a,,,
,,,,,36091,2021-05-01_20h39.51.197,judgeSpeechMusic_20210407_logNormShiftAmp,2020.1.2,MacIntel,60,,,,,,,,,,,,,,,,,,,,,,,,,,1,24.323,,0,1,136,286,113,1,stimuli/stim_20210407_power2amp/equal_lnn_AM4.8Hz_63.m4a,,,
,,,,,36091,2021-05-01_20h39.51.197,judgeSpeechMusic_20210407_logNormShiftAmp,2020.1.2,MacIntel,60,,,,,,,,,,,,,,,,,,,,,,,,,,1,8.97575,,0,1,137,287,116,1,stimuli/stim_20210407_power2amp/equal_lnn_AM4.8Hz_79.m4a,,,
,,,,,36091,2021-05-01_20h39.51.197,judgeSpeechMusic_20210407_logNormShiftAmp,2020.1.2,MacIntel,60,,,,,,,,,,,,,,,,,,,,,,,,,,1,10.57155,,0,1,138,288,103,1,stimuli/stim_20210407_power2amp/equal_lnn_AM4.2Hz_83.m4a,,,
,,,,,36091,2021-05-01_20h39.51.197,judgeSpeechMusic_20210407_logNormShiftAmp,2020.1.2,MacIntel,60,,,,,,,,,,,,,,,,,,,,,,,,,,1,12.3592,,0,1,139,289,130,1,stimuli/stim_20210407_power2amp/equal_lnn_AM5.4Hz_86.m4a,,,
,,,,,36091,2021-05-01_20h39.51.197,judgeSpeechMusic_20210407_logNormShiftAmp,2020.1.2,MacIntel,60,,,,,,,,,,,,,,,,,,,,,,,,,,2,7.41421,,0,1,140,290,68,1,stimuli/stim_20210407_power2amp/equal_lnn_AM3Hz_46.m4a,,,
,,,,,36091,2021-05-01_20h39.51.197,judgeSpeechMusic_20210407_logNormShiftAmp,2020.1.2,MacIntel,60,,,,,,,,,,,,,,,,,,,,,,,,,,1,9.441545,,0,1,141,291,30,1,stimuli/stim_20210407_power2amp/equal_lnn_AM1.8Hz_82.m4a,,,
,,,,,36091,2021-05-01_20h39.51.197,judgeSpeechMusic_20210407_logNormShiftAmp,2020.1.2,MacIntel,60,,,,,,,,,,,,,,,,,,,,,,,,,,2,10.44601,,0,1,142,292,75,1,stimuli/stim_20210407_power2amp/equal_lnn_AM3.6Hz_97.m4a,,,
,,,,,36091,2021-05-01_20h39.51.197,judgeSpeechMusic_20210407_logNormShiftAmp,2020.1.2,MacIntel,60,,,,,,,,,,,,,,,,,,,,,,,,,,1,11.1597,,0,1,143,293,20,1,stimuli/stim_20210407_power2amp/equal_lnn_AM1.2Hz_62.m4a,,,
,,,,,36091,2021-05-01_20h39.51.197,judgeSpeechMusic_20210407_logNormShiftAmp,2020.1.2,MacIntel,60,,,,,,,,,,,,,,,,,,,,,,,,,,1,14.341405,,0,1,144,294,16,1,stimuli/stim_20210407_power2amp/equal_lnn_AM1.2Hz_21.m4a,,,
,,,,,36091,2021-05-01_20h39.51.197,judgeSpeechMusic_20210407_logNormShiftAmp,2020.1.2,MacIntel,60,,,,,,,,,,,,,,,,,,,,,,,,,,2,9.539585,,0,1,145,295,119,1,stimuli/stim_20210407_power2amp/equal_lnn_AM4.8Hz_61.m4a,,,
,,,,,36091,2021-05-01_20h39.51.197,judgeSpeechMusic_20210407_logNormShiftAmp,2020.1.2,MacIntel,60,,,,,,,,,,,,,,,,,,,,,,,,,,2,13.94313,,0,1,146,296,53,1,stimuli/stim_20210407_power2amp/equal_lnn_AM2.4Hz_16.m4a,,,
,,,,,36091,2021-05-01_20h39.51.197,judgeSpeechMusic_20210407_logNormShiftAmp,2020.1.2,MacIntel,60,,,,,,,,,,,,,,,,,,,,,,,,,,1,12.502945,,0,1,147,297,135,1,stimuli/stim_20210407_power2amp/equal_lnn_AM6Hz_95.m4a,,,
,,,,,36091,2021-05-01_20h39.51.197,judgeSpeechMusic_20210407_logNormShiftAmp,2020.1.2,MacIntel,60,,,,,,,,,,,,,,,,,,,,,,,,,,1,9.37661,,0,1,148,298,82,1,stimuli/stim_20210407_power2amp/equal_lnn_AM3.6Hz_5.m4a,,,
,,,,,36091,2021-05-01_20h39.51.197,judgeSpeechMusic_20210407_logNormShiftAmp,2020.1.2,MacIntel,60,,,,,,,,,,,,,,,,,,,,,,,,,,2,9.8949,,0,1,149,299,57,1,stimuli/stim_20210407_power2amp/equal_lnn_AM2.4Hz_15.m4a,,,
,,,,,36091,2021-05-01_20h39.51.197,judgeSpeechMusic_20210407_logNormShiftAmp,2020.1.2,MacIntel,60,,,,,,,,,,,,,,,,,,,,,,,,,,,,,,,,,,,,,space,4.57269
