headphoneResponse.keys,headphoneResponse.corr,headphoneResponse.rt,headphoneTrial.thisRepN,headphoneTrial.thisTrialN,headphoneTrial.thisN,headphoneTrial.thisIndex,headphoneTrial.ran,headphone_sound1,headphone_sound2,headphone_sound3,corrAns,participant,date,expName,psychopyVersion,OS,frameRate,trainSlider.response,trainSlider.rt,beepTrainResponse.keys,beepTrainResponse.corr,trainingTrials.thisRepN,trainingTrials.thisTrialN,trainingTrials.thisN,trainingTrials.thisIndex,trainingTrials.ran,trainAudioFile,beepTrainResponse.rt,readyReal_resp.keys,readyReal_resp.rt,ratingSlider.response,ratingSlider.rt,beepResp.keys,beepResp.corr,expTrials.thisRepN,expTrials.thisTrialN,expTrials.thisN,expTrials.thisIndex,expTrials.ran,audioFile,beepResp.rt,end_resp.keys,end_resp.rt
3,1,4.088345,0,0,0,0,1,stimuli/screen_antiphase.wav,stimuli/screen_origin.wav,stimuli/screen_quiet.wav,3,36253,2021-05-01_02h27.20.620,judgeSpeechMusic_20210407_logNormShiftAmp,2020.1.2,Win32,60,,,,,,,,,,,,,,,,,,,,,,,,,,
3,1,1.569505,0,1,1,2,1,stimuli/screen_origin.wav,stimuli/screen_antiphase.wav,stimuli/screen_quiet.wav,3,36253,2021-05-01_02h27.20.620,judgeSpeechMusic_20210407_logNormShiftAmp,2020.1.2,Win32,60,,,,,,,,,,,,,,,,,,,,,,,,,,
1,1,0.705825,0,2,2,4,1,stimuli/screen_quiet.wav,stimuli/screen_antiphase.wav,stimuli/screen_origin.wav,1,36253,2021-05-01_02h27.20.620,judgeSpeechMusic_20210407_logNormShiftAmp,2020.1.2,Win32,60,,,,,,,,,,,,,,,,,,,,,,,,,,
2,1,0.353005,0,3,3,1,1,stimuli/screen_antiphase.wav,stimuli/screen_quiet.wav,stimuli/screen_origin.wav,2,36253,2021-05-01_02h27.20.620,judgeSpeechMusic_20210407_logNormShiftAmp,2020.1.2,Win32,60,,,,,,,,,,,,,,,,,,,,,,,,,,
1,1,0.769625,0,4,4,5,1,stimuli/screen_quiet.wav,stimuli/screen_origin.wav,stimuli/screen_antiphase.wav,1,36253,2021-05-01_02h27.20.620,judgeSpeechMusic_20210407_logNormShiftAmp,2020.1.2,Win32,60,,,,,,,,,,,,,,,,,,,,,,,,,,
2,1,1.8913,0,5,5,3,1,stimuli/screen_origin.wav,stimuli/screen_quiet.wav,stimuli/screen_antiphase.wav,2,36253,2021-05-01_02h27.20.620,judgeSpeechMusic_20210407_logNormShiftAmp,2020.1.2,Win32,60,,,,,,,,,,,,,,,,,,,,,,,,,,
,,,,,,,,,,,,36253,2021-05-01_02h27.20.620,judgeSpeechMusic_20210407_logNormShiftAmp,2020.1.2,Win32,60,2,11.518155,,0,0,0,0,3,1,stimuli/stim_20210407_power2amp/equal_lnn_AM_training5.1Hz.m4a,,,,,,,,,,,,,,,,
,,,,,,,,,,,,36253,2021-05-01_02h27.20.620,judgeSpeechMusic_20210407_logNormShiftAmp,2020.1.2,Win32,60,1,6.50228,,0,0,1,1,0,1,stimuli/stim_20210407_power2amp/equal_lnn_AM_training1.5Hz.m4a,,,,,,,,,,,,,,,,
,,,,,,,,,,,,36253,2021-05-01_02h27.20.620,judgeSpeechMusic_20210407_logNormShiftAmp,2020.1.2,Win32,60,1,8.78848,3,1,0,2,2,2,1,stimuli/stim_20210407_power2amp/equal_lnn_AM_training3.9Hz.m4a,3.301535,,,,,,,,,,,,,,,
,,,,,,,,,,,,36253,2021-05-01_02h27.20.620,judgeSpeechMusic_20210407_logNormShiftAmp,2020.1.2,Win32,60,1,10.17731,,0,0,3,3,1,1,stimuli/stim_20210407_power2amp/equal_lnn_AM_training2.7Hz.m4a,,,,,,,,,,,,,,,,
,,,,,,,,,,,,36253,2021-05-01_02h27.20.620,judgeSpeechMusic_20210407_logNormShiftAmp,2020.1.2,Win32,60,,,,,,,,,,,,space,5.6051,2,8.739235,,0,0,0,0,147,1,stimuli/stim_20210407_power2amp/equal_lnn_AM6Hz_49.m4a,,,
,,,,,,,,,,,,36253,2021-05-01_02h27.20.620,judgeSpeechMusic_20210407_logNormShiftAmp,2020.1.2,Win32,60,,,,,,,,,,,,,,1,14.065755,,0,0,1,1,84,1,stimuli/stim_20210407_power2amp/equal_lnn_AM3.6Hz_28.m4a,,,
,,,,,,,,,,,,36253,2021-05-01_02h27.20.620,judgeSpeechMusic_20210407_logNormShiftAmp,2020.1.2,Win32,60,,,,,,,,,,,,,,1,20.79381,,0,0,2,2,6,1,stimuli/stim_20210407_power2amp/equal_lnn_AM0.6Hz_89.m4a,,,
,,,,,,,,,,,,36253,2021-05-01_02h27.20.620,judgeSpeechMusic_20210407_logNormShiftAmp,2020.1.2,Win32,60,,,,,,,,,,,,,,1,28.8546,,0,0,3,3,32,1,stimuli/stim_20210407_power2amp/equal_lnn_AM1.8Hz_22.m4a,,,
,,,,,,,,,,,,36253,2021-05-01_02h27.20.620,judgeSpeechMusic_20210407_logNormShiftAmp,2020.1.2,Win32,60,,,,,,,,,,,,,,2,7.217865,,0,0,4,4,30,1,stimuli/stim_20210407_power2amp/equal_lnn_AM1.8Hz_66.m4a,,,
,,,,,,,,,,,,36253,2021-05-01_02h27.20.620,judgeSpeechMusic_20210407_logNormShiftAmp,2020.1.2,Win32,60,,,,,,,,,,,,,,1,7.05518,,0,0,5,5,90,1,stimuli/stim_20210407_power2amp/equal_lnn_AM4.2Hz_32.m4a,,,
,,,,,,,,,,,,36253,2021-05-01_02h27.20.620,judgeSpeechMusic_20210407_logNormShiftAmp,2020.1.2,Win32,60,,,,,,,,,,,,,,1,10.01256,,0,0,6,6,57,1,stimuli/stim_20210407_power2amp/equal_lnn_AM2.4Hz_28.m4a,,,
,,,,,,,,,,,,36253,2021-05-01_02h27.20.620,judgeSpeechMusic_20210407_logNormShiftAmp,2020.1.2,Win32,60,,,,,,,,,,,,,,1,8.98325,,0,0,7,7,11,1,stimuli/stim_20210407_power2amp/equal_lnn_AM0.6Hz_22.m4a,,,
,,,,,,,,,,,,36253,2021-05-01_02h27.20.620,judgeSpeechMusic_20210407_logNormShiftAmp,2020.1.2,Win32,60,,,,,,,,,,,,,,1,15.323605,,0,0,8,8,59,1,stimuli/stim_20210407_power2amp/equal_lnn_AM2.4Hz_79.m4a,,,
,,,,,,,,,,,,36253,2021-05-01_02h27.20.620,judgeSpeechMusic_20210407_logNormShiftAmp,2020.1.2,Win32,60,,,,,,,,,,,,,,1,7.504345,,0,0,9,9,120,1,stimuli/stim_20210407_power2amp/equal_lnn_AM5.4Hz_43.m4a,,,
,,,,,,,,,,,,36253,2021-05-01_02h27.20.620,judgeSpeechMusic_20210407_logNormShiftAmp,2020.1.2,Win32,60,,,,,,,,,,,,,,2,6.56569,,0,0,10,10,116,1,stimuli/stim_20210407_power2amp/equal_lnn_AM4.8Hz_97.m4a,,,
,,,,,,,,,,,,36253,2021-05-01_02h27.20.620,judgeSpeechMusic_20210407_logNormShiftAmp,2020.1.2,Win32,60,,,,,,,,,,,,,,1,7.47905,,0,0,11,11,12,1,stimuli/stim_20210407_power2amp/equal_lnn_AM0.6Hz_43.m4a,,,
,,,,,,,,,,,,36253,2021-05-01_02h27.20.620,judgeSpeechMusic_20210407_logNormShiftAmp,2020.1.2,Win32,60,,,,,,,,,,,,,,2,6.13127,,0,0,12,12,44,1,stimuli/stim_20210407_power2amp/equal_lnn_AM1.8Hz_47.m4a,,,
,,,,,,,,,,,,36253,2021-05-01_02h27.20.620,judgeSpeechMusic_20210407_logNormShiftAmp,2020.1.2,Win32,60,,,,,,,,,,,,,,2,7.631495,,0,0,13,13,50,1,stimuli/stim_20210407_power2amp/equal_lnn_AM2.4Hz_73.m4a,,,
,,,,,,,,,,,,36253,2021-05-01_02h27.20.620,judgeSpeechMusic_20210407_logNormShiftAmp,2020.1.2,Win32,60,,,,,,,,,,,,,,2,6.11487,,0,0,14,14,72,1,stimuli/stim_20210407_power2amp/equal_lnn_AM3Hz_51.m4a,,,
,,,,,,,,,,,,36253,2021-05-01_02h27.20.620,judgeSpeechMusic_20210407_logNormShiftAmp,2020.1.2,Win32,60,,,,,,,,,,,,,,1,6.14194,,0,0,15,15,22,1,stimuli/stim_20210407_power2amp/equal_lnn_AM1.2Hz_48.m4a,,,
,,,,,,,,,,,,36253,2021-05-01_02h27.20.620,judgeSpeechMusic_20210407_logNormShiftAmp,2020.1.2,Win32,60,,,,,,,,,,,,,,1,7.04867,,0,0,16,16,88,1,stimuli/stim_20210407_power2amp/equal_lnn_AM3.6Hz_24.m4a,,,
,,,,,,,,,,,,36253,2021-05-01_02h27.20.620,judgeSpeechMusic_20210407_logNormShiftAmp,2020.1.2,Win32,60,,,,,,,,,,,,,,1,6.24958,,0,0,17,17,3,1,stimuli/stim_20210407_power2amp/equal_lnn_AM0.6Hz_9.m4a,,,
,,,,,,,,,,,,36253,2021-05-01_02h27.20.620,judgeSpeechMusic_20210407_logNormShiftAmp,2020.1.2,Win32,60,,,,,,,,,,,,,,2,5.826135,,0,0,18,18,74,1,stimuli/stim_20210407_power2amp/equal_lnn_AM3Hz_81.m4a,,,
,,,,,,,,,,,,36253,2021-05-01_02h27.20.620,judgeSpeechMusic_20210407_logNormShiftAmp,2020.1.2,Win32,60,,,,,,,,,,,,,,2,6.06093,,0,0,19,19,93,1,stimuli/stim_20210407_power2amp/equal_lnn_AM4.2Hz_22.m4a,,,
,,,,,,,,,,,,36253,2021-05-01_02h27.20.620,judgeSpeechMusic_20210407_logNormShiftAmp,2020.1.2,Win32,60,,,,,,,,,,,,,,2,5.838535,,0,0,20,20,37,1,stimuli/stim_20210407_power2amp/equal_lnn_AM1.8Hz_45.m4a,,,
,,,,,,,,,,,,36253,2021-05-01_02h27.20.620,judgeSpeechMusic_20210407_logNormShiftAmp,2020.1.2,Win32,60,,,,,,,,,,,,,,2,5.81881,,0,0,21,21,100,1,stimuli/stim_20210407_power2amp/equal_lnn_AM4.2Hz_17.m4a,,,
,,,,,,,,,,,,36253,2021-05-01_02h27.20.620,judgeSpeechMusic_20210407_logNormShiftAmp,2020.1.2,Win32,60,,,,,,,,,,,,,,2,6.83225,,0,0,22,22,61,1,stimuli/stim_20210407_power2amp/equal_lnn_AM3Hz_7.m4a,,,
,,,,,,,,,,,,36253,2021-05-01_02h27.20.620,judgeSpeechMusic_20210407_logNormShiftAmp,2020.1.2,Win32,60,,,,,,,,,,,,,,2,6.095415,,0,0,23,23,102,1,stimuli/stim_20210407_power2amp/equal_lnn_AM4.2Hz_31.m4a,,,
,,,,,,,,,,,,36253,2021-05-01_02h27.20.620,judgeSpeechMusic_20210407_logNormShiftAmp,2020.1.2,Win32,60,,,,,,,,,,,,,,1,6.03837,,0,0,24,24,85,1,stimuli/stim_20210407_power2amp/equal_lnn_AM3.6Hz_53.m4a,,,
,,,,,,,,,,,,36253,2021-05-01_02h27.20.620,judgeSpeechMusic_20210407_logNormShiftAmp,2020.1.2,Win32,60,,,,,,,,,,,,,,1,5.846695,,0,0,25,25,10,1,stimuli/stim_20210407_power2amp/equal_lnn_AM0.6Hz_97.m4a,,,
,,,,,,,,,,,,36253,2021-05-01_02h27.20.620,judgeSpeechMusic_20210407_logNormShiftAmp,2020.1.2,Win32,60,,,,,,,,,,,,,,1,5.77809,,0,0,26,26,13,1,stimuli/stim_20210407_power2amp/equal_lnn_AM0.6Hz_100.m4a,,,
,,,,,,,,,,,,36253,2021-05-01_02h27.20.620,judgeSpeechMusic_20210407_logNormShiftAmp,2020.1.2,Win32,60,,,,,,,,,,,,,,1,7.54044,,0,0,27,27,20,1,stimuli/stim_20210407_power2amp/equal_lnn_AM1.2Hz_69.m4a,,,
,,,,,,,,,,,,36253,2021-05-01_02h27.20.620,judgeSpeechMusic_20210407_logNormShiftAmp,2020.1.2,Win32,60,,,,,,,,,,,,,,2,6.702925,,0,0,28,28,101,1,stimuli/stim_20210407_power2amp/equal_lnn_AM4.2Hz_77.m4a,,,
,,,,,,,,,,,,36253,2021-05-01_02h27.20.620,judgeSpeechMusic_20210407_logNormShiftAmp,2020.1.2,Win32,60,,,,,,,,,,,,,,1,8.07714,,0,0,29,29,141,1,stimuli/stim_20210407_power2amp/equal_lnn_AM6Hz_22.m4a,,,
,,,,,,,,,,,,36253,2021-05-01_02h27.20.620,judgeSpeechMusic_20210407_logNormShiftAmp,2020.1.2,Win32,60,,,,,,,,,,,,,,1,7.6556,,0,0,30,30,9,1,stimuli/stim_20210407_power2amp/equal_lnn_AM0.6Hz_36.m4a,,,
,,,,,,,,,,,,36253,2021-05-01_02h27.20.620,judgeSpeechMusic_20210407_logNormShiftAmp,2020.1.2,Win32,60,,,,,,,,,,,,,,2,6.13119,,0,0,31,31,124,1,stimuli/stim_20210407_power2amp/equal_lnn_AM5.4Hz_96.m4a,,,
,,,,,,,,,,,,36253,2021-05-01_02h27.20.620,judgeSpeechMusic_20210407_logNormShiftAmp,2020.1.2,Win32,60,,,,,,,,,,,,,,1,5.799315,,0,0,32,32,5,1,stimuli/stim_20210407_power2amp/equal_lnn_AM0.6Hz_82.m4a,,,
,,,,,,,,,,,,36253,2021-05-01_02h27.20.620,judgeSpeechMusic_20210407_logNormShiftAmp,2020.1.2,Win32,60,,,,,,,,,,,,,,1,6.167415,,0,0,33,33,136,1,stimuli/stim_20210407_power2amp/equal_lnn_AM6Hz_42.m4a,,,
,,,,,,,,,,,,36253,2021-05-01_02h27.20.620,judgeSpeechMusic_20210407_logNormShiftAmp,2020.1.2,Win32,60,,,,,,,,,,,,,,1,6.188315,,0,0,34,34,39,1,stimuli/stim_20210407_power2amp/equal_lnn_AM1.8Hz_87.m4a,,,
,,,,,,,,,,,,36253,2021-05-01_02h27.20.620,judgeSpeechMusic_20210407_logNormShiftAmp,2020.1.2,Win32,60,,,,,,,,,,,,,,2,6.08598,,0,0,35,35,114,1,stimuli/stim_20210407_power2amp/equal_lnn_AM4.8Hz_70.m4a,,,
,,,,,,,,,,,,36253,2021-05-01_02h27.20.620,judgeSpeechMusic_20210407_logNormShiftAmp,2020.1.2,Win32,60,,,,,,,,,,,,,,2,6.2353,2,1,0,36,36,98,1,stimuli/stim_20210407_power2amp/equal_lnn_AM4.2Hz_26.m4a,3.299885,,
,,,,,,,,,,,,36253,2021-05-01_02h27.20.620,judgeSpeechMusic_20210407_logNormShiftAmp,2020.1.2,Win32,60,,,,,,,,,,,,,,1,6.370915,,0,0,37,37,0,1,stimuli/stim_20210407_power2amp/equal_lnn_AM0.6Hz_26.m4a,,,
,,,,,,,,,,,,36253,2021-05-01_02h27.20.620,judgeSpeechMusic_20210407_logNormShiftAmp,2020.1.2,Win32,60,,,,,,,,,,,,,,1,5.819725,,0,0,38,38,34,1,stimuli/stim_20210407_power2amp/equal_lnn_AM1.8Hz_60.m4a,,,
,,,,,,,,,,,,36253,2021-05-01_02h27.20.620,judgeSpeechMusic_20210407_logNormShiftAmp,2020.1.2,Win32,60,,,,,,,,,,,,,,1,6.498325,,0,0,39,39,111,1,stimuli/stim_20210407_power2amp/equal_lnn_AM4.8Hz_61.m4a,,,
,,,,,,,,,,,,36253,2021-05-01_02h27.20.620,judgeSpeechMusic_20210407_logNormShiftAmp,2020.1.2,Win32,60,,,,,,,,,,,,,,2,5.98066,,0,0,40,40,49,1,stimuli/stim_20210407_power2amp/equal_lnn_AM2.4Hz_20.m4a,,,
,,,,,,,,,,,,36253,2021-05-01_02h27.20.620,judgeSpeechMusic_20210407_logNormShiftAmp,2020.1.2,Win32,60,,,,,,,,,,,,,,2,6.549485,,0,0,41,41,36,1,stimuli/stim_20210407_power2amp/equal_lnn_AM1.8Hz_89.m4a,,,
,,,,,,,,,,,,36253,2021-05-01_02h27.20.620,judgeSpeechMusic_20210407_logNormShiftAmp,2020.1.2,Win32,60,,,,,,,,,,,,,,1,7.64363,,0,0,42,42,15,1,stimuli/stim_20210407_power2amp/equal_lnn_AM1.2Hz_55.m4a,,,
,,,,,,,,,,,,36253,2021-05-01_02h27.20.620,judgeSpeechMusic_20210407_logNormShiftAmp,2020.1.2,Win32,60,,,,,,,,,,,,,,2,6.01656,,0,0,43,43,71,1,stimuli/stim_20210407_power2amp/equal_lnn_AM3Hz_4.m4a,,,
,,,,,,,,,,,,36253,2021-05-01_02h27.20.620,judgeSpeechMusic_20210407_logNormShiftAmp,2020.1.2,Win32,60,,,,,,,,,,,,,,1,6.149215,,0,0,44,44,138,1,stimuli/stim_20210407_power2amp/equal_lnn_AM6Hz_97.m4a,,,
,,,,,,,,,,,,36253,2021-05-01_02h27.20.620,judgeSpeechMusic_20210407_logNormShiftAmp,2020.1.2,Win32,60,,,,,,,,,,,,,,1,7.026505,,0,0,45,45,78,1,stimuli/stim_20210407_power2amp/equal_lnn_AM3.6Hz_31.m4a,,,
,,,,,,,,,,,,36253,2021-05-01_02h27.20.620,judgeSpeechMusic_20210407_logNormShiftAmp,2020.1.2,Win32,60,,,,,,,,,,,,,,2,5.881825,,0,0,46,46,96,1,stimuli/stim_20210407_power2amp/equal_lnn_AM4.2Hz_78.m4a,,,
,,,,,,,,,,,,36253,2021-05-01_02h27.20.620,judgeSpeechMusic_20210407_logNormShiftAmp,2020.1.2,Win32,60,,,,,,,,,,,,,,1,5.834925,,0,0,47,47,24,1,stimuli/stim_20210407_power2amp/equal_lnn_AM1.2Hz_23.m4a,,,
,,,,,,,,,,,,36253,2021-05-01_02h27.20.620,judgeSpeechMusic_20210407_logNormShiftAmp,2020.1.2,Win32,60,,,,,,,,,,,,,,2,6.065445,,0,0,48,48,133,1,stimuli/stim_20210407_power2amp/equal_lnn_AM5.4Hz_40.m4a,,,
,,,,,,,,,,,,36253,2021-05-01_02h27.20.620,judgeSpeechMusic_20210407_logNormShiftAmp,2020.1.2,Win32,60,,,,,,,,,,,,,,1,7.144675,,0,0,49,49,149,1,stimuli/stim_20210407_power2amp/equal_lnn_AM6Hz_21.m4a,,,
,,,,,,,,,,,,36253,2021-05-01_02h27.20.620,judgeSpeechMusic_20210407_logNormShiftAmp,2020.1.2,Win32,60,,,,,,,,,,,,,,1,8.355005,,0,0,50,50,51,1,stimuli/stim_20210407_power2amp/equal_lnn_AM2.4Hz_72.m4a,,,
,,,,,,,,,,,,36253,2021-05-01_02h27.20.620,judgeSpeechMusic_20210407_logNormShiftAmp,2020.1.2,Win32,60,,,,,,,,,,,,,,1,5.701825,,0,0,51,51,23,1,stimuli/stim_20210407_power2amp/equal_lnn_AM1.2Hz_50.m4a,,,
,,,,,,,,,,,,36253,2021-05-01_02h27.20.620,judgeSpeechMusic_20210407_logNormShiftAmp,2020.1.2,Win32,60,,,,,,,,,,,,,,1,5.691355,,0,0,52,52,7,1,stimuli/stim_20210407_power2amp/equal_lnn_AM0.6Hz_85.m4a,,,
,,,,,,,,,,,,36253,2021-05-01_02h27.20.620,judgeSpeechMusic_20210407_logNormShiftAmp,2020.1.2,Win32,60,,,,,,,,,,,,,,2,6.21205,,0,0,53,53,109,1,stimuli/stim_20210407_power2amp/equal_lnn_AM4.8Hz_82.m4a,,,
,,,,,,,,,,,,36253,2021-05-01_02h27.20.620,judgeSpeechMusic_20210407_logNormShiftAmp,2020.1.2,Win32,60,,,,,,,,,,,,,,2,5.683695,,0,0,54,54,106,1,stimuli/stim_20210407_power2amp/equal_lnn_AM4.8Hz_12.m4a,,,
,,,,,,,,,,,,36253,2021-05-01_02h27.20.620,judgeSpeechMusic_20210407_logNormShiftAmp,2020.1.2,Win32,60,,,,,,,,,,,,,,2,5.800325,,0,0,55,55,83,1,stimuli/stim_20210407_power2amp/equal_lnn_AM3.6Hz_4.m4a,,,
,,,,,,,,,,,,36253,2021-05-01_02h27.20.620,judgeSpeechMusic_20210407_logNormShiftAmp,2020.1.2,Win32,60,,,,,,,,,,,,,,1,6.40557,,0,0,56,56,73,1,stimuli/stim_20210407_power2amp/equal_lnn_AM3Hz_99.m4a,,,
,,,,,,,,,,,,36253,2021-05-01_02h27.20.620,judgeSpeechMusic_20210407_logNormShiftAmp,2020.1.2,Win32,60,,,,,,,,,,,,,,1,6.769905,,0,0,57,57,64,1,stimuli/stim_20210407_power2amp/equal_lnn_AM3Hz_10.m4a,,,
,,,,,,,,,,,,36253,2021-05-01_02h27.20.620,judgeSpeechMusic_20210407_logNormShiftAmp,2020.1.2,Win32,60,,,,,,,,,,,,,,1,5.87875,,0,0,58,58,67,1,stimuli/stim_20210407_power2amp/equal_lnn_AM3Hz_56.m4a,,,
,,,,,,,,,,,,36253,2021-05-01_02h27.20.620,judgeSpeechMusic_20210407_logNormShiftAmp,2020.1.2,Win32,60,,,,,,,,,,,,,,1,8.01005,2,1,0,59,59,70,1,stimuli/stim_20210407_power2amp/equal_lnn_AM3Hz_54.m4a,0.95915,,
,,,,,,,,,,,,36253,2021-05-01_02h27.20.620,judgeSpeechMusic_20210407_logNormShiftAmp,2020.1.2,Win32,60,,,,,,,,,,,,,,1,6.11612,,0,0,60,60,92,1,stimuli/stim_20210407_power2amp/equal_lnn_AM4.2Hz_93.m4a,,,
,,,,,,,,,,,,36253,2021-05-01_02h27.20.620,judgeSpeechMusic_20210407_logNormShiftAmp,2020.1.2,Win32,60,,,,,,,,,,,,,,2,6.153415,,0,0,61,61,86,1,stimuli/stim_20210407_power2amp/equal_lnn_AM3.6Hz_26.m4a,,,
,,,,,,,,,,,,36253,2021-05-01_02h27.20.620,judgeSpeechMusic_20210407_logNormShiftAmp,2020.1.2,Win32,60,,,,,,,,,,,,,,2,5.815375,,0,0,62,62,53,1,stimuli/stim_20210407_power2amp/equal_lnn_AM2.4Hz_7.m4a,,,
,,,,,,,,,,,,36253,2021-05-01_02h27.20.620,judgeSpeechMusic_20210407_logNormShiftAmp,2020.1.2,Win32,60,,,,,,,,,,,,,,2,6.14745,,0,0,63,63,139,1,stimuli/stim_20210407_power2amp/equal_lnn_AM6Hz_99.m4a,,,
,,,,,,,,,,,,36253,2021-05-01_02h27.20.620,judgeSpeechMusic_20210407_logNormShiftAmp,2020.1.2,Win32,60,,,,,,,,,,,,,,1,5.86942,,0,0,64,64,45,1,stimuli/stim_20210407_power2amp/equal_lnn_AM2.4Hz_34.m4a,,,
,,,,,,,,,,,,36253,2021-05-01_02h27.20.620,judgeSpeechMusic_20210407_logNormShiftAmp,2020.1.2,Win32,60,,,,,,,,,,,,,,1,5.624325,,0,0,65,65,129,1,stimuli/stim_20210407_power2amp/equal_lnn_AM5.4Hz_14.m4a,,,
,,,,,,,,,,,,36253,2021-05-01_02h27.20.620,judgeSpeechMusic_20210407_logNormShiftAmp,2020.1.2,Win32,60,,,,,,,,,,,,,,1,5.693015,,0,0,66,66,107,1,stimuli/stim_20210407_power2amp/equal_lnn_AM4.8Hz_85.m4a,,,
,,,,,,,,,,,,36253,2021-05-01_02h27.20.620,judgeSpeechMusic_20210407_logNormShiftAmp,2020.1.2,Win32,60,,,,,,,,,,,,,,2,5.900145,,0,0,67,67,118,1,stimuli/stim_20210407_power2amp/equal_lnn_AM4.8Hz_51.m4a,,,
,,,,,,,,,,,,36253,2021-05-01_02h27.20.620,judgeSpeechMusic_20210407_logNormShiftAmp,2020.1.2,Win32,60,,,,,,,,,,,,,,1,5.740865,,0,0,68,68,38,1,stimuli/stim_20210407_power2amp/equal_lnn_AM1.8Hz_28.m4a,,,
,,,,,,,,,,,,36253,2021-05-01_02h27.20.620,judgeSpeechMusic_20210407_logNormShiftAmp,2020.1.2,Win32,60,,,,,,,,,,,,,,1,5.78211,,0,0,69,69,31,1,stimuli/stim_20210407_power2amp/equal_lnn_AM1.8Hz_37.m4a,,,
,,,,,,,,,,,,36253,2021-05-01_02h27.20.620,judgeSpeechMusic_20210407_logNormShiftAmp,2020.1.2,Win32,60,,,,,,,,,,,,,,1,6.050285,,0,0,70,70,131,1,stimuli/stim_20210407_power2amp/equal_lnn_AM5.4Hz_74.m4a,,,
,,,,,,,,,,,,36253,2021-05-01_02h27.20.620,judgeSpeechMusic_20210407_logNormShiftAmp,2020.1.2,Win32,60,,,,,,,,,,,,,,1,5.787025,,0,0,71,71,21,1,stimuli/stim_20210407_power2amp/equal_lnn_AM1.2Hz_58.m4a,,,
,,,,,,,,,,,,36253,2021-05-01_02h27.20.620,judgeSpeechMusic_20210407_logNormShiftAmp,2020.1.2,Win32,60,,,,,,,,,,,,,,2,9.134785,,0,0,72,72,68,1,stimuli/stim_20210407_power2amp/equal_lnn_AM3Hz_1.m4a,,,
,,,,,,,,,,,,36253,2021-05-01_02h27.20.620,judgeSpeechMusic_20210407_logNormShiftAmp,2020.1.2,Win32,60,,,,,,,,,,,,,,1,5.64954,,0,0,73,73,55,1,stimuli/stim_20210407_power2amp/equal_lnn_AM2.4Hz_32.m4a,,,
,,,,,,,,,,,,36253,2021-05-01_02h27.20.620,judgeSpeechMusic_20210407_logNormShiftAmp,2020.1.2,Win32,60,,,,,,,,,,,,,,1,5.61526,,0,0,74,74,112,1,stimuli/stim_20210407_power2amp/equal_lnn_AM4.8Hz_4.m4a,,,
,,,,,,,,,,,,36253,2021-05-01_02h27.20.620,judgeSpeechMusic_20210407_logNormShiftAmp,2020.1.2,Win32,60,,,,,,,,,,,,,,2,5.66685,,0,0,75,75,134,1,stimuli/stim_20210407_power2amp/equal_lnn_AM5.4Hz_17.m4a,,,
,,,,,,,,,,,,36253,2021-05-01_02h27.20.620,judgeSpeechMusic_20210407_logNormShiftAmp,2020.1.2,Win32,60,,,,,,,,,,,,,,2,5.80487,,0,0,76,76,105,1,stimuli/stim_20210407_power2amp/equal_lnn_AM4.8Hz_75.m4a,,,
,,,,,,,,,,,,36253,2021-05-01_02h27.20.620,judgeSpeechMusic_20210407_logNormShiftAmp,2020.1.2,Win32,60,,,,,,,,,,,,,,1,6.16059,,0,0,77,77,115,1,stimuli/stim_20210407_power2amp/equal_lnn_AM4.8Hz_83.m4a,,,
,,,,,,,,,,,,36253,2021-05-01_02h27.20.620,judgeSpeechMusic_20210407_logNormShiftAmp,2020.1.2,Win32,60,,,,,,,,,,,,,,1,7.386585,,0,0,78,78,52,1,stimuli/stim_20210407_power2amp/equal_lnn_AM2.4Hz_83.m4a,,,
,,,,,,,,,,,,36253,2021-05-01_02h27.20.620,judgeSpeechMusic_20210407_logNormShiftAmp,2020.1.2,Win32,60,,,,,,,,,,,,,,2,6.44657,,0,0,79,79,125,1,stimuli/stim_20210407_power2amp/equal_lnn_AM5.4Hz_55.m4a,,,
,,,,,,,,,,,,36253,2021-05-01_02h27.20.620,judgeSpeechMusic_20210407_logNormShiftAmp,2020.1.2,Win32,60,,,,,,,,,,,,,,1,6.113105,,0,0,80,80,41,1,stimuli/stim_20210407_power2amp/equal_lnn_AM1.8Hz_99.m4a,,,
,,,,,,,,,,,,36253,2021-05-01_02h27.20.620,judgeSpeechMusic_20210407_logNormShiftAmp,2020.1.2,Win32,60,,,,,,,,,,,,,,1,5.613995,4,1,0,81,81,27,1,stimuli/stim_20210407_power2amp/equal_lnn_AM1.2Hz_5.m4a,2.7051,,
,,,,,,,,,,,,36253,2021-05-01_02h27.20.620,judgeSpeechMusic_20210407_logNormShiftAmp,2020.1.2,Win32,60,,,,,,,,,,,,,,2,5.768405,,0,0,82,82,137,1,stimuli/stim_20210407_power2amp/equal_lnn_AM6Hz_20.m4a,,,
,,,,,,,,,,,,36253,2021-05-01_02h27.20.620,judgeSpeechMusic_20210407_logNormShiftAmp,2020.1.2,Win32,60,,,,,,,,,,,,,,2,6.570405,,0,0,83,83,94,1,stimuli/stim_20210407_power2amp/equal_lnn_AM4.2Hz_21.m4a,,,
,,,,,,,,,,,,36253,2021-05-01_02h27.20.620,judgeSpeechMusic_20210407_logNormShiftAmp,2020.1.2,Win32,60,,,,,,,,,,,,,,2,5.90066,,0,0,84,84,82,1,stimuli/stim_20210407_power2amp/equal_lnn_AM3.6Hz_69.m4a,,,
,,,,,,,,,,,,36253,2021-05-01_02h27.20.620,judgeSpeechMusic_20210407_logNormShiftAmp,2020.1.2,Win32,60,,,,,,,,,,,,,,1,6.874935,,0,0,85,85,140,1,stimuli/stim_20210407_power2amp/equal_lnn_AM6Hz_1.m4a,,,
,,,,,,,,,,,,36253,2021-05-01_02h27.20.620,judgeSpeechMusic_20210407_logNormShiftAmp,2020.1.2,Win32,60,,,,,,,,,,,,,,1,5.84367,,0,0,86,86,29,1,stimuli/stim_20210407_power2amp/equal_lnn_AM1.2Hz_93.m4a,,,
,,,,,,,,,,,,36253,2021-05-01_02h27.20.620,judgeSpeechMusic_20210407_logNormShiftAmp,2020.1.2,Win32,60,,,,,,,,,,,,,,1,7.36293,,0,0,87,87,126,1,stimuli/stim_20210407_power2amp/equal_lnn_AM5.4Hz_39.m4a,,,
,,,,,,,,,,,,36253,2021-05-01_02h27.20.620,judgeSpeechMusic_20210407_logNormShiftAmp,2020.1.2,Win32,60,,,,,,,,,,,,,,1,6.341745,,0,0,88,88,144,1,stimuli/stim_20210407_power2amp/equal_lnn_AM6Hz_37.m4a,,,
,,,,,,,,,,,,36253,2021-05-01_02h27.20.620,judgeSpeechMusic_20210407_logNormShiftAmp,2020.1.2,Win32,60,,,,,,,,,,,,,,1,5.648005,,0,0,89,89,1,1,stimuli/stim_20210407_power2amp/equal_lnn_AM0.6Hz_50.m4a,,,
,,,,,,,,,,,,36253,2021-05-01_02h27.20.620,judgeSpeechMusic_20210407_logNormShiftAmp,2020.1.2,Win32,60,,,,,,,,,,,,,,2,6.213275,,0,0,90,90,65,1,stimuli/stim_20210407_power2amp/equal_lnn_AM3Hz_95.m4a,,,
,,,,,,,,,,,,36253,2021-05-01_02h27.20.620,judgeSpeechMusic_20210407_logNormShiftAmp,2020.1.2,Win32,60,,,,,,,,,,,,,,2,5.924625,,0,0,91,91,132,1,stimuli/stim_20210407_power2amp/equal_lnn_AM5.4Hz_52.m4a,,,
,,,,,,,,,,,,36253,2021-05-01_02h27.20.620,judgeSpeechMusic_20210407_logNormShiftAmp,2020.1.2,Win32,60,,,,,,,,,,,,,,2,6.914205,,0,0,92,92,75,1,stimuli/stim_20210407_power2amp/equal_lnn_AM3.6Hz_73.m4a,,,
,,,,,,,,,,,,36253,2021-05-01_02h27.20.620,judgeSpeechMusic_20210407_logNormShiftAmp,2020.1.2,Win32,60,,,,,,,,,,,,,,1,5.98624,,0,0,93,93,47,1,stimuli/stim_20210407_power2amp/equal_lnn_AM2.4Hz_45.m4a,,,
,,,,,,,,,,,,36253,2021-05-01_02h27.20.620,judgeSpeechMusic_20210407_logNormShiftAmp,2020.1.2,Win32,60,,,,,,,,,,,,,,1,6.663455,,0,0,94,94,121,1,stimuli/stim_20210407_power2amp/equal_lnn_AM5.4Hz_22.m4a,,,
,,,,,,,,,,,,36253,2021-05-01_02h27.20.620,judgeSpeechMusic_20210407_logNormShiftAmp,2020.1.2,Win32,60,,,,,,,,,,,,,,2,6.60124,,0,0,95,95,17,1,stimuli/stim_20210407_power2amp/equal_lnn_AM1.2Hz_57.m4a,,,
,,,,,,,,,,,,36253,2021-05-01_02h27.20.620,judgeSpeechMusic_20210407_logNormShiftAmp,2020.1.2,Win32,60,,,,,,,,,,,,,,1,7.35048,,0,0,96,96,19,1,stimuli/stim_20210407_power2amp/equal_lnn_AM1.2Hz_63.m4a,,,
,,,,,,,,,,,,36253,2021-05-01_02h27.20.620,judgeSpeechMusic_20210407_logNormShiftAmp,2020.1.2,Win32,60,,,,,,,,,,,,,,1,5.9783,,0,0,97,97,108,1,stimuli/stim_20210407_power2amp/equal_lnn_AM4.8Hz_50.m4a,,,
,,,,,,,,,,,,36253,2021-05-01_02h27.20.620,judgeSpeechMusic_20210407_logNormShiftAmp,2020.1.2,Win32,60,,,,,,,,,,,,,,2,6.047065,,0,0,98,98,87,1,stimuli/stim_20210407_power2amp/equal_lnn_AM3.6Hz_88.m4a,,,
,,,,,,,,,,,,36253,2021-05-01_02h27.20.620,judgeSpeechMusic_20210407_logNormShiftAmp,2020.1.2,Win32,60,,,,,,,,,,,,,,1,5.884415,,0,0,99,99,63,1,stimuli/stim_20210407_power2amp/equal_lnn_AM3Hz_93.m4a,,,
,,,,,,,,,,,,36253,2021-05-01_02h27.20.620,judgeSpeechMusic_20210407_logNormShiftAmp,2020.1.2,Win32,60,,,,,,,,,,,,,,1,6.95184,,0,0,100,100,99,1,stimuli/stim_20210407_power2amp/equal_lnn_AM4.2Hz_97.m4a,,,
,,,,,,,,,,,,36253,2021-05-01_02h27.20.620,judgeSpeechMusic_20210407_logNormShiftAmp,2020.1.2,Win32,60,,,,,,,,,,,,,,2,7.646205,,0,0,101,101,110,1,stimuli/stim_20210407_power2amp/equal_lnn_AM4.8Hz_54.m4a,,,
,,,,,,,,,,,,36253,2021-05-01_02h27.20.620,judgeSpeechMusic_20210407_logNormShiftAmp,2020.1.2,Win32,60,,,,,,,,,,,,,,1,5.874325,,0,0,102,102,119,1,stimuli/stim_20210407_power2amp/equal_lnn_AM4.8Hz_63.m4a,,,
,,,,,,,,,,,,36253,2021-05-01_02h27.20.620,judgeSpeechMusic_20210407_logNormShiftAmp,2020.1.2,Win32,60,,,,,,,,,,,,,,2,5.70265,,0,0,103,103,80,1,stimuli/stim_20210407_power2amp/equal_lnn_AM3.6Hz_30.m4a,,,
,,,,,,,,,,,,36253,2021-05-01_02h27.20.620,judgeSpeechMusic_20210407_logNormShiftAmp,2020.1.2,Win32,60,,,,,,,,,,,,,,2,5.630775,,0,0,104,104,81,1,stimuli/stim_20210407_power2amp/equal_lnn_AM3.6Hz_68.m4a,,,
,,,,,,,,,,,,36253,2021-05-01_02h27.20.620,judgeSpeechMusic_20210407_logNormShiftAmp,2020.1.2,Win32,60,,,,,,,,,,,,,,1,5.867095,,0,0,105,105,123,1,stimuli/stim_20210407_power2amp/equal_lnn_AM5.4Hz_1.m4a,,,
,,,,,,,,,,,,36253,2021-05-01_02h27.20.620,judgeSpeechMusic_20210407_logNormShiftAmp,2020.1.2,Win32,60,,,,,,,,,,,,,,1,5.659355,4,0,0,106,106,16,1,stimuli/stim_20210407_power2amp/equal_lnn_AM1.2Hz_80.m4a,1.65767,,
,,,,,,,,,,,,36253,2021-05-01_02h27.20.620,judgeSpeechMusic_20210407_logNormShiftAmp,2020.1.2,Win32,60,,,,,,,,,,,,,,1,6.98156,,0,0,107,107,48,1,stimuli/stim_20210407_power2amp/equal_lnn_AM2.4Hz_50.m4a,,,
,,,,,,,,,,,,36253,2021-05-01_02h27.20.620,judgeSpeechMusic_20210407_logNormShiftAmp,2020.1.2,Win32,60,,,,,,,,,,,,,,2,6.14714,,0,0,108,108,117,1,stimuli/stim_20210407_power2amp/equal_lnn_AM4.8Hz_36.m4a,,,
,,,,,,,,,,,,36253,2021-05-01_02h27.20.620,judgeSpeechMusic_20210407_logNormShiftAmp,2020.1.2,Win32,60,,,,,,,,,,,,,,1,5.909895,,0,0,109,109,89,1,stimuli/stim_20210407_power2amp/equal_lnn_AM3.6Hz_39.m4a,,,
,,,,,,,,,,,,36253,2021-05-01_02h27.20.620,judgeSpeechMusic_20210407_logNormShiftAmp,2020.1.2,Win32,60,,,,,,,,,,,,,,1,5.672325,,0,0,110,110,104,1,stimuli/stim_20210407_power2amp/equal_lnn_AM4.2Hz_58.m4a,,,
,,,,,,,,,,,,36253,2021-05-01_02h27.20.620,judgeSpeechMusic_20210407_logNormShiftAmp,2020.1.2,Win32,60,,,,,,,,,,,,,,1,5.749175,,0,0,111,111,91,1,stimuli/stim_20210407_power2amp/equal_lnn_AM4.2Hz_27.m4a,,,
,,,,,,,,,,,,36253,2021-05-01_02h27.20.620,judgeSpeechMusic_20210407_logNormShiftAmp,2020.1.2,Win32,60,,,,,,,,,,,,,,2,5.637525,,0,0,112,112,66,1,stimuli/stim_20210407_power2amp/equal_lnn_AM3Hz_3.m4a,,,
,,,,,,,,,,,,36253,2021-05-01_02h27.20.620,judgeSpeechMusic_20210407_logNormShiftAmp,2020.1.2,Win32,60,,,,,,,,,,,,,,1,5.832625,,0,0,113,113,145,1,stimuli/stim_20210407_power2amp/equal_lnn_AM6Hz_10.m4a,,,
,,,,,,,,,,,,36253,2021-05-01_02h27.20.620,judgeSpeechMusic_20210407_logNormShiftAmp,2020.1.2,Win32,60,,,,,,,,,,,,,,2,5.637545,,0,0,114,114,127,1,stimuli/stim_20210407_power2amp/equal_lnn_AM5.4Hz_85.m4a,,,
,,,,,,,,,,,,36253,2021-05-01_02h27.20.620,judgeSpeechMusic_20210407_logNormShiftAmp,2020.1.2,Win32,60,,,,,,,,,,,,,,1,5.76626,,0,0,115,115,8,1,stimuli/stim_20210407_power2amp/equal_lnn_AM0.6Hz_28.m4a,,,
,,,,,,,,,,,,36253,2021-05-01_02h27.20.620,judgeSpeechMusic_20210407_logNormShiftAmp,2020.1.2,Win32,60,,,,,,,,,,,,,,2,5.732855,,0,0,116,116,95,1,stimuli/stim_20210407_power2amp/equal_lnn_AM4.2Hz_12.m4a,,,
,,,,,,,,,,,,36253,2021-05-01_02h27.20.620,judgeSpeechMusic_20210407_logNormShiftAmp,2020.1.2,Win32,60,,,,,,,,,,,,,,1,5.649385,,0,0,117,117,62,1,stimuli/stim_20210407_power2amp/equal_lnn_AM3Hz_29.m4a,,,
,,,,,,,,,,,,36253,2021-05-01_02h27.20.620,judgeSpeechMusic_20210407_logNormShiftAmp,2020.1.2,Win32,60,,,,,,,,,,,,,,1,5.61407,,0,0,118,118,35,1,stimuli/stim_20210407_power2amp/equal_lnn_AM1.8Hz_49.m4a,,,
,,,,,,,,,,,,36253,2021-05-01_02h27.20.620,judgeSpeechMusic_20210407_logNormShiftAmp,2020.1.2,Win32,60,,,,,,,,,,,,,,1,5.656455,,0,0,119,119,97,1,stimuli/stim_20210407_power2amp/equal_lnn_AM4.2Hz_89.m4a,,,
,,,,,,,,,,,,36253,2021-05-01_02h27.20.620,judgeSpeechMusic_20210407_logNormShiftAmp,2020.1.2,Win32,60,,,,,,,,,,,,,,1,6.089105,,0,0,120,120,56,1,stimuli/stim_20210407_power2amp/equal_lnn_AM2.4Hz_96.m4a,,,
,,,,,,,,,,,,36253,2021-05-01_02h27.20.620,judgeSpeechMusic_20210407_logNormShiftAmp,2020.1.2,Win32,60,,,,,,,,,,,,,,2,6.309625,,0,0,121,121,135,1,stimuli/stim_20210407_power2amp/equal_lnn_AM6Hz_43.m4a,,,
,,,,,,,,,,,,36253,2021-05-01_02h27.20.620,judgeSpeechMusic_20210407_logNormShiftAmp,2020.1.2,Win32,60,,,,,,,,,,,,,,1,5.76415,,0,0,122,122,43,1,stimuli/stim_20210407_power2amp/equal_lnn_AM1.8Hz_54.m4a,,,
,,,,,,,,,,,,36253,2021-05-01_02h27.20.620,judgeSpeechMusic_20210407_logNormShiftAmp,2020.1.2,Win32,60,,,,,,,,,,,,,,1,6.566715,,0,0,123,123,146,1,stimuli/stim_20210407_power2amp/equal_lnn_AM6Hz_16.m4a,,,
,,,,,,,,,,,,36253,2021-05-01_02h27.20.620,judgeSpeechMusic_20210407_logNormShiftAmp,2020.1.2,Win32,60,,,,,,,,,,,,,,1,7.099385,,0,0,124,124,128,1,stimuli/stim_20210407_power2amp/equal_lnn_AM5.4Hz_15.m4a,,,
,,,,,,,,,,,,36253,2021-05-01_02h27.20.620,judgeSpeechMusic_20210407_logNormShiftAmp,2020.1.2,Win32,60,,,,,,,,,,,,,,1,6.386065,,0,0,125,125,69,1,stimuli/stim_20210407_power2amp/equal_lnn_AM3Hz_19.m4a,,,
,,,,,,,,,,,,36253,2021-05-01_02h27.20.620,judgeSpeechMusic_20210407_logNormShiftAmp,2020.1.2,Win32,60,,,,,,,,,,,,,,1,6.336285,,0,0,126,126,14,1,stimuli/stim_20210407_power2amp/equal_lnn_AM0.6Hz_51.m4a,,,
,,,,,,,,,,,,36253,2021-05-01_02h27.20.620,judgeSpeechMusic_20210407_logNormShiftAmp,2020.1.2,Win32,60,,,,,,,,,,,,,,1,5.631795,,0,0,127,127,25,1,stimuli/stim_20210407_power2amp/equal_lnn_AM1.2Hz_88.m4a,,,
,,,,,,,,,,,,36253,2021-05-01_02h27.20.620,judgeSpeechMusic_20210407_logNormShiftAmp,2020.1.2,Win32,60,,,,,,,,,,,,,,2,5.599425,,0,0,128,128,142,1,stimuli/stim_20210407_power2amp/equal_lnn_AM6Hz_38.m4a,,,
,,,,,,,,,,,,36253,2021-05-01_02h27.20.620,judgeSpeechMusic_20210407_logNormShiftAmp,2020.1.2,Win32,60,,,,,,,,,,,,,,1,5.740875,1,1,0,129,129,18,1,stimuli/stim_20210407_power2amp/equal_lnn_AM1.2Hz_11.m4a,0.83889,,
,,,,,,,,,,,,36253,2021-05-01_02h27.20.620,judgeSpeechMusic_20210407_logNormShiftAmp,2020.1.2,Win32,60,,,,,,,,,,,,,,1,6.422965,,0,0,130,130,26,1,stimuli/stim_20210407_power2amp/equal_lnn_AM1.2Hz_41.m4a,,,
,,,,,,,,,,,,36253,2021-05-01_02h27.20.620,judgeSpeechMusic_20210407_logNormShiftAmp,2020.1.2,Win32,60,,,,,,,,,,,,,,2,6.45639,,0,0,131,131,113,1,stimuli/stim_20210407_power2amp/equal_lnn_AM4.8Hz_42.m4a,,,
,,,,,,,,,,,,36253,2021-05-01_02h27.20.620,judgeSpeechMusic_20210407_logNormShiftAmp,2020.1.2,Win32,60,,,,,,,,,,,,,,2,6.50133,,0,0,132,132,130,1,stimuli/stim_20210407_power2amp/equal_lnn_AM5.4Hz_37.m4a,,,
,,,,,,,,,,,,36253,2021-05-01_02h27.20.620,judgeSpeechMusic_20210407_logNormShiftAmp,2020.1.2,Win32,60,,,,,,,,,,,,,,1,5.618425,,0,0,133,133,76,1,stimuli/stim_20210407_power2amp/equal_lnn_AM3.6Hz_79.m4a,,,
,,,,,,,,,,,,36253,2021-05-01_02h27.20.620,judgeSpeechMusic_20210407_logNormShiftAmp,2020.1.2,Win32,60,,,,,,,,,,,,,,1,5.61219,,0,0,134,134,28,1,stimuli/stim_20210407_power2amp/equal_lnn_AM1.2Hz_8.m4a,,,
,,,,,,,,,,,,36253,2021-05-01_02h27.20.620,judgeSpeechMusic_20210407_logNormShiftAmp,2020.1.2,Win32,60,,,,,,,,,,,,,,1,5.58718,,0,0,135,135,79,1,stimuli/stim_20210407_power2amp/equal_lnn_AM3.6Hz_87.m4a,,,
,,,,,,,,,,,,36253,2021-05-01_02h27.20.620,judgeSpeechMusic_20210407_logNormShiftAmp,2020.1.2,Win32,60,,,,,,,,,,,,,,2,6.21528,,0,0,136,136,143,1,stimuli/stim_20210407_power2amp/equal_lnn_AM6Hz_14.m4a,,,
,,,,,,,,,,,,36253,2021-05-01_02h27.20.620,judgeSpeechMusic_20210407_logNormShiftAmp,2020.1.2,Win32,60,,,,,,,,,,,,,,1,5.71477,,0,0,137,137,33,1,stimuli/stim_20210407_power2amp/equal_lnn_AM1.8Hz_58.m4a,,,
,,,,,,,,,,,,36253,2021-05-01_02h27.20.620,judgeSpeechMusic_20210407_logNormShiftAmp,2020.1.2,Win32,60,,,,,,,,,,,,,,2,5.56813,,0,0,138,138,77,1,stimuli/stim_20210407_power2amp/equal_lnn_AM3.6Hz_40.m4a,,,
,,,,,,,,,,,,36253,2021-05-01_02h27.20.620,judgeSpeechMusic_20210407_logNormShiftAmp,2020.1.2,Win32,60,,,,,,,,,,,,,,1,5.990525,,0,0,139,139,103,1,stimuli/stim_20210407_power2amp/equal_lnn_AM4.2Hz_43.m4a,,,
,,,,,,,,,,,,36253,2021-05-01_02h27.20.620,judgeSpeechMusic_20210407_logNormShiftAmp,2020.1.2,Win32,60,,,,,,,,,,,,,,1,6.089125,,0,0,140,140,58,1,stimuli/stim_20210407_power2amp/equal_lnn_AM2.4Hz_85.m4a,,,
,,,,,,,,,,,,36253,2021-05-01_02h27.20.620,judgeSpeechMusic_20210407_logNormShiftAmp,2020.1.2,Win32,60,,,,,,,,,,,,,,1,5.98299,,0,0,141,141,54,1,stimuli/stim_20210407_power2amp/equal_lnn_AM2.4Hz_54.m4a,,,
,,,,,,,,,,,,36253,2021-05-01_02h27.20.620,judgeSpeechMusic_20210407_logNormShiftAmp,2020.1.2,Win32,60,,,,,,,,,,,,,,2,5.90003,,0,0,142,142,40,1,stimuli/stim_20210407_power2amp/equal_lnn_AM1.8Hz_84.m4a,,,
,,,,,,,,,,,,36253,2021-05-01_02h27.20.620,judgeSpeechMusic_20210407_logNormShiftAmp,2020.1.2,Win32,60,,,,,,,,,,,,,,1,5.619475,,0,0,143,143,46,1,stimuli/stim_20210407_power2amp/equal_lnn_AM2.4Hz_33.m4a,,,
,,,,,,,,,,,,36253,2021-05-01_02h27.20.620,judgeSpeechMusic_20210407_logNormShiftAmp,2020.1.2,Win32,60,,,,,,,,,,,,,,1,6.926435,,0,0,144,144,122,1,stimuli/stim_20210407_power2amp/equal_lnn_AM5.4Hz_21.m4a,,,
,,,,,,,,,,,,36253,2021-05-01_02h27.20.620,judgeSpeechMusic_20210407_logNormShiftAmp,2020.1.2,Win32,60,,,,,,,,,,,,,,1,6.02941,,0,0,145,145,2,1,stimuli/stim_20210407_power2amp/equal_lnn_AM0.6Hz_59.m4a,,,
,,,,,,,,,,,,36253,2021-05-01_02h27.20.620,judgeSpeechMusic_20210407_logNormShiftAmp,2020.1.2,Win32,60,,,,,,,,,,,,,,1,5.86502,,0,0,146,146,4,1,stimuli/stim_20210407_power2amp/equal_lnn_AM0.6Hz_20.m4a,,,
,,,,,,,,,,,,36253,2021-05-01_02h27.20.620,judgeSpeechMusic_20210407_logNormShiftAmp,2020.1.2,Win32,60,,,,,,,,,,,,,,1,6.424335,,0,0,147,147,148,1,stimuli/stim_20210407_power2amp/equal_lnn_AM6Hz_45.m4a,,,
,,,,,,,,,,,,36253,2021-05-01_02h27.20.620,judgeSpeechMusic_20210407_logNormShiftAmp,2020.1.2,Win32,60,,,,,,,,,,,,,,2,5.809045,,0,0,148,148,60,1,stimuli/stim_20210407_power2amp/equal_lnn_AM3Hz_89.m4a,,,
,,,,,,,,,,,,36253,2021-05-01_02h27.20.620,judgeSpeechMusic_20210407_logNormShiftAmp,2020.1.2,Win32,60,,,,,,,,,,,,,,1,6.80877,,0,0,149,149,42,1,stimuli/stim_20210407_power2amp/equal_lnn_AM1.8Hz_86.m4a,,,
,,,,,,,,,,,,36253,2021-05-01_02h27.20.620,judgeSpeechMusic_20210407_logNormShiftAmp,2020.1.2,Win32,60,,,,,,,,,,,,,,2,6.714155,3,0,1,0,150,96,1,stimuli/stim_20210407_power2amp/equal_lnn_AM4.2Hz_78.m4a,4.62492,,
,,,,,,,,,,,,36253,2021-05-01_02h27.20.620,judgeSpeechMusic_20210407_logNormShiftAmp,2020.1.2,Win32,60,,,,,,,,,,,,,,1,5.6509,,0,1,1,151,79,1,stimuli/stim_20210407_power2amp/equal_lnn_AM3.6Hz_87.m4a,,,
,,,,,,,,,,,,36253,2021-05-01_02h27.20.620,judgeSpeechMusic_20210407_logNormShiftAmp,2020.1.2,Win32,60,,,,,,,,,,,,,,2,6.125265,,0,1,2,152,84,1,stimuli/stim_20210407_power2amp/equal_lnn_AM3.6Hz_28.m4a,,,
,,,,,,,,,,,,36253,2021-05-01_02h27.20.620,judgeSpeechMusic_20210407_logNormShiftAmp,2020.1.2,Win32,60,,,,,,,,,,,,,,1,5.534735,,0,1,3,153,87,1,stimuli/stim_20210407_power2amp/equal_lnn_AM3.6Hz_88.m4a,,,
,,,,,,,,,,,,36253,2021-05-01_02h27.20.620,judgeSpeechMusic_20210407_logNormShiftAmp,2020.1.2,Win32,60,,,,,,,,,,,,,,1,5.597135,,0,1,4,154,7,1,stimuli/stim_20210407_power2amp/equal_lnn_AM0.6Hz_85.m4a,,,
,,,,,,,,,,,,36253,2021-05-01_02h27.20.620,judgeSpeechMusic_20210407_logNormShiftAmp,2020.1.2,Win32,60,,,,,,,,,,,,,,1,5.544375,,0,1,5,155,92,1,stimuli/stim_20210407_power2amp/equal_lnn_AM4.2Hz_93.m4a,,,
,,,,,,,,,,,,36253,2021-05-01_02h27.20.620,judgeSpeechMusic_20210407_logNormShiftAmp,2020.1.2,Win32,60,,,,,,,,,,,,,,2,5.608,,0,1,6,156,143,1,stimuli/stim_20210407_power2amp/equal_lnn_AM6Hz_14.m4a,,,
,,,,,,,,,,,,36253,2021-05-01_02h27.20.620,judgeSpeechMusic_20210407_logNormShiftAmp,2020.1.2,Win32,60,,,,,,,,,,,,,,2,5.59143,,0,1,7,157,118,1,stimuli/stim_20210407_power2amp/equal_lnn_AM4.8Hz_51.m4a,,,
,,,,,,,,,,,,36253,2021-05-01_02h27.20.620,judgeSpeechMusic_20210407_logNormShiftAmp,2020.1.2,Win32,60,,,,,,,,,,,,,,1,5.59967,,0,1,8,158,37,1,stimuli/stim_20210407_power2amp/equal_lnn_AM1.8Hz_45.m4a,,,
,,,,,,,,,,,,36253,2021-05-01_02h27.20.620,judgeSpeechMusic_20210407_logNormShiftAmp,2020.1.2,Win32,60,,,,,,,,,,,,,,2,6.574715,,0,1,9,159,105,1,stimuli/stim_20210407_power2amp/equal_lnn_AM4.8Hz_75.m4a,,,
,,,,,,,,,,,,36253,2021-05-01_02h27.20.620,judgeSpeechMusic_20210407_logNormShiftAmp,2020.1.2,Win32,60,,,,,,,,,,,,,,1,5.612005,,0,1,10,160,94,1,stimuli/stim_20210407_power2amp/equal_lnn_AM4.2Hz_21.m4a,,,
,,,,,,,,,,,,36253,2021-05-01_02h27.20.620,judgeSpeechMusic_20210407_logNormShiftAmp,2020.1.2,Win32,60,,,,,,,,,,,,,,1,5.587325,,0,1,11,161,6,1,stimuli/stim_20210407_power2amp/equal_lnn_AM0.6Hz_89.m4a,,,
,,,,,,,,,,,,36253,2021-05-01_02h27.20.620,judgeSpeechMusic_20210407_logNormShiftAmp,2020.1.2,Win32,60,,,,,,,,,,,,,,1,5.60542,,0,1,12,162,27,1,stimuli/stim_20210407_power2amp/equal_lnn_AM1.2Hz_5.m4a,,,
,,,,,,,,,,,,36253,2021-05-01_02h27.20.620,judgeSpeechMusic_20210407_logNormShiftAmp,2020.1.2,Win32,60,,,,,,,,,,,,,,2,5.624,,0,1,13,163,146,1,stimuli/stim_20210407_power2amp/equal_lnn_AM6Hz_16.m4a,,,
,,,,,,,,,,,,36253,2021-05-01_02h27.20.620,judgeSpeechMusic_20210407_logNormShiftAmp,2020.1.2,Win32,60,,,,,,,,,,,,,,1,5.648735,,0,1,14,164,106,1,stimuli/stim_20210407_power2amp/equal_lnn_AM4.8Hz_12.m4a,,,
,,,,,,,,,,,,36253,2021-05-01_02h27.20.620,judgeSpeechMusic_20210407_logNormShiftAmp,2020.1.2,Win32,60,,,,,,,,,,,,,,2,5.56731,,0,1,15,165,112,1,stimuli/stim_20210407_power2amp/equal_lnn_AM4.8Hz_4.m4a,,,
,,,,,,,,,,,,36253,2021-05-01_02h27.20.620,judgeSpeechMusic_20210407_logNormShiftAmp,2020.1.2,Win32,60,,,,,,,,,,,,,,2,5.571975,,0,1,16,166,139,1,stimuli/stim_20210407_power2amp/equal_lnn_AM6Hz_99.m4a,,,
,,,,,,,,,,,,36253,2021-05-01_02h27.20.620,judgeSpeechMusic_20210407_logNormShiftAmp,2020.1.2,Win32,60,,,,,,,,,,,,,,1,5.634525,,0,1,17,167,10,1,stimuli/stim_20210407_power2amp/equal_lnn_AM0.6Hz_97.m4a,,,
,,,,,,,,,,,,36253,2021-05-01_02h27.20.620,judgeSpeechMusic_20210407_logNormShiftAmp,2020.1.2,Win32,60,,,,,,,,,,,,,,1,5.71673,,0,1,18,168,149,1,stimuli/stim_20210407_power2amp/equal_lnn_AM6Hz_21.m4a,,,
,,,,,,,,,,,,36253,2021-05-01_02h27.20.620,judgeSpeechMusic_20210407_logNormShiftAmp,2020.1.2,Win32,60,,,,,,,,,,,,,,1,5.71442,,0,1,19,169,90,1,stimuli/stim_20210407_power2amp/equal_lnn_AM4.2Hz_32.m4a,,,
,,,,,,,,,,,,36253,2021-05-01_02h27.20.620,judgeSpeechMusic_20210407_logNormShiftAmp,2020.1.2,Win32,60,,,,,,,,,,,,,,1,5.564175,,0,1,20,170,81,1,stimuli/stim_20210407_power2amp/equal_lnn_AM3.6Hz_68.m4a,,,
,,,,,,,,,,,,36253,2021-05-01_02h27.20.620,judgeSpeechMusic_20210407_logNormShiftAmp,2020.1.2,Win32,60,,,,,,,,,,,,,,1,5.574015,,0,1,21,171,22,1,stimuli/stim_20210407_power2amp/equal_lnn_AM1.2Hz_48.m4a,,,
,,,,,,,,,,,,36253,2021-05-01_02h27.20.620,judgeSpeechMusic_20210407_logNormShiftAmp,2020.1.2,Win32,60,,,,,,,,,,,,,,2,5.576625,,0,1,22,172,132,1,stimuli/stim_20210407_power2amp/equal_lnn_AM5.4Hz_52.m4a,,,
,,,,,,,,,,,,36253,2021-05-01_02h27.20.620,judgeSpeechMusic_20210407_logNormShiftAmp,2020.1.2,Win32,60,,,,,,,,,,,,,,1,5.613875,1,1,1,23,173,17,1,stimuli/stim_20210407_power2amp/equal_lnn_AM1.2Hz_57.m4a,0.92555,,
,,,,,,,,,,,,36253,2021-05-01_02h27.20.620,judgeSpeechMusic_20210407_logNormShiftAmp,2020.1.2,Win32,60,,,,,,,,,,,,,,1,6.214595,,0,1,24,174,39,1,stimuli/stim_20210407_power2amp/equal_lnn_AM1.8Hz_87.m4a,,,
,,,,,,,,,,,,36253,2021-05-01_02h27.20.620,judgeSpeechMusic_20210407_logNormShiftAmp,2020.1.2,Win32,60,,,,,,,,,,,,,,1,5.59991,,0,1,25,175,142,1,stimuli/stim_20210407_power2amp/equal_lnn_AM6Hz_38.m4a,,,
,,,,,,,,,,,,36253,2021-05-01_02h27.20.620,judgeSpeechMusic_20210407_logNormShiftAmp,2020.1.2,Win32,60,,,,,,,,,,,,,,1,5.58336,,0,1,26,176,71,1,stimuli/stim_20210407_power2amp/equal_lnn_AM3Hz_4.m4a,,,
,,,,,,,,,,,,36253,2021-05-01_02h27.20.620,judgeSpeechMusic_20210407_logNormShiftAmp,2020.1.2,Win32,60,,,,,,,,,,,,,,1,5.539055,,0,1,27,177,43,1,stimuli/stim_20210407_power2amp/equal_lnn_AM1.8Hz_54.m4a,,,
,,,,,,,,,,,,36253,2021-05-01_02h27.20.620,judgeSpeechMusic_20210407_logNormShiftAmp,2020.1.2,Win32,60,,,,,,,,,,,,,,1,5.732075,,0,1,28,178,20,1,stimuli/stim_20210407_power2amp/equal_lnn_AM1.2Hz_69.m4a,,,
,,,,,,,,,,,,36253,2021-05-01_02h27.20.620,judgeSpeechMusic_20210407_logNormShiftAmp,2020.1.2,Win32,60,,,,,,,,,,,,,,1,6.091265,,0,1,29,179,103,1,stimuli/stim_20210407_power2amp/equal_lnn_AM4.2Hz_43.m4a,,,
,,,,,,,,,,,,36253,2021-05-01_02h27.20.620,judgeSpeechMusic_20210407_logNormShiftAmp,2020.1.2,Win32,60,,,,,,,,,,,,,,1,6.784995,,0,1,30,180,24,1,stimuli/stim_20210407_power2amp/equal_lnn_AM1.2Hz_23.m4a,,,
,,,,,,,,,,,,36253,2021-05-01_02h27.20.620,judgeSpeechMusic_20210407_logNormShiftAmp,2020.1.2,Win32,60,,,,,,,,,,,,,,2,5.803315,,0,1,31,181,123,1,stimuli/stim_20210407_power2amp/equal_lnn_AM5.4Hz_1.m4a,,,
,,,,,,,,,,,,36253,2021-05-01_02h27.20.620,judgeSpeechMusic_20210407_logNormShiftAmp,2020.1.2,Win32,60,,,,,,,,,,,,,,1,5.56615,,0,1,32,182,33,1,stimuli/stim_20210407_power2amp/equal_lnn_AM1.8Hz_58.m4a,,,
,,,,,,,,,,,,36253,2021-05-01_02h27.20.620,judgeSpeechMusic_20210407_logNormShiftAmp,2020.1.2,Win32,60,,,,,,,,,,,,,,1,5.53325,,0,1,33,183,64,1,stimuli/stim_20210407_power2amp/equal_lnn_AM3Hz_10.m4a,,,
,,,,,,,,,,,,36253,2021-05-01_02h27.20.620,judgeSpeechMusic_20210407_logNormShiftAmp,2020.1.2,Win32,60,,,,,,,,,,,,,,1,6.122925,,0,1,34,184,54,1,stimuli/stim_20210407_power2amp/equal_lnn_AM2.4Hz_54.m4a,,,
,,,,,,,,,,,,36253,2021-05-01_02h27.20.620,judgeSpeechMusic_20210407_logNormShiftAmp,2020.1.2,Win32,60,,,,,,,,,,,,,,2,5.599035,,0,1,35,185,31,1,stimuli/stim_20210407_power2amp/equal_lnn_AM1.8Hz_37.m4a,,,
,,,,,,,,,,,,36253,2021-05-01_02h27.20.620,judgeSpeechMusic_20210407_logNormShiftAmp,2020.1.2,Win32,60,,,,,,,,,,,,,,2,5.720715,,0,1,36,186,45,1,stimuli/stim_20210407_power2amp/equal_lnn_AM2.4Hz_34.m4a,,,
,,,,,,,,,,,,36253,2021-05-01_02h27.20.620,judgeSpeechMusic_20210407_logNormShiftAmp,2020.1.2,Win32,60,,,,,,,,,,,,,,1,6.005055,,0,1,37,187,26,1,stimuli/stim_20210407_power2amp/equal_lnn_AM1.2Hz_41.m4a,,,
,,,,,,,,,,,,36253,2021-05-01_02h27.20.620,judgeSpeechMusic_20210407_logNormShiftAmp,2020.1.2,Win32,60,,,,,,,,,,,,,,1,5.59803,,0,1,38,188,4,1,stimuli/stim_20210407_power2amp/equal_lnn_AM0.6Hz_20.m4a,,,
,,,,,,,,,,,,36253,2021-05-01_02h27.20.620,judgeSpeechMusic_20210407_logNormShiftAmp,2020.1.2,Win32,60,,,,,,,,,,,,,,2,10.554185,,0,1,39,189,21,1,stimuli/stim_20210407_power2amp/equal_lnn_AM1.2Hz_58.m4a,,,
,,,,,,,,,,,,36253,2021-05-01_02h27.20.620,judgeSpeechMusic_20210407_logNormShiftAmp,2020.1.2,Win32,60,,,,,,,,,,,,,,2,6.70523,,0,1,40,190,126,1,stimuli/stim_20210407_power2amp/equal_lnn_AM5.4Hz_39.m4a,,,
,,,,,,,,,,,,36253,2021-05-01_02h27.20.620,judgeSpeechMusic_20210407_logNormShiftAmp,2020.1.2,Win32,60,,,,,,,,,,,,,,2,6.25596,,0,1,41,191,44,1,stimuli/stim_20210407_power2amp/equal_lnn_AM1.8Hz_47.m4a,,,
,,,,,,,,,,,,36253,2021-05-01_02h27.20.620,judgeSpeechMusic_20210407_logNormShiftAmp,2020.1.2,Win32,60,,,,,,,,,,,,,,2,6.7865,,0,1,42,192,101,1,stimuli/stim_20210407_power2amp/equal_lnn_AM4.2Hz_77.m4a,,,
,,,,,,,,,,,,36253,2021-05-01_02h27.20.620,judgeSpeechMusic_20210407_logNormShiftAmp,2020.1.2,Win32,60,,,,,,,,,,,,,,1,8.413105,,0,1,43,193,34,1,stimuli/stim_20210407_power2amp/equal_lnn_AM1.8Hz_60.m4a,,,
,,,,,,,,,,,,36253,2021-05-01_02h27.20.620,judgeSpeechMusic_20210407_logNormShiftAmp,2020.1.2,Win32,60,,,,,,,,,,,,,,2,8.20266,4,0,1,44,194,58,1,stimuli/stim_20210407_power2amp/equal_lnn_AM2.4Hz_85.m4a,4.110435,,
,,,,,,,,,,,,36253,2021-05-01_02h27.20.620,judgeSpeechMusic_20210407_logNormShiftAmp,2020.1.2,Win32,60,,,,,,,,,,,,,,2,14.36394,,0,1,45,195,67,1,stimuli/stim_20210407_power2amp/equal_lnn_AM3Hz_56.m4a,,,
,,,,,,,,,,,,36253,2021-05-01_02h27.20.620,judgeSpeechMusic_20210407_logNormShiftAmp,2020.1.2,Win32,60,,,,,,,,,,,,,,1,8.789965,,0,1,46,196,30,1,stimuli/stim_20210407_power2amp/equal_lnn_AM1.8Hz_66.m4a,,,
,,,,,,,,,,,,36253,2021-05-01_02h27.20.620,judgeSpeechMusic_20210407_logNormShiftAmp,2020.1.2,Win32,60,,,,,,,,,,,,,,1,6.188615,,0,1,47,197,97,1,stimuli/stim_20210407_power2amp/equal_lnn_AM4.2Hz_89.m4a,,,
,,,,,,,,,,,,36253,2021-05-01_02h27.20.620,judgeSpeechMusic_20210407_logNormShiftAmp,2020.1.2,Win32,60,,,,,,,,,,,,,,2,12.711505,,0,1,48,198,29,1,stimuli/stim_20210407_power2amp/equal_lnn_AM1.2Hz_93.m4a,,,
,,,,,,,,,,,,36253,2021-05-01_02h27.20.620,judgeSpeechMusic_20210407_logNormShiftAmp,2020.1.2,Win32,60,,,,,,,,,,,,,,2,8.324935,,0,1,49,199,40,1,stimuli/stim_20210407_power2amp/equal_lnn_AM1.8Hz_84.m4a,,,
,,,,,,,,,,,,36253,2021-05-01_02h27.20.620,judgeSpeechMusic_20210407_logNormShiftAmp,2020.1.2,Win32,60,,,,,,,,,,,,,,1,6.311655,,0,1,50,200,14,1,stimuli/stim_20210407_power2amp/equal_lnn_AM0.6Hz_51.m4a,,,
,,,,,,,,,,,,36253,2021-05-01_02h27.20.620,judgeSpeechMusic_20210407_logNormShiftAmp,2020.1.2,Win32,60,,,,,,,,,,,,,,2,8.487015,,0,1,51,201,113,1,stimuli/stim_20210407_power2amp/equal_lnn_AM4.8Hz_42.m4a,,,
,,,,,,,,,,,,36253,2021-05-01_02h27.20.620,judgeSpeechMusic_20210407_logNormShiftAmp,2020.1.2,Win32,60,,,,,,,,,,,,,,1,8.90862,,0,1,52,202,77,1,stimuli/stim_20210407_power2amp/equal_lnn_AM3.6Hz_40.m4a,,,
,,,,,,,,,,,,36253,2021-05-01_02h27.20.620,judgeSpeechMusic_20210407_logNormShiftAmp,2020.1.2,Win32,60,,,,,,,,,,,,,,1,9.14929,,0,1,53,203,3,1,stimuli/stim_20210407_power2amp/equal_lnn_AM0.6Hz_9.m4a,,,
,,,,,,,,,,,,36253,2021-05-01_02h27.20.620,judgeSpeechMusic_20210407_logNormShiftAmp,2020.1.2,Win32,60,,,,,,,,,,,,,,2,6.03227,,0,1,54,204,99,1,stimuli/stim_20210407_power2amp/equal_lnn_AM4.2Hz_97.m4a,,,
,,,,,,,,,,,,36253,2021-05-01_02h27.20.620,judgeSpeechMusic_20210407_logNormShiftAmp,2020.1.2,Win32,60,,,,,,,,,,,,,,2,6.91996,,0,1,55,205,80,1,stimuli/stim_20210407_power2amp/equal_lnn_AM3.6Hz_30.m4a,,,
,,,,,,,,,,,,36253,2021-05-01_02h27.20.620,judgeSpeechMusic_20210407_logNormShiftAmp,2020.1.2,Win32,60,,,,,,,,,,,,,,2,10.7015,,0,1,56,206,53,1,stimuli/stim_20210407_power2amp/equal_lnn_AM2.4Hz_7.m4a,,,
,,,,,,,,,,,,36253,2021-05-01_02h27.20.620,judgeSpeechMusic_20210407_logNormShiftAmp,2020.1.2,Win32,60,,,,,,,,,,,,,,1,7.585865,,0,1,57,207,63,1,stimuli/stim_20210407_power2amp/equal_lnn_AM3Hz_93.m4a,,,
,,,,,,,,,,,,36253,2021-05-01_02h27.20.620,judgeSpeechMusic_20210407_logNormShiftAmp,2020.1.2,Win32,60,,,,,,,,,,,,,,1,7.464335,,0,1,58,208,120,1,stimuli/stim_20210407_power2amp/equal_lnn_AM5.4Hz_43.m4a,,,
,,,,,,,,,,,,36253,2021-05-01_02h27.20.620,judgeSpeechMusic_20210407_logNormShiftAmp,2020.1.2,Win32,60,,,,,,,,,,,,,,2,6.125365,,0,1,59,209,61,1,stimuli/stim_20210407_power2amp/equal_lnn_AM3Hz_7.m4a,,,
,,,,,,,,,,,,36253,2021-05-01_02h27.20.620,judgeSpeechMusic_20210407_logNormShiftAmp,2020.1.2,Win32,60,,,,,,,,,,,,,,1,5.91174,,0,1,60,210,141,1,stimuli/stim_20210407_power2amp/equal_lnn_AM6Hz_22.m4a,,,
,,,,,,,,,,,,36253,2021-05-01_02h27.20.620,judgeSpeechMusic_20210407_logNormShiftAmp,2020.1.2,Win32,60,,,,,,,,,,,,,,2,5.8283,,0,1,61,211,100,1,stimuli/stim_20210407_power2amp/equal_lnn_AM4.2Hz_17.m4a,,,
,,,,,,,,,,,,36253,2021-05-01_02h27.20.620,judgeSpeechMusic_20210407_logNormShiftAmp,2020.1.2,Win32,60,,,,,,,,,,,,,,1,5.858,,0,1,62,212,47,1,stimuli/stim_20210407_power2amp/equal_lnn_AM2.4Hz_45.m4a,,,
,,,,,,,,,,,,36253,2021-05-01_02h27.20.620,judgeSpeechMusic_20210407_logNormShiftAmp,2020.1.2,Win32,60,,,,,,,,,,,,,,1,10.072235,,0,1,63,213,52,1,stimuli/stim_20210407_power2amp/equal_lnn_AM2.4Hz_83.m4a,,,
,,,,,,,,,,,,36253,2021-05-01_02h27.20.620,judgeSpeechMusic_20210407_logNormShiftAmp,2020.1.2,Win32,60,,,,,,,,,,,,,,2,5.892115,,0,1,64,214,75,1,stimuli/stim_20210407_power2amp/equal_lnn_AM3.6Hz_73.m4a,,,
,,,,,,,,,,,,36253,2021-05-01_02h27.20.620,judgeSpeechMusic_20210407_logNormShiftAmp,2020.1.2,Win32,60,,,,,,,,,,,,,,2,8.2798,,0,1,65,215,136,1,stimuli/stim_20210407_power2amp/equal_lnn_AM6Hz_42.m4a,,,
,,,,,,,,,,,,36253,2021-05-01_02h27.20.620,judgeSpeechMusic_20210407_logNormShiftAmp,2020.1.2,Win32,60,,,,,,,,,,,,,,2,7.12507,,0,1,66,216,130,1,stimuli/stim_20210407_power2amp/equal_lnn_AM5.4Hz_37.m4a,,,
,,,,,,,,,,,,36253,2021-05-01_02h27.20.620,judgeSpeechMusic_20210407_logNormShiftAmp,2020.1.2,Win32,60,,,,,,,,,,,,,,1,6.64806,,0,1,67,217,111,1,stimuli/stim_20210407_power2amp/equal_lnn_AM4.8Hz_61.m4a,,,
,,,,,,,,,,,,36253,2021-05-01_02h27.20.620,judgeSpeechMusic_20210407_logNormShiftAmp,2020.1.2,Win32,60,,,,,,,,,,,,,,1,6.8243,1,1,1,68,218,86,1,stimuli/stim_20210407_power2amp/equal_lnn_AM3.6Hz_26.m4a,1.091335,,
,,,,,,,,,,,,36253,2021-05-01_02h27.20.620,judgeSpeechMusic_20210407_logNormShiftAmp,2020.1.2,Win32,60,,,,,,,,,,,,,,2,7.99924,,0,1,69,219,119,1,stimuli/stim_20210407_power2amp/equal_lnn_AM4.8Hz_63.m4a,,,
,,,,,,,,,,,,36253,2021-05-01_02h27.20.620,judgeSpeechMusic_20210407_logNormShiftAmp,2020.1.2,Win32,60,,,,,,,,,,,,,,1,9.14916,,0,1,70,220,25,1,stimuli/stim_20210407_power2amp/equal_lnn_AM1.2Hz_88.m4a,,,
,,,,,,,,,,,,36253,2021-05-01_02h27.20.620,judgeSpeechMusic_20210407_logNormShiftAmp,2020.1.2,Win32,60,,,,,,,,,,,,,,2,5.891255,,0,1,71,221,114,1,stimuli/stim_20210407_power2amp/equal_lnn_AM4.8Hz_70.m4a,,,
,,,,,,,,,,,,36253,2021-05-01_02h27.20.620,judgeSpeechMusic_20210407_logNormShiftAmp,2020.1.2,Win32,60,,,,,,,,,,,,,,1,5.769815,,0,1,72,222,116,1,stimuli/stim_20210407_power2amp/equal_lnn_AM4.8Hz_97.m4a,,,
,,,,,,,,,,,,36253,2021-05-01_02h27.20.620,judgeSpeechMusic_20210407_logNormShiftAmp,2020.1.2,Win32,60,,,,,,,,,,,,,,1,5.615145,,0,1,73,223,8,1,stimuli/stim_20210407_power2amp/equal_lnn_AM0.6Hz_28.m4a,,,
,,,,,,,,,,,,36253,2021-05-01_02h27.20.620,judgeSpeechMusic_20210407_logNormShiftAmp,2020.1.2,Win32,60,,,,,,,,,,,,,,2,7.0088,,0,1,74,224,83,1,stimuli/stim_20210407_power2amp/equal_lnn_AM3.6Hz_4.m4a,,,
,,,,,,,,,,,,36253,2021-05-01_02h27.20.620,judgeSpeechMusic_20210407_logNormShiftAmp,2020.1.2,Win32,60,,,,,,,,,,,,,,2,5.81594,,0,1,75,225,49,1,stimuli/stim_20210407_power2amp/equal_lnn_AM2.4Hz_20.m4a,,,
,,,,,,,,,,,,36253,2021-05-01_02h27.20.620,judgeSpeechMusic_20210407_logNormShiftAmp,2020.1.2,Win32,60,,,,,,,,,,,,,,1,5.871315,,0,1,76,226,128,1,stimuli/stim_20210407_power2amp/equal_lnn_AM5.4Hz_15.m4a,,,
,,,,,,,,,,,,36253,2021-05-01_02h27.20.620,judgeSpeechMusic_20210407_logNormShiftAmp,2020.1.2,Win32,60,,,,,,,,,,,,,,2,6.633725,,0,1,77,227,145,1,stimuli/stim_20210407_power2amp/equal_lnn_AM6Hz_10.m4a,,,
,,,,,,,,,,,,36253,2021-05-01_02h27.20.620,judgeSpeechMusic_20210407_logNormShiftAmp,2020.1.2,Win32,60,,,,,,,,,,,,,,1,5.92511,,0,1,78,228,38,1,stimuli/stim_20210407_power2amp/equal_lnn_AM1.8Hz_28.m4a,,,
,,,,,,,,,,,,36253,2021-05-01_02h27.20.620,judgeSpeechMusic_20210407_logNormShiftAmp,2020.1.2,Win32,60,,,,,,,,,,,,,,1,5.608715,,0,1,79,229,1,1,stimuli/stim_20210407_power2amp/equal_lnn_AM0.6Hz_50.m4a,,,
,,,,,,,,,,,,36253,2021-05-01_02h27.20.620,judgeSpeechMusic_20210407_logNormShiftAmp,2020.1.2,Win32,60,,,,,,,,,,,,,,2,5.886935,,0,1,80,230,104,1,stimuli/stim_20210407_power2amp/equal_lnn_AM4.2Hz_58.m4a,,,
,,,,,,,,,,,,36253,2021-05-01_02h27.20.620,judgeSpeechMusic_20210407_logNormShiftAmp,2020.1.2,Win32,60,,,,,,,,,,,,,,2,6.088655,,0,1,81,231,78,1,stimuli/stim_20210407_power2amp/equal_lnn_AM3.6Hz_31.m4a,,,
,,,,,,,,,,,,36253,2021-05-01_02h27.20.620,judgeSpeechMusic_20210407_logNormShiftAmp,2020.1.2,Win32,60,,,,,,,,,,,,,,1,5.632305,,0,1,82,232,66,1,stimuli/stim_20210407_power2amp/equal_lnn_AM3Hz_3.m4a,,,
,,,,,,,,,,,,36253,2021-05-01_02h27.20.620,judgeSpeechMusic_20210407_logNormShiftAmp,2020.1.2,Win32,60,,,,,,,,,,,,,,1,5.565685,,0,1,83,233,135,1,stimuli/stim_20210407_power2amp/equal_lnn_AM6Hz_43.m4a,,,
,,,,,,,,,,,,36253,2021-05-01_02h27.20.620,judgeSpeechMusic_20210407_logNormShiftAmp,2020.1.2,Win32,60,,,,,,,,,,,,,,1,5.71083,,0,1,84,234,12,1,stimuli/stim_20210407_power2amp/equal_lnn_AM0.6Hz_43.m4a,,,
,,,,,,,,,,,,36253,2021-05-01_02h27.20.620,judgeSpeechMusic_20210407_logNormShiftAmp,2020.1.2,Win32,60,,,,,,,,,,,,,,1,5.67306,,0,1,85,235,42,1,stimuli/stim_20210407_power2amp/equal_lnn_AM1.8Hz_86.m4a,,,
,,,,,,,,,,,,36253,2021-05-01_02h27.20.620,judgeSpeechMusic_20210407_logNormShiftAmp,2020.1.2,Win32,60,,,,,,,,,,,,,,2,5.599785,,0,1,86,236,121,1,stimuli/stim_20210407_power2amp/equal_lnn_AM5.4Hz_22.m4a,,,
,,,,,,,,,,,,36253,2021-05-01_02h27.20.620,judgeSpeechMusic_20210407_logNormShiftAmp,2020.1.2,Win32,60,,,,,,,,,,,,,,1,5.5192,,0,1,87,237,60,1,stimuli/stim_20210407_power2amp/equal_lnn_AM3Hz_89.m4a,,,
,,,,,,,,,,,,36253,2021-05-01_02h27.20.620,judgeSpeechMusic_20210407_logNormShiftAmp,2020.1.2,Win32,60,,,,,,,,,,,,,,2,5.617425,,0,1,88,238,95,1,stimuli/stim_20210407_power2amp/equal_lnn_AM4.2Hz_12.m4a,,,
,,,,,,,,,,,,36253,2021-05-01_02h27.20.620,judgeSpeechMusic_20210407_logNormShiftAmp,2020.1.2,Win32,60,,,,,,,,,,,,,,1,5.724935,,0,1,89,239,11,1,stimuli/stim_20210407_power2amp/equal_lnn_AM0.6Hz_22.m4a,,,
,,,,,,,,,,,,36253,2021-05-01_02h27.20.620,judgeSpeechMusic_20210407_logNormShiftAmp,2020.1.2,Win32,60,,,,,,,,,,,,,,2,5.8881,,0,1,90,240,117,1,stimuli/stim_20210407_power2amp/equal_lnn_AM4.8Hz_36.m4a,,,
,,,,,,,,,,,,36253,2021-05-01_02h27.20.620,judgeSpeechMusic_20210407_logNormShiftAmp,2020.1.2,Win32,60,,,,,,,,,,,,,,2,5.539575,2,1,1,91,241,109,1,stimuli/stim_20210407_power2amp/equal_lnn_AM4.8Hz_82.m4a,1.039745,,
,,,,,,,,,,,,36253,2021-05-01_02h27.20.620,judgeSpeechMusic_20210407_logNormShiftAmp,2020.1.2,Win32,60,,,,,,,,,,,,,,2,7.068915,,0,1,92,242,93,1,stimuli/stim_20210407_power2amp/equal_lnn_AM4.2Hz_22.m4a,,,
,,,,,,,,,,,,36253,2021-05-01_02h27.20.620,judgeSpeechMusic_20210407_logNormShiftAmp,2020.1.2,Win32,60,,,,,,,,,,,,,,1,5.584845,,0,1,93,243,35,1,stimuli/stim_20210407_power2amp/equal_lnn_AM1.8Hz_49.m4a,,,
,,,,,,,,,,,,36253,2021-05-01_02h27.20.620,judgeSpeechMusic_20210407_logNormShiftAmp,2020.1.2,Win32,60,,,,,,,,,,,,,,1,6.372775,,0,1,94,244,32,1,stimuli/stim_20210407_power2amp/equal_lnn_AM1.8Hz_22.m4a,,,
,,,,,,,,,,,,36253,2021-05-01_02h27.20.620,judgeSpeechMusic_20210407_logNormShiftAmp,2020.1.2,Win32,60,,,,,,,,,,,,,,1,5.629175,,0,1,95,245,9,1,stimuli/stim_20210407_power2amp/equal_lnn_AM0.6Hz_36.m4a,,,
,,,,,,,,,,,,36253,2021-05-01_02h27.20.620,judgeSpeechMusic_20210407_logNormShiftAmp,2020.1.2,Win32,60,,,,,,,,,,,,,,1,5.54984,,0,1,96,246,18,1,stimuli/stim_20210407_power2amp/equal_lnn_AM1.2Hz_11.m4a,,,
,,,,,,,,,,,,36253,2021-05-01_02h27.20.620,judgeSpeechMusic_20210407_logNormShiftAmp,2020.1.2,Win32,60,,,,,,,,,,,,,,1,5.49079,,0,1,97,247,48,1,stimuli/stim_20210407_power2amp/equal_lnn_AM2.4Hz_50.m4a,,,
,,,,,,,,,,,,36253,2021-05-01_02h27.20.620,judgeSpeechMusic_20210407_logNormShiftAmp,2020.1.2,Win32,60,,,,,,,,,,,,,,2,5.66523,,0,1,98,248,124,1,stimuli/stim_20210407_power2amp/equal_lnn_AM5.4Hz_96.m4a,,,
,,,,,,,,,,,,36253,2021-05-01_02h27.20.620,judgeSpeechMusic_20210407_logNormShiftAmp,2020.1.2,Win32,60,,,,,,,,,,,,,,1,5.42663,,0,1,99,249,107,1,stimuli/stim_20210407_power2amp/equal_lnn_AM4.8Hz_85.m4a,,,
,,,,,,,,,,,,36253,2021-05-01_02h27.20.620,judgeSpeechMusic_20210407_logNormShiftAmp,2020.1.2,Win32,60,,,,,,,,,,,,,,1,5.572315,,0,1,100,250,110,1,stimuli/stim_20210407_power2amp/equal_lnn_AM4.8Hz_54.m4a,,,
,,,,,,,,,,,,36253,2021-05-01_02h27.20.620,judgeSpeechMusic_20210407_logNormShiftAmp,2020.1.2,Win32,60,,,,,,,,,,,,,,1,6.008025,,0,1,101,251,122,1,stimuli/stim_20210407_power2amp/equal_lnn_AM5.4Hz_21.m4a,,,
,,,,,,,,,,,,36253,2021-05-01_02h27.20.620,judgeSpeechMusic_20210407_logNormShiftAmp,2020.1.2,Win32,60,,,,,,,,,,,,,,1,6.663765,,0,1,102,252,16,1,stimuli/stim_20210407_power2amp/equal_lnn_AM1.2Hz_80.m4a,,,
,,,,,,,,,,,,36253,2021-05-01_02h27.20.620,judgeSpeechMusic_20210407_logNormShiftAmp,2020.1.2,Win32,60,,,,,,,,,,,,,,1,6.99832,,0,1,103,253,70,1,stimuli/stim_20210407_power2amp/equal_lnn_AM3Hz_54.m4a,,,
,,,,,,,,,,,,36253,2021-05-01_02h27.20.620,judgeSpeechMusic_20210407_logNormShiftAmp,2020.1.2,Win32,60,,,,,,,,,,,,,,2,6.624255,,0,1,104,254,68,1,stimuli/stim_20210407_power2amp/equal_lnn_AM3Hz_1.m4a,,,
,,,,,,,,,,,,36253,2021-05-01_02h27.20.620,judgeSpeechMusic_20210407_logNormShiftAmp,2020.1.2,Win32,60,,,,,,,,,,,,,,2,5.965545,,0,1,105,255,65,1,stimuli/stim_20210407_power2amp/equal_lnn_AM3Hz_95.m4a,,,
,,,,,,,,,,,,36253,2021-05-01_02h27.20.620,judgeSpeechMusic_20210407_logNormShiftAmp,2020.1.2,Win32,60,,,,,,,,,,,,,,2,5.765385,,0,1,106,256,115,1,stimuli/stim_20210407_power2amp/equal_lnn_AM4.8Hz_83.m4a,,,
,,,,,,,,,,,,36253,2021-05-01_02h27.20.620,judgeSpeechMusic_20210407_logNormShiftAmp,2020.1.2,Win32,60,,,,,,,,,,,,,,2,5.876365,,0,1,107,257,125,1,stimuli/stim_20210407_power2amp/equal_lnn_AM5.4Hz_55.m4a,,,
,,,,,,,,,,,,36253,2021-05-01_02h27.20.620,judgeSpeechMusic_20210407_logNormShiftAmp,2020.1.2,Win32,60,,,,,,,,,,,,,,1,5.497955,,0,1,108,258,144,1,stimuli/stim_20210407_power2amp/equal_lnn_AM6Hz_37.m4a,,,
,,,,,,,,,,,,36253,2021-05-01_02h27.20.620,judgeSpeechMusic_20210407_logNormShiftAmp,2020.1.2,Win32,60,,,,,,,,,,,,,,1,5.785815,,0,1,109,259,88,1,stimuli/stim_20210407_power2amp/equal_lnn_AM3.6Hz_24.m4a,,,
,,,,,,,,,,,,36253,2021-05-01_02h27.20.620,judgeSpeechMusic_20210407_logNormShiftAmp,2020.1.2,Win32,60,,,,,,,,,,,,,,2,5.89696,,0,1,110,260,98,1,stimuli/stim_20210407_power2amp/equal_lnn_AM4.2Hz_26.m4a,,,
,,,,,,,,,,,,36253,2021-05-01_02h27.20.620,judgeSpeechMusic_20210407_logNormShiftAmp,2020.1.2,Win32,60,,,,,,,,,,,,,,2,6.10534,,0,1,111,261,59,1,stimuli/stim_20210407_power2amp/equal_lnn_AM2.4Hz_79.m4a,,,
,,,,,,,,,,,,36253,2021-05-01_02h27.20.620,judgeSpeechMusic_20210407_logNormShiftAmp,2020.1.2,Win32,60,,,,,,,,,,,,,,1,7.098415,3,0,1,112,262,89,1,stimuli/stim_20210407_power2amp/equal_lnn_AM3.6Hz_39.m4a,1.25404,,
,,,,,,,,,,,,36253,2021-05-01_02h27.20.620,judgeSpeechMusic_20210407_logNormShiftAmp,2020.1.2,Win32,60,,,,,,,,,,,,,,1,7.241535,,0,1,113,263,5,1,stimuli/stim_20210407_power2amp/equal_lnn_AM0.6Hz_82.m4a,,,
,,,,,,,,,,,,36253,2021-05-01_02h27.20.620,judgeSpeechMusic_20210407_logNormShiftAmp,2020.1.2,Win32,60,,,,,,,,,,,,,,1,8.039115,,0,1,114,264,51,1,stimuli/stim_20210407_power2amp/equal_lnn_AM2.4Hz_72.m4a,,,
,,,,,,,,,,,,36253,2021-05-01_02h27.20.620,judgeSpeechMusic_20210407_logNormShiftAmp,2020.1.2,Win32,60,,,,,,,,,,,,,,1,11.46887,,0,1,115,265,148,1,stimuli/stim_20210407_power2amp/equal_lnn_AM6Hz_45.m4a,,,
,,,,,,,,,,,,36253,2021-05-01_02h27.20.620,judgeSpeechMusic_20210407_logNormShiftAmp,2020.1.2,Win32,60,,,,,,,,,,,,,,1,8.7555,,0,1,116,266,13,1,stimuli/stim_20210407_power2amp/equal_lnn_AM0.6Hz_100.m4a,,,
,,,,,,,,,,,,36253,2021-05-01_02h27.20.620,judgeSpeechMusic_20210407_logNormShiftAmp,2020.1.2,Win32,60,,,,,,,,,,,,,,2,11.85777,,0,1,117,267,85,1,stimuli/stim_20210407_power2amp/equal_lnn_AM3.6Hz_53.m4a,,,
,,,,,,,,,,,,36253,2021-05-01_02h27.20.620,judgeSpeechMusic_20210407_logNormShiftAmp,2020.1.2,Win32,60,,,,,,,,,,,,,,2,7.896005,,0,1,118,268,28,1,stimuli/stim_20210407_power2amp/equal_lnn_AM1.2Hz_8.m4a,,,
,,,,,,,,,,,,36253,2021-05-01_02h27.20.620,judgeSpeechMusic_20210407_logNormShiftAmp,2020.1.2,Win32,60,,,,,,,,,,,,,,2,7.66367,,0,1,119,269,19,1,stimuli/stim_20210407_power2amp/equal_lnn_AM1.2Hz_63.m4a,,,
,,,,,,,,,,,,36253,2021-05-01_02h27.20.620,judgeSpeechMusic_20210407_logNormShiftAmp,2020.1.2,Win32,60,,,,,,,,,,,,,,2,9.432195,,0,1,120,270,133,1,stimuli/stim_20210407_power2amp/equal_lnn_AM5.4Hz_40.m4a,,,
,,,,,,,,,,,,36253,2021-05-01_02h27.20.620,judgeSpeechMusic_20210407_logNormShiftAmp,2020.1.2,Win32,60,,,,,,,,,,,,,,2,7.684445,,0,1,121,271,2,1,stimuli/stim_20210407_power2amp/equal_lnn_AM0.6Hz_59.m4a,,,
,,,,,,,,,,,,36253,2021-05-01_02h27.20.620,judgeSpeechMusic_20210407_logNormShiftAmp,2020.1.2,Win32,60,,,,,,,,,,,,,,1,5.72237,,0,1,122,272,23,1,stimuli/stim_20210407_power2amp/equal_lnn_AM1.2Hz_50.m4a,,,
,,,,,,,,,,,,36253,2021-05-01_02h27.20.620,judgeSpeechMusic_20210407_logNormShiftAmp,2020.1.2,Win32,60,,,,,,,,,,,,,,2,5.60243,,0,1,123,273,76,1,stimuli/stim_20210407_power2amp/equal_lnn_AM3.6Hz_79.m4a,,,
,,,,,,,,,,,,36253,2021-05-01_02h27.20.620,judgeSpeechMusic_20210407_logNormShiftAmp,2020.1.2,Win32,60,,,,,,,,,,,,,,1,5.64669,,0,1,124,274,69,1,stimuli/stim_20210407_power2amp/equal_lnn_AM3Hz_19.m4a,,,
,,,,,,,,,,,,36253,2021-05-01_02h27.20.620,judgeSpeechMusic_20210407_logNormShiftAmp,2020.1.2,Win32,60,,,,,,,,,,,,,,1,7.48888,,0,1,125,275,57,1,stimuli/stim_20210407_power2amp/equal_lnn_AM2.4Hz_28.m4a,,,
,,,,,,,,,,,,36253,2021-05-01_02h27.20.620,judgeSpeechMusic_20210407_logNormShiftAmp,2020.1.2,Win32,60,,,,,,,,,,,,,,1,6.539115,,0,1,126,276,50,1,stimuli/stim_20210407_power2amp/equal_lnn_AM2.4Hz_73.m4a,,,
,,,,,,,,,,,,36253,2021-05-01_02h27.20.620,judgeSpeechMusic_20210407_logNormShiftAmp,2020.1.2,Win32,60,,,,,,,,,,,,,,1,6.71076,,0,1,127,277,74,1,stimuli/stim_20210407_power2amp/equal_lnn_AM3Hz_81.m4a,,,
,,,,,,,,,,,,36253,2021-05-01_02h27.20.620,judgeSpeechMusic_20210407_logNormShiftAmp,2020.1.2,Win32,60,,,,,,,,,,,,,,1,7.86419,,0,1,128,278,46,1,stimuli/stim_20210407_power2amp/equal_lnn_AM2.4Hz_33.m4a,,,
,,,,,,,,,,,,36253,2021-05-01_02h27.20.620,judgeSpeechMusic_20210407_logNormShiftAmp,2020.1.2,Win32,60,,,,,,,,,,,,,,2,7.594175,,0,1,129,279,108,1,stimuli/stim_20210407_power2amp/equal_lnn_AM4.8Hz_50.m4a,,,
,,,,,,,,,,,,36253,2021-05-01_02h27.20.620,judgeSpeechMusic_20210407_logNormShiftAmp,2020.1.2,Win32,60,,,,,,,,,,,,,,2,7.7638,,0,1,130,280,56,1,stimuli/stim_20210407_power2amp/equal_lnn_AM2.4Hz_96.m4a,,,
,,,,,,,,,,,,36253,2021-05-01_02h27.20.620,judgeSpeechMusic_20210407_logNormShiftAmp,2020.1.2,Win32,60,,,,,,,,,,,,,,2,6.328355,,0,1,131,281,134,1,stimuli/stim_20210407_power2amp/equal_lnn_AM5.4Hz_17.m4a,,,
,,,,,,,,,,,,36253,2021-05-01_02h27.20.620,judgeSpeechMusic_20210407_logNormShiftAmp,2020.1.2,Win32,60,,,,,,,,,,,,,,1,7.580655,,0,1,132,282,91,1,stimuli/stim_20210407_power2amp/equal_lnn_AM4.2Hz_27.m4a,,,
,,,,,,,,,,,,36253,2021-05-01_02h27.20.620,judgeSpeechMusic_20210407_logNormShiftAmp,2020.1.2,Win32,60,,,,,,,,,,,,,,1,6.10101,,0,1,133,283,55,1,stimuli/stim_20210407_power2amp/equal_lnn_AM2.4Hz_32.m4a,,,
,,,,,,,,,,,,36253,2021-05-01_02h27.20.620,judgeSpeechMusic_20210407_logNormShiftAmp,2020.1.2,Win32,60,,,,,,,,,,,,,,1,8.84717,,0,1,134,284,138,1,stimuli/stim_20210407_power2amp/equal_lnn_AM6Hz_97.m4a,,,
,,,,,,,,,,,,36253,2021-05-01_02h27.20.620,judgeSpeechMusic_20210407_logNormShiftAmp,2020.1.2,Win32,60,,,,,,,,,,,,,,1,5.568535,,0,1,135,285,137,1,stimuli/stim_20210407_power2amp/equal_lnn_AM6Hz_20.m4a,,,
,,,,,,,,,,,,36253,2021-05-01_02h27.20.620,judgeSpeechMusic_20210407_logNormShiftAmp,2020.1.2,Win32,60,,,,,,,,,,,,,,1,5.564085,1,1,1,136,286,0,1,stimuli/stim_20210407_power2amp/equal_lnn_AM0.6Hz_26.m4a,0.39402,,
,,,,,,,,,,,,36253,2021-05-01_02h27.20.620,judgeSpeechMusic_20210407_logNormShiftAmp,2020.1.2,Win32,60,,,,,,,,,,,,,,2,5.57151,,0,1,137,287,147,1,stimuli/stim_20210407_power2amp/equal_lnn_AM6Hz_49.m4a,,,
,,,,,,,,,,,,36253,2021-05-01_02h27.20.620,judgeSpeechMusic_20210407_logNormShiftAmp,2020.1.2,Win32,60,,,,,,,,,,,,,,1,6.015805,,0,1,138,288,41,1,stimuli/stim_20210407_power2amp/equal_lnn_AM1.8Hz_99.m4a,,,
,,,,,,,,,,,,36253,2021-05-01_02h27.20.620,judgeSpeechMusic_20210407_logNormShiftAmp,2020.1.2,Win32,60,,,,,,,,,,,,,,1,5.831245,,0,1,139,289,129,1,stimuli/stim_20210407_power2amp/equal_lnn_AM5.4Hz_14.m4a,,,
,,,,,,,,,,,,36253,2021-05-01_02h27.20.620,judgeSpeechMusic_20210407_logNormShiftAmp,2020.1.2,Win32,60,,,,,,,,,,,,,,1,7.96092,,0,1,140,290,131,1,stimuli/stim_20210407_power2amp/equal_lnn_AM5.4Hz_74.m4a,,,
,,,,,,,,,,,,36253,2021-05-01_02h27.20.620,judgeSpeechMusic_20210407_logNormShiftAmp,2020.1.2,Win32,60,,,,,,,,,,,,,,1,6.24318,,0,1,141,291,36,1,stimuli/stim_20210407_power2amp/equal_lnn_AM1.8Hz_89.m4a,,,
,,,,,,,,,,,,36253,2021-05-01_02h27.20.620,judgeSpeechMusic_20210407_logNormShiftAmp,2020.1.2,Win32,60,,,,,,,,,,,,,,1,6.86448,,0,1,142,292,15,1,stimuli/stim_20210407_power2amp/equal_lnn_AM1.2Hz_55.m4a,,,
,,,,,,,,,,,,36253,2021-05-01_02h27.20.620,judgeSpeechMusic_20210407_logNormShiftAmp,2020.1.2,Win32,60,,,,,,,,,,,,,,2,6.06459,,0,1,143,293,72,1,stimuli/stim_20210407_power2amp/equal_lnn_AM3Hz_51.m4a,,,
,,,,,,,,,,,,36253,2021-05-01_02h27.20.620,judgeSpeechMusic_20210407_logNormShiftAmp,2020.1.2,Win32,60,,,,,,,,,,,,,,2,6.05364,,0,1,144,294,140,1,stimuli/stim_20210407_power2amp/equal_lnn_AM6Hz_1.m4a,,,
,,,,,,,,,,,,36253,2021-05-01_02h27.20.620,judgeSpeechMusic_20210407_logNormShiftAmp,2020.1.2,Win32,60,,,,,,,,,,,,,,2,7.236455,,0,1,145,295,62,1,stimuli/stim_20210407_power2amp/equal_lnn_AM3Hz_29.m4a,,,
,,,,,,,,,,,,36253,2021-05-01_02h27.20.620,judgeSpeechMusic_20210407_logNormShiftAmp,2020.1.2,Win32,60,,,,,,,,,,,,,,2,7.64906,,0,1,146,296,73,1,stimuli/stim_20210407_power2amp/equal_lnn_AM3Hz_99.m4a,,,
,,,,,,,,,,,,36253,2021-05-01_02h27.20.620,judgeSpeechMusic_20210407_logNormShiftAmp,2020.1.2,Win32,60,,,,,,,,,,,,,,1,7.77145,,0,1,147,297,102,1,stimuli/stim_20210407_power2amp/equal_lnn_AM4.2Hz_31.m4a,,,
,,,,,,,,,,,,36253,2021-05-01_02h27.20.620,judgeSpeechMusic_20210407_logNormShiftAmp,2020.1.2,Win32,60,,,,,,,,,,,,,,1,5.5696,,0,1,148,298,127,1,stimuli/stim_20210407_power2amp/equal_lnn_AM5.4Hz_85.m4a,,,
,,,,,,,,,,,,36253,2021-05-01_02h27.20.620,judgeSpeechMusic_20210407_logNormShiftAmp,2020.1.2,Win32,60,,,,,,,,,,,,,,2,5.6644,,0,1,149,299,82,1,stimuli/stim_20210407_power2amp/equal_lnn_AM3.6Hz_69.m4a,,,
,,,,,,,,,,,,36253,2021-05-01_02h27.20.620,judgeSpeechMusic_20210407_logNormShiftAmp,2020.1.2,Win32,60,,,,,,,,,,,,,,,,,,,,,,,,,space,4.54838
