headphoneResponse.keys,headphoneResponse.corr,headphoneResponse.rt,headphoneTrial.thisRepN,headphoneTrial.thisTrialN,headphoneTrial.thisN,headphoneTrial.thisIndex,headphoneTrial.ran,headphone_sound1,headphone_sound2,headphone_sound3,corrAns,participant,date,expName,psychopyVersion,OS,frameRate,trainSlider.response,trainSlider.rt,beepTrainResponse.keys,beepTrainResponse.corr,trainingTrials.thisRepN,trainingTrials.thisTrialN,trainingTrials.thisN,trainingTrials.thisIndex,trainingTrials.ran,trainAudioFile,beepTrainResponse.rt,readyReal_resp.keys,readyReal_resp.rt,ratingSlider.response,ratingSlider.rt,beepResp.keys,beepResp.corr,expTrials.thisRepN,expTrials.thisTrialN,expTrials.thisN,expTrials.thisIndex,expTrials.ran,audioFile,beepResp.rt,end_resp.keys,end_resp.rt
1,1,0.942125,0,0,0,4,1,stimuli/screen_quiet.wav,stimuli/screen_antiphase.wav,stimuli/screen_origin.wav,1,36393,2021-04-23_16h29.06.214,judgeSpeechMusic_20210407_logNormShiftAmp,2020.1.2,Win32,60,,,,,,,,,,,,,,,,,,,,,,,,,,
2,1,0.67764,0,1,1,3,1,stimuli/screen_origin.wav,stimuli/screen_quiet.wav,stimuli/screen_antiphase.wav,2,36393,2021-04-23_16h29.06.214,judgeSpeechMusic_20210407_logNormShiftAmp,2020.1.2,Win32,60,,,,,,,,,,,,,,,,,,,,,,,,,,
3,1,0.801505,0,2,2,2,1,stimuli/screen_origin.wav,stimuli/screen_antiphase.wav,stimuli/screen_quiet.wav,3,36393,2021-04-23_16h29.06.214,judgeSpeechMusic_20210407_logNormShiftAmp,2020.1.2,Win32,60,,,,,,,,,,,,,,,,,,,,,,,,,,
1,1,0.50273,0,3,3,5,1,stimuli/screen_quiet.wav,stimuli/screen_origin.wav,stimuli/screen_antiphase.wav,1,36393,2021-04-23_16h29.06.214,judgeSpeechMusic_20210407_logNormShiftAmp,2020.1.2,Win32,60,,,,,,,,,,,,,,,,,,,,,,,,,,
3,1,0.434055,0,4,4,0,1,stimuli/screen_antiphase.wav,stimuli/screen_origin.wav,stimuli/screen_quiet.wav,3,36393,2021-04-23_16h29.06.214,judgeSpeechMusic_20210407_logNormShiftAmp,2020.1.2,Win32,60,,,,,,,,,,,,,,,,,,,,,,,,,,
2,1,0.4501,0,5,5,1,1,stimuli/screen_antiphase.wav,stimuli/screen_quiet.wav,stimuli/screen_origin.wav,2,36393,2021-04-23_16h29.06.214,judgeSpeechMusic_20210407_logNormShiftAmp,2020.1.2,Win32,60,,,,,,,,,,,,,,,,,,,,,,,,,,
,,,,,,,,,,,,36393,2021-04-23_16h29.06.214,judgeSpeechMusic_20210407_logNormShiftAmp,2020.1.2,Win32,60,2,12.345265,,0,0,0,0,2,1,stimuli/stim_20210407_power2amp/equal_lnn_AM_training3.9Hz.m4a,,,,,,,,,,,,,,,,
,,,,,,,,,,,,36393,2021-04-23_16h29.06.214,judgeSpeechMusic_20210407_logNormShiftAmp,2020.1.2,Win32,60,1,11.325345,,0,0,1,1,1,1,stimuli/stim_20210407_power2amp/equal_lnn_AM_training2.7Hz.m4a,,,,,,,,,,,,,,,,
,,,,,,,,,,,,36393,2021-04-23_16h29.06.214,judgeSpeechMusic_20210407_logNormShiftAmp,2020.1.2,Win32,60,2,7.235295,2,1,0,2,2,0,1,stimuli/stim_20210407_power2amp/equal_lnn_AM_training1.5Hz.m4a,2.05452,,,,,,,,,,,,,,,
,,,,,,,,,,,,36393,2021-04-23_16h29.06.214,judgeSpeechMusic_20210407_logNormShiftAmp,2020.1.2,Win32,60,1,6.75076,,0,0,3,3,3,1,stimuli/stim_20210407_power2amp/equal_lnn_AM_training5.1Hz.m4a,,,,,,,,,,,,,,,,
,,,,,,,,,,,,36393,2021-04-23_16h29.06.214,judgeSpeechMusic_20210407_logNormShiftAmp,2020.1.2,Win32,60,,,,,,,,,,,,space,9.34149,1,6.31858,,0,0,0,0,115,1,stimuli/stim_20210407_power2amp/equal_lnn_AM4.8Hz_64.m4a,,,
,,,,,,,,,,,,36393,2021-04-23_16h29.06.214,judgeSpeechMusic_20210407_logNormShiftAmp,2020.1.2,Win32,60,,,,,,,,,,,,,,2,7.080545,,0,0,1,1,23,1,stimuli/stim_20210407_power2amp/equal_lnn_AM1.2Hz_30.m4a,,,
,,,,,,,,,,,,36393,2021-04-23_16h29.06.214,judgeSpeechMusic_20210407_logNormShiftAmp,2020.1.2,Win32,60,,,,,,,,,,,,,,1,6.450775,,0,0,2,2,140,1,stimuli/stim_20210407_power2amp/equal_lnn_AM6Hz_29.m4a,,,
,,,,,,,,,,,,36393,2021-04-23_16h29.06.214,judgeSpeechMusic_20210407_logNormShiftAmp,2020.1.2,Win32,60,,,,,,,,,,,,,,2,6.48898,,0,0,3,3,71,1,stimuli/stim_20210407_power2amp/equal_lnn_AM3Hz_89.m4a,,,
,,,,,,,,,,,,36393,2021-04-23_16h29.06.214,judgeSpeechMusic_20210407_logNormShiftAmp,2020.1.2,Win32,60,,,,,,,,,,,,,,1,6.81062,,0,0,4,4,60,1,stimuli/stim_20210407_power2amp/equal_lnn_AM3Hz_8.m4a,,,
,,,,,,,,,,,,36393,2021-04-23_16h29.06.214,judgeSpeechMusic_20210407_logNormShiftAmp,2020.1.2,Win32,60,,,,,,,,,,,,,,2,7.27715,,0,0,5,5,54,1,stimuli/stim_20210407_power2amp/equal_lnn_AM2.4Hz_66.m4a,,,
,,,,,,,,,,,,36393,2021-04-23_16h29.06.214,judgeSpeechMusic_20210407_logNormShiftAmp,2020.1.2,Win32,60,,,,,,,,,,,,,,2,6.205705,,0,0,6,6,40,1,stimuli/stim_20210407_power2amp/equal_lnn_AM1.8Hz_98.m4a,,,
,,,,,,,,,,,,36393,2021-04-23_16h29.06.214,judgeSpeechMusic_20210407_logNormShiftAmp,2020.1.2,Win32,60,,,,,,,,,,,,,,1,6.466925,,0,0,7,7,56,1,stimuli/stim_20210407_power2amp/equal_lnn_AM2.4Hz_63.m4a,,,
,,,,,,,,,,,,36393,2021-04-23_16h29.06.214,judgeSpeechMusic_20210407_logNormShiftAmp,2020.1.2,Win32,60,,,,,,,,,,,,,,1,5.86278,,0,0,8,8,108,1,stimuli/stim_20210407_power2amp/equal_lnn_AM4.8Hz_49.m4a,,,
,,,,,,,,,,,,36393,2021-04-23_16h29.06.214,judgeSpeechMusic_20210407_logNormShiftAmp,2020.1.2,Win32,60,,,,,,,,,,,,,,1,5.860305,,0,0,9,9,135,1,stimuli/stim_20210407_power2amp/equal_lnn_AM6Hz_14.m4a,,,
,,,,,,,,,,,,36393,2021-04-23_16h29.06.214,judgeSpeechMusic_20210407_logNormShiftAmp,2020.1.2,Win32,60,,,,,,,,,,,,,,1,6.19654,,0,0,10,10,114,1,stimuli/stim_20210407_power2amp/equal_lnn_AM4.8Hz_40.m4a,,,
,,,,,,,,,,,,36393,2021-04-23_16h29.06.214,judgeSpeechMusic_20210407_logNormShiftAmp,2020.1.2,Win32,60,,,,,,,,,,,,,,2,6.821735,,0,0,11,11,82,1,stimuli/stim_20210407_power2amp/equal_lnn_AM3.6Hz_62.m4a,,,
,,,,,,,,,,,,36393,2021-04-23_16h29.06.214,judgeSpeechMusic_20210407_logNormShiftAmp,2020.1.2,Win32,60,,,,,,,,,,,,,,2,6.018105,,0,0,12,12,4,1,stimuli/stim_20210407_power2amp/equal_lnn_AM0.6Hz_96.m4a,,,
,,,,,,,,,,,,36393,2021-04-23_16h29.06.214,judgeSpeechMusic_20210407_logNormShiftAmp,2020.1.2,Win32,60,,,,,,,,,,,,,,1,7.20114,,0,0,13,13,76,1,stimuli/stim_20210407_power2amp/equal_lnn_AM3.6Hz_81.m4a,,,
,,,,,,,,,,,,36393,2021-04-23_16h29.06.214,judgeSpeechMusic_20210407_logNormShiftAmp,2020.1.2,Win32,60,,,,,,,,,,,,,,1,6.270015,,0,0,14,14,99,1,stimuli/stim_20210407_power2amp/equal_lnn_AM4.2Hz_53.m4a,,,
,,,,,,,,,,,,36393,2021-04-23_16h29.06.214,judgeSpeechMusic_20210407_logNormShiftAmp,2020.1.2,Win32,60,,,,,,,,,,,,,,1,6.019395,,0,0,15,15,121,1,stimuli/stim_20210407_power2amp/equal_lnn_AM5.4Hz_26.m4a,,,
,,,,,,,,,,,,36393,2021-04-23_16h29.06.214,judgeSpeechMusic_20210407_logNormShiftAmp,2020.1.2,Win32,60,,,,,,,,,,,,,,1,6.69436,,0,0,16,16,21,1,stimuli/stim_20210407_power2amp/equal_lnn_AM1.2Hz_92.m4a,,,
,,,,,,,,,,,,36393,2021-04-23_16h29.06.214,judgeSpeechMusic_20210407_logNormShiftAmp,2020.1.2,Win32,60,,,,,,,,,,,,,,1,5.85389,,0,0,17,17,79,1,stimuli/stim_20210407_power2amp/equal_lnn_AM3.6Hz_32.m4a,,,
,,,,,,,,,,,,36393,2021-04-23_16h29.06.214,judgeSpeechMusic_20210407_logNormShiftAmp,2020.1.2,Win32,60,,,,,,,,,,,,,,2,5.765835,,0,0,18,18,125,1,stimuli/stim_20210407_power2amp/equal_lnn_AM5.4Hz_31.m4a,,,
,,,,,,,,,,,,36393,2021-04-23_16h29.06.214,judgeSpeechMusic_20210407_logNormShiftAmp,2020.1.2,Win32,60,,,,,,,,,,,,,,1,8.28647,,0,0,19,19,133,1,stimuli/stim_20210407_power2amp/equal_lnn_AM5.4Hz_83.m4a,,,
,,,,,,,,,,,,36393,2021-04-23_16h29.06.214,judgeSpeechMusic_20210407_logNormShiftAmp,2020.1.2,Win32,60,,,,,,,,,,,,,,2,13.00139,,0,0,20,20,42,1,stimuli/stim_20210407_power2amp/equal_lnn_AM1.8Hz_41.m4a,,,
,,,,,,,,,,,,36393,2021-04-23_16h29.06.214,judgeSpeechMusic_20210407_logNormShiftAmp,2020.1.2,Win32,60,,,,,,,,,,,,,,2,6.184905,,0,0,21,21,17,1,stimuli/stim_20210407_power2amp/equal_lnn_AM1.2Hz_6.m4a,,,
,,,,,,,,,,,,36393,2021-04-23_16h29.06.214,judgeSpeechMusic_20210407_logNormShiftAmp,2020.1.2,Win32,60,,,,,,,,,,,,,,1,6.106925,,0,0,22,22,53,1,stimuli/stim_20210407_power2amp/equal_lnn_AM2.4Hz_81.m4a,,,
,,,,,,,,,,,,36393,2021-04-23_16h29.06.214,judgeSpeechMusic_20210407_logNormShiftAmp,2020.1.2,Win32,60,,,,,,,,,,,,,,1,5.91745,,0,0,23,23,122,1,stimuli/stim_20210407_power2amp/equal_lnn_AM5.4Hz_5.m4a,,,
,,,,,,,,,,,,36393,2021-04-23_16h29.06.214,judgeSpeechMusic_20210407_logNormShiftAmp,2020.1.2,Win32,60,,,,,,,,,,,,,,1,5.93881,,0,0,24,24,103,1,stimuli/stim_20210407_power2amp/equal_lnn_AM4.2Hz_15.m4a,,,
,,,,,,,,,,,,36393,2021-04-23_16h29.06.214,judgeSpeechMusic_20210407_logNormShiftAmp,2020.1.2,Win32,60,,,,,,,,,,,,,,2,7.4062,,0,0,25,25,123,1,stimuli/stim_20210407_power2amp/equal_lnn_AM5.4Hz_76.m4a,,,
,,,,,,,,,,,,36393,2021-04-23_16h29.06.214,judgeSpeechMusic_20210407_logNormShiftAmp,2020.1.2,Win32,60,,,,,,,,,,,,,,1,7.036895,,0,0,26,26,63,1,stimuli/stim_20210407_power2amp/equal_lnn_AM3Hz_39.m4a,,,
,,,,,,,,,,,,36393,2021-04-23_16h29.06.214,judgeSpeechMusic_20210407_logNormShiftAmp,2020.1.2,Win32,60,,,,,,,,,,,,,,1,6.13993,,0,0,27,27,111,1,stimuli/stim_20210407_power2amp/equal_lnn_AM4.8Hz_46.m4a,,,
,,,,,,,,,,,,36393,2021-04-23_16h29.06.214,judgeSpeechMusic_20210407_logNormShiftAmp,2020.1.2,Win32,60,,,,,,,,,,,,,,1,5.768875,,0,0,28,28,127,1,stimuli/stim_20210407_power2amp/equal_lnn_AM5.4Hz_46.m4a,,,
,,,,,,,,,,,,36393,2021-04-23_16h29.06.214,judgeSpeechMusic_20210407_logNormShiftAmp,2020.1.2,Win32,60,,,,,,,,,,,,,,2,6.878215,,0,0,29,29,65,1,stimuli/stim_20210407_power2amp/equal_lnn_AM3Hz_70.m4a,,,
,,,,,,,,,,,,36393,2021-04-23_16h29.06.214,judgeSpeechMusic_20210407_logNormShiftAmp,2020.1.2,Win32,60,,,,,,,,,,,,,,1,8.954215,,0,0,30,30,32,1,stimuli/stim_20210407_power2amp/equal_lnn_AM1.8Hz_68.m4a,,,
,,,,,,,,,,,,36393,2021-04-23_16h29.06.214,judgeSpeechMusic_20210407_logNormShiftAmp,2020.1.2,Win32,60,,,,,,,,,,,,,,2,6.308935,,0,0,31,31,30,1,stimuli/stim_20210407_power2amp/equal_lnn_AM1.8Hz_44.m4a,,,
,,,,,,,,,,,,36393,2021-04-23_16h29.06.214,judgeSpeechMusic_20210407_logNormShiftAmp,2020.1.2,Win32,60,,,,,,,,,,,,,,1,6.80044,4,1,0,32,32,113,1,stimuli/stim_20210407_power2amp/equal_lnn_AM4.8Hz_61.m4a,2.996505,,
,,,,,,,,,,,,36393,2021-04-23_16h29.06.214,judgeSpeechMusic_20210407_logNormShiftAmp,2020.1.2,Win32,60,,,,,,,,,,,,,,2,7.56148,,0,0,33,33,124,1,stimuli/stim_20210407_power2amp/equal_lnn_AM5.4Hz_90.m4a,,,
,,,,,,,,,,,,36393,2021-04-23_16h29.06.214,judgeSpeechMusic_20210407_logNormShiftAmp,2020.1.2,Win32,60,,,,,,,,,,,,,,1,8.90301,,0,0,34,34,117,1,stimuli/stim_20210407_power2amp/equal_lnn_AM4.8Hz_13.m4a,,,
,,,,,,,,,,,,36393,2021-04-23_16h29.06.214,judgeSpeechMusic_20210407_logNormShiftAmp,2020.1.2,Win32,60,,,,,,,,,,,,,,1,15.066375,,0,0,35,35,83,1,stimuli/stim_20210407_power2amp/equal_lnn_AM3.6Hz_14.m4a,,,
,,,,,,,,,,,,36393,2021-04-23_16h29.06.214,judgeSpeechMusic_20210407_logNormShiftAmp,2020.1.2,Win32,60,,,,,,,,,,,,,,2,7.423265,,0,0,36,36,84,1,stimuli/stim_20210407_power2amp/equal_lnn_AM3.6Hz_50.m4a,,,
,,,,,,,,,,,,36393,2021-04-23_16h29.06.214,judgeSpeechMusic_20210407_logNormShiftAmp,2020.1.2,Win32,60,,,,,,,,,,,,,,1,7.472585,,0,0,37,37,112,1,stimuli/stim_20210407_power2amp/equal_lnn_AM4.8Hz_67.m4a,,,
,,,,,,,,,,,,36393,2021-04-23_16h29.06.214,judgeSpeechMusic_20210407_logNormShiftAmp,2020.1.2,Win32,60,,,,,,,,,,,,,,2,9.075765,,0,0,38,38,107,1,stimuli/stim_20210407_power2amp/equal_lnn_AM4.8Hz_57.m4a,,,
,,,,,,,,,,,,36393,2021-04-23_16h29.06.214,judgeSpeechMusic_20210407_logNormShiftAmp,2020.1.2,Win32,60,,,,,,,,,,,,,,1,10.95221,,0,0,39,39,43,1,stimuli/stim_20210407_power2amp/equal_lnn_AM1.8Hz_15.m4a,,,
,,,,,,,,,,,,36393,2021-04-23_16h29.06.214,judgeSpeechMusic_20210407_logNormShiftAmp,2020.1.2,Win32,60,,,,,,,,,,,,,,1,7.2555,,0,0,40,40,130,1,stimuli/stim_20210407_power2amp/equal_lnn_AM5.4Hz_75.m4a,,,
,,,,,,,,,,,,36393,2021-04-23_16h29.06.214,judgeSpeechMusic_20210407_logNormShiftAmp,2020.1.2,Win32,60,,,,,,,,,,,,,,2,9.47457,,0,0,41,41,86,1,stimuli/stim_20210407_power2amp/equal_lnn_AM3.6Hz_25.m4a,,,
,,,,,,,,,,,,36393,2021-04-23_16h29.06.214,judgeSpeechMusic_20210407_logNormShiftAmp,2020.1.2,Win32,60,,,,,,,,,,,,,,2,15.086955,,0,0,42,42,36,1,stimuli/stim_20210407_power2amp/equal_lnn_AM1.8Hz_45.m4a,,,
,,,,,,,,,,,,36393,2021-04-23_16h29.06.214,judgeSpeechMusic_20210407_logNormShiftAmp,2020.1.2,Win32,60,,,,,,,,,,,,,,1,8.95982,,0,0,43,43,88,1,stimuli/stim_20210407_power2amp/equal_lnn_AM3.6Hz_42.m4a,,,
,,,,,,,,,,,,36393,2021-04-23_16h29.06.214,judgeSpeechMusic_20210407_logNormShiftAmp,2020.1.2,Win32,60,,,,,,,,,,,,,,1,10.20204,,0,0,44,44,120,1,stimuli/stim_20210407_power2amp/equal_lnn_AM5.4Hz_74.m4a,,,
,,,,,,,,,,,,36393,2021-04-23_16h29.06.214,judgeSpeechMusic_20210407_logNormShiftAmp,2020.1.2,Win32,60,,,,,,,,,,,,,,2,8.29085,,0,0,45,45,148,1,stimuli/stim_20210407_power2amp/equal_lnn_AM6Hz_63.m4a,,,
,,,,,,,,,,,,36393,2021-04-23_16h29.06.214,judgeSpeechMusic_20210407_logNormShiftAmp,2020.1.2,Win32,60,,,,,,,,,,,,,,1,10.420025,,0,0,46,46,61,1,stimuli/stim_20210407_power2amp/equal_lnn_AM3Hz_58.m4a,,,
,,,,,,,,,,,,36393,2021-04-23_16h29.06.214,judgeSpeechMusic_20210407_logNormShiftAmp,2020.1.2,Win32,60,,,,,,,,,,,,,,1,6.83534,,0,0,47,47,119,1,stimuli/stim_20210407_power2amp/equal_lnn_AM4.8Hz_23.m4a,,,
,,,,,,,,,,,,36393,2021-04-23_16h29.06.214,judgeSpeechMusic_20210407_logNormShiftAmp,2020.1.2,Win32,60,,,,,,,,,,,,,,2,9.984745,,0,0,48,48,128,1,stimuli/stim_20210407_power2amp/equal_lnn_AM5.4Hz_71.m4a,,,
,,,,,,,,,,,,36393,2021-04-23_16h29.06.214,judgeSpeechMusic_20210407_logNormShiftAmp,2020.1.2,Win32,60,,,,,,,,,,,,,,1,10.036715,,0,0,49,49,131,1,stimuli/stim_20210407_power2amp/equal_lnn_AM5.4Hz_57.m4a,,,
,,,,,,,,,,,,36393,2021-04-23_16h29.06.214,judgeSpeechMusic_20210407_logNormShiftAmp,2020.1.2,Win32,60,,,,,,,,,,,,,,2,7.00308,,0,0,50,50,29,1,stimuli/stim_20210407_power2amp/equal_lnn_AM1.2Hz_21.m4a,,,
,,,,,,,,,,,,36393,2021-04-23_16h29.06.214,judgeSpeechMusic_20210407_logNormShiftAmp,2020.1.2,Win32,60,,,,,,,,,,,,,,1,7.035445,,0,0,51,51,62,1,stimuli/stim_20210407_power2amp/equal_lnn_AM3Hz_13.m4a,,,
,,,,,,,,,,,,36393,2021-04-23_16h29.06.214,judgeSpeechMusic_20210407_logNormShiftAmp,2020.1.2,Win32,60,,,,,,,,,,,,,,1,7.567715,,0,0,52,52,85,1,stimuli/stim_20210407_power2amp/equal_lnn_AM3.6Hz_28.m4a,,,
,,,,,,,,,,,,36393,2021-04-23_16h29.06.214,judgeSpeechMusic_20210407_logNormShiftAmp,2020.1.2,Win32,60,,,,,,,,,,,,,,2,9.072305,4,1,0,53,53,25,1,stimuli/stim_20210407_power2amp/equal_lnn_AM1.2Hz_34.m4a,2.637785,,
,,,,,,,,,,,,36393,2021-04-23_16h29.06.214,judgeSpeechMusic_20210407_logNormShiftAmp,2020.1.2,Win32,60,,,,,,,,,,,,,,2,9.150915,,0,0,54,54,74,1,stimuli/stim_20210407_power2amp/equal_lnn_AM3Hz_77.m4a,,,
,,,,,,,,,,,,36393,2021-04-23_16h29.06.214,judgeSpeechMusic_20210407_logNormShiftAmp,2020.1.2,Win32,60,,,,,,,,,,,,,,1,7.123125,,0,0,55,55,136,1,stimuli/stim_20210407_power2amp/equal_lnn_AM6Hz_74.m4a,,,
,,,,,,,,,,,,36393,2021-04-23_16h29.06.214,judgeSpeechMusic_20210407_logNormShiftAmp,2020.1.2,Win32,60,,,,,,,,,,,,,,2,9.04518,,0,0,56,56,81,1,stimuli/stim_20210407_power2amp/equal_lnn_AM3.6Hz_57.m4a,,,
,,,,,,,,,,,,36393,2021-04-23_16h29.06.214,judgeSpeechMusic_20210407_logNormShiftAmp,2020.1.2,Win32,60,,,,,,,,,,,,,,2,8.86609,,0,0,57,57,37,1,stimuli/stim_20210407_power2amp/equal_lnn_AM1.8Hz_14.m4a,,,
,,,,,,,,,,,,36393,2021-04-23_16h29.06.214,judgeSpeechMusic_20210407_logNormShiftAmp,2020.1.2,Win32,60,,,,,,,,,,,,,,2,6.135565,,0,0,58,58,2,1,stimuli/stim_20210407_power2amp/equal_lnn_AM0.6Hz_62.m4a,,,
,,,,,,,,,,,,36393,2021-04-23_16h29.06.214,judgeSpeechMusic_20210407_logNormShiftAmp,2020.1.2,Win32,60,,,,,,,,,,,,,,1,6.565495,,0,0,59,59,116,1,stimuli/stim_20210407_power2amp/equal_lnn_AM4.8Hz_62.m4a,,,
,,,,,,,,,,,,36393,2021-04-23_16h29.06.214,judgeSpeechMusic_20210407_logNormShiftAmp,2020.1.2,Win32,60,,,,,,,,,,,,,,1,6.805035,,0,0,60,60,141,1,stimuli/stim_20210407_power2amp/equal_lnn_AM6Hz_55.m4a,,,
,,,,,,,,,,,,36393,2021-04-23_16h29.06.214,judgeSpeechMusic_20210407_logNormShiftAmp,2020.1.2,Win32,60,,,,,,,,,,,,,,1,6.025805,,0,0,61,61,91,1,stimuli/stim_20210407_power2amp/equal_lnn_AM4.2Hz_57.m4a,,,
,,,,,,,,,,,,36393,2021-04-23_16h29.06.214,judgeSpeechMusic_20210407_logNormShiftAmp,2020.1.2,Win32,60,,,,,,,,,,,,,,2,6.87071,,0,0,62,62,6,1,stimuli/stim_20210407_power2amp/equal_lnn_AM0.6Hz_91.m4a,,,
,,,,,,,,,,,,36393,2021-04-23_16h29.06.214,judgeSpeechMusic_20210407_logNormShiftAmp,2020.1.2,Win32,60,,,,,,,,,,,,,,1,9.757685,,0,0,63,63,129,1,stimuli/stim_20210407_power2amp/equal_lnn_AM5.4Hz_22.m4a,,,
,,,,,,,,,,,,36393,2021-04-23_16h29.06.214,judgeSpeechMusic_20210407_logNormShiftAmp,2020.1.2,Win32,60,,,,,,,,,,,,,,1,11.05408,,0,0,64,64,44,1,stimuli/stim_20210407_power2amp/equal_lnn_AM1.8Hz_1.m4a,,,
,,,,,,,,,,,,36393,2021-04-23_16h29.06.214,judgeSpeechMusic_20210407_logNormShiftAmp,2020.1.2,Win32,60,,,,,,,,,,,,,,2,9.035135,,0,0,65,65,22,1,stimuli/stim_20210407_power2amp/equal_lnn_AM1.2Hz_11.m4a,,,
,,,,,,,,,,,,36393,2021-04-23_16h29.06.214,judgeSpeechMusic_20210407_logNormShiftAmp,2020.1.2,Win32,60,,,,,,,,,,,,,,1,8.31684,,0,0,66,66,11,1,stimuli/stim_20210407_power2amp/equal_lnn_AM0.6Hz_95.m4a,,,
,,,,,,,,,,,,36393,2021-04-23_16h29.06.214,judgeSpeechMusic_20210407_logNormShiftAmp,2020.1.2,Win32,60,,,,,,,,,,,,,,2,7.774175,,0,0,67,67,89,1,stimuli/stim_20210407_power2amp/equal_lnn_AM3.6Hz_21.m4a,,,
,,,,,,,,,,,,36393,2021-04-23_16h29.06.214,judgeSpeechMusic_20210407_logNormShiftAmp,2020.1.2,Win32,60,,,,,,,,,,,,,,2,6.47564,,0,0,68,68,68,1,stimuli/stim_20210407_power2amp/equal_lnn_AM3Hz_90.m4a,,,
,,,,,,,,,,,,36393,2021-04-23_16h29.06.214,judgeSpeechMusic_20210407_logNormShiftAmp,2020.1.2,Win32,60,,,,,,,,,,,,,,1,7.4328,,0,0,69,69,143,1,stimuli/stim_20210407_power2amp/equal_lnn_AM6Hz_75.m4a,,,
,,,,,,,,,,,,36393,2021-04-23_16h29.06.214,judgeSpeechMusic_20210407_logNormShiftAmp,2020.1.2,Win32,60,,,,,,,,,,,,,,1,7.08901,,0,0,70,70,146,1,stimuli/stim_20210407_power2amp/equal_lnn_AM6Hz_36.m4a,,,
,,,,,,,,,,,,36393,2021-04-23_16h29.06.214,judgeSpeechMusic_20210407_logNormShiftAmp,2020.1.2,Win32,60,,,,,,,,,,,,,,1,6.425115,,0,0,71,71,134,1,stimuli/stim_20210407_power2amp/equal_lnn_AM5.4Hz_96.m4a,,,
,,,,,,,,,,,,36393,2021-04-23_16h29.06.214,judgeSpeechMusic_20210407_logNormShiftAmp,2020.1.2,Win32,60,,,,,,,,,,,,,,2,7.851285,,0,0,72,72,7,1,stimuli/stim_20210407_power2amp/equal_lnn_AM0.6Hz_9.m4a,,,
,,,,,,,,,,,,36393,2021-04-23_16h29.06.214,judgeSpeechMusic_20210407_logNormShiftAmp,2020.1.2,Win32,60,,,,,,,,,,,,,,2,5.939985,1,1,0,73,73,67,1,stimuli/stim_20210407_power2amp/equal_lnn_AM3Hz_72.m4a,1.17095,,
,,,,,,,,,,,,36393,2021-04-23_16h29.06.214,judgeSpeechMusic_20210407_logNormShiftAmp,2020.1.2,Win32,60,,,,,,,,,,,,,,2,8.36,,0,0,74,74,33,1,stimuli/stim_20210407_power2amp/equal_lnn_AM1.8Hz_94.m4a,,,
,,,,,,,,,,,,36393,2021-04-23_16h29.06.214,judgeSpeechMusic_20210407_logNormShiftAmp,2020.1.2,Win32,60,,,,,,,,,,,,,,1,7.161995,,0,0,75,75,77,1,stimuli/stim_20210407_power2amp/equal_lnn_AM3.6Hz_8.m4a,,,
,,,,,,,,,,,,36393,2021-04-23_16h29.06.214,judgeSpeechMusic_20210407_logNormShiftAmp,2020.1.2,Win32,60,,,,,,,,,,,,,,2,7.487705,,0,0,76,76,52,1,stimuli/stim_20210407_power2amp/equal_lnn_AM2.4Hz_5.m4a,,,
,,,,,,,,,,,,36393,2021-04-23_16h29.06.214,judgeSpeechMusic_20210407_logNormShiftAmp,2020.1.2,Win32,60,,,,,,,,,,,,,,1,10.525505,,0,0,77,77,97,1,stimuli/stim_20210407_power2amp/equal_lnn_AM4.2Hz_9.m4a,,,
,,,,,,,,,,,,36393,2021-04-23_16h29.06.214,judgeSpeechMusic_20210407_logNormShiftAmp,2020.1.2,Win32,60,,,,,,,,,,,,,,2,7.23719,,0,0,78,78,38,1,stimuli/stim_20210407_power2amp/equal_lnn_AM1.8Hz_77.m4a,,,
,,,,,,,,,,,,36393,2021-04-23_16h29.06.214,judgeSpeechMusic_20210407_logNormShiftAmp,2020.1.2,Win32,60,,,,,,,,,,,,,,1,10.338875,,0,0,79,79,72,1,stimuli/stim_20210407_power2amp/equal_lnn_AM3Hz_61.m4a,,,
,,,,,,,,,,,,36393,2021-04-23_16h29.06.214,judgeSpeechMusic_20210407_logNormShiftAmp,2020.1.2,Win32,60,,,,,,,,,,,,,,2,8.269345,,0,0,80,80,34,1,stimuli/stim_20210407_power2amp/equal_lnn_AM1.8Hz_24.m4a,,,
,,,,,,,,,,,,36393,2021-04-23_16h29.06.214,judgeSpeechMusic_20210407_logNormShiftAmp,2020.1.2,Win32,60,,,,,,,,,,,,,,1,7.1505,,0,0,81,81,78,1,stimuli/stim_20210407_power2amp/equal_lnn_AM3.6Hz_67.m4a,,,
,,,,,,,,,,,,36393,2021-04-23_16h29.06.214,judgeSpeechMusic_20210407_logNormShiftAmp,2020.1.2,Win32,60,,,,,,,,,,,,,,1,6.96886,,0,0,82,82,106,1,stimuli/stim_20210407_power2amp/equal_lnn_AM4.8Hz_68.m4a,,,
,,,,,,,,,,,,36393,2021-04-23_16h29.06.214,judgeSpeechMusic_20210407_logNormShiftAmp,2020.1.2,Win32,60,,,,,,,,,,,,,,1,13.600305,,0,0,83,83,104,1,stimuli/stim_20210407_power2amp/equal_lnn_AM4.2Hz_45.m4a,,,
,,,,,,,,,,,,36393,2021-04-23_16h29.06.214,judgeSpeechMusic_20210407_logNormShiftAmp,2020.1.2,Win32,60,,,,,,,,,,,,,,1,6.25187,,0,0,84,84,126,1,stimuli/stim_20210407_power2amp/equal_lnn_AM5.4Hz_2.m4a,,,
,,,,,,,,,,,,36393,2021-04-23_16h29.06.214,judgeSpeechMusic_20210407_logNormShiftAmp,2020.1.2,Win32,60,,,,,,,,,,,,,,2,7.3259,,0,0,85,85,24,1,stimuli/stim_20210407_power2amp/equal_lnn_AM1.2Hz_38.m4a,,,
,,,,,,,,,,,,36393,2021-04-23_16h29.06.214,judgeSpeechMusic_20210407_logNormShiftAmp,2020.1.2,Win32,60,,,,,,,,,,,,,,2,8.83678,,0,0,86,86,100,1,stimuli/stim_20210407_power2amp/equal_lnn_AM4.2Hz_48.m4a,,,
,,,,,,,,,,,,36393,2021-04-23_16h29.06.214,judgeSpeechMusic_20210407_logNormShiftAmp,2020.1.2,Win32,60,,,,,,,,,,,,,,2,16.677335,,0,0,87,87,109,1,stimuli/stim_20210407_power2amp/equal_lnn_AM4.8Hz_9.m4a,,,
,,,,,,,,,,,,36393,2021-04-23_16h29.06.214,judgeSpeechMusic_20210407_logNormShiftAmp,2020.1.2,Win32,60,,,,,,,,,,,,,,2,11.33099,,0,0,88,88,80,1,stimuli/stim_20210407_power2amp/equal_lnn_AM3.6Hz_91.m4a,,,
,,,,,,,,,,,,36393,2021-04-23_16h29.06.214,judgeSpeechMusic_20210407_logNormShiftAmp,2020.1.2,Win32,60,,,,,,,,,,,,,,1,7.701335,,0,0,89,89,50,1,stimuli/stim_20210407_power2amp/equal_lnn_AM2.4Hz_55.m4a,,,
,,,,,,,,,,,,36393,2021-04-23_16h29.06.214,judgeSpeechMusic_20210407_logNormShiftAmp,2020.1.2,Win32,60,,,,,,,,,,,,,,2,7.77793,,0,0,90,90,96,1,stimuli/stim_20210407_power2amp/equal_lnn_AM4.2Hz_97.m4a,,,
,,,,,,,,,,,,36393,2021-04-23_16h29.06.214,judgeSpeechMusic_20210407_logNormShiftAmp,2020.1.2,Win32,60,,,,,,,,,,,,,,2,9.68396,,0,0,91,91,13,1,stimuli/stim_20210407_power2amp/equal_lnn_AM0.6Hz_66.m4a,,,
,,,,,,,,,,,,36393,2021-04-23_16h29.06.214,judgeSpeechMusic_20210407_logNormShiftAmp,2020.1.2,Win32,60,,,,,,,,,,,,,,1,7.428665,,0,0,92,92,87,1,stimuli/stim_20210407_power2amp/equal_lnn_AM3.6Hz_18.m4a,,,
,,,,,,,,,,,,36393,2021-04-23_16h29.06.214,judgeSpeechMusic_20210407_logNormShiftAmp,2020.1.2,Win32,60,,,,,,,,,,,,,,2,16.47241,,0,0,93,93,73,1,stimuli/stim_20210407_power2amp/equal_lnn_AM3Hz_22.m4a,,,
,,,,,,,,,,,,36393,2021-04-23_16h29.06.214,judgeSpeechMusic_20210407_logNormShiftAmp,2020.1.2,Win32,60,,,,,,,,,,,,,,1,7.720045,,0,0,94,94,118,1,stimuli/stim_20210407_power2amp/equal_lnn_AM4.8Hz_87.m4a,,,
,,,,,,,,,,,,36393,2021-04-23_16h29.06.214,judgeSpeechMusic_20210407_logNormShiftAmp,2020.1.2,Win32,60,,,,,,,,,,,,,,2,10.262015,4,1,0,95,95,149,1,stimuli/stim_20210407_power2amp/equal_lnn_AM6Hz_2.m4a,2.838415,,
,,,,,,,,,,,,36393,2021-04-23_16h29.06.214,judgeSpeechMusic_20210407_logNormShiftAmp,2020.1.2,Win32,60,,,,,,,,,,,,,,1,9.967355,,0,0,96,96,39,1,stimuli/stim_20210407_power2amp/equal_lnn_AM1.8Hz_54.m4a,,,
,,,,,,,,,,,,36393,2021-04-23_16h29.06.214,judgeSpeechMusic_20210407_logNormShiftAmp,2020.1.2,Win32,60,,,,,,,,,,,,,,2,16.43463,,0,0,97,97,139,1,stimuli/stim_20210407_power2amp/equal_lnn_AM6Hz_21.m4a,,,
,,,,,,,,,,,,36393,2021-04-23_16h29.06.214,judgeSpeechMusic_20210407_logNormShiftAmp,2020.1.2,Win32,60,,,,,,,,,,,,,,1,7.867935,,0,0,98,98,51,1,stimuli/stim_20210407_power2amp/equal_lnn_AM2.4Hz_88.m4a,,,
,,,,,,,,,,,,36393,2021-04-23_16h29.06.214,judgeSpeechMusic_20210407_logNormShiftAmp,2020.1.2,Win32,60,,,,,,,,,,,,,,2,16.341135,,0,0,99,99,102,1,stimuli/stim_20210407_power2amp/equal_lnn_AM4.2Hz_18.m4a,,,
,,,,,,,,,,,,36393,2021-04-23_16h29.06.214,judgeSpeechMusic_20210407_logNormShiftAmp,2020.1.2,Win32,60,,,,,,,,,,,,,,2,7.676665,,0,0,100,100,55,1,stimuli/stim_20210407_power2amp/equal_lnn_AM2.4Hz_99.m4a,,,
,,,,,,,,,,,,36393,2021-04-23_16h29.06.214,judgeSpeechMusic_20210407_logNormShiftAmp,2020.1.2,Win32,60,,,,,,,,,,,,,,1,7.13609,,0,0,101,101,70,1,stimuli/stim_20210407_power2amp/equal_lnn_AM3Hz_43.m4a,,,
,,,,,,,,,,,,36393,2021-04-23_16h29.06.214,judgeSpeechMusic_20210407_logNormShiftAmp,2020.1.2,Win32,60,,,,,,,,,,,,,,2,7.473935,,0,0,102,102,27,1,stimuli/stim_20210407_power2amp/equal_lnn_AM1.2Hz_28.m4a,,,
,,,,,,,,,,,,36393,2021-04-23_16h29.06.214,judgeSpeechMusic_20210407_logNormShiftAmp,2020.1.2,Win32,60,,,,,,,,,,,,,,2,6.13056,,0,0,103,103,75,1,stimuli/stim_20210407_power2amp/equal_lnn_AM3.6Hz_1.m4a,,,
,,,,,,,,,,,,36393,2021-04-23_16h29.06.214,judgeSpeechMusic_20210407_logNormShiftAmp,2020.1.2,Win32,60,,,,,,,,,,,,,,2,5.85003,,0,0,104,104,15,1,stimuli/stim_20210407_power2amp/equal_lnn_AM1.2Hz_56.m4a,,,
,,,,,,,,,,,,36393,2021-04-23_16h29.06.214,judgeSpeechMusic_20210407_logNormShiftAmp,2020.1.2,Win32,60,,,,,,,,,,,,,,1,6.6903,,0,0,105,105,142,1,stimuli/stim_20210407_power2amp/equal_lnn_AM6Hz_66.m4a,,,
,,,,,,,,,,,,36393,2021-04-23_16h29.06.214,judgeSpeechMusic_20210407_logNormShiftAmp,2020.1.2,Win32,60,,,,,,,,,,,,,,1,5.75533,,0,0,106,106,95,1,stimuli/stim_20210407_power2amp/equal_lnn_AM4.2Hz_96.m4a,,,
,,,,,,,,,,,,36393,2021-04-23_16h29.06.214,judgeSpeechMusic_20210407_logNormShiftAmp,2020.1.2,Win32,60,,,,,,,,,,,,,,2,6.845265,,0,0,107,107,28,1,stimuli/stim_20210407_power2amp/equal_lnn_AM1.2Hz_88.m4a,,,
,,,,,,,,,,,,36393,2021-04-23_16h29.06.214,judgeSpeechMusic_20210407_logNormShiftAmp,2020.1.2,Win32,60,,,,,,,,,,,,,,1,8.281685,,0,0,108,108,47,1,stimuli/stim_20210407_power2amp/equal_lnn_AM2.4Hz_87.m4a,,,
,,,,,,,,,,,,36393,2021-04-23_16h29.06.214,judgeSpeechMusic_20210407_logNormShiftAmp,2020.1.2,Win32,60,,,,,,,,,,,,,,2,6.891955,,0,0,109,109,31,1,stimuli/stim_20210407_power2amp/equal_lnn_AM1.8Hz_38.m4a,,,
,,,,,,,,,,,,36393,2021-04-23_16h29.06.214,judgeSpeechMusic_20210407_logNormShiftAmp,2020.1.2,Win32,60,,,,,,,,,,,,,,1,7.51705,,0,0,110,110,144,1,stimuli/stim_20210407_power2amp/equal_lnn_AM6Hz_82.m4a,,,
,,,,,,,,,,,,36393,2021-04-23_16h29.06.214,judgeSpeechMusic_20210407_logNormShiftAmp,2020.1.2,Win32,60,,,,,,,,,,,,,,2,8.804635,,0,0,111,111,98,1,stimuli/stim_20210407_power2amp/equal_lnn_AM4.2Hz_90.m4a,,,
,,,,,,,,,,,,36393,2021-04-23_16h29.06.214,judgeSpeechMusic_20210407_logNormShiftAmp,2020.1.2,Win32,60,,,,,,,,,,,,,,1,8.06173,,0,0,112,112,35,1,stimuli/stim_20210407_power2amp/equal_lnn_AM1.8Hz_80.m4a,,,
,,,,,,,,,,,,36393,2021-04-23_16h29.06.214,judgeSpeechMusic_20210407_logNormShiftAmp,2020.1.2,Win32,60,,,,,,,,,,,,,,2,12.301485,,0,0,113,113,101,1,stimuli/stim_20210407_power2amp/equal_lnn_AM4.2Hz_73.m4a,,,
,,,,,,,,,,,,36393,2021-04-23_16h29.06.214,judgeSpeechMusic_20210407_logNormShiftAmp,2020.1.2,Win32,60,,,,,,,,,,,,,,1,7.65036,,0,0,114,114,64,1,stimuli/stim_20210407_power2amp/equal_lnn_AM3Hz_56.m4a,,,
,,,,,,,,,,,,36393,2021-04-23_16h29.06.214,judgeSpeechMusic_20210407_logNormShiftAmp,2020.1.2,Win32,60,,,,,,,,,,,,,,2,11.11182,,0,0,115,115,9,1,stimuli/stim_20210407_power2amp/equal_lnn_AM0.6Hz_90.m4a,,,
,,,,,,,,,,,,36393,2021-04-23_16h29.06.214,judgeSpeechMusic_20210407_logNormShiftAmp,2020.1.2,Win32,60,,,,,,,,,,,,,,1,13.422785,,0,0,116,116,10,1,stimuli/stim_20210407_power2amp/equal_lnn_AM0.6Hz_26.m4a,,,
,,,,,,,,,,,,36393,2021-04-23_16h29.06.214,judgeSpeechMusic_20210407_logNormShiftAmp,2020.1.2,Win32,60,,,,,,,,,,,,,,1,6.973435,,0,0,117,117,92,1,stimuli/stim_20210407_power2amp/equal_lnn_AM4.2Hz_99.m4a,,,
,,,,,,,,,,,,36393,2021-04-23_16h29.06.214,judgeSpeechMusic_20210407_logNormShiftAmp,2020.1.2,Win32,60,,,,,,,,,,,,,,1,6.228765,,0,0,118,118,69,1,stimuli/stim_20210407_power2amp/equal_lnn_AM3Hz_11.m4a,,,
,,,,,,,,,,,,36393,2021-04-23_16h29.06.214,judgeSpeechMusic_20210407_logNormShiftAmp,2020.1.2,Win32,60,,,,,,,,,,,,,,2,6.621545,,0,0,119,119,94,1,stimuli/stim_20210407_power2amp/equal_lnn_AM4.2Hz_100.m4a,,,
,,,,,,,,,,,,36393,2021-04-23_16h29.06.214,judgeSpeechMusic_20210407_logNormShiftAmp,2020.1.2,Win32,60,,,,,,,,,,,,,,1,8.599385,1,1,0,120,120,14,1,stimuli/stim_20210407_power2amp/equal_lnn_AM0.6Hz_39.m4a,1.65491,,
,,,,,,,,,,,,36393,2021-04-23_16h29.06.214,judgeSpeechMusic_20210407_logNormShiftAmp,2020.1.2,Win32,60,,,,,,,,,,,,,,1,9.283965,,0,0,121,121,26,1,stimuli/stim_20210407_power2amp/equal_lnn_AM1.2Hz_55.m4a,,,
,,,,,,,,,,,,36393,2021-04-23_16h29.06.214,judgeSpeechMusic_20210407_logNormShiftAmp,2020.1.2,Win32,60,,,,,,,,,,,,,,2,8.59567,,0,0,122,122,137,1,stimuli/stim_20210407_power2amp/equal_lnn_AM6Hz_78.m4a,,,
,,,,,,,,,,,,36393,2021-04-23_16h29.06.214,judgeSpeechMusic_20210407_logNormShiftAmp,2020.1.2,Win32,60,,,,,,,,,,,,,,1,14.747085,,0,0,123,123,66,1,stimuli/stim_20210407_power2amp/equal_lnn_AM3Hz_29.m4a,,,
,,,,,,,,,,,,36393,2021-04-23_16h29.06.214,judgeSpeechMusic_20210407_logNormShiftAmp,2020.1.2,Win32,60,,,,,,,,,,,,,,2,7.923615,,0,0,124,124,145,1,stimuli/stim_20210407_power2amp/equal_lnn_AM6Hz_32.m4a,,,
,,,,,,,,,,,,36393,2021-04-23_16h29.06.214,judgeSpeechMusic_20210407_logNormShiftAmp,2020.1.2,Win32,60,,,,,,,,,,,,,,1,7.15441,,0,0,125,125,45,1,stimuli/stim_20210407_power2amp/equal_lnn_AM2.4Hz_33.m4a,,,
,,,,,,,,,,,,36393,2021-04-23_16h29.06.214,judgeSpeechMusic_20210407_logNormShiftAmp,2020.1.2,Win32,60,,,,,,,,,,,,,,2,7.321795,,0,0,126,126,16,1,stimuli/stim_20210407_power2amp/equal_lnn_AM1.2Hz_71.m4a,,,
,,,,,,,,,,,,36393,2021-04-23_16h29.06.214,judgeSpeechMusic_20210407_logNormShiftAmp,2020.1.2,Win32,60,,,,,,,,,,,,,,1,7.91793,,0,0,127,127,41,1,stimuli/stim_20210407_power2amp/equal_lnn_AM1.8Hz_29.m4a,,,
,,,,,,,,,,,,36393,2021-04-23_16h29.06.214,judgeSpeechMusic_20210407_logNormShiftAmp,2020.1.2,Win32,60,,,,,,,,,,,,,,2,7.171775,,0,0,128,128,59,1,stimuli/stim_20210407_power2amp/equal_lnn_AM2.4Hz_94.m4a,,,
,,,,,,,,,,,,36393,2021-04-23_16h29.06.214,judgeSpeechMusic_20210407_logNormShiftAmp,2020.1.2,Win32,60,,,,,,,,,,,,,,2,6.920175,,0,0,129,129,138,1,stimuli/stim_20210407_power2amp/equal_lnn_AM6Hz_11.m4a,,,
,,,,,,,,,,,,36393,2021-04-23_16h29.06.214,judgeSpeechMusic_20210407_logNormShiftAmp,2020.1.2,Win32,60,,,,,,,,,,,,,,1,10.795115,,0,0,130,130,58,1,stimuli/stim_20210407_power2amp/equal_lnn_AM2.4Hz_32.m4a,,,
,,,,,,,,,,,,36393,2021-04-23_16h29.06.214,judgeSpeechMusic_20210407_logNormShiftAmp,2020.1.2,Win32,60,,,,,,,,,,,,,,2,7.75291,,0,0,131,131,147,1,stimuli/stim_20210407_power2amp/equal_lnn_AM6Hz_12.m4a,,,
,,,,,,,,,,,,36393,2021-04-23_16h29.06.214,judgeSpeechMusic_20210407_logNormShiftAmp,2020.1.2,Win32,60,,,,,,,,,,,,,,1,12.487975,,0,0,132,132,105,1,stimuli/stim_20210407_power2amp/equal_lnn_AM4.8Hz_85.m4a,,,
,,,,,,,,,,,,36393,2021-04-23_16h29.06.214,judgeSpeechMusic_20210407_logNormShiftAmp,2020.1.2,Win32,60,,,,,,,,,,,,,,2,7.118395,,0,0,133,133,57,1,stimuli/stim_20210407_power2amp/equal_lnn_AM2.4Hz_25.m4a,,,
,,,,,,,,,,,,36393,2021-04-23_16h29.06.214,judgeSpeechMusic_20210407_logNormShiftAmp,2020.1.2,Win32,60,,,,,,,,,,,,,,2,6.551715,,0,0,134,134,20,1,stimuli/stim_20210407_power2amp/equal_lnn_AM1.2Hz_9.m4a,,,
,,,,,,,,,,,,36393,2021-04-23_16h29.06.214,judgeSpeechMusic_20210407_logNormShiftAmp,2020.1.2,Win32,60,,,,,,,,,,,,,,1,6.54417,,0,0,135,135,46,1,stimuli/stim_20210407_power2amp/equal_lnn_AM2.4Hz_35.m4a,,,
,,,,,,,,,,,,36393,2021-04-23_16h29.06.214,judgeSpeechMusic_20210407_logNormShiftAmp,2020.1.2,Win32,60,,,,,,,,,,,,,,2,6.702725,,0,0,136,136,12,1,stimuli/stim_20210407_power2amp/equal_lnn_AM0.6Hz_49.m4a,,,
,,,,,,,,,,,,36393,2021-04-23_16h29.06.214,judgeSpeechMusic_20210407_logNormShiftAmp,2020.1.2,Win32,60,,,,,,,,,,,,,,2,6.31751,,0,0,137,137,18,1,stimuli/stim_20210407_power2amp/equal_lnn_AM1.2Hz_20.m4a,,,
,,,,,,,,,,,,36393,2021-04-23_16h29.06.214,judgeSpeechMusic_20210407_logNormShiftAmp,2020.1.2,Win32,60,,,,,,,,,,,,,,1,6.016785,,0,0,138,138,19,1,stimuli/stim_20210407_power2amp/equal_lnn_AM1.2Hz_1.m4a,,,
,,,,,,,,,,,,36393,2021-04-23_16h29.06.214,judgeSpeechMusic_20210407_logNormShiftAmp,2020.1.2,Win32,60,,,,,,,,,,,,,,1,6.12637,,0,0,139,139,110,1,stimuli/stim_20210407_power2amp/equal_lnn_AM4.8Hz_29.m4a,,,
,,,,,,,,,,,,36393,2021-04-23_16h29.06.214,judgeSpeechMusic_20210407_logNormShiftAmp,2020.1.2,Win32,60,,,,,,,,,,,,,,1,12.63728,,0,0,140,140,49,1,stimuli/stim_20210407_power2amp/equal_lnn_AM2.4Hz_92.m4a,,,
,,,,,,,,,,,,36393,2021-04-23_16h29.06.214,judgeSpeechMusic_20210407_logNormShiftAmp,2020.1.2,Win32,60,,,,,,,,,,,,,,2,6.92049,,0,0,141,141,93,1,stimuli/stim_20210407_power2amp/equal_lnn_AM4.2Hz_4.m4a,,,
,,,,,,,,,,,,36393,2021-04-23_16h29.06.214,judgeSpeechMusic_20210407_logNormShiftAmp,2020.1.2,Win32,60,,,,,,,,,,,,,,1,11.492465,,0,0,142,142,1,1,stimuli/stim_20210407_power2amp/equal_lnn_AM0.6Hz_10.m4a,,,
,,,,,,,,,,,,36393,2021-04-23_16h29.06.214,judgeSpeechMusic_20210407_logNormShiftAmp,2020.1.2,Win32,60,,,,,,,,,,,,,,2,6.76996,,0,0,143,143,3,1,stimuli/stim_20210407_power2amp/equal_lnn_AM0.6Hz_57.m4a,,,
,,,,,,,,,,,,36393,2021-04-23_16h29.06.214,judgeSpeechMusic_20210407_logNormShiftAmp,2020.1.2,Win32,60,,,,,,,,,,,,,,2,10.822985,3,1,0,144,144,0,1,stimuli/stim_20210407_power2amp/equal_lnn_AM0.6Hz_30.m4a,2.042835,,
,,,,,,,,,,,,36393,2021-04-23_16h29.06.214,judgeSpeechMusic_20210407_logNormShiftAmp,2020.1.2,Win32,60,,,,,,,,,,,,,,1,13.65117,,0,0,145,145,90,1,stimuli/stim_20210407_power2amp/equal_lnn_AM4.2Hz_25.m4a,,,
,,,,,,,,,,,,36393,2021-04-23_16h29.06.214,judgeSpeechMusic_20210407_logNormShiftAmp,2020.1.2,Win32,60,,,,,,,,,,,,,,2,9.06869,,0,0,146,146,132,1,stimuli/stim_20210407_power2amp/equal_lnn_AM5.4Hz_50.m4a,,,
,,,,,,,,,,,,36393,2021-04-23_16h29.06.214,judgeSpeechMusic_20210407_logNormShiftAmp,2020.1.2,Win32,60,,,,,,,,,,,,,,2,7.29254,,0,0,147,147,8,1,stimuli/stim_20210407_power2amp/equal_lnn_AM0.6Hz_27.m4a,,,
,,,,,,,,,,,,36393,2021-04-23_16h29.06.214,judgeSpeechMusic_20210407_logNormShiftAmp,2020.1.2,Win32,60,,,,,,,,,,,,,,1,6.784435,,0,0,148,148,48,1,stimuli/stim_20210407_power2amp/equal_lnn_AM2.4Hz_51.m4a,,,
,,,,,,,,,,,,36393,2021-04-23_16h29.06.214,judgeSpeechMusic_20210407_logNormShiftAmp,2020.1.2,Win32,60,,,,,,,,,,,,,,2,6.62864,,0,0,149,149,5,1,stimuli/stim_20210407_power2amp/equal_lnn_AM0.6Hz_43.m4a,,,
,,,,,,,,,,,,36393,2021-04-23_16h29.06.214,judgeSpeechMusic_20210407_logNormShiftAmp,2020.1.2,Win32,60,,,,,,,,,,,,,,1,11.17655,,0,1,0,150,100,1,stimuli/stim_20210407_power2amp/equal_lnn_AM4.2Hz_48.m4a,,,
,,,,,,,,,,,,36393,2021-04-23_16h29.06.214,judgeSpeechMusic_20210407_logNormShiftAmp,2020.1.2,Win32,60,,,,,,,,,,,,,,1,6.362145,,0,1,1,151,121,1,stimuli/stim_20210407_power2amp/equal_lnn_AM5.4Hz_26.m4a,,,
,,,,,,,,,,,,36393,2021-04-23_16h29.06.214,judgeSpeechMusic_20210407_logNormShiftAmp,2020.1.2,Win32,60,,,,,,,,,,,,,,2,7.25335,,0,1,2,152,135,1,stimuli/stim_20210407_power2amp/equal_lnn_AM6Hz_14.m4a,,,
,,,,,,,,,,,,36393,2021-04-23_16h29.06.214,judgeSpeechMusic_20210407_logNormShiftAmp,2020.1.2,Win32,60,,,,,,,,,,,,,,1,9.20897,,0,1,3,153,49,1,stimuli/stim_20210407_power2amp/equal_lnn_AM2.4Hz_92.m4a,,,
,,,,,,,,,,,,36393,2021-04-23_16h29.06.214,judgeSpeechMusic_20210407_logNormShiftAmp,2020.1.2,Win32,60,,,,,,,,,,,,,,1,7.033995,,0,1,4,154,55,1,stimuli/stim_20210407_power2amp/equal_lnn_AM2.4Hz_99.m4a,,,
,,,,,,,,,,,,36393,2021-04-23_16h29.06.214,judgeSpeechMusic_20210407_logNormShiftAmp,2020.1.2,Win32,60,,,,,,,,,,,,,,1,8.528225,,0,1,5,155,101,1,stimuli/stim_20210407_power2amp/equal_lnn_AM4.2Hz_73.m4a,,,
,,,,,,,,,,,,36393,2021-04-23_16h29.06.214,judgeSpeechMusic_20210407_logNormShiftAmp,2020.1.2,Win32,60,,,,,,,,,,,,,,2,6.95429,,0,1,6,156,8,1,stimuli/stim_20210407_power2amp/equal_lnn_AM0.6Hz_27.m4a,,,
,,,,,,,,,,,,36393,2021-04-23_16h29.06.214,judgeSpeechMusic_20210407_logNormShiftAmp,2020.1.2,Win32,60,,,,,,,,,,,,,,2,8.46686,,0,1,7,157,81,1,stimuli/stim_20210407_power2amp/equal_lnn_AM3.6Hz_57.m4a,,,
,,,,,,,,,,,,36393,2021-04-23_16h29.06.214,judgeSpeechMusic_20210407_logNormShiftAmp,2020.1.2,Win32,60,,,,,,,,,,,,,,1,8.885265,,0,1,8,158,82,1,stimuli/stim_20210407_power2amp/equal_lnn_AM3.6Hz_62.m4a,,,
,,,,,,,,,,,,36393,2021-04-23_16h29.06.214,judgeSpeechMusic_20210407_logNormShiftAmp,2020.1.2,Win32,60,,,,,,,,,,,,,,2,11.32173,,0,1,9,159,144,1,stimuli/stim_20210407_power2amp/equal_lnn_AM6Hz_82.m4a,,,
,,,,,,,,,,,,36393,2021-04-23_16h29.06.214,judgeSpeechMusic_20210407_logNormShiftAmp,2020.1.2,Win32,60,,,,,,,,,,,,,,2,9.33293,,0,1,10,160,119,1,stimuli/stim_20210407_power2amp/equal_lnn_AM4.8Hz_23.m4a,,,
,,,,,,,,,,,,36393,2021-04-23_16h29.06.214,judgeSpeechMusic_20210407_logNormShiftAmp,2020.1.2,Win32,60,,,,,,,,,,,,,,1,8.125395,,0,1,11,161,54,1,stimuli/stim_20210407_power2amp/equal_lnn_AM2.4Hz_66.m4a,,,
,,,,,,,,,,,,36393,2021-04-23_16h29.06.214,judgeSpeechMusic_20210407_logNormShiftAmp,2020.1.2,Win32,60,,,,,,,,,,,,,,2,8.88381,,0,1,12,162,7,1,stimuli/stim_20210407_power2amp/equal_lnn_AM0.6Hz_9.m4a,,,
,,,,,,,,,,,,36393,2021-04-23_16h29.06.214,judgeSpeechMusic_20210407_logNormShiftAmp,2020.1.2,Win32,60,,,,,,,,,,,,,,2,9.884835,,0,1,13,163,11,1,stimuli/stim_20210407_power2amp/equal_lnn_AM0.6Hz_95.m4a,,,
,,,,,,,,,,,,36393,2021-04-23_16h29.06.214,judgeSpeechMusic_20210407_logNormShiftAmp,2020.1.2,Win32,60,,,,,,,,,,,,,,2,6.4851,,0,1,14,164,21,1,stimuli/stim_20210407_power2amp/equal_lnn_AM1.2Hz_92.m4a,,,
,,,,,,,,,,,,36393,2021-04-23_16h29.06.214,judgeSpeechMusic_20210407_logNormShiftAmp,2020.1.2,Win32,60,,,,,,,,,,,,,,1,5.650885,2,1,1,15,165,128,1,stimuli/stim_20210407_power2amp/equal_lnn_AM5.4Hz_71.m4a,2.10559,,
,,,,,,,,,,,,36393,2021-04-23_16h29.06.214,judgeSpeechMusic_20210407_logNormShiftAmp,2020.1.2,Win32,60,,,,,,,,,,,,,,1,7.24053,,0,1,16,166,94,1,stimuli/stim_20210407_power2amp/equal_lnn_AM4.2Hz_100.m4a,,,
,,,,,,,,,,,,36393,2021-04-23_16h29.06.214,judgeSpeechMusic_20210407_logNormShiftAmp,2020.1.2,Win32,60,,,,,,,,,,,,,,1,6.38387,,0,1,17,167,149,1,stimuli/stim_20210407_power2amp/equal_lnn_AM6Hz_2.m4a,,,
,,,,,,,,,,,,36393,2021-04-23_16h29.06.214,judgeSpeechMusic_20210407_logNormShiftAmp,2020.1.2,Win32,60,,,,,,,,,,,,,,2,6.161035,,0,1,18,168,91,1,stimuli/stim_20210407_power2amp/equal_lnn_AM4.2Hz_57.m4a,,,
,,,,,,,,,,,,36393,2021-04-23_16h29.06.214,judgeSpeechMusic_20210407_logNormShiftAmp,2020.1.2,Win32,60,,,,,,,,,,,,,,2,6.53696,,0,1,19,169,102,1,stimuli/stim_20210407_power2amp/equal_lnn_AM4.2Hz_18.m4a,,,
,,,,,,,,,,,,36393,2021-04-23_16h29.06.214,judgeSpeechMusic_20210407_logNormShiftAmp,2020.1.2,Win32,60,,,,,,,,,,,,,,2,9.709795,,0,1,20,170,12,1,stimuli/stim_20210407_power2amp/equal_lnn_AM0.6Hz_49.m4a,,,
,,,,,,,,,,,,36393,2021-04-23_16h29.06.214,judgeSpeechMusic_20210407_logNormShiftAmp,2020.1.2,Win32,60,,,,,,,,,,,,,,1,11.803505,,0,1,21,171,56,1,stimuli/stim_20210407_power2amp/equal_lnn_AM2.4Hz_63.m4a,,,
,,,,,,,,,,,,36393,2021-04-23_16h29.06.214,judgeSpeechMusic_20210407_logNormShiftAmp,2020.1.2,Win32,60,,,,,,,,,,,,,,2,9.83936,,0,1,22,172,126,1,stimuli/stim_20210407_power2amp/equal_lnn_AM5.4Hz_2.m4a,,,
,,,,,,,,,,,,36393,2021-04-23_16h29.06.214,judgeSpeechMusic_20210407_logNormShiftAmp,2020.1.2,Win32,60,,,,,,,,,,,,,,1,6.507125,,0,1,23,173,106,1,stimuli/stim_20210407_power2amp/equal_lnn_AM4.8Hz_68.m4a,,,
,,,,,,,,,,,,36393,2021-04-23_16h29.06.214,judgeSpeechMusic_20210407_logNormShiftAmp,2020.1.2,Win32,60,,,,,,,,,,,,,,2,7.24031,,0,1,24,174,92,1,stimuli/stim_20210407_power2amp/equal_lnn_AM4.2Hz_99.m4a,,,
,,,,,,,,,,,,36393,2021-04-23_16h29.06.214,judgeSpeechMusic_20210407_logNormShiftAmp,2020.1.2,Win32,60,,,,,,,,,,,,,,1,6.552405,,0,1,25,175,18,1,stimuli/stim_20210407_power2amp/equal_lnn_AM1.2Hz_20.m4a,,,
,,,,,,,,,,,,36393,2021-04-23_16h29.06.214,judgeSpeechMusic_20210407_logNormShiftAmp,2020.1.2,Win32,60,,,,,,,,,,,,,,2,8.70374,,0,1,26,176,89,1,stimuli/stim_20210407_power2amp/equal_lnn_AM3.6Hz_21.m4a,,,
,,,,,,,,,,,,36393,2021-04-23_16h29.06.214,judgeSpeechMusic_20210407_logNormShiftAmp,2020.1.2,Win32,60,,,,,,,,,,,,,,2,7.317375,,0,1,27,177,13,1,stimuli/stim_20210407_power2amp/equal_lnn_AM0.6Hz_66.m4a,,,
,,,,,,,,,,,,36393,2021-04-23_16h29.06.214,judgeSpeechMusic_20210407_logNormShiftAmp,2020.1.2,Win32,60,,,,,,,,,,,,,,2,9.299755,,0,1,28,178,33,1,stimuli/stim_20210407_power2amp/equal_lnn_AM1.8Hz_94.m4a,,,
,,,,,,,,,,,,36393,2021-04-23_16h29.06.214,judgeSpeechMusic_20210407_logNormShiftAmp,2020.1.2,Win32,60,,,,,,,,,,,,,,1,7.28713,,0,1,29,179,105,1,stimuli/stim_20210407_power2amp/equal_lnn_AM4.8Hz_85.m4a,,,
,,,,,,,,,,,,36393,2021-04-23_16h29.06.214,judgeSpeechMusic_20210407_logNormShiftAmp,2020.1.2,Win32,60,,,,,,,,,,,,,,1,6.3895,,0,1,30,180,103,1,stimuli/stim_20210407_power2amp/equal_lnn_AM4.2Hz_15.m4a,,,
,,,,,,,,,,,,36393,2021-04-23_16h29.06.214,judgeSpeechMusic_20210407_logNormShiftAmp,2020.1.2,Win32,60,,,,,,,,,,,,,,1,6.289,,0,1,31,181,0,1,stimuli/stim_20210407_power2amp/equal_lnn_AM0.6Hz_30.m4a,,,
,,,,,,,,,,,,36393,2021-04-23_16h29.06.214,judgeSpeechMusic_20210407_logNormShiftAmp,2020.1.2,Win32,60,,,,,,,,,,,,,,2,6.200795,,0,1,32,182,78,1,stimuli/stim_20210407_power2amp/equal_lnn_AM3.6Hz_67.m4a,,,
,,,,,,,,,,,,36393,2021-04-23_16h29.06.214,judgeSpeechMusic_20210407_logNormShiftAmp,2020.1.2,Win32,60,,,,,,,,,,,,,,1,9.382545,,0,1,33,183,15,1,stimuli/stim_20210407_power2amp/equal_lnn_AM1.2Hz_56.m4a,,,
,,,,,,,,,,,,36393,2021-04-23_16h29.06.214,judgeSpeechMusic_20210407_logNormShiftAmp,2020.1.2,Win32,60,,,,,,,,,,,,,,2,6.96324,,0,1,34,184,93,1,stimuli/stim_20210407_power2amp/equal_lnn_AM4.2Hz_4.m4a,,,
,,,,,,,,,,,,36393,2021-04-23_16h29.06.214,judgeSpeechMusic_20210407_logNormShiftAmp,2020.1.2,Win32,60,,,,,,,,,,,,,,2,11.16755,,0,1,35,185,133,1,stimuli/stim_20210407_power2amp/equal_lnn_AM5.4Hz_83.m4a,,,
,,,,,,,,,,,,36393,2021-04-23_16h29.06.214,judgeSpeechMusic_20210407_logNormShiftAmp,2020.1.2,Win32,60,,,,,,,,,,,,,,1,13.020205,2,1,1,36,186,67,1,stimuli/stim_20210407_power2amp/equal_lnn_AM3Hz_72.m4a,12.08952,,
,,,,,,,,,,,,36393,2021-04-23_16h29.06.214,judgeSpeechMusic_20210407_logNormShiftAmp,2020.1.2,Win32,60,,,,,,,,,,,,,,1,7.67534,,0,1,37,187,80,1,stimuli/stim_20210407_power2amp/equal_lnn_AM3.6Hz_91.m4a,,,
,,,,,,,,,,,,36393,2021-04-23_16h29.06.214,judgeSpeechMusic_20210407_logNormShiftAmp,2020.1.2,Win32,60,,,,,,,,,,,,,,2,5.685585,,0,1,38,188,37,1,stimuli/stim_20210407_power2amp/equal_lnn_AM1.8Hz_14.m4a,,,
,,,,,,,,,,,,36393,2021-04-23_16h29.06.214,judgeSpeechMusic_20210407_logNormShiftAmp,2020.1.2,Win32,60,,,,,,,,,,,,,,2,9.899745,,0,1,39,189,115,1,stimuli/stim_20210407_power2amp/equal_lnn_AM4.8Hz_64.m4a,,,
,,,,,,,,,,,,36393,2021-04-23_16h29.06.214,judgeSpeechMusic_20210407_logNormShiftAmp,2020.1.2,Win32,60,,,,,,,,,,,,,,2,7.2851,,0,1,40,190,53,1,stimuli/stim_20210407_power2amp/equal_lnn_AM2.4Hz_81.m4a,,,
,,,,,,,,,,,,36393,2021-04-23_16h29.06.214,judgeSpeechMusic_20210407_logNormShiftAmp,2020.1.2,Win32,60,,,,,,,,,,,,,,2,7.06866,,0,1,41,191,1,1,stimuli/stim_20210407_power2amp/equal_lnn_AM0.6Hz_10.m4a,,,
,,,,,,,,,,,,36393,2021-04-23_16h29.06.214,judgeSpeechMusic_20210407_logNormShiftAmp,2020.1.2,Win32,60,,,,,,,,,,,,,,2,9.17023,,0,1,42,192,109,1,stimuli/stim_20210407_power2amp/equal_lnn_AM4.8Hz_9.m4a,,,
,,,,,,,,,,,,36393,2021-04-23_16h29.06.214,judgeSpeechMusic_20210407_logNormShiftAmp,2020.1.2,Win32,60,,,,,,,,,,,,,,2,15.34461,,0,1,43,193,132,1,stimuli/stim_20210407_power2amp/equal_lnn_AM5.4Hz_50.m4a,,,
,,,,,,,,,,,,36393,2021-04-23_16h29.06.214,judgeSpeechMusic_20210407_logNormShiftAmp,2020.1.2,Win32,60,,,,,,,,,,,,,,1,11.052165,,0,1,44,194,41,1,stimuli/stim_20210407_power2amp/equal_lnn_AM1.8Hz_29.m4a,,,
,,,,,,,,,,,,36393,2021-04-23_16h29.06.214,judgeSpeechMusic_20210407_logNormShiftAmp,2020.1.2,Win32,60,,,,,,,,,,,,,,1,8.201255,,0,1,45,195,125,1,stimuli/stim_20210407_power2amp/equal_lnn_AM5.4Hz_31.m4a,,,
,,,,,,,,,,,,36393,2021-04-23_16h29.06.214,judgeSpeechMusic_20210407_logNormShiftAmp,2020.1.2,Win32,60,,,,,,,,,,,,,,1,6.75145,,0,1,46,196,76,1,stimuli/stim_20210407_power2amp/equal_lnn_AM3.6Hz_81.m4a,,,
,,,,,,,,,,,,36393,2021-04-23_16h29.06.214,judgeSpeechMusic_20210407_logNormShiftAmp,2020.1.2,Win32,60,,,,,,,,,,,,,,1,6.11968,,0,1,47,197,148,1,stimuli/stim_20210407_power2amp/equal_lnn_AM6Hz_63.m4a,,,
,,,,,,,,,,,,36393,2021-04-23_16h29.06.214,judgeSpeechMusic_20210407_logNormShiftAmp,2020.1.2,Win32,60,,,,,,,,,,,,,,2,6.96164,,0,1,48,198,34,1,stimuli/stim_20210407_power2amp/equal_lnn_AM1.8Hz_24.m4a,,,
,,,,,,,,,,,,36393,2021-04-23_16h29.06.214,judgeSpeechMusic_20210407_logNormShiftAmp,2020.1.2,Win32,60,,,,,,,,,,,,,,1,8.12399,,0,1,49,199,75,1,stimuli/stim_20210407_power2amp/equal_lnn_AM3.6Hz_1.m4a,,,
,,,,,,,,,,,,36393,2021-04-23_16h29.06.214,judgeSpeechMusic_20210407_logNormShiftAmp,2020.1.2,Win32,60,,,,,,,,,,,,,,2,25.10463,,0,1,50,200,110,1,stimuli/stim_20210407_power2amp/equal_lnn_AM4.8Hz_29.m4a,,,
,,,,,,,,,,,,36393,2021-04-23_16h29.06.214,judgeSpeechMusic_20210407_logNormShiftAmp,2020.1.2,Win32,60,,,,,,,,,,,,,,1,7.75335,,0,1,51,201,60,1,stimuli/stim_20210407_power2amp/equal_lnn_AM3Hz_8.m4a,,,
,,,,,,,,,,,,36393,2021-04-23_16h29.06.214,judgeSpeechMusic_20210407_logNormShiftAmp,2020.1.2,Win32,60,,,,,,,,,,,,,,2,11.850285,,0,1,52,202,136,1,stimuli/stim_20210407_power2amp/equal_lnn_AM6Hz_74.m4a,,,
,,,,,,,,,,,,36393,2021-04-23_16h29.06.214,judgeSpeechMusic_20210407_logNormShiftAmp,2020.1.2,Win32,60,,,,,,,,,,,,,,2,6.788595,,0,1,53,203,30,1,stimuli/stim_20210407_power2amp/equal_lnn_AM1.8Hz_44.m4a,,,
,,,,,,,,,,,,36393,2021-04-23_16h29.06.214,judgeSpeechMusic_20210407_logNormShiftAmp,2020.1.2,Win32,60,,,,,,,,,,,,,,1,9.376855,,0,1,54,204,112,1,stimuli/stim_20210407_power2amp/equal_lnn_AM4.8Hz_67.m4a,,,
,,,,,,,,,,,,36393,2021-04-23_16h29.06.214,judgeSpeechMusic_20210407_logNormShiftAmp,2020.1.2,Win32,60,,,,,,,,,,,,,,2,12.384685,,0,1,55,205,64,1,stimuli/stim_20210407_power2amp/equal_lnn_AM3Hz_56.m4a,,,
,,,,,,,,,,,,36393,2021-04-23_16h29.06.214,judgeSpeechMusic_20210407_logNormShiftAmp,2020.1.2,Win32,60,,,,,,,,,,,,,,1,9.226895,2,1,1,56,206,116,1,stimuli/stim_20210407_power2amp/equal_lnn_AM4.8Hz_62.m4a,3.50703,,
,,,,,,,,,,,,36393,2021-04-23_16h29.06.214,judgeSpeechMusic_20210407_logNormShiftAmp,2020.1.2,Win32,60,,,,,,,,,,,,,,2,12.750025,,0,1,57,207,68,1,stimuli/stim_20210407_power2amp/equal_lnn_AM3Hz_90.m4a,,,
,,,,,,,,,,,,36393,2021-04-23_16h29.06.214,judgeSpeechMusic_20210407_logNormShiftAmp,2020.1.2,Win32,60,,,,,,,,,,,,,,2,8.88556,,0,1,58,208,127,1,stimuli/stim_20210407_power2amp/equal_lnn_AM5.4Hz_46.m4a,,,
,,,,,,,,,,,,36393,2021-04-23_16h29.06.214,judgeSpeechMusic_20210407_logNormShiftAmp,2020.1.2,Win32,60,,,,,,,,,,,,,,2,5.99122,,0,1,59,209,38,1,stimuli/stim_20210407_power2amp/equal_lnn_AM1.8Hz_77.m4a,,,
,,,,,,,,,,,,36393,2021-04-23_16h29.06.214,judgeSpeechMusic_20210407_logNormShiftAmp,2020.1.2,Win32,60,,,,,,,,,,,,,,1,10.55178,,0,1,60,210,117,1,stimuli/stim_20210407_power2amp/equal_lnn_AM4.8Hz_13.m4a,,,
,,,,,,,,,,,,36393,2021-04-23_16h29.06.214,judgeSpeechMusic_20210407_logNormShiftAmp,2020.1.2,Win32,60,,,,,,,,,,,,,,2,7.721155,,0,1,61,211,58,1,stimuli/stim_20210407_power2amp/equal_lnn_AM2.4Hz_32.m4a,,,
,,,,,,,,,,,,36393,2021-04-23_16h29.06.214,judgeSpeechMusic_20210407_logNormShiftAmp,2020.1.2,Win32,60,,,,,,,,,,,,,,1,8.97585,,0,1,62,212,61,1,stimuli/stim_20210407_power2amp/equal_lnn_AM3Hz_58.m4a,,,
,,,,,,,,,,,,36393,2021-04-23_16h29.06.214,judgeSpeechMusic_20210407_logNormShiftAmp,2020.1.2,Win32,60,,,,,,,,,,,,,,2,8.91917,,0,1,63,213,114,1,stimuli/stim_20210407_power2amp/equal_lnn_AM4.8Hz_40.m4a,,,
,,,,,,,,,,,,36393,2021-04-23_16h29.06.214,judgeSpeechMusic_20210407_logNormShiftAmp,2020.1.2,Win32,60,,,,,,,,,,,,,,1,8.25839,,0,1,64,214,142,1,stimuli/stim_20210407_power2amp/equal_lnn_AM6Hz_66.m4a,,,
,,,,,,,,,,,,36393,2021-04-23_16h29.06.214,judgeSpeechMusic_20210407_logNormShiftAmp,2020.1.2,Win32,60,,,,,,,,,,,,,,1,6.16358,,0,1,65,215,71,1,stimuli/stim_20210407_power2amp/equal_lnn_AM3Hz_89.m4a,,,
,,,,,,,,,,,,36393,2021-04-23_16h29.06.214,judgeSpeechMusic_20210407_logNormShiftAmp,2020.1.2,Win32,60,,,,,,,,,,,,,,2,6.90413,,0,1,66,216,120,1,stimuli/stim_20210407_power2amp/equal_lnn_AM5.4Hz_74.m4a,,,
,,,,,,,,,,,,36393,2021-04-23_16h29.06.214,judgeSpeechMusic_20210407_logNormShiftAmp,2020.1.2,Win32,60,,,,,,,,,,,,,,1,8.98553,,0,1,67,217,42,1,stimuli/stim_20210407_power2amp/equal_lnn_AM1.8Hz_41.m4a,,,
,,,,,,,,,,,,36393,2021-04-23_16h29.06.214,judgeSpeechMusic_20210407_logNormShiftAmp,2020.1.2,Win32,60,,,,,,,,,,,,,,2,8.26065,,0,1,68,218,10,1,stimuli/stim_20210407_power2amp/equal_lnn_AM0.6Hz_26.m4a,,,
,,,,,,,,,,,,36393,2021-04-23_16h29.06.214,judgeSpeechMusic_20210407_logNormShiftAmp,2020.1.2,Win32,60,,,,,,,,,,,,,,1,17.067985,,0,1,69,219,25,1,stimuli/stim_20210407_power2amp/equal_lnn_AM1.2Hz_34.m4a,,,
,,,,,,,,,,,,36393,2021-04-23_16h29.06.214,judgeSpeechMusic_20210407_logNormShiftAmp,2020.1.2,Win32,60,,,,,,,,,,,,,,1,5.7909,,0,1,70,220,50,1,stimuli/stim_20210407_power2amp/equal_lnn_AM2.4Hz_55.m4a,,,
,,,,,,,,,,,,36393,2021-04-23_16h29.06.214,judgeSpeechMusic_20210407_logNormShiftAmp,2020.1.2,Win32,60,,,,,,,,,,,,,,2,10.956945,,0,1,71,221,137,1,stimuli/stim_20210407_power2amp/equal_lnn_AM6Hz_78.m4a,,,
,,,,,,,,,,,,36393,2021-04-23_16h29.06.214,judgeSpeechMusic_20210407_logNormShiftAmp,2020.1.2,Win32,60,,,,,,,,,,,,,,2,9.59018,,0,1,72,222,20,1,stimuli/stim_20210407_power2amp/equal_lnn_AM1.2Hz_9.m4a,,,
,,,,,,,,,,,,36393,2021-04-23_16h29.06.214,judgeSpeechMusic_20210407_logNormShiftAmp,2020.1.2,Win32,60,,,,,,,,,,,,,,1,7.01645,,0,1,73,223,108,1,stimuli/stim_20210407_power2amp/equal_lnn_AM4.8Hz_49.m4a,,,
,,,,,,,,,,,,36393,2021-04-23_16h29.06.214,judgeSpeechMusic_20210407_logNormShiftAmp,2020.1.2,Win32,60,,,,,,,,,,,,,,2,8.126475,,0,1,74,224,6,1,stimuli/stim_20210407_power2amp/equal_lnn_AM0.6Hz_91.m4a,,,
,,,,,,,,,,,,36393,2021-04-23_16h29.06.214,judgeSpeechMusic_20210407_logNormShiftAmp,2020.1.2,Win32,60,,,,,,,,,,,,,,1,6.76585,,0,1,75,225,97,1,stimuli/stim_20210407_power2amp/equal_lnn_AM4.2Hz_9.m4a,,,
,,,,,,,,,,,,36393,2021-04-23_16h29.06.214,judgeSpeechMusic_20210407_logNormShiftAmp,2020.1.2,Win32,60,,,,,,,,,,,,,,1,6.243135,2,1,1,76,226,16,1,stimuli/stim_20210407_power2amp/equal_lnn_AM1.2Hz_71.m4a,1.83225,,
,,,,,,,,,,,,36393,2021-04-23_16h29.06.214,judgeSpeechMusic_20210407_logNormShiftAmp,2020.1.2,Win32,60,,,,,,,,,,,,,,2,7.31093,,0,1,77,227,87,1,stimuli/stim_20210407_power2amp/equal_lnn_AM3.6Hz_18.m4a,,,
,,,,,,,,,,,,36393,2021-04-23_16h29.06.214,judgeSpeechMusic_20210407_logNormShiftAmp,2020.1.2,Win32,60,,,,,,,,,,,,,,2,6.9664,,0,1,78,228,35,1,stimuli/stim_20210407_power2amp/equal_lnn_AM1.8Hz_80.m4a,,,
,,,,,,,,,,,,36393,2021-04-23_16h29.06.214,judgeSpeechMusic_20210407_logNormShiftAmp,2020.1.2,Win32,60,,,,,,,,,,,,,,2,6.680255,,0,1,79,229,27,1,stimuli/stim_20210407_power2amp/equal_lnn_AM1.2Hz_28.m4a,,,
,,,,,,,,,,,,36393,2021-04-23_16h29.06.214,judgeSpeechMusic_20210407_logNormShiftAmp,2020.1.2,Win32,60,,,,,,,,,,,,,,2,17.53488,,0,1,80,230,72,1,stimuli/stim_20210407_power2amp/equal_lnn_AM3Hz_61.m4a,,,
,,,,,,,,,,,,36393,2021-04-23_16h29.06.214,judgeSpeechMusic_20210407_logNormShiftAmp,2020.1.2,Win32,60,,,,,,,,,,,,,,1,9.082645,,0,1,81,231,39,1,stimuli/stim_20210407_power2amp/equal_lnn_AM1.8Hz_54.m4a,,,
,,,,,,,,,,,,36393,2021-04-23_16h29.06.214,judgeSpeechMusic_20210407_logNormShiftAmp,2020.1.2,Win32,60,,,,,,,,,,,,,,1,6.15078,,0,1,82,232,145,1,stimuli/stim_20210407_power2amp/equal_lnn_AM6Hz_32.m4a,,,
,,,,,,,,,,,,36393,2021-04-23_16h29.06.214,judgeSpeechMusic_20210407_logNormShiftAmp,2020.1.2,Win32,60,,,,,,,,,,,,,,2,7.78434,,0,1,83,233,26,1,stimuli/stim_20210407_power2amp/equal_lnn_AM1.2Hz_55.m4a,,,
,,,,,,,,,,,,36393,2021-04-23_16h29.06.214,judgeSpeechMusic_20210407_logNormShiftAmp,2020.1.2,Win32,60,,,,,,,,,,,,,,1,6.73508,,0,1,84,234,143,1,stimuli/stim_20210407_power2amp/equal_lnn_AM6Hz_75.m4a,,,
,,,,,,,,,,,,36393,2021-04-23_16h29.06.214,judgeSpeechMusic_20210407_logNormShiftAmp,2020.1.2,Win32,60,,,,,,,,,,,,,,1,6.718365,,0,1,85,235,36,1,stimuli/stim_20210407_power2amp/equal_lnn_AM1.8Hz_45.m4a,,,
,,,,,,,,,,,,36393,2021-04-23_16h29.06.214,judgeSpeechMusic_20210407_logNormShiftAmp,2020.1.2,Win32,60,,,,,,,,,,,,,,2,7.474395,,0,1,86,236,84,1,stimuli/stim_20210407_power2amp/equal_lnn_AM3.6Hz_50.m4a,,,
,,,,,,,,,,,,36393,2021-04-23_16h29.06.214,judgeSpeechMusic_20210407_logNormShiftAmp,2020.1.2,Win32,60,,,,,,,,,,,,,,2,6.3349,,0,1,87,237,98,1,stimuli/stim_20210407_power2amp/equal_lnn_AM4.2Hz_90.m4a,,,
,,,,,,,,,,,,36393,2021-04-23_16h29.06.214,judgeSpeechMusic_20210407_logNormShiftAmp,2020.1.2,Win32,60,,,,,,,,,,,,,,1,6.521315,,0,1,88,238,139,1,stimuli/stim_20210407_power2amp/equal_lnn_AM6Hz_21.m4a,,,
,,,,,,,,,,,,36393,2021-04-23_16h29.06.214,judgeSpeechMusic_20210407_logNormShiftAmp,2020.1.2,Win32,60,,,,,,,,,,,,,,2,7.074965,,0,1,89,239,29,1,stimuli/stim_20210407_power2amp/equal_lnn_AM1.2Hz_21.m4a,,,
,,,,,,,,,,,,36393,2021-04-23_16h29.06.214,judgeSpeechMusic_20210407_logNormShiftAmp,2020.1.2,Win32,60,,,,,,,,,,,,,,2,11.581645,,0,1,90,240,111,1,stimuli/stim_20210407_power2amp/equal_lnn_AM4.8Hz_46.m4a,,,
,,,,,,,,,,,,36393,2021-04-23_16h29.06.214,judgeSpeechMusic_20210407_logNormShiftAmp,2020.1.2,Win32,60,,,,,,,,,,,,,,1,10.72299,,0,1,91,241,141,1,stimuli/stim_20210407_power2amp/equal_lnn_AM6Hz_55.m4a,,,
,,,,,,,,,,,,36393,2021-04-23_16h29.06.214,judgeSpeechMusic_20210407_logNormShiftAmp,2020.1.2,Win32,60,,,,,,,,,,,,,,2,9.49254,,0,1,92,242,107,1,stimuli/stim_20210407_power2amp/equal_lnn_AM4.8Hz_57.m4a,,,
,,,,,,,,,,,,36393,2021-04-23_16h29.06.214,judgeSpeechMusic_20210407_logNormShiftAmp,2020.1.2,Win32,60,,,,,,,,,,,,,,1,7.0349,,0,1,93,243,17,1,stimuli/stim_20210407_power2amp/equal_lnn_AM1.2Hz_6.m4a,,,
,,,,,,,,,,,,36393,2021-04-23_16h29.06.214,judgeSpeechMusic_20210407_logNormShiftAmp,2020.1.2,Win32,60,,,,,,,,,,,,,,2,11.85443,,0,1,94,244,47,1,stimuli/stim_20210407_power2amp/equal_lnn_AM2.4Hz_87.m4a,,,
,,,,,,,,,,,,36393,2021-04-23_16h29.06.214,judgeSpeechMusic_20210407_logNormShiftAmp,2020.1.2,Win32,60,,,,,,,,,,,,,,2,12.168805,,0,1,95,245,122,1,stimuli/stim_20210407_power2amp/equal_lnn_AM5.4Hz_5.m4a,,,
,,,,,,,,,,,,36393,2021-04-23_16h29.06.214,judgeSpeechMusic_20210407_logNormShiftAmp,2020.1.2,Win32,60,,,,,,,,,,,,,,1,9.87151,,0,1,96,246,23,1,stimuli/stim_20210407_power2amp/equal_lnn_AM1.2Hz_30.m4a,,,
,,,,,,,,,,,,36393,2021-04-23_16h29.06.214,judgeSpeechMusic_20210407_logNormShiftAmp,2020.1.2,Win32,60,,,,,,,,,,,,,,2,7.40162,,0,1,97,247,79,1,stimuli/stim_20210407_power2amp/equal_lnn_AM3.6Hz_32.m4a,,,
,,,,,,,,,,,,36393,2021-04-23_16h29.06.214,judgeSpeechMusic_20210407_logNormShiftAmp,2020.1.2,Win32,60,,,,,,,,,,,,,,1,6.985135,,0,1,98,248,90,1,stimuli/stim_20210407_power2amp/equal_lnn_AM4.2Hz_25.m4a,,,
,,,,,,,,,,,,36393,2021-04-23_16h29.06.214,judgeSpeechMusic_20210407_logNormShiftAmp,2020.1.2,Win32,60,,,,,,,,,,,,,,2,22.067685,,0,1,99,249,57,1,stimuli/stim_20210407_power2amp/equal_lnn_AM2.4Hz_25.m4a,,,
,,,,,,,,,,,,36393,2021-04-23_16h29.06.214,judgeSpeechMusic_20210407_logNormShiftAmp,2020.1.2,Win32,60,,,,,,,,,,,,,,1,13.34656,1,1,1,100,250,3,1,stimuli/stim_20210407_power2amp/equal_lnn_AM0.6Hz_57.m4a,7.07709,,
,,,,,,,,,,,,36393,2021-04-23_16h29.06.214,judgeSpeechMusic_20210407_logNormShiftAmp,2020.1.2,Win32,60,,,,,,,,,,,,,,2,13.350645,,0,1,101,251,51,1,stimuli/stim_20210407_power2amp/equal_lnn_AM2.4Hz_88.m4a,,,
,,,,,,,,,,,,36393,2021-04-23_16h29.06.214,judgeSpeechMusic_20210407_logNormShiftAmp,2020.1.2,Win32,60,,,,,,,,,,,,,,1,7.41471,,0,1,102,252,113,1,stimuli/stim_20210407_power2amp/equal_lnn_AM4.8Hz_61.m4a,,,
,,,,,,,,,,,,36393,2021-04-23_16h29.06.214,judgeSpeechMusic_20210407_logNormShiftAmp,2020.1.2,Win32,60,,,,,,,,,,,,,,2,10.67578,,0,1,103,253,9,1,stimuli/stim_20210407_power2amp/equal_lnn_AM0.6Hz_90.m4a,,,
,,,,,,,,,,,,36393,2021-04-23_16h29.06.214,judgeSpeechMusic_20210407_logNormShiftAmp,2020.1.2,Win32,60,,,,,,,,,,,,,,1,7.99432,,0,1,104,254,19,1,stimuli/stim_20210407_power2amp/equal_lnn_AM1.2Hz_1.m4a,,,
,,,,,,,,,,,,36393,2021-04-23_16h29.06.214,judgeSpeechMusic_20210407_logNormShiftAmp,2020.1.2,Win32,60,,,,,,,,,,,,,,2,9.120395,,0,1,105,255,95,1,stimuli/stim_20210407_power2amp/equal_lnn_AM4.2Hz_96.m4a,,,
,,,,,,,,,,,,36393,2021-04-23_16h29.06.214,judgeSpeechMusic_20210407_logNormShiftAmp,2020.1.2,Win32,60,,,,,,,,,,,,,,2,8.623445,,0,1,106,256,88,1,stimuli/stim_20210407_power2amp/equal_lnn_AM3.6Hz_42.m4a,,,
,,,,,,,,,,,,36393,2021-04-23_16h29.06.214,judgeSpeechMusic_20210407_logNormShiftAmp,2020.1.2,Win32,60,,,,,,,,,,,,,,1,6.82628,,0,1,107,257,104,1,stimuli/stim_20210407_power2amp/equal_lnn_AM4.2Hz_45.m4a,,,
,,,,,,,,,,,,36393,2021-04-23_16h29.06.214,judgeSpeechMusic_20210407_logNormShiftAmp,2020.1.2,Win32,60,,,,,,,,,,,,,,2,7.003135,,0,1,108,258,124,1,stimuli/stim_20210407_power2amp/equal_lnn_AM5.4Hz_90.m4a,,,
,,,,,,,,,,,,36393,2021-04-23_16h29.06.214,judgeSpeechMusic_20210407_logNormShiftAmp,2020.1.2,Win32,60,,,,,,,,,,,,,,1,6.635805,,0,1,109,259,52,1,stimuli/stim_20210407_power2amp/equal_lnn_AM2.4Hz_5.m4a,,,
,,,,,,,,,,,,36393,2021-04-23_16h29.06.214,judgeSpeechMusic_20210407_logNormShiftAmp,2020.1.2,Win32,60,,,,,,,,,,,,,,1,8.075025,,0,1,110,260,65,1,stimuli/stim_20210407_power2amp/equal_lnn_AM3Hz_70.m4a,,,
,,,,,,,,,,,,36393,2021-04-23_16h29.06.214,judgeSpeechMusic_20210407_logNormShiftAmp,2020.1.2,Win32,60,,,,,,,,,,,,,,2,8.357755,,0,1,111,261,118,1,stimuli/stim_20210407_power2amp/equal_lnn_AM4.8Hz_87.m4a,,,
,,,,,,,,,,,,36393,2021-04-23_16h29.06.214,judgeSpeechMusic_20210407_logNormShiftAmp,2020.1.2,Win32,60,,,,,,,,,,,,,,1,7.88495,,0,1,112,262,63,1,stimuli/stim_20210407_power2amp/equal_lnn_AM3Hz_39.m4a,,,
,,,,,,,,,,,,36393,2021-04-23_16h29.06.214,judgeSpeechMusic_20210407_logNormShiftAmp,2020.1.2,Win32,60,,,,,,,,,,,,,,1,8.547025,,0,1,113,263,123,1,stimuli/stim_20210407_power2amp/equal_lnn_AM5.4Hz_76.m4a,,,
,,,,,,,,,,,,36393,2021-04-23_16h29.06.214,judgeSpeechMusic_20210407_logNormShiftAmp,2020.1.2,Win32,60,,,,,,,,,,,,,,2,7.51826,,0,1,114,264,140,1,stimuli/stim_20210407_power2amp/equal_lnn_AM6Hz_29.m4a,,,
,,,,,,,,,,,,36393,2021-04-23_16h29.06.214,judgeSpeechMusic_20210407_logNormShiftAmp,2020.1.2,Win32,60,,,,,,,,,,,,,,2,6.146075,,0,1,115,265,28,1,stimuli/stim_20210407_power2amp/equal_lnn_AM1.2Hz_88.m4a,,,
,,,,,,,,,,,,36393,2021-04-23_16h29.06.214,judgeSpeechMusic_20210407_logNormShiftAmp,2020.1.2,Win32,60,,,,,,,,,,,,,,1,8.611385,,0,1,116,266,32,1,stimuli/stim_20210407_power2amp/equal_lnn_AM1.8Hz_68.m4a,,,
,,,,,,,,,,,,36393,2021-04-23_16h29.06.214,judgeSpeechMusic_20210407_logNormShiftAmp,2020.1.2,Win32,60,,,,,,,,,,,,,,1,6.94082,,0,1,117,267,44,1,stimuli/stim_20210407_power2amp/equal_lnn_AM1.8Hz_1.m4a,,,
,,,,,,,,,,,,36393,2021-04-23_16h29.06.214,judgeSpeechMusic_20210407_logNormShiftAmp,2020.1.2,Win32,60,,,,,,,,,,,,,,1,6.00781,,0,1,118,268,134,1,stimuli/stim_20210407_power2amp/equal_lnn_AM5.4Hz_96.m4a,,,
,,,,,,,,,,,,36393,2021-04-23_16h29.06.214,judgeSpeechMusic_20210407_logNormShiftAmp,2020.1.2,Win32,60,,,,,,,,,,,,,,2,7.18421,,0,1,119,269,5,1,stimuli/stim_20210407_power2amp/equal_lnn_AM0.6Hz_43.m4a,,,
,,,,,,,,,,,,36393,2021-04-23_16h29.06.214,judgeSpeechMusic_20210407_logNormShiftAmp,2020.1.2,Win32,60,,,,,,,,,,,,,,2,7.57897,3,1,1,120,270,24,1,stimuli/stim_20210407_power2amp/equal_lnn_AM1.2Hz_38.m4a,2.68755,,
,,,,,,,,,,,,36393,2021-04-23_16h29.06.214,judgeSpeechMusic_20210407_logNormShiftAmp,2020.1.2,Win32,60,,,,,,,,,,,,,,2,7.52518,,0,1,121,271,86,1,stimuli/stim_20210407_power2amp/equal_lnn_AM3.6Hz_25.m4a,,,
,,,,,,,,,,,,36393,2021-04-23_16h29.06.214,judgeSpeechMusic_20210407_logNormShiftAmp,2020.1.2,Win32,60,,,,,,,,,,,,,,1,7.65245,,0,1,122,272,130,1,stimuli/stim_20210407_power2amp/equal_lnn_AM5.4Hz_75.m4a,,,
,,,,,,,,,,,,36393,2021-04-23_16h29.06.214,judgeSpeechMusic_20210407_logNormShiftAmp,2020.1.2,Win32,60,,,,,,,,,,,,,,2,6.954215,,0,1,123,273,22,1,stimuli/stim_20210407_power2amp/equal_lnn_AM1.2Hz_11.m4a,,,
,,,,,,,,,,,,36393,2021-04-23_16h29.06.214,judgeSpeechMusic_20210407_logNormShiftAmp,2020.1.2,Win32,60,,,,,,,,,,,,,,1,7.333995,,0,1,124,274,14,1,stimuli/stim_20210407_power2amp/equal_lnn_AM0.6Hz_39.m4a,,,
,,,,,,,,,,,,36393,2021-04-23_16h29.06.214,judgeSpeechMusic_20210407_logNormShiftAmp,2020.1.2,Win32,60,,,,,,,,,,,,,,2,6.669335,,0,1,125,275,2,1,stimuli/stim_20210407_power2amp/equal_lnn_AM0.6Hz_62.m4a,,,
,,,,,,,,,,,,36393,2021-04-23_16h29.06.214,judgeSpeechMusic_20210407_logNormShiftAmp,2020.1.2,Win32,60,,,,,,,,,,,,,,1,7.752895,,0,1,126,276,138,1,stimuli/stim_20210407_power2amp/equal_lnn_AM6Hz_11.m4a,,,
,,,,,,,,,,,,36393,2021-04-23_16h29.06.214,judgeSpeechMusic_20210407_logNormShiftAmp,2020.1.2,Win32,60,,,,,,,,,,,,,,2,8.53526,,0,1,127,277,70,1,stimuli/stim_20210407_power2amp/equal_lnn_AM3Hz_43.m4a,,,
,,,,,,,,,,,,36393,2021-04-23_16h29.06.214,judgeSpeechMusic_20210407_logNormShiftAmp,2020.1.2,Win32,60,,,,,,,,,,,,,,1,11.292395,,0,1,128,278,69,1,stimuli/stim_20210407_power2amp/equal_lnn_AM3Hz_11.m4a,,,
,,,,,,,,,,,,36393,2021-04-23_16h29.06.214,judgeSpeechMusic_20210407_logNormShiftAmp,2020.1.2,Win32,60,,,,,,,,,,,,,,2,7.701935,,0,1,129,279,43,1,stimuli/stim_20210407_power2amp/equal_lnn_AM1.8Hz_15.m4a,,,
,,,,,,,,,,,,36393,2021-04-23_16h29.06.214,judgeSpeechMusic_20210407_logNormShiftAmp,2020.1.2,Win32,60,,,,,,,,,,,,,,2,11.71899,,0,1,130,280,83,1,stimuli/stim_20210407_power2amp/equal_lnn_AM3.6Hz_14.m4a,,,
,,,,,,,,,,,,36393,2021-04-23_16h29.06.214,judgeSpeechMusic_20210407_logNormShiftAmp,2020.1.2,Win32,60,,,,,,,,,,,,,,1,15.30221,,0,1,131,281,48,1,stimuli/stim_20210407_power2amp/equal_lnn_AM2.4Hz_51.m4a,,,
,,,,,,,,,,,,36393,2021-04-23_16h29.06.214,judgeSpeechMusic_20210407_logNormShiftAmp,2020.1.2,Win32,60,,,,,,,,,,,,,,1,6.01148,,0,1,132,282,31,1,stimuli/stim_20210407_power2amp/equal_lnn_AM1.8Hz_38.m4a,,,
,,,,,,,,,,,,36393,2021-04-23_16h29.06.214,judgeSpeechMusic_20210407_logNormShiftAmp,2020.1.2,Win32,60,,,,,,,,,,,,,,1,6.185605,,0,1,133,283,59,1,stimuli/stim_20210407_power2amp/equal_lnn_AM2.4Hz_94.m4a,,,
,,,,,,,,,,,,36393,2021-04-23_16h29.06.214,judgeSpeechMusic_20210407_logNormShiftAmp,2020.1.2,Win32,60,,,,,,,,,,,,,,2,6.39033,,0,1,134,284,66,1,stimuli/stim_20210407_power2amp/equal_lnn_AM3Hz_29.m4a,,,
,,,,,,,,,,,,36393,2021-04-23_16h29.06.214,judgeSpeechMusic_20210407_logNormShiftAmp,2020.1.2,Win32,60,,,,,,,,,,,,,,1,6.45738,,0,1,135,285,62,1,stimuli/stim_20210407_power2amp/equal_lnn_AM3Hz_13.m4a,,,
,,,,,,,,,,,,36393,2021-04-23_16h29.06.214,judgeSpeechMusic_20210407_logNormShiftAmp,2020.1.2,Win32,60,,,,,,,,,,,,,,2,6.068465,,0,1,136,286,4,1,stimuli/stim_20210407_power2amp/equal_lnn_AM0.6Hz_96.m4a,,,
,,,,,,,,,,,,36393,2021-04-23_16h29.06.214,judgeSpeechMusic_20210407_logNormShiftAmp,2020.1.2,Win32,60,,,,,,,,,,,,,,1,6.043385,,0,1,137,287,85,1,stimuli/stim_20210407_power2amp/equal_lnn_AM3.6Hz_28.m4a,,,
,,,,,,,,,,,,36393,2021-04-23_16h29.06.214,judgeSpeechMusic_20210407_logNormShiftAmp,2020.1.2,Win32,60,,,,,,,,,,,,,,1,6.016045,,0,1,138,288,77,1,stimuli/stim_20210407_power2amp/equal_lnn_AM3.6Hz_8.m4a,,,
,,,,,,,,,,,,36393,2021-04-23_16h29.06.214,judgeSpeechMusic_20210407_logNormShiftAmp,2020.1.2,Win32,60,,,,,,,,,,,,,,1,5.703145,,0,1,139,289,99,1,stimuli/stim_20210407_power2amp/equal_lnn_AM4.2Hz_53.m4a,,,
,,,,,,,,,,,,36393,2021-04-23_16h29.06.214,judgeSpeechMusic_20210407_logNormShiftAmp,2020.1.2,Win32,60,,,,,,,,,,,,,,1,6.32143,,0,1,140,290,74,1,stimuli/stim_20210407_power2amp/equal_lnn_AM3Hz_77.m4a,,,
,,,,,,,,,,,,36393,2021-04-23_16h29.06.214,judgeSpeechMusic_20210407_logNormShiftAmp,2020.1.2,Win32,60,,,,,,,,,,,,,,2,7.73021,,0,1,141,291,96,1,stimuli/stim_20210407_power2amp/equal_lnn_AM4.2Hz_97.m4a,,,
,,,,,,,,,,,,36393,2021-04-23_16h29.06.214,judgeSpeechMusic_20210407_logNormShiftAmp,2020.1.2,Win32,60,,,,,,,,,,,,,,1,6.30153,,0,1,142,292,129,1,stimuli/stim_20210407_power2amp/equal_lnn_AM5.4Hz_22.m4a,,,
,,,,,,,,,,,,36393,2021-04-23_16h29.06.214,judgeSpeechMusic_20210407_logNormShiftAmp,2020.1.2,Win32,60,,,,,,,,,,,,,,2,5.86957,,0,1,143,293,45,1,stimuli/stim_20210407_power2amp/equal_lnn_AM2.4Hz_33.m4a,,,
,,,,,,,,,,,,36393,2021-04-23_16h29.06.214,judgeSpeechMusic_20210407_logNormShiftAmp,2020.1.2,Win32,60,,,,,,,,,,,,,,2,5.752485,,0,1,144,294,46,1,stimuli/stim_20210407_power2amp/equal_lnn_AM2.4Hz_35.m4a,,,
,,,,,,,,,,,,36393,2021-04-23_16h29.06.214,judgeSpeechMusic_20210407_logNormShiftAmp,2020.1.2,Win32,60,,,,,,,,,,,,,,1,5.88581,,0,1,145,295,146,1,stimuli/stim_20210407_power2amp/equal_lnn_AM6Hz_36.m4a,,,
,,,,,,,,,,,,36393,2021-04-23_16h29.06.214,judgeSpeechMusic_20210407_logNormShiftAmp,2020.1.2,Win32,60,,,,,,,,,,,,,,1,5.69671,,0,1,146,296,131,1,stimuli/stim_20210407_power2amp/equal_lnn_AM5.4Hz_57.m4a,,,
,,,,,,,,,,,,36393,2021-04-23_16h29.06.214,judgeSpeechMusic_20210407_logNormShiftAmp,2020.1.2,Win32,60,,,,,,,,,,,,,,2,6.334315,,0,1,147,297,73,1,stimuli/stim_20210407_power2amp/equal_lnn_AM3Hz_22.m4a,,,
,,,,,,,,,,,,36393,2021-04-23_16h29.06.214,judgeSpeechMusic_20210407_logNormShiftAmp,2020.1.2,Win32,60,,,,,,,,,,,,,,2,5.86574,,0,1,148,298,40,1,stimuli/stim_20210407_power2amp/equal_lnn_AM1.8Hz_98.m4a,,,
,,,,,,,,,,,,36393,2021-04-23_16h29.06.214,judgeSpeechMusic_20210407_logNormShiftAmp,2020.1.2,Win32,60,,,,,,,,,,,,,,1,6.80142,,0,1,149,299,147,1,stimuli/stim_20210407_power2amp/equal_lnn_AM6Hz_12.m4a,,,
,,,,,,,,,,,,36393,2021-04-23_16h29.06.214,judgeSpeechMusic_20210407_logNormShiftAmp,2020.1.2,Win32,60,,,,,,,,,,,,,,,,,,,,,,,,,space,11.339085
