headphoneResponse.keys,headphoneResponse.corr,headphoneResponse.rt,headphoneTrial.thisRepN,headphoneTrial.thisTrialN,headphoneTrial.thisN,headphoneTrial.thisIndex,headphoneTrial.ran,headphone_sound1,headphone_sound2,headphone_sound3,corrAns,participant,date,expName,psychopyVersion,OS,frameRate,trainSlider.response,trainSlider.rt,beepTrainResponse.keys,beepTrainResponse.corr,trainingTrials.thisRepN,trainingTrials.thisTrialN,trainingTrials.thisN,trainingTrials.thisIndex,trainingTrials.ran,trainAudioFile,beepTrainResponse.rt,readyReal_resp.keys,readyReal_resp.rt,ratingSlider.response,ratingSlider.rt,beepResp.keys,beepResp.corr,expTrials.thisRepN,expTrials.thisTrialN,expTrials.thisN,expTrials.thisIndex,expTrials.ran,audioFile,beepResp.rt,end_resp.keys,end_resp.rt
3,1,0.784,0,0,0,0,1,stimuli/screen_antiphase.wav,stimuli/screen_origin.wav,stimuli/screen_quiet.wav,3,36418,2021-04-26_14h43.23.238,judgeSpeechMusic_20210407_logNormShiftAmp,2020.1.2,Win32,60,,,,,,,,,,,,,,,,,,,,,,,,,,
1,1,1.068,0,1,1,5,1,stimuli/screen_quiet.wav,stimuli/screen_origin.wav,stimuli/screen_antiphase.wav,1,36418,2021-04-26_14h43.23.238,judgeSpeechMusic_20210407_logNormShiftAmp,2020.1.2,Win32,60,,,,,,,,,,,,,,,,,,,,,,,,,,
1,1,0.954,0,2,2,4,1,stimuli/screen_quiet.wav,stimuli/screen_antiphase.wav,stimuli/screen_origin.wav,1,36418,2021-04-26_14h43.23.238,judgeSpeechMusic_20210407_logNormShiftAmp,2020.1.2,Win32,60,,,,,,,,,,,,,,,,,,,,,,,,,,
2,1,1.089,0,3,3,1,1,stimuli/screen_antiphase.wav,stimuli/screen_quiet.wav,stimuli/screen_origin.wav,2,36418,2021-04-26_14h43.23.238,judgeSpeechMusic_20210407_logNormShiftAmp,2020.1.2,Win32,60,,,,,,,,,,,,,,,,,,,,,,,,,,
3,1,0.499,0,4,4,2,1,stimuli/screen_origin.wav,stimuli/screen_antiphase.wav,stimuli/screen_quiet.wav,3,36418,2021-04-26_14h43.23.238,judgeSpeechMusic_20210407_logNormShiftAmp,2020.1.2,Win32,60,,,,,,,,,,,,,,,,,,,,,,,,,,
2,1,0.534,0,5,5,3,1,stimuli/screen_origin.wav,stimuli/screen_quiet.wav,stimuli/screen_antiphase.wav,2,36418,2021-04-26_14h43.23.238,judgeSpeechMusic_20210407_logNormShiftAmp,2020.1.2,Win32,60,,,,,,,,,,,,,,,,,,,,,,,,,,
,,,,,,,,,,,,36418,2021-04-26_14h43.23.238,judgeSpeechMusic_20210407_logNormShiftAmp,2020.1.2,Win32,60,2,10.048,,0,0,0,0,2,1,stimuli/stim_20210407_power2amp/equal_lnn_AM_training3.9Hz.m4a,,,,,,,,,,,,,,,,
,,,,,,,,,,,,36418,2021-04-26_14h43.23.238,judgeSpeechMusic_20210407_logNormShiftAmp,2020.1.2,Win32,60,1,7.21,,0,0,1,1,0,1,stimuli/stim_20210407_power2amp/equal_lnn_AM_training1.5Hz.m4a,,,,,,,,,,,,,,,,
,,,,,,,,,,,,36418,2021-04-26_14h43.23.238,judgeSpeechMusic_20210407_logNormShiftAmp,2020.1.2,Win32,60,2,6.731,1,1,0,2,2,1,1,stimuli/stim_20210407_power2amp/equal_lnn_AM_training2.7Hz.m4a,1.144,,,,,,,,,,,,,,,
,,,,,,,,,,,,36418,2021-04-26_14h43.23.238,judgeSpeechMusic_20210407_logNormShiftAmp,2020.1.2,Win32,60,1,6.529,,0,0,3,3,3,1,stimuli/stim_20210407_power2amp/equal_lnn_AM_training5.1Hz.m4a,,,,,,,,,,,,,,,,
,,,,,,,,,,,,36418,2021-04-26_14h43.23.238,judgeSpeechMusic_20210407_logNormShiftAmp,2020.1.2,Win32,60,,,,,,,,,,,,space,5.682,2,8.203,,0,0,0,0,104,1,stimuli/stim_20210407_power2amp/equal_lnn_AM4.2Hz_96.m4a,,,
,,,,,,,,,,,,36418,2021-04-26_14h43.23.238,judgeSpeechMusic_20210407_logNormShiftAmp,2020.1.2,Win32,60,,,,,,,,,,,,,,2,7.172,,0,0,1,1,34,1,stimuli/stim_20210407_power2amp/equal_lnn_AM1.8Hz_39.m4a,,,
,,,,,,,,,,,,36418,2021-04-26_14h43.23.238,judgeSpeechMusic_20210407_logNormShiftAmp,2020.1.2,Win32,60,,,,,,,,,,,,,,1,6.257,,0,0,2,2,66,1,stimuli/stim_20210407_power2amp/equal_lnn_AM3Hz_41.m4a,,,
,,,,,,,,,,,,36418,2021-04-26_14h43.23.238,judgeSpeechMusic_20210407_logNormShiftAmp,2020.1.2,Win32,60,,,,,,,,,,,,,,2,7.539,,0,0,3,3,135,1,stimuli/stim_20210407_power2amp/equal_lnn_AM6Hz_99.m4a,,,
,,,,,,,,,,,,36418,2021-04-26_14h43.23.238,judgeSpeechMusic_20210407_logNormShiftAmp,2020.1.2,Win32,60,,,,,,,,,,,,,,2,5.98,,0,0,4,4,80,1,stimuli/stim_20210407_power2amp/equal_lnn_AM3.6Hz_7.m4a,,,
,,,,,,,,,,,,36418,2021-04-26_14h43.23.238,judgeSpeechMusic_20210407_logNormShiftAmp,2020.1.2,Win32,60,,,,,,,,,,,,,,1,6.33,,0,0,5,5,130,1,stimuli/stim_20210407_power2amp/equal_lnn_AM5.4Hz_46.m4a,,,
,,,,,,,,,,,,36418,2021-04-26_14h43.23.238,judgeSpeechMusic_20210407_logNormShiftAmp,2020.1.2,Win32,60,,,,,,,,,,,,,,1,6.147,,0,0,6,6,48,1,stimuli/stim_20210407_power2amp/equal_lnn_AM2.4Hz_78.m4a,,,
,,,,,,,,,,,,36418,2021-04-26_14h43.23.238,judgeSpeechMusic_20210407_logNormShiftAmp,2020.1.2,Win32,60,,,,,,,,,,,,,,2,8.591,,0,0,7,7,32,1,stimuli/stim_20210407_power2amp/equal_lnn_AM1.8Hz_8.m4a,,,
,,,,,,,,,,,,36418,2021-04-26_14h43.23.238,judgeSpeechMusic_20210407_logNormShiftAmp,2020.1.2,Win32,60,,,,,,,,,,,,,,1,6.488,,0,0,8,8,44,1,stimuli/stim_20210407_power2amp/equal_lnn_AM1.8Hz_34.m4a,,,
,,,,,,,,,,,,36418,2021-04-26_14h43.23.238,judgeSpeechMusic_20210407_logNormShiftAmp,2020.1.2,Win32,60,,,,,,,,,,,,,,2,6.525,,0,0,9,9,52,1,stimuli/stim_20210407_power2amp/equal_lnn_AM2.4Hz_10.m4a,,,
,,,,,,,,,,,,36418,2021-04-26_14h43.23.238,judgeSpeechMusic_20210407_logNormShiftAmp,2020.1.2,Win32,60,,,,,,,,,,,,,,1,6.932,,0,0,10,10,120,1,stimuli/stim_20210407_power2amp/equal_lnn_AM5.4Hz_15.m4a,,,
,,,,,,,,,,,,36418,2021-04-26_14h43.23.238,judgeSpeechMusic_20210407_logNormShiftAmp,2020.1.2,Win32,60,,,,,,,,,,,,,,2,8.278,,0,0,11,11,100,1,stimuli/stim_20210407_power2amp/equal_lnn_AM4.2Hz_76.m4a,,,
,,,,,,,,,,,,36418,2021-04-26_14h43.23.238,judgeSpeechMusic_20210407_logNormShiftAmp,2020.1.2,Win32,60,,,,,,,,,,,,,,1,5.74,,0,0,12,12,141,1,stimuli/stim_20210407_power2amp/equal_lnn_AM6Hz_13.m4a,,,
,,,,,,,,,,,,36418,2021-04-26_14h43.23.238,judgeSpeechMusic_20210407_logNormShiftAmp,2020.1.2,Win32,60,,,,,,,,,,,,,,1,6.473,,0,0,13,13,2,1,stimuli/stim_20210407_power2amp/equal_lnn_AM0.6Hz_43.m4a,,,
,,,,,,,,,,,,36418,2021-04-26_14h43.23.238,judgeSpeechMusic_20210407_logNormShiftAmp,2020.1.2,Win32,60,,,,,,,,,,,,,,1,6.325,,0,0,14,14,35,1,stimuli/stim_20210407_power2amp/equal_lnn_AM1.8Hz_12.m4a,,,
,,,,,,,,,,,,36418,2021-04-26_14h43.23.238,judgeSpeechMusic_20210407_logNormShiftAmp,2020.1.2,Win32,60,,,,,,,,,,,,,,1,7.061,,0,0,15,15,8,1,stimuli/stim_20210407_power2amp/equal_lnn_AM0.6Hz_6.m4a,,,
,,,,,,,,,,,,36418,2021-04-26_14h43.23.238,judgeSpeechMusic_20210407_logNormShiftAmp,2020.1.2,Win32,60,,,,,,,,,,,,,,1,5.708,,0,0,16,16,147,1,stimuli/stim_20210407_power2amp/equal_lnn_AM6Hz_21.m4a,,,
,,,,,,,,,,,,36418,2021-04-26_14h43.23.238,judgeSpeechMusic_20210407_logNormShiftAmp,2020.1.2,Win32,60,,,,,,,,,,,,,,2,5.794,,0,0,17,17,89,1,stimuli/stim_20210407_power2amp/equal_lnn_AM3.6Hz_36.m4a,,,
,,,,,,,,,,,,36418,2021-04-26_14h43.23.238,judgeSpeechMusic_20210407_logNormShiftAmp,2020.1.2,Win32,60,,,,,,,,,,,,,,2,6.528,,0,0,18,18,144,1,stimuli/stim_20210407_power2amp/equal_lnn_AM6Hz_96.m4a,,,
,,,,,,,,,,,,36418,2021-04-26_14h43.23.238,judgeSpeechMusic_20210407_logNormShiftAmp,2020.1.2,Win32,60,,,,,,,,,,,,,,1,5.776,,0,0,19,19,145,1,stimuli/stim_20210407_power2amp/equal_lnn_AM6Hz_52.m4a,,,
,,,,,,,,,,,,36418,2021-04-26_14h43.23.238,judgeSpeechMusic_20210407_logNormShiftAmp,2020.1.2,Win32,60,,,,,,,,,,,,,,2,6.993,,0,0,20,20,112,1,stimuli/stim_20210407_power2amp/equal_lnn_AM4.8Hz_20.m4a,,,
,,,,,,,,,,,,36418,2021-04-26_14h43.23.238,judgeSpeechMusic_20210407_logNormShiftAmp,2020.1.2,Win32,60,,,,,,,,,,,,,,1,5.713,,0,0,21,21,11,1,stimuli/stim_20210407_power2amp/equal_lnn_AM0.6Hz_91.m4a,,,
,,,,,,,,,,,,36418,2021-04-26_14h43.23.238,judgeSpeechMusic_20210407_logNormShiftAmp,2020.1.2,Win32,60,,,,,,,,,,,,,,2,6.339,,0,0,22,22,30,1,stimuli/stim_20210407_power2amp/equal_lnn_AM1.8Hz_17.m4a,,,
,,,,,,,,,,,,36418,2021-04-26_14h43.23.238,judgeSpeechMusic_20210407_logNormShiftAmp,2020.1.2,Win32,60,,,,,,,,,,,,,,1,6.489,,0,0,23,23,117,1,stimuli/stim_20210407_power2amp/equal_lnn_AM4.8Hz_9.m4a,,,
,,,,,,,,,,,,36418,2021-04-26_14h43.23.238,judgeSpeechMusic_20210407_logNormShiftAmp,2020.1.2,Win32,60,,,,,,,,,,,,,,2,6.855,,0,0,24,24,0,1,stimuli/stim_20210407_power2amp/equal_lnn_AM0.6Hz_3.m4a,,,
,,,,,,,,,,,,36418,2021-04-26_14h43.23.238,judgeSpeechMusic_20210407_logNormShiftAmp,2020.1.2,Win32,60,,,,,,,,,,,,,,2,6.573,,0,0,25,25,84,1,stimuli/stim_20210407_power2amp/equal_lnn_AM3.6Hz_17.m4a,,,
,,,,,,,,,,,,36418,2021-04-26_14h43.23.238,judgeSpeechMusic_20210407_logNormShiftAmp,2020.1.2,Win32,60,,,,,,,,,,,,,,1,6.322,,0,0,26,26,74,1,stimuli/stim_20210407_power2amp/equal_lnn_AM3Hz_56.m4a,,,
,,,,,,,,,,,,36418,2021-04-26_14h43.23.238,judgeSpeechMusic_20210407_logNormShiftAmp,2020.1.2,Win32,60,,,,,,,,,,,,,,2,6.305,,0,0,27,27,96,1,stimuli/stim_20210407_power2amp/equal_lnn_AM4.2Hz_36.m4a,,,
,,,,,,,,,,,,36418,2021-04-26_14h43.23.238,judgeSpeechMusic_20210407_logNormShiftAmp,2020.1.2,Win32,60,,,,,,,,,,,,,,2,7.156,,0,0,28,28,58,1,stimuli/stim_20210407_power2amp/equal_lnn_AM2.4Hz_41.m4a,,,
,,,,,,,,,,,,36418,2021-04-26_14h43.23.238,judgeSpeechMusic_20210407_logNormShiftAmp,2020.1.2,Win32,60,,,,,,,,,,,,,,2,6.206,,0,0,29,29,57,1,stimuli/stim_20210407_power2amp/equal_lnn_AM2.4Hz_60.m4a,,,
,,,,,,,,,,,,36418,2021-04-26_14h43.23.238,judgeSpeechMusic_20210407_logNormShiftAmp,2020.1.2,Win32,60,,,,,,,,,,,,,,1,8.296,,0,0,30,30,116,1,stimuli/stim_20210407_power2amp/equal_lnn_AM4.8Hz_52.m4a,,,
,,,,,,,,,,,,36418,2021-04-26_14h43.23.238,judgeSpeechMusic_20210407_logNormShiftAmp,2020.1.2,Win32,60,,,,,,,,,,,,,,2,7.706,,0,0,31,31,62,1,stimuli/stim_20210407_power2amp/equal_lnn_AM3Hz_83.m4a,,,
,,,,,,,,,,,,36418,2021-04-26_14h43.23.238,judgeSpeechMusic_20210407_logNormShiftAmp,2020.1.2,Win32,60,,,,,,,,,,,,,,1,5.958,,0,0,32,32,43,1,stimuli/stim_20210407_power2amp/equal_lnn_AM1.8Hz_60.m4a,,,
,,,,,,,,,,,,36418,2021-04-26_14h43.23.238,judgeSpeechMusic_20210407_logNormShiftAmp,2020.1.2,Win32,60,,,,,,,,,,,,,,2,6.472,,0,0,33,33,70,1,stimuli/stim_20210407_power2amp/equal_lnn_AM3Hz_87.m4a,,,
,,,,,,,,,,,,36418,2021-04-26_14h43.23.238,judgeSpeechMusic_20210407_logNormShiftAmp,2020.1.2,Win32,60,,,,,,,,,,,,,,2,5.948,,0,0,34,34,79,1,stimuli/stim_20210407_power2amp/equal_lnn_AM3.6Hz_42.m4a,,,
,,,,,,,,,,,,36418,2021-04-26_14h43.23.238,judgeSpeechMusic_20210407_logNormShiftAmp,2020.1.2,Win32,60,,,,,,,,,,,,,,1,7.624,4,1,0,35,35,15,1,stimuli/stim_20210407_power2amp/equal_lnn_AM1.2Hz_95.m4a,1.672,,
,,,,,,,,,,,,36418,2021-04-26_14h43.23.238,judgeSpeechMusic_20210407_logNormShiftAmp,2020.1.2,Win32,60,,,,,,,,,,,,,,1,6.623,,0,0,36,36,23,1,stimuli/stim_20210407_power2amp/equal_lnn_AM1.2Hz_8.m4a,,,
,,,,,,,,,,,,36418,2021-04-26_14h43.23.238,judgeSpeechMusic_20210407_logNormShiftAmp,2020.1.2,Win32,60,,,,,,,,,,,,,,2,5.847,,0,0,37,37,36,1,stimuli/stim_20210407_power2amp/equal_lnn_AM1.8Hz_96.m4a,,,
,,,,,,,,,,,,36418,2021-04-26_14h43.23.238,judgeSpeechMusic_20210407_logNormShiftAmp,2020.1.2,Win32,60,,,,,,,,,,,,,,1,6.012,,0,0,38,38,69,1,stimuli/stim_20210407_power2amp/equal_lnn_AM3Hz_99.m4a,,,
,,,,,,,,,,,,36418,2021-04-26_14h43.23.238,judgeSpeechMusic_20210407_logNormShiftAmp,2020.1.2,Win32,60,,,,,,,,,,,,,,1,9.328,,0,0,39,39,7,1,stimuli/stim_20210407_power2amp/equal_lnn_AM0.6Hz_78.m4a,,,
,,,,,,,,,,,,36418,2021-04-26_14h43.23.238,judgeSpeechMusic_20210407_logNormShiftAmp,2020.1.2,Win32,60,,,,,,,,,,,,,,1,6.745,,0,0,40,40,134,1,stimuli/stim_20210407_power2amp/equal_lnn_AM5.4Hz_47.m4a,,,
,,,,,,,,,,,,36418,2021-04-26_14h43.23.238,judgeSpeechMusic_20210407_logNormShiftAmp,2020.1.2,Win32,60,,,,,,,,,,,,,,1,6.941,,0,0,41,41,149,1,stimuli/stim_20210407_power2amp/equal_lnn_AM6Hz_95.m4a,,,
,,,,,,,,,,,,36418,2021-04-26_14h43.23.238,judgeSpeechMusic_20210407_logNormShiftAmp,2020.1.2,Win32,60,,,,,,,,,,,,,,2,5.856,,0,0,42,42,37,1,stimuli/stim_20210407_power2amp/equal_lnn_AM1.8Hz_51.m4a,,,
,,,,,,,,,,,,36418,2021-04-26_14h43.23.238,judgeSpeechMusic_20210407_logNormShiftAmp,2020.1.2,Win32,60,,,,,,,,,,,,,,1,10.072,,0,0,43,43,102,1,stimuli/stim_20210407_power2amp/equal_lnn_AM4.2Hz_30.m4a,,,
,,,,,,,,,,,,36418,2021-04-26_14h43.23.238,judgeSpeechMusic_20210407_logNormShiftAmp,2020.1.2,Win32,60,,,,,,,,,,,,,,2,5.604,,0,0,44,44,113,1,stimuli/stim_20210407_power2amp/equal_lnn_AM4.8Hz_51.m4a,,,
,,,,,,,,,,,,36418,2021-04-26_14h43.23.238,judgeSpeechMusic_20210407_logNormShiftAmp,2020.1.2,Win32,60,,,,,,,,,,,,,,1,6.72,,0,0,45,45,51,1,stimuli/stim_20210407_power2amp/equal_lnn_AM2.4Hz_3.m4a,,,
,,,,,,,,,,,,36418,2021-04-26_14h43.23.238,judgeSpeechMusic_20210407_logNormShiftAmp,2020.1.2,Win32,60,,,,,,,,,,,,,,2,7.612,,0,0,46,46,76,1,stimuli/stim_20210407_power2amp/equal_lnn_AM3.6Hz_31.m4a,,,
,,,,,,,,,,,,36418,2021-04-26_14h43.23.238,judgeSpeechMusic_20210407_logNormShiftAmp,2020.1.2,Win32,60,,,,,,,,,,,,,,1,7.283,,0,0,47,47,108,1,stimuli/stim_20210407_power2amp/equal_lnn_AM4.8Hz_74.m4a,,,
,,,,,,,,,,,,36418,2021-04-26_14h43.23.238,judgeSpeechMusic_20210407_logNormShiftAmp,2020.1.2,Win32,60,,,,,,,,,,,,,,2,7.74,,0,0,48,48,64,1,stimuli/stim_20210407_power2amp/equal_lnn_AM3Hz_17.m4a,,,
,,,,,,,,,,,,36418,2021-04-26_14h43.23.238,judgeSpeechMusic_20210407_logNormShiftAmp,2020.1.2,Win32,60,,,,,,,,,,,,,,2,7.775,,0,0,49,49,39,1,stimuli/stim_20210407_power2amp/equal_lnn_AM1.8Hz_24.m4a,,,
,,,,,,,,,,,,36418,2021-04-26_14h43.23.238,judgeSpeechMusic_20210407_logNormShiftAmp,2020.1.2,Win32,60,,,,,,,,,,,,,,2,7.329,,0,0,50,50,118,1,stimuli/stim_20210407_power2amp/equal_lnn_AM4.8Hz_45.m4a,,,
,,,,,,,,,,,,36418,2021-04-26_14h43.23.238,judgeSpeechMusic_20210407_logNormShiftAmp,2020.1.2,Win32,60,,,,,,,,,,,,,,1,5.639,,0,0,51,51,107,1,stimuli/stim_20210407_power2amp/equal_lnn_AM4.8Hz_43.m4a,,,
,,,,,,,,,,,,36418,2021-04-26_14h43.23.238,judgeSpeechMusic_20210407_logNormShiftAmp,2020.1.2,Win32,60,,,,,,,,,,,,,,1,6.155,,0,0,52,52,50,1,stimuli/stim_20210407_power2amp/equal_lnn_AM2.4Hz_89.m4a,,,
,,,,,,,,,,,,36418,2021-04-26_14h43.23.238,judgeSpeechMusic_20210407_logNormShiftAmp,2020.1.2,Win32,60,,,,,,,,,,,,,,2,6.107,,0,0,53,53,22,1,stimuli/stim_20210407_power2amp/equal_lnn_AM1.2Hz_70.m4a,,,
,,,,,,,,,,,,36418,2021-04-26_14h43.23.238,judgeSpeechMusic_20210407_logNormShiftAmp,2020.1.2,Win32,60,,,,,,,,,,,,,,1,5.774,,0,0,54,54,140,1,stimuli/stim_20210407_power2amp/equal_lnn_AM6Hz_10.m4a,,,
,,,,,,,,,,,,36418,2021-04-26_14h43.23.238,judgeSpeechMusic_20210407_logNormShiftAmp,2020.1.2,Win32,60,,,,,,,,,,,,,,2,5.69,,0,0,55,55,54,1,stimuli/stim_20210407_power2amp/equal_lnn_AM2.4Hz_38.m4a,,,
,,,,,,,,,,,,36418,2021-04-26_14h43.23.238,judgeSpeechMusic_20210407_logNormShiftAmp,2020.1.2,Win32,60,,,,,,,,,,,,,,1,5.756,,0,0,56,56,146,1,stimuli/stim_20210407_power2amp/equal_lnn_AM6Hz_8.m4a,,,
,,,,,,,,,,,,36418,2021-04-26_14h43.23.238,judgeSpeechMusic_20210407_logNormShiftAmp,2020.1.2,Win32,60,,,,,,,,,,,,,,2,7.573,,0,0,57,57,77,1,stimuli/stim_20210407_power2amp/equal_lnn_AM3.6Hz_68.m4a,,,
,,,,,,,,,,,,36418,2021-04-26_14h43.23.238,judgeSpeechMusic_20210407_logNormShiftAmp,2020.1.2,Win32,60,,,,,,,,,,,,,,2,7.513,,0,0,58,58,119,1,stimuli/stim_20210407_power2amp/equal_lnn_AM4.8Hz_88.m4a,,,
,,,,,,,,,,,,36418,2021-04-26_14h43.23.238,judgeSpeechMusic_20210407_logNormShiftAmp,2020.1.2,Win32,60,,,,,,,,,,,,,,2,6.256,,0,0,59,59,75,1,stimuli/stim_20210407_power2amp/equal_lnn_AM3.6Hz_54.m4a,,,
,,,,,,,,,,,,36418,2021-04-26_14h43.23.238,judgeSpeechMusic_20210407_logNormShiftAmp,2020.1.2,Win32,60,,,,,,,,,,,,,,2,6.966,1,1,0,60,60,40,1,stimuli/stim_20210407_power2amp/equal_lnn_AM1.8Hz_49.m4a,1.022,,
,,,,,,,,,,,,36418,2021-04-26_14h43.23.238,judgeSpeechMusic_20210407_logNormShiftAmp,2020.1.2,Win32,60,,,,,,,,,,,,,,1,5.839,,0,0,61,61,132,1,stimuli/stim_20210407_power2amp/equal_lnn_AM5.4Hz_18.m4a,,,
,,,,,,,,,,,,36418,2021-04-26_14h43.23.238,judgeSpeechMusic_20210407_logNormShiftAmp,2020.1.2,Win32,60,,,,,,,,,,,,,,1,6.338,,0,0,62,62,19,1,stimuli/stim_20210407_power2amp/equal_lnn_AM1.2Hz_82.m4a,,,
,,,,,,,,,,,,36418,2021-04-26_14h43.23.238,judgeSpeechMusic_20210407_logNormShiftAmp,2020.1.2,Win32,60,,,,,,,,,,,,,,2,6.409,,0,0,63,63,92,1,stimuli/stim_20210407_power2amp/equal_lnn_AM4.2Hz_65.m4a,,,
,,,,,,,,,,,,36418,2021-04-26_14h43.23.238,judgeSpeechMusic_20210407_logNormShiftAmp,2020.1.2,Win32,60,,,,,,,,,,,,,,1,5.898,,0,0,64,64,71,1,stimuli/stim_20210407_power2amp/equal_lnn_AM3Hz_10.m4a,,,
,,,,,,,,,,,,36418,2021-04-26_14h43.23.238,judgeSpeechMusic_20210407_logNormShiftAmp,2020.1.2,Win32,60,,,,,,,,,,,,,,2,6.291,,0,0,65,65,95,1,stimuli/stim_20210407_power2amp/equal_lnn_AM4.2Hz_19.m4a,,,
,,,,,,,,,,,,36418,2021-04-26_14h43.23.238,judgeSpeechMusic_20210407_logNormShiftAmp,2020.1.2,Win32,60,,,,,,,,,,,,,,1,6.472,,0,0,66,66,87,1,stimuli/stim_20210407_power2amp/equal_lnn_AM3.6Hz_40.m4a,,,
,,,,,,,,,,,,36418,2021-04-26_14h43.23.238,judgeSpeechMusic_20210407_logNormShiftAmp,2020.1.2,Win32,60,,,,,,,,,,,,,,2,5.572,,0,0,67,67,78,1,stimuli/stim_20210407_power2amp/equal_lnn_AM3.6Hz_23.m4a,,,
,,,,,,,,,,,,36418,2021-04-26_14h43.23.238,judgeSpeechMusic_20210407_logNormShiftAmp,2020.1.2,Win32,60,,,,,,,,,,,,,,2,5.614,,0,0,68,68,49,1,stimuli/stim_20210407_power2amp/equal_lnn_AM2.4Hz_80.m4a,,,
,,,,,,,,,,,,36418,2021-04-26_14h43.23.238,judgeSpeechMusic_20210407_logNormShiftAmp,2020.1.2,Win32,60,,,,,,,,,,,,,,2,8.216,,0,0,69,69,106,1,stimuli/stim_20210407_power2amp/equal_lnn_AM4.8Hz_25.m4a,,,
,,,,,,,,,,,,36418,2021-04-26_14h43.23.238,judgeSpeechMusic_20210407_logNormShiftAmp,2020.1.2,Win32,60,,,,,,,,,,,,,,2,6.593,,0,0,70,70,33,1,stimuli/stim_20210407_power2amp/equal_lnn_AM1.8Hz_55.m4a,,,
,,,,,,,,,,,,36418,2021-04-26_14h43.23.238,judgeSpeechMusic_20210407_logNormShiftAmp,2020.1.2,Win32,60,,,,,,,,,,,,,,2,6.956,,0,0,71,71,55,1,stimuli/stim_20210407_power2amp/equal_lnn_AM2.4Hz_43.m4a,,,
,,,,,,,,,,,,36418,2021-04-26_14h43.23.238,judgeSpeechMusic_20210407_logNormShiftAmp,2020.1.2,Win32,60,,,,,,,,,,,,,,1,5.98,,0,0,72,72,127,1,stimuli/stim_20210407_power2amp/equal_lnn_AM5.4Hz_8.m4a,,,
,,,,,,,,,,,,36418,2021-04-26_14h43.23.238,judgeSpeechMusic_20210407_logNormShiftAmp,2020.1.2,Win32,60,,,,,,,,,,,,,,1,8.708,,0,0,73,73,26,1,stimuli/stim_20210407_power2amp/equal_lnn_AM1.2Hz_57.m4a,,,
,,,,,,,,,,,,36418,2021-04-26_14h43.23.238,judgeSpeechMusic_20210407_logNormShiftAmp,2020.1.2,Win32,60,,,,,,,,,,,,,,1,6.639,,0,0,74,74,17,1,stimuli/stim_20210407_power2amp/equal_lnn_AM1.2Hz_11.m4a,,,
,,,,,,,,,,,,36418,2021-04-26_14h43.23.238,judgeSpeechMusic_20210407_logNormShiftAmp,2020.1.2,Win32,60,,,,,,,,,,,,,,1,5.674,,0,0,75,75,139,1,stimuli/stim_20210407_power2amp/equal_lnn_AM6Hz_88.m4a,,,
,,,,,,,,,,,,36418,2021-04-26_14h43.23.238,judgeSpeechMusic_20210407_logNormShiftAmp,2020.1.2,Win32,60,,,,,,,,,,,,,,1,5.594,,0,0,76,76,101,1,stimuli/stim_20210407_power2amp/equal_lnn_AM4.2Hz_25.m4a,,,
,,,,,,,,,,,,36418,2021-04-26_14h43.23.238,judgeSpeechMusic_20210407_logNormShiftAmp,2020.1.2,Win32,60,,,,,,,,,,,,,,1,5.66,,0,0,77,77,143,1,stimuli/stim_20210407_power2amp/equal_lnn_AM6Hz_23.m4a,,,
,,,,,,,,,,,,36418,2021-04-26_14h43.23.238,judgeSpeechMusic_20210407_logNormShiftAmp,2020.1.2,Win32,60,,,,,,,,,,,,,,1,5.606,,0,0,78,78,129,1,stimuli/stim_20210407_power2amp/equal_lnn_AM5.4Hz_39.m4a,,,
,,,,,,,,,,,,36418,2021-04-26_14h43.23.238,judgeSpeechMusic_20210407_logNormShiftAmp,2020.1.2,Win32,60,,,,,,,,,,,,,,1,6.208,,0,0,79,79,63,1,stimuli/stim_20210407_power2amp/equal_lnn_AM3Hz_72.m4a,,,
,,,,,,,,,,,,36418,2021-04-26_14h43.23.238,judgeSpeechMusic_20210407_logNormShiftAmp,2020.1.2,Win32,60,,,,,,,,,,,,,,1,5.974,,0,0,80,80,4,1,stimuli/stim_20210407_power2amp/equal_lnn_AM0.6Hz_98.m4a,,,
,,,,,,,,,,,,36418,2021-04-26_14h43.23.238,judgeSpeechMusic_20210407_logNormShiftAmp,2020.1.2,Win32,60,,,,,,,,,,,,,,1,5.855,,0,0,81,81,121,1,stimuli/stim_20210407_power2amp/equal_lnn_AM5.4Hz_17.m4a,,,
,,,,,,,,,,,,36418,2021-04-26_14h43.23.238,judgeSpeechMusic_20210407_logNormShiftAmp,2020.1.2,Win32,60,,,,,,,,,,,,,,2,5.589,,0,0,82,82,60,1,stimuli/stim_20210407_power2amp/equal_lnn_AM3Hz_3.m4a,,,
,,,,,,,,,,,,36418,2021-04-26_14h43.23.238,judgeSpeechMusic_20210407_logNormShiftAmp,2020.1.2,Win32,60,,,,,,,,,,,,,,2,5.656,4,1,0,83,83,25,1,stimuli/stim_20210407_power2amp/equal_lnn_AM1.2Hz_20.m4a,1.974,,
,,,,,,,,,,,,36418,2021-04-26_14h43.23.238,judgeSpeechMusic_20210407_logNormShiftAmp,2020.1.2,Win32,60,,,,,,,,,,,,,,1,5.789,,0,0,84,84,126,1,stimuli/stim_20210407_power2amp/equal_lnn_AM5.4Hz_64.m4a,,,
,,,,,,,,,,,,36418,2021-04-26_14h43.23.238,judgeSpeechMusic_20210407_logNormShiftAmp,2020.1.2,Win32,60,,,,,,,,,,,,,,1,6.975,,0,0,85,85,82,1,stimuli/stim_20210407_power2amp/equal_lnn_AM3.6Hz_84.m4a,,,
,,,,,,,,,,,,36418,2021-04-26_14h43.23.238,judgeSpeechMusic_20210407_logNormShiftAmp,2020.1.2,Win32,60,,,,,,,,,,,,,,1,5.874,,0,0,86,86,110,1,stimuli/stim_20210407_power2amp/equal_lnn_AM4.8Hz_67.m4a,,,
,,,,,,,,,,,,36418,2021-04-26_14h43.23.238,judgeSpeechMusic_20210407_logNormShiftAmp,2020.1.2,Win32,60,,,,,,,,,,,,,,2,6.373,,0,0,87,87,12,1,stimuli/stim_20210407_power2amp/equal_lnn_AM0.6Hz_94.m4a,,,
,,,,,,,,,,,,36418,2021-04-26_14h43.23.238,judgeSpeechMusic_20210407_logNormShiftAmp,2020.1.2,Win32,60,,,,,,,,,,,,,,2,6.505,,0,0,88,88,137,1,stimuli/stim_20210407_power2amp/equal_lnn_AM6Hz_12.m4a,,,
,,,,,,,,,,,,36418,2021-04-26_14h43.23.238,judgeSpeechMusic_20210407_logNormShiftAmp,2020.1.2,Win32,60,,,,,,,,,,,,,,1,6.355,,0,0,89,89,93,1,stimuli/stim_20210407_power2amp/equal_lnn_AM4.2Hz_27.m4a,,,
,,,,,,,,,,,,36418,2021-04-26_14h43.23.238,judgeSpeechMusic_20210407_logNormShiftAmp,2020.1.2,Win32,60,,,,,,,,,,,,,,1,5.666,,0,0,90,90,28,1,stimuli/stim_20210407_power2amp/equal_lnn_AM1.2Hz_10.m4a,,,
,,,,,,,,,,,,36418,2021-04-26_14h43.23.238,judgeSpeechMusic_20210407_logNormShiftAmp,2020.1.2,Win32,60,,,,,,,,,,,,,,2,5.84,,0,0,91,91,47,1,stimuli/stim_20210407_power2amp/equal_lnn_AM2.4Hz_57.m4a,,,
,,,,,,,,,,,,36418,2021-04-26_14h43.23.238,judgeSpeechMusic_20210407_logNormShiftAmp,2020.1.2,Win32,60,,,,,,,,,,,,,,1,6.043,,0,0,92,92,10,1,stimuli/stim_20210407_power2amp/equal_lnn_AM0.6Hz_84.m4a,,,
,,,,,,,,,,,,36418,2021-04-26_14h43.23.238,judgeSpeechMusic_20210407_logNormShiftAmp,2020.1.2,Win32,60,,,,,,,,,,,,,,1,6.29,,0,0,93,93,124,1,stimuli/stim_20210407_power2amp/equal_lnn_AM5.4Hz_10.m4a,,,
,,,,,,,,,,,,36418,2021-04-26_14h43.23.238,judgeSpeechMusic_20210407_logNormShiftAmp,2020.1.2,Win32,60,,,,,,,,,,,,,,2,5.772,,0,0,94,94,105,1,stimuli/stim_20210407_power2amp/equal_lnn_AM4.8Hz_6.m4a,,,
,,,,,,,,,,,,36418,2021-04-26_14h43.23.238,judgeSpeechMusic_20210407_logNormShiftAmp,2020.1.2,Win32,60,,,,,,,,,,,,,,1,8.054,,0,0,95,95,86,1,stimuli/stim_20210407_power2amp/equal_lnn_AM3.6Hz_9.m4a,,,
,,,,,,,,,,,,36418,2021-04-26_14h43.23.238,judgeSpeechMusic_20210407_logNormShiftAmp,2020.1.2,Win32,60,,,,,,,,,,,,,,2,6.478,,0,0,96,96,29,1,stimuli/stim_20210407_power2amp/equal_lnn_AM1.2Hz_7.m4a,,,
,,,,,,,,,,,,36418,2021-04-26_14h43.23.238,judgeSpeechMusic_20210407_logNormShiftAmp,2020.1.2,Win32,60,,,,,,,,,,,,,,1,6.061,,0,0,97,97,13,1,stimuli/stim_20210407_power2amp/equal_lnn_AM0.6Hz_67.m4a,,,
,,,,,,,,,,,,36418,2021-04-26_14h43.23.238,judgeSpeechMusic_20210407_logNormShiftAmp,2020.1.2,Win32,60,,,,,,,,,,,,,,1,6.238,,0,0,98,98,68,1,stimuli/stim_20210407_power2amp/equal_lnn_AM3Hz_95.m4a,,,
,,,,,,,,,,,,36418,2021-04-26_14h43.23.238,judgeSpeechMusic_20210407_logNormShiftAmp,2020.1.2,Win32,60,,,,,,,,,,,,,,1,7.457,,0,0,99,99,38,1,stimuli/stim_20210407_power2amp/equal_lnn_AM1.8Hz_33.m4a,,,
,,,,,,,,,,,,36418,2021-04-26_14h43.23.238,judgeSpeechMusic_20210407_logNormShiftAmp,2020.1.2,Win32,60,,,,,,,,,,,,,,1,6.108,,0,0,100,100,136,1,stimuli/stim_20210407_power2amp/equal_lnn_AM6Hz_27.m4a,,,
,,,,,,,,,,,,36418,2021-04-26_14h43.23.238,judgeSpeechMusic_20210407_logNormShiftAmp,2020.1.2,Win32,60,,,,,,,,,,,,,,2,6.066,,0,0,101,101,94,1,stimuli/stim_20210407_power2amp/equal_lnn_AM4.2Hz_11.m4a,,,
,,,,,,,,,,,,36418,2021-04-26_14h43.23.238,judgeSpeechMusic_20210407_logNormShiftAmp,2020.1.2,Win32,60,,,,,,,,,,,,,,1,6.949,,0,0,102,102,3,1,stimuli/stim_20210407_power2amp/equal_lnn_AM0.6Hz_82.m4a,,,
,,,,,,,,,,,,36418,2021-04-26_14h43.23.238,judgeSpeechMusic_20210407_logNormShiftAmp,2020.1.2,Win32,60,,,,,,,,,,,,,,2,6.141,2,1,0,103,103,114,1,stimuli/stim_20210407_power2amp/equal_lnn_AM4.8Hz_64.m4a,1.274,,
,,,,,,,,,,,,36418,2021-04-26_14h43.23.238,judgeSpeechMusic_20210407_logNormShiftAmp,2020.1.2,Win32,60,,,,,,,,,,,,,,2,7.222,,0,0,104,104,148,1,stimuli/stim_20210407_power2amp/equal_lnn_AM6Hz_71.m4a,,,
,,,,,,,,,,,,36418,2021-04-26_14h43.23.238,judgeSpeechMusic_20210407_logNormShiftAmp,2020.1.2,Win32,60,,,,,,,,,,,,,,2,5.773,,0,0,105,105,46,1,stimuli/stim_20210407_power2amp/equal_lnn_AM2.4Hz_79.m4a,,,
,,,,,,,,,,,,36418,2021-04-26_14h43.23.238,judgeSpeechMusic_20210407_logNormShiftAmp,2020.1.2,Win32,60,,,,,,,,,,,,,,2,5.69,,0,0,106,106,103,1,stimuli/stim_20210407_power2amp/equal_lnn_AM4.2Hz_24.m4a,,,
,,,,,,,,,,,,36418,2021-04-26_14h43.23.238,judgeSpeechMusic_20210407_logNormShiftAmp,2020.1.2,Win32,60,,,,,,,,,,,,,,2,6.361,,0,0,107,107,73,1,stimuli/stim_20210407_power2amp/equal_lnn_AM3Hz_78.m4a,,,
,,,,,,,,,,,,36418,2021-04-26_14h43.23.238,judgeSpeechMusic_20210407_logNormShiftAmp,2020.1.2,Win32,60,,,,,,,,,,,,,,1,5.672,,0,0,108,108,9,1,stimuli/stim_20210407_power2amp/equal_lnn_AM0.6Hz_22.m4a,,,
,,,,,,,,,,,,36418,2021-04-26_14h43.23.238,judgeSpeechMusic_20210407_logNormShiftAmp,2020.1.2,Win32,60,,,,,,,,,,,,,,1,7.071,,0,0,109,109,45,1,stimuli/stim_20210407_power2amp/equal_lnn_AM2.4Hz_99.m4a,,,
,,,,,,,,,,,,36418,2021-04-26_14h43.23.238,judgeSpeechMusic_20210407_logNormShiftAmp,2020.1.2,Win32,60,,,,,,,,,,,,,,2,9.893,,0,0,110,110,16,1,stimuli/stim_20210407_power2amp/equal_lnn_AM1.2Hz_32.m4a,,,
,,,,,,,,,,,,36418,2021-04-26_14h43.23.238,judgeSpeechMusic_20210407_logNormShiftAmp,2020.1.2,Win32,60,,,,,,,,,,,,,,2,5.661,,0,0,111,111,90,1,stimuli/stim_20210407_power2amp/equal_lnn_AM4.2Hz_63.m4a,,,
,,,,,,,,,,,,36418,2021-04-26_14h43.23.238,judgeSpeechMusic_20210407_logNormShiftAmp,2020.1.2,Win32,60,,,,,,,,,,,,,,2,5.788,,0,0,112,112,99,1,stimuli/stim_20210407_power2amp/equal_lnn_AM4.2Hz_95.m4a,,,
,,,,,,,,,,,,36418,2021-04-26_14h43.23.238,judgeSpeechMusic_20210407_logNormShiftAmp,2020.1.2,Win32,60,,,,,,,,,,,,,,1,5.688,,0,0,113,113,5,1,stimuli/stim_20210407_power2amp/equal_lnn_AM0.6Hz_41.m4a,,,
,,,,,,,,,,,,36418,2021-04-26_14h43.23.238,judgeSpeechMusic_20210407_logNormShiftAmp,2020.1.2,Win32,60,,,,,,,,,,,,,,1,10.557,,0,0,114,114,72,1,stimuli/stim_20210407_power2amp/equal_lnn_AM3Hz_9.m4a,,,
,,,,,,,,,,,,36418,2021-04-26_14h43.23.238,judgeSpeechMusic_20210407_logNormShiftAmp,2020.1.2,Win32,60,,,,,,,,,,,,,,2,5.791,,0,0,115,115,125,1,stimuli/stim_20210407_power2amp/equal_lnn_AM5.4Hz_72.m4a,,,
,,,,,,,,,,,,36418,2021-04-26_14h43.23.238,judgeSpeechMusic_20210407_logNormShiftAmp,2020.1.2,Win32,60,,,,,,,,,,,,,,1,6.132,,0,0,116,116,41,1,stimuli/stim_20210407_power2amp/equal_lnn_AM1.8Hz_40.m4a,,,
,,,,,,,,,,,,36418,2021-04-26_14h43.23.238,judgeSpeechMusic_20210407_logNormShiftAmp,2020.1.2,Win32,60,,,,,,,,,,,,,,2,6.157,,0,0,117,117,56,1,stimuli/stim_20210407_power2amp/equal_lnn_AM2.4Hz_59.m4a,,,
,,,,,,,,,,,,36418,2021-04-26_14h43.23.238,judgeSpeechMusic_20210407_logNormShiftAmp,2020.1.2,Win32,60,,,,,,,,,,,,,,1,6.022,,0,0,118,118,53,1,stimuli/stim_20210407_power2amp/equal_lnn_AM2.4Hz_20.m4a,,,
,,,,,,,,,,,,36418,2021-04-26_14h43.23.238,judgeSpeechMusic_20210407_logNormShiftAmp,2020.1.2,Win32,60,,,,,,,,,,,,,,1,5.574,,0,0,119,119,83,1,stimuli/stim_20210407_power2amp/equal_lnn_AM3.6Hz_16.m4a,,,
,,,,,,,,,,,,36418,2021-04-26_14h43.23.238,judgeSpeechMusic_20210407_logNormShiftAmp,2020.1.2,Win32,60,,,,,,,,,,,,,,2,5.756,,0,0,120,120,91,1,stimuli/stim_20210407_power2amp/equal_lnn_AM4.2Hz_60.m4a,,,
,,,,,,,,,,,,36418,2021-04-26_14h43.23.238,judgeSpeechMusic_20210407_logNormShiftAmp,2020.1.2,Win32,60,,,,,,,,,,,,,,1,6.056,,0,0,121,121,65,1,stimuli/stim_20210407_power2amp/equal_lnn_AM3Hz_96.m4a,,,
,,,,,,,,,,,,36418,2021-04-26_14h43.23.238,judgeSpeechMusic_20210407_logNormShiftAmp,2020.1.2,Win32,60,,,,,,,,,,,,,,2,6.406,,0,0,122,122,1,1,stimuli/stim_20210407_power2amp/equal_lnn_AM0.6Hz_13.m4a,,,
,,,,,,,,,,,,36418,2021-04-26_14h43.23.238,judgeSpeechMusic_20210407_logNormShiftAmp,2020.1.2,Win32,60,,,,,,,,,,,,,,1,6.005,4,1,0,123,123,27,1,stimuli/stim_20210407_power2amp/equal_lnn_AM1.2Hz_88.m4a,1.361,,
,,,,,,,,,,,,36418,2021-04-26_14h43.23.238,judgeSpeechMusic_20210407_logNormShiftAmp,2020.1.2,Win32,60,,,,,,,,,,,,,,1,6.175,,0,0,124,124,123,1,stimuli/stim_20210407_power2amp/equal_lnn_AM5.4Hz_3.m4a,,,
,,,,,,,,,,,,36418,2021-04-26_14h43.23.238,judgeSpeechMusic_20210407_logNormShiftAmp,2020.1.2,Win32,60,,,,,,,,,,,,,,2,6.228,,0,0,125,125,111,1,stimuli/stim_20210407_power2amp/equal_lnn_AM4.8Hz_71.m4a,,,
,,,,,,,,,,,,36418,2021-04-26_14h43.23.238,judgeSpeechMusic_20210407_logNormShiftAmp,2020.1.2,Win32,60,,,,,,,,,,,,,,1,5.847,,0,0,126,126,128,1,stimuli/stim_20210407_power2amp/equal_lnn_AM5.4Hz_2.m4a,,,
,,,,,,,,,,,,36418,2021-04-26_14h43.23.238,judgeSpeechMusic_20210407_logNormShiftAmp,2020.1.2,Win32,60,,,,,,,,,,,,,,2,6.13,,0,0,127,127,6,1,stimuli/stim_20210407_power2amp/equal_lnn_AM0.6Hz_35.m4a,,,
,,,,,,,,,,,,36418,2021-04-26_14h43.23.238,judgeSpeechMusic_20210407_logNormShiftAmp,2020.1.2,Win32,60,,,,,,,,,,,,,,1,5.624,,0,0,128,128,133,1,stimuli/stim_20210407_power2amp/equal_lnn_AM5.4Hz_99.m4a,,,
,,,,,,,,,,,,36418,2021-04-26_14h43.23.238,judgeSpeechMusic_20210407_logNormShiftAmp,2020.1.2,Win32,60,,,,,,,,,,,,,,1,5.855,,0,0,129,129,88,1,stimuli/stim_20210407_power2amp/equal_lnn_AM3.6Hz_12.m4a,,,
,,,,,,,,,,,,36418,2021-04-26_14h43.23.238,judgeSpeechMusic_20210407_logNormShiftAmp,2020.1.2,Win32,60,,,,,,,,,,,,,,2,5.744,,0,0,130,130,42,1,stimuli/stim_20210407_power2amp/equal_lnn_AM1.8Hz_69.m4a,,,
,,,,,,,,,,,,36418,2021-04-26_14h43.23.238,judgeSpeechMusic_20210407_logNormShiftAmp,2020.1.2,Win32,60,,,,,,,,,,,,,,2,6.077,,0,0,131,131,98,1,stimuli/stim_20210407_power2amp/equal_lnn_AM4.2Hz_88.m4a,,,
,,,,,,,,,,,,36418,2021-04-26_14h43.23.238,judgeSpeechMusic_20210407_logNormShiftAmp,2020.1.2,Win32,60,,,,,,,,,,,,,,2,5.411,,0,0,132,132,61,1,stimuli/stim_20210407_power2amp/equal_lnn_AM3Hz_6.m4a,,,
,,,,,,,,,,,,36418,2021-04-26_14h43.23.238,judgeSpeechMusic_20210407_logNormShiftAmp,2020.1.2,Win32,60,,,,,,,,,,,,,,2,5.589,,0,0,133,133,59,1,stimuli/stim_20210407_power2amp/equal_lnn_AM2.4Hz_47.m4a,,,
,,,,,,,,,,,,36418,2021-04-26_14h43.23.238,judgeSpeechMusic_20210407_logNormShiftAmp,2020.1.2,Win32,60,,,,,,,,,,,,,,1,5.759,,0,0,134,134,24,1,stimuli/stim_20210407_power2amp/equal_lnn_AM1.2Hz_26.m4a,,,
,,,,,,,,,,,,36418,2021-04-26_14h43.23.238,judgeSpeechMusic_20210407_logNormShiftAmp,2020.1.2,Win32,60,,,,,,,,,,,,,,2,5.536,,0,0,135,135,115,1,stimuli/stim_20210407_power2amp/equal_lnn_AM4.8Hz_77.m4a,,,
,,,,,,,,,,,,36418,2021-04-26_14h43.23.238,judgeSpeechMusic_20210407_logNormShiftAmp,2020.1.2,Win32,60,,,,,,,,,,,,,,2,5.788,,0,0,136,136,31,1,stimuli/stim_20210407_power2amp/equal_lnn_AM1.8Hz_15.m4a,,,
,,,,,,,,,,,,36418,2021-04-26_14h43.23.238,judgeSpeechMusic_20210407_logNormShiftAmp,2020.1.2,Win32,60,,,,,,,,,,,,,,2,5.745,,0,0,137,137,67,1,stimuli/stim_20210407_power2amp/equal_lnn_AM3Hz_82.m4a,,,
,,,,,,,,,,,,36418,2021-04-26_14h43.23.238,judgeSpeechMusic_20210407_logNormShiftAmp,2020.1.2,Win32,60,,,,,,,,,,,,,,1,5.605,,0,0,138,138,142,1,stimuli/stim_20210407_power2amp/equal_lnn_AM6Hz_56.m4a,,,
,,,,,,,,,,,,36418,2021-04-26_14h43.23.238,judgeSpeechMusic_20210407_logNormShiftAmp,2020.1.2,Win32,60,,,,,,,,,,,,,,1,5.891,,0,0,139,139,14,1,stimuli/stim_20210407_power2amp/equal_lnn_AM0.6Hz_5.m4a,,,
,,,,,,,,,,,,36418,2021-04-26_14h43.23.238,judgeSpeechMusic_20210407_logNormShiftAmp,2020.1.2,Win32,60,,,,,,,,,,,,,,1,5.629,,0,0,140,140,122,1,stimuli/stim_20210407_power2amp/equal_lnn_AM5.4Hz_42.m4a,,,
,,,,,,,,,,,,36418,2021-04-26_14h43.23.238,judgeSpeechMusic_20210407_logNormShiftAmp,2020.1.2,Win32,60,,,,,,,,,,,,,,2,6.248,,0,0,141,141,138,1,stimuli/stim_20210407_power2amp/equal_lnn_AM6Hz_32.m4a,,,
,,,,,,,,,,,,36418,2021-04-26_14h43.23.238,judgeSpeechMusic_20210407_logNormShiftAmp,2020.1.2,Win32,60,,,,,,,,,,,,,,1,5.921,,0,0,142,142,20,1,stimuli/stim_20210407_power2amp/equal_lnn_AM1.2Hz_5.m4a,,,
,,,,,,,,,,,,36418,2021-04-26_14h43.23.238,judgeSpeechMusic_20210407_logNormShiftAmp,2020.1.2,Win32,60,,,,,,,,,,,,,,1,14.872,,0,0,143,143,109,1,stimuli/stim_20210407_power2amp/equal_lnn_AM4.8Hz_92.m4a,,,
,,,,,,,,,,,,36418,2021-04-26_14h43.23.238,judgeSpeechMusic_20210407_logNormShiftAmp,2020.1.2,Win32,60,,,,,,,,,,,,,,2,6.34,,0,0,144,144,81,1,stimuli/stim_20210407_power2amp/equal_lnn_AM3.6Hz_53.m4a,,,
,,,,,,,,,,,,36418,2021-04-26_14h43.23.238,judgeSpeechMusic_20210407_logNormShiftAmp,2020.1.2,Win32,60,,,,,,,,,,,,,,1,5.921,,0,0,145,145,18,1,stimuli/stim_20210407_power2amp/equal_lnn_AM1.2Hz_79.m4a,,,
,,,,,,,,,,,,36418,2021-04-26_14h43.23.238,judgeSpeechMusic_20210407_logNormShiftAmp,2020.1.2,Win32,60,,,,,,,,,,,,,,1,6.29,,0,0,146,146,85,1,stimuli/stim_20210407_power2amp/equal_lnn_AM3.6Hz_21.m4a,,,
,,,,,,,,,,,,36418,2021-04-26_14h43.23.238,judgeSpeechMusic_20210407_logNormShiftAmp,2020.1.2,Win32,60,,,,,,,,,,,,,,2,6.239,,0,0,147,147,21,1,stimuli/stim_20210407_power2amp/equal_lnn_AM1.2Hz_25.m4a,,,
,,,,,,,,,,,,36418,2021-04-26_14h43.23.238,judgeSpeechMusic_20210407_logNormShiftAmp,2020.1.2,Win32,60,,,,,,,,,,,,,,1,7.222,4,1,0,148,148,131,1,stimuli/stim_20210407_power2amp/equal_lnn_AM5.4Hz_34.m4a,1.493,,
,,,,,,,,,,,,36418,2021-04-26_14h43.23.238,judgeSpeechMusic_20210407_logNormShiftAmp,2020.1.2,Win32,60,,,,,,,,,,,,,,2,7.503,,0,0,149,149,97,1,stimuli/stim_20210407_power2amp/equal_lnn_AM4.2Hz_72.m4a,,,
,,,,,,,,,,,,36418,2021-04-26_14h43.23.238,judgeSpeechMusic_20210407_logNormShiftAmp,2020.1.2,Win32,60,,,,,,,,,,,,,,1,6.097,,0,1,0,150,130,1,stimuli/stim_20210407_power2amp/equal_lnn_AM5.4Hz_46.m4a,,,
,,,,,,,,,,,,36418,2021-04-26_14h43.23.238,judgeSpeechMusic_20210407_logNormShiftAmp,2020.1.2,Win32,60,,,,,,,,,,,,,,1,6.16,,0,1,1,151,16,1,stimuli/stim_20210407_power2amp/equal_lnn_AM1.2Hz_32.m4a,,,
,,,,,,,,,,,,36418,2021-04-26_14h43.23.238,judgeSpeechMusic_20210407_logNormShiftAmp,2020.1.2,Win32,60,,,,,,,,,,,,,,2,6.823,,0,1,2,152,47,1,stimuli/stim_20210407_power2amp/equal_lnn_AM2.4Hz_57.m4a,,,
,,,,,,,,,,,,36418,2021-04-26_14h43.23.238,judgeSpeechMusic_20210407_logNormShiftAmp,2020.1.2,Win32,60,,,,,,,,,,,,,,1,6.38,,0,1,3,153,52,1,stimuli/stim_20210407_power2amp/equal_lnn_AM2.4Hz_10.m4a,,,
,,,,,,,,,,,,36418,2021-04-26_14h43.23.238,judgeSpeechMusic_20210407_logNormShiftAmp,2020.1.2,Win32,60,,,,,,,,,,,,,,2,6.164,,0,1,4,154,89,1,stimuli/stim_20210407_power2amp/equal_lnn_AM3.6Hz_36.m4a,,,
,,,,,,,,,,,,36418,2021-04-26_14h43.23.238,judgeSpeechMusic_20210407_logNormShiftAmp,2020.1.2,Win32,60,,,,,,,,,,,,,,1,5.831,,0,1,5,155,73,1,stimuli/stim_20210407_power2amp/equal_lnn_AM3Hz_78.m4a,,,
,,,,,,,,,,,,36418,2021-04-26_14h43.23.238,judgeSpeechMusic_20210407_logNormShiftAmp,2020.1.2,Win32,60,,,,,,,,,,,,,,2,6.256,,0,1,6,156,27,1,stimuli/stim_20210407_power2amp/equal_lnn_AM1.2Hz_88.m4a,,,
,,,,,,,,,,,,36418,2021-04-26_14h43.23.238,judgeSpeechMusic_20210407_logNormShiftAmp,2020.1.2,Win32,60,,,,,,,,,,,,,,1,5.706,,0,1,7,157,44,1,stimuli/stim_20210407_power2amp/equal_lnn_AM1.8Hz_34.m4a,,,
,,,,,,,,,,,,36418,2021-04-26_14h43.23.238,judgeSpeechMusic_20210407_logNormShiftAmp,2020.1.2,Win32,60,,,,,,,,,,,,,,1,6.407,,0,1,8,158,38,1,stimuli/stim_20210407_power2amp/equal_lnn_AM1.8Hz_33.m4a,,,
,,,,,,,,,,,,36418,2021-04-26_14h43.23.238,judgeSpeechMusic_20210407_logNormShiftAmp,2020.1.2,Win32,60,,,,,,,,,,,,,,2,5.73,,0,1,9,159,111,1,stimuli/stim_20210407_power2amp/equal_lnn_AM4.8Hz_71.m4a,,,
,,,,,,,,,,,,36418,2021-04-26_14h43.23.238,judgeSpeechMusic_20210407_logNormShiftAmp,2020.1.2,Win32,60,,,,,,,,,,,,,,2,6.204,,0,1,10,160,142,1,stimuli/stim_20210407_power2amp/equal_lnn_AM6Hz_56.m4a,,,
,,,,,,,,,,,,36418,2021-04-26_14h43.23.238,judgeSpeechMusic_20210407_logNormShiftAmp,2020.1.2,Win32,60,,,,,,,,,,,,,,2,7.99,,0,1,11,161,20,1,stimuli/stim_20210407_power2amp/equal_lnn_AM1.2Hz_5.m4a,,,
,,,,,,,,,,,,36418,2021-04-26_14h43.23.238,judgeSpeechMusic_20210407_logNormShiftAmp,2020.1.2,Win32,60,,,,,,,,,,,,,,1,6.439,,0,1,12,162,124,1,stimuli/stim_20210407_power2amp/equal_lnn_AM5.4Hz_10.m4a,,,
,,,,,,,,,,,,36418,2021-04-26_14h43.23.238,judgeSpeechMusic_20210407_logNormShiftAmp,2020.1.2,Win32,60,,,,,,,,,,,,,,2,7.165,,0,1,13,163,104,1,stimuli/stim_20210407_power2amp/equal_lnn_AM4.2Hz_96.m4a,,,
,,,,,,,,,,,,36418,2021-04-26_14h43.23.238,judgeSpeechMusic_20210407_logNormShiftAmp,2020.1.2,Win32,60,,,,,,,,,,,,,,2,8.189,,0,1,14,164,76,1,stimuli/stim_20210407_power2amp/equal_lnn_AM3.6Hz_31.m4a,,,
,,,,,,,,,,,,36418,2021-04-26_14h43.23.238,judgeSpeechMusic_20210407_logNormShiftAmp,2020.1.2,Win32,60,,,,,,,,,,,,,,1,7.358,,0,1,15,165,144,1,stimuli/stim_20210407_power2amp/equal_lnn_AM6Hz_96.m4a,,,
,,,,,,,,,,,,36418,2021-04-26_14h43.23.238,judgeSpeechMusic_20210407_logNormShiftAmp,2020.1.2,Win32,60,,,,,,,,,,,,,,1,7.605,,0,1,16,166,4,1,stimuli/stim_20210407_power2amp/equal_lnn_AM0.6Hz_98.m4a,,,
,,,,,,,,,,,,36418,2021-04-26_14h43.23.238,judgeSpeechMusic_20210407_logNormShiftAmp,2020.1.2,Win32,60,,,,,,,,,,,,,,1,5.892,,0,1,17,167,2,1,stimuli/stim_20210407_power2amp/equal_lnn_AM0.6Hz_43.m4a,,,
,,,,,,,,,,,,36418,2021-04-26_14h43.23.238,judgeSpeechMusic_20210407_logNormShiftAmp,2020.1.2,Win32,60,,,,,,,,,,,,,,1,7.222,,0,1,18,168,1,1,stimuli/stim_20210407_power2amp/equal_lnn_AM0.6Hz_13.m4a,,,
,,,,,,,,,,,,36418,2021-04-26_14h43.23.238,judgeSpeechMusic_20210407_logNormShiftAmp,2020.1.2,Win32,60,,,,,,,,,,,,,,2,6.445,,0,1,19,169,95,1,stimuli/stim_20210407_power2amp/equal_lnn_AM4.2Hz_19.m4a,,,
,,,,,,,,,,,,36418,2021-04-26_14h43.23.238,judgeSpeechMusic_20210407_logNormShiftAmp,2020.1.2,Win32,60,,,,,,,,,,,,,,1,7.673,,0,1,20,170,70,1,stimuli/stim_20210407_power2amp/equal_lnn_AM3Hz_87.m4a,,,
,,,,,,,,,,,,36418,2021-04-26_14h43.23.238,judgeSpeechMusic_20210407_logNormShiftAmp,2020.1.2,Win32,60,,,,,,,,,,,,,,2,14.989,,0,1,21,171,5,1,stimuli/stim_20210407_power2amp/equal_lnn_AM0.6Hz_41.m4a,,,
,,,,,,,,,,,,36418,2021-04-26_14h43.23.238,judgeSpeechMusic_20210407_logNormShiftAmp,2020.1.2,Win32,60,,,,,,,,,,,,,,1,6.426,1,1,1,22,172,98,1,stimuli/stim_20210407_power2amp/equal_lnn_AM4.2Hz_88.m4a,0.992,,
,,,,,,,,,,,,36418,2021-04-26_14h43.23.238,judgeSpeechMusic_20210407_logNormShiftAmp,2020.1.2,Win32,60,,,,,,,,,,,,,,2,6.809,,0,1,23,173,87,1,stimuli/stim_20210407_power2amp/equal_lnn_AM3.6Hz_40.m4a,,,
,,,,,,,,,,,,36418,2021-04-26_14h43.23.238,judgeSpeechMusic_20210407_logNormShiftAmp,2020.1.2,Win32,60,,,,,,,,,,,,,,2,6.774,,0,1,24,174,129,1,stimuli/stim_20210407_power2amp/equal_lnn_AM5.4Hz_39.m4a,,,
,,,,,,,,,,,,36418,2021-04-26_14h43.23.238,judgeSpeechMusic_20210407_logNormShiftAmp,2020.1.2,Win32,60,,,,,,,,,,,,,,1,5.656,,0,1,25,175,122,1,stimuli/stim_20210407_power2amp/equal_lnn_AM5.4Hz_42.m4a,,,
,,,,,,,,,,,,36418,2021-04-26_14h43.23.238,judgeSpeechMusic_20210407_logNormShiftAmp,2020.1.2,Win32,60,,,,,,,,,,,,,,1,6.405,,0,1,26,176,57,1,stimuli/stim_20210407_power2amp/equal_lnn_AM2.4Hz_60.m4a,,,
,,,,,,,,,,,,36418,2021-04-26_14h43.23.238,judgeSpeechMusic_20210407_logNormShiftAmp,2020.1.2,Win32,60,,,,,,,,,,,,,,2,5.622,,0,1,27,177,80,1,stimuli/stim_20210407_power2amp/equal_lnn_AM3.6Hz_7.m4a,,,
,,,,,,,,,,,,36418,2021-04-26_14h43.23.238,judgeSpeechMusic_20210407_logNormShiftAmp,2020.1.2,Win32,60,,,,,,,,,,,,,,2,6.96,,0,1,28,178,109,1,stimuli/stim_20210407_power2amp/equal_lnn_AM4.8Hz_92.m4a,,,
,,,,,,,,,,,,36418,2021-04-26_14h43.23.238,judgeSpeechMusic_20210407_logNormShiftAmp,2020.1.2,Win32,60,,,,,,,,,,,,,,2,6.308,,0,1,29,179,21,1,stimuli/stim_20210407_power2amp/equal_lnn_AM1.2Hz_25.m4a,,,
,,,,,,,,,,,,36418,2021-04-26_14h43.23.238,judgeSpeechMusic_20210407_logNormShiftAmp,2020.1.2,Win32,60,,,,,,,,,,,,,,1,8.139,,0,1,30,180,146,1,stimuli/stim_20210407_power2amp/equal_lnn_AM6Hz_8.m4a,,,
,,,,,,,,,,,,36418,2021-04-26_14h43.23.238,judgeSpeechMusic_20210407_logNormShiftAmp,2020.1.2,Win32,60,,,,,,,,,,,,,,2,6.907,,0,1,31,181,132,1,stimuli/stim_20210407_power2amp/equal_lnn_AM5.4Hz_18.m4a,,,
,,,,,,,,,,,,36418,2021-04-26_14h43.23.238,judgeSpeechMusic_20210407_logNormShiftAmp,2020.1.2,Win32,60,,,,,,,,,,,,,,2,5.606,,0,1,32,182,58,1,stimuli/stim_20210407_power2amp/equal_lnn_AM2.4Hz_41.m4a,,,
,,,,,,,,,,,,36418,2021-04-26_14h43.23.238,judgeSpeechMusic_20210407_logNormShiftAmp,2020.1.2,Win32,60,,,,,,,,,,,,,,1,6.04,,0,1,33,183,28,1,stimuli/stim_20210407_power2amp/equal_lnn_AM1.2Hz_10.m4a,,,
,,,,,,,,,,,,36418,2021-04-26_14h43.23.238,judgeSpeechMusic_20210407_logNormShiftAmp,2020.1.2,Win32,60,,,,,,,,,,,,,,2,8.973,,0,1,34,184,116,1,stimuli/stim_20210407_power2amp/equal_lnn_AM4.8Hz_52.m4a,,,
,,,,,,,,,,,,36418,2021-04-26_14h43.23.238,judgeSpeechMusic_20210407_logNormShiftAmp,2020.1.2,Win32,60,,,,,,,,,,,,,,2,6.674,,0,1,35,185,94,1,stimuli/stim_20210407_power2amp/equal_lnn_AM4.2Hz_11.m4a,,,
,,,,,,,,,,,,36418,2021-04-26_14h43.23.238,judgeSpeechMusic_20210407_logNormShiftAmp,2020.1.2,Win32,60,,,,,,,,,,,,,,1,5.608,,0,1,36,186,108,1,stimuli/stim_20210407_power2amp/equal_lnn_AM4.8Hz_74.m4a,,,
,,,,,,,,,,,,36418,2021-04-26_14h43.23.238,judgeSpeechMusic_20210407_logNormShiftAmp,2020.1.2,Win32,60,,,,,,,,,,,,,,2,6.295,,0,1,37,187,78,1,stimuli/stim_20210407_power2amp/equal_lnn_AM3.6Hz_23.m4a,,,
,,,,,,,,,,,,36418,2021-04-26_14h43.23.238,judgeSpeechMusic_20210407_logNormShiftAmp,2020.1.2,Win32,60,,,,,,,,,,,,,,1,6.248,,0,1,38,188,60,1,stimuli/stim_20210407_power2amp/equal_lnn_AM3Hz_3.m4a,,,
,,,,,,,,,,,,36418,2021-04-26_14h43.23.238,judgeSpeechMusic_20210407_logNormShiftAmp,2020.1.2,Win32,60,,,,,,,,,,,,,,2,6.215,,0,1,39,189,37,1,stimuli/stim_20210407_power2amp/equal_lnn_AM1.8Hz_51.m4a,,,
,,,,,,,,,,,,36418,2021-04-26_14h43.23.238,judgeSpeechMusic_20210407_logNormShiftAmp,2020.1.2,Win32,60,,,,,,,,,,,,,,1,6.377,,0,1,40,190,148,1,stimuli/stim_20210407_power2amp/equal_lnn_AM6Hz_71.m4a,,,
,,,,,,,,,,,,36418,2021-04-26_14h43.23.238,judgeSpeechMusic_20210407_logNormShiftAmp,2020.1.2,Win32,60,,,,,,,,,,,,,,2,5.523,,0,1,41,191,115,1,stimuli/stim_20210407_power2amp/equal_lnn_AM4.8Hz_77.m4a,,,
,,,,,,,,,,,,36418,2021-04-26_14h43.23.238,judgeSpeechMusic_20210407_logNormShiftAmp,2020.1.2,Win32,60,,,,,,,,,,,,,,1,5.582,,0,1,42,192,10,1,stimuli/stim_20210407_power2amp/equal_lnn_AM0.6Hz_84.m4a,,,
,,,,,,,,,,,,36418,2021-04-26_14h43.23.238,judgeSpeechMusic_20210407_logNormShiftAmp,2020.1.2,Win32,60,,,,,,,,,,,,,,2,5.513,2,1,1,43,193,30,1,stimuli/stim_20210407_power2amp/equal_lnn_AM1.8Hz_17.m4a,0.908,,
,,,,,,,,,,,,36418,2021-04-26_14h43.23.238,judgeSpeechMusic_20210407_logNormShiftAmp,2020.1.2,Win32,60,,,,,,,,,,,,,,2,6.774,,0,1,44,194,33,1,stimuli/stim_20210407_power2amp/equal_lnn_AM1.8Hz_55.m4a,,,
,,,,,,,,,,,,36418,2021-04-26_14h43.23.238,judgeSpeechMusic_20210407_logNormShiftAmp,2020.1.2,Win32,60,,,,,,,,,,,,,,1,5.89,,0,1,45,195,11,1,stimuli/stim_20210407_power2amp/equal_lnn_AM0.6Hz_91.m4a,,,
,,,,,,,,,,,,36418,2021-04-26_14h43.23.238,judgeSpeechMusic_20210407_logNormShiftAmp,2020.1.2,Win32,60,,,,,,,,,,,,,,1,5.59,,0,1,46,196,13,1,stimuli/stim_20210407_power2amp/equal_lnn_AM0.6Hz_67.m4a,,,
,,,,,,,,,,,,36418,2021-04-26_14h43.23.238,judgeSpeechMusic_20210407_logNormShiftAmp,2020.1.2,Win32,60,,,,,,,,,,,,,,2,6.042,,0,1,47,197,131,1,stimuli/stim_20210407_power2amp/equal_lnn_AM5.4Hz_34.m4a,,,
,,,,,,,,,,,,36418,2021-04-26_14h43.23.238,judgeSpeechMusic_20210407_logNormShiftAmp,2020.1.2,Win32,60,,,,,,,,,,,,,,2,5.692,,0,1,48,198,35,1,stimuli/stim_20210407_power2amp/equal_lnn_AM1.8Hz_12.m4a,,,
,,,,,,,,,,,,36418,2021-04-26_14h43.23.238,judgeSpeechMusic_20210407_logNormShiftAmp,2020.1.2,Win32,60,,,,,,,,,,,,,,1,8.239,,0,1,49,199,105,1,stimuli/stim_20210407_power2amp/equal_lnn_AM4.8Hz_6.m4a,,,
,,,,,,,,,,,,36418,2021-04-26_14h43.23.238,judgeSpeechMusic_20210407_logNormShiftAmp,2020.1.2,Win32,60,,,,,,,,,,,,,,2,5.856,,0,1,50,200,143,1,stimuli/stim_20210407_power2amp/equal_lnn_AM6Hz_23.m4a,,,
,,,,,,,,,,,,36418,2021-04-26_14h43.23.238,judgeSpeechMusic_20210407_logNormShiftAmp,2020.1.2,Win32,60,,,,,,,,,,,,,,2,5.689,,0,1,51,201,81,1,stimuli/stim_20210407_power2amp/equal_lnn_AM3.6Hz_53.m4a,,,
,,,,,,,,,,,,36418,2021-04-26_14h43.23.238,judgeSpeechMusic_20210407_logNormShiftAmp,2020.1.2,Win32,60,,,,,,,,,,,,,,1,5.597,,0,1,52,202,127,1,stimuli/stim_20210407_power2amp/equal_lnn_AM5.4Hz_8.m4a,,,
,,,,,,,,,,,,36418,2021-04-26_14h43.23.238,judgeSpeechMusic_20210407_logNormShiftAmp,2020.1.2,Win32,60,,,,,,,,,,,,,,2,5.638,,0,1,53,203,120,1,stimuli/stim_20210407_power2amp/equal_lnn_AM5.4Hz_15.m4a,,,
,,,,,,,,,,,,36418,2021-04-26_14h43.23.238,judgeSpeechMusic_20210407_logNormShiftAmp,2020.1.2,Win32,60,,,,,,,,,,,,,,1,6.021,,0,1,54,204,128,1,stimuli/stim_20210407_power2amp/equal_lnn_AM5.4Hz_2.m4a,,,
,,,,,,,,,,,,36418,2021-04-26_14h43.23.238,judgeSpeechMusic_20210407_logNormShiftAmp,2020.1.2,Win32,60,,,,,,,,,,,,,,2,5.855,,0,1,55,205,79,1,stimuli/stim_20210407_power2amp/equal_lnn_AM3.6Hz_42.m4a,,,
,,,,,,,,,,,,36418,2021-04-26_14h43.23.238,judgeSpeechMusic_20210407_logNormShiftAmp,2020.1.2,Win32,60,,,,,,,,,,,,,,1,5.739,,0,1,56,206,61,1,stimuli/stim_20210407_power2amp/equal_lnn_AM3Hz_6.m4a,,,
,,,,,,,,,,,,36418,2021-04-26_14h43.23.238,judgeSpeechMusic_20210407_logNormShiftAmp,2020.1.2,Win32,60,,,,,,,,,,,,,,2,5.921,,0,1,57,207,137,1,stimuli/stim_20210407_power2amp/equal_lnn_AM6Hz_12.m4a,,,
,,,,,,,,,,,,36418,2021-04-26_14h43.23.238,judgeSpeechMusic_20210407_logNormShiftAmp,2020.1.2,Win32,60,,,,,,,,,,,,,,1,6.63,,0,1,58,208,45,1,stimuli/stim_20210407_power2amp/equal_lnn_AM2.4Hz_99.m4a,,,
,,,,,,,,,,,,36418,2021-04-26_14h43.23.238,judgeSpeechMusic_20210407_logNormShiftAmp,2020.1.2,Win32,60,,,,,,,,,,,,,,1,5.826,,0,1,59,209,0,1,stimuli/stim_20210407_power2amp/equal_lnn_AM0.6Hz_3.m4a,,,
,,,,,,,,,,,,36418,2021-04-26_14h43.23.238,judgeSpeechMusic_20210407_logNormShiftAmp,2020.1.2,Win32,60,,,,,,,,,,,,,,2,6.947,,0,1,60,210,91,1,stimuli/stim_20210407_power2amp/equal_lnn_AM4.2Hz_60.m4a,,,
,,,,,,,,,,,,36418,2021-04-26_14h43.23.238,judgeSpeechMusic_20210407_logNormShiftAmp,2020.1.2,Win32,60,,,,,,,,,,,,,,2,7.011,,0,1,61,211,9,1,stimuli/stim_20210407_power2amp/equal_lnn_AM0.6Hz_22.m4a,,,
,,,,,,,,,,,,36418,2021-04-26_14h43.23.238,judgeSpeechMusic_20210407_logNormShiftAmp,2020.1.2,Win32,60,,,,,,,,,,,,,,2,6.744,,0,1,62,212,34,1,stimuli/stim_20210407_power2amp/equal_lnn_AM1.8Hz_39.m4a,,,
,,,,,,,,,,,,36418,2021-04-26_14h43.23.238,judgeSpeechMusic_20210407_logNormShiftAmp,2020.1.2,Win32,60,,,,,,,,,,,,,,1,8.957,,0,1,63,213,22,1,stimuli/stim_20210407_power2amp/equal_lnn_AM1.2Hz_70.m4a,,,
,,,,,,,,,,,,36418,2021-04-26_14h43.23.238,judgeSpeechMusic_20210407_logNormShiftAmp,2020.1.2,Win32,60,,,,,,,,,,,,,,2,9.324,3,1,1,64,214,51,1,stimuli/stim_20210407_power2amp/equal_lnn_AM2.4Hz_3.m4a,1.384,,
,,,,,,,,,,,,36418,2021-04-26_14h43.23.238,judgeSpeechMusic_20210407_logNormShiftAmp,2020.1.2,Win32,60,,,,,,,,,,,,,,2,6.381,,0,1,65,215,88,1,stimuli/stim_20210407_power2amp/equal_lnn_AM3.6Hz_12.m4a,,,
,,,,,,,,,,,,36418,2021-04-26_14h43.23.238,judgeSpeechMusic_20210407_logNormShiftAmp,2020.1.2,Win32,60,,,,,,,,,,,,,,1,9.44,,0,1,66,216,121,1,stimuli/stim_20210407_power2amp/equal_lnn_AM5.4Hz_17.m4a,,,
,,,,,,,,,,,,36418,2021-04-26_14h43.23.238,judgeSpeechMusic_20210407_logNormShiftAmp,2020.1.2,Win32,60,,,,,,,,,,,,,,2,6.263,,0,1,67,217,43,1,stimuli/stim_20210407_power2amp/equal_lnn_AM1.8Hz_60.m4a,,,
,,,,,,,,,,,,36418,2021-04-26_14h43.23.238,judgeSpeechMusic_20210407_logNormShiftAmp,2020.1.2,Win32,60,,,,,,,,,,,,,,2,6.063,,0,1,68,218,17,1,stimuli/stim_20210407_power2amp/equal_lnn_AM1.2Hz_11.m4a,,,
,,,,,,,,,,,,36418,2021-04-26_14h43.23.238,judgeSpeechMusic_20210407_logNormShiftAmp,2020.1.2,Win32,60,,,,,,,,,,,,,,2,6.257,,0,1,69,219,64,1,stimuli/stim_20210407_power2amp/equal_lnn_AM3Hz_17.m4a,,,
,,,,,,,,,,,,36418,2021-04-26_14h43.23.238,judgeSpeechMusic_20210407_logNormShiftAmp,2020.1.2,Win32,60,,,,,,,,,,,,,,2,6.989,,0,1,70,220,136,1,stimuli/stim_20210407_power2amp/equal_lnn_AM6Hz_27.m4a,,,
,,,,,,,,,,,,36418,2021-04-26_14h43.23.238,judgeSpeechMusic_20210407_logNormShiftAmp,2020.1.2,Win32,60,,,,,,,,,,,,,,1,6.413,,0,1,71,221,99,1,stimuli/stim_20210407_power2amp/equal_lnn_AM4.2Hz_95.m4a,,,
,,,,,,,,,,,,36418,2021-04-26_14h43.23.238,judgeSpeechMusic_20210407_logNormShiftAmp,2020.1.2,Win32,60,,,,,,,,,,,,,,2,5.563,,0,1,72,222,106,1,stimuli/stim_20210407_power2amp/equal_lnn_AM4.8Hz_25.m4a,,,
,,,,,,,,,,,,36418,2021-04-26_14h43.23.238,judgeSpeechMusic_20210407_logNormShiftAmp,2020.1.2,Win32,60,,,,,,,,,,,,,,2,7.055,,0,1,73,223,26,1,stimuli/stim_20210407_power2amp/equal_lnn_AM1.2Hz_57.m4a,,,
,,,,,,,,,,,,36418,2021-04-26_14h43.23.238,judgeSpeechMusic_20210407_logNormShiftAmp,2020.1.2,Win32,60,,,,,,,,,,,,,,2,5.83,,0,1,74,224,97,1,stimuli/stim_20210407_power2amp/equal_lnn_AM4.2Hz_72.m4a,,,
,,,,,,,,,,,,36418,2021-04-26_14h43.23.238,judgeSpeechMusic_20210407_logNormShiftAmp,2020.1.2,Win32,60,,,,,,,,,,,,,,1,5.657,,0,1,75,225,6,1,stimuli/stim_20210407_power2amp/equal_lnn_AM0.6Hz_35.m4a,,,
,,,,,,,,,,,,36418,2021-04-26_14h43.23.238,judgeSpeechMusic_20210407_logNormShiftAmp,2020.1.2,Win32,60,,,,,,,,,,,,,,1,7.808,,0,1,76,226,85,1,stimuli/stim_20210407_power2amp/equal_lnn_AM3.6Hz_21.m4a,,,
,,,,,,,,,,,,36418,2021-04-26_14h43.23.238,judgeSpeechMusic_20210407_logNormShiftAmp,2020.1.2,Win32,60,,,,,,,,,,,,,,1,7.023,,0,1,77,227,8,1,stimuli/stim_20210407_power2amp/equal_lnn_AM0.6Hz_6.m4a,,,
,,,,,,,,,,,,36418,2021-04-26_14h43.23.238,judgeSpeechMusic_20210407_logNormShiftAmp,2020.1.2,Win32,60,,,,,,,,,,,,,,2,5.675,,0,1,78,228,110,1,stimuli/stim_20210407_power2amp/equal_lnn_AM4.8Hz_67.m4a,,,
,,,,,,,,,,,,36418,2021-04-26_14h43.23.238,judgeSpeechMusic_20210407_logNormShiftAmp,2020.1.2,Win32,60,,,,,,,,,,,,,,2,5.704,,0,1,79,229,50,1,stimuli/stim_20210407_power2amp/equal_lnn_AM2.4Hz_89.m4a,,,
,,,,,,,,,,,,36418,2021-04-26_14h43.23.238,judgeSpeechMusic_20210407_logNormShiftAmp,2020.1.2,Win32,60,,,,,,,,,,,,,,2,5.658,,0,1,80,230,96,1,stimuli/stim_20210407_power2amp/equal_lnn_AM4.2Hz_36.m4a,,,
,,,,,,,,,,,,36418,2021-04-26_14h43.23.238,judgeSpeechMusic_20210407_logNormShiftAmp,2020.1.2,Win32,60,,,,,,,,,,,,,,2,5.998,,0,1,81,231,15,1,stimuli/stim_20210407_power2amp/equal_lnn_AM1.2Hz_95.m4a,,,
,,,,,,,,,,,,36418,2021-04-26_14h43.23.238,judgeSpeechMusic_20210407_logNormShiftAmp,2020.1.2,Win32,60,,,,,,,,,,,,,,2,6.226,,0,1,82,232,134,1,stimuli/stim_20210407_power2amp/equal_lnn_AM5.4Hz_47.m4a,,,
,,,,,,,,,,,,36418,2021-04-26_14h43.23.238,judgeSpeechMusic_20210407_logNormShiftAmp,2020.1.2,Win32,60,,,,,,,,,,,,,,2,7.74,,0,1,83,233,112,1,stimuli/stim_20210407_power2amp/equal_lnn_AM4.8Hz_20.m4a,,,
,,,,,,,,,,,,36418,2021-04-26_14h43.23.238,judgeSpeechMusic_20210407_logNormShiftAmp,2020.1.2,Win32,60,,,,,,,,,,,,,,2,6.258,,0,1,84,234,68,1,stimuli/stim_20210407_power2amp/equal_lnn_AM3Hz_95.m4a,,,
,,,,,,,,,,,,36418,2021-04-26_14h43.23.238,judgeSpeechMusic_20210407_logNormShiftAmp,2020.1.2,Win32,60,,,,,,,,,,,,,,2,7.409,,0,1,85,235,103,1,stimuli/stim_20210407_power2amp/equal_lnn_AM4.2Hz_24.m4a,,,
,,,,,,,,,,,,36418,2021-04-26_14h43.23.238,judgeSpeechMusic_20210407_logNormShiftAmp,2020.1.2,Win32,60,,,,,,,,,,,,,,2,8.74,,0,1,86,236,53,1,stimuli/stim_20210407_power2amp/equal_lnn_AM2.4Hz_20.m4a,,,
,,,,,,,,,,,,36418,2021-04-26_14h43.23.238,judgeSpeechMusic_20210407_logNormShiftAmp,2020.1.2,Win32,60,,,,,,,,,,,,,,2,8.955,,0,1,87,237,100,1,stimuli/stim_20210407_power2amp/equal_lnn_AM4.2Hz_76.m4a,,,
,,,,,,,,,,,,36418,2021-04-26_14h43.23.238,judgeSpeechMusic_20210407_logNormShiftAmp,2020.1.2,Win32,60,,,,,,,,,,,,,,2,5.939,1,1,1,88,238,74,1,stimuli/stim_20210407_power2amp/equal_lnn_AM3Hz_56.m4a,0.834,,
,,,,,,,,,,,,36418,2021-04-26_14h43.23.238,judgeSpeechMusic_20210407_logNormShiftAmp,2020.1.2,Win32,60,,,,,,,,,,,,,,2,10.707,,0,1,89,239,126,1,stimuli/stim_20210407_power2amp/equal_lnn_AM5.4Hz_64.m4a,,,
,,,,,,,,,,,,36418,2021-04-26_14h43.23.238,judgeSpeechMusic_20210407_logNormShiftAmp,2020.1.2,Win32,60,,,,,,,,,,,,,,2,13.356,,0,1,90,240,48,1,stimuli/stim_20210407_power2amp/equal_lnn_AM2.4Hz_78.m4a,,,
,,,,,,,,,,,,36418,2021-04-26_14h43.23.238,judgeSpeechMusic_20210407_logNormShiftAmp,2020.1.2,Win32,60,,,,,,,,,,,,,,2,14.874,,0,1,91,241,39,1,stimuli/stim_20210407_power2amp/equal_lnn_AM1.8Hz_24.m4a,,,
,,,,,,,,,,,,36418,2021-04-26_14h43.23.238,judgeSpeechMusic_20210407_logNormShiftAmp,2020.1.2,Win32,60,,,,,,,,,,,,,,2,14.345,,0,1,92,242,93,1,stimuli/stim_20210407_power2amp/equal_lnn_AM4.2Hz_27.m4a,,,
,,,,,,,,,,,,36418,2021-04-26_14h43.23.238,judgeSpeechMusic_20210407_logNormShiftAmp,2020.1.2,Win32,60,,,,,,,,,,,,,,2,17.623,,0,1,93,243,133,1,stimuli/stim_20210407_power2amp/equal_lnn_AM5.4Hz_99.m4a,,,
,,,,,,,,,,,,36418,2021-04-26_14h43.23.238,judgeSpeechMusic_20210407_logNormShiftAmp,2020.1.2,Win32,60,,,,,,,,,,,,,,2,12.005,,0,1,94,244,72,1,stimuli/stim_20210407_power2amp/equal_lnn_AM3Hz_9.m4a,,,
,,,,,,,,,,,,36418,2021-04-26_14h43.23.238,judgeSpeechMusic_20210407_logNormShiftAmp,2020.1.2,Win32,60,,,,,,,,,,,,,,2,24.228,,0,1,95,245,139,1,stimuli/stim_20210407_power2amp/equal_lnn_AM6Hz_88.m4a,,,
,,,,,,,,,,,,36418,2021-04-26_14h43.23.238,judgeSpeechMusic_20210407_logNormShiftAmp,2020.1.2,Win32,60,,,,,,,,,,,,,,2,9.288,,0,1,96,246,83,1,stimuli/stim_20210407_power2amp/equal_lnn_AM3.6Hz_16.m4a,,,
,,,,,,,,,,,,36418,2021-04-26_14h43.23.238,judgeSpeechMusic_20210407_logNormShiftAmp,2020.1.2,Win32,60,,,,,,,,,,,,,,2,7.289,,0,1,97,247,14,1,stimuli/stim_20210407_power2amp/equal_lnn_AM0.6Hz_5.m4a,,,
,,,,,,,,,,,,36418,2021-04-26_14h43.23.238,judgeSpeechMusic_20210407_logNormShiftAmp,2020.1.2,Win32,60,,,,,,,,,,,,,,2,22.559,,0,1,98,248,19,1,stimuli/stim_20210407_power2amp/equal_lnn_AM1.2Hz_82.m4a,,,
,,,,,,,,,,,,36418,2021-04-26_14h43.23.238,judgeSpeechMusic_20210407_logNormShiftAmp,2020.1.2,Win32,60,,,,,,,,,,,,,,2,6.789,,0,1,99,249,75,1,stimuli/stim_20210407_power2amp/equal_lnn_AM3.6Hz_54.m4a,,,
,,,,,,,,,,,,36418,2021-04-26_14h43.23.238,judgeSpeechMusic_20210407_logNormShiftAmp,2020.1.2,Win32,60,,,,,,,,,,,,,,2,7.228,,0,1,100,250,18,1,stimuli/stim_20210407_power2amp/equal_lnn_AM1.2Hz_79.m4a,,,
,,,,,,,,,,,,36418,2021-04-26_14h43.23.238,judgeSpeechMusic_20210407_logNormShiftAmp,2020.1.2,Win32,60,,,,,,,,,,,,,,2,5.964,,0,1,101,251,92,1,stimuli/stim_20210407_power2amp/equal_lnn_AM4.2Hz_65.m4a,,,
,,,,,,,,,,,,36418,2021-04-26_14h43.23.238,judgeSpeechMusic_20210407_logNormShiftAmp,2020.1.2,Win32,60,,,,,,,,,,,,,,1,5.59,,0,1,102,252,24,1,stimuli/stim_20210407_power2amp/equal_lnn_AM1.2Hz_26.m4a,,,
,,,,,,,,,,,,36418,2021-04-26_14h43.23.238,judgeSpeechMusic_20210407_logNormShiftAmp,2020.1.2,Win32,60,,,,,,,,,,,,,,1,6.108,,0,1,103,253,145,1,stimuli/stim_20210407_power2amp/equal_lnn_AM6Hz_52.m4a,,,
,,,,,,,,,,,,36418,2021-04-26_14h43.23.238,judgeSpeechMusic_20210407_logNormShiftAmp,2020.1.2,Win32,60,,,,,,,,,,,,,,1,5.872,,0,1,104,254,55,1,stimuli/stim_20210407_power2amp/equal_lnn_AM2.4Hz_43.m4a,,,
,,,,,,,,,,,,36418,2021-04-26_14h43.23.238,judgeSpeechMusic_20210407_logNormShiftAmp,2020.1.2,Win32,60,,,,,,,,,,,,,,1,5.94,,0,1,105,255,125,1,stimuli/stim_20210407_power2amp/equal_lnn_AM5.4Hz_72.m4a,,,
,,,,,,,,,,,,36418,2021-04-26_14h43.23.238,judgeSpeechMusic_20210407_logNormShiftAmp,2020.1.2,Win32,60,,,,,,,,,,,,,,1,12.572,,0,1,106,256,82,1,stimuli/stim_20210407_power2amp/equal_lnn_AM3.6Hz_84.m4a,,,
,,,,,,,,,,,,36418,2021-04-26_14h43.23.238,judgeSpeechMusic_20210407_logNormShiftAmp,2020.1.2,Win32,60,,,,,,,,,,,,,,1,17.34,,0,1,107,257,117,1,stimuli/stim_20210407_power2amp/equal_lnn_AM4.8Hz_9.m4a,,,
,,,,,,,,,,,,36418,2021-04-26_14h43.23.238,judgeSpeechMusic_20210407_logNormShiftAmp,2020.1.2,Win32,60,,,,,,,,,,,,,,1,9.763,,0,1,108,258,23,1,stimuli/stim_20210407_power2amp/equal_lnn_AM1.2Hz_8.m4a,,,
,,,,,,,,,,,,36418,2021-04-26_14h43.23.238,judgeSpeechMusic_20210407_logNormShiftAmp,2020.1.2,Win32,60,,,,,,,,,,,,,,1,5.873,,0,1,109,259,7,1,stimuli/stim_20210407_power2amp/equal_lnn_AM0.6Hz_78.m4a,,,
,,,,,,,,,,,,36418,2021-04-26_14h43.23.238,judgeSpeechMusic_20210407_logNormShiftAmp,2020.1.2,Win32,60,,,,,,,,,,,,,,1,5.856,1,1,1,110,260,107,1,stimuli/stim_20210407_power2amp/equal_lnn_AM4.8Hz_43.m4a,0.907,,
,,,,,,,,,,,,36418,2021-04-26_14h43.23.238,judgeSpeechMusic_20210407_logNormShiftAmp,2020.1.2,Win32,60,,,,,,,,,,,,,,2,5.722,,0,1,111,261,140,1,stimuli/stim_20210407_power2amp/equal_lnn_AM6Hz_10.m4a,,,
,,,,,,,,,,,,36418,2021-04-26_14h43.23.238,judgeSpeechMusic_20210407_logNormShiftAmp,2020.1.2,Win32,60,,,,,,,,,,,,,,1,5.811,,0,1,112,262,86,1,stimuli/stim_20210407_power2amp/equal_lnn_AM3.6Hz_9.m4a,,,
,,,,,,,,,,,,36418,2021-04-26_14h43.23.238,judgeSpeechMusic_20210407_logNormShiftAmp,2020.1.2,Win32,60,,,,,,,,,,,,,,2,5.757,,0,1,113,263,113,1,stimuli/stim_20210407_power2amp/equal_lnn_AM4.8Hz_51.m4a,,,
,,,,,,,,,,,,36418,2021-04-26_14h43.23.238,judgeSpeechMusic_20210407_logNormShiftAmp,2020.1.2,Win32,60,,,,,,,,,,,,,,2,5.903,,0,1,114,264,135,1,stimuli/stim_20210407_power2amp/equal_lnn_AM6Hz_99.m4a,,,
,,,,,,,,,,,,36418,2021-04-26_14h43.23.238,judgeSpeechMusic_20210407_logNormShiftAmp,2020.1.2,Win32,60,,,,,,,,,,,,,,2,5.755,,0,1,115,265,31,1,stimuli/stim_20210407_power2amp/equal_lnn_AM1.8Hz_15.m4a,,,
,,,,,,,,,,,,36418,2021-04-26_14h43.23.238,judgeSpeechMusic_20210407_logNormShiftAmp,2020.1.2,Win32,60,,,,,,,,,,,,,,2,5.974,,0,1,116,266,49,1,stimuli/stim_20210407_power2amp/equal_lnn_AM2.4Hz_80.m4a,,,
,,,,,,,,,,,,36418,2021-04-26_14h43.23.238,judgeSpeechMusic_20210407_logNormShiftAmp,2020.1.2,Win32,60,,,,,,,,,,,,,,2,6.032,,0,1,117,267,84,1,stimuli/stim_20210407_power2amp/equal_lnn_AM3.6Hz_17.m4a,,,
,,,,,,,,,,,,36418,2021-04-26_14h43.23.238,judgeSpeechMusic_20210407_logNormShiftAmp,2020.1.2,Win32,60,,,,,,,,,,,,,,1,5.84,,0,1,118,268,149,1,stimuli/stim_20210407_power2amp/equal_lnn_AM6Hz_95.m4a,,,
,,,,,,,,,,,,36418,2021-04-26_14h43.23.238,judgeSpeechMusic_20210407_logNormShiftAmp,2020.1.2,Win32,60,,,,,,,,,,,,,,1,17.988,,0,1,119,269,63,1,stimuli/stim_20210407_power2amp/equal_lnn_AM3Hz_72.m4a,,,
,,,,,,,,,,,,36418,2021-04-26_14h43.23.238,judgeSpeechMusic_20210407_logNormShiftAmp,2020.1.2,Win32,60,,,,,,,,,,,,,,2,23.538,,0,1,120,270,114,1,stimuli/stim_20210407_power2amp/equal_lnn_AM4.8Hz_64.m4a,,,
,,,,,,,,,,,,36418,2021-04-26_14h43.23.238,judgeSpeechMusic_20210407_logNormShiftAmp,2020.1.2,Win32,60,,,,,,,,,,,,,,2,6.412,,0,1,121,271,40,1,stimuli/stim_20210407_power2amp/equal_lnn_AM1.8Hz_49.m4a,,,
,,,,,,,,,,,,36418,2021-04-26_14h43.23.238,judgeSpeechMusic_20210407_logNormShiftAmp,2020.1.2,Win32,60,,,,,,,,,,,,,,2,17.379,,0,1,122,272,66,1,stimuli/stim_20210407_power2amp/equal_lnn_AM3Hz_41.m4a,,,
,,,,,,,,,,,,36418,2021-04-26_14h43.23.238,judgeSpeechMusic_20210407_logNormShiftAmp,2020.1.2,Win32,60,,,,,,,,,,,,,,2,17.739,,0,1,123,273,71,1,stimuli/stim_20210407_power2amp/equal_lnn_AM3Hz_10.m4a,,,
,,,,,,,,,,,,36418,2021-04-26_14h43.23.238,judgeSpeechMusic_20210407_logNormShiftAmp,2020.1.2,Win32,60,,,,,,,,,,,,,,2,8.076,,0,1,124,274,29,1,stimuli/stim_20210407_power2amp/equal_lnn_AM1.2Hz_7.m4a,,,
,,,,,,,,,,,,36418,2021-04-26_14h43.23.238,judgeSpeechMusic_20210407_logNormShiftAmp,2020.1.2,Win32,60,,,,,,,,,,,,,,2,10.89,,0,1,125,275,46,1,stimuli/stim_20210407_power2amp/equal_lnn_AM2.4Hz_79.m4a,,,
,,,,,,,,,,,,36418,2021-04-26_14h43.23.238,judgeSpeechMusic_20210407_logNormShiftAmp,2020.1.2,Win32,60,,,,,,,,,,,,,,2,12.504,,0,1,126,276,123,1,stimuli/stim_20210407_power2amp/equal_lnn_AM5.4Hz_3.m4a,,,
,,,,,,,,,,,,36418,2021-04-26_14h43.23.238,judgeSpeechMusic_20210407_logNormShiftAmp,2020.1.2,Win32,60,,,,,,,,,,,,,,2,12.044,,0,1,127,277,67,1,stimuli/stim_20210407_power2amp/equal_lnn_AM3Hz_82.m4a,,,
,,,,,,,,,,,,36418,2021-04-26_14h43.23.238,judgeSpeechMusic_20210407_logNormShiftAmp,2020.1.2,Win32,60,,,,,,,,,,,,,,2,12.262,,0,1,128,278,25,1,stimuli/stim_20210407_power2amp/equal_lnn_AM1.2Hz_20.m4a,,,
,,,,,,,,,,,,36418,2021-04-26_14h43.23.238,judgeSpeechMusic_20210407_logNormShiftAmp,2020.1.2,Win32,60,,,,,,,,,,,,,,2,7.628,,0,1,129,279,141,1,stimuli/stim_20210407_power2amp/equal_lnn_AM6Hz_13.m4a,,,
,,,,,,,,,,,,36418,2021-04-26_14h43.23.238,judgeSpeechMusic_20210407_logNormShiftAmp,2020.1.2,Win32,60,,,,,,,,,,,,,,2,5.72,,0,1,130,280,59,1,stimuli/stim_20210407_power2amp/equal_lnn_AM2.4Hz_47.m4a,,,
,,,,,,,,,,,,36418,2021-04-26_14h43.23.238,judgeSpeechMusic_20210407_logNormShiftAmp,2020.1.2,Win32,60,,,,,,,,,,,,,,2,5.473,,0,1,131,281,118,1,stimuli/stim_20210407_power2amp/equal_lnn_AM4.8Hz_45.m4a,,,
,,,,,,,,,,,,36418,2021-04-26_14h43.23.238,judgeSpeechMusic_20210407_logNormShiftAmp,2020.1.2,Win32,60,,,,,,,,,,,,,,1,7.205,,0,1,132,282,69,1,stimuli/stim_20210407_power2amp/equal_lnn_AM3Hz_99.m4a,,,
,,,,,,,,,,,,36418,2021-04-26_14h43.23.238,judgeSpeechMusic_20210407_logNormShiftAmp,2020.1.2,Win32,60,,,,,,,,,,,,,,1,6.138,,0,1,133,283,147,1,stimuli/stim_20210407_power2amp/equal_lnn_AM6Hz_21.m4a,,,
,,,,,,,,,,,,36418,2021-04-26_14h43.23.238,judgeSpeechMusic_20210407_logNormShiftAmp,2020.1.2,Win32,60,,,,,,,,,,,,,,1,6.907,,0,1,134,284,62,1,stimuli/stim_20210407_power2amp/equal_lnn_AM3Hz_83.m4a,,,
,,,,,,,,,,,,36418,2021-04-26_14h43.23.238,judgeSpeechMusic_20210407_logNormShiftAmp,2020.1.2,Win32,60,,,,,,,,,,,,,,1,5.621,1,1,1,135,285,102,1,stimuli/stim_20210407_power2amp/equal_lnn_AM4.2Hz_30.m4a,0.756,,
,,,,,,,,,,,,36418,2021-04-26_14h43.23.238,judgeSpeechMusic_20210407_logNormShiftAmp,2020.1.2,Win32,60,,,,,,,,,,,,,,1,6.661,,0,1,136,286,42,1,stimuli/stim_20210407_power2amp/equal_lnn_AM1.8Hz_69.m4a,,,
,,,,,,,,,,,,36418,2021-04-26_14h43.23.238,judgeSpeechMusic_20210407_logNormShiftAmp,2020.1.2,Win32,60,,,,,,,,,,,,,,1,8.638,,0,1,137,287,54,1,stimuli/stim_20210407_power2amp/equal_lnn_AM2.4Hz_38.m4a,,,
,,,,,,,,,,,,36418,2021-04-26_14h43.23.238,judgeSpeechMusic_20210407_logNormShiftAmp,2020.1.2,Win32,60,,,,,,,,,,,,,,1,12.842,,0,1,138,288,77,1,stimuli/stim_20210407_power2amp/equal_lnn_AM3.6Hz_68.m4a,,,
,,,,,,,,,,,,36418,2021-04-26_14h43.23.238,judgeSpeechMusic_20210407_logNormShiftAmp,2020.1.2,Win32,60,,,,,,,,,,,,,,2,10.156,,0,1,139,289,36,1,stimuli/stim_20210407_power2amp/equal_lnn_AM1.8Hz_96.m4a,,,
,,,,,,,,,,,,36418,2021-04-26_14h43.23.238,judgeSpeechMusic_20210407_logNormShiftAmp,2020.1.2,Win32,60,,,,,,,,,,,,,,2,20.477,,0,1,140,290,90,1,stimuli/stim_20210407_power2amp/equal_lnn_AM4.2Hz_63.m4a,,,
,,,,,,,,,,,,36418,2021-04-26_14h43.23.238,judgeSpeechMusic_20210407_logNormShiftAmp,2020.1.2,Win32,60,,,,,,,,,,,,,,2,15.824,,0,1,141,291,65,1,stimuli/stim_20210407_power2amp/equal_lnn_AM3Hz_96.m4a,,,
,,,,,,,,,,,,36418,2021-04-26_14h43.23.238,judgeSpeechMusic_20210407_logNormShiftAmp,2020.1.2,Win32,60,,,,,,,,,,,,,,2,22.645,,0,1,142,292,119,1,stimuli/stim_20210407_power2amp/equal_lnn_AM4.8Hz_88.m4a,,,
,,,,,,,,,,,,36418,2021-04-26_14h43.23.238,judgeSpeechMusic_20210407_logNormShiftAmp,2020.1.2,Win32,60,,,,,,,,,,,,,,2,7.028,,0,1,143,293,3,1,stimuli/stim_20210407_power2amp/equal_lnn_AM0.6Hz_82.m4a,,,
,,,,,,,,,,,,36418,2021-04-26_14h43.23.238,judgeSpeechMusic_20210407_logNormShiftAmp,2020.1.2,Win32,60,,,,,,,,,,,,,,1,6.338,,0,1,144,294,101,1,stimuli/stim_20210407_power2amp/equal_lnn_AM4.2Hz_25.m4a,,,
,,,,,,,,,,,,36418,2021-04-26_14h43.23.238,judgeSpeechMusic_20210407_logNormShiftAmp,2020.1.2,Win32,60,,,,,,,,,,,,,,1,5.983,,0,1,145,295,32,1,stimuli/stim_20210407_power2amp/equal_lnn_AM1.8Hz_8.m4a,,,
,,,,,,,,,,,,36418,2021-04-26_14h43.23.238,judgeSpeechMusic_20210407_logNormShiftAmp,2020.1.2,Win32,60,,,,,,,,,,,,,,1,5.874,,0,1,146,296,138,1,stimuli/stim_20210407_power2amp/equal_lnn_AM6Hz_32.m4a,,,
,,,,,,,,,,,,36418,2021-04-26_14h43.23.238,judgeSpeechMusic_20210407_logNormShiftAmp,2020.1.2,Win32,60,,,,,,,,,,,,,,1,6.138,,0,1,147,297,41,1,stimuli/stim_20210407_power2amp/equal_lnn_AM1.8Hz_40.m4a,,,
,,,,,,,,,,,,36418,2021-04-26_14h43.23.238,judgeSpeechMusic_20210407_logNormShiftAmp,2020.1.2,Win32,60,,,,,,,,,,,,,,1,14.806,,0,1,148,298,56,1,stimuli/stim_20210407_power2amp/equal_lnn_AM2.4Hz_59.m4a,,,
,,,,,,,,,,,,36418,2021-04-26_14h43.23.238,judgeSpeechMusic_20210407_logNormShiftAmp,2020.1.2,Win32,60,,,,,,,,,,,,,,1,11.857,,0,1,149,299,12,1,stimuli/stim_20210407_power2amp/equal_lnn_AM0.6Hz_94.m4a,,,
,,,,,,,,,,,,36418,2021-04-26_14h43.23.238,judgeSpeechMusic_20210407_logNormShiftAmp,2020.1.2,Win32,60,,,,,,,,,,,,,,,,,,,,,,,,,space,5.043
