volAdjustRep.thisRepN,volAdjustRep.thisTrialN,volAdjustRep.thisN,volAdjustRep.thisIndex,volAdjustRep.ran,participant,date,expName,psychopyVersion,OS,frameRate,headphoneResponse.keys,headphoneResponse.corr,headphoneResponse.rt,headphoneTrial.thisRepN,headphoneTrial.thisTrialN,headphoneTrial.thisN,headphoneTrial.thisIndex,headphoneTrial.ran,headphone_sound1,headphone_sound2,headphone_sound3,corrAns,trainSlider.response,trainSlider.rt,beepTrainResponse.keys,beepTrainResponse.corr,trainingTrials.thisRepN,trainingTrials.thisTrialN,trainingTrials.thisN,trainingTrials.thisIndex,trainingTrials.ran,trainAudioFile,beepTrainResponse.rt,readyReal_resp.keys,readyReal_resp.rt,ratingSlider.response,ratingSlider.rt,beepResp.keys,beepResp.corr,expTrials.thisRepN,expTrials.thisTrialN,expTrials.thisN,expTrials.thisIndex,expTrials.ran,audioFile,beepResp.rt,end_resp.keys,end_resp.rt
0,0,0,0,1,36615,2021-05-10_11h29.52.053,judgeSpeechMusic_20210407_logNormShiftAmp,2020.1.2,Linux x86_64,60,,,,,,,,,,,,,,,,,,,,,,,,,,,,,,,,,,,,,,
1,0,1,0,1,36615,2021-05-10_11h29.52.053,judgeSpeechMusic_20210407_logNormShiftAmp,2020.1.2,Linux x86_64,60,,,,,,,,,,,,,,,,,,,,,,,,,,,,,,,,,,,,,,
,,,,,36615,2021-05-10_11h29.52.053,judgeSpeechMusic_20210407_logNormShiftAmp,2020.1.2,Linux x86_64,60,2,0,5.52274,0,0,0,0,1,stimuli/screen_antiphase.wav,stimuli/screen_origin.wav,stimuli/screen_quiet.wav,3,,,,,,,,,,,,,,,,,,,,,,,,,,
,,,,,36615,2021-05-10_11h29.52.053,judgeSpeechMusic_20210407_logNormShiftAmp,2020.1.2,Linux x86_64,60,3,1,2.004035,0,1,1,2,1,stimuli/screen_origin.wav,stimuli/screen_antiphase.wav,stimuli/screen_quiet.wav,3,,,,,,,,,,,,,,,,,,,,,,,,,,
,,,,,36615,2021-05-10_11h29.52.053,judgeSpeechMusic_20210407_logNormShiftAmp,2020.1.2,Linux x86_64,60,2,1,1.129655,0,2,2,3,1,stimuli/screen_origin.wav,stimuli/screen_quiet.wav,stimuli/screen_antiphase.wav,2,,,,,,,,,,,,,,,,,,,,,,,,,,
,,,,,36615,2021-05-10_11h29.52.053,judgeSpeechMusic_20210407_logNormShiftAmp,2020.1.2,Linux x86_64,60,1,1,1.115585,0,3,3,4,1,stimuli/screen_quiet.wav,stimuli/screen_antiphase.wav,stimuli/screen_origin.wav,1,,,,,,,,,,,,,,,,,,,,,,,,,,
,,,,,36615,2021-05-10_11h29.52.053,judgeSpeechMusic_20210407_logNormShiftAmp,2020.1.2,Linux x86_64,60,1,1,1.30113,0,4,4,5,1,stimuli/screen_quiet.wav,stimuli/screen_origin.wav,stimuli/screen_antiphase.wav,1,,,,,,,,,,,,,,,,,,,,,,,,,,
,,,,,36615,2021-05-10_11h29.52.053,judgeSpeechMusic_20210407_logNormShiftAmp,2020.1.2,Linux x86_64,60,2,1,1.28603,0,5,5,1,1,stimuli/screen_antiphase.wav,stimuli/screen_quiet.wav,stimuli/screen_origin.wav,2,,,,,,,,,,,,,,,,,,,,,,,,,,
,,,,,36615,2021-05-10_11h29.52.053,judgeSpeechMusic_20210407_logNormShiftAmp,2020.1.2,Linux x86_64,60,,,,,,,,,,,,,2,9.00438,,0,0,0,0,2,1,stimuli/stim_20210407_power2amp/equal_lnn_AM_training3.9Hz.m4a,,,,,,,,,,,,,,,,
,,,,,36615,2021-05-10_11h29.52.053,judgeSpeechMusic_20210407_logNormShiftAmp,2020.1.2,Linux x86_64,60,,,,,,,,,,,,,1,14.814895,,0,0,1,1,0,1,stimuli/stim_20210407_power2amp/equal_lnn_AM_training1.5Hz.m4a,,,,,,,,,,,,,,,,
,,,,,36615,2021-05-10_11h29.52.053,judgeSpeechMusic_20210407_logNormShiftAmp,2020.1.2,Linux x86_64,60,,,,,,,,,,,,,2,9.001535,1,1,0,2,2,1,1,stimuli/stim_20210407_power2amp/equal_lnn_AM_training2.7Hz.m4a,1.590235,,,,,,,,,,,,,,,
,,,,,36615,2021-05-10_11h29.52.053,judgeSpeechMusic_20210407_logNormShiftAmp,2020.1.2,Linux x86_64,60,,,,,,,,,,,,,2,9.99375,,0,0,3,3,3,1,stimuli/stim_20210407_power2amp/equal_lnn_AM_training5.1Hz.m4a,,,,,,,,,,,,,,,,
,,,,,36615,2021-05-10_11h29.52.053,judgeSpeechMusic_20210407_logNormShiftAmp,2020.1.2,Linux x86_64,60,,,,,,,,,,,,,,,,,,,,,,,,space,5.7854,1,7.057485,,0,0,0,0,148,1,stimuli/stim_20210407_power2amp/equal_lnn_AM6Hz_1.m4a,,,
,,,,,36615,2021-05-10_11h29.52.053,judgeSpeechMusic_20210407_logNormShiftAmp,2020.1.2,Linux x86_64,60,,,,,,,,,,,,,,,,,,,,,,,,,,1,5.917705,,0,0,1,1,105,1,stimuli/stim_20210407_power2amp/equal_lnn_AM4.8Hz_75.m4a,,,
,,,,,36615,2021-05-10_11h29.52.053,judgeSpeechMusic_20210407_logNormShiftAmp,2020.1.2,Linux x86_64,60,,,,,,,,,,,,,,,,,,,,,,,,,,1,5.958475,,0,0,2,2,129,1,stimuli/stim_20210407_power2amp/equal_lnn_AM5.4Hz_79.m4a,,,
,,,,,36615,2021-05-10_11h29.52.053,judgeSpeechMusic_20210407_logNormShiftAmp,2020.1.2,Linux x86_64,60,,,,,,,,,,,,,,,,,,,,,,,,,,1,6.121355,,0,0,3,3,45,1,stimuli/stim_20210407_power2amp/equal_lnn_AM2.4Hz_96.m4a,,,
,,,,,36615,2021-05-10_11h29.52.053,judgeSpeechMusic_20210407_logNormShiftAmp,2020.1.2,Linux x86_64,60,,,,,,,,,,,,,,,,,,,,,,,,,,1,6.74896,,0,0,4,4,16,1,stimuli/stim_20210407_power2amp/equal_lnn_AM1.2Hz_36.m4a,,,
,,,,,36615,2021-05-10_11h29.52.053,judgeSpeechMusic_20210407_logNormShiftAmp,2020.1.2,Linux x86_64,60,,,,,,,,,,,,,,,,,,,,,,,,,,2,6.494395,,0,0,5,5,31,1,stimuli/stim_20210407_power2amp/equal_lnn_AM1.8Hz_18.m4a,,,
,,,,,36615,2021-05-10_11h29.52.053,judgeSpeechMusic_20210407_logNormShiftAmp,2020.1.2,Linux x86_64,60,,,,,,,,,,,,,,,,,,,,,,,,,,2,6.08338,,0,0,6,6,78,1,stimuli/stim_20210407_power2amp/equal_lnn_AM3.6Hz_28.m4a,,,
,,,,,36615,2021-05-10_11h29.52.053,judgeSpeechMusic_20210407_logNormShiftAmp,2020.1.2,Linux x86_64,60,,,,,,,,,,,,,,,,,,,,,,,,,,1,6.535615,,0,0,7,7,85,1,stimuli/stim_20210407_power2amp/equal_lnn_AM3.6Hz_5.m4a,,,
,,,,,36615,2021-05-10_11h29.52.053,judgeSpeechMusic_20210407_logNormShiftAmp,2020.1.2,Linux x86_64,60,,,,,,,,,,,,,,,,,,,,,,,,,,1,8.336165,,0,0,8,8,122,1,stimuli/stim_20210407_power2amp/equal_lnn_AM5.4Hz_25.m4a,,,
,,,,,36615,2021-05-10_11h29.52.053,judgeSpeechMusic_20210407_logNormShiftAmp,2020.1.2,Linux x86_64,60,,,,,,,,,,,,,,,,,,,,,,,,,,2,7.680795,,0,0,9,9,145,1,stimuli/stim_20210407_power2amp/equal_lnn_AM6Hz_33.m4a,,,
,,,,,36615,2021-05-10_11h29.52.053,judgeSpeechMusic_20210407_logNormShiftAmp,2020.1.2,Linux x86_64,60,,,,,,,,,,,,,,,,,,,,,,,,,,1,9.50608,,0,0,10,10,58,1,stimuli/stim_20210407_power2amp/equal_lnn_AM2.4Hz_81.m4a,,,
,,,,,36615,2021-05-10_11h29.52.053,judgeSpeechMusic_20210407_logNormShiftAmp,2020.1.2,Linux x86_64,60,,,,,,,,,,,,,,,,,,,,,,,,,,1,7.06302,,0,0,11,11,70,1,stimuli/stim_20210407_power2amp/equal_lnn_AM3Hz_27.m4a,,,
,,,,,36615,2021-05-10_11h29.52.053,judgeSpeechMusic_20210407_logNormShiftAmp,2020.1.2,Linux x86_64,60,,,,,,,,,,,,,,,,,,,,,,,,,,2,6.891865,,0,0,12,12,97,1,stimuli/stim_20210407_power2amp/equal_lnn_AM4.2Hz_28.m4a,,,
,,,,,36615,2021-05-10_11h29.52.053,judgeSpeechMusic_20210407_logNormShiftAmp,2020.1.2,Linux x86_64,60,,,,,,,,,,,,,,,,,,,,,,,,,,1,6.56418,,0,0,13,13,118,1,stimuli/stim_20210407_power2amp/equal_lnn_AM4.8Hz_27.m4a,,,
,,,,,36615,2021-05-10_11h29.52.053,judgeSpeechMusic_20210407_logNormShiftAmp,2020.1.2,Linux x86_64,60,,,,,,,,,,,,,,,,,,,,,,,,,,1,9.16239,,0,0,14,14,116,1,stimuli/stim_20210407_power2amp/equal_lnn_AM4.8Hz_15.m4a,,,
,,,,,36615,2021-05-10_11h29.52.053,judgeSpeechMusic_20210407_logNormShiftAmp,2020.1.2,Linux x86_64,60,,,,,,,,,,,,,,,,,,,,,,,,,,1,5.82826,,0,0,15,15,14,1,stimuli/stim_20210407_power2amp/equal_lnn_AM0.6Hz_21.m4a,,,
,,,,,36615,2021-05-10_11h29.52.053,judgeSpeechMusic_20210407_logNormShiftAmp,2020.1.2,Linux x86_64,60,,,,,,,,,,,,,,,,,,,,,,,,,,2,6.34843,,0,0,16,16,117,1,stimuli/stim_20210407_power2amp/equal_lnn_AM4.8Hz_87.m4a,,,
,,,,,36615,2021-05-10_11h29.52.053,judgeSpeechMusic_20210407_logNormShiftAmp,2020.1.2,Linux x86_64,60,,,,,,,,,,,,,,,,,,,,,,,,,,1,6.86811,,0,0,17,17,22,1,stimuli/stim_20210407_power2amp/equal_lnn_AM1.2Hz_65.m4a,,,
,,,,,36615,2021-05-10_11h29.52.053,judgeSpeechMusic_20210407_logNormShiftAmp,2020.1.2,Linux x86_64,60,,,,,,,,,,,,,,,,,,,,,,,,,,2,6.69371,,0,0,18,18,62,1,stimuli/stim_20210407_power2amp/equal_lnn_AM3Hz_21.m4a,,,
,,,,,36615,2021-05-10_11h29.52.053,judgeSpeechMusic_20210407_logNormShiftAmp,2020.1.2,Linux x86_64,60,,,,,,,,,,,,,,,,,,,,,,,,,,1,7.655455,,0,0,19,19,30,1,stimuli/stim_20210407_power2amp/equal_lnn_AM1.8Hz_54.m4a,,,
,,,,,36615,2021-05-10_11h29.52.053,judgeSpeechMusic_20210407_logNormShiftAmp,2020.1.2,Linux x86_64,60,,,,,,,,,,,,,,,,,,,,,,,,,,2,6.539915,,0,0,20,20,100,1,stimuli/stim_20210407_power2amp/equal_lnn_AM4.2Hz_67.m4a,,,
,,,,,36615,2021-05-10_11h29.52.053,judgeSpeechMusic_20210407_logNormShiftAmp,2020.1.2,Linux x86_64,60,,,,,,,,,,,,,,,,,,,,,,,,,,1,8.49153,,0,0,21,21,8,1,stimuli/stim_20210407_power2amp/equal_lnn_AM0.6Hz_90.m4a,,,
,,,,,36615,2021-05-10_11h29.52.053,judgeSpeechMusic_20210407_logNormShiftAmp,2020.1.2,Linux x86_64,60,,,,,,,,,,,,,,,,,,,,,,,,,,2,9.41167,,0,0,22,22,40,1,stimuli/stim_20210407_power2amp/equal_lnn_AM1.8Hz_16.m4a,,,
,,,,,36615,2021-05-10_11h29.52.053,judgeSpeechMusic_20210407_logNormShiftAmp,2020.1.2,Linux x86_64,60,,,,,,,,,,,,,,,,,,,,,,,,,,2,6.126465,,0,0,23,23,149,1,stimuli/stim_20210407_power2amp/equal_lnn_AM6Hz_52.m4a,,,
,,,,,36615,2021-05-10_11h29.52.053,judgeSpeechMusic_20210407_logNormShiftAmp,2020.1.2,Linux x86_64,60,,,,,,,,,,,,,,,,,,,,,,,,,,1,6.823505,,0,0,24,24,88,1,stimuli/stim_20210407_power2amp/equal_lnn_AM3.6Hz_1.m4a,,,
,,,,,36615,2021-05-10_11h29.52.053,judgeSpeechMusic_20210407_logNormShiftAmp,2020.1.2,Linux x86_64,60,,,,,,,,,,,,,,,,,,,,,,,,,,1,5.875195,,0,0,25,25,12,1,stimuli/stim_20210407_power2amp/equal_lnn_AM0.6Hz_72.m4a,,,
,,,,,36615,2021-05-10_11h29.52.053,judgeSpeechMusic_20210407_logNormShiftAmp,2020.1.2,Linux x86_64,60,,,,,,,,,,,,,,,,,,,,,,,,,,2,6.456825,,0,0,26,26,94,1,stimuli/stim_20210407_power2amp/equal_lnn_AM4.2Hz_64.m4a,,,
,,,,,36615,2021-05-10_11h29.52.053,judgeSpeechMusic_20210407_logNormShiftAmp,2020.1.2,Linux x86_64,60,,,,,,,,,,,,,,,,,,,,,,,,,,2,6.626935,,0,0,27,27,99,1,stimuli/stim_20210407_power2amp/equal_lnn_AM4.2Hz_51.m4a,,,
,,,,,36615,2021-05-10_11h29.52.053,judgeSpeechMusic_20210407_logNormShiftAmp,2020.1.2,Linux x86_64,60,,,,,,,,,,,,,,,,,,,,,,,,,,1,6.717675,,0,0,28,28,49,1,stimuli/stim_20210407_power2amp/equal_lnn_AM2.4Hz_14.m4a,,,
,,,,,36615,2021-05-10_11h29.52.053,judgeSpeechMusic_20210407_logNormShiftAmp,2020.1.2,Linux x86_64,60,,,,,,,,,,,,,,,,,,,,,,,,,,1,5.677755,,0,0,29,29,29,1,stimuli/stim_20210407_power2amp/equal_lnn_AM1.2Hz_55.m4a,,,
,,,,,36615,2021-05-10_11h29.52.053,judgeSpeechMusic_20210407_logNormShiftAmp,2020.1.2,Linux x86_64,60,,,,,,,,,,,,,,,,,,,,,,,,,,1,10.95292,,0,0,30,30,111,1,stimuli/stim_20210407_power2amp/equal_lnn_AM4.8Hz_61.m4a,,,
,,,,,36615,2021-05-10_11h29.52.053,judgeSpeechMusic_20210407_logNormShiftAmp,2020.1.2,Linux x86_64,60,,,,,,,,,,,,,,,,,,,,,,,,,,1,5.67255,,0,0,31,31,20,1,stimuli/stim_20210407_power2amp/equal_lnn_AM1.2Hz_8.m4a,,,
,,,,,36615,2021-05-10_11h29.52.053,judgeSpeechMusic_20210407_logNormShiftAmp,2020.1.2,Linux x86_64,60,,,,,,,,,,,,,,,,,,,,,,,,,,2,5.65363,,0,0,32,32,121,1,stimuli/stim_20210407_power2amp/equal_lnn_AM5.4Hz_76.m4a,,,
,,,,,36615,2021-05-10_11h29.52.053,judgeSpeechMusic_20210407_logNormShiftAmp,2020.1.2,Linux x86_64,60,,,,,,,,,,,,,,,,,,,,,,,,,,1,6.36746,,0,0,33,33,27,1,stimuli/stim_20210407_power2amp/equal_lnn_AM1.2Hz_26.m4a,,,
,,,,,36615,2021-05-10_11h29.52.053,judgeSpeechMusic_20210407_logNormShiftAmp,2020.1.2,Linux x86_64,60,,,,,,,,,,,,,,,,,,,,,,,,,,2,6.59147,,0,0,34,34,81,1,stimuli/stim_20210407_power2amp/equal_lnn_AM3.6Hz_41.m4a,,,
,,,,,36615,2021-05-10_11h29.52.053,judgeSpeechMusic_20210407_logNormShiftAmp,2020.1.2,Linux x86_64,60,,,,,,,,,,,,,,,,,,,,,,,,,,1,5.69494,2,1,0,35,35,0,1,stimuli/stim_20210407_power2amp/equal_lnn_AM0.6Hz_93.m4a,1.1938,,
,,,,,36615,2021-05-10_11h29.52.053,judgeSpeechMusic_20210407_logNormShiftAmp,2020.1.2,Linux x86_64,60,,,,,,,,,,,,,,,,,,,,,,,,,,1,7.51778,,0,0,36,36,55,1,stimuli/stim_20210407_power2amp/equal_lnn_AM2.4Hz_86.m4a,,,
,,,,,36615,2021-05-10_11h29.52.053,judgeSpeechMusic_20210407_logNormShiftAmp,2020.1.2,Linux x86_64,60,,,,,,,,,,,,,,,,,,,,,,,,,,2,5.831915,,0,0,37,37,131,1,stimuli/stim_20210407_power2amp/equal_lnn_AM5.4Hz_72.m4a,,,
,,,,,36615,2021-05-10_11h29.52.053,judgeSpeechMusic_20210407_logNormShiftAmp,2020.1.2,Linux x86_64,60,,,,,,,,,,,,,,,,,,,,,,,,,,2,7.216715,,0,0,38,38,74,1,stimuli/stim_20210407_power2amp/equal_lnn_AM3Hz_36.m4a,,,
,,,,,36615,2021-05-10_11h29.52.053,judgeSpeechMusic_20210407_logNormShiftAmp,2020.1.2,Linux x86_64,60,,,,,,,,,,,,,,,,,,,,,,,,,,2,5.641785,,0,0,39,39,123,1,stimuli/stim_20210407_power2amp/equal_lnn_AM5.4Hz_16.m4a,,,
,,,,,36615,2021-05-10_11h29.52.053,judgeSpeechMusic_20210407_logNormShiftAmp,2020.1.2,Linux x86_64,60,,,,,,,,,,,,,,,,,,,,,,,,,,1,6.740745,,0,0,40,40,50,1,stimuli/stim_20210407_power2amp/equal_lnn_AM2.4Hz_75.m4a,,,
,,,,,36615,2021-05-10_11h29.52.053,judgeSpeechMusic_20210407_logNormShiftAmp,2020.1.2,Linux x86_64,60,,,,,,,,,,,,,,,,,,,,,,,,,,2,7.87001,,0,0,41,41,135,1,stimuli/stim_20210407_power2amp/equal_lnn_AM6Hz_37.m4a,,,
,,,,,36615,2021-05-10_11h29.52.053,judgeSpeechMusic_20210407_logNormShiftAmp,2020.1.2,Linux x86_64,60,,,,,,,,,,,,,,,,,,,,,,,,,,1,5.77194,,0,0,42,42,15,1,stimuli/stim_20210407_power2amp/equal_lnn_AM1.2Hz_32.m4a,,,
,,,,,36615,2021-05-10_11h29.52.053,judgeSpeechMusic_20210407_logNormShiftAmp,2020.1.2,Linux x86_64,60,,,,,,,,,,,,,,,,,,,,,,,,,,1,5.65299,,0,0,43,43,13,1,stimuli/stim_20210407_power2amp/equal_lnn_AM0.6Hz_78.m4a,,,
,,,,,36615,2021-05-10_11h29.52.053,judgeSpeechMusic_20210407_logNormShiftAmp,2020.1.2,Linux x86_64,60,,,,,,,,,,,,,,,,,,,,,,,,,,2,5.795775,,0,0,44,44,138,1,stimuli/stim_20210407_power2amp/equal_lnn_AM6Hz_73.m4a,,,
,,,,,36615,2021-05-10_11h29.52.053,judgeSpeechMusic_20210407_logNormShiftAmp,2020.1.2,Linux x86_64,60,,,,,,,,,,,,,,,,,,,,,,,,,,2,5.78843,,0,0,45,45,80,1,stimuli/stim_20210407_power2amp/equal_lnn_AM3.6Hz_62.m4a,,,
,,,,,36615,2021-05-10_11h29.52.053,judgeSpeechMusic_20210407_logNormShiftAmp,2020.1.2,Linux x86_64,60,,,,,,,,,,,,,,,,,,,,,,,,,,2,5.797245,,0,0,46,46,141,1,stimuli/stim_20210407_power2amp/equal_lnn_AM6Hz_34.m4a,,,
,,,,,36615,2021-05-10_11h29.52.053,judgeSpeechMusic_20210407_logNormShiftAmp,2020.1.2,Linux x86_64,60,,,,,,,,,,,,,,,,,,,,,,,,,,1,7.89066,,0,0,47,47,77,1,stimuli/stim_20210407_power2amp/equal_lnn_AM3.6Hz_54.m4a,,,
,,,,,36615,2021-05-10_11h29.52.053,judgeSpeechMusic_20210407_logNormShiftAmp,2020.1.2,Linux x86_64,60,,,,,,,,,,,,,,,,,,,,,,,,,,1,6.149185,,0,0,48,48,115,1,stimuli/stim_20210407_power2amp/equal_lnn_AM4.8Hz_100.m4a,,,
,,,,,36615,2021-05-10_11h29.52.053,judgeSpeechMusic_20210407_logNormShiftAmp,2020.1.2,Linux x86_64,60,,,,,,,,,,,,,,,,,,,,,,,,,,1,6.857375,,0,0,49,49,63,1,stimuli/stim_20210407_power2amp/equal_lnn_AM3Hz_13.m4a,,,
,,,,,36615,2021-05-10_11h29.52.053,judgeSpeechMusic_20210407_logNormShiftAmp,2020.1.2,Linux x86_64,60,,,,,,,,,,,,,,,,,,,,,,,,,,2,7.00387,,0,0,50,50,38,1,stimuli/stim_20210407_power2amp/equal_lnn_AM1.8Hz_93.m4a,,,
,,,,,36615,2021-05-10_11h29.52.053,judgeSpeechMusic_20210407_logNormShiftAmp,2020.1.2,Linux x86_64,60,,,,,,,,,,,,,,,,,,,,,,,,,,2,5.82671,,0,0,51,51,47,1,stimuli/stim_20210407_power2amp/equal_lnn_AM2.4Hz_70.m4a,,,
,,,,,36615,2021-05-10_11h29.52.053,judgeSpeechMusic_20210407_logNormShiftAmp,2020.1.2,Linux x86_64,60,,,,,,,,,,,,,,,,,,,,,,,,,,2,5.784965,,0,0,52,52,7,1,stimuli/stim_20210407_power2amp/equal_lnn_AM0.6Hz_80.m4a,,,
,,,,,36615,2021-05-10_11h29.52.053,judgeSpeechMusic_20210407_logNormShiftAmp,2020.1.2,Linux x86_64,60,,,,,,,,,,,,,,,,,,,,,,,,,,1,7.63539,,0,0,53,53,126,1,stimuli/stim_20210407_power2amp/equal_lnn_AM5.4Hz_56.m4a,,,
,,,,,36615,2021-05-10_11h29.52.053,judgeSpeechMusic_20210407_logNormShiftAmp,2020.1.2,Linux x86_64,60,,,,,,,,,,,,,,,,,,,,,,,,,,2,6.310885,,0,0,54,54,36,1,stimuli/stim_20210407_power2amp/equal_lnn_AM1.8Hz_25.m4a,,,
,,,,,36615,2021-05-10_11h29.52.053,judgeSpeechMusic_20210407_logNormShiftAmp,2020.1.2,Linux x86_64,60,,,,,,,,,,,,,,,,,,,,,,,,,,1,6.34766,,0,0,55,55,18,1,stimuli/stim_20210407_power2amp/equal_lnn_AM1.2Hz_60.m4a,,,
,,,,,36615,2021-05-10_11h29.52.053,judgeSpeechMusic_20210407_logNormShiftAmp,2020.1.2,Linux x86_64,60,,,,,,,,,,,,,,,,,,,,,,,,,,1,6.510715,,0,0,56,56,52,1,stimuli/stim_20210407_power2amp/equal_lnn_AM2.4Hz_23.m4a,,,
,,,,,36615,2021-05-10_11h29.52.053,judgeSpeechMusic_20210407_logNormShiftAmp,2020.1.2,Linux x86_64,60,,,,,,,,,,,,,,,,,,,,,,,,,,2,6.488805,1,1,0,57,57,69,1,stimuli/stim_20210407_power2amp/equal_lnn_AM3Hz_69.m4a,0.471315,,
,,,,,36615,2021-05-10_11h29.52.053,judgeSpeechMusic_20210407_logNormShiftAmp,2020.1.2,Linux x86_64,60,,,,,,,,,,,,,,,,,,,,,,,,,,2,6.48156,,0,0,58,58,92,1,stimuli/stim_20210407_power2amp/equal_lnn_AM4.2Hz_89.m4a,,,
,,,,,36615,2021-05-10_11h29.52.053,judgeSpeechMusic_20210407_logNormShiftAmp,2020.1.2,Linux x86_64,60,,,,,,,,,,,,,,,,,,,,,,,,,,2,6.110155,,0,0,59,59,3,1,stimuli/stim_20210407_power2amp/equal_lnn_AM0.6Hz_43.m4a,,,
,,,,,36615,2021-05-10_11h29.52.053,judgeSpeechMusic_20210407_logNormShiftAmp,2020.1.2,Linux x86_64,60,,,,,,,,,,,,,,,,,,,,,,,,,,2,7.97199,,0,0,60,60,89,1,stimuli/stim_20210407_power2amp/equal_lnn_AM3.6Hz_52.m4a,,,
,,,,,36615,2021-05-10_11h29.52.053,judgeSpeechMusic_20210407_logNormShiftAmp,2020.1.2,Linux x86_64,60,,,,,,,,,,,,,,,,,,,,,,,,,,2,6.922015,,0,0,61,61,98,1,stimuli/stim_20210407_power2amp/equal_lnn_AM4.2Hz_21.m4a,,,
,,,,,36615,2021-05-10_11h29.52.053,judgeSpeechMusic_20210407_logNormShiftAmp,2020.1.2,Linux x86_64,60,,,,,,,,,,,,,,,,,,,,,,,,,,2,8.861495,,0,0,62,62,120,1,stimuli/stim_20210407_power2amp/equal_lnn_AM5.4Hz_63.m4a,,,
,,,,,36615,2021-05-10_11h29.52.053,judgeSpeechMusic_20210407_logNormShiftAmp,2020.1.2,Linux x86_64,60,,,,,,,,,,,,,,,,,,,,,,,,,,1,7.31524,,0,0,63,63,44,1,stimuli/stim_20210407_power2amp/equal_lnn_AM1.8Hz_50.m4a,,,
,,,,,36615,2021-05-10_11h29.52.053,judgeSpeechMusic_20210407_logNormShiftAmp,2020.1.2,Linux x86_64,60,,,,,,,,,,,,,,,,,,,,,,,,,,2,8.423535,,0,0,64,64,109,1,stimuli/stim_20210407_power2amp/equal_lnn_AM4.8Hz_22.m4a,,,
,,,,,36615,2021-05-10_11h29.52.053,judgeSpeechMusic_20210407_logNormShiftAmp,2020.1.2,Linux x86_64,60,,,,,,,,,,,,,,,,,,,,,,,,,,1,6.90388,,0,0,65,65,86,1,stimuli/stim_20210407_power2amp/equal_lnn_AM3.6Hz_55.m4a,,,
,,,,,36615,2021-05-10_11h29.52.053,judgeSpeechMusic_20210407_logNormShiftAmp,2020.1.2,Linux x86_64,60,,,,,,,,,,,,,,,,,,,,,,,,,,2,6.81969,,0,0,66,66,110,1,stimuli/stim_20210407_power2amp/equal_lnn_AM4.8Hz_84.m4a,,,
,,,,,36615,2021-05-10_11h29.52.053,judgeSpeechMusic_20210407_logNormShiftAmp,2020.1.2,Linux x86_64,60,,,,,,,,,,,,,,,,,,,,,,,,,,2,9.03614,,0,0,67,67,106,1,stimuli/stim_20210407_power2amp/equal_lnn_AM4.8Hz_44.m4a,,,
,,,,,36615,2021-05-10_11h29.52.053,judgeSpeechMusic_20210407_logNormShiftAmp,2020.1.2,Linux x86_64,60,,,,,,,,,,,,,,,,,,,,,,,,,,2,6.61272,,0,0,68,68,134,1,stimuli/stim_20210407_power2amp/equal_lnn_AM5.4Hz_70.m4a,,,
,,,,,36615,2021-05-10_11h29.52.053,judgeSpeechMusic_20210407_logNormShiftAmp,2020.1.2,Linux x86_64,60,,,,,,,,,,,,,,,,,,,,,,,,,,2,5.924385,,0,0,69,69,65,1,stimuli/stim_20210407_power2amp/equal_lnn_AM3Hz_18.m4a,,,
,,,,,36615,2021-05-10_11h29.52.053,judgeSpeechMusic_20210407_logNormShiftAmp,2020.1.2,Linux x86_64,60,,,,,,,,,,,,,,,,,,,,,,,,,,1,7.473615,,0,0,70,70,21,1,stimuli/stim_20210407_power2amp/equal_lnn_AM1.2Hz_13.m4a,,,
,,,,,36615,2021-05-10_11h29.52.053,judgeSpeechMusic_20210407_logNormShiftAmp,2020.1.2,Linux x86_64,60,,,,,,,,,,,,,,,,,,,,,,,,,,2,7.477465,,0,0,71,71,37,1,stimuli/stim_20210407_power2amp/equal_lnn_AM1.8Hz_84.m4a,,,
,,,,,36615,2021-05-10_11h29.52.053,judgeSpeechMusic_20210407_logNormShiftAmp,2020.1.2,Linux x86_64,60,,,,,,,,,,,,,,,,,,,,,,,,,,1,5.9264,,0,0,72,72,5,1,stimuli/stim_20210407_power2amp/equal_lnn_AM0.6Hz_97.m4a,,,
,,,,,36615,2021-05-10_11h29.52.053,judgeSpeechMusic_20210407_logNormShiftAmp,2020.1.2,Linux x86_64,60,,,,,,,,,,,,,,,,,,,,,,,,,,1,5.887645,,0,0,73,73,140,1,stimuli/stim_20210407_power2amp/equal_lnn_AM6Hz_84.m4a,,,
,,,,,36615,2021-05-10_11h29.52.053,judgeSpeechMusic_20210407_logNormShiftAmp,2020.1.2,Linux x86_64,60,,,,,,,,,,,,,,,,,,,,,,,,,,2,7.17441,,0,0,74,74,46,1,stimuli/stim_20210407_power2amp/equal_lnn_AM2.4Hz_42.m4a,,,
,,,,,36615,2021-05-10_11h29.52.053,judgeSpeechMusic_20210407_logNormShiftAmp,2020.1.2,Linux x86_64,60,,,,,,,,,,,,,,,,,,,,,,,,,,1,6.803595,,0,0,75,75,61,1,stimuli/stim_20210407_power2amp/equal_lnn_AM3Hz_97.m4a,,,
,,,,,36615,2021-05-10_11h29.52.053,judgeSpeechMusic_20210407_logNormShiftAmp,2020.1.2,Linux x86_64,60,,,,,,,,,,,,,,,,,,,,,,,,,,1,6.274495,,0,0,76,76,33,1,stimuli/stim_20210407_power2amp/equal_lnn_AM1.8Hz_100.m4a,,,
,,,,,36615,2021-05-10_11h29.52.053,judgeSpeechMusic_20210407_logNormShiftAmp,2020.1.2,Linux x86_64,60,,,,,,,,,,,,,,,,,,,,,,,,,,1,6.386765,,0,0,77,77,53,1,stimuli/stim_20210407_power2amp/equal_lnn_AM2.4Hz_59.m4a,,,
,,,,,36615,2021-05-10_11h29.52.053,judgeSpeechMusic_20210407_logNormShiftAmp,2020.1.2,Linux x86_64,60,,,,,,,,,,,,,,,,,,,,,,,,,,2,6.45735,,0,0,78,78,87,1,stimuli/stim_20210407_power2amp/equal_lnn_AM3.6Hz_82.m4a,,,
,,,,,36615,2021-05-10_11h29.52.053,judgeSpeechMusic_20210407_logNormShiftAmp,2020.1.2,Linux x86_64,60,,,,,,,,,,,,,,,,,,,,,,,,,,2,7.01175,,0,0,79,79,19,1,stimuli/stim_20210407_power2amp/equal_lnn_AM1.2Hz_97.m4a,,,
,,,,,36615,2021-05-10_11h29.52.053,judgeSpeechMusic_20210407_logNormShiftAmp,2020.1.2,Linux x86_64,60,,,,,,,,,,,,,,,,,,,,,,,,,,2,7.80872,3,0,0,80,80,42,1,stimuli/stim_20210407_power2amp/equal_lnn_AM1.8Hz_90.m4a,1.291095,,
,,,,,36615,2021-05-10_11h29.52.053,judgeSpeechMusic_20210407_logNormShiftAmp,2020.1.2,Linux x86_64,60,,,,,,,,,,,,,,,,,,,,,,,,,,2,7.969645,,0,0,81,81,79,1,stimuli/stim_20210407_power2amp/equal_lnn_AM3.6Hz_64.m4a,,,
,,,,,36615,2021-05-10_11h29.52.053,judgeSpeechMusic_20210407_logNormShiftAmp,2020.1.2,Linux x86_64,60,,,,,,,,,,,,,,,,,,,,,,,,,,1,8.655465,,0,0,82,82,147,1,stimuli/stim_20210407_power2amp/equal_lnn_AM6Hz_86.m4a,,,
,,,,,36615,2021-05-10_11h29.52.053,judgeSpeechMusic_20210407_logNormShiftAmp,2020.1.2,Linux x86_64,60,,,,,,,,,,,,,,,,,,,,,,,,,,2,8.99179,,0,0,83,83,102,1,stimuli/stim_20210407_power2amp/equal_lnn_AM4.2Hz_19.m4a,,,
,,,,,36615,2021-05-10_11h29.52.053,judgeSpeechMusic_20210407_logNormShiftAmp,2020.1.2,Linux x86_64,60,,,,,,,,,,,,,,,,,,,,,,,,,,2,5.874205,,0,0,84,84,48,1,stimuli/stim_20210407_power2amp/equal_lnn_AM2.4Hz_89.m4a,,,
,,,,,36615,2021-05-10_11h29.52.053,judgeSpeechMusic_20210407_logNormShiftAmp,2020.1.2,Linux x86_64,60,,,,,,,,,,,,,,,,,,,,,,,,,,2,6.08508,,0,0,85,85,35,1,stimuli/stim_20210407_power2amp/equal_lnn_AM1.8Hz_85.m4a,,,
,,,,,36615,2021-05-10_11h29.52.053,judgeSpeechMusic_20210407_logNormShiftAmp,2020.1.2,Linux x86_64,60,,,,,,,,,,,,,,,,,,,,,,,,,,2,6.78907,,0,0,86,86,75,1,stimuli/stim_20210407_power2amp/equal_lnn_AM3.6Hz_29.m4a,,,
,,,,,36615,2021-05-10_11h29.52.053,judgeSpeechMusic_20210407_logNormShiftAmp,2020.1.2,Linux x86_64,60,,,,,,,,,,,,,,,,,,,,,,,,,,1,7.875525,,0,0,87,87,9,1,stimuli/stim_20210407_power2amp/equal_lnn_AM0.6Hz_86.m4a,,,
,,,,,36615,2021-05-10_11h29.52.053,judgeSpeechMusic_20210407_logNormShiftAmp,2020.1.2,Linux x86_64,60,,,,,,,,,,,,,,,,,,,,,,,,,,2,6.793085,,0,0,88,88,73,1,stimuli/stim_20210407_power2amp/equal_lnn_AM3Hz_61.m4a,,,
,,,,,36615,2021-05-10_11h29.52.053,judgeSpeechMusic_20210407_logNormShiftAmp,2020.1.2,Linux x86_64,60,,,,,,,,,,,,,,,,,,,,,,,,,,2,6.096875,,0,0,89,89,72,1,stimuli/stim_20210407_power2amp/equal_lnn_AM3Hz_77.m4a,,,
,,,,,36615,2021-05-10_11h29.52.053,judgeSpeechMusic_20210407_logNormShiftAmp,2020.1.2,Linux x86_64,60,,,,,,,,,,,,,,,,,,,,,,,,,,2,7.28881,,0,0,90,90,143,1,stimuli/stim_20210407_power2amp/equal_lnn_AM6Hz_5.m4a,,,
,,,,,36615,2021-05-10_11h29.52.053,judgeSpeechMusic_20210407_logNormShiftAmp,2020.1.2,Linux x86_64,60,,,,,,,,,,,,,,,,,,,,,,,,,,2,5.79621,,0,0,91,91,133,1,stimuli/stim_20210407_power2amp/equal_lnn_AM5.4Hz_22.m4a,,,
,,,,,36615,2021-05-10_11h29.52.053,judgeSpeechMusic_20210407_logNormShiftAmp,2020.1.2,Linux x86_64,60,,,,,,,,,,,,,,,,,,,,,,,,,,2,5.717045,,0,0,92,92,54,1,stimuli/stim_20210407_power2amp/equal_lnn_AM2.4Hz_90.m4a,,,
,,,,,36615,2021-05-10_11h29.52.053,judgeSpeechMusic_20210407_logNormShiftAmp,2020.1.2,Linux x86_64,60,,,,,,,,,,,,,,,,,,,,,,,,,,2,5.91269,,0,0,93,93,103,1,stimuli/stim_20210407_power2amp/equal_lnn_AM4.2Hz_81.m4a,,,
,,,,,36615,2021-05-10_11h29.52.053,judgeSpeechMusic_20210407_logNormShiftAmp,2020.1.2,Linux x86_64,60,,,,,,,,,,,,,,,,,,,,,,,,,,1,6.37276,,0,0,94,94,2,1,stimuli/stim_20210407_power2amp/equal_lnn_AM0.6Hz_6.m4a,,,
,,,,,36615,2021-05-10_11h29.52.053,judgeSpeechMusic_20210407_logNormShiftAmp,2020.1.2,Linux x86_64,60,,,,,,,,,,,,,,,,,,,,,,,,,,1,6.024765,,0,0,95,95,51,1,stimuli/stim_20210407_power2amp/equal_lnn_AM2.4Hz_38.m4a,,,
,,,,,36615,2021-05-10_11h29.52.053,judgeSpeechMusic_20210407_logNormShiftAmp,2020.1.2,Linux x86_64,60,,,,,,,,,,,,,,,,,,,,,,,,,,1,5.71552,,0,0,96,96,119,1,stimuli/stim_20210407_power2amp/equal_lnn_AM4.8Hz_13.m4a,,,
,,,,,36615,2021-05-10_11h29.52.053,judgeSpeechMusic_20210407_logNormShiftAmp,2020.1.2,Linux x86_64,60,,,,,,,,,,,,,,,,,,,,,,,,,,2,6.865515,,0,0,97,97,139,1,stimuli/stim_20210407_power2amp/equal_lnn_AM6Hz_71.m4a,,,
,,,,,36615,2021-05-10_11h29.52.053,judgeSpeechMusic_20210407_logNormShiftAmp,2020.1.2,Linux x86_64,60,,,,,,,,,,,,,,,,,,,,,,,,,,1,7.69622,,0,0,98,98,43,1,stimuli/stim_20210407_power2amp/equal_lnn_AM1.8Hz_56.m4a,,,
,,,,,36615,2021-05-10_11h29.52.053,judgeSpeechMusic_20210407_logNormShiftAmp,2020.1.2,Linux x86_64,60,,,,,,,,,,,,,,,,,,,,,,,,,,1,6.292905,,0,0,99,99,17,1,stimuli/stim_20210407_power2amp/equal_lnn_AM1.2Hz_83.m4a,,,
,,,,,36615,2021-05-10_11h29.52.053,judgeSpeechMusic_20210407_logNormShiftAmp,2020.1.2,Linux x86_64,60,,,,,,,,,,,,,,,,,,,,,,,,,,2,5.877285,,0,0,100,100,76,1,stimuli/stim_20210407_power2amp/equal_lnn_AM3.6Hz_45.m4a,,,
,,,,,36615,2021-05-10_11h29.52.053,judgeSpeechMusic_20210407_logNormShiftAmp,2020.1.2,Linux x86_64,60,,,,,,,,,,,,,,,,,,,,,,,,,,1,6.53966,,0,0,101,101,90,1,stimuli/stim_20210407_power2amp/equal_lnn_AM4.2Hz_3.m4a,,,
,,,,,36615,2021-05-10_11h29.52.053,judgeSpeechMusic_20210407_logNormShiftAmp,2020.1.2,Linux x86_64,60,,,,,,,,,,,,,,,,,,,,,,,,,,2,5.850055,,0,0,102,102,107,1,stimuli/stim_20210407_power2amp/equal_lnn_AM4.8Hz_79.m4a,,,
,,,,,36615,2021-05-10_11h29.52.053,judgeSpeechMusic_20210407_logNormShiftAmp,2020.1.2,Linux x86_64,60,,,,,,,,,,,,,,,,,,,,,,,,,,1,7.467535,4,1,0,103,103,124,1,stimuli/stim_20210407_power2amp/equal_lnn_AM5.4Hz_5.m4a,3.33602,,
,,,,,36615,2021-05-10_11h29.52.053,judgeSpeechMusic_20210407_logNormShiftAmp,2020.1.2,Linux x86_64,60,,,,,,,,,,,,,,,,,,,,,,,,,,2,8.14365,,0,0,104,104,71,1,stimuli/stim_20210407_power2amp/equal_lnn_AM3Hz_94.m4a,,,
,,,,,36615,2021-05-10_11h29.52.053,judgeSpeechMusic_20210407_logNormShiftAmp,2020.1.2,Linux x86_64,60,,,,,,,,,,,,,,,,,,,,,,,,,,1,7.054975,,0,0,105,105,11,1,stimuli/stim_20210407_power2amp/equal_lnn_AM0.6Hz_36.m4a,,,
,,,,,36615,2021-05-10_11h29.52.053,judgeSpeechMusic_20210407_logNormShiftAmp,2020.1.2,Linux x86_64,60,,,,,,,,,,,,,,,,,,,,,,,,,,2,7.9889,,0,0,106,106,91,1,stimuli/stim_20210407_power2amp/equal_lnn_AM4.2Hz_62.m4a,,,
,,,,,36615,2021-05-10_11h29.52.053,judgeSpeechMusic_20210407_logNormShiftAmp,2020.1.2,Linux x86_64,60,,,,,,,,,,,,,,,,,,,,,,,,,,2,7.034375,,0,0,107,107,57,1,stimuli/stim_20210407_power2amp/equal_lnn_AM2.4Hz_57.m4a,,,
,,,,,36615,2021-05-10_11h29.52.053,judgeSpeechMusic_20210407_logNormShiftAmp,2020.1.2,Linux x86_64,60,,,,,,,,,,,,,,,,,,,,,,,,,,1,7.75809,,0,0,108,108,66,1,stimuli/stim_20210407_power2amp/equal_lnn_AM3Hz_44.m4a,,,
,,,,,36615,2021-05-10_11h29.52.053,judgeSpeechMusic_20210407_logNormShiftAmp,2020.1.2,Linux x86_64,60,,,,,,,,,,,,,,,,,,,,,,,,,,1,7.46528,,0,0,109,109,64,1,stimuli/stim_20210407_power2amp/equal_lnn_AM3Hz_62.m4a,,,
,,,,,36615,2021-05-10_11h29.52.053,judgeSpeechMusic_20210407_logNormShiftAmp,2020.1.2,Linux x86_64,60,,,,,,,,,,,,,,,,,,,,,,,,,,2,7.447175,,0,0,110,110,144,1,stimuli/stim_20210407_power2amp/equal_lnn_AM6Hz_68.m4a,,,
,,,,,36615,2021-05-10_11h29.52.053,judgeSpeechMusic_20210407_logNormShiftAmp,2020.1.2,Linux x86_64,60,,,,,,,,,,,,,,,,,,,,,,,,,,1,7.023485,,0,0,111,111,60,1,stimuli/stim_20210407_power2amp/equal_lnn_AM3Hz_30.m4a,,,
,,,,,36615,2021-05-10_11h29.52.053,judgeSpeechMusic_20210407_logNormShiftAmp,2020.1.2,Linux x86_64,60,,,,,,,,,,,,,,,,,,,,,,,,,,1,6.224445,,0,0,112,112,59,1,stimuli/stim_20210407_power2amp/equal_lnn_AM2.4Hz_26.m4a,,,
,,,,,36615,2021-05-10_11h29.52.053,judgeSpeechMusic_20210407_logNormShiftAmp,2020.1.2,Linux x86_64,60,,,,,,,,,,,,,,,,,,,,,,,,,,1,6.11525,,0,0,113,113,127,1,stimuli/stim_20210407_power2amp/equal_lnn_AM5.4Hz_3.m4a,,,
,,,,,36615,2021-05-10_11h29.52.053,judgeSpeechMusic_20210407_logNormShiftAmp,2020.1.2,Linux x86_64,60,,,,,,,,,,,,,,,,,,,,,,,,,,1,5.97637,,0,0,114,114,112,1,stimuli/stim_20210407_power2amp/equal_lnn_AM4.8Hz_55.m4a,,,
,,,,,36615,2021-05-10_11h29.52.053,judgeSpeechMusic_20210407_logNormShiftAmp,2020.1.2,Linux x86_64,60,,,,,,,,,,,,,,,,,,,,,,,,,,1,5.84271,,0,0,115,115,1,1,stimuli/stim_20210407_power2amp/equal_lnn_AM0.6Hz_20.m4a,,,
,,,,,36615,2021-05-10_11h29.52.053,judgeSpeechMusic_20210407_logNormShiftAmp,2020.1.2,Linux x86_64,60,,,,,,,,,,,,,,,,,,,,,,,,,,1,7.169765,,0,0,116,116,136,1,stimuli/stim_20210407_power2amp/equal_lnn_AM6Hz_48.m4a,,,
,,,,,36615,2021-05-10_11h29.52.053,judgeSpeechMusic_20210407_logNormShiftAmp,2020.1.2,Linux x86_64,60,,,,,,,,,,,,,,,,,,,,,,,,,,1,6.75832,,0,0,117,117,32,1,stimuli/stim_20210407_power2amp/equal_lnn_AM1.8Hz_47.m4a,,,
,,,,,36615,2021-05-10_11h29.52.053,judgeSpeechMusic_20210407_logNormShiftAmp,2020.1.2,Linux x86_64,60,,,,,,,,,,,,,,,,,,,,,,,,,,1,6.332825,,0,0,118,118,6,1,stimuli/stim_20210407_power2amp/equal_lnn_AM0.6Hz_4.m4a,,,
,,,,,36615,2021-05-10_11h29.52.053,judgeSpeechMusic_20210407_logNormShiftAmp,2020.1.2,Linux x86_64,60,,,,,,,,,,,,,,,,,,,,,,,,,,1,5.84712,,0,0,119,119,56,1,stimuli/stim_20210407_power2amp/equal_lnn_AM2.4Hz_63.m4a,,,
,,,,,36615,2021-05-10_11h29.52.053,judgeSpeechMusic_20210407_logNormShiftAmp,2020.1.2,Linux x86_64,60,,,,,,,,,,,,,,,,,,,,,,,,,,2,7.73479,,0,0,120,120,114,1,stimuli/stim_20210407_power2amp/equal_lnn_AM4.8Hz_71.m4a,,,
,,,,,36615,2021-05-10_11h29.52.053,judgeSpeechMusic_20210407_logNormShiftAmp,2020.1.2,Linux x86_64,60,,,,,,,,,,,,,,,,,,,,,,,,,,2,5.73082,,0,0,121,121,34,1,stimuli/stim_20210407_power2amp/equal_lnn_AM1.8Hz_78.m4a,,,
,,,,,36615,2021-05-10_11h29.52.053,judgeSpeechMusic_20210407_logNormShiftAmp,2020.1.2,Linux x86_64,60,,,,,,,,,,,,,,,,,,,,,,,,,,2,6.206285,,0,0,122,122,26,1,stimuli/stim_20210407_power2amp/equal_lnn_AM1.2Hz_34.m4a,,,
,,,,,36615,2021-05-10_11h29.52.053,judgeSpeechMusic_20210407_logNormShiftAmp,2020.1.2,Linux x86_64,60,,,,,,,,,,,,,,,,,,,,,,,,,,2,7.168795,,0,0,123,123,68,1,stimuli/stim_20210407_power2amp/equal_lnn_AM3Hz_59.m4a,,,
,,,,,36615,2021-05-10_11h29.52.053,judgeSpeechMusic_20210407_logNormShiftAmp,2020.1.2,Linux x86_64,60,,,,,,,,,,,,,,,,,,,,,,,,,,1,7.4876,,0,0,124,124,101,1,stimuli/stim_20210407_power2amp/equal_lnn_AM4.2Hz_59.m4a,,,
,,,,,36615,2021-05-10_11h29.52.053,judgeSpeechMusic_20210407_logNormShiftAmp,2020.1.2,Linux x86_64,60,,,,,,,,,,,,,,,,,,,,,,,,,,2,7.22226,,0,0,125,125,82,1,stimuli/stim_20210407_power2amp/equal_lnn_AM3.6Hz_17.m4a,,,
,,,,,36615,2021-05-10_11h29.52.053,judgeSpeechMusic_20210407_logNormShiftAmp,2020.1.2,Linux x86_64,60,,,,,,,,,,,,,,,,,,,,,,,,,,2,7.126035,2,1,0,126,126,130,1,stimuli/stim_20210407_power2amp/equal_lnn_AM5.4Hz_92.m4a,2.246995,,
,,,,,36615,2021-05-10_11h29.52.053,judgeSpeechMusic_20210407_logNormShiftAmp,2020.1.2,Linux x86_64,60,,,,,,,,,,,,,,,,,,,,,,,,,,2,6.71796,,0,0,127,127,132,1,stimuli/stim_20210407_power2amp/equal_lnn_AM5.4Hz_87.m4a,,,
,,,,,36615,2021-05-10_11h29.52.053,judgeSpeechMusic_20210407_logNormShiftAmp,2020.1.2,Linux x86_64,60,,,,,,,,,,,,,,,,,,,,,,,,,,1,6.134695,,0,0,128,128,24,1,stimuli/stim_20210407_power2amp/equal_lnn_AM1.2Hz_68.m4a,,,
,,,,,36615,2021-05-10_11h29.52.053,judgeSpeechMusic_20210407_logNormShiftAmp,2020.1.2,Linux x86_64,60,,,,,,,,,,,,,,,,,,,,,,,,,,1,7.02803,,0,0,129,129,128,1,stimuli/stim_20210407_power2amp/equal_lnn_AM5.4Hz_88.m4a,,,
,,,,,36615,2021-05-10_11h29.52.053,judgeSpeechMusic_20210407_logNormShiftAmp,2020.1.2,Linux x86_64,60,,,,,,,,,,,,,,,,,,,,,,,,,,1,6.59983,,0,0,130,130,142,1,stimuli/stim_20210407_power2amp/equal_lnn_AM6Hz_4.m4a,,,
,,,,,36615,2021-05-10_11h29.52.053,judgeSpeechMusic_20210407_logNormShiftAmp,2020.1.2,Linux x86_64,60,,,,,,,,,,,,,,,,,,,,,,,,,,1,7.892085,,0,0,131,131,108,1,stimuli/stim_20210407_power2amp/equal_lnn_AM4.8Hz_37.m4a,,,
,,,,,36615,2021-05-10_11h29.52.053,judgeSpeechMusic_20210407_logNormShiftAmp,2020.1.2,Linux x86_64,60,,,,,,,,,,,,,,,,,,,,,,,,,,1,5.622285,,0,0,132,132,28,1,stimuli/stim_20210407_power2amp/equal_lnn_AM1.2Hz_48.m4a,,,
,,,,,36615,2021-05-10_11h29.52.053,judgeSpeechMusic_20210407_logNormShiftAmp,2020.1.2,Linux x86_64,60,,,,,,,,,,,,,,,,,,,,,,,,,,1,5.78617,,0,0,133,133,39,1,stimuli/stim_20210407_power2amp/equal_lnn_AM1.8Hz_12.m4a,,,
,,,,,36615,2021-05-10_11h29.52.053,judgeSpeechMusic_20210407_logNormShiftAmp,2020.1.2,Linux x86_64,60,,,,,,,,,,,,,,,,,,,,,,,,,,1,5.69174,,0,0,134,134,113,1,stimuli/stim_20210407_power2amp/equal_lnn_AM4.8Hz_34.m4a,,,
,,,,,36615,2021-05-10_11h29.52.053,judgeSpeechMusic_20210407_logNormShiftAmp,2020.1.2,Linux x86_64,60,,,,,,,,,,,,,,,,,,,,,,,,,,1,5.575915,,0,0,135,135,146,1,stimuli/stim_20210407_power2amp/equal_lnn_AM6Hz_66.m4a,,,
,,,,,36615,2021-05-10_11h29.52.053,judgeSpeechMusic_20210407_logNormShiftAmp,2020.1.2,Linux x86_64,60,,,,,,,,,,,,,,,,,,,,,,,,,,1,5.95282,,0,0,136,136,83,1,stimuli/stim_20210407_power2amp/equal_lnn_AM3.6Hz_95.m4a,,,
,,,,,36615,2021-05-10_11h29.52.053,judgeSpeechMusic_20210407_logNormShiftAmp,2020.1.2,Linux x86_64,60,,,,,,,,,,,,,,,,,,,,,,,,,,1,5.630075,,0,0,137,137,137,1,stimuli/stim_20210407_power2amp/equal_lnn_AM6Hz_26.m4a,,,
,,,,,36615,2021-05-10_11h29.52.053,judgeSpeechMusic_20210407_logNormShiftAmp,2020.1.2,Linux x86_64,60,,,,,,,,,,,,,,,,,,,,,,,,,,1,5.71529,,0,0,138,138,84,1,stimuli/stim_20210407_power2amp/equal_lnn_AM3.6Hz_69.m4a,,,
,,,,,36615,2021-05-10_11h29.52.053,judgeSpeechMusic_20210407_logNormShiftAmp,2020.1.2,Linux x86_64,60,,,,,,,,,,,,,,,,,,,,,,,,,,2,9.253415,,0,0,139,139,96,1,stimuli/stim_20210407_power2amp/equal_lnn_AM4.2Hz_37.m4a,,,
,,,,,36615,2021-05-10_11h29.52.053,judgeSpeechMusic_20210407_logNormShiftAmp,2020.1.2,Linux x86_64,60,,,,,,,,,,,,,,,,,,,,,,,,,,2,7.969975,,0,0,140,140,104,1,stimuli/stim_20210407_power2amp/equal_lnn_AM4.2Hz_65.m4a,,,
,,,,,36615,2021-05-10_11h29.52.053,judgeSpeechMusic_20210407_logNormShiftAmp,2020.1.2,Linux x86_64,60,,,,,,,,,,,,,,,,,,,,,,,,,,1,6.144865,,0,0,141,141,4,1,stimuli/stim_20210407_power2amp/equal_lnn_AM0.6Hz_26.m4a,,,
,,,,,36615,2021-05-10_11h29.52.053,judgeSpeechMusic_20210407_logNormShiftAmp,2020.1.2,Linux x86_64,60,,,,,,,,,,,,,,,,,,,,,,,,,,2,6.383005,,0,0,142,142,67,1,stimuli/stim_20210407_power2amp/equal_lnn_AM3Hz_74.m4a,,,
,,,,,36615,2021-05-10_11h29.52.053,judgeSpeechMusic_20210407_logNormShiftAmp,2020.1.2,Linux x86_64,60,,,,,,,,,,,,,,,,,,,,,,,,,,2,5.625525,,0,0,143,143,23,1,stimuli/stim_20210407_power2amp/equal_lnn_AM1.2Hz_53.m4a,,,
,,,,,36615,2021-05-10_11h29.52.053,judgeSpeechMusic_20210407_logNormShiftAmp,2020.1.2,Linux x86_64,60,,,,,,,,,,,,,,,,,,,,,,,,,,2,5.768015,,0,0,144,144,41,1,stimuli/stim_20210407_power2amp/equal_lnn_AM1.8Hz_74.m4a,,,
,,,,,36615,2021-05-10_11h29.52.053,judgeSpeechMusic_20210407_logNormShiftAmp,2020.1.2,Linux x86_64,60,,,,,,,,,,,,,,,,,,,,,,,,,,1,5.87533,,0,0,145,145,25,1,stimuli/stim_20210407_power2amp/equal_lnn_AM1.2Hz_92.m4a,,,
,,,,,36615,2021-05-10_11h29.52.053,judgeSpeechMusic_20210407_logNormShiftAmp,2020.1.2,Linux x86_64,60,,,,,,,,,,,,,,,,,,,,,,,,,,2,5.687835,,0,0,146,146,95,1,stimuli/stim_20210407_power2amp/equal_lnn_AM4.2Hz_88.m4a,,,
,,,,,36615,2021-05-10_11h29.52.053,judgeSpeechMusic_20210407_logNormShiftAmp,2020.1.2,Linux x86_64,60,,,,,,,,,,,,,,,,,,,,,,,,,,1,5.71155,,0,0,147,147,93,1,stimuli/stim_20210407_power2amp/equal_lnn_AM4.2Hz_32.m4a,,,
,,,,,36615,2021-05-10_11h29.52.053,judgeSpeechMusic_20210407_logNormShiftAmp,2020.1.2,Linux x86_64,60,,,,,,,,,,,,,,,,,,,,,,,,,,2,5.67845,,0,0,148,148,125,1,stimuli/stim_20210407_power2amp/equal_lnn_AM5.4Hz_14.m4a,,,
,,,,,36615,2021-05-10_11h29.52.053,judgeSpeechMusic_20210407_logNormShiftAmp,2020.1.2,Linux x86_64,60,,,,,,,,,,,,,,,,,,,,,,,,,,1,6.436235,2,1,0,149,149,10,1,stimuli/stim_20210407_power2amp/equal_lnn_AM0.6Hz_92.m4a,3.15856,,
,,,,,36615,2021-05-10_11h29.52.053,judgeSpeechMusic_20210407_logNormShiftAmp,2020.1.2,Linux x86_64,60,,,,,,,,,,,,,,,,,,,,,,,,,,2,7.36726,,0,1,0,150,66,1,stimuli/stim_20210407_power2amp/equal_lnn_AM3Hz_44.m4a,,,
,,,,,36615,2021-05-10_11h29.52.053,judgeSpeechMusic_20210407_logNormShiftAmp,2020.1.2,Linux x86_64,60,,,,,,,,,,,,,,,,,,,,,,,,,,1,5.829775,,0,1,1,151,102,1,stimuli/stim_20210407_power2amp/equal_lnn_AM4.2Hz_19.m4a,,,
,,,,,36615,2021-05-10_11h29.52.053,judgeSpeechMusic_20210407_logNormShiftAmp,2020.1.2,Linux x86_64,60,,,,,,,,,,,,,,,,,,,,,,,,,,1,6.760475,,0,1,2,152,68,1,stimuli/stim_20210407_power2amp/equal_lnn_AM3Hz_59.m4a,,,
,,,,,36615,2021-05-10_11h29.52.053,judgeSpeechMusic_20210407_logNormShiftAmp,2020.1.2,Linux x86_64,60,,,,,,,,,,,,,,,,,,,,,,,,,,2,7.77097,,0,1,3,153,47,1,stimuli/stim_20210407_power2amp/equal_lnn_AM2.4Hz_70.m4a,,,
,,,,,36615,2021-05-10_11h29.52.053,judgeSpeechMusic_20210407_logNormShiftAmp,2020.1.2,Linux x86_64,60,,,,,,,,,,,,,,,,,,,,,,,,,,2,5.89128,,0,1,4,154,49,1,stimuli/stim_20210407_power2amp/equal_lnn_AM2.4Hz_14.m4a,,,
,,,,,36615,2021-05-10_11h29.52.053,judgeSpeechMusic_20210407_logNormShiftAmp,2020.1.2,Linux x86_64,60,,,,,,,,,,,,,,,,,,,,,,,,,,1,5.85897,,0,1,5,155,14,1,stimuli/stim_20210407_power2amp/equal_lnn_AM0.6Hz_21.m4a,,,
,,,,,36615,2021-05-10_11h29.52.053,judgeSpeechMusic_20210407_logNormShiftAmp,2020.1.2,Linux x86_64,60,,,,,,,,,,,,,,,,,,,,,,,,,,2,9.429685,,0,1,6,156,110,1,stimuli/stim_20210407_power2amp/equal_lnn_AM4.8Hz_84.m4a,,,
,,,,,36615,2021-05-10_11h29.52.053,judgeSpeechMusic_20210407_logNormShiftAmp,2020.1.2,Linux x86_64,60,,,,,,,,,,,,,,,,,,,,,,,,,,2,6.65946,,0,1,7,157,72,1,stimuli/stim_20210407_power2amp/equal_lnn_AM3Hz_77.m4a,,,
,,,,,36615,2021-05-10_11h29.52.053,judgeSpeechMusic_20210407_logNormShiftAmp,2020.1.2,Linux x86_64,60,,,,,,,,,,,,,,,,,,,,,,,,,,2,7.313695,,0,1,8,158,54,1,stimuli/stim_20210407_power2amp/equal_lnn_AM2.4Hz_90.m4a,,,
,,,,,36615,2021-05-10_11h29.52.053,judgeSpeechMusic_20210407_logNormShiftAmp,2020.1.2,Linux x86_64,60,,,,,,,,,,,,,,,,,,,,,,,,,,2,6.26536,,0,1,9,159,35,1,stimuli/stim_20210407_power2amp/equal_lnn_AM1.8Hz_85.m4a,,,
,,,,,36615,2021-05-10_11h29.52.053,judgeSpeechMusic_20210407_logNormShiftAmp,2020.1.2,Linux x86_64,60,,,,,,,,,,,,,,,,,,,,,,,,,,1,6.437415,,0,1,10,160,56,1,stimuli/stim_20210407_power2amp/equal_lnn_AM2.4Hz_63.m4a,,,
,,,,,36615,2021-05-10_11h29.52.053,judgeSpeechMusic_20210407_logNormShiftAmp,2020.1.2,Linux x86_64,60,,,,,,,,,,,,,,,,,,,,,,,,,,1,5.93247,,0,1,11,161,61,1,stimuli/stim_20210407_power2amp/equal_lnn_AM3Hz_97.m4a,,,
,,,,,36615,2021-05-10_11h29.52.053,judgeSpeechMusic_20210407_logNormShiftAmp,2020.1.2,Linux x86_64,60,,,,,,,,,,,,,,,,,,,,,,,,,,1,6.32974,,0,1,12,162,129,1,stimuli/stim_20210407_power2amp/equal_lnn_AM5.4Hz_79.m4a,,,
,,,,,36615,2021-05-10_11h29.52.053,judgeSpeechMusic_20210407_logNormShiftAmp,2020.1.2,Linux x86_64,60,,,,,,,,,,,,,,,,,,,,,,,,,,1,6.75413,,0,1,13,163,101,1,stimuli/stim_20210407_power2amp/equal_lnn_AM4.2Hz_59.m4a,,,
,,,,,36615,2021-05-10_11h29.52.053,judgeSpeechMusic_20210407_logNormShiftAmp,2020.1.2,Linux x86_64,60,,,,,,,,,,,,,,,,,,,,,,,,,,1,5.66344,,0,1,14,164,76,1,stimuli/stim_20210407_power2amp/equal_lnn_AM3.6Hz_45.m4a,,,
,,,,,36615,2021-05-10_11h29.52.053,judgeSpeechMusic_20210407_logNormShiftAmp,2020.1.2,Linux x86_64,60,,,,,,,,,,,,,,,,,,,,,,,,,,2,6.539285,,0,1,15,165,5,1,stimuli/stim_20210407_power2amp/equal_lnn_AM0.6Hz_97.m4a,,,
,,,,,36615,2021-05-10_11h29.52.053,judgeSpeechMusic_20210407_logNormShiftAmp,2020.1.2,Linux x86_64,60,,,,,,,,,,,,,,,,,,,,,,,,,,1,6.61485,,0,1,16,166,6,1,stimuli/stim_20210407_power2amp/equal_lnn_AM0.6Hz_4.m4a,,,
,,,,,36615,2021-05-10_11h29.52.053,judgeSpeechMusic_20210407_logNormShiftAmp,2020.1.2,Linux x86_64,60,,,,,,,,,,,,,,,,,,,,,,,,,,1,6.990435,,0,1,17,167,87,1,stimuli/stim_20210407_power2amp/equal_lnn_AM3.6Hz_82.m4a,,,
,,,,,36615,2021-05-10_11h29.52.053,judgeSpeechMusic_20210407_logNormShiftAmp,2020.1.2,Linux x86_64,60,,,,,,,,,,,,,,,,,,,,,,,,,,1,5.66103,,0,1,18,168,139,1,stimuli/stim_20210407_power2amp/equal_lnn_AM6Hz_71.m4a,,,
,,,,,36615,2021-05-10_11h29.52.053,judgeSpeechMusic_20210407_logNormShiftAmp,2020.1.2,Linux x86_64,60,,,,,,,,,,,,,,,,,,,,,,,,,,1,5.72924,,0,1,19,169,40,1,stimuli/stim_20210407_power2amp/equal_lnn_AM1.8Hz_16.m4a,,,
,,,,,36615,2021-05-10_11h29.52.053,judgeSpeechMusic_20210407_logNormShiftAmp,2020.1.2,Linux x86_64,60,,,,,,,,,,,,,,,,,,,,,,,,,,1,6.75263,,0,1,20,170,98,1,stimuli/stim_20210407_power2amp/equal_lnn_AM4.2Hz_21.m4a,,,
,,,,,36615,2021-05-10_11h29.52.053,judgeSpeechMusic_20210407_logNormShiftAmp,2020.1.2,Linux x86_64,60,,,,,,,,,,,,,,,,,,,,,,,,,,1,13.87604,,0,1,21,171,36,1,stimuli/stim_20210407_power2amp/equal_lnn_AM1.8Hz_25.m4a,,,
,,,,,36615,2021-05-10_11h29.52.053,judgeSpeechMusic_20210407_logNormShiftAmp,2020.1.2,Linux x86_64,60,,,,,,,,,,,,,,,,,,,,,,,,,,1,9.309815,,0,1,22,172,86,1,stimuli/stim_20210407_power2amp/equal_lnn_AM3.6Hz_55.m4a,,,
,,,,,36615,2021-05-10_11h29.52.053,judgeSpeechMusic_20210407_logNormShiftAmp,2020.1.2,Linux x86_64,60,,,,,,,,,,,,,,,,,,,,,,,,,,2,8.302245,,0,1,23,173,94,1,stimuli/stim_20210407_power2amp/equal_lnn_AM4.2Hz_64.m4a,,,
,,,,,36615,2021-05-10_11h29.52.053,judgeSpeechMusic_20210407_logNormShiftAmp,2020.1.2,Linux x86_64,60,,,,,,,,,,,,,,,,,,,,,,,,,,1,8.813085,1,1,1,24,174,20,1,stimuli/stim_20210407_power2amp/equal_lnn_AM1.2Hz_8.m4a,0.96716,,
,,,,,36615,2021-05-10_11h29.52.053,judgeSpeechMusic_20210407_logNormShiftAmp,2020.1.2,Linux x86_64,60,,,,,,,,,,,,,,,,,,,,,,,,,,1,7.68368,,0,1,25,175,23,1,stimuli/stim_20210407_power2amp/equal_lnn_AM1.2Hz_53.m4a,,,
,,,,,36615,2021-05-10_11h29.52.053,judgeSpeechMusic_20210407_logNormShiftAmp,2020.1.2,Linux x86_64,60,,,,,,,,,,,,,,,,,,,,,,,,,,1,8.512,,0,1,26,176,59,1,stimuli/stim_20210407_power2amp/equal_lnn_AM2.4Hz_26.m4a,,,
,,,,,36615,2021-05-10_11h29.52.053,judgeSpeechMusic_20210407_logNormShiftAmp,2020.1.2,Linux x86_64,60,,,,,,,,,,,,,,,,,,,,,,,,,,1,6.68452,,0,1,27,177,90,1,stimuli/stim_20210407_power2amp/equal_lnn_AM4.2Hz_3.m4a,,,
,,,,,36615,2021-05-10_11h29.52.053,judgeSpeechMusic_20210407_logNormShiftAmp,2020.1.2,Linux x86_64,60,,,,,,,,,,,,,,,,,,,,,,,,,,2,10.023505,,0,1,28,178,96,1,stimuli/stim_20210407_power2amp/equal_lnn_AM4.2Hz_37.m4a,,,
,,,,,36615,2021-05-10_11h29.52.053,judgeSpeechMusic_20210407_logNormShiftAmp,2020.1.2,Linux x86_64,60,,,,,,,,,,,,,,,,,,,,,,,,,,2,9.04623,,0,1,29,179,18,1,stimuli/stim_20210407_power2amp/equal_lnn_AM1.2Hz_60.m4a,,,
,,,,,36615,2021-05-10_11h29.52.053,judgeSpeechMusic_20210407_logNormShiftAmp,2020.1.2,Linux x86_64,60,,,,,,,,,,,,,,,,,,,,,,,,,,2,7.310205,,0,1,30,180,120,1,stimuli/stim_20210407_power2amp/equal_lnn_AM5.4Hz_63.m4a,,,
,,,,,36615,2021-05-10_11h29.52.053,judgeSpeechMusic_20210407_logNormShiftAmp,2020.1.2,Linux x86_64,60,,,,,,,,,,,,,,,,,,,,,,,,,,2,7.36216,,0,1,31,181,26,1,stimuli/stim_20210407_power2amp/equal_lnn_AM1.2Hz_34.m4a,,,
,,,,,36615,2021-05-10_11h29.52.053,judgeSpeechMusic_20210407_logNormShiftAmp,2020.1.2,Linux x86_64,60,,,,,,,,,,,,,,,,,,,,,,,,,,1,7.361925,,0,1,32,182,2,1,stimuli/stim_20210407_power2amp/equal_lnn_AM0.6Hz_6.m4a,,,
,,,,,36615,2021-05-10_11h29.52.053,judgeSpeechMusic_20210407_logNormShiftAmp,2020.1.2,Linux x86_64,60,,,,,,,,,,,,,,,,,,,,,,,,,,1,6.70629,,0,1,33,183,10,1,stimuli/stim_20210407_power2amp/equal_lnn_AM0.6Hz_92.m4a,,,
,,,,,36615,2021-05-10_11h29.52.053,judgeSpeechMusic_20210407_logNormShiftAmp,2020.1.2,Linux x86_64,60,,,,,,,,,,,,,,,,,,,,,,,,,,1,5.996675,,0,1,34,184,11,1,stimuli/stim_20210407_power2amp/equal_lnn_AM0.6Hz_36.m4a,,,
,,,,,36615,2021-05-10_11h29.52.053,judgeSpeechMusic_20210407_logNormShiftAmp,2020.1.2,Linux x86_64,60,,,,,,,,,,,,,,,,,,,,,,,,,,1,5.64587,,0,1,35,185,37,1,stimuli/stim_20210407_power2amp/equal_lnn_AM1.8Hz_84.m4a,,,
,,,,,36615,2021-05-10_11h29.52.053,judgeSpeechMusic_20210407_logNormShiftAmp,2020.1.2,Linux x86_64,60,,,,,,,,,,,,,,,,,,,,,,,,,,2,6.09755,,0,1,36,186,144,1,stimuli/stim_20210407_power2amp/equal_lnn_AM6Hz_68.m4a,,,
,,,,,36615,2021-05-10_11h29.52.053,judgeSpeechMusic_20210407_logNormShiftAmp,2020.1.2,Linux x86_64,60,,,,,,,,,,,,,,,,,,,,,,,,,,2,5.591635,,0,1,37,187,51,1,stimuli/stim_20210407_power2amp/equal_lnn_AM2.4Hz_38.m4a,,,
,,,,,36615,2021-05-10_11h29.52.053,judgeSpeechMusic_20210407_logNormShiftAmp,2020.1.2,Linux x86_64,60,,,,,,,,,,,,,,,,,,,,,,,,,,1,6.48931,,0,1,38,188,111,1,stimuli/stim_20210407_power2amp/equal_lnn_AM4.8Hz_61.m4a,,,
,,,,,36615,2021-05-10_11h29.52.053,judgeSpeechMusic_20210407_logNormShiftAmp,2020.1.2,Linux x86_64,60,,,,,,,,,,,,,,,,,,,,,,,,,,2,6.58713,,0,1,39,189,93,1,stimuli/stim_20210407_power2amp/equal_lnn_AM4.2Hz_32.m4a,,,
,,,,,36615,2021-05-10_11h29.52.053,judgeSpeechMusic_20210407_logNormShiftAmp,2020.1.2,Linux x86_64,60,,,,,,,,,,,,,,,,,,,,,,,,,,2,8.131555,,0,1,40,190,78,1,stimuli/stim_20210407_power2amp/equal_lnn_AM3.6Hz_28.m4a,,,
,,,,,36615,2021-05-10_11h29.52.053,judgeSpeechMusic_20210407_logNormShiftAmp,2020.1.2,Linux x86_64,60,,,,,,,,,,,,,,,,,,,,,,,,,,1,6.833435,,0,1,41,191,39,1,stimuli/stim_20210407_power2amp/equal_lnn_AM1.8Hz_12.m4a,,,
,,,,,36615,2021-05-10_11h29.52.053,judgeSpeechMusic_20210407_logNormShiftAmp,2020.1.2,Linux x86_64,60,,,,,,,,,,,,,,,,,,,,,,,,,,1,5.837745,,0,1,42,192,38,1,stimuli/stim_20210407_power2amp/equal_lnn_AM1.8Hz_93.m4a,,,
,,,,,36615,2021-05-10_11h29.52.053,judgeSpeechMusic_20210407_logNormShiftAmp,2020.1.2,Linux x86_64,60,,,,,,,,,,,,,,,,,,,,,,,,,,1,5.804375,,0,1,43,193,118,1,stimuli/stim_20210407_power2amp/equal_lnn_AM4.8Hz_27.m4a,,,
,,,,,36615,2021-05-10_11h29.52.053,judgeSpeechMusic_20210407_logNormShiftAmp,2020.1.2,Linux x86_64,60,,,,,,,,,,,,,,,,,,,,,,,,,,1,5.78519,3,0,1,44,194,75,1,stimuli/stim_20210407_power2amp/equal_lnn_AM3.6Hz_29.m4a,4.528365,,
,,,,,36615,2021-05-10_11h29.52.053,judgeSpeechMusic_20210407_logNormShiftAmp,2020.1.2,Linux x86_64,60,,,,,,,,,,,,,,,,,,,,,,,,,,2,7.21539,,0,1,45,195,17,1,stimuli/stim_20210407_power2amp/equal_lnn_AM1.2Hz_83.m4a,,,
,,,,,36615,2021-05-10_11h29.52.053,judgeSpeechMusic_20210407_logNormShiftAmp,2020.1.2,Linux x86_64,60,,,,,,,,,,,,,,,,,,,,,,,,,,2,6.61133,,0,1,46,196,53,1,stimuli/stim_20210407_power2amp/equal_lnn_AM2.4Hz_59.m4a,,,
,,,,,36615,2021-05-10_11h29.52.053,judgeSpeechMusic_20210407_logNormShiftAmp,2020.1.2,Linux x86_64,60,,,,,,,,,,,,,,,,,,,,,,,,,,1,6.119565,,0,1,47,197,4,1,stimuli/stim_20210407_power2amp/equal_lnn_AM0.6Hz_26.m4a,,,
,,,,,36615,2021-05-10_11h29.52.053,judgeSpeechMusic_20210407_logNormShiftAmp,2020.1.2,Linux x86_64,60,,,,,,,,,,,,,,,,,,,,,,,,,,1,6.34871,,0,1,48,198,73,1,stimuli/stim_20210407_power2amp/equal_lnn_AM3Hz_61.m4a,,,
,,,,,36615,2021-05-10_11h29.52.053,judgeSpeechMusic_20210407_logNormShiftAmp,2020.1.2,Linux x86_64,60,,,,,,,,,,,,,,,,,,,,,,,,,,1,7.37863,,0,1,49,199,64,1,stimuli/stim_20210407_power2amp/equal_lnn_AM3Hz_62.m4a,,,
,,,,,36615,2021-05-10_11h29.52.053,judgeSpeechMusic_20210407_logNormShiftAmp,2020.1.2,Linux x86_64,60,,,,,,,,,,,,,,,,,,,,,,,,,,1,8.314705,,0,1,50,200,32,1,stimuli/stim_20210407_power2amp/equal_lnn_AM1.8Hz_47.m4a,,,
,,,,,36615,2021-05-10_11h29.52.053,judgeSpeechMusic_20210407_logNormShiftAmp,2020.1.2,Linux x86_64,60,,,,,,,,,,,,,,,,,,,,,,,,,,1,8.58904,,0,1,51,201,116,1,stimuli/stim_20210407_power2amp/equal_lnn_AM4.8Hz_15.m4a,,,
,,,,,36615,2021-05-10_11h29.52.053,judgeSpeechMusic_20210407_logNormShiftAmp,2020.1.2,Linux x86_64,60,,,,,,,,,,,,,,,,,,,,,,,,,,1,6.180435,,0,1,52,202,63,1,stimuli/stim_20210407_power2amp/equal_lnn_AM3Hz_13.m4a,,,
,,,,,36615,2021-05-10_11h29.52.053,judgeSpeechMusic_20210407_logNormShiftAmp,2020.1.2,Linux x86_64,60,,,,,,,,,,,,,,,,,,,,,,,,,,1,7.111335,,0,1,53,203,135,1,stimuli/stim_20210407_power2amp/equal_lnn_AM6Hz_37.m4a,,,
,,,,,36615,2021-05-10_11h29.52.053,judgeSpeechMusic_20210407_logNormShiftAmp,2020.1.2,Linux x86_64,60,,,,,,,,,,,,,,,,,,,,,,,,,,2,7.04285,,0,1,54,204,146,1,stimuli/stim_20210407_power2amp/equal_lnn_AM6Hz_66.m4a,,,
,,,,,36615,2021-05-10_11h29.52.053,judgeSpeechMusic_20210407_logNormShiftAmp,2020.1.2,Linux x86_64,60,,,,,,,,,,,,,,,,,,,,,,,,,,2,8.711445,,0,1,55,205,136,1,stimuli/stim_20210407_power2amp/equal_lnn_AM6Hz_48.m4a,,,
,,,,,36615,2021-05-10_11h29.52.053,judgeSpeechMusic_20210407_logNormShiftAmp,2020.1.2,Linux x86_64,60,,,,,,,,,,,,,,,,,,,,,,,,,,1,8.657005,,0,1,56,206,112,1,stimuli/stim_20210407_power2amp/equal_lnn_AM4.8Hz_55.m4a,,,
,,,,,36615,2021-05-10_11h29.52.053,judgeSpeechMusic_20210407_logNormShiftAmp,2020.1.2,Linux x86_64,60,,,,,,,,,,,,,,,,,,,,,,,,,,1,5.70178,,0,1,57,207,121,1,stimuli/stim_20210407_power2amp/equal_lnn_AM5.4Hz_76.m4a,,,
,,,,,36615,2021-05-10_11h29.52.053,judgeSpeechMusic_20210407_logNormShiftAmp,2020.1.2,Linux x86_64,60,,,,,,,,,,,,,,,,,,,,,,,,,,1,6.670465,,0,1,58,208,134,1,stimuli/stim_20210407_power2amp/equal_lnn_AM5.4Hz_70.m4a,,,
,,,,,36615,2021-05-10_11h29.52.053,judgeSpeechMusic_20210407_logNormShiftAmp,2020.1.2,Linux x86_64,60,,,,,,,,,,,,,,,,,,,,,,,,,,1,9.565165,,0,1,59,209,123,1,stimuli/stim_20210407_power2amp/equal_lnn_AM5.4Hz_16.m4a,,,
,,,,,36615,2021-05-10_11h29.52.053,judgeSpeechMusic_20210407_logNormShiftAmp,2020.1.2,Linux x86_64,60,,,,,,,,,,,,,,,,,,,,,,,,,,1,8.50743,,0,1,60,210,58,1,stimuli/stim_20210407_power2amp/equal_lnn_AM2.4Hz_81.m4a,,,
,,,,,36615,2021-05-10_11h29.52.053,judgeSpeechMusic_20210407_logNormShiftAmp,2020.1.2,Linux x86_64,60,,,,,,,,,,,,,,,,,,,,,,,,,,1,5.736125,,0,1,61,211,74,1,stimuli/stim_20210407_power2amp/equal_lnn_AM3Hz_36.m4a,,,
,,,,,36615,2021-05-10_11h29.52.053,judgeSpeechMusic_20210407_logNormShiftAmp,2020.1.2,Linux x86_64,60,,,,,,,,,,,,,,,,,,,,,,,,,,1,5.782425,,0,1,62,212,65,1,stimuli/stim_20210407_power2amp/equal_lnn_AM3Hz_18.m4a,,,
,,,,,36615,2021-05-10_11h29.52.053,judgeSpeechMusic_20210407_logNormShiftAmp,2020.1.2,Linux x86_64,60,,,,,,,,,,,,,,,,,,,,,,,,,,1,6.52036,,0,1,63,213,52,1,stimuli/stim_20210407_power2amp/equal_lnn_AM2.4Hz_23.m4a,,,
,,,,,36615,2021-05-10_11h29.52.053,judgeSpeechMusic_20210407_logNormShiftAmp,2020.1.2,Linux x86_64,60,,,,,,,,,,,,,,,,,,,,,,,,,,1,8.607335,,0,1,64,214,30,1,stimuli/stim_20210407_power2amp/equal_lnn_AM1.8Hz_54.m4a,,,
,,,,,36615,2021-05-10_11h29.52.053,judgeSpeechMusic_20210407_logNormShiftAmp,2020.1.2,Linux x86_64,60,,,,,,,,,,,,,,,,,,,,,,,,,,1,6.639595,,0,1,65,215,137,1,stimuli/stim_20210407_power2amp/equal_lnn_AM6Hz_26.m4a,,,
,,,,,36615,2021-05-10_11h29.52.053,judgeSpeechMusic_20210407_logNormShiftAmp,2020.1.2,Linux x86_64,60,,,,,,,,,,,,,,,,,,,,,,,,,,1,7.96921,,0,1,66,216,100,1,stimuli/stim_20210407_power2amp/equal_lnn_AM4.2Hz_67.m4a,,,
,,,,,36615,2021-05-10_11h29.52.053,judgeSpeechMusic_20210407_logNormShiftAmp,2020.1.2,Linux x86_64,60,,,,,,,,,,,,,,,,,,,,,,,,,,1,5.953385,,0,1,67,217,43,1,stimuli/stim_20210407_power2amp/equal_lnn_AM1.8Hz_56.m4a,,,
,,,,,36615,2021-05-10_11h29.52.053,judgeSpeechMusic_20210407_logNormShiftAmp,2020.1.2,Linux x86_64,60,,,,,,,,,,,,,,,,,,,,,,,,,,1,6.477855,,0,1,68,218,131,1,stimuli/stim_20210407_power2amp/equal_lnn_AM5.4Hz_72.m4a,,,
,,,,,36615,2021-05-10_11h29.52.053,judgeSpeechMusic_20210407_logNormShiftAmp,2020.1.2,Linux x86_64,60,,,,,,,,,,,,,,,,,,,,,,,,,,1,7.75489,4,1,1,69,219,130,1,stimuli/stim_20210407_power2amp/equal_lnn_AM5.4Hz_92.m4a,1.322855,,
,,,,,36615,2021-05-10_11h29.52.053,judgeSpeechMusic_20210407_logNormShiftAmp,2020.1.2,Linux x86_64,60,,,,,,,,,,,,,,,,,,,,,,,,,,2,7.43591,,0,1,70,220,114,1,stimuli/stim_20210407_power2amp/equal_lnn_AM4.8Hz_71.m4a,,,
,,,,,36615,2021-05-10_11h29.52.053,judgeSpeechMusic_20210407_logNormShiftAmp,2020.1.2,Linux x86_64,60,,,,,,,,,,,,,,,,,,,,,,,,,,1,7.74638,,0,1,71,221,106,1,stimuli/stim_20210407_power2amp/equal_lnn_AM4.8Hz_44.m4a,,,
,,,,,36615,2021-05-10_11h29.52.053,judgeSpeechMusic_20210407_logNormShiftAmp,2020.1.2,Linux x86_64,60,,,,,,,,,,,,,,,,,,,,,,,,,,1,7.669845,,0,1,72,222,16,1,stimuli/stim_20210407_power2amp/equal_lnn_AM1.2Hz_36.m4a,,,
,,,,,36615,2021-05-10_11h29.52.053,judgeSpeechMusic_20210407_logNormShiftAmp,2020.1.2,Linux x86_64,60,,,,,,,,,,,,,,,,,,,,,,,,,,1,7.00099,,0,1,73,223,29,1,stimuli/stim_20210407_power2amp/equal_lnn_AM1.2Hz_55.m4a,,,
,,,,,36615,2021-05-10_11h29.52.053,judgeSpeechMusic_20210407_logNormShiftAmp,2020.1.2,Linux x86_64,60,,,,,,,,,,,,,,,,,,,,,,,,,,2,7.69389,,0,1,74,224,97,1,stimuli/stim_20210407_power2amp/equal_lnn_AM4.2Hz_28.m4a,,,
,,,,,36615,2021-05-10_11h29.52.053,judgeSpeechMusic_20210407_logNormShiftAmp,2020.1.2,Linux x86_64,60,,,,,,,,,,,,,,,,,,,,,,,,,,1,7.425,,0,1,75,225,28,1,stimuli/stim_20210407_power2amp/equal_lnn_AM1.2Hz_48.m4a,,,
,,,,,36615,2021-05-10_11h29.52.053,judgeSpeechMusic_20210407_logNormShiftAmp,2020.1.2,Linux x86_64,60,,,,,,,,,,,,,,,,,,,,,,,,,,1,7.68837,,0,1,76,226,104,1,stimuli/stim_20210407_power2amp/equal_lnn_AM4.2Hz_65.m4a,,,
,,,,,36615,2021-05-10_11h29.52.053,judgeSpeechMusic_20210407_logNormShiftAmp,2020.1.2,Linux x86_64,60,,,,,,,,,,,,,,,,,,,,,,,,,,1,8.92026,,0,1,77,227,71,1,stimuli/stim_20210407_power2amp/equal_lnn_AM3Hz_94.m4a,,,
,,,,,36615,2021-05-10_11h29.52.053,judgeSpeechMusic_20210407_logNormShiftAmp,2020.1.2,Linux x86_64,60,,,,,,,,,,,,,,,,,,,,,,,,,,1,7.09195,,0,1,78,228,125,1,stimuli/stim_20210407_power2amp/equal_lnn_AM5.4Hz_14.m4a,,,
,,,,,36615,2021-05-10_11h29.52.053,judgeSpeechMusic_20210407_logNormShiftAmp,2020.1.2,Linux x86_64,60,,,,,,,,,,,,,,,,,,,,,,,,,,1,9.629585,,0,1,79,229,122,1,stimuli/stim_20210407_power2amp/equal_lnn_AM5.4Hz_25.m4a,,,
,,,,,36615,2021-05-10_11h29.52.053,judgeSpeechMusic_20210407_logNormShiftAmp,2020.1.2,Linux x86_64,60,,,,,,,,,,,,,,,,,,,,,,,,,,2,7.183245,,0,1,80,230,127,1,stimuli/stim_20210407_power2amp/equal_lnn_AM5.4Hz_3.m4a,,,
,,,,,36615,2021-05-10_11h29.52.053,judgeSpeechMusic_20210407_logNormShiftAmp,2020.1.2,Linux x86_64,60,,,,,,,,,,,,,,,,,,,,,,,,,,1,8.084395,,0,1,81,231,31,1,stimuli/stim_20210407_power2amp/equal_lnn_AM1.8Hz_18.m4a,,,
,,,,,36615,2021-05-10_11h29.52.053,judgeSpeechMusic_20210407_logNormShiftAmp,2020.1.2,Linux x86_64,60,,,,,,,,,,,,,,,,,,,,,,,,,,1,7.906985,,0,1,82,232,24,1,stimuli/stim_20210407_power2amp/equal_lnn_AM1.2Hz_68.m4a,,,
,,,,,36615,2021-05-10_11h29.52.053,judgeSpeechMusic_20210407_logNormShiftAmp,2020.1.2,Linux x86_64,60,,,,,,,,,,,,,,,,,,,,,,,,,,1,6.87143,,0,1,83,233,8,1,stimuli/stim_20210407_power2amp/equal_lnn_AM0.6Hz_90.m4a,,,
,,,,,36615,2021-05-10_11h29.52.053,judgeSpeechMusic_20210407_logNormShiftAmp,2020.1.2,Linux x86_64,60,,,,,,,,,,,,,,,,,,,,,,,,,,2,10.331505,,0,1,84,234,107,1,stimuli/stim_20210407_power2amp/equal_lnn_AM4.8Hz_79.m4a,,,
,,,,,36615,2021-05-10_11h29.52.053,judgeSpeechMusic_20210407_logNormShiftAmp,2020.1.2,Linux x86_64,60,,,,,,,,,,,,,,,,,,,,,,,,,,1,8.71351,,0,1,85,235,132,1,stimuli/stim_20210407_power2amp/equal_lnn_AM5.4Hz_87.m4a,,,
,,,,,36615,2021-05-10_11h29.52.053,judgeSpeechMusic_20210407_logNormShiftAmp,2020.1.2,Linux x86_64,60,,,,,,,,,,,,,,,,,,,,,,,,,,2,8.2113,,0,1,86,236,62,1,stimuli/stim_20210407_power2amp/equal_lnn_AM3Hz_21.m4a,,,
,,,,,36615,2021-05-10_11h29.52.053,judgeSpeechMusic_20210407_logNormShiftAmp,2020.1.2,Linux x86_64,60,,,,,,,,,,,,,,,,,,,,,,,,,,1,11.55144,,0,1,87,237,45,1,stimuli/stim_20210407_power2amp/equal_lnn_AM2.4Hz_96.m4a,,,
,,,,,36615,2021-05-10_11h29.52.053,judgeSpeechMusic_20210407_logNormShiftAmp,2020.1.2,Linux x86_64,60,,,,,,,,,,,,,,,,,,,,,,,,,,2,8.075495,,0,1,88,238,77,1,stimuli/stim_20210407_power2amp/equal_lnn_AM3.6Hz_54.m4a,,,
,,,,,36615,2021-05-10_11h29.52.053,judgeSpeechMusic_20210407_logNormShiftAmp,2020.1.2,Linux x86_64,60,,,,,,,,,,,,,,,,,,,,,,,,,,1,7.073365,,0,1,89,239,143,1,stimuli/stim_20210407_power2amp/equal_lnn_AM6Hz_5.m4a,,,
,,,,,36615,2021-05-10_11h29.52.053,judgeSpeechMusic_20210407_logNormShiftAmp,2020.1.2,Linux x86_64,60,,,,,,,,,,,,,,,,,,,,,,,,,,1,7.344695,,0,1,90,240,115,1,stimuli/stim_20210407_power2amp/equal_lnn_AM4.8Hz_100.m4a,,,
,,,,,36615,2021-05-10_11h29.52.053,judgeSpeechMusic_20210407_logNormShiftAmp,2020.1.2,Linux x86_64,60,,,,,,,,,,,,,,,,,,,,,,,,,,1,8.008285,3,0,1,91,241,42,1,stimuli/stim_20210407_power2amp/equal_lnn_AM1.8Hz_90.m4a,4.48888,,
,,,,,36615,2021-05-10_11h29.52.053,judgeSpeechMusic_20210407_logNormShiftAmp,2020.1.2,Linux x86_64,60,,,,,,,,,,,,,,,,,,,,,,,,,,2,12.211695,,0,1,92,242,103,1,stimuli/stim_20210407_power2amp/equal_lnn_AM4.2Hz_81.m4a,,,
,,,,,36615,2021-05-10_11h29.52.053,judgeSpeechMusic_20210407_logNormShiftAmp,2020.1.2,Linux x86_64,60,,,,,,,,,,,,,,,,,,,,,,,,,,1,7.35145,,0,1,93,243,25,1,stimuli/stim_20210407_power2amp/equal_lnn_AM1.2Hz_92.m4a,,,
,,,,,36615,2021-05-10_11h29.52.053,judgeSpeechMusic_20210407_logNormShiftAmp,2020.1.2,Linux x86_64,60,,,,,,,,,,,,,,,,,,,,,,,,,,2,8.453695,,0,1,94,244,60,1,stimuli/stim_20210407_power2amp/equal_lnn_AM3Hz_30.m4a,,,
,,,,,36615,2021-05-10_11h29.52.053,judgeSpeechMusic_20210407_logNormShiftAmp,2020.1.2,Linux x86_64,60,,,,,,,,,,,,,,,,,,,,,,,,,,1,10.70638,,0,1,95,245,142,1,stimuli/stim_20210407_power2amp/equal_lnn_AM6Hz_4.m4a,,,
,,,,,36615,2021-05-10_11h29.52.053,judgeSpeechMusic_20210407_logNormShiftAmp,2020.1.2,Linux x86_64,60,,,,,,,,,,,,,,,,,,,,,,,,,,2,7.15439,,0,1,96,246,91,1,stimuli/stim_20210407_power2amp/equal_lnn_AM4.2Hz_62.m4a,,,
,,,,,36615,2021-05-10_11h29.52.053,judgeSpeechMusic_20210407_logNormShiftAmp,2020.1.2,Linux x86_64,60,,,,,,,,,,,,,,,,,,,,,,,,,,1,10.211535,,0,1,97,247,82,1,stimuli/stim_20210407_power2amp/equal_lnn_AM3.6Hz_17.m4a,,,
,,,,,36615,2021-05-10_11h29.52.053,judgeSpeechMusic_20210407_logNormShiftAmp,2020.1.2,Linux x86_64,60,,,,,,,,,,,,,,,,,,,,,,,,,,2,12.437445,,0,1,98,248,88,1,stimuli/stim_20210407_power2amp/equal_lnn_AM3.6Hz_1.m4a,,,
,,,,,36615,2021-05-10_11h29.52.053,judgeSpeechMusic_20210407_logNormShiftAmp,2020.1.2,Linux x86_64,60,,,,,,,,,,,,,,,,,,,,,,,,,,2,6.81212,,0,1,99,249,55,1,stimuli/stim_20210407_power2amp/equal_lnn_AM2.4Hz_86.m4a,,,
,,,,,36615,2021-05-10_11h29.52.053,judgeSpeechMusic_20210407_logNormShiftAmp,2020.1.2,Linux x86_64,60,,,,,,,,,,,,,,,,,,,,,,,,,,1,7.34121,,0,1,100,250,138,1,stimuli/stim_20210407_power2amp/equal_lnn_AM6Hz_73.m4a,,,
,,,,,36615,2021-05-10_11h29.52.053,judgeSpeechMusic_20210407_logNormShiftAmp,2020.1.2,Linux x86_64,60,,,,,,,,,,,,,,,,,,,,,,,,,,1,5.91127,,0,1,101,251,12,1,stimuli/stim_20210407_power2amp/equal_lnn_AM0.6Hz_72.m4a,,,
,,,,,36615,2021-05-10_11h29.52.053,judgeSpeechMusic_20210407_logNormShiftAmp,2020.1.2,Linux x86_64,60,,,,,,,,,,,,,,,,,,,,,,,,,,1,7.831515,,0,1,102,252,83,1,stimuli/stim_20210407_power2amp/equal_lnn_AM3.6Hz_95.m4a,,,
,,,,,36615,2021-05-10_11h29.52.053,judgeSpeechMusic_20210407_logNormShiftAmp,2020.1.2,Linux x86_64,60,,,,,,,,,,,,,,,,,,,,,,,,,,1,8.462075,,0,1,103,253,99,1,stimuli/stim_20210407_power2amp/equal_lnn_AM4.2Hz_51.m4a,,,
,,,,,36615,2021-05-10_11h29.52.053,judgeSpeechMusic_20210407_logNormShiftAmp,2020.1.2,Linux x86_64,60,,,,,,,,,,,,,,,,,,,,,,,,,,1,13.64813,,0,1,104,254,69,1,stimuli/stim_20210407_power2amp/equal_lnn_AM3Hz_69.m4a,,,
,,,,,36615,2021-05-10_11h29.52.053,judgeSpeechMusic_20210407_logNormShiftAmp,2020.1.2,Linux x86_64,60,,,,,,,,,,,,,,,,,,,,,,,,,,1,19.292925,,0,1,105,255,126,1,stimuli/stim_20210407_power2amp/equal_lnn_AM5.4Hz_56.m4a,,,
,,,,,36615,2021-05-10_11h29.52.053,judgeSpeechMusic_20210407_logNormShiftAmp,2020.1.2,Linux x86_64,60,,,,,,,,,,,,,,,,,,,,,,,,,,1,10.026985,,0,1,106,256,57,1,stimuli/stim_20210407_power2amp/equal_lnn_AM2.4Hz_57.m4a,,,
,,,,,36615,2021-05-10_11h29.52.053,judgeSpeechMusic_20210407_logNormShiftAmp,2020.1.2,Linux x86_64,60,,,,,,,,,,,,,,,,,,,,,,,,,,2,7.929275,,0,1,107,257,80,1,stimuli/stim_20210407_power2amp/equal_lnn_AM3.6Hz_62.m4a,,,
,,,,,36615,2021-05-10_11h29.52.053,judgeSpeechMusic_20210407_logNormShiftAmp,2020.1.2,Linux x86_64,60,,,,,,,,,,,,,,,,,,,,,,,,,,1,7.64977,,0,1,108,258,147,1,stimuli/stim_20210407_power2amp/equal_lnn_AM6Hz_86.m4a,,,
,,,,,36615,2021-05-10_11h29.52.053,judgeSpeechMusic_20210407_logNormShiftAmp,2020.1.2,Linux x86_64,60,,,,,,,,,,,,,,,,,,,,,,,,,,2,12.82096,,0,1,109,259,22,1,stimuli/stim_20210407_power2amp/equal_lnn_AM1.2Hz_65.m4a,,,
,,,,,36615,2021-05-10_11h29.52.053,judgeSpeechMusic_20210407_logNormShiftAmp,2020.1.2,Linux x86_64,60,,,,,,,,,,,,,,,,,,,,,,,,,,1,7.348995,,0,1,110,260,124,1,stimuli/stim_20210407_power2amp/equal_lnn_AM5.4Hz_5.m4a,,,
,,,,,36615,2021-05-10_11h29.52.053,judgeSpeechMusic_20210407_logNormShiftAmp,2020.1.2,Linux x86_64,60,,,,,,,,,,,,,,,,,,,,,,,,,,1,7.22549,,0,1,111,261,109,1,stimuli/stim_20210407_power2amp/equal_lnn_AM4.8Hz_22.m4a,,,
,,,,,36615,2021-05-10_11h29.52.053,judgeSpeechMusic_20210407_logNormShiftAmp,2020.1.2,Linux x86_64,60,,,,,,,,,,,,,,,,,,,,,,,,,,1,6.13842,3,0,1,112,262,84,1,stimuli/stim_20210407_power2amp/equal_lnn_AM3.6Hz_69.m4a,4.911575,,
,,,,,36615,2021-05-10_11h29.52.053,judgeSpeechMusic_20210407_logNormShiftAmp,2020.1.2,Linux x86_64,60,,,,,,,,,,,,,,,,,,,,,,,,,,1,7.95806,,0,1,113,263,9,1,stimuli/stim_20210407_power2amp/equal_lnn_AM0.6Hz_86.m4a,,,
,,,,,36615,2021-05-10_11h29.52.053,judgeSpeechMusic_20210407_logNormShiftAmp,2020.1.2,Linux x86_64,60,,,,,,,,,,,,,,,,,,,,,,,,,,2,9.45849,,0,1,114,264,140,1,stimuli/stim_20210407_power2amp/equal_lnn_AM6Hz_84.m4a,,,
,,,,,36615,2021-05-10_11h29.52.053,judgeSpeechMusic_20210407_logNormShiftAmp,2020.1.2,Linux x86_64,60,,,,,,,,,,,,,,,,,,,,,,,,,,1,10.322555,,0,1,115,265,133,1,stimuli/stim_20210407_power2amp/equal_lnn_AM5.4Hz_22.m4a,,,
,,,,,36615,2021-05-10_11h29.52.053,judgeSpeechMusic_20210407_logNormShiftAmp,2020.1.2,Linux x86_64,60,,,,,,,,,,,,,,,,,,,,,,,,,,1,9.492425,,0,1,116,266,145,1,stimuli/stim_20210407_power2amp/equal_lnn_AM6Hz_33.m4a,,,
,,,,,36615,2021-05-10_11h29.52.053,judgeSpeechMusic_20210407_logNormShiftAmp,2020.1.2,Linux x86_64,60,,,,,,,,,,,,,,,,,,,,,,,,,,1,7.48934,,0,1,117,267,7,1,stimuli/stim_20210407_power2amp/equal_lnn_AM0.6Hz_80.m4a,,,
,,,,,36615,2021-05-10_11h29.52.053,judgeSpeechMusic_20210407_logNormShiftAmp,2020.1.2,Linux x86_64,60,,,,,,,,,,,,,,,,,,,,,,,,,,1,6.65558,,0,1,118,268,141,1,stimuli/stim_20210407_power2amp/equal_lnn_AM6Hz_34.m4a,,,
,,,,,36615,2021-05-10_11h29.52.053,judgeSpeechMusic_20210407_logNormShiftAmp,2020.1.2,Linux x86_64,60,,,,,,,,,,,,,,,,,,,,,,,,,,1,6.12397,,0,1,119,269,46,1,stimuli/stim_20210407_power2amp/equal_lnn_AM2.4Hz_42.m4a,,,
,,,,,36615,2021-05-10_11h29.52.053,judgeSpeechMusic_20210407_logNormShiftAmp,2020.1.2,Linux x86_64,60,,,,,,,,,,,,,,,,,,,,,,,,,,1,12.531985,,0,1,120,270,105,1,stimuli/stim_20210407_power2amp/equal_lnn_AM4.8Hz_75.m4a,,,
,,,,,36615,2021-05-10_11h29.52.053,judgeSpeechMusic_20210407_logNormShiftAmp,2020.1.2,Linux x86_64,60,,,,,,,,,,,,,,,,,,,,,,,,,,1,8.68444,,0,1,121,271,19,1,stimuli/stim_20210407_power2amp/equal_lnn_AM1.2Hz_97.m4a,,,
,,,,,36615,2021-05-10_11h29.52.053,judgeSpeechMusic_20210407_logNormShiftAmp,2020.1.2,Linux x86_64,60,,,,,,,,,,,,,,,,,,,,,,,,,,1,6.31894,,0,1,122,272,119,1,stimuli/stim_20210407_power2amp/equal_lnn_AM4.8Hz_13.m4a,,,
,,,,,36615,2021-05-10_11h29.52.053,judgeSpeechMusic_20210407_logNormShiftAmp,2020.1.2,Linux x86_64,60,,,,,,,,,,,,,,,,,,,,,,,,,,1,5.71077,,0,1,123,273,0,1,stimuli/stim_20210407_power2amp/equal_lnn_AM0.6Hz_93.m4a,,,
,,,,,36615,2021-05-10_11h29.52.053,judgeSpeechMusic_20210407_logNormShiftAmp,2020.1.2,Linux x86_64,60,,,,,,,,,,,,,,,,,,,,,,,,,,2,5.754685,,0,1,124,274,67,1,stimuli/stim_20210407_power2amp/equal_lnn_AM3Hz_74.m4a,,,
,,,,,36615,2021-05-10_11h29.52.053,judgeSpeechMusic_20210407_logNormShiftAmp,2020.1.2,Linux x86_64,60,,,,,,,,,,,,,,,,,,,,,,,,,,2,7.300305,,0,1,125,275,79,1,stimuli/stim_20210407_power2amp/equal_lnn_AM3.6Hz_64.m4a,,,
,,,,,36615,2021-05-10_11h29.52.053,judgeSpeechMusic_20210407_logNormShiftAmp,2020.1.2,Linux x86_64,60,,,,,,,,,,,,,,,,,,,,,,,,,,2,5.9836,,0,1,126,276,81,1,stimuli/stim_20210407_power2amp/equal_lnn_AM3.6Hz_41.m4a,,,
,,,,,36615,2021-05-10_11h29.52.053,judgeSpeechMusic_20210407_logNormShiftAmp,2020.1.2,Linux x86_64,60,,,,,,,,,,,,,,,,,,,,,,,,,,1,6.154185,,0,1,127,277,27,1,stimuli/stim_20210407_power2amp/equal_lnn_AM1.2Hz_26.m4a,,,
,,,,,36615,2021-05-10_11h29.52.053,judgeSpeechMusic_20210407_logNormShiftAmp,2020.1.2,Linux x86_64,60,,,,,,,,,,,,,,,,,,,,,,,,,,1,5.96357,,0,1,128,278,89,1,stimuli/stim_20210407_power2amp/equal_lnn_AM3.6Hz_52.m4a,,,
,,,,,36615,2021-05-10_11h29.52.053,judgeSpeechMusic_20210407_logNormShiftAmp,2020.1.2,Linux x86_64,60,,,,,,,,,,,,,,,,,,,,,,,,,,1,6.014465,,0,1,129,279,92,1,stimuli/stim_20210407_power2amp/equal_lnn_AM4.2Hz_89.m4a,,,
,,,,,36615,2021-05-10_11h29.52.053,judgeSpeechMusic_20210407_logNormShiftAmp,2020.1.2,Linux x86_64,60,,,,,,,,,,,,,,,,,,,,,,,,,,1,6.83416,,0,1,130,280,50,1,stimuli/stim_20210407_power2amp/equal_lnn_AM2.4Hz_75.m4a,,,
,,,,,36615,2021-05-10_11h29.52.053,judgeSpeechMusic_20210407_logNormShiftAmp,2020.1.2,Linux x86_64,60,,,,,,,,,,,,,,,,,,,,,,,,,,1,5.326585,,0,1,131,281,95,1,stimuli/stim_20210407_power2amp/equal_lnn_AM4.2Hz_88.m4a,,,
,,,,,36615,2021-05-10_11h29.52.053,judgeSpeechMusic_20210407_logNormShiftAmp,2020.1.2,Linux x86_64,60,,,,,,,,,,,,,,,,,,,,,,,,,,1,5.38867,,0,1,132,282,21,1,stimuli/stim_20210407_power2amp/equal_lnn_AM1.2Hz_13.m4a,,,
,,,,,36615,2021-05-10_11h29.52.053,judgeSpeechMusic_20210407_logNormShiftAmp,2020.1.2,Linux x86_64,60,,,,,,,,,,,,,,,,,,,,,,,,,,1,5.676915,,0,1,133,283,33,1,stimuli/stim_20210407_power2amp/equal_lnn_AM1.8Hz_100.m4a,,,
,,,,,36615,2021-05-10_11h29.52.053,judgeSpeechMusic_20210407_logNormShiftAmp,2020.1.2,Linux x86_64,60,,,,,,,,,,,,,,,,,,,,,,,,,,2,5.970885,,0,1,134,284,48,1,stimuli/stim_20210407_power2amp/equal_lnn_AM2.4Hz_89.m4a,,,
,,,,,36615,2021-05-10_11h29.52.053,judgeSpeechMusic_20210407_logNormShiftAmp,2020.1.2,Linux x86_64,60,,,,,,,,,,,,,,,,,,,,,,,,,,2,6.06089,2,1,1,135,285,117,1,stimuli/stim_20210407_power2amp/equal_lnn_AM4.8Hz_87.m4a,1.520965,,
,,,,,36615,2021-05-10_11h29.52.053,judgeSpeechMusic_20210407_logNormShiftAmp,2020.1.2,Linux x86_64,60,,,,,,,,,,,,,,,,,,,,,,,,,,2,7.467045,,0,1,136,286,15,1,stimuli/stim_20210407_power2amp/equal_lnn_AM1.2Hz_32.m4a,,,
,,,,,36615,2021-05-10_11h29.52.053,judgeSpeechMusic_20210407_logNormShiftAmp,2020.1.2,Linux x86_64,60,,,,,,,,,,,,,,,,,,,,,,,,,,2,5.65913,,0,1,137,287,3,1,stimuli/stim_20210407_power2amp/equal_lnn_AM0.6Hz_43.m4a,,,
,,,,,36615,2021-05-10_11h29.52.053,judgeSpeechMusic_20210407_logNormShiftAmp,2020.1.2,Linux x86_64,60,,,,,,,,,,,,,,,,,,,,,,,,,,1,6.35751,,0,1,138,288,148,1,stimuli/stim_20210407_power2amp/equal_lnn_AM6Hz_1.m4a,,,
,,,,,36615,2021-05-10_11h29.52.053,judgeSpeechMusic_20210407_logNormShiftAmp,2020.1.2,Linux x86_64,60,,,,,,,,,,,,,,,,,,,,,,,,,,1,6.08611,,0,1,139,289,85,1,stimuli/stim_20210407_power2amp/equal_lnn_AM3.6Hz_5.m4a,,,
,,,,,36615,2021-05-10_11h29.52.053,judgeSpeechMusic_20210407_logNormShiftAmp,2020.1.2,Linux x86_64,60,,,,,,,,,,,,,,,,,,,,,,,,,,2,8.704005,,0,1,140,290,34,1,stimuli/stim_20210407_power2amp/equal_lnn_AM1.8Hz_78.m4a,,,
,,,,,36615,2021-05-10_11h29.52.053,judgeSpeechMusic_20210407_logNormShiftAmp,2020.1.2,Linux x86_64,60,,,,,,,,,,,,,,,,,,,,,,,,,,2,6.046795,,0,1,141,291,128,1,stimuli/stim_20210407_power2amp/equal_lnn_AM5.4Hz_88.m4a,,,
,,,,,36615,2021-05-10_11h29.52.053,judgeSpeechMusic_20210407_logNormShiftAmp,2020.1.2,Linux x86_64,60,,,,,,,,,,,,,,,,,,,,,,,,,,1,6.33008,,0,1,142,292,41,1,stimuli/stim_20210407_power2amp/equal_lnn_AM1.8Hz_74.m4a,,,
,,,,,36615,2021-05-10_11h29.52.053,judgeSpeechMusic_20210407_logNormShiftAmp,2020.1.2,Linux x86_64,60,,,,,,,,,,,,,,,,,,,,,,,,,,1,5.99946,,0,1,143,293,1,1,stimuli/stim_20210407_power2amp/equal_lnn_AM0.6Hz_20.m4a,,,
,,,,,36615,2021-05-10_11h29.52.053,judgeSpeechMusic_20210407_logNormShiftAmp,2020.1.2,Linux x86_64,60,,,,,,,,,,,,,,,,,,,,,,,,,,1,5.912725,,0,1,144,294,108,1,stimuli/stim_20210407_power2amp/equal_lnn_AM4.8Hz_37.m4a,,,
,,,,,36615,2021-05-10_11h29.52.053,judgeSpeechMusic_20210407_logNormShiftAmp,2020.1.2,Linux x86_64,60,,,,,,,,,,,,,,,,,,,,,,,,,,1,6.188015,,0,1,145,295,13,1,stimuli/stim_20210407_power2amp/equal_lnn_AM0.6Hz_78.m4a,,,
,,,,,36615,2021-05-10_11h29.52.053,judgeSpeechMusic_20210407_logNormShiftAmp,2020.1.2,Linux x86_64,60,,,,,,,,,,,,,,,,,,,,,,,,,,1,5.733675,,0,1,146,296,113,1,stimuli/stim_20210407_power2amp/equal_lnn_AM4.8Hz_34.m4a,,,
,,,,,36615,2021-05-10_11h29.52.053,judgeSpeechMusic_20210407_logNormShiftAmp,2020.1.2,Linux x86_64,60,,,,,,,,,,,,,,,,,,,,,,,,,,1,5.317005,,0,1,147,297,149,1,stimuli/stim_20210407_power2amp/equal_lnn_AM6Hz_52.m4a,,,
,,,,,36615,2021-05-10_11h29.52.053,judgeSpeechMusic_20210407_logNormShiftAmp,2020.1.2,Linux x86_64,60,,,,,,,,,,,,,,,,,,,,,,,,,,1,5.71349,,0,1,148,298,44,1,stimuli/stim_20210407_power2amp/equal_lnn_AM1.8Hz_50.m4a,,,
,,,,,36615,2021-05-10_11h29.52.053,judgeSpeechMusic_20210407_logNormShiftAmp,2020.1.2,Linux x86_64,60,,,,,,,,,,,,,,,,,,,,,,,,,,1,6.51198,,0,1,149,299,70,1,stimuli/stim_20210407_power2amp/equal_lnn_AM3Hz_27.m4a,,,
,,,,,36615,2021-05-10_11h29.52.053,judgeSpeechMusic_20210407_logNormShiftAmp,2020.1.2,Linux x86_64,60,,,,,,,,,,,,,,,,,,,,,,,,,,,,,,,,,,,,,space,5.182895
