volAdjustRep.thisRepN,volAdjustRep.thisTrialN,volAdjustRep.thisN,volAdjustRep.thisIndex,volAdjustRep.ran,participant,date,expName,psychopyVersion,OS,frameRate,headphoneResponse.keys,headphoneResponse.corr,headphoneResponse.rt,headphoneTrial.thisRepN,headphoneTrial.thisTrialN,headphoneTrial.thisN,headphoneTrial.thisIndex,headphoneTrial.ran,headphone_sound1,headphone_sound2,headphone_sound3,corrAns,trainSlider.response,trainSlider.rt,beepTrainResponse.keys,beepTrainResponse.corr,trainingTrials.thisRepN,trainingTrials.thisTrialN,trainingTrials.thisN,trainingTrials.thisIndex,trainingTrials.ran,trainAudioFile,beepTrainResponse.rt,readyReal_resp.keys,readyReal_resp.rt,ratingSlider.response,ratingSlider.rt,beepResp.keys,beepResp.corr,expTrials.thisRepN,expTrials.thisTrialN,expTrials.thisN,expTrials.thisIndex,expTrials.ran,audioFile,beepResp.rt,end_resp.keys,end_resp.rt
0,0,0,0,1,37375,2021-04-22_16h16.44.901,judgeSpeechMusic_20210407_logNormShiftAmp,2020.1.2,MacIntel,60,,,,,,,,,,,,,,,,,,,,,,,,,,,,,,,,,,,,,,
1,0,1,0,1,37375,2021-04-22_16h16.44.901,judgeSpeechMusic_20210407_logNormShiftAmp,2020.1.2,MacIntel,60,,,,,,,,,,,,,,,,,,,,,,,,,,,,,,,,,,,,,,
,,,,,37375,2021-04-22_16h16.44.901,judgeSpeechMusic_20210407_logNormShiftAmp,2020.1.2,MacIntel,60,2,1,2.652295,0,0,0,3,1,stimuli/screen_origin.wav,stimuli/screen_quiet.wav,stimuli/screen_antiphase.wav,2,,,,,,,,,,,,,,,,,,,,,,,,,,
,,,,,37375,2021-04-22_16h16.44.901,judgeSpeechMusic_20210407_logNormShiftAmp,2020.1.2,MacIntel,60,1,1,1.193625,0,1,1,4,1,stimuli/screen_quiet.wav,stimuli/screen_antiphase.wav,stimuli/screen_origin.wav,1,,,,,,,,,,,,,,,,,,,,,,,,,,
,,,,,37375,2021-04-22_16h16.44.901,judgeSpeechMusic_20210407_logNormShiftAmp,2020.1.2,MacIntel,60,3,1,0.80908,0,2,2,0,1,stimuli/screen_antiphase.wav,stimuli/screen_origin.wav,stimuli/screen_quiet.wav,3,,,,,,,,,,,,,,,,,,,,,,,,,,
,,,,,37375,2021-04-22_16h16.44.901,judgeSpeechMusic_20210407_logNormShiftAmp,2020.1.2,MacIntel,60,3,0,3.85088,0,3,3,1,1,stimuli/screen_antiphase.wav,stimuli/screen_quiet.wav,stimuli/screen_origin.wav,2,,,,,,,,,,,,,,,,,,,,,,,,,,
,,,,,37375,2021-04-22_16h16.44.901,judgeSpeechMusic_20210407_logNormShiftAmp,2020.1.2,MacIntel,60,3,1,0.385035,0,4,4,2,1,stimuli/screen_origin.wav,stimuli/screen_antiphase.wav,stimuli/screen_quiet.wav,3,,,,,,,,,,,,,,,,,,,,,,,,,,
,,,,,37375,2021-04-22_16h16.44.901,judgeSpeechMusic_20210407_logNormShiftAmp,2020.1.2,MacIntel,60,1,1,1.19008,0,5,5,5,1,stimuli/screen_quiet.wav,stimuli/screen_origin.wav,stimuli/screen_antiphase.wav,1,,,,,,,,,,,,,,,,,,,,,,,,,,
,,,,,37375,2021-04-22_16h16.44.901,judgeSpeechMusic_20210407_logNormShiftAmp,2020.1.2,MacIntel,60,,,,,,,,,,,,,2,12.09825,,0,0,0,0,2,1,stimuli/stim_20210407_power2amp/equal_lnn_AM_training3.9Hz.m4a,,,,,,,,,,,,,,,,
,,,,,37375,2021-04-22_16h16.44.901,judgeSpeechMusic_20210407_logNormShiftAmp,2020.1.2,MacIntel,60,,,,,,,,,,,,,2,7.188585,,0,0,1,1,1,1,stimuli/stim_20210407_power2amp/equal_lnn_AM_training2.7Hz.m4a,,,,,,,,,,,,,,,,
,,,,,37375,2021-04-22_16h16.44.901,judgeSpeechMusic_20210407_logNormShiftAmp,2020.1.2,MacIntel,60,,,,,,,,,,,,,1,6.28641,3,1,0,2,2,0,1,stimuli/stim_20210407_power2amp/equal_lnn_AM_training1.5Hz.m4a,1.30421,,,,,,,,,,,,,,,
,,,,,37375,2021-04-22_16h16.44.901,judgeSpeechMusic_20210407_logNormShiftAmp,2020.1.2,MacIntel,60,,,,,,,,,,,,,1,7.56946,,0,0,3,3,3,1,stimuli/stim_20210407_power2amp/equal_lnn_AM_training5.1Hz.m4a,,,,,,,,,,,,,,,,
,,,,,37375,2021-04-22_16h16.44.901,judgeSpeechMusic_20210407_logNormShiftAmp,2020.1.2,MacIntel,60,,,,,,,,,,,,,,,,,,,,,,,,space,5.96546,2,8.13875,,0,0,0,0,26,1,stimuli/stim_20210407_power2amp/equal_lnn_AM1.2Hz_62.m4a,,,
,,,,,37375,2021-04-22_16h16.44.901,judgeSpeechMusic_20210407_logNormShiftAmp,2020.1.2,MacIntel,60,,,,,,,,,,,,,,,,,,,,,,,,,,2,6.300585,,0,0,1,1,66,1,stimuli/stim_20210407_power2amp/equal_lnn_AM3Hz_43.m4a,,,
,,,,,37375,2021-04-22_16h16.44.901,judgeSpeechMusic_20210407_logNormShiftAmp,2020.1.2,MacIntel,60,,,,,,,,,,,,,,,,,,,,,,,,,,1,6.12496,,0,0,2,2,22,1,stimuli/stim_20210407_power2amp/equal_lnn_AM1.2Hz_28.m4a,,,
,,,,,37375,2021-04-22_16h16.44.901,judgeSpeechMusic_20210407_logNormShiftAmp,2020.1.2,MacIntel,60,,,,,,,,,,,,,,,,,,,,,,,,,,1,7.969,,0,0,3,3,138,1,stimuli/stim_20210407_power2amp/equal_lnn_AM6Hz_90.m4a,,,
,,,,,37375,2021-04-22_16h16.44.901,judgeSpeechMusic_20210407_logNormShiftAmp,2020.1.2,MacIntel,60,,,,,,,,,,,,,,,,,,,,,,,,,,1,5.846125,,0,0,4,4,34,1,stimuli/stim_20210407_power2amp/equal_lnn_AM1.8Hz_41.m4a,,,
,,,,,37375,2021-04-22_16h16.44.901,judgeSpeechMusic_20210407_logNormShiftAmp,2020.1.2,MacIntel,60,,,,,,,,,,,,,,,,,,,,,,,,,,2,6.44354,,0,0,5,5,128,1,stimuli/stim_20210407_power2amp/equal_lnn_AM5.4Hz_99.m4a,,,
,,,,,37375,2021-04-22_16h16.44.901,judgeSpeechMusic_20210407_logNormShiftAmp,2020.1.2,MacIntel,60,,,,,,,,,,,,,,,,,,,,,,,,,,2,8.95891,,0,0,6,6,123,1,stimuli/stim_20210407_power2amp/equal_lnn_AM5.4Hz_45.m4a,,,
,,,,,37375,2021-04-22_16h16.44.901,judgeSpeechMusic_20210407_logNormShiftAmp,2020.1.2,MacIntel,60,,,,,,,,,,,,,,,,,,,,,,,,,,1,5.83629,,0,0,7,7,74,1,stimuli/stim_20210407_power2amp/equal_lnn_AM3Hz_21.m4a,,,
,,,,,37375,2021-04-22_16h16.44.901,judgeSpeechMusic_20210407_logNormShiftAmp,2020.1.2,MacIntel,60,,,,,,,,,,,,,,,,,,,,,,,,,,1,5.65721,,0,0,8,8,73,1,stimuli/stim_20210407_power2amp/equal_lnn_AM3Hz_15.m4a,,,
,,,,,37375,2021-04-22_16h16.44.901,judgeSpeechMusic_20210407_logNormShiftAmp,2020.1.2,MacIntel,60,,,,,,,,,,,,,,,,,,,,,,,,,,1,6.513125,,0,0,9,9,28,1,stimuli/stim_20210407_power2amp/equal_lnn_AM1.2Hz_61.m4a,,,
,,,,,37375,2021-04-22_16h16.44.901,judgeSpeechMusic_20210407_logNormShiftAmp,2020.1.2,MacIntel,60,,,,,,,,,,,,,,,,,,,,,,,,,,2,11.178915,,0,0,10,10,40,1,stimuli/stim_20210407_power2amp/equal_lnn_AM1.8Hz_43.m4a,,,
,,,,,37375,2021-04-22_16h16.44.901,judgeSpeechMusic_20210407_logNormShiftAmp,2020.1.2,MacIntel,60,,,,,,,,,,,,,,,,,,,,,,,,,,2,6.937165,,0,0,11,11,125,1,stimuli/stim_20210407_power2amp/equal_lnn_AM5.4Hz_23.m4a,,,
,,,,,37375,2021-04-22_16h16.44.901,judgeSpeechMusic_20210407_logNormShiftAmp,2020.1.2,MacIntel,60,,,,,,,,,,,,,,,,,,,,,,,,,,2,7.963705,,0,0,12,12,89,1,stimuli/stim_20210407_power2amp/equal_lnn_AM3.6Hz_17.m4a,,,
,,,,,37375,2021-04-22_16h16.44.901,judgeSpeechMusic_20210407_logNormShiftAmp,2020.1.2,MacIntel,60,,,,,,,,,,,,,,,,,,,,,,,,,,1,6.23066,,0,0,13,13,44,1,stimuli/stim_20210407_power2amp/equal_lnn_AM1.8Hz_91.m4a,,,
,,,,,37375,2021-04-22_16h16.44.901,judgeSpeechMusic_20210407_logNormShiftAmp,2020.1.2,MacIntel,60,,,,,,,,,,,,,,,,,,,,,,,,,,2,6.83829,,0,0,14,14,45,1,stimuli/stim_20210407_power2amp/equal_lnn_AM2.4Hz_25.m4a,,,
,,,,,37375,2021-04-22_16h16.44.901,judgeSpeechMusic_20210407_logNormShiftAmp,2020.1.2,MacIntel,60,,,,,,,,,,,,,,,,,,,,,,,,,,1,6.95192,,0,0,15,15,58,1,stimuli/stim_20210407_power2amp/equal_lnn_AM2.4Hz_48.m4a,,,
,,,,,37375,2021-04-22_16h16.44.901,judgeSpeechMusic_20210407_logNormShiftAmp,2020.1.2,MacIntel,60,,,,,,,,,,,,,,,,,,,,,,,,,,1,5.837035,,0,0,16,16,72,1,stimuli/stim_20210407_power2amp/equal_lnn_AM3Hz_24.m4a,,,
,,,,,37375,2021-04-22_16h16.44.901,judgeSpeechMusic_20210407_logNormShiftAmp,2020.1.2,MacIntel,60,,,,,,,,,,,,,,,,,,,,,,,,,,1,16.471045,,0,0,17,17,79,1,stimuli/stim_20210407_power2amp/equal_lnn_AM3.6Hz_86.m4a,,,
,,,,,37375,2021-04-22_16h16.44.901,judgeSpeechMusic_20210407_logNormShiftAmp,2020.1.2,MacIntel,60,,,,,,,,,,,,,,,,,,,,,,,,,,1,6.399835,,0,0,18,18,94,1,stimuli/stim_20210407_power2amp/equal_lnn_AM4.2Hz_28.m4a,,,
,,,,,37375,2021-04-22_16h16.44.901,judgeSpeechMusic_20210407_logNormShiftAmp,2020.1.2,MacIntel,60,,,,,,,,,,,,,,,,,,,,,,,,,,1,6.320165,,0,0,19,19,9,1,stimuli/stim_20210407_power2amp/equal_lnn_AM0.6Hz_26.m4a,,,
,,,,,37375,2021-04-22_16h16.44.901,judgeSpeechMusic_20210407_logNormShiftAmp,2020.1.2,MacIntel,60,,,,,,,,,,,,,,,,,,,,,,,,,,2,7.89142,,0,0,20,20,116,1,stimuli/stim_20210407_power2amp/equal_lnn_AM4.8Hz_19.m4a,,,
,,,,,37375,2021-04-22_16h16.44.901,judgeSpeechMusic_20210407_logNormShiftAmp,2020.1.2,MacIntel,60,,,,,,,,,,,,,,,,,,,,,,,,,,1,5.838545,,0,0,21,21,24,1,stimuli/stim_20210407_power2amp/equal_lnn_AM1.2Hz_43.m4a,,,
,,,,,37375,2021-04-22_16h16.44.901,judgeSpeechMusic_20210407_logNormShiftAmp,2020.1.2,MacIntel,60,,,,,,,,,,,,,,,,,,,,,,,,,,2,7.15896,,0,0,22,22,109,1,stimuli/stim_20210407_power2amp/equal_lnn_AM4.8Hz_2.m4a,,,
,,,,,37375,2021-04-22_16h16.44.901,judgeSpeechMusic_20210407_logNormShiftAmp,2020.1.2,MacIntel,60,,,,,,,,,,,,,,,,,,,,,,,,,,1,5.813295,,0,0,23,23,1,1,stimuli/stim_20210407_power2amp/equal_lnn_AM0.6Hz_10.m4a,,,
,,,,,37375,2021-04-22_16h16.44.901,judgeSpeechMusic_20210407_logNormShiftAmp,2020.1.2,MacIntel,60,,,,,,,,,,,,,,,,,,,,,,,,,,1,5.778835,,0,0,24,24,23,1,stimuli/stim_20210407_power2amp/equal_lnn_AM1.2Hz_86.m4a,,,
,,,,,37375,2021-04-22_16h16.44.901,judgeSpeechMusic_20210407_logNormShiftAmp,2020.1.2,MacIntel,60,,,,,,,,,,,,,,,,,,,,,,,,,,2,5.760375,,0,0,25,25,146,1,stimuli/stim_20210407_power2amp/equal_lnn_AM6Hz_48.m4a,,,
,,,,,37375,2021-04-22_16h16.44.901,judgeSpeechMusic_20210407_logNormShiftAmp,2020.1.2,MacIntel,60,,,,,,,,,,,,,,,,,,,,,,,,,,2,5.554375,,0,0,26,26,139,1,stimuli/stim_20210407_power2amp/equal_lnn_AM6Hz_8.m4a,,,
,,,,,37375,2021-04-22_16h16.44.901,judgeSpeechMusic_20210407_logNormShiftAmp,2020.1.2,MacIntel,60,,,,,,,,,,,,,,,,,,,,,,,,,,2,5.671505,,0,0,27,27,86,1,stimuli/stim_20210407_power2amp/equal_lnn_AM3.6Hz_24.m4a,,,
,,,,,37375,2021-04-22_16h16.44.901,judgeSpeechMusic_20210407_logNormShiftAmp,2020.1.2,MacIntel,60,,,,,,,,,,,,,,,,,,,,,,,,,,1,5.66712,,0,0,28,28,122,1,stimuli/stim_20210407_power2amp/equal_lnn_AM5.4Hz_69.m4a,,,
,,,,,37375,2021-04-22_16h16.44.901,judgeSpeechMusic_20210407_logNormShiftAmp,2020.1.2,MacIntel,60,,,,,,,,,,,,,,,,,,,,,,,,,,1,7.48217,,0,0,29,29,35,1,stimuli/stim_20210407_power2amp/equal_lnn_AM1.8Hz_48.m4a,,,
,,,,,37375,2021-04-22_16h16.44.901,judgeSpeechMusic_20210407_logNormShiftAmp,2020.1.2,MacIntel,60,,,,,,,,,,,,,,,,,,,,,,,,,,1,6.717875,,0,0,30,30,60,1,stimuli/stim_20210407_power2amp/equal_lnn_AM3Hz_27.m4a,,,
,,,,,37375,2021-04-22_16h16.44.901,judgeSpeechMusic_20210407_logNormShiftAmp,2020.1.2,MacIntel,60,,,,,,,,,,,,,,,,,,,,,,,,,,1,5.593665,,0,0,31,31,19,1,stimuli/stim_20210407_power2amp/equal_lnn_AM1.2Hz_97.m4a,,,
,,,,,37375,2021-04-22_16h16.44.901,judgeSpeechMusic_20210407_logNormShiftAmp,2020.1.2,MacIntel,60,,,,,,,,,,,,,,,,,,,,,,,,,,1,6.33713,,0,0,32,32,17,1,stimuli/stim_20210407_power2amp/equal_lnn_AM1.2Hz_79.m4a,,,
,,,,,37375,2021-04-22_16h16.44.901,judgeSpeechMusic_20210407_logNormShiftAmp,2020.1.2,MacIntel,60,,,,,,,,,,,,,,,,,,,,,,,,,,2,9.088375,,0,0,33,33,147,1,stimuli/stim_20210407_power2amp/equal_lnn_AM6Hz_83.m4a,,,
,,,,,37375,2021-04-22_16h16.44.901,judgeSpeechMusic_20210407_logNormShiftAmp,2020.1.2,MacIntel,60,,,,,,,,,,,,,,,,,,,,,,,,,,1,5.98008,,0,0,34,34,96,1,stimuli/stim_20210407_power2amp/equal_lnn_AM4.2Hz_5.m4a,,,
,,,,,37375,2021-04-22_16h16.44.901,judgeSpeechMusic_20210407_logNormShiftAmp,2020.1.2,MacIntel,60,,,,,,,,,,,,,,,,,,,,,,,,,,2,6.886585,,0,0,35,35,36,1,stimuli/stim_20210407_power2amp/equal_lnn_AM1.8Hz_49.m4a,,,
,,,,,37375,2021-04-22_16h16.44.901,judgeSpeechMusic_20210407_logNormShiftAmp,2020.1.2,MacIntel,60,,,,,,,,,,,,,,,,,,,,,,,,,,2,7.222125,2,1,0,36,36,107,1,stimuli/stim_20210407_power2amp/equal_lnn_AM4.8Hz_94.m4a,1.159205,,
,,,,,37375,2021-04-22_16h16.44.901,judgeSpeechMusic_20210407_logNormShiftAmp,2020.1.2,MacIntel,60,,,,,,,,,,,,,,,,,,,,,,,,,,2,7.45567,,0,0,37,37,140,1,stimuli/stim_20210407_power2amp/equal_lnn_AM6Hz_85.m4a,,,
,,,,,37375,2021-04-22_16h16.44.901,judgeSpeechMusic_20210407_logNormShiftAmp,2020.1.2,MacIntel,60,,,,,,,,,,,,,,,,,,,,,,,,,,1,9.37017,,0,0,38,38,2,1,stimuli/stim_20210407_power2amp/equal_lnn_AM0.6Hz_37.m4a,,,
,,,,,37375,2021-04-22_16h16.44.901,judgeSpeechMusic_20210407_logNormShiftAmp,2020.1.2,MacIntel,60,,,,,,,,,,,,,,,,,,,,,,,,,,2,10.930415,,0,0,39,39,62,1,stimuli/stim_20210407_power2amp/equal_lnn_AM3Hz_8.m4a,,,
,,,,,37375,2021-04-22_16h16.44.901,judgeSpeechMusic_20210407_logNormShiftAmp,2020.1.2,MacIntel,60,,,,,,,,,,,,,,,,,,,,,,,,,,2,6.940335,,0,0,40,40,83,1,stimuli/stim_20210407_power2amp/equal_lnn_AM3.6Hz_66.m4a,,,
,,,,,37375,2021-04-22_16h16.44.901,judgeSpeechMusic_20210407_logNormShiftAmp,2020.1.2,MacIntel,60,,,,,,,,,,,,,,,,,,,,,,,,,,2,6.102505,,0,0,41,41,80,1,stimuli/stim_20210407_power2amp/equal_lnn_AM3.6Hz_23.m4a,,,
,,,,,37375,2021-04-22_16h16.44.901,judgeSpeechMusic_20210407_logNormShiftAmp,2020.1.2,MacIntel,60,,,,,,,,,,,,,,,,,,,,,,,,,,1,5.71825,,0,0,42,42,91,1,stimuli/stim_20210407_power2amp/equal_lnn_AM4.2Hz_18.m4a,,,
,,,,,37375,2021-04-22_16h16.44.901,judgeSpeechMusic_20210407_logNormShiftAmp,2020.1.2,MacIntel,60,,,,,,,,,,,,,,,,,,,,,,,,,,1,5.60908,,0,0,43,43,108,1,stimuli/stim_20210407_power2amp/equal_lnn_AM4.8Hz_80.m4a,,,
,,,,,37375,2021-04-22_16h16.44.901,judgeSpeechMusic_20210407_logNormShiftAmp,2020.1.2,MacIntel,60,,,,,,,,,,,,,,,,,,,,,,,,,,1,7.27487,,0,0,44,44,53,1,stimuli/stim_20210407_power2amp/equal_lnn_AM2.4Hz_40.m4a,,,
,,,,,37375,2021-04-22_16h16.44.901,judgeSpeechMusic_20210407_logNormShiftAmp,2020.1.2,MacIntel,60,,,,,,,,,,,,,,,,,,,,,,,,,,1,7.53817,,0,0,45,45,64,1,stimuli/stim_20210407_power2amp/equal_lnn_AM3Hz_70.m4a,,,
,,,,,37375,2021-04-22_16h16.44.901,judgeSpeechMusic_20210407_logNormShiftAmp,2020.1.2,MacIntel,60,,,,,,,,,,,,,,,,,,,,,,,,,,1,6.512165,,0,0,46,46,25,1,stimuli/stim_20210407_power2amp/equal_lnn_AM1.2Hz_11.m4a,,,
,,,,,37375,2021-04-22_16h16.44.901,judgeSpeechMusic_20210407_logNormShiftAmp,2020.1.2,MacIntel,60,,,,,,,,,,,,,,,,,,,,,,,,,,2,6.4955,,0,0,47,47,76,1,stimuli/stim_20210407_power2amp/equal_lnn_AM3.6Hz_59.m4a,,,
,,,,,37375,2021-04-22_16h16.44.901,judgeSpeechMusic_20210407_logNormShiftAmp,2020.1.2,MacIntel,60,,,,,,,,,,,,,,,,,,,,,,,,,,1,7.110335,,0,0,48,48,46,1,stimuli/stim_20210407_power2amp/equal_lnn_AM2.4Hz_3.m4a,,,
,,,,,37375,2021-04-22_16h16.44.901,judgeSpeechMusic_20210407_logNormShiftAmp,2020.1.2,MacIntel,60,,,,,,,,,,,,,,,,,,,,,,,,,,1,6.96871,,0,0,49,49,12,1,stimuli/stim_20210407_power2amp/equal_lnn_AM0.6Hz_48.m4a,,,
,,,,,37375,2021-04-22_16h16.44.901,judgeSpeechMusic_20210407_logNormShiftAmp,2020.1.2,MacIntel,60,,,,,,,,,,,,,,,,,,,,,,,,,,2,5.748665,,0,0,50,50,78,1,stimuli/stim_20210407_power2amp/equal_lnn_AM3.6Hz_54.m4a,,,
,,,,,37375,2021-04-22_16h16.44.901,judgeSpeechMusic_20210407_logNormShiftAmp,2020.1.2,MacIntel,60,,,,,,,,,,,,,,,,,,,,,,,,,,2,5.77121,,0,0,51,51,47,1,stimuli/stim_20210407_power2amp/equal_lnn_AM2.4Hz_6.m4a,,,
,,,,,37375,2021-04-22_16h16.44.901,judgeSpeechMusic_20210407_logNormShiftAmp,2020.1.2,MacIntel,60,,,,,,,,,,,,,,,,,,,,,,,,,,1,5.802995,,0,0,52,52,38,1,stimuli/stim_20210407_power2amp/equal_lnn_AM1.8Hz_59.m4a,,,
,,,,,37375,2021-04-22_16h16.44.901,judgeSpeechMusic_20210407_logNormShiftAmp,2020.1.2,MacIntel,60,,,,,,,,,,,,,,,,,,,,,,,,,,1,5.676215,,0,0,53,53,95,1,stimuli/stim_20210407_power2amp/equal_lnn_AM4.2Hz_97.m4a,,,
,,,,,37375,2021-04-22_16h16.44.901,judgeSpeechMusic_20210407_logNormShiftAmp,2020.1.2,MacIntel,60,,,,,,,,,,,,,,,,,,,,,,,,,,1,5.52088,,0,0,54,54,87,1,stimuli/stim_20210407_power2amp/equal_lnn_AM3.6Hz_91.m4a,,,
,,,,,37375,2021-04-22_16h16.44.901,judgeSpeechMusic_20210407_logNormShiftAmp,2020.1.2,MacIntel,60,,,,,,,,,,,,,,,,,,,,,,,,,,1,5.55075,,0,0,55,55,115,1,stimuli/stim_20210407_power2amp/equal_lnn_AM4.8Hz_16.m4a,,,
,,,,,37375,2021-04-22_16h16.44.901,judgeSpeechMusic_20210407_logNormShiftAmp,2020.1.2,MacIntel,60,,,,,,,,,,,,,,,,,,,,,,,,,,2,6.419625,,0,0,56,56,54,1,stimuli/stim_20210407_power2amp/equal_lnn_AM2.4Hz_77.m4a,,,
,,,,,37375,2021-04-22_16h16.44.901,judgeSpeechMusic_20210407_logNormShiftAmp,2020.1.2,MacIntel,60,,,,,,,,,,,,,,,,,,,,,,,,,,2,6.162545,,0,0,57,57,121,1,stimuli/stim_20210407_power2amp/equal_lnn_AM5.4Hz_15.m4a,,,
,,,,,37375,2021-04-22_16h16.44.901,judgeSpeechMusic_20210407_logNormShiftAmp,2020.1.2,MacIntel,60,,,,,,,,,,,,,,,,,,,,,,,,,,1,6.135955,,0,0,58,58,92,1,stimuli/stim_20210407_power2amp/equal_lnn_AM4.2Hz_94.m4a,,,
,,,,,37375,2021-04-22_16h16.44.901,judgeSpeechMusic_20210407_logNormShiftAmp,2020.1.2,MacIntel,60,,,,,,,,,,,,,,,,,,,,,,,,,,1,5.57025,,0,0,59,59,13,1,stimuli/stim_20210407_power2amp/equal_lnn_AM0.6Hz_8.m4a,,,
,,,,,37375,2021-04-22_16h16.44.901,judgeSpeechMusic_20210407_logNormShiftAmp,2020.1.2,MacIntel,60,,,,,,,,,,,,,,,,,,,,,,,,,,2,6.380665,,0,0,60,60,97,1,stimuli/stim_20210407_power2amp/equal_lnn_AM4.2Hz_57.m4a,,,
,,,,,37375,2021-04-22_16h16.44.901,judgeSpeechMusic_20210407_logNormShiftAmp,2020.1.2,MacIntel,60,,,,,,,,,,,,,,,,,,,,,,,,,,2,5.66908,1,1,0,61,61,101,1,stimuli/stim_20210407_power2amp/equal_lnn_AM4.2Hz_65.m4a,0.44213,,
,,,,,37375,2021-04-22_16h16.44.901,judgeSpeechMusic_20210407_logNormShiftAmp,2020.1.2,MacIntel,60,,,,,,,,,,,,,,,,,,,,,,,,,,1,5.67821,,0,0,62,62,4,1,stimuli/stim_20210407_power2amp/equal_lnn_AM0.6Hz_22.m4a,,,
,,,,,37375,2021-04-22_16h16.44.901,judgeSpeechMusic_20210407_logNormShiftAmp,2020.1.2,MacIntel,60,,,,,,,,,,,,,,,,,,,,,,,,,,1,5.87229,,0,0,63,63,61,1,stimuli/stim_20210407_power2amp/equal_lnn_AM3Hz_99.m4a,,,
,,,,,37375,2021-04-22_16h16.44.901,judgeSpeechMusic_20210407_logNormShiftAmp,2020.1.2,MacIntel,60,,,,,,,,,,,,,,,,,,,,,,,,,,2,6.1695,,0,0,64,64,137,1,stimuli/stim_20210407_power2amp/equal_lnn_AM6Hz_9.m4a,,,
,,,,,37375,2021-04-22_16h16.44.901,judgeSpeechMusic_20210407_logNormShiftAmp,2020.1.2,MacIntel,60,,,,,,,,,,,,,,,,,,,,,,,,,,2,5.78617,,0,0,65,65,112,1,stimuli/stim_20210407_power2amp/equal_lnn_AM4.8Hz_34.m4a,,,
,,,,,37375,2021-04-22_16h16.44.901,judgeSpeechMusic_20210407_logNormShiftAmp,2020.1.2,MacIntel,60,,,,,,,,,,,,,,,,,,,,,,,,,,1,6.26183,,0,0,66,66,37,1,stimuli/stim_20210407_power2amp/equal_lnn_AM1.8Hz_69.m4a,,,
,,,,,37375,2021-04-22_16h16.44.901,judgeSpeechMusic_20210407_logNormShiftAmp,2020.1.2,MacIntel,60,,,,,,,,,,,,,,,,,,,,,,,,,,2,6.13096,,0,0,67,67,130,1,stimuli/stim_20210407_power2amp/equal_lnn_AM5.4Hz_47.m4a,,,
,,,,,37375,2021-04-22_16h16.44.901,judgeSpeechMusic_20210407_logNormShiftAmp,2020.1.2,MacIntel,60,,,,,,,,,,,,,,,,,,,,,,,,,,2,6.887835,,0,0,68,68,65,1,stimuli/stim_20210407_power2amp/equal_lnn_AM3Hz_97.m4a,,,
,,,,,37375,2021-04-22_16h16.44.901,judgeSpeechMusic_20210407_logNormShiftAmp,2020.1.2,MacIntel,60,,,,,,,,,,,,,,,,,,,,,,,,,,1,14.179085,,0,0,69,69,15,1,stimuli/stim_20210407_power2amp/equal_lnn_AM1.2Hz_82.m4a,,,
,,,,,37375,2021-04-22_16h16.44.901,judgeSpeechMusic_20210407_logNormShiftAmp,2020.1.2,MacIntel,60,,,,,,,,,,,,,,,,,,,,,,,,,,1,5.57083,,0,0,70,70,20,1,stimuli/stim_20210407_power2amp/equal_lnn_AM1.2Hz_45.m4a,,,
,,,,,37375,2021-04-22_16h16.44.901,judgeSpeechMusic_20210407_logNormShiftAmp,2020.1.2,MacIntel,60,,,,,,,,,,,,,,,,,,,,,,,,,,1,5.59221,,0,0,71,71,39,1,stimuli/stim_20210407_power2amp/equal_lnn_AM1.8Hz_9.m4a,,,
,,,,,37375,2021-04-22_16h16.44.901,judgeSpeechMusic_20210407_logNormShiftAmp,2020.1.2,MacIntel,60,,,,,,,,,,,,,,,,,,,,,,,,,,1,5.525335,,0,0,72,72,141,1,stimuli/stim_20210407_power2amp/equal_lnn_AM6Hz_82.m4a,,,
,,,,,37375,2021-04-22_16h16.44.901,judgeSpeechMusic_20210407_logNormShiftAmp,2020.1.2,MacIntel,60,,,,,,,,,,,,,,,,,,,,,,,,,,1,8.468915,,0,0,73,73,33,1,stimuli/stim_20210407_power2amp/equal_lnn_AM1.8Hz_10.m4a,,,
,,,,,37375,2021-04-22_16h16.44.901,judgeSpeechMusic_20210407_logNormShiftAmp,2020.1.2,MacIntel,60,,,,,,,,,,,,,,,,,,,,,,,,,,1,5.819295,,0,0,74,74,126,1,stimuli/stim_20210407_power2amp/equal_lnn_AM5.4Hz_9.m4a,,,
,,,,,37375,2021-04-22_16h16.44.901,judgeSpeechMusic_20210407_logNormShiftAmp,2020.1.2,MacIntel,60,,,,,,,,,,,,,,,,,,,,,,,,,,2,5.659665,,0,0,75,75,59,1,stimuli/stim_20210407_power2amp/equal_lnn_AM2.4Hz_100.m4a,,,
,,,,,37375,2021-04-22_16h16.44.901,judgeSpeechMusic_20210407_logNormShiftAmp,2020.1.2,MacIntel,60,,,,,,,,,,,,,,,,,,,,,,,,,,2,6.429915,,0,0,76,76,50,1,stimuli/stim_20210407_power2amp/equal_lnn_AM2.4Hz_85.m4a,,,
,,,,,37375,2021-04-22_16h16.44.901,judgeSpeechMusic_20210407_logNormShiftAmp,2020.1.2,MacIntel,60,,,,,,,,,,,,,,,,,,,,,,,,,,2,5.562915,,0,0,77,77,110,1,stimuli/stim_20210407_power2amp/equal_lnn_AM4.8Hz_90.m4a,,,
,,,,,37375,2021-04-22_16h16.44.901,judgeSpeechMusic_20210407_logNormShiftAmp,2020.1.2,MacIntel,60,,,,,,,,,,,,,,,,,,,,,,,,,,2,6.10508,,0,0,78,78,63,1,stimuli/stim_20210407_power2amp/equal_lnn_AM3Hz_42.m4a,,,
,,,,,37375,2021-04-22_16h16.44.901,judgeSpeechMusic_20210407_logNormShiftAmp,2020.1.2,MacIntel,60,,,,,,,,,,,,,,,,,,,,,,,,,,2,9.621245,,0,0,79,79,106,1,stimuli/stim_20210407_power2amp/equal_lnn_AM4.8Hz_40.m4a,,,
,,,,,37375,2021-04-22_16h16.44.901,judgeSpeechMusic_20210407_logNormShiftAmp,2020.1.2,MacIntel,60,,,,,,,,,,,,,,,,,,,,,,,,,,2,5.570795,,0,0,80,80,119,1,stimuli/stim_20210407_power2amp/equal_lnn_AM4.8Hz_23.m4a,,,
,,,,,37375,2021-04-22_16h16.44.901,judgeSpeechMusic_20210407_logNormShiftAmp,2020.1.2,MacIntel,60,,,,,,,,,,,,,,,,,,,,,,,,,,1,5.618665,,0,0,81,81,30,1,stimuli/stim_20210407_power2amp/equal_lnn_AM1.8Hz_56.m4a,,,
,,,,,37375,2021-04-22_16h16.44.901,judgeSpeechMusic_20210407_logNormShiftAmp,2020.1.2,MacIntel,60,,,,,,,,,,,,,,,,,,,,,,,,,,1,5.92175,1,1,0,82,82,52,1,stimuli/stim_20210407_power2amp/equal_lnn_AM2.4Hz_95.m4a,1.04975,,
,,,,,37375,2021-04-22_16h16.44.901,judgeSpeechMusic_20210407_logNormShiftAmp,2020.1.2,MacIntel,60,,,,,,,,,,,,,,,,,,,,,,,,,,2,5.68383,,0,0,83,83,98,1,stimuli/stim_20210407_power2amp/equal_lnn_AM4.2Hz_75.m4a,,,
,,,,,37375,2021-04-22_16h16.44.901,judgeSpeechMusic_20210407_logNormShiftAmp,2020.1.2,MacIntel,60,,,,,,,,,,,,,,,,,,,,,,,,,,2,5.83013,,0,0,84,84,145,1,stimuli/stim_20210407_power2amp/equal_lnn_AM6Hz_63.m4a,,,
,,,,,37375,2021-04-22_16h16.44.901,judgeSpeechMusic_20210407_logNormShiftAmp,2020.1.2,MacIntel,60,,,,,,,,,,,,,,,,,,,,,,,,,,2,5.54429,,0,0,85,85,132,1,stimuli/stim_20210407_power2amp/equal_lnn_AM5.4Hz_100.m4a,,,
,,,,,37375,2021-04-22_16h16.44.901,judgeSpeechMusic_20210407_logNormShiftAmp,2020.1.2,MacIntel,60,,,,,,,,,,,,,,,,,,,,,,,,,,1,5.537295,,0,0,86,86,8,1,stimuli/stim_20210407_power2amp/equal_lnn_AM0.6Hz_34.m4a,,,
,,,,,37375,2021-04-22_16h16.44.901,judgeSpeechMusic_20210407_logNormShiftAmp,2020.1.2,MacIntel,60,,,,,,,,,,,,,,,,,,,,,,,,,,1,5.486085,,0,0,87,87,127,1,stimuli/stim_20210407_power2amp/equal_lnn_AM5.4Hz_33.m4a,,,
,,,,,37375,2021-04-22_16h16.44.901,judgeSpeechMusic_20210407_logNormShiftAmp,2020.1.2,MacIntel,60,,,,,,,,,,,,,,,,,,,,,,,,,,2,5.512335,,0,0,88,88,100,1,stimuli/stim_20210407_power2amp/equal_lnn_AM4.2Hz_52.m4a,,,
,,,,,37375,2021-04-22_16h16.44.901,judgeSpeechMusic_20210407_logNormShiftAmp,2020.1.2,MacIntel,60,,,,,,,,,,,,,,,,,,,,,,,,,,1,5.608915,,0,0,89,89,21,1,stimuli/stim_20210407_power2amp/equal_lnn_AM1.2Hz_29.m4a,,,
,,,,,37375,2021-04-22_16h16.44.901,judgeSpeechMusic_20210407_logNormShiftAmp,2020.1.2,MacIntel,60,,,,,,,,,,,,,,,,,,,,,,,,,,1,5.82742,,0,0,90,90,10,1,stimuli/stim_20210407_power2amp/equal_lnn_AM0.6Hz_16.m4a,,,
,,,,,37375,2021-04-22_16h16.44.901,judgeSpeechMusic_20210407_logNormShiftAmp,2020.1.2,MacIntel,60,,,,,,,,,,,,,,,,,,,,,,,,,,2,5.54779,,0,0,91,91,85,1,stimuli/stim_20210407_power2amp/equal_lnn_AM3.6Hz_82.m4a,,,
,,,,,37375,2021-04-22_16h16.44.901,judgeSpeechMusic_20210407_logNormShiftAmp,2020.1.2,MacIntel,60,,,,,,,,,,,,,,,,,,,,,,,,,,1,5.705995,,0,0,92,92,102,1,stimuli/stim_20210407_power2amp/equal_lnn_AM4.2Hz_27.m4a,,,
,,,,,37375,2021-04-22_16h16.44.901,judgeSpeechMusic_20210407_logNormShiftAmp,2020.1.2,MacIntel,60,,,,,,,,,,,,,,,,,,,,,,,,,,1,5.50996,,0,0,93,93,32,1,stimuli/stim_20210407_power2amp/equal_lnn_AM1.8Hz_70.m4a,,,
,,,,,37375,2021-04-22_16h16.44.901,judgeSpeechMusic_20210407_logNormShiftAmp,2020.1.2,MacIntel,60,,,,,,,,,,,,,,,,,,,,,,,,,,1,5.52071,,0,0,94,94,55,1,stimuli/stim_20210407_power2amp/equal_lnn_AM2.4Hz_51.m4a,,,
,,,,,37375,2021-04-22_16h16.44.901,judgeSpeechMusic_20210407_logNormShiftAmp,2020.1.2,MacIntel,60,,,,,,,,,,,,,,,,,,,,,,,,,,2,5.681585,,0,0,95,95,135,1,stimuli/stim_20210407_power2amp/equal_lnn_AM6Hz_10.m4a,,,
,,,,,37375,2021-04-22_16h16.44.901,judgeSpeechMusic_20210407_logNormShiftAmp,2020.1.2,MacIntel,60,,,,,,,,,,,,,,,,,,,,,,,,,,2,5.602875,,0,0,96,96,71,1,stimuli/stim_20210407_power2amp/equal_lnn_AM3Hz_84.m4a,,,
,,,,,37375,2021-04-22_16h16.44.901,judgeSpeechMusic_20210407_logNormShiftAmp,2020.1.2,MacIntel,60,,,,,,,,,,,,,,,,,,,,,,,,,,2,5.508415,,0,0,97,97,81,1,stimuli/stim_20210407_power2amp/equal_lnn_AM3.6Hz_49.m4a,,,
,,,,,37375,2021-04-22_16h16.44.901,judgeSpeechMusic_20210407_logNormShiftAmp,2020.1.2,MacIntel,60,,,,,,,,,,,,,,,,,,,,,,,,,,2,5.954,,0,0,98,98,90,1,stimuli/stim_20210407_power2amp/equal_lnn_AM4.2Hz_20.m4a,,,
,,,,,37375,2021-04-22_16h16.44.901,judgeSpeechMusic_20210407_logNormShiftAmp,2020.1.2,MacIntel,60,,,,,,,,,,,,,,,,,,,,,,,,,,2,5.574205,,0,0,99,99,104,1,stimuli/stim_20210407_power2amp/equal_lnn_AM4.2Hz_71.m4a,,,
,,,,,37375,2021-04-22_16h16.44.901,judgeSpeechMusic_20210407_logNormShiftAmp,2020.1.2,MacIntel,60,,,,,,,,,,,,,,,,,,,,,,,,,,1,6.09225,,0,0,100,100,136,1,stimuli/stim_20210407_power2amp/equal_lnn_AM6Hz_37.m4a,,,
,,,,,37375,2021-04-22_16h16.44.901,judgeSpeechMusic_20210407_logNormShiftAmp,2020.1.2,MacIntel,60,,,,,,,,,,,,,,,,,,,,,,,,,,1,6.320245,,0,0,101,101,69,1,stimuli/stim_20210407_power2amp/equal_lnn_AM3Hz_59.m4a,,,
,,,,,37375,2021-04-22_16h16.44.901,judgeSpeechMusic_20210407_logNormShiftAmp,2020.1.2,MacIntel,60,,,,,,,,,,,,,,,,,,,,,,,,,,1,5.56121,,0,0,102,102,11,1,stimuli/stim_20210407_power2amp/equal_lnn_AM0.6Hz_49.m4a,,,
,,,,,37375,2021-04-22_16h16.44.901,judgeSpeechMusic_20210407_logNormShiftAmp,2020.1.2,MacIntel,60,,,,,,,,,,,,,,,,,,,,,,,,,,2,5.70371,1,1,0,103,103,43,1,stimuli/stim_20210407_power2amp/equal_lnn_AM1.8Hz_67.m4a,0.92267,,
,,,,,37375,2021-04-22_16h16.44.901,judgeSpeechMusic_20210407_logNormShiftAmp,2020.1.2,MacIntel,60,,,,,,,,,,,,,,,,,,,,,,,,,,2,6.006835,,0,0,104,104,144,1,stimuli/stim_20210407_power2amp/equal_lnn_AM6Hz_24.m4a,,,
,,,,,37375,2021-04-22_16h16.44.901,judgeSpeechMusic_20210407_logNormShiftAmp,2020.1.2,MacIntel,60,,,,,,,,,,,,,,,,,,,,,,,,,,2,6.520585,,0,0,105,105,131,1,stimuli/stim_20210407_power2amp/equal_lnn_AM5.4Hz_88.m4a,,,
,,,,,37375,2021-04-22_16h16.44.901,judgeSpeechMusic_20210407_logNormShiftAmp,2020.1.2,MacIntel,60,,,,,,,,,,,,,,,,,,,,,,,,,,2,5.538335,,0,0,106,106,70,1,stimuli/stim_20210407_power2amp/equal_lnn_AM3Hz_86.m4a,,,
,,,,,37375,2021-04-22_16h16.44.901,judgeSpeechMusic_20210407_logNormShiftAmp,2020.1.2,MacIntel,60,,,,,,,,,,,,,,,,,,,,,,,,,,2,5.93354,,0,0,107,107,99,1,stimuli/stim_20210407_power2amp/equal_lnn_AM4.2Hz_30.m4a,,,
,,,,,37375,2021-04-22_16h16.44.901,judgeSpeechMusic_20210407_logNormShiftAmp,2020.1.2,MacIntel,60,,,,,,,,,,,,,,,,,,,,,,,,,,1,5.678705,,0,0,108,108,49,1,stimuli/stim_20210407_power2amp/equal_lnn_AM2.4Hz_88.m4a,,,
,,,,,37375,2021-04-22_16h16.44.901,judgeSpeechMusic_20210407_logNormShiftAmp,2020.1.2,MacIntel,60,,,,,,,,,,,,,,,,,,,,,,,,,,1,5.898125,,0,0,109,109,16,1,stimuli/stim_20210407_power2amp/equal_lnn_AM1.2Hz_14.m4a,,,
,,,,,37375,2021-04-22_16h16.44.901,judgeSpeechMusic_20210407_logNormShiftAmp,2020.1.2,MacIntel,60,,,,,,,,,,,,,,,,,,,,,,,,,,1,5.93771,,0,0,110,110,0,1,stimuli/stim_20210407_power2amp/equal_lnn_AM0.6Hz_88.m4a,,,
,,,,,37375,2021-04-22_16h16.44.901,judgeSpeechMusic_20210407_logNormShiftAmp,2020.1.2,MacIntel,60,,,,,,,,,,,,,,,,,,,,,,,,,,2,5.657335,,0,0,111,111,142,1,stimuli/stim_20210407_power2amp/equal_lnn_AM6Hz_16.m4a,,,
,,,,,37375,2021-04-22_16h16.44.901,judgeSpeechMusic_20210407_logNormShiftAmp,2020.1.2,MacIntel,60,,,,,,,,,,,,,,,,,,,,,,,,,,1,5.723625,,0,0,112,112,143,1,stimuli/stim_20210407_power2amp/equal_lnn_AM6Hz_91.m4a,,,
,,,,,37375,2021-04-22_16h16.44.901,judgeSpeechMusic_20210407_logNormShiftAmp,2020.1.2,MacIntel,60,,,,,,,,,,,,,,,,,,,,,,,,,,1,5.53279,,0,0,113,113,88,1,stimuli/stim_20210407_power2amp/equal_lnn_AM3.6Hz_18.m4a,,,
,,,,,37375,2021-04-22_16h16.44.901,judgeSpeechMusic_20210407_logNormShiftAmp,2020.1.2,MacIntel,60,,,,,,,,,,,,,,,,,,,,,,,,,,1,5.95167,,0,0,114,114,14,1,stimuli/stim_20210407_power2amp/equal_lnn_AM0.6Hz_54.m4a,,,
,,,,,37375,2021-04-22_16h16.44.901,judgeSpeechMusic_20210407_logNormShiftAmp,2020.1.2,MacIntel,60,,,,,,,,,,,,,,,,,,,,,,,,,,1,5.790415,,0,0,115,115,118,1,stimuli/stim_20210407_power2amp/equal_lnn_AM4.8Hz_27.m4a,,,
,,,,,37375,2021-04-22_16h16.44.901,judgeSpeechMusic_20210407_logNormShiftAmp,2020.1.2,MacIntel,60,,,,,,,,,,,,,,,,,,,,,,,,,,1,6.14208,,0,0,116,116,29,1,stimuli/stim_20210407_power2amp/equal_lnn_AM1.2Hz_91.m4a,,,
,,,,,37375,2021-04-22_16h16.44.901,judgeSpeechMusic_20210407_logNormShiftAmp,2020.1.2,MacIntel,60,,,,,,,,,,,,,,,,,,,,,,,,,,1,6.211545,,0,0,117,117,124,1,stimuli/stim_20210407_power2amp/equal_lnn_AM5.4Hz_43.m4a,,,
,,,,,37375,2021-04-22_16h16.44.901,judgeSpeechMusic_20210407_logNormShiftAmp,2020.1.2,MacIntel,60,,,,,,,,,,,,,,,,,,,,,,,,,,2,5.72187,,0,0,118,118,68,1,stimuli/stim_20210407_power2amp/equal_lnn_AM3Hz_51.m4a,,,
,,,,,37375,2021-04-22_16h16.44.901,judgeSpeechMusic_20210407_logNormShiftAmp,2020.1.2,MacIntel,60,,,,,,,,,,,,,,,,,,,,,,,,,,2,5.54275,,0,0,119,119,77,1,stimuli/stim_20210407_power2amp/equal_lnn_AM3.6Hz_44.m4a,,,
,,,,,37375,2021-04-22_16h16.44.901,judgeSpeechMusic_20210407_logNormShiftAmp,2020.1.2,MacIntel,60,,,,,,,,,,,,,,,,,,,,,,,,,,2,5.856255,,0,0,120,120,103,1,stimuli/stim_20210407_power2amp/equal_lnn_AM4.2Hz_88.m4a,,,
,,,,,37375,2021-04-22_16h16.44.901,judgeSpeechMusic_20210407_logNormShiftAmp,2020.1.2,MacIntel,60,,,,,,,,,,,,,,,,,,,,,,,,,,2,7.353545,,0,0,121,121,75,1,stimuli/stim_20210407_power2amp/equal_lnn_AM3.6Hz_97.m4a,,,
,,,,,37375,2021-04-22_16h16.44.901,judgeSpeechMusic_20210407_logNormShiftAmp,2020.1.2,MacIntel,60,,,,,,,,,,,,,,,,,,,,,,,,,,2,6.232915,,0,0,122,122,51,1,stimuli/stim_20210407_power2amp/equal_lnn_AM2.4Hz_50.m4a,,,
,,,,,37375,2021-04-22_16h16.44.901,judgeSpeechMusic_20210407_logNormShiftAmp,2020.1.2,MacIntel,60,,,,,,,,,,,,,,,,,,,,,,,,,,1,5.670995,,0,0,123,123,18,1,stimuli/stim_20210407_power2amp/equal_lnn_AM1.2Hz_31.m4a,,,
,,,,,37375,2021-04-22_16h16.44.901,judgeSpeechMusic_20210407_logNormShiftAmp,2020.1.2,MacIntel,60,,,,,,,,,,,,,,,,,,,,,,,,,,2,5.52983,,0,0,124,124,57,1,stimuli/stim_20210407_power2amp/equal_lnn_AM2.4Hz_79.m4a,,,
,,,,,37375,2021-04-22_16h16.44.901,judgeSpeechMusic_20210407_logNormShiftAmp,2020.1.2,MacIntel,60,,,,,,,,,,,,,,,,,,,,,,,,,,2,10.464665,,0,0,125,125,111,1,stimuli/stim_20210407_power2amp/equal_lnn_AM4.8Hz_72.m4a,,,
,,,,,37375,2021-04-22_16h16.44.901,judgeSpeechMusic_20210407_logNormShiftAmp,2020.1.2,MacIntel,60,,,,,,,,,,,,,,,,,,,,,,,,,,1,5.85675,,0,0,126,126,6,1,stimuli/stim_20210407_power2amp/equal_lnn_AM0.6Hz_2.m4a,,,
,,,,,37375,2021-04-22_16h16.44.901,judgeSpeechMusic_20210407_logNormShiftAmp,2020.1.2,MacIntel,60,,,,,,,,,,,,,,,,,,,,,,,,,,2,6.825955,,0,0,127,127,93,1,stimuli/stim_20210407_power2amp/equal_lnn_AM4.2Hz_74.m4a,,,
,,,,,37375,2021-04-22_16h16.44.901,judgeSpeechMusic_20210407_logNormShiftAmp,2020.1.2,MacIntel,60,,,,,,,,,,,,,,,,,,,,,,,,,,1,6.125045,2,1,0,128,128,41,1,stimuli/stim_20210407_power2amp/equal_lnn_AM1.8Hz_4.m4a,0.79492,,
,,,,,37375,2021-04-22_16h16.44.901,judgeSpeechMusic_20210407_logNormShiftAmp,2020.1.2,MacIntel,60,,,,,,,,,,,,,,,,,,,,,,,,,,2,6.85242,,0,0,129,129,148,1,stimuli/stim_20210407_power2amp/equal_lnn_AM6Hz_86.m4a,,,
,,,,,37375,2021-04-22_16h16.44.901,judgeSpeechMusic_20210407_logNormShiftAmp,2020.1.2,MacIntel,60,,,,,,,,,,,,,,,,,,,,,,,,,,2,6.698085,,0,0,130,130,149,1,stimuli/stim_20210407_power2amp/equal_lnn_AM6Hz_55.m4a,,,
,,,,,37375,2021-04-22_16h16.44.901,judgeSpeechMusic_20210407_logNormShiftAmp,2020.1.2,MacIntel,60,,,,,,,,,,,,,,,,,,,,,,,,,,1,6.570755,,0,0,131,131,5,1,stimuli/stim_20210407_power2amp/equal_lnn_AM0.6Hz_93.m4a,,,
,,,,,37375,2021-04-22_16h16.44.901,judgeSpeechMusic_20210407_logNormShiftAmp,2020.1.2,MacIntel,60,,,,,,,,,,,,,,,,,,,,,,,,,,2,6.414375,,0,0,132,132,84,1,stimuli/stim_20210407_power2amp/equal_lnn_AM3.6Hz_84.m4a,,,
,,,,,37375,2021-04-22_16h16.44.901,judgeSpeechMusic_20210407_logNormShiftAmp,2020.1.2,MacIntel,60,,,,,,,,,,,,,,,,,,,,,,,,,,1,6.75475,,0,0,133,133,82,1,stimuli/stim_20210407_power2amp/equal_lnn_AM3.6Hz_72.m4a,,,
,,,,,37375,2021-04-22_16h16.44.901,judgeSpeechMusic_20210407_logNormShiftAmp,2020.1.2,MacIntel,60,,,,,,,,,,,,,,,,,,,,,,,,,,1,5.624125,,0,0,134,134,7,1,stimuli/stim_20210407_power2amp/equal_lnn_AM0.6Hz_28.m4a,,,
,,,,,37375,2021-04-22_16h16.44.901,judgeSpeechMusic_20210407_logNormShiftAmp,2020.1.2,MacIntel,60,,,,,,,,,,,,,,,,,,,,,,,,,,1,5.570795,,0,0,135,135,31,1,stimuli/stim_20210407_power2amp/equal_lnn_AM1.8Hz_17.m4a,,,
,,,,,37375,2021-04-22_16h16.44.901,judgeSpeechMusic_20210407_logNormShiftAmp,2020.1.2,MacIntel,60,,,,,,,,,,,,,,,,,,,,,,,,,,2,6.522665,,0,0,136,136,105,1,stimuli/stim_20210407_power2amp/equal_lnn_AM4.8Hz_92.m4a,,,
,,,,,37375,2021-04-22_16h16.44.901,judgeSpeechMusic_20210407_logNormShiftAmp,2020.1.2,MacIntel,60,,,,,,,,,,,,,,,,,,,,,,,,,,2,6.638915,,0,0,137,137,113,1,stimuli/stim_20210407_power2amp/equal_lnn_AM4.8Hz_21.m4a,,,
,,,,,37375,2021-04-22_16h16.44.901,judgeSpeechMusic_20210407_logNormShiftAmp,2020.1.2,MacIntel,60,,,,,,,,,,,,,,,,,,,,,,,,,,2,5.931165,,0,0,138,138,114,1,stimuli/stim_20210407_power2amp/equal_lnn_AM4.8Hz_85.m4a,,,
,,,,,37375,2021-04-22_16h16.44.901,judgeSpeechMusic_20210407_logNormShiftAmp,2020.1.2,MacIntel,60,,,,,,,,,,,,,,,,,,,,,,,,,,1,6.12054,,0,0,139,139,3,1,stimuli/stim_20210407_power2amp/equal_lnn_AM0.6Hz_73.m4a,,,
,,,,,37375,2021-04-22_16h16.44.901,judgeSpeechMusic_20210407_logNormShiftAmp,2020.1.2,MacIntel,60,,,,,,,,,,,,,,,,,,,,,,,,,,1,5.66425,,0,0,140,140,42,1,stimuli/stim_20210407_power2amp/equal_lnn_AM1.8Hz_34.m4a,,,
,,,,,37375,2021-04-22_16h16.44.901,judgeSpeechMusic_20210407_logNormShiftAmp,2020.1.2,MacIntel,60,,,,,,,,,,,,,,,,,,,,,,,,,,1,5.56825,,0,0,141,141,133,1,stimuli/stim_20210407_power2amp/equal_lnn_AM5.4Hz_96.m4a,,,
,,,,,37375,2021-04-22_16h16.44.901,judgeSpeechMusic_20210407_logNormShiftAmp,2020.1.2,MacIntel,60,,,,,,,,,,,,,,,,,,,,,,,,,,1,5.574165,,0,0,142,142,129,1,stimuli/stim_20210407_power2amp/equal_lnn_AM5.4Hz_61.m4a,,,
,,,,,37375,2021-04-22_16h16.44.901,judgeSpeechMusic_20210407_logNormShiftAmp,2020.1.2,MacIntel,60,,,,,,,,,,,,,,,,,,,,,,,,,,1,5.47883,,0,0,143,143,48,1,stimuli/stim_20210407_power2amp/equal_lnn_AM2.4Hz_24.m4a,,,
,,,,,37375,2021-04-22_16h16.44.901,judgeSpeechMusic_20210407_logNormShiftAmp,2020.1.2,MacIntel,60,,,,,,,,,,,,,,,,,,,,,,,,,,1,5.503335,,0,0,144,144,134,1,stimuli/stim_20210407_power2amp/equal_lnn_AM5.4Hz_89.m4a,,,
,,,,,37375,2021-04-22_16h16.44.901,judgeSpeechMusic_20210407_logNormShiftAmp,2020.1.2,MacIntel,60,,,,,,,,,,,,,,,,,,,,,,,,,,1,5.66287,,0,0,145,145,27,1,stimuli/stim_20210407_power2amp/equal_lnn_AM1.2Hz_75.m4a,,,
,,,,,37375,2021-04-22_16h16.44.901,judgeSpeechMusic_20210407_logNormShiftAmp,2020.1.2,MacIntel,60,,,,,,,,,,,,,,,,,,,,,,,,,,2,6.152585,,0,0,146,146,67,1,stimuli/stim_20210407_power2amp/equal_lnn_AM3Hz_89.m4a,,,
,,,,,37375,2021-04-22_16h16.44.901,judgeSpeechMusic_20210407_logNormShiftAmp,2020.1.2,MacIntel,60,,,,,,,,,,,,,,,,,,,,,,,,,,2,7.082875,,0,0,147,147,117,1,stimuli/stim_20210407_power2amp/equal_lnn_AM4.8Hz_65.m4a,,,
,,,,,37375,2021-04-22_16h16.44.901,judgeSpeechMusic_20210407_logNormShiftAmp,2020.1.2,MacIntel,60,,,,,,,,,,,,,,,,,,,,,,,,,,2,6.62354,,0,0,148,148,56,1,stimuli/stim_20210407_power2amp/equal_lnn_AM2.4Hz_36.m4a,,,
,,,,,37375,2021-04-22_16h16.44.901,judgeSpeechMusic_20210407_logNormShiftAmp,2020.1.2,MacIntel,60,,,,,,,,,,,,,,,,,,,,,,,,,,2,5.988625,,0,0,149,149,120,1,stimuli/stim_20210407_power2amp/equal_lnn_AM5.4Hz_21.m4a,,,
,,,,,37375,2021-04-22_16h16.44.901,judgeSpeechMusic_20210407_logNormShiftAmp,2020.1.2,MacIntel,60,,,,,,,,,,,,,,,,,,,,,,,,,,1,5.57829,,0,1,0,150,55,1,stimuli/stim_20210407_power2amp/equal_lnn_AM2.4Hz_51.m4a,,,
,,,,,37375,2021-04-22_16h16.44.901,judgeSpeechMusic_20210407_logNormShiftAmp,2020.1.2,MacIntel,60,,,,,,,,,,,,,,,,,,,,,,,,,,1,6.49275,2,1,1,1,151,78,1,stimuli/stim_20210407_power2amp/equal_lnn_AM3.6Hz_54.m4a,0.327625,,
,,,,,37375,2021-04-22_16h16.44.901,judgeSpeechMusic_20210407_logNormShiftAmp,2020.1.2,MacIntel,60,,,,,,,,,,,,,,,,,,,,,,,,,,1,5.833585,,0,1,2,152,79,1,stimuli/stim_20210407_power2amp/equal_lnn_AM3.6Hz_86.m4a,,,
,,,,,37375,2021-04-22_16h16.44.901,judgeSpeechMusic_20210407_logNormShiftAmp,2020.1.2,MacIntel,60,,,,,,,,,,,,,,,,,,,,,,,,,,2,6.736835,,0,1,3,153,143,1,stimuli/stim_20210407_power2amp/equal_lnn_AM6Hz_91.m4a,,,
,,,,,37375,2021-04-22_16h16.44.901,judgeSpeechMusic_20210407_logNormShiftAmp,2020.1.2,MacIntel,60,,,,,,,,,,,,,,,,,,,,,,,,,,2,6.677875,,0,1,4,154,25,1,stimuli/stim_20210407_power2amp/equal_lnn_AM1.2Hz_11.m4a,,,
,,,,,37375,2021-04-22_16h16.44.901,judgeSpeechMusic_20210407_logNormShiftAmp,2020.1.2,MacIntel,60,,,,,,,,,,,,,,,,,,,,,,,,,,1,6.97125,,0,1,5,155,45,1,stimuli/stim_20210407_power2amp/equal_lnn_AM2.4Hz_25.m4a,,,
,,,,,37375,2021-04-22_16h16.44.901,judgeSpeechMusic_20210407_logNormShiftAmp,2020.1.2,MacIntel,60,,,,,,,,,,,,,,,,,,,,,,,,,,1,5.53879,,0,1,6,156,15,1,stimuli/stim_20210407_power2amp/equal_lnn_AM1.2Hz_82.m4a,,,
,,,,,37375,2021-04-22_16h16.44.901,judgeSpeechMusic_20210407_logNormShiftAmp,2020.1.2,MacIntel,60,,,,,,,,,,,,,,,,,,,,,,,,,,2,5.69471,,0,1,7,157,67,1,stimuli/stim_20210407_power2amp/equal_lnn_AM3Hz_89.m4a,,,
,,,,,37375,2021-04-22_16h16.44.901,judgeSpeechMusic_20210407_logNormShiftAmp,2020.1.2,MacIntel,60,,,,,,,,,,,,,,,,,,,,,,,,,,2,6.075955,,0,1,8,158,135,1,stimuli/stim_20210407_power2amp/equal_lnn_AM6Hz_10.m4a,,,
,,,,,37375,2021-04-22_16h16.44.901,judgeSpeechMusic_20210407_logNormShiftAmp,2020.1.2,MacIntel,60,,,,,,,,,,,,,,,,,,,,,,,,,,2,5.622705,,0,1,9,159,39,1,stimuli/stim_20210407_power2amp/equal_lnn_AM1.8Hz_9.m4a,,,
,,,,,37375,2021-04-22_16h16.44.901,judgeSpeechMusic_20210407_logNormShiftAmp,2020.1.2,MacIntel,60,,,,,,,,,,,,,,,,,,,,,,,,,,2,6.18862,,0,1,10,160,62,1,stimuli/stim_20210407_power2amp/equal_lnn_AM3Hz_8.m4a,,,
,,,,,37375,2021-04-22_16h16.44.901,judgeSpeechMusic_20210407_logNormShiftAmp,2020.1.2,MacIntel,60,,,,,,,,,,,,,,,,,,,,,,,,,,2,5.57104,,0,1,11,161,74,1,stimuli/stim_20210407_power2amp/equal_lnn_AM3Hz_21.m4a,,,
,,,,,37375,2021-04-22_16h16.44.901,judgeSpeechMusic_20210407_logNormShiftAmp,2020.1.2,MacIntel,60,,,,,,,,,,,,,,,,,,,,,,,,,,2,5.711875,,0,1,12,162,60,1,stimuli/stim_20210407_power2amp/equal_lnn_AM3Hz_27.m4a,,,
,,,,,37375,2021-04-22_16h16.44.901,judgeSpeechMusic_20210407_logNormShiftAmp,2020.1.2,MacIntel,60,,,,,,,,,,,,,,,,,,,,,,,,,,2,5.60379,,0,1,13,163,49,1,stimuli/stim_20210407_power2amp/equal_lnn_AM2.4Hz_88.m4a,,,
,,,,,37375,2021-04-22_16h16.44.901,judgeSpeechMusic_20210407_logNormShiftAmp,2020.1.2,MacIntel,60,,,,,,,,,,,,,,,,,,,,,,,,,,1,5.704625,,0,1,14,164,13,1,stimuli/stim_20210407_power2amp/equal_lnn_AM0.6Hz_8.m4a,,,
,,,,,37375,2021-04-22_16h16.44.901,judgeSpeechMusic_20210407_logNormShiftAmp,2020.1.2,MacIntel,60,,,,,,,,,,,,,,,,,,,,,,,,,,1,5.43533,,0,1,15,165,18,1,stimuli/stim_20210407_power2amp/equal_lnn_AM1.2Hz_31.m4a,,,
,,,,,37375,2021-04-22_16h16.44.901,judgeSpeechMusic_20210407_logNormShiftAmp,2020.1.2,MacIntel,60,,,,,,,,,,,,,,,,,,,,,,,,,,1,5.618585,,0,1,16,166,57,1,stimuli/stim_20210407_power2amp/equal_lnn_AM2.4Hz_79.m4a,,,
,,,,,37375,2021-04-22_16h16.44.901,judgeSpeechMusic_20210407_logNormShiftAmp,2020.1.2,MacIntel,60,,,,,,,,,,,,,,,,,,,,,,,,,,1,6.01287,,0,1,17,167,59,1,stimuli/stim_20210407_power2amp/equal_lnn_AM2.4Hz_100.m4a,,,
,,,,,37375,2021-04-22_16h16.44.901,judgeSpeechMusic_20210407_logNormShiftAmp,2020.1.2,MacIntel,60,,,,,,,,,,,,,,,,,,,,,,,,,,1,5.534585,,0,1,18,168,5,1,stimuli/stim_20210407_power2amp/equal_lnn_AM0.6Hz_93.m4a,,,
,,,,,37375,2021-04-22_16h16.44.901,judgeSpeechMusic_20210407_logNormShiftAmp,2020.1.2,MacIntel,60,,,,,,,,,,,,,,,,,,,,,,,,,,1,5.533125,,0,1,19,169,8,1,stimuli/stim_20210407_power2amp/equal_lnn_AM0.6Hz_34.m4a,,,
,,,,,37375,2021-04-22_16h16.44.901,judgeSpeechMusic_20210407_logNormShiftAmp,2020.1.2,MacIntel,60,,,,,,,,,,,,,,,,,,,,,,,,,,2,8.095915,,0,1,20,170,31,1,stimuli/stim_20210407_power2amp/equal_lnn_AM1.8Hz_17.m4a,,,
,,,,,37375,2021-04-22_16h16.44.901,judgeSpeechMusic_20210407_logNormShiftAmp,2020.1.2,MacIntel,60,,,,,,,,,,,,,,,,,,,,,,,,,,2,11.257835,4,1,1,21,171,75,1,stimuli/stim_20210407_power2amp/equal_lnn_AM3.6Hz_97.m4a,1.59637,,
,,,,,37375,2021-04-22_16h16.44.901,judgeSpeechMusic_20210407_logNormShiftAmp,2020.1.2,MacIntel,60,,,,,,,,,,,,,,,,,,,,,,,,,,2,7.17971,,0,1,22,172,41,1,stimuli/stim_20210407_power2amp/equal_lnn_AM1.8Hz_4.m4a,,,
,,,,,37375,2021-04-22_16h16.44.901,judgeSpeechMusic_20210407_logNormShiftAmp,2020.1.2,MacIntel,60,,,,,,,,,,,,,,,,,,,,,,,,,,2,5.59233,,0,1,23,173,140,1,stimuli/stim_20210407_power2amp/equal_lnn_AM6Hz_85.m4a,,,
,,,,,37375,2021-04-22_16h16.44.901,judgeSpeechMusic_20210407_logNormShiftAmp,2020.1.2,MacIntel,60,,,,,,,,,,,,,,,,,,,,,,,,,,1,6.35408,,0,1,24,174,0,1,stimuli/stim_20210407_power2amp/equal_lnn_AM0.6Hz_88.m4a,,,
,,,,,37375,2021-04-22_16h16.44.901,judgeSpeechMusic_20210407_logNormShiftAmp,2020.1.2,MacIntel,60,,,,,,,,,,,,,,,,,,,,,,,,,,2,5.607625,,0,1,25,175,115,1,stimuli/stim_20210407_power2amp/equal_lnn_AM4.8Hz_16.m4a,,,
,,,,,37375,2021-04-22_16h16.44.901,judgeSpeechMusic_20210407_logNormShiftAmp,2020.1.2,MacIntel,60,,,,,,,,,,,,,,,,,,,,,,,,,,1,6.806415,,0,1,26,176,29,1,stimuli/stim_20210407_power2amp/equal_lnn_AM1.2Hz_91.m4a,,,
,,,,,37375,2021-04-22_16h16.44.901,judgeSpeechMusic_20210407_logNormShiftAmp,2020.1.2,MacIntel,60,,,,,,,,,,,,,,,,,,,,,,,,,,1,6.405415,,0,1,27,177,56,1,stimuli/stim_20210407_power2amp/equal_lnn_AM2.4Hz_36.m4a,,,
,,,,,37375,2021-04-22_16h16.44.901,judgeSpeechMusic_20210407_logNormShiftAmp,2020.1.2,MacIntel,60,,,,,,,,,,,,,,,,,,,,,,,,,,1,5.58546,,0,1,28,178,24,1,stimuli/stim_20210407_power2amp/equal_lnn_AM1.2Hz_43.m4a,,,
,,,,,37375,2021-04-22_16h16.44.901,judgeSpeechMusic_20210407_logNormShiftAmp,2020.1.2,MacIntel,60,,,,,,,,,,,,,,,,,,,,,,,,,,2,6.20567,,0,1,29,179,99,1,stimuli/stim_20210407_power2amp/equal_lnn_AM4.2Hz_30.m4a,,,
,,,,,37375,2021-04-22_16h16.44.901,judgeSpeechMusic_20210407_logNormShiftAmp,2020.1.2,MacIntel,60,,,,,,,,,,,,,,,,,,,,,,,,,,2,5.57558,,0,1,30,180,110,1,stimuli/stim_20210407_power2amp/equal_lnn_AM4.8Hz_90.m4a,,,
,,,,,37375,2021-04-22_16h16.44.901,judgeSpeechMusic_20210407_logNormShiftAmp,2020.1.2,MacIntel,60,,,,,,,,,,,,,,,,,,,,,,,,,,1,6.10596,,0,1,31,181,30,1,stimuli/stim_20210407_power2amp/equal_lnn_AM1.8Hz_56.m4a,,,
,,,,,37375,2021-04-22_16h16.44.901,judgeSpeechMusic_20210407_logNormShiftAmp,2020.1.2,MacIntel,60,,,,,,,,,,,,,,,,,,,,,,,,,,1,5.967875,,0,1,32,182,90,1,stimuli/stim_20210407_power2amp/equal_lnn_AM4.2Hz_20.m4a,,,
,,,,,37375,2021-04-22_16h16.44.901,judgeSpeechMusic_20210407_logNormShiftAmp,2020.1.2,MacIntel,60,,,,,,,,,,,,,,,,,,,,,,,,,,1,5.56371,,0,1,33,183,1,1,stimuli/stim_20210407_power2amp/equal_lnn_AM0.6Hz_10.m4a,,,
,,,,,37375,2021-04-22_16h16.44.901,judgeSpeechMusic_20210407_logNormShiftAmp,2020.1.2,MacIntel,60,,,,,,,,,,,,,,,,,,,,,,,,,,1,5.4975,,0,1,34,184,38,1,stimuli/stim_20210407_power2amp/equal_lnn_AM1.8Hz_59.m4a,,,
,,,,,37375,2021-04-22_16h16.44.901,judgeSpeechMusic_20210407_logNormShiftAmp,2020.1.2,MacIntel,60,,,,,,,,,,,,,,,,,,,,,,,,,,2,6.52288,,0,1,35,185,120,1,stimuli/stim_20210407_power2amp/equal_lnn_AM5.4Hz_21.m4a,,,
,,,,,37375,2021-04-22_16h16.44.901,judgeSpeechMusic_20210407_logNormShiftAmp,2020.1.2,MacIntel,60,,,,,,,,,,,,,,,,,,,,,,,,,,2,5.510875,,0,1,36,186,137,1,stimuli/stim_20210407_power2amp/equal_lnn_AM6Hz_9.m4a,,,
,,,,,37375,2021-04-22_16h16.44.901,judgeSpeechMusic_20210407_logNormShiftAmp,2020.1.2,MacIntel,60,,,,,,,,,,,,,,,,,,,,,,,,,,2,6.059375,,0,1,37,187,72,1,stimuli/stim_20210407_power2amp/equal_lnn_AM3Hz_24.m4a,,,
,,,,,37375,2021-04-22_16h16.44.901,judgeSpeechMusic_20210407_logNormShiftAmp,2020.1.2,MacIntel,60,,,,,,,,,,,,,,,,,,,,,,,,,,2,6.258625,,0,1,38,188,141,1,stimuli/stim_20210407_power2amp/equal_lnn_AM6Hz_82.m4a,,,
,,,,,37375,2021-04-22_16h16.44.901,judgeSpeechMusic_20210407_logNormShiftAmp,2020.1.2,MacIntel,60,,,,,,,,,,,,,,,,,,,,,,,,,,2,14.910085,,0,1,39,189,87,1,stimuli/stim_20210407_power2amp/equal_lnn_AM3.6Hz_91.m4a,,,
,,,,,37375,2021-04-22_16h16.44.901,judgeSpeechMusic_20210407_logNormShiftAmp,2020.1.2,MacIntel,60,,,,,,,,,,,,,,,,,,,,,,,,,,2,6.24192,,0,1,40,190,50,1,stimuli/stim_20210407_power2amp/equal_lnn_AM2.4Hz_85.m4a,,,
,,,,,37375,2021-04-22_16h16.44.901,judgeSpeechMusic_20210407_logNormShiftAmp,2020.1.2,MacIntel,60,,,,,,,,,,,,,,,,,,,,,,,,,,2,5.77425,,0,1,41,191,121,1,stimuli/stim_20210407_power2amp/equal_lnn_AM5.4Hz_15.m4a,,,
,,,,,37375,2021-04-22_16h16.44.901,judgeSpeechMusic_20210407_logNormShiftAmp,2020.1.2,MacIntel,60,,,,,,,,,,,,,,,,,,,,,,,,,,2,5.52867,4,1,1,42,192,101,1,stimuli/stim_20210407_power2amp/equal_lnn_AM4.2Hz_65.m4a,0.427205,,
,,,,,37375,2021-04-22_16h16.44.901,judgeSpeechMusic_20210407_logNormShiftAmp,2020.1.2,MacIntel,60,,,,,,,,,,,,,,,,,,,,,,,,,,2,6.040545,,0,1,43,193,76,1,stimuli/stim_20210407_power2amp/equal_lnn_AM3.6Hz_59.m4a,,,
,,,,,37375,2021-04-22_16h16.44.901,judgeSpeechMusic_20210407_logNormShiftAmp,2020.1.2,MacIntel,60,,,,,,,,,,,,,,,,,,,,,,,,,,2,6.04092,,0,1,44,194,19,1,stimuli/stim_20210407_power2amp/equal_lnn_AM1.2Hz_97.m4a,,,
,,,,,37375,2021-04-22_16h16.44.901,judgeSpeechMusic_20210407_logNormShiftAmp,2020.1.2,MacIntel,60,,,,,,,,,,,,,,,,,,,,,,,,,,2,5.50825,,0,1,45,195,130,1,stimuli/stim_20210407_power2amp/equal_lnn_AM5.4Hz_47.m4a,,,
,,,,,37375,2021-04-22_16h16.44.901,judgeSpeechMusic_20210407_logNormShiftAmp,2020.1.2,MacIntel,60,,,,,,,,,,,,,,,,,,,,,,,,,,2,5.55925,,0,1,46,196,125,1,stimuli/stim_20210407_power2amp/equal_lnn_AM5.4Hz_23.m4a,,,
,,,,,37375,2021-04-22_16h16.44.901,judgeSpeechMusic_20210407_logNormShiftAmp,2020.1.2,MacIntel,60,,,,,,,,,,,,,,,,,,,,,,,,,,1,5.542505,,0,1,47,197,32,1,stimuli/stim_20210407_power2amp/equal_lnn_AM1.8Hz_70.m4a,,,
,,,,,37375,2021-04-22_16h16.44.901,judgeSpeechMusic_20210407_logNormShiftAmp,2020.1.2,MacIntel,60,,,,,,,,,,,,,,,,,,,,,,,,,,1,5.543835,,0,1,48,198,42,1,stimuli/stim_20210407_power2amp/equal_lnn_AM1.8Hz_34.m4a,,,
,,,,,37375,2021-04-22_16h16.44.901,judgeSpeechMusic_20210407_logNormShiftAmp,2020.1.2,MacIntel,60,,,,,,,,,,,,,,,,,,,,,,,,,,1,7.64625,,0,1,49,199,61,1,stimuli/stim_20210407_power2amp/equal_lnn_AM3Hz_99.m4a,,,
,,,,,37375,2021-04-22_16h16.44.901,judgeSpeechMusic_20210407_logNormShiftAmp,2020.1.2,MacIntel,60,,,,,,,,,,,,,,,,,,,,,,,,,,2,7.396205,,0,1,50,200,126,1,stimuli/stim_20210407_power2amp/equal_lnn_AM5.4Hz_9.m4a,,,
,,,,,37375,2021-04-22_16h16.44.901,judgeSpeechMusic_20210407_logNormShiftAmp,2020.1.2,MacIntel,60,,,,,,,,,,,,,,,,,,,,,,,,,,2,5.93721,,0,1,51,201,113,1,stimuli/stim_20210407_power2amp/equal_lnn_AM4.8Hz_21.m4a,,,
,,,,,37375,2021-04-22_16h16.44.901,judgeSpeechMusic_20210407_logNormShiftAmp,2020.1.2,MacIntel,60,,,,,,,,,,,,,,,,,,,,,,,,,,1,7.125455,,0,1,52,202,14,1,stimuli/stim_20210407_power2amp/equal_lnn_AM0.6Hz_54.m4a,,,
,,,,,37375,2021-04-22_16h16.44.901,judgeSpeechMusic_20210407_logNormShiftAmp,2020.1.2,MacIntel,60,,,,,,,,,,,,,,,,,,,,,,,,,,2,5.77617,,0,1,53,203,144,1,stimuli/stim_20210407_power2amp/equal_lnn_AM6Hz_24.m4a,,,
,,,,,37375,2021-04-22_16h16.44.901,judgeSpeechMusic_20210407_logNormShiftAmp,2020.1.2,MacIntel,60,,,,,,,,,,,,,,,,,,,,,,,,,,2,5.670835,,0,1,54,204,134,1,stimuli/stim_20210407_power2amp/equal_lnn_AM5.4Hz_89.m4a,,,
,,,,,37375,2021-04-22_16h16.44.901,judgeSpeechMusic_20210407_logNormShiftAmp,2020.1.2,MacIntel,60,,,,,,,,,,,,,,,,,,,,,,,,,,2,6.44604,,0,1,55,205,47,1,stimuli/stim_20210407_power2amp/equal_lnn_AM2.4Hz_6.m4a,,,
,,,,,37375,2021-04-22_16h16.44.901,judgeSpeechMusic_20210407_logNormShiftAmp,2020.1.2,MacIntel,60,,,,,,,,,,,,,,,,,,,,,,,,,,2,6.8725,,0,1,56,206,65,1,stimuli/stim_20210407_power2amp/equal_lnn_AM3Hz_97.m4a,,,
,,,,,37375,2021-04-22_16h16.44.901,judgeSpeechMusic_20210407_logNormShiftAmp,2020.1.2,MacIntel,60,,,,,,,,,,,,,,,,,,,,,,,,,,2,6.019125,,0,1,57,207,77,1,stimuli/stim_20210407_power2amp/equal_lnn_AM3.6Hz_44.m4a,,,
,,,,,37375,2021-04-22_16h16.44.901,judgeSpeechMusic_20210407_logNormShiftAmp,2020.1.2,MacIntel,60,,,,,,,,,,,,,,,,,,,,,,,,,,1,8.219455,,0,1,58,208,23,1,stimuli/stim_20210407_power2amp/equal_lnn_AM1.2Hz_86.m4a,,,
,,,,,37375,2021-04-22_16h16.44.901,judgeSpeechMusic_20210407_logNormShiftAmp,2020.1.2,MacIntel,60,,,,,,,,,,,,,,,,,,,,,,,,,,2,5.67854,,0,1,59,209,138,1,stimuli/stim_20210407_power2amp/equal_lnn_AM6Hz_90.m4a,,,
,,,,,37375,2021-04-22_16h16.44.901,judgeSpeechMusic_20210407_logNormShiftAmp,2020.1.2,MacIntel,60,,,,,,,,,,,,,,,,,,,,,,,,,,2,14.37262,,0,1,60,210,22,1,stimuli/stim_20210407_power2amp/equal_lnn_AM1.2Hz_28.m4a,,,
,,,,,37375,2021-04-22_16h16.44.901,judgeSpeechMusic_20210407_logNormShiftAmp,2020.1.2,MacIntel,60,,,,,,,,,,,,,,,,,,,,,,,,,,2,6.3715,,0,1,61,211,114,1,stimuli/stim_20210407_power2amp/equal_lnn_AM4.8Hz_85.m4a,,,
,,,,,37375,2021-04-22_16h16.44.901,judgeSpeechMusic_20210407_logNormShiftAmp,2020.1.2,MacIntel,60,,,,,,,,,,,,,,,,,,,,,,,,,,1,7.08746,,0,1,62,212,11,1,stimuli/stim_20210407_power2amp/equal_lnn_AM0.6Hz_49.m4a,,,
,,,,,37375,2021-04-22_16h16.44.901,judgeSpeechMusic_20210407_logNormShiftAmp,2020.1.2,MacIntel,60,,,,,,,,,,,,,,,,,,,,,,,,,,2,6.107,,0,1,63,213,94,1,stimuli/stim_20210407_power2amp/equal_lnn_AM4.2Hz_28.m4a,,,
,,,,,37375,2021-04-22_16h16.44.901,judgeSpeechMusic_20210407_logNormShiftAmp,2020.1.2,MacIntel,60,,,,,,,,,,,,,,,,,,,,,,,,,,2,5.73529,,0,1,64,214,117,1,stimuli/stim_20210407_power2amp/equal_lnn_AM4.8Hz_65.m4a,,,
,,,,,37375,2021-04-22_16h16.44.901,judgeSpeechMusic_20210407_logNormShiftAmp,2020.1.2,MacIntel,60,,,,,,,,,,,,,,,,,,,,,,,,,,1,7.70254,,0,1,65,215,37,1,stimuli/stim_20210407_power2amp/equal_lnn_AM1.8Hz_69.m4a,,,
,,,,,37375,2021-04-22_16h16.44.901,judgeSpeechMusic_20210407_logNormShiftAmp,2020.1.2,MacIntel,60,,,,,,,,,,,,,,,,,,,,,,,,,,1,6.444165,2,1,1,66,216,46,1,stimuli/stim_20210407_power2amp/equal_lnn_AM2.4Hz_3.m4a,1.120965,,
,,,,,37375,2021-04-22_16h16.44.901,judgeSpeechMusic_20210407_logNormShiftAmp,2020.1.2,MacIntel,60,,,,,,,,,,,,,,,,,,,,,,,,,,1,6.919085,,0,1,67,217,80,1,stimuli/stim_20210407_power2amp/equal_lnn_AM3.6Hz_23.m4a,,,
,,,,,37375,2021-04-22_16h16.44.901,judgeSpeechMusic_20210407_logNormShiftAmp,2020.1.2,MacIntel,60,,,,,,,,,,,,,,,,,,,,,,,,,,2,8.472625,,0,1,68,218,119,1,stimuli/stim_20210407_power2amp/equal_lnn_AM4.8Hz_23.m4a,,,
,,,,,37375,2021-04-22_16h16.44.901,judgeSpeechMusic_20210407_logNormShiftAmp,2020.1.2,MacIntel,60,,,,,,,,,,,,,,,,,,,,,,,,,,1,7.076165,,0,1,69,219,2,1,stimuli/stim_20210407_power2amp/equal_lnn_AM0.6Hz_37.m4a,,,
,,,,,37375,2021-04-22_16h16.44.901,judgeSpeechMusic_20210407_logNormShiftAmp,2020.1.2,MacIntel,60,,,,,,,,,,,,,,,,,,,,,,,,,,1,5.82729,,0,1,70,220,66,1,stimuli/stim_20210407_power2amp/equal_lnn_AM3Hz_43.m4a,,,
,,,,,37375,2021-04-22_16h16.44.901,judgeSpeechMusic_20210407_logNormShiftAmp,2020.1.2,MacIntel,60,,,,,,,,,,,,,,,,,,,,,,,,,,1,5.560375,,0,1,71,221,88,1,stimuli/stim_20210407_power2amp/equal_lnn_AM3.6Hz_18.m4a,,,
,,,,,37375,2021-04-22_16h16.44.901,judgeSpeechMusic_20210407_logNormShiftAmp,2020.1.2,MacIntel,60,,,,,,,,,,,,,,,,,,,,,,,,,,2,6.091375,,0,1,72,222,122,1,stimuli/stim_20210407_power2amp/equal_lnn_AM5.4Hz_69.m4a,,,
,,,,,37375,2021-04-22_16h16.44.901,judgeSpeechMusic_20210407_logNormShiftAmp,2020.1.2,MacIntel,60,,,,,,,,,,,,,,,,,,,,,,,,,,2,5.502,,0,1,73,223,100,1,stimuli/stim_20210407_power2amp/equal_lnn_AM4.2Hz_52.m4a,,,
,,,,,37375,2021-04-22_16h16.44.901,judgeSpeechMusic_20210407_logNormShiftAmp,2020.1.2,MacIntel,60,,,,,,,,,,,,,,,,,,,,,,,,,,2,5.56154,,0,1,74,224,132,1,stimuli/stim_20210407_power2amp/equal_lnn_AM5.4Hz_100.m4a,,,
,,,,,37375,2021-04-22_16h16.44.901,judgeSpeechMusic_20210407_logNormShiftAmp,2020.1.2,MacIntel,60,,,,,,,,,,,,,,,,,,,,,,,,,,2,6.04475,,0,1,75,225,133,1,stimuli/stim_20210407_power2amp/equal_lnn_AM5.4Hz_96.m4a,,,
,,,,,37375,2021-04-22_16h16.44.901,judgeSpeechMusic_20210407_logNormShiftAmp,2020.1.2,MacIntel,60,,,,,,,,,,,,,,,,,,,,,,,,,,1,6.1735,,0,1,76,226,33,1,stimuli/stim_20210407_power2amp/equal_lnn_AM1.8Hz_10.m4a,,,
,,,,,37375,2021-04-22_16h16.44.901,judgeSpeechMusic_20210407_logNormShiftAmp,2020.1.2,MacIntel,60,,,,,,,,,,,,,,,,,,,,,,,,,,1,5.906665,,0,1,77,227,123,1,stimuli/stim_20210407_power2amp/equal_lnn_AM5.4Hz_45.m4a,,,
,,,,,37375,2021-04-22_16h16.44.901,judgeSpeechMusic_20210407_logNormShiftAmp,2020.1.2,MacIntel,60,,,,,,,,,,,,,,,,,,,,,,,,,,1,5.56921,,0,1,78,228,104,1,stimuli/stim_20210407_power2amp/equal_lnn_AM4.2Hz_71.m4a,,,
,,,,,37375,2021-04-22_16h16.44.901,judgeSpeechMusic_20210407_logNormShiftAmp,2020.1.2,MacIntel,60,,,,,,,,,,,,,,,,,,,,,,,,,,1,5.546955,,0,1,79,229,10,1,stimuli/stim_20210407_power2amp/equal_lnn_AM0.6Hz_16.m4a,,,
,,,,,37375,2021-04-22_16h16.44.901,judgeSpeechMusic_20210407_logNormShiftAmp,2020.1.2,MacIntel,60,,,,,,,,,,,,,,,,,,,,,,,,,,1,5.509375,,0,1,80,230,70,1,stimuli/stim_20210407_power2amp/equal_lnn_AM3Hz_86.m4a,,,
,,,,,37375,2021-04-22_16h16.44.901,judgeSpeechMusic_20210407_logNormShiftAmp,2020.1.2,MacIntel,60,,,,,,,,,,,,,,,,,,,,,,,,,,2,5.521,,0,1,81,231,106,1,stimuli/stim_20210407_power2amp/equal_lnn_AM4.8Hz_40.m4a,,,
,,,,,37375,2021-04-22_16h16.44.901,judgeSpeechMusic_20210407_logNormShiftAmp,2020.1.2,MacIntel,60,,,,,,,,,,,,,,,,,,,,,,,,,,1,5.488415,,0,1,82,232,69,1,stimuli/stim_20210407_power2amp/equal_lnn_AM3Hz_59.m4a,,,
,,,,,37375,2021-04-22_16h16.44.901,judgeSpeechMusic_20210407_logNormShiftAmp,2020.1.2,MacIntel,60,,,,,,,,,,,,,,,,,,,,,,,,,,1,5.58879,,0,1,83,233,102,1,stimuli/stim_20210407_power2amp/equal_lnn_AM4.2Hz_27.m4a,,,
,,,,,37375,2021-04-22_16h16.44.901,judgeSpeechMusic_20210407_logNormShiftAmp,2020.1.2,MacIntel,60,,,,,,,,,,,,,,,,,,,,,,,,,,1,5.77142,,0,1,84,234,64,1,stimuli/stim_20210407_power2amp/equal_lnn_AM3Hz_70.m4a,,,
,,,,,37375,2021-04-22_16h16.44.901,judgeSpeechMusic_20210407_logNormShiftAmp,2020.1.2,MacIntel,60,,,,,,,,,,,,,,,,,,,,,,,,,,1,5.554705,,0,1,85,235,105,1,stimuli/stim_20210407_power2amp/equal_lnn_AM4.8Hz_92.m4a,,,
,,,,,37375,2021-04-22_16h16.44.901,judgeSpeechMusic_20210407_logNormShiftAmp,2020.1.2,MacIntel,60,,,,,,,,,,,,,,,,,,,,,,,,,,1,5.269335,,0,1,86,236,112,1,stimuli/stim_20210407_power2amp/equal_lnn_AM4.8Hz_34.m4a,,,
,,,,,37375,2021-04-22_16h16.44.901,judgeSpeechMusic_20210407_logNormShiftAmp,2020.1.2,MacIntel,60,,,,,,,,,,,,,,,,,,,,,,,,,,1,5.86354,,0,1,87,237,148,1,stimuli/stim_20210407_power2amp/equal_lnn_AM6Hz_86.m4a,,,
,,,,,37375,2021-04-22_16h16.44.901,judgeSpeechMusic_20210407_logNormShiftAmp,2020.1.2,MacIntel,60,,,,,,,,,,,,,,,,,,,,,,,,,,1,5.88579,,0,1,88,238,43,1,stimuli/stim_20210407_power2amp/equal_lnn_AM1.8Hz_67.m4a,,,
,,,,,37375,2021-04-22_16h16.44.901,judgeSpeechMusic_20210407_logNormShiftAmp,2020.1.2,MacIntel,60,,,,,,,,,,,,,,,,,,,,,,,,,,1,7.41246,,0,1,89,239,136,1,stimuli/stim_20210407_power2amp/equal_lnn_AM6Hz_37.m4a,,,
,,,,,37375,2021-04-22_16h16.44.901,judgeSpeechMusic_20210407_logNormShiftAmp,2020.1.2,MacIntel,60,,,,,,,,,,,,,,,,,,,,,,,,,,1,5.70929,4,1,1,90,240,17,1,stimuli/stim_20210407_power2amp/equal_lnn_AM1.2Hz_79.m4a,3.242545,,
,,,,,37375,2021-04-22_16h16.44.901,judgeSpeechMusic_20210407_logNormShiftAmp,2020.1.2,MacIntel,60,,,,,,,,,,,,,,,,,,,,,,,,,,1,7.627205,,0,1,91,241,48,1,stimuli/stim_20210407_power2amp/equal_lnn_AM2.4Hz_24.m4a,,,
,,,,,37375,2021-04-22_16h16.44.901,judgeSpeechMusic_20210407_logNormShiftAmp,2020.1.2,MacIntel,60,,,,,,,,,,,,,,,,,,,,,,,,,,2,5.719875,,0,1,92,242,111,1,stimuli/stim_20210407_power2amp/equal_lnn_AM4.8Hz_72.m4a,,,
,,,,,37375,2021-04-22_16h16.44.901,judgeSpeechMusic_20210407_logNormShiftAmp,2020.1.2,MacIntel,60,,,,,,,,,,,,,,,,,,,,,,,,,,1,5.95187,,0,1,93,243,97,1,stimuli/stim_20210407_power2amp/equal_lnn_AM4.2Hz_57.m4a,,,
,,,,,37375,2021-04-22_16h16.44.901,judgeSpeechMusic_20210407_logNormShiftAmp,2020.1.2,MacIntel,60,,,,,,,,,,,,,,,,,,,,,,,,,,2,6.053165,,0,1,94,244,86,1,stimuli/stim_20210407_power2amp/equal_lnn_AM3.6Hz_24.m4a,,,
,,,,,37375,2021-04-22_16h16.44.901,judgeSpeechMusic_20210407_logNormShiftAmp,2020.1.2,MacIntel,60,,,,,,,,,,,,,,,,,,,,,,,,,,2,5.970915,,0,1,95,245,92,1,stimuli/stim_20210407_power2amp/equal_lnn_AM4.2Hz_94.m4a,,,
,,,,,37375,2021-04-22_16h16.44.901,judgeSpeechMusic_20210407_logNormShiftAmp,2020.1.2,MacIntel,60,,,,,,,,,,,,,,,,,,,,,,,,,,1,6.12362,,0,1,96,246,34,1,stimuli/stim_20210407_power2amp/equal_lnn_AM1.8Hz_41.m4a,,,
,,,,,37375,2021-04-22_16h16.44.901,judgeSpeechMusic_20210407_logNormShiftAmp,2020.1.2,MacIntel,60,,,,,,,,,,,,,,,,,,,,,,,,,,2,5.56129,,0,1,97,247,124,1,stimuli/stim_20210407_power2amp/equal_lnn_AM5.4Hz_43.m4a,,,
,,,,,37375,2021-04-22_16h16.44.901,judgeSpeechMusic_20210407_logNormShiftAmp,2020.1.2,MacIntel,60,,,,,,,,,,,,,,,,,,,,,,,,,,1,5.852085,,0,1,98,248,96,1,stimuli/stim_20210407_power2amp/equal_lnn_AM4.2Hz_5.m4a,,,
,,,,,37375,2021-04-22_16h16.44.901,judgeSpeechMusic_20210407_logNormShiftAmp,2020.1.2,MacIntel,60,,,,,,,,,,,,,,,,,,,,,,,,,,1,5.97212,,0,1,99,249,53,1,stimuli/stim_20210407_power2amp/equal_lnn_AM2.4Hz_40.m4a,,,
,,,,,37375,2021-04-22_16h16.44.901,judgeSpeechMusic_20210407_logNormShiftAmp,2020.1.2,MacIntel,60,,,,,,,,,,,,,,,,,,,,,,,,,,1,5.620745,,0,1,100,250,142,1,stimuli/stim_20210407_power2amp/equal_lnn_AM6Hz_16.m4a,,,
,,,,,37375,2021-04-22_16h16.44.901,judgeSpeechMusic_20210407_logNormShiftAmp,2020.1.2,MacIntel,60,,,,,,,,,,,,,,,,,,,,,,,,,,1,5.61871,,0,1,101,251,145,1,stimuli/stim_20210407_power2amp/equal_lnn_AM6Hz_63.m4a,,,
,,,,,37375,2021-04-22_16h16.44.901,judgeSpeechMusic_20210407_logNormShiftAmp,2020.1.2,MacIntel,60,,,,,,,,,,,,,,,,,,,,,,,,,,1,5.798415,,0,1,102,252,40,1,stimuli/stim_20210407_power2amp/equal_lnn_AM1.8Hz_43.m4a,,,
,,,,,37375,2021-04-22_16h16.44.901,judgeSpeechMusic_20210407_logNormShiftAmp,2020.1.2,MacIntel,60,,,,,,,,,,,,,,,,,,,,,,,,,,2,5.93704,,0,1,103,253,91,1,stimuli/stim_20210407_power2amp/equal_lnn_AM4.2Hz_18.m4a,,,
,,,,,37375,2021-04-22_16h16.44.901,judgeSpeechMusic_20210407_logNormShiftAmp,2020.1.2,MacIntel,60,,,,,,,,,,,,,,,,,,,,,,,,,,2,6.868045,,0,1,104,254,103,1,stimuli/stim_20210407_power2amp/equal_lnn_AM4.2Hz_88.m4a,,,
,,,,,37375,2021-04-22_16h16.44.901,judgeSpeechMusic_20210407_logNormShiftAmp,2020.1.2,MacIntel,60,,,,,,,,,,,,,,,,,,,,,,,,,,1,6.04479,,0,1,105,255,12,1,stimuli/stim_20210407_power2amp/equal_lnn_AM0.6Hz_48.m4a,,,
,,,,,37375,2021-04-22_16h16.44.901,judgeSpeechMusic_20210407_logNormShiftAmp,2020.1.2,MacIntel,60,,,,,,,,,,,,,,,,,,,,,,,,,,1,6.19125,,0,1,106,256,51,1,stimuli/stim_20210407_power2amp/equal_lnn_AM2.4Hz_50.m4a,,,
,,,,,37375,2021-04-22_16h16.44.901,judgeSpeechMusic_20210407_logNormShiftAmp,2020.1.2,MacIntel,60,,,,,,,,,,,,,,,,,,,,,,,,,,1,5.740875,,0,1,107,257,20,1,stimuli/stim_20210407_power2amp/equal_lnn_AM1.2Hz_45.m4a,,,
,,,,,37375,2021-04-22_16h16.44.901,judgeSpeechMusic_20210407_logNormShiftAmp,2020.1.2,MacIntel,60,,,,,,,,,,,,,,,,,,,,,,,,,,2,6.657165,,0,1,108,258,116,1,stimuli/stim_20210407_power2amp/equal_lnn_AM4.8Hz_19.m4a,,,
,,,,,37375,2021-04-22_16h16.44.901,judgeSpeechMusic_20210407_logNormShiftAmp,2020.1.2,MacIntel,60,,,,,,,,,,,,,,,,,,,,,,,,,,1,6.40617,,0,1,109,259,139,1,stimuli/stim_20210407_power2amp/equal_lnn_AM6Hz_8.m4a,,,
,,,,,37375,2021-04-22_16h16.44.901,judgeSpeechMusic_20210407_logNormShiftAmp,2020.1.2,MacIntel,60,,,,,,,,,,,,,,,,,,,,,,,,,,1,10.206415,,0,1,110,260,93,1,stimuli/stim_20210407_power2amp/equal_lnn_AM4.2Hz_74.m4a,,,
,,,,,37375,2021-04-22_16h16.44.901,judgeSpeechMusic_20210407_logNormShiftAmp,2020.1.2,MacIntel,60,,,,,,,,,,,,,,,,,,,,,,,,,,1,5.90767,,0,1,111,261,107,1,stimuli/stim_20210407_power2amp/equal_lnn_AM4.8Hz_94.m4a,,,
,,,,,37375,2021-04-22_16h16.44.901,judgeSpeechMusic_20210407_logNormShiftAmp,2020.1.2,MacIntel,60,,,,,,,,,,,,,,,,,,,,,,,,,,1,5.593245,,0,1,112,262,58,1,stimuli/stim_20210407_power2amp/equal_lnn_AM2.4Hz_48.m4a,,,
,,,,,37375,2021-04-22_16h16.44.901,judgeSpeechMusic_20210407_logNormShiftAmp,2020.1.2,MacIntel,60,,,,,,,,,,,,,,,,,,,,,,,,,,2,5.720665,,0,1,113,263,71,1,stimuli/stim_20210407_power2amp/equal_lnn_AM3Hz_84.m4a,,,
,,,,,37375,2021-04-22_16h16.44.901,judgeSpeechMusic_20210407_logNormShiftAmp,2020.1.2,MacIntel,60,,,,,,,,,,,,,,,,,,,,,,,,,,2,18.92608,,0,1,114,264,36,1,stimuli/stim_20210407_power2amp/equal_lnn_AM1.8Hz_49.m4a,,,
,,,,,37375,2021-04-22_16h16.44.901,judgeSpeechMusic_20210407_logNormShiftAmp,2020.1.2,MacIntel,60,,,,,,,,,,,,,,,,,,,,,,,,,,1,6.2385,1,1,1,115,265,52,1,stimuli/stim_20210407_power2amp/equal_lnn_AM2.4Hz_95.m4a,1.273375,,
,,,,,37375,2021-04-22_16h16.44.901,judgeSpeechMusic_20210407_logNormShiftAmp,2020.1.2,MacIntel,60,,,,,,,,,,,,,,,,,,,,,,,,,,1,5.64029,,0,1,116,266,82,1,stimuli/stim_20210407_power2amp/equal_lnn_AM3.6Hz_72.m4a,,,
,,,,,37375,2021-04-22_16h16.44.901,judgeSpeechMusic_20210407_logNormShiftAmp,2020.1.2,MacIntel,60,,,,,,,,,,,,,,,,,,,,,,,,,,2,6.07071,,0,1,117,267,147,1,stimuli/stim_20210407_power2amp/equal_lnn_AM6Hz_83.m4a,,,
,,,,,37375,2021-04-22_16h16.44.901,judgeSpeechMusic_20210407_logNormShiftAmp,2020.1.2,MacIntel,60,,,,,,,,,,,,,,,,,,,,,,,,,,2,6.62142,,0,1,118,268,131,1,stimuli/stim_20210407_power2amp/equal_lnn_AM5.4Hz_88.m4a,,,
,,,,,37375,2021-04-22_16h16.44.901,judgeSpeechMusic_20210407_logNormShiftAmp,2020.1.2,MacIntel,60,,,,,,,,,,,,,,,,,,,,,,,,,,1,6.13592,,0,1,119,269,108,1,stimuli/stim_20210407_power2amp/equal_lnn_AM4.8Hz_80.m4a,,,
,,,,,37375,2021-04-22_16h16.44.901,judgeSpeechMusic_20210407_logNormShiftAmp,2020.1.2,MacIntel,60,,,,,,,,,,,,,,,,,,,,,,,,,,1,6.395915,,0,1,120,270,128,1,stimuli/stim_20210407_power2amp/equal_lnn_AM5.4Hz_99.m4a,,,
,,,,,37375,2021-04-22_16h16.44.901,judgeSpeechMusic_20210407_logNormShiftAmp,2020.1.2,MacIntel,60,,,,,,,,,,,,,,,,,,,,,,,,,,1,5.56317,,0,1,121,271,26,1,stimuli/stim_20210407_power2amp/equal_lnn_AM1.2Hz_62.m4a,,,
,,,,,37375,2021-04-22_16h16.44.901,judgeSpeechMusic_20210407_logNormShiftAmp,2020.1.2,MacIntel,60,,,,,,,,,,,,,,,,,,,,,,,,,,1,6.071455,,0,1,122,272,149,1,stimuli/stim_20210407_power2amp/equal_lnn_AM6Hz_55.m4a,,,
,,,,,37375,2021-04-22_16h16.44.901,judgeSpeechMusic_20210407_logNormShiftAmp,2020.1.2,MacIntel,60,,,,,,,,,,,,,,,,,,,,,,,,,,2,7.812835,,0,1,123,273,146,1,stimuli/stim_20210407_power2amp/equal_lnn_AM6Hz_48.m4a,,,
,,,,,37375,2021-04-22_16h16.44.901,judgeSpeechMusic_20210407_logNormShiftAmp,2020.1.2,MacIntel,60,,,,,,,,,,,,,,,,,,,,,,,,,,1,7.059915,,0,1,124,274,73,1,stimuli/stim_20210407_power2amp/equal_lnn_AM3Hz_15.m4a,,,
,,,,,37375,2021-04-22_16h16.44.901,judgeSpeechMusic_20210407_logNormShiftAmp,2020.1.2,MacIntel,60,,,,,,,,,,,,,,,,,,,,,,,,,,1,6.095,,0,1,125,275,16,1,stimuli/stim_20210407_power2amp/equal_lnn_AM1.2Hz_14.m4a,,,
,,,,,37375,2021-04-22_16h16.44.901,judgeSpeechMusic_20210407_logNormShiftAmp,2020.1.2,MacIntel,60,,,,,,,,,,,,,,,,,,,,,,,,,,1,6.003915,,0,1,126,276,54,1,stimuli/stim_20210407_power2amp/equal_lnn_AM2.4Hz_77.m4a,,,
,,,,,37375,2021-04-22_16h16.44.901,judgeSpeechMusic_20210407_logNormShiftAmp,2020.1.2,MacIntel,60,,,,,,,,,,,,,,,,,,,,,,,,,,1,6.353415,,0,1,127,277,85,1,stimuli/stim_20210407_power2amp/equal_lnn_AM3.6Hz_82.m4a,,,
,,,,,37375,2021-04-22_16h16.44.901,judgeSpeechMusic_20210407_logNormShiftAmp,2020.1.2,MacIntel,60,,,,,,,,,,,,,,,,,,,,,,,,,,1,5.968375,,0,1,128,278,44,1,stimuli/stim_20210407_power2amp/equal_lnn_AM1.8Hz_91.m4a,,,
,,,,,37375,2021-04-22_16h16.44.901,judgeSpeechMusic_20210407_logNormShiftAmp,2020.1.2,MacIntel,60,,,,,,,,,,,,,,,,,,,,,,,,,,1,5.57446,,0,1,129,279,28,1,stimuli/stim_20210407_power2amp/equal_lnn_AM1.2Hz_61.m4a,,,
,,,,,37375,2021-04-22_16h16.44.901,judgeSpeechMusic_20210407_logNormShiftAmp,2020.1.2,MacIntel,60,,,,,,,,,,,,,,,,,,,,,,,,,,2,5.87421,,0,1,130,280,95,1,stimuli/stim_20210407_power2amp/equal_lnn_AM4.2Hz_97.m4a,,,
,,,,,37375,2021-04-22_16h16.44.901,judgeSpeechMusic_20210407_logNormShiftAmp,2020.1.2,MacIntel,60,,,,,,,,,,,,,,,,,,,,,,,,,,2,5.50633,,0,1,131,281,118,1,stimuli/stim_20210407_power2amp/equal_lnn_AM4.8Hz_27.m4a,,,
,,,,,37375,2021-04-22_16h16.44.901,judgeSpeechMusic_20210407_logNormShiftAmp,2020.1.2,MacIntel,60,,,,,,,,,,,,,,,,,,,,,,,,,,1,5.72296,,0,1,132,282,21,1,stimuli/stim_20210407_power2amp/equal_lnn_AM1.2Hz_29.m4a,,,
,,,,,37375,2021-04-22_16h16.44.901,judgeSpeechMusic_20210407_logNormShiftAmp,2020.1.2,MacIntel,60,,,,,,,,,,,,,,,,,,,,,,,,,,2,5.74471,,0,1,133,283,89,1,stimuli/stim_20210407_power2amp/equal_lnn_AM3.6Hz_17.m4a,,,
,,,,,37375,2021-04-22_16h16.44.901,judgeSpeechMusic_20210407_logNormShiftAmp,2020.1.2,MacIntel,60,,,,,,,,,,,,,,,,,,,,,,,,,,1,5.92021,,0,1,134,284,7,1,stimuli/stim_20210407_power2amp/equal_lnn_AM0.6Hz_28.m4a,,,
,,,,,37375,2021-04-22_16h16.44.901,judgeSpeechMusic_20210407_logNormShiftAmp,2020.1.2,MacIntel,60,,,,,,,,,,,,,,,,,,,,,,,,,,1,5.555045,4,1,1,135,285,81,1,stimuli/stim_20210407_power2amp/equal_lnn_AM3.6Hz_49.m4a,1.43142,,
,,,,,37375,2021-04-22_16h16.44.901,judgeSpeechMusic_20210407_logNormShiftAmp,2020.1.2,MacIntel,60,,,,,,,,,,,,,,,,,,,,,,,,,,1,6.99654,,0,1,136,286,27,1,stimuli/stim_20210407_power2amp/equal_lnn_AM1.2Hz_75.m4a,,,
,,,,,37375,2021-04-22_16h16.44.901,judgeSpeechMusic_20210407_logNormShiftAmp,2020.1.2,MacIntel,60,,,,,,,,,,,,,,,,,,,,,,,,,,2,5.537,,0,1,137,287,84,1,stimuli/stim_20210407_power2amp/equal_lnn_AM3.6Hz_84.m4a,,,
,,,,,37375,2021-04-22_16h16.44.901,judgeSpeechMusic_20210407_logNormShiftAmp,2020.1.2,MacIntel,60,,,,,,,,,,,,,,,,,,,,,,,,,,1,5.660585,,0,1,138,288,3,1,stimuli/stim_20210407_power2amp/equal_lnn_AM0.6Hz_73.m4a,,,
,,,,,37375,2021-04-22_16h16.44.901,judgeSpeechMusic_20210407_logNormShiftAmp,2020.1.2,MacIntel,60,,,,,,,,,,,,,,,,,,,,,,,,,,2,5.806745,,0,1,139,289,127,1,stimuli/stim_20210407_power2amp/equal_lnn_AM5.4Hz_33.m4a,,,
,,,,,37375,2021-04-22_16h16.44.901,judgeSpeechMusic_20210407_logNormShiftAmp,2020.1.2,MacIntel,60,,,,,,,,,,,,,,,,,,,,,,,,,,2,6.02612,,0,1,140,290,68,1,stimuli/stim_20210407_power2amp/equal_lnn_AM3Hz_51.m4a,,,
,,,,,37375,2021-04-22_16h16.44.901,judgeSpeechMusic_20210407_logNormShiftAmp,2020.1.2,MacIntel,60,,,,,,,,,,,,,,,,,,,,,,,,,,1,5.593545,,0,1,141,291,109,1,stimuli/stim_20210407_power2amp/equal_lnn_AM4.8Hz_2.m4a,,,
,,,,,37375,2021-04-22_16h16.44.901,judgeSpeechMusic_20210407_logNormShiftAmp,2020.1.2,MacIntel,60,,,,,,,,,,,,,,,,,,,,,,,,,,1,5.51271,,0,1,142,292,63,1,stimuli/stim_20210407_power2amp/equal_lnn_AM3Hz_42.m4a,,,
,,,,,37375,2021-04-22_16h16.44.901,judgeSpeechMusic_20210407_logNormShiftAmp,2020.1.2,MacIntel,60,,,,,,,,,,,,,,,,,,,,,,,,,,1,5.51525,,0,1,143,293,4,1,stimuli/stim_20210407_power2amp/equal_lnn_AM0.6Hz_22.m4a,,,
,,,,,37375,2021-04-22_16h16.44.901,judgeSpeechMusic_20210407_logNormShiftAmp,2020.1.2,MacIntel,60,,,,,,,,,,,,,,,,,,,,,,,,,,2,5.55629,,0,1,144,294,98,1,stimuli/stim_20210407_power2amp/equal_lnn_AM4.2Hz_75.m4a,,,
,,,,,37375,2021-04-22_16h16.44.901,judgeSpeechMusic_20210407_logNormShiftAmp,2020.1.2,MacIntel,60,,,,,,,,,,,,,,,,,,,,,,,,,,1,5.676165,,0,1,145,295,6,1,stimuli/stim_20210407_power2amp/equal_lnn_AM0.6Hz_2.m4a,,,
,,,,,37375,2021-04-22_16h16.44.901,judgeSpeechMusic_20210407_logNormShiftAmp,2020.1.2,MacIntel,60,,,,,,,,,,,,,,,,,,,,,,,,,,2,6.03746,,0,1,146,296,129,1,stimuli/stim_20210407_power2amp/equal_lnn_AM5.4Hz_61.m4a,,,
,,,,,37375,2021-04-22_16h16.44.901,judgeSpeechMusic_20210407_logNormShiftAmp,2020.1.2,MacIntel,60,,,,,,,,,,,,,,,,,,,,,,,,,,1,5.64596,,0,1,147,297,35,1,stimuli/stim_20210407_power2amp/equal_lnn_AM1.8Hz_48.m4a,,,
,,,,,37375,2021-04-22_16h16.44.901,judgeSpeechMusic_20210407_logNormShiftAmp,2020.1.2,MacIntel,60,,,,,,,,,,,,,,,,,,,,,,,,,,1,5.549375,,0,1,148,298,9,1,stimuli/stim_20210407_power2amp/equal_lnn_AM0.6Hz_26.m4a,,,
,,,,,37375,2021-04-22_16h16.44.901,judgeSpeechMusic_20210407_logNormShiftAmp,2020.1.2,MacIntel,60,,,,,,,,,,,,,,,,,,,,,,,,,,1,5.940415,,0,1,149,299,83,1,stimuli/stim_20210407_power2amp/equal_lnn_AM3.6Hz_66.m4a,,,
,,,,,37375,2021-04-22_16h16.44.901,judgeSpeechMusic_20210407_logNormShiftAmp,2020.1.2,MacIntel,60,,,,,,,,,,,,,,,,,,,,,,,,,,,,,,,,,,,,,space,5.8365
