volAdjustRep.thisRepN,volAdjustRep.thisTrialN,volAdjustRep.thisN,volAdjustRep.thisIndex,volAdjustRep.ran,participant,date,expName,psychopyVersion,OS,frameRate,headphoneResponse.keys,headphoneResponse.corr,headphoneResponse.rt,headphoneTrial.thisRepN,headphoneTrial.thisTrialN,headphoneTrial.thisN,headphoneTrial.thisIndex,headphoneTrial.ran,headphone_sound1,headphone_sound2,headphone_sound3,corrAns,trainSlider.response,trainSlider.rt,beepTrainResponse.keys,beepTrainResponse.corr,trainingTrials.thisRepN,trainingTrials.thisTrialN,trainingTrials.thisN,trainingTrials.thisIndex,trainingTrials.ran,trainAudioFile,beepTrainResponse.rt,readyReal_resp.keys,readyReal_resp.rt,ratingSlider.response,ratingSlider.rt,beepResp.keys,beepResp.corr,expTrials.thisRepN,expTrials.thisTrialN,expTrials.thisN,expTrials.thisIndex,expTrials.ran,audioFile,beepResp.rt,end_resp.keys,end_resp.rt
0,0,0,0,1,38116,2021-05-08_17h18.57.542,judgeSpeechMusic_20210407_logNormShiftAmp,2020.1.2,Win32,60,,,,,,,,,,,,,,,,,,,,,,,,,,,,,,,,,,,,,,
,,,,,38116,2021-05-08_17h18.57.542,judgeSpeechMusic_20210407_logNormShiftAmp,2020.1.2,Win32,60,1,1,4.053055,0,0,0,4,1,stimuli/screen_quiet.wav,stimuli/screen_antiphase.wav,stimuli/screen_origin.wav,1,,,,,,,,,,,,,,,,,,,,,,,,,,
,,,,,38116,2021-05-08_17h18.57.542,judgeSpeechMusic_20210407_logNormShiftAmp,2020.1.2,Win32,60,3,1,0.96176,0,1,1,2,1,stimuli/screen_origin.wav,stimuli/screen_antiphase.wav,stimuli/screen_quiet.wav,3,,,,,,,,,,,,,,,,,,,,,,,,,,
,,,,,38116,2021-05-08_17h18.57.542,judgeSpeechMusic_20210407_logNormShiftAmp,2020.1.2,Win32,60,1,1,0.52847,0,2,2,5,1,stimuli/screen_quiet.wav,stimuli/screen_origin.wav,stimuli/screen_antiphase.wav,1,,,,,,,,,,,,,,,,,,,,,,,,,,
,,,,,38116,2021-05-08_17h18.57.542,judgeSpeechMusic_20210407_logNormShiftAmp,2020.1.2,Win32,60,2,1,0.337305,0,3,3,1,1,stimuli/screen_antiphase.wav,stimuli/screen_quiet.wav,stimuli/screen_origin.wav,2,,,,,,,,,,,,,,,,,,,,,,,,,,
,,,,,38116,2021-05-08_17h18.57.542,judgeSpeechMusic_20210407_logNormShiftAmp,2020.1.2,Win32,60,2,1,0.292595,0,4,4,3,1,stimuli/screen_origin.wav,stimuli/screen_quiet.wav,stimuli/screen_antiphase.wav,2,,,,,,,,,,,,,,,,,,,,,,,,,,
,,,,,38116,2021-05-08_17h18.57.542,judgeSpeechMusic_20210407_logNormShiftAmp,2020.1.2,Win32,60,3,1,0.54205,0,5,5,0,1,stimuli/screen_antiphase.wav,stimuli/screen_origin.wav,stimuli/screen_quiet.wav,3,,,,,,,,,,,,,,,,,,,,,,,,,,
,,,,,38116,2021-05-08_17h18.57.542,judgeSpeechMusic_20210407_logNormShiftAmp,2020.1.2,Win32,60,,,,,,,,,,,,,1,14.03004,,0,0,0,0,3,1,stimuli/stim_20210407_power2amp/equal_lnn_AM_training5.1Hz.m4a,,,,,,,,,,,,,,,,
,,,,,38116,2021-05-08_17h18.57.542,judgeSpeechMusic_20210407_logNormShiftAmp,2020.1.2,Win32,60,,,,,,,,,,,,,1,6.67075,,0,0,1,1,2,1,stimuli/stim_20210407_power2amp/equal_lnn_AM_training3.9Hz.m4a,,,,,,,,,,,,,,,,
,,,,,38116,2021-05-08_17h18.57.542,judgeSpeechMusic_20210407_logNormShiftAmp,2020.1.2,Win32,60,,,,,,,,,,,,,1,6.91981,3,1,0,2,2,0,1,stimuli/stim_20210407_power2amp/equal_lnn_AM_training1.5Hz.m4a,5.94917,,,,,,,,,,,,,,,
,,,,,38116,2021-05-08_17h18.57.542,judgeSpeechMusic_20210407_logNormShiftAmp,2020.1.2,Win32,60,,,,,,,,,,,,,1,8.412645,,0,0,3,3,1,1,stimuli/stim_20210407_power2amp/equal_lnn_AM_training2.7Hz.m4a,,,,,,,,,,,,,,,,
,,,,,38116,2021-05-08_17h18.57.542,judgeSpeechMusic_20210407_logNormShiftAmp,2020.1.2,Win32,60,,,,,,,,,,,,,,,,,,,,,,,,space,7.858825,1,6.41879,,0,0,0,0,64,1,stimuli/stim_20210407_power2amp/equal_lnn_AM3Hz_49.m4a,,,
,,,,,38116,2021-05-08_17h18.57.542,judgeSpeechMusic_20210407_logNormShiftAmp,2020.1.2,Win32,60,,,,,,,,,,,,,,,,,,,,,,,,,,1,7.224305,,0,0,1,1,122,1,stimuli/stim_20210407_power2amp/equal_lnn_AM5.4Hz_7.m4a,,,
,,,,,38116,2021-05-08_17h18.57.542,judgeSpeechMusic_20210407_logNormShiftAmp,2020.1.2,Win32,60,,,,,,,,,,,,,,,,,,,,,,,,,,1,5.926695,,0,0,2,2,57,1,stimuli/stim_20210407_power2amp/equal_lnn_AM2.4Hz_88.m4a,,,
,,,,,38116,2021-05-08_17h18.57.542,judgeSpeechMusic_20210407_logNormShiftAmp,2020.1.2,Win32,60,,,,,,,,,,,,,,,,,,,,,,,,,,1,6.33281,,0,0,3,3,132,1,stimuli/stim_20210407_power2amp/equal_lnn_AM5.4Hz_92.m4a,,,
,,,,,38116,2021-05-08_17h18.57.542,judgeSpeechMusic_20210407_logNormShiftAmp,2020.1.2,Win32,60,,,,,,,,,,,,,,,,,,,,,,,,,,2,7.950685,,0,0,4,4,8,1,stimuli/stim_20210407_power2amp/equal_lnn_AM0.6Hz_50.m4a,,,
,,,,,38116,2021-05-08_17h18.57.542,judgeSpeechMusic_20210407_logNormShiftAmp,2020.1.2,Win32,60,,,,,,,,,,,,,,,,,,,,,,,,,,1,6.2905,,0,0,5,5,42,1,stimuli/stim_20210407_power2amp/equal_lnn_AM1.8Hz_46.m4a,,,
,,,,,38116,2021-05-08_17h18.57.542,judgeSpeechMusic_20210407_logNormShiftAmp,2020.1.2,Win32,60,,,,,,,,,,,,,,,,,,,,,,,,,,1,6.25373,,0,0,6,6,37,1,stimuli/stim_20210407_power2amp/equal_lnn_AM1.8Hz_96.m4a,,,
,,,,,38116,2021-05-08_17h18.57.542,judgeSpeechMusic_20210407_logNormShiftAmp,2020.1.2,Win32,60,,,,,,,,,,,,,,,,,,,,,,,,,,1,6.899925,,0,0,7,7,66,1,stimuli/stim_20210407_power2amp/equal_lnn_AM3Hz_51.m4a,,,
,,,,,38116,2021-05-08_17h18.57.542,judgeSpeechMusic_20210407_logNormShiftAmp,2020.1.2,Win32,60,,,,,,,,,,,,,,,,,,,,,,,,,,1,5.93511,,0,0,8,8,74,1,stimuli/stim_20210407_power2amp/equal_lnn_AM3Hz_77.m4a,,,
,,,,,38116,2021-05-08_17h18.57.542,judgeSpeechMusic_20210407_logNormShiftAmp,2020.1.2,Win32,60,,,,,,,,,,,,,,,,,,,,,,,,,,1,5.832775,,0,0,9,9,49,1,stimuli/stim_20210407_power2amp/equal_lnn_AM2.4Hz_13.m4a,,,
,,,,,38116,2021-05-08_17h18.57.542,judgeSpeechMusic_20210407_logNormShiftAmp,2020.1.2,Win32,60,,,,,,,,,,,,,,,,,,,,,,,,,,1,6.20005,,0,0,10,10,44,1,stimuli/stim_20210407_power2amp/equal_lnn_AM1.8Hz_45.m4a,,,
,,,,,38116,2021-05-08_17h18.57.542,judgeSpeechMusic_20210407_logNormShiftAmp,2020.1.2,Win32,60,,,,,,,,,,,,,,,,,,,,,,,,,,1,5.701405,,0,0,11,11,131,1,stimuli/stim_20210407_power2amp/equal_lnn_AM5.4Hz_66.m4a,,,
,,,,,38116,2021-05-08_17h18.57.542,judgeSpeechMusic_20210407_logNormShiftAmp,2020.1.2,Win32,60,,,,,,,,,,,,,,,,,,,,,,,,,,2,6.31734,,0,0,12,12,16,1,stimuli/stim_20210407_power2amp/equal_lnn_AM1.2Hz_36.m4a,,,
,,,,,38116,2021-05-08_17h18.57.542,judgeSpeechMusic_20210407_logNormShiftAmp,2020.1.2,Win32,60,,,,,,,,,,,,,,,,,,,,,,,,,,1,6.133405,,0,0,13,13,123,1,stimuli/stim_20210407_power2amp/equal_lnn_AM5.4Hz_38.m4a,,,
,,,,,38116,2021-05-08_17h18.57.542,judgeSpeechMusic_20210407_logNormShiftAmp,2020.1.2,Win32,60,,,,,,,,,,,,,,,,,,,,,,,,,,1,6.162195,,0,0,14,14,97,1,stimuli/stim_20210407_power2amp/equal_lnn_AM4.2Hz_75.m4a,,,
,,,,,38116,2021-05-08_17h18.57.542,judgeSpeechMusic_20210407_logNormShiftAmp,2020.1.2,Win32,60,,,,,,,,,,,,,,,,,,,,,,,,,,1,6.733645,,0,0,15,15,47,1,stimuli/stim_20210407_power2amp/equal_lnn_AM2.4Hz_66.m4a,,,
,,,,,38116,2021-05-08_17h18.57.542,judgeSpeechMusic_20210407_logNormShiftAmp,2020.1.2,Win32,60,,,,,,,,,,,,,,,,,,,,,,,,,,1,5.940195,,0,0,16,16,12,1,stimuli/stim_20210407_power2amp/equal_lnn_AM0.6Hz_40.m4a,,,
,,,,,38116,2021-05-08_17h18.57.542,judgeSpeechMusic_20210407_logNormShiftAmp,2020.1.2,Win32,60,,,,,,,,,,,,,,,,,,,,,,,,,,1,5.83418,,0,0,17,17,13,1,stimuli/stim_20210407_power2amp/equal_lnn_AM0.6Hz_34.m4a,,,
,,,,,38116,2021-05-08_17h18.57.542,judgeSpeechMusic_20210407_logNormShiftAmp,2020.1.2,Win32,60,,,,,,,,,,,,,,,,,,,,,,,,,,1,7.242915,,0,0,18,18,62,1,stimuli/stim_20210407_power2amp/equal_lnn_AM3Hz_36.m4a,,,
,,,,,38116,2021-05-08_17h18.57.542,judgeSpeechMusic_20210407_logNormShiftAmp,2020.1.2,Win32,60,,,,,,,,,,,,,,,,,,,,,,,,,,1,6.216125,,0,0,19,19,102,1,stimuli/stim_20210407_power2amp/equal_lnn_AM4.2Hz_96.m4a,,,
,,,,,38116,2021-05-08_17h18.57.542,judgeSpeechMusic_20210407_logNormShiftAmp,2020.1.2,Win32,60,,,,,,,,,,,,,,,,,,,,,,,,,,1,5.948595,,0,0,20,20,67,1,stimuli/stim_20210407_power2amp/equal_lnn_AM3Hz_71.m4a,,,
,,,,,38116,2021-05-08_17h18.57.542,judgeSpeechMusic_20210407_logNormShiftAmp,2020.1.2,Win32,60,,,,,,,,,,,,,,,,,,,,,,,,,,1,6.48418,,0,0,21,21,22,1,stimuli/stim_20210407_power2amp/equal_lnn_AM1.2Hz_14.m4a,,,
,,,,,38116,2021-05-08_17h18.57.542,judgeSpeechMusic_20210407_logNormShiftAmp,2020.1.2,Win32,60,,,,,,,,,,,,,,,,,,,,,,,,,,1,6.501445,,0,0,22,22,103,1,stimuli/stim_20210407_power2amp/equal_lnn_AM4.2Hz_74.m4a,,,
,,,,,38116,2021-05-08_17h18.57.542,judgeSpeechMusic_20210407_logNormShiftAmp,2020.1.2,Win32,60,,,,,,,,,,,,,,,,,,,,,,,,,,1,6.000095,,0,0,23,23,94,1,stimuli/stim_20210407_power2amp/equal_lnn_AM4.2Hz_38.m4a,,,
,,,,,38116,2021-05-08_17h18.57.542,judgeSpeechMusic_20210407_logNormShiftAmp,2020.1.2,Win32,60,,,,,,,,,,,,,,,,,,,,,,,,,,1,6.303885,,0,0,24,24,63,1,stimuli/stim_20210407_power2amp/equal_lnn_AM3Hz_85.m4a,,,
,,,,,38116,2021-05-08_17h18.57.542,judgeSpeechMusic_20210407_logNormShiftAmp,2020.1.2,Win32,60,,,,,,,,,,,,,,,,,,,,,,,,,,1,7.03419,,0,0,25,25,95,1,stimuli/stim_20210407_power2amp/equal_lnn_AM4.2Hz_97.m4a,,,
,,,,,38116,2021-05-08_17h18.57.542,judgeSpeechMusic_20210407_logNormShiftAmp,2020.1.2,Win32,60,,,,,,,,,,,,,,,,,,,,,,,,,,1,7.40975,,0,0,26,26,32,1,stimuli/stim_20210407_power2amp/equal_lnn_AM1.8Hz_38.m4a,,,
,,,,,38116,2021-05-08_17h18.57.542,judgeSpeechMusic_20210407_logNormShiftAmp,2020.1.2,Win32,60,,,,,,,,,,,,,,,,,,,,,,,,,,2,6.49068,,0,0,27,27,21,1,stimuli/stim_20210407_power2amp/equal_lnn_AM1.2Hz_10.m4a,,,
,,,,,38116,2021-05-08_17h18.57.542,judgeSpeechMusic_20210407_logNormShiftAmp,2020.1.2,Win32,60,,,,,,,,,,,,,,,,,,,,,,,,,,1,6.44362,,0,0,28,28,38,1,stimuli/stim_20210407_power2amp/equal_lnn_AM1.8Hz_9.m4a,,,
,,,,,38116,2021-05-08_17h18.57.542,judgeSpeechMusic_20210407_logNormShiftAmp,2020.1.2,Win32,60,,,,,,,,,,,,,,,,,,,,,,,,,,1,6.791755,,0,0,29,29,50,1,stimuli/stim_20210407_power2amp/equal_lnn_AM2.4Hz_81.m4a,,,
,,,,,38116,2021-05-08_17h18.57.542,judgeSpeechMusic_20210407_logNormShiftAmp,2020.1.2,Win32,60,,,,,,,,,,,,,,,,,,,,,,,,,,1,6.71837,,0,0,30,30,6,1,stimuli/stim_20210407_power2amp/equal_lnn_AM0.6Hz_17.m4a,,,
,,,,,38116,2021-05-08_17h18.57.542,judgeSpeechMusic_20210407_logNormShiftAmp,2020.1.2,Win32,60,,,,,,,,,,,,,,,,,,,,,,,,,,1,7.23323,,0,0,31,31,139,1,stimuli/stim_20210407_power2amp/equal_lnn_AM6Hz_2.m4a,,,
,,,,,38116,2021-05-08_17h18.57.542,judgeSpeechMusic_20210407_logNormShiftAmp,2020.1.2,Win32,60,,,,,,,,,,,,,,,,,,,,,,,,,,1,6.44197,,0,0,32,32,15,1,stimuli/stim_20210407_power2amp/equal_lnn_AM1.2Hz_33.m4a,,,
,,,,,38116,2021-05-08_17h18.57.542,judgeSpeechMusic_20210407_logNormShiftAmp,2020.1.2,Win32,60,,,,,,,,,,,,,,,,,,,,,,,,,,1,7.06639,,0,0,33,33,14,1,stimuli/stim_20210407_power2amp/equal_lnn_AM0.6Hz_88.m4a,,,
,,,,,38116,2021-05-08_17h18.57.542,judgeSpeechMusic_20210407_logNormShiftAmp,2020.1.2,Win32,60,,,,,,,,,,,,,,,,,,,,,,,,,,1,18.587905,4,1,0,34,34,149,1,stimuli/stim_20210407_power2amp/equal_lnn_AM6Hz_82.m4a,3.235095,,
,,,,,38116,2021-05-08_17h18.57.542,judgeSpeechMusic_20210407_logNormShiftAmp,2020.1.2,Win32,60,,,,,,,,,,,,,,,,,,,,,,,,,,1,29.628415,,0,0,35,35,91,1,stimuli/stim_20210407_power2amp/equal_lnn_AM4.2Hz_89.m4a,,,
,,,,,38116,2021-05-08_17h18.57.542,judgeSpeechMusic_20210407_logNormShiftAmp,2020.1.2,Win32,60,,,,,,,,,,,,,,,,,,,,,,,,,,1,7.001105,,0,0,36,36,81,1,stimuli/stim_20210407_power2amp/equal_lnn_AM3.6Hz_3.m4a,,,
,,,,,38116,2021-05-08_17h18.57.542,judgeSpeechMusic_20210407_logNormShiftAmp,2020.1.2,Win32,60,,,,,,,,,,,,,,,,,,,,,,,,,,1,5.90746,,0,0,37,37,109,1,stimuli/stim_20210407_power2amp/equal_lnn_AM4.8Hz_63.m4a,,,
,,,,,38116,2021-05-08_17h18.57.542,judgeSpeechMusic_20210407_logNormShiftAmp,2020.1.2,Win32,60,,,,,,,,,,,,,,,,,,,,,,,,,,1,5.92491,,0,0,38,38,92,1,stimuli/stim_20210407_power2amp/equal_lnn_AM4.2Hz_86.m4a,,,
,,,,,38116,2021-05-08_17h18.57.542,judgeSpeechMusic_20210407_logNormShiftAmp,2020.1.2,Win32,60,,,,,,,,,,,,,,,,,,,,,,,,,,1,5.709915,,0,0,39,39,105,1,stimuli/stim_20210407_power2amp/equal_lnn_AM4.8Hz_30.m4a,,,
,,,,,38116,2021-05-08_17h18.57.542,judgeSpeechMusic_20210407_logNormShiftAmp,2020.1.2,Win32,60,,,,,,,,,,,,,,,,,,,,,,,,,,1,6.287865,,0,0,40,40,40,1,stimuli/stim_20210407_power2amp/equal_lnn_AM1.8Hz_15.m4a,,,
,,,,,38116,2021-05-08_17h18.57.542,judgeSpeechMusic_20210407_logNormShiftAmp,2020.1.2,Win32,60,,,,,,,,,,,,,,,,,,,,,,,,,,1,5.96122,,0,0,41,41,69,1,stimuli/stim_20210407_power2amp/equal_lnn_AM3Hz_13.m4a,,,
,,,,,38116,2021-05-08_17h18.57.542,judgeSpeechMusic_20210407_logNormShiftAmp,2020.1.2,Win32,60,,,,,,,,,,,,,,,,,,,,,,,,,,1,8.00613,,0,0,42,42,110,1,stimuli/stim_20210407_power2amp/equal_lnn_AM4.8Hz_76.m4a,,,
,,,,,38116,2021-05-08_17h18.57.542,judgeSpeechMusic_20210407_logNormShiftAmp,2020.1.2,Win32,60,,,,,,,,,,,,,,,,,,,,,,,,,,2,6.35791,,0,0,43,43,34,1,stimuli/stim_20210407_power2amp/equal_lnn_AM1.8Hz_19.m4a,,,
,,,,,38116,2021-05-08_17h18.57.542,judgeSpeechMusic_20210407_logNormShiftAmp,2020.1.2,Win32,60,,,,,,,,,,,,,,,,,,,,,,,,,,1,6.14459,,0,0,44,44,46,1,stimuli/stim_20210407_power2amp/equal_lnn_AM2.4Hz_27.m4a,,,
,,,,,38116,2021-05-08_17h18.57.542,judgeSpeechMusic_20210407_logNormShiftAmp,2020.1.2,Win32,60,,,,,,,,,,,,,,,,,,,,,,,,,,1,6.155,,0,0,45,45,130,1,stimuli/stim_20210407_power2amp/equal_lnn_AM5.4Hz_88.m4a,,,
,,,,,38116,2021-05-08_17h18.57.542,judgeSpeechMusic_20210407_logNormShiftAmp,2020.1.2,Win32,60,,,,,,,,,,,,,,,,,,,,,,,,,,1,7.17083,,0,0,46,46,2,1,stimuli/stim_20210407_power2amp/equal_lnn_AM0.6Hz_58.m4a,,,
,,,,,38116,2021-05-08_17h18.57.542,judgeSpeechMusic_20210407_logNormShiftAmp,2020.1.2,Win32,60,,,,,,,,,,,,,,,,,,,,,,,,,,1,6.501685,,0,0,47,47,82,1,stimuli/stim_20210407_power2amp/equal_lnn_AM3.6Hz_61.m4a,,,
,,,,,38116,2021-05-08_17h18.57.542,judgeSpeechMusic_20210407_logNormShiftAmp,2020.1.2,Win32,60,,,,,,,,,,,,,,,,,,,,,,,,,,2,6.488575,,0,0,48,48,71,1,stimuli/stim_20210407_power2amp/equal_lnn_AM3Hz_52.m4a,,,
,,,,,38116,2021-05-08_17h18.57.542,judgeSpeechMusic_20210407_logNormShiftAmp,2020.1.2,Win32,60,,,,,,,,,,,,,,,,,,,,,,,,,,2,6.15228,,0,0,49,49,5,1,stimuli/stim_20210407_power2amp/equal_lnn_AM0.6Hz_53.m4a,,,
,,,,,38116,2021-05-08_17h18.57.542,judgeSpeechMusic_20210407_logNormShiftAmp,2020.1.2,Win32,60,,,,,,,,,,,,,,,,,,,,,,,,,,1,7.097935,,0,0,50,50,115,1,stimuli/stim_20210407_power2amp/equal_lnn_AM4.8Hz_79.m4a,,,
,,,,,38116,2021-05-08_17h18.57.542,judgeSpeechMusic_20210407_logNormShiftAmp,2020.1.2,Win32,60,,,,,,,,,,,,,,,,,,,,,,,,,,2,6.124145,,0,0,51,51,119,1,stimuli/stim_20210407_power2amp/equal_lnn_AM4.8Hz_50.m4a,,,
,,,,,38116,2021-05-08_17h18.57.542,judgeSpeechMusic_20210407_logNormShiftAmp,2020.1.2,Win32,60,,,,,,,,,,,,,,,,,,,,,,,,,,1,6.217785,,0,0,52,52,145,1,stimuli/stim_20210407_power2amp/equal_lnn_AM6Hz_14.m4a,,,
,,,,,38116,2021-05-08_17h18.57.542,judgeSpeechMusic_20210407_logNormShiftAmp,2020.1.2,Win32,60,,,,,,,,,,,,,,,,,,,,,,,,,,2,6.51092,,0,0,53,53,148,1,stimuli/stim_20210407_power2amp/equal_lnn_AM6Hz_56.m4a,,,
,,,,,38116,2021-05-08_17h18.57.542,judgeSpeechMusic_20210407_logNormShiftAmp,2020.1.2,Win32,60,,,,,,,,,,,,,,,,,,,,,,,,,,1,6.27067,,0,0,54,54,146,1,stimuli/stim_20210407_power2amp/equal_lnn_AM6Hz_67.m4a,,,
,,,,,38116,2021-05-08_17h18.57.542,judgeSpeechMusic_20210407_logNormShiftAmp,2020.1.2,Win32,60,,,,,,,,,,,,,,,,,,,,,,,,,,2,8.124485,,0,0,55,55,54,1,stimuli/stim_20210407_power2amp/equal_lnn_AM2.4Hz_5.m4a,,,
,,,,,38116,2021-05-08_17h18.57.542,judgeSpeechMusic_20210407_logNormShiftAmp,2020.1.2,Win32,60,,,,,,,,,,,,,,,,,,,,,,,,,,1,6.468525,4,0,0,56,56,31,1,stimuli/stim_20210407_power2amp/equal_lnn_AM1.8Hz_20.m4a,9.04831,,
,,,,,38116,2021-05-08_17h18.57.542,judgeSpeechMusic_20210407_logNormShiftAmp,2020.1.2,Win32,60,,,,,,,,,,,,,,,,,,,,,,,,,,1,8.69829,,0,0,57,57,83,1,stimuli/stim_20210407_power2amp/equal_lnn_AM3.6Hz_51.m4a,,,
,,,,,38116,2021-05-08_17h18.57.542,judgeSpeechMusic_20210407_logNormShiftAmp,2020.1.2,Win32,60,,,,,,,,,,,,,,,,,,,,,,,,,,1,6.807555,,0,0,58,58,0,1,stimuli/stim_20210407_power2amp/equal_lnn_AM0.6Hz_68.m4a,,,
,,,,,38116,2021-05-08_17h18.57.542,judgeSpeechMusic_20210407_logNormShiftAmp,2020.1.2,Win32,60,,,,,,,,,,,,,,,,,,,,,,,,,,1,6.159135,,0,0,59,59,93,1,stimuli/stim_20210407_power2amp/equal_lnn_AM4.2Hz_100.m4a,,,
,,,,,38116,2021-05-08_17h18.57.542,judgeSpeechMusic_20210407_logNormShiftAmp,2020.1.2,Win32,60,,,,,,,,,,,,,,,,,,,,,,,,,,1,6.38328,,0,0,60,60,112,1,stimuli/stim_20210407_power2amp/equal_lnn_AM4.8Hz_68.m4a,,,
,,,,,38116,2021-05-08_17h18.57.542,judgeSpeechMusic_20210407_logNormShiftAmp,2020.1.2,Win32,60,,,,,,,,,,,,,,,,,,,,,,,,,,2,6.039325,,0,0,61,61,80,1,stimuli/stim_20210407_power2amp/equal_lnn_AM3.6Hz_30.m4a,,,
,,,,,38116,2021-05-08_17h18.57.542,judgeSpeechMusic_20210407_logNormShiftAmp,2020.1.2,Win32,60,,,,,,,,,,,,,,,,,,,,,,,,,,1,7.55887,,0,0,62,62,143,1,stimuli/stim_20210407_power2amp/equal_lnn_AM6Hz_37.m4a,,,
,,,,,38116,2021-05-08_17h18.57.542,judgeSpeechMusic_20210407_logNormShiftAmp,2020.1.2,Win32,60,,,,,,,,,,,,,,,,,,,,,,,,,,1,7.4956,,0,0,63,63,100,1,stimuli/stim_20210407_power2amp/equal_lnn_AM4.2Hz_23.m4a,,,
,,,,,38116,2021-05-08_17h18.57.542,judgeSpeechMusic_20210407_logNormShiftAmp,2020.1.2,Win32,60,,,,,,,,,,,,,,,,,,,,,,,,,,1,6.53667,,0,0,64,64,118,1,stimuli/stim_20210407_power2amp/equal_lnn_AM4.8Hz_11.m4a,,,
,,,,,38116,2021-05-08_17h18.57.542,judgeSpeechMusic_20210407_logNormShiftAmp,2020.1.2,Win32,60,,,,,,,,,,,,,,,,,,,,,,,,,,1,6.134165,,0,0,65,65,121,1,stimuli/stim_20210407_power2amp/equal_lnn_AM5.4Hz_35.m4a,,,
,,,,,38116,2021-05-08_17h18.57.542,judgeSpeechMusic_20210407_logNormShiftAmp,2020.1.2,Win32,60,,,,,,,,,,,,,,,,,,,,,,,,,,2,6.1513,,0,0,66,66,43,1,stimuli/stim_20210407_power2amp/equal_lnn_AM1.8Hz_63.m4a,,,
,,,,,38116,2021-05-08_17h18.57.542,judgeSpeechMusic_20210407_logNormShiftAmp,2020.1.2,Win32,60,,,,,,,,,,,,,,,,,,,,,,,,,,1,6.09324,,0,0,67,67,116,1,stimuli/stim_20210407_power2amp/equal_lnn_AM4.8Hz_26.m4a,,,
,,,,,38116,2021-05-08_17h18.57.542,judgeSpeechMusic_20210407_logNormShiftAmp,2020.1.2,Win32,60,,,,,,,,,,,,,,,,,,,,,,,,,,1,5.58349,,0,0,68,68,79,1,stimuli/stim_20210407_power2amp/equal_lnn_AM3.6Hz_42.m4a,,,
,,,,,38116,2021-05-08_17h18.57.542,judgeSpeechMusic_20210407_logNormShiftAmp,2020.1.2,Win32,60,,,,,,,,,,,,,,,,,,,,,,,,,,1,5.61041,,0,0,69,69,106,1,stimuli/stim_20210407_power2amp/equal_lnn_AM4.8Hz_27.m4a,,,
,,,,,38116,2021-05-08_17h18.57.542,judgeSpeechMusic_20210407_logNormShiftAmp,2020.1.2,Win32,60,,,,,,,,,,,,,,,,,,,,,,,,,,1,6.195755,,0,0,70,70,76,1,stimuli/stim_20210407_power2amp/equal_lnn_AM3.6Hz_100.m4a,,,
,,,,,38116,2021-05-08_17h18.57.542,judgeSpeechMusic_20210407_logNormShiftAmp,2020.1.2,Win32,60,,,,,,,,,,,,,,,,,,,,,,,,,,1,6.23537,,0,0,71,71,114,1,stimuli/stim_20210407_power2amp/equal_lnn_AM4.8Hz_93.m4a,,,
,,,,,38116,2021-05-08_17h18.57.542,judgeSpeechMusic_20210407_logNormShiftAmp,2020.1.2,Win32,60,,,,,,,,,,,,,,,,,,,,,,,,,,1,6.145185,,0,0,72,72,96,1,stimuli/stim_20210407_power2amp/equal_lnn_AM4.2Hz_25.m4a,,,
,,,,,38116,2021-05-08_17h18.57.542,judgeSpeechMusic_20210407_logNormShiftAmp,2020.1.2,Win32,60,,,,,,,,,,,,,,,,,,,,,,,,,,2,6.399555,,0,0,73,73,26,1,stimuli/stim_20210407_power2amp/equal_lnn_AM1.2Hz_76.m4a,,,
,,,,,38116,2021-05-08_17h18.57.542,judgeSpeechMusic_20210407_logNormShiftAmp,2020.1.2,Win32,60,,,,,,,,,,,,,,,,,,,,,,,,,,1,6.112575,,0,0,74,74,68,1,stimuli/stim_20210407_power2amp/equal_lnn_AM3Hz_69.m4a,,,
,,,,,38116,2021-05-08_17h18.57.542,judgeSpeechMusic_20210407_logNormShiftAmp,2020.1.2,Win32,60,,,,,,,,,,,,,,,,,,,,,,,,,,2,6.117055,,0,0,75,75,10,1,stimuli/stim_20210407_power2amp/equal_lnn_AM0.6Hz_85.m4a,,,
,,,,,38116,2021-05-08_17h18.57.542,judgeSpeechMusic_20210407_logNormShiftAmp,2020.1.2,Win32,60,,,,,,,,,,,,,,,,,,,,,,,,,,2,6.21663,,0,0,76,76,17,1,stimuli/stim_20210407_power2amp/equal_lnn_AM1.2Hz_17.m4a,,,
,,,,,38116,2021-05-08_17h18.57.542,judgeSpeechMusic_20210407_logNormShiftAmp,2020.1.2,Win32,60,,,,,,,,,,,,,,,,,,,,,,,,,,1,9.30633,,0,0,77,77,1,1,stimuli/stim_20210407_power2amp/equal_lnn_AM0.6Hz_46.m4a,,,
,,,,,38116,2021-05-08_17h18.57.542,judgeSpeechMusic_20210407_logNormShiftAmp,2020.1.2,Win32,60,,,,,,,,,,,,,,,,,,,,,,,,,,1,5.9497,1,1,0,78,78,113,1,stimuli/stim_20210407_power2amp/equal_lnn_AM4.8Hz_21.m4a,1.392105,,
,,,,,38116,2021-05-08_17h18.57.542,judgeSpeechMusic_20210407_logNormShiftAmp,2020.1.2,Win32,60,,,,,,,,,,,,,,,,,,,,,,,,,,1,6.439555,,0,0,79,79,28,1,stimuli/stim_20210407_power2amp/equal_lnn_AM1.2Hz_73.m4a,,,
,,,,,38116,2021-05-08_17h18.57.542,judgeSpeechMusic_20210407_logNormShiftAmp,2020.1.2,Win32,60,,,,,,,,,,,,,,,,,,,,,,,,,,1,7.19869,,0,0,80,80,41,1,stimuli/stim_20210407_power2amp/equal_lnn_AM1.8Hz_59.m4a,,,
,,,,,38116,2021-05-08_17h18.57.542,judgeSpeechMusic_20210407_logNormShiftAmp,2020.1.2,Win32,60,,,,,,,,,,,,,,,,,,,,,,,,,,1,6.047435,,0,0,81,81,135,1,stimuli/stim_20210407_power2amp/equal_lnn_AM6Hz_34.m4a,,,
,,,,,38116,2021-05-08_17h18.57.542,judgeSpeechMusic_20210407_logNormShiftAmp,2020.1.2,Win32,60,,,,,,,,,,,,,,,,,,,,,,,,,,1,6.754835,,0,0,82,82,51,1,stimuli/stim_20210407_power2amp/equal_lnn_AM2.4Hz_57.m4a,,,
,,,,,38116,2021-05-08_17h18.57.542,judgeSpeechMusic_20210407_logNormShiftAmp,2020.1.2,Win32,60,,,,,,,,,,,,,,,,,,,,,,,,,,1,377.26112,,0,0,83,83,45,1,stimuli/stim_20210407_power2amp/equal_lnn_AM2.4Hz_71.m4a,,,
,,,,,38116,2021-05-08_17h18.57.542,judgeSpeechMusic_20210407_logNormShiftAmp,2020.1.2,Win32,60,,,,,,,,,,,,,,,,,,,,,,,,,,1,6.12748,,0,0,84,84,73,1,stimuli/stim_20210407_power2amp/equal_lnn_AM3Hz_67.m4a,,,
,,,,,38116,2021-05-08_17h18.57.542,judgeSpeechMusic_20210407_logNormShiftAmp,2020.1.2,Win32,60,,,,,,,,,,,,,,,,,,,,,,,,,,1,5.810675,,0,0,85,85,27,1,stimuli/stim_20210407_power2amp/equal_lnn_AM1.2Hz_28.m4a,,,
,,,,,38116,2021-05-08_17h18.57.542,judgeSpeechMusic_20210407_logNormShiftAmp,2020.1.2,Win32,60,,,,,,,,,,,,,,,,,,,,,,,,,,1,5.774135,,0,0,86,86,87,1,stimuli/stim_20210407_power2amp/equal_lnn_AM3.6Hz_24.m4a,,,
,,,,,38116,2021-05-08_17h18.57.542,judgeSpeechMusic_20210407_logNormShiftAmp,2020.1.2,Win32,60,,,,,,,,,,,,,,,,,,,,,,,,,,2,6.25132,,0,0,87,87,39,1,stimuli/stim_20210407_power2amp/equal_lnn_AM1.8Hz_72.m4a,,,
,,,,,38116,2021-05-08_17h18.57.542,judgeSpeechMusic_20210407_logNormShiftAmp,2020.1.2,Win32,60,,,,,,,,,,,,,,,,,,,,,,,,,,1,7.000055,,0,0,88,88,141,1,stimuli/stim_20210407_power2amp/equal_lnn_AM6Hz_39.m4a,,,
,,,,,38116,2021-05-08_17h18.57.542,judgeSpeechMusic_20210407_logNormShiftAmp,2020.1.2,Win32,60,,,,,,,,,,,,,,,,,,,,,,,,,,1,6.26119,,0,0,89,89,7,1,stimuli/stim_20210407_power2amp/equal_lnn_AM0.6Hz_100.m4a,,,
,,,,,38116,2021-05-08_17h18.57.542,judgeSpeechMusic_20210407_logNormShiftAmp,2020.1.2,Win32,60,,,,,,,,,,,,,,,,,,,,,,,,,,2,6.328085,,0,0,90,90,29,1,stimuli/stim_20210407_power2amp/equal_lnn_AM1.2Hz_70.m4a,,,
,,,,,38116,2021-05-08_17h18.57.542,judgeSpeechMusic_20210407_logNormShiftAmp,2020.1.2,Win32,60,,,,,,,,,,,,,,,,,,,,,,,,,,1,6.06583,,0,0,91,91,75,1,stimuli/stim_20210407_power2amp/equal_lnn_AM3.6Hz_86.m4a,,,
,,,,,38116,2021-05-08_17h18.57.542,judgeSpeechMusic_20210407_logNormShiftAmp,2020.1.2,Win32,60,,,,,,,,,,,,,,,,,,,,,,,,,,1,6.0522,,0,0,92,92,58,1,stimuli/stim_20210407_power2amp/equal_lnn_AM2.4Hz_15.m4a,,,
,,,,,38116,2021-05-08_17h18.57.542,judgeSpeechMusic_20210407_logNormShiftAmp,2020.1.2,Win32,60,,,,,,,,,,,,,,,,,,,,,,,,,,1,7.00297,,0,0,93,93,35,1,stimuli/stim_20210407_power2amp/equal_lnn_AM1.8Hz_60.m4a,,,
,,,,,38116,2021-05-08_17h18.57.542,judgeSpeechMusic_20210407_logNormShiftAmp,2020.1.2,Win32,60,,,,,,,,,,,,,,,,,,,,,,,,,,1,5.908775,,0,0,94,94,99,1,stimuli/stim_20210407_power2amp/equal_lnn_AM4.2Hz_61.m4a,,,
,,,,,38116,2021-05-08_17h18.57.542,judgeSpeechMusic_20210407_logNormShiftAmp,2020.1.2,Win32,60,,,,,,,,,,,,,,,,,,,,,,,,,,1,5.924325,,0,0,95,95,60,1,stimuli/stim_20210407_power2amp/equal_lnn_AM3Hz_79.m4a,,,
,,,,,38116,2021-05-08_17h18.57.542,judgeSpeechMusic_20210407_logNormShiftAmp,2020.1.2,Win32,60,,,,,,,,,,,,,,,,,,,,,,,,,,1,6.55513,,0,0,96,96,128,1,stimuli/stim_20210407_power2amp/equal_lnn_AM5.4Hz_51.m4a,,,
,,,,,38116,2021-05-08_17h18.57.542,judgeSpeechMusic_20210407_logNormShiftAmp,2020.1.2,Win32,60,,,,,,,,,,,,,,,,,,,,,,,,,,1,6.243595,,0,0,97,97,9,1,stimuli/stim_20210407_power2amp/equal_lnn_AM0.6Hz_24.m4a,,,
,,,,,38116,2021-05-08_17h18.57.542,judgeSpeechMusic_20210407_logNormShiftAmp,2020.1.2,Win32,60,,,,,,,,,,,,,,,,,,,,,,,,,,1,6.398985,,0,0,98,98,30,1,stimuli/stim_20210407_power2amp/equal_lnn_AM1.8Hz_27.m4a,,,
,,,,,38116,2021-05-08_17h18.57.542,judgeSpeechMusic_20210407_logNormShiftAmp,2020.1.2,Win32,60,,,,,,,,,,,,,,,,,,,,,,,,,,1,6.26718,,0,0,99,99,77,1,stimuli/stim_20210407_power2amp/equal_lnn_AM3.6Hz_36.m4a,,,
,,,,,38116,2021-05-08_17h18.57.542,judgeSpeechMusic_20210407_logNormShiftAmp,2020.1.2,Win32,60,,,,,,,,,,,,,,,,,,,,,,,,,,1,6.449815,1,1,0,100,100,78,1,stimuli/stim_20210407_power2amp/equal_lnn_AM3.6Hz_10.m4a,0.426915,,
,,,,,38116,2021-05-08_17h18.57.542,judgeSpeechMusic_20210407_logNormShiftAmp,2020.1.2,Win32,60,,,,,,,,,,,,,,,,,,,,,,,,,,1,6.284265,,0,0,101,101,137,1,stimuli/stim_20210407_power2amp/equal_lnn_AM6Hz_83.m4a,,,
,,,,,38116,2021-05-08_17h18.57.542,judgeSpeechMusic_20210407_logNormShiftAmp,2020.1.2,Win32,60,,,,,,,,,,,,,,,,,,,,,,,,,,1,5.617195,,0,0,102,102,88,1,stimuli/stim_20210407_power2amp/equal_lnn_AM3.6Hz_81.m4a,,,
,,,,,38116,2021-05-08_17h18.57.542,judgeSpeechMusic_20210407_logNormShiftAmp,2020.1.2,Win32,60,,,,,,,,,,,,,,,,,,,,,,,,,,2,6.18551,,0,0,103,103,55,1,stimuli/stim_20210407_power2amp/equal_lnn_AM2.4Hz_45.m4a,,,
,,,,,38116,2021-05-08_17h18.57.542,judgeSpeechMusic_20210407_logNormShiftAmp,2020.1.2,Win32,60,,,,,,,,,,,,,,,,,,,,,,,,,,1,5.8163,,0,0,104,104,124,1,stimuli/stim_20210407_power2amp/equal_lnn_AM5.4Hz_43.m4a,,,
,,,,,38116,2021-05-08_17h18.57.542,judgeSpeechMusic_20210407_logNormShiftAmp,2020.1.2,Win32,60,,,,,,,,,,,,,,,,,,,,,,,,,,1,6.005965,,0,0,105,105,136,1,stimuli/stim_20210407_power2amp/equal_lnn_AM6Hz_29.m4a,,,
,,,,,38116,2021-05-08_17h18.57.542,judgeSpeechMusic_20210407_logNormShiftAmp,2020.1.2,Win32,60,,,,,,,,,,,,,,,,,,,,,,,,,,1,6.21167,,0,0,106,106,53,1,stimuli/stim_20210407_power2amp/equal_lnn_AM2.4Hz_77.m4a,,,
,,,,,38116,2021-05-08_17h18.57.542,judgeSpeechMusic_20210407_logNormShiftAmp,2020.1.2,Win32,60,,,,,,,,,,,,,,,,,,,,,,,,,,1,6.417095,,0,0,107,107,25,1,stimuli/stim_20210407_power2amp/equal_lnn_AM1.2Hz_11.m4a,,,
,,,,,38116,2021-05-08_17h18.57.542,judgeSpeechMusic_20210407_logNormShiftAmp,2020.1.2,Win32,60,,,,,,,,,,,,,,,,,,,,,,,,,,1,6.384625,,0,0,108,108,126,1,stimuli/stim_20210407_power2amp/equal_lnn_AM5.4Hz_13.m4a,,,
,,,,,38116,2021-05-08_17h18.57.542,judgeSpeechMusic_20210407_logNormShiftAmp,2020.1.2,Win32,60,,,,,,,,,,,,,,,,,,,,,,,,,,1,489.7565,,0,0,109,109,56,1,stimuli/stim_20210407_power2amp/equal_lnn_AM2.4Hz_49.m4a,,,
,,,,,38116,2021-05-08_17h18.57.542,judgeSpeechMusic_20210407_logNormShiftAmp,2020.1.2,Win32,60,,,,,,,,,,,,,,,,,,,,,,,,,,2,6.182775,,0,0,110,110,3,1,stimuli/stim_20210407_power2amp/equal_lnn_AM0.6Hz_23.m4a,,,
,,,,,38116,2021-05-08_17h18.57.542,judgeSpeechMusic_20210407_logNormShiftAmp,2020.1.2,Win32,60,,,,,,,,,,,,,,,,,,,,,,,,,,2,6.61556,,0,0,111,111,98,1,stimuli/stim_20210407_power2amp/equal_lnn_AM4.2Hz_99.m4a,,,
,,,,,38116,2021-05-08_17h18.57.542,judgeSpeechMusic_20210407_logNormShiftAmp,2020.1.2,Win32,60,,,,,,,,,,,,,,,,,,,,,,,,,,2,6.13499,,0,0,112,112,107,1,stimuli/stim_20210407_power2amp/equal_lnn_AM4.8Hz_3.m4a,,,
,,,,,38116,2021-05-08_17h18.57.542,judgeSpeechMusic_20210407_logNormShiftAmp,2020.1.2,Win32,60,,,,,,,,,,,,,,,,,,,,,,,,,,2,6.183195,,0,0,113,113,70,1,stimuli/stim_20210407_power2amp/equal_lnn_AM3Hz_74.m4a,,,
,,,,,38116,2021-05-08_17h18.57.542,judgeSpeechMusic_20210407_logNormShiftAmp,2020.1.2,Win32,60,,,,,,,,,,,,,,,,,,,,,,,,,,2,6.304975,,0,0,114,114,89,1,stimuli/stim_20210407_power2amp/equal_lnn_AM3.6Hz_27.m4a,,,
,,,,,38116,2021-05-08_17h18.57.542,judgeSpeechMusic_20210407_logNormShiftAmp,2020.1.2,Win32,60,,,,,,,,,,,,,,,,,,,,,,,,,,2,5.82513,,0,0,115,115,85,1,stimuli/stim_20210407_power2amp/equal_lnn_AM3.6Hz_40.m4a,,,
,,,,,38116,2021-05-08_17h18.57.542,judgeSpeechMusic_20210407_logNormShiftAmp,2020.1.2,Win32,60,,,,,,,,,,,,,,,,,,,,,,,,,,2,6.026965,,0,0,116,116,11,1,stimuli/stim_20210407_power2amp/equal_lnn_AM0.6Hz_76.m4a,,,
,,,,,38116,2021-05-08_17h18.57.542,judgeSpeechMusic_20210407_logNormShiftAmp,2020.1.2,Win32,60,,,,,,,,,,,,,,,,,,,,,,,,,,1,6.09421,,0,0,117,117,127,1,stimuli/stim_20210407_power2amp/equal_lnn_AM5.4Hz_97.m4a,,,
,,,,,38116,2021-05-08_17h18.57.542,judgeSpeechMusic_20210407_logNormShiftAmp,2020.1.2,Win32,60,,,,,,,,,,,,,,,,,,,,,,,,,,1,5.783745,,0,0,118,118,19,1,stimuli/stim_20210407_power2amp/equal_lnn_AM1.2Hz_79.m4a,,,
,,,,,38116,2021-05-08_17h18.57.542,judgeSpeechMusic_20210407_logNormShiftAmp,2020.1.2,Win32,60,,,,,,,,,,,,,,,,,,,,,,,,,,1,5.965585,,0,0,119,119,72,1,stimuli/stim_20210407_power2amp/equal_lnn_AM3Hz_95.m4a,,,
,,,,,38116,2021-05-08_17h18.57.542,judgeSpeechMusic_20210407_logNormShiftAmp,2020.1.2,Win32,60,,,,,,,,,,,,,,,,,,,,,,,,,,1,5.891425,,0,0,120,120,65,1,stimuli/stim_20210407_power2amp/equal_lnn_AM3Hz_91.m4a,,,
,,,,,38116,2021-05-08_17h18.57.542,judgeSpeechMusic_20210407_logNormShiftAmp,2020.1.2,Win32,60,,,,,,,,,,,,,,,,,,,,,,,,,,1,5.71872,4,0,0,121,121,33,1,stimuli/stim_20210407_power2amp/equal_lnn_AM1.8Hz_44.m4a,1.994205,,
,,,,,38116,2021-05-08_17h18.57.542,judgeSpeechMusic_20210407_logNormShiftAmp,2020.1.2,Win32,60,,,,,,,,,,,,,,,,,,,,,,,,,,1,6.0707,,0,0,122,122,24,1,stimuli/stim_20210407_power2amp/equal_lnn_AM1.2Hz_48.m4a,,,
,,,,,38116,2021-05-08_17h18.57.542,judgeSpeechMusic_20210407_logNormShiftAmp,2020.1.2,Win32,60,,,,,,,,,,,,,,,,,,,,,,,,,,1,5.885555,,0,0,123,123,108,1,stimuli/stim_20210407_power2amp/equal_lnn_AM4.8Hz_33.m4a,,,
,,,,,38116,2021-05-08_17h18.57.542,judgeSpeechMusic_20210407_logNormShiftAmp,2020.1.2,Win32,60,,,,,,,,,,,,,,,,,,,,,,,,,,1,7.055085,,0,0,124,124,20,1,stimuli/stim_20210407_power2amp/equal_lnn_AM1.2Hz_89.m4a,,,
,,,,,38116,2021-05-08_17h18.57.542,judgeSpeechMusic_20210407_logNormShiftAmp,2020.1.2,Win32,60,,,,,,,,,,,,,,,,,,,,,,,,,,1,6.017145,,0,0,125,125,120,1,stimuli/stim_20210407_power2amp/equal_lnn_AM5.4Hz_28.m4a,,,
,,,,,38116,2021-05-08_17h18.57.542,judgeSpeechMusic_20210407_logNormShiftAmp,2020.1.2,Win32,60,,,,,,,,,,,,,,,,,,,,,,,,,,1,5.91683,,0,0,126,126,101,1,stimuli/stim_20210407_power2amp/equal_lnn_AM4.2Hz_90.m4a,,,
,,,,,38116,2021-05-08_17h18.57.542,judgeSpeechMusic_20210407_logNormShiftAmp,2020.1.2,Win32,60,,,,,,,,,,,,,,,,,,,,,,,,,,1,5.901385,,0,0,127,127,111,1,stimuli/stim_20210407_power2amp/equal_lnn_AM4.8Hz_66.m4a,,,
,,,,,38116,2021-05-08_17h18.57.542,judgeSpeechMusic_20210407_logNormShiftAmp,2020.1.2,Win32,60,,,,,,,,,,,,,,,,,,,,,,,,,,1,5.634585,,0,0,128,128,125,1,stimuli/stim_20210407_power2amp/equal_lnn_AM5.4Hz_24.m4a,,,
,,,,,38116,2021-05-08_17h18.57.542,judgeSpeechMusic_20210407_logNormShiftAmp,2020.1.2,Win32,60,,,,,,,,,,,,,,,,,,,,,,,,,,1,5.68744,,0,0,129,129,144,1,stimuli/stim_20210407_power2amp/equal_lnn_AM6Hz_26.m4a,,,
,,,,,38116,2021-05-08_17h18.57.542,judgeSpeechMusic_20210407_logNormShiftAmp,2020.1.2,Win32,60,,,,,,,,,,,,,,,,,,,,,,,,,,1,8.698255,,0,0,130,130,133,1,stimuli/stim_20210407_power2amp/equal_lnn_AM5.4Hz_45.m4a,,,
,,,,,38116,2021-05-08_17h18.57.542,judgeSpeechMusic_20210407_logNormShiftAmp,2020.1.2,Win32,60,,,,,,,,,,,,,,,,,,,,,,,,,,1,5.804105,,0,0,131,131,140,1,stimuli/stim_20210407_power2amp/equal_lnn_AM6Hz_100.m4a,,,
,,,,,38116,2021-05-08_17h18.57.542,judgeSpeechMusic_20210407_logNormShiftAmp,2020.1.2,Win32,60,,,,,,,,,,,,,,,,,,,,,,,,,,1,6.00835,,0,0,132,132,59,1,stimuli/stim_20210407_power2amp/equal_lnn_AM2.4Hz_73.m4a,,,
,,,,,38116,2021-05-08_17h18.57.542,judgeSpeechMusic_20210407_logNormShiftAmp,2020.1.2,Win32,60,,,,,,,,,,,,,,,,,,,,,,,,,,1,5.689815,,0,0,133,133,117,1,stimuli/stim_20210407_power2amp/equal_lnn_AM4.8Hz_1.m4a,,,
,,,,,38116,2021-05-08_17h18.57.542,judgeSpeechMusic_20210407_logNormShiftAmp,2020.1.2,Win32,60,,,,,,,,,,,,,,,,,,,,,,,,,,1,5.576045,,0,0,134,134,52,1,stimuli/stim_20210407_power2amp/equal_lnn_AM2.4Hz_75.m4a,,,
,,,,,38116,2021-05-08_17h18.57.542,judgeSpeechMusic_20210407_logNormShiftAmp,2020.1.2,Win32,60,,,,,,,,,,,,,,,,,,,,,,,,,,1,7.906845,,0,0,135,135,48,1,stimuli/stim_20210407_power2amp/equal_lnn_AM2.4Hz_52.m4a,,,
,,,,,38116,2021-05-08_17h18.57.542,judgeSpeechMusic_20210407_logNormShiftAmp,2020.1.2,Win32,60,,,,,,,,,,,,,,,,,,,,,,,,,,1,5.851495,,0,0,136,136,4,1,stimuli/stim_20210407_power2amp/equal_lnn_AM0.6Hz_78.m4a,,,
,,,,,38116,2021-05-08_17h18.57.542,judgeSpeechMusic_20210407_logNormShiftAmp,2020.1.2,Win32,60,,,,,,,,,,,,,,,,,,,,,,,,,,1,7.1682,,0,0,137,137,138,1,stimuli/stim_20210407_power2amp/equal_lnn_AM6Hz_96.m4a,,,
,,,,,38116,2021-05-08_17h18.57.542,judgeSpeechMusic_20210407_logNormShiftAmp,2020.1.2,Win32,60,,,,,,,,,,,,,,,,,,,,,,,,,,1,5.74078,,0,0,138,138,142,1,stimuli/stim_20210407_power2amp/equal_lnn_AM6Hz_90.m4a,,,
,,,,,38116,2021-05-08_17h18.57.542,judgeSpeechMusic_20210407_logNormShiftAmp,2020.1.2,Win32,60,,,,,,,,,,,,,,,,,,,,,,,,,,1,5.934125,,0,0,139,139,18,1,stimuli/stim_20210407_power2amp/equal_lnn_AM1.2Hz_97.m4a,,,
,,,,,38116,2021-05-08_17h18.57.542,judgeSpeechMusic_20210407_logNormShiftAmp,2020.1.2,Win32,60,,,,,,,,,,,,,,,,,,,,,,,,,,1,5.968815,,0,0,140,140,147,1,stimuli/stim_20210407_power2amp/equal_lnn_AM6Hz_44.m4a,,,
,,,,,38116,2021-05-08_17h18.57.542,judgeSpeechMusic_20210407_logNormShiftAmp,2020.1.2,Win32,60,,,,,,,,,,,,,,,,,,,,,,,,,,1,6.63285,,0,0,141,141,129,1,stimuli/stim_20210407_power2amp/equal_lnn_AM5.4Hz_69.m4a,,,
,,,,,38116,2021-05-08_17h18.57.542,judgeSpeechMusic_20210407_logNormShiftAmp,2020.1.2,Win32,60,,,,,,,,,,,,,,,,,,,,,,,,,,1,6.18814,2,1,0,142,142,84,1,stimuli/stim_20210407_power2amp/equal_lnn_AM3.6Hz_65.m4a,7.210855,,
,,,,,38116,2021-05-08_17h18.57.542,judgeSpeechMusic_20210407_logNormShiftAmp,2020.1.2,Win32,60,,,,,,,,,,,,,,,,,,,,,,,,,,1,6.061715,,0,0,143,143,36,1,stimuli/stim_20210407_power2amp/equal_lnn_AM1.8Hz_22.m4a,,,
,,,,,38116,2021-05-08_17h18.57.542,judgeSpeechMusic_20210407_logNormShiftAmp,2020.1.2,Win32,60,,,,,,,,,,,,,,,,,,,,,,,,,,1,6.29123,,0,0,144,144,90,1,stimuli/stim_20210407_power2amp/equal_lnn_AM4.2Hz_2.m4a,,,
,,,,,38116,2021-05-08_17h18.57.542,judgeSpeechMusic_20210407_logNormShiftAmp,2020.1.2,Win32,60,,,,,,,,,,,,,,,,,,,,,,,,,,1,5.720475,,0,0,145,145,23,1,stimuli/stim_20210407_power2amp/equal_lnn_AM1.2Hz_13.m4a,,,
,,,,,38116,2021-05-08_17h18.57.542,judgeSpeechMusic_20210407_logNormShiftAmp,2020.1.2,Win32,60,,,,,,,,,,,,,,,,,,,,,,,,,,1,7.117385,,0,0,146,146,104,1,stimuli/stim_20210407_power2amp/equal_lnn_AM4.2Hz_51.m4a,,,
,,,,,38116,2021-05-08_17h18.57.542,judgeSpeechMusic_20210407_logNormShiftAmp,2020.1.2,Win32,60,,,,,,,,,,,,,,,,,,,,,,,,,,1,6.533275,,0,0,147,147,61,1,stimuli/stim_20210407_power2amp/equal_lnn_AM3Hz_55.m4a,,,
,,,,,38116,2021-05-08_17h18.57.542,judgeSpeechMusic_20210407_logNormShiftAmp,2020.1.2,Win32,60,,,,,,,,,,,,,,,,,,,,,,,,,,1,88.33398,,0,0,148,148,134,1,stimuli/stim_20210407_power2amp/equal_lnn_AM5.4Hz_18.m4a,,,
,,,,,38116,2021-05-08_17h18.57.542,judgeSpeechMusic_20210407_logNormShiftAmp,2020.1.2,Win32,60,,,,,,,,,,,,,,,,,,,,,,,,,,1,5.651425,,0,0,149,149,86,1,stimuli/stim_20210407_power2amp/equal_lnn_AM3.6Hz_59.m4a,,,
,,,,,38116,2021-05-08_17h18.57.542,judgeSpeechMusic_20210407_logNormShiftAmp,2020.1.2,Win32,60,,,,,,,,,,,,,,,,,,,,,,,,,,1,5.56407,,0,1,0,150,139,1,stimuli/stim_20210407_power2amp/equal_lnn_AM6Hz_2.m4a,,,
,,,,,38116,2021-05-08_17h18.57.542,judgeSpeechMusic_20210407_logNormShiftAmp,2020.1.2,Win32,60,,,,,,,,,,,,,,,,,,,,,,,,,,1,6.30737,,0,1,1,151,105,1,stimuli/stim_20210407_power2amp/equal_lnn_AM4.8Hz_30.m4a,,,
,,,,,38116,2021-05-08_17h18.57.542,judgeSpeechMusic_20210407_logNormShiftAmp,2020.1.2,Win32,60,,,,,,,,,,,,,,,,,,,,,,,,,,2,5.767515,,0,1,2,152,0,1,stimuli/stim_20210407_power2amp/equal_lnn_AM0.6Hz_68.m4a,,,
,,,,,38116,2021-05-08_17h18.57.542,judgeSpeechMusic_20210407_logNormShiftAmp,2020.1.2,Win32,60,,,,,,,,,,,,,,,,,,,,,,,,,,1,6.005,,0,1,3,153,85,1,stimuli/stim_20210407_power2amp/equal_lnn_AM3.6Hz_40.m4a,,,
,,,,,38116,2021-05-08_17h18.57.542,judgeSpeechMusic_20210407_logNormShiftAmp,2020.1.2,Win32,60,,,,,,,,,,,,,,,,,,,,,,,,,,1,5.767035,,0,1,4,154,107,1,stimuli/stim_20210407_power2amp/equal_lnn_AM4.8Hz_3.m4a,,,
,,,,,38116,2021-05-08_17h18.57.542,judgeSpeechMusic_20210407_logNormShiftAmp,2020.1.2,Win32,60,,,,,,,,,,,,,,,,,,,,,,,,,,1,6.711655,,0,1,5,155,64,1,stimuli/stim_20210407_power2amp/equal_lnn_AM3Hz_49.m4a,,,
,,,,,38116,2021-05-08_17h18.57.542,judgeSpeechMusic_20210407_logNormShiftAmp,2020.1.2,Win32,60,,,,,,,,,,,,,,,,,,,,,,,,,,1,12.315585,,0,1,6,156,47,1,stimuli/stim_20210407_power2amp/equal_lnn_AM2.4Hz_66.m4a,,,
,,,,,38116,2021-05-08_17h18.57.542,judgeSpeechMusic_20210407_logNormShiftAmp,2020.1.2,Win32,60,,,,,,,,,,,,,,,,,,,,,,,,,,1,7.29854,,0,1,7,157,79,1,stimuli/stim_20210407_power2amp/equal_lnn_AM3.6Hz_42.m4a,,,
,,,,,38116,2021-05-08_17h18.57.542,judgeSpeechMusic_20210407_logNormShiftAmp,2020.1.2,Win32,60,,,,,,,,,,,,,,,,,,,,,,,,,,2,6.06998,,0,1,8,158,2,1,stimuli/stim_20210407_power2amp/equal_lnn_AM0.6Hz_58.m4a,,,
,,,,,38116,2021-05-08_17h18.57.542,judgeSpeechMusic_20210407_logNormShiftAmp,2020.1.2,Win32,60,,,,,,,,,,,,,,,,,,,,,,,,,,2,8.969,,0,1,9,159,60,1,stimuli/stim_20210407_power2amp/equal_lnn_AM3Hz_79.m4a,,,
,,,,,38116,2021-05-08_17h18.57.542,judgeSpeechMusic_20210407_logNormShiftAmp,2020.1.2,Win32,60,,,,,,,,,,,,,,,,,,,,,,,,,,1,7.05738,,0,1,10,160,22,1,stimuli/stim_20210407_power2amp/equal_lnn_AM1.2Hz_14.m4a,,,
,,,,,38116,2021-05-08_17h18.57.542,judgeSpeechMusic_20210407_logNormShiftAmp,2020.1.2,Win32,60,,,,,,,,,,,,,,,,,,,,,,,,,,1,5.57436,,0,1,11,161,20,1,stimuli/stim_20210407_power2amp/equal_lnn_AM1.2Hz_89.m4a,,,
,,,,,38116,2021-05-08_17h18.57.542,judgeSpeechMusic_20210407_logNormShiftAmp,2020.1.2,Win32,60,,,,,,,,,,,,,,,,,,,,,,,,,,1,27.25265,,0,1,12,162,140,1,stimuli/stim_20210407_power2amp/equal_lnn_AM6Hz_100.m4a,,,
,,,,,38116,2021-05-08_17h18.57.542,judgeSpeechMusic_20210407_logNormShiftAmp,2020.1.2,Win32,60,,,,,,,,,,,,,,,,,,,,,,,,,,1,34.11971,,0,1,13,163,147,1,stimuli/stim_20210407_power2amp/equal_lnn_AM6Hz_44.m4a,,,
,,,,,38116,2021-05-08_17h18.57.542,judgeSpeechMusic_20210407_logNormShiftAmp,2020.1.2,Win32,60,,,,,,,,,,,,,,,,,,,,,,,,,,1,19.891405,,0,1,14,164,58,1,stimuli/stim_20210407_power2amp/equal_lnn_AM2.4Hz_15.m4a,,,
,,,,,38116,2021-05-08_17h18.57.542,judgeSpeechMusic_20210407_logNormShiftAmp,2020.1.2,Win32,60,,,,,,,,,,,,,,,,,,,,,,,,,,1,7.52238,,0,1,15,165,76,1,stimuli/stim_20210407_power2amp/equal_lnn_AM3.6Hz_100.m4a,,,
,,,,,38116,2021-05-08_17h18.57.542,judgeSpeechMusic_20210407_logNormShiftAmp,2020.1.2,Win32,60,,,,,,,,,,,,,,,,,,,,,,,,,,1,5.967675,,0,1,16,166,68,1,stimuli/stim_20210407_power2amp/equal_lnn_AM3Hz_69.m4a,,,
,,,,,38116,2021-05-08_17h18.57.542,judgeSpeechMusic_20210407_logNormShiftAmp,2020.1.2,Win32,60,,,,,,,,,,,,,,,,,,,,,,,,,,1,6.52725,2,1,1,17,167,123,1,stimuli/stim_20210407_power2amp/equal_lnn_AM5.4Hz_38.m4a,0.87099,,
,,,,,38116,2021-05-08_17h18.57.542,judgeSpeechMusic_20210407_logNormShiftAmp,2020.1.2,Win32,60,,,,,,,,,,,,,,,,,,,,,,,,,,1,6.27973,,0,1,18,168,24,1,stimuli/stim_20210407_power2amp/equal_lnn_AM1.2Hz_48.m4a,,,
,,,,,38116,2021-05-08_17h18.57.542,judgeSpeechMusic_20210407_logNormShiftAmp,2020.1.2,Win32,60,,,,,,,,,,,,,,,,,,,,,,,,,,1,6.228085,,0,1,19,169,81,1,stimuli/stim_20210407_power2amp/equal_lnn_AM3.6Hz_3.m4a,,,
,,,,,38116,2021-05-08_17h18.57.542,judgeSpeechMusic_20210407_logNormShiftAmp,2020.1.2,Win32,60,,,,,,,,,,,,,,,,,,,,,,,,,,1,7.299195,,0,1,20,170,18,1,stimuli/stim_20210407_power2amp/equal_lnn_AM1.2Hz_97.m4a,,,
,,,,,38116,2021-05-08_17h18.57.542,judgeSpeechMusic_20210407_logNormShiftAmp,2020.1.2,Win32,60,,,,,,,,,,,,,,,,,,,,,,,,,,1,7.402245,,0,1,21,171,116,1,stimuli/stim_20210407_power2amp/equal_lnn_AM4.8Hz_26.m4a,,,
,,,,,38116,2021-05-08_17h18.57.542,judgeSpeechMusic_20210407_logNormShiftAmp,2020.1.2,Win32,60,,,,,,,,,,,,,,,,,,,,,,,,,,1,11.650575,,0,1,22,172,19,1,stimuli/stim_20210407_power2amp/equal_lnn_AM1.2Hz_79.m4a,,,
,,,,,38116,2021-05-08_17h18.57.542,judgeSpeechMusic_20210407_logNormShiftAmp,2020.1.2,Win32,60,,,,,,,,,,,,,,,,,,,,,,,,,,1,11.520315,,0,1,23,173,148,1,stimuli/stim_20210407_power2amp/equal_lnn_AM6Hz_56.m4a,,,
,,,,,38116,2021-05-08_17h18.57.542,judgeSpeechMusic_20210407_logNormShiftAmp,2020.1.2,Win32,60,,,,,,,,,,,,,,,,,,,,,,,,,,1,10.952895,,0,1,24,174,137,1,stimuli/stim_20210407_power2amp/equal_lnn_AM6Hz_83.m4a,,,
,,,,,38116,2021-05-08_17h18.57.542,judgeSpeechMusic_20210407_logNormShiftAmp,2020.1.2,Win32,60,,,,,,,,,,,,,,,,,,,,,,,,,,1,28.901975,,0,1,25,175,135,1,stimuli/stim_20210407_power2amp/equal_lnn_AM6Hz_34.m4a,,,
,,,,,38116,2021-05-08_17h18.57.542,judgeSpeechMusic_20210407_logNormShiftAmp,2020.1.2,Win32,60,,,,,,,,,,,,,,,,,,,,,,,,,,1,6.85902,,0,1,26,176,109,1,stimuli/stim_20210407_power2amp/equal_lnn_AM4.8Hz_63.m4a,,,
,,,,,38116,2021-05-08_17h18.57.542,judgeSpeechMusic_20210407_logNormShiftAmp,2020.1.2,Win32,60,,,,,,,,,,,,,,,,,,,,,,,,,,1,6.7294,,0,1,27,177,133,1,stimuli/stim_20210407_power2amp/equal_lnn_AM5.4Hz_45.m4a,,,
,,,,,38116,2021-05-08_17h18.57.542,judgeSpeechMusic_20210407_logNormShiftAmp,2020.1.2,Win32,60,,,,,,,,,,,,,,,,,,,,,,,,,,1,19.41407,,0,1,28,178,103,1,stimuli/stim_20210407_power2amp/equal_lnn_AM4.2Hz_74.m4a,,,
,,,,,38116,2021-05-08_17h18.57.542,judgeSpeechMusic_20210407_logNormShiftAmp,2020.1.2,Win32,60,,,,,,,,,,,,,,,,,,,,,,,,,,1,6.28658,,0,1,29,179,33,1,stimuli/stim_20210407_power2amp/equal_lnn_AM1.8Hz_44.m4a,,,
,,,,,38116,2021-05-08_17h18.57.542,judgeSpeechMusic_20210407_logNormShiftAmp,2020.1.2,Win32,60,,,,,,,,,,,,,,,,,,,,,,,,,,1,7.081085,,0,1,30,180,88,1,stimuli/stim_20210407_power2amp/equal_lnn_AM3.6Hz_81.m4a,,,
,,,,,38116,2021-05-08_17h18.57.542,judgeSpeechMusic_20210407_logNormShiftAmp,2020.1.2,Win32,60,,,,,,,,,,,,,,,,,,,,,,,,,,1,6.235055,,0,1,31,181,26,1,stimuli/stim_20210407_power2amp/equal_lnn_AM1.2Hz_76.m4a,,,
,,,,,38116,2021-05-08_17h18.57.542,judgeSpeechMusic_20210407_logNormShiftAmp,2020.1.2,Win32,60,,,,,,,,,,,,,,,,,,,,,,,,,,1,5.988275,,0,1,32,182,40,1,stimuli/stim_20210407_power2amp/equal_lnn_AM1.8Hz_15.m4a,,,
,,,,,38116,2021-05-08_17h18.57.542,judgeSpeechMusic_20210407_logNormShiftAmp,2020.1.2,Win32,60,,,,,,,,,,,,,,,,,,,,,,,,,,1,5.95156,,0,1,33,183,108,1,stimuli/stim_20210407_power2amp/equal_lnn_AM4.8Hz_33.m4a,,,
,,,,,38116,2021-05-08_17h18.57.542,judgeSpeechMusic_20210407_logNormShiftAmp,2020.1.2,Win32,60,,,,,,,,,,,,,,,,,,,,,,,,,,1,6.403305,,0,1,34,184,61,1,stimuli/stim_20210407_power2amp/equal_lnn_AM3Hz_55.m4a,,,
,,,,,38116,2021-05-08_17h18.57.542,judgeSpeechMusic_20210407_logNormShiftAmp,2020.1.2,Win32,60,,,,,,,,,,,,,,,,,,,,,,,,,,1,6.459665,,0,1,35,185,72,1,stimuli/stim_20210407_power2amp/equal_lnn_AM3Hz_95.m4a,,,
,,,,,38116,2021-05-08_17h18.57.542,judgeSpeechMusic_20210407_logNormShiftAmp,2020.1.2,Win32,60,,,,,,,,,,,,,,,,,,,,,,,,,,1,7.350825,,0,1,36,186,48,1,stimuli/stim_20210407_power2amp/equal_lnn_AM2.4Hz_52.m4a,,,
,,,,,38116,2021-05-08_17h18.57.542,judgeSpeechMusic_20210407_logNormShiftAmp,2020.1.2,Win32,60,,,,,,,,,,,,,,,,,,,,,,,,,,2,6.190005,,0,1,37,187,9,1,stimuli/stim_20210407_power2amp/equal_lnn_AM0.6Hz_24.m4a,,,
,,,,,38116,2021-05-08_17h18.57.542,judgeSpeechMusic_20210407_logNormShiftAmp,2020.1.2,Win32,60,,,,,,,,,,,,,,,,,,,,,,,,,,1,7.056125,4,1,1,38,188,91,1,stimuli/stim_20210407_power2amp/equal_lnn_AM4.2Hz_89.m4a,2.90519,,
,,,,,38116,2021-05-08_17h18.57.542,judgeSpeechMusic_20210407_logNormShiftAmp,2020.1.2,Win32,60,,,,,,,,,,,,,,,,,,,,,,,,,,1,6.32988,,0,1,39,189,4,1,stimuli/stim_20210407_power2amp/equal_lnn_AM0.6Hz_78.m4a,,,
,,,,,38116,2021-05-08_17h18.57.542,judgeSpeechMusic_20210407_logNormShiftAmp,2020.1.2,Win32,60,,,,,,,,,,,,,,,,,,,,,,,,,,1,7.830995,,0,1,40,190,89,1,stimuli/stim_20210407_power2amp/equal_lnn_AM3.6Hz_27.m4a,,,
,,,,,38116,2021-05-08_17h18.57.542,judgeSpeechMusic_20210407_logNormShiftAmp,2020.1.2,Win32,60,,,,,,,,,,,,,,,,,,,,,,,,,,1,6.25659,,0,1,41,191,142,1,stimuli/stim_20210407_power2amp/equal_lnn_AM6Hz_90.m4a,,,
,,,,,38116,2021-05-08_17h18.57.542,judgeSpeechMusic_20210407_logNormShiftAmp,2020.1.2,Win32,60,,,,,,,,,,,,,,,,,,,,,,,,,,1,6.972585,,0,1,42,192,138,1,stimuli/stim_20210407_power2amp/equal_lnn_AM6Hz_96.m4a,,,
,,,,,38116,2021-05-08_17h18.57.542,judgeSpeechMusic_20210407_logNormShiftAmp,2020.1.2,Win32,60,,,,,,,,,,,,,,,,,,,,,,,,,,1,5.932725,,0,1,43,193,42,1,stimuli/stim_20210407_power2amp/equal_lnn_AM1.8Hz_46.m4a,,,
,,,,,38116,2021-05-08_17h18.57.542,judgeSpeechMusic_20210407_logNormShiftAmp,2020.1.2,Win32,60,,,,,,,,,,,,,,,,,,,,,,,,,,1,5.91157,,0,1,44,194,25,1,stimuli/stim_20210407_power2amp/equal_lnn_AM1.2Hz_11.m4a,,,
,,,,,38116,2021-05-08_17h18.57.542,judgeSpeechMusic_20210407_logNormShiftAmp,2020.1.2,Win32,60,,,,,,,,,,,,,,,,,,,,,,,,,,1,5.76148,,0,1,45,195,71,1,stimuli/stim_20210407_power2amp/equal_lnn_AM3Hz_52.m4a,,,
,,,,,38116,2021-05-08_17h18.57.542,judgeSpeechMusic_20210407_logNormShiftAmp,2020.1.2,Win32,60,,,,,,,,,,,,,,,,,,,,,,,,,,1,6.75066,,0,1,46,196,143,1,stimuli/stim_20210407_power2amp/equal_lnn_AM6Hz_37.m4a,,,
,,,,,38116,2021-05-08_17h18.57.542,judgeSpeechMusic_20210407_logNormShiftAmp,2020.1.2,Win32,60,,,,,,,,,,,,,,,,,,,,,,,,,,1,81.820105,,0,1,47,197,82,1,stimuli/stim_20210407_power2amp/equal_lnn_AM3.6Hz_61.m4a,,,
,,,,,38116,2021-05-08_17h18.57.542,judgeSpeechMusic_20210407_logNormShiftAmp,2020.1.2,Win32,60,,,,,,,,,,,,,,,,,,,,,,,,,,1,6.365995,,0,1,48,198,41,1,stimuli/stim_20210407_power2amp/equal_lnn_AM1.8Hz_59.m4a,,,
,,,,,38116,2021-05-08_17h18.57.542,judgeSpeechMusic_20210407_logNormShiftAmp,2020.1.2,Win32,60,,,,,,,,,,,,,,,,,,,,,,,,,,1,6.23557,,0,1,49,199,3,1,stimuli/stim_20210407_power2amp/equal_lnn_AM0.6Hz_23.m4a,,,
,,,,,38116,2021-05-08_17h18.57.542,judgeSpeechMusic_20210407_logNormShiftAmp,2020.1.2,Win32,60,,,,,,,,,,,,,,,,,,,,,,,,,,1,5.88305,,0,1,50,200,96,1,stimuli/stim_20210407_power2amp/equal_lnn_AM4.2Hz_25.m4a,,,
,,,,,38116,2021-05-08_17h18.57.542,judgeSpeechMusic_20210407_logNormShiftAmp,2020.1.2,Win32,60,,,,,,,,,,,,,,,,,,,,,,,,,,1,6.16995,,0,1,51,201,43,1,stimuli/stim_20210407_power2amp/equal_lnn_AM1.8Hz_63.m4a,,,
,,,,,38116,2021-05-08_17h18.57.542,judgeSpeechMusic_20210407_logNormShiftAmp,2020.1.2,Win32,60,,,,,,,,,,,,,,,,,,,,,,,,,,1,337.45911,,0,1,52,202,34,1,stimuli/stim_20210407_power2amp/equal_lnn_AM1.8Hz_19.m4a,,,
,,,,,38116,2021-05-08_17h18.57.542,judgeSpeechMusic_20210407_logNormShiftAmp,2020.1.2,Win32,60,,,,,,,,,,,,,,,,,,,,,,,,,,1,10.85563,,0,1,53,203,51,1,stimuli/stim_20210407_power2amp/equal_lnn_AM2.4Hz_57.m4a,,,
,,,,,38116,2021-05-08_17h18.57.542,judgeSpeechMusic_20210407_logNormShiftAmp,2020.1.2,Win32,60,,,,,,,,,,,,,,,,,,,,,,,,,,1,6.152625,,0,1,54,204,5,1,stimuli/stim_20210407_power2amp/equal_lnn_AM0.6Hz_53.m4a,,,
,,,,,38116,2021-05-08_17h18.57.542,judgeSpeechMusic_20210407_logNormShiftAmp,2020.1.2,Win32,60,,,,,,,,,,,,,,,,,,,,,,,,,,1,29.107415,,0,1,55,205,113,1,stimuli/stim_20210407_power2amp/equal_lnn_AM4.8Hz_21.m4a,,,
,,,,,38116,2021-05-08_17h18.57.542,judgeSpeechMusic_20210407_logNormShiftAmp,2020.1.2,Win32,60,,,,,,,,,,,,,,,,,,,,,,,,,,1,8.309035,,0,1,56,206,122,1,stimuli/stim_20210407_power2amp/equal_lnn_AM5.4Hz_7.m4a,,,
,,,,,38116,2021-05-08_17h18.57.542,judgeSpeechMusic_20210407_logNormShiftAmp,2020.1.2,Win32,60,,,,,,,,,,,,,,,,,,,,,,,,,,1,5.71081,,0,1,57,207,128,1,stimuli/stim_20210407_power2amp/equal_lnn_AM5.4Hz_51.m4a,,,
,,,,,38116,2021-05-08_17h18.57.542,judgeSpeechMusic_20210407_logNormShiftAmp,2020.1.2,Win32,60,,,,,,,,,,,,,,,,,,,,,,,,,,1,6.459575,,0,1,58,208,30,1,stimuli/stim_20210407_power2amp/equal_lnn_AM1.8Hz_27.m4a,,,
,,,,,38116,2021-05-08_17h18.57.542,judgeSpeechMusic_20210407_logNormShiftAmp,2020.1.2,Win32,60,,,,,,,,,,,,,,,,,,,,,,,,,,1,6.28986,,0,1,59,209,112,1,stimuli/stim_20210407_power2amp/equal_lnn_AM4.8Hz_68.m4a,,,
,,,,,38116,2021-05-08_17h18.57.542,judgeSpeechMusic_20210407_logNormShiftAmp,2020.1.2,Win32,60,,,,,,,,,,,,,,,,,,,,,,,,,,1,6.21664,,0,1,60,210,28,1,stimuli/stim_20210407_power2amp/equal_lnn_AM1.2Hz_73.m4a,,,
,,,,,38116,2021-05-08_17h18.57.542,judgeSpeechMusic_20210407_logNormShiftAmp,2020.1.2,Win32,60,,,,,,,,,,,,,,,,,,,,,,,,,,1,9.777705,,0,1,61,211,11,1,stimuli/stim_20210407_power2amp/equal_lnn_AM0.6Hz_76.m4a,,,
,,,,,38116,2021-05-08_17h18.57.542,judgeSpeechMusic_20210407_logNormShiftAmp,2020.1.2,Win32,60,,,,,,,,,,,,,,,,,,,,,,,,,,1,9.90195,4,1,1,62,212,115,1,stimuli/stim_20210407_power2amp/equal_lnn_AM4.8Hz_79.m4a,2.57845,,
,,,,,38116,2021-05-08_17h18.57.542,judgeSpeechMusic_20210407_logNormShiftAmp,2020.1.2,Win32,60,,,,,,,,,,,,,,,,,,,,,,,,,,1,6.44821,,0,1,63,213,83,1,stimuli/stim_20210407_power2amp/equal_lnn_AM3.6Hz_51.m4a,,,
,,,,,38116,2021-05-08_17h18.57.542,judgeSpeechMusic_20210407_logNormShiftAmp,2020.1.2,Win32,60,,,,,,,,,,,,,,,,,,,,,,,,,,1,6.219355,,0,1,64,214,36,1,stimuli/stim_20210407_power2amp/equal_lnn_AM1.8Hz_22.m4a,,,
,,,,,38116,2021-05-08_17h18.57.542,judgeSpeechMusic_20210407_logNormShiftAmp,2020.1.2,Win32,60,,,,,,,,,,,,,,,,,,,,,,,,,,1,6.221595,,0,1,65,215,97,1,stimuli/stim_20210407_power2amp/equal_lnn_AM4.2Hz_75.m4a,,,
,,,,,38116,2021-05-08_17h18.57.542,judgeSpeechMusic_20210407_logNormShiftAmp,2020.1.2,Win32,60,,,,,,,,,,,,,,,,,,,,,,,,,,1,6.418475,,0,1,66,216,65,1,stimuli/stim_20210407_power2amp/equal_lnn_AM3Hz_91.m4a,,,
,,,,,38116,2021-05-08_17h18.57.542,judgeSpeechMusic_20210407_logNormShiftAmp,2020.1.2,Win32,60,,,,,,,,,,,,,,,,,,,,,,,,,,1,5.933355,,0,1,67,217,87,1,stimuli/stim_20210407_power2amp/equal_lnn_AM3.6Hz_24.m4a,,,
,,,,,38116,2021-05-08_17h18.57.542,judgeSpeechMusic_20210407_logNormShiftAmp,2020.1.2,Win32,60,,,,,,,,,,,,,,,,,,,,,,,,,,1,12.92702,,0,1,68,218,59,1,stimuli/stim_20210407_power2amp/equal_lnn_AM2.4Hz_73.m4a,,,
,,,,,38116,2021-05-08_17h18.57.542,judgeSpeechMusic_20210407_logNormShiftAmp,2020.1.2,Win32,60,,,,,,,,,,,,,,,,,,,,,,,,,,1,7.367435,,0,1,69,219,146,1,stimuli/stim_20210407_power2amp/equal_lnn_AM6Hz_67.m4a,,,
,,,,,38116,2021-05-08_17h18.57.542,judgeSpeechMusic_20210407_logNormShiftAmp,2020.1.2,Win32,60,,,,,,,,,,,,,,,,,,,,,,,,,,1,7.165105,,0,1,70,220,1,1,stimuli/stim_20210407_power2amp/equal_lnn_AM0.6Hz_46.m4a,,,
,,,,,38116,2021-05-08_17h18.57.542,judgeSpeechMusic_20210407_logNormShiftAmp,2020.1.2,Win32,60,,,,,,,,,,,,,,,,,,,,,,,,,,1,8.57332,,0,1,71,221,66,1,stimuli/stim_20210407_power2amp/equal_lnn_AM3Hz_51.m4a,,,
,,,,,38116,2021-05-08_17h18.57.542,judgeSpeechMusic_20210407_logNormShiftAmp,2020.1.2,Win32,60,,,,,,,,,,,,,,,,,,,,,,,,,,1,6.03398,,0,1,72,222,94,1,stimuli/stim_20210407_power2amp/equal_lnn_AM4.2Hz_38.m4a,,,
,,,,,38116,2021-05-08_17h18.57.542,judgeSpeechMusic_20210407_logNormShiftAmp,2020.1.2,Win32,60,,,,,,,,,,,,,,,,,,,,,,,,,,1,6.19196,,0,1,73,223,134,1,stimuli/stim_20210407_power2amp/equal_lnn_AM5.4Hz_18.m4a,,,
,,,,,38116,2021-05-08_17h18.57.542,judgeSpeechMusic_20210407_logNormShiftAmp,2020.1.2,Win32,60,,,,,,,,,,,,,,,,,,,,,,,,,,1,6.303865,,0,1,74,224,101,1,stimuli/stim_20210407_power2amp/equal_lnn_AM4.2Hz_90.m4a,,,
,,,,,38116,2021-05-08_17h18.57.542,judgeSpeechMusic_20210407_logNormShiftAmp,2020.1.2,Win32,60,,,,,,,,,,,,,,,,,,,,,,,,,,1,15.281375,,0,1,75,225,49,1,stimuli/stim_20210407_power2amp/equal_lnn_AM2.4Hz_13.m4a,,,
,,,,,38116,2021-05-08_17h18.57.542,judgeSpeechMusic_20210407_logNormShiftAmp,2020.1.2,Win32,60,,,,,,,,,,,,,,,,,,,,,,,,,,1,11.395665,,0,1,76,226,110,1,stimuli/stim_20210407_power2amp/equal_lnn_AM4.8Hz_76.m4a,,,
,,,,,38116,2021-05-08_17h18.57.542,judgeSpeechMusic_20210407_logNormShiftAmp,2020.1.2,Win32,60,,,,,,,,,,,,,,,,,,,,,,,,,,1,6.024365,,0,1,77,227,54,1,stimuli/stim_20210407_power2amp/equal_lnn_AM2.4Hz_5.m4a,,,
,,,,,38116,2021-05-08_17h18.57.542,judgeSpeechMusic_20210407_logNormShiftAmp,2020.1.2,Win32,60,,,,,,,,,,,,,,,,,,,,,,,,,,2,6.409985,,0,1,78,228,12,1,stimuli/stim_20210407_power2amp/equal_lnn_AM0.6Hz_40.m4a,,,
,,,,,38116,2021-05-08_17h18.57.542,judgeSpeechMusic_20210407_logNormShiftAmp,2020.1.2,Win32,60,,,,,,,,,,,,,,,,,,,,,,,,,,1,6.00062,,0,1,79,229,104,1,stimuli/stim_20210407_power2amp/equal_lnn_AM4.2Hz_51.m4a,,,
,,,,,38116,2021-05-08_17h18.57.542,judgeSpeechMusic_20210407_logNormShiftAmp,2020.1.2,Win32,60,,,,,,,,,,,,,,,,,,,,,,,,,,2,6.514755,,0,1,80,230,14,1,stimuli/stim_20210407_power2amp/equal_lnn_AM0.6Hz_88.m4a,,,
,,,,,38116,2021-05-08_17h18.57.542,judgeSpeechMusic_20210407_logNormShiftAmp,2020.1.2,Win32,60,,,,,,,,,,,,,,,,,,,,,,,,,,2,6.15465,,0,1,81,231,131,1,stimuli/stim_20210407_power2amp/equal_lnn_AM5.4Hz_66.m4a,,,
,,,,,38116,2021-05-08_17h18.57.542,judgeSpeechMusic_20210407_logNormShiftAmp,2020.1.2,Win32,60,,,,,,,,,,,,,,,,,,,,,,,,,,2,6.256815,,0,1,82,232,52,1,stimuli/stim_20210407_power2amp/equal_lnn_AM2.4Hz_75.m4a,,,
,,,,,38116,2021-05-08_17h18.57.542,judgeSpeechMusic_20210407_logNormShiftAmp,2020.1.2,Win32,60,,,,,,,,,,,,,,,,,,,,,,,,,,2,6.98297,,0,1,83,233,67,1,stimuli/stim_20210407_power2amp/equal_lnn_AM3Hz_71.m4a,,,
,,,,,38116,2021-05-08_17h18.57.542,judgeSpeechMusic_20210407_logNormShiftAmp,2020.1.2,Win32,60,,,,,,,,,,,,,,,,,,,,,,,,,,2,6.230315,,0,1,84,234,57,1,stimuli/stim_20210407_power2amp/equal_lnn_AM2.4Hz_88.m4a,,,
,,,,,38116,2021-05-08_17h18.57.542,judgeSpeechMusic_20210407_logNormShiftAmp,2020.1.2,Win32,60,,,,,,,,,,,,,,,,,,,,,,,,,,1,6.169665,,0,1,85,235,92,1,stimuli/stim_20210407_power2amp/equal_lnn_AM4.2Hz_86.m4a,,,
,,,,,38116,2021-05-08_17h18.57.542,judgeSpeechMusic_20210407_logNormShiftAmp,2020.1.2,Win32,60,,,,,,,,,,,,,,,,,,,,,,,,,,1,5.711885,4,1,1,86,236,77,1,stimuli/stim_20210407_power2amp/equal_lnn_AM3.6Hz_36.m4a,2.04766,,
,,,,,38116,2021-05-08_17h18.57.542,judgeSpeechMusic_20210407_logNormShiftAmp,2020.1.2,Win32,60,,,,,,,,,,,,,,,,,,,,,,,,,,1,6.55402,,0,1,87,237,86,1,stimuli/stim_20210407_power2amp/equal_lnn_AM3.6Hz_59.m4a,,,
,,,,,38116,2021-05-08_17h18.57.542,judgeSpeechMusic_20210407_logNormShiftAmp,2020.1.2,Win32,60,,,,,,,,,,,,,,,,,,,,,,,,,,1,5.67068,,0,1,88,238,69,1,stimuli/stim_20210407_power2amp/equal_lnn_AM3Hz_13.m4a,,,
,,,,,38116,2021-05-08_17h18.57.542,judgeSpeechMusic_20210407_logNormShiftAmp,2020.1.2,Win32,60,,,,,,,,,,,,,,,,,,,,,,,,,,2,6.01959,,0,1,89,239,35,1,stimuli/stim_20210407_power2amp/equal_lnn_AM1.8Hz_60.m4a,,,
,,,,,38116,2021-05-08_17h18.57.542,judgeSpeechMusic_20210407_logNormShiftAmp,2020.1.2,Win32,60,,,,,,,,,,,,,,,,,,,,,,,,,,1,6.02196,,0,1,90,240,136,1,stimuli/stim_20210407_power2amp/equal_lnn_AM6Hz_29.m4a,,,
,,,,,38116,2021-05-08_17h18.57.542,judgeSpeechMusic_20210407_logNormShiftAmp,2020.1.2,Win32,60,,,,,,,,,,,,,,,,,,,,,,,,,,1,5.685345,,0,1,91,241,119,1,stimuli/stim_20210407_power2amp/equal_lnn_AM4.8Hz_50.m4a,,,
,,,,,38116,2021-05-08_17h18.57.542,judgeSpeechMusic_20210407_logNormShiftAmp,2020.1.2,Win32,60,,,,,,,,,,,,,,,,,,,,,,,,,,1,11.06677,,0,1,92,242,39,1,stimuli/stim_20210407_power2amp/equal_lnn_AM1.8Hz_72.m4a,,,
,,,,,38116,2021-05-08_17h18.57.542,judgeSpeechMusic_20210407_logNormShiftAmp,2020.1.2,Win32,60,,,,,,,,,,,,,,,,,,,,,,,,,,1,146.563905,,0,1,93,243,55,1,stimuli/stim_20210407_power2amp/equal_lnn_AM2.4Hz_45.m4a,,,
,,,,,38116,2021-05-08_17h18.57.542,judgeSpeechMusic_20210407_logNormShiftAmp,2020.1.2,Win32,60,,,,,,,,,,,,,,,,,,,,,,,,,,1,6.91042,,0,1,94,244,53,1,stimuli/stim_20210407_power2amp/equal_lnn_AM2.4Hz_77.m4a,,,
,,,,,38116,2021-05-08_17h18.57.542,judgeSpeechMusic_20210407_logNormShiftAmp,2020.1.2,Win32,60,,,,,,,,,,,,,,,,,,,,,,,,,,1,6.32936,,0,1,95,245,90,1,stimuli/stim_20210407_power2amp/equal_lnn_AM4.2Hz_2.m4a,,,
,,,,,38116,2021-05-08_17h18.57.542,judgeSpeechMusic_20210407_logNormShiftAmp,2020.1.2,Win32,60,,,,,,,,,,,,,,,,,,,,,,,,,,1,5.62332,,0,1,96,246,141,1,stimuli/stim_20210407_power2amp/equal_lnn_AM6Hz_39.m4a,,,
,,,,,38116,2021-05-08_17h18.57.542,judgeSpeechMusic_20210407_logNormShiftAmp,2020.1.2,Win32,60,,,,,,,,,,,,,,,,,,,,,,,,,,1,38.04126,,0,1,97,247,15,1,stimuli/stim_20210407_power2amp/equal_lnn_AM1.2Hz_33.m4a,,,
,,,,,38116,2021-05-08_17h18.57.542,judgeSpeechMusic_20210407_logNormShiftAmp,2020.1.2,Win32,60,,,,,,,,,,,,,,,,,,,,,,,,,,1,5.684175,,0,1,98,248,7,1,stimuli/stim_20210407_power2amp/equal_lnn_AM0.6Hz_100.m4a,,,
,,,,,38116,2021-05-08_17h18.57.542,judgeSpeechMusic_20210407_logNormShiftAmp,2020.1.2,Win32,60,,,,,,,,,,,,,,,,,,,,,,,,,,1,6.150205,,0,1,99,249,46,1,stimuli/stim_20210407_power2amp/equal_lnn_AM2.4Hz_27.m4a,,,
,,,,,38116,2021-05-08_17h18.57.542,judgeSpeechMusic_20210407_logNormShiftAmp,2020.1.2,Win32,60,,,,,,,,,,,,,,,,,,,,,,,,,,1,6.430845,,0,1,100,250,124,1,stimuli/stim_20210407_power2amp/equal_lnn_AM5.4Hz_43.m4a,,,
,,,,,38116,2021-05-08_17h18.57.542,judgeSpeechMusic_20210407_logNormShiftAmp,2020.1.2,Win32,60,,,,,,,,,,,,,,,,,,,,,,,,,,1,12.251445,,0,1,101,251,127,1,stimuli/stim_20210407_power2amp/equal_lnn_AM5.4Hz_97.m4a,,,
,,,,,38116,2021-05-08_17h18.57.542,judgeSpeechMusic_20210407_logNormShiftAmp,2020.1.2,Win32,60,,,,,,,,,,,,,,,,,,,,,,,,,,1,6.000615,,0,1,102,252,80,1,stimuli/stim_20210407_power2amp/equal_lnn_AM3.6Hz_30.m4a,,,
,,,,,38116,2021-05-08_17h18.57.542,judgeSpeechMusic_20210407_logNormShiftAmp,2020.1.2,Win32,60,,,,,,,,,,,,,,,,,,,,,,,,,,1,9.201715,,0,1,103,253,10,1,stimuli/stim_20210407_power2amp/equal_lnn_AM0.6Hz_85.m4a,,,
,,,,,38116,2021-05-08_17h18.57.542,judgeSpeechMusic_20210407_logNormShiftAmp,2020.1.2,Win32,60,,,,,,,,,,,,,,,,,,,,,,,,,,2,6.243585,,0,1,104,254,6,1,stimuli/stim_20210407_power2amp/equal_lnn_AM0.6Hz_17.m4a,,,
,,,,,38116,2021-05-08_17h18.57.542,judgeSpeechMusic_20210407_logNormShiftAmp,2020.1.2,Win32,60,,,,,,,,,,,,,,,,,,,,,,,,,,1,6.018805,,0,1,105,255,93,1,stimuli/stim_20210407_power2amp/equal_lnn_AM4.2Hz_100.m4a,,,
,,,,,38116,2021-05-08_17h18.57.542,judgeSpeechMusic_20210407_logNormShiftAmp,2020.1.2,Win32,60,,,,,,,,,,,,,,,,,,,,,,,,,,1,6.28521,,0,1,106,256,45,1,stimuli/stim_20210407_power2amp/equal_lnn_AM2.4Hz_71.m4a,,,
,,,,,38116,2021-05-08_17h18.57.542,judgeSpeechMusic_20210407_logNormShiftAmp,2020.1.2,Win32,60,,,,,,,,,,,,,,,,,,,,,,,,,,1,7.887295,,0,1,107,257,149,1,stimuli/stim_20210407_power2amp/equal_lnn_AM6Hz_82.m4a,,,
,,,,,38116,2021-05-08_17h18.57.542,judgeSpeechMusic_20210407_logNormShiftAmp,2020.1.2,Win32,60,,,,,,,,,,,,,,,,,,,,,,,,,,1,6.151245,,0,1,108,258,13,1,stimuli/stim_20210407_power2amp/equal_lnn_AM0.6Hz_34.m4a,,,
,,,,,38116,2021-05-08_17h18.57.542,judgeSpeechMusic_20210407_logNormShiftAmp,2020.1.2,Win32,60,,,,,,,,,,,,,,,,,,,,,,,,,,1,5.818835,,0,1,109,259,75,1,stimuli/stim_20210407_power2amp/equal_lnn_AM3.6Hz_86.m4a,,,
,,,,,38116,2021-05-08_17h18.57.542,judgeSpeechMusic_20210407_logNormShiftAmp,2020.1.2,Win32,60,,,,,,,,,,,,,,,,,,,,,,,,,,1,6.549895,,0,1,110,260,21,1,stimuli/stim_20210407_power2amp/equal_lnn_AM1.2Hz_10.m4a,,,
,,,,,38116,2021-05-08_17h18.57.542,judgeSpeechMusic_20210407_logNormShiftAmp,2020.1.2,Win32,60,,,,,,,,,,,,,,,,,,,,,,,,,,1,5.63591,4,1,1,111,261,129,1,stimuli/stim_20210407_power2amp/equal_lnn_AM5.4Hz_69.m4a,1.63857,,
,,,,,38116,2021-05-08_17h18.57.542,judgeSpeechMusic_20210407_logNormShiftAmp,2020.1.2,Win32,60,,,,,,,,,,,,,,,,,,,,,,,,,,1,109.400545,,0,1,112,262,106,1,stimuli/stim_20210407_power2amp/equal_lnn_AM4.8Hz_27.m4a,,,
,,,,,38116,2021-05-08_17h18.57.542,judgeSpeechMusic_20210407_logNormShiftAmp,2020.1.2,Win32,60,,,,,,,,,,,,,,,,,,,,,,,,,,1,13.40518,,0,1,113,263,118,1,stimuli/stim_20210407_power2amp/equal_lnn_AM4.8Hz_11.m4a,,,
,,,,,38116,2021-05-08_17h18.57.542,judgeSpeechMusic_20210407_logNormShiftAmp,2020.1.2,Win32,60,,,,,,,,,,,,,,,,,,,,,,,,,,1,10.64311,,0,1,114,264,144,1,stimuli/stim_20210407_power2amp/equal_lnn_AM6Hz_26.m4a,,,
,,,,,38116,2021-05-08_17h18.57.542,judgeSpeechMusic_20210407_logNormShiftAmp,2020.1.2,Win32,60,,,,,,,,,,,,,,,,,,,,,,,,,,1,7.905685,,0,1,115,265,100,1,stimuli/stim_20210407_power2amp/equal_lnn_AM4.2Hz_23.m4a,,,
,,,,,38116,2021-05-08_17h18.57.542,judgeSpeechMusic_20210407_logNormShiftAmp,2020.1.2,Win32,60,,,,,,,,,,,,,,,,,,,,,,,,,,1,6.326295,,0,1,116,266,74,1,stimuli/stim_20210407_power2amp/equal_lnn_AM3Hz_77.m4a,,,
,,,,,38116,2021-05-08_17h18.57.542,judgeSpeechMusic_20210407_logNormShiftAmp,2020.1.2,Win32,60,,,,,,,,,,,,,,,,,,,,,,,,,,1,7.843815,,0,1,117,267,50,1,stimuli/stim_20210407_power2amp/equal_lnn_AM2.4Hz_81.m4a,,,
,,,,,38116,2021-05-08_17h18.57.542,judgeSpeechMusic_20210407_logNormShiftAmp,2020.1.2,Win32,60,,,,,,,,,,,,,,,,,,,,,,,,,,1,8.15283,,0,1,118,268,145,1,stimuli/stim_20210407_power2amp/equal_lnn_AM6Hz_14.m4a,,,
,,,,,38116,2021-05-08_17h18.57.542,judgeSpeechMusic_20210407_logNormShiftAmp,2020.1.2,Win32,60,,,,,,,,,,,,,,,,,,,,,,,,,,1,6.551665,,0,1,119,269,99,1,stimuli/stim_20210407_power2amp/equal_lnn_AM4.2Hz_61.m4a,,,
,,,,,38116,2021-05-08_17h18.57.542,judgeSpeechMusic_20210407_logNormShiftAmp,2020.1.2,Win32,60,,,,,,,,,,,,,,,,,,,,,,,,,,2,6.182455,,0,1,120,270,17,1,stimuli/stim_20210407_power2amp/equal_lnn_AM1.2Hz_17.m4a,,,
,,,,,38116,2021-05-08_17h18.57.542,judgeSpeechMusic_20210407_logNormShiftAmp,2020.1.2,Win32,60,,,,,,,,,,,,,,,,,,,,,,,,,,1,6.568515,,0,1,121,271,102,1,stimuli/stim_20210407_power2amp/equal_lnn_AM4.2Hz_96.m4a,,,
,,,,,38116,2021-05-08_17h18.57.542,judgeSpeechMusic_20210407_logNormShiftAmp,2020.1.2,Win32,60,,,,,,,,,,,,,,,,,,,,,,,,,,1,6.2261,,0,1,122,272,31,1,stimuli/stim_20210407_power2amp/equal_lnn_AM1.8Hz_20.m4a,,,
,,,,,38116,2021-05-08_17h18.57.542,judgeSpeechMusic_20210407_logNormShiftAmp,2020.1.2,Win32,60,,,,,,,,,,,,,,,,,,,,,,,,,,1,9.87539,,0,1,123,273,117,1,stimuli/stim_20210407_power2amp/equal_lnn_AM4.8Hz_1.m4a,,,
,,,,,38116,2021-05-08_17h18.57.542,judgeSpeechMusic_20210407_logNormShiftAmp,2020.1.2,Win32,60,,,,,,,,,,,,,,,,,,,,,,,,,,1,7.80797,,0,1,124,274,125,1,stimuli/stim_20210407_power2amp/equal_lnn_AM5.4Hz_24.m4a,,,
,,,,,38116,2021-05-08_17h18.57.542,judgeSpeechMusic_20210407_logNormShiftAmp,2020.1.2,Win32,60,,,,,,,,,,,,,,,,,,,,,,,,,,1,14.24472,,0,1,125,275,23,1,stimuli/stim_20210407_power2amp/equal_lnn_AM1.2Hz_13.m4a,,,
,,,,,38116,2021-05-08_17h18.57.542,judgeSpeechMusic_20210407_logNormShiftAmp,2020.1.2,Win32,60,,,,,,,,,,,,,,,,,,,,,,,,,,1,6.19873,,0,1,126,276,121,1,stimuli/stim_20210407_power2amp/equal_lnn_AM5.4Hz_35.m4a,,,
,,,,,38116,2021-05-08_17h18.57.542,judgeSpeechMusic_20210407_logNormShiftAmp,2020.1.2,Win32,60,,,,,,,,,,,,,,,,,,,,,,,,,,2,5.816365,,0,1,127,277,37,1,stimuli/stim_20210407_power2amp/equal_lnn_AM1.8Hz_96.m4a,,,
,,,,,38116,2021-05-08_17h18.57.542,judgeSpeechMusic_20210407_logNormShiftAmp,2020.1.2,Win32,60,,,,,,,,,,,,,,,,,,,,,,,,,,1,8.219,,0,1,128,278,114,1,stimuli/stim_20210407_power2amp/equal_lnn_AM4.8Hz_93.m4a,,,
,,,,,38116,2021-05-08_17h18.57.542,judgeSpeechMusic_20210407_logNormShiftAmp,2020.1.2,Win32,60,,,,,,,,,,,,,,,,,,,,,,,,,,1,10.41473,,0,1,129,279,44,1,stimuli/stim_20210407_power2amp/equal_lnn_AM1.8Hz_45.m4a,,,
,,,,,38116,2021-05-08_17h18.57.542,judgeSpeechMusic_20210407_logNormShiftAmp,2020.1.2,Win32,60,,,,,,,,,,,,,,,,,,,,,,,,,,1,6.202285,,0,1,130,280,8,1,stimuli/stim_20210407_power2amp/equal_lnn_AM0.6Hz_50.m4a,,,
,,,,,38116,2021-05-08_17h18.57.542,judgeSpeechMusic_20210407_logNormShiftAmp,2020.1.2,Win32,60,,,,,,,,,,,,,,,,,,,,,,,,,,1,10.18439,,0,1,131,281,16,1,stimuli/stim_20210407_power2amp/equal_lnn_AM1.2Hz_36.m4a,,,
,,,,,38116,2021-05-08_17h18.57.542,judgeSpeechMusic_20210407_logNormShiftAmp,2020.1.2,Win32,60,,,,,,,,,,,,,,,,,,,,,,,,,,1,24.714305,,0,1,132,282,111,1,stimuli/stim_20210407_power2amp/equal_lnn_AM4.8Hz_66.m4a,,,
,,,,,38116,2021-05-08_17h18.57.542,judgeSpeechMusic_20210407_logNormShiftAmp,2020.1.2,Win32,60,,,,,,,,,,,,,,,,,,,,,,,,,,1,7.062165,,0,1,133,283,78,1,stimuli/stim_20210407_power2amp/equal_lnn_AM3.6Hz_10.m4a,,,
,,,,,38116,2021-05-08_17h18.57.542,judgeSpeechMusic_20210407_logNormShiftAmp,2020.1.2,Win32,60,,,,,,,,,,,,,,,,,,,,,,,,,,1,11.241635,,0,1,134,284,98,1,stimuli/stim_20210407_power2amp/equal_lnn_AM4.2Hz_99.m4a,,,
,,,,,38116,2021-05-08_17h18.57.542,judgeSpeechMusic_20210407_logNormShiftAmp,2020.1.2,Win32,60,,,,,,,,,,,,,,,,,,,,,,,,,,1,10.769105,,0,1,135,285,70,1,stimuli/stim_20210407_power2amp/equal_lnn_AM3Hz_74.m4a,,,
,,,,,38116,2021-05-08_17h18.57.542,judgeSpeechMusic_20210407_logNormShiftAmp,2020.1.2,Win32,60,,,,,,,,,,,,,,,,,,,,,,,,,,1,6.423565,2,1,1,136,286,27,1,stimuli/stim_20210407_power2amp/equal_lnn_AM1.2Hz_28.m4a,1.3877,,
,,,,,38116,2021-05-08_17h18.57.542,judgeSpeechMusic_20210407_logNormShiftAmp,2020.1.2,Win32,60,,,,,,,,,,,,,,,,,,,,,,,,,,1,15.053295,,0,1,137,287,120,1,stimuli/stim_20210407_power2amp/equal_lnn_AM5.4Hz_28.m4a,,,
,,,,,38116,2021-05-08_17h18.57.542,judgeSpeechMusic_20210407_logNormShiftAmp,2020.1.2,Win32,60,,,,,,,,,,,,,,,,,,,,,,,,,,1,5.875115,,0,1,138,288,29,1,stimuli/stim_20210407_power2amp/equal_lnn_AM1.2Hz_70.m4a,,,
,,,,,38116,2021-05-08_17h18.57.542,judgeSpeechMusic_20210407_logNormShiftAmp,2020.1.2,Win32,60,,,,,,,,,,,,,,,,,,,,,,,,,,1,7.144735,,0,1,139,289,126,1,stimuli/stim_20210407_power2amp/equal_lnn_AM5.4Hz_13.m4a,,,
,,,,,38116,2021-05-08_17h18.57.542,judgeSpeechMusic_20210407_logNormShiftAmp,2020.1.2,Win32,60,,,,,,,,,,,,,,,,,,,,,,,,,,1,5.58329,,0,1,140,290,73,1,stimuli/stim_20210407_power2amp/equal_lnn_AM3Hz_67.m4a,,,
,,,,,38116,2021-05-08_17h18.57.542,judgeSpeechMusic_20210407_logNormShiftAmp,2020.1.2,Win32,60,,,,,,,,,,,,,,,,,,,,,,,,,,1,5.378685,,0,1,141,291,132,1,stimuli/stim_20210407_power2amp/equal_lnn_AM5.4Hz_92.m4a,,,
,,,,,38116,2021-05-08_17h18.57.542,judgeSpeechMusic_20210407_logNormShiftAmp,2020.1.2,Win32,60,,,,,,,,,,,,,,,,,,,,,,,,,,1,8.358075,,0,1,142,292,130,1,stimuli/stim_20210407_power2amp/equal_lnn_AM5.4Hz_88.m4a,,,
,,,,,38116,2021-05-08_17h18.57.542,judgeSpeechMusic_20210407_logNormShiftAmp,2020.1.2,Win32,60,,,,,,,,,,,,,,,,,,,,,,,,,,1,13.42775,,0,1,143,293,63,1,stimuli/stim_20210407_power2amp/equal_lnn_AM3Hz_85.m4a,,,
,,,,,38116,2021-05-08_17h18.57.542,judgeSpeechMusic_20210407_logNormShiftAmp,2020.1.2,Win32,60,,,,,,,,,,,,,,,,,,,,,,,,,,1,6.48058,,0,1,144,294,84,1,stimuli/stim_20210407_power2amp/equal_lnn_AM3.6Hz_65.m4a,,,
,,,,,38116,2021-05-08_17h18.57.542,judgeSpeechMusic_20210407_logNormShiftAmp,2020.1.2,Win32,60,,,,,,,,,,,,,,,,,,,,,,,,,,1,6.341535,,0,1,145,295,56,1,stimuli/stim_20210407_power2amp/equal_lnn_AM2.4Hz_49.m4a,,,
,,,,,38116,2021-05-08_17h18.57.542,judgeSpeechMusic_20210407_logNormShiftAmp,2020.1.2,Win32,60,,,,,,,,,,,,,,,,,,,,,,,,,,1,32.25671,,0,1,146,296,62,1,stimuli/stim_20210407_power2amp/equal_lnn_AM3Hz_36.m4a,,,
,,,,,38116,2021-05-08_17h18.57.542,judgeSpeechMusic_20210407_logNormShiftAmp,2020.1.2,Win32,60,,,,,,,,,,,,,,,,,,,,,,,,,,1,20.60261,,0,1,147,297,32,1,stimuli/stim_20210407_power2amp/equal_lnn_AM1.8Hz_38.m4a,,,
,,,,,38116,2021-05-08_17h18.57.542,judgeSpeechMusic_20210407_logNormShiftAmp,2020.1.2,Win32,60,,,,,,,,,,,,,,,,,,,,,,,,,,1,32.383105,,0,1,148,298,95,1,stimuli/stim_20210407_power2amp/equal_lnn_AM4.2Hz_97.m4a,,,
,,,,,38116,2021-05-08_17h18.57.542,judgeSpeechMusic_20210407_logNormShiftAmp,2020.1.2,Win32,60,,,,,,,,,,,,,,,,,,,,,,,,,,1,6.37112,,0,1,149,299,38,1,stimuli/stim_20210407_power2amp/equal_lnn_AM1.8Hz_9.m4a,,,
,,,,,38116,2021-05-08_17h18.57.542,judgeSpeechMusic_20210407_logNormShiftAmp,2020.1.2,Win32,60,,,,,,,,,,,,,,,,,,,,,,,,,,,,,,,,,,,,,space,10.90206
