headphoneResponse.keys,headphoneResponse.corr,headphoneResponse.rt,headphoneTrial.thisRepN,headphoneTrial.thisTrialN,headphoneTrial.thisN,headphoneTrial.thisIndex,headphoneTrial.ran,headphone_sound1,headphone_sound2,headphone_sound3,corrAns,participant,date,expName,psychopyVersion,OS,frameRate,trainSlider.response,trainSlider.rt,beepTrainResponse.keys,beepTrainResponse.corr,trainingTrials.thisRepN,trainingTrials.thisTrialN,trainingTrials.thisN,trainingTrials.thisIndex,trainingTrials.ran,trainAudioFile,beepTrainResponse.rt,readyReal_resp.keys,readyReal_resp.rt,ratingSlider.response,ratingSlider.rt,beepResp.keys,beepResp.corr,expTrials.thisRepN,expTrials.thisTrialN,expTrials.thisN,expTrials.thisIndex,expTrials.ran,audioFile,beepResp.rt,end_resp.keys,end_resp.rt
2,1,1.153945,0,0,0,1,1,stimuli/screen_antiphase.wav,stimuli/screen_quiet.wav,stimuli/screen_origin.wav,2,38677,2021-05-10_20h38.58.354,judgeSpeechMusic_20210407_logNormShiftAmp,2020.1.2,MacIntel,60,,,,,,,,,,,,,,,,,,,,,,,,,,
1,1,1.10896,0,1,1,5,1,stimuli/screen_quiet.wav,stimuli/screen_origin.wav,stimuli/screen_antiphase.wav,1,38677,2021-05-10_20h38.58.354,judgeSpeechMusic_20210407_logNormShiftAmp,2020.1.2,MacIntel,60,,,,,,,,,,,,,,,,,,,,,,,,,,
3,1,0.850535,0,2,2,0,1,stimuli/screen_antiphase.wav,stimuli/screen_origin.wav,stimuli/screen_quiet.wav,3,38677,2021-05-10_20h38.58.354,judgeSpeechMusic_20210407_logNormShiftAmp,2020.1.2,MacIntel,60,,,,,,,,,,,,,,,,,,,,,,,,,,
1,1,0.93309,0,3,3,4,1,stimuli/screen_quiet.wav,stimuli/screen_antiphase.wav,stimuli/screen_origin.wav,1,38677,2021-05-10_20h38.58.354,judgeSpeechMusic_20210407_logNormShiftAmp,2020.1.2,MacIntel,60,,,,,,,,,,,,,,,,,,,,,,,,,,
3,1,0.57669,0,4,4,2,1,stimuli/screen_origin.wav,stimuli/screen_antiphase.wav,stimuli/screen_quiet.wav,3,38677,2021-05-10_20h38.58.354,judgeSpeechMusic_20210407_logNormShiftAmp,2020.1.2,MacIntel,60,,,,,,,,,,,,,,,,,,,,,,,,,,
2,1,0.925125,0,5,5,3,1,stimuli/screen_origin.wav,stimuli/screen_quiet.wav,stimuli/screen_antiphase.wav,2,38677,2021-05-10_20h38.58.354,judgeSpeechMusic_20210407_logNormShiftAmp,2020.1.2,MacIntel,60,,,,,,,,,,,,,,,,,,,,,,,,,,
,,,,,,,,,,,,38677,2021-05-10_20h38.58.354,judgeSpeechMusic_20210407_logNormShiftAmp,2020.1.2,MacIntel,60,1,19.72475,,0,0,0,0,0,1,stimuli/stim_20210407_power2amp/equal_lnn_AM_training1.5Hz.m4a,,,,,,,,,,,,,,,,
,,,,,,,,,,,,38677,2021-05-10_20h38.58.354,judgeSpeechMusic_20210407_logNormShiftAmp,2020.1.2,MacIntel,60,2,7.866795,,0,0,1,1,1,1,stimuli/stim_20210407_power2amp/equal_lnn_AM_training2.7Hz.m4a,,,,,,,,,,,,,,,,
,,,,,,,,,,,,38677,2021-05-10_20h38.58.354,judgeSpeechMusic_20210407_logNormShiftAmp,2020.1.2,MacIntel,60,1,9.76227,1,1,0,2,2,3,1,stimuli/stim_20210407_power2amp/equal_lnn_AM_training5.1Hz.m4a,1.981045,,,,,,,,,,,,,,,
,,,,,,,,,,,,38677,2021-05-10_20h38.58.354,judgeSpeechMusic_20210407_logNormShiftAmp,2020.1.2,MacIntel,60,1,14.54229,,0,0,3,3,2,1,stimuli/stim_20210407_power2amp/equal_lnn_AM_training3.9Hz.m4a,,,,,,,,,,,,,,,,
,,,,,,,,,,,,38677,2021-05-10_20h38.58.354,judgeSpeechMusic_20210407_logNormShiftAmp,2020.1.2,MacIntel,60,,,,,,,,,,,,space,4.50569,1,6.04378,,0,0,0,0,18,1,stimuli/stim_20210407_power2amp/equal_lnn_AM1.2Hz_10.m4a,,,
,,,,,,,,,,,,38677,2021-05-10_20h38.58.354,judgeSpeechMusic_20210407_logNormShiftAmp,2020.1.2,MacIntel,60,,,,,,,,,,,,,,2,17.0126,,0,0,1,1,45,1,stimuli/stim_20210407_power2amp/equal_lnn_AM2.4Hz_71.m4a,,,
,,,,,,,,,,,,38677,2021-05-10_20h38.58.354,judgeSpeechMusic_20210407_logNormShiftAmp,2020.1.2,MacIntel,60,,,,,,,,,,,,,,1,8.90717,,0,0,2,2,86,1,stimuli/stim_20210407_power2amp/equal_lnn_AM3.6Hz_60.m4a,,,
,,,,,,,,,,,,38677,2021-05-10_20h38.58.354,judgeSpeechMusic_20210407_logNormShiftAmp,2020.1.2,MacIntel,60,,,,,,,,,,,,,,2,6.354455,,0,0,3,3,83,1,stimuli/stim_20210407_power2amp/equal_lnn_AM3.6Hz_26.m4a,,,
,,,,,,,,,,,,38677,2021-05-10_20h38.58.354,judgeSpeechMusic_20210407_logNormShiftAmp,2020.1.2,MacIntel,60,,,,,,,,,,,,,,1,6.278485,,0,0,4,4,140,1,stimuli/stim_20210407_power2amp/equal_lnn_AM6Hz_77.m4a,,,
,,,,,,,,,,,,38677,2021-05-10_20h38.58.354,judgeSpeechMusic_20210407_logNormShiftAmp,2020.1.2,MacIntel,60,,,,,,,,,,,,,,1,7.145205,,0,0,5,5,29,1,stimuli/stim_20210407_power2amp/equal_lnn_AM1.2Hz_9.m4a,,,
,,,,,,,,,,,,38677,2021-05-10_20h38.58.354,judgeSpeechMusic_20210407_logNormShiftAmp,2020.1.2,MacIntel,60,,,,,,,,,,,,,,2,6.242505,,0,0,6,6,87,1,stimuli/stim_20210407_power2amp/equal_lnn_AM3.6Hz_44.m4a,,,
,,,,,,,,,,,,38677,2021-05-10_20h38.58.354,judgeSpeechMusic_20210407_logNormShiftAmp,2020.1.2,MacIntel,60,,,,,,,,,,,,,,2,6.560195,,0,0,7,7,124,1,stimuli/stim_20210407_power2amp/equal_lnn_AM5.4Hz_16.m4a,,,
,,,,,,,,,,,,38677,2021-05-10_20h38.58.354,judgeSpeechMusic_20210407_logNormShiftAmp,2020.1.2,MacIntel,60,,,,,,,,,,,,,,2,8.011995,,0,0,8,8,63,1,stimuli/stim_20210407_power2amp/equal_lnn_AM3Hz_80.m4a,,,
,,,,,,,,,,,,38677,2021-05-10_20h38.58.354,judgeSpeechMusic_20210407_logNormShiftAmp,2020.1.2,MacIntel,60,,,,,,,,,,,,,,1,8.89034,,0,0,9,9,81,1,stimuli/stim_20210407_power2amp/equal_lnn_AM3.6Hz_24.m4a,,,
,,,,,,,,,,,,38677,2021-05-10_20h38.58.354,judgeSpeechMusic_20210407_logNormShiftAmp,2020.1.2,MacIntel,60,,,,,,,,,,,,,,1,8.197785,,0,0,10,10,52,1,stimuli/stim_20210407_power2amp/equal_lnn_AM2.4Hz_96.m4a,,,
,,,,,,,,,,,,38677,2021-05-10_20h38.58.354,judgeSpeechMusic_20210407_logNormShiftAmp,2020.1.2,MacIntel,60,,,,,,,,,,,,,,1,16.840365,,0,0,11,11,39,1,stimuli/stim_20210407_power2amp/equal_lnn_AM1.8Hz_62.m4a,,,
,,,,,,,,,,,,38677,2021-05-10_20h38.58.354,judgeSpeechMusic_20210407_logNormShiftAmp,2020.1.2,MacIntel,60,,,,,,,,,,,,,,2,6.44461,,0,0,12,12,133,1,stimuli/stim_20210407_power2amp/equal_lnn_AM5.4Hz_72.m4a,,,
,,,,,,,,,,,,38677,2021-05-10_20h38.58.354,judgeSpeechMusic_20210407_logNormShiftAmp,2020.1.2,MacIntel,60,,,,,,,,,,,,,,2,7.91152,,0,0,13,13,57,1,stimuli/stim_20210407_power2amp/equal_lnn_AM2.4Hz_6.m4a,,,
,,,,,,,,,,,,38677,2021-05-10_20h38.58.354,judgeSpeechMusic_20210407_logNormShiftAmp,2020.1.2,MacIntel,60,,,,,,,,,,,,,,2,11.15831,,0,0,14,14,32,1,stimuli/stim_20210407_power2amp/equal_lnn_AM1.8Hz_29.m4a,,,
,,,,,,,,,,,,38677,2021-05-10_20h38.58.354,judgeSpeechMusic_20210407_logNormShiftAmp,2020.1.2,MacIntel,60,,,,,,,,,,,,,,2,8.6435,,0,0,15,15,76,1,stimuli/stim_20210407_power2amp/equal_lnn_AM3.6Hz_7.m4a,,,
,,,,,,,,,,,,38677,2021-05-10_20h38.58.354,judgeSpeechMusic_20210407_logNormShiftAmp,2020.1.2,MacIntel,60,,,,,,,,,,,,,,1,7.310485,,0,0,16,16,4,1,stimuli/stim_20210407_power2amp/equal_lnn_AM0.6Hz_21.m4a,,,
,,,,,,,,,,,,38677,2021-05-10_20h38.58.354,judgeSpeechMusic_20210407_logNormShiftAmp,2020.1.2,MacIntel,60,,,,,,,,,,,,,,1,13.74695,,0,0,17,17,131,1,stimuli/stim_20210407_power2amp/equal_lnn_AM5.4Hz_44.m4a,,,
,,,,,,,,,,,,38677,2021-05-10_20h38.58.354,judgeSpeechMusic_20210407_logNormShiftAmp,2020.1.2,MacIntel,60,,,,,,,,,,,,,,2,8.26112,,0,0,18,18,115,1,stimuli/stim_20210407_power2amp/equal_lnn_AM4.8Hz_4.m4a,,,
,,,,,,,,,,,,38677,2021-05-10_20h38.58.354,judgeSpeechMusic_20210407_logNormShiftAmp,2020.1.2,MacIntel,60,,,,,,,,,,,,,,2,48.893575,,0,0,19,19,72,1,stimuli/stim_20210407_power2amp/equal_lnn_AM3Hz_63.m4a,,,
,,,,,,,,,,,,38677,2021-05-10_20h38.58.354,judgeSpeechMusic_20210407_logNormShiftAmp,2020.1.2,MacIntel,60,,,,,,,,,,,,,,2,6.663505,,0,0,20,20,106,1,stimuli/stim_20210407_power2amp/equal_lnn_AM4.8Hz_64.m4a,,,
,,,,,,,,,,,,38677,2021-05-10_20h38.58.354,judgeSpeechMusic_20210407_logNormShiftAmp,2020.1.2,MacIntel,60,,,,,,,,,,,,,,2,6.794795,,0,0,21,21,41,1,stimuli/stim_20210407_power2amp/equal_lnn_AM1.8Hz_20.m4a,,,
,,,,,,,,,,,,38677,2021-05-10_20h38.58.354,judgeSpeechMusic_20210407_logNormShiftAmp,2020.1.2,MacIntel,60,,,,,,,,,,,,,,2,5.867665,,0,0,22,22,130,1,stimuli/stim_20210407_power2amp/equal_lnn_AM5.4Hz_83.m4a,,,
,,,,,,,,,,,,38677,2021-05-10_20h38.58.354,judgeSpeechMusic_20210407_logNormShiftAmp,2020.1.2,MacIntel,60,,,,,,,,,,,,,,2,7.639045,,0,0,23,23,145,1,stimuli/stim_20210407_power2amp/equal_lnn_AM6Hz_96.m4a,,,
,,,,,,,,,,,,38677,2021-05-10_20h38.58.354,judgeSpeechMusic_20210407_logNormShiftAmp,2020.1.2,MacIntel,60,,,,,,,,,,,,,,1,9.12886,,0,0,24,24,92,1,stimuli/stim_20210407_power2amp/equal_lnn_AM4.2Hz_24.m4a,,,
,,,,,,,,,,,,38677,2021-05-10_20h38.58.354,judgeSpeechMusic_20210407_logNormShiftAmp,2020.1.2,MacIntel,60,,,,,,,,,,,,,,1,7.87706,,0,0,25,25,91,1,stimuli/stim_20210407_power2amp/equal_lnn_AM4.2Hz_65.m4a,,,
,,,,,,,,,,,,38677,2021-05-10_20h38.58.354,judgeSpeechMusic_20210407_logNormShiftAmp,2020.1.2,MacIntel,60,,,,,,,,,,,,,,2,6.674965,,0,0,26,26,56,1,stimuli/stim_20210407_power2amp/equal_lnn_AM2.4Hz_9.m4a,,,
,,,,,,,,,,,,38677,2021-05-10_20h38.58.354,judgeSpeechMusic_20210407_logNormShiftAmp,2020.1.2,MacIntel,60,,,,,,,,,,,,,,1,6.39258,,0,0,27,27,15,1,stimuli/stim_20210407_power2amp/equal_lnn_AM1.2Hz_55.m4a,,,
,,,,,,,,,,,,38677,2021-05-10_20h38.58.354,judgeSpeechMusic_20210407_logNormShiftAmp,2020.1.2,MacIntel,60,,,,,,,,,,,,,,2,6.27555,,0,0,28,28,123,1,stimuli/stim_20210407_power2amp/equal_lnn_AM5.4Hz_52.m4a,,,
,,,,,,,,,,,,38677,2021-05-10_20h38.58.354,judgeSpeechMusic_20210407_logNormShiftAmp,2020.1.2,MacIntel,60,,,,,,,,,,,,,,1,6.127345,,0,0,29,29,20,1,stimuli/stim_20210407_power2amp/equal_lnn_AM1.2Hz_87.m4a,,,
,,,,,,,,,,,,38677,2021-05-10_20h38.58.354,judgeSpeechMusic_20210407_logNormShiftAmp,2020.1.2,MacIntel,60,,,,,,,,,,,,,,1,10.407185,,0,0,30,30,99,1,stimuli/stim_20210407_power2amp/equal_lnn_AM4.2Hz_34.m4a,,,
,,,,,,,,,,,,38677,2021-05-10_20h38.58.354,judgeSpeechMusic_20210407_logNormShiftAmp,2020.1.2,MacIntel,60,,,,,,,,,,,,,,2,5.72267,,0,0,31,31,101,1,stimuli/stim_20210407_power2amp/equal_lnn_AM4.2Hz_1.m4a,,,
,,,,,,,,,,,,38677,2021-05-10_20h38.58.354,judgeSpeechMusic_20210407_logNormShiftAmp,2020.1.2,MacIntel,60,,,,,,,,,,,,,,1,5.974335,,0,0,32,32,21,1,stimuli/stim_20210407_power2amp/equal_lnn_AM1.2Hz_42.m4a,,,
,,,,,,,,,,,,38677,2021-05-10_20h38.58.354,judgeSpeechMusic_20210407_logNormShiftAmp,2020.1.2,MacIntel,60,,,,,,,,,,,,,,2,5.76128,,0,0,33,33,113,1,stimuli/stim_20210407_power2amp/equal_lnn_AM4.8Hz_59.m4a,,,
,,,,,,,,,,,,38677,2021-05-10_20h38.58.354,judgeSpeechMusic_20210407_logNormShiftAmp,2020.1.2,MacIntel,60,,,,,,,,,,,,,,1,6.157465,2,1,0,34,34,48,1,stimuli/stim_20210407_power2amp/equal_lnn_AM2.4Hz_76.m4a,1.411695,,
,,,,,,,,,,,,38677,2021-05-10_20h38.58.354,judgeSpeechMusic_20210407_logNormShiftAmp,2020.1.2,MacIntel,60,,,,,,,,,,,,,,1,6.00763,,0,0,35,35,8,1,stimuli/stim_20210407_power2amp/equal_lnn_AM0.6Hz_70.m4a,,,
,,,,,,,,,,,,38677,2021-05-10_20h38.58.354,judgeSpeechMusic_20210407_logNormShiftAmp,2020.1.2,MacIntel,60,,,,,,,,,,,,,,2,5.823655,,0,0,36,36,88,1,stimuli/stim_20210407_power2amp/equal_lnn_AM3.6Hz_91.m4a,,,
,,,,,,,,,,,,38677,2021-05-10_20h38.58.354,judgeSpeechMusic_20210407_logNormShiftAmp,2020.1.2,MacIntel,60,,,,,,,,,,,,,,2,5.97177,,0,0,37,37,98,1,stimuli/stim_20210407_power2amp/equal_lnn_AM4.2Hz_55.m4a,,,
,,,,,,,,,,,,38677,2021-05-10_20h38.58.354,judgeSpeechMusic_20210407_logNormShiftAmp,2020.1.2,MacIntel,60,,,,,,,,,,,,,,2,6.01768,,0,0,38,38,138,1,stimuli/stim_20210407_power2amp/equal_lnn_AM6Hz_10.m4a,,,
,,,,,,,,,,,,38677,2021-05-10_20h38.58.354,judgeSpeechMusic_20210407_logNormShiftAmp,2020.1.2,MacIntel,60,,,,,,,,,,,,,,2,6.216285,,0,0,39,39,137,1,stimuli/stim_20210407_power2amp/equal_lnn_AM6Hz_17.m4a,,,
,,,,,,,,,,,,38677,2021-05-10_20h38.58.354,judgeSpeechMusic_20210407_logNormShiftAmp,2020.1.2,MacIntel,60,,,,,,,,,,,,,,1,6.27546,,0,0,40,40,9,1,stimuli/stim_20210407_power2amp/equal_lnn_AM0.6Hz_30.m4a,,,
,,,,,,,,,,,,38677,2021-05-10_20h38.58.354,judgeSpeechMusic_20210407_logNormShiftAmp,2020.1.2,MacIntel,60,,,,,,,,,,,,,,1,6.418405,,0,0,41,41,104,1,stimuli/stim_20210407_power2amp/equal_lnn_AM4.2Hz_76.m4a,,,
,,,,,,,,,,,,38677,2021-05-10_20h38.58.354,judgeSpeechMusic_20210407_logNormShiftAmp,2020.1.2,MacIntel,60,,,,,,,,,,,,,,1,6.789575,,0,0,42,42,100,1,stimuli/stim_20210407_power2amp/equal_lnn_AM4.2Hz_49.m4a,,,
,,,,,,,,,,,,38677,2021-05-10_20h38.58.354,judgeSpeechMusic_20210407_logNormShiftAmp,2020.1.2,MacIntel,60,,,,,,,,,,,,,,1,6.44435,,0,0,43,43,40,1,stimuli/stim_20210407_power2amp/equal_lnn_AM1.8Hz_88.m4a,,,
,,,,,,,,,,,,38677,2021-05-10_20h38.58.354,judgeSpeechMusic_20210407_logNormShiftAmp,2020.1.2,MacIntel,60,,,,,,,,,,,,,,2,5.86035,,0,0,44,44,119,1,stimuli/stim_20210407_power2amp/equal_lnn_AM4.8Hz_41.m4a,,,
,,,,,,,,,,,,38677,2021-05-10_20h38.58.354,judgeSpeechMusic_20210407_logNormShiftAmp,2020.1.2,MacIntel,60,,,,,,,,,,,,,,2,5.81504,,0,0,45,45,129,1,stimuli/stim_20210407_power2amp/equal_lnn_AM5.4Hz_12.m4a,,,
,,,,,,,,,,,,38677,2021-05-10_20h38.58.354,judgeSpeechMusic_20210407_logNormShiftAmp,2020.1.2,MacIntel,60,,,,,,,,,,,,,,2,6.62094,,0,0,46,46,147,1,stimuli/stim_20210407_power2amp/equal_lnn_AM6Hz_79.m4a,,,
,,,,,,,,,,,,38677,2021-05-10_20h38.58.354,judgeSpeechMusic_20210407_logNormShiftAmp,2020.1.2,MacIntel,60,,,,,,,,,,,,,,2,53.363105,,0,0,47,47,65,1,stimuli/stim_20210407_power2amp/equal_lnn_AM3Hz_87.m4a,,,
,,,,,,,,,,,,38677,2021-05-10_20h38.58.354,judgeSpeechMusic_20210407_logNormShiftAmp,2020.1.2,MacIntel,60,,,,,,,,,,,,,,1,6.26041,,0,0,48,48,27,1,stimuli/stim_20210407_power2amp/equal_lnn_AM1.2Hz_12.m4a,,,
,,,,,,,,,,,,38677,2021-05-10_20h38.58.354,judgeSpeechMusic_20210407_logNormShiftAmp,2020.1.2,MacIntel,60,,,,,,,,,,,,,,1,6.406925,,0,0,49,49,1,1,stimuli/stim_20210407_power2amp/equal_lnn_AM0.6Hz_42.m4a,,,
,,,,,,,,,,,,38677,2021-05-10_20h38.58.354,judgeSpeechMusic_20210407_logNormShiftAmp,2020.1.2,MacIntel,60,,,,,,,,,,,,,,1,6.631965,,0,0,50,50,13,1,stimuli/stim_20210407_power2amp/equal_lnn_AM0.6Hz_38.m4a,,,
,,,,,,,,,,,,38677,2021-05-10_20h38.58.354,judgeSpeechMusic_20210407_logNormShiftAmp,2020.1.2,MacIntel,60,,,,,,,,,,,,,,2,5.7622,,0,0,51,51,74,1,stimuli/stim_20210407_power2amp/equal_lnn_AM3Hz_9.m4a,,,
,,,,,,,,,,,,38677,2021-05-10_20h38.58.354,judgeSpeechMusic_20210407_logNormShiftAmp,2020.1.2,MacIntel,60,,,,,,,,,,,,,,2,5.944595,,0,0,52,52,111,1,stimuli/stim_20210407_power2amp/equal_lnn_AM4.8Hz_23.m4a,,,
,,,,,,,,,,,,38677,2021-05-10_20h38.58.354,judgeSpeechMusic_20210407_logNormShiftAmp,2020.1.2,MacIntel,60,,,,,,,,,,,,,,1,6.692075,,0,0,53,53,16,1,stimuli/stim_20210407_power2amp/equal_lnn_AM1.2Hz_23.m4a,,,
,,,,,,,,,,,,38677,2021-05-10_20h38.58.354,judgeSpeechMusic_20210407_logNormShiftAmp,2020.1.2,MacIntel,60,,,,,,,,,,,,,,1,7.477865,,0,0,54,54,23,1,stimuli/stim_20210407_power2amp/equal_lnn_AM1.2Hz_56.m4a,,,
,,,,,,,,,,,,38677,2021-05-10_20h38.58.354,judgeSpeechMusic_20210407_logNormShiftAmp,2020.1.2,MacIntel,60,,,,,,,,,,,,,,2,5.89324,1,1,0,55,55,143,1,stimuli/stim_20210407_power2amp/equal_lnn_AM6Hz_19.m4a,0.93368,,
,,,,,,,,,,,,38677,2021-05-10_20h38.58.354,judgeSpeechMusic_20210407_logNormShiftAmp,2020.1.2,MacIntel,60,,,,,,,,,,,,,,1,5.72961,,0,0,56,56,36,1,stimuli/stim_20210407_power2amp/equal_lnn_AM1.8Hz_31.m4a,,,
,,,,,,,,,,,,38677,2021-05-10_20h38.58.354,judgeSpeechMusic_20210407_logNormShiftAmp,2020.1.2,MacIntel,60,,,,,,,,,,,,,,1,5.838565,,0,0,57,57,10,1,stimuli/stim_20210407_power2amp/equal_lnn_AM0.6Hz_50.m4a,,,
,,,,,,,,,,,,38677,2021-05-10_20h38.58.354,judgeSpeechMusic_20210407_logNormShiftAmp,2020.1.2,MacIntel,60,,,,,,,,,,,,,,2,6.0612,,0,0,58,58,80,1,stimuli/stim_20210407_power2amp/equal_lnn_AM3.6Hz_87.m4a,,,
,,,,,,,,,,,,38677,2021-05-10_20h38.58.354,judgeSpeechMusic_20210407_logNormShiftAmp,2020.1.2,MacIntel,60,,,,,,,,,,,,,,2,5.988035,,0,0,59,59,110,1,stimuli/stim_20210407_power2amp/equal_lnn_AM4.8Hz_52.m4a,,,
,,,,,,,,,,,,38677,2021-05-10_20h38.58.354,judgeSpeechMusic_20210407_logNormShiftAmp,2020.1.2,MacIntel,60,,,,,,,,,,,,,,1,7.609315,,0,0,60,60,17,1,stimuli/stim_20210407_power2amp/equal_lnn_AM1.2Hz_3.m4a,,,
,,,,,,,,,,,,38677,2021-05-10_20h38.58.354,judgeSpeechMusic_20210407_logNormShiftAmp,2020.1.2,MacIntel,60,,,,,,,,,,,,,,1,5.712075,,0,0,61,61,19,1,stimuli/stim_20210407_power2amp/equal_lnn_AM1.2Hz_83.m4a,,,
,,,,,,,,,,,,38677,2021-05-10_20h38.58.354,judgeSpeechMusic_20210407_logNormShiftAmp,2020.1.2,MacIntel,60,,,,,,,,,,,,,,1,5.76018,,0,0,62,62,34,1,stimuli/stim_20210407_power2amp/equal_lnn_AM1.8Hz_71.m4a,,,
,,,,,,,,,,,,38677,2021-05-10_20h38.58.354,judgeSpeechMusic_20210407_logNormShiftAmp,2020.1.2,MacIntel,60,,,,,,,,,,,,,,1,6.89232,,0,0,63,63,66,1,stimuli/stim_20210407_power2amp/equal_lnn_AM3Hz_64.m4a,,,
,,,,,,,,,,,,38677,2021-05-10_20h38.58.354,judgeSpeechMusic_20210407_logNormShiftAmp,2020.1.2,MacIntel,60,,,,,,,,,,,,,,2,8.75002,,0,0,64,64,60,1,stimuli/stim_20210407_power2amp/equal_lnn_AM3Hz_32.m4a,,,
,,,,,,,,,,,,38677,2021-05-10_20h38.58.354,judgeSpeechMusic_20210407_logNormShiftAmp,2020.1.2,MacIntel,60,,,,,,,,,,,,,,2,5.76447,,0,0,65,65,94,1,stimuli/stim_20210407_power2amp/equal_lnn_AM4.2Hz_60.m4a,,,
,,,,,,,,,,,,38677,2021-05-10_20h38.58.354,judgeSpeechMusic_20210407_logNormShiftAmp,2020.1.2,MacIntel,60,,,,,,,,,,,,,,1,8.587545,,0,0,66,66,37,1,stimuli/stim_20210407_power2amp/equal_lnn_AM1.8Hz_33.m4a,,,
,,,,,,,,,,,,38677,2021-05-10_20h38.58.354,judgeSpeechMusic_20210407_logNormShiftAmp,2020.1.2,MacIntel,60,,,,,,,,,,,,,,1,8.63971,,0,0,67,67,55,1,stimuli/stim_20210407_power2amp/equal_lnn_AM2.4Hz_26.m4a,,,
,,,,,,,,,,,,38677,2021-05-10_20h38.58.354,judgeSpeechMusic_20210407_logNormShiftAmp,2020.1.2,MacIntel,60,,,,,,,,,,,,,,2,5.777615,,0,0,68,68,122,1,stimuli/stim_20210407_power2amp/equal_lnn_AM5.4Hz_96.m4a,,,
,,,,,,,,,,,,38677,2021-05-10_20h38.58.354,judgeSpeechMusic_20210407_logNormShiftAmp,2020.1.2,MacIntel,60,,,,,,,,,,,,,,2,6.105655,,0,0,69,69,62,1,stimuli/stim_20210407_power2amp/equal_lnn_AM3Hz_46.m4a,,,
,,,,,,,,,,,,38677,2021-05-10_20h38.58.354,judgeSpeechMusic_20210407_logNormShiftAmp,2020.1.2,MacIntel,60,,,,,,,,,,,,,,2,6.491535,,0,0,70,70,73,1,stimuli/stim_20210407_power2amp/equal_lnn_AM3Hz_78.m4a,,,
,,,,,,,,,,,,38677,2021-05-10_20h38.58.354,judgeSpeechMusic_20210407_logNormShiftAmp,2020.1.2,MacIntel,60,,,,,,,,,,,,,,2,5.874095,,0,0,71,71,108,1,stimuli/stim_20210407_power2amp/equal_lnn_AM4.8Hz_29.m4a,,,
,,,,,,,,,,,,38677,2021-05-10_20h38.58.354,judgeSpeechMusic_20210407_logNormShiftAmp,2020.1.2,MacIntel,60,,,,,,,,,,,,,,2,5.86318,,0,0,72,72,105,1,stimuli/stim_20210407_power2amp/equal_lnn_AM4.8Hz_18.m4a,,,
,,,,,,,,,,,,38677,2021-05-10_20h38.58.354,judgeSpeechMusic_20210407_logNormShiftAmp,2020.1.2,MacIntel,60,,,,,,,,,,,,,,2,8.004495,,0,0,73,73,118,1,stimuli/stim_20210407_power2amp/equal_lnn_AM4.8Hz_7.m4a,,,
,,,,,,,,,,,,38677,2021-05-10_20h38.58.354,judgeSpeechMusic_20210407_logNormShiftAmp,2020.1.2,MacIntel,60,,,,,,,,,,,,,,2,6.41278,,0,0,74,74,93,1,stimuli/stim_20210407_power2amp/equal_lnn_AM4.2Hz_25.m4a,,,
,,,,,,,,,,,,38677,2021-05-10_20h38.58.354,judgeSpeechMusic_20210407_logNormShiftAmp,2020.1.2,MacIntel,60,,,,,,,,,,,,,,2,6.547865,,0,0,75,75,125,1,stimuli/stim_20210407_power2amp/equal_lnn_AM5.4Hz_51.m4a,,,
,,,,,,,,,,,,38677,2021-05-10_20h38.58.354,judgeSpeechMusic_20210407_logNormShiftAmp,2020.1.2,MacIntel,60,,,,,,,,,,,,,,2,6.224555,,0,0,76,76,136,1,stimuli/stim_20210407_power2amp/equal_lnn_AM6Hz_60.m4a,,,
,,,,,,,,,,,,38677,2021-05-10_20h38.58.354,judgeSpeechMusic_20210407_logNormShiftAmp,2020.1.2,MacIntel,60,,,,,,,,,,,,,,1,6.473645,,0,0,77,77,54,1,stimuli/stim_20210407_power2amp/equal_lnn_AM2.4Hz_93.m4a,,,
,,,,,,,,,,,,38677,2021-05-10_20h38.58.354,judgeSpeechMusic_20210407_logNormShiftAmp,2020.1.2,MacIntel,60,,,,,,,,,,,,,,2,7.093415,,0,0,78,78,70,1,stimuli/stim_20210407_power2amp/equal_lnn_AM3Hz_91.m4a,,,
,,,,,,,,,,,,38677,2021-05-10_20h38.58.354,judgeSpeechMusic_20210407_logNormShiftAmp,2020.1.2,MacIntel,60,,,,,,,,,,,,,,1,6.061765,2,1,0,79,79,14,1,stimuli/stim_20210407_power2amp/equal_lnn_AM0.6Hz_56.m4a,1.26714,,
,,,,,,,,,,,,38677,2021-05-10_20h38.58.354,judgeSpeechMusic_20210407_logNormShiftAmp,2020.1.2,MacIntel,60,,,,,,,,,,,,,,1,5.741205,,0,0,80,80,90,1,stimuli/stim_20210407_power2amp/equal_lnn_AM4.2Hz_46.m4a,,,
,,,,,,,,,,,,38677,2021-05-10_20h38.58.354,judgeSpeechMusic_20210407_logNormShiftAmp,2020.1.2,MacIntel,60,,,,,,,,,,,,,,1,5.942465,,0,0,81,81,43,1,stimuli/stim_20210407_power2amp/equal_lnn_AM1.8Hz_16.m4a,,,
,,,,,,,,,,,,38677,2021-05-10_20h38.58.354,judgeSpeechMusic_20210407_logNormShiftAmp,2020.1.2,MacIntel,60,,,,,,,,,,,,,,1,7.677935,,0,0,82,82,35,1,stimuli/stim_20210407_power2amp/equal_lnn_AM1.8Hz_35.m4a,,,
,,,,,,,,,,,,38677,2021-05-10_20h38.58.354,judgeSpeechMusic_20210407_logNormShiftAmp,2020.1.2,MacIntel,60,,,,,,,,,,,,,,1,6.642105,,0,0,83,83,11,1,stimuli/stim_20210407_power2amp/equal_lnn_AM0.6Hz_74.m4a,,,
,,,,,,,,,,,,38677,2021-05-10_20h38.58.354,judgeSpeechMusic_20210407_logNormShiftAmp,2020.1.2,MacIntel,60,,,,,,,,,,,,,,1,7.077895,,0,0,84,84,0,1,stimuli/stim_20210407_power2amp/equal_lnn_AM0.6Hz_71.m4a,,,
,,,,,,,,,,,,38677,2021-05-10_20h38.58.354,judgeSpeechMusic_20210407_logNormShiftAmp,2020.1.2,MacIntel,60,,,,,,,,,,,,,,2,5.91223,,0,0,85,85,46,1,stimuli/stim_20210407_power2amp/equal_lnn_AM2.4Hz_12.m4a,,,
,,,,,,,,,,,,38677,2021-05-10_20h38.58.354,judgeSpeechMusic_20210407_logNormShiftAmp,2020.1.2,MacIntel,60,,,,,,,,,,,,,,1,6.466455,,0,0,86,86,12,1,stimuli/stim_20210407_power2amp/equal_lnn_AM0.6Hz_96.m4a,,,
,,,,,,,,,,,,38677,2021-05-10_20h38.58.354,judgeSpeechMusic_20210407_logNormShiftAmp,2020.1.2,MacIntel,60,,,,,,,,,,,,,,2,7.07976,,0,0,87,87,146,1,stimuli/stim_20210407_power2amp/equal_lnn_AM6Hz_86.m4a,,,
,,,,,,,,,,,,38677,2021-05-10_20h38.58.354,judgeSpeechMusic_20210407_logNormShiftAmp,2020.1.2,MacIntel,60,,,,,,,,,,,,,,2,5.654525,,0,0,88,88,120,1,stimuli/stim_20210407_power2amp/equal_lnn_AM5.4Hz_54.m4a,,,
,,,,,,,,,,,,38677,2021-05-10_20h38.58.354,judgeSpeechMusic_20210407_logNormShiftAmp,2020.1.2,MacIntel,60,,,,,,,,,,,,,,1,6.38013,,0,0,89,89,114,1,stimuli/stim_20210407_power2amp/equal_lnn_AM4.8Hz_77.m4a,,,
,,,,,,,,,,,,38677,2021-05-10_20h38.58.354,judgeSpeechMusic_20210407_logNormShiftAmp,2020.1.2,MacIntel,60,,,,,,,,,,,,,,2,6.90545,,0,0,90,90,85,1,stimuli/stim_20210407_power2amp/equal_lnn_AM3.6Hz_63.m4a,,,
,,,,,,,,,,,,38677,2021-05-10_20h38.58.354,judgeSpeechMusic_20210407_logNormShiftAmp,2020.1.2,MacIntel,60,,,,,,,,,,,,,,2,9.122835,,0,0,91,91,24,1,stimuli/stim_20210407_power2amp/equal_lnn_AM1.2Hz_38.m4a,,,
,,,,,,,,,,,,38677,2021-05-10_20h38.58.354,judgeSpeechMusic_20210407_logNormShiftAmp,2020.1.2,MacIntel,60,,,,,,,,,,,,,,2,7.043175,,0,0,92,92,59,1,stimuli/stim_20210407_power2amp/equal_lnn_AM2.4Hz_18.m4a,,,
,,,,,,,,,,,,38677,2021-05-10_20h38.58.354,judgeSpeechMusic_20210407_logNormShiftAmp,2020.1.2,MacIntel,60,,,,,,,,,,,,,,2,6.30688,,0,0,93,93,28,1,stimuli/stim_20210407_power2amp/equal_lnn_AM1.2Hz_89.m4a,,,
,,,,,,,,,,,,38677,2021-05-10_20h38.58.354,judgeSpeechMusic_20210407_logNormShiftAmp,2020.1.2,MacIntel,60,,,,,,,,,,,,,,2,6.4264,,0,0,94,94,103,1,stimuli/stim_20210407_power2amp/equal_lnn_AM4.2Hz_43.m4a,,,
,,,,,,,,,,,,38677,2021-05-10_20h38.58.354,judgeSpeechMusic_20210407_logNormShiftAmp,2020.1.2,MacIntel,60,,,,,,,,,,,,,,2,8.891935,,0,0,95,95,53,1,stimuli/stim_20210407_power2amp/equal_lnn_AM2.4Hz_60.m4a,,,
,,,,,,,,,,,,38677,2021-05-10_20h38.58.354,judgeSpeechMusic_20210407_logNormShiftAmp,2020.1.2,MacIntel,60,,,,,,,,,,,,,,2,7.54023,,0,0,96,96,49,1,stimuli/stim_20210407_power2amp/equal_lnn_AM2.4Hz_43.m4a,,,
,,,,,,,,,,,,38677,2021-05-10_20h38.58.354,judgeSpeechMusic_20210407_logNormShiftAmp,2020.1.2,MacIntel,60,,,,,,,,,,,,,,2,7.42296,,0,0,97,97,126,1,stimuli/stim_20210407_power2amp/equal_lnn_AM5.4Hz_14.m4a,,,
,,,,,,,,,,,,38677,2021-05-10_20h38.58.354,judgeSpeechMusic_20210407_logNormShiftAmp,2020.1.2,MacIntel,60,,,,,,,,,,,,,,2,8.41644,,0,0,98,98,64,1,stimuli/stim_20210407_power2amp/equal_lnn_AM3Hz_90.m4a,,,
,,,,,,,,,,,,38677,2021-05-10_20h38.58.354,judgeSpeechMusic_20210407_logNormShiftAmp,2020.1.2,MacIntel,60,,,,,,,,,,,,,,2,5.772195,3,1,0,99,99,109,1,stimuli/stim_20210407_power2amp/equal_lnn_AM4.8Hz_40.m4a,1.914755,,
,,,,,,,,,,,,38677,2021-05-10_20h38.58.354,judgeSpeechMusic_20210407_logNormShiftAmp,2020.1.2,MacIntel,60,,,,,,,,,,,,,,1,6.019065,,0,0,100,100,5,1,stimuli/stim_20210407_power2amp/equal_lnn_AM0.6Hz_49.m4a,,,
,,,,,,,,,,,,38677,2021-05-10_20h38.58.354,judgeSpeechMusic_20210407_logNormShiftAmp,2020.1.2,MacIntel,60,,,,,,,,,,,,,,2,6.51791,,0,0,101,101,132,1,stimuli/stim_20210407_power2amp/equal_lnn_AM5.4Hz_2.m4a,,,
,,,,,,,,,,,,38677,2021-05-10_20h38.58.354,judgeSpeechMusic_20210407_logNormShiftAmp,2020.1.2,MacIntel,60,,,,,,,,,,,,,,2,7.29457,,0,0,102,102,127,1,stimuli/stim_20210407_power2amp/equal_lnn_AM5.4Hz_66.m4a,,,
,,,,,,,,,,,,38677,2021-05-10_20h38.58.354,judgeSpeechMusic_20210407_logNormShiftAmp,2020.1.2,MacIntel,60,,,,,,,,,,,,,,2,6.05853,,0,0,103,103,144,1,stimuli/stim_20210407_power2amp/equal_lnn_AM6Hz_32.m4a,,,
,,,,,,,,,,,,38677,2021-05-10_20h38.58.354,judgeSpeechMusic_20210407_logNormShiftAmp,2020.1.2,MacIntel,60,,,,,,,,,,,,,,2,6.07551,,0,0,104,104,82,1,stimuli/stim_20210407_power2amp/equal_lnn_AM3.6Hz_29.m4a,,,
,,,,,,,,,,,,38677,2021-05-10_20h38.58.354,judgeSpeechMusic_20210407_logNormShiftAmp,2020.1.2,MacIntel,60,,,,,,,,,,,,,,2,5.976745,,0,0,105,105,102,1,stimuli/stim_20210407_power2amp/equal_lnn_AM4.2Hz_50.m4a,,,
,,,,,,,,,,,,38677,2021-05-10_20h38.58.354,judgeSpeechMusic_20210407_logNormShiftAmp,2020.1.2,MacIntel,60,,,,,,,,,,,,,,1,6.08747,,0,0,106,106,79,1,stimuli/stim_20210407_power2amp/equal_lnn_AM3.6Hz_36.m4a,,,
,,,,,,,,,,,,38677,2021-05-10_20h38.58.354,judgeSpeechMusic_20210407_logNormShiftAmp,2020.1.2,MacIntel,60,,,,,,,,,,,,,,1,5.83092,,0,0,107,107,31,1,stimuli/stim_20210407_power2amp/equal_lnn_AM1.8Hz_48.m4a,,,
,,,,,,,,,,,,38677,2021-05-10_20h38.58.354,judgeSpeechMusic_20210407_logNormShiftAmp,2020.1.2,MacIntel,60,,,,,,,,,,,,,,2,6.091555,,0,0,108,108,71,1,stimuli/stim_20210407_power2amp/equal_lnn_AM3Hz_55.m4a,,,
,,,,,,,,,,,,38677,2021-05-10_20h38.58.354,judgeSpeechMusic_20210407_logNormShiftAmp,2020.1.2,MacIntel,60,,,,,,,,,,,,,,2,8.13942,,0,0,109,109,84,1,stimuli/stim_20210407_power2amp/equal_lnn_AM3.6Hz_72.m4a,,,
,,,,,,,,,,,,38677,2021-05-10_20h38.58.354,judgeSpeechMusic_20210407_logNormShiftAmp,2020.1.2,MacIntel,60,,,,,,,,,,,,,,1,5.713365,,0,0,110,110,68,1,stimuli/stim_20210407_power2amp/equal_lnn_AM3Hz_97.m4a,,,
,,,,,,,,,,,,38677,2021-05-10_20h38.58.354,judgeSpeechMusic_20210407_logNormShiftAmp,2020.1.2,MacIntel,60,,,,,,,,,,,,,,1,5.73297,,0,0,111,111,26,1,stimuli/stim_20210407_power2amp/equal_lnn_AM1.2Hz_24.m4a,,,
,,,,,,,,,,,,38677,2021-05-10_20h38.58.354,judgeSpeechMusic_20210407_logNormShiftAmp,2020.1.2,MacIntel,60,,,,,,,,,,,,,,1,6.1547,,0,0,112,112,116,1,stimuli/stim_20210407_power2amp/equal_lnn_AM4.8Hz_93.m4a,,,
,,,,,,,,,,,,38677,2021-05-10_20h38.58.354,judgeSpeechMusic_20210407_logNormShiftAmp,2020.1.2,MacIntel,60,,,,,,,,,,,,,,2,6.77979,,0,0,113,113,141,1,stimuli/stim_20210407_power2amp/equal_lnn_AM6Hz_100.m4a,,,
,,,,,,,,,,,,38677,2021-05-10_20h38.58.354,judgeSpeechMusic_20210407_logNormShiftAmp,2020.1.2,MacIntel,60,,,,,,,,,,,,,,2,6.94069,,0,0,114,114,69,1,stimuli/stim_20210407_power2amp/equal_lnn_AM3Hz_73.m4a,,,
,,,,,,,,,,,,38677,2021-05-10_20h38.58.354,judgeSpeechMusic_20210407_logNormShiftAmp,2020.1.2,MacIntel,60,,,,,,,,,,,,,,2,6.78524,,0,0,115,115,148,1,stimuli/stim_20210407_power2amp/equal_lnn_AM6Hz_93.m4a,,,
,,,,,,,,,,,,38677,2021-05-10_20h38.58.354,judgeSpeechMusic_20210407_logNormShiftAmp,2020.1.2,MacIntel,60,,,,,,,,,,,,,,1,6.462265,,0,0,116,116,42,1,stimuli/stim_20210407_power2amp/equal_lnn_AM1.8Hz_58.m4a,,,
,,,,,,,,,,,,38677,2021-05-10_20h38.58.354,judgeSpeechMusic_20210407_logNormShiftAmp,2020.1.2,MacIntel,60,,,,,,,,,,,,,,1,6.661375,,0,0,117,117,6,1,stimuli/stim_20210407_power2amp/equal_lnn_AM0.6Hz_41.m4a,,,
,,,,,,,,,,,,38677,2021-05-10_20h38.58.354,judgeSpeechMusic_20210407_logNormShiftAmp,2020.1.2,MacIntel,60,,,,,,,,,,,,,,1,6.33808,,0,0,118,118,3,1,stimuli/stim_20210407_power2amp/equal_lnn_AM0.6Hz_32.m4a,,,
,,,,,,,,,,,,38677,2021-05-10_20h38.58.354,judgeSpeechMusic_20210407_logNormShiftAmp,2020.1.2,MacIntel,60,,,,,,,,,,,,,,2,6.652865,,0,0,119,119,95,1,stimuli/stim_20210407_power2amp/equal_lnn_AM4.2Hz_52.m4a,,,
,,,,,,,,,,,,38677,2021-05-10_20h38.58.354,judgeSpeechMusic_20210407_logNormShiftAmp,2020.1.2,MacIntel,60,,,,,,,,,,,,,,2,6.19093,,0,0,120,120,149,1,stimuli/stim_20210407_power2amp/equal_lnn_AM6Hz_12.m4a,,,
,,,,,,,,,,,,38677,2021-05-10_20h38.58.354,judgeSpeechMusic_20210407_logNormShiftAmp,2020.1.2,MacIntel,60,,,,,,,,,,,,,,2,6.64544,,0,0,121,121,97,1,stimuli/stim_20210407_power2amp/equal_lnn_AM4.2Hz_11.m4a,,,
,,,,,,,,,,,,38677,2021-05-10_20h38.58.354,judgeSpeechMusic_20210407_logNormShiftAmp,2020.1.2,MacIntel,60,,,,,,,,,,,,,,1,6.96047,,0,0,122,122,25,1,stimuli/stim_20210407_power2amp/equal_lnn_AM1.2Hz_51.m4a,,,
,,,,,,,,,,,,38677,2021-05-10_20h38.58.354,judgeSpeechMusic_20210407_logNormShiftAmp,2020.1.2,MacIntel,60,,,,,,,,,,,,,,2,8.279365,1,1,0,123,123,112,1,stimuli/stim_20210407_power2amp/equal_lnn_AM4.8Hz_54.m4a,0.744755,,
,,,,,,,,,,,,38677,2021-05-10_20h38.58.354,judgeSpeechMusic_20210407_logNormShiftAmp,2020.1.2,MacIntel,60,,,,,,,,,,,,,,1,6.247645,,0,0,124,124,2,1,stimuli/stim_20210407_power2amp/equal_lnn_AM0.6Hz_91.m4a,,,
,,,,,,,,,,,,38677,2021-05-10_20h38.58.354,judgeSpeechMusic_20210407_logNormShiftAmp,2020.1.2,MacIntel,60,,,,,,,,,,,,,,2,6.076595,,0,0,125,125,77,1,stimuli/stim_20210407_power2amp/equal_lnn_AM3.6Hz_35.m4a,,,
,,,,,,,,,,,,38677,2021-05-10_20h38.58.354,judgeSpeechMusic_20210407_logNormShiftAmp,2020.1.2,MacIntel,60,,,,,,,,,,,,,,1,6.940715,,0,0,126,126,75,1,stimuli/stim_20210407_power2amp/equal_lnn_AM3.6Hz_14.m4a,,,
,,,,,,,,,,,,38677,2021-05-10_20h38.58.354,judgeSpeechMusic_20210407_logNormShiftAmp,2020.1.2,MacIntel,60,,,,,,,,,,,,,,2,7.347055,,0,0,127,127,22,1,stimuli/stim_20210407_power2amp/equal_lnn_AM1.2Hz_58.m4a,,,
,,,,,,,,,,,,38677,2021-05-10_20h38.58.354,judgeSpeechMusic_20210407_logNormShiftAmp,2020.1.2,MacIntel,60,,,,,,,,,,,,,,1,8.64743,,0,0,128,128,30,1,stimuli/stim_20210407_power2amp/equal_lnn_AM1.8Hz_94.m4a,,,
,,,,,,,,,,,,38677,2021-05-10_20h38.58.354,judgeSpeechMusic_20210407_logNormShiftAmp,2020.1.2,MacIntel,60,,,,,,,,,,,,,,2,13.596325,,0,0,129,129,50,1,stimuli/stim_20210407_power2amp/equal_lnn_AM2.4Hz_40.m4a,,,
,,,,,,,,,,,,38677,2021-05-10_20h38.58.354,judgeSpeechMusic_20210407_logNormShiftAmp,2020.1.2,MacIntel,60,,,,,,,,,,,,,,1,7.66952,,0,0,130,130,61,1,stimuli/stim_20210407_power2amp/equal_lnn_AM3Hz_34.m4a,,,
,,,,,,,,,,,,38677,2021-05-10_20h38.58.354,judgeSpeechMusic_20210407_logNormShiftAmp,2020.1.2,MacIntel,60,,,,,,,,,,,,,,1,7.11495,,0,0,131,131,44,1,stimuli/stim_20210407_power2amp/equal_lnn_AM1.8Hz_49.m4a,,,
,,,,,,,,,,,,38677,2021-05-10_20h38.58.354,judgeSpeechMusic_20210407_logNormShiftAmp,2020.1.2,MacIntel,60,,,,,,,,,,,,,,2,7.78376,,0,0,132,132,51,1,stimuli/stim_20210407_power2amp/equal_lnn_AM2.4Hz_33.m4a,,,
,,,,,,,,,,,,38677,2021-05-10_20h38.58.354,judgeSpeechMusic_20210407_logNormShiftAmp,2020.1.2,MacIntel,60,,,,,,,,,,,,,,2,23.02679,,0,0,133,133,135,1,stimuli/stim_20210407_power2amp/equal_lnn_AM6Hz_29.m4a,,,
,,,,,,,,,,,,38677,2021-05-10_20h38.58.354,judgeSpeechMusic_20210407_logNormShiftAmp,2020.1.2,MacIntel,60,,,,,,,,,,,,,,2,14.57061,,0,0,134,134,89,1,stimuli/stim_20210407_power2amp/equal_lnn_AM3.6Hz_39.m4a,,,
,,,,,,,,,,,,38677,2021-05-10_20h38.58.354,judgeSpeechMusic_20210407_logNormShiftAmp,2020.1.2,MacIntel,60,,,,,,,,,,,,,,2,5.75558,,0,0,135,135,78,1,stimuli/stim_20210407_power2amp/equal_lnn_AM3.6Hz_3.m4a,,,
,,,,,,,,,,,,38677,2021-05-10_20h38.58.354,judgeSpeechMusic_20210407_logNormShiftAmp,2020.1.2,MacIntel,60,,,,,,,,,,,,,,1,7.18094,,0,0,136,136,38,1,stimuli/stim_20210407_power2amp/equal_lnn_AM1.8Hz_78.m4a,,,
,,,,,,,,,,,,38677,2021-05-10_20h38.58.354,judgeSpeechMusic_20210407_logNormShiftAmp,2020.1.2,MacIntel,60,,,,,,,,,,,,,,2,6.297175,,0,0,137,137,128,1,stimuli/stim_20210407_power2amp/equal_lnn_AM5.4Hz_7.m4a,,,
,,,,,,,,,,,,38677,2021-05-10_20h38.58.354,judgeSpeechMusic_20210407_logNormShiftAmp,2020.1.2,MacIntel,60,,,,,,,,,,,,,,2,7.01655,,0,0,138,138,107,1,stimuli/stim_20210407_power2amp/equal_lnn_AM4.8Hz_98.m4a,,,
,,,,,,,,,,,,38677,2021-05-10_20h38.58.354,judgeSpeechMusic_20210407_logNormShiftAmp,2020.1.2,MacIntel,60,,,,,,,,,,,,,,2,5.921965,,0,0,139,139,139,1,stimuli/stim_20210407_power2amp/equal_lnn_AM6Hz_34.m4a,,,
,,,,,,,,,,,,38677,2021-05-10_20h38.58.354,judgeSpeechMusic_20210407_logNormShiftAmp,2020.1.2,MacIntel,60,,,,,,,,,,,,,,2,5.69803,,0,0,140,140,117,1,stimuli/stim_20210407_power2amp/equal_lnn_AM4.8Hz_46.m4a,,,
,,,,,,,,,,,,38677,2021-05-10_20h38.58.354,judgeSpeechMusic_20210407_logNormShiftAmp,2020.1.2,MacIntel,60,,,,,,,,,,,,,,2,5.646205,,0,0,141,141,121,1,stimuli/stim_20210407_power2amp/equal_lnn_AM5.4Hz_22.m4a,,,
,,,,,,,,,,,,38677,2021-05-10_20h38.58.354,judgeSpeechMusic_20210407_logNormShiftAmp,2020.1.2,MacIntel,60,,,,,,,,,,,,,,1,6.703405,,0,0,142,142,67,1,stimuli/stim_20210407_power2amp/equal_lnn_AM3Hz_66.m4a,,,
,,,,,,,,,,,,38677,2021-05-10_20h38.58.354,judgeSpeechMusic_20210407_logNormShiftAmp,2020.1.2,MacIntel,60,,,,,,,,,,,,,,1,5.726345,,0,0,143,143,96,1,stimuli/stim_20210407_power2amp/equal_lnn_AM4.2Hz_21.m4a,,,
,,,,,,,,,,,,38677,2021-05-10_20h38.58.354,judgeSpeechMusic_20210407_logNormShiftAmp,2020.1.2,MacIntel,60,,,,,,,,,,,,,,1,5.7628,,0,0,144,144,142,1,stimuli/stim_20210407_power2amp/equal_lnn_AM6Hz_44.m4a,,,
,,,,,,,,,,,,38677,2021-05-10_20h38.58.354,judgeSpeechMusic_20210407_logNormShiftAmp,2020.1.2,MacIntel,60,,,,,,,,,,,,,,1,6.84432,,0,0,145,145,33,1,stimuli/stim_20210407_power2amp/equal_lnn_AM1.8Hz_24.m4a,,,
,,,,,,,,,,,,38677,2021-05-10_20h38.58.354,judgeSpeechMusic_20210407_logNormShiftAmp,2020.1.2,MacIntel,60,,,,,,,,,,,,,,2,6.258025,,0,0,146,146,134,1,stimuli/stim_20210407_power2amp/equal_lnn_AM5.4Hz_87.m4a,,,
,,,,,,,,,,,,38677,2021-05-10_20h38.58.354,judgeSpeechMusic_20210407_logNormShiftAmp,2020.1.2,MacIntel,60,,,,,,,,,,,,,,2,6.4744,,0,0,147,147,58,1,stimuli/stim_20210407_power2amp/equal_lnn_AM2.4Hz_68.m4a,,,
,,,,,,,,,,,,38677,2021-05-10_20h38.58.354,judgeSpeechMusic_20210407_logNormShiftAmp,2020.1.2,MacIntel,60,,,,,,,,,,,,,,2,6.63734,1,1,0,148,148,47,1,stimuli/stim_20210407_power2amp/equal_lnn_AM2.4Hz_16.m4a,1.38749,,
,,,,,,,,,,,,38677,2021-05-10_20h38.58.354,judgeSpeechMusic_20210407_logNormShiftAmp,2020.1.2,MacIntel,60,,,,,,,,,,,,,,1,6.359,,0,0,149,149,7,1,stimuli/stim_20210407_power2amp/equal_lnn_AM0.6Hz_17.m4a,,,
,,,,,,,,,,,,38677,2021-05-10_20h38.58.354,judgeSpeechMusic_20210407_logNormShiftAmp,2020.1.2,MacIntel,60,,,,,,,,,,,,,,2,7.855375,,0,1,0,150,123,1,stimuli/stim_20210407_power2amp/equal_lnn_AM5.4Hz_52.m4a,,,
,,,,,,,,,,,,38677,2021-05-10_20h38.58.354,judgeSpeechMusic_20210407_logNormShiftAmp,2020.1.2,MacIntel,60,,,,,,,,,,,,,,1,7.79714,,0,1,1,151,19,1,stimuli/stim_20210407_power2amp/equal_lnn_AM1.2Hz_83.m4a,,,
,,,,,,,,,,,,38677,2021-05-10_20h38.58.354,judgeSpeechMusic_20210407_logNormShiftAmp,2020.1.2,MacIntel,60,,,,,,,,,,,,,,1,5.84427,,0,1,2,152,31,1,stimuli/stim_20210407_power2amp/equal_lnn_AM1.8Hz_48.m4a,,,
,,,,,,,,,,,,38677,2021-05-10_20h38.58.354,judgeSpeechMusic_20210407_logNormShiftAmp,2020.1.2,MacIntel,60,,,,,,,,,,,,,,2,5.936105,,0,1,3,153,91,1,stimuli/stim_20210407_power2amp/equal_lnn_AM4.2Hz_65.m4a,,,
,,,,,,,,,,,,38677,2021-05-10_20h38.58.354,judgeSpeechMusic_20210407_logNormShiftAmp,2020.1.2,MacIntel,60,,,,,,,,,,,,,,1,6.2787,,0,1,4,154,27,1,stimuli/stim_20210407_power2amp/equal_lnn_AM1.2Hz_12.m4a,,,
,,,,,,,,,,,,38677,2021-05-10_20h38.58.354,judgeSpeechMusic_20210407_logNormShiftAmp,2020.1.2,MacIntel,60,,,,,,,,,,,,,,2,8.05858,,0,1,5,155,69,1,stimuli/stim_20210407_power2amp/equal_lnn_AM3Hz_73.m4a,,,
,,,,,,,,,,,,38677,2021-05-10_20h38.58.354,judgeSpeechMusic_20210407_logNormShiftAmp,2020.1.2,MacIntel,60,,,,,,,,,,,,,,2,7.719875,,0,1,6,156,100,1,stimuli/stim_20210407_power2amp/equal_lnn_AM4.2Hz_49.m4a,,,
,,,,,,,,,,,,38677,2021-05-10_20h38.58.354,judgeSpeechMusic_20210407_logNormShiftAmp,2020.1.2,MacIntel,60,,,,,,,,,,,,,,1,6.680805,,0,1,7,157,12,1,stimuli/stim_20210407_power2amp/equal_lnn_AM0.6Hz_96.m4a,,,
,,,,,,,,,,,,38677,2021-05-10_20h38.58.354,judgeSpeechMusic_20210407_logNormShiftAmp,2020.1.2,MacIntel,60,,,,,,,,,,,,,,2,7.32469,,0,1,8,158,58,1,stimuli/stim_20210407_power2amp/equal_lnn_AM2.4Hz_68.m4a,,,
,,,,,,,,,,,,38677,2021-05-10_20h38.58.354,judgeSpeechMusic_20210407_logNormShiftAmp,2020.1.2,MacIntel,60,,,,,,,,,,,,,,2,6.49178,,0,1,9,159,95,1,stimuli/stim_20210407_power2amp/equal_lnn_AM4.2Hz_52.m4a,,,
,,,,,,,,,,,,38677,2021-05-10_20h38.58.354,judgeSpeechMusic_20210407_logNormShiftAmp,2020.1.2,MacIntel,60,,,,,,,,,,,,,,2,7.095055,,0,1,10,160,111,1,stimuli/stim_20210407_power2amp/equal_lnn_AM4.8Hz_23.m4a,,,
,,,,,,,,,,,,38677,2021-05-10_20h38.58.354,judgeSpeechMusic_20210407_logNormShiftAmp,2020.1.2,MacIntel,60,,,,,,,,,,,,,,2,5.671925,,0,1,11,161,105,1,stimuli/stim_20210407_power2amp/equal_lnn_AM4.8Hz_18.m4a,,,
,,,,,,,,,,,,38677,2021-05-10_20h38.58.354,judgeSpeechMusic_20210407_logNormShiftAmp,2020.1.2,MacIntel,60,,,,,,,,,,,,,,1,6.01668,,0,1,12,162,2,1,stimuli/stim_20210407_power2amp/equal_lnn_AM0.6Hz_91.m4a,,,
,,,,,,,,,,,,38677,2021-05-10_20h38.58.354,judgeSpeechMusic_20210407_logNormShiftAmp,2020.1.2,MacIntel,60,,,,,,,,,,,,,,2,5.822415,,0,1,13,163,85,1,stimuli/stim_20210407_power2amp/equal_lnn_AM3.6Hz_63.m4a,,,
,,,,,,,,,,,,38677,2021-05-10_20h38.58.354,judgeSpeechMusic_20210407_logNormShiftAmp,2020.1.2,MacIntel,60,,,,,,,,,,,,,,2,6.712385,,0,1,14,164,149,1,stimuli/stim_20210407_power2amp/equal_lnn_AM6Hz_12.m4a,,,
,,,,,,,,,,,,38677,2021-05-10_20h38.58.354,judgeSpeechMusic_20210407_logNormShiftAmp,2020.1.2,MacIntel,60,,,,,,,,,,,,,,1,7.72992,,0,1,15,165,148,1,stimuli/stim_20210407_power2amp/equal_lnn_AM6Hz_93.m4a,,,
,,,,,,,,,,,,38677,2021-05-10_20h38.58.354,judgeSpeechMusic_20210407_logNormShiftAmp,2020.1.2,MacIntel,60,,,,,,,,,,,,,,1,5.91063,,0,1,16,166,84,1,stimuli/stim_20210407_power2amp/equal_lnn_AM3.6Hz_72.m4a,,,
,,,,,,,,,,,,38677,2021-05-10_20h38.58.354,judgeSpeechMusic_20210407_logNormShiftAmp,2020.1.2,MacIntel,60,,,,,,,,,,,,,,2,6.0621,,0,1,17,167,128,1,stimuli/stim_20210407_power2amp/equal_lnn_AM5.4Hz_7.m4a,,,
,,,,,,,,,,,,38677,2021-05-10_20h38.58.354,judgeSpeechMusic_20210407_logNormShiftAmp,2020.1.2,MacIntel,60,,,,,,,,,,,,,,1,7.057305,,0,1,18,168,40,1,stimuli/stim_20210407_power2amp/equal_lnn_AM1.8Hz_88.m4a,,,
,,,,,,,,,,,,38677,2021-05-10_20h38.58.354,judgeSpeechMusic_20210407_logNormShiftAmp,2020.1.2,MacIntel,60,,,,,,,,,,,,,,1,6.526715,,0,1,19,169,83,1,stimuli/stim_20210407_power2amp/equal_lnn_AM3.6Hz_26.m4a,,,
,,,,,,,,,,,,38677,2021-05-10_20h38.58.354,judgeSpeechMusic_20210407_logNormShiftAmp,2020.1.2,MacIntel,60,,,,,,,,,,,,,,2,7.04295,4,1,1,20,170,68,1,stimuli/stim_20210407_power2amp/equal_lnn_AM3Hz_97.m4a,1.030995,,
,,,,,,,,,,,,38677,2021-05-10_20h38.58.354,judgeSpeechMusic_20210407_logNormShiftAmp,2020.1.2,MacIntel,60,,,,,,,,,,,,,,1,6.781215,,0,1,21,171,142,1,stimuli/stim_20210407_power2amp/equal_lnn_AM6Hz_44.m4a,,,
,,,,,,,,,,,,38677,2021-05-10_20h38.58.354,judgeSpeechMusic_20210407_logNormShiftAmp,2020.1.2,MacIntel,60,,,,,,,,,,,,,,1,6.37895,,0,1,22,172,10,1,stimuli/stim_20210407_power2amp/equal_lnn_AM0.6Hz_50.m4a,,,
,,,,,,,,,,,,38677,2021-05-10_20h38.58.354,judgeSpeechMusic_20210407_logNormShiftAmp,2020.1.2,MacIntel,60,,,,,,,,,,,,,,2,7.17769,,0,1,23,173,52,1,stimuli/stim_20210407_power2amp/equal_lnn_AM2.4Hz_96.m4a,,,
,,,,,,,,,,,,38677,2021-05-10_20h38.58.354,judgeSpeechMusic_20210407_logNormShiftAmp,2020.1.2,MacIntel,60,,,,,,,,,,,,,,2,6.161375,,0,1,24,174,107,1,stimuli/stim_20210407_power2amp/equal_lnn_AM4.8Hz_98.m4a,,,
,,,,,,,,,,,,38677,2021-05-10_20h38.58.354,judgeSpeechMusic_20210407_logNormShiftAmp,2020.1.2,MacIntel,60,,,,,,,,,,,,,,2,7.29381,,0,1,25,175,46,1,stimuli/stim_20210407_power2amp/equal_lnn_AM2.4Hz_12.m4a,,,
,,,,,,,,,,,,38677,2021-05-10_20h38.58.354,judgeSpeechMusic_20210407_logNormShiftAmp,2020.1.2,MacIntel,60,,,,,,,,,,,,,,1,6.774195,,0,1,26,176,60,1,stimuli/stim_20210407_power2amp/equal_lnn_AM3Hz_32.m4a,,,
,,,,,,,,,,,,38677,2021-05-10_20h38.58.354,judgeSpeechMusic_20210407_logNormShiftAmp,2020.1.2,MacIntel,60,,,,,,,,,,,,,,2,7.58661,,0,1,27,177,130,1,stimuli/stim_20210407_power2amp/equal_lnn_AM5.4Hz_83.m4a,,,
,,,,,,,,,,,,38677,2021-05-10_20h38.58.354,judgeSpeechMusic_20210407_logNormShiftAmp,2020.1.2,MacIntel,60,,,,,,,,,,,,,,1,8.80813,,0,1,28,178,81,1,stimuli/stim_20210407_power2amp/equal_lnn_AM3.6Hz_24.m4a,,,
,,,,,,,,,,,,38677,2021-05-10_20h38.58.354,judgeSpeechMusic_20210407_logNormShiftAmp,2020.1.2,MacIntel,60,,,,,,,,,,,,,,2,6.740105,,0,1,29,179,147,1,stimuli/stim_20210407_power2amp/equal_lnn_AM6Hz_79.m4a,,,
,,,,,,,,,,,,38677,2021-05-10_20h38.58.354,judgeSpeechMusic_20210407_logNormShiftAmp,2020.1.2,MacIntel,60,,,,,,,,,,,,,,1,8.85338,,0,1,30,180,29,1,stimuli/stim_20210407_power2amp/equal_lnn_AM1.2Hz_9.m4a,,,
,,,,,,,,,,,,38677,2021-05-10_20h38.58.354,judgeSpeechMusic_20210407_logNormShiftAmp,2020.1.2,MacIntel,60,,,,,,,,,,,,,,1,6.59166,,0,1,31,181,9,1,stimuli/stim_20210407_power2amp/equal_lnn_AM0.6Hz_30.m4a,,,
,,,,,,,,,,,,38677,2021-05-10_20h38.58.354,judgeSpeechMusic_20210407_logNormShiftAmp,2020.1.2,MacIntel,60,,,,,,,,,,,,,,2,6.97225,,0,1,32,182,115,1,stimuli/stim_20210407_power2amp/equal_lnn_AM4.8Hz_4.m4a,,,
,,,,,,,,,,,,38677,2021-05-10_20h38.58.354,judgeSpeechMusic_20210407_logNormShiftAmp,2020.1.2,MacIntel,60,,,,,,,,,,,,,,1,6.23644,,0,1,33,183,22,1,stimuli/stim_20210407_power2amp/equal_lnn_AM1.2Hz_58.m4a,,,
,,,,,,,,,,,,38677,2021-05-10_20h38.58.354,judgeSpeechMusic_20210407_logNormShiftAmp,2020.1.2,MacIntel,60,,,,,,,,,,,,,,1,7.641645,,0,1,34,184,64,1,stimuli/stim_20210407_power2amp/equal_lnn_AM3Hz_90.m4a,,,
,,,,,,,,,,,,38677,2021-05-10_20h38.58.354,judgeSpeechMusic_20210407_logNormShiftAmp,2020.1.2,MacIntel,60,,,,,,,,,,,,,,1,7.587485,,0,1,35,185,119,1,stimuli/stim_20210407_power2amp/equal_lnn_AM4.8Hz_41.m4a,,,
,,,,,,,,,,,,38677,2021-05-10_20h38.58.354,judgeSpeechMusic_20210407_logNormShiftAmp,2020.1.2,MacIntel,60,,,,,,,,,,,,,,1,7.59168,,0,1,36,186,5,1,stimuli/stim_20210407_power2amp/equal_lnn_AM0.6Hz_49.m4a,,,
,,,,,,,,,,,,38677,2021-05-10_20h38.58.354,judgeSpeechMusic_20210407_logNormShiftAmp,2020.1.2,MacIntel,60,,,,,,,,,,,,,,1,6.859295,,0,1,37,187,103,1,stimuli/stim_20210407_power2amp/equal_lnn_AM4.2Hz_43.m4a,,,
,,,,,,,,,,,,38677,2021-05-10_20h38.58.354,judgeSpeechMusic_20210407_logNormShiftAmp,2020.1.2,MacIntel,60,,,,,,,,,,,,,,2,10.411,,0,1,38,188,139,1,stimuli/stim_20210407_power2amp/equal_lnn_AM6Hz_34.m4a,,,
,,,,,,,,,,,,38677,2021-05-10_20h38.58.354,judgeSpeechMusic_20210407_logNormShiftAmp,2020.1.2,MacIntel,60,,,,,,,,,,,,,,2,7.492635,,0,1,39,189,116,1,stimuli/stim_20210407_power2amp/equal_lnn_AM4.8Hz_93.m4a,,,
,,,,,,,,,,,,38677,2021-05-10_20h38.58.354,judgeSpeechMusic_20210407_logNormShiftAmp,2020.1.2,MacIntel,60,,,,,,,,,,,,,,2,7.790235,,0,1,40,190,102,1,stimuli/stim_20210407_power2amp/equal_lnn_AM4.2Hz_50.m4a,,,
,,,,,,,,,,,,38677,2021-05-10_20h38.58.354,judgeSpeechMusic_20210407_logNormShiftAmp,2020.1.2,MacIntel,60,,,,,,,,,,,,,,2,6.62367,,0,1,41,191,41,1,stimuli/stim_20210407_power2amp/equal_lnn_AM1.8Hz_20.m4a,,,
,,,,,,,,,,,,38677,2021-05-10_20h38.58.354,judgeSpeechMusic_20210407_logNormShiftAmp,2020.1.2,MacIntel,60,,,,,,,,,,,,,,1,6.62226,,0,1,42,192,20,1,stimuli/stim_20210407_power2amp/equal_lnn_AM1.2Hz_87.m4a,,,
,,,,,,,,,,,,38677,2021-05-10_20h38.58.354,judgeSpeechMusic_20210407_logNormShiftAmp,2020.1.2,MacIntel,60,,,,,,,,,,,,,,2,10.757015,,0,1,43,193,37,1,stimuli/stim_20210407_power2amp/equal_lnn_AM1.8Hz_33.m4a,,,
,,,,,,,,,,,,38677,2021-05-10_20h38.58.354,judgeSpeechMusic_20210407_logNormShiftAmp,2020.1.2,MacIntel,60,,,,,,,,,,,,,,2,5.78981,,0,1,44,194,98,1,stimuli/stim_20210407_power2amp/equal_lnn_AM4.2Hz_55.m4a,,,
,,,,,,,,,,,,38677,2021-05-10_20h38.58.354,judgeSpeechMusic_20210407_logNormShiftAmp,2020.1.2,MacIntel,60,,,,,,,,,,,,,,2,9.31179,4,1,1,45,195,53,1,stimuli/stim_20210407_power2amp/equal_lnn_AM2.4Hz_60.m4a,0.81289,,
,,,,,,,,,,,,38677,2021-05-10_20h38.58.354,judgeSpeechMusic_20210407_logNormShiftAmp,2020.1.2,MacIntel,60,,,,,,,,,,,,,,2,7.19606,,0,1,46,196,99,1,stimuli/stim_20210407_power2amp/equal_lnn_AM4.2Hz_34.m4a,,,
,,,,,,,,,,,,38677,2021-05-10_20h38.58.354,judgeSpeechMusic_20210407_logNormShiftAmp,2020.1.2,MacIntel,60,,,,,,,,,,,,,,2,6.876105,,0,1,47,197,93,1,stimuli/stim_20210407_power2amp/equal_lnn_AM4.2Hz_25.m4a,,,
,,,,,,,,,,,,38677,2021-05-10_20h38.58.354,judgeSpeechMusic_20210407_logNormShiftAmp,2020.1.2,MacIntel,60,,,,,,,,,,,,,,2,6.9254,,0,1,48,198,106,1,stimuli/stim_20210407_power2amp/equal_lnn_AM4.8Hz_64.m4a,,,
,,,,,,,,,,,,38677,2021-05-10_20h38.58.354,judgeSpeechMusic_20210407_logNormShiftAmp,2020.1.2,MacIntel,60,,,,,,,,,,,,,,1,6.961115,,0,1,49,199,38,1,stimuli/stim_20210407_power2amp/equal_lnn_AM1.8Hz_78.m4a,,,
,,,,,,,,,,,,38677,2021-05-10_20h38.58.354,judgeSpeechMusic_20210407_logNormShiftAmp,2020.1.2,MacIntel,60,,,,,,,,,,,,,,2,7.926965,,0,1,50,200,7,1,stimuli/stim_20210407_power2amp/equal_lnn_AM0.6Hz_17.m4a,,,
,,,,,,,,,,,,38677,2021-05-10_20h38.58.354,judgeSpeechMusic_20210407_logNormShiftAmp,2020.1.2,MacIntel,60,,,,,,,,,,,,,,2,6.991915,,0,1,51,201,122,1,stimuli/stim_20210407_power2amp/equal_lnn_AM5.4Hz_96.m4a,,,
,,,,,,,,,,,,38677,2021-05-10_20h38.58.354,judgeSpeechMusic_20210407_logNormShiftAmp,2020.1.2,MacIntel,60,,,,,,,,,,,,,,2,5.691825,,0,1,52,202,104,1,stimuli/stim_20210407_power2amp/equal_lnn_AM4.2Hz_76.m4a,,,
,,,,,,,,,,,,38677,2021-05-10_20h38.58.354,judgeSpeechMusic_20210407_logNormShiftAmp,2020.1.2,MacIntel,60,,,,,,,,,,,,,,2,10.196035,,0,1,53,203,120,1,stimuli/stim_20210407_power2amp/equal_lnn_AM5.4Hz_54.m4a,,,
,,,,,,,,,,,,38677,2021-05-10_20h38.58.354,judgeSpeechMusic_20210407_logNormShiftAmp,2020.1.2,MacIntel,60,,,,,,,,,,,,,,2,9.116335,,0,1,54,204,124,1,stimuli/stim_20210407_power2amp/equal_lnn_AM5.4Hz_16.m4a,,,
,,,,,,,,,,,,38677,2021-05-10_20h38.58.354,judgeSpeechMusic_20210407_logNormShiftAmp,2020.1.2,MacIntel,60,,,,,,,,,,,,,,2,7.00666,,0,1,55,205,133,1,stimuli/stim_20210407_power2amp/equal_lnn_AM5.4Hz_72.m4a,,,
,,,,,,,,,,,,38677,2021-05-10_20h38.58.354,judgeSpeechMusic_20210407_logNormShiftAmp,2020.1.2,MacIntel,60,,,,,,,,,,,,,,2,6.858835,,0,1,56,206,89,1,stimuli/stim_20210407_power2amp/equal_lnn_AM3.6Hz_39.m4a,,,
,,,,,,,,,,,,38677,2021-05-10_20h38.58.354,judgeSpeechMusic_20210407_logNormShiftAmp,2020.1.2,MacIntel,60,,,,,,,,,,,,,,2,6.506755,,0,1,57,207,117,1,stimuli/stim_20210407_power2amp/equal_lnn_AM4.8Hz_46.m4a,,,
,,,,,,,,,,,,38677,2021-05-10_20h38.58.354,judgeSpeechMusic_20210407_logNormShiftAmp,2020.1.2,MacIntel,60,,,,,,,,,,,,,,1,7.707795,,0,1,58,208,8,1,stimuli/stim_20210407_power2amp/equal_lnn_AM0.6Hz_70.m4a,,,
,,,,,,,,,,,,38677,2021-05-10_20h38.58.354,judgeSpeechMusic_20210407_logNormShiftAmp,2020.1.2,MacIntel,60,,,,,,,,,,,,,,1,9.080805,,0,1,59,209,4,1,stimuli/stim_20210407_power2amp/equal_lnn_AM0.6Hz_21.m4a,,,
,,,,,,,,,,,,38677,2021-05-10_20h38.58.354,judgeSpeechMusic_20210407_logNormShiftAmp,2020.1.2,MacIntel,60,,,,,,,,,,,,,,1,6.66721,,0,1,60,210,28,1,stimuli/stim_20210407_power2amp/equal_lnn_AM1.2Hz_89.m4a,,,
,,,,,,,,,,,,38677,2021-05-10_20h38.58.354,judgeSpeechMusic_20210407_logNormShiftAmp,2020.1.2,MacIntel,60,,,,,,,,,,,,,,1,7.486285,,0,1,61,211,47,1,stimuli/stim_20210407_power2amp/equal_lnn_AM2.4Hz_16.m4a,,,
,,,,,,,,,,,,38677,2021-05-10_20h38.58.354,judgeSpeechMusic_20210407_logNormShiftAmp,2020.1.2,MacIntel,60,,,,,,,,,,,,,,1,6.85419,,0,1,62,212,33,1,stimuli/stim_20210407_power2amp/equal_lnn_AM1.8Hz_24.m4a,,,
,,,,,,,,,,,,38677,2021-05-10_20h38.58.354,judgeSpeechMusic_20210407_logNormShiftAmp,2020.1.2,MacIntel,60,,,,,,,,,,,,,,1,9.423135,,0,1,63,213,59,1,stimuli/stim_20210407_power2amp/equal_lnn_AM2.4Hz_18.m4a,,,
,,,,,,,,,,,,38677,2021-05-10_20h38.58.354,judgeSpeechMusic_20210407_logNormShiftAmp,2020.1.2,MacIntel,60,,,,,,,,,,,,,,1,6.85639,,0,1,64,214,18,1,stimuli/stim_20210407_power2amp/equal_lnn_AM1.2Hz_10.m4a,,,
,,,,,,,,,,,,38677,2021-05-10_20h38.58.354,judgeSpeechMusic_20210407_logNormShiftAmp,2020.1.2,MacIntel,60,,,,,,,,,,,,,,2,10.55978,3,1,1,65,215,94,1,stimuli/stim_20210407_power2amp/equal_lnn_AM4.2Hz_60.m4a,1.560675,,
,,,,,,,,,,,,38677,2021-05-10_20h38.58.354,judgeSpeechMusic_20210407_logNormShiftAmp,2020.1.2,MacIntel,60,,,,,,,,,,,,,,2,6.79934,,0,1,66,216,110,1,stimuli/stim_20210407_power2amp/equal_lnn_AM4.8Hz_52.m4a,,,
,,,,,,,,,,,,38677,2021-05-10_20h38.58.354,judgeSpeechMusic_20210407_logNormShiftAmp,2020.1.2,MacIntel,60,,,,,,,,,,,,,,2,7.559255,,0,1,67,217,138,1,stimuli/stim_20210407_power2amp/equal_lnn_AM6Hz_10.m4a,,,
,,,,,,,,,,,,38677,2021-05-10_20h38.58.354,judgeSpeechMusic_20210407_logNormShiftAmp,2020.1.2,MacIntel,60,,,,,,,,,,,,,,2,7.201335,,0,1,68,218,135,1,stimuli/stim_20210407_power2amp/equal_lnn_AM6Hz_29.m4a,,,
,,,,,,,,,,,,38677,2021-05-10_20h38.58.354,judgeSpeechMusic_20210407_logNormShiftAmp,2020.1.2,MacIntel,60,,,,,,,,,,,,,,1,8.51418,,0,1,69,219,43,1,stimuli/stim_20210407_power2amp/equal_lnn_AM1.8Hz_16.m4a,,,
,,,,,,,,,,,,38677,2021-05-10_20h38.58.354,judgeSpeechMusic_20210407_logNormShiftAmp,2020.1.2,MacIntel,60,,,,,,,,,,,,,,2,8.894325,,0,1,70,220,96,1,stimuli/stim_20210407_power2amp/equal_lnn_AM4.2Hz_21.m4a,,,
,,,,,,,,,,,,38677,2021-05-10_20h38.58.354,judgeSpeechMusic_20210407_logNormShiftAmp,2020.1.2,MacIntel,60,,,,,,,,,,,,,,2,16.655185,,0,1,71,221,57,1,stimuli/stim_20210407_power2amp/equal_lnn_AM2.4Hz_6.m4a,,,
,,,,,,,,,,,,38677,2021-05-10_20h38.58.354,judgeSpeechMusic_20210407_logNormShiftAmp,2020.1.2,MacIntel,60,,,,,,,,,,,,,,2,6.225175,,0,1,72,222,73,1,stimuli/stim_20210407_power2amp/equal_lnn_AM3Hz_78.m4a,,,
,,,,,,,,,,,,38677,2021-05-10_20h38.58.354,judgeSpeechMusic_20210407_logNormShiftAmp,2020.1.2,MacIntel,60,,,,,,,,,,,,,,2,7.37736,,0,1,73,223,114,1,stimuli/stim_20210407_power2amp/equal_lnn_AM4.8Hz_77.m4a,,,
,,,,,,,,,,,,38677,2021-05-10_20h38.58.354,judgeSpeechMusic_20210407_logNormShiftAmp,2020.1.2,MacIntel,60,,,,,,,,,,,,,,2,7.834505,,0,1,74,224,39,1,stimuli/stim_20210407_power2amp/equal_lnn_AM1.8Hz_62.m4a,,,
,,,,,,,,,,,,38677,2021-05-10_20h38.58.354,judgeSpeechMusic_20210407_logNormShiftAmp,2020.1.2,MacIntel,60,,,,,,,,,,,,,,2,7.03414,,0,1,75,225,144,1,stimuli/stim_20210407_power2amp/equal_lnn_AM6Hz_32.m4a,,,
,,,,,,,,,,,,38677,2021-05-10_20h38.58.354,judgeSpeechMusic_20210407_logNormShiftAmp,2020.1.2,MacIntel,60,,,,,,,,,,,,,,2,8.491965,,0,1,76,226,71,1,stimuli/stim_20210407_power2amp/equal_lnn_AM3Hz_55.m4a,,,
,,,,,,,,,,,,38677,2021-05-10_20h38.58.354,judgeSpeechMusic_20210407_logNormShiftAmp,2020.1.2,MacIntel,60,,,,,,,,,,,,,,2,8.3974,,0,1,77,227,140,1,stimuli/stim_20210407_power2amp/equal_lnn_AM6Hz_77.m4a,,,
,,,,,,,,,,,,38677,2021-05-10_20h38.58.354,judgeSpeechMusic_20210407_logNormShiftAmp,2020.1.2,MacIntel,60,,,,,,,,,,,,,,2,10.1292,,0,1,78,228,82,1,stimuli/stim_20210407_power2amp/equal_lnn_AM3.6Hz_29.m4a,,,
,,,,,,,,,,,,38677,2021-05-10_20h38.58.354,judgeSpeechMusic_20210407_logNormShiftAmp,2020.1.2,MacIntel,60,,,,,,,,,,,,,,1,6.89307,,0,1,79,229,14,1,stimuli/stim_20210407_power2amp/equal_lnn_AM0.6Hz_56.m4a,,,
,,,,,,,,,,,,38677,2021-05-10_20h38.58.354,judgeSpeechMusic_20210407_logNormShiftAmp,2020.1.2,MacIntel,60,,,,,,,,,,,,,,2,7.07818,,0,1,80,230,121,1,stimuli/stim_20210407_power2amp/equal_lnn_AM5.4Hz_22.m4a,,,
,,,,,,,,,,,,38677,2021-05-10_20h38.58.354,judgeSpeechMusic_20210407_logNormShiftAmp,2020.1.2,MacIntel,60,,,,,,,,,,,,,,2,5.929065,,0,1,81,231,66,1,stimuli/stim_20210407_power2amp/equal_lnn_AM3Hz_64.m4a,,,
,,,,,,,,,,,,38677,2021-05-10_20h38.58.354,judgeSpeechMusic_20210407_logNormShiftAmp,2020.1.2,MacIntel,60,,,,,,,,,,,,,,1,7.576215,,0,1,82,232,3,1,stimuli/stim_20210407_power2amp/equal_lnn_AM0.6Hz_32.m4a,,,
,,,,,,,,,,,,38677,2021-05-10_20h38.58.354,judgeSpeechMusic_20210407_logNormShiftAmp,2020.1.2,MacIntel,60,,,,,,,,,,,,,,2,5.775785,,0,1,83,233,86,1,stimuli/stim_20210407_power2amp/equal_lnn_AM3.6Hz_60.m4a,,,
,,,,,,,,,,,,38677,2021-05-10_20h38.58.354,judgeSpeechMusic_20210407_logNormShiftAmp,2020.1.2,MacIntel,60,,,,,,,,,,,,,,2,6.01141,,0,1,84,234,101,1,stimuli/stim_20210407_power2amp/equal_lnn_AM4.2Hz_1.m4a,,,
,,,,,,,,,,,,38677,2021-05-10_20h38.58.354,judgeSpeechMusic_20210407_logNormShiftAmp,2020.1.2,MacIntel,60,,,,,,,,,,,,,,2,5.896435,,0,1,85,235,146,1,stimuli/stim_20210407_power2amp/equal_lnn_AM6Hz_86.m4a,,,
,,,,,,,,,,,,38677,2021-05-10_20h38.58.354,judgeSpeechMusic_20210407_logNormShiftAmp,2020.1.2,MacIntel,60,,,,,,,,,,,,,,2,6.371845,2,1,1,86,236,129,1,stimuli/stim_20210407_power2amp/equal_lnn_AM5.4Hz_12.m4a,1.03297,,
,,,,,,,,,,,,38677,2021-05-10_20h38.58.354,judgeSpeechMusic_20210407_logNormShiftAmp,2020.1.2,MacIntel,60,,,,,,,,,,,,,,2,7.34506,,0,1,87,237,127,1,stimuli/stim_20210407_power2amp/equal_lnn_AM5.4Hz_66.m4a,,,
,,,,,,,,,,,,38677,2021-05-10_20h38.58.354,judgeSpeechMusic_20210407_logNormShiftAmp,2020.1.2,MacIntel,60,,,,,,,,,,,,,,1,7.026555,,0,1,88,238,45,1,stimuli/stim_20210407_power2amp/equal_lnn_AM2.4Hz_71.m4a,,,
,,,,,,,,,,,,38677,2021-05-10_20h38.58.354,judgeSpeechMusic_20210407_logNormShiftAmp,2020.1.2,MacIntel,60,,,,,,,,,,,,,,2,9.64242,,0,1,89,239,67,1,stimuli/stim_20210407_power2amp/equal_lnn_AM3Hz_66.m4a,,,
,,,,,,,,,,,,38677,2021-05-10_20h38.58.354,judgeSpeechMusic_20210407_logNormShiftAmp,2020.1.2,MacIntel,60,,,,,,,,,,,,,,2,6.677785,,0,1,90,240,145,1,stimuli/stim_20210407_power2amp/equal_lnn_AM6Hz_96.m4a,,,
,,,,,,,,,,,,38677,2021-05-10_20h38.58.354,judgeSpeechMusic_20210407_logNormShiftAmp,2020.1.2,MacIntel,60,,,,,,,,,,,,,,1,7.346615,,0,1,91,241,21,1,stimuli/stim_20210407_power2amp/equal_lnn_AM1.2Hz_42.m4a,,,
,,,,,,,,,,,,38677,2021-05-10_20h38.58.354,judgeSpeechMusic_20210407_logNormShiftAmp,2020.1.2,MacIntel,60,,,,,,,,,,,,,,1,6.25666,,0,1,92,242,51,1,stimuli/stim_20210407_power2amp/equal_lnn_AM2.4Hz_33.m4a,,,
,,,,,,,,,,,,38677,2021-05-10_20h38.58.354,judgeSpeechMusic_20210407_logNormShiftAmp,2020.1.2,MacIntel,60,,,,,,,,,,,,,,2,11.647235,,0,1,93,243,42,1,stimuli/stim_20210407_power2amp/equal_lnn_AM1.8Hz_58.m4a,,,
,,,,,,,,,,,,38677,2021-05-10_20h38.58.354,judgeSpeechMusic_20210407_logNormShiftAmp,2020.1.2,MacIntel,60,,,,,,,,,,,,,,2,7.41005,,0,1,94,244,141,1,stimuli/stim_20210407_power2amp/equal_lnn_AM6Hz_100.m4a,,,
,,,,,,,,,,,,38677,2021-05-10_20h38.58.354,judgeSpeechMusic_20210407_logNormShiftAmp,2020.1.2,MacIntel,60,,,,,,,,,,,,,,2,6.380585,,0,1,95,245,126,1,stimuli/stim_20210407_power2amp/equal_lnn_AM5.4Hz_14.m4a,,,
,,,,,,,,,,,,38677,2021-05-10_20h38.58.354,judgeSpeechMusic_20210407_logNormShiftAmp,2020.1.2,MacIntel,60,,,,,,,,,,,,,,1,7.1242,,0,1,96,246,32,1,stimuli/stim_20210407_power2amp/equal_lnn_AM1.8Hz_29.m4a,,,
,,,,,,,,,,,,38677,2021-05-10_20h38.58.354,judgeSpeechMusic_20210407_logNormShiftAmp,2020.1.2,MacIntel,60,,,,,,,,,,,,,,2,6.07229,,0,1,97,247,108,1,stimuli/stim_20210407_power2amp/equal_lnn_AM4.8Hz_29.m4a,,,
,,,,,,,,,,,,38677,2021-05-10_20h38.58.354,judgeSpeechMusic_20210407_logNormShiftAmp,2020.1.2,MacIntel,60,,,,,,,,,,,,,,2,9.22882,,0,1,98,248,80,1,stimuli/stim_20210407_power2amp/equal_lnn_AM3.6Hz_87.m4a,,,
,,,,,,,,,,,,38677,2021-05-10_20h38.58.354,judgeSpeechMusic_20210407_logNormShiftAmp,2020.1.2,MacIntel,60,,,,,,,,,,,,,,2,7.629225,,0,1,99,249,62,1,stimuli/stim_20210407_power2amp/equal_lnn_AM3Hz_46.m4a,,,
,,,,,,,,,,,,38677,2021-05-10_20h38.58.354,judgeSpeechMusic_20210407_logNormShiftAmp,2020.1.2,MacIntel,60,,,,,,,,,,,,,,2,6.62597,,0,1,100,250,137,1,stimuli/stim_20210407_power2amp/equal_lnn_AM6Hz_17.m4a,,,
,,,,,,,,,,,,38677,2021-05-10_20h38.58.354,judgeSpeechMusic_20210407_logNormShiftAmp,2020.1.2,MacIntel,60,,,,,,,,,,,,,,1,6.058855,,0,1,101,251,30,1,stimuli/stim_20210407_power2amp/equal_lnn_AM1.8Hz_94.m4a,,,
,,,,,,,,,,,,38677,2021-05-10_20h38.58.354,judgeSpeechMusic_20210407_logNormShiftAmp,2020.1.2,MacIntel,60,,,,,,,,,,,,,,1,9.15448,,0,1,102,252,24,1,stimuli/stim_20210407_power2amp/equal_lnn_AM1.2Hz_38.m4a,,,
,,,,,,,,,,,,38677,2021-05-10_20h38.58.354,judgeSpeechMusic_20210407_logNormShiftAmp,2020.1.2,MacIntel,60,,,,,,,,,,,,,,1,6.12737,,0,1,103,253,11,1,stimuli/stim_20210407_power2amp/equal_lnn_AM0.6Hz_74.m4a,,,
,,,,,,,,,,,,38677,2021-05-10_20h38.58.354,judgeSpeechMusic_20210407_logNormShiftAmp,2020.1.2,MacIntel,60,,,,,,,,,,,,,,2,7.93858,,0,1,104,254,79,1,stimuli/stim_20210407_power2amp/equal_lnn_AM3.6Hz_36.m4a,,,
,,,,,,,,,,,,38677,2021-05-10_20h38.58.354,judgeSpeechMusic_20210407_logNormShiftAmp,2020.1.2,MacIntel,60,,,,,,,,,,,,,,2,6.828305,,0,1,105,255,72,1,stimuli/stim_20210407_power2amp/equal_lnn_AM3Hz_63.m4a,,,
,,,,,,,,,,,,38677,2021-05-10_20h38.58.354,judgeSpeechMusic_20210407_logNormShiftAmp,2020.1.2,MacIntel,60,,,,,,,,,,,,,,2,6.66054,,0,1,106,256,76,1,stimuli/stim_20210407_power2amp/equal_lnn_AM3.6Hz_7.m4a,,,
,,,,,,,,,,,,38677,2021-05-10_20h38.58.354,judgeSpeechMusic_20210407_logNormShiftAmp,2020.1.2,MacIntel,60,,,,,,,,,,,,,,2,6.76201,,0,1,107,257,74,1,stimuli/stim_20210407_power2amp/equal_lnn_AM3Hz_9.m4a,,,
,,,,,,,,,,,,38677,2021-05-10_20h38.58.354,judgeSpeechMusic_20210407_logNormShiftAmp,2020.1.2,MacIntel,60,,,,,,,,,,,,,,2,7.043305,,0,1,108,258,15,1,stimuli/stim_20210407_power2amp/equal_lnn_AM1.2Hz_55.m4a,,,
,,,,,,,,,,,,38677,2021-05-10_20h38.58.354,judgeSpeechMusic_20210407_logNormShiftAmp,2020.1.2,MacIntel,60,,,,,,,,,,,,,,1,7.103615,1,1,1,109,259,136,1,stimuli/stim_20210407_power2amp/equal_lnn_AM6Hz_60.m4a,1.496425,,
,,,,,,,,,,,,38677,2021-05-10_20h38.58.354,judgeSpeechMusic_20210407_logNormShiftAmp,2020.1.2,MacIntel,60,,,,,,,,,,,,,,2,6.544195,,0,1,110,260,87,1,stimuli/stim_20210407_power2amp/equal_lnn_AM3.6Hz_44.m4a,,,
,,,,,,,,,,,,38677,2021-05-10_20h38.58.354,judgeSpeechMusic_20210407_logNormShiftAmp,2020.1.2,MacIntel,60,,,,,,,,,,,,,,2,6.23467,,0,1,111,261,97,1,stimuli/stim_20210407_power2amp/equal_lnn_AM4.2Hz_11.m4a,,,
,,,,,,,,,,,,38677,2021-05-10_20h38.58.354,judgeSpeechMusic_20210407_logNormShiftAmp,2020.1.2,MacIntel,60,,,,,,,,,,,,,,2,6.481095,,0,1,112,262,112,1,stimuli/stim_20210407_power2amp/equal_lnn_AM4.8Hz_54.m4a,,,
,,,,,,,,,,,,38677,2021-05-10_20h38.58.354,judgeSpeechMusic_20210407_logNormShiftAmp,2020.1.2,MacIntel,60,,,,,,,,,,,,,,2,7.803495,,0,1,113,263,26,1,stimuli/stim_20210407_power2amp/equal_lnn_AM1.2Hz_24.m4a,,,
,,,,,,,,,,,,38677,2021-05-10_20h38.58.354,judgeSpeechMusic_20210407_logNormShiftAmp,2020.1.2,MacIntel,60,,,,,,,,,,,,,,2,8.390365,,0,1,114,264,55,1,stimuli/stim_20210407_power2amp/equal_lnn_AM2.4Hz_26.m4a,,,
,,,,,,,,,,,,38677,2021-05-10_20h38.58.354,judgeSpeechMusic_20210407_logNormShiftAmp,2020.1.2,MacIntel,60,,,,,,,,,,,,,,2,8.60463,,0,1,115,265,92,1,stimuli/stim_20210407_power2amp/equal_lnn_AM4.2Hz_24.m4a,,,
,,,,,,,,,,,,38677,2021-05-10_20h38.58.354,judgeSpeechMusic_20210407_logNormShiftAmp,2020.1.2,MacIntel,60,,,,,,,,,,,,,,2,7.313825,,0,1,116,266,132,1,stimuli/stim_20210407_power2amp/equal_lnn_AM5.4Hz_2.m4a,,,
,,,,,,,,,,,,38677,2021-05-10_20h38.58.354,judgeSpeechMusic_20210407_logNormShiftAmp,2020.1.2,MacIntel,60,,,,,,,,,,,,,,1,6.320215,,0,1,117,267,17,1,stimuli/stim_20210407_power2amp/equal_lnn_AM1.2Hz_3.m4a,,,
,,,,,,,,,,,,38677,2021-05-10_20h38.58.354,judgeSpeechMusic_20210407_logNormShiftAmp,2020.1.2,MacIntel,60,,,,,,,,,,,,,,2,10.492435,,0,1,118,268,75,1,stimuli/stim_20210407_power2amp/equal_lnn_AM3.6Hz_14.m4a,,,
,,,,,,,,,,,,38677,2021-05-10_20h38.58.354,judgeSpeechMusic_20210407_logNormShiftAmp,2020.1.2,MacIntel,60,,,,,,,,,,,,,,2,9.90257,,0,1,119,269,118,1,stimuli/stim_20210407_power2amp/equal_lnn_AM4.8Hz_7.m4a,,,
,,,,,,,,,,,,38677,2021-05-10_20h38.58.354,judgeSpeechMusic_20210407_logNormShiftAmp,2020.1.2,MacIntel,60,,,,,,,,,,,,,,2,6.218165,,0,1,120,270,63,1,stimuli/stim_20210407_power2amp/equal_lnn_AM3Hz_80.m4a,,,
,,,,,,,,,,,,38677,2021-05-10_20h38.58.354,judgeSpeechMusic_20210407_logNormShiftAmp,2020.1.2,MacIntel,60,,,,,,,,,,,,,,2,6.371875,,0,1,121,271,50,1,stimuli/stim_20210407_power2amp/equal_lnn_AM2.4Hz_40.m4a,,,
,,,,,,,,,,,,38677,2021-05-10_20h38.58.354,judgeSpeechMusic_20210407_logNormShiftAmp,2020.1.2,MacIntel,60,,,,,,,,,,,,,,2,5.6441,,0,1,122,272,90,1,stimuli/stim_20210407_power2amp/equal_lnn_AM4.2Hz_46.m4a,,,
,,,,,,,,,,,,38677,2021-05-10_20h38.58.354,judgeSpeechMusic_20210407_logNormShiftAmp,2020.1.2,MacIntel,60,,,,,,,,,,,,,,1,6.157345,,0,1,123,273,109,1,stimuli/stim_20210407_power2amp/equal_lnn_AM4.8Hz_40.m4a,,,
,,,,,,,,,,,,38677,2021-05-10_20h38.58.354,judgeSpeechMusic_20210407_logNormShiftAmp,2020.1.2,MacIntel,60,,,,,,,,,,,,,,2,6.192775,,0,1,124,274,70,1,stimuli/stim_20210407_power2amp/equal_lnn_AM3Hz_91.m4a,,,
,,,,,,,,,,,,38677,2021-05-10_20h38.58.354,judgeSpeechMusic_20210407_logNormShiftAmp,2020.1.2,MacIntel,60,,,,,,,,,,,,,,2,12.939565,,0,1,125,275,143,1,stimuli/stim_20210407_power2amp/equal_lnn_AM6Hz_19.m4a,,,
,,,,,,,,,,,,38677,2021-05-10_20h38.58.354,judgeSpeechMusic_20210407_logNormShiftAmp,2020.1.2,MacIntel,60,,,,,,,,,,,,,,2,6.80974,,0,1,126,276,65,1,stimuli/stim_20210407_power2amp/equal_lnn_AM3Hz_87.m4a,,,
,,,,,,,,,,,,38677,2021-05-10_20h38.58.354,judgeSpeechMusic_20210407_logNormShiftAmp,2020.1.2,MacIntel,60,,,,,,,,,,,,,,2,9.470175,,0,1,127,277,6,1,stimuli/stim_20210407_power2amp/equal_lnn_AM0.6Hz_41.m4a,,,
,,,,,,,,,,,,38677,2021-05-10_20h38.58.354,judgeSpeechMusic_20210407_logNormShiftAmp,2020.1.2,MacIntel,60,,,,,,,,,,,,,,2,6.73174,,0,1,128,278,77,1,stimuli/stim_20210407_power2amp/equal_lnn_AM3.6Hz_35.m4a,,,
,,,,,,,,,,,,38677,2021-05-10_20h38.58.354,judgeSpeechMusic_20210407_logNormShiftAmp,2020.1.2,MacIntel,60,,,,,,,,,,,,,,1,9.38764,,0,1,129,279,36,1,stimuli/stim_20210407_power2amp/equal_lnn_AM1.8Hz_31.m4a,,,
,,,,,,,,,,,,38677,2021-05-10_20h38.58.354,judgeSpeechMusic_20210407_logNormShiftAmp,2020.1.2,MacIntel,60,,,,,,,,,,,,,,1,7.334425,,0,1,130,280,16,1,stimuli/stim_20210407_power2amp/equal_lnn_AM1.2Hz_23.m4a,,,
,,,,,,,,,,,,38677,2021-05-10_20h38.58.354,judgeSpeechMusic_20210407_logNormShiftAmp,2020.1.2,MacIntel,60,,,,,,,,,,,,,,2,7.19754,4,1,1,131,281,134,1,stimuli/stim_20210407_power2amp/equal_lnn_AM5.4Hz_87.m4a,0.78315,,
,,,,,,,,,,,,38677,2021-05-10_20h38.58.354,judgeSpeechMusic_20210407_logNormShiftAmp,2020.1.2,MacIntel,60,,,,,,,,,,,,,,1,5.981305,,0,1,132,282,61,1,stimuli/stim_20210407_power2amp/equal_lnn_AM3Hz_34.m4a,,,
,,,,,,,,,,,,38677,2021-05-10_20h38.58.354,judgeSpeechMusic_20210407_logNormShiftAmp,2020.1.2,MacIntel,60,,,,,,,,,,,,,,2,6.691705,,0,1,133,283,48,1,stimuli/stim_20210407_power2amp/equal_lnn_AM2.4Hz_76.m4a,,,
,,,,,,,,,,,,38677,2021-05-10_20h38.58.354,judgeSpeechMusic_20210407_logNormShiftAmp,2020.1.2,MacIntel,60,,,,,,,,,,,,,,1,8.419155,,0,1,134,284,0,1,stimuli/stim_20210407_power2amp/equal_lnn_AM0.6Hz_71.m4a,,,
,,,,,,,,,,,,38677,2021-05-10_20h38.58.354,judgeSpeechMusic_20210407_logNormShiftAmp,2020.1.2,MacIntel,60,,,,,,,,,,,,,,1,11.67477,,0,1,135,285,23,1,stimuli/stim_20210407_power2amp/equal_lnn_AM1.2Hz_56.m4a,,,
,,,,,,,,,,,,38677,2021-05-10_20h38.58.354,judgeSpeechMusic_20210407_logNormShiftAmp,2020.1.2,MacIntel,60,,,,,,,,,,,,,,1,6.17538,,0,1,136,286,44,1,stimuli/stim_20210407_power2amp/equal_lnn_AM1.8Hz_49.m4a,,,
,,,,,,,,,,,,38677,2021-05-10_20h38.58.354,judgeSpeechMusic_20210407_logNormShiftAmp,2020.1.2,MacIntel,60,,,,,,,,,,,,,,2,6.729385,,0,1,137,287,113,1,stimuli/stim_20210407_power2amp/equal_lnn_AM4.8Hz_59.m4a,,,
,,,,,,,,,,,,38677,2021-05-10_20h38.58.354,judgeSpeechMusic_20210407_logNormShiftAmp,2020.1.2,MacIntel,60,,,,,,,,,,,,,,2,7.86221,,0,1,138,288,25,1,stimuli/stim_20210407_power2amp/equal_lnn_AM1.2Hz_51.m4a,,,
,,,,,,,,,,,,38677,2021-05-10_20h38.58.354,judgeSpeechMusic_20210407_logNormShiftAmp,2020.1.2,MacIntel,60,,,,,,,,,,,,,,1,6.98584,,0,1,139,289,56,1,stimuli/stim_20210407_power2amp/equal_lnn_AM2.4Hz_9.m4a,,,
,,,,,,,,,,,,38677,2021-05-10_20h38.58.354,judgeSpeechMusic_20210407_logNormShiftAmp,2020.1.2,MacIntel,60,,,,,,,,,,,,,,1,5.98399,,0,1,140,290,88,1,stimuli/stim_20210407_power2amp/equal_lnn_AM3.6Hz_91.m4a,,,
,,,,,,,,,,,,38677,2021-05-10_20h38.58.354,judgeSpeechMusic_20210407_logNormShiftAmp,2020.1.2,MacIntel,60,,,,,,,,,,,,,,1,6.07296,,0,1,141,291,13,1,stimuli/stim_20210407_power2amp/equal_lnn_AM0.6Hz_38.m4a,,,
,,,,,,,,,,,,38677,2021-05-10_20h38.58.354,judgeSpeechMusic_20210407_logNormShiftAmp,2020.1.2,MacIntel,60,,,,,,,,,,,,,,2,6.231595,,0,1,142,292,34,1,stimuli/stim_20210407_power2amp/equal_lnn_AM1.8Hz_71.m4a,,,
,,,,,,,,,,,,38677,2021-05-10_20h38.58.354,judgeSpeechMusic_20210407_logNormShiftAmp,2020.1.2,MacIntel,60,,,,,,,,,,,,,,1,7.584905,,0,1,143,293,49,1,stimuli/stim_20210407_power2amp/equal_lnn_AM2.4Hz_43.m4a,,,
,,,,,,,,,,,,38677,2021-05-10_20h38.58.354,judgeSpeechMusic_20210407_logNormShiftAmp,2020.1.2,MacIntel,60,,,,,,,,,,,,,,1,6.78216,,0,1,144,294,54,1,stimuli/stim_20210407_power2amp/equal_lnn_AM2.4Hz_93.m4a,,,
,,,,,,,,,,,,38677,2021-05-10_20h38.58.354,judgeSpeechMusic_20210407_logNormShiftAmp,2020.1.2,MacIntel,60,,,,,,,,,,,,,,2,7.561995,,0,1,145,295,131,1,stimuli/stim_20210407_power2amp/equal_lnn_AM5.4Hz_44.m4a,,,
,,,,,,,,,,,,38677,2021-05-10_20h38.58.354,judgeSpeechMusic_20210407_logNormShiftAmp,2020.1.2,MacIntel,60,,,,,,,,,,,,,,2,10.12567,,0,1,146,296,1,1,stimuli/stim_20210407_power2amp/equal_lnn_AM0.6Hz_42.m4a,,,
,,,,,,,,,,,,38677,2021-05-10_20h38.58.354,judgeSpeechMusic_20210407_logNormShiftAmp,2020.1.2,MacIntel,60,,,,,,,,,,,,,,2,7.65706,,0,1,147,297,125,1,stimuli/stim_20210407_power2amp/equal_lnn_AM5.4Hz_51.m4a,,,
,,,,,,,,,,,,38677,2021-05-10_20h38.58.354,judgeSpeechMusic_20210407_logNormShiftAmp,2020.1.2,MacIntel,60,,,,,,,,,,,,,,2,6.91322,,0,1,148,298,78,1,stimuli/stim_20210407_power2amp/equal_lnn_AM3.6Hz_3.m4a,,,
,,,,,,,,,,,,38677,2021-05-10_20h38.58.354,judgeSpeechMusic_20210407_logNormShiftAmp,2020.1.2,MacIntel,60,,,,,,,,,,,,,,1,8.16164,,0,1,149,299,35,1,stimuli/stim_20210407_power2amp/equal_lnn_AM1.8Hz_35.m4a,,,
,,,,,,,,,,,,38677,2021-05-10_20h38.58.354,judgeSpeechMusic_20210407_logNormShiftAmp,2020.1.2,MacIntel,60,,,,,,,,,,,,,,,,,,,,,,,,,space,5.833215
