volAdjustRep.thisRepN,volAdjustRep.thisTrialN,volAdjustRep.thisN,volAdjustRep.thisIndex,volAdjustRep.ran,participant,date,expName,psychopyVersion,OS,frameRate,headphoneResponse.keys,headphoneResponse.corr,headphoneResponse.rt,headphoneTrial.thisRepN,headphoneTrial.thisTrialN,headphoneTrial.thisN,headphoneTrial.thisIndex,headphoneTrial.ran,headphone_sound1,headphone_sound2,headphone_sound3,corrAns,trainSlider.response,trainSlider.rt,beepTrainResponse.keys,beepTrainResponse.corr,trainingTrials.thisRepN,trainingTrials.thisTrialN,trainingTrials.thisN,trainingTrials.thisIndex,trainingTrials.ran,trainAudioFile,beepTrainResponse.rt,readyReal_resp.keys,readyReal_resp.rt,ratingSlider.response,ratingSlider.rt,beepResp.keys,beepResp.corr,expTrials.thisRepN,expTrials.thisTrialN,expTrials.thisN,expTrials.thisIndex,expTrials.ran,audioFile,beepResp.rt,end_resp.keys,end_resp.rt
0,0,0,0,1,38881,2021-04-22_22h07.45.620,judgeSpeechMusic_20210407_logNormShiftAmp,2020.1.2,Win32,60,,,,,,,,,,,,,,,,,,,,,,,,,,,,,,,,,,,,,,
,,,,,38881,2021-04-22_22h07.45.620,judgeSpeechMusic_20210407_logNormShiftAmp,2020.1.2,Win32,60,3,1,3.706965,0,0,0,0,1,stimuli/screen_antiphase.wav,stimuli/screen_origin.wav,stimuli/screen_quiet.wav,3,,,,,,,,,,,,,,,,,,,,,,,,,,
,,,,,38881,2021-04-22_22h07.45.620,judgeSpeechMusic_20210407_logNormShiftAmp,2020.1.2,Win32,60,2,1,2.568675,0,1,1,1,1,stimuli/screen_antiphase.wav,stimuli/screen_quiet.wav,stimuli/screen_origin.wav,2,,,,,,,,,,,,,,,,,,,,,,,,,,
,,,,,38881,2021-04-22_22h07.45.620,judgeSpeechMusic_20210407_logNormShiftAmp,2020.1.2,Win32,60,1,1,1.476235,0,2,2,5,1,stimuli/screen_quiet.wav,stimuli/screen_origin.wav,stimuli/screen_antiphase.wav,1,,,,,,,,,,,,,,,,,,,,,,,,,,
,,,,,38881,2021-04-22_22h07.45.620,judgeSpeechMusic_20210407_logNormShiftAmp,2020.1.2,Win32,60,1,1,1.25884,0,3,3,4,1,stimuli/screen_quiet.wav,stimuli/screen_antiphase.wav,stimuli/screen_origin.wav,1,,,,,,,,,,,,,,,,,,,,,,,,,,
,,,,,38881,2021-04-22_22h07.45.620,judgeSpeechMusic_20210407_logNormShiftAmp,2020.1.2,Win32,60,3,1,1.35772,0,4,4,2,1,stimuli/screen_origin.wav,stimuli/screen_antiphase.wav,stimuli/screen_quiet.wav,3,,,,,,,,,,,,,,,,,,,,,,,,,,
,,,,,38881,2021-04-22_22h07.45.620,judgeSpeechMusic_20210407_logNormShiftAmp,2020.1.2,Win32,60,2,1,1.026675,0,5,5,3,1,stimuli/screen_origin.wav,stimuli/screen_quiet.wav,stimuli/screen_antiphase.wav,2,,,,,,,,,,,,,,,,,,,,,,,,,,
,,,,,38881,2021-04-22_22h07.45.620,judgeSpeechMusic_20210407_logNormShiftAmp,2020.1.2,Win32,60,,,,,,,,,,,,,1,14.616855,,0,0,0,0,3,1,stimuli/stim_20210407_power2amp/equal_lnn_AM_training5.1Hz.m4a,,,,,,,,,,,,,,,,
,,,,,38881,2021-04-22_22h07.45.620,judgeSpeechMusic_20210407_logNormShiftAmp,2020.1.2,Win32,60,,,,,,,,,,,,,2,10.541315,,0,0,1,1,2,1,stimuli/stim_20210407_power2amp/equal_lnn_AM_training3.9Hz.m4a,,,,,,,,,,,,,,,,
,,,,,38881,2021-04-22_22h07.45.620,judgeSpeechMusic_20210407_logNormShiftAmp,2020.1.2,Win32,60,,,,,,,,,,,,,1,8.42448,1,1,0,2,2,0,1,stimuli/stim_20210407_power2amp/equal_lnn_AM_training1.5Hz.m4a,2.15762,,,,,,,,,,,,,,,
,,,,,38881,2021-04-22_22h07.45.620,judgeSpeechMusic_20210407_logNormShiftAmp,2020.1.2,Win32,60,,,,,,,,,,,,,2,7.379425,,0,0,3,3,1,1,stimuli/stim_20210407_power2amp/equal_lnn_AM_training2.7Hz.m4a,,,,,,,,,,,,,,,,
,,,,,38881,2021-04-22_22h07.45.620,judgeSpeechMusic_20210407_logNormShiftAmp,2020.1.2,Win32,60,,,,,,,,,,,,,,,,,,,,,,,,space,6.574175,2,8.0026,,0,0,0,0,57,1,stimuli/stim_20210407_power2amp/equal_lnn_AM2.4Hz_58.m4a,,,
,,,,,38881,2021-04-22_22h07.45.620,judgeSpeechMusic_20210407_logNormShiftAmp,2020.1.2,Win32,60,,,,,,,,,,,,,,,,,,,,,,,,,,2,8.32646,,0,0,1,1,47,1,stimuli/stim_20210407_power2amp/equal_lnn_AM2.4Hz_42.m4a,,,
,,,,,38881,2021-04-22_22h07.45.620,judgeSpeechMusic_20210407_logNormShiftAmp,2020.1.2,Win32,60,,,,,,,,,,,,,,,,,,,,,,,,,,2,7.69027,,0,0,2,2,116,1,stimuli/stim_20210407_power2amp/equal_lnn_AM4.8Hz_76.m4a,,,
,,,,,38881,2021-04-22_22h07.45.620,judgeSpeechMusic_20210407_logNormShiftAmp,2020.1.2,Win32,60,,,,,,,,,,,,,,,,,,,,,,,,,,1,7.06004,,0,0,3,3,145,1,stimuli/stim_20210407_power2amp/equal_lnn_AM6Hz_30.m4a,,,
,,,,,38881,2021-04-22_22h07.45.620,judgeSpeechMusic_20210407_logNormShiftAmp,2020.1.2,Win32,60,,,,,,,,,,,,,,,,,,,,,,,,,,2,6.850485,,0,0,4,4,63,1,stimuli/stim_20210407_power2amp/equal_lnn_AM3Hz_88.m4a,,,
,,,,,38881,2021-04-22_22h07.45.620,judgeSpeechMusic_20210407_logNormShiftAmp,2020.1.2,Win32,60,,,,,,,,,,,,,,,,,,,,,,,,,,1,6.998825,,0,0,5,5,36,1,stimuli/stim_20210407_power2amp/equal_lnn_AM1.8Hz_85.m4a,,,
,,,,,38881,2021-04-22_22h07.45.620,judgeSpeechMusic_20210407_logNormShiftAmp,2020.1.2,Win32,60,,,,,,,,,,,,,,,,,,,,,,,,,,1,7.130705,,0,0,6,6,25,1,stimuli/stim_20210407_power2amp/equal_lnn_AM1.2Hz_16.m4a,,,
,,,,,38881,2021-04-22_22h07.45.620,judgeSpeechMusic_20210407_logNormShiftAmp,2020.1.2,Win32,60,,,,,,,,,,,,,,,,,,,,,,,,,,1,6.723895,,0,0,7,7,21,1,stimuli/stim_20210407_power2amp/equal_lnn_AM1.2Hz_90.m4a,,,
,,,,,38881,2021-04-22_22h07.45.620,judgeSpeechMusic_20210407_logNormShiftAmp,2020.1.2,Win32,60,,,,,,,,,,,,,,,,,,,,,,,,,,1,6.85973,,0,0,8,8,9,1,stimuli/stim_20210407_power2amp/equal_lnn_AM0.6Hz_17.m4a,,,
,,,,,38881,2021-04-22_22h07.45.620,judgeSpeechMusic_20210407_logNormShiftAmp,2020.1.2,Win32,60,,,,,,,,,,,,,,,,,,,,,,,,,,2,6.76579,,0,0,9,9,133,1,stimuli/stim_20210407_power2amp/equal_lnn_AM5.4Hz_42.m4a,,,
,,,,,38881,2021-04-22_22h07.45.620,judgeSpeechMusic_20210407_logNormShiftAmp,2020.1.2,Win32,60,,,,,,,,,,,,,,,,,,,,,,,,,,1,6.94513,,0,0,10,10,8,1,stimuli/stim_20210407_power2amp/equal_lnn_AM0.6Hz_15.m4a,,,
,,,,,38881,2021-04-22_22h07.45.620,judgeSpeechMusic_20210407_logNormShiftAmp,2020.1.2,Win32,60,,,,,,,,,,,,,,,,,,,,,,,,,,1,6.582495,,0,0,11,11,54,1,stimuli/stim_20210407_power2amp/equal_lnn_AM2.4Hz_28.m4a,,,
,,,,,38881,2021-04-22_22h07.45.620,judgeSpeechMusic_20210407_logNormShiftAmp,2020.1.2,Win32,60,,,,,,,,,,,,,,,,,,,,,,,,,,1,8.042445,,0,0,12,12,97,1,stimuli/stim_20210407_power2amp/equal_lnn_AM4.2Hz_94.m4a,,,
,,,,,38881,2021-04-22_22h07.45.620,judgeSpeechMusic_20210407_logNormShiftAmp,2020.1.2,Win32,60,,,,,,,,,,,,,,,,,,,,,,,,,,2,7.661265,,0,0,13,13,83,1,stimuli/stim_20210407_power2amp/equal_lnn_AM3.6Hz_45.m4a,,,
,,,,,38881,2021-04-22_22h07.45.620,judgeSpeechMusic_20210407_logNormShiftAmp,2020.1.2,Win32,60,,,,,,,,,,,,,,,,,,,,,,,,,,2,6.73935,,0,0,14,14,105,1,stimuli/stim_20210407_power2amp/equal_lnn_AM4.8Hz_55.m4a,,,
,,,,,38881,2021-04-22_22h07.45.620,judgeSpeechMusic_20210407_logNormShiftAmp,2020.1.2,Win32,60,,,,,,,,,,,,,,,,,,,,,,,,,,1,6.83051,,0,0,15,15,15,1,stimuli/stim_20210407_power2amp/equal_lnn_AM1.2Hz_43.m4a,,,
,,,,,38881,2021-04-22_22h07.45.620,judgeSpeechMusic_20210407_logNormShiftAmp,2020.1.2,Win32,60,,,,,,,,,,,,,,,,,,,,,,,,,,2,6.572635,,0,0,16,16,122,1,stimuli/stim_20210407_power2amp/equal_lnn_AM5.4Hz_69.m4a,,,
,,,,,38881,2021-04-22_22h07.45.620,judgeSpeechMusic_20210407_logNormShiftAmp,2020.1.2,Win32,60,,,,,,,,,,,,,,,,,,,,,,,,,,2,6.86858,,0,0,17,17,108,1,stimuli/stim_20210407_power2amp/equal_lnn_AM4.8Hz_11.m4a,,,
,,,,,38881,2021-04-22_22h07.45.620,judgeSpeechMusic_20210407_logNormShiftAmp,2020.1.2,Win32,60,,,,,,,,,,,,,,,,,,,,,,,,,,2,6.519855,,0,0,18,18,114,1,stimuli/stim_20210407_power2amp/equal_lnn_AM4.8Hz_5.m4a,,,
,,,,,38881,2021-04-22_22h07.45.620,judgeSpeechMusic_20210407_logNormShiftAmp,2020.1.2,Win32,60,,,,,,,,,,,,,,,,,,,,,,,,,,2,8.057135,,0,0,19,19,75,1,stimuli/stim_20210407_power2amp/equal_lnn_AM3.6Hz_84.m4a,,,
,,,,,38881,2021-04-22_22h07.45.620,judgeSpeechMusic_20210407_logNormShiftAmp,2020.1.2,Win32,60,,,,,,,,,,,,,,,,,,,,,,,,,,1,7.257645,,0,0,20,20,24,1,stimuli/stim_20210407_power2amp/equal_lnn_AM1.2Hz_18.m4a,,,
,,,,,38881,2021-04-22_22h07.45.620,judgeSpeechMusic_20210407_logNormShiftAmp,2020.1.2,Win32,60,,,,,,,,,,,,,,,,,,,,,,,,,,2,7.24622,,0,0,21,21,81,1,stimuli/stim_20210407_power2amp/equal_lnn_AM3.6Hz_37.m4a,,,
,,,,,38881,2021-04-22_22h07.45.620,judgeSpeechMusic_20210407_logNormShiftAmp,2020.1.2,Win32,60,,,,,,,,,,,,,,,,,,,,,,,,,,1,7.052235,,0,0,22,22,112,1,stimuli/stim_20210407_power2amp/equal_lnn_AM4.8Hz_39.m4a,,,
,,,,,38881,2021-04-22_22h07.45.620,judgeSpeechMusic_20210407_logNormShiftAmp,2020.1.2,Win32,60,,,,,,,,,,,,,,,,,,,,,,,,,,2,6.893885,,0,0,23,23,90,1,stimuli/stim_20210407_power2amp/equal_lnn_AM4.2Hz_43.m4a,,,
,,,,,38881,2021-04-22_22h07.45.620,judgeSpeechMusic_20210407_logNormShiftAmp,2020.1.2,Win32,60,,,,,,,,,,,,,,,,,,,,,,,,,,1,7.36068,,0,0,24,24,117,1,stimuli/stim_20210407_power2amp/equal_lnn_AM4.8Hz_97.m4a,,,
,,,,,38881,2021-04-22_22h07.45.620,judgeSpeechMusic_20210407_logNormShiftAmp,2020.1.2,Win32,60,,,,,,,,,,,,,,,,,,,,,,,,,,1,7.340795,,0,0,25,25,16,1,stimuli/stim_20210407_power2amp/equal_lnn_AM1.2Hz_51.m4a,,,
,,,,,38881,2021-04-22_22h07.45.620,judgeSpeechMusic_20210407_logNormShiftAmp,2020.1.2,Win32,60,,,,,,,,,,,,,,,,,,,,,,,,,,1,7.01502,,0,0,26,26,135,1,stimuli/stim_20210407_power2amp/equal_lnn_AM6Hz_57.m4a,,,
,,,,,38881,2021-04-22_22h07.45.620,judgeSpeechMusic_20210407_logNormShiftAmp,2020.1.2,Win32,60,,,,,,,,,,,,,,,,,,,,,,,,,,2,6.580555,,0,0,27,27,69,1,stimuli/stim_20210407_power2amp/equal_lnn_AM3Hz_28.m4a,,,
,,,,,38881,2021-04-22_22h07.45.620,judgeSpeechMusic_20210407_logNormShiftAmp,2020.1.2,Win32,60,,,,,,,,,,,,,,,,,,,,,,,,,,1,7.33404,,0,0,28,28,43,1,stimuli/stim_20210407_power2amp/equal_lnn_AM1.8Hz_35.m4a,,,
,,,,,38881,2021-04-22_22h07.45.620,judgeSpeechMusic_20210407_logNormShiftAmp,2020.1.2,Win32,60,,,,,,,,,,,,,,,,,,,,,,,,,,2,7.21522,,0,0,29,29,102,1,stimuli/stim_20210407_power2amp/equal_lnn_AM4.2Hz_79.m4a,,,
,,,,,38881,2021-04-22_22h07.45.620,judgeSpeechMusic_20210407_logNormShiftAmp,2020.1.2,Win32,60,,,,,,,,,,,,,,,,,,,,,,,,,,1,7.92921,,0,0,30,30,4,1,stimuli/stim_20210407_power2amp/equal_lnn_AM0.6Hz_54.m4a,,,
,,,,,38881,2021-04-22_22h07.45.620,judgeSpeechMusic_20210407_logNormShiftAmp,2020.1.2,Win32,60,,,,,,,,,,,,,,,,,,,,,,,,,,1,6.18235,,0,0,31,31,2,1,stimuli/stim_20210407_power2amp/equal_lnn_AM0.6Hz_4.m4a,,,
,,,,,38881,2021-04-22_22h07.45.620,judgeSpeechMusic_20210407_logNormShiftAmp,2020.1.2,Win32,60,,,,,,,,,,,,,,,,,,,,,,,,,,2,6.42077,,0,0,32,32,104,1,stimuli/stim_20210407_power2amp/equal_lnn_AM4.2Hz_36.m4a,,,
,,,,,38881,2021-04-22_22h07.45.620,judgeSpeechMusic_20210407_logNormShiftAmp,2020.1.2,Win32,60,,,,,,,,,,,,,,,,,,,,,,,,,,2,6.44024,,0,0,33,33,66,1,stimuli/stim_20210407_power2amp/equal_lnn_AM3Hz_81.m4a,,,
,,,,,38881,2021-04-22_22h07.45.620,judgeSpeechMusic_20210407_logNormShiftAmp,2020.1.2,Win32,60,,,,,,,,,,,,,,,,,,,,,,,,,,2,7.11179,,0,0,34,34,130,1,stimuli/stim_20210407_power2amp/equal_lnn_AM5.4Hz_11.m4a,,,
,,,,,38881,2021-04-22_22h07.45.620,judgeSpeechMusic_20210407_logNormShiftAmp,2020.1.2,Win32,60,,,,,,,,,,,,,,,,,,,,,,,,,,2,7.52254,,0,0,35,35,76,1,stimuli/stim_20210407_power2amp/equal_lnn_AM3.6Hz_73.m4a,,,
,,,,,38881,2021-04-22_22h07.45.620,judgeSpeechMusic_20210407_logNormShiftAmp,2020.1.2,Win32,60,,,,,,,,,,,,,,,,,,,,,,,,,,1,6.633905,3,1,0,36,36,34,1,stimuli/stim_20210407_power2amp/equal_lnn_AM1.8Hz_90.m4a,1.840275,,
,,,,,38881,2021-04-22_22h07.45.620,judgeSpeechMusic_20210407_logNormShiftAmp,2020.1.2,Win32,60,,,,,,,,,,,,,,,,,,,,,,,,,,2,6.647885,,0,0,37,37,67,1,stimuli/stim_20210407_power2amp/equal_lnn_AM3Hz_68.m4a,,,
,,,,,38881,2021-04-22_22h07.45.620,judgeSpeechMusic_20210407_logNormShiftAmp,2020.1.2,Win32,60,,,,,,,,,,,,,,,,,,,,,,,,,,2,6.56676,,0,0,38,38,109,1,stimuli/stim_20210407_power2amp/equal_lnn_AM4.8Hz_44.m4a,,,
,,,,,38881,2021-04-22_22h07.45.620,judgeSpeechMusic_20210407_logNormShiftAmp,2020.1.2,Win32,60,,,,,,,,,,,,,,,,,,,,,,,,,,1,7.034985,,0,0,39,39,32,1,stimuli/stim_20210407_power2amp/equal_lnn_AM1.8Hz_34.m4a,,,
,,,,,38881,2021-04-22_22h07.45.620,judgeSpeechMusic_20210407_logNormShiftAmp,2020.1.2,Win32,60,,,,,,,,,,,,,,,,,,,,,,,,,,1,6.594315,,0,0,40,40,72,1,stimuli/stim_20210407_power2amp/equal_lnn_AM3Hz_79.m4a,,,
,,,,,38881,2021-04-22_22h07.45.620,judgeSpeechMusic_20210407_logNormShiftAmp,2020.1.2,Win32,60,,,,,,,,,,,,,,,,,,,,,,,,,,1,6.52248,,0,0,41,41,127,1,stimuli/stim_20210407_power2amp/equal_lnn_AM5.4Hz_27.m4a,,,
,,,,,38881,2021-04-22_22h07.45.620,judgeSpeechMusic_20210407_logNormShiftAmp,2020.1.2,Win32,60,,,,,,,,,,,,,,,,,,,,,,,,,,1,6.724065,,0,0,42,42,33,1,stimuli/stim_20210407_power2amp/equal_lnn_AM1.8Hz_13.m4a,,,
,,,,,38881,2021-04-22_22h07.45.620,judgeSpeechMusic_20210407_logNormShiftAmp,2020.1.2,Win32,60,,,,,,,,,,,,,,,,,,,,,,,,,,1,6.546105,,0,0,43,43,56,1,stimuli/stim_20210407_power2amp/equal_lnn_AM2.4Hz_62.m4a,,,
,,,,,38881,2021-04-22_22h07.45.620,judgeSpeechMusic_20210407_logNormShiftAmp,2020.1.2,Win32,60,,,,,,,,,,,,,,,,,,,,,,,,,,1,6.140565,,0,0,44,44,40,1,stimuli/stim_20210407_power2amp/equal_lnn_AM1.8Hz_62.m4a,,,
,,,,,38881,2021-04-22_22h07.45.620,judgeSpeechMusic_20210407_logNormShiftAmp,2020.1.2,Win32,60,,,,,,,,,,,,,,,,,,,,,,,,,,1,6.325665,,0,0,45,45,45,1,stimuli/stim_20210407_power2amp/equal_lnn_AM2.4Hz_13.m4a,,,
,,,,,38881,2021-04-22_22h07.45.620,judgeSpeechMusic_20210407_logNormShiftAmp,2020.1.2,Win32,60,,,,,,,,,,,,,,,,,,,,,,,,,,1,6.07319,,0,0,46,46,140,1,stimuli/stim_20210407_power2amp/equal_lnn_AM6Hz_55.m4a,,,
,,,,,38881,2021-04-22_22h07.45.620,judgeSpeechMusic_20210407_logNormShiftAmp,2020.1.2,Win32,60,,,,,,,,,,,,,,,,,,,,,,,,,,1,6.1231,,0,0,47,47,139,1,stimuli/stim_20210407_power2amp/equal_lnn_AM6Hz_89.m4a,,,
,,,,,38881,2021-04-22_22h07.45.620,judgeSpeechMusic_20210407_logNormShiftAmp,2020.1.2,Win32,60,,,,,,,,,,,,,,,,,,,,,,,,,,1,6.223145,,0,0,48,48,115,1,stimuli/stim_20210407_power2amp/equal_lnn_AM4.8Hz_64.m4a,,,
,,,,,38881,2021-04-22_22h07.45.620,judgeSpeechMusic_20210407_logNormShiftAmp,2020.1.2,Win32,60,,,,,,,,,,,,,,,,,,,,,,,,,,1,6.408535,,0,0,49,49,136,1,stimuli/stim_20210407_power2amp/equal_lnn_AM6Hz_4.m4a,,,
,,,,,38881,2021-04-22_22h07.45.620,judgeSpeechMusic_20210407_logNormShiftAmp,2020.1.2,Win32,60,,,,,,,,,,,,,,,,,,,,,,,,,,2,6.59788,,0,0,50,50,99,1,stimuli/stim_20210407_power2amp/equal_lnn_AM4.2Hz_18.m4a,,,
,,,,,38881,2021-04-22_22h07.45.620,judgeSpeechMusic_20210407_logNormShiftAmp,2020.1.2,Win32,60,,,,,,,,,,,,,,,,,,,,,,,,,,1,7.51173,,0,0,51,51,18,1,stimuli/stim_20210407_power2amp/equal_lnn_AM1.2Hz_20.m4a,,,
,,,,,38881,2021-04-22_22h07.45.620,judgeSpeechMusic_20210407_logNormShiftAmp,2020.1.2,Win32,60,,,,,,,,,,,,,,,,,,,,,,,,,,1,7.359895,,0,0,52,52,68,1,stimuli/stim_20210407_power2amp/equal_lnn_AM3Hz_12.m4a,,,
,,,,,38881,2021-04-22_22h07.45.620,judgeSpeechMusic_20210407_logNormShiftAmp,2020.1.2,Win32,60,,,,,,,,,,,,,,,,,,,,,,,,,,1,7.161685,,0,0,53,53,17,1,stimuli/stim_20210407_power2amp/equal_lnn_AM1.2Hz_68.m4a,,,
,,,,,38881,2021-04-22_22h07.45.620,judgeSpeechMusic_20210407_logNormShiftAmp,2020.1.2,Win32,60,,,,,,,,,,,,,,,,,,,,,,,,,,2,7.690745,,0,0,54,54,82,1,stimuli/stim_20210407_power2amp/equal_lnn_AM3.6Hz_99.m4a,,,
,,,,,38881,2021-04-22_22h07.45.620,judgeSpeechMusic_20210407_logNormShiftAmp,2020.1.2,Win32,60,,,,,,,,,,,,,,,,,,,,,,,,,,2,6.834905,,0,0,55,55,110,1,stimuli/stim_20210407_power2amp/equal_lnn_AM4.8Hz_43.m4a,,,
,,,,,38881,2021-04-22_22h07.45.620,judgeSpeechMusic_20210407_logNormShiftAmp,2020.1.2,Win32,60,,,,,,,,,,,,,,,,,,,,,,,,,,1,6.453795,,0,0,56,56,58,1,stimuli/stim_20210407_power2amp/equal_lnn_AM2.4Hz_45.m4a,,,
,,,,,38881,2021-04-22_22h07.45.620,judgeSpeechMusic_20210407_logNormShiftAmp,2020.1.2,Win32,60,,,,,,,,,,,,,,,,,,,,,,,,,,1,7.395585,,0,0,57,57,28,1,stimuli/stim_20210407_power2amp/equal_lnn_AM1.2Hz_41.m4a,,,
,,,,,38881,2021-04-22_22h07.45.620,judgeSpeechMusic_20210407_logNormShiftAmp,2020.1.2,Win32,60,,,,,,,,,,,,,,,,,,,,,,,,,,1,6.30017,,0,0,58,58,14,1,stimuli/stim_20210407_power2amp/equal_lnn_AM0.6Hz_88.m4a,,,
,,,,,38881,2021-04-22_22h07.45.620,judgeSpeechMusic_20210407_logNormShiftAmp,2020.1.2,Win32,60,,,,,,,,,,,,,,,,,,,,,,,,,,1,6.89467,,0,0,59,59,39,1,stimuli/stim_20210407_power2amp/equal_lnn_AM1.8Hz_58.m4a,,,
,,,,,38881,2021-04-22_22h07.45.620,judgeSpeechMusic_20210407_logNormShiftAmp,2020.1.2,Win32,60,,,,,,,,,,,,,,,,,,,,,,,,,,2,6.25174,,0,0,60,60,78,1,stimuli/stim_20210407_power2amp/equal_lnn_AM3.6Hz_34.m4a,,,
,,,,,38881,2021-04-22_22h07.45.620,judgeSpeechMusic_20210407_logNormShiftAmp,2020.1.2,Win32,60,,,,,,,,,,,,,,,,,,,,,,,,,,1,6.41085,2,1,0,61,61,30,1,stimuli/stim_20210407_power2amp/equal_lnn_AM1.8Hz_59.m4a,1.51031,,
,,,,,38881,2021-04-22_22h07.45.620,judgeSpeechMusic_20210407_logNormShiftAmp,2020.1.2,Win32,60,,,,,,,,,,,,,,,,,,,,,,,,,,2,7.57272,,0,0,62,62,95,1,stimuli/stim_20210407_power2amp/equal_lnn_AM4.2Hz_56.m4a,,,
,,,,,38881,2021-04-22_22h07.45.620,judgeSpeechMusic_20210407_logNormShiftAmp,2020.1.2,Win32,60,,,,,,,,,,,,,,,,,,,,,,,,,,2,7.606115,,0,0,63,63,84,1,stimuli/stim_20210407_power2amp/equal_lnn_AM3.6Hz_66.m4a,,,
,,,,,38881,2021-04-22_22h07.45.620,judgeSpeechMusic_20210407_logNormShiftAmp,2020.1.2,Win32,60,,,,,,,,,,,,,,,,,,,,,,,,,,2,6.58321,,0,0,64,64,120,1,stimuli/stim_20210407_power2amp/equal_lnn_AM5.4Hz_48.m4a,,,
,,,,,38881,2021-04-22_22h07.45.620,judgeSpeechMusic_20210407_logNormShiftAmp,2020.1.2,Win32,60,,,,,,,,,,,,,,,,,,,,,,,,,,2,7.00594,,0,0,65,65,128,1,stimuli/stim_20210407_power2amp/equal_lnn_AM5.4Hz_65.m4a,,,
,,,,,38881,2021-04-22_22h07.45.620,judgeSpeechMusic_20210407_logNormShiftAmp,2020.1.2,Win32,60,,,,,,,,,,,,,,,,,,,,,,,,,,2,6.58378,,0,0,66,66,93,1,stimuli/stim_20210407_power2amp/equal_lnn_AM4.2Hz_16.m4a,,,
,,,,,38881,2021-04-22_22h07.45.620,judgeSpeechMusic_20210407_logNormShiftAmp,2020.1.2,Win32,60,,,,,,,,,,,,,,,,,,,,,,,,,,2,6.50525,,0,0,67,67,80,1,stimuli/stim_20210407_power2amp/equal_lnn_AM3.6Hz_42.m4a,,,
,,,,,38881,2021-04-22_22h07.45.620,judgeSpeechMusic_20210407_logNormShiftAmp,2020.1.2,Win32,60,,,,,,,,,,,,,,,,,,,,,,,,,,1,6.581075,,0,0,68,68,44,1,stimuli/stim_20210407_power2amp/equal_lnn_AM1.8Hz_19.m4a,,,
,,,,,38881,2021-04-22_22h07.45.620,judgeSpeechMusic_20210407_logNormShiftAmp,2020.1.2,Win32,60,,,,,,,,,,,,,,,,,,,,,,,,,,2,6.425815,,0,0,69,69,147,1,stimuli/stim_20210407_power2amp/equal_lnn_AM6Hz_63.m4a,,,
,,,,,38881,2021-04-22_22h07.45.620,judgeSpeechMusic_20210407_logNormShiftAmp,2020.1.2,Win32,60,,,,,,,,,,,,,,,,,,,,,,,,,,2,6.31615,,0,0,70,70,149,1,stimuli/stim_20210407_power2amp/equal_lnn_AM6Hz_47.m4a,,,
,,,,,38881,2021-04-22_22h07.45.620,judgeSpeechMusic_20210407_logNormShiftAmp,2020.1.2,Win32,60,,,,,,,,,,,,,,,,,,,,,,,,,,2,6.424095,,0,0,71,71,132,1,stimuli/stim_20210407_power2amp/equal_lnn_AM5.4Hz_18.m4a,,,
,,,,,38881,2021-04-22_22h07.45.620,judgeSpeechMusic_20210407_logNormShiftAmp,2020.1.2,Win32,60,,,,,,,,,,,,,,,,,,,,,,,,,,1,6.35588,,0,0,72,72,74,1,stimuli/stim_20210407_power2amp/equal_lnn_AM3Hz_39.m4a,,,
,,,,,38881,2021-04-22_22h07.45.620,judgeSpeechMusic_20210407_logNormShiftAmp,2020.1.2,Win32,60,,,,,,,,,,,,,,,,,,,,,,,,,,2,6.3773,,0,0,73,73,85,1,stimuli/stim_20210407_power2amp/equal_lnn_AM3.6Hz_56.m4a,,,
,,,,,38881,2021-04-22_22h07.45.620,judgeSpeechMusic_20210407_logNormShiftAmp,2020.1.2,Win32,60,,,,,,,,,,,,,,,,,,,,,,,,,,2,6.37326,,0,0,74,74,126,1,stimuli/stim_20210407_power2amp/equal_lnn_AM5.4Hz_19.m4a,,,
,,,,,38881,2021-04-22_22h07.45.620,judgeSpeechMusic_20210407_logNormShiftAmp,2020.1.2,Win32,60,,,,,,,,,,,,,,,,,,,,,,,,,,1,6.65934,,0,0,75,75,38,1,stimuli/stim_20210407_power2amp/equal_lnn_AM1.8Hz_29.m4a,,,
,,,,,38881,2021-04-22_22h07.45.620,judgeSpeechMusic_20210407_logNormShiftAmp,2020.1.2,Win32,60,,,,,,,,,,,,,,,,,,,,,,,,,,1,7.2737,,0,0,76,76,23,1,stimuli/stim_20210407_power2amp/equal_lnn_AM1.2Hz_64.m4a,,,
,,,,,38881,2021-04-22_22h07.45.620,judgeSpeechMusic_20210407_logNormShiftAmp,2020.1.2,Win32,60,,,,,,,,,,,,,,,,,,,,,,,,,,1,6.741635,,0,0,77,77,52,1,stimuli/stim_20210407_power2amp/equal_lnn_AM2.4Hz_6.m4a,,,
,,,,,38881,2021-04-22_22h07.45.620,judgeSpeechMusic_20210407_logNormShiftAmp,2020.1.2,Win32,60,,,,,,,,,,,,,,,,,,,,,,,,,,1,6.5407,,0,0,78,78,53,1,stimuli/stim_20210407_power2amp/equal_lnn_AM2.4Hz_27.m4a,,,
,,,,,38881,2021-04-22_22h07.45.620,judgeSpeechMusic_20210407_logNormShiftAmp,2020.1.2,Win32,60,,,,,,,,,,,,,,,,,,,,,,,,,,1,6.33167,,0,0,79,79,13,1,stimuli/stim_20210407_power2amp/equal_lnn_AM0.6Hz_97.m4a,,,
,,,,,38881,2021-04-22_22h07.45.620,judgeSpeechMusic_20210407_logNormShiftAmp,2020.1.2,Win32,60,,,,,,,,,,,,,,,,,,,,,,,,,,1,10.02822,,0,0,80,80,1,1,stimuli/stim_20210407_power2amp/equal_lnn_AM0.6Hz_91.m4a,,,
,,,,,38881,2021-04-22_22h07.45.620,judgeSpeechMusic_20210407_logNormShiftAmp,2020.1.2,Win32,60,,,,,,,,,,,,,,,,,,,,,,,,,,2,7.40204,,0,0,81,81,92,1,stimuli/stim_20210407_power2amp/equal_lnn_AM4.2Hz_54.m4a,,,
,,,,,38881,2021-04-22_22h07.45.620,judgeSpeechMusic_20210407_logNormShiftAmp,2020.1.2,Win32,60,,,,,,,,,,,,,,,,,,,,,,,,,,2,6.062275,1,1,0,82,82,70,1,stimuli/stim_20210407_power2amp/equal_lnn_AM3Hz_70.m4a,1.7336,,
,,,,,38881,2021-04-22_22h07.45.620,judgeSpeechMusic_20210407_logNormShiftAmp,2020.1.2,Win32,60,,,,,,,,,,,,,,,,,,,,,,,,,,2,6.993715,,0,0,83,83,31,1,stimuli/stim_20210407_power2amp/equal_lnn_AM1.8Hz_9.m4a,,,
,,,,,38881,2021-04-22_22h07.45.620,judgeSpeechMusic_20210407_logNormShiftAmp,2020.1.2,Win32,60,,,,,,,,,,,,,,,,,,,,,,,,,,1,6.960515,,0,0,84,84,111,1,stimuli/stim_20210407_power2amp/equal_lnn_AM4.8Hz_57.m4a,,,
,,,,,38881,2021-04-22_22h07.45.620,judgeSpeechMusic_20210407_logNormShiftAmp,2020.1.2,Win32,60,,,,,,,,,,,,,,,,,,,,,,,,,,1,6.525735,,0,0,85,85,137,1,stimuli/stim_20210407_power2amp/equal_lnn_AM6Hz_96.m4a,,,
,,,,,38881,2021-04-22_22h07.45.620,judgeSpeechMusic_20210407_logNormShiftAmp,2020.1.2,Win32,60,,,,,,,,,,,,,,,,,,,,,,,,,,1,6.059265,,0,0,86,86,0,1,stimuli/stim_20210407_power2amp/equal_lnn_AM0.6Hz_34.m4a,,,
,,,,,38881,2021-04-22_22h07.45.620,judgeSpeechMusic_20210407_logNormShiftAmp,2020.1.2,Win32,60,,,,,,,,,,,,,,,,,,,,,,,,,,2,7.09288,,0,0,87,87,98,1,stimuli/stim_20210407_power2amp/equal_lnn_AM4.2Hz_22.m4a,,,
,,,,,38881,2021-04-22_22h07.45.620,judgeSpeechMusic_20210407_logNormShiftAmp,2020.1.2,Win32,60,,,,,,,,,,,,,,,,,,,,,,,,,,2,8.215275,,0,0,88,88,48,1,stimuli/stim_20210407_power2amp/equal_lnn_AM2.4Hz_40.m4a,,,
,,,,,38881,2021-04-22_22h07.45.620,judgeSpeechMusic_20210407_logNormShiftAmp,2020.1.2,Win32,60,,,,,,,,,,,,,,,,,,,,,,,,,,2,6.676525,,0,0,89,89,142,1,stimuli/stim_20210407_power2amp/equal_lnn_AM6Hz_85.m4a,,,
,,,,,38881,2021-04-22_22h07.45.620,judgeSpeechMusic_20210407_logNormShiftAmp,2020.1.2,Win32,60,,,,,,,,,,,,,,,,,,,,,,,,,,2,6.42591,,0,0,90,90,77,1,stimuli/stim_20210407_power2amp/equal_lnn_AM3.6Hz_6.m4a,,,
,,,,,38881,2021-04-22_22h07.45.620,judgeSpeechMusic_20210407_logNormShiftAmp,2020.1.2,Win32,60,,,,,,,,,,,,,,,,,,,,,,,,,,2,6.427635,,0,0,91,91,89,1,stimuli/stim_20210407_power2amp/equal_lnn_AM3.6Hz_59.m4a,,,
,,,,,38881,2021-04-22_22h07.45.620,judgeSpeechMusic_20210407_logNormShiftAmp,2020.1.2,Win32,60,,,,,,,,,,,,,,,,,,,,,,,,,,1,6.8068,,0,0,92,92,3,1,stimuli/stim_20210407_power2amp/equal_lnn_AM0.6Hz_1.m4a,,,
,,,,,38881,2021-04-22_22h07.45.620,judgeSpeechMusic_20210407_logNormShiftAmp,2020.1.2,Win32,60,,,,,,,,,,,,,,,,,,,,,,,,,,2,6.69225,,0,0,93,93,62,1,stimuli/stim_20210407_power2amp/equal_lnn_AM3Hz_21.m4a,,,
,,,,,38881,2021-04-22_22h07.45.620,judgeSpeechMusic_20210407_logNormShiftAmp,2020.1.2,Win32,60,,,,,,,,,,,,,,,,,,,,,,,,,,1,6.635285,,0,0,94,94,22,1,stimuli/stim_20210407_power2amp/equal_lnn_AM1.2Hz_80.m4a,,,
,,,,,38881,2021-04-22_22h07.45.620,judgeSpeechMusic_20210407_logNormShiftAmp,2020.1.2,Win32,60,,,,,,,,,,,,,,,,,,,,,,,,,,2,6.476015,,0,0,95,95,64,1,stimuli/stim_20210407_power2amp/equal_lnn_AM3Hz_37.m4a,,,
,,,,,38881,2021-04-22_22h07.45.620,judgeSpeechMusic_20210407_logNormShiftAmp,2020.1.2,Win32,60,,,,,,,,,,,,,,,,,,,,,,,,,,1,6.98362,,0,0,96,96,10,1,stimuli/stim_20210407_power2amp/equal_lnn_AM0.6Hz_52.m4a,,,
,,,,,38881,2021-04-22_22h07.45.620,judgeSpeechMusic_20210407_logNormShiftAmp,2020.1.2,Win32,60,,,,,,,,,,,,,,,,,,,,,,,,,,1,7.14158,,0,0,97,97,27,1,stimuli/stim_20210407_power2amp/equal_lnn_AM1.2Hz_14.m4a,,,
,,,,,38881,2021-04-22_22h07.45.620,judgeSpeechMusic_20210407_logNormShiftAmp,2020.1.2,Win32,60,,,,,,,,,,,,,,,,,,,,,,,,,,1,7.32752,,0,0,98,98,46,1,stimuli/stim_20210407_power2amp/equal_lnn_AM2.4Hz_68.m4a,,,
,,,,,38881,2021-04-22_22h07.45.620,judgeSpeechMusic_20210407_logNormShiftAmp,2020.1.2,Win32,60,,,,,,,,,,,,,,,,,,,,,,,,,,1,6.70828,,0,0,99,99,141,1,stimuli/stim_20210407_power2amp/equal_lnn_AM6Hz_98.m4a,,,
,,,,,38881,2021-04-22_22h07.45.620,judgeSpeechMusic_20210407_logNormShiftAmp,2020.1.2,Win32,60,,,,,,,,,,,,,,,,,,,,,,,,,,2,6.600355,,0,0,100,100,129,1,stimuli/stim_20210407_power2amp/equal_lnn_AM5.4Hz_47.m4a,,,
,,,,,38881,2021-04-22_22h07.45.620,judgeSpeechMusic_20210407_logNormShiftAmp,2020.1.2,Win32,60,,,,,,,,,,,,,,,,,,,,,,,,,,2,6.510135,,0,0,101,101,94,1,stimuli/stim_20210407_power2amp/equal_lnn_AM4.2Hz_48.m4a,,,
,,,,,38881,2021-04-22_22h07.45.620,judgeSpeechMusic_20210407_logNormShiftAmp,2020.1.2,Win32,60,,,,,,,,,,,,,,,,,,,,,,,,,,2,8.83502,,0,0,102,102,143,1,stimuli/stim_20210407_power2amp/equal_lnn_AM6Hz_95.m4a,,,
,,,,,38881,2021-04-22_22h07.45.620,judgeSpeechMusic_20210407_logNormShiftAmp,2020.1.2,Win32,60,,,,,,,,,,,,,,,,,,,,,,,,,,2,6.642785,,0,0,103,103,73,1,stimuli/stim_20210407_power2amp/equal_lnn_AM3Hz_29.m4a,,,
,,,,,38881,2021-04-22_22h07.45.620,judgeSpeechMusic_20210407_logNormShiftAmp,2020.1.2,Win32,60,,,,,,,,,,,,,,,,,,,,,,,,,,1,7.4199,,0,0,104,104,50,1,stimuli/stim_20210407_power2amp/equal_lnn_AM2.4Hz_73.m4a,,,
,,,,,38881,2021-04-22_22h07.45.620,judgeSpeechMusic_20210407_logNormShiftAmp,2020.1.2,Win32,60,,,,,,,,,,,,,,,,,,,,,,,,,,2,7.960715,2,1,0,105,105,79,1,stimuli/stim_20210407_power2amp/equal_lnn_AM3.6Hz_26.m4a,1.47408,,
,,,,,38881,2021-04-22_22h07.45.620,judgeSpeechMusic_20210407_logNormShiftAmp,2020.1.2,Win32,60,,,,,,,,,,,,,,,,,,,,,,,,,,1,8.793935,,0,0,106,106,146,1,stimuli/stim_20210407_power2amp/equal_lnn_AM6Hz_48.m4a,,,
,,,,,38881,2021-04-22_22h07.45.620,judgeSpeechMusic_20210407_logNormShiftAmp,2020.1.2,Win32,60,,,,,,,,,,,,,,,,,,,,,,,,,,2,7.394935,,0,0,107,107,88,1,stimuli/stim_20210407_power2amp/equal_lnn_AM3.6Hz_78.m4a,,,
,,,,,38881,2021-04-22_22h07.45.620,judgeSpeechMusic_20210407_logNormShiftAmp,2020.1.2,Win32,60,,,,,,,,,,,,,,,,,,,,,,,,,,1,6.63204,,0,0,108,108,55,1,stimuli/stim_20210407_power2amp/equal_lnn_AM2.4Hz_63.m4a,,,
,,,,,38881,2021-04-22_22h07.45.620,judgeSpeechMusic_20210407_logNormShiftAmp,2020.1.2,Win32,60,,,,,,,,,,,,,,,,,,,,,,,,,,2,7.5103,,0,0,109,109,86,1,stimuli/stim_20210407_power2amp/equal_lnn_AM3.6Hz_50.m4a,,,
,,,,,38881,2021-04-22_22h07.45.620,judgeSpeechMusic_20210407_logNormShiftAmp,2020.1.2,Win32,60,,,,,,,,,,,,,,,,,,,,,,,,,,2,6.41006,,0,0,110,110,60,1,stimuli/stim_20210407_power2amp/equal_lnn_AM3Hz_23.m4a,,,
,,,,,38881,2021-04-22_22h07.45.620,judgeSpeechMusic_20210407_logNormShiftAmp,2020.1.2,Win32,60,,,,,,,,,,,,,,,,,,,,,,,,,,2,7.025475,,0,0,111,111,103,1,stimuli/stim_20210407_power2amp/equal_lnn_AM4.2Hz_60.m4a,,,
,,,,,38881,2021-04-22_22h07.45.620,judgeSpeechMusic_20210407_logNormShiftAmp,2020.1.2,Win32,60,,,,,,,,,,,,,,,,,,,,,,,,,,2,6.782385,,0,0,112,112,106,1,stimuli/stim_20210407_power2amp/equal_lnn_AM4.8Hz_83.m4a,,,
,,,,,38881,2021-04-22_22h07.45.620,judgeSpeechMusic_20210407_logNormShiftAmp,2020.1.2,Win32,60,,,,,,,,,,,,,,,,,,,,,,,,,,2,6.98524,,0,0,113,113,96,1,stimuli/stim_20210407_power2amp/equal_lnn_AM4.2Hz_9.m4a,,,
,,,,,38881,2021-04-22_22h07.45.620,judgeSpeechMusic_20210407_logNormShiftAmp,2020.1.2,Win32,60,,,,,,,,,,,,,,,,,,,,,,,,,,2,8.516135,,0,0,114,114,138,1,stimuli/stim_20210407_power2amp/equal_lnn_AM6Hz_92.m4a,,,
,,,,,38881,2021-04-22_22h07.45.620,judgeSpeechMusic_20210407_logNormShiftAmp,2020.1.2,Win32,60,,,,,,,,,,,,,,,,,,,,,,,,,,2,6.993115,,0,0,115,115,101,1,stimuli/stim_20210407_power2amp/equal_lnn_AM4.2Hz_24.m4a,,,
,,,,,38881,2021-04-22_22h07.45.620,judgeSpeechMusic_20210407_logNormShiftAmp,2020.1.2,Win32,60,,,,,,,,,,,,,,,,,,,,,,,,,,1,7.06931,,0,0,116,116,37,1,stimuli/stim_20210407_power2amp/equal_lnn_AM1.8Hz_55.m4a,,,
,,,,,38881,2021-04-22_22h07.45.620,judgeSpeechMusic_20210407_logNormShiftAmp,2020.1.2,Win32,60,,,,,,,,,,,,,,,,,,,,,,,,,,1,8.636195,,0,0,117,117,35,1,stimuli/stim_20210407_power2amp/equal_lnn_AM1.8Hz_52.m4a,,,
,,,,,38881,2021-04-22_22h07.45.620,judgeSpeechMusic_20210407_logNormShiftAmp,2020.1.2,Win32,60,,,,,,,,,,,,,,,,,,,,,,,,,,1,6.975945,,0,0,118,118,5,1,stimuli/stim_20210407_power2amp/equal_lnn_AM0.6Hz_68.m4a,,,
,,,,,38881,2021-04-22_22h07.45.620,judgeSpeechMusic_20210407_logNormShiftAmp,2020.1.2,Win32,60,,,,,,,,,,,,,,,,,,,,,,,,,,1,6.25249,,0,0,119,119,6,1,stimuli/stim_20210407_power2amp/equal_lnn_AM0.6Hz_95.m4a,,,
,,,,,38881,2021-04-22_22h07.45.620,judgeSpeechMusic_20210407_logNormShiftAmp,2020.1.2,Win32,60,,,,,,,,,,,,,,,,,,,,,,,,,,2,9.07522,,0,0,120,120,71,1,stimuli/stim_20210407_power2amp/equal_lnn_AM3Hz_32.m4a,,,
,,,,,38881,2021-04-22_22h07.45.620,judgeSpeechMusic_20210407_logNormShiftAmp,2020.1.2,Win32,60,,,,,,,,,,,,,,,,,,,,,,,,,,1,6.54254,,0,0,121,121,49,1,stimuli/stim_20210407_power2amp/equal_lnn_AM2.4Hz_41.m4a,,,
,,,,,38881,2021-04-22_22h07.45.620,judgeSpeechMusic_20210407_logNormShiftAmp,2020.1.2,Win32,60,,,,,,,,,,,,,,,,,,,,,,,,,,1,14.93206,,0,0,122,122,19,1,stimuli/stim_20210407_power2amp/equal_lnn_AM1.2Hz_96.m4a,,,
,,,,,38881,2021-04-22_22h07.45.620,judgeSpeechMusic_20210407_logNormShiftAmp,2020.1.2,Win32,60,,,,,,,,,,,,,,,,,,,,,,,,,,2,15.37328,,0,0,123,123,107,1,stimuli/stim_20210407_power2amp/equal_lnn_AM4.8Hz_10.m4a,,,
,,,,,38881,2021-04-22_22h07.45.620,judgeSpeechMusic_20210407_logNormShiftAmp,2020.1.2,Win32,60,,,,,,,,,,,,,,,,,,,,,,,,,,2,7.3934,,0,0,124,124,118,1,stimuli/stim_20210407_power2amp/equal_lnn_AM4.8Hz_94.m4a,,,
,,,,,38881,2021-04-22_22h07.45.620,judgeSpeechMusic_20210407_logNormShiftAmp,2020.1.2,Win32,60,,,,,,,,,,,,,,,,,,,,,,,,,,2,7.933085,,0,0,125,125,59,1,stimuli/stim_20210407_power2amp/equal_lnn_AM2.4Hz_50.m4a,,,
,,,,,38881,2021-04-22_22h07.45.620,judgeSpeechMusic_20210407_logNormShiftAmp,2020.1.2,Win32,60,,,,,,,,,,,,,,,,,,,,,,,,,,1,7.64566,,0,0,126,126,29,1,stimuli/stim_20210407_power2amp/equal_lnn_AM1.2Hz_72.m4a,,,
,,,,,38881,2021-04-22_22h07.45.620,judgeSpeechMusic_20210407_logNormShiftAmp,2020.1.2,Win32,60,,,,,,,,,,,,,,,,,,,,,,,,,,2,8.376665,3,1,0,127,127,113,1,stimuli/stim_20210407_power2amp/equal_lnn_AM4.8Hz_12.m4a,3.17567,,
,,,,,38881,2021-04-22_22h07.45.620,judgeSpeechMusic_20210407_logNormShiftAmp,2020.1.2,Win32,60,,,,,,,,,,,,,,,,,,,,,,,,,,2,12.041915,,0,0,128,128,123,1,stimuli/stim_20210407_power2amp/equal_lnn_AM5.4Hz_2.m4a,,,
,,,,,38881,2021-04-22_22h07.45.620,judgeSpeechMusic_20210407_logNormShiftAmp,2020.1.2,Win32,60,,,,,,,,,,,,,,,,,,,,,,,,,,2,8.43196,,0,0,129,129,100,1,stimuli/stim_20210407_power2amp/equal_lnn_AM4.2Hz_25.m4a,,,
,,,,,38881,2021-04-22_22h07.45.620,judgeSpeechMusic_20210407_logNormShiftAmp,2020.1.2,Win32,60,,,,,,,,,,,,,,,,,,,,,,,,,,1,6.807535,,0,0,130,130,41,1,stimuli/stim_20210407_power2amp/equal_lnn_AM1.8Hz_36.m4a,,,
,,,,,38881,2021-04-22_22h07.45.620,judgeSpeechMusic_20210407_logNormShiftAmp,2020.1.2,Win32,60,,,,,,,,,,,,,,,,,,,,,,,,,,2,8.18873,,0,0,131,131,51,1,stimuli/stim_20210407_power2amp/equal_lnn_AM2.4Hz_60.m4a,,,
,,,,,38881,2021-04-22_22h07.45.620,judgeSpeechMusic_20210407_logNormShiftAmp,2020.1.2,Win32,60,,,,,,,,,,,,,,,,,,,,,,,,,,2,10.1098,,0,0,132,132,61,1,stimuli/stim_20210407_power2amp/equal_lnn_AM3Hz_45.m4a,,,
,,,,,38881,2021-04-22_22h07.45.620,judgeSpeechMusic_20210407_logNormShiftAmp,2020.1.2,Win32,60,,,,,,,,,,,,,,,,,,,,,,,,,,2,7.810495,,0,0,133,133,124,1,stimuli/stim_20210407_power2amp/equal_lnn_AM5.4Hz_3.m4a,,,
,,,,,38881,2021-04-22_22h07.45.620,judgeSpeechMusic_20210407_logNormShiftAmp,2020.1.2,Win32,60,,,,,,,,,,,,,,,,,,,,,,,,,,2,47.83151,,0,0,134,134,20,1,stimuli/stim_20210407_power2amp/equal_lnn_AM1.2Hz_76.m4a,,,
,,,,,38881,2021-04-22_22h07.45.620,judgeSpeechMusic_20210407_logNormShiftAmp,2020.1.2,Win32,60,,,,,,,,,,,,,,,,,,,,,,,,,,1,6.997205,,0,0,135,135,11,1,stimuli/stim_20210407_power2amp/equal_lnn_AM0.6Hz_67.m4a,,,
,,,,,38881,2021-04-22_22h07.45.620,judgeSpeechMusic_20210407_logNormShiftAmp,2020.1.2,Win32,60,,,,,,,,,,,,,,,,,,,,,,,,,,2,8.79484,,0,0,136,136,144,1,stimuli/stim_20210407_power2amp/equal_lnn_AM6Hz_37.m4a,,,
,,,,,38881,2021-04-22_22h07.45.620,judgeSpeechMusic_20210407_logNormShiftAmp,2020.1.2,Win32,60,,,,,,,,,,,,,,,,,,,,,,,,,,2,8.05611,,0,0,137,137,119,1,stimuli/stim_20210407_power2amp/equal_lnn_AM4.8Hz_67.m4a,,,
,,,,,38881,2021-04-22_22h07.45.620,judgeSpeechMusic_20210407_logNormShiftAmp,2020.1.2,Win32,60,,,,,,,,,,,,,,,,,,,,,,,,,,2,6.211125,,0,0,138,138,131,1,stimuli/stim_20210407_power2amp/equal_lnn_AM5.4Hz_58.m4a,,,
,,,,,38881,2021-04-22_22h07.45.620,judgeSpeechMusic_20210407_logNormShiftAmp,2020.1.2,Win32,60,,,,,,,,,,,,,,,,,,,,,,,,,,2,7.877335,,0,0,139,139,134,1,stimuli/stim_20210407_power2amp/equal_lnn_AM5.4Hz_34.m4a,,,
,,,,,38881,2021-04-22_22h07.45.620,judgeSpeechMusic_20210407_logNormShiftAmp,2020.1.2,Win32,60,,,,,,,,,,,,,,,,,,,,,,,,,,2,7.497115,,0,0,140,140,148,1,stimuli/stim_20210407_power2amp/equal_lnn_AM6Hz_53.m4a,,,
,,,,,38881,2021-04-22_22h07.45.620,judgeSpeechMusic_20210407_logNormShiftAmp,2020.1.2,Win32,60,,,,,,,,,,,,,,,,,,,,,,,,,,2,7.860415,,0,0,141,141,87,1,stimuli/stim_20210407_power2amp/equal_lnn_AM3.6Hz_87.m4a,,,
,,,,,38881,2021-04-22_22h07.45.620,judgeSpeechMusic_20210407_logNormShiftAmp,2020.1.2,Win32,60,,,,,,,,,,,,,,,,,,,,,,,,,,1,7.226465,,0,0,142,142,7,1,stimuli/stim_20210407_power2amp/equal_lnn_AM0.6Hz_43.m4a,,,
,,,,,38881,2021-04-22_22h07.45.620,judgeSpeechMusic_20210407_logNormShiftAmp,2020.1.2,Win32,60,,,,,,,,,,,,,,,,,,,,,,,,,,2,12.156175,,0,0,143,143,42,1,stimuli/stim_20210407_power2amp/equal_lnn_AM1.8Hz_54.m4a,,,
,,,,,38881,2021-04-22_22h07.45.620,judgeSpeechMusic_20210407_logNormShiftAmp,2020.1.2,Win32,60,,,,,,,,,,,,,,,,,,,,,,,,,,2,37.62039,,0,0,144,144,125,1,stimuli/stim_20210407_power2amp/equal_lnn_AM5.4Hz_63.m4a,,,
,,,,,38881,2021-04-22_22h07.45.620,judgeSpeechMusic_20210407_logNormShiftAmp,2020.1.2,Win32,60,,,,,,,,,,,,,,,,,,,,,,,,,,1,7.80117,,0,0,145,145,12,1,stimuli/stim_20210407_power2amp/equal_lnn_AM0.6Hz_10.m4a,,,
,,,,,38881,2021-04-22_22h07.45.620,judgeSpeechMusic_20210407_logNormShiftAmp,2020.1.2,Win32,60,,,,,,,,,,,,,,,,,,,,,,,,,,1,6.85669,,0,0,146,146,26,1,stimuli/stim_20210407_power2amp/equal_lnn_AM1.2Hz_74.m4a,,,
,,,,,38881,2021-04-22_22h07.45.620,judgeSpeechMusic_20210407_logNormShiftAmp,2020.1.2,Win32,60,,,,,,,,,,,,,,,,,,,,,,,,,,2,6.597375,,0,0,147,147,91,1,stimuli/stim_20210407_power2amp/equal_lnn_AM4.2Hz_98.m4a,,,
,,,,,38881,2021-04-22_22h07.45.620,judgeSpeechMusic_20210407_logNormShiftAmp,2020.1.2,Win32,60,,,,,,,,,,,,,,,,,,,,,,,,,,2,6.70185,3,1,0,148,148,121,1,stimuli/stim_20210407_power2amp/equal_lnn_AM5.4Hz_35.m4a,1.72452,,
,,,,,38881,2021-04-22_22h07.45.620,judgeSpeechMusic_20210407_logNormShiftAmp,2020.1.2,Win32,60,,,,,,,,,,,,,,,,,,,,,,,,,,2,58.561505,,0,0,149,149,65,1,stimuli/stim_20210407_power2amp/equal_lnn_AM3Hz_63.m4a,,,
,,,,,38881,2021-04-22_22h07.45.620,judgeSpeechMusic_20210407_logNormShiftAmp,2020.1.2,Win32,60,,,,,,,,,,,,,,,,,,,,,,,,,,1,6.876015,,0,1,0,150,0,1,stimuli/stim_20210407_power2amp/equal_lnn_AM0.6Hz_34.m4a,,,
,,,,,38881,2021-04-22_22h07.45.620,judgeSpeechMusic_20210407_logNormShiftAmp,2020.1.2,Win32,60,,,,,,,,,,,,,,,,,,,,,,,,,,2,6.79794,,0,1,1,151,118,1,stimuli/stim_20210407_power2amp/equal_lnn_AM4.8Hz_94.m4a,,,
,,,,,38881,2021-04-22_22h07.45.620,judgeSpeechMusic_20210407_logNormShiftAmp,2020.1.2,Win32,60,,,,,,,,,,,,,,,,,,,,,,,,,,2,6.74296,,0,1,2,152,100,1,stimuli/stim_20210407_power2amp/equal_lnn_AM4.2Hz_25.m4a,,,
,,,,,38881,2021-04-22_22h07.45.620,judgeSpeechMusic_20210407_logNormShiftAmp,2020.1.2,Win32,60,,,,,,,,,,,,,,,,,,,,,,,,,,1,6.25704,,0,1,3,153,37,1,stimuli/stim_20210407_power2amp/equal_lnn_AM1.8Hz_55.m4a,,,
,,,,,38881,2021-04-22_22h07.45.620,judgeSpeechMusic_20210407_logNormShiftAmp,2020.1.2,Win32,60,,,,,,,,,,,,,,,,,,,,,,,,,,1,6.443115,,0,1,4,154,19,1,stimuli/stim_20210407_power2amp/equal_lnn_AM1.2Hz_96.m4a,,,
,,,,,38881,2021-04-22_22h07.45.620,judgeSpeechMusic_20210407_logNormShiftAmp,2020.1.2,Win32,60,,,,,,,,,,,,,,,,,,,,,,,,,,2,7.54866,,0,1,5,155,64,1,stimuli/stim_20210407_power2amp/equal_lnn_AM3Hz_37.m4a,,,
,,,,,38881,2021-04-22_22h07.45.620,judgeSpeechMusic_20210407_logNormShiftAmp,2020.1.2,Win32,60,,,,,,,,,,,,,,,,,,,,,,,,,,2,6.134905,,0,1,6,156,113,1,stimuli/stim_20210407_power2amp/equal_lnn_AM4.8Hz_12.m4a,,,
,,,,,38881,2021-04-22_22h07.45.620,judgeSpeechMusic_20210407_logNormShiftAmp,2020.1.2,Win32,60,,,,,,,,,,,,,,,,,,,,,,,,,,1,6.341975,,0,1,7,157,10,1,stimuli/stim_20210407_power2amp/equal_lnn_AM0.6Hz_52.m4a,,,
,,,,,38881,2021-04-22_22h07.45.620,judgeSpeechMusic_20210407_logNormShiftAmp,2020.1.2,Win32,60,,,,,,,,,,,,,,,,,,,,,,,,,,1,6.0498,,0,1,8,158,9,1,stimuli/stim_20210407_power2amp/equal_lnn_AM0.6Hz_17.m4a,,,
,,,,,38881,2021-04-22_22h07.45.620,judgeSpeechMusic_20210407_logNormShiftAmp,2020.1.2,Win32,60,,,,,,,,,,,,,,,,,,,,,,,,,,1,5.88549,,0,1,9,159,5,1,stimuli/stim_20210407_power2amp/equal_lnn_AM0.6Hz_68.m4a,,,
,,,,,38881,2021-04-22_22h07.45.620,judgeSpeechMusic_20210407_logNormShiftAmp,2020.1.2,Win32,60,,,,,,,,,,,,,,,,,,,,,,,,,,1,6.42674,,0,1,10,160,14,1,stimuli/stim_20210407_power2amp/equal_lnn_AM0.6Hz_88.m4a,,,
,,,,,38881,2021-04-22_22h07.45.620,judgeSpeechMusic_20210407_logNormShiftAmp,2020.1.2,Win32,60,,,,,,,,,,,,,,,,,,,,,,,,,,2,6.598735,,0,1,11,161,104,1,stimuli/stim_20210407_power2amp/equal_lnn_AM4.2Hz_36.m4a,,,
,,,,,38881,2021-04-22_22h07.45.620,judgeSpeechMusic_20210407_logNormShiftAmp,2020.1.2,Win32,60,,,,,,,,,,,,,,,,,,,,,,,,,,1,6.69492,,0,1,12,162,7,1,stimuli/stim_20210407_power2amp/equal_lnn_AM0.6Hz_43.m4a,,,
,,,,,38881,2021-04-22_22h07.45.620,judgeSpeechMusic_20210407_logNormShiftAmp,2020.1.2,Win32,60,,,,,,,,,,,,,,,,,,,,,,,,,,2,7.158545,,0,1,13,163,62,1,stimuli/stim_20210407_power2amp/equal_lnn_AM3Hz_21.m4a,,,
,,,,,38881,2021-04-22_22h07.45.620,judgeSpeechMusic_20210407_logNormShiftAmp,2020.1.2,Win32,60,,,,,,,,,,,,,,,,,,,,,,,,,,2,6.375595,,0,1,14,164,119,1,stimuli/stim_20210407_power2amp/equal_lnn_AM4.8Hz_67.m4a,,,
,,,,,38881,2021-04-22_22h07.45.620,judgeSpeechMusic_20210407_logNormShiftAmp,2020.1.2,Win32,60,,,,,,,,,,,,,,,,,,,,,,,,,,2,6.685545,,0,1,15,165,106,1,stimuli/stim_20210407_power2amp/equal_lnn_AM4.8Hz_83.m4a,,,
,,,,,38881,2021-04-22_22h07.45.620,judgeSpeechMusic_20210407_logNormShiftAmp,2020.1.2,Win32,60,,,,,,,,,,,,,,,,,,,,,,,,,,1,7.76727,,0,1,16,166,148,1,stimuli/stim_20210407_power2amp/equal_lnn_AM6Hz_53.m4a,,,
,,,,,38881,2021-04-22_22h07.45.620,judgeSpeechMusic_20210407_logNormShiftAmp,2020.1.2,Win32,60,,,,,,,,,,,,,,,,,,,,,,,,,,2,7.224075,,0,1,17,167,73,1,stimuli/stim_20210407_power2amp/equal_lnn_AM3Hz_29.m4a,,,
,,,,,38881,2021-04-22_22h07.45.620,judgeSpeechMusic_20210407_logNormShiftAmp,2020.1.2,Win32,60,,,,,,,,,,,,,,,,,,,,,,,,,,1,7.143995,3,1,1,18,168,34,1,stimuli/stim_20210407_power2amp/equal_lnn_AM1.8Hz_90.m4a,1.65844,,
,,,,,38881,2021-04-22_22h07.45.620,judgeSpeechMusic_20210407_logNormShiftAmp,2020.1.2,Win32,60,,,,,,,,,,,,,,,,,,,,,,,,,,1,6.841795,,0,1,19,169,35,1,stimuli/stim_20210407_power2amp/equal_lnn_AM1.8Hz_52.m4a,,,
,,,,,38881,2021-04-22_22h07.45.620,judgeSpeechMusic_20210407_logNormShiftAmp,2020.1.2,Win32,60,,,,,,,,,,,,,,,,,,,,,,,,,,2,7.641455,,0,1,20,170,105,1,stimuli/stim_20210407_power2amp/equal_lnn_AM4.8Hz_55.m4a,,,
,,,,,38881,2021-04-22_22h07.45.620,judgeSpeechMusic_20210407_logNormShiftAmp,2020.1.2,Win32,60,,,,,,,,,,,,,,,,,,,,,,,,,,2,7.207745,,0,1,21,171,47,1,stimuli/stim_20210407_power2amp/equal_lnn_AM2.4Hz_42.m4a,,,
,,,,,38881,2021-04-22_22h07.45.620,judgeSpeechMusic_20210407_logNormShiftAmp,2020.1.2,Win32,60,,,,,,,,,,,,,,,,,,,,,,,,,,1,7.311705,,0,1,22,172,72,1,stimuli/stim_20210407_power2amp/equal_lnn_AM3Hz_79.m4a,,,
,,,,,38881,2021-04-22_22h07.45.620,judgeSpeechMusic_20210407_logNormShiftAmp,2020.1.2,Win32,60,,,,,,,,,,,,,,,,,,,,,,,,,,2,6.343335,,0,1,23,173,99,1,stimuli/stim_20210407_power2amp/equal_lnn_AM4.2Hz_18.m4a,,,
,,,,,38881,2021-04-22_22h07.45.620,judgeSpeechMusic_20210407_logNormShiftAmp,2020.1.2,Win32,60,,,,,,,,,,,,,,,,,,,,,,,,,,2,6.53548,,0,1,24,174,133,1,stimuli/stim_20210407_power2amp/equal_lnn_AM5.4Hz_42.m4a,,,
,,,,,38881,2021-04-22_22h07.45.620,judgeSpeechMusic_20210407_logNormShiftAmp,2020.1.2,Win32,60,,,,,,,,,,,,,,,,,,,,,,,,,,2,7.20203,,0,1,25,175,141,1,stimuli/stim_20210407_power2amp/equal_lnn_AM6Hz_98.m4a,,,
,,,,,38881,2021-04-22_22h07.45.620,judgeSpeechMusic_20210407_logNormShiftAmp,2020.1.2,Win32,60,,,,,,,,,,,,,,,,,,,,,,,,,,2,6.652005,,0,1,26,176,139,1,stimuli/stim_20210407_power2amp/equal_lnn_AM6Hz_89.m4a,,,
,,,,,38881,2021-04-22_22h07.45.620,judgeSpeechMusic_20210407_logNormShiftAmp,2020.1.2,Win32,60,,,,,,,,,,,,,,,,,,,,,,,,,,1,6.492685,,0,1,27,177,128,1,stimuli/stim_20210407_power2amp/equal_lnn_AM5.4Hz_65.m4a,,,
,,,,,38881,2021-04-22_22h07.45.620,judgeSpeechMusic_20210407_logNormShiftAmp,2020.1.2,Win32,60,,,,,,,,,,,,,,,,,,,,,,,,,,2,6.841265,,0,1,28,178,123,1,stimuli/stim_20210407_power2amp/equal_lnn_AM5.4Hz_2.m4a,,,
,,,,,38881,2021-04-22_22h07.45.620,judgeSpeechMusic_20210407_logNormShiftAmp,2020.1.2,Win32,60,,,,,,,,,,,,,,,,,,,,,,,,,,1,6.525795,,0,1,29,179,71,1,stimuli/stim_20210407_power2amp/equal_lnn_AM3Hz_32.m4a,,,
,,,,,38881,2021-04-22_22h07.45.620,judgeSpeechMusic_20210407_logNormShiftAmp,2020.1.2,Win32,60,,,,,,,,,,,,,,,,,,,,,,,,,,2,7.030185,,0,1,30,180,145,1,stimuli/stim_20210407_power2amp/equal_lnn_AM6Hz_30.m4a,,,
,,,,,38881,2021-04-22_22h07.45.620,judgeSpeechMusic_20210407_logNormShiftAmp,2020.1.2,Win32,60,,,,,,,,,,,,,,,,,,,,,,,,,,1,6.49345,,0,1,31,181,51,1,stimuli/stim_20210407_power2amp/equal_lnn_AM2.4Hz_60.m4a,,,
,,,,,38881,2021-04-22_22h07.45.620,judgeSpeechMusic_20210407_logNormShiftAmp,2020.1.2,Win32,60,,,,,,,,,,,,,,,,,,,,,,,,,,1,6.60064,,0,1,32,182,2,1,stimuli/stim_20210407_power2amp/equal_lnn_AM0.6Hz_4.m4a,,,
,,,,,38881,2021-04-22_22h07.45.620,judgeSpeechMusic_20210407_logNormShiftAmp,2020.1.2,Win32,60,,,,,,,,,,,,,,,,,,,,,,,,,,2,6.25677,,0,1,33,183,120,1,stimuli/stim_20210407_power2amp/equal_lnn_AM5.4Hz_48.m4a,,,
,,,,,38881,2021-04-22_22h07.45.620,judgeSpeechMusic_20210407_logNormShiftAmp,2020.1.2,Win32,60,,,,,,,,,,,,,,,,,,,,,,,,,,1,5.81517,,0,1,34,184,41,1,stimuli/stim_20210407_power2amp/equal_lnn_AM1.8Hz_36.m4a,,,
,,,,,38881,2021-04-22_22h07.45.620,judgeSpeechMusic_20210407_logNormShiftAmp,2020.1.2,Win32,60,,,,,,,,,,,,,,,,,,,,,,,,,,2,6.374055,,0,1,35,185,122,1,stimuli/stim_20210407_power2amp/equal_lnn_AM5.4Hz_69.m4a,,,
,,,,,38881,2021-04-22_22h07.45.620,judgeSpeechMusic_20210407_logNormShiftAmp,2020.1.2,Win32,60,,,,,,,,,,,,,,,,,,,,,,,,,,1,6.97378,,0,1,36,186,13,1,stimuli/stim_20210407_power2amp/equal_lnn_AM0.6Hz_97.m4a,,,
,,,,,38881,2021-04-22_22h07.45.620,judgeSpeechMusic_20210407_logNormShiftAmp,2020.1.2,Win32,60,,,,,,,,,,,,,,,,,,,,,,,,,,1,7.74607,,0,1,37,187,56,1,stimuli/stim_20210407_power2amp/equal_lnn_AM2.4Hz_62.m4a,,,
,,,,,38881,2021-04-22_22h07.45.620,judgeSpeechMusic_20210407_logNormShiftAmp,2020.1.2,Win32,60,,,,,,,,,,,,,,,,,,,,,,,,,,1,6.680865,4,1,1,38,188,46,1,stimuli/stim_20210407_power2amp/equal_lnn_AM2.4Hz_68.m4a,2.962805,,
,,,,,38881,2021-04-22_22h07.45.620,judgeSpeechMusic_20210407_logNormShiftAmp,2020.1.2,Win32,60,,,,,,,,,,,,,,,,,,,,,,,,,,1,6.53236,,0,1,39,189,25,1,stimuli/stim_20210407_power2amp/equal_lnn_AM1.2Hz_16.m4a,,,
,,,,,38881,2021-04-22_22h07.45.620,judgeSpeechMusic_20210407_logNormShiftAmp,2020.1.2,Win32,60,,,,,,,,,,,,,,,,,,,,,,,,,,2,7.22479,,0,1,40,190,75,1,stimuli/stim_20210407_power2amp/equal_lnn_AM3.6Hz_84.m4a,,,
,,,,,38881,2021-04-22_22h07.45.620,judgeSpeechMusic_20210407_logNormShiftAmp,2020.1.2,Win32,60,,,,,,,,,,,,,,,,,,,,,,,,,,2,11.074945,,0,1,41,191,138,1,stimuli/stim_20210407_power2amp/equal_lnn_AM6Hz_92.m4a,,,
,,,,,38881,2021-04-22_22h07.45.620,judgeSpeechMusic_20210407_logNormShiftAmp,2020.1.2,Win32,60,,,,,,,,,,,,,,,,,,,,,,,,,,1,6.907495,,0,1,42,192,16,1,stimuli/stim_20210407_power2amp/equal_lnn_AM1.2Hz_51.m4a,,,
,,,,,38881,2021-04-22_22h07.45.620,judgeSpeechMusic_20210407_logNormShiftAmp,2020.1.2,Win32,60,,,,,,,,,,,,,,,,,,,,,,,,,,1,7.176645,,0,1,43,193,53,1,stimuli/stim_20210407_power2amp/equal_lnn_AM2.4Hz_27.m4a,,,
,,,,,38881,2021-04-22_22h07.45.620,judgeSpeechMusic_20210407_logNormShiftAmp,2020.1.2,Win32,60,,,,,,,,,,,,,,,,,,,,,,,,,,2,9.31523,,0,1,44,194,127,1,stimuli/stim_20210407_power2amp/equal_lnn_AM5.4Hz_27.m4a,,,
,,,,,38881,2021-04-22_22h07.45.620,judgeSpeechMusic_20210407_logNormShiftAmp,2020.1.2,Win32,60,,,,,,,,,,,,,,,,,,,,,,,,,,1,7.235275,,0,1,45,195,124,1,stimuli/stim_20210407_power2amp/equal_lnn_AM5.4Hz_3.m4a,,,
,,,,,38881,2021-04-22_22h07.45.620,judgeSpeechMusic_20210407_logNormShiftAmp,2020.1.2,Win32,60,,,,,,,,,,,,,,,,,,,,,,,,,,2,12.43394,,0,1,46,196,149,1,stimuli/stim_20210407_power2amp/equal_lnn_AM6Hz_47.m4a,,,
,,,,,38881,2021-04-22_22h07.45.620,judgeSpeechMusic_20210407_logNormShiftAmp,2020.1.2,Win32,60,,,,,,,,,,,,,,,,,,,,,,,,,,1,7.31445,,0,1,47,197,21,1,stimuli/stim_20210407_power2amp/equal_lnn_AM1.2Hz_90.m4a,,,
,,,,,38881,2021-04-22_22h07.45.620,judgeSpeechMusic_20210407_logNormShiftAmp,2020.1.2,Win32,60,,,,,,,,,,,,,,,,,,,,,,,,,,1,7.51258,,0,1,48,198,8,1,stimuli/stim_20210407_power2amp/equal_lnn_AM0.6Hz_15.m4a,,,
,,,,,38881,2021-04-22_22h07.45.620,judgeSpeechMusic_20210407_logNormShiftAmp,2020.1.2,Win32,60,,,,,,,,,,,,,,,,,,,,,,,,,,2,6.122655,,0,1,49,199,132,1,stimuli/stim_20210407_power2amp/equal_lnn_AM5.4Hz_18.m4a,,,
,,,,,38881,2021-04-22_22h07.45.620,judgeSpeechMusic_20210407_logNormShiftAmp,2020.1.2,Win32,60,,,,,,,,,,,,,,,,,,,,,,,,,,1,6.35516,,0,1,50,200,22,1,stimuli/stim_20210407_power2amp/equal_lnn_AM1.2Hz_80.m4a,,,
,,,,,38881,2021-04-22_22h07.45.620,judgeSpeechMusic_20210407_logNormShiftAmp,2020.1.2,Win32,60,,,,,,,,,,,,,,,,,,,,,,,,,,2,5.96736,,0,1,51,201,125,1,stimuli/stim_20210407_power2amp/equal_lnn_AM5.4Hz_63.m4a,,,
,,,,,38881,2021-04-22_22h07.45.620,judgeSpeechMusic_20210407_logNormShiftAmp,2020.1.2,Win32,60,,,,,,,,,,,,,,,,,,,,,,,,,,2,6.36534,,0,1,52,202,81,1,stimuli/stim_20210407_power2amp/equal_lnn_AM3.6Hz_37.m4a,,,
,,,,,38881,2021-04-22_22h07.45.620,judgeSpeechMusic_20210407_logNormShiftAmp,2020.1.2,Win32,60,,,,,,,,,,,,,,,,,,,,,,,,,,2,7.00538,,0,1,53,203,143,1,stimuli/stim_20210407_power2amp/equal_lnn_AM6Hz_95.m4a,,,
,,,,,38881,2021-04-22_22h07.45.620,judgeSpeechMusic_20210407_logNormShiftAmp,2020.1.2,Win32,60,,,,,,,,,,,,,,,,,,,,,,,,,,1,6.362765,,0,1,54,204,144,1,stimuli/stim_20210407_power2amp/equal_lnn_AM6Hz_37.m4a,,,
,,,,,38881,2021-04-22_22h07.45.620,judgeSpeechMusic_20210407_logNormShiftAmp,2020.1.2,Win32,60,,,,,,,,,,,,,,,,,,,,,,,,,,1,6.13229,,0,1,55,205,3,1,stimuli/stim_20210407_power2amp/equal_lnn_AM0.6Hz_1.m4a,,,
,,,,,38881,2021-04-22_22h07.45.620,judgeSpeechMusic_20210407_logNormShiftAmp,2020.1.2,Win32,60,,,,,,,,,,,,,,,,,,,,,,,,,,2,69.42117,,0,1,56,206,30,1,stimuli/stim_20210407_power2amp/equal_lnn_AM1.8Hz_59.m4a,,,
,,,,,38881,2021-04-22_22h07.45.620,judgeSpeechMusic_20210407_logNormShiftAmp,2020.1.2,Win32,60,,,,,,,,,,,,,,,,,,,,,,,,,,2,6.411115,,0,1,57,207,85,1,stimuli/stim_20210407_power2amp/equal_lnn_AM3.6Hz_56.m4a,,,
,,,,,38881,2021-04-22_22h07.45.620,judgeSpeechMusic_20210407_logNormShiftAmp,2020.1.2,Win32,60,,,,,,,,,,,,,,,,,,,,,,,,,,2,6.173275,,0,1,58,208,146,1,stimuli/stim_20210407_power2amp/equal_lnn_AM6Hz_48.m4a,,,
,,,,,38881,2021-04-22_22h07.45.620,judgeSpeechMusic_20210407_logNormShiftAmp,2020.1.2,Win32,60,,,,,,,,,,,,,,,,,,,,,,,,,,2,7.016625,,0,1,59,209,115,1,stimuli/stim_20210407_power2amp/equal_lnn_AM4.8Hz_64.m4a,,,
,,,,,38881,2021-04-22_22h07.45.620,judgeSpeechMusic_20210407_logNormShiftAmp,2020.1.2,Win32,60,,,,,,,,,,,,,,,,,,,,,,,,,,1,6.77249,,0,1,60,210,17,1,stimuli/stim_20210407_power2amp/equal_lnn_AM1.2Hz_68.m4a,,,
,,,,,38881,2021-04-22_22h07.45.620,judgeSpeechMusic_20210407_logNormShiftAmp,2020.1.2,Win32,60,,,,,,,,,,,,,,,,,,,,,,,,,,2,6.456715,,0,1,61,211,142,1,stimuli/stim_20210407_power2amp/equal_lnn_AM6Hz_85.m4a,,,
,,,,,38881,2021-04-22_22h07.45.620,judgeSpeechMusic_20210407_logNormShiftAmp,2020.1.2,Win32,60,,,,,,,,,,,,,,,,,,,,,,,,,,1,7.724725,4,1,1,62,212,65,1,stimuli/stim_20210407_power2amp/equal_lnn_AM3Hz_63.m4a,1.92358,,
,,,,,38881,2021-04-22_22h07.45.620,judgeSpeechMusic_20210407_logNormShiftAmp,2020.1.2,Win32,60,,,,,,,,,,,,,,,,,,,,,,,,,,2,6.006885,,0,1,63,213,70,1,stimuli/stim_20210407_power2amp/equal_lnn_AM3Hz_70.m4a,,,
,,,,,38881,2021-04-22_22h07.45.620,judgeSpeechMusic_20210407_logNormShiftAmp,2020.1.2,Win32,60,,,,,,,,,,,,,,,,,,,,,,,,,,1,6.38454,,0,1,64,214,28,1,stimuli/stim_20210407_power2amp/equal_lnn_AM1.2Hz_41.m4a,,,
,,,,,38881,2021-04-22_22h07.45.620,judgeSpeechMusic_20210407_logNormShiftAmp,2020.1.2,Win32,60,,,,,,,,,,,,,,,,,,,,,,,,,,2,7.370995,,0,1,65,215,96,1,stimuli/stim_20210407_power2amp/equal_lnn_AM4.2Hz_9.m4a,,,
,,,,,38881,2021-04-22_22h07.45.620,judgeSpeechMusic_20210407_logNormShiftAmp,2020.1.2,Win32,60,,,,,,,,,,,,,,,,,,,,,,,,,,2,6.53332,,0,1,66,216,101,1,stimuli/stim_20210407_power2amp/equal_lnn_AM4.2Hz_24.m4a,,,
,,,,,38881,2021-04-22_22h07.45.620,judgeSpeechMusic_20210407_logNormShiftAmp,2020.1.2,Win32,60,,,,,,,,,,,,,,,,,,,,,,,,,,2,6.957775,,0,1,67,217,93,1,stimuli/stim_20210407_power2amp/equal_lnn_AM4.2Hz_16.m4a,,,
,,,,,38881,2021-04-22_22h07.45.620,judgeSpeechMusic_20210407_logNormShiftAmp,2020.1.2,Win32,60,,,,,,,,,,,,,,,,,,,,,,,,,,2,6.47999,,0,1,68,218,67,1,stimuli/stim_20210407_power2amp/equal_lnn_AM3Hz_68.m4a,,,
,,,,,38881,2021-04-22_22h07.45.620,judgeSpeechMusic_20210407_logNormShiftAmp,2020.1.2,Win32,60,,,,,,,,,,,,,,,,,,,,,,,,,,2,6.434755,,0,1,69,219,82,1,stimuli/stim_20210407_power2amp/equal_lnn_AM3.6Hz_99.m4a,,,
,,,,,38881,2021-04-22_22h07.45.620,judgeSpeechMusic_20210407_logNormShiftAmp,2020.1.2,Win32,60,,,,,,,,,,,,,,,,,,,,,,,,,,2,6.576975,,0,1,70,220,136,1,stimuli/stim_20210407_power2amp/equal_lnn_AM6Hz_4.m4a,,,
,,,,,38881,2021-04-22_22h07.45.620,judgeSpeechMusic_20210407_logNormShiftAmp,2020.1.2,Win32,60,,,,,,,,,,,,,,,,,,,,,,,,,,2,6.290115,,0,1,71,221,98,1,stimuli/stim_20210407_power2amp/equal_lnn_AM4.2Hz_22.m4a,,,
,,,,,38881,2021-04-22_22h07.45.620,judgeSpeechMusic_20210407_logNormShiftAmp,2020.1.2,Win32,60,,,,,,,,,,,,,,,,,,,,,,,,,,2,7.11303,,0,1,72,222,97,1,stimuli/stim_20210407_power2amp/equal_lnn_AM4.2Hz_94.m4a,,,
,,,,,38881,2021-04-22_22h07.45.620,judgeSpeechMusic_20210407_logNormShiftAmp,2020.1.2,Win32,60,,,,,,,,,,,,,,,,,,,,,,,,,,1,6.44608,,0,1,73,223,32,1,stimuli/stim_20210407_power2amp/equal_lnn_AM1.8Hz_34.m4a,,,
,,,,,38881,2021-04-22_22h07.45.620,judgeSpeechMusic_20210407_logNormShiftAmp,2020.1.2,Win32,60,,,,,,,,,,,,,,,,,,,,,,,,,,1,6.899315,,0,1,74,224,6,1,stimuli/stim_20210407_power2amp/equal_lnn_AM0.6Hz_95.m4a,,,
,,,,,38881,2021-04-22_22h07.45.620,judgeSpeechMusic_20210407_logNormShiftAmp,2020.1.2,Win32,60,,,,,,,,,,,,,,,,,,,,,,,,,,1,6.89282,,0,1,75,225,80,1,stimuli/stim_20210407_power2amp/equal_lnn_AM3.6Hz_42.m4a,,,
,,,,,38881,2021-04-22_22h07.45.620,judgeSpeechMusic_20210407_logNormShiftAmp,2020.1.2,Win32,60,,,,,,,,,,,,,,,,,,,,,,,,,,1,7.827585,,0,1,76,226,54,1,stimuli/stim_20210407_power2amp/equal_lnn_AM2.4Hz_28.m4a,,,
,,,,,38881,2021-04-22_22h07.45.620,judgeSpeechMusic_20210407_logNormShiftAmp,2020.1.2,Win32,60,,,,,,,,,,,,,,,,,,,,,,,,,,2,6.11074,,0,1,77,227,102,1,stimuli/stim_20210407_power2amp/equal_lnn_AM4.2Hz_79.m4a,,,
,,,,,38881,2021-04-22_22h07.45.620,judgeSpeechMusic_20210407_logNormShiftAmp,2020.1.2,Win32,60,,,,,,,,,,,,,,,,,,,,,,,,,,2,6.498625,,0,1,78,228,137,1,stimuli/stim_20210407_power2amp/equal_lnn_AM6Hz_96.m4a,,,
,,,,,38881,2021-04-22_22h07.45.620,judgeSpeechMusic_20210407_logNormShiftAmp,2020.1.2,Win32,60,,,,,,,,,,,,,,,,,,,,,,,,,,1,6.185035,,0,1,79,229,11,1,stimuli/stim_20210407_power2amp/equal_lnn_AM0.6Hz_67.m4a,,,
,,,,,38881,2021-04-22_22h07.45.620,judgeSpeechMusic_20210407_logNormShiftAmp,2020.1.2,Win32,60,,,,,,,,,,,,,,,,,,,,,,,,,,2,7.006145,,0,1,80,230,140,1,stimuli/stim_20210407_power2amp/equal_lnn_AM6Hz_55.m4a,,,
,,,,,38881,2021-04-22_22h07.45.620,judgeSpeechMusic_20210407_logNormShiftAmp,2020.1.2,Win32,60,,,,,,,,,,,,,,,,,,,,,,,,,,1,6.69006,,0,1,81,231,18,1,stimuli/stim_20210407_power2amp/equal_lnn_AM1.2Hz_20.m4a,,,
,,,,,38881,2021-04-22_22h07.45.620,judgeSpeechMusic_20210407_logNormShiftAmp,2020.1.2,Win32,60,,,,,,,,,,,,,,,,,,,,,,,,,,2,6.95274,,0,1,82,232,108,1,stimuli/stim_20210407_power2amp/equal_lnn_AM4.8Hz_11.m4a,,,
,,,,,38881,2021-04-22_22h07.45.620,judgeSpeechMusic_20210407_logNormShiftAmp,2020.1.2,Win32,60,,,,,,,,,,,,,,,,,,,,,,,,,,1,7.473705,,0,1,83,233,26,1,stimuli/stim_20210407_power2amp/equal_lnn_AM1.2Hz_74.m4a,,,
,,,,,38881,2021-04-22_22h07.45.620,judgeSpeechMusic_20210407_logNormShiftAmp,2020.1.2,Win32,60,,,,,,,,,,,,,,,,,,,,,,,,,,2,7.85209,,0,1,84,234,134,1,stimuli/stim_20210407_power2amp/equal_lnn_AM5.4Hz_34.m4a,,,
,,,,,38881,2021-04-22_22h07.45.620,judgeSpeechMusic_20210407_logNormShiftAmp,2020.1.2,Win32,60,,,,,,,,,,,,,,,,,,,,,,,,,,2,8.09703,,0,1,85,235,59,1,stimuli/stim_20210407_power2amp/equal_lnn_AM2.4Hz_50.m4a,,,
,,,,,38881,2021-04-22_22h07.45.620,judgeSpeechMusic_20210407_logNormShiftAmp,2020.1.2,Win32,60,,,,,,,,,,,,,,,,,,,,,,,,,,2,7.05591,,0,1,86,236,38,1,stimuli/stim_20210407_power2amp/equal_lnn_AM1.8Hz_29.m4a,,,
,,,,,38881,2021-04-22_22h07.45.620,judgeSpeechMusic_20210407_logNormShiftAmp,2020.1.2,Win32,60,,,,,,,,,,,,,,,,,,,,,,,,,,2,7.34852,1,1,1,87,237,112,1,stimuli/stim_20210407_power2amp/equal_lnn_AM4.8Hz_39.m4a,1.67523,,
,,,,,38881,2021-04-22_22h07.45.620,judgeSpeechMusic_20210407_logNormShiftAmp,2020.1.2,Win32,60,,,,,,,,,,,,,,,,,,,,,,,,,,2,10.05015,,0,1,88,238,39,1,stimuli/stim_20210407_power2amp/equal_lnn_AM1.8Hz_58.m4a,,,
,,,,,38881,2021-04-22_22h07.45.620,judgeSpeechMusic_20210407_logNormShiftAmp,2020.1.2,Win32,60,,,,,,,,,,,,,,,,,,,,,,,,,,2,140.70805,,0,1,89,239,44,1,stimuli/stim_20210407_power2amp/equal_lnn_AM1.8Hz_19.m4a,,,
,,,,,38881,2021-04-22_22h07.45.620,judgeSpeechMusic_20210407_logNormShiftAmp,2020.1.2,Win32,60,,,,,,,,,,,,,,,,,,,,,,,,,,2,7.775315,,0,1,90,240,91,1,stimuli/stim_20210407_power2amp/equal_lnn_AM4.2Hz_98.m4a,,,
,,,,,38881,2021-04-22_22h07.45.620,judgeSpeechMusic_20210407_logNormShiftAmp,2020.1.2,Win32,60,,,,,,,,,,,,,,,,,,,,,,,,,,2,9.015945,,0,1,91,241,94,1,stimuli/stim_20210407_power2amp/equal_lnn_AM4.2Hz_48.m4a,,,
,,,,,38881,2021-04-22_22h07.45.620,judgeSpeechMusic_20210407_logNormShiftAmp,2020.1.2,Win32,60,,,,,,,,,,,,,,,,,,,,,,,,,,2,5.941575,,0,1,92,242,103,1,stimuli/stim_20210407_power2amp/equal_lnn_AM4.2Hz_60.m4a,,,
,,,,,38881,2021-04-22_22h07.45.620,judgeSpeechMusic_20210407_logNormShiftAmp,2020.1.2,Win32,60,,,,,,,,,,,,,,,,,,,,,,,,,,2,6.801705,,0,1,93,243,68,1,stimuli/stim_20210407_power2amp/equal_lnn_AM3Hz_12.m4a,,,
,,,,,38881,2021-04-22_22h07.45.620,judgeSpeechMusic_20210407_logNormShiftAmp,2020.1.2,Win32,60,,,,,,,,,,,,,,,,,,,,,,,,,,2,6.515475,,0,1,94,244,69,1,stimuli/stim_20210407_power2amp/equal_lnn_AM3Hz_28.m4a,,,
,,,,,38881,2021-04-22_22h07.45.620,judgeSpeechMusic_20210407_logNormShiftAmp,2020.1.2,Win32,60,,,,,,,,,,,,,,,,,,,,,,,,,,2,6.45757,,0,1,95,245,84,1,stimuli/stim_20210407_power2amp/equal_lnn_AM3.6Hz_66.m4a,,,
,,,,,38881,2021-04-22_22h07.45.620,judgeSpeechMusic_20210407_logNormShiftAmp,2020.1.2,Win32,60,,,,,,,,,,,,,,,,,,,,,,,,,,1,6.53542,,0,1,96,246,27,1,stimuli/stim_20210407_power2amp/equal_lnn_AM1.2Hz_14.m4a,,,
,,,,,38881,2021-04-22_22h07.45.620,judgeSpeechMusic_20210407_logNormShiftAmp,2020.1.2,Win32,60,,,,,,,,,,,,,,,,,,,,,,,,,,2,6.745035,,0,1,97,247,42,1,stimuli/stim_20210407_power2amp/equal_lnn_AM1.8Hz_54.m4a,,,
,,,,,38881,2021-04-22_22h07.45.620,judgeSpeechMusic_20210407_logNormShiftAmp,2020.1.2,Win32,60,,,,,,,,,,,,,,,,,,,,,,,,,,1,6.522885,,0,1,98,248,43,1,stimuli/stim_20210407_power2amp/equal_lnn_AM1.8Hz_35.m4a,,,
,,,,,38881,2021-04-22_22h07.45.620,judgeSpeechMusic_20210407_logNormShiftAmp,2020.1.2,Win32,60,,,,,,,,,,,,,,,,,,,,,,,,,,2,6.133565,,0,1,99,249,111,1,stimuli/stim_20210407_power2amp/equal_lnn_AM4.8Hz_57.m4a,,,
,,,,,38881,2021-04-22_22h07.45.620,judgeSpeechMusic_20210407_logNormShiftAmp,2020.1.2,Win32,60,,,,,,,,,,,,,,,,,,,,,,,,,,2,6.464775,,0,1,100,250,90,1,stimuli/stim_20210407_power2amp/equal_lnn_AM4.2Hz_43.m4a,,,
,,,,,38881,2021-04-22_22h07.45.620,judgeSpeechMusic_20210407_logNormShiftAmp,2020.1.2,Win32,60,,,,,,,,,,,,,,,,,,,,,,,,,,2,6.505585,,0,1,101,251,95,1,stimuli/stim_20210407_power2amp/equal_lnn_AM4.2Hz_56.m4a,,,
,,,,,38881,2021-04-22_22h07.45.620,judgeSpeechMusic_20210407_logNormShiftAmp,2020.1.2,Win32,60,,,,,,,,,,,,,,,,,,,,,,,,,,2,8.340425,,0,1,102,252,31,1,stimuli/stim_20210407_power2amp/equal_lnn_AM1.8Hz_9.m4a,,,
,,,,,38881,2021-04-22_22h07.45.620,judgeSpeechMusic_20210407_logNormShiftAmp,2020.1.2,Win32,60,,,,,,,,,,,,,,,,,,,,,,,,,,2,7.04084,,0,1,103,253,48,1,stimuli/stim_20210407_power2amp/equal_lnn_AM2.4Hz_40.m4a,,,
,,,,,38881,2021-04-22_22h07.45.620,judgeSpeechMusic_20210407_logNormShiftAmp,2020.1.2,Win32,60,,,,,,,,,,,,,,,,,,,,,,,,,,2,6.28013,,0,1,104,254,116,1,stimuli/stim_20210407_power2amp/equal_lnn_AM4.8Hz_76.m4a,,,
,,,,,38881,2021-04-22_22h07.45.620,judgeSpeechMusic_20210407_logNormShiftAmp,2020.1.2,Win32,60,,,,,,,,,,,,,,,,,,,,,,,,,,1,6.473205,,0,1,105,255,23,1,stimuli/stim_20210407_power2amp/equal_lnn_AM1.2Hz_64.m4a,,,
,,,,,38881,2021-04-22_22h07.45.620,judgeSpeechMusic_20210407_logNormShiftAmp,2020.1.2,Win32,60,,,,,,,,,,,,,,,,,,,,,,,,,,2,7.31209,,0,1,106,256,131,1,stimuli/stim_20210407_power2amp/equal_lnn_AM5.4Hz_58.m4a,,,
,,,,,38881,2021-04-22_22h07.45.620,judgeSpeechMusic_20210407_logNormShiftAmp,2020.1.2,Win32,60,,,,,,,,,,,,,,,,,,,,,,,,,,2,6.656635,,0,1,107,257,117,1,stimuli/stim_20210407_power2amp/equal_lnn_AM4.8Hz_97.m4a,,,
,,,,,38881,2021-04-22_22h07.45.620,judgeSpeechMusic_20210407_logNormShiftAmp,2020.1.2,Win32,60,,,,,,,,,,,,,,,,,,,,,,,,,,2,6.948925,,0,1,108,258,77,1,stimuli/stim_20210407_power2amp/equal_lnn_AM3.6Hz_6.m4a,,,
,,,,,38881,2021-04-22_22h07.45.620,judgeSpeechMusic_20210407_logNormShiftAmp,2020.1.2,Win32,60,,,,,,,,,,,,,,,,,,,,,,,,,,1,7.89581,3,1,1,109,259,24,1,stimuli/stim_20210407_power2amp/equal_lnn_AM1.2Hz_18.m4a,1.605495,,
,,,,,38881,2021-04-22_22h07.45.620,judgeSpeechMusic_20210407_logNormShiftAmp,2020.1.2,Win32,60,,,,,,,,,,,,,,,,,,,,,,,,,,2,6.113915,,0,1,110,260,61,1,stimuli/stim_20210407_power2amp/equal_lnn_AM3Hz_45.m4a,,,
,,,,,38881,2021-04-22_22h07.45.620,judgeSpeechMusic_20210407_logNormShiftAmp,2020.1.2,Win32,60,,,,,,,,,,,,,,,,,,,,,,,,,,1,5.912795,,0,1,111,261,58,1,stimuli/stim_20210407_power2amp/equal_lnn_AM2.4Hz_45.m4a,,,
,,,,,38881,2021-04-22_22h07.45.620,judgeSpeechMusic_20210407_logNormShiftAmp,2020.1.2,Win32,60,,,,,,,,,,,,,,,,,,,,,,,,,,2,5.989495,,0,1,112,262,126,1,stimuli/stim_20210407_power2amp/equal_lnn_AM5.4Hz_19.m4a,,,
,,,,,38881,2021-04-22_22h07.45.620,judgeSpeechMusic_20210407_logNormShiftAmp,2020.1.2,Win32,60,,,,,,,,,,,,,,,,,,,,,,,,,,2,7.157555,,0,1,113,263,129,1,stimuli/stim_20210407_power2amp/equal_lnn_AM5.4Hz_47.m4a,,,
,,,,,38881,2021-04-22_22h07.45.620,judgeSpeechMusic_20210407_logNormShiftAmp,2020.1.2,Win32,60,,,,,,,,,,,,,,,,,,,,,,,,,,1,6.51642,,0,1,114,264,135,1,stimuli/stim_20210407_power2amp/equal_lnn_AM6Hz_57.m4a,,,
,,,,,38881,2021-04-22_22h07.45.620,judgeSpeechMusic_20210407_logNormShiftAmp,2020.1.2,Win32,60,,,,,,,,,,,,,,,,,,,,,,,,,,1,6.290055,,0,1,115,265,74,1,stimuli/stim_20210407_power2amp/equal_lnn_AM3Hz_39.m4a,,,
,,,,,38881,2021-04-22_22h07.45.620,judgeSpeechMusic_20210407_logNormShiftAmp,2020.1.2,Win32,60,,,,,,,,,,,,,,,,,,,,,,,,,,2,8.41839,,0,1,116,266,66,1,stimuli/stim_20210407_power2amp/equal_lnn_AM3Hz_81.m4a,,,
,,,,,38881,2021-04-22_22h07.45.620,judgeSpeechMusic_20210407_logNormShiftAmp,2020.1.2,Win32,60,,,,,,,,,,,,,,,,,,,,,,,,,,2,6.377045,,0,1,117,267,121,1,stimuli/stim_20210407_power2amp/equal_lnn_AM5.4Hz_35.m4a,,,
,,,,,38881,2021-04-22_22h07.45.620,judgeSpeechMusic_20210407_logNormShiftAmp,2020.1.2,Win32,60,,,,,,,,,,,,,,,,,,,,,,,,,,2,6.449125,,0,1,118,268,110,1,stimuli/stim_20210407_power2amp/equal_lnn_AM4.8Hz_43.m4a,,,
,,,,,38881,2021-04-22_22h07.45.620,judgeSpeechMusic_20210407_logNormShiftAmp,2020.1.2,Win32,60,,,,,,,,,,,,,,,,,,,,,,,,,,2,8.016975,,0,1,119,269,50,1,stimuli/stim_20210407_power2amp/equal_lnn_AM2.4Hz_73.m4a,,,
,,,,,38881,2021-04-22_22h07.45.620,judgeSpeechMusic_20210407_logNormShiftAmp,2020.1.2,Win32,60,,,,,,,,,,,,,,,,,,,,,,,,,,1,6.458375,,0,1,120,270,20,1,stimuli/stim_20210407_power2amp/equal_lnn_AM1.2Hz_76.m4a,,,
,,,,,38881,2021-04-22_22h07.45.620,judgeSpeechMusic_20210407_logNormShiftAmp,2020.1.2,Win32,60,,,,,,,,,,,,,,,,,,,,,,,,,,1,6.255135,,0,1,121,271,15,1,stimuli/stim_20210407_power2amp/equal_lnn_AM1.2Hz_43.m4a,,,
,,,,,38881,2021-04-22_22h07.45.620,judgeSpeechMusic_20210407_logNormShiftAmp,2020.1.2,Win32,60,,,,,,,,,,,,,,,,,,,,,,,,,,1,8.042655,,0,1,122,272,55,1,stimuli/stim_20210407_power2amp/equal_lnn_AM2.4Hz_63.m4a,,,
,,,,,38881,2021-04-22_22h07.45.620,judgeSpeechMusic_20210407_logNormShiftAmp,2020.1.2,Win32,60,,,,,,,,,,,,,,,,,,,,,,,,,,2,7.477185,,0,1,123,273,114,1,stimuli/stim_20210407_power2amp/equal_lnn_AM4.8Hz_5.m4a,,,
,,,,,38881,2021-04-22_22h07.45.620,judgeSpeechMusic_20210407_logNormShiftAmp,2020.1.2,Win32,60,,,,,,,,,,,,,,,,,,,,,,,,,,2,8.678475,,0,1,124,274,107,1,stimuli/stim_20210407_power2amp/equal_lnn_AM4.8Hz_10.m4a,,,
,,,,,38881,2021-04-22_22h07.45.620,judgeSpeechMusic_20210407_logNormShiftAmp,2020.1.2,Win32,60,,,,,,,,,,,,,,,,,,,,,,,,,,1,6.44056,,0,1,125,275,4,1,stimuli/stim_20210407_power2amp/equal_lnn_AM0.6Hz_54.m4a,,,
,,,,,38881,2021-04-22_22h07.45.620,judgeSpeechMusic_20210407_logNormShiftAmp,2020.1.2,Win32,60,,,,,,,,,,,,,,,,,,,,,,,,,,2,6.940615,,0,1,126,276,86,1,stimuli/stim_20210407_power2amp/equal_lnn_AM3.6Hz_50.m4a,,,
,,,,,38881,2021-04-22_22h07.45.620,judgeSpeechMusic_20210407_logNormShiftAmp,2020.1.2,Win32,60,,,,,,,,,,,,,,,,,,,,,,,,,,2,6.72337,,0,1,127,277,76,1,stimuli/stim_20210407_power2amp/equal_lnn_AM3.6Hz_73.m4a,,,
,,,,,38881,2021-04-22_22h07.45.620,judgeSpeechMusic_20210407_logNormShiftAmp,2020.1.2,Win32,60,,,,,,,,,,,,,,,,,,,,,,,,,,1,6.322625,,0,1,128,278,36,1,stimuli/stim_20210407_power2amp/equal_lnn_AM1.8Hz_85.m4a,,,
,,,,,38881,2021-04-22_22h07.45.620,judgeSpeechMusic_20210407_logNormShiftAmp,2020.1.2,Win32,60,,,,,,,,,,,,,,,,,,,,,,,,,,2,6.84032,,0,1,129,279,147,1,stimuli/stim_20210407_power2amp/equal_lnn_AM6Hz_63.m4a,,,
,,,,,38881,2021-04-22_22h07.45.620,judgeSpeechMusic_20210407_logNormShiftAmp,2020.1.2,Win32,60,,,,,,,,,,,,,,,,,,,,,,,,,,2,7.24859,,0,1,130,280,60,1,stimuli/stim_20210407_power2amp/equal_lnn_AM3Hz_23.m4a,,,
,,,,,38881,2021-04-22_22h07.45.620,judgeSpeechMusic_20210407_logNormShiftAmp,2020.1.2,Win32,60,,,,,,,,,,,,,,,,,,,,,,,,,,2,6.86578,,0,1,131,281,49,1,stimuli/stim_20210407_power2amp/equal_lnn_AM2.4Hz_41.m4a,,,
,,,,,38881,2021-04-22_22h07.45.620,judgeSpeechMusic_20210407_logNormShiftAmp,2020.1.2,Win32,60,,,,,,,,,,,,,,,,,,,,,,,,,,2,7.207385,,0,1,132,282,57,1,stimuli/stim_20210407_power2amp/equal_lnn_AM2.4Hz_58.m4a,,,
,,,,,38881,2021-04-22_22h07.45.620,judgeSpeechMusic_20210407_logNormShiftAmp,2020.1.2,Win32,60,,,,,,,,,,,,,,,,,,,,,,,,,,2,9.22551,,0,1,133,283,45,1,stimuli/stim_20210407_power2amp/equal_lnn_AM2.4Hz_13.m4a,,,
,,,,,38881,2021-04-22_22h07.45.620,judgeSpeechMusic_20210407_logNormShiftAmp,2020.1.2,Win32,60,,,,,,,,,,,,,,,,,,,,,,,,,,2,8.41271,3,1,1,134,284,87,1,stimuli/stim_20210407_power2amp/equal_lnn_AM3.6Hz_87.m4a,1.842745,,
,,,,,38881,2021-04-22_22h07.45.620,judgeSpeechMusic_20210407_logNormShiftAmp,2020.1.2,Win32,60,,,,,,,,,,,,,,,,,,,,,,,,,,1,8.363005,,0,1,135,285,1,1,stimuli/stim_20210407_power2amp/equal_lnn_AM0.6Hz_91.m4a,,,
,,,,,38881,2021-04-22_22h07.45.620,judgeSpeechMusic_20210407_logNormShiftAmp,2020.1.2,Win32,60,,,,,,,,,,,,,,,,,,,,,,,,,,2,9.593655,,0,1,136,286,79,1,stimuli/stim_20210407_power2amp/equal_lnn_AM3.6Hz_26.m4a,,,
,,,,,38881,2021-04-22_22h07.45.620,judgeSpeechMusic_20210407_logNormShiftAmp,2020.1.2,Win32,60,,,,,,,,,,,,,,,,,,,,,,,,,,2,9.58438,,0,1,137,287,88,1,stimuli/stim_20210407_power2amp/equal_lnn_AM3.6Hz_78.m4a,,,
,,,,,38881,2021-04-22_22h07.45.620,judgeSpeechMusic_20210407_logNormShiftAmp,2020.1.2,Win32,60,,,,,,,,,,,,,,,,,,,,,,,,,,2,6.8681,,0,1,138,288,63,1,stimuli/stim_20210407_power2amp/equal_lnn_AM3Hz_88.m4a,,,
,,,,,38881,2021-04-22_22h07.45.620,judgeSpeechMusic_20210407_logNormShiftAmp,2020.1.2,Win32,60,,,,,,,,,,,,,,,,,,,,,,,,,,2,9.326295,,0,1,139,289,40,1,stimuli/stim_20210407_power2amp/equal_lnn_AM1.8Hz_62.m4a,,,
,,,,,38881,2021-04-22_22h07.45.620,judgeSpeechMusic_20210407_logNormShiftAmp,2020.1.2,Win32,60,,,,,,,,,,,,,,,,,,,,,,,,,,1,9.6091,,0,1,140,290,12,1,stimuli/stim_20210407_power2amp/equal_lnn_AM0.6Hz_10.m4a,,,
,,,,,38881,2021-04-22_22h07.45.620,judgeSpeechMusic_20210407_logNormShiftAmp,2020.1.2,Win32,60,,,,,,,,,,,,,,,,,,,,,,,,,,2,6.43402,,0,1,141,291,130,1,stimuli/stim_20210407_power2amp/equal_lnn_AM5.4Hz_11.m4a,,,
,,,,,38881,2021-04-22_22h07.45.620,judgeSpeechMusic_20210407_logNormShiftAmp,2020.1.2,Win32,60,,,,,,,,,,,,,,,,,,,,,,,,,,2,8.57578,,0,1,142,292,33,1,stimuli/stim_20210407_power2amp/equal_lnn_AM1.8Hz_13.m4a,,,
,,,,,38881,2021-04-22_22h07.45.620,judgeSpeechMusic_20210407_logNormShiftAmp,2020.1.2,Win32,60,,,,,,,,,,,,,,,,,,,,,,,,,,2,7.29018,,0,1,143,293,109,1,stimuli/stim_20210407_power2amp/equal_lnn_AM4.8Hz_44.m4a,,,
,,,,,38881,2021-04-22_22h07.45.620,judgeSpeechMusic_20210407_logNormShiftAmp,2020.1.2,Win32,60,,,,,,,,,,,,,,,,,,,,,,,,,,2,7.380405,,0,1,144,294,52,1,stimuli/stim_20210407_power2amp/equal_lnn_AM2.4Hz_6.m4a,,,
,,,,,38881,2021-04-22_22h07.45.620,judgeSpeechMusic_20210407_logNormShiftAmp,2020.1.2,Win32,60,,,,,,,,,,,,,,,,,,,,,,,,,,2,6.27703,,0,1,145,295,83,1,stimuli/stim_20210407_power2amp/equal_lnn_AM3.6Hz_45.m4a,,,
,,,,,38881,2021-04-22_22h07.45.620,judgeSpeechMusic_20210407_logNormShiftAmp,2020.1.2,Win32,60,,,,,,,,,,,,,,,,,,,,,,,,,,2,6.198465,,0,1,146,296,78,1,stimuli/stim_20210407_power2amp/equal_lnn_AM3.6Hz_34.m4a,,,
,,,,,38881,2021-04-22_22h07.45.620,judgeSpeechMusic_20210407_logNormShiftAmp,2020.1.2,Win32,60,,,,,,,,,,,,,,,,,,,,,,,,,,1,6.332875,,0,1,147,297,29,1,stimuli/stim_20210407_power2amp/equal_lnn_AM1.2Hz_72.m4a,,,
,,,,,38881,2021-04-22_22h07.45.620,judgeSpeechMusic_20210407_logNormShiftAmp,2020.1.2,Win32,60,,,,,,,,,,,,,,,,,,,,,,,,,,2,6.047865,,0,1,148,298,92,1,stimuli/stim_20210407_power2amp/equal_lnn_AM4.2Hz_54.m4a,,,
,,,,,38881,2021-04-22_22h07.45.620,judgeSpeechMusic_20210407_logNormShiftAmp,2020.1.2,Win32,60,,,,,,,,,,,,,,,,,,,,,,,,,,2,6.39867,,0,1,149,299,89,1,stimuli/stim_20210407_power2amp/equal_lnn_AM3.6Hz_59.m4a,,,
,,,,,38881,2021-04-22_22h07.45.620,judgeSpeechMusic_20210407_logNormShiftAmp,2020.1.2,Win32,60,,,,,,,,,,,,,,,,,,,,,,,,,,,,,,,,,,,,,space,10.692455
