headphoneResponse.keys,headphoneResponse.corr,headphoneResponse.rt,headphoneTrial.thisRepN,headphoneTrial.thisTrialN,headphoneTrial.thisN,headphoneTrial.thisIndex,headphoneTrial.ran,headphone_sound1,headphone_sound2,headphone_sound3,corrAns,participant,date,expName,psychopyVersion,OS,frameRate,trainSlider.response,trainSlider.rt,beepTrainResponse.keys,beepTrainResponse.corr,trainingTrials.thisRepN,trainingTrials.thisTrialN,trainingTrials.thisN,trainingTrials.thisIndex,trainingTrials.ran,trainAudioFile,beepTrainResponse.rt,readyReal_resp.keys,readyReal_resp.rt,ratingSlider.response,ratingSlider.rt,beepResp.keys,beepResp.corr,expTrials.thisRepN,expTrials.thisTrialN,expTrials.thisN,expTrials.thisIndex,expTrials.ran,audioFile,beepResp.rt,end_resp.keys,end_resp.rt
2,1,0.736275,0,0,0,3,1,stimuli/screen_origin.wav,stimuli/screen_quiet.wav,stimuli/screen_antiphase.wav,2,39196,2021-04-22_13h24.32.043,judgeSpeechMusic_20210407_logNormShiftAmp,2020.1.2,MacIntel,60,,,,,,,,,,,,,,,,,,,,,,,,,,
3,1,0.970815,0,1,1,0,1,stimuli/screen_antiphase.wav,stimuli/screen_origin.wav,stimuli/screen_quiet.wav,3,39196,2021-04-22_13h24.32.043,judgeSpeechMusic_20210407_logNormShiftAmp,2020.1.2,MacIntel,60,,,,,,,,,,,,,,,,,,,,,,,,,,
2,0,2.035805,0,2,2,4,1,stimuli/screen_quiet.wav,stimuli/screen_antiphase.wav,stimuli/screen_origin.wav,1,39196,2021-04-22_13h24.32.043,judgeSpeechMusic_20210407_logNormShiftAmp,2020.1.2,MacIntel,60,,,,,,,,,,,,,,,,,,,,,,,,,,
1,1,0.663605,0,3,3,5,1,stimuli/screen_quiet.wav,stimuli/screen_origin.wav,stimuli/screen_antiphase.wav,1,39196,2021-04-22_13h24.32.043,judgeSpeechMusic_20210407_logNormShiftAmp,2020.1.2,MacIntel,60,,,,,,,,,,,,,,,,,,,,,,,,,,
2,1,0.64331,0,4,4,1,1,stimuli/screen_antiphase.wav,stimuli/screen_quiet.wav,stimuli/screen_origin.wav,2,39196,2021-04-22_13h24.32.043,judgeSpeechMusic_20210407_logNormShiftAmp,2020.1.2,MacIntel,60,,,,,,,,,,,,,,,,,,,,,,,,,,
3,1,0.624595,0,5,5,2,1,stimuli/screen_origin.wav,stimuli/screen_antiphase.wav,stimuli/screen_quiet.wav,3,39196,2021-04-22_13h24.32.043,judgeSpeechMusic_20210407_logNormShiftAmp,2020.1.2,MacIntel,60,,,,,,,,,,,,,,,,,,,,,,,,,,
,,,,,,,,,,,,39196,2021-04-22_13h24.32.043,judgeSpeechMusic_20210407_logNormShiftAmp,2020.1.2,MacIntel,60,2,11.31749,,0,0,0,0,3,1,stimuli/stim_20210407_power2amp/equal_lnn_AM_training5.1Hz.m4a,,,,,,,,,,,,,,,,
,,,,,,,,,,,,39196,2021-04-22_13h24.32.043,judgeSpeechMusic_20210407_logNormShiftAmp,2020.1.2,MacIntel,60,1,12.63336,,0,0,1,1,0,1,stimuli/stim_20210407_power2amp/equal_lnn_AM_training1.5Hz.m4a,,,,,,,,,,,,,,,,
,,,,,,,,,,,,39196,2021-04-22_13h24.32.043,judgeSpeechMusic_20210407_logNormShiftAmp,2020.1.2,MacIntel,60,2,16.747635,4,1,0,2,2,1,1,stimuli/stim_20210407_power2amp/equal_lnn_AM_training2.7Hz.m4a,2.50244,,,,,,,,,,,,,,,
,,,,,,,,,,,,39196,2021-04-22_13h24.32.043,judgeSpeechMusic_20210407_logNormShiftAmp,2020.1.2,MacIntel,60,2,9.124575,,0,0,3,3,2,1,stimuli/stim_20210407_power2amp/equal_lnn_AM_training3.9Hz.m4a,,,,,,,,,,,,,,,,
,,,,,,,,,,,,39196,2021-04-22_13h24.32.043,judgeSpeechMusic_20210407_logNormShiftAmp,2020.1.2,MacIntel,60,,,,,,,,,,,,space,14.51153,2,7.632705,,0,0,0,0,20,1,stimuli/stim_20210407_power2amp/equal_lnn_AM1.2Hz_97.m4a,,,
,,,,,,,,,,,,39196,2021-04-22_13h24.32.043,judgeSpeechMusic_20210407_logNormShiftAmp,2020.1.2,MacIntel,60,,,,,,,,,,,,,,1,8.63005,,0,0,1,1,71,1,stimuli/stim_20210407_power2amp/equal_lnn_AM3Hz_48.m4a,,,
,,,,,,,,,,,,39196,2021-04-22_13h24.32.043,judgeSpeechMusic_20210407_logNormShiftAmp,2020.1.2,MacIntel,60,,,,,,,,,,,,,,2,7.503035,,0,0,2,2,100,1,stimuli/stim_20210407_power2amp/equal_lnn_AM4.2Hz_79.m4a,,,
,,,,,,,,,,,,39196,2021-04-22_13h24.32.043,judgeSpeechMusic_20210407_logNormShiftAmp,2020.1.2,MacIntel,60,,,,,,,,,,,,,,1,7.036625,,0,0,3,3,66,1,stimuli/stim_20210407_power2amp/equal_lnn_AM3Hz_10.m4a,,,
,,,,,,,,,,,,39196,2021-04-22_13h24.32.043,judgeSpeechMusic_20210407_logNormShiftAmp,2020.1.2,MacIntel,60,,,,,,,,,,,,,,1,13.456045,,0,0,4,4,10,1,stimuli/stim_20210407_power2amp/equal_lnn_AM0.6Hz_46.m4a,,,
,,,,,,,,,,,,39196,2021-04-22_13h24.32.043,judgeSpeechMusic_20210407_logNormShiftAmp,2020.1.2,MacIntel,60,,,,,,,,,,,,,,2,10.7194,,0,0,5,5,6,1,stimuli/stim_20210407_power2amp/equal_lnn_AM0.6Hz_41.m4a,,,
,,,,,,,,,,,,39196,2021-04-22_13h24.32.043,judgeSpeechMusic_20210407_logNormShiftAmp,2020.1.2,MacIntel,60,,,,,,,,,,,,,,2,7.512455,,0,0,6,6,93,1,stimuli/stim_20210407_power2amp/equal_lnn_AM4.2Hz_36.m4a,,,
,,,,,,,,,,,,39196,2021-04-22_13h24.32.043,judgeSpeechMusic_20210407_logNormShiftAmp,2020.1.2,MacIntel,60,,,,,,,,,,,,,,1,6.38493,,0,0,7,7,125,1,stimuli/stim_20210407_power2amp/equal_lnn_AM5.4Hz_29.m4a,,,
,,,,,,,,,,,,39196,2021-04-22_13h24.32.043,judgeSpeechMusic_20210407_logNormShiftAmp,2020.1.2,MacIntel,60,,,,,,,,,,,,,,1,6.645045,,0,0,8,8,29,1,stimuli/stim_20210407_power2amp/equal_lnn_AM1.2Hz_84.m4a,,,
,,,,,,,,,,,,39196,2021-04-22_13h24.32.043,judgeSpeechMusic_20210407_logNormShiftAmp,2020.1.2,MacIntel,60,,,,,,,,,,,,,,1,9.80372,,0,0,9,9,76,1,stimuli/stim_20210407_power2amp/equal_lnn_AM3.6Hz_47.m4a,,,
,,,,,,,,,,,,39196,2021-04-22_13h24.32.043,judgeSpeechMusic_20210407_logNormShiftAmp,2020.1.2,MacIntel,60,,,,,,,,,,,,,,2,7.205375,,0,0,10,10,101,1,stimuli/stim_20210407_power2amp/equal_lnn_AM4.2Hz_40.m4a,,,
,,,,,,,,,,,,39196,2021-04-22_13h24.32.043,judgeSpeechMusic_20210407_logNormShiftAmp,2020.1.2,MacIntel,60,,,,,,,,,,,,,,1,6.70471,,0,0,11,11,72,1,stimuli/stim_20210407_power2amp/equal_lnn_AM3Hz_82.m4a,,,
,,,,,,,,,,,,39196,2021-04-22_13h24.32.043,judgeSpeechMusic_20210407_logNormShiftAmp,2020.1.2,MacIntel,60,,,,,,,,,,,,,,1,9.0738,,0,0,12,12,12,1,stimuli/stim_20210407_power2amp/equal_lnn_AM0.6Hz_56.m4a,,,
,,,,,,,,,,,,39196,2021-04-22_13h24.32.043,judgeSpeechMusic_20210407_logNormShiftAmp,2020.1.2,MacIntel,60,,,,,,,,,,,,,,2,8.60878,,0,0,13,13,62,1,stimuli/stim_20210407_power2amp/equal_lnn_AM3Hz_20.m4a,,,
,,,,,,,,,,,,39196,2021-04-22_13h24.32.043,judgeSpeechMusic_20210407_logNormShiftAmp,2020.1.2,MacIntel,60,,,,,,,,,,,,,,1,13.85583,,0,0,14,14,133,1,stimuli/stim_20210407_power2amp/equal_lnn_AM5.4Hz_48.m4a,,,
,,,,,,,,,,,,39196,2021-04-22_13h24.32.043,judgeSpeechMusic_20210407_logNormShiftAmp,2020.1.2,MacIntel,60,,,,,,,,,,,,,,2,6.743505,,0,0,15,15,85,1,stimuli/stim_20210407_power2amp/equal_lnn_AM3.6Hz_36.m4a,,,
,,,,,,,,,,,,39196,2021-04-22_13h24.32.043,judgeSpeechMusic_20210407_logNormShiftAmp,2020.1.2,MacIntel,60,,,,,,,,,,,,,,1,6.5345,,0,0,16,16,42,1,stimuli/stim_20210407_power2amp/equal_lnn_AM1.8Hz_60.m4a,,,
,,,,,,,,,,,,39196,2021-04-22_13h24.32.043,judgeSpeechMusic_20210407_logNormShiftAmp,2020.1.2,MacIntel,60,,,,,,,,,,,,,,1,6.07589,,0,0,17,17,56,1,stimuli/stim_20210407_power2amp/equal_lnn_AM2.4Hz_11.m4a,,,
,,,,,,,,,,,,39196,2021-04-22_13h24.32.043,judgeSpeechMusic_20210407_logNormShiftAmp,2020.1.2,MacIntel,60,,,,,,,,,,,,,,1,7.692015,,0,0,18,18,149,1,stimuli/stim_20210407_power2amp/equal_lnn_AM6Hz_61.m4a,,,
,,,,,,,,,,,,39196,2021-04-22_13h24.32.043,judgeSpeechMusic_20210407_logNormShiftAmp,2020.1.2,MacIntel,60,,,,,,,,,,,,,,2,8.773555,,0,0,19,19,128,1,stimuli/stim_20210407_power2amp/equal_lnn_AM5.4Hz_74.m4a,,,
,,,,,,,,,,,,39196,2021-04-22_13h24.32.043,judgeSpeechMusic_20210407_logNormShiftAmp,2020.1.2,MacIntel,60,,,,,,,,,,,,,,1,6.942565,,0,0,20,20,16,1,stimuli/stim_20210407_power2amp/equal_lnn_AM1.2Hz_62.m4a,,,
,,,,,,,,,,,,39196,2021-04-22_13h24.32.043,judgeSpeechMusic_20210407_logNormShiftAmp,2020.1.2,MacIntel,60,,,,,,,,,,,,,,2,6.50218,,0,0,21,21,146,1,stimuli/stim_20210407_power2amp/equal_lnn_AM6Hz_30.m4a,,,
,,,,,,,,,,,,39196,2021-04-22_13h24.32.043,judgeSpeechMusic_20210407_logNormShiftAmp,2020.1.2,MacIntel,60,,,,,,,,,,,,,,2,7.96398,,0,0,22,22,1,1,stimuli/stim_20210407_power2amp/equal_lnn_AM0.6Hz_48.m4a,,,
,,,,,,,,,,,,39196,2021-04-22_13h24.32.043,judgeSpeechMusic_20210407_logNormShiftAmp,2020.1.2,MacIntel,60,,,,,,,,,,,,,,1,9.185295,,0,0,23,23,61,1,stimuli/stim_20210407_power2amp/equal_lnn_AM3Hz_73.m4a,,,
,,,,,,,,,,,,39196,2021-04-22_13h24.32.043,judgeSpeechMusic_20210407_logNormShiftAmp,2020.1.2,MacIntel,60,,,,,,,,,,,,,,1,6.28987,,0,0,24,24,92,1,stimuli/stim_20210407_power2amp/equal_lnn_AM4.2Hz_29.m4a,,,
,,,,,,,,,,,,39196,2021-04-22_13h24.32.043,judgeSpeechMusic_20210407_logNormShiftAmp,2020.1.2,MacIntel,60,,,,,,,,,,,,,,2,6.82477,,0,0,25,25,46,1,stimuli/stim_20210407_power2amp/equal_lnn_AM2.4Hz_87.m4a,,,
,,,,,,,,,,,,39196,2021-04-22_13h24.32.043,judgeSpeechMusic_20210407_logNormShiftAmp,2020.1.2,MacIntel,60,,,,,,,,,,,,,,1,15.606145,,0,0,26,26,51,1,stimuli/stim_20210407_power2amp/equal_lnn_AM2.4Hz_60.m4a,,,
,,,,,,,,,,,,39196,2021-04-22_13h24.32.043,judgeSpeechMusic_20210407_logNormShiftAmp,2020.1.2,MacIntel,60,,,,,,,,,,,,,,2,7.48616,,0,0,27,27,105,1,stimuli/stim_20210407_power2amp/equal_lnn_AM4.8Hz_6.m4a,,,
,,,,,,,,,,,,39196,2021-04-22_13h24.32.043,judgeSpeechMusic_20210407_logNormShiftAmp,2020.1.2,MacIntel,60,,,,,,,,,,,,,,2,6.20428,,0,0,28,28,55,1,stimuli/stim_20210407_power2amp/equal_lnn_AM2.4Hz_18.m4a,,,
,,,,,,,,,,,,39196,2021-04-22_13h24.32.043,judgeSpeechMusic_20210407_logNormShiftAmp,2020.1.2,MacIntel,60,,,,,,,,,,,,,,2,7.70519,,0,0,29,29,77,1,stimuli/stim_20210407_power2amp/equal_lnn_AM3.6Hz_29.m4a,,,
,,,,,,,,,,,,39196,2021-04-22_13h24.32.043,judgeSpeechMusic_20210407_logNormShiftAmp,2020.1.2,MacIntel,60,,,,,,,,,,,,,,1,7.104535,1,1,0,30,30,69,1,stimuli/stim_20210407_power2amp/equal_lnn_AM3Hz_9.m4a,1.349085,,
,,,,,,,,,,,,39196,2021-04-22_13h24.32.043,judgeSpeechMusic_20210407_logNormShiftAmp,2020.1.2,MacIntel,60,,,,,,,,,,,,,,2,6.4705,,0,0,31,31,84,1,stimuli/stim_20210407_power2amp/equal_lnn_AM3.6Hz_96.m4a,,,
,,,,,,,,,,,,39196,2021-04-22_13h24.32.043,judgeSpeechMusic_20210407_logNormShiftAmp,2020.1.2,MacIntel,60,,,,,,,,,,,,,,1,7.094905,,0,0,32,32,13,1,stimuli/stim_20210407_power2amp/equal_lnn_AM0.6Hz_76.m4a,,,
,,,,,,,,,,,,39196,2021-04-22_13h24.32.043,judgeSpeechMusic_20210407_logNormShiftAmp,2020.1.2,MacIntel,60,,,,,,,,,,,,,,1,6.56824,,0,0,33,33,134,1,stimuli/stim_20210407_power2amp/equal_lnn_AM5.4Hz_16.m4a,,,
,,,,,,,,,,,,39196,2021-04-22_13h24.32.043,judgeSpeechMusic_20210407_logNormShiftAmp,2020.1.2,MacIntel,60,,,,,,,,,,,,,,1,6.401845,,0,0,34,34,30,1,stimuli/stim_20210407_power2amp/equal_lnn_AM1.8Hz_54.m4a,,,
,,,,,,,,,,,,39196,2021-04-22_13h24.32.043,judgeSpeechMusic_20210407_logNormShiftAmp,2020.1.2,MacIntel,60,,,,,,,,,,,,,,1,6.169215,,0,0,35,35,18,1,stimuli/stim_20210407_power2amp/equal_lnn_AM1.2Hz_94.m4a,,,
,,,,,,,,,,,,39196,2021-04-22_13h24.32.043,judgeSpeechMusic_20210407_logNormShiftAmp,2020.1.2,MacIntel,60,,,,,,,,,,,,,,1,6.208175,,0,0,36,36,147,1,stimuli/stim_20210407_power2amp/equal_lnn_AM6Hz_74.m4a,,,
,,,,,,,,,,,,39196,2021-04-22_13h24.32.043,judgeSpeechMusic_20210407_logNormShiftAmp,2020.1.2,MacIntel,60,,,,,,,,,,,,,,2,6.1711,,0,0,37,37,96,1,stimuli/stim_20210407_power2amp/equal_lnn_AM4.2Hz_74.m4a,,,
,,,,,,,,,,,,39196,2021-04-22_13h24.32.043,judgeSpeechMusic_20210407_logNormShiftAmp,2020.1.2,MacIntel,60,,,,,,,,,,,,,,2,7.69785,,0,0,38,38,64,1,stimuli/stim_20210407_power2amp/equal_lnn_AM3Hz_63.m4a,,,
,,,,,,,,,,,,39196,2021-04-22_13h24.32.043,judgeSpeechMusic_20210407_logNormShiftAmp,2020.1.2,MacIntel,60,,,,,,,,,,,,,,2,12.935885,,0,0,39,39,33,1,stimuli/stim_20210407_power2amp/equal_lnn_AM1.8Hz_86.m4a,,,
,,,,,,,,,,,,39196,2021-04-22_13h24.32.043,judgeSpeechMusic_20210407_logNormShiftAmp,2020.1.2,MacIntel,60,,,,,,,,,,,,,,2,6.59162,,0,0,40,40,0,1,stimuli/stim_20210407_power2amp/equal_lnn_AM0.6Hz_52.m4a,,,
,,,,,,,,,,,,39196,2021-04-22_13h24.32.043,judgeSpeechMusic_20210407_logNormShiftAmp,2020.1.2,MacIntel,60,,,,,,,,,,,,,,2,6.44237,,0,0,41,41,22,1,stimuli/stim_20210407_power2amp/equal_lnn_AM1.2Hz_98.m4a,,,
,,,,,,,,,,,,39196,2021-04-22_13h24.32.043,judgeSpeechMusic_20210407_logNormShiftAmp,2020.1.2,MacIntel,60,,,,,,,,,,,,,,1,6.586145,,0,0,42,42,140,1,stimuli/stim_20210407_power2amp/equal_lnn_AM6Hz_88.m4a,,,
,,,,,,,,,,,,39196,2021-04-22_13h24.32.043,judgeSpeechMusic_20210407_logNormShiftAmp,2020.1.2,MacIntel,60,,,,,,,,,,,,,,2,6.422905,,0,0,43,43,148,1,stimuli/stim_20210407_power2amp/equal_lnn_AM6Hz_82.m4a,,,
,,,,,,,,,,,,39196,2021-04-22_13h24.32.043,judgeSpeechMusic_20210407_logNormShiftAmp,2020.1.2,MacIntel,60,,,,,,,,,,,,,,1,9.911495,,0,0,44,44,9,1,stimuli/stim_20210407_power2amp/equal_lnn_AM0.6Hz_14.m4a,,,
,,,,,,,,,,,,39196,2021-04-22_13h24.32.043,judgeSpeechMusic_20210407_logNormShiftAmp,2020.1.2,MacIntel,60,,,,,,,,,,,,,,2,6.03974,,0,0,45,45,142,1,stimuli/stim_20210407_power2amp/equal_lnn_AM6Hz_73.m4a,,,
,,,,,,,,,,,,39196,2021-04-22_13h24.32.043,judgeSpeechMusic_20210407_logNormShiftAmp,2020.1.2,MacIntel,60,,,,,,,,,,,,,,1,7.242875,,0,0,46,46,137,1,stimuli/stim_20210407_power2amp/equal_lnn_AM6Hz_85.m4a,,,
,,,,,,,,,,,,39196,2021-04-22_13h24.32.043,judgeSpeechMusic_20210407_logNormShiftAmp,2020.1.2,MacIntel,60,,,,,,,,,,,,,,1,5.97344,,0,0,47,47,104,1,stimuli/stim_20210407_power2amp/equal_lnn_AM4.2Hz_95.m4a,,,
,,,,,,,,,,,,39196,2021-04-22_13h24.32.043,judgeSpeechMusic_20210407_logNormShiftAmp,2020.1.2,MacIntel,60,,,,,,,,,,,,,,1,5.9015,,0,0,48,48,36,1,stimuli/stim_20210407_power2amp/equal_lnn_AM1.8Hz_59.m4a,,,
,,,,,,,,,,,,39196,2021-04-22_13h24.32.043,judgeSpeechMusic_20210407_logNormShiftAmp,2020.1.2,MacIntel,60,,,,,,,,,,,,,,1,14.885825,,0,0,49,49,144,1,stimuli/stim_20210407_power2amp/equal_lnn_AM6Hz_15.m4a,,,
,,,,,,,,,,,,39196,2021-04-22_13h24.32.043,judgeSpeechMusic_20210407_logNormShiftAmp,2020.1.2,MacIntel,60,,,,,,,,,,,,,,2,6.200845,,0,0,50,50,127,1,stimuli/stim_20210407_power2amp/equal_lnn_AM5.4Hz_65.m4a,,,
,,,,,,,,,,,,39196,2021-04-22_13h24.32.043,judgeSpeechMusic_20210407_logNormShiftAmp,2020.1.2,MacIntel,60,,,,,,,,,,,,,,2,5.6392,,0,0,51,51,108,1,stimuli/stim_20210407_power2amp/equal_lnn_AM4.8Hz_39.m4a,,,
,,,,,,,,,,,,39196,2021-04-22_13h24.32.043,judgeSpeechMusic_20210407_logNormShiftAmp,2020.1.2,MacIntel,60,,,,,,,,,,,,,,1,5.902945,,0,0,52,52,139,1,stimuli/stim_20210407_power2amp/equal_lnn_AM6Hz_60.m4a,,,
,,,,,,,,,,,,39196,2021-04-22_13h24.32.043,judgeSpeechMusic_20210407_logNormShiftAmp,2020.1.2,MacIntel,60,,,,,,,,,,,,,,1,5.96844,,0,0,53,53,57,1,stimuli/stim_20210407_power2amp/equal_lnn_AM2.4Hz_42.m4a,,,
,,,,,,,,,,,,39196,2021-04-22_13h24.32.043,judgeSpeechMusic_20210407_logNormShiftAmp,2020.1.2,MacIntel,60,,,,,,,,,,,,,,1,6.039925,4,1,0,54,54,119,1,stimuli/stim_20210407_power2amp/equal_lnn_AM4.8Hz_47.m4a,1.583985,,
,,,,,,,,,,,,39196,2021-04-22_13h24.32.043,judgeSpeechMusic_20210407_logNormShiftAmp,2020.1.2,MacIntel,60,,,,,,,,,,,,,,2,6.56522,,0,0,55,55,98,1,stimuli/stim_20210407_power2amp/equal_lnn_AM4.2Hz_43.m4a,,,
,,,,,,,,,,,,39196,2021-04-22_13h24.32.043,judgeSpeechMusic_20210407_logNormShiftAmp,2020.1.2,MacIntel,60,,,,,,,,,,,,,,1,6.01792,,0,0,56,56,111,1,stimuli/stim_20210407_power2amp/equal_lnn_AM4.8Hz_41.m4a,,,
,,,,,,,,,,,,39196,2021-04-22_13h24.32.043,judgeSpeechMusic_20210407_logNormShiftAmp,2020.1.2,MacIntel,60,,,,,,,,,,,,,,2,12.786355,,0,0,57,57,135,1,stimuli/stim_20210407_power2amp/equal_lnn_AM6Hz_4.m4a,,,
,,,,,,,,,,,,39196,2021-04-22_13h24.32.043,judgeSpeechMusic_20210407_logNormShiftAmp,2020.1.2,MacIntel,60,,,,,,,,,,,,,,2,7.30162,,0,0,58,58,50,1,stimuli/stim_20210407_power2amp/equal_lnn_AM2.4Hz_36.m4a,,,
,,,,,,,,,,,,39196,2021-04-22_13h24.32.043,judgeSpeechMusic_20210407_logNormShiftAmp,2020.1.2,MacIntel,60,,,,,,,,,,,,,,1,6.95272,,0,0,59,59,14,1,stimuli/stim_20210407_power2amp/equal_lnn_AM0.6Hz_19.m4a,,,
,,,,,,,,,,,,39196,2021-04-22_13h24.32.043,judgeSpeechMusic_20210407_logNormShiftAmp,2020.1.2,MacIntel,60,,,,,,,,,,,,,,2,6.80631,,0,0,60,60,91,1,stimuli/stim_20210407_power2amp/equal_lnn_AM4.2Hz_100.m4a,,,
,,,,,,,,,,,,39196,2021-04-22_13h24.32.043,judgeSpeechMusic_20210407_logNormShiftAmp,2020.1.2,MacIntel,60,,,,,,,,,,,,,,2,6.83559,,0,0,61,61,129,1,stimuli/stim_20210407_power2amp/equal_lnn_AM5.4Hz_62.m4a,,,
,,,,,,,,,,,,39196,2021-04-22_13h24.32.043,judgeSpeechMusic_20210407_logNormShiftAmp,2020.1.2,MacIntel,60,,,,,,,,,,,,,,1,6.668365,,0,0,62,62,73,1,stimuli/stim_20210407_power2amp/equal_lnn_AM3Hz_26.m4a,,,
,,,,,,,,,,,,39196,2021-04-22_13h24.32.043,judgeSpeechMusic_20210407_logNormShiftAmp,2020.1.2,MacIntel,60,,,,,,,,,,,,,,2,7.32105,,0,0,63,63,121,1,stimuli/stim_20210407_power2amp/equal_lnn_AM5.4Hz_71.m4a,,,
,,,,,,,,,,,,39196,2021-04-22_13h24.32.043,judgeSpeechMusic_20210407_logNormShiftAmp,2020.1.2,MacIntel,60,,,,,,,,,,,,,,1,6.06837,,0,0,64,64,40,1,stimuli/stim_20210407_power2amp/equal_lnn_AM1.8Hz_26.m4a,,,
,,,,,,,,,,,,39196,2021-04-22_13h24.32.043,judgeSpeechMusic_20210407_logNormShiftAmp,2020.1.2,MacIntel,60,,,,,,,,,,,,,,1,8.418245,,0,0,65,65,81,1,stimuli/stim_20210407_power2amp/equal_lnn_AM3.6Hz_90.m4a,,,
,,,,,,,,,,,,39196,2021-04-22_13h24.32.043,judgeSpeechMusic_20210407_logNormShiftAmp,2020.1.2,MacIntel,60,,,,,,,,,,,,,,1,6.169415,,0,0,66,66,31,1,stimuli/stim_20210407_power2amp/equal_lnn_AM1.8Hz_22.m4a,,,
,,,,,,,,,,,,39196,2021-04-22_13h24.32.043,judgeSpeechMusic_20210407_logNormShiftAmp,2020.1.2,MacIntel,60,,,,,,,,,,,,,,1,8.544155,,0,0,67,67,25,1,stimuli/stim_20210407_power2amp/equal_lnn_AM1.2Hz_90.m4a,,,
,,,,,,,,,,,,39196,2021-04-22_13h24.32.043,judgeSpeechMusic_20210407_logNormShiftAmp,2020.1.2,MacIntel,60,,,,,,,,,,,,,,1,10.82456,,0,0,68,68,88,1,stimuli/stim_20210407_power2amp/equal_lnn_AM3.6Hz_26.m4a,,,
,,,,,,,,,,,,39196,2021-04-22_13h24.32.043,judgeSpeechMusic_20210407_logNormShiftAmp,2020.1.2,MacIntel,60,,,,,,,,,,,,,,2,6.103415,,0,0,69,69,109,1,stimuli/stim_20210407_power2amp/equal_lnn_AM4.8Hz_22.m4a,,,
,,,,,,,,,,,,39196,2021-04-22_13h24.32.043,judgeSpeechMusic_20210407_logNormShiftAmp,2020.1.2,MacIntel,60,,,,,,,,,,,,,,2,5.923405,,0,0,70,70,79,1,stimuli/stim_20210407_power2amp/equal_lnn_AM3.6Hz_58.m4a,,,
,,,,,,,,,,,,39196,2021-04-22_13h24.32.043,judgeSpeechMusic_20210407_logNormShiftAmp,2020.1.2,MacIntel,60,,,,,,,,,,,,,,1,6.36596,,0,0,71,71,97,1,stimuli/stim_20210407_power2amp/equal_lnn_AM4.2Hz_13.m4a,,,
,,,,,,,,,,,,39196,2021-04-22_13h24.32.043,judgeSpeechMusic_20210407_logNormShiftAmp,2020.1.2,MacIntel,60,,,,,,,,,,,,,,2,7.29113,,0,0,72,72,145,1,stimuli/stim_20210407_power2amp/equal_lnn_AM6Hz_71.m4a,,,
,,,,,,,,,,,,39196,2021-04-22_13h24.32.043,judgeSpeechMusic_20210407_logNormShiftAmp,2020.1.2,MacIntel,60,,,,,,,,,,,,,,1,6.684185,,0,0,73,73,95,1,stimuli/stim_20210407_power2amp/equal_lnn_AM4.2Hz_23.m4a,,,
,,,,,,,,,,,,39196,2021-04-22_13h24.32.043,judgeSpeechMusic_20210407_logNormShiftAmp,2020.1.2,MacIntel,60,,,,,,,,,,,,,,1,6.28677,,0,0,74,74,2,1,stimuli/stim_20210407_power2amp/equal_lnn_AM0.6Hz_50.m4a,,,
,,,,,,,,,,,,39196,2021-04-22_13h24.32.043,judgeSpeechMusic_20210407_logNormShiftAmp,2020.1.2,MacIntel,60,,,,,,,,,,,,,,1,7.393945,3,1,0,75,75,70,1,stimuli/stim_20210407_power2amp/equal_lnn_AM3Hz_42.m4a,1.709125,,
,,,,,,,,,,,,39196,2021-04-22_13h24.32.043,judgeSpeechMusic_20210407_logNormShiftAmp,2020.1.2,MacIntel,60,,,,,,,,,,,,,,1,5.95869,,0,0,76,76,15,1,stimuli/stim_20210407_power2amp/equal_lnn_AM1.2Hz_57.m4a,,,
,,,,,,,,,,,,39196,2021-04-22_13h24.32.043,judgeSpeechMusic_20210407_logNormShiftAmp,2020.1.2,MacIntel,60,,,,,,,,,,,,,,1,7.72093,,0,0,77,77,23,1,stimuli/stim_20210407_power2amp/equal_lnn_AM1.2Hz_17.m4a,,,
,,,,,,,,,,,,39196,2021-04-22_13h24.32.043,judgeSpeechMusic_20210407_logNormShiftAmp,2020.1.2,MacIntel,60,,,,,,,,,,,,,,2,7.82462,,0,0,78,78,87,1,stimuli/stim_20210407_power2amp/equal_lnn_AM3.6Hz_74.m4a,,,
,,,,,,,,,,,,39196,2021-04-22_13h24.32.043,judgeSpeechMusic_20210407_logNormShiftAmp,2020.1.2,MacIntel,60,,,,,,,,,,,,,,2,7.717835,,0,0,79,79,54,1,stimuli/stim_20210407_power2amp/equal_lnn_AM2.4Hz_73.m4a,,,
,,,,,,,,,,,,39196,2021-04-22_13h24.32.043,judgeSpeechMusic_20210407_logNormShiftAmp,2020.1.2,MacIntel,60,,,,,,,,,,,,,,2,8.453815,,0,0,80,80,138,1,stimuli/stim_20210407_power2amp/equal_lnn_AM6Hz_80.m4a,,,
,,,,,,,,,,,,39196,2021-04-22_13h24.32.043,judgeSpeechMusic_20210407_logNormShiftAmp,2020.1.2,MacIntel,60,,,,,,,,,,,,,,1,6.980885,,0,0,81,81,67,1,stimuli/stim_20210407_power2amp/equal_lnn_AM3Hz_52.m4a,,,
,,,,,,,,,,,,39196,2021-04-22_13h24.32.043,judgeSpeechMusic_20210407_logNormShiftAmp,2020.1.2,MacIntel,60,,,,,,,,,,,,,,1,7.706885,,0,0,82,82,5,1,stimuli/stim_20210407_power2amp/equal_lnn_AM0.6Hz_28.m4a,,,
,,,,,,,,,,,,39196,2021-04-22_13h24.32.043,judgeSpeechMusic_20210407_logNormShiftAmp,2020.1.2,MacIntel,60,,,,,,,,,,,,,,2,7.585805,,0,0,83,83,114,1,stimuli/stim_20210407_power2amp/equal_lnn_AM4.8Hz_26.m4a,,,
,,,,,,,,,,,,39196,2021-04-22_13h24.32.043,judgeSpeechMusic_20210407_logNormShiftAmp,2020.1.2,MacIntel,60,,,,,,,,,,,,,,2,7.40022,,0,0,84,84,117,1,stimuli/stim_20210407_power2amp/equal_lnn_AM4.8Hz_17.m4a,,,
,,,,,,,,,,,,39196,2021-04-22_13h24.32.043,judgeSpeechMusic_20210407_logNormShiftAmp,2020.1.2,MacIntel,60,,,,,,,,,,,,,,2,6.401555,,0,0,85,85,80,1,stimuli/stim_20210407_power2amp/equal_lnn_AM3.6Hz_91.m4a,,,
,,,,,,,,,,,,39196,2021-04-22_13h24.32.043,judgeSpeechMusic_20210407_logNormShiftAmp,2020.1.2,MacIntel,60,,,,,,,,,,,,,,2,6.3019,,0,0,86,86,102,1,stimuli/stim_20210407_power2amp/equal_lnn_AM4.2Hz_85.m4a,,,
,,,,,,,,,,,,39196,2021-04-22_13h24.32.043,judgeSpeechMusic_20210407_logNormShiftAmp,2020.1.2,MacIntel,60,,,,,,,,,,,,,,2,6.493155,,0,0,87,87,106,1,stimuli/stim_20210407_power2amp/equal_lnn_AM4.8Hz_14.m4a,,,
,,,,,,,,,,,,39196,2021-04-22_13h24.32.043,judgeSpeechMusic_20210407_logNormShiftAmp,2020.1.2,MacIntel,60,,,,,,,,,,,,,,1,8.47258,,0,0,88,88,83,1,stimuli/stim_20210407_power2amp/equal_lnn_AM3.6Hz_23.m4a,,,
,,,,,,,,,,,,39196,2021-04-22_13h24.32.043,judgeSpeechMusic_20210407_logNormShiftAmp,2020.1.2,MacIntel,60,,,,,,,,,,,,,,1,8.668735,,0,0,89,89,126,1,stimuli/stim_20210407_power2amp/equal_lnn_AM5.4Hz_59.m4a,,,
,,,,,,,,,,,,39196,2021-04-22_13h24.32.043,judgeSpeechMusic_20210407_logNormShiftAmp,2020.1.2,MacIntel,60,,,,,,,,,,,,,,1,6.961055,,0,0,90,90,131,1,stimuli/stim_20210407_power2amp/equal_lnn_AM5.4Hz_73.m4a,,,
,,,,,,,,,,,,39196,2021-04-22_13h24.32.043,judgeSpeechMusic_20210407_logNormShiftAmp,2020.1.2,MacIntel,60,,,,,,,,,,,,,,1,6.494565,,0,0,91,91,17,1,stimuli/stim_20210407_power2amp/equal_lnn_AM1.2Hz_76.m4a,,,
,,,,,,,,,,,,39196,2021-04-22_13h24.32.043,judgeSpeechMusic_20210407_logNormShiftAmp,2020.1.2,MacIntel,60,,,,,,,,,,,,,,2,7.82351,,0,0,92,92,141,1,stimuli/stim_20210407_power2amp/equal_lnn_AM6Hz_72.m4a,,,
,,,,,,,,,,,,39196,2021-04-22_13h24.32.043,judgeSpeechMusic_20210407_logNormShiftAmp,2020.1.2,MacIntel,60,,,,,,,,,,,,,,1,6.06991,,0,0,93,93,74,1,stimuli/stim_20210407_power2amp/equal_lnn_AM3Hz_57.m4a,,,
,,,,,,,,,,,,39196,2021-04-22_13h24.32.043,judgeSpeechMusic_20210407_logNormShiftAmp,2020.1.2,MacIntel,60,,,,,,,,,,,,,,1,11.026115,,0,0,94,94,45,1,stimuli/stim_20210407_power2amp/equal_lnn_AM2.4Hz_32.m4a,,,
,,,,,,,,,,,,39196,2021-04-22_13h24.32.043,judgeSpeechMusic_20210407_logNormShiftAmp,2020.1.2,MacIntel,60,,,,,,,,,,,,,,1,6.16144,,0,0,95,95,124,1,stimuli/stim_20210407_power2amp/equal_lnn_AM5.4Hz_11.m4a,,,
,,,,,,,,,,,,39196,2021-04-22_13h24.32.043,judgeSpeechMusic_20210407_logNormShiftAmp,2020.1.2,MacIntel,60,,,,,,,,,,,,,,2,6.484645,,0,0,96,96,113,1,stimuli/stim_20210407_power2amp/equal_lnn_AM4.8Hz_93.m4a,,,
,,,,,,,,,,,,39196,2021-04-22_13h24.32.043,judgeSpeechMusic_20210407_logNormShiftAmp,2020.1.2,MacIntel,60,,,,,,,,,,,,,,2,6.93567,,0,0,97,97,110,1,stimuli/stim_20210407_power2amp/equal_lnn_AM4.8Hz_72.m4a,,,
,,,,,,,,,,,,39196,2021-04-22_13h24.32.043,judgeSpeechMusic_20210407_logNormShiftAmp,2020.1.2,MacIntel,60,,,,,,,,,,,,,,2,24.359995,,0,0,98,98,90,1,stimuli/stim_20210407_power2amp/equal_lnn_AM4.2Hz_1.m4a,,,
,,,,,,,,,,,,39196,2021-04-22_13h24.32.043,judgeSpeechMusic_20210407_logNormShiftAmp,2020.1.2,MacIntel,60,,,,,,,,,,,,,,2,8.875385,,0,0,99,99,136,1,stimuli/stim_20210407_power2amp/equal_lnn_AM6Hz_36.m4a,,,
,,,,,,,,,,,,39196,2021-04-22_13h24.32.043,judgeSpeechMusic_20210407_logNormShiftAmp,2020.1.2,MacIntel,60,,,,,,,,,,,,,,2,5.876905,4,1,0,100,100,78,1,stimuli/stim_20210407_power2amp/equal_lnn_AM3.6Hz_95.m4a,4.126945,,
,,,,,,,,,,,,39196,2021-04-22_13h24.32.043,judgeSpeechMusic_20210407_logNormShiftAmp,2020.1.2,MacIntel,60,,,,,,,,,,,,,,2,7.133535,,0,0,101,101,82,1,stimuli/stim_20210407_power2amp/equal_lnn_AM3.6Hz_77.m4a,,,
,,,,,,,,,,,,39196,2021-04-22_13h24.32.043,judgeSpeechMusic_20210407_logNormShiftAmp,2020.1.2,MacIntel,60,,,,,,,,,,,,,,2,8.63403,,0,0,102,102,132,1,stimuli/stim_20210407_power2amp/equal_lnn_AM5.4Hz_6.m4a,,,
,,,,,,,,,,,,39196,2021-04-22_13h24.32.043,judgeSpeechMusic_20210407_logNormShiftAmp,2020.1.2,MacIntel,60,,,,,,,,,,,,,,2,7.20755,,0,0,103,103,59,1,stimuli/stim_20210407_power2amp/equal_lnn_AM2.4Hz_64.m4a,,,
,,,,,,,,,,,,39196,2021-04-22_13h24.32.043,judgeSpeechMusic_20210407_logNormShiftAmp,2020.1.2,MacIntel,60,,,,,,,,,,,,,,1,6.46775,,0,0,104,104,47,1,stimuli/stim_20210407_power2amp/equal_lnn_AM2.4Hz_89.m4a,,,
,,,,,,,,,,,,39196,2021-04-22_13h24.32.043,judgeSpeechMusic_20210407_logNormShiftAmp,2020.1.2,MacIntel,60,,,,,,,,,,,,,,1,8.34032,,0,0,105,105,39,1,stimuli/stim_20210407_power2amp/equal_lnn_AM1.8Hz_32.m4a,,,
,,,,,,,,,,,,39196,2021-04-22_13h24.32.043,judgeSpeechMusic_20210407_logNormShiftAmp,2020.1.2,MacIntel,60,,,,,,,,,,,,,,2,14.274635,,0,0,106,106,38,1,stimuli/stim_20210407_power2amp/equal_lnn_AM1.8Hz_83.m4a,,,
,,,,,,,,,,,,39196,2021-04-22_13h24.32.043,judgeSpeechMusic_20210407_logNormShiftAmp,2020.1.2,MacIntel,60,,,,,,,,,,,,,,1,6.541405,,0,0,107,107,94,1,stimuli/stim_20210407_power2amp/equal_lnn_AM4.2Hz_25.m4a,,,
,,,,,,,,,,,,39196,2021-04-22_13h24.32.043,judgeSpeechMusic_20210407_logNormShiftAmp,2020.1.2,MacIntel,60,,,,,,,,,,,,,,1,6.17441,,0,0,108,108,115,1,stimuli/stim_20210407_power2amp/equal_lnn_AM4.8Hz_91.m4a,,,
,,,,,,,,,,,,39196,2021-04-22_13h24.32.043,judgeSpeechMusic_20210407_logNormShiftAmp,2020.1.2,MacIntel,60,,,,,,,,,,,,,,1,6.07237,,0,0,109,109,26,1,stimuli/stim_20210407_power2amp/equal_lnn_AM1.2Hz_12.m4a,,,
,,,,,,,,,,,,39196,2021-04-22_13h24.32.043,judgeSpeechMusic_20210407_logNormShiftAmp,2020.1.2,MacIntel,60,,,,,,,,,,,,,,2,9.24023,,0,0,110,110,48,1,stimuli/stim_20210407_power2amp/equal_lnn_AM2.4Hz_47.m4a,,,
,,,,,,,,,,,,39196,2021-04-22_13h24.32.043,judgeSpeechMusic_20210407_logNormShiftAmp,2020.1.2,MacIntel,60,,,,,,,,,,,,,,1,6.059395,,0,0,111,111,11,1,stimuli/stim_20210407_power2amp/equal_lnn_AM0.6Hz_24.m4a,,,
,,,,,,,,,,,,39196,2021-04-22_13h24.32.043,judgeSpeechMusic_20210407_logNormShiftAmp,2020.1.2,MacIntel,60,,,,,,,,,,,,,,1,6.3453,,0,0,112,112,86,1,stimuli/stim_20210407_power2amp/equal_lnn_AM3.6Hz_93.m4a,,,
,,,,,,,,,,,,39196,2021-04-22_13h24.32.043,judgeSpeechMusic_20210407_logNormShiftAmp,2020.1.2,MacIntel,60,,,,,,,,,,,,,,1,12.458675,,0,0,113,113,41,1,stimuli/stim_20210407_power2amp/equal_lnn_AM1.8Hz_31.m4a,,,
,,,,,,,,,,,,39196,2021-04-22_13h24.32.043,judgeSpeechMusic_20210407_logNormShiftAmp,2020.1.2,MacIntel,60,,,,,,,,,,,,,,2,8.22442,,0,0,114,114,122,1,stimuli/stim_20210407_power2amp/equal_lnn_AM5.4Hz_55.m4a,,,
,,,,,,,,,,,,39196,2021-04-22_13h24.32.043,judgeSpeechMusic_20210407_logNormShiftAmp,2020.1.2,MacIntel,60,,,,,,,,,,,,,,1,6.0351,,0,0,115,115,7,1,stimuli/stim_20210407_power2amp/equal_lnn_AM0.6Hz_51.m4a,,,
,,,,,,,,,,,,39196,2021-04-22_13h24.32.043,judgeSpeechMusic_20210407_logNormShiftAmp,2020.1.2,MacIntel,60,,,,,,,,,,,,,,2,7.122385,,0,0,116,116,49,1,stimuli/stim_20210407_power2amp/equal_lnn_AM2.4Hz_70.m4a,,,
,,,,,,,,,,,,39196,2021-04-22_13h24.32.043,judgeSpeechMusic_20210407_logNormShiftAmp,2020.1.2,MacIntel,60,,,,,,,,,,,,,,1,6.3203,,0,0,117,117,4,1,stimuli/stim_20210407_power2amp/equal_lnn_AM0.6Hz_55.m4a,,,
,,,,,,,,,,,,39196,2021-04-22_13h24.32.043,judgeSpeechMusic_20210407_logNormShiftAmp,2020.1.2,MacIntel,60,,,,,,,,,,,,,,1,6.804435,,0,0,118,118,75,1,stimuli/stim_20210407_power2amp/equal_lnn_AM3.6Hz_19.m4a,,,
,,,,,,,,,,,,39196,2021-04-22_13h24.32.043,judgeSpeechMusic_20210407_logNormShiftAmp,2020.1.2,MacIntel,60,,,,,,,,,,,,,,1,6.45674,,0,0,119,119,65,1,stimuli/stim_20210407_power2amp/equal_lnn_AM3Hz_17.m4a,,,
,,,,,,,,,,,,39196,2021-04-22_13h24.32.043,judgeSpeechMusic_20210407_logNormShiftAmp,2020.1.2,MacIntel,60,,,,,,,,,,,,,,2,7.639615,,0,0,120,120,27,1,stimuli/stim_20210407_power2amp/equal_lnn_AM1.2Hz_89.m4a,,,
,,,,,,,,,,,,39196,2021-04-22_13h24.32.043,judgeSpeechMusic_20210407_logNormShiftAmp,2020.1.2,MacIntel,60,,,,,,,,,,,,,,2,6.22721,,0,0,121,121,116,1,stimuli/stim_20210407_power2amp/equal_lnn_AM4.8Hz_29.m4a,,,
,,,,,,,,,,,,39196,2021-04-22_13h24.32.043,judgeSpeechMusic_20210407_logNormShiftAmp,2020.1.2,MacIntel,60,,,,,,,,,,,,,,1,7.505185,,0,0,122,122,43,1,stimuli/stim_20210407_power2amp/equal_lnn_AM1.8Hz_76.m4a,,,
,,,,,,,,,,,,39196,2021-04-22_13h24.32.043,judgeSpeechMusic_20210407_logNormShiftAmp,2020.1.2,MacIntel,60,,,,,,,,,,,,,,1,8.27718,,0,0,123,123,44,1,stimuli/stim_20210407_power2amp/equal_lnn_AM1.8Hz_9.m4a,,,
,,,,,,,,,,,,39196,2021-04-22_13h24.32.043,judgeSpeechMusic_20210407_logNormShiftAmp,2020.1.2,MacIntel,60,,,,,,,,,,,,,,1,6.18415,4,1,0,124,124,37,1,stimuli/stim_20210407_power2amp/equal_lnn_AM1.8Hz_33.m4a,0.77562,,
,,,,,,,,,,,,39196,2021-04-22_13h24.32.043,judgeSpeechMusic_20210407_logNormShiftAmp,2020.1.2,MacIntel,60,,,,,,,,,,,,,,2,10.101415,,0,0,125,125,120,1,stimuli/stim_20210407_power2amp/equal_lnn_AM5.4Hz_3.m4a,,,
,,,,,,,,,,,,39196,2021-04-22_13h24.32.043,judgeSpeechMusic_20210407_logNormShiftAmp,2020.1.2,MacIntel,60,,,,,,,,,,,,,,2,7.568905,,0,0,126,126,58,1,stimuli/stim_20210407_power2amp/equal_lnn_AM2.4Hz_74.m4a,,,
,,,,,,,,,,,,39196,2021-04-22_13h24.32.043,judgeSpeechMusic_20210407_logNormShiftAmp,2020.1.2,MacIntel,60,,,,,,,,,,,,,,1,7.8846,,0,0,127,127,3,1,stimuli/stim_20210407_power2amp/equal_lnn_AM0.6Hz_22.m4a,,,
,,,,,,,,,,,,39196,2021-04-22_13h24.32.043,judgeSpeechMusic_20210407_logNormShiftAmp,2020.1.2,MacIntel,60,,,,,,,,,,,,,,2,6.63782,,0,0,128,128,53,1,stimuli/stim_20210407_power2amp/equal_lnn_AM2.4Hz_24.m4a,,,
,,,,,,,,,,,,39196,2021-04-22_13h24.32.043,judgeSpeechMusic_20210407_logNormShiftAmp,2020.1.2,MacIntel,60,,,,,,,,,,,,,,2,6.422095,,0,0,129,129,60,1,stimuli/stim_20210407_power2amp/equal_lnn_AM3Hz_2.m4a,,,
,,,,,,,,,,,,39196,2021-04-22_13h24.32.043,judgeSpeechMusic_20210407_logNormShiftAmp,2020.1.2,MacIntel,60,,,,,,,,,,,,,,2,6.391565,,0,0,130,130,107,1,stimuli/stim_20210407_power2amp/equal_lnn_AM4.8Hz_89.m4a,,,
,,,,,,,,,,,,39196,2021-04-22_13h24.32.043,judgeSpeechMusic_20210407_logNormShiftAmp,2020.1.2,MacIntel,60,,,,,,,,,,,,,,2,9.352695,,0,0,131,131,89,1,stimuli/stim_20210407_power2amp/equal_lnn_AM3.6Hz_34.m4a,,,
,,,,,,,,,,,,39196,2021-04-22_13h24.32.043,judgeSpeechMusic_20210407_logNormShiftAmp,2020.1.2,MacIntel,60,,,,,,,,,,,,,,1,6.352915,,0,0,132,132,32,1,stimuli/stim_20210407_power2amp/equal_lnn_AM1.8Hz_69.m4a,,,
,,,,,,,,,,,,39196,2021-04-22_13h24.32.043,judgeSpeechMusic_20210407_logNormShiftAmp,2020.1.2,MacIntel,60,,,,,,,,,,,,,,1,6.20383,,0,0,133,133,8,1,stimuli/stim_20210407_power2amp/equal_lnn_AM0.6Hz_78.m4a,,,
,,,,,,,,,,,,39196,2021-04-22_13h24.32.043,judgeSpeechMusic_20210407_logNormShiftAmp,2020.1.2,MacIntel,60,,,,,,,,,,,,,,1,6.29023,,0,0,134,134,35,1,stimuli/stim_20210407_power2amp/equal_lnn_AM1.8Hz_82.m4a,,,
,,,,,,,,,,,,39196,2021-04-22_13h24.32.043,judgeSpeechMusic_20210407_logNormShiftAmp,2020.1.2,MacIntel,60,,,,,,,,,,,,,,2,6.06837,,0,0,135,135,143,1,stimuli/stim_20210407_power2amp/equal_lnn_AM6Hz_42.m4a,,,
,,,,,,,,,,,,39196,2021-04-22_13h24.32.043,judgeSpeechMusic_20210407_logNormShiftAmp,2020.1.2,MacIntel,60,,,,,,,,,,,,,,1,6.37145,,0,0,136,136,52,1,stimuli/stim_20210407_power2amp/equal_lnn_AM2.4Hz_63.m4a,,,
,,,,,,,,,,,,39196,2021-04-22_13h24.32.043,judgeSpeechMusic_20210407_logNormShiftAmp,2020.1.2,MacIntel,60,,,,,,,,,,,,,,1,9.19256,,0,0,137,137,103,1,stimuli/stim_20210407_power2amp/equal_lnn_AM4.2Hz_34.m4a,,,
,,,,,,,,,,,,39196,2021-04-22_13h24.32.043,judgeSpeechMusic_20210407_logNormShiftAmp,2020.1.2,MacIntel,60,,,,,,,,,,,,,,1,6.943315,,0,0,138,138,21,1,stimuli/stim_20210407_power2amp/equal_lnn_AM1.2Hz_59.m4a,,,
,,,,,,,,,,,,39196,2021-04-22_13h24.32.043,judgeSpeechMusic_20210407_logNormShiftAmp,2020.1.2,MacIntel,60,,,,,,,,,,,,,,1,6.23706,,0,0,139,139,24,1,stimuli/stim_20210407_power2amp/equal_lnn_AM1.2Hz_29.m4a,,,
,,,,,,,,,,,,39196,2021-04-22_13h24.32.043,judgeSpeechMusic_20210407_logNormShiftAmp,2020.1.2,MacIntel,60,,,,,,,,,,,,,,1,6.39226,,0,0,140,140,68,1,stimuli/stim_20210407_power2amp/equal_lnn_AM3Hz_51.m4a,,,
,,,,,,,,,,,,39196,2021-04-22_13h24.32.043,judgeSpeechMusic_20210407_logNormShiftAmp,2020.1.2,MacIntel,60,,,,,,,,,,,,,,1,6.16215,,0,0,141,141,19,1,stimuli/stim_20210407_power2amp/equal_lnn_AM1.2Hz_95.m4a,,,
,,,,,,,,,,,,39196,2021-04-22_13h24.32.043,judgeSpeechMusic_20210407_logNormShiftAmp,2020.1.2,MacIntel,60,,,,,,,,,,,,,,2,6.284425,,0,0,142,142,112,1,stimuli/stim_20210407_power2amp/equal_lnn_AM4.8Hz_38.m4a,,,
,,,,,,,,,,,,39196,2021-04-22_13h24.32.043,judgeSpeechMusic_20210407_logNormShiftAmp,2020.1.2,MacIntel,60,,,,,,,,,,,,,,2,6.35061,,0,0,143,143,63,1,stimuli/stim_20210407_power2amp/equal_lnn_AM3Hz_28.m4a,,,
,,,,,,,,,,,,39196,2021-04-22_13h24.32.043,judgeSpeechMusic_20210407_logNormShiftAmp,2020.1.2,MacIntel,60,,,,,,,,,,,,,,1,6.349875,1,1,0,144,144,28,1,stimuli/stim_20210407_power2amp/equal_lnn_AM1.2Hz_69.m4a,1.37528,,
,,,,,,,,,,,,39196,2021-04-22_13h24.32.043,judgeSpeechMusic_20210407_logNormShiftAmp,2020.1.2,MacIntel,60,,,,,,,,,,,,,,2,9.955785,,0,0,145,145,34,1,stimuli/stim_20210407_power2amp/equal_lnn_AM1.8Hz_98.m4a,,,
,,,,,,,,,,,,39196,2021-04-22_13h24.32.043,judgeSpeechMusic_20210407_logNormShiftAmp,2020.1.2,MacIntel,60,,,,,,,,,,,,,,2,6.900065,,0,0,146,146,118,1,stimuli/stim_20210407_power2amp/equal_lnn_AM4.8Hz_8.m4a,,,
,,,,,,,,,,,,39196,2021-04-22_13h24.32.043,judgeSpeechMusic_20210407_logNormShiftAmp,2020.1.2,MacIntel,60,,,,,,,,,,,,,,2,6.120735,,0,0,147,147,123,1,stimuli/stim_20210407_power2amp/equal_lnn_AM5.4Hz_89.m4a,,,
,,,,,,,,,,,,39196,2021-04-22_13h24.32.043,judgeSpeechMusic_20210407_logNormShiftAmp,2020.1.2,MacIntel,60,,,,,,,,,,,,,,2,6.09064,,0,0,148,148,99,1,stimuli/stim_20210407_power2amp/equal_lnn_AM4.2Hz_71.m4a,,,
,,,,,,,,,,,,39196,2021-04-22_13h24.32.043,judgeSpeechMusic_20210407_logNormShiftAmp,2020.1.2,MacIntel,60,,,,,,,,,,,,,,2,6.191515,,0,0,149,149,130,1,stimuli/stim_20210407_power2amp/equal_lnn_AM5.4Hz_22.m4a,,,
,,,,,,,,,,,,39196,2021-04-22_13h24.32.043,judgeSpeechMusic_20210407_logNormShiftAmp,2020.1.2,MacIntel,60,,,,,,,,,,,,,,2,6.538325,,0,1,0,150,131,1,stimuli/stim_20210407_power2amp/equal_lnn_AM5.4Hz_73.m4a,,,
,,,,,,,,,,,,39196,2021-04-22_13h24.32.043,judgeSpeechMusic_20210407_logNormShiftAmp,2020.1.2,MacIntel,60,,,,,,,,,,,,,,1,6.105555,,0,1,1,151,11,1,stimuli/stim_20210407_power2amp/equal_lnn_AM0.6Hz_24.m4a,,,
,,,,,,,,,,,,39196,2021-04-22_13h24.32.043,judgeSpeechMusic_20210407_logNormShiftAmp,2020.1.2,MacIntel,60,,,,,,,,,,,,,,2,8.642565,,0,1,2,152,59,1,stimuli/stim_20210407_power2amp/equal_lnn_AM2.4Hz_64.m4a,,,
,,,,,,,,,,,,39196,2021-04-22_13h24.32.043,judgeSpeechMusic_20210407_logNormShiftAmp,2020.1.2,MacIntel,60,,,,,,,,,,,,,,1,12.82021,,0,1,3,153,72,1,stimuli/stim_20210407_power2amp/equal_lnn_AM3Hz_82.m4a,,,
,,,,,,,,,,,,39196,2021-04-22_13h24.32.043,judgeSpeechMusic_20210407_logNormShiftAmp,2020.1.2,MacIntel,60,,,,,,,,,,,,,,1,5.987785,,0,1,4,154,52,1,stimuli/stim_20210407_power2amp/equal_lnn_AM2.4Hz_63.m4a,,,
,,,,,,,,,,,,39196,2021-04-22_13h24.32.043,judgeSpeechMusic_20210407_logNormShiftAmp,2020.1.2,MacIntel,60,,,,,,,,,,,,,,1,6.20644,,0,1,5,155,113,1,stimuli/stim_20210407_power2amp/equal_lnn_AM4.8Hz_93.m4a,,,
,,,,,,,,,,,,39196,2021-04-22_13h24.32.043,judgeSpeechMusic_20210407_logNormShiftAmp,2020.1.2,MacIntel,60,,,,,,,,,,,,,,2,7.12237,,0,1,6,156,58,1,stimuli/stim_20210407_power2amp/equal_lnn_AM2.4Hz_74.m4a,,,
,,,,,,,,,,,,39196,2021-04-22_13h24.32.043,judgeSpeechMusic_20210407_logNormShiftAmp,2020.1.2,MacIntel,60,,,,,,,,,,,,,,1,6.013615,,0,1,7,157,66,1,stimuli/stim_20210407_power2amp/equal_lnn_AM3Hz_10.m4a,,,
,,,,,,,,,,,,39196,2021-04-22_13h24.32.043,judgeSpeechMusic_20210407_logNormShiftAmp,2020.1.2,MacIntel,60,,,,,,,,,,,,,,1,5.90356,,0,1,8,158,14,1,stimuli/stim_20210407_power2amp/equal_lnn_AM0.6Hz_19.m4a,,,
,,,,,,,,,,,,39196,2021-04-22_13h24.32.043,judgeSpeechMusic_20210407_logNormShiftAmp,2020.1.2,MacIntel,60,,,,,,,,,,,,,,1,6.818515,,0,1,9,159,13,1,stimuli/stim_20210407_power2amp/equal_lnn_AM0.6Hz_76.m4a,,,
,,,,,,,,,,,,39196,2021-04-22_13h24.32.043,judgeSpeechMusic_20210407_logNormShiftAmp,2020.1.2,MacIntel,60,,,,,,,,,,,,,,2,6.32105,,0,1,10,160,86,1,stimuli/stim_20210407_power2amp/equal_lnn_AM3.6Hz_93.m4a,,,
,,,,,,,,,,,,39196,2021-04-22_13h24.32.043,judgeSpeechMusic_20210407_logNormShiftAmp,2020.1.2,MacIntel,60,,,,,,,,,,,,,,2,5.96704,,0,1,11,161,101,1,stimuli/stim_20210407_power2amp/equal_lnn_AM4.2Hz_40.m4a,,,
,,,,,,,,,,,,39196,2021-04-22_13h24.32.043,judgeSpeechMusic_20210407_logNormShiftAmp,2020.1.2,MacIntel,60,,,,,,,,,,,,,,1,6.06667,,0,1,12,162,7,1,stimuli/stim_20210407_power2amp/equal_lnn_AM0.6Hz_51.m4a,,,
,,,,,,,,,,,,39196,2021-04-22_13h24.32.043,judgeSpeechMusic_20210407_logNormShiftAmp,2020.1.2,MacIntel,60,,,,,,,,,,,,,,2,7.310415,,0,1,13,163,136,1,stimuli/stim_20210407_power2amp/equal_lnn_AM6Hz_36.m4a,,,
,,,,,,,,,,,,39196,2021-04-22_13h24.32.043,judgeSpeechMusic_20210407_logNormShiftAmp,2020.1.2,MacIntel,60,,,,,,,,,,,,,,1,7.104085,,0,1,14,164,75,1,stimuli/stim_20210407_power2amp/equal_lnn_AM3.6Hz_19.m4a,,,
,,,,,,,,,,,,39196,2021-04-22_13h24.32.043,judgeSpeechMusic_20210407_logNormShiftAmp,2020.1.2,MacIntel,60,,,,,,,,,,,,,,1,6.26855,,0,1,15,165,115,1,stimuli/stim_20210407_power2amp/equal_lnn_AM4.8Hz_91.m4a,,,
,,,,,,,,,,,,39196,2021-04-22_13h24.32.043,judgeSpeechMusic_20210407_logNormShiftAmp,2020.1.2,MacIntel,60,,,,,,,,,,,,,,2,6.22496,,0,1,16,166,25,1,stimuli/stim_20210407_power2amp/equal_lnn_AM1.2Hz_90.m4a,,,
,,,,,,,,,,,,39196,2021-04-22_13h24.32.043,judgeSpeechMusic_20210407_logNormShiftAmp,2020.1.2,MacIntel,60,,,,,,,,,,,,,,1,5.62257,1,1,1,17,167,33,1,stimuli/stim_20210407_power2amp/equal_lnn_AM1.8Hz_86.m4a,1.398135,,
,,,,,,,,,,,,39196,2021-04-22_13h24.32.043,judgeSpeechMusic_20210407_logNormShiftAmp,2020.1.2,MacIntel,60,,,,,,,,,,,,,,1,6.285675,,0,1,18,168,41,1,stimuli/stim_20210407_power2amp/equal_lnn_AM1.8Hz_31.m4a,,,
,,,,,,,,,,,,39196,2021-04-22_13h24.32.043,judgeSpeechMusic_20210407_logNormShiftAmp,2020.1.2,MacIntel,60,,,,,,,,,,,,,,2,7.007235,,0,1,19,169,61,1,stimuli/stim_20210407_power2amp/equal_lnn_AM3Hz_73.m4a,,,
,,,,,,,,,,,,39196,2021-04-22_13h24.32.043,judgeSpeechMusic_20210407_logNormShiftAmp,2020.1.2,MacIntel,60,,,,,,,,,,,,,,1,6.6547,,0,1,20,170,62,1,stimuli/stim_20210407_power2amp/equal_lnn_AM3Hz_20.m4a,,,
,,,,,,,,,,,,39196,2021-04-22_13h24.32.043,judgeSpeechMusic_20210407_logNormShiftAmp,2020.1.2,MacIntel,60,,,,,,,,,,,,,,2,7.528885,,0,1,21,171,32,1,stimuli/stim_20210407_power2amp/equal_lnn_AM1.8Hz_69.m4a,,,
,,,,,,,,,,,,39196,2021-04-22_13h24.32.043,judgeSpeechMusic_20210407_logNormShiftAmp,2020.1.2,MacIntel,60,,,,,,,,,,,,,,1,6.353225,,0,1,22,172,20,1,stimuli/stim_20210407_power2amp/equal_lnn_AM1.2Hz_97.m4a,,,
,,,,,,,,,,,,39196,2021-04-22_13h24.32.043,judgeSpeechMusic_20210407_logNormShiftAmp,2020.1.2,MacIntel,60,,,,,,,,,,,,,,2,5.82499,,0,1,23,173,145,1,stimuli/stim_20210407_power2amp/equal_lnn_AM6Hz_71.m4a,,,
,,,,,,,,,,,,39196,2021-04-22_13h24.32.043,judgeSpeechMusic_20210407_logNormShiftAmp,2020.1.2,MacIntel,60,,,,,,,,,,,,,,1,5.80202,,0,1,24,174,42,1,stimuli/stim_20210407_power2amp/equal_lnn_AM1.8Hz_60.m4a,,,
,,,,,,,,,,,,39196,2021-04-22_13h24.32.043,judgeSpeechMusic_20210407_logNormShiftAmp,2020.1.2,MacIntel,60,,,,,,,,,,,,,,1,11.27913,,0,1,25,175,9,1,stimuli/stim_20210407_power2amp/equal_lnn_AM0.6Hz_14.m4a,,,
,,,,,,,,,,,,39196,2021-04-22_13h24.32.043,judgeSpeechMusic_20210407_logNormShiftAmp,2020.1.2,MacIntel,60,,,,,,,,,,,,,,2,7.08626,,0,1,26,176,106,1,stimuli/stim_20210407_power2amp/equal_lnn_AM4.8Hz_14.m4a,,,
,,,,,,,,,,,,39196,2021-04-22_13h24.32.043,judgeSpeechMusic_20210407_logNormShiftAmp,2020.1.2,MacIntel,60,,,,,,,,,,,,,,2,6.45393,,0,1,27,177,82,1,stimuli/stim_20210407_power2amp/equal_lnn_AM3.6Hz_77.m4a,,,
,,,,,,,,,,,,39196,2021-04-22_13h24.32.043,judgeSpeechMusic_20210407_logNormShiftAmp,2020.1.2,MacIntel,60,,,,,,,,,,,,,,1,5.87478,,0,1,28,178,63,1,stimuli/stim_20210407_power2amp/equal_lnn_AM3Hz_28.m4a,,,
,,,,,,,,,,,,39196,2021-04-22_13h24.32.043,judgeSpeechMusic_20210407_logNormShiftAmp,2020.1.2,MacIntel,60,,,,,,,,,,,,,,2,6.15959,,0,1,29,179,144,1,stimuli/stim_20210407_power2amp/equal_lnn_AM6Hz_15.m4a,,,
,,,,,,,,,,,,39196,2021-04-22_13h24.32.043,judgeSpeechMusic_20210407_logNormShiftAmp,2020.1.2,MacIntel,60,,,,,,,,,,,,,,1,7.493255,,0,1,30,180,36,1,stimuli/stim_20210407_power2amp/equal_lnn_AM1.8Hz_59.m4a,,,
,,,,,,,,,,,,39196,2021-04-22_13h24.32.043,judgeSpeechMusic_20210407_logNormShiftAmp,2020.1.2,MacIntel,60,,,,,,,,,,,,,,1,6.37588,,0,1,31,181,12,1,stimuli/stim_20210407_power2amp/equal_lnn_AM0.6Hz_56.m4a,,,
,,,,,,,,,,,,39196,2021-04-22_13h24.32.043,judgeSpeechMusic_20210407_logNormShiftAmp,2020.1.2,MacIntel,60,,,,,,,,,,,,,,1,7.750785,,0,1,32,182,29,1,stimuli/stim_20210407_power2amp/equal_lnn_AM1.2Hz_84.m4a,,,
,,,,,,,,,,,,39196,2021-04-22_13h24.32.043,judgeSpeechMusic_20210407_logNormShiftAmp,2020.1.2,MacIntel,60,,,,,,,,,,,,,,2,6.886755,,0,1,33,183,121,1,stimuli/stim_20210407_power2amp/equal_lnn_AM5.4Hz_71.m4a,,,
,,,,,,,,,,,,39196,2021-04-22_13h24.32.043,judgeSpeechMusic_20210407_logNormShiftAmp,2020.1.2,MacIntel,60,,,,,,,,,,,,,,2,5.758255,,0,1,34,184,134,1,stimuli/stim_20210407_power2amp/equal_lnn_AM5.4Hz_16.m4a,,,
,,,,,,,,,,,,39196,2021-04-22_13h24.32.043,judgeSpeechMusic_20210407_logNormShiftAmp,2020.1.2,MacIntel,60,,,,,,,,,,,,,,1,6.82216,,0,1,35,185,18,1,stimuli/stim_20210407_power2amp/equal_lnn_AM1.2Hz_94.m4a,,,
,,,,,,,,,,,,39196,2021-04-22_13h24.32.043,judgeSpeechMusic_20210407_logNormShiftAmp,2020.1.2,MacIntel,60,,,,,,,,,,,,,,1,7.089225,,0,1,36,186,47,1,stimuli/stim_20210407_power2amp/equal_lnn_AM2.4Hz_89.m4a,,,
,,,,,,,,,,,,39196,2021-04-22_13h24.32.043,judgeSpeechMusic_20210407_logNormShiftAmp,2020.1.2,MacIntel,60,,,,,,,,,,,,,,1,8.586995,3,1,1,37,187,16,1,stimuli/stim_20210407_power2amp/equal_lnn_AM1.2Hz_62.m4a,2.72115,,
,,,,,,,,,,,,39196,2021-04-22_13h24.32.043,judgeSpeechMusic_20210407_logNormShiftAmp,2020.1.2,MacIntel,60,,,,,,,,,,,,,,2,6.792975,,0,1,38,188,69,1,stimuli/stim_20210407_power2amp/equal_lnn_AM3Hz_9.m4a,,,
,,,,,,,,,,,,39196,2021-04-22_13h24.32.043,judgeSpeechMusic_20210407_logNormShiftAmp,2020.1.2,MacIntel,60,,,,,,,,,,,,,,2,7.65393,,0,1,39,189,107,1,stimuli/stim_20210407_power2amp/equal_lnn_AM4.8Hz_89.m4a,,,
,,,,,,,,,,,,39196,2021-04-22_13h24.32.043,judgeSpeechMusic_20210407_logNormShiftAmp,2020.1.2,MacIntel,60,,,,,,,,,,,,,,1,6.25663,,0,1,40,190,70,1,stimuli/stim_20210407_power2amp/equal_lnn_AM3Hz_42.m4a,,,
,,,,,,,,,,,,39196,2021-04-22_13h24.32.043,judgeSpeechMusic_20210407_logNormShiftAmp,2020.1.2,MacIntel,60,,,,,,,,,,,,,,2,5.79682,,0,1,41,191,105,1,stimuli/stim_20210407_power2amp/equal_lnn_AM4.8Hz_6.m4a,,,
,,,,,,,,,,,,39196,2021-04-22_13h24.32.043,judgeSpeechMusic_20210407_logNormShiftAmp,2020.1.2,MacIntel,60,,,,,,,,,,,,,,1,6.209995,,0,1,42,192,1,1,stimuli/stim_20210407_power2amp/equal_lnn_AM0.6Hz_48.m4a,,,
,,,,,,,,,,,,39196,2021-04-22_13h24.32.043,judgeSpeechMusic_20210407_logNormShiftAmp,2020.1.2,MacIntel,60,,,,,,,,,,,,,,2,6.0879,,0,1,43,193,87,1,stimuli/stim_20210407_power2amp/equal_lnn_AM3.6Hz_74.m4a,,,
,,,,,,,,,,,,39196,2021-04-22_13h24.32.043,judgeSpeechMusic_20210407_logNormShiftAmp,2020.1.2,MacIntel,60,,,,,,,,,,,,,,1,6.20481,,0,1,44,194,21,1,stimuli/stim_20210407_power2amp/equal_lnn_AM1.2Hz_59.m4a,,,
,,,,,,,,,,,,39196,2021-04-22_13h24.32.043,judgeSpeechMusic_20210407_logNormShiftAmp,2020.1.2,MacIntel,60,,,,,,,,,,,,,,2,5.73644,,0,1,45,195,60,1,stimuli/stim_20210407_power2amp/equal_lnn_AM3Hz_2.m4a,,,
,,,,,,,,,,,,39196,2021-04-22_13h24.32.043,judgeSpeechMusic_20210407_logNormShiftAmp,2020.1.2,MacIntel,60,,,,,,,,,,,,,,1,5.90328,,0,1,46,196,10,1,stimuli/stim_20210407_power2amp/equal_lnn_AM0.6Hz_46.m4a,,,
,,,,,,,,,,,,39196,2021-04-22_13h24.32.043,judgeSpeechMusic_20210407_logNormShiftAmp,2020.1.2,MacIntel,60,,,,,,,,,,,,,,2,6.68764,,0,1,47,197,38,1,stimuli/stim_20210407_power2amp/equal_lnn_AM1.8Hz_83.m4a,,,
,,,,,,,,,,,,39196,2021-04-22_13h24.32.043,judgeSpeechMusic_20210407_logNormShiftAmp,2020.1.2,MacIntel,60,,,,,,,,,,,,,,2,6.061005,,0,1,48,198,91,1,stimuli/stim_20210407_power2amp/equal_lnn_AM4.2Hz_100.m4a,,,
,,,,,,,,,,,,39196,2021-04-22_13h24.32.043,judgeSpeechMusic_20210407_logNormShiftAmp,2020.1.2,MacIntel,60,,,,,,,,,,,,,,2,7.068535,,0,1,49,199,45,1,stimuli/stim_20210407_power2amp/equal_lnn_AM2.4Hz_32.m4a,,,
,,,,,,,,,,,,39196,2021-04-22_13h24.32.043,judgeSpeechMusic_20210407_logNormShiftAmp,2020.1.2,MacIntel,60,,,,,,,,,,,,,,2,6.709405,,0,1,50,200,120,1,stimuli/stim_20210407_power2amp/equal_lnn_AM5.4Hz_3.m4a,,,
,,,,,,,,,,,,39196,2021-04-22_13h24.32.043,judgeSpeechMusic_20210407_logNormShiftAmp,2020.1.2,MacIntel,60,,,,,,,,,,,,,,1,5.92671,,0,1,51,201,6,1,stimuli/stim_20210407_power2amp/equal_lnn_AM0.6Hz_41.m4a,,,
,,,,,,,,,,,,39196,2021-04-22_13h24.32.043,judgeSpeechMusic_20210407_logNormShiftAmp,2020.1.2,MacIntel,60,,,,,,,,,,,,,,2,6.434965,,0,1,52,202,95,1,stimuli/stim_20210407_power2amp/equal_lnn_AM4.2Hz_23.m4a,,,
,,,,,,,,,,,,39196,2021-04-22_13h24.32.043,judgeSpeechMusic_20210407_logNormShiftAmp,2020.1.2,MacIntel,60,,,,,,,,,,,,,,2,6.836905,,0,1,53,203,129,1,stimuli/stim_20210407_power2amp/equal_lnn_AM5.4Hz_62.m4a,,,
,,,,,,,,,,,,39196,2021-04-22_13h24.32.043,judgeSpeechMusic_20210407_logNormShiftAmp,2020.1.2,MacIntel,60,,,,,,,,,,,,,,2,8.368005,,0,1,54,204,110,1,stimuli/stim_20210407_power2amp/equal_lnn_AM4.8Hz_72.m4a,,,
,,,,,,,,,,,,39196,2021-04-22_13h24.32.043,judgeSpeechMusic_20210407_logNormShiftAmp,2020.1.2,MacIntel,60,,,,,,,,,,,,,,1,6.2935,,0,1,55,205,140,1,stimuli/stim_20210407_power2amp/equal_lnn_AM6Hz_88.m4a,,,
,,,,,,,,,,,,39196,2021-04-22_13h24.32.043,judgeSpeechMusic_20210407_logNormShiftAmp,2020.1.2,MacIntel,60,,,,,,,,,,,,,,1,6.752535,,0,1,56,206,67,1,stimuli/stim_20210407_power2amp/equal_lnn_AM3Hz_52.m4a,,,
,,,,,,,,,,,,39196,2021-04-22_13h24.32.043,judgeSpeechMusic_20210407_logNormShiftAmp,2020.1.2,MacIntel,60,,,,,,,,,,,,,,1,6.1326,,0,1,57,207,84,1,stimuli/stim_20210407_power2amp/equal_lnn_AM3.6Hz_96.m4a,,,
,,,,,,,,,,,,39196,2021-04-22_13h24.32.043,judgeSpeechMusic_20210407_logNormShiftAmp,2020.1.2,MacIntel,60,,,,,,,,,,,,,,1,6.46977,,0,1,58,208,30,1,stimuli/stim_20210407_power2amp/equal_lnn_AM1.8Hz_54.m4a,,,
,,,,,,,,,,,,39196,2021-04-22_13h24.32.043,judgeSpeechMusic_20210407_logNormShiftAmp,2020.1.2,MacIntel,60,,,,,,,,,,,,,,2,17.538335,,0,1,59,209,111,1,stimuli/stim_20210407_power2amp/equal_lnn_AM4.8Hz_41.m4a,,,
,,,,,,,,,,,,39196,2021-04-22_13h24.32.043,judgeSpeechMusic_20210407_logNormShiftAmp,2020.1.2,MacIntel,60,,,,,,,,,,,,,,2,5.99306,3,1,1,60,210,126,1,stimuli/stim_20210407_power2amp/equal_lnn_AM5.4Hz_59.m4a,0.713525,,
,,,,,,,,,,,,39196,2021-04-22_13h24.32.043,judgeSpeechMusic_20210407_logNormShiftAmp,2020.1.2,MacIntel,60,,,,,,,,,,,,,,2,6.26875,,0,1,61,211,46,1,stimuli/stim_20210407_power2amp/equal_lnn_AM2.4Hz_87.m4a,,,
,,,,,,,,,,,,39196,2021-04-22_13h24.32.043,judgeSpeechMusic_20210407_logNormShiftAmp,2020.1.2,MacIntel,60,,,,,,,,,,,,,,1,9.023495,,0,1,62,212,26,1,stimuli/stim_20210407_power2amp/equal_lnn_AM1.2Hz_12.m4a,,,
,,,,,,,,,,,,39196,2021-04-22_13h24.32.043,judgeSpeechMusic_20210407_logNormShiftAmp,2020.1.2,MacIntel,60,,,,,,,,,,,,,,2,7.48876,,0,1,63,213,138,1,stimuli/stim_20210407_power2amp/equal_lnn_AM6Hz_80.m4a,,,
,,,,,,,,,,,,39196,2021-04-22_13h24.32.043,judgeSpeechMusic_20210407_logNormShiftAmp,2020.1.2,MacIntel,60,,,,,,,,,,,,,,2,5.942385,,0,1,64,214,124,1,stimuli/stim_20210407_power2amp/equal_lnn_AM5.4Hz_11.m4a,,,
,,,,,,,,,,,,39196,2021-04-22_13h24.32.043,judgeSpeechMusic_20210407_logNormShiftAmp,2020.1.2,MacIntel,60,,,,,,,,,,,,,,2,7.101985,,0,1,65,215,141,1,stimuli/stim_20210407_power2amp/equal_lnn_AM6Hz_72.m4a,,,
,,,,,,,,,,,,39196,2021-04-22_13h24.32.043,judgeSpeechMusic_20210407_logNormShiftAmp,2020.1.2,MacIntel,60,,,,,,,,,,,,,,1,6.563305,,0,1,66,216,148,1,stimuli/stim_20210407_power2amp/equal_lnn_AM6Hz_82.m4a,,,
,,,,,,,,,,,,39196,2021-04-22_13h24.32.043,judgeSpeechMusic_20210407_logNormShiftAmp,2020.1.2,MacIntel,60,,,,,,,,,,,,,,1,6.45649,,0,1,67,217,89,1,stimuli/stim_20210407_power2amp/equal_lnn_AM3.6Hz_34.m4a,,,
,,,,,,,,,,,,39196,2021-04-22_13h24.32.043,judgeSpeechMusic_20210407_logNormShiftAmp,2020.1.2,MacIntel,60,,,,,,,,,,,,,,1,6.51154,,0,1,68,218,56,1,stimuli/stim_20210407_power2amp/equal_lnn_AM2.4Hz_11.m4a,,,
,,,,,,,,,,,,39196,2021-04-22_13h24.32.043,judgeSpeechMusic_20210407_logNormShiftAmp,2020.1.2,MacIntel,60,,,,,,,,,,,,,,1,6.42016,,0,1,69,219,24,1,stimuli/stim_20210407_power2amp/equal_lnn_AM1.2Hz_29.m4a,,,
,,,,,,,,,,,,39196,2021-04-22_13h24.32.043,judgeSpeechMusic_20210407_logNormShiftAmp,2020.1.2,MacIntel,60,,,,,,,,,,,,,,1,6.438785,,0,1,70,220,28,1,stimuli/stim_20210407_power2amp/equal_lnn_AM1.2Hz_69.m4a,,,
,,,,,,,,,,,,39196,2021-04-22_13h24.32.043,judgeSpeechMusic_20210407_logNormShiftAmp,2020.1.2,MacIntel,60,,,,,,,,,,,,,,2,6.05459,,0,1,71,221,80,1,stimuli/stim_20210407_power2amp/equal_lnn_AM3.6Hz_91.m4a,,,
,,,,,,,,,,,,39196,2021-04-22_13h24.32.043,judgeSpeechMusic_20210407_logNormShiftAmp,2020.1.2,MacIntel,60,,,,,,,,,,,,,,2,5.79216,,0,1,72,222,109,1,stimuli/stim_20210407_power2amp/equal_lnn_AM4.8Hz_22.m4a,,,
,,,,,,,,,,,,39196,2021-04-22_13h24.32.043,judgeSpeechMusic_20210407_logNormShiftAmp,2020.1.2,MacIntel,60,,,,,,,,,,,,,,1,6.09422,,0,1,73,223,39,1,stimuli/stim_20210407_power2amp/equal_lnn_AM1.8Hz_32.m4a,,,
,,,,,,,,,,,,39196,2021-04-22_13h24.32.043,judgeSpeechMusic_20210407_logNormShiftAmp,2020.1.2,MacIntel,60,,,,,,,,,,,,,,1,7.92363,,0,1,74,224,31,1,stimuli/stim_20210407_power2amp/equal_lnn_AM1.8Hz_22.m4a,,,
,,,,,,,,,,,,39196,2021-04-22_13h24.32.043,judgeSpeechMusic_20210407_logNormShiftAmp,2020.1.2,MacIntel,60,,,,,,,,,,,,,,2,7.59773,,0,1,75,225,132,1,stimuli/stim_20210407_power2amp/equal_lnn_AM5.4Hz_6.m4a,,,
,,,,,,,,,,,,39196,2021-04-22_13h24.32.043,judgeSpeechMusic_20210407_logNormShiftAmp,2020.1.2,MacIntel,60,,,,,,,,,,,,,,1,6.813655,,0,1,76,226,57,1,stimuli/stim_20210407_power2amp/equal_lnn_AM2.4Hz_42.m4a,,,
,,,,,,,,,,,,39196,2021-04-22_13h24.32.043,judgeSpeechMusic_20210407_logNormShiftAmp,2020.1.2,MacIntel,60,,,,,,,,,,,,,,1,7.57036,,0,1,77,227,43,1,stimuli/stim_20210407_power2amp/equal_lnn_AM1.8Hz_76.m4a,,,
,,,,,,,,,,,,39196,2021-04-22_13h24.32.043,judgeSpeechMusic_20210407_logNormShiftAmp,2020.1.2,MacIntel,60,,,,,,,,,,,,,,1,6.735835,,0,1,78,228,19,1,stimuli/stim_20210407_power2amp/equal_lnn_AM1.2Hz_95.m4a,,,
,,,,,,,,,,,,39196,2021-04-22_13h24.32.043,judgeSpeechMusic_20210407_logNormShiftAmp,2020.1.2,MacIntel,60,,,,,,,,,,,,,,2,5.804115,,0,1,79,229,127,1,stimuli/stim_20210407_power2amp/equal_lnn_AM5.4Hz_65.m4a,,,
,,,,,,,,,,,,39196,2021-04-22_13h24.32.043,judgeSpeechMusic_20210407_logNormShiftAmp,2020.1.2,MacIntel,60,,,,,,,,,,,,,,2,6.686375,,0,1,80,230,90,1,stimuli/stim_20210407_power2amp/equal_lnn_AM4.2Hz_1.m4a,,,
,,,,,,,,,,,,39196,2021-04-22_13h24.32.043,judgeSpeechMusic_20210407_logNormShiftAmp,2020.1.2,MacIntel,60,,,,,,,,,,,,,,1,9.957565,,0,1,81,231,149,1,stimuli/stim_20210407_power2amp/equal_lnn_AM6Hz_61.m4a,,,
,,,,,,,,,,,,39196,2021-04-22_13h24.32.043,judgeSpeechMusic_20210407_logNormShiftAmp,2020.1.2,MacIntel,60,,,,,,,,,,,,,,1,7.73006,4,1,1,82,232,2,1,stimuli/stim_20210407_power2amp/equal_lnn_AM0.6Hz_50.m4a,0.826805,,
,,,,,,,,,,,,39196,2021-04-22_13h24.32.043,judgeSpeechMusic_20210407_logNormShiftAmp,2020.1.2,MacIntel,60,,,,,,,,,,,,,,2,11.30541,,0,1,83,233,81,1,stimuli/stim_20210407_power2amp/equal_lnn_AM3.6Hz_90.m4a,,,
,,,,,,,,,,,,39196,2021-04-22_13h24.32.043,judgeSpeechMusic_20210407_logNormShiftAmp,2020.1.2,MacIntel,60,,,,,,,,,,,,,,2,6.75488,,0,1,84,234,40,1,stimuli/stim_20210407_power2amp/equal_lnn_AM1.8Hz_26.m4a,,,
,,,,,,,,,,,,39196,2021-04-22_13h24.32.043,judgeSpeechMusic_20210407_logNormShiftAmp,2020.1.2,MacIntel,60,,,,,,,,,,,,,,2,5.703055,,0,1,85,235,123,1,stimuli/stim_20210407_power2amp/equal_lnn_AM5.4Hz_89.m4a,,,
,,,,,,,,,,,,39196,2021-04-22_13h24.32.043,judgeSpeechMusic_20210407_logNormShiftAmp,2020.1.2,MacIntel,60,,,,,,,,,,,,,,2,6.20571,,0,1,86,236,92,1,stimuli/stim_20210407_power2amp/equal_lnn_AM4.2Hz_29.m4a,,,
,,,,,,,,,,,,39196,2021-04-22_13h24.32.043,judgeSpeechMusic_20210407_logNormShiftAmp,2020.1.2,MacIntel,60,,,,,,,,,,,,,,2,6.28063,,0,1,87,237,79,1,stimuli/stim_20210407_power2amp/equal_lnn_AM3.6Hz_58.m4a,,,
,,,,,,,,,,,,39196,2021-04-22_13h24.32.043,judgeSpeechMusic_20210407_logNormShiftAmp,2020.1.2,MacIntel,60,,,,,,,,,,,,,,2,6.55546,,0,1,88,238,49,1,stimuli/stim_20210407_power2amp/equal_lnn_AM2.4Hz_70.m4a,,,
,,,,,,,,,,,,39196,2021-04-22_13h24.32.043,judgeSpeechMusic_20210407_logNormShiftAmp,2020.1.2,MacIntel,60,,,,,,,,,,,,,,2,6.20836,,0,1,89,239,137,1,stimuli/stim_20210407_power2amp/equal_lnn_AM6Hz_85.m4a,,,
,,,,,,,,,,,,39196,2021-04-22_13h24.32.043,judgeSpeechMusic_20210407_logNormShiftAmp,2020.1.2,MacIntel,60,,,,,,,,,,,,,,1,7.73783,,0,1,90,240,23,1,stimuli/stim_20210407_power2amp/equal_lnn_AM1.2Hz_17.m4a,,,
,,,,,,,,,,,,39196,2021-04-22_13h24.32.043,judgeSpeechMusic_20210407_logNormShiftAmp,2020.1.2,MacIntel,60,,,,,,,,,,,,,,2,6.50522,,0,1,91,241,76,1,stimuli/stim_20210407_power2amp/equal_lnn_AM3.6Hz_47.m4a,,,
,,,,,,,,,,,,39196,2021-04-22_13h24.32.043,judgeSpeechMusic_20210407_logNormShiftAmp,2020.1.2,MacIntel,60,,,,,,,,,,,,,,1,6.3949,,0,1,92,242,103,1,stimuli/stim_20210407_power2amp/equal_lnn_AM4.2Hz_34.m4a,,,
,,,,,,,,,,,,39196,2021-04-22_13h24.32.043,judgeSpeechMusic_20210407_logNormShiftAmp,2020.1.2,MacIntel,60,,,,,,,,,,,,,,1,6.12486,,0,1,93,243,37,1,stimuli/stim_20210407_power2amp/equal_lnn_AM1.8Hz_33.m4a,,,
,,,,,,,,,,,,39196,2021-04-22_13h24.32.043,judgeSpeechMusic_20210407_logNormShiftAmp,2020.1.2,MacIntel,60,,,,,,,,,,,,,,1,6.24367,,0,1,94,244,0,1,stimuli/stim_20210407_power2amp/equal_lnn_AM0.6Hz_52.m4a,,,
,,,,,,,,,,,,39196,2021-04-22_13h24.32.043,judgeSpeechMusic_20210407_logNormShiftAmp,2020.1.2,MacIntel,60,,,,,,,,,,,,,,2,6.936325,,0,1,95,245,130,1,stimuli/stim_20210407_power2amp/equal_lnn_AM5.4Hz_22.m4a,,,
,,,,,,,,,,,,39196,2021-04-22_13h24.32.043,judgeSpeechMusic_20210407_logNormShiftAmp,2020.1.2,MacIntel,60,,,,,,,,,,,,,,2,6.173865,,0,1,96,246,93,1,stimuli/stim_20210407_power2amp/equal_lnn_AM4.2Hz_36.m4a,,,
,,,,,,,,,,,,39196,2021-04-22_13h24.32.043,judgeSpeechMusic_20210407_logNormShiftAmp,2020.1.2,MacIntel,60,,,,,,,,,,,,,,2,5.628285,,0,1,97,247,74,1,stimuli/stim_20210407_power2amp/equal_lnn_AM3Hz_57.m4a,,,
,,,,,,,,,,,,39196,2021-04-22_13h24.32.043,judgeSpeechMusic_20210407_logNormShiftAmp,2020.1.2,MacIntel,60,,,,,,,,,,,,,,2,7.042505,,0,1,98,248,85,1,stimuli/stim_20210407_power2amp/equal_lnn_AM3.6Hz_36.m4a,,,
,,,,,,,,,,,,39196,2021-04-22_13h24.32.043,judgeSpeechMusic_20210407_logNormShiftAmp,2020.1.2,MacIntel,60,,,,,,,,,,,,,,1,7.14234,,0,1,99,249,133,1,stimuli/stim_20210407_power2amp/equal_lnn_AM5.4Hz_48.m4a,,,
,,,,,,,,,,,,39196,2021-04-22_13h24.32.043,judgeSpeechMusic_20210407_logNormShiftAmp,2020.1.2,MacIntel,60,,,,,,,,,,,,,,2,7.376845,,0,1,100,250,96,1,stimuli/stim_20210407_power2amp/equal_lnn_AM4.2Hz_74.m4a,,,
,,,,,,,,,,,,39196,2021-04-22_13h24.32.043,judgeSpeechMusic_20210407_logNormShiftAmp,2020.1.2,MacIntel,60,,,,,,,,,,,,,,1,6.76774,,0,1,101,251,71,1,stimuli/stim_20210407_power2amp/equal_lnn_AM3Hz_48.m4a,,,
,,,,,,,,,,,,39196,2021-04-22_13h24.32.043,judgeSpeechMusic_20210407_logNormShiftAmp,2020.1.2,MacIntel,60,,,,,,,,,,,,,,2,6.65334,,0,1,102,252,135,1,stimuli/stim_20210407_power2amp/equal_lnn_AM6Hz_4.m4a,,,
,,,,,,,,,,,,39196,2021-04-22_13h24.32.043,judgeSpeechMusic_20210407_logNormShiftAmp,2020.1.2,MacIntel,60,,,,,,,,,,,,,,2,7.01884,,0,1,103,253,119,1,stimuli/stim_20210407_power2amp/equal_lnn_AM4.8Hz_47.m4a,,,
,,,,,,,,,,,,39196,2021-04-22_13h24.32.043,judgeSpeechMusic_20210407_logNormShiftAmp,2020.1.2,MacIntel,60,,,,,,,,,,,,,,2,6.35316,,0,1,104,254,128,1,stimuli/stim_20210407_power2amp/equal_lnn_AM5.4Hz_74.m4a,,,
,,,,,,,,,,,,39196,2021-04-22_13h24.32.043,judgeSpeechMusic_20210407_logNormShiftAmp,2020.1.2,MacIntel,60,,,,,,,,,,,,,,1,6.2585,,0,1,105,255,104,1,stimuli/stim_20210407_power2amp/equal_lnn_AM4.2Hz_95.m4a,,,
,,,,,,,,,,,,39196,2021-04-22_13h24.32.043,judgeSpeechMusic_20210407_logNormShiftAmp,2020.1.2,MacIntel,60,,,,,,,,,,,,,,1,6.35465,2,1,1,106,256,8,1,stimuli/stim_20210407_power2amp/equal_lnn_AM0.6Hz_78.m4a,1.36643,,
,,,,,,,,,,,,39196,2021-04-22_13h24.32.043,judgeSpeechMusic_20210407_logNormShiftAmp,2020.1.2,MacIntel,60,,,,,,,,,,,,,,1,6.31701,,0,1,107,257,51,1,stimuli/stim_20210407_power2amp/equal_lnn_AM2.4Hz_60.m4a,,,
,,,,,,,,,,,,39196,2021-04-22_13h24.32.043,judgeSpeechMusic_20210407_logNormShiftAmp,2020.1.2,MacIntel,60,,,,,,,,,,,,,,1,6.979965,,0,1,108,258,83,1,stimuli/stim_20210407_power2amp/equal_lnn_AM3.6Hz_23.m4a,,,
,,,,,,,,,,,,39196,2021-04-22_13h24.32.043,judgeSpeechMusic_20210407_logNormShiftAmp,2020.1.2,MacIntel,60,,,,,,,,,,,,,,2,6.35578,,0,1,109,259,142,1,stimuli/stim_20210407_power2amp/equal_lnn_AM6Hz_73.m4a,,,
,,,,,,,,,,,,39196,2021-04-22_13h24.32.043,judgeSpeechMusic_20210407_logNormShiftAmp,2020.1.2,MacIntel,60,,,,,,,,,,,,,,2,6.207705,,0,1,110,260,77,1,stimuli/stim_20210407_power2amp/equal_lnn_AM3.6Hz_29.m4a,,,
,,,,,,,,,,,,39196,2021-04-22_13h24.32.043,judgeSpeechMusic_20210407_logNormShiftAmp,2020.1.2,MacIntel,60,,,,,,,,,,,,,,1,6.08939,,0,1,111,261,50,1,stimuli/stim_20210407_power2amp/equal_lnn_AM2.4Hz_36.m4a,,,
,,,,,,,,,,,,39196,2021-04-22_13h24.32.043,judgeSpeechMusic_20210407_logNormShiftAmp,2020.1.2,MacIntel,60,,,,,,,,,,,,,,1,6.336915,,0,1,112,262,22,1,stimuli/stim_20210407_power2amp/equal_lnn_AM1.2Hz_98.m4a,,,
,,,,,,,,,,,,39196,2021-04-22_13h24.32.043,judgeSpeechMusic_20210407_logNormShiftAmp,2020.1.2,MacIntel,60,,,,,,,,,,,,,,2,6.72292,,0,1,113,263,114,1,stimuli/stim_20210407_power2amp/equal_lnn_AM4.8Hz_26.m4a,,,
,,,,,,,,,,,,39196,2021-04-22_13h24.32.043,judgeSpeechMusic_20210407_logNormShiftAmp,2020.1.2,MacIntel,60,,,,,,,,,,,,,,1,5.801425,,0,1,114,264,143,1,stimuli/stim_20210407_power2amp/equal_lnn_AM6Hz_42.m4a,,,
,,,,,,,,,,,,39196,2021-04-22_13h24.32.043,judgeSpeechMusic_20210407_logNormShiftAmp,2020.1.2,MacIntel,60,,,,,,,,,,,,,,1,6.82009,,0,1,115,265,4,1,stimuli/stim_20210407_power2amp/equal_lnn_AM0.6Hz_55.m4a,,,
,,,,,,,,,,,,39196,2021-04-22_13h24.32.043,judgeSpeechMusic_20210407_logNormShiftAmp,2020.1.2,MacIntel,60,,,,,,,,,,,,,,2,7.754495,,0,1,116,266,112,1,stimuli/stim_20210407_power2amp/equal_lnn_AM4.8Hz_38.m4a,,,
,,,,,,,,,,,,39196,2021-04-22_13h24.32.043,judgeSpeechMusic_20210407_logNormShiftAmp,2020.1.2,MacIntel,60,,,,,,,,,,,,,,1,5.74094,,0,1,117,267,5,1,stimuli/stim_20210407_power2amp/equal_lnn_AM0.6Hz_28.m4a,,,
,,,,,,,,,,,,39196,2021-04-22_13h24.32.043,judgeSpeechMusic_20210407_logNormShiftAmp,2020.1.2,MacIntel,60,,,,,,,,,,,,,,1,6.88339,,0,1,118,268,34,1,stimuli/stim_20210407_power2amp/equal_lnn_AM1.8Hz_98.m4a,,,
,,,,,,,,,,,,39196,2021-04-22_13h24.32.043,judgeSpeechMusic_20210407_logNormShiftAmp,2020.1.2,MacIntel,60,,,,,,,,,,,,,,1,10.296765,,0,1,119,269,44,1,stimuli/stim_20210407_power2amp/equal_lnn_AM1.8Hz_9.m4a,,,
,,,,,,,,,,,,39196,2021-04-22_13h24.32.043,judgeSpeechMusic_20210407_logNormShiftAmp,2020.1.2,MacIntel,60,,,,,,,,,,,,,,1,6.560265,,0,1,120,270,125,1,stimuli/stim_20210407_power2amp/equal_lnn_AM5.4Hz_29.m4a,,,
,,,,,,,,,,,,39196,2021-04-22_13h24.32.043,judgeSpeechMusic_20210407_logNormShiftAmp,2020.1.2,MacIntel,60,,,,,,,,,,,,,,2,6.137665,,0,1,121,271,102,1,stimuli/stim_20210407_power2amp/equal_lnn_AM4.2Hz_85.m4a,,,
,,,,,,,,,,,,39196,2021-04-22_13h24.32.043,judgeSpeechMusic_20210407_logNormShiftAmp,2020.1.2,MacIntel,60,,,,,,,,,,,,,,2,6.22726,,0,1,122,272,139,1,stimuli/stim_20210407_power2amp/equal_lnn_AM6Hz_60.m4a,,,
,,,,,,,,,,,,39196,2021-04-22_13h24.32.043,judgeSpeechMusic_20210407_logNormShiftAmp,2020.1.2,MacIntel,60,,,,,,,,,,,,,,2,5.839715,,0,1,123,273,122,1,stimuli/stim_20210407_power2amp/equal_lnn_AM5.4Hz_55.m4a,,,
,,,,,,,,,,,,39196,2021-04-22_13h24.32.043,judgeSpeechMusic_20210407_logNormShiftAmp,2020.1.2,MacIntel,60,,,,,,,,,,,,,,1,9.60855,,0,1,124,274,147,1,stimuli/stim_20210407_power2amp/equal_lnn_AM6Hz_74.m4a,,,
,,,,,,,,,,,,39196,2021-04-22_13h24.32.043,judgeSpeechMusic_20210407_logNormShiftAmp,2020.1.2,MacIntel,60,,,,,,,,,,,,,,1,6.05989,,0,1,125,275,15,1,stimuli/stim_20210407_power2amp/equal_lnn_AM1.2Hz_57.m4a,,,
,,,,,,,,,,,,39196,2021-04-22_13h24.32.043,judgeSpeechMusic_20210407_logNormShiftAmp,2020.1.2,MacIntel,60,,,,,,,,,,,,,,1,5.952395,,0,1,126,276,54,1,stimuli/stim_20210407_power2amp/equal_lnn_AM2.4Hz_73.m4a,,,
,,,,,,,,,,,,39196,2021-04-22_13h24.32.043,judgeSpeechMusic_20210407_logNormShiftAmp,2020.1.2,MacIntel,60,,,,,,,,,,,,,,2,7.568645,,0,1,127,277,117,1,stimuli/stim_20210407_power2amp/equal_lnn_AM4.8Hz_17.m4a,,,
,,,,,,,,,,,,39196,2021-04-22_13h24.32.043,judgeSpeechMusic_20210407_logNormShiftAmp,2020.1.2,MacIntel,60,,,,,,,,,,,,,,2,7.61937,1,1,1,128,278,108,1,stimuli/stim_20210407_power2amp/equal_lnn_AM4.8Hz_39.m4a,1.44218,,
,,,,,,,,,,,,39196,2021-04-22_13h24.32.043,judgeSpeechMusic_20210407_logNormShiftAmp,2020.1.2,MacIntel,60,,,,,,,,,,,,,,2,6.117265,,0,1,129,279,99,1,stimuli/stim_20210407_power2amp/equal_lnn_AM4.2Hz_71.m4a,,,
,,,,,,,,,,,,39196,2021-04-22_13h24.32.043,judgeSpeechMusic_20210407_logNormShiftAmp,2020.1.2,MacIntel,60,,,,,,,,,,,,,,1,6.14515,,0,1,130,280,3,1,stimuli/stim_20210407_power2amp/equal_lnn_AM0.6Hz_22.m4a,,,
,,,,,,,,,,,,39196,2021-04-22_13h24.32.043,judgeSpeechMusic_20210407_logNormShiftAmp,2020.1.2,MacIntel,60,,,,,,,,,,,,,,1,6.31728,,0,1,131,281,98,1,stimuli/stim_20210407_power2amp/equal_lnn_AM4.2Hz_43.m4a,,,
,,,,,,,,,,,,39196,2021-04-22_13h24.32.043,judgeSpeechMusic_20210407_logNormShiftAmp,2020.1.2,MacIntel,60,,,,,,,,,,,,,,2,8.97249,,0,1,132,282,68,1,stimuli/stim_20210407_power2amp/equal_lnn_AM3Hz_51.m4a,,,
,,,,,,,,,,,,39196,2021-04-22_13h24.32.043,judgeSpeechMusic_20210407_logNormShiftAmp,2020.1.2,MacIntel,60,,,,,,,,,,,,,,2,5.812945,,0,1,133,283,94,1,stimuli/stim_20210407_power2amp/equal_lnn_AM4.2Hz_25.m4a,,,
,,,,,,,,,,,,39196,2021-04-22_13h24.32.043,judgeSpeechMusic_20210407_logNormShiftAmp,2020.1.2,MacIntel,60,,,,,,,,,,,,,,2,6.872525,,0,1,134,284,88,1,stimuli/stim_20210407_power2amp/equal_lnn_AM3.6Hz_26.m4a,,,
,,,,,,,,,,,,39196,2021-04-22_13h24.32.043,judgeSpeechMusic_20210407_logNormShiftAmp,2020.1.2,MacIntel,60,,,,,,,,,,,,,,2,14.747075,,0,1,135,285,116,1,stimuli/stim_20210407_power2amp/equal_lnn_AM4.8Hz_29.m4a,,,
,,,,,,,,,,,,39196,2021-04-22_13h24.32.043,judgeSpeechMusic_20210407_logNormShiftAmp,2020.1.2,MacIntel,60,,,,,,,,,,,,,,1,6.156815,,0,1,136,286,55,1,stimuli/stim_20210407_power2amp/equal_lnn_AM2.4Hz_18.m4a,,,
,,,,,,,,,,,,39196,2021-04-22_13h24.32.043,judgeSpeechMusic_20210407_logNormShiftAmp,2020.1.2,MacIntel,60,,,,,,,,,,,,,,2,6.30435,,0,1,137,287,48,1,stimuli/stim_20210407_power2amp/equal_lnn_AM2.4Hz_47.m4a,,,
,,,,,,,,,,,,39196,2021-04-22_13h24.32.043,judgeSpeechMusic_20210407_logNormShiftAmp,2020.1.2,MacIntel,60,,,,,,,,,,,,,,2,6.50522,,0,1,138,288,64,1,stimuli/stim_20210407_power2amp/equal_lnn_AM3Hz_63.m4a,,,
,,,,,,,,,,,,39196,2021-04-22_13h24.32.043,judgeSpeechMusic_20210407_logNormShiftAmp,2020.1.2,MacIntel,60,,,,,,,,,,,,,,2,6.870015,,0,1,139,289,97,1,stimuli/stim_20210407_power2amp/equal_lnn_AM4.2Hz_13.m4a,,,
,,,,,,,,,,,,39196,2021-04-22_13h24.32.043,judgeSpeechMusic_20210407_logNormShiftAmp,2020.1.2,MacIntel,60,,,,,,,,,,,,,,2,7.4856,,0,1,140,290,73,1,stimuli/stim_20210407_power2amp/equal_lnn_AM3Hz_26.m4a,,,
,,,,,,,,,,,,39196,2021-04-22_13h24.32.043,judgeSpeechMusic_20210407_logNormShiftAmp,2020.1.2,MacIntel,60,,,,,,,,,,,,,,2,6.13588,,0,1,141,291,118,1,stimuli/stim_20210407_power2amp/equal_lnn_AM4.8Hz_8.m4a,,,
,,,,,,,,,,,,39196,2021-04-22_13h24.32.043,judgeSpeechMusic_20210407_logNormShiftAmp,2020.1.2,MacIntel,60,,,,,,,,,,,,,,2,6.036965,,0,1,142,292,100,1,stimuli/stim_20210407_power2amp/equal_lnn_AM4.2Hz_79.m4a,,,
,,,,,,,,,,,,39196,2021-04-22_13h24.32.043,judgeSpeechMusic_20210407_logNormShiftAmp,2020.1.2,MacIntel,60,,,,,,,,,,,,,,1,6.320265,,0,1,143,293,35,1,stimuli/stim_20210407_power2amp/equal_lnn_AM1.8Hz_82.m4a,,,
,,,,,,,,,,,,39196,2021-04-22_13h24.32.043,judgeSpeechMusic_20210407_logNormShiftAmp,2020.1.2,MacIntel,60,,,,,,,,,,,,,,1,6.67026,,0,1,144,294,27,1,stimuli/stim_20210407_power2amp/equal_lnn_AM1.2Hz_89.m4a,,,
,,,,,,,,,,,,39196,2021-04-22_13h24.32.043,judgeSpeechMusic_20210407_logNormShiftAmp,2020.1.2,MacIntel,60,,,,,,,,,,,,,,1,6.520045,,0,1,145,295,17,1,stimuli/stim_20210407_power2amp/equal_lnn_AM1.2Hz_76.m4a,,,
,,,,,,,,,,,,39196,2021-04-22_13h24.32.043,judgeSpeechMusic_20210407_logNormShiftAmp,2020.1.2,MacIntel,60,,,,,,,,,,,,,,1,8.65913,,0,1,146,296,65,1,stimuli/stim_20210407_power2amp/equal_lnn_AM3Hz_17.m4a,,,
,,,,,,,,,,,,39196,2021-04-22_13h24.32.043,judgeSpeechMusic_20210407_logNormShiftAmp,2020.1.2,MacIntel,60,,,,,,,,,,,,,,1,6.254155,,0,1,147,297,53,1,stimuli/stim_20210407_power2amp/equal_lnn_AM2.4Hz_24.m4a,,,
,,,,,,,,,,,,39196,2021-04-22_13h24.32.043,judgeSpeechMusic_20210407_logNormShiftAmp,2020.1.2,MacIntel,60,,,,,,,,,,,,,,2,6.113245,,0,1,148,298,78,1,stimuli/stim_20210407_power2amp/equal_lnn_AM3.6Hz_95.m4a,,,
,,,,,,,,,,,,39196,2021-04-22_13h24.32.043,judgeSpeechMusic_20210407_logNormShiftAmp,2020.1.2,MacIntel,60,,,,,,,,,,,,,,2,5.73479,,0,1,149,299,146,1,stimuli/stim_20210407_power2amp/equal_lnn_AM6Hz_30.m4a,,,
,,,,,,,,,,,,39196,2021-04-22_13h24.32.043,judgeSpeechMusic_20210407_logNormShiftAmp,2020.1.2,MacIntel,60,,,,,,,,,,,,,,,,,,,,,,,,,space,7.772815
