headphoneResponse.keys,headphoneResponse.corr,headphoneResponse.rt,headphoneTrial.thisRepN,headphoneTrial.thisTrialN,headphoneTrial.thisN,headphoneTrial.thisIndex,headphoneTrial.ran,headphone_sound1,headphone_sound2,headphone_sound3,corrAns,participant,date,expName,psychopyVersion,OS,frameRate,trainSlider.response,trainSlider.rt,beepTrainResponse.keys,beepTrainResponse.corr,trainingTrials.thisRepN,trainingTrials.thisTrialN,trainingTrials.thisN,trainingTrials.thisIndex,trainingTrials.ran,trainAudioFile,beepTrainResponse.rt,readyReal_resp.keys,readyReal_resp.rt,ratingSlider.response,ratingSlider.rt,beepResp.keys,beepResp.corr,expTrials.thisRepN,expTrials.thisTrialN,expTrials.thisN,expTrials.thisIndex,expTrials.ran,audioFile,beepResp.rt,end_resp.keys,end_resp.rt
3,1,0.316725001,0,0,0,2,1,stimuli/screen_origin.wav,stimuli/screen_antiphase.wav,stimuli/screen_quiet.wav,3,39902,2021-05-08_18h37.00.128,judgeSpeechMusic_20210407_logNormShiftAmp,2020.1.2,MacIntel,60,,,,,,,,,,,,,,,,,,,,,,,,,,
3,1,0.33391,0,1,1,0,1,stimuli/screen_antiphase.wav,stimuli/screen_origin.wav,stimuli/screen_quiet.wav,3,39902,2021-05-08_18h37.00.128,judgeSpeechMusic_20210407_logNormShiftAmp,2020.1.2,MacIntel,60,,,,,,,,,,,,,,,,,,,,,,,,,,
2,1,0.2505,0,2,2,3,1,stimuli/screen_origin.wav,stimuli/screen_quiet.wav,stimuli/screen_antiphase.wav,2,39902,2021-05-08_18h37.00.128,judgeSpeechMusic_20210407_logNormShiftAmp,2020.1.2,MacIntel,60,,,,,,,,,,,,,,,,,,,,,,,,,,
2,1,0.266545,0,3,3,1,1,stimuli/screen_antiphase.wav,stimuli/screen_quiet.wav,stimuli/screen_origin.wav,2,39902,2021-05-08_18h37.00.128,judgeSpeechMusic_20210407_logNormShiftAmp,2020.1.2,MacIntel,60,,,,,,,,,,,,,,,,,,,,,,,,,,
1,1,0.350129999,0,4,4,4,1,stimuli/screen_quiet.wav,stimuli/screen_antiphase.wav,stimuli/screen_origin.wav,1,39902,2021-05-08_18h37.00.128,judgeSpeechMusic_20210407_logNormShiftAmp,2020.1.2,MacIntel,60,,,,,,,,,,,,,,,,,,,,,,,,,,
1,1,0.618404999,0,5,5,5,1,stimuli/screen_quiet.wav,stimuli/screen_origin.wav,stimuli/screen_antiphase.wav,1,39902,2021-05-08_18h37.00.128,judgeSpeechMusic_20210407_logNormShiftAmp,2020.1.2,MacIntel,60,,,,,,,,,,,,,,,,,,,,,,,,,,
,,,,,,,,,,,,39902,2021-05-08_18h37.00.128,judgeSpeechMusic_20210407_logNormShiftAmp,2020.1.2,MacIntel,60,1,13.04731,,0,0,0,0,3,1,stimuli/stim_20210407_power2amp/equal_lnn_AM_training5.1Hz.m4a,,,,,,,,,,,,,,,,
,,,,,,,,,,,,39902,2021-05-08_18h37.00.128,judgeSpeechMusic_20210407_logNormShiftAmp,2020.1.2,MacIntel,60,2,7.45456,,0,0,1,1,1,1,stimuli/stim_20210407_power2amp/equal_lnn_AM_training2.7Hz.m4a,,,,,,,,,,,,,,,,
,,,,,,,,,,,,39902,2021-05-08_18h37.00.128,judgeSpeechMusic_20210407_logNormShiftAmp,2020.1.2,MacIntel,60,2,6.00758,1,1,0,2,2,0,1,stimuli/stim_20210407_power2amp/equal_lnn_AM_training1.5Hz.m4a,1.843375,,,,,,,,,,,,,,,
,,,,,,,,,,,,39902,2021-05-08_18h37.00.128,judgeSpeechMusic_20210407_logNormShiftAmp,2020.1.2,MacIntel,60,2,6.42518,,0,0,3,3,2,1,stimuli/stim_20210407_power2amp/equal_lnn_AM_training3.9Hz.m4a,,,,,,,,,,,,,,,,
,,,,,,,,,,,,39902,2021-05-08_18h37.00.128,judgeSpeechMusic_20210407_logNormShiftAmp,2020.1.2,MacIntel,60,,,,,,,,,,,,space,4.94691,2,6.183379999,,0,0,0,0,91,1,stimuli/stim_20210407_power2amp/equal_lnn_AM4.2Hz_82.m4a,,,
,,,,,,,,,,,,39902,2021-05-08_18h37.00.128,judgeSpeechMusic_20210407_logNormShiftAmp,2020.1.2,MacIntel,60,,,,,,,,,,,,,,1,6.305565001,,0,0,1,1,145,1,stimuli/stim_20210407_power2amp/equal_lnn_AM6Hz_79.m4a,,,
,,,,,,,,,,,,39902,2021-05-08_18h37.00.128,judgeSpeechMusic_20210407_logNormShiftAmp,2020.1.2,MacIntel,60,,,,,,,,,,,,,,1,5.69158,,0,0,2,2,69,1,stimuli/stim_20210407_power2amp/equal_lnn_AM3Hz_57.m4a,,,
,,,,,,,,,,,,39902,2021-05-08_18h37.00.128,judgeSpeechMusic_20210407_logNormShiftAmp,2020.1.2,MacIntel,60,,,,,,,,,,,,,,1,5.439815,,0,0,3,3,122,1,stimuli/stim_20210407_power2amp/equal_lnn_AM5.4Hz_46.m4a,,,
,,,,,,,,,,,,39902,2021-05-08_18h37.00.128,judgeSpeechMusic_20210407_logNormShiftAmp,2020.1.2,MacIntel,60,,,,,,,,,,,,,,2,6.02884,,0,0,4,4,92,1,stimuli/stim_20210407_power2amp/equal_lnn_AM4.2Hz_25.m4a,,,
,,,,,,,,,,,,39902,2021-05-08_18h37.00.128,judgeSpeechMusic_20210407_logNormShiftAmp,2020.1.2,MacIntel,60,,,,,,,,,,,,,,2,5.61311,,0,0,5,5,131,1,stimuli/stim_20210407_power2amp/equal_lnn_AM5.4Hz_12.m4a,,,
,,,,,,,,,,,,39902,2021-05-08_18h37.00.128,judgeSpeechMusic_20210407_logNormShiftAmp,2020.1.2,MacIntel,60,,,,,,,,,,,,,,1,5.874644999,,0,0,6,6,23,1,stimuli/stim_20210407_power2amp/equal_lnn_AM1.2Hz_69.m4a,,,
,,,,,,,,,,,,39902,2021-05-08_18h37.00.128,judgeSpeechMusic_20210407_logNormShiftAmp,2020.1.2,MacIntel,60,,,,,,,,,,,,,,2,9.44356,,0,0,7,7,138,1,stimuli/stim_20210407_power2amp/equal_lnn_AM6Hz_94.m4a,,,
,,,,,,,,,,,,39902,2021-05-08_18h37.00.128,judgeSpeechMusic_20210407_logNormShiftAmp,2020.1.2,MacIntel,60,,,,,,,,,,,,,,2,5.64237,,0,0,8,8,143,1,stimuli/stim_20210407_power2amp/equal_lnn_AM6Hz_83.m4a,,,
,,,,,,,,,,,,39902,2021-05-08_18h37.00.128,judgeSpeechMusic_20210407_logNormShiftAmp,2020.1.2,MacIntel,60,,,,,,,,,,,,,,2,5.60785,,0,0,9,9,50,1,stimuli/stim_20210407_power2amp/equal_lnn_AM2.4Hz_55.m4a,,,
,,,,,,,,,,,,39902,2021-05-08_18h37.00.128,judgeSpeechMusic_20210407_logNormShiftAmp,2020.1.2,MacIntel,60,,,,,,,,,,,,,,2,9.824925001,,0,0,10,10,17,1,stimuli/stim_20210407_power2amp/equal_lnn_AM1.2Hz_11.m4a,,,
,,,,,,,,,,,,39902,2021-05-08_18h37.00.128,judgeSpeechMusic_20210407_logNormShiftAmp,2020.1.2,MacIntel,60,,,,,,,,,,,,,,2,8.108355001,,0,0,11,11,30,1,stimuli/stim_20210407_power2amp/equal_lnn_AM1.8Hz_92.m4a,,,
,,,,,,,,,,,,39902,2021-05-08_18h37.00.128,judgeSpeechMusic_20210407_logNormShiftAmp,2020.1.2,MacIntel,60,,,,,,,,,,,,,,2,7.523915,,0,0,12,12,119,1,stimuli/stim_20210407_power2amp/equal_lnn_AM4.8Hz_12.m4a,,,
,,,,,,,,,,,,39902,2021-05-08_18h37.00.128,judgeSpeechMusic_20210407_logNormShiftAmp,2020.1.2,MacIntel,60,,,,,,,,,,,,,,2,5.64317,,0,0,13,13,136,1,stimuli/stim_20210407_power2amp/equal_lnn_AM6Hz_43.m4a,,,
,,,,,,,,,,,,39902,2021-05-08_18h37.00.128,judgeSpeechMusic_20210407_logNormShiftAmp,2020.1.2,MacIntel,60,,,,,,,,,,,,,,1,5.891905,,0,0,14,14,1,1,stimuli/stim_20210407_power2amp/equal_lnn_AM0.6Hz_43.m4a,,,
,,,,,,,,,,,,39902,2021-05-08_18h37.00.128,judgeSpeechMusic_20210407_logNormShiftAmp,2020.1.2,MacIntel,60,,,,,,,,,,,,,,1,6.44038,,0,0,15,15,68,1,stimuli/stim_20210407_power2amp/equal_lnn_AM3Hz_4.m4a,,,
,,,,,,,,,,,,39902,2021-05-08_18h37.00.128,judgeSpeechMusic_20210407_logNormShiftAmp,2020.1.2,MacIntel,60,,,,,,,,,,,,,,2,5.93143,,0,0,16,16,28,1,stimuli/stim_20210407_power2amp/equal_lnn_AM1.2Hz_96.m4a,,,
,,,,,,,,,,,,39902,2021-05-08_18h37.00.128,judgeSpeechMusic_20210407_logNormShiftAmp,2020.1.2,MacIntel,60,,,,,,,,,,,,,,2,6.29138,,0,0,17,17,45,1,stimuli/stim_20210407_power2amp/equal_lnn_AM2.4Hz_45.m4a,,,
,,,,,,,,,,,,39902,2021-05-08_18h37.00.128,judgeSpeechMusic_20210407_logNormShiftAmp,2020.1.2,MacIntel,60,,,,,,,,,,,,,,2,6.14176,,0,0,18,18,24,1,stimuli/stim_20210407_power2amp/equal_lnn_AM1.2Hz_71.m4a,,,
,,,,,,,,,,,,39902,2021-05-08_18h37.00.128,judgeSpeechMusic_20210407_logNormShiftAmp,2020.1.2,MacIntel,60,,,,,,,,,,,,,,1,6.026835,,0,0,19,19,101,1,stimuli/stim_20210407_power2amp/equal_lnn_AM4.2Hz_14.m4a,,,
,,,,,,,,,,,,39902,2021-05-08_18h37.00.128,judgeSpeechMusic_20210407_logNormShiftAmp,2020.1.2,MacIntel,60,,,,,,,,,,,,,,2,6.645954999,,0,0,20,20,37,1,stimuli/stim_20210407_power2amp/equal_lnn_AM1.8Hz_97.m4a,,,
,,,,,,,,,,,,39902,2021-05-08_18h37.00.128,judgeSpeechMusic_20210407_logNormShiftAmp,2020.1.2,MacIntel,60,,,,,,,,,,,,,,2,6.4737,,0,0,21,21,53,1,stimuli/stim_20210407_power2amp/equal_lnn_AM2.4Hz_99.m4a,,,
,,,,,,,,,,,,39902,2021-05-08_18h37.00.128,judgeSpeechMusic_20210407_logNormShiftAmp,2020.1.2,MacIntel,60,,,,,,,,,,,,,,1,14.6738,,0,0,22,22,129,1,stimuli/stim_20210407_power2amp/equal_lnn_AM5.4Hz_78.m4a,,,
,,,,,,,,,,,,39902,2021-05-08_18h37.00.128,judgeSpeechMusic_20210407_logNormShiftAmp,2020.1.2,MacIntel,60,,,,,,,,,,,,,,1,5.562100001,,0,0,23,23,73,1,stimuli/stim_20210407_power2amp/equal_lnn_AM3Hz_10.m4a,,,
,,,,,,,,,,,,39902,2021-05-08_18h37.00.128,judgeSpeechMusic_20210407_logNormShiftAmp,2020.1.2,MacIntel,60,,,,,,,,,,,,,,2,5.994039999,,0,0,24,24,128,1,stimuli/stim_20210407_power2amp/equal_lnn_AM5.4Hz_31.m4a,,,
,,,,,,,,,,,,39902,2021-05-08_18h37.00.128,judgeSpeechMusic_20210407_logNormShiftAmp,2020.1.2,MacIntel,60,,,,,,,,,,,,,,2,8.87831,,0,0,25,25,72,1,stimuli/stim_20210407_power2amp/equal_lnn_AM3Hz_2.m4a,,,
,,,,,,,,,,,,39902,2021-05-08_18h37.00.128,judgeSpeechMusic_20210407_logNormShiftAmp,2020.1.2,MacIntel,60,,,,,,,,,,,,,,2,7.241925,,0,0,26,26,13,1,stimuli/stim_20210407_power2amp/equal_lnn_AM0.6Hz_8.m4a,,,
,,,,,,,,,,,,39902,2021-05-08_18h37.00.128,judgeSpeechMusic_20210407_logNormShiftAmp,2020.1.2,MacIntel,60,,,,,,,,,,,,,,1,5.59062,,0,0,27,27,125,1,stimuli/stim_20210407_power2amp/equal_lnn_AM5.4Hz_36.m4a,,,
,,,,,,,,,,,,39902,2021-05-08_18h37.00.128,judgeSpeechMusic_20210407_logNormShiftAmp,2020.1.2,MacIntel,60,,,,,,,,,,,,,,2,7.981249999,,0,0,28,28,59,1,stimuli/stim_20210407_power2amp/equal_lnn_AM2.4Hz_8.m4a,,,
,,,,,,,,,,,,39902,2021-05-08_18h37.00.128,judgeSpeechMusic_20210407_logNormShiftAmp,2020.1.2,MacIntel,60,,,,,,,,,,,,,,2,6.641305,,0,0,29,29,22,1,stimuli/stim_20210407_power2amp/equal_lnn_AM1.2Hz_52.m4a,,,
,,,,,,,,,,,,39902,2021-05-08_18h37.00.128,judgeSpeechMusic_20210407_logNormShiftAmp,2020.1.2,MacIntel,60,,,,,,,,,,,,,,1,5.858340001,2,1,0,30,30,52,1,stimuli/stim_20210407_power2amp/equal_lnn_AM2.4Hz_34.m4a,1.592505,,
,,,,,,,,,,,,39902,2021-05-08_18h37.00.128,judgeSpeechMusic_20210407_logNormShiftAmp,2020.1.2,MacIntel,60,,,,,,,,,,,,,,2,6.724005,,0,0,31,31,8,1,stimuli/stim_20210407_power2amp/equal_lnn_AM0.6Hz_22.m4a,,,
,,,,,,,,,,,,39902,2021-05-08_18h37.00.128,judgeSpeechMusic_20210407_logNormShiftAmp,2020.1.2,MacIntel,60,,,,,,,,,,,,,,2,5.907585001,,0,0,32,32,79,1,stimuli/stim_20210407_power2amp/equal_lnn_AM3.6Hz_36.m4a,,,
,,,,,,,,,,,,39902,2021-05-08_18h37.00.128,judgeSpeechMusic_20210407_logNormShiftAmp,2020.1.2,MacIntel,60,,,,,,,,,,,,,,1,5.791590001,,0,0,33,33,21,1,stimuli/stim_20210407_power2amp/equal_lnn_AM1.2Hz_48.m4a,,,
,,,,,,,,,,,,39902,2021-05-08_18h37.00.128,judgeSpeechMusic_20210407_logNormShiftAmp,2020.1.2,MacIntel,60,,,,,,,,,,,,,,1,5.57634,,0,0,34,34,102,1,stimuli/stim_20210407_power2amp/equal_lnn_AM4.2Hz_1.m4a,,,
,,,,,,,,,,,,39902,2021-05-08_18h37.00.128,judgeSpeechMusic_20210407_logNormShiftAmp,2020.1.2,MacIntel,60,,,,,,,,,,,,,,2,5.59043,,0,0,35,35,80,1,stimuli/stim_20210407_power2amp/equal_lnn_AM3.6Hz_70.m4a,,,
,,,,,,,,,,,,39902,2021-05-08_18h37.00.128,judgeSpeechMusic_20210407_logNormShiftAmp,2020.1.2,MacIntel,60,,,,,,,,,,,,,,2,5.424875,,0,0,36,36,96,1,stimuli/stim_20210407_power2amp/equal_lnn_AM4.2Hz_53.m4a,,,
,,,,,,,,,,,,39902,2021-05-08_18h37.00.128,judgeSpeechMusic_20210407_logNormShiftAmp,2020.1.2,MacIntel,60,,,,,,,,,,,,,,2,5.758465,,0,0,37,37,103,1,stimuli/stim_20210407_power2amp/equal_lnn_AM4.2Hz_71.m4a,,,
,,,,,,,,,,,,39902,2021-05-08_18h37.00.128,judgeSpeechMusic_20210407_logNormShiftAmp,2020.1.2,MacIntel,60,,,,,,,,,,,,,,2,6.028179999,,0,0,38,38,142,1,stimuli/stim_20210407_power2amp/equal_lnn_AM6Hz_34.m4a,,,
,,,,,,,,,,,,39902,2021-05-08_18h37.00.128,judgeSpeechMusic_20210407_logNormShiftAmp,2020.1.2,MacIntel,60,,,,,,,,,,,,,,2,7.006510001,,0,0,39,39,27,1,stimuli/stim_20210407_power2amp/equal_lnn_AM1.2Hz_43.m4a,,,
,,,,,,,,,,,,39902,2021-05-08_18h37.00.128,judgeSpeechMusic_20210407_logNormShiftAmp,2020.1.2,MacIntel,60,,,,,,,,,,,,,,1,5.875585,,0,0,40,40,148,1,stimuli/stim_20210407_power2amp/equal_lnn_AM6Hz_41.m4a,,,
,,,,,,,,,,,,39902,2021-05-08_18h37.00.128,judgeSpeechMusic_20210407_logNormShiftAmp,2020.1.2,MacIntel,60,,,,,,,,,,,,,,1,5.64078,,0,0,41,41,147,1,stimuli/stim_20210407_power2amp/equal_lnn_AM6Hz_80.m4a,,,
,,,,,,,,,,,,39902,2021-05-08_18h37.00.128,judgeSpeechMusic_20210407_logNormShiftAmp,2020.1.2,MacIntel,60,,,,,,,,,,,,,,2,5.810325,,0,0,42,42,93,1,stimuli/stim_20210407_power2amp/equal_lnn_AM4.2Hz_28.m4a,,,
,,,,,,,,,,,,39902,2021-05-08_18h37.00.128,judgeSpeechMusic_20210407_logNormShiftAmp,2020.1.2,MacIntel,60,,,,,,,,,,,,,,2,5.692305,,0,0,43,43,124,1,stimuli/stim_20210407_power2amp/equal_lnn_AM5.4Hz_60.m4a,,,
,,,,,,,,,,,,39902,2021-05-08_18h37.00.128,judgeSpeechMusic_20210407_logNormShiftAmp,2020.1.2,MacIntel,60,,,,,,,,,,,,,,2,6.34074,,0,0,44,44,38,1,stimuli/stim_20210407_power2amp/equal_lnn_AM1.8Hz_71.m4a,,,
,,,,,,,,,,,,39902,2021-05-08_18h37.00.128,judgeSpeechMusic_20210407_logNormShiftAmp,2020.1.2,MacIntel,60,,,,,,,,,,,,,,1,5.993284999,,0,0,45,45,130,1,stimuli/stim_20210407_power2amp/equal_lnn_AM5.4Hz_19.m4a,,,
,,,,,,,,,,,,39902,2021-05-08_18h37.00.128,judgeSpeechMusic_20210407_logNormShiftAmp,2020.1.2,MacIntel,60,,,,,,,,,,,,,,2,6.20817,,0,0,46,46,76,1,stimuli/stim_20210407_power2amp/equal_lnn_AM3.6Hz_27.m4a,,,
,,,,,,,,,,,,39902,2021-05-08_18h37.00.128,judgeSpeechMusic_20210407_logNormShiftAmp,2020.1.2,MacIntel,60,,,,,,,,,,,,,,1,6.991640001,,0,0,47,47,58,1,stimuli/stim_20210407_power2amp/equal_lnn_AM2.4Hz_43.m4a,,,
,,,,,,,,,,,,39902,2021-05-08_18h37.00.128,judgeSpeechMusic_20210407_logNormShiftAmp,2020.1.2,MacIntel,60,,,,,,,,,,,,,,2,6.575425001,,0,0,48,48,87,1,stimuli/stim_20210407_power2amp/equal_lnn_AM3.6Hz_17.m4a,,,
,,,,,,,,,,,,39902,2021-05-08_18h37.00.128,judgeSpeechMusic_20210407_logNormShiftAmp,2020.1.2,MacIntel,60,,,,,,,,,,,,,,2,10.122985,,0,0,49,49,70,1,stimuli/stim_20210407_power2amp/equal_lnn_AM3Hz_52.m4a,,,
,,,,,,,,,,,,39902,2021-05-08_18h37.00.128,judgeSpeechMusic_20210407_logNormShiftAmp,2020.1.2,MacIntel,60,,,,,,,,,,,,,,2,5.47552,,0,0,50,50,64,1,stimuli/stim_20210407_power2amp/equal_lnn_AM3Hz_53.m4a,,,
,,,,,,,,,,,,39902,2021-05-08_18h37.00.128,judgeSpeechMusic_20210407_logNormShiftAmp,2020.1.2,MacIntel,60,,,,,,,,,,,,,,2,5.660045,,0,0,51,51,46,1,stimuli/stim_20210407_power2amp/equal_lnn_AM2.4Hz_6.m4a,,,
,,,,,,,,,,,,39902,2021-05-08_18h37.00.128,judgeSpeechMusic_20210407_logNormShiftAmp,2020.1.2,MacIntel,60,,,,,,,,,,,,,,2,5.491605,,0,0,52,52,139,1,stimuli/stim_20210407_power2amp/equal_lnn_AM6Hz_31.m4a,,,
,,,,,,,,,,,,39902,2021-05-08_18h37.00.128,judgeSpeechMusic_20210407_logNormShiftAmp,2020.1.2,MacIntel,60,,,,,,,,,,,,,,1,5.610315,2,1,0,53,53,56,1,stimuli/stim_20210407_power2amp/equal_lnn_AM2.4Hz_46.m4a,1.211785001,,
,,,,,,,,,,,,39902,2021-05-08_18h37.00.128,judgeSpeechMusic_20210407_logNormShiftAmp,2020.1.2,MacIntel,60,,,,,,,,,,,,,,2,6.92911,,0,0,54,54,115,1,stimuli/stim_20210407_power2amp/equal_lnn_AM4.8Hz_34.m4a,,,
,,,,,,,,,,,,39902,2021-05-08_18h37.00.128,judgeSpeechMusic_20210407_logNormShiftAmp,2020.1.2,MacIntel,60,,,,,,,,,,,,,,2,5.79225,,0,0,55,55,118,1,stimuli/stim_20210407_power2amp/equal_lnn_AM4.8Hz_68.m4a,,,
,,,,,,,,,,,,39902,2021-05-08_18h37.00.128,judgeSpeechMusic_20210407_logNormShiftAmp,2020.1.2,MacIntel,60,,,,,,,,,,,,,,2,5.659825,,0,0,56,56,65,1,stimuli/stim_20210407_power2amp/equal_lnn_AM3Hz_72.m4a,,,
,,,,,,,,,,,,39902,2021-05-08_18h37.00.128,judgeSpeechMusic_20210407_logNormShiftAmp,2020.1.2,MacIntel,60,,,,,,,,,,,,,,2,7.22551,,0,0,57,57,19,1,stimuli/stim_20210407_power2amp/equal_lnn_AM1.2Hz_98.m4a,,,
,,,,,,,,,,,,39902,2021-05-08_18h37.00.128,judgeSpeechMusic_20210407_logNormShiftAmp,2020.1.2,MacIntel,60,,,,,,,,,,,,,,1,9.492365,,0,0,58,58,20,1,stimuli/stim_20210407_power2amp/equal_lnn_AM1.2Hz_81.m4a,,,
,,,,,,,,,,,,39902,2021-05-08_18h37.00.128,judgeSpeechMusic_20210407_logNormShiftAmp,2020.1.2,MacIntel,60,,,,,,,,,,,,,,1,20.55745,,0,0,59,59,3,1,stimuli/stim_20210407_power2amp/equal_lnn_AM0.6Hz_21.m4a,,,
,,,,,,,,,,,,39902,2021-05-08_18h37.00.128,judgeSpeechMusic_20210407_logNormShiftAmp,2020.1.2,MacIntel,60,,,,,,,,,,,,,,2,6.59304,,0,0,60,60,97,1,stimuli/stim_20210407_power2amp/equal_lnn_AM4.2Hz_92.m4a,,,
,,,,,,,,,,,,39902,2021-05-08_18h37.00.128,judgeSpeechMusic_20210407_logNormShiftAmp,2020.1.2,MacIntel,60,,,,,,,,,,,,,,2,6.374815,,0,0,61,61,100,1,stimuli/stim_20210407_power2amp/equal_lnn_AM4.2Hz_21.m4a,,,
,,,,,,,,,,,,39902,2021-05-08_18h37.00.128,judgeSpeechMusic_20210407_logNormShiftAmp,2020.1.2,MacIntel,60,,,,,,,,,,,,,,2,7.37464,,0,0,62,62,104,1,stimuli/stim_20210407_power2amp/equal_lnn_AM4.2Hz_91.m4a,,,
,,,,,,,,,,,,39902,2021-05-08_18h37.00.128,judgeSpeechMusic_20210407_logNormShiftAmp,2020.1.2,MacIntel,60,,,,,,,,,,,,,,2,6.594265,,0,0,63,63,110,1,stimuli/stim_20210407_power2amp/equal_lnn_AM4.8Hz_1.m4a,,,
,,,,,,,,,,,,39902,2021-05-08_18h37.00.128,judgeSpeechMusic_20210407_logNormShiftAmp,2020.1.2,MacIntel,60,,,,,,,,,,,,,,1,5.606614999,,0,0,64,64,16,1,stimuli/stim_20210407_power2amp/equal_lnn_AM1.2Hz_55.m4a,,,
,,,,,,,,,,,,39902,2021-05-08_18h37.00.128,judgeSpeechMusic_20210407_logNormShiftAmp,2020.1.2,MacIntel,60,,,,,,,,,,,,,,2,5.591864999,,0,0,65,65,127,1,stimuli/stim_20210407_power2amp/equal_lnn_AM5.4Hz_58.m4a,,,
,,,,,,,,,,,,39902,2021-05-08_18h37.00.128,judgeSpeechMusic_20210407_logNormShiftAmp,2020.1.2,MacIntel,60,,,,,,,,,,,,,,2,5.660815001,,0,0,66,66,74,1,stimuli/stim_20210407_power2amp/equal_lnn_AM3Hz_48.m4a,,,
,,,,,,,,,,,,39902,2021-05-08_18h37.00.128,judgeSpeechMusic_20210407_logNormShiftAmp,2020.1.2,MacIntel,60,,,,,,,,,,,,,,2,7.407819999,,0,0,67,67,111,1,stimuli/stim_20210407_power2amp/equal_lnn_AM4.8Hz_18.m4a,,,
,,,,,,,,,,,,39902,2021-05-08_18h37.00.128,judgeSpeechMusic_20210407_logNormShiftAmp,2020.1.2,MacIntel,60,,,,,,,,,,,,,,2,6.360119999,,0,0,68,68,106,1,stimuli/stim_20210407_power2amp/equal_lnn_AM4.8Hz_38.m4a,,,
,,,,,,,,,,,,39902,2021-05-08_18h37.00.128,judgeSpeechMusic_20210407_logNormShiftAmp,2020.1.2,MacIntel,60,,,,,,,,,,,,,,1,6.476645,,0,0,69,69,49,1,stimuli/stim_20210407_power2amp/equal_lnn_AM2.4Hz_100.m4a,,,
,,,,,,,,,,,,39902,2021-05-08_18h37.00.128,judgeSpeechMusic_20210407_logNormShiftAmp,2020.1.2,MacIntel,60,,,,,,,,,,,,,,2,12.22626,,0,0,70,70,117,1,stimuli/stim_20210407_power2amp/equal_lnn_AM4.8Hz_33.m4a,,,
,,,,,,,,,,,,39902,2021-05-08_18h37.00.128,judgeSpeechMusic_20210407_logNormShiftAmp,2020.1.2,MacIntel,60,,,,,,,,,,,,,,2,5.792205,,0,0,71,71,81,1,stimuli/stim_20210407_power2amp/equal_lnn_AM3.6Hz_48.m4a,,,
,,,,,,,,,,,,39902,2021-05-08_18h37.00.128,judgeSpeechMusic_20210407_logNormShiftAmp,2020.1.2,MacIntel,60,,,,,,,,,,,,,,1,6.524855,,0,0,72,72,146,1,stimuli/stim_20210407_power2amp/equal_lnn_AM6Hz_84.m4a,,,
,,,,,,,,,,,,39902,2021-05-08_18h37.00.128,judgeSpeechMusic_20210407_logNormShiftAmp,2020.1.2,MacIntel,60,,,,,,,,,,,,,,2,5.857989999,,0,0,73,73,120,1,stimuli/stim_20210407_power2amp/equal_lnn_AM5.4Hz_26.m4a,,,
,,,,,,,,,,,,39902,2021-05-08_18h37.00.128,judgeSpeechMusic_20210407_logNormShiftAmp,2020.1.2,MacIntel,60,,,,,,,,,,,,,,2,7.324715001,2,1,0,74,74,9,1,stimuli/stim_20210407_power2amp/equal_lnn_AM0.6Hz_53.m4a,1.311735,,
,,,,,,,,,,,,39902,2021-05-08_18h37.00.128,judgeSpeechMusic_20210407_logNormShiftAmp,2020.1.2,MacIntel,60,,,,,,,,,,,,,,2,5.925249999,,0,0,75,75,113,1,stimuli/stim_20210407_power2amp/equal_lnn_AM4.8Hz_51.m4a,,,
,,,,,,,,,,,,39902,2021-05-08_18h37.00.128,judgeSpeechMusic_20210407_logNormShiftAmp,2020.1.2,MacIntel,60,,,,,,,,,,,,,,2,8.87388,,0,0,76,76,85,1,stimuli/stim_20210407_power2amp/equal_lnn_AM3.6Hz_97.m4a,,,
,,,,,,,,,,,,39902,2021-05-08_18h37.00.128,judgeSpeechMusic_20210407_logNormShiftAmp,2020.1.2,MacIntel,60,,,,,,,,,,,,,,2,10.528845,,0,0,77,77,54,1,stimuli/stim_20210407_power2amp/equal_lnn_AM2.4Hz_53.m4a,,,
,,,,,,,,,,,,39902,2021-05-08_18h37.00.128,judgeSpeechMusic_20210407_logNormShiftAmp,2020.1.2,MacIntel,60,,,,,,,,,,,,,,2,9.557215001,,0,0,78,78,135,1,stimuli/stim_20210407_power2amp/equal_lnn_AM6Hz_87.m4a,,,
,,,,,,,,,,,,39902,2021-05-08_18h37.00.128,judgeSpeechMusic_20210407_logNormShiftAmp,2020.1.2,MacIntel,60,,,,,,,,,,,,,,2,6.33083,,0,0,79,79,60,1,stimuli/stim_20210407_power2amp/equal_lnn_AM3Hz_17.m4a,,,
,,,,,,,,,,,,39902,2021-05-08_18h37.00.128,judgeSpeechMusic_20210407_logNormShiftAmp,2020.1.2,MacIntel,60,,,,,,,,,,,,,,2,7.525195,,0,0,80,80,33,1,stimuli/stim_20210407_power2amp/equal_lnn_AM1.8Hz_66.m4a,,,
,,,,,,,,,,,,39902,2021-05-08_18h37.00.128,judgeSpeechMusic_20210407_logNormShiftAmp,2020.1.2,MacIntel,60,,,,,,,,,,,,,,2,6.99231,,0,0,81,81,99,1,stimuli/stim_20210407_power2amp/equal_lnn_AM4.2Hz_9.m4a,,,
,,,,,,,,,,,,39902,2021-05-08_18h37.00.128,judgeSpeechMusic_20210407_logNormShiftAmp,2020.1.2,MacIntel,60,,,,,,,,,,,,,,2,10.6115,,0,0,82,82,75,1,stimuli/stim_20210407_power2amp/equal_lnn_AM3.6Hz_79.m4a,,,
,,,,,,,,,,,,39902,2021-05-08_18h37.00.128,judgeSpeechMusic_20210407_logNormShiftAmp,2020.1.2,MacIntel,60,,,,,,,,,,,,,,2,18.042235,,0,0,83,83,43,1,stimuli/stim_20210407_power2amp/equal_lnn_AM1.8Hz_23.m4a,,,
,,,,,,,,,,,,39902,2021-05-08_18h37.00.128,judgeSpeechMusic_20210407_logNormShiftAmp,2020.1.2,MacIntel,60,,,,,,,,,,,,,,2,8.039995,,0,0,84,84,42,1,stimuli/stim_20210407_power2amp/equal_lnn_AM1.8Hz_15.m4a,,,
,,,,,,,,,,,,39902,2021-05-08_18h37.00.128,judgeSpeechMusic_20210407_logNormShiftAmp,2020.1.2,MacIntel,60,,,,,,,,,,,,,,2,7.71098,,0,0,85,85,71,1,stimuli/stim_20210407_power2amp/equal_lnn_AM3Hz_42.m4a,,,
,,,,,,,,,,,,39902,2021-05-08_18h37.00.128,judgeSpeechMusic_20210407_logNormShiftAmp,2020.1.2,MacIntel,60,,,,,,,,,,,,,,2,6.340005,,0,0,86,86,123,1,stimuli/stim_20210407_power2amp/equal_lnn_AM5.4Hz_98.m4a,,,
,,,,,,,,,,,,39902,2021-05-08_18h37.00.128,judgeSpeechMusic_20210407_logNormShiftAmp,2020.1.2,MacIntel,60,,,,,,,,,,,,,,2,9.178645001,,0,0,87,87,48,1,stimuli/stim_20210407_power2amp/equal_lnn_AM2.4Hz_5.m4a,,,
,,,,,,,,,,,,39902,2021-05-08_18h37.00.128,judgeSpeechMusic_20210407_logNormShiftAmp,2020.1.2,MacIntel,60,,,,,,,,,,,,,,1,5.84083,,0,0,88,88,32,1,stimuli/stim_20210407_power2amp/equal_lnn_AM1.8Hz_83.m4a,,,
,,,,,,,,,,,,39902,2021-05-08_18h37.00.128,judgeSpeechMusic_20210407_logNormShiftAmp,2020.1.2,MacIntel,60,,,,,,,,,,,,,,1,9.424685,,0,0,89,89,66,1,stimuli/stim_20210407_power2amp/equal_lnn_AM3Hz_70.m4a,,,
,,,,,,,,,,,,39902,2021-05-08_18h37.00.128,judgeSpeechMusic_20210407_logNormShiftAmp,2020.1.2,MacIntel,60,,,,,,,,,,,,,,1,5.7929,,0,0,90,90,51,1,stimuli/stim_20210407_power2amp/equal_lnn_AM2.4Hz_94.m4a,,,
,,,,,,,,,,,,39902,2021-05-08_18h37.00.128,judgeSpeechMusic_20210407_logNormShiftAmp,2020.1.2,MacIntel,60,,,,,,,,,,,,,,2,5.530945,,0,0,91,91,126,1,stimuli/stim_20210407_power2amp/equal_lnn_AM5.4Hz_81.m4a,,,
,,,,,,,,,,,,39902,2021-05-08_18h37.00.128,judgeSpeechMusic_20210407_logNormShiftAmp,2020.1.2,MacIntel,60,,,,,,,,,,,,,,2,6.991355,,0,0,92,92,134,1,stimuli/stim_20210407_power2amp/equal_lnn_AM5.4Hz_27.m4a,,,
,,,,,,,,,,,,39902,2021-05-08_18h37.00.128,judgeSpeechMusic_20210407_logNormShiftAmp,2020.1.2,MacIntel,60,,,,,,,,,,,,,,2,5.791885,,0,0,93,93,107,1,stimuli/stim_20210407_power2amp/equal_lnn_AM4.8Hz_70.m4a,,,
,,,,,,,,,,,,39902,2021-05-08_18h37.00.128,judgeSpeechMusic_20210407_logNormShiftAmp,2020.1.2,MacIntel,60,,,,,,,,,,,,,,2,6.660245,,0,0,94,94,144,1,stimuli/stim_20210407_power2amp/equal_lnn_AM6Hz_39.m4a,,,
,,,,,,,,,,,,39902,2021-05-08_18h37.00.128,judgeSpeechMusic_20210407_logNormShiftAmp,2020.1.2,MacIntel,60,,,,,,,,,,,,,,2,6.760070001,,0,0,95,95,18,1,stimuli/stim_20210407_power2amp/equal_lnn_AM1.2Hz_27.m4a,,,
,,,,,,,,,,,,39902,2021-05-08_18h37.00.128,judgeSpeechMusic_20210407_logNormShiftAmp,2020.1.2,MacIntel,60,,,,,,,,,,,,,,2,7.07428,,0,0,96,96,47,1,stimuli/stim_20210407_power2amp/equal_lnn_AM2.4Hz_17.m4a,,,
,,,,,,,,,,,,39902,2021-05-08_18h37.00.128,judgeSpeechMusic_20210407_logNormShiftAmp,2020.1.2,MacIntel,60,,,,,,,,,,,,,,2,7.09112,,0,0,97,97,15,1,stimuli/stim_20210407_power2amp/equal_lnn_AM1.2Hz_46.m4a,,,
,,,,,,,,,,,,39902,2021-05-08_18h37.00.128,judgeSpeechMusic_20210407_logNormShiftAmp,2020.1.2,MacIntel,60,,,,,,,,,,,,,,2,6.641405,2,1,0,98,98,78,1,stimuli/stim_20210407_power2amp/equal_lnn_AM3.6Hz_51.m4a,1.418695,,
,,,,,,,,,,,,39902,2021-05-08_18h37.00.128,judgeSpeechMusic_20210407_logNormShiftAmp,2020.1.2,MacIntel,60,,,,,,,,,,,,,,2,6.00625,,0,0,99,99,77,1,stimuli/stim_20210407_power2amp/equal_lnn_AM3.6Hz_47.m4a,,,
,,,,,,,,,,,,39902,2021-05-08_18h37.00.128,judgeSpeechMusic_20210407_logNormShiftAmp,2020.1.2,MacIntel,60,,,,,,,,,,,,,,2,5.912965001,,0,0,100,100,67,1,stimuli/stim_20210407_power2amp/equal_lnn_AM3Hz_5.m4a,,,
,,,,,,,,,,,,39902,2021-05-08_18h37.00.128,judgeSpeechMusic_20210407_logNormShiftAmp,2020.1.2,MacIntel,60,,,,,,,,,,,,,,2,7.028365,,0,0,101,101,95,1,stimuli/stim_20210407_power2amp/equal_lnn_AM4.2Hz_81.m4a,,,
,,,,,,,,,,,,39902,2021-05-08_18h37.00.128,judgeSpeechMusic_20210407_logNormShiftAmp,2020.1.2,MacIntel,60,,,,,,,,,,,,,,1,6.306705,,0,0,102,102,25,1,stimuli/stim_20210407_power2amp/equal_lnn_AM1.2Hz_65.m4a,,,
,,,,,,,,,,,,39902,2021-05-08_18h37.00.128,judgeSpeechMusic_20210407_logNormShiftAmp,2020.1.2,MacIntel,60,,,,,,,,,,,,,,1,15.25827,,0,0,103,103,0,1,stimuli/stim_20210407_power2amp/equal_lnn_AM0.6Hz_55.m4a,,,
,,,,,,,,,,,,39902,2021-05-08_18h37.00.128,judgeSpeechMusic_20210407_logNormShiftAmp,2020.1.2,MacIntel,60,,,,,,,,,,,,,,1,13.841495,,0,0,104,104,57,1,stimuli/stim_20210407_power2amp/equal_lnn_AM2.4Hz_31.m4a,,,
,,,,,,,,,,,,39902,2021-05-08_18h37.00.128,judgeSpeechMusic_20210407_logNormShiftAmp,2020.1.2,MacIntel,60,,,,,,,,,,,,,,1,5.607775,,0,0,105,105,12,1,stimuli/stim_20210407_power2amp/equal_lnn_AM0.6Hz_52.m4a,,,
,,,,,,,,,,,,39902,2021-05-08_18h37.00.128,judgeSpeechMusic_20210407_logNormShiftAmp,2020.1.2,MacIntel,60,,,,,,,,,,,,,,1,5.674199999,,0,0,106,106,88,1,stimuli/stim_20210407_power2amp/equal_lnn_AM3.6Hz_19.m4a,,,
,,,,,,,,,,,,39902,2021-05-08_18h37.00.128,judgeSpeechMusic_20210407_logNormShiftAmp,2020.1.2,MacIntel,60,,,,,,,,,,,,,,2,8.257205,,0,0,107,107,39,1,stimuli/stim_20210407_power2amp/equal_lnn_AM1.8Hz_34.m4a,,,
,,,,,,,,,,,,39902,2021-05-08_18h37.00.128,judgeSpeechMusic_20210407_logNormShiftAmp,2020.1.2,MacIntel,60,,,,,,,,,,,,,,2,5.709340001,,0,0,108,108,34,1,stimuli/stim_20210407_power2amp/equal_lnn_AM1.8Hz_98.m4a,,,
,,,,,,,,,,,,39902,2021-05-08_18h37.00.128,judgeSpeechMusic_20210407_logNormShiftAmp,2020.1.2,MacIntel,60,,,,,,,,,,,,,,2,43.18147,,0,0,109,109,89,1,stimuli/stim_20210407_power2amp/equal_lnn_AM3.6Hz_63.m4a,,,
,,,,,,,,,,,,39902,2021-05-08_18h37.00.128,judgeSpeechMusic_20210407_logNormShiftAmp,2020.1.2,MacIntel,60,,,,,,,,,,,,,,2,7.41468,,0,0,110,110,41,1,stimuli/stim_20210407_power2amp/equal_lnn_AM1.8Hz_81.m4a,,,
,,,,,,,,,,,,39902,2021-05-08_18h37.00.128,judgeSpeechMusic_20210407_logNormShiftAmp,2020.1.2,MacIntel,60,,,,,,,,,,,,,,2,10.223605,,0,0,111,111,112,1,stimuli/stim_20210407_power2amp/equal_lnn_AM4.8Hz_13.m4a,,,
,,,,,,,,,,,,39902,2021-05-08_18h37.00.128,judgeSpeechMusic_20210407_logNormShiftAmp,2020.1.2,MacIntel,60,,,,,,,,,,,,,,1,5.940295,,0,0,112,112,5,1,stimuli/stim_20210407_power2amp/equal_lnn_AM0.6Hz_35.m4a,,,
,,,,,,,,,,,,39902,2021-05-08_18h37.00.128,judgeSpeechMusic_20210407_logNormShiftAmp,2020.1.2,MacIntel,60,,,,,,,,,,,,,,2,7.30761,,0,0,113,113,40,1,stimuli/stim_20210407_power2amp/equal_lnn_AM1.8Hz_84.m4a,,,
,,,,,,,,,,,,39902,2021-05-08_18h37.00.128,judgeSpeechMusic_20210407_logNormShiftAmp,2020.1.2,MacIntel,60,,,,,,,,,,,,,,2,6.20861,,0,0,114,114,94,1,stimuli/stim_20210407_power2amp/equal_lnn_AM4.2Hz_24.m4a,,,
,,,,,,,,,,,,39902,2021-05-08_18h37.00.128,judgeSpeechMusic_20210407_logNormShiftAmp,2020.1.2,MacIntel,60,,,,,,,,,,,,,,2,5.407335,,0,0,115,115,55,1,stimuli/stim_20210407_power2amp/equal_lnn_AM2.4Hz_24.m4a,,,
,,,,,,,,,,,,39902,2021-05-08_18h37.00.128,judgeSpeechMusic_20210407_logNormShiftAmp,2020.1.2,MacIntel,60,,,,,,,,,,,,,,2,6.157075,,0,0,116,116,62,1,stimuli/stim_20210407_power2amp/equal_lnn_AM3Hz_83.m4a,,,
,,,,,,,,,,,,39902,2021-05-08_18h37.00.128,judgeSpeechMusic_20210407_logNormShiftAmp,2020.1.2,MacIntel,60,,,,,,,,,,,,,,2,6.62601,,0,0,117,117,149,1,stimuli/stim_20210407_power2amp/equal_lnn_AM6Hz_54.m4a,,,
,,,,,,,,,,,,39902,2021-05-08_18h37.00.128,judgeSpeechMusic_20210407_logNormShiftAmp,2020.1.2,MacIntel,60,,,,,,,,,,,,,,2,6.028385,,0,0,118,118,133,1,stimuli/stim_20210407_power2amp/equal_lnn_AM5.4Hz_96.m4a,,,
,,,,,,,,,,,,39902,2021-05-08_18h37.00.128,judgeSpeechMusic_20210407_logNormShiftAmp,2020.1.2,MacIntel,60,,,,,,,,,,,,,,2,5.774920001,,0,0,119,119,132,1,stimuli/stim_20210407_power2amp/equal_lnn_AM5.4Hz_88.m4a,,,
,,,,,,,,,,,,39902,2021-05-08_18h37.00.128,judgeSpeechMusic_20210407_logNormShiftAmp,2020.1.2,MacIntel,60,,,,,,,,,,,,,,1,6.24042,,0,0,120,120,2,1,stimuli/stim_20210407_power2amp/equal_lnn_AM0.6Hz_95.m4a,,,
,,,,,,,,,,,,39902,2021-05-08_18h37.00.128,judgeSpeechMusic_20210407_logNormShiftAmp,2020.1.2,MacIntel,60,,,,,,,,,,,,,,2,7.859115,3,1,0,121,121,29,1,stimuli/stim_20210407_power2amp/equal_lnn_AM1.2Hz_25.m4a,1.677035,,
,,,,,,,,,,,,39902,2021-05-08_18h37.00.128,judgeSpeechMusic_20210407_logNormShiftAmp,2020.1.2,MacIntel,60,,,,,,,,,,,,,,2,18.25959,,0,0,122,122,82,1,stimuli/stim_20210407_power2amp/equal_lnn_AM3.6Hz_91.m4a,,,
,,,,,,,,,,,,39902,2021-05-08_18h37.00.128,judgeSpeechMusic_20210407_logNormShiftAmp,2020.1.2,MacIntel,60,,,,,,,,,,,,,,2,8.573715,,0,0,123,123,61,1,stimuli/stim_20210407_power2amp/equal_lnn_AM3Hz_65.m4a,,,
,,,,,,,,,,,,39902,2021-05-08_18h37.00.128,judgeSpeechMusic_20210407_logNormShiftAmp,2020.1.2,MacIntel,60,,,,,,,,,,,,,,2,8.76178,,0,0,124,124,83,1,stimuli/stim_20210407_power2amp/equal_lnn_AM3.6Hz_88.m4a,,,
,,,,,,,,,,,,39902,2021-05-08_18h37.00.128,judgeSpeechMusic_20210407_logNormShiftAmp,2020.1.2,MacIntel,60,,,,,,,,,,,,,,2,6.85824,,0,0,125,125,63,1,stimuli/stim_20210407_power2amp/equal_lnn_AM3Hz_59.m4a,,,
,,,,,,,,,,,,39902,2021-05-08_18h37.00.128,judgeSpeechMusic_20210407_logNormShiftAmp,2020.1.2,MacIntel,60,,,,,,,,,,,,,,1,7.757165,,0,0,126,126,10,1,stimuli/stim_20210407_power2amp/equal_lnn_AM0.6Hz_89.m4a,,,
,,,,,,,,,,,,39902,2021-05-08_18h37.00.128,judgeSpeechMusic_20210407_logNormShiftAmp,2020.1.2,MacIntel,60,,,,,,,,,,,,,,2,6.52864,,0,0,127,127,84,1,stimuli/stim_20210407_power2amp/equal_lnn_AM3.6Hz_54.m4a,,,
,,,,,,,,,,,,39902,2021-05-08_18h37.00.128,judgeSpeechMusic_20210407_logNormShiftAmp,2020.1.2,MacIntel,60,,,,,,,,,,,,,,2,9.224365,,0,0,128,128,11,1,stimuli/stim_20210407_power2amp/equal_lnn_AM0.6Hz_2.m4a,,,
,,,,,,,,,,,,39902,2021-05-08_18h37.00.128,judgeSpeechMusic_20210407_logNormShiftAmp,2020.1.2,MacIntel,60,,,,,,,,,,,,,,2,7.610015,,0,0,129,129,137,1,stimuli/stim_20210407_power2amp/equal_lnn_AM6Hz_81.m4a,,,
,,,,,,,,,,,,39902,2021-05-08_18h37.00.128,judgeSpeechMusic_20210407_logNormShiftAmp,2020.1.2,MacIntel,60,,,,,,,,,,,,,,1,6.592794999,,0,0,130,130,26,1,stimuli/stim_20210407_power2amp/equal_lnn_AM1.2Hz_68.m4a,,,
,,,,,,,,,,,,39902,2021-05-08_18h37.00.128,judgeSpeechMusic_20210407_logNormShiftAmp,2020.1.2,MacIntel,60,,,,,,,,,,,,,,2,6.691445,,0,0,131,131,105,1,stimuli/stim_20210407_power2amp/equal_lnn_AM4.8Hz_53.m4a,,,
,,,,,,,,,,,,39902,2021-05-08_18h37.00.128,judgeSpeechMusic_20210407_logNormShiftAmp,2020.1.2,MacIntel,60,,,,,,,,,,,,,,2,6.160209999,,0,0,132,132,44,1,stimuli/stim_20210407_power2amp/equal_lnn_AM1.8Hz_50.m4a,,,
,,,,,,,,,,,,39902,2021-05-08_18h37.00.128,judgeSpeechMusic_20210407_logNormShiftAmp,2020.1.2,MacIntel,60,,,,,,,,,,,,,,2,10.341045,,0,0,133,133,108,1,stimuli/stim_20210407_power2amp/equal_lnn_AM4.8Hz_67.m4a,,,
,,,,,,,,,,,,39902,2021-05-08_18h37.00.128,judgeSpeechMusic_20210407_logNormShiftAmp,2020.1.2,MacIntel,60,,,,,,,,,,,,,,2,7.07493,,0,0,134,134,4,1,stimuli/stim_20210407_power2amp/equal_lnn_AM0.6Hz_73.m4a,,,
,,,,,,,,,,,,39902,2021-05-08_18h37.00.128,judgeSpeechMusic_20210407_logNormShiftAmp,2020.1.2,MacIntel,60,,,,,,,,,,,,,,2,6.940375,,0,0,135,135,114,1,stimuli/stim_20210407_power2amp/equal_lnn_AM4.8Hz_87.m4a,,,
,,,,,,,,,,,,39902,2021-05-08_18h37.00.128,judgeSpeechMusic_20210407_logNormShiftAmp,2020.1.2,MacIntel,60,,,,,,,,,,,,,,1,6.194154999,,0,0,136,136,36,1,stimuli/stim_20210407_power2amp/equal_lnn_AM1.8Hz_76.m4a,,,
,,,,,,,,,,,,39902,2021-05-08_18h37.00.128,judgeSpeechMusic_20210407_logNormShiftAmp,2020.1.2,MacIntel,60,,,,,,,,,,,,,,2,8.46229,,0,0,137,137,14,1,stimuli/stim_20210407_power2amp/equal_lnn_AM0.6Hz_44.m4a,,,
,,,,,,,,,,,,39902,2021-05-08_18h37.00.128,judgeSpeechMusic_20210407_logNormShiftAmp,2020.1.2,MacIntel,60,,,,,,,,,,,,,,2,5.825615,,0,0,138,138,109,1,stimuli/stim_20210407_power2amp/equal_lnn_AM4.8Hz_92.m4a,,,
,,,,,,,,,,,,39902,2021-05-08_18h37.00.128,judgeSpeechMusic_20210407_logNormShiftAmp,2020.1.2,MacIntel,60,,,,,,,,,,,,,,2,8.095439999,,0,0,139,139,7,1,stimuli/stim_20210407_power2amp/equal_lnn_AM0.6Hz_5.m4a,,,
,,,,,,,,,,,,39902,2021-05-08_18h37.00.128,judgeSpeechMusic_20210407_logNormShiftAmp,2020.1.2,MacIntel,60,,,,,,,,,,,,,,2,7.741285,,0,0,140,140,121,1,stimuli/stim_20210407_power2amp/equal_lnn_AM5.4Hz_54.m4a,,,
,,,,,,,,,,,,39902,2021-05-08_18h37.00.128,judgeSpeechMusic_20210407_logNormShiftAmp,2020.1.2,MacIntel,60,,,,,,,,,,,,,,2,5.99419,,0,0,141,141,116,1,stimuli/stim_20210407_power2amp/equal_lnn_AM4.8Hz_72.m4a,,,
,,,,,,,,,,,,39902,2021-05-08_18h37.00.128,judgeSpeechMusic_20210407_logNormShiftAmp,2020.1.2,MacIntel,60,,,,,,,,,,,,,,2,7.158969999,,0,0,142,142,35,1,stimuli/stim_20210407_power2amp/equal_lnn_AM1.8Hz_79.m4a,,,
,,,,,,,,,,,,39902,2021-05-08_18h37.00.128,judgeSpeechMusic_20210407_logNormShiftAmp,2020.1.2,MacIntel,60,,,,,,,,,,,,,,1,19.957405,,0,0,143,143,6,1,stimuli/stim_20210407_power2amp/equal_lnn_AM0.6Hz_10.m4a,,,
,,,,,,,,,,,,39902,2021-05-08_18h37.00.128,judgeSpeechMusic_20210407_logNormShiftAmp,2020.1.2,MacIntel,60,,,,,,,,,,,,,,2,5.99457,,0,0,144,144,98,1,stimuli/stim_20210407_power2amp/equal_lnn_AM4.2Hz_58.m4a,,,
,,,,,,,,,,,,39902,2021-05-08_18h37.00.128,judgeSpeechMusic_20210407_logNormShiftAmp,2020.1.2,MacIntel,60,,,,,,,,,,,,,,2,7.274894999,,0,0,145,145,86,1,stimuli/stim_20210407_power2amp/equal_lnn_AM3.6Hz_89.m4a,,,
,,,,,,,,,,,,39902,2021-05-08_18h37.00.128,judgeSpeechMusic_20210407_logNormShiftAmp,2020.1.2,MacIntel,60,,,,,,,,,,,,,,2,8.3805,1,1,0,146,146,140,1,stimuli/stim_20210407_power2amp/equal_lnn_AM6Hz_74.m4a,1.44614,,
,,,,,,,,,,,,39902,2021-05-08_18h37.00.128,judgeSpeechMusic_20210407_logNormShiftAmp,2020.1.2,MacIntel,60,,,,,,,,,,,,,,2,6.65675,,0,0,147,147,31,1,stimuli/stim_20210407_power2amp/equal_lnn_AM1.8Hz_14.m4a,,,
,,,,,,,,,,,,39902,2021-05-08_18h37.00.128,judgeSpeechMusic_20210407_logNormShiftAmp,2020.1.2,MacIntel,60,,,,,,,,,,,,,,2,9.6102,,0,0,148,148,141,1,stimuli/stim_20210407_power2amp/equal_lnn_AM6Hz_59.m4a,,,
,,,,,,,,,,,,39902,2021-05-08_18h37.00.128,judgeSpeechMusic_20210407_logNormShiftAmp,2020.1.2,MacIntel,60,,,,,,,,,,,,,,2,6.191120001,,0,0,149,149,90,1,stimuli/stim_20210407_power2amp/equal_lnn_AM4.2Hz_41.m4a,,,
,,,,,,,,,,,,39902,2021-05-08_18h37.00.128,judgeSpeechMusic_20210407_logNormShiftAmp,2020.1.2,MacIntel,60,,,,,,,,,,,,,,2,6.80947,,0,1,0,150,107,1,stimuli/stim_20210407_power2amp/equal_lnn_AM4.8Hz_70.m4a,,,
,,,,,,,,,,,,39902,2021-05-08_18h37.00.128,judgeSpeechMusic_20210407_logNormShiftAmp,2020.1.2,MacIntel,60,,,,,,,,,,,,,,2,6.259015,,0,1,1,151,121,1,stimuli/stim_20210407_power2amp/equal_lnn_AM5.4Hz_54.m4a,,,
,,,,,,,,,,,,39902,2021-05-08_18h37.00.128,judgeSpeechMusic_20210407_logNormShiftAmp,2020.1.2,MacIntel,60,,,,,,,,,,,,,,2,12.94227,,0,1,2,152,85,1,stimuli/stim_20210407_power2amp/equal_lnn_AM3.6Hz_97.m4a,,,
,,,,,,,,,,,,39902,2021-05-08_18h37.00.128,judgeSpeechMusic_20210407_logNormShiftAmp,2020.1.2,MacIntel,60,,,,,,,,,,,,,,2,30.040855,,0,1,3,153,145,1,stimuli/stim_20210407_power2amp/equal_lnn_AM6Hz_79.m4a,,,
,,,,,,,,,,,,39902,2021-05-08_18h37.00.128,judgeSpeechMusic_20210407_logNormShiftAmp,2020.1.2,MacIntel,60,,,,,,,,,,,,,,1,5.709235,,0,1,4,154,24,1,stimuli/stim_20210407_power2amp/equal_lnn_AM1.2Hz_71.m4a,,,
,,,,,,,,,,,,39902,2021-05-08_18h37.00.128,judgeSpeechMusic_20210407_logNormShiftAmp,2020.1.2,MacIntel,60,,,,,,,,,,,,,,2,6.092180001,,0,1,5,155,50,1,stimuli/stim_20210407_power2amp/equal_lnn_AM2.4Hz_55.m4a,,,
,,,,,,,,,,,,39902,2021-05-08_18h37.00.128,judgeSpeechMusic_20210407_logNormShiftAmp,2020.1.2,MacIntel,60,,,,,,,,,,,,,,2,7.129865,,0,1,6,156,65,1,stimuli/stim_20210407_power2amp/equal_lnn_AM3Hz_72.m4a,,,
,,,,,,,,,,,,39902,2021-05-08_18h37.00.128,judgeSpeechMusic_20210407_logNormShiftAmp,2020.1.2,MacIntel,60,,,,,,,,,,,,,,2,7.00698,,0,1,7,157,22,1,stimuli/stim_20210407_power2amp/equal_lnn_AM1.2Hz_52.m4a,,,
,,,,,,,,,,,,39902,2021-05-08_18h37.00.128,judgeSpeechMusic_20210407_logNormShiftAmp,2020.1.2,MacIntel,60,,,,,,,,,,,,,,2,6.857919999,,0,1,8,158,112,1,stimuli/stim_20210407_power2amp/equal_lnn_AM4.8Hz_13.m4a,,,
,,,,,,,,,,,,39902,2021-05-08_18h37.00.128,judgeSpeechMusic_20210407_logNormShiftAmp,2020.1.2,MacIntel,60,,,,,,,,,,,,,,1,5.809119999,,0,1,9,159,4,1,stimuli/stim_20210407_power2amp/equal_lnn_AM0.6Hz_73.m4a,,,
,,,,,,,,,,,,39902,2021-05-08_18h37.00.128,judgeSpeechMusic_20210407_logNormShiftAmp,2020.1.2,MacIntel,60,,,,,,,,,,,,,,2,6.459835,,0,1,10,160,146,1,stimuli/stim_20210407_power2amp/equal_lnn_AM6Hz_84.m4a,,,
,,,,,,,,,,,,39902,2021-05-08_18h37.00.128,judgeSpeechMusic_20210407_logNormShiftAmp,2020.1.2,MacIntel,60,,,,,,,,,,,,,,2,5.709265,,0,1,11,161,108,1,stimuli/stim_20210407_power2amp/equal_lnn_AM4.8Hz_67.m4a,,,
,,,,,,,,,,,,39902,2021-05-08_18h37.00.128,judgeSpeechMusic_20210407_logNormShiftAmp,2020.1.2,MacIntel,60,,,,,,,,,,,,,,1,7.145945,,0,1,12,162,16,1,stimuli/stim_20210407_power2amp/equal_lnn_AM1.2Hz_55.m4a,,,
,,,,,,,,,,,,39902,2021-05-08_18h37.00.128,judgeSpeechMusic_20210407_logNormShiftAmp,2020.1.2,MacIntel,60,,,,,,,,,,,,,,2,6.19127,,0,1,13,163,68,1,stimuli/stim_20210407_power2amp/equal_lnn_AM3Hz_4.m4a,,,
,,,,,,,,,,,,39902,2021-05-08_18h37.00.128,judgeSpeechMusic_20210407_logNormShiftAmp,2020.1.2,MacIntel,60,,,,,,,,,,,,,,1,6.14233,,0,1,14,164,25,1,stimuli/stim_20210407_power2amp/equal_lnn_AM1.2Hz_65.m4a,,,
,,,,,,,,,,,,39902,2021-05-08_18h37.00.128,judgeSpeechMusic_20210407_logNormShiftAmp,2020.1.2,MacIntel,60,,,,,,,,,,,,,,2,11.511915,,0,1,15,165,43,1,stimuli/stim_20210407_power2amp/equal_lnn_AM1.8Hz_23.m4a,,,
,,,,,,,,,,,,39902,2021-05-08_18h37.00.128,judgeSpeechMusic_20210407_logNormShiftAmp,2020.1.2,MacIntel,60,,,,,,,,,,,,,,2,6.557074999,,0,1,16,166,42,1,stimuli/stim_20210407_power2amp/equal_lnn_AM1.8Hz_15.m4a,,,
,,,,,,,,,,,,39902,2021-05-08_18h37.00.128,judgeSpeechMusic_20210407_logNormShiftAmp,2020.1.2,MacIntel,60,,,,,,,,,,,,,,2,7.806779999,2,1,1,17,167,2,1,stimuli/stim_20210407_power2amp/equal_lnn_AM0.6Hz_95.m4a,1.749225,,
,,,,,,,,,,,,39902,2021-05-08_18h37.00.128,judgeSpeechMusic_20210407_logNormShiftAmp,2020.1.2,MacIntel,60,,,,,,,,,,,,,,2,5.744229999,,0,1,18,168,76,1,stimuli/stim_20210407_power2amp/equal_lnn_AM3.6Hz_27.m4a,,,
,,,,,,,,,,,,39902,2021-05-08_18h37.00.128,judgeSpeechMusic_20210407_logNormShiftAmp,2020.1.2,MacIntel,60,,,,,,,,,,,,,,2,5.87759,,0,1,19,169,142,1,stimuli/stim_20210407_power2amp/equal_lnn_AM6Hz_34.m4a,,,
,,,,,,,,,,,,39902,2021-05-08_18h37.00.128,judgeSpeechMusic_20210407_logNormShiftAmp,2020.1.2,MacIntel,60,,,,,,,,,,,,,,2,6.028125,,0,1,20,170,100,1,stimuli/stim_20210407_power2amp/equal_lnn_AM4.2Hz_21.m4a,,,
,,,,,,,,,,,,39902,2021-05-08_18h37.00.128,judgeSpeechMusic_20210407_logNormShiftAmp,2020.1.2,MacIntel,60,,,,,,,,,,,,,,2,6.323785,,0,1,21,171,103,1,stimuli/stim_20210407_power2amp/equal_lnn_AM4.2Hz_71.m4a,,,
,,,,,,,,,,,,39902,2021-05-08_18h37.00.128,judgeSpeechMusic_20210407_logNormShiftAmp,2020.1.2,MacIntel,60,,,,,,,,,,,,,,2,8.392045001,,0,1,22,172,54,1,stimuli/stim_20210407_power2amp/equal_lnn_AM2.4Hz_53.m4a,,,
,,,,,,,,,,,,39902,2021-05-08_18h37.00.128,judgeSpeechMusic_20210407_logNormShiftAmp,2020.1.2,MacIntel,60,,,,,,,,,,,,,,2,8.676080001,,0,1,23,173,113,1,stimuli/stim_20210407_power2amp/equal_lnn_AM4.8Hz_51.m4a,,,
,,,,,,,,,,,,39902,2021-05-08_18h37.00.128,judgeSpeechMusic_20210407_logNormShiftAmp,2020.1.2,MacIntel,60,,,,,,,,,,,,,,2,5.691505,,0,1,24,174,89,1,stimuli/stim_20210407_power2amp/equal_lnn_AM3.6Hz_63.m4a,,,
,,,,,,,,,,,,39902,2021-05-08_18h37.00.128,judgeSpeechMusic_20210407_logNormShiftAmp,2020.1.2,MacIntel,60,,,,,,,,,,,,,,2,6.159205,,0,1,25,175,94,1,stimuli/stim_20210407_power2amp/equal_lnn_AM4.2Hz_24.m4a,,,
,,,,,,,,,,,,39902,2021-05-08_18h37.00.128,judgeSpeechMusic_20210407_logNormShiftAmp,2020.1.2,MacIntel,60,,,,,,,,,,,,,,2,5.97455,,0,1,26,176,134,1,stimuli/stim_20210407_power2amp/equal_lnn_AM5.4Hz_27.m4a,,,
,,,,,,,,,,,,39902,2021-05-08_18h37.00.128,judgeSpeechMusic_20210407_logNormShiftAmp,2020.1.2,MacIntel,60,,,,,,,,,,,,,,2,62.40861,,0,1,27,177,136,1,stimuli/stim_20210407_power2amp/equal_lnn_AM6Hz_43.m4a,,,
,,,,,,,,,,,,39902,2021-05-08_18h37.00.128,judgeSpeechMusic_20210407_logNormShiftAmp,2020.1.2,MacIntel,60,,,,,,,,,,,,,,2,5.61401,,0,1,28,178,101,1,stimuli/stim_20210407_power2amp/equal_lnn_AM4.2Hz_14.m4a,,,
,,,,,,,,,,,,39902,2021-05-08_18h37.00.128,judgeSpeechMusic_20210407_logNormShiftAmp,2020.1.2,MacIntel,60,,,,,,,,,,,,,,2,5.87603,,0,1,29,179,39,1,stimuli/stim_20210407_power2amp/equal_lnn_AM1.8Hz_34.m4a,,,
,,,,,,,,,,,,39902,2021-05-08_18h37.00.128,judgeSpeechMusic_20210407_logNormShiftAmp,2020.1.2,MacIntel,60,,,,,,,,,,,,,,2,5.72454,,0,1,30,180,61,1,stimuli/stim_20210407_power2amp/equal_lnn_AM3Hz_65.m4a,,,
,,,,,,,,,,,,39902,2021-05-08_18h37.00.128,judgeSpeechMusic_20210407_logNormShiftAmp,2020.1.2,MacIntel,60,,,,,,,,,,,,,,2,5.808535,,0,1,31,181,119,1,stimuli/stim_20210407_power2amp/equal_lnn_AM4.8Hz_12.m4a,,,
,,,,,,,,,,,,39902,2021-05-08_18h37.00.128,judgeSpeechMusic_20210407_logNormShiftAmp,2020.1.2,MacIntel,60,,,,,,,,,,,,,,2,5.946874999,,0,1,32,182,109,1,stimuli/stim_20210407_power2amp/equal_lnn_AM4.8Hz_92.m4a,,,
,,,,,,,,,,,,39902,2021-05-08_18h37.00.128,judgeSpeechMusic_20210407_logNormShiftAmp,2020.1.2,MacIntel,60,,,,,,,,,,,,,,2,8.823425,,0,1,33,183,139,1,stimuli/stim_20210407_power2amp/equal_lnn_AM6Hz_31.m4a,,,
,,,,,,,,,,,,39902,2021-05-08_18h37.00.128,judgeSpeechMusic_20210407_logNormShiftAmp,2020.1.2,MacIntel,60,,,,,,,,,,,,,,1,13.98002,,0,1,34,184,9,1,stimuli/stim_20210407_power2amp/equal_lnn_AM0.6Hz_53.m4a,,,
,,,,,,,,,,,,39902,2021-05-08_18h37.00.128,judgeSpeechMusic_20210407_logNormShiftAmp,2020.1.2,MacIntel,60,,,,,,,,,,,,,,2,11.874425,,0,1,35,185,128,1,stimuli/stim_20210407_power2amp/equal_lnn_AM5.4Hz_31.m4a,,,
,,,,,,,,,,,,39902,2021-05-08_18h37.00.128,judgeSpeechMusic_20210407_logNormShiftAmp,2020.1.2,MacIntel,60,,,,,,,,,,,,,,1,7.72508,,0,1,36,186,14,1,stimuli/stim_20210407_power2amp/equal_lnn_AM0.6Hz_44.m4a,,,
,,,,,,,,,,,,39902,2021-05-08_18h37.00.128,judgeSpeechMusic_20210407_logNormShiftAmp,2020.1.2,MacIntel,60,,,,,,,,,,,,,,2,6.190095001,,0,1,37,187,149,1,stimuli/stim_20210407_power2amp/equal_lnn_AM6Hz_54.m4a,,,
,,,,,,,,,,,,39902,2021-05-08_18h37.00.128,judgeSpeechMusic_20210407_logNormShiftAmp,2020.1.2,MacIntel,60,,,,,,,,,,,,,,2,8.943875,,0,1,38,188,75,1,stimuli/stim_20210407_power2amp/equal_lnn_AM3.6Hz_79.m4a,,,
,,,,,,,,,,,,39902,2021-05-08_18h37.00.128,judgeSpeechMusic_20210407_logNormShiftAmp,2020.1.2,MacIntel,60,,,,,,,,,,,,,,2,6.407395,1,0,1,39,189,31,1,stimuli/stim_20210407_power2amp/equal_lnn_AM1.8Hz_14.m4a,0.94469,,
,,,,,,,,,,,,39902,2021-05-08_18h37.00.128,judgeSpeechMusic_20210407_logNormShiftAmp,2020.1.2,MacIntel,60,,,,,,,,,,,,,,2,5.881345,,0,1,40,190,92,1,stimuli/stim_20210407_power2amp/equal_lnn_AM4.2Hz_25.m4a,,,
,,,,,,,,,,,,39902,2021-05-08_18h37.00.128,judgeSpeechMusic_20210407_logNormShiftAmp,2020.1.2,MacIntel,60,,,,,,,,,,,,,,2,5.807685,,0,1,41,191,57,1,stimuli/stim_20210407_power2amp/equal_lnn_AM2.4Hz_31.m4a,,,
,,,,,,,,,,,,39902,2021-05-08_18h37.00.128,judgeSpeechMusic_20210407_logNormShiftAmp,2020.1.2,MacIntel,60,,,,,,,,,,,,,,2,6.041505001,,0,1,42,192,21,1,stimuli/stim_20210407_power2amp/equal_lnn_AM1.2Hz_48.m4a,,,
,,,,,,,,,,,,39902,2021-05-08_18h37.00.128,judgeSpeechMusic_20210407_logNormShiftAmp,2020.1.2,MacIntel,60,,,,,,,,,,,,,,2,12.742735,,0,1,43,193,125,1,stimuli/stim_20210407_power2amp/equal_lnn_AM5.4Hz_36.m4a,,,
,,,,,,,,,,,,39902,2021-05-08_18h37.00.128,judgeSpeechMusic_20210407_logNormShiftAmp,2020.1.2,MacIntel,60,,,,,,,,,,,,,,2,15.842435,,0,1,44,194,71,1,stimuli/stim_20210407_power2amp/equal_lnn_AM3Hz_42.m4a,,,
,,,,,,,,,,,,39902,2021-05-08_18h37.00.128,judgeSpeechMusic_20210407_logNormShiftAmp,2020.1.2,MacIntel,60,,,,,,,,,,,,,,2,14.974505,,0,1,45,195,64,1,stimuli/stim_20210407_power2amp/equal_lnn_AM3Hz_53.m4a,,,
,,,,,,,,,,,,39902,2021-05-08_18h37.00.128,judgeSpeechMusic_20210407_logNormShiftAmp,2020.1.2,MacIntel,60,,,,,,,,,,,,,,2,19.45799,,0,1,46,196,72,1,stimuli/stim_20210407_power2amp/equal_lnn_AM3Hz_2.m4a,,,
,,,,,,,,,,,,39902,2021-05-08_18h37.00.128,judgeSpeechMusic_20210407_logNormShiftAmp,2020.1.2,MacIntel,60,,,,,,,,,,,,,,2,11.77475,,0,1,47,197,5,1,stimuli/stim_20210407_power2amp/equal_lnn_AM0.6Hz_35.m4a,,,
,,,,,,,,,,,,39902,2021-05-08_18h37.00.128,judgeSpeechMusic_20210407_logNormShiftAmp,2020.1.2,MacIntel,60,,,,,,,,,,,,,,2,35.13951,,0,1,48,198,83,1,stimuli/stim_20210407_power2amp/equal_lnn_AM3.6Hz_88.m4a,,,
,,,,,,,,,,,,39902,2021-05-08_18h37.00.128,judgeSpeechMusic_20210407_logNormShiftAmp,2020.1.2,MacIntel,60,,,,,,,,,,,,,,2,18.7439,,0,1,49,199,10,1,stimuli/stim_20210407_power2amp/equal_lnn_AM0.6Hz_89.m4a,,,
,,,,,,,,,,,,39902,2021-05-08_18h37.00.128,judgeSpeechMusic_20210407_logNormShiftAmp,2020.1.2,MacIntel,60,,,,,,,,,,,,,,2,11.631205,,0,1,50,200,27,1,stimuli/stim_20210407_power2amp/equal_lnn_AM1.2Hz_43.m4a,,,
,,,,,,,,,,,,39902,2021-05-08_18h37.00.128,judgeSpeechMusic_20210407_logNormShiftAmp,2020.1.2,MacIntel,60,,,,,,,,,,,,,,2,7.35904,,0,1,51,201,144,1,stimuli/stim_20210407_power2amp/equal_lnn_AM6Hz_39.m4a,,,
,,,,,,,,,,,,39902,2021-05-08_18h37.00.128,judgeSpeechMusic_20210407_logNormShiftAmp,2020.1.2,MacIntel,60,,,,,,,,,,,,,,2,11.108145,,0,1,52,202,29,1,stimuli/stim_20210407_power2amp/equal_lnn_AM1.2Hz_25.m4a,,,
,,,,,,,,,,,,39902,2021-05-08_18h37.00.128,judgeSpeechMusic_20210407_logNormShiftAmp,2020.1.2,MacIntel,60,,,,,,,,,,,,,,2,13.64223,,0,1,53,203,7,1,stimuli/stim_20210407_power2amp/equal_lnn_AM0.6Hz_5.m4a,,,
,,,,,,,,,,,,39902,2021-05-08_18h37.00.128,judgeSpeechMusic_20210407_logNormShiftAmp,2020.1.2,MacIntel,60,,,,,,,,,,,,,,1,7.625645,,0,1,54,204,110,1,stimuli/stim_20210407_power2amp/equal_lnn_AM4.8Hz_1.m4a,,,
,,,,,,,,,,,,39902,2021-05-08_18h37.00.128,judgeSpeechMusic_20210407_logNormShiftAmp,2020.1.2,MacIntel,60,,,,,,,,,,,,,,1,5.74502,,0,1,55,205,96,1,stimuli/stim_20210407_power2amp/equal_lnn_AM4.2Hz_53.m4a,,,
,,,,,,,,,,,,39902,2021-05-08_18h37.00.128,judgeSpeechMusic_20210407_logNormShiftAmp,2020.1.2,MacIntel,60,,,,,,,,,,,,,,2,10.646725,,0,1,56,206,91,1,stimuli/stim_20210407_power2amp/equal_lnn_AM4.2Hz_82.m4a,,,
,,,,,,,,,,,,39902,2021-05-08_18h37.00.128,judgeSpeechMusic_20210407_logNormShiftAmp,2020.1.2,MacIntel,60,,,,,,,,,,,,,,1,8.04112,,0,1,57,207,37,1,stimuli/stim_20210407_power2amp/equal_lnn_AM1.8Hz_97.m4a,,,
,,,,,,,,,,,,39902,2021-05-08_18h37.00.128,judgeSpeechMusic_20210407_logNormShiftAmp,2020.1.2,MacIntel,60,,,,,,,,,,,,,,2,12.827725,,0,1,58,208,70,1,stimuli/stim_20210407_power2amp/equal_lnn_AM3Hz_52.m4a,,,
,,,,,,,,,,,,39902,2021-05-08_18h37.00.128,judgeSpeechMusic_20210407_logNormShiftAmp,2020.1.2,MacIntel,60,,,,,,,,,,,,,,2,7.757735,,0,1,59,209,30,1,stimuli/stim_20210407_power2amp/equal_lnn_AM1.8Hz_92.m4a,,,
,,,,,,,,,,,,39902,2021-05-08_18h37.00.128,judgeSpeechMusic_20210407_logNormShiftAmp,2020.1.2,MacIntel,60,,,,,,,,,,,,,,2,5.991450001,,0,1,60,210,122,1,stimuli/stim_20210407_power2amp/equal_lnn_AM5.4Hz_46.m4a,,,
,,,,,,,,,,,,39902,2021-05-08_18h37.00.128,judgeSpeechMusic_20210407_logNormShiftAmp,2020.1.2,MacIntel,60,,,,,,,,,,,,,,2,13.14403,4,1,1,61,211,35,1,stimuli/stim_20210407_power2amp/equal_lnn_AM1.8Hz_79.m4a,3.64542,,
,,,,,,,,,,,,39902,2021-05-08_18h37.00.128,judgeSpeechMusic_20210407_logNormShiftAmp,2020.1.2,MacIntel,60,,,,,,,,,,,,,,2,6.791065,,0,1,62,212,82,1,stimuli/stim_20210407_power2amp/equal_lnn_AM3.6Hz_91.m4a,,,
,,,,,,,,,,,,39902,2021-05-08_18h37.00.128,judgeSpeechMusic_20210407_logNormShiftAmp,2020.1.2,MacIntel,60,,,,,,,,,,,,,,2,5.723625,,0,1,63,213,120,1,stimuli/stim_20210407_power2amp/equal_lnn_AM5.4Hz_26.m4a,,,
,,,,,,,,,,,,39902,2021-05-08_18h37.00.128,judgeSpeechMusic_20210407_logNormShiftAmp,2020.1.2,MacIntel,60,,,,,,,,,,,,,,2,6.459834999,,0,1,64,214,41,1,stimuli/stim_20210407_power2amp/equal_lnn_AM1.8Hz_81.m4a,,,
,,,,,,,,,,,,39902,2021-05-08_18h37.00.128,judgeSpeechMusic_20210407_logNormShiftAmp,2020.1.2,MacIntel,60,,,,,,,,,,,,,,2,7.423535001,,0,1,65,215,62,1,stimuli/stim_20210407_power2amp/equal_lnn_AM3Hz_83.m4a,,,
,,,,,,,,,,,,39902,2021-05-08_18h37.00.128,judgeSpeechMusic_20210407_logNormShiftAmp,2020.1.2,MacIntel,60,,,,,,,,,,,,,,2,5.858294999,,0,1,66,216,135,1,stimuli/stim_20210407_power2amp/equal_lnn_AM6Hz_87.m4a,,,
,,,,,,,,,,,,39902,2021-05-08_18h37.00.128,judgeSpeechMusic_20210407_logNormShiftAmp,2020.1.2,MacIntel,60,,,,,,,,,,,,,,2,5.910565,,0,1,67,217,147,1,stimuli/stim_20210407_power2amp/equal_lnn_AM6Hz_80.m4a,,,
,,,,,,,,,,,,39902,2021-05-08_18h37.00.128,judgeSpeechMusic_20210407_logNormShiftAmp,2020.1.2,MacIntel,60,,,,,,,,,,,,,,2,7.27532,,0,1,68,218,105,1,stimuli/stim_20210407_power2amp/equal_lnn_AM4.8Hz_53.m4a,,,
,,,,,,,,,,,,39902,2021-05-08_18h37.00.128,judgeSpeechMusic_20210407_logNormShiftAmp,2020.1.2,MacIntel,60,,,,,,,,,,,,,,1,5.708705,,0,1,69,219,80,1,stimuli/stim_20210407_power2amp/equal_lnn_AM3.6Hz_70.m4a,,,
,,,,,,,,,,,,39902,2021-05-08_18h37.00.128,judgeSpeechMusic_20210407_logNormShiftAmp,2020.1.2,MacIntel,60,,,,,,,,,,,,,,2,6.27444,,0,1,70,220,116,1,stimuli/stim_20210407_power2amp/equal_lnn_AM4.8Hz_72.m4a,,,
,,,,,,,,,,,,39902,2021-05-08_18h37.00.128,judgeSpeechMusic_20210407_logNormShiftAmp,2020.1.2,MacIntel,60,,,,,,,,,,,,,,2,6.191615,,0,1,71,221,148,1,stimuli/stim_20210407_power2amp/equal_lnn_AM6Hz_41.m4a,,,
,,,,,,,,,,,,39902,2021-05-08_18h37.00.128,judgeSpeechMusic_20210407_logNormShiftAmp,2020.1.2,MacIntel,60,,,,,,,,,,,,,,2,6.378405,,0,1,72,222,55,1,stimuli/stim_20210407_power2amp/equal_lnn_AM2.4Hz_24.m4a,,,
,,,,,,,,,,,,39902,2021-05-08_18h37.00.128,judgeSpeechMusic_20210407_logNormShiftAmp,2020.1.2,MacIntel,60,,,,,,,,,,,,,,2,9.22374,,0,1,73,223,67,1,stimuli/stim_20210407_power2amp/equal_lnn_AM3Hz_5.m4a,,,
,,,,,,,,,,,,39902,2021-05-08_18h37.00.128,judgeSpeechMusic_20210407_logNormShiftAmp,2020.1.2,MacIntel,60,,,,,,,,,,,,,,2,5.860785,,0,1,74,224,36,1,stimuli/stim_20210407_power2amp/equal_lnn_AM1.8Hz_76.m4a,,,
,,,,,,,,,,,,39902,2021-05-08_18h37.00.128,judgeSpeechMusic_20210407_logNormShiftAmp,2020.1.2,MacIntel,60,,,,,,,,,,,,,,2,5.643829999,,0,1,75,225,69,1,stimuli/stim_20210407_power2amp/equal_lnn_AM3Hz_57.m4a,,,
,,,,,,,,,,,,39902,2021-05-08_18h37.00.128,judgeSpeechMusic_20210407_logNormShiftAmp,2020.1.2,MacIntel,60,,,,,,,,,,,,,,2,11.326455,,0,1,76,226,93,1,stimuli/stim_20210407_power2amp/equal_lnn_AM4.2Hz_28.m4a,,,
,,,,,,,,,,,,39902,2021-05-08_18h37.00.128,judgeSpeechMusic_20210407_logNormShiftAmp,2020.1.2,MacIntel,60,,,,,,,,,,,,,,2,7.945514999,,0,1,77,227,118,1,stimuli/stim_20210407_power2amp/equal_lnn_AM4.8Hz_68.m4a,,,
,,,,,,,,,,,,39902,2021-05-08_18h37.00.128,judgeSpeechMusic_20210407_logNormShiftAmp,2020.1.2,MacIntel,60,,,,,,,,,,,,,,2,7.41108,,0,1,78,228,45,1,stimuli/stim_20210407_power2amp/equal_lnn_AM2.4Hz_45.m4a,,,
,,,,,,,,,,,,39902,2021-05-08_18h37.00.128,judgeSpeechMusic_20210407_logNormShiftAmp,2020.1.2,MacIntel,60,,,,,,,,,,,,,,2,6.89073,,0,1,79,229,102,1,stimuli/stim_20210407_power2amp/equal_lnn_AM4.2Hz_1.m4a,,,
,,,,,,,,,,,,39902,2021-05-08_18h37.00.128,judgeSpeechMusic_20210407_logNormShiftAmp,2020.1.2,MacIntel,60,,,,,,,,,,,,,,2,6.097015,,0,1,80,230,127,1,stimuli/stim_20210407_power2amp/equal_lnn_AM5.4Hz_58.m4a,,,
,,,,,,,,,,,,39902,2021-05-08_18h37.00.128,judgeSpeechMusic_20210407_logNormShiftAmp,2020.1.2,MacIntel,60,,,,,,,,,,,,,,2,5.691845,,0,1,81,231,130,1,stimuli/stim_20210407_power2amp/equal_lnn_AM5.4Hz_19.m4a,,,
,,,,,,,,,,,,39902,2021-05-08_18h37.00.128,judgeSpeechMusic_20210407_logNormShiftAmp,2020.1.2,MacIntel,60,,,,,,,,,,,,,,2,5.623665,,0,1,82,232,123,1,stimuli/stim_20210407_power2amp/equal_lnn_AM5.4Hz_98.m4a,,,
,,,,,,,,,,,,39902,2021-05-08_18h37.00.128,judgeSpeechMusic_20210407_logNormShiftAmp,2020.1.2,MacIntel,60,,,,,,,,,,,,,,2,6.157869999,1,1,1,83,233,78,1,stimuli/stim_20210407_power2amp/equal_lnn_AM3.6Hz_51.m4a,0.84448,,
,,,,,,,,,,,,39902,2021-05-08_18h37.00.128,judgeSpeechMusic_20210407_logNormShiftAmp,2020.1.2,MacIntel,60,,,,,,,,,,,,,,1,5.86034,,0,1,84,234,46,1,stimuli/stim_20210407_power2amp/equal_lnn_AM2.4Hz_6.m4a,,,
,,,,,,,,,,,,39902,2021-05-08_18h37.00.128,judgeSpeechMusic_20210407_logNormShiftAmp,2020.1.2,MacIntel,60,,,,,,,,,,,,,,2,5.908575,,0,1,85,235,99,1,stimuli/stim_20210407_power2amp/equal_lnn_AM4.2Hz_9.m4a,,,
,,,,,,,,,,,,39902,2021-05-08_18h37.00.128,judgeSpeechMusic_20210407_logNormShiftAmp,2020.1.2,MacIntel,60,,,,,,,,,,,,,,2,10.574595,,0,1,86,236,141,1,stimuli/stim_20210407_power2amp/equal_lnn_AM6Hz_59.m4a,,,
,,,,,,,,,,,,39902,2021-05-08_18h37.00.128,judgeSpeechMusic_20210407_logNormShiftAmp,2020.1.2,MacIntel,60,,,,,,,,,,,,,,2,22.80968,,0,1,87,237,117,1,stimuli/stim_20210407_power2amp/equal_lnn_AM4.8Hz_33.m4a,,,
,,,,,,,,,,,,39902,2021-05-08_18h37.00.128,judgeSpeechMusic_20210407_logNormShiftAmp,2020.1.2,MacIntel,60,,,,,,,,,,,,,,2,7.523580001,,0,1,88,238,19,1,stimuli/stim_20210407_power2amp/equal_lnn_AM1.2Hz_98.m4a,,,
,,,,,,,,,,,,39902,2021-05-08_18h37.00.128,judgeSpeechMusic_20210407_logNormShiftAmp,2020.1.2,MacIntel,60,,,,,,,,,,,,,,2,7.95835,,0,1,89,239,114,1,stimuli/stim_20210407_power2amp/equal_lnn_AM4.8Hz_87.m4a,,,
,,,,,,,,,,,,39902,2021-05-08_18h37.00.128,judgeSpeechMusic_20210407_logNormShiftAmp,2020.1.2,MacIntel,60,,,,,,,,,,,,,,2,6.261175,,0,1,90,240,84,1,stimuli/stim_20210407_power2amp/equal_lnn_AM3.6Hz_54.m4a,,,
,,,,,,,,,,,,39902,2021-05-08_18h37.00.128,judgeSpeechMusic_20210407_logNormShiftAmp,2020.1.2,MacIntel,60,,,,,,,,,,,,,,2,6.0909,,0,1,91,241,90,1,stimuli/stim_20210407_power2amp/equal_lnn_AM4.2Hz_41.m4a,,,
,,,,,,,,,,,,39902,2021-05-08_18h37.00.128,judgeSpeechMusic_20210407_logNormShiftAmp,2020.1.2,MacIntel,60,,,,,,,,,,,,,,2,6.106945,,0,1,92,242,129,1,stimuli/stim_20210407_power2amp/equal_lnn_AM5.4Hz_78.m4a,,,
,,,,,,,,,,,,39902,2021-05-08_18h37.00.128,judgeSpeechMusic_20210407_logNormShiftAmp,2020.1.2,MacIntel,60,,,,,,,,,,,,,,2,6.275915001,,0,1,93,243,23,1,stimuli/stim_20210407_power2amp/equal_lnn_AM1.2Hz_69.m4a,,,
,,,,,,,,,,,,39902,2021-05-08_18h37.00.128,judgeSpeechMusic_20210407_logNormShiftAmp,2020.1.2,MacIntel,60,,,,,,,,,,,,,,2,30.073105,,0,1,94,244,73,1,stimuli/stim_20210407_power2amp/equal_lnn_AM3Hz_10.m4a,,,
,,,,,,,,,,,,39902,2021-05-08_18h37.00.128,judgeSpeechMusic_20210407_logNormShiftAmp,2020.1.2,MacIntel,60,,,,,,,,,,,,,,2,8.978075,,0,1,95,245,8,1,stimuli/stim_20210407_power2amp/equal_lnn_AM0.6Hz_22.m4a,,,
,,,,,,,,,,,,39902,2021-05-08_18h37.00.128,judgeSpeechMusic_20210407_logNormShiftAmp,2020.1.2,MacIntel,60,,,,,,,,,,,,,,2,6.57484,,0,1,96,246,95,1,stimuli/stim_20210407_power2amp/equal_lnn_AM4.2Hz_81.m4a,,,
,,,,,,,,,,,,39902,2021-05-08_18h37.00.128,judgeSpeechMusic_20210407_logNormShiftAmp,2020.1.2,MacIntel,60,,,,,,,,,,,,,,2,5.841415,,0,1,97,247,106,1,stimuli/stim_20210407_power2amp/equal_lnn_AM4.8Hz_38.m4a,,,
,,,,,,,,,,,,39902,2021-05-08_18h37.00.128,judgeSpeechMusic_20210407_logNormShiftAmp,2020.1.2,MacIntel,60,,,,,,,,,,,,,,2,6.35892,,0,1,98,248,12,1,stimuli/stim_20210407_power2amp/equal_lnn_AM0.6Hz_52.m4a,,,
,,,,,,,,,,,,39902,2021-05-08_18h37.00.128,judgeSpeechMusic_20210407_logNormShiftAmp,2020.1.2,MacIntel,60,,,,,,,,,,,,,,2,7.577385,,0,1,99,249,13,1,stimuli/stim_20210407_power2amp/equal_lnn_AM0.6Hz_8.m4a,,,
,,,,,,,,,,,,39902,2021-05-08_18h37.00.128,judgeSpeechMusic_20210407_logNormShiftAmp,2020.1.2,MacIntel,60,,,,,,,,,,,,,,2,8.609625,,0,1,100,250,133,1,stimuli/stim_20210407_power2amp/equal_lnn_AM5.4Hz_96.m4a,,,
,,,,,,,,,,,,39902,2021-05-08_18h37.00.128,judgeSpeechMusic_20210407_logNormShiftAmp,2020.1.2,MacIntel,60,,,,,,,,,,,,,,2,6.507394999,,0,1,101,251,6,1,stimuli/stim_20210407_power2amp/equal_lnn_AM0.6Hz_10.m4a,,,
,,,,,,,,,,,,39902,2021-05-08_18h37.00.128,judgeSpeechMusic_20210407_logNormShiftAmp,2020.1.2,MacIntel,60,,,,,,,,,,,,,,2,7.26021,,0,1,102,252,138,1,stimuli/stim_20210407_power2amp/equal_lnn_AM6Hz_94.m4a,,,
,,,,,,,,,,,,39902,2021-05-08_18h37.00.128,judgeSpeechMusic_20210407_logNormShiftAmp,2020.1.2,MacIntel,60,,,,,,,,,,,,,,2,8.92528,,0,1,103,253,98,1,stimuli/stim_20210407_power2amp/equal_lnn_AM4.2Hz_58.m4a,,,
,,,,,,,,,,,,39902,2021-05-08_18h37.00.128,judgeSpeechMusic_20210407_logNormShiftAmp,2020.1.2,MacIntel,60,,,,,,,,,,,,,,2,5.89216,,0,1,104,254,44,1,stimuli/stim_20210407_power2amp/equal_lnn_AM1.8Hz_50.m4a,,,
,,,,,,,,,,,,39902,2021-05-08_18h37.00.128,judgeSpeechMusic_20210407_logNormShiftAmp,2020.1.2,MacIntel,60,,,,,,,,,,,,,,2,6.64018,,0,1,105,255,47,1,stimuli/stim_20210407_power2amp/equal_lnn_AM2.4Hz_17.m4a,,,
,,,,,,,,,,,,39902,2021-05-08_18h37.00.128,judgeSpeechMusic_20210407_logNormShiftAmp,2020.1.2,MacIntel,60,,,,,,,,,,,,,,2,8.30679,,0,1,106,256,40,1,stimuli/stim_20210407_power2amp/equal_lnn_AM1.8Hz_84.m4a,,,
,,,,,,,,,,,,39902,2021-05-08_18h37.00.128,judgeSpeechMusic_20210407_logNormShiftAmp,2020.1.2,MacIntel,60,,,,,,,,,,,,,,2,7.025235,2,1,1,107,257,124,1,stimuli/stim_20210407_power2amp/equal_lnn_AM5.4Hz_60.m4a,11.616055,,
,,,,,,,,,,,,39902,2021-05-08_18h37.00.128,judgeSpeechMusic_20210407_logNormShiftAmp,2020.1.2,MacIntel,60,,,,,,,,,,,,,,2,6.507680001,,0,1,108,258,18,1,stimuli/stim_20210407_power2amp/equal_lnn_AM1.2Hz_27.m4a,,,
,,,,,,,,,,,,39902,2021-05-08_18h37.00.128,judgeSpeechMusic_20210407_logNormShiftAmp,2020.1.2,MacIntel,60,,,,,,,,,,,,,,2,7.579080001,,0,1,109,259,81,1,stimuli/stim_20210407_power2amp/equal_lnn_AM3.6Hz_48.m4a,,,
,,,,,,,,,,,,39902,2021-05-08_18h37.00.128,judgeSpeechMusic_20210407_logNormShiftAmp,2020.1.2,MacIntel,60,,,,,,,,,,,,,,2,6.396515,,0,1,110,260,11,1,stimuli/stim_20210407_power2amp/equal_lnn_AM0.6Hz_2.m4a,,,
,,,,,,,,,,,,39902,2021-05-08_18h37.00.128,judgeSpeechMusic_20210407_logNormShiftAmp,2020.1.2,MacIntel,60,,,,,,,,,,,,,,2,9.0098,,0,1,111,261,32,1,stimuli/stim_20210407_power2amp/equal_lnn_AM1.8Hz_83.m4a,,,
,,,,,,,,,,,,39902,2021-05-08_18h37.00.128,judgeSpeechMusic_20210407_logNormShiftAmp,2020.1.2,MacIntel,60,,,,,,,,,,,,,,2,6.575045,,0,1,112,262,17,1,stimuli/stim_20210407_power2amp/equal_lnn_AM1.2Hz_11.m4a,,,
,,,,,,,,,,,,39902,2021-05-08_18h37.00.128,judgeSpeechMusic_20210407_logNormShiftAmp,2020.1.2,MacIntel,60,,,,,,,,,,,,,,2,12.608185,,0,1,113,263,143,1,stimuli/stim_20210407_power2amp/equal_lnn_AM6Hz_83.m4a,,,
,,,,,,,,,,,,39902,2021-05-08_18h37.00.128,judgeSpeechMusic_20210407_logNormShiftAmp,2020.1.2,MacIntel,60,,,,,,,,,,,,,,2,19.940515,,0,1,114,264,131,1,stimuli/stim_20210407_power2amp/equal_lnn_AM5.4Hz_12.m4a,,,
,,,,,,,,,,,,39902,2021-05-08_18h37.00.128,judgeSpeechMusic_20210407_logNormShiftAmp,2020.1.2,MacIntel,60,,,,,,,,,,,,,,2,21.342575,,0,1,115,265,1,1,stimuli/stim_20210407_power2amp/equal_lnn_AM0.6Hz_43.m4a,,,
,,,,,,,,,,,,39902,2021-05-08_18h37.00.128,judgeSpeechMusic_20210407_logNormShiftAmp,2020.1.2,MacIntel,60,,,,,,,,,,,,,,2,12.457465,,0,1,116,266,52,1,stimuli/stim_20210407_power2amp/equal_lnn_AM2.4Hz_34.m4a,,,
,,,,,,,,,,,,39902,2021-05-08_18h37.00.128,judgeSpeechMusic_20210407_logNormShiftAmp,2020.1.2,MacIntel,60,,,,,,,,,,,,,,2,9.15918,,0,1,117,267,26,1,stimuli/stim_20210407_power2amp/equal_lnn_AM1.2Hz_68.m4a,,,
,,,,,,,,,,,,39902,2021-05-08_18h37.00.128,judgeSpeechMusic_20210407_logNormShiftAmp,2020.1.2,MacIntel,60,,,,,,,,,,,,,,2,10.47905,,0,1,118,268,63,1,stimuli/stim_20210407_power2amp/equal_lnn_AM3Hz_59.m4a,,,
,,,,,,,,,,,,39902,2021-05-08_18h37.00.128,judgeSpeechMusic_20210407_logNormShiftAmp,2020.1.2,MacIntel,60,,,,,,,,,,,,,,1,8.64454,,0,1,119,269,3,1,stimuli/stim_20210407_power2amp/equal_lnn_AM0.6Hz_21.m4a,,,
,,,,,,,,,,,,39902,2021-05-08_18h37.00.128,judgeSpeechMusic_20210407_logNormShiftAmp,2020.1.2,MacIntel,60,,,,,,,,,,,,,,2,19.426635,,0,1,120,270,77,1,stimuli/stim_20210407_power2amp/equal_lnn_AM3.6Hz_47.m4a,,,
,,,,,,,,,,,,39902,2021-05-08_18h37.00.128,judgeSpeechMusic_20210407_logNormShiftAmp,2020.1.2,MacIntel,60,,,,,,,,,,,,,,2,9.57547,,0,1,121,271,140,1,stimuli/stim_20210407_power2amp/equal_lnn_AM6Hz_74.m4a,,,
,,,,,,,,,,,,39902,2021-05-08_18h37.00.128,judgeSpeechMusic_20210407_logNormShiftAmp,2020.1.2,MacIntel,60,,,,,,,,,,,,,,2,6.076734999,,0,1,122,272,87,1,stimuli/stim_20210407_power2amp/equal_lnn_AM3.6Hz_17.m4a,,,
,,,,,,,,,,,,39902,2021-05-08_18h37.00.128,judgeSpeechMusic_20210407_logNormShiftAmp,2020.1.2,MacIntel,60,,,,,,,,,,,,,,2,6.045059999,,0,1,123,273,48,1,stimuli/stim_20210407_power2amp/equal_lnn_AM2.4Hz_5.m4a,,,
,,,,,,,,,,,,39902,2021-05-08_18h37.00.128,judgeSpeechMusic_20210407_logNormShiftAmp,2020.1.2,MacIntel,60,,,,,,,,,,,,,,2,32.241455,,0,1,124,274,58,1,stimuli/stim_20210407_power2amp/equal_lnn_AM2.4Hz_43.m4a,,,
,,,,,,,,,,,,39902,2021-05-08_18h37.00.128,judgeSpeechMusic_20210407_logNormShiftAmp,2020.1.2,MacIntel,60,,,,,,,,,,,,,,2,7.256995001,,0,1,125,275,33,1,stimuli/stim_20210407_power2amp/equal_lnn_AM1.8Hz_66.m4a,,,
,,,,,,,,,,,,39902,2021-05-08_18h37.00.128,judgeSpeechMusic_20210407_logNormShiftAmp,2020.1.2,MacIntel,60,,,,,,,,,,,,,,1,22.10915,,0,1,126,276,15,1,stimuli/stim_20210407_power2amp/equal_lnn_AM1.2Hz_46.m4a,,,
,,,,,,,,,,,,39902,2021-05-08_18h37.00.128,judgeSpeechMusic_20210407_logNormShiftAmp,2020.1.2,MacIntel,60,,,,,,,,,,,,,,2,10.69109,,0,1,127,277,38,1,stimuli/stim_20210407_power2amp/equal_lnn_AM1.8Hz_71.m4a,,,
,,,,,,,,,,,,39902,2021-05-08_18h37.00.128,judgeSpeechMusic_20210407_logNormShiftAmp,2020.1.2,MacIntel,60,,,,,,,,,,,,,,2,6.81372,,0,1,128,278,137,1,stimuli/stim_20210407_power2amp/equal_lnn_AM6Hz_81.m4a,,,
,,,,,,,,,,,,39902,2021-05-08_18h37.00.128,judgeSpeechMusic_20210407_logNormShiftAmp,2020.1.2,MacIntel,60,,,,,,,,,,,,,,2,5.590895,,0,1,129,279,115,1,stimuli/stim_20210407_power2amp/equal_lnn_AM4.8Hz_34.m4a,,,
,,,,,,,,,,,,39902,2021-05-08_18h37.00.128,judgeSpeechMusic_20210407_logNormShiftAmp,2020.1.2,MacIntel,60,,,,,,,,,,,,,,2,6.140865,4,1,1,130,280,86,1,stimuli/stim_20210407_power2amp/equal_lnn_AM3.6Hz_89.m4a,4.579035,,
,,,,,,,,,,,,39902,2021-05-08_18h37.00.128,judgeSpeechMusic_20210407_logNormShiftAmp,2020.1.2,MacIntel,60,,,,,,,,,,,,,,2,6.475769999,,0,1,131,281,60,1,stimuli/stim_20210407_power2amp/equal_lnn_AM3Hz_17.m4a,,,
,,,,,,,,,,,,39902,2021-05-08_18h37.00.128,judgeSpeechMusic_20210407_logNormShiftAmp,2020.1.2,MacIntel,60,,,,,,,,,,,,,,2,7.324555,,0,1,132,282,66,1,stimuli/stim_20210407_power2amp/equal_lnn_AM3Hz_70.m4a,,,
,,,,,,,,,,,,39902,2021-05-08_18h37.00.128,judgeSpeechMusic_20210407_logNormShiftAmp,2020.1.2,MacIntel,60,,,,,,,,,,,,,,2,5.94241,,0,1,133,283,28,1,stimuli/stim_20210407_power2amp/equal_lnn_AM1.2Hz_96.m4a,,,
,,,,,,,,,,,,39902,2021-05-08_18h37.00.128,judgeSpeechMusic_20210407_logNormShiftAmp,2020.1.2,MacIntel,60,,,,,,,,,,,,,,2,7.458494999,,0,1,134,284,20,1,stimuli/stim_20210407_power2amp/equal_lnn_AM1.2Hz_81.m4a,,,
,,,,,,,,,,,,39902,2021-05-08_18h37.00.128,judgeSpeechMusic_20210407_logNormShiftAmp,2020.1.2,MacIntel,60,,,,,,,,,,,,,,2,6.777105,,0,1,135,285,88,1,stimuli/stim_20210407_power2amp/equal_lnn_AM3.6Hz_19.m4a,,,
,,,,,,,,,,,,39902,2021-05-08_18h37.00.128,judgeSpeechMusic_20210407_logNormShiftAmp,2020.1.2,MacIntel,60,,,,,,,,,,,,,,2,6.87424,,0,1,136,286,51,1,stimuli/stim_20210407_power2amp/equal_lnn_AM2.4Hz_94.m4a,,,
,,,,,,,,,,,,39902,2021-05-08_18h37.00.128,judgeSpeechMusic_20210407_logNormShiftAmp,2020.1.2,MacIntel,60,,,,,,,,,,,,,,2,6.843415,,0,1,137,287,59,1,stimuli/stim_20210407_power2amp/equal_lnn_AM2.4Hz_8.m4a,,,
,,,,,,,,,,,,39902,2021-05-08_18h37.00.128,judgeSpeechMusic_20210407_logNormShiftAmp,2020.1.2,MacIntel,60,,,,,,,,,,,,,,2,13.69054,,0,1,138,288,97,1,stimuli/stim_20210407_power2amp/equal_lnn_AM4.2Hz_92.m4a,,,
,,,,,,,,,,,,39902,2021-05-08_18h37.00.128,judgeSpeechMusic_20210407_logNormShiftAmp,2020.1.2,MacIntel,60,,,,,,,,,,,,,,2,56.791345,,0,1,139,289,104,1,stimuli/stim_20210407_power2amp/equal_lnn_AM4.2Hz_91.m4a,,,
,,,,,,,,,,,,39902,2021-05-08_18h37.00.128,judgeSpeechMusic_20210407_logNormShiftAmp,2020.1.2,MacIntel,60,,,,,,,,,,,,,,2,6.464715,,0,1,140,290,132,1,stimuli/stim_20210407_power2amp/equal_lnn_AM5.4Hz_88.m4a,,,
,,,,,,,,,,,,39902,2021-05-08_18h37.00.128,judgeSpeechMusic_20210407_logNormShiftAmp,2020.1.2,MacIntel,60,,,,,,,,,,,,,,2,12.860295,,0,1,141,291,49,1,stimuli/stim_20210407_power2amp/equal_lnn_AM2.4Hz_100.m4a,,,
,,,,,,,,,,,,39902,2021-05-08_18h37.00.128,judgeSpeechMusic_20210407_logNormShiftAmp,2020.1.2,MacIntel,60,,,,,,,,,,,,,,2,20.67423,,0,1,142,292,126,1,stimuli/stim_20210407_power2amp/equal_lnn_AM5.4Hz_81.m4a,,,
,,,,,,,,,,,,39902,2021-05-08_18h37.00.128,judgeSpeechMusic_20210407_logNormShiftAmp,2020.1.2,MacIntel,60,,,,,,,,,,,,,,2,10.22611,,0,1,143,293,53,1,stimuli/stim_20210407_power2amp/equal_lnn_AM2.4Hz_99.m4a,,,
,,,,,,,,,,,,39902,2021-05-08_18h37.00.128,judgeSpeechMusic_20210407_logNormShiftAmp,2020.1.2,MacIntel,60,,,,,,,,,,,,,,2,11.15805,,0,1,144,294,34,1,stimuli/stim_20210407_power2amp/equal_lnn_AM1.8Hz_98.m4a,,,
,,,,,,,,,,,,39902,2021-05-08_18h37.00.128,judgeSpeechMusic_20210407_logNormShiftAmp,2020.1.2,MacIntel,60,,,,,,,,,,,,,,2,6.075635,,0,1,145,295,0,1,stimuli/stim_20210407_power2amp/equal_lnn_AM0.6Hz_55.m4a,,,
,,,,,,,,,,,,39902,2021-05-08_18h37.00.128,judgeSpeechMusic_20210407_logNormShiftAmp,2020.1.2,MacIntel,60,,,,,,,,,,,,,,2,15.792625,,0,1,146,296,74,1,stimuli/stim_20210407_power2amp/equal_lnn_AM3Hz_48.m4a,,,
,,,,,,,,,,,,39902,2021-05-08_18h37.00.128,judgeSpeechMusic_20210407_logNormShiftAmp,2020.1.2,MacIntel,60,,,,,,,,,,,,,,2,7.808015,,0,1,147,297,79,1,stimuli/stim_20210407_power2amp/equal_lnn_AM3.6Hz_36.m4a,,,
,,,,,,,,,,,,39902,2021-05-08_18h37.00.128,judgeSpeechMusic_20210407_logNormShiftAmp,2020.1.2,MacIntel,60,,,,,,,,,,,,,,2,6.257865,,0,1,148,298,111,1,stimuli/stim_20210407_power2amp/equal_lnn_AM4.8Hz_18.m4a,,,
,,,,,,,,,,,,39902,2021-05-08_18h37.00.128,judgeSpeechMusic_20210407_logNormShiftAmp,2020.1.2,MacIntel,60,,,,,,,,,,,,,,2,7.15855,,0,1,149,299,56,1,stimuli/stim_20210407_power2amp/equal_lnn_AM2.4Hz_46.m4a,,,
,,,,,,,,,,,,39902,2021-05-08_18h37.00.128,judgeSpeechMusic_20210407_logNormShiftAmp,2020.1.2,MacIntel,60,,,,,,,,,,,,,,,,,,,,,,,,,space,4.452585
