headphoneResponse.keys,headphoneResponse.corr,headphoneResponse.rt,headphoneTrial.thisRepN,headphoneTrial.thisTrialN,headphoneTrial.thisN,headphoneTrial.thisIndex,headphoneTrial.ran,headphone_sound1,headphone_sound2,headphone_sound3,corrAns,participant,date,expName,psychopyVersion,OS,frameRate,trainSlider.response,trainSlider.rt,beepTrainResponse.keys,beepTrainResponse.corr,trainingTrials.thisRepN,trainingTrials.thisTrialN,trainingTrials.thisN,trainingTrials.thisIndex,trainingTrials.ran,trainAudioFile,beepTrainResponse.rt,readyReal_resp.keys,readyReal_resp.rt,ratingSlider.response,ratingSlider.rt,beepResp.keys,beepResp.corr,expTrials.thisRepN,expTrials.thisTrialN,expTrials.thisN,expTrials.thisIndex,expTrials.ran,audioFile,beepResp.rt,end_resp.keys,end_resp.rt
1,1,2.11276,0,0,0,4,1,stimuli/screen_quiet.wav,stimuli/screen_antiphase.wav,stimuli/screen_origin.wav,1,39920,2021-05-10_17h45.55.261,judgeSpeechMusic_20210407_logNormShiftAmp,2020.1.2,MacIntel,60,,,,,,,,,,,,,,,,,,,,,,,,,,
2,1,0.355315,0,1,1,1,1,stimuli/screen_antiphase.wav,stimuli/screen_quiet.wav,stimuli/screen_origin.wav,2,39920,2021-05-10_17h45.55.261,judgeSpeechMusic_20210407_logNormShiftAmp,2020.1.2,MacIntel,60,,,,,,,,,,,,,,,,,,,,,,,,,,
3,1,0.356195,0,2,2,2,1,stimuli/screen_origin.wav,stimuli/screen_antiphase.wav,stimuli/screen_quiet.wav,3,39920,2021-05-10_17h45.55.261,judgeSpeechMusic_20210407_logNormShiftAmp,2020.1.2,MacIntel,60,,,,,,,,,,,,,,,,,,,,,,,,,,
1,1,0.219125,0,3,3,5,1,stimuli/screen_quiet.wav,stimuli/screen_origin.wav,stimuli/screen_antiphase.wav,1,39920,2021-05-10_17h45.55.261,judgeSpeechMusic_20210407_logNormShiftAmp,2020.1.2,MacIntel,60,,,,,,,,,,,,,,,,,,,,,,,,,,
2,1,0.536145,0,4,4,3,1,stimuli/screen_origin.wav,stimuli/screen_quiet.wav,stimuli/screen_antiphase.wav,2,39920,2021-05-10_17h45.55.261,judgeSpeechMusic_20210407_logNormShiftAmp,2020.1.2,MacIntel,60,,,,,,,,,,,,,,,,,,,,,,,,,,
3,1,0.67417,0,5,5,0,1,stimuli/screen_antiphase.wav,stimuli/screen_origin.wav,stimuli/screen_quiet.wav,3,39920,2021-05-10_17h45.55.261,judgeSpeechMusic_20210407_logNormShiftAmp,2020.1.2,MacIntel,60,,,,,,,,,,,,,,,,,,,,,,,,,,
,,,,,,,,,,,,39920,2021-05-10_17h45.55.261,judgeSpeechMusic_20210407_logNormShiftAmp,2020.1.2,MacIntel,60,2,11.160325,,0,0,0,0,1,1,stimuli/stim_20210407_power2amp/equal_lnn_AM_training2.7Hz.m4a,,,,,,,,,,,,,,,,
,,,,,,,,,,,,39920,2021-05-10_17h45.55.261,judgeSpeechMusic_20210407_logNormShiftAmp,2020.1.2,MacIntel,60,1,7.402255,,0,0,1,1,3,1,stimuli/stim_20210407_power2amp/equal_lnn_AM_training5.1Hz.m4a,,,,,,,,,,,,,,,,
,,,,,,,,,,,,39920,2021-05-10_17h45.55.261,judgeSpeechMusic_20210407_logNormShiftAmp,2020.1.2,MacIntel,60,2,8.59271,4,1,0,2,2,0,1,stimuli/stim_20210407_power2amp/equal_lnn_AM_training1.5Hz.m4a,1.77686,,,,,,,,,,,,,,,
,,,,,,,,,,,,39920,2021-05-10_17h45.55.261,judgeSpeechMusic_20210407_logNormShiftAmp,2020.1.2,MacIntel,60,2,23.32324,,0,0,3,3,2,1,stimuli/stim_20210407_power2amp/equal_lnn_AM_training3.9Hz.m4a,,,,,,,,,,,,,,,,
,,,,,,,,,,,,39920,2021-05-10_17h45.55.261,judgeSpeechMusic_20210407_logNormShiftAmp,2020.1.2,MacIntel,60,,,,,,,,,,,,space,6.15803,2,7.003425,,0,0,0,0,25,1,stimuli/stim_20210407_power2amp/equal_lnn_AM1.2Hz_94.m4a,,,
,,,,,,,,,,,,39920,2021-05-10_17h45.55.261,judgeSpeechMusic_20210407_logNormShiftAmp,2020.1.2,MacIntel,60,,,,,,,,,,,,,,1,6.455655,,0,0,1,1,53,1,stimuli/stim_20210407_power2amp/equal_lnn_AM2.4Hz_73.m4a,,,
,,,,,,,,,,,,39920,2021-05-10_17h45.55.261,judgeSpeechMusic_20210407_logNormShiftAmp,2020.1.2,MacIntel,60,,,,,,,,,,,,,,2,6.588855,,0,0,2,2,13,1,stimuli/stim_20210407_power2amp/equal_lnn_AM0.6Hz_26.m4a,,,
,,,,,,,,,,,,39920,2021-05-10_17h45.55.261,judgeSpeechMusic_20210407_logNormShiftAmp,2020.1.2,MacIntel,60,,,,,,,,,,,,,,2,5.82322,,0,0,3,3,36,1,stimuli/stim_20210407_power2amp/equal_lnn_AM1.8Hz_54.m4a,,,
,,,,,,,,,,,,39920,2021-05-10_17h45.55.261,judgeSpeechMusic_20210407_logNormShiftAmp,2020.1.2,MacIntel,60,,,,,,,,,,,,,,1,6.37444,,0,0,4,4,6,1,stimuli/stim_20210407_power2amp/equal_lnn_AM0.6Hz_41.m4a,,,
,,,,,,,,,,,,39920,2021-05-10_17h45.55.261,judgeSpeechMusic_20210407_logNormShiftAmp,2020.1.2,MacIntel,60,,,,,,,,,,,,,,1,6.039205,,0,0,5,5,32,1,stimuli/stim_20210407_power2amp/equal_lnn_AM1.8Hz_22.m4a,,,
,,,,,,,,,,,,39920,2021-05-10_17h45.55.261,judgeSpeechMusic_20210407_logNormShiftAmp,2020.1.2,MacIntel,60,,,,,,,,,,,,,,1,6.223855,,0,0,6,6,58,1,stimuli/stim_20210407_power2amp/equal_lnn_AM2.4Hz_10.m4a,,,
,,,,,,,,,,,,39920,2021-05-10_17h45.55.261,judgeSpeechMusic_20210407_logNormShiftAmp,2020.1.2,MacIntel,60,,,,,,,,,,,,,,1,5.90222,,0,0,7,7,4,1,stimuli/stim_20210407_power2amp/equal_lnn_AM0.6Hz_74.m4a,,,
,,,,,,,,,,,,39920,2021-05-10_17h45.55.261,judgeSpeechMusic_20210407_logNormShiftAmp,2020.1.2,MacIntel,60,,,,,,,,,,,,,,2,7.24253,,0,0,8,8,105,1,stimuli/stim_20210407_power2amp/equal_lnn_AM4.8Hz_31.m4a,,,
,,,,,,,,,,,,39920,2021-05-10_17h45.55.261,judgeSpeechMusic_20210407_logNormShiftAmp,2020.1.2,MacIntel,60,,,,,,,,,,,,,,2,9.872545,,0,0,9,9,40,1,stimuli/stim_20210407_power2amp/equal_lnn_AM1.8Hz_94.m4a,,,
,,,,,,,,,,,,39920,2021-05-10_17h45.55.261,judgeSpeechMusic_20210407_logNormShiftAmp,2020.1.2,MacIntel,60,,,,,,,,,,,,,,1,7.09387,,0,0,10,10,21,1,stimuli/stim_20210407_power2amp/equal_lnn_AM1.2Hz_17.m4a,,,
,,,,,,,,,,,,39920,2021-05-10_17h45.55.261,judgeSpeechMusic_20210407_logNormShiftAmp,2020.1.2,MacIntel,60,,,,,,,,,,,,,,2,6.25141,,0,0,11,11,52,1,stimuli/stim_20210407_power2amp/equal_lnn_AM2.4Hz_96.m4a,,,
,,,,,,,,,,,,39920,2021-05-10_17h45.55.261,judgeSpeechMusic_20210407_logNormShiftAmp,2020.1.2,MacIntel,60,,,,,,,,,,,,,,2,6.47241,,0,0,12,12,129,1,stimuli/stim_20210407_power2amp/equal_lnn_AM5.4Hz_61.m4a,,,
,,,,,,,,,,,,39920,2021-05-10_17h45.55.261,judgeSpeechMusic_20210407_logNormShiftAmp,2020.1.2,MacIntel,60,,,,,,,,,,,,,,2,5.97257,,0,0,13,13,121,1,stimuli/stim_20210407_power2amp/equal_lnn_AM5.4Hz_38.m4a,,,
,,,,,,,,,,,,39920,2021-05-10_17h45.55.261,judgeSpeechMusic_20210407_logNormShiftAmp,2020.1.2,MacIntel,60,,,,,,,,,,,,,,1,5.74385,,0,0,14,14,33,1,stimuli/stim_20210407_power2amp/equal_lnn_AM1.8Hz_9.m4a,,,
,,,,,,,,,,,,39920,2021-05-10_17h45.55.261,judgeSpeechMusic_20210407_logNormShiftAmp,2020.1.2,MacIntel,60,,,,,,,,,,,,,,1,5.901855,,0,0,15,15,64,1,stimuli/stim_20210407_power2amp/equal_lnn_AM3Hz_94.m4a,,,
,,,,,,,,,,,,39920,2021-05-10_17h45.55.261,judgeSpeechMusic_20210407_logNormShiftAmp,2020.1.2,MacIntel,60,,,,,,,,,,,,,,1,5.83865,,0,0,16,16,39,1,stimuli/stim_20210407_power2amp/equal_lnn_AM1.8Hz_77.m4a,,,
,,,,,,,,,,,,39920,2021-05-10_17h45.55.261,judgeSpeechMusic_20210407_logNormShiftAmp,2020.1.2,MacIntel,60,,,,,,,,,,,,,,2,6.292155,,0,0,17,17,116,1,stimuli/stim_20210407_power2amp/equal_lnn_AM4.8Hz_58.m4a,,,
,,,,,,,,,,,,39920,2021-05-10_17h45.55.261,judgeSpeechMusic_20210407_logNormShiftAmp,2020.1.2,MacIntel,60,,,,,,,,,,,,,,1,7.02365,,0,0,18,18,61,1,stimuli/stim_20210407_power2amp/equal_lnn_AM3Hz_28.m4a,,,
,,,,,,,,,,,,39920,2021-05-10_17h45.55.261,judgeSpeechMusic_20210407_logNormShiftAmp,2020.1.2,MacIntel,60,,,,,,,,,,,,,,1,7.83109,,0,0,19,19,94,1,stimuli/stim_20210407_power2amp/equal_lnn_AM4.2Hz_33.m4a,,,
,,,,,,,,,,,,39920,2021-05-10_17h45.55.261,judgeSpeechMusic_20210407_logNormShiftAmp,2020.1.2,MacIntel,60,,,,,,,,,,,,,,2,6.57104,,0,0,20,20,83,1,stimuli/stim_20210407_power2amp/equal_lnn_AM3.6Hz_29.m4a,,,
,,,,,,,,,,,,39920,2021-05-10_17h45.55.261,judgeSpeechMusic_20210407_logNormShiftAmp,2020.1.2,MacIntel,60,,,,,,,,,,,,,,2,6.157905,,0,0,21,21,108,1,stimuli/stim_20210407_power2amp/equal_lnn_AM4.8Hz_91.m4a,,,
,,,,,,,,,,,,39920,2021-05-10_17h45.55.261,judgeSpeechMusic_20210407_logNormShiftAmp,2020.1.2,MacIntel,60,,,,,,,,,,,,,,1,7.05665,,0,0,22,22,30,1,stimuli/stim_20210407_power2amp/equal_lnn_AM1.8Hz_36.m4a,,,
,,,,,,,,,,,,39920,2021-05-10_17h45.55.261,judgeSpeechMusic_20210407_logNormShiftAmp,2020.1.2,MacIntel,60,,,,,,,,,,,,,,2,6.562405,,0,0,23,23,26,1,stimuli/stim_20210407_power2amp/equal_lnn_AM1.2Hz_5.m4a,,,
,,,,,,,,,,,,39920,2021-05-10_17h45.55.261,judgeSpeechMusic_20210407_logNormShiftAmp,2020.1.2,MacIntel,60,,,,,,,,,,,,,,1,6.318555,,0,0,24,24,77,1,stimuli/stim_20210407_power2amp/equal_lnn_AM3.6Hz_33.m4a,,,
,,,,,,,,,,,,39920,2021-05-10_17h45.55.261,judgeSpeechMusic_20210407_logNormShiftAmp,2020.1.2,MacIntel,60,,,,,,,,,,,,,,1,5.724075,,0,0,25,25,1,1,stimuli/stim_20210407_power2amp/equal_lnn_AM0.6Hz_35.m4a,,,
,,,,,,,,,,,,39920,2021-05-10_17h45.55.261,judgeSpeechMusic_20210407_logNormShiftAmp,2020.1.2,MacIntel,60,,,,,,,,,,,,,,1,8.73938,,0,0,26,26,49,1,stimuli/stim_20210407_power2amp/equal_lnn_AM2.4Hz_65.m4a,,,
,,,,,,,,,,,,39920,2021-05-10_17h45.55.261,judgeSpeechMusic_20210407_logNormShiftAmp,2020.1.2,MacIntel,60,,,,,,,,,,,,,,2,6.60697,,0,0,27,27,104,1,stimuli/stim_20210407_power2amp/equal_lnn_AM4.2Hz_71.m4a,,,
,,,,,,,,,,,,39920,2021-05-10_17h45.55.261,judgeSpeechMusic_20210407_logNormShiftAmp,2020.1.2,MacIntel,60,,,,,,,,,,,,,,2,5.92107,,0,0,28,28,133,1,stimuli/stim_20210407_power2amp/equal_lnn_AM5.4Hz_88.m4a,,,
,,,,,,,,,,,,39920,2021-05-10_17h45.55.261,judgeSpeechMusic_20210407_logNormShiftAmp,2020.1.2,MacIntel,60,,,,,,,,,,,,,,1,6.758325,,0,0,29,29,19,1,stimuli/stim_20210407_power2amp/equal_lnn_AM1.2Hz_64.m4a,,,
,,,,,,,,,,,,39920,2021-05-10_17h45.55.261,judgeSpeechMusic_20210407_logNormShiftAmp,2020.1.2,MacIntel,60,,,,,,,,,,,,,,2,6.70973,2,1,0,30,30,106,1,stimuli/stim_20210407_power2amp/equal_lnn_AM4.8Hz_39.m4a,0.30755,,
,,,,,,,,,,,,39920,2021-05-10_17h45.55.261,judgeSpeechMusic_20210407_logNormShiftAmp,2020.1.2,MacIntel,60,,,,,,,,,,,,,,2,7.127255,,0,0,31,31,100,1,stimuli/stim_20210407_power2amp/equal_lnn_AM4.2Hz_50.m4a,,,
,,,,,,,,,,,,39920,2021-05-10_17h45.55.261,judgeSpeechMusic_20210407_logNormShiftAmp,2020.1.2,MacIntel,60,,,,,,,,,,,,,,2,5.869395,,0,0,32,32,125,1,stimuli/stim_20210407_power2amp/equal_lnn_AM5.4Hz_73.m4a,,,
,,,,,,,,,,,,39920,2021-05-10_17h45.55.261,judgeSpeechMusic_20210407_logNormShiftAmp,2020.1.2,MacIntel,60,,,,,,,,,,,,,,1,6.67393,,0,0,33,33,86,1,stimuli/stim_20210407_power2amp/equal_lnn_AM3.6Hz_30.m4a,,,
,,,,,,,,,,,,39920,2021-05-10_17h45.55.261,judgeSpeechMusic_20210407_logNormShiftAmp,2020.1.2,MacIntel,60,,,,,,,,,,,,,,1,6.37255,,0,0,34,34,128,1,stimuli/stim_20210407_power2amp/equal_lnn_AM5.4Hz_42.m4a,,,
,,,,,,,,,,,,39920,2021-05-10_17h45.55.261,judgeSpeechMusic_20210407_logNormShiftAmp,2020.1.2,MacIntel,60,,,,,,,,,,,,,,1,5.922545,,0,0,35,35,5,1,stimuli/stim_20210407_power2amp/equal_lnn_AM0.6Hz_52.m4a,,,
,,,,,,,,,,,,39920,2021-05-10_17h45.55.261,judgeSpeechMusic_20210407_logNormShiftAmp,2020.1.2,MacIntel,60,,,,,,,,,,,,,,1,5.85467,,0,0,36,36,47,1,stimuli/stim_20210407_power2amp/equal_lnn_AM2.4Hz_60.m4a,,,
,,,,,,,,,,,,39920,2021-05-10_17h45.55.261,judgeSpeechMusic_20210407_logNormShiftAmp,2020.1.2,MacIntel,60,,,,,,,,,,,,,,2,5.79027,,0,0,37,37,145,1,stimuli/stim_20210407_power2amp/equal_lnn_AM6Hz_66.m4a,,,
,,,,,,,,,,,,39920,2021-05-10_17h45.55.261,judgeSpeechMusic_20210407_logNormShiftAmp,2020.1.2,MacIntel,60,,,,,,,,,,,,,,1,6.10374,,0,0,38,38,27,1,stimuli/stim_20210407_power2amp/equal_lnn_AM1.2Hz_26.m4a,,,
,,,,,,,,,,,,39920,2021-05-10_17h45.55.261,judgeSpeechMusic_20210407_logNormShiftAmp,2020.1.2,MacIntel,60,,,,,,,,,,,,,,2,6.508005,,0,0,39,39,142,1,stimuli/stim_20210407_power2amp/equal_lnn_AM6Hz_7.m4a,,,
,,,,,,,,,,,,39920,2021-05-10_17h45.55.261,judgeSpeechMusic_20210407_logNormShiftAmp,2020.1.2,MacIntel,60,,,,,,,,,,,,,,1,6.021625,,0,0,40,40,55,1,stimuli/stim_20210407_power2amp/equal_lnn_AM2.4Hz_69.m4a,,,
,,,,,,,,,,,,39920,2021-05-10_17h45.55.261,judgeSpeechMusic_20210407_logNormShiftAmp,2020.1.2,MacIntel,60,,,,,,,,,,,,,,2,5.608035,,0,0,41,41,82,1,stimuli/stim_20210407_power2amp/equal_lnn_AM3.6Hz_8.m4a,,,
,,,,,,,,,,,,39920,2021-05-10_17h45.55.261,judgeSpeechMusic_20210407_logNormShiftAmp,2020.1.2,MacIntel,60,,,,,,,,,,,,,,1,6.16965,,0,0,42,42,3,1,stimuli/stim_20210407_power2amp/equal_lnn_AM0.6Hz_24.m4a,,,
,,,,,,,,,,,,39920,2021-05-10_17h45.55.261,judgeSpeechMusic_20210407_logNormShiftAmp,2020.1.2,MacIntel,60,,,,,,,,,,,,,,2,7.37481,,0,0,43,43,85,1,stimuli/stim_20210407_power2amp/equal_lnn_AM3.6Hz_5.m4a,,,
,,,,,,,,,,,,39920,2021-05-10_17h45.55.261,judgeSpeechMusic_20210407_logNormShiftAmp,2020.1.2,MacIntel,60,,,,,,,,,,,,,,2,6.541615,,0,0,44,44,92,1,stimuli/stim_20210407_power2amp/equal_lnn_AM4.2Hz_74.m4a,,,
,,,,,,,,,,,,39920,2021-05-10_17h45.55.261,judgeSpeechMusic_20210407_logNormShiftAmp,2020.1.2,MacIntel,60,,,,,,,,,,,,,,2,5.68838,,0,0,45,45,117,1,stimuli/stim_20210407_power2amp/equal_lnn_AM4.8Hz_70.m4a,,,
,,,,,,,,,,,,39920,2021-05-10_17h45.55.261,judgeSpeechMusic_20210407_logNormShiftAmp,2020.1.2,MacIntel,60,,,,,,,,,,,,,,1,5.6902,,0,0,46,46,24,1,stimuli/stim_20210407_power2amp/equal_lnn_AM1.2Hz_82.m4a,,,
,,,,,,,,,,,,39920,2021-05-10_17h45.55.261,judgeSpeechMusic_20210407_logNormShiftAmp,2020.1.2,MacIntel,60,,,,,,,,,,,,,,1,5.777065,,0,0,47,47,72,1,stimuli/stim_20210407_power2amp/equal_lnn_AM3Hz_62.m4a,,,
,,,,,,,,,,,,39920,2021-05-10_17h45.55.261,judgeSpeechMusic_20210407_logNormShiftAmp,2020.1.2,MacIntel,60,,,,,,,,,,,,,,1,5.823005,,0,0,48,48,103,1,stimuli/stim_20210407_power2amp/equal_lnn_AM4.2Hz_5.m4a,,,
,,,,,,,,,,,,39920,2021-05-10_17h45.55.261,judgeSpeechMusic_20210407_logNormShiftAmp,2020.1.2,MacIntel,60,,,,,,,,,,,,,,2,6.37381,,0,0,49,49,98,1,stimuli/stim_20210407_power2amp/equal_lnn_AM4.2Hz_92.m4a,,,
,,,,,,,,,,,,39920,2021-05-10_17h45.55.261,judgeSpeechMusic_20210407_logNormShiftAmp,2020.1.2,MacIntel,60,,,,,,,,,,,,,,2,5.70902,,0,0,50,50,146,1,stimuli/stim_20210407_power2amp/equal_lnn_AM6Hz_9.m4a,,,
,,,,,,,,,,,,39920,2021-05-10_17h45.55.261,judgeSpeechMusic_20210407_logNormShiftAmp,2020.1.2,MacIntel,60,,,,,,,,,,,,,,1,6.83681,,0,0,51,51,130,1,stimuli/stim_20210407_power2amp/equal_lnn_AM5.4Hz_91.m4a,,,
,,,,,,,,,,,,39920,2021-05-10_17h45.55.261,judgeSpeechMusic_20210407_logNormShiftAmp,2020.1.2,MacIntel,60,,,,,,,,,,,,,,2,7.972105,2,1,0,52,52,88,1,stimuli/stim_20210407_power2amp/equal_lnn_AM3.6Hz_78.m4a,0.36176,,
,,,,,,,,,,,,39920,2021-05-10_17h45.55.261,judgeSpeechMusic_20210407_logNormShiftAmp,2020.1.2,MacIntel,60,,,,,,,,,,,,,,1,7.24168,,0,0,53,53,60,1,stimuli/stim_20210407_power2amp/equal_lnn_AM3Hz_70.m4a,,,
,,,,,,,,,,,,39920,2021-05-10_17h45.55.261,judgeSpeechMusic_20210407_logNormShiftAmp,2020.1.2,MacIntel,60,,,,,,,,,,,,,,1,10.04148,,0,0,54,54,56,1,stimuli/stim_20210407_power2amp/equal_lnn_AM2.4Hz_25.m4a,,,
,,,,,,,,,,,,39920,2021-05-10_17h45.55.261,judgeSpeechMusic_20210407_logNormShiftAmp,2020.1.2,MacIntel,60,,,,,,,,,,,,,,2,7.21119,,0,0,55,55,79,1,stimuli/stim_20210407_power2amp/equal_lnn_AM3.6Hz_84.m4a,,,
,,,,,,,,,,,,39920,2021-05-10_17h45.55.261,judgeSpeechMusic_20210407_logNormShiftAmp,2020.1.2,MacIntel,60,,,,,,,,,,,,,,2,7.386855,,0,0,56,56,93,1,stimuli/stim_20210407_power2amp/equal_lnn_AM4.2Hz_42.m4a,,,
,,,,,,,,,,,,39920,2021-05-10_17h45.55.261,judgeSpeechMusic_20210407_logNormShiftAmp,2020.1.2,MacIntel,60,,,,,,,,,,,,,,2,7.121185,,0,0,57,57,73,1,stimuli/stim_20210407_power2amp/equal_lnn_AM3Hz_35.m4a,,,
,,,,,,,,,,,,39920,2021-05-10_17h45.55.261,judgeSpeechMusic_20210407_logNormShiftAmp,2020.1.2,MacIntel,60,,,,,,,,,,,,,,2,5.80369,,0,0,58,58,50,1,stimuli/stim_20210407_power2amp/equal_lnn_AM2.4Hz_40.m4a,,,
,,,,,,,,,,,,39920,2021-05-10_17h45.55.261,judgeSpeechMusic_20210407_logNormShiftAmp,2020.1.2,MacIntel,60,,,,,,,,,,,,,,2,5.695235,,0,0,59,59,75,1,stimuli/stim_20210407_power2amp/equal_lnn_AM3.6Hz_16.m4a,,,
,,,,,,,,,,,,39920,2021-05-10_17h45.55.261,judgeSpeechMusic_20210407_logNormShiftAmp,2020.1.2,MacIntel,60,,,,,,,,,,,,,,1,6.47578,,0,0,60,60,68,1,stimuli/stim_20210407_power2amp/equal_lnn_AM3Hz_44.m4a,,,
,,,,,,,,,,,,39920,2021-05-10_17h45.55.261,judgeSpeechMusic_20210407_logNormShiftAmp,2020.1.2,MacIntel,60,,,,,,,,,,,,,,2,7.35694,,0,0,61,61,65,1,stimuli/stim_20210407_power2amp/equal_lnn_AM3Hz_4.m4a,,,
,,,,,,,,,,,,39920,2021-05-10_17h45.55.261,judgeSpeechMusic_20210407_logNormShiftAmp,2020.1.2,MacIntel,60,,,,,,,,,,,,,,2,5.766315,,0,0,62,62,123,1,stimuli/stim_20210407_power2amp/equal_lnn_AM5.4Hz_3.m4a,,,
,,,,,,,,,,,,39920,2021-05-10_17h45.55.261,judgeSpeechMusic_20210407_logNormShiftAmp,2020.1.2,MacIntel,60,,,,,,,,,,,,,,2,5.716435,,0,0,63,63,132,1,stimuli/stim_20210407_power2amp/equal_lnn_AM5.4Hz_83.m4a,,,
,,,,,,,,,,,,39920,2021-05-10_17h45.55.261,judgeSpeechMusic_20210407_logNormShiftAmp,2020.1.2,MacIntel,60,,,,,,,,,,,,,,1,5.74501,,0,0,64,64,44,1,stimuli/stim_20210407_power2amp/equal_lnn_AM1.8Hz_58.m4a,,,
,,,,,,,,,,,,39920,2021-05-10_17h45.55.261,judgeSpeechMusic_20210407_logNormShiftAmp,2020.1.2,MacIntel,60,,,,,,,,,,,,,,1,6.68598,,0,0,65,65,71,1,stimuli/stim_20210407_power2amp/equal_lnn_AM3Hz_84.m4a,,,
,,,,,,,,,,,,39920,2021-05-10_17h45.55.261,judgeSpeechMusic_20210407_logNormShiftAmp,2020.1.2,MacIntel,60,,,,,,,,,,,,,,1,5.79491,,0,0,66,66,131,1,stimuli/stim_20210407_power2amp/equal_lnn_AM5.4Hz_4.m4a,,,
,,,,,,,,,,,,39920,2021-05-10_17h45.55.261,judgeSpeechMusic_20210407_logNormShiftAmp,2020.1.2,MacIntel,60,,,,,,,,,,,,,,1,5.756735,,0,0,67,67,15,1,stimuli/stim_20210407_power2amp/equal_lnn_AM1.2Hz_16.m4a,,,
,,,,,,,,,,,,39920,2021-05-10_17h45.55.261,judgeSpeechMusic_20210407_logNormShiftAmp,2020.1.2,MacIntel,60,,,,,,,,,,,,,,1,5.82236,,0,0,68,68,122,1,stimuli/stim_20210407_power2amp/equal_lnn_AM5.4Hz_99.m4a,,,
,,,,,,,,,,,,39920,2021-05-10_17h45.55.261,judgeSpeechMusic_20210407_logNormShiftAmp,2020.1.2,MacIntel,60,,,,,,,,,,,,,,1,5.840345,,0,0,69,69,76,1,stimuli/stim_20210407_power2amp/equal_lnn_AM3.6Hz_10.m4a,,,
,,,,,,,,,,,,39920,2021-05-10_17h45.55.261,judgeSpeechMusic_20210407_logNormShiftAmp,2020.1.2,MacIntel,60,,,,,,,,,,,,,,2,6.27886,,0,0,70,70,95,1,stimuli/stim_20210407_power2amp/equal_lnn_AM4.2Hz_8.m4a,,,
,,,,,,,,,,,,39920,2021-05-10_17h45.55.261,judgeSpeechMusic_20210407_logNormShiftAmp,2020.1.2,MacIntel,60,,,,,,,,,,,,,,2,6.43747,,0,0,71,71,87,1,stimuli/stim_20210407_power2amp/equal_lnn_AM3.6Hz_62.m4a,,,
,,,,,,,,,,,,39920,2021-05-10_17h45.55.261,judgeSpeechMusic_20210407_logNormShiftAmp,2020.1.2,MacIntel,60,,,,,,,,,,,,,,2,7.059655,,0,0,72,72,70,1,stimuli/stim_20210407_power2amp/equal_lnn_AM3Hz_11.m4a,,,
,,,,,,,,,,,,39920,2021-05-10_17h45.55.261,judgeSpeechMusic_20210407_logNormShiftAmp,2020.1.2,MacIntel,60,,,,,,,,,,,,,,1,5.78898,,0,0,73,73,29,1,stimuli/stim_20210407_power2amp/equal_lnn_AM1.2Hz_24.m4a,,,
,,,,,,,,,,,,39920,2021-05-10_17h45.55.261,judgeSpeechMusic_20210407_logNormShiftAmp,2020.1.2,MacIntel,60,,,,,,,,,,,,,,1,5.60356,3,1,0,74,74,22,1,stimuli/stim_20210407_power2amp/equal_lnn_AM1.2Hz_43.m4a,0.712375,,
,,,,,,,,,,,,39920,2021-05-10_17h45.55.261,judgeSpeechMusic_20210407_logNormShiftAmp,2020.1.2,MacIntel,60,,,,,,,,,,,,,,1,5.706935,,0,0,75,75,34,1,stimuli/stim_20210407_power2amp/equal_lnn_AM1.8Hz_29.m4a,,,
,,,,,,,,,,,,39920,2021-05-10_17h45.55.261,judgeSpeechMusic_20210407_logNormShiftAmp,2020.1.2,MacIntel,60,,,,,,,,,,,,,,2,6.2077,,0,0,76,76,84,1,stimuli/stim_20210407_power2amp/equal_lnn_AM3.6Hz_42.m4a,,,
,,,,,,,,,,,,39920,2021-05-10_17h45.55.261,judgeSpeechMusic_20210407_logNormShiftAmp,2020.1.2,MacIntel,60,,,,,,,,,,,,,,1,5.8929,,0,0,77,77,10,1,stimuli/stim_20210407_power2amp/equal_lnn_AM0.6Hz_18.m4a,,,
,,,,,,,,,,,,39920,2021-05-10_17h45.55.261,judgeSpeechMusic_20210407_logNormShiftAmp,2020.1.2,MacIntel,60,,,,,,,,,,,,,,2,5.74038,,0,0,78,78,113,1,stimuli/stim_20210407_power2amp/equal_lnn_AM4.8Hz_86.m4a,,,
,,,,,,,,,,,,39920,2021-05-10_17h45.55.261,judgeSpeechMusic_20210407_logNormShiftAmp,2020.1.2,MacIntel,60,,,,,,,,,,,,,,2,7.01004,,0,0,79,79,102,1,stimuli/stim_20210407_power2amp/equal_lnn_AM4.2Hz_7.m4a,,,
,,,,,,,,,,,,39920,2021-05-10_17h45.55.261,judgeSpeechMusic_20210407_logNormShiftAmp,2020.1.2,MacIntel,60,,,,,,,,,,,,,,2,5.680705,,0,0,80,80,110,1,stimuli/stim_20210407_power2amp/equal_lnn_AM4.8Hz_63.m4a,,,
,,,,,,,,,,,,39920,2021-05-10_17h45.55.261,judgeSpeechMusic_20210407_logNormShiftAmp,2020.1.2,MacIntel,60,,,,,,,,,,,,,,1,5.692845,,0,0,81,81,28,1,stimuli/stim_20210407_power2amp/equal_lnn_AM1.2Hz_51.m4a,,,
,,,,,,,,,,,,39920,2021-05-10_17h45.55.261,judgeSpeechMusic_20210407_logNormShiftAmp,2020.1.2,MacIntel,60,,,,,,,,,,,,,,1,6.704575,,0,0,82,82,81,1,stimuli/stim_20210407_power2amp/equal_lnn_AM3.6Hz_67.m4a,,,
,,,,,,,,,,,,39920,2021-05-10_17h45.55.261,judgeSpeechMusic_20210407_logNormShiftAmp,2020.1.2,MacIntel,60,,,,,,,,,,,,,,2,5.82566,,0,0,83,83,111,1,stimuli/stim_20210407_power2amp/equal_lnn_AM4.8Hz_89.m4a,,,
,,,,,,,,,,,,39920,2021-05-10_17h45.55.261,judgeSpeechMusic_20210407_logNormShiftAmp,2020.1.2,MacIntel,60,,,,,,,,,,,,,,1,6.571165,,0,0,84,84,0,1,stimuli/stim_20210407_power2amp/equal_lnn_AM0.6Hz_17.m4a,,,
,,,,,,,,,,,,39920,2021-05-10_17h45.55.261,judgeSpeechMusic_20210407_logNormShiftAmp,2020.1.2,MacIntel,60,,,,,,,,,,,,,,1,5.60714,,0,0,85,85,99,1,stimuli/stim_20210407_power2amp/equal_lnn_AM4.2Hz_64.m4a,,,
,,,,,,,,,,,,39920,2021-05-10_17h45.55.261,judgeSpeechMusic_20210407_logNormShiftAmp,2020.1.2,MacIntel,60,,,,,,,,,,,,,,1,5.642515,,0,0,86,86,78,1,stimuli/stim_20210407_power2amp/equal_lnn_AM3.6Hz_6.m4a,,,
,,,,,,,,,,,,39920,2021-05-10_17h45.55.261,judgeSpeechMusic_20210407_logNormShiftAmp,2020.1.2,MacIntel,60,,,,,,,,,,,,,,1,6.00609,,0,0,87,87,107,1,stimuli/stim_20210407_power2amp/equal_lnn_AM4.8Hz_80.m4a,,,
,,,,,,,,,,,,39920,2021-05-10_17h45.55.261,judgeSpeechMusic_20210407_logNormShiftAmp,2020.1.2,MacIntel,60,,,,,,,,,,,,,,1,5.639775,,0,0,88,88,115,1,stimuli/stim_20210407_power2amp/equal_lnn_AM4.8Hz_65.m4a,,,
,,,,,,,,,,,,39920,2021-05-10_17h45.55.261,judgeSpeechMusic_20210407_logNormShiftAmp,2020.1.2,MacIntel,60,,,,,,,,,,,,,,2,6.37399,,0,0,89,89,136,1,stimuli/stim_20210407_power2amp/equal_lnn_AM6Hz_12.m4a,,,
,,,,,,,,,,,,39920,2021-05-10_17h45.55.261,judgeSpeechMusic_20210407_logNormShiftAmp,2020.1.2,MacIntel,60,,,,,,,,,,,,,,1,6.341315,,0,0,90,90,59,1,stimuli/stim_20210407_power2amp/equal_lnn_AM2.4Hz_75.m4a,,,
,,,,,,,,,,,,39920,2021-05-10_17h45.55.261,judgeSpeechMusic_20210407_logNormShiftAmp,2020.1.2,MacIntel,60,,,,,,,,,,,,,,1,5.773665,,0,0,91,91,35,1,stimuli/stim_20210407_power2amp/equal_lnn_AM1.8Hz_75.m4a,,,
,,,,,,,,,,,,39920,2021-05-10_17h45.55.261,judgeSpeechMusic_20210407_logNormShiftAmp,2020.1.2,MacIntel,60,,,,,,,,,,,,,,2,6.03927,,0,0,92,92,127,1,stimuli/stim_20210407_power2amp/equal_lnn_AM5.4Hz_92.m4a,,,
,,,,,,,,,,,,39920,2021-05-10_17h45.55.261,judgeSpeechMusic_20210407_logNormShiftAmp,2020.1.2,MacIntel,60,,,,,,,,,,,,,,1,6.59028,,0,0,93,93,16,1,stimuli/stim_20210407_power2amp/equal_lnn_AM1.2Hz_86.m4a,,,
,,,,,,,,,,,,39920,2021-05-10_17h45.55.261,judgeSpeechMusic_20210407_logNormShiftAmp,2020.1.2,MacIntel,60,,,,,,,,,,,,,,2,5.956585,,0,0,94,94,148,1,stimuli/stim_20210407_power2amp/equal_lnn_AM6Hz_65.m4a,,,
,,,,,,,,,,,,39920,2021-05-10_17h45.55.261,judgeSpeechMusic_20210407_logNormShiftAmp,2020.1.2,MacIntel,60,,,,,,,,,,,,,,1,5.906825,,0,0,95,95,17,1,stimuli/stim_20210407_power2amp/equal_lnn_AM1.2Hz_34.m4a,,,
,,,,,,,,,,,,39920,2021-05-10_17h45.55.261,judgeSpeechMusic_20210407_logNormShiftAmp,2020.1.2,MacIntel,60,,,,,,,,,,,,,,2,7.558575,,0,0,96,96,91,1,stimuli/stim_20210407_power2amp/equal_lnn_AM4.2Hz_90.m4a,,,
,,,,,,,,,,,,39920,2021-05-10_17h45.55.261,judgeSpeechMusic_20210407_logNormShiftAmp,2020.1.2,MacIntel,60,,,,,,,,,,,,,,1,5.572355,1,1,0,97,97,37,1,stimuli/stim_20210407_power2amp/equal_lnn_AM1.8Hz_85.m4a,0.30948,,
,,,,,,,,,,,,39920,2021-05-10_17h45.55.261,judgeSpeechMusic_20210407_logNormShiftAmp,2020.1.2,MacIntel,60,,,,,,,,,,,,,,1,5.591005,,0,0,98,98,57,1,stimuli/stim_20210407_power2amp/equal_lnn_AM2.4Hz_39.m4a,,,
,,,,,,,,,,,,39920,2021-05-10_17h45.55.261,judgeSpeechMusic_20210407_logNormShiftAmp,2020.1.2,MacIntel,60,,,,,,,,,,,,,,1,7.457225,,0,0,99,99,80,1,stimuli/stim_20210407_power2amp/equal_lnn_AM3.6Hz_70.m4a,,,
,,,,,,,,,,,,39920,2021-05-10_17h45.55.261,judgeSpeechMusic_20210407_logNormShiftAmp,2020.1.2,MacIntel,60,,,,,,,,,,,,,,1,6.707525,,0,0,100,100,54,1,stimuli/stim_20210407_power2amp/equal_lnn_AM2.4Hz_34.m4a,,,
,,,,,,,,,,,,39920,2021-05-10_17h45.55.261,judgeSpeechMusic_20210407_logNormShiftAmp,2020.1.2,MacIntel,60,,,,,,,,,,,,,,1,5.72322,,0,0,101,101,96,1,stimuli/stim_20210407_power2amp/equal_lnn_AM4.2Hz_56.m4a,,,
,,,,,,,,,,,,39920,2021-05-10_17h45.55.261,judgeSpeechMusic_20210407_logNormShiftAmp,2020.1.2,MacIntel,60,,,,,,,,,,,,,,1,6.637205,,0,0,102,102,45,1,stimuli/stim_20210407_power2amp/equal_lnn_AM2.4Hz_21.m4a,,,
,,,,,,,,,,,,39920,2021-05-10_17h45.55.261,judgeSpeechMusic_20210407_logNormShiftAmp,2020.1.2,MacIntel,60,,,,,,,,,,,,,,1,6.67205,,0,0,103,103,109,1,stimuli/stim_20210407_power2amp/equal_lnn_AM4.8Hz_7.m4a,,,
,,,,,,,,,,,,39920,2021-05-10_17h45.55.261,judgeSpeechMusic_20210407_logNormShiftAmp,2020.1.2,MacIntel,60,,,,,,,,,,,,,,1,5.67225,,0,0,104,104,42,1,stimuli/stim_20210407_power2amp/equal_lnn_AM1.8Hz_52.m4a,,,
,,,,,,,,,,,,39920,2021-05-10_17h45.55.261,judgeSpeechMusic_20210407_logNormShiftAmp,2020.1.2,MacIntel,60,,,,,,,,,,,,,,2,5.95901,,0,0,105,105,124,1,stimuli/stim_20210407_power2amp/equal_lnn_AM5.4Hz_80.m4a,,,
,,,,,,,,,,,,39920,2021-05-10_17h45.55.261,judgeSpeechMusic_20210407_logNormShiftAmp,2020.1.2,MacIntel,60,,,,,,,,,,,,,,1,7.44126,,0,0,106,106,12,1,stimuli/stim_20210407_power2amp/equal_lnn_AM0.6Hz_76.m4a,,,
,,,,,,,,,,,,39920,2021-05-10_17h45.55.261,judgeSpeechMusic_20210407_logNormShiftAmp,2020.1.2,MacIntel,60,,,,,,,,,,,,,,1,8.02266,,0,0,107,107,7,1,stimuli/stim_20210407_power2amp/equal_lnn_AM0.6Hz_83.m4a,,,
,,,,,,,,,,,,39920,2021-05-10_17h45.55.261,judgeSpeechMusic_20210407_logNormShiftAmp,2020.1.2,MacIntel,60,,,,,,,,,,,,,,2,5.640575,,0,0,108,108,46,1,stimuli/stim_20210407_power2amp/equal_lnn_AM2.4Hz_94.m4a,,,
,,,,,,,,,,,,39920,2021-05-10_17h45.55.261,judgeSpeechMusic_20210407_logNormShiftAmp,2020.1.2,MacIntel,60,,,,,,,,,,,,,,1,6.18865,,0,0,109,109,23,1,stimuli/stim_20210407_power2amp/equal_lnn_AM1.2Hz_37.m4a,,,
,,,,,,,,,,,,39920,2021-05-10_17h45.55.261,judgeSpeechMusic_20210407_logNormShiftAmp,2020.1.2,MacIntel,60,,,,,,,,,,,,,,2,6.23833,,0,0,110,110,112,1,stimuli/stim_20210407_power2amp/equal_lnn_AM4.8Hz_27.m4a,,,
,,,,,,,,,,,,39920,2021-05-10_17h45.55.261,judgeSpeechMusic_20210407_logNormShiftAmp,2020.1.2,MacIntel,60,,,,,,,,,,,,,,2,5.788675,,0,0,111,111,97,1,stimuli/stim_20210407_power2amp/equal_lnn_AM4.2Hz_86.m4a,,,
,,,,,,,,,,,,39920,2021-05-10_17h45.55.261,judgeSpeechMusic_20210407_logNormShiftAmp,2020.1.2,MacIntel,60,,,,,,,,,,,,,,1,7.79377,,0,0,112,112,20,1,stimuli/stim_20210407_power2amp/equal_lnn_AM1.2Hz_75.m4a,,,
,,,,,,,,,,,,39920,2021-05-10_17h45.55.261,judgeSpeechMusic_20210407_logNormShiftAmp,2020.1.2,MacIntel,60,,,,,,,,,,,,,,1,5.625035,,0,0,113,113,11,1,stimuli/stim_20210407_power2amp/equal_lnn_AM0.6Hz_32.m4a,,,
,,,,,,,,,,,,39920,2021-05-10_17h45.55.261,judgeSpeechMusic_20210407_logNormShiftAmp,2020.1.2,MacIntel,60,,,,,,,,,,,,,,2,7.822255,,0,0,114,114,90,1,stimuli/stim_20210407_power2amp/equal_lnn_AM4.2Hz_67.m4a,,,
,,,,,,,,,,,,39920,2021-05-10_17h45.55.261,judgeSpeechMusic_20210407_logNormShiftAmp,2020.1.2,MacIntel,60,,,,,,,,,,,,,,1,7.823965,,0,0,115,115,62,1,stimuli/stim_20210407_power2amp/equal_lnn_AM3Hz_51.m4a,,,
,,,,,,,,,,,,39920,2021-05-10_17h45.55.261,judgeSpeechMusic_20210407_logNormShiftAmp,2020.1.2,MacIntel,60,,,,,,,,,,,,,,2,6.473525,,0,0,116,116,48,1,stimuli/stim_20210407_power2amp/equal_lnn_AM2.4Hz_46.m4a,,,
,,,,,,,,,,,,39920,2021-05-10_17h45.55.261,judgeSpeechMusic_20210407_logNormShiftAmp,2020.1.2,MacIntel,60,,,,,,,,,,,,,,2,8.211495,,0,0,117,117,101,1,stimuli/stim_20210407_power2amp/equal_lnn_AM4.2Hz_23.m4a,,,
,,,,,,,,,,,,39920,2021-05-10_17h45.55.261,judgeSpeechMusic_20210407_logNormShiftAmp,2020.1.2,MacIntel,60,,,,,,,,,,,,,,2,6.14461,,0,0,118,118,143,1,stimuli/stim_20210407_power2amp/equal_lnn_AM6Hz_74.m4a,,,
,,,,,,,,,,,,39920,2021-05-10_17h45.55.261,judgeSpeechMusic_20210407_logNormShiftAmp,2020.1.2,MacIntel,60,,,,,,,,,,,,,,1,7.121445,2,1,0,119,119,67,1,stimuli/stim_20210407_power2amp/equal_lnn_AM3Hz_32.m4a,0.14454,,
,,,,,,,,,,,,39920,2021-05-10_17h45.55.261,judgeSpeechMusic_20210407_logNormShiftAmp,2020.1.2,MacIntel,60,,,,,,,,,,,,,,2,6.225385,,0,0,120,120,147,1,stimuli/stim_20210407_power2amp/equal_lnn_AM6Hz_20.m4a,,,
,,,,,,,,,,,,39920,2021-05-10_17h45.55.261,judgeSpeechMusic_20210407_logNormShiftAmp,2020.1.2,MacIntel,60,,,,,,,,,,,,,,2,6.49096,,0,0,121,121,138,1,stimuli/stim_20210407_power2amp/equal_lnn_AM6Hz_68.m4a,,,
,,,,,,,,,,,,39920,2021-05-10_17h45.55.261,judgeSpeechMusic_20210407_logNormShiftAmp,2020.1.2,MacIntel,60,,,,,,,,,,,,,,2,6.908675,,0,0,122,122,69,1,stimuli/stim_20210407_power2amp/equal_lnn_AM3Hz_15.m4a,,,
,,,,,,,,,,,,39920,2021-05-10_17h45.55.261,judgeSpeechMusic_20210407_logNormShiftAmp,2020.1.2,MacIntel,60,,,,,,,,,,,,,,2,5.63974,,0,0,123,123,144,1,stimuli/stim_20210407_power2amp/equal_lnn_AM6Hz_54.m4a,,,
,,,,,,,,,,,,39920,2021-05-10_17h45.55.261,judgeSpeechMusic_20210407_logNormShiftAmp,2020.1.2,MacIntel,60,,,,,,,,,,,,,,2,6.439015,,0,0,124,124,137,1,stimuli/stim_20210407_power2amp/equal_lnn_AM6Hz_91.m4a,,,
,,,,,,,,,,,,39920,2021-05-10_17h45.55.261,judgeSpeechMusic_20210407_logNormShiftAmp,2020.1.2,MacIntel,60,,,,,,,,,,,,,,2,6.616905,,0,0,125,125,119,1,stimuli/stim_20210407_power2amp/equal_lnn_AM4.8Hz_32.m4a,,,
,,,,,,,,,,,,39920,2021-05-10_17h45.55.261,judgeSpeechMusic_20210407_logNormShiftAmp,2020.1.2,MacIntel,60,,,,,,,,,,,,,,2,7.28684,,0,0,126,126,140,1,stimuli/stim_20210407_power2amp/equal_lnn_AM6Hz_14.m4a,,,
,,,,,,,,,,,,39920,2021-05-10_17h45.55.261,judgeSpeechMusic_20210407_logNormShiftAmp,2020.1.2,MacIntel,60,,,,,,,,,,,,,,1,6.443425,,0,0,127,127,8,1,stimuli/stim_20210407_power2amp/equal_lnn_AM0.6Hz_92.m4a,,,
,,,,,,,,,,,,39920,2021-05-10_17h45.55.261,judgeSpeechMusic_20210407_logNormShiftAmp,2020.1.2,MacIntel,60,,,,,,,,,,,,,,1,5.81897,,0,0,128,128,41,1,stimuli/stim_20210407_power2amp/equal_lnn_AM1.8Hz_84.m4a,,,
,,,,,,,,,,,,39920,2021-05-10_17h45.55.261,judgeSpeechMusic_20210407_logNormShiftAmp,2020.1.2,MacIntel,60,,,,,,,,,,,,,,1,5.84074,,0,0,129,129,14,1,stimuli/stim_20210407_power2amp/equal_lnn_AM0.6Hz_53.m4a,,,
,,,,,,,,,,,,39920,2021-05-10_17h45.55.261,judgeSpeechMusic_20210407_logNormShiftAmp,2020.1.2,MacIntel,60,,,,,,,,,,,,,,1,5.97387,,0,0,130,130,74,1,stimuli/stim_20210407_power2amp/equal_lnn_AM3Hz_26.m4a,,,
,,,,,,,,,,,,39920,2021-05-10_17h45.55.261,judgeSpeechMusic_20210407_logNormShiftAmp,2020.1.2,MacIntel,60,,,,,,,,,,,,,,2,5.65953,,0,0,131,131,114,1,stimuli/stim_20210407_power2amp/equal_lnn_AM4.8Hz_40.m4a,,,
,,,,,,,,,,,,39920,2021-05-10_17h45.55.261,judgeSpeechMusic_20210407_logNormShiftAmp,2020.1.2,MacIntel,60,,,,,,,,,,,,,,2,5.80328,,0,0,132,132,149,1,stimuli/stim_20210407_power2amp/equal_lnn_AM6Hz_33.m4a,,,
,,,,,,,,,,,,39920,2021-05-10_17h45.55.261,judgeSpeechMusic_20210407_logNormShiftAmp,2020.1.2,MacIntel,60,,,,,,,,,,,,,,2,5.67241,,0,0,133,133,120,1,stimuli/stim_20210407_power2amp/equal_lnn_AM5.4Hz_13.m4a,,,
,,,,,,,,,,,,39920,2021-05-10_17h45.55.261,judgeSpeechMusic_20210407_logNormShiftAmp,2020.1.2,MacIntel,60,,,,,,,,,,,,,,2,7.47894,,0,0,134,134,141,1,stimuli/stim_20210407_power2amp/equal_lnn_AM6Hz_1.m4a,,,
,,,,,,,,,,,,39920,2021-05-10_17h45.55.261,judgeSpeechMusic_20210407_logNormShiftAmp,2020.1.2,MacIntel,60,,,,,,,,,,,,,,2,7.05422,,0,0,135,135,38,1,stimuli/stim_20210407_power2amp/equal_lnn_AM1.8Hz_81.m4a,,,
,,,,,,,,,,,,39920,2021-05-10_17h45.55.261,judgeSpeechMusic_20210407_logNormShiftAmp,2020.1.2,MacIntel,60,,,,,,,,,,,,,,1,6.359395,,0,0,136,136,43,1,stimuli/stim_20210407_power2amp/equal_lnn_AM1.8Hz_48.m4a,,,
,,,,,,,,,,,,39920,2021-05-10_17h45.55.261,judgeSpeechMusic_20210407_logNormShiftAmp,2020.1.2,MacIntel,60,,,,,,,,,,,,,,1,6.655625,,0,0,137,137,2,1,stimuli/stim_20210407_power2amp/equal_lnn_AM0.6Hz_84.m4a,,,
,,,,,,,,,,,,39920,2021-05-10_17h45.55.261,judgeSpeechMusic_20210407_logNormShiftAmp,2020.1.2,MacIntel,60,,,,,,,,,,,,,,2,6.08644,,0,0,138,138,135,1,stimuli/stim_20210407_power2amp/equal_lnn_AM6Hz_84.m4a,,,
,,,,,,,,,,,,39920,2021-05-10_17h45.55.261,judgeSpeechMusic_20210407_logNormShiftAmp,2020.1.2,MacIntel,60,,,,,,,,,,,,,,1,5.95431,4,1,0,139,139,31,1,stimuli/stim_20210407_power2amp/equal_lnn_AM1.8Hz_61.m4a,1.32644,,
,,,,,,,,,,,,39920,2021-05-10_17h45.55.261,judgeSpeechMusic_20210407_logNormShiftAmp,2020.1.2,MacIntel,60,,,,,,,,,,,,,,1,8.424145,,0,0,140,140,118,1,stimuli/stim_20210407_power2amp/equal_lnn_AM4.8Hz_10.m4a,,,
,,,,,,,,,,,,39920,2021-05-10_17h45.55.261,judgeSpeechMusic_20210407_logNormShiftAmp,2020.1.2,MacIntel,60,,,,,,,,,,,,,,1,6.973535,,0,0,141,141,51,1,stimuli/stim_20210407_power2amp/equal_lnn_AM2.4Hz_74.m4a,,,
,,,,,,,,,,,,39920,2021-05-10_17h45.55.261,judgeSpeechMusic_20210407_logNormShiftAmp,2020.1.2,MacIntel,60,,,,,,,,,,,,,,2,5.872635,,0,0,142,142,139,1,stimuli/stim_20210407_power2amp/equal_lnn_AM6Hz_22.m4a,,,
,,,,,,,,,,,,39920,2021-05-10_17h45.55.261,judgeSpeechMusic_20210407_logNormShiftAmp,2020.1.2,MacIntel,60,,,,,,,,,,,,,,1,6.378145,,0,0,143,143,63,1,stimuli/stim_20210407_power2amp/equal_lnn_AM3Hz_16.m4a,,,
,,,,,,,,,,,,39920,2021-05-10_17h45.55.261,judgeSpeechMusic_20210407_logNormShiftAmp,2020.1.2,MacIntel,60,,,,,,,,,,,,,,2,6.703735,,0,0,144,144,126,1,stimuli/stim_20210407_power2amp/equal_lnn_AM5.4Hz_47.m4a,,,
,,,,,,,,,,,,39920,2021-05-10_17h45.55.261,judgeSpeechMusic_20210407_logNormShiftAmp,2020.1.2,MacIntel,60,,,,,,,,,,,,,,2,5.9224,,0,0,145,145,134,1,stimuli/stim_20210407_power2amp/equal_lnn_AM5.4Hz_69.m4a,,,
,,,,,,,,,,,,39920,2021-05-10_17h45.55.261,judgeSpeechMusic_20210407_logNormShiftAmp,2020.1.2,MacIntel,60,,,,,,,,,,,,,,2,5.96905,,0,0,146,146,89,1,stimuli/stim_20210407_power2amp/equal_lnn_AM3.6Hz_15.m4a,,,
,,,,,,,,,,,,39920,2021-05-10_17h45.55.261,judgeSpeechMusic_20210407_logNormShiftAmp,2020.1.2,MacIntel,60,,,,,,,,,,,,,,1,6.145325,,0,0,147,147,18,1,stimuli/stim_20210407_power2amp/equal_lnn_AM1.2Hz_35.m4a,,,
,,,,,,,,,,,,39920,2021-05-10_17h45.55.261,judgeSpeechMusic_20210407_logNormShiftAmp,2020.1.2,MacIntel,60,,,,,,,,,,,,,,1,6.0207,,0,0,148,148,9,1,stimuli/stim_20210407_power2amp/equal_lnn_AM0.6Hz_86.m4a,,,
,,,,,,,,,,,,39920,2021-05-10_17h45.55.261,judgeSpeechMusic_20210407_logNormShiftAmp,2020.1.2,MacIntel,60,,,,,,,,,,,,,,1,6.074435,,0,0,149,149,66,1,stimuli/stim_20210407_power2amp/equal_lnn_AM3Hz_96.m4a,,,
,,,,,,,,,,,,39920,2021-05-10_17h45.55.261,judgeSpeechMusic_20210407_logNormShiftAmp,2020.1.2,MacIntel,60,,,,,,,,,,,,,,1,6.10506,,0,1,0,150,20,1,stimuli/stim_20210407_power2amp/equal_lnn_AM1.2Hz_75.m4a,,,
,,,,,,,,,,,,39920,2021-05-10_17h45.55.261,judgeSpeechMusic_20210407_logNormShiftAmp,2020.1.2,MacIntel,60,,,,,,,,,,,,,,1,6.191365,,0,1,1,151,52,1,stimuli/stim_20210407_power2amp/equal_lnn_AM2.4Hz_96.m4a,,,
,,,,,,,,,,,,39920,2021-05-10_17h45.55.261,judgeSpeechMusic_20210407_logNormShiftAmp,2020.1.2,MacIntel,60,,,,,,,,,,,,,,1,5.723015,,0,1,2,152,0,1,stimuli/stim_20210407_power2amp/equal_lnn_AM0.6Hz_17.m4a,,,
,,,,,,,,,,,,39920,2021-05-10_17h45.55.261,judgeSpeechMusic_20210407_logNormShiftAmp,2020.1.2,MacIntel,60,,,,,,,,,,,,,,1,6.277095,,0,1,3,153,86,1,stimuli/stim_20210407_power2amp/equal_lnn_AM3.6Hz_30.m4a,,,
,,,,,,,,,,,,39920,2021-05-10_17h45.55.261,judgeSpeechMusic_20210407_logNormShiftAmp,2020.1.2,MacIntel,60,,,,,,,,,,,,,,2,5.70664,,0,1,4,154,96,1,stimuli/stim_20210407_power2amp/equal_lnn_AM4.2Hz_56.m4a,,,
,,,,,,,,,,,,39920,2021-05-10_17h45.55.261,judgeSpeechMusic_20210407_logNormShiftAmp,2020.1.2,MacIntel,60,,,,,,,,,,,,,,2,6.590395,,0,1,5,155,87,1,stimuli/stim_20210407_power2amp/equal_lnn_AM3.6Hz_62.m4a,,,
,,,,,,,,,,,,39920,2021-05-10_17h45.55.261,judgeSpeechMusic_20210407_logNormShiftAmp,2020.1.2,MacIntel,60,,,,,,,,,,,,,,2,5.723455,,0,1,6,156,137,1,stimuli/stim_20210407_power2amp/equal_lnn_AM6Hz_91.m4a,,,
,,,,,,,,,,,,39920,2021-05-10_17h45.55.261,judgeSpeechMusic_20210407_logNormShiftAmp,2020.1.2,MacIntel,60,,,,,,,,,,,,,,2,5.757895,,0,1,7,157,100,1,stimuli/stim_20210407_power2amp/equal_lnn_AM4.2Hz_50.m4a,,,
,,,,,,,,,,,,39920,2021-05-10_17h45.55.261,judgeSpeechMusic_20210407_logNormShiftAmp,2020.1.2,MacIntel,60,,,,,,,,,,,,,,2,6.090785,,0,1,8,158,102,1,stimuli/stim_20210407_power2amp/equal_lnn_AM4.2Hz_7.m4a,,,
,,,,,,,,,,,,39920,2021-05-10_17h45.55.261,judgeSpeechMusic_20210407_logNormShiftAmp,2020.1.2,MacIntel,60,,,,,,,,,,,,,,1,6.575395,,0,1,9,159,4,1,stimuli/stim_20210407_power2amp/equal_lnn_AM0.6Hz_74.m4a,,,
,,,,,,,,,,,,39920,2021-05-10_17h45.55.261,judgeSpeechMusic_20210407_logNormShiftAmp,2020.1.2,MacIntel,60,,,,,,,,,,,,,,2,5.68978,3,1,1,10,160,91,1,stimuli/stim_20210407_power2amp/equal_lnn_AM4.2Hz_90.m4a,0.55564,,
,,,,,,,,,,,,39920,2021-05-10_17h45.55.261,judgeSpeechMusic_20210407_logNormShiftAmp,2020.1.2,MacIntel,60,,,,,,,,,,,,,,1,5.690425,,0,1,11,161,22,1,stimuli/stim_20210407_power2amp/equal_lnn_AM1.2Hz_43.m4a,,,
,,,,,,,,,,,,39920,2021-05-10_17h45.55.261,judgeSpeechMusic_20210407_logNormShiftAmp,2020.1.2,MacIntel,60,,,,,,,,,,,,,,2,6.1524,,0,1,12,162,101,1,stimuli/stim_20210407_power2amp/equal_lnn_AM4.2Hz_23.m4a,,,
,,,,,,,,,,,,39920,2021-05-10_17h45.55.261,judgeSpeechMusic_20210407_logNormShiftAmp,2020.1.2,MacIntel,60,,,,,,,,,,,,,,1,5.589765,,0,1,13,163,18,1,stimuli/stim_20210407_power2amp/equal_lnn_AM1.2Hz_35.m4a,,,
,,,,,,,,,,,,39920,2021-05-10_17h45.55.261,judgeSpeechMusic_20210407_logNormShiftAmp,2020.1.2,MacIntel,60,,,,,,,,,,,,,,2,6.892725,,0,1,14,164,80,1,stimuli/stim_20210407_power2amp/equal_lnn_AM3.6Hz_70.m4a,,,
,,,,,,,,,,,,39920,2021-05-10_17h45.55.261,judgeSpeechMusic_20210407_logNormShiftAmp,2020.1.2,MacIntel,60,,,,,,,,,,,,,,2,8.42299,,0,1,15,165,78,1,stimuli/stim_20210407_power2amp/equal_lnn_AM3.6Hz_6.m4a,,,
,,,,,,,,,,,,39920,2021-05-10_17h45.55.261,judgeSpeechMusic_20210407_logNormShiftAmp,2020.1.2,MacIntel,60,,,,,,,,,,,,,,1,6.259585,,0,1,16,166,67,1,stimuli/stim_20210407_power2amp/equal_lnn_AM3Hz_32.m4a,,,
,,,,,,,,,,,,39920,2021-05-10_17h45.55.261,judgeSpeechMusic_20210407_logNormShiftAmp,2020.1.2,MacIntel,60,,,,,,,,,,,,,,2,7.8393,,0,1,17,167,77,1,stimuli/stim_20210407_power2amp/equal_lnn_AM3.6Hz_33.m4a,,,
,,,,,,,,,,,,39920,2021-05-10_17h45.55.261,judgeSpeechMusic_20210407_logNormShiftAmp,2020.1.2,MacIntel,60,,,,,,,,,,,,,,1,6.87178,,0,1,18,168,31,1,stimuli/stim_20210407_power2amp/equal_lnn_AM1.8Hz_61.m4a,,,
,,,,,,,,,,,,39920,2021-05-10_17h45.55.261,judgeSpeechMusic_20210407_logNormShiftAmp,2020.1.2,MacIntel,60,,,,,,,,,,,,,,1,7.260525,,0,1,19,169,64,1,stimuli/stim_20210407_power2amp/equal_lnn_AM3Hz_94.m4a,,,
,,,,,,,,,,,,39920,2021-05-10_17h45.55.261,judgeSpeechMusic_20210407_logNormShiftAmp,2020.1.2,MacIntel,60,,,,,,,,,,,,,,1,5.67689,,0,1,20,170,40,1,stimuli/stim_20210407_power2amp/equal_lnn_AM1.8Hz_94.m4a,,,
,,,,,,,,,,,,39920,2021-05-10_17h45.55.261,judgeSpeechMusic_20210407_logNormShiftAmp,2020.1.2,MacIntel,60,,,,,,,,,,,,,,2,5.60799,,0,1,21,171,119,1,stimuli/stim_20210407_power2amp/equal_lnn_AM4.8Hz_32.m4a,,,
,,,,,,,,,,,,39920,2021-05-10_17h45.55.261,judgeSpeechMusic_20210407_logNormShiftAmp,2020.1.2,MacIntel,60,,,,,,,,,,,,,,1,7.44855,,0,1,22,172,25,1,stimuli/stim_20210407_power2amp/equal_lnn_AM1.2Hz_94.m4a,,,
,,,,,,,,,,,,39920,2021-05-10_17h45.55.261,judgeSpeechMusic_20210407_logNormShiftAmp,2020.1.2,MacIntel,60,,,,,,,,,,,,,,1,9.680875,,0,1,23,173,106,1,stimuli/stim_20210407_power2amp/equal_lnn_AM4.8Hz_39.m4a,,,
,,,,,,,,,,,,39920,2021-05-10_17h45.55.261,judgeSpeechMusic_20210407_logNormShiftAmp,2020.1.2,MacIntel,60,,,,,,,,,,,,,,1,5.676285,,0,1,24,174,26,1,stimuli/stim_20210407_power2amp/equal_lnn_AM1.2Hz_5.m4a,,,
,,,,,,,,,,,,39920,2021-05-10_17h45.55.261,judgeSpeechMusic_20210407_logNormShiftAmp,2020.1.2,MacIntel,60,,,,,,,,,,,,,,1,5.709175,,0,1,25,175,43,1,stimuli/stim_20210407_power2amp/equal_lnn_AM1.8Hz_48.m4a,,,
,,,,,,,,,,,,39920,2021-05-10_17h45.55.261,judgeSpeechMusic_20210407_logNormShiftAmp,2020.1.2,MacIntel,60,,,,,,,,,,,,,,2,5.671615,,0,1,26,176,127,1,stimuli/stim_20210407_power2amp/equal_lnn_AM5.4Hz_92.m4a,,,
,,,,,,,,,,,,39920,2021-05-10_17h45.55.261,judgeSpeechMusic_20210407_logNormShiftAmp,2020.1.2,MacIntel,60,,,,,,,,,,,,,,2,5.7746,,0,1,27,177,115,1,stimuli/stim_20210407_power2amp/equal_lnn_AM4.8Hz_65.m4a,,,
,,,,,,,,,,,,39920,2021-05-10_17h45.55.261,judgeSpeechMusic_20210407_logNormShiftAmp,2020.1.2,MacIntel,60,,,,,,,,,,,,,,1,6.24048,,0,1,28,178,33,1,stimuli/stim_20210407_power2amp/equal_lnn_AM1.8Hz_9.m4a,,,
,,,,,,,,,,,,39920,2021-05-10_17h45.55.261,judgeSpeechMusic_20210407_logNormShiftAmp,2020.1.2,MacIntel,60,,,,,,,,,,,,,,2,8.26121,,0,1,29,179,14,1,stimuli/stim_20210407_power2amp/equal_lnn_AM0.6Hz_53.m4a,,,
,,,,,,,,,,,,39920,2021-05-10_17h45.55.261,judgeSpeechMusic_20210407_logNormShiftAmp,2020.1.2,MacIntel,60,,,,,,,,,,,,,,2,6.70705,,0,1,30,180,144,1,stimuli/stim_20210407_power2amp/equal_lnn_AM6Hz_54.m4a,,,
,,,,,,,,,,,,39920,2021-05-10_17h45.55.261,judgeSpeechMusic_20210407_logNormShiftAmp,2020.1.2,MacIntel,60,,,,,,,,,,,,,,1,9.106275,,0,1,31,181,42,1,stimuli/stim_20210407_power2amp/equal_lnn_AM1.8Hz_52.m4a,,,
,,,,,,,,,,,,39920,2021-05-10_17h45.55.261,judgeSpeechMusic_20210407_logNormShiftAmp,2020.1.2,MacIntel,60,,,,,,,,,,,,,,1,6.570885,,0,1,32,182,50,1,stimuli/stim_20210407_power2amp/equal_lnn_AM2.4Hz_40.m4a,,,
,,,,,,,,,,,,39920,2021-05-10_17h45.55.261,judgeSpeechMusic_20210407_logNormShiftAmp,2020.1.2,MacIntel,60,,,,,,,,,,,,,,2,5.657605,,0,1,33,183,89,1,stimuli/stim_20210407_power2amp/equal_lnn_AM3.6Hz_15.m4a,,,
,,,,,,,,,,,,39920,2021-05-10_17h45.55.261,judgeSpeechMusic_20210407_logNormShiftAmp,2020.1.2,MacIntel,60,,,,,,,,,,,,,,1,6.793775,4,1,1,34,184,38,1,stimuli/stim_20210407_power2amp/equal_lnn_AM1.8Hz_81.m4a,0.74107,,
,,,,,,,,,,,,39920,2021-05-10_17h45.55.261,judgeSpeechMusic_20210407_logNormShiftAmp,2020.1.2,MacIntel,60,,,,,,,,,,,,,,1,5.6725,,0,1,35,185,65,1,stimuli/stim_20210407_power2amp/equal_lnn_AM3Hz_4.m4a,,,
,,,,,,,,,,,,39920,2021-05-10_17h45.55.261,judgeSpeechMusic_20210407_logNormShiftAmp,2020.1.2,MacIntel,60,,,,,,,,,,,,,,1,5.722405,,0,1,36,186,23,1,stimuli/stim_20210407_power2amp/equal_lnn_AM1.2Hz_37.m4a,,,
,,,,,,,,,,,,39920,2021-05-10_17h45.55.261,judgeSpeechMusic_20210407_logNormShiftAmp,2020.1.2,MacIntel,60,,,,,,,,,,,,,,2,5.603175,,0,1,37,187,85,1,stimuli/stim_20210407_power2amp/equal_lnn_AM3.6Hz_5.m4a,,,
,,,,,,,,,,,,39920,2021-05-10_17h45.55.261,judgeSpeechMusic_20210407_logNormShiftAmp,2020.1.2,MacIntel,60,,,,,,,,,,,,,,1,5.644445,,0,1,38,188,1,1,stimuli/stim_20210407_power2amp/equal_lnn_AM0.6Hz_35.m4a,,,
,,,,,,,,,,,,39920,2021-05-10_17h45.55.261,judgeSpeechMusic_20210407_logNormShiftAmp,2020.1.2,MacIntel,60,,,,,,,,,,,,,,1,5.637305,,0,1,39,189,9,1,stimuli/stim_20210407_power2amp/equal_lnn_AM0.6Hz_86.m4a,,,
,,,,,,,,,,,,39920,2021-05-10_17h45.55.261,judgeSpeechMusic_20210407_logNormShiftAmp,2020.1.2,MacIntel,60,,,,,,,,,,,,,,2,5.69186,,0,1,40,190,110,1,stimuli/stim_20210407_power2amp/equal_lnn_AM4.8Hz_63.m4a,,,
,,,,,,,,,,,,39920,2021-05-10_17h45.55.261,judgeSpeechMusic_20210407_logNormShiftAmp,2020.1.2,MacIntel,60,,,,,,,,,,,,,,2,6.009095,,0,1,41,191,68,1,stimuli/stim_20210407_power2amp/equal_lnn_AM3Hz_44.m4a,,,
,,,,,,,,,,,,39920,2021-05-10_17h45.55.261,judgeSpeechMusic_20210407_logNormShiftAmp,2020.1.2,MacIntel,60,,,,,,,,,,,,,,2,6.45499,,0,1,42,192,113,1,stimuli/stim_20210407_power2amp/equal_lnn_AM4.8Hz_86.m4a,,,
,,,,,,,,,,,,39920,2021-05-10_17h45.55.261,judgeSpeechMusic_20210407_logNormShiftAmp,2020.1.2,MacIntel,60,,,,,,,,,,,,,,2,7.044225,,0,1,43,193,82,1,stimuli/stim_20210407_power2amp/equal_lnn_AM3.6Hz_8.m4a,,,
,,,,,,,,,,,,39920,2021-05-10_17h45.55.261,judgeSpeechMusic_20210407_logNormShiftAmp,2020.1.2,MacIntel,60,,,,,,,,,,,,,,1,6.677745,,0,1,44,194,47,1,stimuli/stim_20210407_power2amp/equal_lnn_AM2.4Hz_60.m4a,,,
,,,,,,,,,,,,39920,2021-05-10_17h45.55.261,judgeSpeechMusic_20210407_logNormShiftAmp,2020.1.2,MacIntel,60,,,,,,,,,,,,,,1,6.932365,,0,1,45,195,34,1,stimuli/stim_20210407_power2amp/equal_lnn_AM1.8Hz_29.m4a,,,
,,,,,,,,,,,,39920,2021-05-10_17h45.55.261,judgeSpeechMusic_20210407_logNormShiftAmp,2020.1.2,MacIntel,60,,,,,,,,,,,,,,1,5.720165,,0,1,46,196,99,1,stimuli/stim_20210407_power2amp/equal_lnn_AM4.2Hz_64.m4a,,,
,,,,,,,,,,,,39920,2021-05-10_17h45.55.261,judgeSpeechMusic_20210407_logNormShiftAmp,2020.1.2,MacIntel,60,,,,,,,,,,,,,,2,6.2203,,0,1,47,197,134,1,stimuli/stim_20210407_power2amp/equal_lnn_AM5.4Hz_69.m4a,,,
,,,,,,,,,,,,39920,2021-05-10_17h45.55.261,judgeSpeechMusic_20210407_logNormShiftAmp,2020.1.2,MacIntel,60,,,,,,,,,,,,,,2,6.84106,,0,1,48,198,130,1,stimuli/stim_20210407_power2amp/equal_lnn_AM5.4Hz_91.m4a,,,
,,,,,,,,,,,,39920,2021-05-10_17h45.55.261,judgeSpeechMusic_20210407_logNormShiftAmp,2020.1.2,MacIntel,60,,,,,,,,,,,,,,2,6.98554,,0,1,49,199,79,1,stimuli/stim_20210407_power2amp/equal_lnn_AM3.6Hz_84.m4a,,,
,,,,,,,,,,,,39920,2021-05-10_17h45.55.261,judgeSpeechMusic_20210407_logNormShiftAmp,2020.1.2,MacIntel,60,,,,,,,,,,,,,,2,5.540995,,0,1,50,200,53,1,stimuli/stim_20210407_power2amp/equal_lnn_AM2.4Hz_73.m4a,,,
,,,,,,,,,,,,39920,2021-05-10_17h45.55.261,judgeSpeechMusic_20210407_logNormShiftAmp,2020.1.2,MacIntel,60,,,,,,,,,,,,,,2,5.575625,,0,1,51,201,117,1,stimuli/stim_20210407_power2amp/equal_lnn_AM4.8Hz_70.m4a,,,
,,,,,,,,,,,,39920,2021-05-10_17h45.55.261,judgeSpeechMusic_20210407_logNormShiftAmp,2020.1.2,MacIntel,60,,,,,,,,,,,,,,2,5.621875,,0,1,52,202,146,1,stimuli/stim_20210407_power2amp/equal_lnn_AM6Hz_9.m4a,,,
,,,,,,,,,,,,39920,2021-05-10_17h45.55.261,judgeSpeechMusic_20210407_logNormShiftAmp,2020.1.2,MacIntel,60,,,,,,,,,,,,,,2,6.30955,,0,1,53,203,27,1,stimuli/stim_20210407_power2amp/equal_lnn_AM1.2Hz_26.m4a,,,
,,,,,,,,,,,,39920,2021-05-10_17h45.55.261,judgeSpeechMusic_20210407_logNormShiftAmp,2020.1.2,MacIntel,60,,,,,,,,,,,,,,1,5.67265,,0,1,54,204,6,1,stimuli/stim_20210407_power2amp/equal_lnn_AM0.6Hz_41.m4a,,,
,,,,,,,,,,,,39920,2021-05-10_17h45.55.261,judgeSpeechMusic_20210407_logNormShiftAmp,2020.1.2,MacIntel,60,,,,,,,,,,,,,,1,6.974375,,0,1,55,205,5,1,stimuli/stim_20210407_power2amp/equal_lnn_AM0.6Hz_52.m4a,,,
,,,,,,,,,,,,39920,2021-05-10_17h45.55.261,judgeSpeechMusic_20210407_logNormShiftAmp,2020.1.2,MacIntel,60,,,,,,,,,,,,,,2,5.95416,,0,1,56,206,128,1,stimuli/stim_20210407_power2amp/equal_lnn_AM5.4Hz_42.m4a,,,
,,,,,,,,,,,,39920,2021-05-10_17h45.55.261,judgeSpeechMusic_20210407_logNormShiftAmp,2020.1.2,MacIntel,60,,,,,,,,,,,,,,1,6.50677,,0,1,57,207,12,1,stimuli/stim_20210407_power2amp/equal_lnn_AM0.6Hz_76.m4a,,,
,,,,,,,,,,,,39920,2021-05-10_17h45.55.261,judgeSpeechMusic_20210407_logNormShiftAmp,2020.1.2,MacIntel,60,,,,,,,,,,,,,,2,5.638645,3,1,1,58,208,98,1,stimuli/stim_20210407_power2amp/equal_lnn_AM4.2Hz_92.m4a,1.6932,,
,,,,,,,,,,,,39920,2021-05-10_17h45.55.261,judgeSpeechMusic_20210407_logNormShiftAmp,2020.1.2,MacIntel,60,,,,,,,,,,,,,,2,8.69202,,0,1,59,209,125,1,stimuli/stim_20210407_power2amp/equal_lnn_AM5.4Hz_73.m4a,,,
,,,,,,,,,,,,39920,2021-05-10_17h45.55.261,judgeSpeechMusic_20210407_logNormShiftAmp,2020.1.2,MacIntel,60,,,,,,,,,,,,,,2,5.678455,,0,1,60,210,147,1,stimuli/stim_20210407_power2amp/equal_lnn_AM6Hz_20.m4a,,,
,,,,,,,,,,,,39920,2021-05-10_17h45.55.261,judgeSpeechMusic_20210407_logNormShiftAmp,2020.1.2,MacIntel,60,,,,,,,,,,,,,,1,5.874415,,0,1,61,211,29,1,stimuli/stim_20210407_power2amp/equal_lnn_AM1.2Hz_24.m4a,,,
,,,,,,,,,,,,39920,2021-05-10_17h45.55.261,judgeSpeechMusic_20210407_logNormShiftAmp,2020.1.2,MacIntel,60,,,,,,,,,,,,,,1,6.94183,,0,1,62,212,11,1,stimuli/stim_20210407_power2amp/equal_lnn_AM0.6Hz_32.m4a,,,
,,,,,,,,,,,,39920,2021-05-10_17h45.55.261,judgeSpeechMusic_20210407_logNormShiftAmp,2020.1.2,MacIntel,60,,,,,,,,,,,,,,2,5.655755,,0,1,63,213,75,1,stimuli/stim_20210407_power2amp/equal_lnn_AM3.6Hz_16.m4a,,,
,,,,,,,,,,,,39920,2021-05-10_17h45.55.261,judgeSpeechMusic_20210407_logNormShiftAmp,2020.1.2,MacIntel,60,,,,,,,,,,,,,,1,8.02337,,0,1,64,214,59,1,stimuli/stim_20210407_power2amp/equal_lnn_AM2.4Hz_75.m4a,,,
,,,,,,,,,,,,39920,2021-05-10_17h45.55.261,judgeSpeechMusic_20210407_logNormShiftAmp,2020.1.2,MacIntel,60,,,,,,,,,,,,,,1,6.053975,,0,1,65,215,135,1,stimuli/stim_20210407_power2amp/equal_lnn_AM6Hz_84.m4a,,,
,,,,,,,,,,,,39920,2021-05-10_17h45.55.261,judgeSpeechMusic_20210407_logNormShiftAmp,2020.1.2,MacIntel,60,,,,,,,,,,,,,,2,5.607655,,0,1,66,216,121,1,stimuli/stim_20210407_power2amp/equal_lnn_AM5.4Hz_38.m4a,,,
,,,,,,,,,,,,39920,2021-05-10_17h45.55.261,judgeSpeechMusic_20210407_logNormShiftAmp,2020.1.2,MacIntel,60,,,,,,,,,,,,,,1,7.057085,,0,1,67,217,71,1,stimuli/stim_20210407_power2amp/equal_lnn_AM3Hz_84.m4a,,,
,,,,,,,,,,,,39920,2021-05-10_17h45.55.261,judgeSpeechMusic_20210407_logNormShiftAmp,2020.1.2,MacIntel,60,,,,,,,,,,,,,,2,7.1884,,0,1,68,218,103,1,stimuli/stim_20210407_power2amp/equal_lnn_AM4.2Hz_5.m4a,,,
,,,,,,,,,,,,39920,2021-05-10_17h45.55.261,judgeSpeechMusic_20210407_logNormShiftAmp,2020.1.2,MacIntel,60,,,,,,,,,,,,,,1,5.673665,,0,1,69,219,44,1,stimuli/stim_20210407_power2amp/equal_lnn_AM1.8Hz_58.m4a,,,
,,,,,,,,,,,,39920,2021-05-10_17h45.55.261,judgeSpeechMusic_20210407_logNormShiftAmp,2020.1.2,MacIntel,60,,,,,,,,,,,,,,1,5.80941,,0,1,70,220,74,1,stimuli/stim_20210407_power2amp/equal_lnn_AM3Hz_26.m4a,,,
,,,,,,,,,,,,39920,2021-05-10_17h45.55.261,judgeSpeechMusic_20210407_logNormShiftAmp,2020.1.2,MacIntel,60,,,,,,,,,,,,,,2,5.92283,,0,1,71,221,45,1,stimuli/stim_20210407_power2amp/equal_lnn_AM2.4Hz_21.m4a,,,
,,,,,,,,,,,,39920,2021-05-10_17h45.55.261,judgeSpeechMusic_20210407_logNormShiftAmp,2020.1.2,MacIntel,60,,,,,,,,,,,,,,2,5.660155,,0,1,72,222,72,1,stimuli/stim_20210407_power2amp/equal_lnn_AM3Hz_62.m4a,,,
,,,,,,,,,,,,39920,2021-05-10_17h45.55.261,judgeSpeechMusic_20210407_logNormShiftAmp,2020.1.2,MacIntel,60,,,,,,,,,,,,,,2,6.204975,,0,1,73,223,7,1,stimuli/stim_20210407_power2amp/equal_lnn_AM0.6Hz_83.m4a,,,
,,,,,,,,,,,,39920,2021-05-10_17h45.55.261,judgeSpeechMusic_20210407_logNormShiftAmp,2020.1.2,MacIntel,60,,,,,,,,,,,,,,2,6.627445,,0,1,74,224,70,1,stimuli/stim_20210407_power2amp/equal_lnn_AM3Hz_11.m4a,,,
,,,,,,,,,,,,39920,2021-05-10_17h45.55.261,judgeSpeechMusic_20210407_logNormShiftAmp,2020.1.2,MacIntel,60,,,,,,,,,,,,,,2,5.623065,,0,1,75,225,73,1,stimuli/stim_20210407_power2amp/equal_lnn_AM3Hz_35.m4a,,,
,,,,,,,,,,,,39920,2021-05-10_17h45.55.261,judgeSpeechMusic_20210407_logNormShiftAmp,2020.1.2,MacIntel,60,,,,,,,,,,,,,,2,5.57392,,0,1,76,226,124,1,stimuli/stim_20210407_power2amp/equal_lnn_AM5.4Hz_80.m4a,,,
,,,,,,,,,,,,39920,2021-05-10_17h45.55.261,judgeSpeechMusic_20210407_logNormShiftAmp,2020.1.2,MacIntel,60,,,,,,,,,,,,,,1,5.61139,,0,1,77,227,2,1,stimuli/stim_20210407_power2amp/equal_lnn_AM0.6Hz_84.m4a,,,
,,,,,,,,,,,,39920,2021-05-10_17h45.55.261,judgeSpeechMusic_20210407_logNormShiftAmp,2020.1.2,MacIntel,60,,,,,,,,,,,,,,2,5.60908,,0,1,78,228,120,1,stimuli/stim_20210407_power2amp/equal_lnn_AM5.4Hz_13.m4a,,,
,,,,,,,,,,,,39920,2021-05-10_17h45.55.261,judgeSpeechMusic_20210407_logNormShiftAmp,2020.1.2,MacIntel,60,,,,,,,,,,,,,,1,5.80729,,0,1,79,229,60,1,stimuli/stim_20210407_power2amp/equal_lnn_AM3Hz_70.m4a,,,
,,,,,,,,,,,,39920,2021-05-10_17h45.55.261,judgeSpeechMusic_20210407_logNormShiftAmp,2020.1.2,MacIntel,60,,,,,,,,,,,,,,1,6.34081,,0,1,80,230,69,1,stimuli/stim_20210407_power2amp/equal_lnn_AM3Hz_15.m4a,,,
,,,,,,,,,,,,39920,2021-05-10_17h45.55.261,judgeSpeechMusic_20210407_logNormShiftAmp,2020.1.2,MacIntel,60,,,,,,,,,,,,,,1,6.9568,1,1,1,81,231,21,1,stimuli/stim_20210407_power2amp/equal_lnn_AM1.2Hz_17.m4a,1.342325,,
,,,,,,,,,,,,39920,2021-05-10_17h45.55.261,judgeSpeechMusic_20210407_logNormShiftAmp,2020.1.2,MacIntel,60,,,,,,,,,,,,,,2,5.887765,,0,1,82,232,93,1,stimuli/stim_20210407_power2amp/equal_lnn_AM4.2Hz_42.m4a,,,
,,,,,,,,,,,,39920,2021-05-10_17h45.55.261,judgeSpeechMusic_20210407_logNormShiftAmp,2020.1.2,MacIntel,60,,,,,,,,,,,,,,1,6.68018,,0,1,83,233,3,1,stimuli/stim_20210407_power2amp/equal_lnn_AM0.6Hz_24.m4a,,,
,,,,,,,,,,,,39920,2021-05-10_17h45.55.261,judgeSpeechMusic_20210407_logNormShiftAmp,2020.1.2,MacIntel,60,,,,,,,,,,,,,,2,5.656965,,0,1,84,234,97,1,stimuli/stim_20210407_power2amp/equal_lnn_AM4.2Hz_86.m4a,,,
,,,,,,,,,,,,39920,2021-05-10_17h45.55.261,judgeSpeechMusic_20210407_logNormShiftAmp,2020.1.2,MacIntel,60,,,,,,,,,,,,,,1,5.97465,,0,1,85,235,55,1,stimuli/stim_20210407_power2amp/equal_lnn_AM2.4Hz_69.m4a,,,
,,,,,,,,,,,,39920,2021-05-10_17h45.55.261,judgeSpeechMusic_20210407_logNormShiftAmp,2020.1.2,MacIntel,60,,,,,,,,,,,,,,1,6.642645,,0,1,86,236,108,1,stimuli/stim_20210407_power2amp/equal_lnn_AM4.8Hz_91.m4a,,,
,,,,,,,,,,,,39920,2021-05-10_17h45.55.261,judgeSpeechMusic_20210407_logNormShiftAmp,2020.1.2,MacIntel,60,,,,,,,,,,,,,,1,6.52242,,0,1,87,237,48,1,stimuli/stim_20210407_power2amp/equal_lnn_AM2.4Hz_46.m4a,,,
,,,,,,,,,,,,39920,2021-05-10_17h45.55.261,judgeSpeechMusic_20210407_logNormShiftAmp,2020.1.2,MacIntel,60,,,,,,,,,,,,,,2,6.10712,,0,1,88,238,132,1,stimuli/stim_20210407_power2amp/equal_lnn_AM5.4Hz_83.m4a,,,
,,,,,,,,,,,,39920,2021-05-10_17h45.55.261,judgeSpeechMusic_20210407_logNormShiftAmp,2020.1.2,MacIntel,60,,,,,,,,,,,,,,1,5.572015,,0,1,89,239,133,1,stimuli/stim_20210407_power2amp/equal_lnn_AM5.4Hz_88.m4a,,,
,,,,,,,,,,,,39920,2021-05-10_17h45.55.261,judgeSpeechMusic_20210407_logNormShiftAmp,2020.1.2,MacIntel,60,,,,,,,,,,,,,,2,5.689015,,0,1,90,240,142,1,stimuli/stim_20210407_power2amp/equal_lnn_AM6Hz_7.m4a,,,
,,,,,,,,,,,,39920,2021-05-10_17h45.55.261,judgeSpeechMusic_20210407_logNormShiftAmp,2020.1.2,MacIntel,60,,,,,,,,,,,,,,1,5.622755,,0,1,91,241,141,1,stimuli/stim_20210407_power2amp/equal_lnn_AM6Hz_1.m4a,,,
,,,,,,,,,,,,39920,2021-05-10_17h45.55.261,judgeSpeechMusic_20210407_logNormShiftAmp,2020.1.2,MacIntel,60,,,,,,,,,,,,,,1,5.48998,,0,1,92,242,138,1,stimuli/stim_20210407_power2amp/equal_lnn_AM6Hz_68.m4a,,,
,,,,,,,,,,,,39920,2021-05-10_17h45.55.261,judgeSpeechMusic_20210407_logNormShiftAmp,2020.1.2,MacIntel,60,,,,,,,,,,,,,,1,5.624525,,0,1,93,243,30,1,stimuli/stim_20210407_power2amp/equal_lnn_AM1.8Hz_36.m4a,,,
,,,,,,,,,,,,39920,2021-05-10_17h45.55.261,judgeSpeechMusic_20210407_logNormShiftAmp,2020.1.2,MacIntel,60,,,,,,,,,,,,,,1,5.441185,,0,1,94,244,112,1,stimuli/stim_20210407_power2amp/equal_lnn_AM4.8Hz_27.m4a,,,
,,,,,,,,,,,,39920,2021-05-10_17h45.55.261,judgeSpeechMusic_20210407_logNormShiftAmp,2020.1.2,MacIntel,60,,,,,,,,,,,,,,1,5.57505,,0,1,95,245,143,1,stimuli/stim_20210407_power2amp/equal_lnn_AM6Hz_74.m4a,,,
,,,,,,,,,,,,39920,2021-05-10_17h45.55.261,judgeSpeechMusic_20210407_logNormShiftAmp,2020.1.2,MacIntel,60,,,,,,,,,,,,,,1,5.64079,,0,1,96,246,17,1,stimuli/stim_20210407_power2amp/equal_lnn_AM1.2Hz_34.m4a,,,
,,,,,,,,,,,,39920,2021-05-10_17h45.55.261,judgeSpeechMusic_20210407_logNormShiftAmp,2020.1.2,MacIntel,60,,,,,,,,,,,,,,2,5.61952,,0,1,97,247,49,1,stimuli/stim_20210407_power2amp/equal_lnn_AM2.4Hz_65.m4a,,,
,,,,,,,,,,,,39920,2021-05-10_17h45.55.261,judgeSpeechMusic_20210407_logNormShiftAmp,2020.1.2,MacIntel,60,,,,,,,,,,,,,,1,6.203515,,0,1,98,248,24,1,stimuli/stim_20210407_power2amp/equal_lnn_AM1.2Hz_82.m4a,,,
,,,,,,,,,,,,39920,2021-05-10_17h45.55.261,judgeSpeechMusic_20210407_logNormShiftAmp,2020.1.2,MacIntel,60,,,,,,,,,,,,,,2,5.539775,,0,1,99,249,140,1,stimuli/stim_20210407_power2amp/equal_lnn_AM6Hz_14.m4a,,,
,,,,,,,,,,,,39920,2021-05-10_17h45.55.261,judgeSpeechMusic_20210407_logNormShiftAmp,2020.1.2,MacIntel,60,,,,,,,,,,,,,,1,6.094255,,0,1,100,250,56,1,stimuli/stim_20210407_power2amp/equal_lnn_AM2.4Hz_25.m4a,,,
,,,,,,,,,,,,39920,2021-05-10_17h45.55.261,judgeSpeechMusic_20210407_logNormShiftAmp,2020.1.2,MacIntel,60,,,,,,,,,,,,,,1,5.68134,,0,1,101,251,13,1,stimuli/stim_20210407_power2amp/equal_lnn_AM0.6Hz_26.m4a,,,
,,,,,,,,,,,,39920,2021-05-10_17h45.55.261,judgeSpeechMusic_20210407_logNormShiftAmp,2020.1.2,MacIntel,60,,,,,,,,,,,,,,2,6.654925,,0,1,102,252,145,1,stimuli/stim_20210407_power2amp/equal_lnn_AM6Hz_66.m4a,,,
,,,,,,,,,,,,39920,2021-05-10_17h45.55.261,judgeSpeechMusic_20210407_logNormShiftAmp,2020.1.2,MacIntel,60,,,,,,,,,,,,,,1,5.58982,,0,1,103,253,10,1,stimuli/stim_20210407_power2amp/equal_lnn_AM0.6Hz_18.m4a,,,
,,,,,,,,,,,,39920,2021-05-10_17h45.55.261,judgeSpeechMusic_20210407_logNormShiftAmp,2020.1.2,MacIntel,60,,,,,,,,,,,,,,2,6.40482,2,1,1,104,254,126,1,stimuli/stim_20210407_power2amp/equal_lnn_AM5.4Hz_47.m4a,0.043615,,
,,,,,,,,,,,,39920,2021-05-10_17h45.55.261,judgeSpeechMusic_20210407_logNormShiftAmp,2020.1.2,MacIntel,60,,,,,,,,,,,,,,2,5.55909,,0,1,105,255,95,1,stimuli/stim_20210407_power2amp/equal_lnn_AM4.2Hz_8.m4a,,,
,,,,,,,,,,,,39920,2021-05-10_17h45.55.261,judgeSpeechMusic_20210407_logNormShiftAmp,2020.1.2,MacIntel,60,,,,,,,,,,,,,,2,6.707585,,0,1,106,256,35,1,stimuli/stim_20210407_power2amp/equal_lnn_AM1.8Hz_75.m4a,,,
,,,,,,,,,,,,39920,2021-05-10_17h45.55.261,judgeSpeechMusic_20210407_logNormShiftAmp,2020.1.2,MacIntel,60,,,,,,,,,,,,,,1,5.94099,,0,1,107,257,57,1,stimuli/stim_20210407_power2amp/equal_lnn_AM2.4Hz_39.m4a,,,
,,,,,,,,,,,,39920,2021-05-10_17h45.55.261,judgeSpeechMusic_20210407_logNormShiftAmp,2020.1.2,MacIntel,60,,,,,,,,,,,,,,1,8.72423,,0,1,108,258,81,1,stimuli/stim_20210407_power2amp/equal_lnn_AM3.6Hz_67.m4a,,,
,,,,,,,,,,,,39920,2021-05-10_17h45.55.261,judgeSpeechMusic_20210407_logNormShiftAmp,2020.1.2,MacIntel,60,,,,,,,,,,,,,,1,8.208585,,0,1,109,259,105,1,stimuli/stim_20210407_power2amp/equal_lnn_AM4.8Hz_31.m4a,,,
,,,,,,,,,,,,39920,2021-05-10_17h45.55.261,judgeSpeechMusic_20210407_logNormShiftAmp,2020.1.2,MacIntel,60,,,,,,,,,,,,,,1,6.29667,,0,1,110,260,36,1,stimuli/stim_20210407_power2amp/equal_lnn_AM1.8Hz_54.m4a,,,
,,,,,,,,,,,,39920,2021-05-10_17h45.55.261,judgeSpeechMusic_20210407_logNormShiftAmp,2020.1.2,MacIntel,60,,,,,,,,,,,,,,1,6.81998,,0,1,111,261,63,1,stimuli/stim_20210407_power2amp/equal_lnn_AM3Hz_16.m4a,,,
,,,,,,,,,,,,39920,2021-05-10_17h45.55.261,judgeSpeechMusic_20210407_logNormShiftAmp,2020.1.2,MacIntel,60,,,,,,,,,,,,,,2,6.28984,,0,1,112,262,116,1,stimuli/stim_20210407_power2amp/equal_lnn_AM4.8Hz_58.m4a,,,
,,,,,,,,,,,,39920,2021-05-10_17h45.55.261,judgeSpeechMusic_20210407_logNormShiftAmp,2020.1.2,MacIntel,60,,,,,,,,,,,,,,2,6.009125,,0,1,113,263,61,1,stimuli/stim_20210407_power2amp/equal_lnn_AM3Hz_28.m4a,,,
,,,,,,,,,,,,39920,2021-05-10_17h45.55.261,judgeSpeechMusic_20210407_logNormShiftAmp,2020.1.2,MacIntel,60,,,,,,,,,,,,,,2,5.57172,,0,1,114,264,114,1,stimuli/stim_20210407_power2amp/equal_lnn_AM4.8Hz_40.m4a,,,
,,,,,,,,,,,,39920,2021-05-10_17h45.55.261,judgeSpeechMusic_20210407_logNormShiftAmp,2020.1.2,MacIntel,60,,,,,,,,,,,,,,1,5.77313,,0,1,115,265,19,1,stimuli/stim_20210407_power2amp/equal_lnn_AM1.2Hz_64.m4a,,,
,,,,,,,,,,,,39920,2021-05-10_17h45.55.261,judgeSpeechMusic_20210407_logNormShiftAmp,2020.1.2,MacIntel,60,,,,,,,,,,,,,,2,5.574785,,0,1,116,266,131,1,stimuli/stim_20210407_power2amp/equal_lnn_AM5.4Hz_4.m4a,,,
,,,,,,,,,,,,39920,2021-05-10_17h45.55.261,judgeSpeechMusic_20210407_logNormShiftAmp,2020.1.2,MacIntel,60,,,,,,,,,,,,,,1,6.554645,,0,1,117,267,66,1,stimuli/stim_20210407_power2amp/equal_lnn_AM3Hz_96.m4a,,,
,,,,,,,,,,,,39920,2021-05-10_17h45.55.261,judgeSpeechMusic_20210407_logNormShiftAmp,2020.1.2,MacIntel,60,,,,,,,,,,,,,,2,5.84068,,0,1,118,268,123,1,stimuli/stim_20210407_power2amp/equal_lnn_AM5.4Hz_3.m4a,,,
,,,,,,,,,,,,39920,2021-05-10_17h45.55.261,judgeSpeechMusic_20210407_logNormShiftAmp,2020.1.2,MacIntel,60,,,,,,,,,,,,,,2,5.77229,,0,1,119,269,149,1,stimuli/stim_20210407_power2amp/equal_lnn_AM6Hz_33.m4a,,,
,,,,,,,,,,,,39920,2021-05-10_17h45.55.261,judgeSpeechMusic_20210407_logNormShiftAmp,2020.1.2,MacIntel,60,,,,,,,,,,,,,,1,7.241095,,0,1,120,270,41,1,stimuli/stim_20210407_power2amp/equal_lnn_AM1.8Hz_84.m4a,,,
,,,,,,,,,,,,39920,2021-05-10_17h45.55.261,judgeSpeechMusic_20210407_logNormShiftAmp,2020.1.2,MacIntel,60,,,,,,,,,,,,,,1,7.457605,,0,1,121,271,51,1,stimuli/stim_20210407_power2amp/equal_lnn_AM2.4Hz_74.m4a,,,
,,,,,,,,,,,,39920,2021-05-10_17h45.55.261,judgeSpeechMusic_20210407_logNormShiftAmp,2020.1.2,MacIntel,60,,,,,,,,,,,,,,1,6.80626,,0,1,122,272,83,1,stimuli/stim_20210407_power2amp/equal_lnn_AM3.6Hz_29.m4a,,,
,,,,,,,,,,,,39920,2021-05-10_17h45.55.261,judgeSpeechMusic_20210407_logNormShiftAmp,2020.1.2,MacIntel,60,,,,,,,,,,,,,,2,5.70905,,0,1,123,273,62,1,stimuli/stim_20210407_power2amp/equal_lnn_AM3Hz_51.m4a,,,
,,,,,,,,,,,,39920,2021-05-10_17h45.55.261,judgeSpeechMusic_20210407_logNormShiftAmp,2020.1.2,MacIntel,60,,,,,,,,,,,,,,1,5.89419,,0,1,124,274,8,1,stimuli/stim_20210407_power2amp/equal_lnn_AM0.6Hz_92.m4a,,,
,,,,,,,,,,,,39920,2021-05-10_17h45.55.261,judgeSpeechMusic_20210407_logNormShiftAmp,2020.1.2,MacIntel,60,,,,,,,,,,,,,,2,5.939105,,0,1,125,275,118,1,stimuli/stim_20210407_power2amp/equal_lnn_AM4.8Hz_10.m4a,,,
,,,,,,,,,,,,39920,2021-05-10_17h45.55.261,judgeSpeechMusic_20210407_logNormShiftAmp,2020.1.2,MacIntel,60,,,,,,,,,,,,,,1,5.955565,2,1,1,126,276,28,1,stimuli/stim_20210407_power2amp/equal_lnn_AM1.2Hz_51.m4a,2.07827,,
,,,,,,,,,,,,39920,2021-05-10_17h45.55.261,judgeSpeechMusic_20210407_logNormShiftAmp,2020.1.2,MacIntel,60,,,,,,,,,,,,,,1,8.94462,,0,1,127,277,16,1,stimuli/stim_20210407_power2amp/equal_lnn_AM1.2Hz_86.m4a,,,
,,,,,,,,,,,,39920,2021-05-10_17h45.55.261,judgeSpeechMusic_20210407_logNormShiftAmp,2020.1.2,MacIntel,60,,,,,,,,,,,,,,1,8.277095,,0,1,128,278,54,1,stimuli/stim_20210407_power2amp/equal_lnn_AM2.4Hz_34.m4a,,,
,,,,,,,,,,,,39920,2021-05-10_17h45.55.261,judgeSpeechMusic_20210407_logNormShiftAmp,2020.1.2,MacIntel,60,,,,,,,,,,,,,,1,6.223415,,0,1,129,279,94,1,stimuli/stim_20210407_power2amp/equal_lnn_AM4.2Hz_33.m4a,,,
,,,,,,,,,,,,39920,2021-05-10_17h45.55.261,judgeSpeechMusic_20210407_logNormShiftAmp,2020.1.2,MacIntel,60,,,,,,,,,,,,,,1,7.08968,,0,1,130,280,76,1,stimuli/stim_20210407_power2amp/equal_lnn_AM3.6Hz_10.m4a,,,
,,,,,,,,,,,,39920,2021-05-10_17h45.55.261,judgeSpeechMusic_20210407_logNormShiftAmp,2020.1.2,MacIntel,60,,,,,,,,,,,,,,2,5.658415,,0,1,131,281,109,1,stimuli/stim_20210407_power2amp/equal_lnn_AM4.8Hz_7.m4a,,,
,,,,,,,,,,,,39920,2021-05-10_17h45.55.261,judgeSpeechMusic_20210407_logNormShiftAmp,2020.1.2,MacIntel,60,,,,,,,,,,,,,,2,5.589945,,0,1,132,282,148,1,stimuli/stim_20210407_power2amp/equal_lnn_AM6Hz_65.m4a,,,
,,,,,,,,,,,,39920,2021-05-10_17h45.55.261,judgeSpeechMusic_20210407_logNormShiftAmp,2020.1.2,MacIntel,60,,,,,,,,,,,,,,1,5.623025,,0,1,133,283,46,1,stimuli/stim_20210407_power2amp/equal_lnn_AM2.4Hz_94.m4a,,,
,,,,,,,,,,,,39920,2021-05-10_17h45.55.261,judgeSpeechMusic_20210407_logNormShiftAmp,2020.1.2,MacIntel,60,,,,,,,,,,,,,,2,6.957645,,0,1,134,284,104,1,stimuli/stim_20210407_power2amp/equal_lnn_AM4.2Hz_71.m4a,,,
,,,,,,,,,,,,39920,2021-05-10_17h45.55.261,judgeSpeechMusic_20210407_logNormShiftAmp,2020.1.2,MacIntel,60,,,,,,,,,,,,,,1,6.95676,,0,1,135,285,32,1,stimuli/stim_20210407_power2amp/equal_lnn_AM1.8Hz_22.m4a,,,
,,,,,,,,,,,,39920,2021-05-10_17h45.55.261,judgeSpeechMusic_20210407_logNormShiftAmp,2020.1.2,MacIntel,60,,,,,,,,,,,,,,1,5.637235,,0,1,136,286,15,1,stimuli/stim_20210407_power2amp/equal_lnn_AM1.2Hz_16.m4a,,,
,,,,,,,,,,,,39920,2021-05-10_17h45.55.261,judgeSpeechMusic_20210407_logNormShiftAmp,2020.1.2,MacIntel,60,,,,,,,,,,,,,,2,6.939555,,0,1,137,287,88,1,stimuli/stim_20210407_power2amp/equal_lnn_AM3.6Hz_78.m4a,,,
,,,,,,,,,,,,39920,2021-05-10_17h45.55.261,judgeSpeechMusic_20210407_logNormShiftAmp,2020.1.2,MacIntel,60,,,,,,,,,,,,,,2,6.2431,,0,1,138,288,111,1,stimuli/stim_20210407_power2amp/equal_lnn_AM4.8Hz_89.m4a,,,
,,,,,,,,,,,,39920,2021-05-10_17h45.55.261,judgeSpeechMusic_20210407_logNormShiftAmp,2020.1.2,MacIntel,60,,,,,,,,,,,,,,2,5.888245,,0,1,139,289,92,1,stimuli/stim_20210407_power2amp/equal_lnn_AM4.2Hz_74.m4a,,,
,,,,,,,,,,,,39920,2021-05-10_17h45.55.261,judgeSpeechMusic_20210407_logNormShiftAmp,2020.1.2,MacIntel,60,,,,,,,,,,,,,,2,7.257105,,0,1,140,290,39,1,stimuli/stim_20210407_power2amp/equal_lnn_AM1.8Hz_77.m4a,,,
,,,,,,,,,,,,39920,2021-05-10_17h45.55.261,judgeSpeechMusic_20210407_logNormShiftAmp,2020.1.2,MacIntel,60,,,,,,,,,,,,,,1,8.606885,,0,1,141,291,122,1,stimuli/stim_20210407_power2amp/equal_lnn_AM5.4Hz_99.m4a,,,
,,,,,,,,,,,,39920,2021-05-10_17h45.55.261,judgeSpeechMusic_20210407_logNormShiftAmp,2020.1.2,MacIntel,60,,,,,,,,,,,,,,1,7.66205,,0,1,142,292,90,1,stimuli/stim_20210407_power2amp/equal_lnn_AM4.2Hz_67.m4a,,,
,,,,,,,,,,,,39920,2021-05-10_17h45.55.261,judgeSpeechMusic_20210407_logNormShiftAmp,2020.1.2,MacIntel,60,,,,,,,,,,,,,,1,6.660425,,0,1,143,293,58,1,stimuli/stim_20210407_power2amp/equal_lnn_AM2.4Hz_10.m4a,,,
,,,,,,,,,,,,39920,2021-05-10_17h45.55.261,judgeSpeechMusic_20210407_logNormShiftAmp,2020.1.2,MacIntel,60,,,,,,,,,,,,,,1,8.43621,,0,1,144,294,37,1,stimuli/stim_20210407_power2amp/equal_lnn_AM1.8Hz_85.m4a,,,
,,,,,,,,,,,,39920,2021-05-10_17h45.55.261,judgeSpeechMusic_20210407_logNormShiftAmp,2020.1.2,MacIntel,60,,,,,,,,,,,,,,1,10.104705,,0,1,145,295,129,1,stimuli/stim_20210407_power2amp/equal_lnn_AM5.4Hz_61.m4a,,,
,,,,,,,,,,,,39920,2021-05-10_17h45.55.261,judgeSpeechMusic_20210407_logNormShiftAmp,2020.1.2,MacIntel,60,,,,,,,,,,,,,,1,8.573395,,0,1,146,296,136,1,stimuli/stim_20210407_power2amp/equal_lnn_AM6Hz_12.m4a,,,
,,,,,,,,,,,,39920,2021-05-10_17h45.55.261,judgeSpeechMusic_20210407_logNormShiftAmp,2020.1.2,MacIntel,60,,,,,,,,,,,,,,1,6.422945,,0,1,147,297,107,1,stimuli/stim_20210407_power2amp/equal_lnn_AM4.8Hz_80.m4a,,,
,,,,,,,,,,,,39920,2021-05-10_17h45.55.261,judgeSpeechMusic_20210407_logNormShiftAmp,2020.1.2,MacIntel,60,,,,,,,,,,,,,,2,6.010825,,0,1,148,298,139,1,stimuli/stim_20210407_power2amp/equal_lnn_AM6Hz_22.m4a,,,
,,,,,,,,,,,,39920,2021-05-10_17h45.55.261,judgeSpeechMusic_20210407_logNormShiftAmp,2020.1.2,MacIntel,60,,,,,,,,,,,,,,2,5.740035,,0,1,149,299,84,1,stimuli/stim_20210407_power2amp/equal_lnn_AM3.6Hz_42.m4a,,,
,,,,,,,,,,,,39920,2021-05-10_17h45.55.261,judgeSpeechMusic_20210407_logNormShiftAmp,2020.1.2,MacIntel,60,,,,,,,,,,,,,,,,,,,,,,,,,space,4.393855
