headphoneResponse.keys,headphoneResponse.corr,headphoneResponse.rt,headphoneTrial.thisRepN,headphoneTrial.thisTrialN,headphoneTrial.thisN,headphoneTrial.thisIndex,headphoneTrial.ran,headphone_sound1,headphone_sound2,headphone_sound3,corrAns,participant,date,expName,psychopyVersion,OS,frameRate,trainSlider.response,trainSlider.rt,beepTrainResponse.keys,beepTrainResponse.corr,trainingTrials.thisRepN,trainingTrials.thisTrialN,trainingTrials.thisN,trainingTrials.thisIndex,trainingTrials.ran,trainAudioFile,beepTrainResponse.rt,readyReal_resp.keys,readyReal_resp.rt,ratingSlider.response,ratingSlider.rt,beepResp.keys,beepResp.corr,expTrials.thisRepN,expTrials.thisTrialN,expTrials.thisN,expTrials.thisIndex,expTrials.ran,audioFile,beepResp.rt,end_resp.keys,end_resp.rt
3,0,3.878955,0,0,0,5,1,stimuli/screen_quiet.wav,stimuli/screen_origin.wav,stimuli/screen_antiphase.wav,1,40029,2021-05-10_19h36.56.270,judgeSpeechMusic_20210407_logNormShiftAmp,2020.1.2,MacIntel,60,,,,,,,,,,,,,,,,,,,,,,,,,,
1,1,0.86818,0,1,1,4,1,stimuli/screen_quiet.wav,stimuli/screen_antiphase.wav,stimuli/screen_origin.wav,1,40029,2021-05-10_19h36.56.270,judgeSpeechMusic_20210407_logNormShiftAmp,2020.1.2,MacIntel,60,,,,,,,,,,,,,,,,,,,,,,,,,,
2,1,0.548215,0,2,2,3,1,stimuli/screen_origin.wav,stimuli/screen_quiet.wav,stimuli/screen_antiphase.wav,2,40029,2021-05-10_19h36.56.270,judgeSpeechMusic_20210407_logNormShiftAmp,2020.1.2,MacIntel,60,,,,,,,,,,,,,,,,,,,,,,,,,,
3,1,0.433405,0,3,3,0,1,stimuli/screen_antiphase.wav,stimuli/screen_origin.wav,stimuli/screen_quiet.wav,3,40029,2021-05-10_19h36.56.270,judgeSpeechMusic_20210407_logNormShiftAmp,2020.1.2,MacIntel,60,,,,,,,,,,,,,,,,,,,,,,,,,,
3,1,0.583655,0,4,4,2,1,stimuli/screen_origin.wav,stimuli/screen_antiphase.wav,stimuli/screen_quiet.wav,3,40029,2021-05-10_19h36.56.270,judgeSpeechMusic_20210407_logNormShiftAmp,2020.1.2,MacIntel,60,,,,,,,,,,,,,,,,,,,,,,,,,,
2,1,0.636575,0,5,5,1,1,stimuli/screen_antiphase.wav,stimuli/screen_quiet.wav,stimuli/screen_origin.wav,2,40029,2021-05-10_19h36.56.270,judgeSpeechMusic_20210407_logNormShiftAmp,2020.1.2,MacIntel,60,,,,,,,,,,,,,,,,,,,,,,,,,,
,,,,,,,,,,,,40029,2021-05-10_19h36.56.270,judgeSpeechMusic_20210407_logNormShiftAmp,2020.1.2,MacIntel,60,2,11.983725,,0,0,0,0,3,1,stimuli/stim_20210407_power2amp/equal_lnn_AM_training5.1Hz.m4a,,,,,,,,,,,,,,,,
,,,,,,,,,,,,40029,2021-05-10_19h36.56.270,judgeSpeechMusic_20210407_logNormShiftAmp,2020.1.2,MacIntel,60,2,9.003365,,0,0,1,1,1,1,stimuli/stim_20210407_power2amp/equal_lnn_AM_training2.7Hz.m4a,,,,,,,,,,,,,,,,
,,,,,,,,,,,,40029,2021-05-10_19h36.56.270,judgeSpeechMusic_20210407_logNormShiftAmp,2020.1.2,MacIntel,60,1,7.64091,3,1,0,2,2,2,1,stimuli/stim_20210407_power2amp/equal_lnn_AM_training3.9Hz.m4a,1.99328,,,,,,,,,,,,,,,
,,,,,,,,,,,,40029,2021-05-10_19h36.56.270,judgeSpeechMusic_20210407_logNormShiftAmp,2020.1.2,MacIntel,60,1,6.777985,,0,0,3,3,0,1,stimuli/stim_20210407_power2amp/equal_lnn_AM_training1.5Hz.m4a,,,,,,,,,,,,,,,,
,,,,,,,,,,,,40029,2021-05-10_19h36.56.270,judgeSpeechMusic_20210407_logNormShiftAmp,2020.1.2,MacIntel,60,,,,,,,,,,,,space,5.30514,1,6.59597,,0,0,0,0,22,1,stimuli/stim_20210407_power2amp/equal_lnn_AM1.2Hz_60.m4a,,,
,,,,,,,,,,,,40029,2021-05-10_19h36.56.270,judgeSpeechMusic_20210407_logNormShiftAmp,2020.1.2,MacIntel,60,,,,,,,,,,,,,,2,6.067745,,0,0,1,1,21,1,stimuli/stim_20210407_power2amp/equal_lnn_AM1.2Hz_39.m4a,,,
,,,,,,,,,,,,40029,2021-05-10_19h36.56.270,judgeSpeechMusic_20210407_logNormShiftAmp,2020.1.2,MacIntel,60,,,,,,,,,,,,,,1,6.47955,,0,0,2,2,50,1,stimuli/stim_20210407_power2amp/equal_lnn_AM2.4Hz_2.m4a,,,
,,,,,,,,,,,,40029,2021-05-10_19h36.56.270,judgeSpeechMusic_20210407_logNormShiftAmp,2020.1.2,MacIntel,60,,,,,,,,,,,,,,1,7.643535,,0,0,3,3,37,1,stimuli/stim_20210407_power2amp/equal_lnn_AM1.8Hz_4.m4a,,,
,,,,,,,,,,,,40029,2021-05-10_19h36.56.270,judgeSpeechMusic_20210407_logNormShiftAmp,2020.1.2,MacIntel,60,,,,,,,,,,,,,,1,6.144,,0,0,4,4,25,1,stimuli/stim_20210407_power2amp/equal_lnn_AM1.2Hz_53.m4a,,,
,,,,,,,,,,,,40029,2021-05-10_19h36.56.270,judgeSpeechMusic_20210407_logNormShiftAmp,2020.1.2,MacIntel,60,,,,,,,,,,,,,,2,6.32471,,0,0,5,5,9,1,stimuli/stim_20210407_power2amp/equal_lnn_AM0.6Hz_84.m4a,,,
,,,,,,,,,,,,40029,2021-05-10_19h36.56.270,judgeSpeechMusic_20210407_logNormShiftAmp,2020.1.2,MacIntel,60,,,,,,,,,,,,,,2,6.132695,,0,0,6,6,28,1,stimuli/stim_20210407_power2amp/equal_lnn_AM1.2Hz_49.m4a,,,
,,,,,,,,,,,,40029,2021-05-10_19h36.56.270,judgeSpeechMusic_20210407_logNormShiftAmp,2020.1.2,MacIntel,60,,,,,,,,,,,,,,2,5.887235,,0,0,7,7,110,1,stimuli/stim_20210407_power2amp/equal_lnn_AM4.8Hz_86.m4a,,,
,,,,,,,,,,,,40029,2021-05-10_19h36.56.270,judgeSpeechMusic_20210407_logNormShiftAmp,2020.1.2,MacIntel,60,,,,,,,,,,,,,,1,6.857735,,0,0,8,8,10,1,stimuli/stim_20210407_power2amp/equal_lnn_AM0.6Hz_55.m4a,,,
,,,,,,,,,,,,40029,2021-05-10_19h36.56.270,judgeSpeechMusic_20210407_logNormShiftAmp,2020.1.2,MacIntel,60,,,,,,,,,,,,,,1,13.744655,,0,0,9,9,19,1,stimuli/stim_20210407_power2amp/equal_lnn_AM1.2Hz_84.m4a,,,
,,,,,,,,,,,,40029,2021-05-10_19h36.56.270,judgeSpeechMusic_20210407_logNormShiftAmp,2020.1.2,MacIntel,60,,,,,,,,,,,,,,2,6.263175,,0,0,10,10,26,1,stimuli/stim_20210407_power2amp/equal_lnn_AM1.2Hz_95.m4a,,,
,,,,,,,,,,,,40029,2021-05-10_19h36.56.270,judgeSpeechMusic_20210407_logNormShiftAmp,2020.1.2,MacIntel,60,,,,,,,,,,,,,,2,6.159535,,0,0,11,11,12,1,stimuli/stim_20210407_power2amp/equal_lnn_AM0.6Hz_88.m4a,,,
,,,,,,,,,,,,40029,2021-05-10_19h36.56.270,judgeSpeechMusic_20210407_logNormShiftAmp,2020.1.2,MacIntel,60,,,,,,,,,,,,,,1,5.99488,,0,0,12,12,113,1,stimuli/stim_20210407_power2amp/equal_lnn_AM4.8Hz_77.m4a,,,
,,,,,,,,,,,,40029,2021-05-10_19h36.56.270,judgeSpeechMusic_20210407_logNormShiftAmp,2020.1.2,MacIntel,60,,,,,,,,,,,,,,1,6.215845,,0,0,13,13,27,1,stimuli/stim_20210407_power2amp/equal_lnn_AM1.2Hz_64.m4a,,,
,,,,,,,,,,,,40029,2021-05-10_19h36.56.270,judgeSpeechMusic_20210407_logNormShiftAmp,2020.1.2,MacIntel,60,,,,,,,,,,,,,,1,9.735345,,0,0,14,14,138,1,stimuli/stim_20210407_power2amp/equal_lnn_AM6Hz_50.m4a,,,
,,,,,,,,,,,,40029,2021-05-10_19h36.56.270,judgeSpeechMusic_20210407_logNormShiftAmp,2020.1.2,MacIntel,60,,,,,,,,,,,,,,2,6.210395,,0,0,15,15,46,1,stimuli/stim_20210407_power2amp/equal_lnn_AM2.4Hz_54.m4a,,,
,,,,,,,,,,,,40029,2021-05-10_19h36.56.270,judgeSpeechMusic_20210407_logNormShiftAmp,2020.1.2,MacIntel,60,,,,,,,,,,,,,,2,5.84326,,0,0,16,16,36,1,stimuli/stim_20210407_power2amp/equal_lnn_AM1.8Hz_91.m4a,,,
,,,,,,,,,,,,40029,2021-05-10_19h36.56.270,judgeSpeechMusic_20210407_logNormShiftAmp,2020.1.2,MacIntel,60,,,,,,,,,,,,,,1,6.25859,,0,0,17,17,82,1,stimuli/stim_20210407_power2amp/equal_lnn_AM3.6Hz_85.m4a,,,
,,,,,,,,,,,,40029,2021-05-10_19h36.56.270,judgeSpeechMusic_20210407_logNormShiftAmp,2020.1.2,MacIntel,60,,,,,,,,,,,,,,1,8.62838,,0,0,18,18,86,1,stimuli/stim_20210407_power2amp/equal_lnn_AM3.6Hz_86.m4a,,,
,,,,,,,,,,,,40029,2021-05-10_19h36.56.270,judgeSpeechMusic_20210407_logNormShiftAmp,2020.1.2,MacIntel,60,,,,,,,,,,,,,,1,6.53963,,0,0,19,19,6,1,stimuli/stim_20210407_power2amp/equal_lnn_AM0.6Hz_31.m4a,,,
,,,,,,,,,,,,40029,2021-05-10_19h36.56.270,judgeSpeechMusic_20210407_logNormShiftAmp,2020.1.2,MacIntel,60,,,,,,,,,,,,,,1,21.072285,,0,0,20,20,23,1,stimuli/stim_20210407_power2amp/equal_lnn_AM1.2Hz_34.m4a,,,
,,,,,,,,,,,,40029,2021-05-10_19h36.56.270,judgeSpeechMusic_20210407_logNormShiftAmp,2020.1.2,MacIntel,60,,,,,,,,,,,,,,2,6.145535,,0,0,21,21,143,1,stimuli/stim_20210407_power2amp/equal_lnn_AM6Hz_47.m4a,,,
,,,,,,,,,,,,40029,2021-05-10_19h36.56.270,judgeSpeechMusic_20210407_logNormShiftAmp,2020.1.2,MacIntel,60,,,,,,,,,,,,,,1,6.208405,,0,0,22,22,74,1,stimuli/stim_20210407_power2amp/equal_lnn_AM3Hz_2.m4a,,,
,,,,,,,,,,,,40029,2021-05-10_19h36.56.270,judgeSpeechMusic_20210407_logNormShiftAmp,2020.1.2,MacIntel,60,,,,,,,,,,,,,,1,9.72039,,0,0,23,23,65,1,stimuli/stim_20210407_power2amp/equal_lnn_AM3Hz_24.m4a,,,
,,,,,,,,,,,,40029,2021-05-10_19h36.56.270,judgeSpeechMusic_20210407_logNormShiftAmp,2020.1.2,MacIntel,60,,,,,,,,,,,,,,1,7.29524,,0,0,24,24,59,1,stimuli/stim_20210407_power2amp/equal_lnn_AM2.4Hz_76.m4a,,,
,,,,,,,,,,,,40029,2021-05-10_19h36.56.270,judgeSpeechMusic_20210407_logNormShiftAmp,2020.1.2,MacIntel,60,,,,,,,,,,,,,,2,6.37091,,0,0,25,25,87,1,stimuli/stim_20210407_power2amp/equal_lnn_AM3.6Hz_90.m4a,,,
,,,,,,,,,,,,40029,2021-05-10_19h36.56.270,judgeSpeechMusic_20210407_logNormShiftAmp,2020.1.2,MacIntel,60,,,,,,,,,,,,,,2,5.740855,,0,0,26,26,85,1,stimuli/stim_20210407_power2amp/equal_lnn_AM3.6Hz_95.m4a,,,
,,,,,,,,,,,,40029,2021-05-10_19h36.56.270,judgeSpeechMusic_20210407_logNormShiftAmp,2020.1.2,MacIntel,60,,,,,,,,,,,,,,1,6.37443,,0,0,27,27,148,1,stimuli/stim_20210407_power2amp/equal_lnn_AM6Hz_54.m4a,,,
,,,,,,,,,,,,40029,2021-05-10_19h36.56.270,judgeSpeechMusic_20210407_logNormShiftAmp,2020.1.2,MacIntel,60,,,,,,,,,,,,,,1,6.463925,,0,0,28,28,111,1,stimuli/stim_20210407_power2amp/equal_lnn_AM4.8Hz_22.m4a,,,
,,,,,,,,,,,,40029,2021-05-10_19h36.56.270,judgeSpeechMusic_20210407_logNormShiftAmp,2020.1.2,MacIntel,60,,,,,,,,,,,,,,1,6.76035,,0,0,29,29,76,1,stimuli/stim_20210407_power2amp/equal_lnn_AM3.6Hz_5.m4a,,,
,,,,,,,,,,,,40029,2021-05-10_19h36.56.270,judgeSpeechMusic_20210407_logNormShiftAmp,2020.1.2,MacIntel,60,,,,,,,,,,,,,,1,6.09306,,0,0,30,30,109,1,stimuli/stim_20210407_power2amp/equal_lnn_AM4.8Hz_36.m4a,,,
,,,,,,,,,,,,40029,2021-05-10_19h36.56.270,judgeSpeechMusic_20210407_logNormShiftAmp,2020.1.2,MacIntel,60,,,,,,,,,,,,,,1,6.144075,,0,0,31,31,42,1,stimuli/stim_20210407_power2amp/equal_lnn_AM1.8Hz_78.m4a,,,
,,,,,,,,,,,,40029,2021-05-10_19h36.56.270,judgeSpeechMusic_20210407_logNormShiftAmp,2020.1.2,MacIntel,60,,,,,,,,,,,,,,1,5.696405,1,1,0,32,32,58,1,stimuli/stim_20210407_power2amp/equal_lnn_AM2.4Hz_78.m4a,1.757245,,
,,,,,,,,,,,,40029,2021-05-10_19h36.56.270,judgeSpeechMusic_20210407_logNormShiftAmp,2020.1.2,MacIntel,60,,,,,,,,,,,,,,2,6.62178,,0,0,33,33,132,1,stimuli/stim_20210407_power2amp/equal_lnn_AM5.4Hz_94.m4a,,,
,,,,,,,,,,,,40029,2021-05-10_19h36.56.270,judgeSpeechMusic_20210407_logNormShiftAmp,2020.1.2,MacIntel,60,,,,,,,,,,,,,,2,5.61214,,0,0,34,34,118,1,stimuli/stim_20210407_power2amp/equal_lnn_AM4.8Hz_50.m4a,,,
,,,,,,,,,,,,40029,2021-05-10_19h36.56.270,judgeSpeechMusic_20210407_logNormShiftAmp,2020.1.2,MacIntel,60,,,,,,,,,,,,,,1,6.863045,,0,0,35,35,124,1,stimuli/stim_20210407_power2amp/equal_lnn_AM5.4Hz_78.m4a,,,
,,,,,,,,,,,,40029,2021-05-10_19h36.56.270,judgeSpeechMusic_20210407_logNormShiftAmp,2020.1.2,MacIntel,60,,,,,,,,,,,,,,1,6.026225,,0,0,36,36,15,1,stimuli/stim_20210407_power2amp/equal_lnn_AM1.2Hz_24.m4a,,,
,,,,,,,,,,,,40029,2021-05-10_19h36.56.270,judgeSpeechMusic_20210407_logNormShiftAmp,2020.1.2,MacIntel,60,,,,,,,,,,,,,,2,7.293575,,0,0,37,37,35,1,stimuli/stim_20210407_power2amp/equal_lnn_AM1.8Hz_88.m4a,,,
,,,,,,,,,,,,40029,2021-05-10_19h36.56.270,judgeSpeechMusic_20210407_logNormShiftAmp,2020.1.2,MacIntel,60,,,,,,,,,,,,,,1,6.405815,,0,0,38,38,95,1,stimuli/stim_20210407_power2amp/equal_lnn_AM4.2Hz_54.m4a,,,
,,,,,,,,,,,,40029,2021-05-10_19h36.56.270,judgeSpeechMusic_20210407_logNormShiftAmp,2020.1.2,MacIntel,60,,,,,,,,,,,,,,2,7.03872,,0,0,39,39,79,1,stimuli/stim_20210407_power2amp/equal_lnn_AM3.6Hz_22.m4a,,,
,,,,,,,,,,,,40029,2021-05-10_19h36.56.270,judgeSpeechMusic_20210407_logNormShiftAmp,2020.1.2,MacIntel,60,,,,,,,,,,,,,,2,6.947275,,0,0,40,40,89,1,stimuli/stim_20210407_power2amp/equal_lnn_AM3.6Hz_73.m4a,,,
,,,,,,,,,,,,40029,2021-05-10_19h36.56.270,judgeSpeechMusic_20210407_logNormShiftAmp,2020.1.2,MacIntel,60,,,,,,,,,,,,,,2,9.922785,,0,0,41,41,145,1,stimuli/stim_20210407_power2amp/equal_lnn_AM6Hz_84.m4a,,,
,,,,,,,,,,,,40029,2021-05-10_19h36.56.270,judgeSpeechMusic_20210407_logNormShiftAmp,2020.1.2,MacIntel,60,,,,,,,,,,,,,,2,6.005025,,0,0,42,42,62,1,stimuli/stim_20210407_power2amp/equal_lnn_AM3Hz_57.m4a,,,
,,,,,,,,,,,,40029,2021-05-10_19h36.56.270,judgeSpeechMusic_20210407_logNormShiftAmp,2020.1.2,MacIntel,60,,,,,,,,,,,,,,1,6.160545,,0,0,43,43,24,1,stimuli/stim_20210407_power2amp/equal_lnn_AM1.2Hz_6.m4a,,,
,,,,,,,,,,,,40029,2021-05-10_19h36.56.270,judgeSpeechMusic_20210407_logNormShiftAmp,2020.1.2,MacIntel,60,,,,,,,,,,,,,,1,13.326645,,0,0,44,44,1,1,stimuli/stim_20210407_power2amp/equal_lnn_AM0.6Hz_23.m4a,,,
,,,,,,,,,,,,40029,2021-05-10_19h36.56.270,judgeSpeechMusic_20210407_logNormShiftAmp,2020.1.2,MacIntel,60,,,,,,,,,,,,,,2,5.96153,,0,0,45,45,45,1,stimuli/stim_20210407_power2amp/equal_lnn_AM2.4Hz_56.m4a,,,
,,,,,,,,,,,,40029,2021-05-10_19h36.56.270,judgeSpeechMusic_20210407_logNormShiftAmp,2020.1.2,MacIntel,60,,,,,,,,,,,,,,2,7.64219,,0,0,46,46,13,1,stimuli/stim_20210407_power2amp/equal_lnn_AM0.6Hz_53.m4a,,,
,,,,,,,,,,,,40029,2021-05-10_19h36.56.270,judgeSpeechMusic_20210407_logNormShiftAmp,2020.1.2,MacIntel,60,,,,,,,,,,,,,,1,6.94185,,0,0,47,47,104,1,stimuli/stim_20210407_power2amp/equal_lnn_AM4.2Hz_85.m4a,,,
,,,,,,,,,,,,40029,2021-05-10_19h36.56.270,judgeSpeechMusic_20210407_logNormShiftAmp,2020.1.2,MacIntel,60,,,,,,,,,,,,,,2,6.46176,,0,0,48,48,81,1,stimuli/stim_20210407_power2amp/equal_lnn_AM3.6Hz_69.m4a,,,
,,,,,,,,,,,,40029,2021-05-10_19h36.56.270,judgeSpeechMusic_20210407_logNormShiftAmp,2020.1.2,MacIntel,60,,,,,,,,,,,,,,1,7.177205,,0,0,49,49,105,1,stimuli/stim_20210407_power2amp/equal_lnn_AM4.8Hz_26.m4a,,,
,,,,,,,,,,,,40029,2021-05-10_19h36.56.270,judgeSpeechMusic_20210407_logNormShiftAmp,2020.1.2,MacIntel,60,,,,,,,,,,,,,,2,7.400295,,0,0,50,50,34,1,stimuli/stim_20210407_power2amp/equal_lnn_AM1.8Hz_76.m4a,,,
,,,,,,,,,,,,40029,2021-05-10_19h36.56.270,judgeSpeechMusic_20210407_logNormShiftAmp,2020.1.2,MacIntel,60,,,,,,,,,,,,,,1,6.66757,,0,0,51,51,93,1,stimuli/stim_20210407_power2amp/equal_lnn_AM4.2Hz_47.m4a,,,
,,,,,,,,,,,,40029,2021-05-10_19h36.56.270,judgeSpeechMusic_20210407_logNormShiftAmp,2020.1.2,MacIntel,60,,,,,,,,,,,,,,2,6.911705,,0,0,52,52,99,1,stimuli/stim_20210407_power2amp/equal_lnn_AM4.2Hz_28.m4a,,,
,,,,,,,,,,,,40029,2021-05-10_19h36.56.270,judgeSpeechMusic_20210407_logNormShiftAmp,2020.1.2,MacIntel,60,,,,,,,,,,,,,,2,6.11132,,0,0,53,53,66,1,stimuli/stim_20210407_power2amp/equal_lnn_AM3Hz_34.m4a,,,
,,,,,,,,,,,,40029,2021-05-10_19h36.56.270,judgeSpeechMusic_20210407_logNormShiftAmp,2020.1.2,MacIntel,60,,,,,,,,,,,,,,1,7.59478,,0,0,54,54,29,1,stimuli/stim_20210407_power2amp/equal_lnn_AM1.2Hz_32.m4a,,,
,,,,,,,,,,,,40029,2021-05-10_19h36.56.270,judgeSpeechMusic_20210407_logNormShiftAmp,2020.1.2,MacIntel,60,,,,,,,,,,,,,,2,8.35698,4,1,0,55,55,136,1,stimuli/stim_20210407_power2amp/equal_lnn_AM6Hz_28.m4a,2.308465,,
,,,,,,,,,,,,40029,2021-05-10_19h36.56.270,judgeSpeechMusic_20210407_logNormShiftAmp,2020.1.2,MacIntel,60,,,,,,,,,,,,,,1,5.992695,,0,0,56,56,38,1,stimuli/stim_20210407_power2amp/equal_lnn_AM1.8Hz_12.m4a,,,
,,,,,,,,,,,,40029,2021-05-10_19h36.56.270,judgeSpeechMusic_20210407_logNormShiftAmp,2020.1.2,MacIntel,60,,,,,,,,,,,,,,2,5.91494,,0,0,57,57,116,1,stimuli/stim_20210407_power2amp/equal_lnn_AM4.8Hz_46.m4a,,,
,,,,,,,,,,,,40029,2021-05-10_19h36.56.270,judgeSpeechMusic_20210407_logNormShiftAmp,2020.1.2,MacIntel,60,,,,,,,,,,,,,,2,6.604815,,0,0,58,58,39,1,stimuli/stim_20210407_power2amp/equal_lnn_AM1.8Hz_59.m4a,,,
,,,,,,,,,,,,40029,2021-05-10_19h36.56.270,judgeSpeechMusic_20210407_logNormShiftAmp,2020.1.2,MacIntel,60,,,,,,,,,,,,,,2,5.944995,,0,0,59,59,57,1,stimuli/stim_20210407_power2amp/equal_lnn_AM2.4Hz_62.m4a,,,
,,,,,,,,,,,,40029,2021-05-10_19h36.56.270,judgeSpeechMusic_20210407_logNormShiftAmp,2020.1.2,MacIntel,60,,,,,,,,,,,,,,1,6.222315,,0,0,60,60,147,1,stimuli/stim_20210407_power2amp/equal_lnn_AM6Hz_99.m4a,,,
,,,,,,,,,,,,40029,2021-05-10_19h36.56.270,judgeSpeechMusic_20210407_logNormShiftAmp,2020.1.2,MacIntel,60,,,,,,,,,,,,,,2,5.804795,,0,0,61,61,123,1,stimuli/stim_20210407_power2amp/equal_lnn_AM5.4Hz_30.m4a,,,
,,,,,,,,,,,,40029,2021-05-10_19h36.56.270,judgeSpeechMusic_20210407_logNormShiftAmp,2020.1.2,MacIntel,60,,,,,,,,,,,,,,2,5.939485,,0,0,62,62,60,1,stimuli/stim_20210407_power2amp/equal_lnn_AM3Hz_8.m4a,,,
,,,,,,,,,,,,40029,2021-05-10_19h36.56.270,judgeSpeechMusic_20210407_logNormShiftAmp,2020.1.2,MacIntel,60,,,,,,,,,,,,,,2,5.692935,,0,0,63,63,107,1,stimuli/stim_20210407_power2amp/equal_lnn_AM4.8Hz_91.m4a,,,
,,,,,,,,,,,,40029,2021-05-10_19h36.56.270,judgeSpeechMusic_20210407_logNormShiftAmp,2020.1.2,MacIntel,60,,,,,,,,,,,,,,2,5.823825,,0,0,64,64,108,1,stimuli/stim_20210407_power2amp/equal_lnn_AM4.8Hz_96.m4a,,,
,,,,,,,,,,,,40029,2021-05-10_19h36.56.270,judgeSpeechMusic_20210407_logNormShiftAmp,2020.1.2,MacIntel,60,,,,,,,,,,,,,,1,6.277055,,0,0,65,65,2,1,stimuli/stim_20210407_power2amp/equal_lnn_AM0.6Hz_38.m4a,,,
,,,,,,,,,,,,40029,2021-05-10_19h36.56.270,judgeSpeechMusic_20210407_logNormShiftAmp,2020.1.2,MacIntel,60,,,,,,,,,,,,,,2,6.00454,,0,0,66,66,139,1,stimuli/stim_20210407_power2amp/equal_lnn_AM6Hz_4.m4a,,,
,,,,,,,,,,,,40029,2021-05-10_19h36.56.270,judgeSpeechMusic_20210407_logNormShiftAmp,2020.1.2,MacIntel,60,,,,,,,,,,,,,,2,7.06192,,0,0,67,67,17,1,stimuli/stim_20210407_power2amp/equal_lnn_AM1.2Hz_75.m4a,,,
,,,,,,,,,,,,40029,2021-05-10_19h36.56.270,judgeSpeechMusic_20210407_logNormShiftAmp,2020.1.2,MacIntel,60,,,,,,,,,,,,,,1,6.260625,,0,0,68,68,32,1,stimuli/stim_20210407_power2amp/equal_lnn_AM1.8Hz_30.m4a,,,
,,,,,,,,,,,,40029,2021-05-10_19h36.56.270,judgeSpeechMusic_20210407_logNormShiftAmp,2020.1.2,MacIntel,60,,,,,,,,,,,,,,2,5.638395,,0,0,69,69,134,1,stimuli/stim_20210407_power2amp/equal_lnn_AM5.4Hz_90.m4a,,,
,,,,,,,,,,,,40029,2021-05-10_19h36.56.270,judgeSpeechMusic_20210407_logNormShiftAmp,2020.1.2,MacIntel,60,,,,,,,,,,,,,,2,5.88814,,0,0,70,70,54,1,stimuli/stim_20210407_power2amp/equal_lnn_AM2.4Hz_38.m4a,,,
,,,,,,,,,,,,40029,2021-05-10_19h36.56.270,judgeSpeechMusic_20210407_logNormShiftAmp,2020.1.2,MacIntel,60,,,,,,,,,,,,,,1,6.03826,,0,0,71,71,33,1,stimuli/stim_20210407_power2amp/equal_lnn_AM1.8Hz_74.m4a,,,
,,,,,,,,,,,,40029,2021-05-10_19h36.56.270,judgeSpeechMusic_20210407_logNormShiftAmp,2020.1.2,MacIntel,60,,,,,,,,,,,,,,2,5.81024,,0,0,72,72,126,1,stimuli/stim_20210407_power2amp/equal_lnn_AM5.4Hz_9.m4a,,,
,,,,,,,,,,,,40029,2021-05-10_19h36.56.270,judgeSpeechMusic_20210407_logNormShiftAmp,2020.1.2,MacIntel,60,,,,,,,,,,,,,,1,5.65965,,0,0,73,73,72,1,stimuli/stim_20210407_power2amp/equal_lnn_AM3Hz_47.m4a,,,
,,,,,,,,,,,,40029,2021-05-10_19h36.56.270,judgeSpeechMusic_20210407_logNormShiftAmp,2020.1.2,MacIntel,60,,,,,,,,,,,,,,1,6.141455,,0,0,74,74,43,1,stimuli/stim_20210407_power2amp/equal_lnn_AM1.8Hz_8.m4a,,,
,,,,,,,,,,,,40029,2021-05-10_19h36.56.270,judgeSpeechMusic_20210407_logNormShiftAmp,2020.1.2,MacIntel,60,,,,,,,,,,,,,,2,5.939715,,0,0,75,75,129,1,stimuli/stim_20210407_power2amp/equal_lnn_AM5.4Hz_82.m4a,,,
,,,,,,,,,,,,40029,2021-05-10_19h36.56.270,judgeSpeechMusic_20210407_logNormShiftAmp,2020.1.2,MacIntel,60,,,,,,,,,,,,,,2,6.87575,,0,0,76,76,112,1,stimuli/stim_20210407_power2amp/equal_lnn_AM4.8Hz_82.m4a,,,
,,,,,,,,,,,,40029,2021-05-10_19h36.56.270,judgeSpeechMusic_20210407_logNormShiftAmp,2020.1.2,MacIntel,60,,,,,,,,,,,,,,2,5.994255,,0,0,77,77,142,1,stimuli/stim_20210407_power2amp/equal_lnn_AM6Hz_40.m4a,,,
,,,,,,,,,,,,40029,2021-05-10_19h36.56.270,judgeSpeechMusic_20210407_logNormShiftAmp,2020.1.2,MacIntel,60,,,,,,,,,,,,,,2,6.243,,0,0,78,78,48,1,stimuli/stim_20210407_power2amp/equal_lnn_AM2.4Hz_20.m4a,,,
,,,,,,,,,,,,40029,2021-05-10_19h36.56.270,judgeSpeechMusic_20210407_logNormShiftAmp,2020.1.2,MacIntel,60,,,,,,,,,,,,,,1,7.9907,4,1,0,79,79,75,1,stimuli/stim_20210407_power2amp/equal_lnn_AM3.6Hz_57.m4a,2.716575,,
,,,,,,,,,,,,40029,2021-05-10_19h36.56.270,judgeSpeechMusic_20210407_logNormShiftAmp,2020.1.2,MacIntel,60,,,,,,,,,,,,,,2,9.056245,,0,0,80,80,71,1,stimuli/stim_20210407_power2amp/equal_lnn_AM3Hz_55.m4a,,,
,,,,,,,,,,,,40029,2021-05-10_19h36.56.270,judgeSpeechMusic_20210407_logNormShiftAmp,2020.1.2,MacIntel,60,,,,,,,,,,,,,,2,12.2616,,0,0,81,81,102,1,stimuli/stim_20210407_power2amp/equal_lnn_AM4.2Hz_69.m4a,,,
,,,,,,,,,,,,40029,2021-05-10_19h36.56.270,judgeSpeechMusic_20210407_logNormShiftAmp,2020.1.2,MacIntel,60,,,,,,,,,,,,,,2,6.6076,,0,0,82,82,140,1,stimuli/stim_20210407_power2amp/equal_lnn_AM6Hz_16.m4a,,,
,,,,,,,,,,,,40029,2021-05-10_19h36.56.270,judgeSpeechMusic_20210407_logNormShiftAmp,2020.1.2,MacIntel,60,,,,,,,,,,,,,,2,5.994615,,0,0,83,83,133,1,stimuli/stim_20210407_power2amp/equal_lnn_AM5.4Hz_27.m4a,,,
,,,,,,,,,,,,40029,2021-05-10_19h36.56.270,judgeSpeechMusic_20210407_logNormShiftAmp,2020.1.2,MacIntel,60,,,,,,,,,,,,,,1,8.10984,,0,0,84,84,90,1,stimuli/stim_20210407_power2amp/equal_lnn_AM4.2Hz_2.m4a,,,
,,,,,,,,,,,,40029,2021-05-10_19h36.56.270,judgeSpeechMusic_20210407_logNormShiftAmp,2020.1.2,MacIntel,60,,,,,,,,,,,,,,2,7.296335,,0,0,85,85,53,1,stimuli/stim_20210407_power2amp/equal_lnn_AM2.4Hz_87.m4a,,,
,,,,,,,,,,,,40029,2021-05-10_19h36.56.270,judgeSpeechMusic_20210407_logNormShiftAmp,2020.1.2,MacIntel,60,,,,,,,,,,,,,,1,5.943705,,0,0,86,86,14,1,stimuli/stim_20210407_power2amp/equal_lnn_AM0.6Hz_3.m4a,,,
,,,,,,,,,,,,40029,2021-05-10_19h36.56.270,judgeSpeechMusic_20210407_logNormShiftAmp,2020.1.2,MacIntel,60,,,,,,,,,,,,,,1,6.177265,,0,0,87,87,94,1,stimuli/stim_20210407_power2amp/equal_lnn_AM4.2Hz_59.m4a,,,
,,,,,,,,,,,,40029,2021-05-10_19h36.56.270,judgeSpeechMusic_20210407_logNormShiftAmp,2020.1.2,MacIntel,60,,,,,,,,,,,,,,2,6.84382,,0,0,88,88,115,1,stimuli/stim_20210407_power2amp/equal_lnn_AM4.8Hz_64.m4a,,,
,,,,,,,,,,,,40029,2021-05-10_19h36.56.270,judgeSpeechMusic_20210407_logNormShiftAmp,2020.1.2,MacIntel,60,,,,,,,,,,,,,,2,6.743695,,0,0,89,89,31,1,stimuli/stim_20210407_power2amp/equal_lnn_AM1.8Hz_1.m4a,,,
,,,,,,,,,,,,40029,2021-05-10_19h36.56.270,judgeSpeechMusic_20210407_logNormShiftAmp,2020.1.2,MacIntel,60,,,,,,,,,,,,,,1,6.694575,,0,0,90,90,67,1,stimuli/stim_20210407_power2amp/equal_lnn_AM3Hz_68.m4a,,,
,,,,,,,,,,,,40029,2021-05-10_19h36.56.270,judgeSpeechMusic_20210407_logNormShiftAmp,2020.1.2,MacIntel,60,,,,,,,,,,,,,,2,5.660455,,0,0,91,91,117,1,stimuli/stim_20210407_power2amp/equal_lnn_AM4.8Hz_17.m4a,,,
,,,,,,,,,,,,40029,2021-05-10_19h36.56.270,judgeSpeechMusic_20210407_logNormShiftAmp,2020.1.2,MacIntel,60,,,,,,,,,,,,,,1,5.893505,,0,0,92,92,41,1,stimuli/stim_20210407_power2amp/equal_lnn_AM1.8Hz_17.m4a,,,
,,,,,,,,,,,,40029,2021-05-10_19h36.56.270,judgeSpeechMusic_20210407_logNormShiftAmp,2020.1.2,MacIntel,60,,,,,,,,,,,,,,2,5.82456,,0,0,93,93,83,1,stimuli/stim_20210407_power2amp/equal_lnn_AM3.6Hz_83.m4a,,,
,,,,,,,,,,,,40029,2021-05-10_19h36.56.270,judgeSpeechMusic_20210407_logNormShiftAmp,2020.1.2,MacIntel,60,,,,,,,,,,,,,,1,7.179075,,0,0,94,94,49,1,stimuli/stim_20210407_power2amp/equal_lnn_AM2.4Hz_19.m4a,,,
,,,,,,,,,,,,40029,2021-05-10_19h36.56.270,judgeSpeechMusic_20210407_logNormShiftAmp,2020.1.2,MacIntel,60,,,,,,,,,,,,,,2,7.397465,,0,0,95,95,68,1,stimuli/stim_20210407_power2amp/equal_lnn_AM3Hz_21.m4a,,,
,,,,,,,,,,,,40029,2021-05-10_19h36.56.270,judgeSpeechMusic_20210407_logNormShiftAmp,2020.1.2,MacIntel,60,,,,,,,,,,,,,,2,6.090085,,0,0,96,96,131,1,stimuli/stim_20210407_power2amp/equal_lnn_AM5.4Hz_24.m4a,,,
,,,,,,,,,,,,40029,2021-05-10_19h36.56.270,judgeSpeechMusic_20210407_logNormShiftAmp,2020.1.2,MacIntel,60,,,,,,,,,,,,,,1,6.090105,,0,0,97,97,4,1,stimuli/stim_20210407_power2amp/equal_lnn_AM0.6Hz_99.m4a,,,
,,,,,,,,,,,,40029,2021-05-10_19h36.56.270,judgeSpeechMusic_20210407_logNormShiftAmp,2020.1.2,MacIntel,60,,,,,,,,,,,,,,1,6.914425,,0,0,98,98,7,1,stimuli/stim_20210407_power2amp/equal_lnn_AM0.6Hz_85.m4a,,,
,,,,,,,,,,,,40029,2021-05-10_19h36.56.270,judgeSpeechMusic_20210407_logNormShiftAmp,2020.1.2,MacIntel,60,,,,,,,,,,,,,,1,6.859035,,0,0,99,99,100,1,stimuli/stim_20210407_power2amp/equal_lnn_AM4.2Hz_27.m4a,,,
,,,,,,,,,,,,40029,2021-05-10_19h36.56.270,judgeSpeechMusic_20210407_logNormShiftAmp,2020.1.2,MacIntel,60,,,,,,,,,,,,,,2,6.695405,,0,0,100,100,56,1,stimuli/stim_20210407_power2amp/equal_lnn_AM2.4Hz_81.m4a,,,
,,,,,,,,,,,,40029,2021-05-10_19h36.56.270,judgeSpeechMusic_20210407_logNormShiftAmp,2020.1.2,MacIntel,60,,,,,,,,,,,,,,1,6.827955,,0,0,101,101,52,1,stimuli/stim_20210407_power2amp/equal_lnn_AM2.4Hz_3.m4a,,,
,,,,,,,,,,,,40029,2021-05-10_19h36.56.270,judgeSpeechMusic_20210407_logNormShiftAmp,2020.1.2,MacIntel,60,,,,,,,,,,,,,,2,6.378845,2,1,0,102,102,121,1,stimuli/stim_20210407_power2amp/equal_lnn_AM5.4Hz_75.m4a,1.64421,,
,,,,,,,,,,,,40029,2021-05-10_19h36.56.270,judgeSpeechMusic_20210407_logNormShiftAmp,2020.1.2,MacIntel,60,,,,,,,,,,,,,,1,6.05953,,0,0,103,103,0,1,stimuli/stim_20210407_power2amp/equal_lnn_AM0.6Hz_95.m4a,,,
,,,,,,,,,,,,40029,2021-05-10_19h36.56.270,judgeSpeechMusic_20210407_logNormShiftAmp,2020.1.2,MacIntel,60,,,,,,,,,,,,,,1,5.938995,,0,0,104,104,88,1,stimuli/stim_20210407_power2amp/equal_lnn_AM3.6Hz_72.m4a,,,
,,,,,,,,,,,,40029,2021-05-10_19h36.56.270,judgeSpeechMusic_20210407_logNormShiftAmp,2020.1.2,MacIntel,60,,,,,,,,,,,,,,1,8.27325,,0,0,105,105,77,1,stimuli/stim_20210407_power2amp/equal_lnn_AM3.6Hz_70.m4a,,,
,,,,,,,,,,,,40029,2021-05-10_19h36.56.270,judgeSpeechMusic_20210407_logNormShiftAmp,2020.1.2,MacIntel,60,,,,,,,,,,,,,,1,7.24413,,0,0,106,106,18,1,stimuli/stim_20210407_power2amp/equal_lnn_AM1.2Hz_63.m4a,,,
,,,,,,,,,,,,40029,2021-05-10_19h36.56.270,judgeSpeechMusic_20210407_logNormShiftAmp,2020.1.2,MacIntel,60,,,,,,,,,,,,,,1,6.09005,,0,0,107,107,92,1,stimuli/stim_20210407_power2amp/equal_lnn_AM4.2Hz_35.m4a,,,
,,,,,,,,,,,,40029,2021-05-10_19h36.56.270,judgeSpeechMusic_20210407_logNormShiftAmp,2020.1.2,MacIntel,60,,,,,,,,,,,,,,1,6.642575,,0,0,108,108,20,1,stimuli/stim_20210407_power2amp/equal_lnn_AM1.2Hz_22.m4a,,,
,,,,,,,,,,,,40029,2021-05-10_19h36.56.270,judgeSpeechMusic_20210407_logNormShiftAmp,2020.1.2,MacIntel,60,,,,,,,,,,,,,,2,6.78841,,0,0,109,109,130,1,stimuli/stim_20210407_power2amp/equal_lnn_AM5.4Hz_54.m4a,,,
,,,,,,,,,,,,40029,2021-05-10_19h36.56.270,judgeSpeechMusic_20210407_logNormShiftAmp,2020.1.2,MacIntel,60,,,,,,,,,,,,,,2,7.707645,,0,0,110,110,137,1,stimuli/stim_20210407_power2amp/equal_lnn_AM6Hz_59.m4a,,,
,,,,,,,,,,,,40029,2021-05-10_19h36.56.270,judgeSpeechMusic_20210407_logNormShiftAmp,2020.1.2,MacIntel,60,,,,,,,,,,,,,,2,5.77756,,0,0,111,111,96,1,stimuli/stim_20210407_power2amp/equal_lnn_AM4.2Hz_17.m4a,,,
,,,,,,,,,,,,40029,2021-05-10_19h36.56.270,judgeSpeechMusic_20210407_logNormShiftAmp,2020.1.2,MacIntel,60,,,,,,,,,,,,,,1,5.75644,,0,0,112,112,70,1,stimuli/stim_20210407_power2amp/equal_lnn_AM3Hz_66.m4a,,,
,,,,,,,,,,,,40029,2021-05-10_19h36.56.270,judgeSpeechMusic_20210407_logNormShiftAmp,2020.1.2,MacIntel,60,,,,,,,,,,,,,,2,5.592725,,0,0,113,113,127,1,stimuli/stim_20210407_power2amp/equal_lnn_AM5.4Hz_33.m4a,,,
,,,,,,,,,,,,40029,2021-05-10_19h36.56.270,judgeSpeechMusic_20210407_logNormShiftAmp,2020.1.2,MacIntel,60,,,,,,,,,,,,,,1,5.828125,,0,0,114,114,5,1,stimuli/stim_20210407_power2amp/equal_lnn_AM0.6Hz_8.m4a,,,
,,,,,,,,,,,,40029,2021-05-10_19h36.56.270,judgeSpeechMusic_20210407_logNormShiftAmp,2020.1.2,MacIntel,60,,,,,,,,,,,,,,1,5.573835,,0,0,115,115,125,1,stimuli/stim_20210407_power2amp/equal_lnn_AM5.4Hz_61.m4a,,,
,,,,,,,,,,,,40029,2021-05-10_19h36.56.270,judgeSpeechMusic_20210407_logNormShiftAmp,2020.1.2,MacIntel,60,,,,,,,,,,,,,,1,5.726785,,0,0,116,116,149,1,stimuli/stim_20210407_power2amp/equal_lnn_AM6Hz_15.m4a,,,
,,,,,,,,,,,,40029,2021-05-10_19h36.56.270,judgeSpeechMusic_20210407_logNormShiftAmp,2020.1.2,MacIntel,60,,,,,,,,,,,,,,1,5.626075,,0,0,117,117,114,1,stimuli/stim_20210407_power2amp/equal_lnn_AM4.8Hz_45.m4a,,,
,,,,,,,,,,,,40029,2021-05-10_19h36.56.270,judgeSpeechMusic_20210407_logNormShiftAmp,2020.1.2,MacIntel,60,,,,,,,,,,,,,,1,5.62888,,0,0,118,118,69,1,stimuli/stim_20210407_power2amp/equal_lnn_AM3Hz_40.m4a,,,
,,,,,,,,,,,,40029,2021-05-10_19h36.56.270,judgeSpeechMusic_20210407_logNormShiftAmp,2020.1.2,MacIntel,60,,,,,,,,,,,,,,1,6.92647,,0,0,119,119,40,1,stimuli/stim_20210407_power2amp/equal_lnn_AM1.8Hz_11.m4a,,,
,,,,,,,,,,,,40029,2021-05-10_19h36.56.270,judgeSpeechMusic_20210407_logNormShiftAmp,2020.1.2,MacIntel,60,,,,,,,,,,,,,,2,6.01297,,0,0,120,120,120,1,stimuli/stim_20210407_power2amp/equal_lnn_AM5.4Hz_59.m4a,,,
,,,,,,,,,,,,40029,2021-05-10_19h36.56.270,judgeSpeechMusic_20210407_logNormShiftAmp,2020.1.2,MacIntel,60,,,,,,,,,,,,,,1,6.90655,,0,0,121,121,44,1,stimuli/stim_20210407_power2amp/equal_lnn_AM1.8Hz_9.m4a,,,
,,,,,,,,,,,,40029,2021-05-10_19h36.56.270,judgeSpeechMusic_20210407_logNormShiftAmp,2020.1.2,MacIntel,60,,,,,,,,,,,,,,1,6.50301,,0,0,122,122,73,1,stimuli/stim_20210407_power2amp/equal_lnn_AM3Hz_27.m4a,,,
,,,,,,,,,,,,40029,2021-05-10_19h36.56.270,judgeSpeechMusic_20210407_logNormShiftAmp,2020.1.2,MacIntel,60,,,,,,,,,,,,,,1,7.705425,,0,0,123,123,84,1,stimuli/stim_20210407_power2amp/equal_lnn_AM3.6Hz_100.m4a,,,
,,,,,,,,,,,,40029,2021-05-10_19h36.56.270,judgeSpeechMusic_20210407_logNormShiftAmp,2020.1.2,MacIntel,60,,,,,,,,,,,,,,1,9.87553,,0,0,124,124,98,1,stimuli/stim_20210407_power2amp/equal_lnn_AM4.2Hz_34.m4a,,,
,,,,,,,,,,,,40029,2021-05-10_19h36.56.270,judgeSpeechMusic_20210407_logNormShiftAmp,2020.1.2,MacIntel,60,,,,,,,,,,,,,,1,6.840715,2,1,0,125,125,61,1,stimuli/stim_20210407_power2amp/equal_lnn_AM3Hz_18.m4a,1.940515,,
,,,,,,,,,,,,40029,2021-05-10_19h36.56.270,judgeSpeechMusic_20210407_logNormShiftAmp,2020.1.2,MacIntel,60,,,,,,,,,,,,,,2,6.3109,,0,0,126,126,63,1,stimuli/stim_20210407_power2amp/equal_lnn_AM3Hz_5.m4a,,,
,,,,,,,,,,,,40029,2021-05-10_19h36.56.270,judgeSpeechMusic_20210407_logNormShiftAmp,2020.1.2,MacIntel,60,,,,,,,,,,,,,,2,5.94554,,0,0,127,127,80,1,stimuli/stim_20210407_power2amp/equal_lnn_AM3.6Hz_58.m4a,,,
,,,,,,,,,,,,40029,2021-05-10_19h36.56.270,judgeSpeechMusic_20210407_logNormShiftAmp,2020.1.2,MacIntel,60,,,,,,,,,,,,,,2,5.65712,,0,0,128,128,146,1,stimuli/stim_20210407_power2amp/equal_lnn_AM6Hz_45.m4a,,,
,,,,,,,,,,,,40029,2021-05-10_19h36.56.270,judgeSpeechMusic_20210407_logNormShiftAmp,2020.1.2,MacIntel,60,,,,,,,,,,,,,,1,7.20272,,0,0,129,129,141,1,stimuli/stim_20210407_power2amp/equal_lnn_AM6Hz_34.m4a,,,
,,,,,,,,,,,,40029,2021-05-10_19h36.56.270,judgeSpeechMusic_20210407_logNormShiftAmp,2020.1.2,MacIntel,60,,,,,,,,,,,,,,2,5.81175,,0,0,130,130,122,1,stimuli/stim_20210407_power2amp/equal_lnn_AM5.4Hz_19.m4a,,,
,,,,,,,,,,,,40029,2021-05-10_19h36.56.270,judgeSpeechMusic_20210407_logNormShiftAmp,2020.1.2,MacIntel,60,,,,,,,,,,,,,,1,5.809075,,0,0,131,131,106,1,stimuli/stim_20210407_power2amp/equal_lnn_AM4.8Hz_58.m4a,,,
,,,,,,,,,,,,40029,2021-05-10_19h36.56.270,judgeSpeechMusic_20210407_logNormShiftAmp,2020.1.2,MacIntel,60,,,,,,,,,,,,,,2,6.1121,,0,0,132,132,91,1,stimuli/stim_20210407_power2amp/equal_lnn_AM4.2Hz_73.m4a,,,
,,,,,,,,,,,,40029,2021-05-10_19h36.56.270,judgeSpeechMusic_20210407_logNormShiftAmp,2020.1.2,MacIntel,60,,,,,,,,,,,,,,2,6.05959,,0,0,133,133,144,1,stimuli/stim_20210407_power2amp/equal_lnn_AM6Hz_41.m4a,,,
,,,,,,,,,,,,40029,2021-05-10_19h36.56.270,judgeSpeechMusic_20210407_logNormShiftAmp,2020.1.2,MacIntel,60,,,,,,,,,,,,,,1,6.061495,,0,0,134,134,78,1,stimuli/stim_20210407_power2amp/equal_lnn_AM3.6Hz_27.m4a,,,
,,,,,,,,,,,,40029,2021-05-10_19h36.56.270,judgeSpeechMusic_20210407_logNormShiftAmp,2020.1.2,MacIntel,60,,,,,,,,,,,,,,1,6.399685,,0,0,135,135,3,1,stimuli/stim_20210407_power2amp/equal_lnn_AM0.6Hz_22.m4a,,,
,,,,,,,,,,,,40029,2021-05-10_19h36.56.270,judgeSpeechMusic_20210407_logNormShiftAmp,2020.1.2,MacIntel,60,,,,,,,,,,,,,,1,7.09018,,0,0,136,136,97,1,stimuli/stim_20210407_power2amp/equal_lnn_AM4.2Hz_97.m4a,,,
,,,,,,,,,,,,40029,2021-05-10_19h36.56.270,judgeSpeechMusic_20210407_logNormShiftAmp,2020.1.2,MacIntel,60,,,,,,,,,,,,,,2,6.994015,,0,0,137,137,101,1,stimuli/stim_20210407_power2amp/equal_lnn_AM4.2Hz_13.m4a,,,
,,,,,,,,,,,,40029,2021-05-10_19h36.56.270,judgeSpeechMusic_20210407_logNormShiftAmp,2020.1.2,MacIntel,60,,,,,,,,,,,,,,2,5.8396,,0,0,138,138,47,1,stimuli/stim_20210407_power2amp/equal_lnn_AM2.4Hz_14.m4a,,,
,,,,,,,,,,,,40029,2021-05-10_19h36.56.270,judgeSpeechMusic_20210407_logNormShiftAmp,2020.1.2,MacIntel,60,,,,,,,,,,,,,,1,8.45829,,0,0,139,139,16,1,stimuli/stim_20210407_power2amp/equal_lnn_AM1.2Hz_3.m4a,,,
,,,,,,,,,,,,40029,2021-05-10_19h36.56.270,judgeSpeechMusic_20210407_logNormShiftAmp,2020.1.2,MacIntel,60,,,,,,,,,,,,,,1,5.956255,,0,0,140,140,55,1,stimuli/stim_20210407_power2amp/equal_lnn_AM2.4Hz_53.m4a,,,
,,,,,,,,,,,,40029,2021-05-10_19h36.56.270,judgeSpeechMusic_20210407_logNormShiftAmp,2020.1.2,MacIntel,60,,,,,,,,,,,,,,2,6.02329,,0,0,141,141,119,1,stimuli/stim_20210407_power2amp/equal_lnn_AM4.8Hz_49.m4a,,,
,,,,,,,,,,,,40029,2021-05-10_19h36.56.270,judgeSpeechMusic_20210407_logNormShiftAmp,2020.1.2,MacIntel,60,,,,,,,,,,,,,,1,7.645895,,0,0,142,142,128,1,stimuli/stim_20210407_power2amp/equal_lnn_AM5.4Hz_100.m4a,,,
,,,,,,,,,,,,40029,2021-05-10_19h36.56.270,judgeSpeechMusic_20210407_logNormShiftAmp,2020.1.2,MacIntel,60,,,,,,,,,,,,,,1,9.731675,,0,0,143,143,51,1,stimuli/stim_20210407_power2amp/equal_lnn_AM2.4Hz_24.m4a,,,
,,,,,,,,,,,,40029,2021-05-10_19h36.56.270,judgeSpeechMusic_20210407_logNormShiftAmp,2020.1.2,MacIntel,60,,,,,,,,,,,,,,1,7.259705,,0,0,144,144,30,1,stimuli/stim_20210407_power2amp/equal_lnn_AM1.8Hz_24.m4a,,,
,,,,,,,,,,,,40029,2021-05-10_19h36.56.270,judgeSpeechMusic_20210407_logNormShiftAmp,2020.1.2,MacIntel,60,,,,,,,,,,,,,,2,6.27331,,0,0,145,145,103,1,stimuli/stim_20210407_power2amp/equal_lnn_AM4.2Hz_65.m4a,,,
,,,,,,,,,,,,40029,2021-05-10_19h36.56.270,judgeSpeechMusic_20210407_logNormShiftAmp,2020.1.2,MacIntel,60,,,,,,,,,,,,,,1,6.809515,2,1,0,146,146,64,1,stimuli/stim_20210407_power2amp/equal_lnn_AM3Hz_93.m4a,1.824555,,
,,,,,,,,,,,,40029,2021-05-10_19h36.56.270,judgeSpeechMusic_20210407_logNormShiftAmp,2020.1.2,MacIntel,60,,,,,,,,,,,,,,1,6.03777,,0,0,147,147,8,1,stimuli/stim_20210407_power2amp/equal_lnn_AM0.6Hz_34.m4a,,,
,,,,,,,,,,,,40029,2021-05-10_19h36.56.270,judgeSpeechMusic_20210407_logNormShiftAmp,2020.1.2,MacIntel,60,,,,,,,,,,,,,,2,6.096075,,0,0,148,148,135,1,stimuli/stim_20210407_power2amp/equal_lnn_AM6Hz_64.m4a,,,
,,,,,,,,,,,,40029,2021-05-10_19h36.56.270,judgeSpeechMusic_20210407_logNormShiftAmp,2020.1.2,MacIntel,60,,,,,,,,,,,,,,1,5.97192,,0,0,149,149,11,1,stimuli/stim_20210407_power2amp/equal_lnn_AM0.6Hz_45.m4a,,,
,,,,,,,,,,,,40029,2021-05-10_19h36.56.270,judgeSpeechMusic_20210407_logNormShiftAmp,2020.1.2,MacIntel,60,,,,,,,,,,,,,,2,5.825635,,0,1,0,150,122,1,stimuli/stim_20210407_power2amp/equal_lnn_AM5.4Hz_19.m4a,,,
,,,,,,,,,,,,40029,2021-05-10_19h36.56.270,judgeSpeechMusic_20210407_logNormShiftAmp,2020.1.2,MacIntel,60,,,,,,,,,,,,,,1,6.587055,,0,1,1,151,73,1,stimuli/stim_20210407_power2amp/equal_lnn_AM3Hz_27.m4a,,,
,,,,,,,,,,,,40029,2021-05-10_19h36.56.270,judgeSpeechMusic_20210407_logNormShiftAmp,2020.1.2,MacIntel,60,,,,,,,,,,,,,,2,5.77635,,0,1,2,152,109,1,stimuli/stim_20210407_power2amp/equal_lnn_AM4.8Hz_36.m4a,,,
,,,,,,,,,,,,40029,2021-05-10_19h36.56.270,judgeSpeechMusic_20210407_logNormShiftAmp,2020.1.2,MacIntel,60,,,,,,,,,,,,,,2,5.793775,,0,1,3,153,127,1,stimuli/stim_20210407_power2amp/equal_lnn_AM5.4Hz_33.m4a,,,
,,,,,,,,,,,,40029,2021-05-10_19h36.56.270,judgeSpeechMusic_20210407_logNormShiftAmp,2020.1.2,MacIntel,60,,,,,,,,,,,,,,2,6.062565,,0,1,4,154,95,1,stimuli/stim_20210407_power2amp/equal_lnn_AM4.2Hz_54.m4a,,,
,,,,,,,,,,,,40029,2021-05-10_19h36.56.270,judgeSpeechMusic_20210407_logNormShiftAmp,2020.1.2,MacIntel,60,,,,,,,,,,,,,,2,6.02679,,0,1,5,155,56,1,stimuli/stim_20210407_power2amp/equal_lnn_AM2.4Hz_81.m4a,,,
,,,,,,,,,,,,40029,2021-05-10_19h36.56.270,judgeSpeechMusic_20210407_logNormShiftAmp,2020.1.2,MacIntel,60,,,,,,,,,,,,,,2,6.31103,,0,1,6,156,60,1,stimuli/stim_20210407_power2amp/equal_lnn_AM3Hz_8.m4a,,,
,,,,,,,,,,,,40029,2021-05-10_19h36.56.270,judgeSpeechMusic_20210407_logNormShiftAmp,2020.1.2,MacIntel,60,,,,,,,,,,,,,,2,5.765065,,0,1,7,157,99,1,stimuli/stim_20210407_power2amp/equal_lnn_AM4.2Hz_28.m4a,,,
,,,,,,,,,,,,40029,2021-05-10_19h36.56.270,judgeSpeechMusic_20210407_logNormShiftAmp,2020.1.2,MacIntel,60,,,,,,,,,,,,,,2,5.705685,,0,1,8,158,120,1,stimuli/stim_20210407_power2amp/equal_lnn_AM5.4Hz_59.m4a,,,
,,,,,,,,,,,,40029,2021-05-10_19h36.56.270,judgeSpeechMusic_20210407_logNormShiftAmp,2020.1.2,MacIntel,60,,,,,,,,,,,,,,1,7.89836,,0,1,9,159,58,1,stimuli/stim_20210407_power2amp/equal_lnn_AM2.4Hz_78.m4a,,,
,,,,,,,,,,,,40029,2021-05-10_19h36.56.270,judgeSpeechMusic_20210407_logNormShiftAmp,2020.1.2,MacIntel,60,,,,,,,,,,,,,,1,6.04794,,0,1,10,160,30,1,stimuli/stim_20210407_power2amp/equal_lnn_AM1.8Hz_24.m4a,,,
,,,,,,,,,,,,40029,2021-05-10_19h36.56.270,judgeSpeechMusic_20210407_logNormShiftAmp,2020.1.2,MacIntel,60,,,,,,,,,,,,,,1,5.874075,,0,1,11,161,41,1,stimuli/stim_20210407_power2amp/equal_lnn_AM1.8Hz_17.m4a,,,
,,,,,,,,,,,,40029,2021-05-10_19h36.56.270,judgeSpeechMusic_20210407_logNormShiftAmp,2020.1.2,MacIntel,60,,,,,,,,,,,,,,1,6.746625,,0,1,12,162,28,1,stimuli/stim_20210407_power2amp/equal_lnn_AM1.2Hz_49.m4a,,,
,,,,,,,,,,,,40029,2021-05-10_19h36.56.270,judgeSpeechMusic_20210407_logNormShiftAmp,2020.1.2,MacIntel,60,,,,,,,,,,,,,,2,5.98791,,0,1,13,163,133,1,stimuli/stim_20210407_power2amp/equal_lnn_AM5.4Hz_27.m4a,,,
,,,,,,,,,,,,40029,2021-05-10_19h36.56.270,judgeSpeechMusic_20210407_logNormShiftAmp,2020.1.2,MacIntel,60,,,,,,,,,,,,,,2,6.923575,,0,1,14,164,118,1,stimuli/stim_20210407_power2amp/equal_lnn_AM4.8Hz_50.m4a,,,
,,,,,,,,,,,,40029,2021-05-10_19h36.56.270,judgeSpeechMusic_20210407_logNormShiftAmp,2020.1.2,MacIntel,60,,,,,,,,,,,,,,2,5.7232,,0,1,15,165,128,1,stimuli/stim_20210407_power2amp/equal_lnn_AM5.4Hz_100.m4a,,,
,,,,,,,,,,,,40029,2021-05-10_19h36.56.270,judgeSpeechMusic_20210407_logNormShiftAmp,2020.1.2,MacIntel,60,,,,,,,,,,,,,,1,6.07638,1,1,1,16,166,8,1,stimuli/stim_20210407_power2amp/equal_lnn_AM0.6Hz_34.m4a,1.50837,,
,,,,,,,,,,,,40029,2021-05-10_19h36.56.270,judgeSpeechMusic_20210407_logNormShiftAmp,2020.1.2,MacIntel,60,,,,,,,,,,,,,,1,5.65783,,0,1,17,167,32,1,stimuli/stim_20210407_power2amp/equal_lnn_AM1.8Hz_30.m4a,,,
,,,,,,,,,,,,40029,2021-05-10_19h36.56.270,judgeSpeechMusic_20210407_logNormShiftAmp,2020.1.2,MacIntel,60,,,,,,,,,,,,,,1,5.692805,,0,1,18,168,86,1,stimuli/stim_20210407_power2amp/equal_lnn_AM3.6Hz_86.m4a,,,
,,,,,,,,,,,,40029,2021-05-10_19h36.56.270,judgeSpeechMusic_20210407_logNormShiftAmp,2020.1.2,MacIntel,60,,,,,,,,,,,,,,1,5.660805,,0,1,19,169,22,1,stimuli/stim_20210407_power2amp/equal_lnn_AM1.2Hz_60.m4a,,,
,,,,,,,,,,,,40029,2021-05-10_19h36.56.270,judgeSpeechMusic_20210407_logNormShiftAmp,2020.1.2,MacIntel,60,,,,,,,,,,,,,,1,5.86168,,0,1,20,170,35,1,stimuli/stim_20210407_power2amp/equal_lnn_AM1.8Hz_88.m4a,,,
,,,,,,,,,,,,40029,2021-05-10_19h36.56.270,judgeSpeechMusic_20210407_logNormShiftAmp,2020.1.2,MacIntel,60,,,,,,,,,,,,,,1,5.745485,,0,1,21,171,69,1,stimuli/stim_20210407_power2amp/equal_lnn_AM3Hz_40.m4a,,,
,,,,,,,,,,,,40029,2021-05-10_19h36.56.270,judgeSpeechMusic_20210407_logNormShiftAmp,2020.1.2,MacIntel,60,,,,,,,,,,,,,,2,5.70706,,0,1,22,172,148,1,stimuli/stim_20210407_power2amp/equal_lnn_AM6Hz_54.m4a,,,
,,,,,,,,,,,,40029,2021-05-10_19h36.56.270,judgeSpeechMusic_20210407_logNormShiftAmp,2020.1.2,MacIntel,60,,,,,,,,,,,,,,1,6.029495,,0,1,23,173,142,1,stimuli/stim_20210407_power2amp/equal_lnn_AM6Hz_40.m4a,,,
,,,,,,,,,,,,40029,2021-05-10_19h36.56.270,judgeSpeechMusic_20210407_logNormShiftAmp,2020.1.2,MacIntel,60,,,,,,,,,,,,,,1,6.22363,,0,1,24,174,25,1,stimuli/stim_20210407_power2amp/equal_lnn_AM1.2Hz_53.m4a,,,
,,,,,,,,,,,,40029,2021-05-10_19h36.56.270,judgeSpeechMusic_20210407_logNormShiftAmp,2020.1.2,MacIntel,60,,,,,,,,,,,,,,1,7.547935,,0,1,25,175,80,1,stimuli/stim_20210407_power2amp/equal_lnn_AM3.6Hz_58.m4a,,,
,,,,,,,,,,,,40029,2021-05-10_19h36.56.270,judgeSpeechMusic_20210407_logNormShiftAmp,2020.1.2,MacIntel,60,,,,,,,,,,,,,,1,6.54065,,0,1,26,176,88,1,stimuli/stim_20210407_power2amp/equal_lnn_AM3.6Hz_72.m4a,,,
,,,,,,,,,,,,40029,2021-05-10_19h36.56.270,judgeSpeechMusic_20210407_logNormShiftAmp,2020.1.2,MacIntel,60,,,,,,,,,,,,,,2,6.091835,,0,1,27,177,71,1,stimuli/stim_20210407_power2amp/equal_lnn_AM3Hz_55.m4a,,,
,,,,,,,,,,,,40029,2021-05-10_19h36.56.270,judgeSpeechMusic_20210407_logNormShiftAmp,2020.1.2,MacIntel,60,,,,,,,,,,,,,,1,6.089125,,0,1,28,178,20,1,stimuli/stim_20210407_power2amp/equal_lnn_AM1.2Hz_22.m4a,,,
,,,,,,,,,,,,40029,2021-05-10_19h36.56.270,judgeSpeechMusic_20210407_logNormShiftAmp,2020.1.2,MacIntel,60,,,,,,,,,,,,,,1,5.778295,,0,1,29,179,31,1,stimuli/stim_20210407_power2amp/equal_lnn_AM1.8Hz_1.m4a,,,
,,,,,,,,,,,,40029,2021-05-10_19h36.56.270,judgeSpeechMusic_20210407_logNormShiftAmp,2020.1.2,MacIntel,60,,,,,,,,,,,,,,1,7.65685,,0,1,30,180,149,1,stimuli/stim_20210407_power2amp/equal_lnn_AM6Hz_15.m4a,,,
,,,,,,,,,,,,40029,2021-05-10_19h36.56.270,judgeSpeechMusic_20210407_logNormShiftAmp,2020.1.2,MacIntel,60,,,,,,,,,,,,,,1,7.626775,,0,1,31,181,79,1,stimuli/stim_20210407_power2amp/equal_lnn_AM3.6Hz_22.m4a,,,
,,,,,,,,,,,,40029,2021-05-10_19h36.56.270,judgeSpeechMusic_20210407_logNormShiftAmp,2020.1.2,MacIntel,60,,,,,,,,,,,,,,1,6.69156,,0,1,32,182,64,1,stimuli/stim_20210407_power2amp/equal_lnn_AM3Hz_93.m4a,,,
,,,,,,,,,,,,40029,2021-05-10_19h36.56.270,judgeSpeechMusic_20210407_logNormShiftAmp,2020.1.2,MacIntel,60,,,,,,,,,,,,,,1,6.024085,,0,1,33,183,5,1,stimuli/stim_20210407_power2amp/equal_lnn_AM0.6Hz_8.m4a,,,
,,,,,,,,,,,,40029,2021-05-10_19h36.56.270,judgeSpeechMusic_20210407_logNormShiftAmp,2020.1.2,MacIntel,60,,,,,,,,,,,,,,2,8.26333,,0,1,34,184,107,1,stimuli/stim_20210407_power2amp/equal_lnn_AM4.8Hz_91.m4a,,,
,,,,,,,,,,,,40029,2021-05-10_19h36.56.270,judgeSpeechMusic_20210407_logNormShiftAmp,2020.1.2,MacIntel,60,,,,,,,,,,,,,,1,7.929085,,0,1,35,185,19,1,stimuli/stim_20210407_power2amp/equal_lnn_AM1.2Hz_84.m4a,,,
,,,,,,,,,,,,40029,2021-05-10_19h36.56.270,judgeSpeechMusic_20210407_logNormShiftAmp,2020.1.2,MacIntel,60,,,,,,,,,,,,,,1,7.04213,,0,1,36,186,100,1,stimuli/stim_20210407_power2amp/equal_lnn_AM4.2Hz_27.m4a,,,
,,,,,,,,,,,,40029,2021-05-10_19h36.56.270,judgeSpeechMusic_20210407_logNormShiftAmp,2020.1.2,MacIntel,60,,,,,,,,,,,,,,2,5.912065,,0,1,37,187,115,1,stimuli/stim_20210407_power2amp/equal_lnn_AM4.8Hz_64.m4a,,,
,,,,,,,,,,,,40029,2021-05-10_19h36.56.270,judgeSpeechMusic_20210407_logNormShiftAmp,2020.1.2,MacIntel,60,,,,,,,,,,,,,,1,7.5439,,0,1,38,188,12,1,stimuli/stim_20210407_power2amp/equal_lnn_AM0.6Hz_88.m4a,,,
,,,,,,,,,,,,40029,2021-05-10_19h36.56.270,judgeSpeechMusic_20210407_logNormShiftAmp,2020.1.2,MacIntel,60,,,,,,,,,,,,,,1,7.611905,,0,1,39,189,21,1,stimuli/stim_20210407_power2amp/equal_lnn_AM1.2Hz_39.m4a,,,
,,,,,,,,,,,,40029,2021-05-10_19h36.56.270,judgeSpeechMusic_20210407_logNormShiftAmp,2020.1.2,MacIntel,60,,,,,,,,,,,,,,2,6.178415,,0,1,40,190,135,1,stimuli/stim_20210407_power2amp/equal_lnn_AM6Hz_64.m4a,,,
,,,,,,,,,,,,40029,2021-05-10_19h36.56.270,judgeSpeechMusic_20210407_logNormShiftAmp,2020.1.2,MacIntel,60,,,,,,,,,,,,,,2,7.532235,3,1,1,41,191,81,1,stimuli/stim_20210407_power2amp/equal_lnn_AM3.6Hz_69.m4a,3.314145,,
,,,,,,,,,,,,40029,2021-05-10_19h36.56.270,judgeSpeechMusic_20210407_logNormShiftAmp,2020.1.2,MacIntel,60,,,,,,,,,,,,,,1,5.94412,,0,1,42,192,84,1,stimuli/stim_20210407_power2amp/equal_lnn_AM3.6Hz_100.m4a,,,
,,,,,,,,,,,,40029,2021-05-10_19h36.56.270,judgeSpeechMusic_20210407_logNormShiftAmp,2020.1.2,MacIntel,60,,,,,,,,,,,,,,1,6.744875,,0,1,43,193,48,1,stimuli/stim_20210407_power2amp/equal_lnn_AM2.4Hz_20.m4a,,,
,,,,,,,,,,,,40029,2021-05-10_19h36.56.270,judgeSpeechMusic_20210407_logNormShiftAmp,2020.1.2,MacIntel,60,,,,,,,,,,,,,,1,6.81111,,0,1,44,194,33,1,stimuli/stim_20210407_power2amp/equal_lnn_AM1.8Hz_74.m4a,,,
,,,,,,,,,,,,40029,2021-05-10_19h36.56.270,judgeSpeechMusic_20210407_logNormShiftAmp,2020.1.2,MacIntel,60,,,,,,,,,,,,,,2,6.44324,,0,1,45,195,146,1,stimuli/stim_20210407_power2amp/equal_lnn_AM6Hz_45.m4a,,,
,,,,,,,,,,,,40029,2021-05-10_19h36.56.270,judgeSpeechMusic_20210407_logNormShiftAmp,2020.1.2,MacIntel,60,,,,,,,,,,,,,,1,8.313325,,0,1,46,196,74,1,stimuli/stim_20210407_power2amp/equal_lnn_AM3Hz_2.m4a,,,
,,,,,,,,,,,,40029,2021-05-10_19h36.56.270,judgeSpeechMusic_20210407_logNormShiftAmp,2020.1.2,MacIntel,60,,,,,,,,,,,,,,2,6.179345,,0,1,47,197,132,1,stimuli/stim_20210407_power2amp/equal_lnn_AM5.4Hz_94.m4a,,,
,,,,,,,,,,,,40029,2021-05-10_19h36.56.270,judgeSpeechMusic_20210407_logNormShiftAmp,2020.1.2,MacIntel,60,,,,,,,,,,,,,,1,9.271835,,0,1,48,198,85,1,stimuli/stim_20210407_power2amp/equal_lnn_AM3.6Hz_95.m4a,,,
,,,,,,,,,,,,40029,2021-05-10_19h36.56.270,judgeSpeechMusic_20210407_logNormShiftAmp,2020.1.2,MacIntel,60,,,,,,,,,,,,,,2,6.454805,,0,1,49,199,65,1,stimuli/stim_20210407_power2amp/equal_lnn_AM3Hz_24.m4a,,,
,,,,,,,,,,,,40029,2021-05-10_19h36.56.270,judgeSpeechMusic_20210407_logNormShiftAmp,2020.1.2,MacIntel,60,,,,,,,,,,,,,,2,6.280395,,0,1,50,200,117,1,stimuli/stim_20210407_power2amp/equal_lnn_AM4.8Hz_17.m4a,,,
,,,,,,,,,,,,40029,2021-05-10_19h36.56.270,judgeSpeechMusic_20210407_logNormShiftAmp,2020.1.2,MacIntel,60,,,,,,,,,,,,,,1,7.19693,,0,1,51,201,137,1,stimuli/stim_20210407_power2amp/equal_lnn_AM6Hz_59.m4a,,,
,,,,,,,,,,,,40029,2021-05-10_19h36.56.270,judgeSpeechMusic_20210407_logNormShiftAmp,2020.1.2,MacIntel,60,,,,,,,,,,,,,,1,6.05815,,0,1,52,202,26,1,stimuli/stim_20210407_power2amp/equal_lnn_AM1.2Hz_95.m4a,,,
,,,,,,,,,,,,40029,2021-05-10_19h36.56.270,judgeSpeechMusic_20210407_logNormShiftAmp,2020.1.2,MacIntel,60,,,,,,,,,,,,,,1,6.22549,,0,1,53,203,17,1,stimuli/stim_20210407_power2amp/equal_lnn_AM1.2Hz_75.m4a,,,
,,,,,,,,,,,,40029,2021-05-10_19h36.56.270,judgeSpeechMusic_20210407_logNormShiftAmp,2020.1.2,MacIntel,60,,,,,,,,,,,,,,1,6.198055,,0,1,54,204,70,1,stimuli/stim_20210407_power2amp/equal_lnn_AM3Hz_66.m4a,,,
,,,,,,,,,,,,40029,2021-05-10_19h36.56.270,judgeSpeechMusic_20210407_logNormShiftAmp,2020.1.2,MacIntel,60,,,,,,,,,,,,,,1,6.053405,,0,1,55,205,83,1,stimuli/stim_20210407_power2amp/equal_lnn_AM3.6Hz_83.m4a,,,
,,,,,,,,,,,,40029,2021-05-10_19h36.56.270,judgeSpeechMusic_20210407_logNormShiftAmp,2020.1.2,MacIntel,60,,,,,,,,,,,,,,2,7.39614,,0,1,56,206,145,1,stimuli/stim_20210407_power2amp/equal_lnn_AM6Hz_84.m4a,,,
,,,,,,,,,,,,40029,2021-05-10_19h36.56.270,judgeSpeechMusic_20210407_logNormShiftAmp,2020.1.2,MacIntel,60,,,,,,,,,,,,,,2,6.578705,,0,1,57,207,108,1,stimuli/stim_20210407_power2amp/equal_lnn_AM4.8Hz_96.m4a,,,
,,,,,,,,,,,,40029,2021-05-10_19h36.56.270,judgeSpeechMusic_20210407_logNormShiftAmp,2020.1.2,MacIntel,60,,,,,,,,,,,,,,2,5.80782,,0,1,58,208,119,1,stimuli/stim_20210407_power2amp/equal_lnn_AM4.8Hz_49.m4a,,,
,,,,,,,,,,,,40029,2021-05-10_19h36.56.270,judgeSpeechMusic_20210407_logNormShiftAmp,2020.1.2,MacIntel,60,,,,,,,,,,,,,,1,5.68507,,0,1,59,209,78,1,stimuli/stim_20210407_power2amp/equal_lnn_AM3.6Hz_27.m4a,,,
,,,,,,,,,,,,40029,2021-05-10_19h36.56.270,judgeSpeechMusic_20210407_logNormShiftAmp,2020.1.2,MacIntel,60,,,,,,,,,,,,,,1,6.67843,,0,1,60,210,96,1,stimuli/stim_20210407_power2amp/equal_lnn_AM4.2Hz_17.m4a,,,
,,,,,,,,,,,,40029,2021-05-10_19h36.56.270,judgeSpeechMusic_20210407_logNormShiftAmp,2020.1.2,MacIntel,60,,,,,,,,,,,,,,1,5.714495,,0,1,61,211,55,1,stimuli/stim_20210407_power2amp/equal_lnn_AM2.4Hz_53.m4a,,,
,,,,,,,,,,,,40029,2021-05-10_19h36.56.270,judgeSpeechMusic_20210407_logNormShiftAmp,2020.1.2,MacIntel,60,,,,,,,,,,,,,,2,5.673695,,0,1,62,212,134,1,stimuli/stim_20210407_power2amp/equal_lnn_AM5.4Hz_90.m4a,,,
,,,,,,,,,,,,40029,2021-05-10_19h36.56.270,judgeSpeechMusic_20210407_logNormShiftAmp,2020.1.2,MacIntel,60,,,,,,,,,,,,,,2,5.66221,,0,1,63,213,102,1,stimuli/stim_20210407_power2amp/equal_lnn_AM4.2Hz_69.m4a,,,
,,,,,,,,,,,,40029,2021-05-10_19h36.56.270,judgeSpeechMusic_20210407_logNormShiftAmp,2020.1.2,MacIntel,60,,,,,,,,,,,,,,1,6.14535,2,1,1,64,214,39,1,stimuli/stim_20210407_power2amp/equal_lnn_AM1.8Hz_59.m4a,2.06353,,
,,,,,,,,,,,,40029,2021-05-10_19h36.56.270,judgeSpeechMusic_20210407_logNormShiftAmp,2020.1.2,MacIntel,60,,,,,,,,,,,,,,2,8.29081,,0,1,65,215,121,1,stimuli/stim_20210407_power2amp/equal_lnn_AM5.4Hz_75.m4a,,,
,,,,,,,,,,,,40029,2021-05-10_19h36.56.270,judgeSpeechMusic_20210407_logNormShiftAmp,2020.1.2,MacIntel,60,,,,,,,,,,,,,,1,5.651675,,0,1,66,216,75,1,stimuli/stim_20210407_power2amp/equal_lnn_AM3.6Hz_57.m4a,,,
,,,,,,,,,,,,40029,2021-05-10_19h36.56.270,judgeSpeechMusic_20210407_logNormShiftAmp,2020.1.2,MacIntel,60,,,,,,,,,,,,,,1,5.678155,,0,1,67,217,38,1,stimuli/stim_20210407_power2amp/equal_lnn_AM1.8Hz_12.m4a,,,
,,,,,,,,,,,,40029,2021-05-10_19h36.56.270,judgeSpeechMusic_20210407_logNormShiftAmp,2020.1.2,MacIntel,60,,,,,,,,,,,,,,2,5.708975,,0,1,68,218,138,1,stimuli/stim_20210407_power2amp/equal_lnn_AM6Hz_50.m4a,,,
,,,,,,,,,,,,40029,2021-05-10_19h36.56.270,judgeSpeechMusic_20210407_logNormShiftAmp,2020.1.2,MacIntel,60,,,,,,,,,,,,,,1,6.189185,,0,1,69,219,15,1,stimuli/stim_20210407_power2amp/equal_lnn_AM1.2Hz_24.m4a,,,
,,,,,,,,,,,,40029,2021-05-10_19h36.56.270,judgeSpeechMusic_20210407_logNormShiftAmp,2020.1.2,MacIntel,60,,,,,,,,,,,,,,1,6.02564,,0,1,70,220,1,1,stimuli/stim_20210407_power2amp/equal_lnn_AM0.6Hz_23.m4a,,,
,,,,,,,,,,,,40029,2021-05-10_19h36.56.270,judgeSpeechMusic_20210407_logNormShiftAmp,2020.1.2,MacIntel,60,,,,,,,,,,,,,,2,6.39527,,0,1,71,221,92,1,stimuli/stim_20210407_power2amp/equal_lnn_AM4.2Hz_35.m4a,,,
,,,,,,,,,,,,40029,2021-05-10_19h36.56.270,judgeSpeechMusic_20210407_logNormShiftAmp,2020.1.2,MacIntel,60,,,,,,,,,,,,,,1,5.939725,,0,1,72,222,27,1,stimuli/stim_20210407_power2amp/equal_lnn_AM1.2Hz_64.m4a,,,
,,,,,,,,,,,,40029,2021-05-10_19h36.56.270,judgeSpeechMusic_20210407_logNormShiftAmp,2020.1.2,MacIntel,60,,,,,,,,,,,,,,1,6.99498,,0,1,73,223,111,1,stimuli/stim_20210407_power2amp/equal_lnn_AM4.8Hz_22.m4a,,,
,,,,,,,,,,,,40029,2021-05-10_19h36.56.270,judgeSpeechMusic_20210407_logNormShiftAmp,2020.1.2,MacIntel,60,,,,,,,,,,,,,,1,6.02199,,0,1,74,224,40,1,stimuli/stim_20210407_power2amp/equal_lnn_AM1.8Hz_11.m4a,,,
,,,,,,,,,,,,40029,2021-05-10_19h36.56.270,judgeSpeechMusic_20210407_logNormShiftAmp,2020.1.2,MacIntel,60,,,,,,,,,,,,,,1,6.41347,,0,1,75,225,34,1,stimuli/stim_20210407_power2amp/equal_lnn_AM1.8Hz_76.m4a,,,
,,,,,,,,,,,,40029,2021-05-10_19h36.56.270,judgeSpeechMusic_20210407_logNormShiftAmp,2020.1.2,MacIntel,60,,,,,,,,,,,,,,1,6.7023,,0,1,76,226,67,1,stimuli/stim_20210407_power2amp/equal_lnn_AM3Hz_68.m4a,,,
,,,,,,,,,,,,40029,2021-05-10_19h36.56.270,judgeSpeechMusic_20210407_logNormShiftAmp,2020.1.2,MacIntel,60,,,,,,,,,,,,,,1,6.69689,,0,1,77,227,63,1,stimuli/stim_20210407_power2amp/equal_lnn_AM3Hz_5.m4a,,,
,,,,,,,,,,,,40029,2021-05-10_19h36.56.270,judgeSpeechMusic_20210407_logNormShiftAmp,2020.1.2,MacIntel,60,,,,,,,,,,,,,,1,6.693995,,0,1,78,228,47,1,stimuli/stim_20210407_power2amp/equal_lnn_AM2.4Hz_14.m4a,,,
,,,,,,,,,,,,40029,2021-05-10_19h36.56.270,judgeSpeechMusic_20210407_logNormShiftAmp,2020.1.2,MacIntel,60,,,,,,,,,,,,,,2,6.24243,,0,1,79,229,129,1,stimuli/stim_20210407_power2amp/equal_lnn_AM5.4Hz_82.m4a,,,
,,,,,,,,,,,,40029,2021-05-10_19h36.56.270,judgeSpeechMusic_20210407_logNormShiftAmp,2020.1.2,MacIntel,60,,,,,,,,,,,,,,1,6.026305,,0,1,80,230,24,1,stimuli/stim_20210407_power2amp/equal_lnn_AM1.2Hz_6.m4a,,,
,,,,,,,,,,,,40029,2021-05-10_19h36.56.270,judgeSpeechMusic_20210407_logNormShiftAmp,2020.1.2,MacIntel,60,,,,,,,,,,,,,,1,5.76202,,0,1,81,231,51,1,stimuli/stim_20210407_power2amp/equal_lnn_AM2.4Hz_24.m4a,,,
,,,,,,,,,,,,40029,2021-05-10_19h36.56.270,judgeSpeechMusic_20210407_logNormShiftAmp,2020.1.2,MacIntel,60,,,,,,,,,,,,,,1,6.00899,,0,1,82,232,36,1,stimuli/stim_20210407_power2amp/equal_lnn_AM1.8Hz_91.m4a,,,
,,,,,,,,,,,,40029,2021-05-10_19h36.56.270,judgeSpeechMusic_20210407_logNormShiftAmp,2020.1.2,MacIntel,60,,,,,,,,,,,,,,1,6.82163,,0,1,83,233,4,1,stimuli/stim_20210407_power2amp/equal_lnn_AM0.6Hz_99.m4a,,,
,,,,,,,,,,,,40029,2021-05-10_19h36.56.270,judgeSpeechMusic_20210407_logNormShiftAmp,2020.1.2,MacIntel,60,,,,,,,,,,,,,,1,5.70864,,0,1,84,234,10,1,stimuli/stim_20210407_power2amp/equal_lnn_AM0.6Hz_55.m4a,,,
,,,,,,,,,,,,40029,2021-05-10_19h36.56.270,judgeSpeechMusic_20210407_logNormShiftAmp,2020.1.2,MacIntel,60,,,,,,,,,,,,,,2,5.927025,2,1,1,85,235,139,1,stimuli/stim_20210407_power2amp/equal_lnn_AM6Hz_4.m4a,1.408245,,
,,,,,,,,,,,,40029,2021-05-10_19h36.56.270,judgeSpeechMusic_20210407_logNormShiftAmp,2020.1.2,MacIntel,60,,,,,,,,,,,,,,2,5.989,,0,1,86,236,144,1,stimuli/stim_20210407_power2amp/equal_lnn_AM6Hz_41.m4a,,,
,,,,,,,,,,,,40029,2021-05-10_19h36.56.270,judgeSpeechMusic_20210407_logNormShiftAmp,2020.1.2,MacIntel,60,,,,,,,,,,,,,,2,11.22268,,0,1,87,237,140,1,stimuli/stim_20210407_power2amp/equal_lnn_AM6Hz_16.m4a,,,
,,,,,,,,,,,,40029,2021-05-10_19h36.56.270,judgeSpeechMusic_20210407_logNormShiftAmp,2020.1.2,MacIntel,60,,,,,,,,,,,,,,1,5.912265,,0,1,88,238,54,1,stimuli/stim_20210407_power2amp/equal_lnn_AM2.4Hz_38.m4a,,,
,,,,,,,,,,,,40029,2021-05-10_19h36.56.270,judgeSpeechMusic_20210407_logNormShiftAmp,2020.1.2,MacIntel,60,,,,,,,,,,,,,,1,6.144095,,0,1,89,239,87,1,stimuli/stim_20210407_power2amp/equal_lnn_AM3.6Hz_90.m4a,,,
,,,,,,,,,,,,40029,2021-05-10_19h36.56.270,judgeSpeechMusic_20210407_logNormShiftAmp,2020.1.2,MacIntel,60,,,,,,,,,,,,,,1,6.49921,,0,1,90,240,112,1,stimuli/stim_20210407_power2amp/equal_lnn_AM4.8Hz_82.m4a,,,
,,,,,,,,,,,,40029,2021-05-10_19h36.56.270,judgeSpeechMusic_20210407_logNormShiftAmp,2020.1.2,MacIntel,60,,,,,,,,,,,,,,1,5.737365,,0,1,91,241,7,1,stimuli/stim_20210407_power2amp/equal_lnn_AM0.6Hz_85.m4a,,,
,,,,,,,,,,,,40029,2021-05-10_19h36.56.270,judgeSpeechMusic_20210407_logNormShiftAmp,2020.1.2,MacIntel,60,,,,,,,,,,,,,,2,5.974815,,0,1,92,242,101,1,stimuli/stim_20210407_power2amp/equal_lnn_AM4.2Hz_13.m4a,,,
,,,,,,,,,,,,40029,2021-05-10_19h36.56.270,judgeSpeechMusic_20210407_logNormShiftAmp,2020.1.2,MacIntel,60,,,,,,,,,,,,,,2,5.627405,,0,1,93,243,93,1,stimuli/stim_20210407_power2amp/equal_lnn_AM4.2Hz_47.m4a,,,
,,,,,,,,,,,,40029,2021-05-10_19h36.56.270,judgeSpeechMusic_20210407_logNormShiftAmp,2020.1.2,MacIntel,60,,,,,,,,,,,,,,1,8.37029,,0,1,94,244,76,1,stimuli/stim_20210407_power2amp/equal_lnn_AM3.6Hz_5.m4a,,,
,,,,,,,,,,,,40029,2021-05-10_19h36.56.270,judgeSpeechMusic_20210407_logNormShiftAmp,2020.1.2,MacIntel,60,,,,,,,,,,,,,,1,6.263455,,0,1,95,245,57,1,stimuli/stim_20210407_power2amp/equal_lnn_AM2.4Hz_62.m4a,,,
,,,,,,,,,,,,40029,2021-05-10_19h36.56.270,judgeSpeechMusic_20210407_logNormShiftAmp,2020.1.2,MacIntel,60,,,,,,,,,,,,,,2,7.696295,,0,1,96,246,62,1,stimuli/stim_20210407_power2amp/equal_lnn_AM3Hz_57.m4a,,,
,,,,,,,,,,,,40029,2021-05-10_19h36.56.270,judgeSpeechMusic_20210407_logNormShiftAmp,2020.1.2,MacIntel,60,,,,,,,,,,,,,,2,5.754355,,0,1,97,247,147,1,stimuli/stim_20210407_power2amp/equal_lnn_AM6Hz_99.m4a,,,
,,,,,,,,,,,,40029,2021-05-10_19h36.56.270,judgeSpeechMusic_20210407_logNormShiftAmp,2020.1.2,MacIntel,60,,,,,,,,,,,,,,2,6.86373,,0,1,98,248,90,1,stimuli/stim_20210407_power2amp/equal_lnn_AM4.2Hz_2.m4a,,,
,,,,,,,,,,,,40029,2021-05-10_19h36.56.270,judgeSpeechMusic_20210407_logNormShiftAmp,2020.1.2,MacIntel,60,,,,,,,,,,,,,,1,7.90742,,0,1,99,249,6,1,stimuli/stim_20210407_power2amp/equal_lnn_AM0.6Hz_31.m4a,,,
,,,,,,,,,,,,40029,2021-05-10_19h36.56.270,judgeSpeechMusic_20210407_logNormShiftAmp,2020.1.2,MacIntel,60,,,,,,,,,,,,,,2,19.025595,,0,1,100,250,23,1,stimuli/stim_20210407_power2amp/equal_lnn_AM1.2Hz_34.m4a,,,
,,,,,,,,,,,,40029,2021-05-10_19h36.56.270,judgeSpeechMusic_20210407_logNormShiftAmp,2020.1.2,MacIntel,60,,,,,,,,,,,,,,2,6.103665,,0,1,101,251,130,1,stimuli/stim_20210407_power2amp/equal_lnn_AM5.4Hz_54.m4a,,,
,,,,,,,,,,,,40029,2021-05-10_19h36.56.270,judgeSpeechMusic_20210407_logNormShiftAmp,2020.1.2,MacIntel,60,,,,,,,,,,,,,,2,5.95642,,0,1,102,252,131,1,stimuli/stim_20210407_power2amp/equal_lnn_AM5.4Hz_24.m4a,,,
,,,,,,,,,,,,40029,2021-05-10_19h36.56.270,judgeSpeechMusic_20210407_logNormShiftAmp,2020.1.2,MacIntel,60,,,,,,,,,,,,,,1,6.013425,,0,1,103,253,16,1,stimuli/stim_20210407_power2amp/equal_lnn_AM1.2Hz_3.m4a,,,
,,,,,,,,,,,,40029,2021-05-10_19h36.56.270,judgeSpeechMusic_20210407_logNormShiftAmp,2020.1.2,MacIntel,60,,,,,,,,,,,,,,1,6.046255,,0,1,104,254,136,1,stimuli/stim_20210407_power2amp/equal_lnn_AM6Hz_28.m4a,,,
,,,,,,,,,,,,40029,2021-05-10_19h36.56.270,judgeSpeechMusic_20210407_logNormShiftAmp,2020.1.2,MacIntel,60,,,,,,,,,,,,,,2,5.941845,,0,1,105,255,68,1,stimuli/stim_20210407_power2amp/equal_lnn_AM3Hz_21.m4a,,,
,,,,,,,,,,,,40029,2021-05-10_19h36.56.270,judgeSpeechMusic_20210407_logNormShiftAmp,2020.1.2,MacIntel,60,,,,,,,,,,,,,,1,34.069735,,0,1,106,256,97,1,stimuli/stim_20210407_power2amp/equal_lnn_AM4.2Hz_97.m4a,,,
,,,,,,,,,,,,40029,2021-05-10_19h36.56.270,judgeSpeechMusic_20210407_logNormShiftAmp,2020.1.2,MacIntel,60,,,,,,,,,,,,,,2,22.49118,4,1,1,107,257,126,1,stimuli/stim_20210407_power2amp/equal_lnn_AM5.4Hz_9.m4a,4.37907,,
,,,,,,,,,,,,40029,2021-05-10_19h36.56.270,judgeSpeechMusic_20210407_logNormShiftAmp,2020.1.2,MacIntel,60,,,,,,,,,,,,,,2,6.12961,,0,1,108,258,82,1,stimuli/stim_20210407_power2amp/equal_lnn_AM3.6Hz_85.m4a,,,
,,,,,,,,,,,,40029,2021-05-10_19h36.56.270,judgeSpeechMusic_20210407_logNormShiftAmp,2020.1.2,MacIntel,60,,,,,,,,,,,,,,1,6.28004,,0,1,109,259,9,1,stimuli/stim_20210407_power2amp/equal_lnn_AM0.6Hz_84.m4a,,,
,,,,,,,,,,,,40029,2021-05-10_19h36.56.270,judgeSpeechMusic_20210407_logNormShiftAmp,2020.1.2,MacIntel,60,,,,,,,,,,,,,,2,6.272395,,0,1,110,260,110,1,stimuli/stim_20210407_power2amp/equal_lnn_AM4.8Hz_86.m4a,,,
,,,,,,,,,,,,40029,2021-05-10_19h36.56.270,judgeSpeechMusic_20210407_logNormShiftAmp,2020.1.2,MacIntel,60,,,,,,,,,,,,,,1,6.36008,,0,1,111,261,66,1,stimuli/stim_20210407_power2amp/equal_lnn_AM3Hz_34.m4a,,,
,,,,,,,,,,,,40029,2021-05-10_19h36.56.270,judgeSpeechMusic_20210407_logNormShiftAmp,2020.1.2,MacIntel,60,,,,,,,,,,,,,,1,5.794695,,0,1,112,262,2,1,stimuli/stim_20210407_power2amp/equal_lnn_AM0.6Hz_38.m4a,,,
,,,,,,,,,,,,40029,2021-05-10_19h36.56.270,judgeSpeechMusic_20210407_logNormShiftAmp,2020.1.2,MacIntel,60,,,,,,,,,,,,,,1,5.8282,,0,1,113,263,50,1,stimuli/stim_20210407_power2amp/equal_lnn_AM2.4Hz_2.m4a,,,
,,,,,,,,,,,,40029,2021-05-10_19h36.56.270,judgeSpeechMusic_20210407_logNormShiftAmp,2020.1.2,MacIntel,60,,,,,,,,,,,,,,1,5.88753,,0,1,114,264,113,1,stimuli/stim_20210407_power2amp/equal_lnn_AM4.8Hz_77.m4a,,,
,,,,,,,,,,,,40029,2021-05-10_19h36.56.270,judgeSpeechMusic_20210407_logNormShiftAmp,2020.1.2,MacIntel,60,,,,,,,,,,,,,,1,5.82506,,0,1,115,265,94,1,stimuli/stim_20210407_power2amp/equal_lnn_AM4.2Hz_59.m4a,,,
,,,,,,,,,,,,40029,2021-05-10_19h36.56.270,judgeSpeechMusic_20210407_logNormShiftAmp,2020.1.2,MacIntel,60,,,,,,,,,,,,,,1,8.1549,,0,1,116,266,98,1,stimuli/stim_20210407_power2amp/equal_lnn_AM4.2Hz_34.m4a,,,
,,,,,,,,,,,,40029,2021-05-10_19h36.56.270,judgeSpeechMusic_20210407_logNormShiftAmp,2020.1.2,MacIntel,60,,,,,,,,,,,,,,2,6.27713,,0,1,117,267,114,1,stimuli/stim_20210407_power2amp/equal_lnn_AM4.8Hz_45.m4a,,,
,,,,,,,,,,,,40029,2021-05-10_19h36.56.270,judgeSpeechMusic_20210407_logNormShiftAmp,2020.1.2,MacIntel,60,,,,,,,,,,,,,,2,6.258435,,0,1,118,268,106,1,stimuli/stim_20210407_power2amp/equal_lnn_AM4.8Hz_58.m4a,,,
,,,,,,,,,,,,40029,2021-05-10_19h36.56.270,judgeSpeechMusic_20210407_logNormShiftAmp,2020.1.2,MacIntel,60,,,,,,,,,,,,,,1,6.10873,,0,1,119,269,42,1,stimuli/stim_20210407_power2amp/equal_lnn_AM1.8Hz_78.m4a,,,
,,,,,,,,,,,,40029,2021-05-10_19h36.56.270,judgeSpeechMusic_20210407_logNormShiftAmp,2020.1.2,MacIntel,60,,,,,,,,,,,,,,1,6.12147,,0,1,120,270,0,1,stimuli/stim_20210407_power2amp/equal_lnn_AM0.6Hz_95.m4a,,,
,,,,,,,,,,,,40029,2021-05-10_19h36.56.270,judgeSpeechMusic_20210407_logNormShiftAmp,2020.1.2,MacIntel,60,,,,,,,,,,,,,,2,6.641645,,0,1,121,271,104,1,stimuli/stim_20210407_power2amp/equal_lnn_AM4.2Hz_85.m4a,,,
,,,,,,,,,,,,40029,2021-05-10_19h36.56.270,judgeSpeechMusic_20210407_logNormShiftAmp,2020.1.2,MacIntel,60,,,,,,,,,,,,,,1,40.90312,,0,1,122,272,37,1,stimuli/stim_20210407_power2amp/equal_lnn_AM1.8Hz_4.m4a,,,
,,,,,,,,,,,,40029,2021-05-10_19h36.56.270,judgeSpeechMusic_20210407_logNormShiftAmp,2020.1.2,MacIntel,60,,,,,,,,,,,,,,1,65.1608,,0,1,123,273,116,1,stimuli/stim_20210407_power2amp/equal_lnn_AM4.8Hz_46.m4a,,,
,,,,,,,,,,,,40029,2021-05-10_19h36.56.270,judgeSpeechMusic_20210407_logNormShiftAmp,2020.1.2,MacIntel,60,,,,,,,,,,,,,,2,6.146755,,0,1,124,274,91,1,stimuli/stim_20210407_power2amp/equal_lnn_AM4.2Hz_73.m4a,,,
,,,,,,,,,,,,40029,2021-05-10_19h36.56.270,judgeSpeechMusic_20210407_logNormShiftAmp,2020.1.2,MacIntel,60,,,,,,,,,,,,,,2,10.120275,,0,1,125,275,77,1,stimuli/stim_20210407_power2amp/equal_lnn_AM3.6Hz_70.m4a,,,
,,,,,,,,,,,,40029,2021-05-10_19h36.56.270,judgeSpeechMusic_20210407_logNormShiftAmp,2020.1.2,MacIntel,60,,,,,,,,,,,,,,1,6.58888,,0,1,126,276,49,1,stimuli/stim_20210407_power2amp/equal_lnn_AM2.4Hz_19.m4a,,,
,,,,,,,,,,,,40029,2021-05-10_19h36.56.270,judgeSpeechMusic_20210407_logNormShiftAmp,2020.1.2,MacIntel,60,,,,,,,,,,,,,,2,9.0756,,0,1,127,277,143,1,stimuli/stim_20210407_power2amp/equal_lnn_AM6Hz_47.m4a,,,
,,,,,,,,,,,,40029,2021-05-10_19h36.56.270,judgeSpeechMusic_20210407_logNormShiftAmp,2020.1.2,MacIntel,60,,,,,,,,,,,,,,1,6.63714,,0,1,128,278,61,1,stimuli/stim_20210407_power2amp/equal_lnn_AM3Hz_18.m4a,,,
,,,,,,,,,,,,40029,2021-05-10_19h36.56.270,judgeSpeechMusic_20210407_logNormShiftAmp,2020.1.2,MacIntel,60,,,,,,,,,,,,,,1,11.276635,,0,1,129,279,46,1,stimuli/stim_20210407_power2amp/equal_lnn_AM2.4Hz_54.m4a,,,
,,,,,,,,,,,,40029,2021-05-10_19h36.56.270,judgeSpeechMusic_20210407_logNormShiftAmp,2020.1.2,MacIntel,60,,,,,,,,,,,,,,1,6.276565,,0,1,130,280,125,1,stimuli/stim_20210407_power2amp/equal_lnn_AM5.4Hz_61.m4a,,,
,,,,,,,,,,,,40029,2021-05-10_19h36.56.270,judgeSpeechMusic_20210407_logNormShiftAmp,2020.1.2,MacIntel,60,,,,,,,,,,,,,,1,7.09172,,0,1,131,281,45,1,stimuli/stim_20210407_power2amp/equal_lnn_AM2.4Hz_56.m4a,,,
,,,,,,,,,,,,40029,2021-05-10_19h36.56.270,judgeSpeechMusic_20210407_logNormShiftAmp,2020.1.2,MacIntel,60,,,,,,,,,,,,,,1,13.459545,1,1,1,132,282,89,1,stimuli/stim_20210407_power2amp/equal_lnn_AM3.6Hz_73.m4a,1.144355,,
,,,,,,,,,,,,40029,2021-05-10_19h36.56.270,judgeSpeechMusic_20210407_logNormShiftAmp,2020.1.2,MacIntel,60,,,,,,,,,,,,,,1,7.00691,,0,1,133,283,141,1,stimuli/stim_20210407_power2amp/equal_lnn_AM6Hz_34.m4a,,,
,,,,,,,,,,,,40029,2021-05-10_19h36.56.270,judgeSpeechMusic_20210407_logNormShiftAmp,2020.1.2,MacIntel,60,,,,,,,,,,,,,,1,6.57999,,0,1,134,284,11,1,stimuli/stim_20210407_power2amp/equal_lnn_AM0.6Hz_45.m4a,,,
,,,,,,,,,,,,40029,2021-05-10_19h36.56.270,judgeSpeechMusic_20210407_logNormShiftAmp,2020.1.2,MacIntel,60,,,,,,,,,,,,,,1,11.14256,,0,1,135,285,53,1,stimuli/stim_20210407_power2amp/equal_lnn_AM2.4Hz_87.m4a,,,
,,,,,,,,,,,,40029,2021-05-10_19h36.56.270,judgeSpeechMusic_20210407_logNormShiftAmp,2020.1.2,MacIntel,60,,,,,,,,,,,,,,1,6.27895,,0,1,136,286,52,1,stimuli/stim_20210407_power2amp/equal_lnn_AM2.4Hz_3.m4a,,,
,,,,,,,,,,,,40029,2021-05-10_19h36.56.270,judgeSpeechMusic_20210407_logNormShiftAmp,2020.1.2,MacIntel,60,,,,,,,,,,,,,,1,8.191545,,0,1,137,287,44,1,stimuli/stim_20210407_power2amp/equal_lnn_AM1.8Hz_9.m4a,,,
,,,,,,,,,,,,40029,2021-05-10_19h36.56.270,judgeSpeechMusic_20210407_logNormShiftAmp,2020.1.2,MacIntel,60,,,,,,,,,,,,,,2,6.682845,,0,1,138,288,103,1,stimuli/stim_20210407_power2amp/equal_lnn_AM4.2Hz_65.m4a,,,
,,,,,,,,,,,,40029,2021-05-10_19h36.56.270,judgeSpeechMusic_20210407_logNormShiftAmp,2020.1.2,MacIntel,60,,,,,,,,,,,,,,1,6.47602,,0,1,139,289,3,1,stimuli/stim_20210407_power2amp/equal_lnn_AM0.6Hz_22.m4a,,,
,,,,,,,,,,,,40029,2021-05-10_19h36.56.270,judgeSpeechMusic_20210407_logNormShiftAmp,2020.1.2,MacIntel,60,,,,,,,,,,,,,,1,5.97684,,0,1,140,290,13,1,stimuli/stim_20210407_power2amp/equal_lnn_AM0.6Hz_53.m4a,,,
,,,,,,,,,,,,40029,2021-05-10_19h36.56.270,judgeSpeechMusic_20210407_logNormShiftAmp,2020.1.2,MacIntel,60,,,,,,,,,,,,,,1,6.111005,,0,1,141,291,59,1,stimuli/stim_20210407_power2amp/equal_lnn_AM2.4Hz_76.m4a,,,
,,,,,,,,,,,,40029,2021-05-10_19h36.56.270,judgeSpeechMusic_20210407_logNormShiftAmp,2020.1.2,MacIntel,60,,,,,,,,,,,,,,1,8.62451,,0,1,142,292,72,1,stimuli/stim_20210407_power2amp/equal_lnn_AM3Hz_47.m4a,,,
,,,,,,,,,,,,40029,2021-05-10_19h36.56.270,judgeSpeechMusic_20210407_logNormShiftAmp,2020.1.2,MacIntel,60,,,,,,,,,,,,,,1,8.57264,,0,1,143,293,18,1,stimuli/stim_20210407_power2amp/equal_lnn_AM1.2Hz_63.m4a,,,
,,,,,,,,,,,,40029,2021-05-10_19h36.56.270,judgeSpeechMusic_20210407_logNormShiftAmp,2020.1.2,MacIntel,60,,,,,,,,,,,,,,1,8.16531,,0,1,144,294,29,1,stimuli/stim_20210407_power2amp/equal_lnn_AM1.2Hz_32.m4a,,,
,,,,,,,,,,,,40029,2021-05-10_19h36.56.270,judgeSpeechMusic_20210407_logNormShiftAmp,2020.1.2,MacIntel,60,,,,,,,,,,,,,,1,6.571575,,0,1,145,295,123,1,stimuli/stim_20210407_power2amp/equal_lnn_AM5.4Hz_30.m4a,,,
,,,,,,,,,,,,40029,2021-05-10_19h36.56.270,judgeSpeechMusic_20210407_logNormShiftAmp,2020.1.2,MacIntel,60,,,,,,,,,,,,,,1,6.99494,,0,1,146,296,14,1,stimuli/stim_20210407_power2amp/equal_lnn_AM0.6Hz_3.m4a,,,
,,,,,,,,,,,,40029,2021-05-10_19h36.56.270,judgeSpeechMusic_20210407_logNormShiftAmp,2020.1.2,MacIntel,60,,,,,,,,,,,,,,1,7.793425,,0,1,147,297,43,1,stimuli/stim_20210407_power2amp/equal_lnn_AM1.8Hz_8.m4a,,,
,,,,,,,,,,,,40029,2021-05-10_19h36.56.270,judgeSpeechMusic_20210407_logNormShiftAmp,2020.1.2,MacIntel,60,,,,,,,,,,,,,,2,11.177675,,0,1,148,298,124,1,stimuli/stim_20210407_power2amp/equal_lnn_AM5.4Hz_78.m4a,,,
,,,,,,,,,,,,40029,2021-05-10_19h36.56.270,judgeSpeechMusic_20210407_logNormShiftAmp,2020.1.2,MacIntel,60,,,,,,,,,,,,,,2,7.52739,,0,1,149,299,105,1,stimuli/stim_20210407_power2amp/equal_lnn_AM4.8Hz_26.m4a,,,
,,,,,,,,,,,,40029,2021-05-10_19h36.56.270,judgeSpeechMusic_20210407_logNormShiftAmp,2020.1.2,MacIntel,60,,,,,,,,,,,,,,,,,,,,,,,,,space,6.91213
