volAdjustRep.thisRepN,volAdjustRep.thisTrialN,volAdjustRep.thisN,volAdjustRep.thisIndex,volAdjustRep.ran,participant,date,expName,psychopyVersion,OS,frameRate,headphoneResponse.keys,headphoneResponse.corr,headphoneResponse.rt,headphoneTrial.thisRepN,headphoneTrial.thisTrialN,headphoneTrial.thisN,headphoneTrial.thisIndex,headphoneTrial.ran,headphone_sound1,headphone_sound2,headphone_sound3,corrAns,trainSlider.response,trainSlider.rt,beepTrainResponse.keys,beepTrainResponse.corr,trainingTrials.thisRepN,trainingTrials.thisTrialN,trainingTrials.thisN,trainingTrials.thisIndex,trainingTrials.ran,trainAudioFile,beepTrainResponse.rt,readyReal_resp.keys,readyReal_resp.rt,ratingSlider.response,ratingSlider.rt,beepResp.keys,beepResp.corr,expTrials.thisRepN,expTrials.thisTrialN,expTrials.thisN,expTrials.thisIndex,expTrials.ran,audioFile,beepResp.rt,end_resp.keys,end_resp.rt
0,0,0,0,1,40392,2021-05-05_14h28.14.720,judgeSpeechMusic_20210407_logNormShiftAmp,2020.1.2,MacIntel,60,,,,,,,,,,,,,,,,,,,,,,,,,,,,,,,,,,,,,,
,,,,,40392,2021-05-05_14h28.14.720,judgeSpeechMusic_20210407_logNormShiftAmp,2020.1.2,MacIntel,60,2,1,0.862955,0,0,0,3,1,stimuli/screen_origin.wav,stimuli/screen_quiet.wav,stimuli/screen_antiphase.wav,2,,,,,,,,,,,,,,,,,,,,,,,,,,
,,,,,40392,2021-05-05_14h28.14.720,judgeSpeechMusic_20210407_logNormShiftAmp,2020.1.2,MacIntel,60,3,1,0.883665,0,1,1,0,1,stimuli/screen_antiphase.wav,stimuli/screen_origin.wav,stimuli/screen_quiet.wav,3,,,,,,,,,,,,,,,,,,,,,,,,,,
,,,,,40392,2021-05-05_14h28.14.720,judgeSpeechMusic_20210407_logNormShiftAmp,2020.1.2,MacIntel,60,1,1,0.79054,0,2,2,5,1,stimuli/screen_quiet.wav,stimuli/screen_origin.wav,stimuli/screen_antiphase.wav,1,,,,,,,,,,,,,,,,,,,,,,,,,,
,,,,,40392,2021-05-05_14h28.14.720,judgeSpeechMusic_20210407_logNormShiftAmp,2020.1.2,MacIntel,60,3,1,0.51979,0,3,3,2,1,stimuli/screen_origin.wav,stimuli/screen_antiphase.wav,stimuli/screen_quiet.wav,3,,,,,,,,,,,,,,,,,,,,,,,,,,
,,,,,40392,2021-05-05_14h28.14.720,judgeSpeechMusic_20210407_logNormShiftAmp,2020.1.2,MacIntel,60,1,1,1.22771,0,4,4,4,1,stimuli/screen_quiet.wav,stimuli/screen_antiphase.wav,stimuli/screen_origin.wav,1,,,,,,,,,,,,,,,,,,,,,,,,,,
,,,,,40392,2021-05-05_14h28.14.720,judgeSpeechMusic_20210407_logNormShiftAmp,2020.1.2,MacIntel,60,2,1,0.658085,0,5,5,1,1,stimuli/screen_antiphase.wav,stimuli/screen_quiet.wav,stimuli/screen_origin.wav,2,,,,,,,,,,,,,,,,,,,,,,,,,,
,,,,,40392,2021-05-05_14h28.14.720,judgeSpeechMusic_20210407_logNormShiftAmp,2020.1.2,MacIntel,60,,,,,,,,,,,,,2,10.5775,,0,0,0,0,1,1,stimuli/stim_20210407_power2amp/equal_lnn_AM_training2.7Hz.m4a,,,,,,,,,,,,,,,,
,,,,,40392,2021-05-05_14h28.14.720,judgeSpeechMusic_20210407_logNormShiftAmp,2020.1.2,MacIntel,60,,,,,,,,,,,,,2,8.189795,,0,0,1,1,0,1,stimuli/stim_20210407_power2amp/equal_lnn_AM_training1.5Hz.m4a,,,,,,,,,,,,,,,,
,,,,,40392,2021-05-05_14h28.14.720,judgeSpeechMusic_20210407_logNormShiftAmp,2020.1.2,MacIntel,60,,,,,,,,,,,,,2,7.48858,3,1,0,2,2,3,1,stimuli/stim_20210407_power2amp/equal_lnn_AM_training5.1Hz.m4a,1.81313,,,,,,,,,,,,,,,
,,,,,40392,2021-05-05_14h28.14.720,judgeSpeechMusic_20210407_logNormShiftAmp,2020.1.2,MacIntel,60,,,,,,,,,,,,,2,6.470665,,0,0,3,3,2,1,stimuli/stim_20210407_power2amp/equal_lnn_AM_training3.9Hz.m4a,,,,,,,,,,,,,,,,
,,,,,40392,2021-05-05_14h28.14.720,judgeSpeechMusic_20210407_logNormShiftAmp,2020.1.2,MacIntel,60,,,,,,,,,,,,,,,,,,,,,,,,space,2.500955,1,7.665415,,0,0,0,0,10,1,stimuli/stim_20210407_power2amp/equal_lnn_AM0.6Hz_21.m4a,,,
,,,,,40392,2021-05-05_14h28.14.720,judgeSpeechMusic_20210407_logNormShiftAmp,2020.1.2,MacIntel,60,,,,,,,,,,,,,,,,,,,,,,,,,,1,9.005245,,0,0,1,1,64,1,stimuli/stim_20210407_power2amp/equal_lnn_AM3Hz_26.m4a,,,
,,,,,40392,2021-05-05_14h28.14.720,judgeSpeechMusic_20210407_logNormShiftAmp,2020.1.2,MacIntel,60,,,,,,,,,,,,,,,,,,,,,,,,,,2,6.063625,,0,0,2,2,78,1,stimuli/stim_20210407_power2amp/equal_lnn_AM3.6Hz_52.m4a,,,
,,,,,40392,2021-05-05_14h28.14.720,judgeSpeechMusic_20210407_logNormShiftAmp,2020.1.2,MacIntel,60,,,,,,,,,,,,,,,,,,,,,,,,,,2,6.76121,,0,0,3,3,89,1,stimuli/stim_20210407_power2amp/equal_lnn_AM3.6Hz_47.m4a,,,
,,,,,40392,2021-05-05_14h28.14.720,judgeSpeechMusic_20210407_logNormShiftAmp,2020.1.2,MacIntel,60,,,,,,,,,,,,,,,,,,,,,,,,,,2,7.444085,,0,0,4,4,44,1,stimuli/stim_20210407_power2amp/equal_lnn_AM1.8Hz_57.m4a,,,
,,,,,40392,2021-05-05_14h28.14.720,judgeSpeechMusic_20210407_logNormShiftAmp,2020.1.2,MacIntel,60,,,,,,,,,,,,,,,,,,,,,,,,,,1,6.091915,,0,0,5,5,30,1,stimuli/stim_20210407_power2amp/equal_lnn_AM1.8Hz_74.m4a,,,
,,,,,40392,2021-05-05_14h28.14.720,judgeSpeechMusic_20210407_logNormShiftAmp,2020.1.2,MacIntel,60,,,,,,,,,,,,,,,,,,,,,,,,,,1,9.404375,,0,0,6,6,88,1,stimuli/stim_20210407_power2amp/equal_lnn_AM3.6Hz_48.m4a,,,
,,,,,40392,2021-05-05_14h28.14.720,judgeSpeechMusic_20210407_logNormShiftAmp,2020.1.2,MacIntel,60,,,,,,,,,,,,,,,,,,,,,,,,,,2,13.387,,0,0,7,7,72,1,stimuli/stim_20210407_power2amp/equal_lnn_AM3Hz_54.m4a,,,
,,,,,40392,2021-05-05_14h28.14.720,judgeSpeechMusic_20210407_logNormShiftAmp,2020.1.2,MacIntel,60,,,,,,,,,,,,,,,,,,,,,,,,,,1,7.388295,,0,0,8,8,94,1,stimuli/stim_20210407_power2amp/equal_lnn_AM4.2Hz_20.m4a,,,
,,,,,40392,2021-05-05_14h28.14.720,judgeSpeechMusic_20210407_logNormShiftAmp,2020.1.2,MacIntel,60,,,,,,,,,,,,,,,,,,,,,,,,,,1,6.870375,,0,0,9,9,134,1,stimuli/stim_20210407_power2amp/equal_lnn_AM5.4Hz_57.m4a,,,
,,,,,40392,2021-05-05_14h28.14.720,judgeSpeechMusic_20210407_logNormShiftAmp,2020.1.2,MacIntel,60,,,,,,,,,,,,,,,,,,,,,,,,,,1,5.851625,,0,0,10,10,35,1,stimuli/stim_20210407_power2amp/equal_lnn_AM1.8Hz_92.m4a,,,
,,,,,40392,2021-05-05_14h28.14.720,judgeSpeechMusic_20210407_logNormShiftAmp,2020.1.2,MacIntel,60,,,,,,,,,,,,,,,,,,,,,,,,,,2,6.80742,,0,0,11,11,34,1,stimuli/stim_20210407_power2amp/equal_lnn_AM1.8Hz_36.m4a,,,
,,,,,40392,2021-05-05_14h28.14.720,judgeSpeechMusic_20210407_logNormShiftAmp,2020.1.2,MacIntel,60,,,,,,,,,,,,,,,,,,,,,,,,,,1,7.41513,,0,0,12,12,112,1,stimuli/stim_20210407_power2amp/equal_lnn_AM4.8Hz_48.m4a,,,
,,,,,40392,2021-05-05_14h28.14.720,judgeSpeechMusic_20210407_logNormShiftAmp,2020.1.2,MacIntel,60,,,,,,,,,,,,,,,,,,,,,,,,,,1,5.741295,,0,0,13,13,130,1,stimuli/stim_20210407_power2amp/equal_lnn_AM5.4Hz_59.m4a,,,
,,,,,40392,2021-05-05_14h28.14.720,judgeSpeechMusic_20210407_logNormShiftAmp,2020.1.2,MacIntel,60,,,,,,,,,,,,,,,,,,,,,,,,,,1,6.61146,,0,0,14,14,32,1,stimuli/stim_20210407_power2amp/equal_lnn_AM1.8Hz_93.m4a,,,
,,,,,40392,2021-05-05_14h28.14.720,judgeSpeechMusic_20210407_logNormShiftAmp,2020.1.2,MacIntel,60,,,,,,,,,,,,,,,,,,,,,,,,,,1,5.987205,,0,0,15,15,6,1,stimuli/stim_20210407_power2amp/equal_lnn_AM0.6Hz_97.m4a,,,
,,,,,40392,2021-05-05_14h28.14.720,judgeSpeechMusic_20210407_logNormShiftAmp,2020.1.2,MacIntel,60,,,,,,,,,,,,,,,,,,,,,,,,,,1,7.99158,,0,0,16,16,123,1,stimuli/stim_20210407_power2amp/equal_lnn_AM5.4Hz_33.m4a,,,
,,,,,40392,2021-05-05_14h28.14.720,judgeSpeechMusic_20210407_logNormShiftAmp,2020.1.2,MacIntel,60,,,,,,,,,,,,,,,,,,,,,,,,,,1,6.15446,,0,0,17,17,26,1,stimuli/stim_20210407_power2amp/equal_lnn_AM1.2Hz_56.m4a,,,
,,,,,40392,2021-05-05_14h28.14.720,judgeSpeechMusic_20210407_logNormShiftAmp,2020.1.2,MacIntel,60,,,,,,,,,,,,,,,,,,,,,,,,,,2,6.603125,,0,0,18,18,97,1,stimuli/stim_20210407_power2amp/equal_lnn_AM4.2Hz_86.m4a,,,
,,,,,40392,2021-05-05_14h28.14.720,judgeSpeechMusic_20210407_logNormShiftAmp,2020.1.2,MacIntel,60,,,,,,,,,,,,,,,,,,,,,,,,,,2,5.85275,,0,0,19,19,63,1,stimuli/stim_20210407_power2amp/equal_lnn_AM3Hz_7.m4a,,,
,,,,,40392,2021-05-05_14h28.14.720,judgeSpeechMusic_20210407_logNormShiftAmp,2020.1.2,MacIntel,60,,,,,,,,,,,,,,,,,,,,,,,,,,2,6.571875,,0,0,20,20,91,1,stimuli/stim_20210407_power2amp/equal_lnn_AM4.2Hz_68.m4a,,,
,,,,,40392,2021-05-05_14h28.14.720,judgeSpeechMusic_20210407_logNormShiftAmp,2020.1.2,MacIntel,60,,,,,,,,,,,,,,,,,,,,,,,,,,1,6.203335,,0,0,21,21,23,1,stimuli/stim_20210407_power2amp/equal_lnn_AM1.2Hz_53.m4a,,,
,,,,,40392,2021-05-05_14h28.14.720,judgeSpeechMusic_20210407_logNormShiftAmp,2020.1.2,MacIntel,60,,,,,,,,,,,,,,,,,,,,,,,,,,2,10.55204,,0,0,22,22,29,1,stimuli/stim_20210407_power2amp/equal_lnn_AM1.2Hz_88.m4a,,,
,,,,,40392,2021-05-05_14h28.14.720,judgeSpeechMusic_20210407_logNormShiftAmp,2020.1.2,MacIntel,60,,,,,,,,,,,,,,,,,,,,,,,,,,1,6.24429,,0,0,23,23,22,1,stimuli/stim_20210407_power2amp/equal_lnn_AM1.2Hz_41.m4a,,,
,,,,,40392,2021-05-05_14h28.14.720,judgeSpeechMusic_20210407_logNormShiftAmp,2020.1.2,MacIntel,60,,,,,,,,,,,,,,,,,,,,,,,,,,2,7.23296,,0,0,24,24,55,1,stimuli/stim_20210407_power2amp/equal_lnn_AM2.4Hz_40.m4a,,,
,,,,,40392,2021-05-05_14h28.14.720,judgeSpeechMusic_20210407_logNormShiftAmp,2020.1.2,MacIntel,60,,,,,,,,,,,,,,,,,,,,,,,,,,2,6.56741,,0,0,25,25,40,1,stimuli/stim_20210407_power2amp/equal_lnn_AM1.8Hz_27.m4a,,,
,,,,,40392,2021-05-05_14h28.14.720,judgeSpeechMusic_20210407_logNormShiftAmp,2020.1.2,MacIntel,60,,,,,,,,,,,,,,,,,,,,,,,,,,2,6.260415,,0,0,26,26,148,1,stimuli/stim_20210407_power2amp/equal_lnn_AM6Hz_37.m4a,,,
,,,,,40392,2021-05-05_14h28.14.720,judgeSpeechMusic_20210407_logNormShiftAmp,2020.1.2,MacIntel,60,,,,,,,,,,,,,,,,,,,,,,,,,,2,7.45804,,0,0,27,27,99,1,stimuli/stim_20210407_power2amp/equal_lnn_AM4.2Hz_69.m4a,,,
,,,,,40392,2021-05-05_14h28.14.720,judgeSpeechMusic_20210407_logNormShiftAmp,2020.1.2,MacIntel,60,,,,,,,,,,,,,,,,,,,,,,,,,,2,6.21225,,0,0,28,28,90,1,stimuli/stim_20210407_power2amp/equal_lnn_AM4.2Hz_13.m4a,,,
,,,,,40392,2021-05-05_14h28.14.720,judgeSpeechMusic_20210407_logNormShiftAmp,2020.1.2,MacIntel,60,,,,,,,,,,,,,,,,,,,,,,,,,,1,6.00458,,0,0,29,29,8,1,stimuli/stim_20210407_power2amp/equal_lnn_AM0.6Hz_70.m4a,,,
,,,,,40392,2021-05-05_14h28.14.720,judgeSpeechMusic_20210407_logNormShiftAmp,2020.1.2,MacIntel,60,,,,,,,,,,,,,,,,,,,,,,,,,,1,10.668585,,0,0,30,30,149,1,stimuli/stim_20210407_power2amp/equal_lnn_AM6Hz_82.m4a,,,
,,,,,40392,2021-05-05_14h28.14.720,judgeSpeechMusic_20210407_logNormShiftAmp,2020.1.2,MacIntel,60,,,,,,,,,,,,,,,,,,,,,,,,,,2,11.873455,,0,0,31,31,108,1,stimuli/stim_20210407_power2amp/equal_lnn_AM4.8Hz_15.m4a,,,
,,,,,40392,2021-05-05_14h28.14.720,judgeSpeechMusic_20210407_logNormShiftAmp,2020.1.2,MacIntel,60,,,,,,,,,,,,,,,,,,,,,,,,,,2,6.754795,,0,0,32,32,119,1,stimuli/stim_20210407_power2amp/equal_lnn_AM4.8Hz_64.m4a,,,
,,,,,40392,2021-05-05_14h28.14.720,judgeSpeechMusic_20210407_logNormShiftAmp,2020.1.2,MacIntel,60,,,,,,,,,,,,,,,,,,,,,,,,,,1,6.25333,,0,0,33,33,11,1,stimuli/stim_20210407_power2amp/equal_lnn_AM0.6Hz_54.m4a,,,
,,,,,40392,2021-05-05_14h28.14.720,judgeSpeechMusic_20210407_logNormShiftAmp,2020.1.2,MacIntel,60,,,,,,,,,,,,,,,,,,,,,,,,,,2,6.22804,,0,0,34,34,54,1,stimuli/stim_20210407_power2amp/equal_lnn_AM2.4Hz_16.m4a,,,
,,,,,40392,2021-05-05_14h28.14.720,judgeSpeechMusic_20210407_logNormShiftAmp,2020.1.2,MacIntel,60,,,,,,,,,,,,,,,,,,,,,,,,,,2,6.58696,,0,0,35,35,104,1,stimuli/stim_20210407_power2amp/equal_lnn_AM4.2Hz_47.m4a,,,
,,,,,40392,2021-05-05_14h28.14.720,judgeSpeechMusic_20210407_logNormShiftAmp,2020.1.2,MacIntel,60,,,,,,,,,,,,,,,,,,,,,,,,,,2,7.478915,3,1,0,36,36,84,1,stimuli/stim_20210407_power2amp/equal_lnn_AM3.6Hz_69.m4a,1.83746,,
,,,,,40392,2021-05-05_14h28.14.720,judgeSpeechMusic_20210407_logNormShiftAmp,2020.1.2,MacIntel,60,,,,,,,,,,,,,,,,,,,,,,,,,,2,8.64504,,0,0,37,37,93,1,stimuli/stim_20210407_power2amp/equal_lnn_AM4.2Hz_56.m4a,,,
,,,,,40392,2021-05-05_14h28.14.720,judgeSpeechMusic_20210407_logNormShiftAmp,2020.1.2,MacIntel,60,,,,,,,,,,,,,,,,,,,,,,,,,,1,24.22608,,0,0,38,38,15,1,stimuli/stim_20210407_power2amp/equal_lnn_AM1.2Hz_92.m4a,,,
,,,,,40392,2021-05-05_14h28.14.720,judgeSpeechMusic_20210407_logNormShiftAmp,2020.1.2,MacIntel,60,,,,,,,,,,,,,,,,,,,,,,,,,,2,8.752375,,0,0,39,39,142,1,stimuli/stim_20210407_power2amp/equal_lnn_AM6Hz_53.m4a,,,
,,,,,40392,2021-05-05_14h28.14.720,judgeSpeechMusic_20210407_logNormShiftAmp,2020.1.2,MacIntel,60,,,,,,,,,,,,,,,,,,,,,,,,,,2,8.234415,,0,0,40,40,53,1,stimuli/stim_20210407_power2amp/equal_lnn_AM2.4Hz_19.m4a,,,
,,,,,40392,2021-05-05_14h28.14.720,judgeSpeechMusic_20210407_logNormShiftAmp,2020.1.2,MacIntel,60,,,,,,,,,,,,,,,,,,,,,,,,,,2,9.310295,,0,0,41,41,81,1,stimuli/stim_20210407_power2amp/equal_lnn_AM3.6Hz_13.m4a,,,
,,,,,40392,2021-05-05_14h28.14.720,judgeSpeechMusic_20210407_logNormShiftAmp,2020.1.2,MacIntel,60,,,,,,,,,,,,,,,,,,,,,,,,,,1,20.35571,,0,0,42,42,124,1,stimuli/stim_20210407_power2amp/equal_lnn_AM5.4Hz_47.m4a,,,
,,,,,40392,2021-05-05_14h28.14.720,judgeSpeechMusic_20210407_logNormShiftAmp,2020.1.2,MacIntel,60,,,,,,,,,,,,,,,,,,,,,,,,,,1,5.99712,,0,0,43,43,39,1,stimuli/stim_20210407_power2amp/equal_lnn_AM1.8Hz_91.m4a,,,
,,,,,40392,2021-05-05_14h28.14.720,judgeSpeechMusic_20210407_logNormShiftAmp,2020.1.2,MacIntel,60,,,,,,,,,,,,,,,,,,,,,,,,,,1,8.97587,,0,0,44,44,102,1,stimuli/stim_20210407_power2amp/equal_lnn_AM4.2Hz_72.m4a,,,
,,,,,40392,2021-05-05_14h28.14.720,judgeSpeechMusic_20210407_logNormShiftAmp,2020.1.2,MacIntel,60,,,,,,,,,,,,,,,,,,,,,,,,,,1,6.05667,,0,0,45,45,38,1,stimuli/stim_20210407_power2amp/equal_lnn_AM1.8Hz_59.m4a,,,
,,,,,40392,2021-05-05_14h28.14.720,judgeSpeechMusic_20210407_logNormShiftAmp,2020.1.2,MacIntel,60,,,,,,,,,,,,,,,,,,,,,,,,,,2,5.86454,,0,0,46,46,120,1,stimuli/stim_20210407_power2amp/equal_lnn_AM5.4Hz_85.m4a,,,
,,,,,40392,2021-05-05_14h28.14.720,judgeSpeechMusic_20210407_logNormShiftAmp,2020.1.2,MacIntel,60,,,,,,,,,,,,,,,,,,,,,,,,,,1,7.10279,,0,0,47,47,31,1,stimuli/stim_20210407_power2amp/equal_lnn_AM1.8Hz_94.m4a,,,
,,,,,40392,2021-05-05_14h28.14.720,judgeSpeechMusic_20210407_logNormShiftAmp,2020.1.2,MacIntel,60,,,,,,,,,,,,,,,,,,,,,,,,,,1,9.387545,,0,0,48,48,1,1,stimuli/stim_20210407_power2amp/equal_lnn_AM0.6Hz_92.m4a,,,
,,,,,40392,2021-05-05_14h28.14.720,judgeSpeechMusic_20210407_logNormShiftAmp,2020.1.2,MacIntel,60,,,,,,,,,,,,,,,,,,,,,,,,,,1,10.59804,,0,0,49,49,37,1,stimuli/stim_20210407_power2amp/equal_lnn_AM1.8Hz_96.m4a,,,
,,,,,40392,2021-05-05_14h28.14.720,judgeSpeechMusic_20210407_logNormShiftAmp,2020.1.2,MacIntel,60,,,,,,,,,,,,,,,,,,,,,,,,,,2,7.62408,,0,0,50,50,82,1,stimuli/stim_20210407_power2amp/equal_lnn_AM3.6Hz_44.m4a,,,
,,,,,40392,2021-05-05_14h28.14.720,judgeSpeechMusic_20210407_logNormShiftAmp,2020.1.2,MacIntel,60,,,,,,,,,,,,,,,,,,,,,,,,,,2,5.861875,,0,0,51,51,135,1,stimuli/stim_20210407_power2amp/equal_lnn_AM6Hz_95.m4a,,,
,,,,,40392,2021-05-05_14h28.14.720,judgeSpeechMusic_20210407_logNormShiftAmp,2020.1.2,MacIntel,60,,,,,,,,,,,,,,,,,,,,,,,,,,2,5.87196,,0,0,52,52,144,1,stimuli/stim_20210407_power2amp/equal_lnn_AM6Hz_24.m4a,,,
,,,,,40392,2021-05-05_14h28.14.720,judgeSpeechMusic_20210407_logNormShiftAmp,2020.1.2,MacIntel,60,,,,,,,,,,,,,,,,,,,,,,,,,,1,5.974745,,0,0,53,53,24,1,stimuli/stim_20210407_power2amp/equal_lnn_AM1.2Hz_8.m4a,,,
,,,,,40392,2021-05-05_14h28.14.720,judgeSpeechMusic_20210407_logNormShiftAmp,2020.1.2,MacIntel,60,,,,,,,,,,,,,,,,,,,,,,,,,,1,7.089205,,0,0,54,54,121,1,stimuli/stim_20210407_power2amp/equal_lnn_AM5.4Hz_51.m4a,,,
,,,,,40392,2021-05-05_14h28.14.720,judgeSpeechMusic_20210407_logNormShiftAmp,2020.1.2,MacIntel,60,,,,,,,,,,,,,,,,,,,,,,,,,,2,6.843335,,0,0,55,55,147,1,stimuli/stim_20210407_power2amp/equal_lnn_AM6Hz_61.m4a,,,
,,,,,40392,2021-05-05_14h28.14.720,judgeSpeechMusic_20210407_logNormShiftAmp,2020.1.2,MacIntel,60,,,,,,,,,,,,,,,,,,,,,,,,,,2,6.59071,,0,0,56,56,109,1,stimuli/stim_20210407_power2amp/equal_lnn_AM4.8Hz_82.m4a,,,
,,,,,40392,2021-05-05_14h28.14.720,judgeSpeechMusic_20210407_logNormShiftAmp,2020.1.2,MacIntel,60,,,,,,,,,,,,,,,,,,,,,,,,,,2,13.52875,,0,0,57,57,110,1,stimuli/stim_20210407_power2amp/equal_lnn_AM4.8Hz_32.m4a,,,
,,,,,40392,2021-05-05_14h28.14.720,judgeSpeechMusic_20210407_logNormShiftAmp,2020.1.2,MacIntel,60,,,,,,,,,,,,,,,,,,,,,,,,,,1,6.014295,,0,0,58,58,21,1,stimuli/stim_20210407_power2amp/equal_lnn_AM1.2Hz_6.m4a,,,
,,,,,40392,2021-05-05_14h28.14.720,judgeSpeechMusic_20210407_logNormShiftAmp,2020.1.2,MacIntel,60,,,,,,,,,,,,,,,,,,,,,,,,,,2,6.594165,,0,0,59,59,118,1,stimuli/stim_20210407_power2amp/equal_lnn_AM4.8Hz_29.m4a,,,
,,,,,40392,2021-05-05_14h28.14.720,judgeSpeechMusic_20210407_logNormShiftAmp,2020.1.2,MacIntel,60,,,,,,,,,,,,,,,,,,,,,,,,,,1,30.388295,,0,0,60,60,105,1,stimuli/stim_20210407_power2amp/equal_lnn_AM4.8Hz_27.m4a,,,
,,,,,40392,2021-05-05_14h28.14.720,judgeSpeechMusic_20210407_logNormShiftAmp,2020.1.2,MacIntel,60,,,,,,,,,,,,,,,,,,,,,,,,,,1,8.32083,3,1,0,61,61,131,1,stimuli/stim_20210407_power2amp/equal_lnn_AM5.4Hz_4.m4a,2.1385,,
,,,,,40392,2021-05-05_14h28.14.720,judgeSpeechMusic_20210407_logNormShiftAmp,2020.1.2,MacIntel,60,,,,,,,,,,,,,,,,,,,,,,,,,,1,5.797705,,0,0,62,62,0,1,stimuli/stim_20210407_power2amp/equal_lnn_AM0.6Hz_29.m4a,,,
,,,,,40392,2021-05-05_14h28.14.720,judgeSpeechMusic_20210407_logNormShiftAmp,2020.1.2,MacIntel,60,,,,,,,,,,,,,,,,,,,,,,,,,,2,6.96704,,0,0,63,63,103,1,stimuli/stim_20210407_power2amp/equal_lnn_AM4.2Hz_21.m4a,,,
,,,,,40392,2021-05-05_14h28.14.720,judgeSpeechMusic_20210407_logNormShiftAmp,2020.1.2,MacIntel,60,,,,,,,,,,,,,,,,,,,,,,,,,,1,5.73683,,0,0,64,64,50,1,stimuli/stim_20210407_power2amp/equal_lnn_AM2.4Hz_35.m4a,,,
,,,,,40392,2021-05-05_14h28.14.720,judgeSpeechMusic_20210407_logNormShiftAmp,2020.1.2,MacIntel,60,,,,,,,,,,,,,,,,,,,,,,,,,,2,12.68275,,0,0,65,65,45,1,stimuli/stim_20210407_power2amp/equal_lnn_AM2.4Hz_83.m4a,,,
,,,,,40392,2021-05-05_14h28.14.720,judgeSpeechMusic_20210407_logNormShiftAmp,2020.1.2,MacIntel,60,,,,,,,,,,,,,,,,,,,,,,,,,,2,6.22621,,0,0,66,66,107,1,stimuli/stim_20210407_power2amp/equal_lnn_AM4.8Hz_30.m4a,,,
,,,,,40392,2021-05-05_14h28.14.720,judgeSpeechMusic_20210407_logNormShiftAmp,2020.1.2,MacIntel,60,,,,,,,,,,,,,,,,,,,,,,,,,,2,8.35946,,0,0,67,67,137,1,stimuli/stim_20210407_power2amp/equal_lnn_AM6Hz_19.m4a,,,
,,,,,40392,2021-05-05_14h28.14.720,judgeSpeechMusic_20210407_logNormShiftAmp,2020.1.2,MacIntel,60,,,,,,,,,,,,,,,,,,,,,,,,,,1,6.2425,,0,0,68,68,36,1,stimuli/stim_20210407_power2amp/equal_lnn_AM1.8Hz_24.m4a,,,
,,,,,40392,2021-05-05_14h28.14.720,judgeSpeechMusic_20210407_logNormShiftAmp,2020.1.2,MacIntel,60,,,,,,,,,,,,,,,,,,,,,,,,,,2,19.758665,,0,0,69,69,60,1,stimuli/stim_20210407_power2amp/equal_lnn_AM3Hz_45.m4a,,,
,,,,,40392,2021-05-05_14h28.14.720,judgeSpeechMusic_20210407_logNormShiftAmp,2020.1.2,MacIntel,60,,,,,,,,,,,,,,,,,,,,,,,,,,2,8.041005,,0,0,70,70,70,1,stimuli/stim_20210407_power2amp/equal_lnn_AM3Hz_57.m4a,,,
,,,,,40392,2021-05-05_14h28.14.720,judgeSpeechMusic_20210407_logNormShiftAmp,2020.1.2,MacIntel,60,,,,,,,,,,,,,,,,,,,,,,,,,,1,6.089,,0,0,71,71,79,1,stimuli/stim_20210407_power2amp/equal_lnn_AM3.6Hz_40.m4a,,,
,,,,,40392,2021-05-05_14h28.14.720,judgeSpeechMusic_20210407_logNormShiftAmp,2020.1.2,MacIntel,60,,,,,,,,,,,,,,,,,,,,,,,,,,2,13.206,,0,0,72,72,92,1,stimuli/stim_20210407_power2amp/equal_lnn_AM4.2Hz_66.m4a,,,
,,,,,40392,2021-05-05_14h28.14.720,judgeSpeechMusic_20210407_logNormShiftAmp,2020.1.2,MacIntel,60,,,,,,,,,,,,,,,,,,,,,,,,,,2,10.888625,,0,0,73,73,101,1,stimuli/stim_20210407_power2amp/equal_lnn_AM4.2Hz_4.m4a,,,
,,,,,40392,2021-05-05_14h28.14.720,judgeSpeechMusic_20210407_logNormShiftAmp,2020.1.2,MacIntel,60,,,,,,,,,,,,,,,,,,,,,,,,,,2,6.270415,,0,0,74,74,145,1,stimuli/stim_20210407_power2amp/equal_lnn_AM6Hz_96.m4a,,,
,,,,,40392,2021-05-05_14h28.14.720,judgeSpeechMusic_20210407_logNormShiftAmp,2020.1.2,MacIntel,60,,,,,,,,,,,,,,,,,,,,,,,,,,2,6.970545,,0,0,75,75,80,1,stimuli/stim_20210407_power2amp/equal_lnn_AM3.6Hz_22.m4a,,,
,,,,,40392,2021-05-05_14h28.14.720,judgeSpeechMusic_20210407_logNormShiftAmp,2020.1.2,MacIntel,60,,,,,,,,,,,,,,,,,,,,,,,,,,1,6.727625,,0,0,76,76,13,1,stimuli/stim_20210407_power2amp/equal_lnn_AM0.6Hz_32.m4a,,,
,,,,,40392,2021-05-05_14h28.14.720,judgeSpeechMusic_20210407_logNormShiftAmp,2020.1.2,MacIntel,60,,,,,,,,,,,,,,,,,,,,,,,,,,1,6.295835,,0,0,77,77,27,1,stimuli/stim_20210407_power2amp/equal_lnn_AM1.2Hz_23.m4a,,,
,,,,,40392,2021-05-05_14h28.14.720,judgeSpeechMusic_20210407_logNormShiftAmp,2020.1.2,MacIntel,60,,,,,,,,,,,,,,,,,,,,,,,,,,1,6.971205,,0,0,78,78,125,1,stimuli/stim_20210407_power2amp/equal_lnn_AM5.4Hz_55.m4a,,,
,,,,,40392,2021-05-05_14h28.14.720,judgeSpeechMusic_20210407_logNormShiftAmp,2020.1.2,MacIntel,60,,,,,,,,,,,,,,,,,,,,,,,,,,1,6.03104,,0,0,79,79,61,1,stimuli/stim_20210407_power2amp/equal_lnn_AM3Hz_64.m4a,,,
,,,,,40392,2021-05-05_14h28.14.720,judgeSpeechMusic_20210407_logNormShiftAmp,2020.1.2,MacIntel,60,,,,,,,,,,,,,,,,,,,,,,,,,,2,6.020255,,0,0,80,80,106,1,stimuli/stim_20210407_power2amp/equal_lnn_AM4.8Hz_51.m4a,,,
,,,,,40392,2021-05-05_14h28.14.720,judgeSpeechMusic_20210407_logNormShiftAmp,2020.1.2,MacIntel,60,,,,,,,,,,,,,,,,,,,,,,,,,,1,7.707625,2,1,0,81,81,96,1,stimuli/stim_20210407_power2amp/equal_lnn_AM4.2Hz_17.m4a,1.626545,,
,,,,,40392,2021-05-05_14h28.14.720,judgeSpeechMusic_20210407_logNormShiftAmp,2020.1.2,MacIntel,60,,,,,,,,,,,,,,,,,,,,,,,,,,1,16.61075,,0,0,82,82,127,1,stimuli/stim_20210407_power2amp/equal_lnn_AM5.4Hz_9.m4a,,,
,,,,,40392,2021-05-05_14h28.14.720,judgeSpeechMusic_20210407_logNormShiftAmp,2020.1.2,MacIntel,60,,,,,,,,,,,,,,,,,,,,,,,,,,2,17.451,,0,0,83,83,19,1,stimuli/stim_20210407_power2amp/equal_lnn_AM1.2Hz_16.m4a,,,
,,,,,40392,2021-05-05_14h28.14.720,judgeSpeechMusic_20210407_logNormShiftAmp,2020.1.2,MacIntel,60,,,,,,,,,,,,,,,,,,,,,,,,,,2,6.75392,,0,0,84,84,116,1,stimuli/stim_20210407_power2amp/equal_lnn_AM4.8Hz_42.m4a,,,
,,,,,40392,2021-05-05_14h28.14.720,judgeSpeechMusic_20210407_logNormShiftAmp,2020.1.2,MacIntel,60,,,,,,,,,,,,,,,,,,,,,,,,,,2,6.289205,,0,0,85,85,67,1,stimuli/stim_20210407_power2amp/equal_lnn_AM3Hz_18.m4a,,,
,,,,,40392,2021-05-05_14h28.14.720,judgeSpeechMusic_20210407_logNormShiftAmp,2020.1.2,MacIntel,60,,,,,,,,,,,,,,,,,,,,,,,,,,1,7.10204,,0,0,86,86,2,1,stimuli/stim_20210407_power2amp/equal_lnn_AM0.6Hz_46.m4a,,,
,,,,,40392,2021-05-05_14h28.14.720,judgeSpeechMusic_20210407_logNormShiftAmp,2020.1.2,MacIntel,60,,,,,,,,,,,,,,,,,,,,,,,,,,1,12.00512,,0,0,87,87,51,1,stimuli/stim_20210407_power2amp/equal_lnn_AM2.4Hz_60.m4a,,,
,,,,,40392,2021-05-05_14h28.14.720,judgeSpeechMusic_20210407_logNormShiftAmp,2020.1.2,MacIntel,60,,,,,,,,,,,,,,,,,,,,,,,,,,1,6.137915,,0,0,88,88,59,1,stimuli/stim_20210407_power2amp/equal_lnn_AM2.4Hz_1.m4a,,,
,,,,,40392,2021-05-05_14h28.14.720,judgeSpeechMusic_20210407_logNormShiftAmp,2020.1.2,MacIntel,60,,,,,,,,,,,,,,,,,,,,,,,,,,1,6.702795,,0,0,89,89,117,1,stimuli/stim_20210407_power2amp/equal_lnn_AM4.8Hz_39.m4a,,,
,,,,,40392,2021-05-05_14h28.14.720,judgeSpeechMusic_20210407_logNormShiftAmp,2020.1.2,MacIntel,60,,,,,,,,,,,,,,,,,,,,,,,,,,2,6.18942,,0,0,90,90,76,1,stimuli/stim_20210407_power2amp/equal_lnn_AM3.6Hz_62.m4a,,,
,,,,,40392,2021-05-05_14h28.14.720,judgeSpeechMusic_20210407_logNormShiftAmp,2020.1.2,MacIntel,60,,,,,,,,,,,,,,,,,,,,,,,,,,1,5.956915,,0,0,91,91,126,1,stimuli/stim_20210407_power2amp/equal_lnn_AM5.4Hz_94.m4a,,,
,,,,,40392,2021-05-05_14h28.14.720,judgeSpeechMusic_20210407_logNormShiftAmp,2020.1.2,MacIntel,60,,,,,,,,,,,,,,,,,,,,,,,,,,2,6.55246,,0,0,92,92,113,1,stimuli/stim_20210407_power2amp/equal_lnn_AM4.8Hz_76.m4a,,,
,,,,,40392,2021-05-05_14h28.14.720,judgeSpeechMusic_20210407_logNormShiftAmp,2020.1.2,MacIntel,60,,,,,,,,,,,,,,,,,,,,,,,,,,2,8.5705,,0,0,93,93,46,1,stimuli/stim_20210407_power2amp/equal_lnn_AM2.4Hz_53.m4a,,,
,,,,,40392,2021-05-05_14h28.14.720,judgeSpeechMusic_20210407_logNormShiftAmp,2020.1.2,MacIntel,60,,,,,,,,,,,,,,,,,,,,,,,,,,1,5.86479,,0,0,94,94,12,1,stimuli/stim_20210407_power2amp/equal_lnn_AM0.6Hz_88.m4a,,,
,,,,,40392,2021-05-05_14h28.14.720,judgeSpeechMusic_20210407_logNormShiftAmp,2020.1.2,MacIntel,60,,,,,,,,,,,,,,,,,,,,,,,,,,1,5.78729,,0,0,95,95,48,1,stimuli/stim_20210407_power2amp/equal_lnn_AM2.4Hz_51.m4a,,,
,,,,,40392,2021-05-05_14h28.14.720,judgeSpeechMusic_20210407_logNormShiftAmp,2020.1.2,MacIntel,60,,,,,,,,,,,,,,,,,,,,,,,,,,1,6.474705,,0,0,96,96,25,1,stimuli/stim_20210407_power2amp/equal_lnn_AM1.2Hz_11.m4a,,,
,,,,,40392,2021-05-05_14h28.14.720,judgeSpeechMusic_20210407_logNormShiftAmp,2020.1.2,MacIntel,60,,,,,,,,,,,,,,,,,,,,,,,,,,1,5.874205,,0,0,97,97,62,1,stimuli/stim_20210407_power2amp/equal_lnn_AM3Hz_48.m4a,,,
,,,,,40392,2021-05-05_14h28.14.720,judgeSpeechMusic_20210407_logNormShiftAmp,2020.1.2,MacIntel,60,,,,,,,,,,,,,,,,,,,,,,,,,,1,7.10108,,0,0,98,98,128,1,stimuli/stim_20210407_power2amp/equal_lnn_AM5.4Hz_23.m4a,,,
,,,,,40392,2021-05-05_14h28.14.720,judgeSpeechMusic_20210407_logNormShiftAmp,2020.1.2,MacIntel,60,,,,,,,,,,,,,,,,,,,,,,,,,,1,5.776415,,0,0,99,99,9,1,stimuli/stim_20210407_power2amp/equal_lnn_AM0.6Hz_93.m4a,,,
,,,,,40392,2021-05-05_14h28.14.720,judgeSpeechMusic_20210407_logNormShiftAmp,2020.1.2,MacIntel,60,,,,,,,,,,,,,,,,,,,,,,,,,,2,8.1685,,0,0,100,100,122,1,stimuli/stim_20210407_power2amp/equal_lnn_AM5.4Hz_81.m4a,,,
,,,,,40392,2021-05-05_14h28.14.720,judgeSpeechMusic_20210407_logNormShiftAmp,2020.1.2,MacIntel,60,,,,,,,,,,,,,,,,,,,,,,,,,,1,6.865665,,0,0,101,101,65,1,stimuli/stim_20210407_power2amp/equal_lnn_AM3Hz_46.m4a,,,
,,,,,40392,2021-05-05_14h28.14.720,judgeSpeechMusic_20210407_logNormShiftAmp,2020.1.2,MacIntel,60,,,,,,,,,,,,,,,,,,,,,,,,,,2,6.989,,0,0,102,102,28,1,stimuli/stim_20210407_power2amp/equal_lnn_AM1.2Hz_47.m4a,,,
,,,,,40392,2021-05-05_14h28.14.720,judgeSpeechMusic_20210407_logNormShiftAmp,2020.1.2,MacIntel,60,,,,,,,,,,,,,,,,,,,,,,,,,,1,5.9365,,0,0,103,103,75,1,stimuli/stim_20210407_power2amp/equal_lnn_AM3.6Hz_70.m4a,,,
,,,,,40392,2021-05-05_14h28.14.720,judgeSpeechMusic_20210407_logNormShiftAmp,2020.1.2,MacIntel,60,,,,,,,,,,,,,,,,,,,,,,,,,,2,9.80321,,0,0,104,104,68,1,stimuli/stim_20210407_power2amp/equal_lnn_AM3Hz_68.m4a,,,
,,,,,40392,2021-05-05_14h28.14.720,judgeSpeechMusic_20210407_logNormShiftAmp,2020.1.2,MacIntel,60,,,,,,,,,,,,,,,,,,,,,,,,,,1,6.202505,1,1,0,105,105,16,1,stimuli/stim_20210407_power2amp/equal_lnn_AM1.2Hz_14.m4a,1.939535,,
,,,,,40392,2021-05-05_14h28.14.720,judgeSpeechMusic_20210407_logNormShiftAmp,2020.1.2,MacIntel,60,,,,,,,,,,,,,,,,,,,,,,,,,,1,8.58471,,0,0,106,106,56,1,stimuli/stim_20210407_power2amp/equal_lnn_AM2.4Hz_18.m4a,,,
,,,,,40392,2021-05-05_14h28.14.720,judgeSpeechMusic_20210407_logNormShiftAmp,2020.1.2,MacIntel,60,,,,,,,,,,,,,,,,,,,,,,,,,,2,6.12071,,0,0,107,107,132,1,stimuli/stim_20210407_power2amp/equal_lnn_AM5.4Hz_87.m4a,,,
,,,,,40392,2021-05-05_14h28.14.720,judgeSpeechMusic_20210407_logNormShiftAmp,2020.1.2,MacIntel,60,,,,,,,,,,,,,,,,,,,,,,,,,,2,6.871625,,0,0,108,108,20,1,stimuli/stim_20210407_power2amp/equal_lnn_AM1.2Hz_89.m4a,,,
,,,,,40392,2021-05-05_14h28.14.720,judgeSpeechMusic_20210407_logNormShiftAmp,2020.1.2,MacIntel,60,,,,,,,,,,,,,,,,,,,,,,,,,,1,10.6545,,0,0,109,109,18,1,stimuli/stim_20210407_power2amp/equal_lnn_AM1.2Hz_17.m4a,,,
,,,,,40392,2021-05-05_14h28.14.720,judgeSpeechMusic_20210407_logNormShiftAmp,2020.1.2,MacIntel,60,,,,,,,,,,,,,,,,,,,,,,,,,,2,6.90892,,0,0,110,110,57,1,stimuli/stim_20210407_power2amp/equal_lnn_AM2.4Hz_10.m4a,,,
,,,,,40392,2021-05-05_14h28.14.720,judgeSpeechMusic_20210407_logNormShiftAmp,2020.1.2,MacIntel,60,,,,,,,,,,,,,,,,,,,,,,,,,,2,16.963705,,0,0,111,111,52,1,stimuli/stim_20210407_power2amp/equal_lnn_AM2.4Hz_5.m4a,,,
,,,,,40392,2021-05-05_14h28.14.720,judgeSpeechMusic_20210407_logNormShiftAmp,2020.1.2,MacIntel,60,,,,,,,,,,,,,,,,,,,,,,,,,,2,7.83783,,0,0,112,112,136,1,stimuli/stim_20210407_power2amp/equal_lnn_AM6Hz_62.m4a,,,
,,,,,40392,2021-05-05_14h28.14.720,judgeSpeechMusic_20210407_logNormShiftAmp,2020.1.2,MacIntel,60,,,,,,,,,,,,,,,,,,,,,,,,,,2,5.89158,,0,0,113,113,114,1,stimuli/stim_20210407_power2amp/equal_lnn_AM4.8Hz_91.m4a,,,
,,,,,40392,2021-05-05_14h28.14.720,judgeSpeechMusic_20210407_logNormShiftAmp,2020.1.2,MacIntel,60,,,,,,,,,,,,,,,,,,,,,,,,,,2,6.915375,,0,0,114,114,146,1,stimuli/stim_20210407_power2amp/equal_lnn_AM6Hz_57.m4a,,,
,,,,,40392,2021-05-05_14h28.14.720,judgeSpeechMusic_20210407_logNormShiftAmp,2020.1.2,MacIntel,60,,,,,,,,,,,,,,,,,,,,,,,,,,2,6.87083,,0,0,115,115,139,1,stimuli/stim_20210407_power2amp/equal_lnn_AM6Hz_88.m4a,,,
,,,,,40392,2021-05-05_14h28.14.720,judgeSpeechMusic_20210407_logNormShiftAmp,2020.1.2,MacIntel,60,,,,,,,,,,,,,,,,,,,,,,,,,,1,6.12737,,0,0,116,116,58,1,stimuli/stim_20210407_power2amp/equal_lnn_AM2.4Hz_2.m4a,,,
,,,,,40392,2021-05-05_14h28.14.720,judgeSpeechMusic_20210407_logNormShiftAmp,2020.1.2,MacIntel,60,,,,,,,,,,,,,,,,,,,,,,,,,,2,6.679085,,0,0,117,117,98,1,stimuli/stim_20210407_power2amp/equal_lnn_AM4.2Hz_67.m4a,,,
,,,,,40392,2021-05-05_14h28.14.720,judgeSpeechMusic_20210407_logNormShiftAmp,2020.1.2,MacIntel,60,,,,,,,,,,,,,,,,,,,,,,,,,,1,6.852955,,0,0,118,118,14,1,stimuli/stim_20210407_power2amp/equal_lnn_AM0.6Hz_9.m4a,,,
,,,,,40392,2021-05-05_14h28.14.720,judgeSpeechMusic_20210407_logNormShiftAmp,2020.1.2,MacIntel,60,,,,,,,,,,,,,,,,,,,,,,,,,,2,13.088875,,0,0,119,119,111,1,stimuli/stim_20210407_power2amp/equal_lnn_AM4.8Hz_90.m4a,,,
,,,,,40392,2021-05-05_14h28.14.720,judgeSpeechMusic_20210407_logNormShiftAmp,2020.1.2,MacIntel,60,,,,,,,,,,,,,,,,,,,,,,,,,,2,13.53962,,0,0,120,120,71,1,stimuli/stim_20210407_power2amp/equal_lnn_AM3Hz_80.m4a,,,
,,,,,40392,2021-05-05_14h28.14.720,judgeSpeechMusic_20210407_logNormShiftAmp,2020.1.2,MacIntel,60,,,,,,,,,,,,,,,,,,,,,,,,,,1,10.65517,,0,0,121,121,87,1,stimuli/stim_20210407_power2amp/equal_lnn_AM3.6Hz_67.m4a,,,
,,,,,40392,2021-05-05_14h28.14.720,judgeSpeechMusic_20210407_logNormShiftAmp,2020.1.2,MacIntel,60,,,,,,,,,,,,,,,,,,,,,,,,,,1,6.855295,,0,0,122,122,43,1,stimuli/stim_20210407_power2amp/equal_lnn_AM1.8Hz_63.m4a,,,
,,,,,40392,2021-05-05_14h28.14.720,judgeSpeechMusic_20210407_logNormShiftAmp,2020.1.2,MacIntel,60,,,,,,,,,,,,,,,,,,,,,,,,,,1,6.371705,,0,0,123,123,7,1,stimuli/stim_20210407_power2amp/equal_lnn_AM0.6Hz_42.m4a,,,
,,,,,40392,2021-05-05_14h28.14.720,judgeSpeechMusic_20210407_logNormShiftAmp,2020.1.2,MacIntel,60,,,,,,,,,,,,,,,,,,,,,,,,,,1,16.349085,,0,0,124,124,77,1,stimuli/stim_20210407_power2amp/equal_lnn_AM3.6Hz_94.m4a,,,
,,,,,40392,2021-05-05_14h28.14.720,judgeSpeechMusic_20210407_logNormShiftAmp,2020.1.2,MacIntel,60,,,,,,,,,,,,,,,,,,,,,,,,,,2,7.41696,,0,0,125,125,140,1,stimuli/stim_20210407_power2amp/equal_lnn_AM6Hz_27.m4a,,,
,,,,,40392,2021-05-05_14h28.14.720,judgeSpeechMusic_20210407_logNormShiftAmp,2020.1.2,MacIntel,60,,,,,,,,,,,,,,,,,,,,,,,,,,1,7.494915,,0,0,126,126,69,1,stimuli/stim_20210407_power2amp/equal_lnn_AM3Hz_34.m4a,,,
,,,,,40392,2021-05-05_14h28.14.720,judgeSpeechMusic_20210407_logNormShiftAmp,2020.1.2,MacIntel,60,,,,,,,,,,,,,,,,,,,,,,,,,,1,13.51429,,0,0,127,127,85,1,stimuli/stim_20210407_power2amp/equal_lnn_AM3.6Hz_24.m4a,,,
,,,,,40392,2021-05-05_14h28.14.720,judgeSpeechMusic_20210407_logNormShiftAmp,2020.1.2,MacIntel,60,,,,,,,,,,,,,,,,,,,,,,,,,,1,20.08846,4,1,0,128,128,95,1,stimuli/stim_20210407_power2amp/equal_lnn_AM4.2Hz_80.m4a,1.22258,,
,,,,,40392,2021-05-05_14h28.14.720,judgeSpeechMusic_20210407_logNormShiftAmp,2020.1.2,MacIntel,60,,,,,,,,,,,,,,,,,,,,,,,,,,1,7.31188,,0,0,129,129,33,1,stimuli/stim_20210407_power2amp/equal_lnn_AM1.8Hz_67.m4a,,,
,,,,,40392,2021-05-05_14h28.14.720,judgeSpeechMusic_20210407_logNormShiftAmp,2020.1.2,MacIntel,60,,,,,,,,,,,,,,,,,,,,,,,,,,1,6.670835,,0,0,130,130,5,1,stimuli/stim_20210407_power2amp/equal_lnn_AM0.6Hz_13.m4a,,,
,,,,,40392,2021-05-05_14h28.14.720,judgeSpeechMusic_20210407_logNormShiftAmp,2020.1.2,MacIntel,60,,,,,,,,,,,,,,,,,,,,,,,,,,1,6.155955,,0,0,131,131,47,1,stimuli/stim_20210407_power2amp/equal_lnn_AM2.4Hz_26.m4a,,,
,,,,,40392,2021-05-05_14h28.14.720,judgeSpeechMusic_20210407_logNormShiftAmp,2020.1.2,MacIntel,60,,,,,,,,,,,,,,,,,,,,,,,,,,2,8.724245,,0,0,132,132,141,1,stimuli/stim_20210407_power2amp/equal_lnn_AM6Hz_70.m4a,,,
,,,,,40392,2021-05-05_14h28.14.720,judgeSpeechMusic_20210407_logNormShiftAmp,2020.1.2,MacIntel,60,,,,,,,,,,,,,,,,,,,,,,,,,,1,7.021005,,0,0,133,133,129,1,stimuli/stim_20210407_power2amp/equal_lnn_AM5.4Hz_60.m4a,,,
,,,,,40392,2021-05-05_14h28.14.720,judgeSpeechMusic_20210407_logNormShiftAmp,2020.1.2,MacIntel,60,,,,,,,,,,,,,,,,,,,,,,,,,,2,7.636085,,0,0,134,134,3,1,stimuli/stim_20210407_power2amp/equal_lnn_AM0.6Hz_22.m4a,,,
,,,,,40392,2021-05-05_14h28.14.720,judgeSpeechMusic_20210407_logNormShiftAmp,2020.1.2,MacIntel,60,,,,,,,,,,,,,,,,,,,,,,,,,,1,6.353165,,0,0,135,135,42,1,stimuli/stim_20210407_power2amp/equal_lnn_AM1.8Hz_12.m4a,,,
,,,,,40392,2021-05-05_14h28.14.720,judgeSpeechMusic_20210407_logNormShiftAmp,2020.1.2,MacIntel,60,,,,,,,,,,,,,,,,,,,,,,,,,,1,6.46904,,0,0,136,136,86,1,stimuli/stim_20210407_power2amp/equal_lnn_AM3.6Hz_73.m4a,,,
,,,,,40392,2021-05-05_14h28.14.720,judgeSpeechMusic_20210407_logNormShiftAmp,2020.1.2,MacIntel,60,,,,,,,,,,,,,,,,,,,,,,,,,,2,7.053875,,0,0,137,137,138,1,stimuli/stim_20210407_power2amp/equal_lnn_AM6Hz_68.m4a,,,
,,,,,40392,2021-05-05_14h28.14.720,judgeSpeechMusic_20210407_logNormShiftAmp,2020.1.2,MacIntel,60,,,,,,,,,,,,,,,,,,,,,,,,,,2,6.23587,,0,0,138,138,83,1,stimuli/stim_20210407_power2amp/equal_lnn_AM3.6Hz_14.m4a,,,
,,,,,40392,2021-05-05_14h28.14.720,judgeSpeechMusic_20210407_logNormShiftAmp,2020.1.2,MacIntel,60,,,,,,,,,,,,,,,,,,,,,,,,,,1,8.575625,,0,0,139,139,41,1,stimuli/stim_20210407_power2amp/equal_lnn_AM1.8Hz_87.m4a,,,
,,,,,40392,2021-05-05_14h28.14.720,judgeSpeechMusic_20210407_logNormShiftAmp,2020.1.2,MacIntel,60,,,,,,,,,,,,,,,,,,,,,,,,,,1,6.776835,,0,0,140,140,49,1,stimuli/stim_20210407_power2amp/equal_lnn_AM2.4Hz_100.m4a,,,
,,,,,40392,2021-05-05_14h28.14.720,judgeSpeechMusic_20210407_logNormShiftAmp,2020.1.2,MacIntel,60,,,,,,,,,,,,,,,,,,,,,,,,,,2,7.452755,,0,0,141,141,4,1,stimuli/stim_20210407_power2amp/equal_lnn_AM0.6Hz_80.m4a,,,
,,,,,40392,2021-05-05_14h28.14.720,judgeSpeechMusic_20210407_logNormShiftAmp,2020.1.2,MacIntel,60,,,,,,,,,,,,,,,,,,,,,,,,,,1,6.205165,,0,0,142,142,66,1,stimuli/stim_20210407_power2amp/equal_lnn_AM3Hz_36.m4a,,,
,,,,,40392,2021-05-05_14h28.14.720,judgeSpeechMusic_20210407_logNormShiftAmp,2020.1.2,MacIntel,60,,,,,,,,,,,,,,,,,,,,,,,,,,1,6.052955,,0,0,143,143,143,1,stimuli/stim_20210407_power2amp/equal_lnn_AM6Hz_56.m4a,,,
,,,,,40392,2021-05-05_14h28.14.720,judgeSpeechMusic_20210407_logNormShiftAmp,2020.1.2,MacIntel,60,,,,,,,,,,,,,,,,,,,,,,,,,,1,6.124335,,0,0,144,144,17,1,stimuli/stim_20210407_power2amp/equal_lnn_AM1.2Hz_12.m4a,,,
,,,,,40392,2021-05-05_14h28.14.720,judgeSpeechMusic_20210407_logNormShiftAmp,2020.1.2,MacIntel,60,,,,,,,,,,,,,,,,,,,,,,,,,,1,6.48679,,0,0,145,145,115,1,stimuli/stim_20210407_power2amp/equal_lnn_AM4.8Hz_77.m4a,,,
,,,,,40392,2021-05-05_14h28.14.720,judgeSpeechMusic_20210407_logNormShiftAmp,2020.1.2,MacIntel,60,,,,,,,,,,,,,,,,,,,,,,,,,,1,12.285795,,0,0,146,146,74,1,stimuli/stim_20210407_power2amp/equal_lnn_AM3Hz_9.m4a,,,
,,,,,40392,2021-05-05_14h28.14.720,judgeSpeechMusic_20210407_logNormShiftAmp,2020.1.2,MacIntel,60,,,,,,,,,,,,,,,,,,,,,,,,,,1,7.56383,,0,0,147,147,73,1,stimuli/stim_20210407_power2amp/equal_lnn_AM3Hz_27.m4a,,,
,,,,,40392,2021-05-05_14h28.14.720,judgeSpeechMusic_20210407_logNormShiftAmp,2020.1.2,MacIntel,60,,,,,,,,,,,,,,,,,,,,,,,,,,1,5.977415,,0,0,148,148,133,1,stimuli/stim_20210407_power2amp/equal_lnn_AM5.4Hz_77.m4a,,,
,,,,,40392,2021-05-05_14h28.14.720,judgeSpeechMusic_20210407_logNormShiftAmp,2020.1.2,MacIntel,60,,,,,,,,,,,,,,,,,,,,,,,,,,1,6.67229,,0,0,149,149,100,1,stimuli/stim_20210407_power2amp/equal_lnn_AM4.2Hz_15.m4a,,,
,,,,,40392,2021-05-05_14h28.14.720,judgeSpeechMusic_20210407_logNormShiftAmp,2020.1.2,MacIntel,60,,,,,,,,,,,,,,,,,,,,,,,,,,2,6.087455,1,1,1,0,150,125,1,stimuli/stim_20210407_power2amp/equal_lnn_AM5.4Hz_55.m4a,1.76621,,
,,,,,40392,2021-05-05_14h28.14.720,judgeSpeechMusic_20210407_logNormShiftAmp,2020.1.2,MacIntel,60,,,,,,,,,,,,,,,,,,,,,,,,,,1,8.094545,,0,1,1,151,134,1,stimuli/stim_20210407_power2amp/equal_lnn_AM5.4Hz_57.m4a,,,
,,,,,40392,2021-05-05_14h28.14.720,judgeSpeechMusic_20210407_logNormShiftAmp,2020.1.2,MacIntel,60,,,,,,,,,,,,,,,,,,,,,,,,,,1,6.68696,,0,1,2,152,117,1,stimuli/stim_20210407_power2amp/equal_lnn_AM4.8Hz_39.m4a,,,
,,,,,40392,2021-05-05_14h28.14.720,judgeSpeechMusic_20210407_logNormShiftAmp,2020.1.2,MacIntel,60,,,,,,,,,,,,,,,,,,,,,,,,,,1,6.573375,,0,1,3,153,81,1,stimuli/stim_20210407_power2amp/equal_lnn_AM3.6Hz_13.m4a,,,
,,,,,40392,2021-05-05_14h28.14.720,judgeSpeechMusic_20210407_logNormShiftAmp,2020.1.2,MacIntel,60,,,,,,,,,,,,,,,,,,,,,,,,,,1,7.195795,,0,1,4,154,15,1,stimuli/stim_20210407_power2amp/equal_lnn_AM1.2Hz_92.m4a,,,
,,,,,40392,2021-05-05_14h28.14.720,judgeSpeechMusic_20210407_logNormShiftAmp,2020.1.2,MacIntel,60,,,,,,,,,,,,,,,,,,,,,,,,,,2,7.18846,,0,1,5,155,25,1,stimuli/stim_20210407_power2amp/equal_lnn_AM1.2Hz_11.m4a,,,
,,,,,40392,2021-05-05_14h28.14.720,judgeSpeechMusic_20210407_logNormShiftAmp,2020.1.2,MacIntel,60,,,,,,,,,,,,,,,,,,,,,,,,,,1,6.618585,,0,1,6,156,30,1,stimuli/stim_20210407_power2amp/equal_lnn_AM1.8Hz_74.m4a,,,
,,,,,40392,2021-05-05_14h28.14.720,judgeSpeechMusic_20210407_logNormShiftAmp,2020.1.2,MacIntel,60,,,,,,,,,,,,,,,,,,,,,,,,,,1,5.66817,,0,1,7,157,6,1,stimuli/stim_20210407_power2amp/equal_lnn_AM0.6Hz_97.m4a,,,
,,,,,40392,2021-05-05_14h28.14.720,judgeSpeechMusic_20210407_logNormShiftAmp,2020.1.2,MacIntel,60,,,,,,,,,,,,,,,,,,,,,,,,,,2,10.37121,,0,1,8,158,57,1,stimuli/stim_20210407_power2amp/equal_lnn_AM2.4Hz_10.m4a,,,
,,,,,40392,2021-05-05_14h28.14.720,judgeSpeechMusic_20210407_logNormShiftAmp,2020.1.2,MacIntel,60,,,,,,,,,,,,,,,,,,,,,,,,,,2,10.25388,,0,1,9,159,64,1,stimuli/stim_20210407_power2amp/equal_lnn_AM3Hz_26.m4a,,,
,,,,,40392,2021-05-05_14h28.14.720,judgeSpeechMusic_20210407_logNormShiftAmp,2020.1.2,MacIntel,60,,,,,,,,,,,,,,,,,,,,,,,,,,1,9.76279,,0,1,10,160,106,1,stimuli/stim_20210407_power2amp/equal_lnn_AM4.8Hz_51.m4a,,,
,,,,,40392,2021-05-05_14h28.14.720,judgeSpeechMusic_20210407_logNormShiftAmp,2020.1.2,MacIntel,60,,,,,,,,,,,,,,,,,,,,,,,,,,2,6.520285,,0,1,11,161,136,1,stimuli/stim_20210407_power2amp/equal_lnn_AM6Hz_62.m4a,,,
,,,,,40392,2021-05-05_14h28.14.720,judgeSpeechMusic_20210407_logNormShiftAmp,2020.1.2,MacIntel,60,,,,,,,,,,,,,,,,,,,,,,,,,,1,6.30058,,0,1,12,162,35,1,stimuli/stim_20210407_power2amp/equal_lnn_AM1.8Hz_92.m4a,,,
,,,,,40392,2021-05-05_14h28.14.720,judgeSpeechMusic_20210407_logNormShiftAmp,2020.1.2,MacIntel,60,,,,,,,,,,,,,,,,,,,,,,,,,,1,5.705085,,0,1,13,163,88,1,stimuli/stim_20210407_power2amp/equal_lnn_AM3.6Hz_48.m4a,,,
,,,,,40392,2021-05-05_14h28.14.720,judgeSpeechMusic_20210407_logNormShiftAmp,2020.1.2,MacIntel,60,,,,,,,,,,,,,,,,,,,,,,,,,,1,6.13821,,0,1,14,164,143,1,stimuli/stim_20210407_power2amp/equal_lnn_AM6Hz_56.m4a,,,
,,,,,40392,2021-05-05_14h28.14.720,judgeSpeechMusic_20210407_logNormShiftAmp,2020.1.2,MacIntel,60,,,,,,,,,,,,,,,,,,,,,,,,,,2,20.176335,,0,1,15,165,140,1,stimuli/stim_20210407_power2amp/equal_lnn_AM6Hz_27.m4a,,,
,,,,,40392,2021-05-05_14h28.14.720,judgeSpeechMusic_20210407_logNormShiftAmp,2020.1.2,MacIntel,60,,,,,,,,,,,,,,,,,,,,,,,,,,1,20.23692,,0,1,16,166,47,1,stimuli/stim_20210407_power2amp/equal_lnn_AM2.4Hz_26.m4a,,,
,,,,,40392,2021-05-05_14h28.14.720,judgeSpeechMusic_20210407_logNormShiftAmp,2020.1.2,MacIntel,60,,,,,,,,,,,,,,,,,,,,,,,,,,1,12.841085,,0,1,17,167,61,1,stimuli/stim_20210407_power2amp/equal_lnn_AM3Hz_64.m4a,,,
,,,,,40392,2021-05-05_14h28.14.720,judgeSpeechMusic_20210407_logNormShiftAmp,2020.1.2,MacIntel,60,,,,,,,,,,,,,,,,,,,,,,,,,,2,9.47721,,0,1,18,168,65,1,stimuli/stim_20210407_power2amp/equal_lnn_AM3Hz_46.m4a,,,
,,,,,40392,2021-05-05_14h28.14.720,judgeSpeechMusic_20210407_logNormShiftAmp,2020.1.2,MacIntel,60,,,,,,,,,,,,,,,,,,,,,,,,,,2,6.02204,,0,1,19,169,124,1,stimuli/stim_20210407_power2amp/equal_lnn_AM5.4Hz_47.m4a,,,
,,,,,40392,2021-05-05_14h28.14.720,judgeSpeechMusic_20210407_logNormShiftAmp,2020.1.2,MacIntel,60,,,,,,,,,,,,,,,,,,,,,,,,,,2,6.73783,,0,1,20,170,77,1,stimuli/stim_20210407_power2amp/equal_lnn_AM3.6Hz_94.m4a,,,
,,,,,40392,2021-05-05_14h28.14.720,judgeSpeechMusic_20210407_logNormShiftAmp,2020.1.2,MacIntel,60,,,,,,,,,,,,,,,,,,,,,,,,,,1,6.823585,,0,1,21,171,128,1,stimuli/stim_20210407_power2amp/equal_lnn_AM5.4Hz_23.m4a,,,
,,,,,40392,2021-05-05_14h28.14.720,judgeSpeechMusic_20210407_logNormShiftAmp,2020.1.2,MacIntel,60,,,,,,,,,,,,,,,,,,,,,,,,,,2,6.694335,,0,1,22,172,85,1,stimuli/stim_20210407_power2amp/equal_lnn_AM3.6Hz_24.m4a,,,
,,,,,40392,2021-05-05_14h28.14.720,judgeSpeechMusic_20210407_logNormShiftAmp,2020.1.2,MacIntel,60,,,,,,,,,,,,,,,,,,,,,,,,,,1,7.568625,,0,1,23,173,86,1,stimuli/stim_20210407_power2amp/equal_lnn_AM3.6Hz_73.m4a,,,
,,,,,40392,2021-05-05_14h28.14.720,judgeSpeechMusic_20210407_logNormShiftAmp,2020.1.2,MacIntel,60,,,,,,,,,,,,,,,,,,,,,,,,,,1,6.594205,,0,1,24,174,119,1,stimuli/stim_20210407_power2amp/equal_lnn_AM4.8Hz_64.m4a,,,
,,,,,40392,2021-05-05_14h28.14.720,judgeSpeechMusic_20210407_logNormShiftAmp,2020.1.2,MacIntel,60,,,,,,,,,,,,,,,,,,,,,,,,,,1,5.79367,4,1,1,25,175,67,1,stimuli/stim_20210407_power2amp/equal_lnn_AM3Hz_18.m4a,2.006705,,
,,,,,40392,2021-05-05_14h28.14.720,judgeSpeechMusic_20210407_logNormShiftAmp,2020.1.2,MacIntel,60,,,,,,,,,,,,,,,,,,,,,,,,,,1,10.3375,,0,1,26,176,41,1,stimuli/stim_20210407_power2amp/equal_lnn_AM1.8Hz_87.m4a,,,
,,,,,40392,2021-05-05_14h28.14.720,judgeSpeechMusic_20210407_logNormShiftAmp,2020.1.2,MacIntel,60,,,,,,,,,,,,,,,,,,,,,,,,,,2,27.348875,,0,1,27,177,28,1,stimuli/stim_20210407_power2amp/equal_lnn_AM1.2Hz_47.m4a,,,
,,,,,40392,2021-05-05_14h28.14.720,judgeSpeechMusic_20210407_logNormShiftAmp,2020.1.2,MacIntel,60,,,,,,,,,,,,,,,,,,,,,,,,,,2,28.39092,,0,1,28,178,66,1,stimuli/stim_20210407_power2amp/equal_lnn_AM3Hz_36.m4a,,,
,,,,,40392,2021-05-05_14h28.14.720,judgeSpeechMusic_20210407_logNormShiftAmp,2020.1.2,MacIntel,60,,,,,,,,,,,,,,,,,,,,,,,,,,1,6.23871,,0,1,29,179,63,1,stimuli/stim_20210407_power2amp/equal_lnn_AM3Hz_7.m4a,,,
,,,,,40392,2021-05-05_14h28.14.720,judgeSpeechMusic_20210407_logNormShiftAmp,2020.1.2,MacIntel,60,,,,,,,,,,,,,,,,,,,,,,,,,,1,6.325,,0,1,30,180,116,1,stimuli/stim_20210407_power2amp/equal_lnn_AM4.8Hz_42.m4a,,,
,,,,,40392,2021-05-05_14h28.14.720,judgeSpeechMusic_20210407_logNormShiftAmp,2020.1.2,MacIntel,60,,,,,,,,,,,,,,,,,,,,,,,,,,1,5.95875,,0,1,31,181,7,1,stimuli/stim_20210407_power2amp/equal_lnn_AM0.6Hz_42.m4a,,,
,,,,,40392,2021-05-05_14h28.14.720,judgeSpeechMusic_20210407_logNormShiftAmp,2020.1.2,MacIntel,60,,,,,,,,,,,,,,,,,,,,,,,,,,1,8.55475,,0,1,32,182,83,1,stimuli/stim_20210407_power2amp/equal_lnn_AM3.6Hz_14.m4a,,,
,,,,,40392,2021-05-05_14h28.14.720,judgeSpeechMusic_20210407_logNormShiftAmp,2020.1.2,MacIntel,60,,,,,,,,,,,,,,,,,,,,,,,,,,1,10.79591,,0,1,33,183,96,1,stimuli/stim_20210407_power2amp/equal_lnn_AM4.2Hz_17.m4a,,,
,,,,,40392,2021-05-05_14h28.14.720,judgeSpeechMusic_20210407_logNormShiftAmp,2020.1.2,MacIntel,60,,,,,,,,,,,,,,,,,,,,,,,,,,1,5.770205,,0,1,34,184,120,1,stimuli/stim_20210407_power2amp/equal_lnn_AM5.4Hz_85.m4a,,,
,,,,,40392,2021-05-05_14h28.14.720,judgeSpeechMusic_20210407_logNormShiftAmp,2020.1.2,MacIntel,60,,,,,,,,,,,,,,,,,,,,,,,,,,1,8.444665,,0,1,35,185,138,1,stimuli/stim_20210407_power2amp/equal_lnn_AM6Hz_68.m4a,,,
,,,,,40392,2021-05-05_14h28.14.720,judgeSpeechMusic_20210407_logNormShiftAmp,2020.1.2,MacIntel,60,,,,,,,,,,,,,,,,,,,,,,,,,,1,6.20421,,0,1,36,186,130,1,stimuli/stim_20210407_power2amp/equal_lnn_AM5.4Hz_59.m4a,,,
,,,,,40392,2021-05-05_14h28.14.720,judgeSpeechMusic_20210407_logNormShiftAmp,2020.1.2,MacIntel,60,,,,,,,,,,,,,,,,,,,,,,,,,,1,5.785125,,0,1,37,187,17,1,stimuli/stim_20210407_power2amp/equal_lnn_AM1.2Hz_12.m4a,,,
,,,,,40392,2021-05-05_14h28.14.720,judgeSpeechMusic_20210407_logNormShiftAmp,2020.1.2,MacIntel,60,,,,,,,,,,,,,,,,,,,,,,,,,,1,6.59513,,0,1,38,188,56,1,stimuli/stim_20210407_power2amp/equal_lnn_AM2.4Hz_18.m4a,,,
,,,,,40392,2021-05-05_14h28.14.720,judgeSpeechMusic_20210407_logNormShiftAmp,2020.1.2,MacIntel,60,,,,,,,,,,,,,,,,,,,,,,,,,,1,6.16925,,0,1,39,189,1,1,stimuli/stim_20210407_power2amp/equal_lnn_AM0.6Hz_92.m4a,,,
,,,,,40392,2021-05-05_14h28.14.720,judgeSpeechMusic_20210407_logNormShiftAmp,2020.1.2,MacIntel,60,,,,,,,,,,,,,,,,,,,,,,,,,,2,10.18692,,0,1,40,190,97,1,stimuli/stim_20210407_power2amp/equal_lnn_AM4.2Hz_86.m4a,,,
,,,,,40392,2021-05-05_14h28.14.720,judgeSpeechMusic_20210407_logNormShiftAmp,2020.1.2,MacIntel,60,,,,,,,,,,,,,,,,,,,,,,,,,,2,6.405495,,0,1,41,191,91,1,stimuli/stim_20210407_power2amp/equal_lnn_AM4.2Hz_68.m4a,,,
,,,,,40392,2021-05-05_14h28.14.720,judgeSpeechMusic_20210407_logNormShiftAmp,2020.1.2,MacIntel,60,,,,,,,,,,,,,,,,,,,,,,,,,,1,5.89367,,0,1,42,192,32,1,stimuli/stim_20210407_power2amp/equal_lnn_AM1.8Hz_93.m4a,,,
,,,,,40392,2021-05-05_14h28.14.720,judgeSpeechMusic_20210407_logNormShiftAmp,2020.1.2,MacIntel,60,,,,,,,,,,,,,,,,,,,,,,,,,,1,5.919875,,0,1,43,193,101,1,stimuli/stim_20210407_power2amp/equal_lnn_AM4.2Hz_4.m4a,,,
,,,,,40392,2021-05-05_14h28.14.720,judgeSpeechMusic_20210407_logNormShiftAmp,2020.1.2,MacIntel,60,,,,,,,,,,,,,,,,,,,,,,,,,,1,6.914165,,0,1,44,194,123,1,stimuli/stim_20210407_power2amp/equal_lnn_AM5.4Hz_33.m4a,,,
,,,,,40392,2021-05-05_14h28.14.720,judgeSpeechMusic_20210407_logNormShiftAmp,2020.1.2,MacIntel,60,,,,,,,,,,,,,,,,,,,,,,,,,,2,35.487705,,0,1,45,195,98,1,stimuli/stim_20210407_power2amp/equal_lnn_AM4.2Hz_67.m4a,,,
,,,,,40392,2021-05-05_14h28.14.720,judgeSpeechMusic_20210407_logNormShiftAmp,2020.1.2,MacIntel,60,,,,,,,,,,,,,,,,,,,,,,,,,,2,13.302085,,0,1,46,196,99,1,stimuli/stim_20210407_power2amp/equal_lnn_AM4.2Hz_69.m4a,,,
,,,,,40392,2021-05-05_14h28.14.720,judgeSpeechMusic_20210407_logNormShiftAmp,2020.1.2,MacIntel,60,,,,,,,,,,,,,,,,,,,,,,,,,,1,6.39017,,0,1,47,197,62,1,stimuli/stim_20210407_power2amp/equal_lnn_AM3Hz_48.m4a,,,
,,,,,40392,2021-05-05_14h28.14.720,judgeSpeechMusic_20210407_logNormShiftAmp,2020.1.2,MacIntel,60,,,,,,,,,,,,,,,,,,,,,,,,,,1,8.186295,,0,1,48,198,37,1,stimuli/stim_20210407_power2amp/equal_lnn_AM1.8Hz_96.m4a,,,
,,,,,40392,2021-05-05_14h28.14.720,judgeSpeechMusic_20210407_logNormShiftAmp,2020.1.2,MacIntel,60,,,,,,,,,,,,,,,,,,,,,,,,,,2,8.455165,,0,1,49,199,90,1,stimuli/stim_20210407_power2amp/equal_lnn_AM4.2Hz_13.m4a,,,
,,,,,40392,2021-05-05_14h28.14.720,judgeSpeechMusic_20210407_logNormShiftAmp,2020.1.2,MacIntel,60,,,,,,,,,,,,,,,,,,,,,,,,,,1,10.77346,4,1,1,50,200,45,1,stimuli/stim_20210407_power2amp/equal_lnn_AM2.4Hz_83.m4a,1.75579,,
,,,,,40392,2021-05-05_14h28.14.720,judgeSpeechMusic_20210407_logNormShiftAmp,2020.1.2,MacIntel,60,,,,,,,,,,,,,,,,,,,,,,,,,,2,8.40975,,0,1,51,201,27,1,stimuli/stim_20210407_power2amp/equal_lnn_AM1.2Hz_23.m4a,,,
,,,,,40392,2021-05-05_14h28.14.720,judgeSpeechMusic_20210407_logNormShiftAmp,2020.1.2,MacIntel,60,,,,,,,,,,,,,,,,,,,,,,,,,,1,5.925455,,0,1,52,202,2,1,stimuli/stim_20210407_power2amp/equal_lnn_AM0.6Hz_46.m4a,,,
,,,,,40392,2021-05-05_14h28.14.720,judgeSpeechMusic_20210407_logNormShiftAmp,2020.1.2,MacIntel,60,,,,,,,,,,,,,,,,,,,,,,,,,,2,31.90696,,0,1,53,203,16,1,stimuli/stim_20210407_power2amp/equal_lnn_AM1.2Hz_14.m4a,,,
,,,,,40392,2021-05-05_14h28.14.720,judgeSpeechMusic_20210407_logNormShiftAmp,2020.1.2,MacIntel,60,,,,,,,,,,,,,,,,,,,,,,,,,,1,6.067,,0,1,54,204,48,1,stimuli/stim_20210407_power2amp/equal_lnn_AM2.4Hz_51.m4a,,,
,,,,,40392,2021-05-05_14h28.14.720,judgeSpeechMusic_20210407_logNormShiftAmp,2020.1.2,MacIntel,60,,,,,,,,,,,,,,,,,,,,,,,,,,1,5.742705,,0,1,55,205,100,1,stimuli/stim_20210407_power2amp/equal_lnn_AM4.2Hz_15.m4a,,,
,,,,,40392,2021-05-05_14h28.14.720,judgeSpeechMusic_20210407_logNormShiftAmp,2020.1.2,MacIntel,60,,,,,,,,,,,,,,,,,,,,,,,,,,1,8.465665,,0,1,56,206,19,1,stimuli/stim_20210407_power2amp/equal_lnn_AM1.2Hz_16.m4a,,,
,,,,,40392,2021-05-05_14h28.14.720,judgeSpeechMusic_20210407_logNormShiftAmp,2020.1.2,MacIntel,60,,,,,,,,,,,,,,,,,,,,,,,,,,2,7.734915,,0,1,57,207,122,1,stimuli/stim_20210407_power2amp/equal_lnn_AM5.4Hz_81.m4a,,,
,,,,,40392,2021-05-05_14h28.14.720,judgeSpeechMusic_20210407_logNormShiftAmp,2020.1.2,MacIntel,60,,,,,,,,,,,,,,,,,,,,,,,,,,1,6.04171,,0,1,58,208,39,1,stimuli/stim_20210407_power2amp/equal_lnn_AM1.8Hz_91.m4a,,,
,,,,,40392,2021-05-05_14h28.14.720,judgeSpeechMusic_20210407_logNormShiftAmp,2020.1.2,MacIntel,60,,,,,,,,,,,,,,,,,,,,,,,,,,1,7.10279,,0,1,59,209,133,1,stimuli/stim_20210407_power2amp/equal_lnn_AM5.4Hz_77.m4a,,,
,,,,,40392,2021-05-05_14h28.14.720,judgeSpeechMusic_20210407_logNormShiftAmp,2020.1.2,MacIntel,60,,,,,,,,,,,,,,,,,,,,,,,,,,1,15.83746,,0,1,60,210,24,1,stimuli/stim_20210407_power2amp/equal_lnn_AM1.2Hz_8.m4a,,,
,,,,,40392,2021-05-05_14h28.14.720,judgeSpeechMusic_20210407_logNormShiftAmp,2020.1.2,MacIntel,60,,,,,,,,,,,,,,,,,,,,,,,,,,1,8.46071,,0,1,61,211,135,1,stimuli/stim_20210407_power2amp/equal_lnn_AM6Hz_95.m4a,,,
,,,,,40392,2021-05-05_14h28.14.720,judgeSpeechMusic_20210407_logNormShiftAmp,2020.1.2,MacIntel,60,,,,,,,,,,,,,,,,,,,,,,,,,,2,6.931705,,0,1,62,212,104,1,stimuli/stim_20210407_power2amp/equal_lnn_AM4.2Hz_47.m4a,,,
,,,,,40392,2021-05-05_14h28.14.720,judgeSpeechMusic_20210407_logNormShiftAmp,2020.1.2,MacIntel,60,,,,,,,,,,,,,,,,,,,,,,,,,,1,5.95321,,0,1,63,213,58,1,stimuli/stim_20210407_power2amp/equal_lnn_AM2.4Hz_2.m4a,,,
,,,,,40392,2021-05-05_14h28.14.720,judgeSpeechMusic_20210407_logNormShiftAmp,2020.1.2,MacIntel,60,,,,,,,,,,,,,,,,,,,,,,,,,,1,6.269215,,0,1,64,214,43,1,stimuli/stim_20210407_power2amp/equal_lnn_AM1.8Hz_63.m4a,,,
,,,,,40392,2021-05-05_14h28.14.720,judgeSpeechMusic_20210407_logNormShiftAmp,2020.1.2,MacIntel,60,,,,,,,,,,,,,,,,,,,,,,,,,,1,5.70204,,0,1,65,215,34,1,stimuli/stim_20210407_power2amp/equal_lnn_AM1.8Hz_36.m4a,,,
,,,,,40392,2021-05-05_14h28.14.720,judgeSpeechMusic_20210407_logNormShiftAmp,2020.1.2,MacIntel,60,,,,,,,,,,,,,,,,,,,,,,,,,,2,8.70675,,0,1,66,216,102,1,stimuli/stim_20210407_power2amp/equal_lnn_AM4.2Hz_72.m4a,,,
,,,,,40392,2021-05-05_14h28.14.720,judgeSpeechMusic_20210407_logNormShiftAmp,2020.1.2,MacIntel,60,,,,,,,,,,,,,,,,,,,,,,,,,,1,6.02679,,0,1,67,217,3,1,stimuli/stim_20210407_power2amp/equal_lnn_AM0.6Hz_22.m4a,,,
,,,,,40392,2021-05-05_14h28.14.720,judgeSpeechMusic_20210407_logNormShiftAmp,2020.1.2,MacIntel,60,,,,,,,,,,,,,,,,,,,,,,,,,,2,9.82042,,0,1,68,218,76,1,stimuli/stim_20210407_power2amp/equal_lnn_AM3.6Hz_62.m4a,,,
,,,,,40392,2021-05-05_14h28.14.720,judgeSpeechMusic_20210407_logNormShiftAmp,2020.1.2,MacIntel,60,,,,,,,,,,,,,,,,,,,,,,,,,,1,8.17829,,0,1,69,219,142,1,stimuli/stim_20210407_power2amp/equal_lnn_AM6Hz_53.m4a,,,
,,,,,40392,2021-05-05_14h28.14.720,judgeSpeechMusic_20210407_logNormShiftAmp,2020.1.2,MacIntel,60,,,,,,,,,,,,,,,,,,,,,,,,,,2,6.268795,,0,1,70,220,105,1,stimuli/stim_20210407_power2amp/equal_lnn_AM4.8Hz_27.m4a,,,
,,,,,40392,2021-05-05_14h28.14.720,judgeSpeechMusic_20210407_logNormShiftAmp,2020.1.2,MacIntel,60,,,,,,,,,,,,,,,,,,,,,,,,,,1,6.502085,1,1,1,71,221,10,1,stimuli/stim_20210407_power2amp/equal_lnn_AM0.6Hz_21.m4a,1.35654,,
,,,,,40392,2021-05-05_14h28.14.720,judgeSpeechMusic_20210407_logNormShiftAmp,2020.1.2,MacIntel,60,,,,,,,,,,,,,,,,,,,,,,,,,,1,10.213165,,0,1,72,222,73,1,stimuli/stim_20210407_power2amp/equal_lnn_AM3Hz_27.m4a,,,
,,,,,40392,2021-05-05_14h28.14.720,judgeSpeechMusic_20210407_logNormShiftAmp,2020.1.2,MacIntel,60,,,,,,,,,,,,,,,,,,,,,,,,,,1,7.84971,,0,1,73,223,38,1,stimuli/stim_20210407_power2amp/equal_lnn_AM1.8Hz_59.m4a,,,
,,,,,40392,2021-05-05_14h28.14.720,judgeSpeechMusic_20210407_logNormShiftAmp,2020.1.2,MacIntel,60,,,,,,,,,,,,,,,,,,,,,,,,,,1,23.84533,,0,1,74,224,115,1,stimuli/stim_20210407_power2amp/equal_lnn_AM4.8Hz_77.m4a,,,
,,,,,40392,2021-05-05_14h28.14.720,judgeSpeechMusic_20210407_logNormShiftAmp,2020.1.2,MacIntel,60,,,,,,,,,,,,,,,,,,,,,,,,,,1,6.62896,,0,1,75,225,109,1,stimuli/stim_20210407_power2amp/equal_lnn_AM4.8Hz_82.m4a,,,
,,,,,40392,2021-05-05_14h28.14.720,judgeSpeechMusic_20210407_logNormShiftAmp,2020.1.2,MacIntel,60,,,,,,,,,,,,,,,,,,,,,,,,,,1,79.04504,,0,1,76,226,79,1,stimuli/stim_20210407_power2amp/equal_lnn_AM3.6Hz_40.m4a,,,
,,,,,40392,2021-05-05_14h28.14.720,judgeSpeechMusic_20210407_logNormShiftAmp,2020.1.2,MacIntel,60,,,,,,,,,,,,,,,,,,,,,,,,,,1,6.228875,,0,1,77,227,9,1,stimuli/stim_20210407_power2amp/equal_lnn_AM0.6Hz_93.m4a,,,
,,,,,40392,2021-05-05_14h28.14.720,judgeSpeechMusic_20210407_logNormShiftAmp,2020.1.2,MacIntel,60,,,,,,,,,,,,,,,,,,,,,,,,,,2,71.439085,,0,1,78,228,23,1,stimuli/stim_20210407_power2amp/equal_lnn_AM1.2Hz_53.m4a,,,
,,,,,40392,2021-05-05_14h28.14.720,judgeSpeechMusic_20210407_logNormShiftAmp,2020.1.2,MacIntel,60,,,,,,,,,,,,,,,,,,,,,,,,,,2,20.29646,,0,1,79,229,129,1,stimuli/stim_20210407_power2amp/equal_lnn_AM5.4Hz_60.m4a,,,
,,,,,40392,2021-05-05_14h28.14.720,judgeSpeechMusic_20210407_logNormShiftAmp,2020.1.2,MacIntel,60,,,,,,,,,,,,,,,,,,,,,,,,,,2,5.91679,,0,1,80,230,0,1,stimuli/stim_20210407_power2amp/equal_lnn_AM0.6Hz_29.m4a,,,
,,,,,40392,2021-05-05_14h28.14.720,judgeSpeechMusic_20210407_logNormShiftAmp,2020.1.2,MacIntel,60,,,,,,,,,,,,,,,,,,,,,,,,,,1,7.637585,,0,1,81,231,50,1,stimuli/stim_20210407_power2amp/equal_lnn_AM2.4Hz_35.m4a,,,
,,,,,40392,2021-05-05_14h28.14.720,judgeSpeechMusic_20210407_logNormShiftAmp,2020.1.2,MacIntel,60,,,,,,,,,,,,,,,,,,,,,,,,,,1,5.656665,,0,1,82,232,89,1,stimuli/stim_20210407_power2amp/equal_lnn_AM3.6Hz_47.m4a,,,
,,,,,40392,2021-05-05_14h28.14.720,judgeSpeechMusic_20210407_logNormShiftAmp,2020.1.2,MacIntel,60,,,,,,,,,,,,,,,,,,,,,,,,,,1,5.926005,,0,1,83,233,5,1,stimuli/stim_20210407_power2amp/equal_lnn_AM0.6Hz_13.m4a,,,
,,,,,40392,2021-05-05_14h28.14.720,judgeSpeechMusic_20210407_logNormShiftAmp,2020.1.2,MacIntel,60,,,,,,,,,,,,,,,,,,,,,,,,,,2,6.239085,,0,1,84,234,21,1,stimuli/stim_20210407_power2amp/equal_lnn_AM1.2Hz_6.m4a,,,
,,,,,40392,2021-05-05_14h28.14.720,judgeSpeechMusic_20210407_logNormShiftAmp,2020.1.2,MacIntel,60,,,,,,,,,,,,,,,,,,,,,,,,,,1,5.98829,,0,1,85,235,22,1,stimuli/stim_20210407_power2amp/equal_lnn_AM1.2Hz_41.m4a,,,
,,,,,40392,2021-05-05_14h28.14.720,judgeSpeechMusic_20210407_logNormShiftAmp,2020.1.2,MacIntel,60,,,,,,,,,,,,,,,,,,,,,,,,,,2,7.27542,,0,1,86,236,107,1,stimuli/stim_20210407_power2amp/equal_lnn_AM4.8Hz_30.m4a,,,
,,,,,40392,2021-05-05_14h28.14.720,judgeSpeechMusic_20210407_logNormShiftAmp,2020.1.2,MacIntel,60,,,,,,,,,,,,,,,,,,,,,,,,,,2,5.720455,,0,1,87,237,127,1,stimuli/stim_20210407_power2amp/equal_lnn_AM5.4Hz_9.m4a,,,
,,,,,40392,2021-05-05_14h28.14.720,judgeSpeechMusic_20210407_logNormShiftAmp,2020.1.2,MacIntel,60,,,,,,,,,,,,,,,,,,,,,,,,,,1,13.803335,,0,1,88,238,74,1,stimuli/stim_20210407_power2amp/equal_lnn_AM3Hz_9.m4a,,,
,,,,,40392,2021-05-05_14h28.14.720,judgeSpeechMusic_20210407_logNormShiftAmp,2020.1.2,MacIntel,60,,,,,,,,,,,,,,,,,,,,,,,,,,2,6.037125,,0,1,89,239,82,1,stimuli/stim_20210407_power2amp/equal_lnn_AM3.6Hz_44.m4a,,,
,,,,,40392,2021-05-05_14h28.14.720,judgeSpeechMusic_20210407_logNormShiftAmp,2020.1.2,MacIntel,60,,,,,,,,,,,,,,,,,,,,,,,,,,2,7.307955,,0,1,90,240,75,1,stimuli/stim_20210407_power2amp/equal_lnn_AM3.6Hz_70.m4a,,,
,,,,,40392,2021-05-05_14h28.14.720,judgeSpeechMusic_20210407_logNormShiftAmp,2020.1.2,MacIntel,60,,,,,,,,,,,,,,,,,,,,,,,,,,2,6.720875,2,1,1,91,241,113,1,stimuli/stim_20210407_power2amp/equal_lnn_AM4.8Hz_76.m4a,1.839795,,
,,,,,40392,2021-05-05_14h28.14.720,judgeSpeechMusic_20210407_logNormShiftAmp,2020.1.2,MacIntel,60,,,,,,,,,,,,,,,,,,,,,,,,,,2,8.918545,,0,1,92,242,72,1,stimuli/stim_20210407_power2amp/equal_lnn_AM3Hz_54.m4a,,,
,,,,,40392,2021-05-05_14h28.14.720,judgeSpeechMusic_20210407_logNormShiftAmp,2020.1.2,MacIntel,60,,,,,,,,,,,,,,,,,,,,,,,,,,2,34.37796,,0,1,93,243,52,1,stimuli/stim_20210407_power2amp/equal_lnn_AM2.4Hz_5.m4a,,,
,,,,,40392,2021-05-05_14h28.14.720,judgeSpeechMusic_20210407_logNormShiftAmp,2020.1.2,MacIntel,60,,,,,,,,,,,,,,,,,,,,,,,,,,2,5.67783,,0,1,94,244,80,1,stimuli/stim_20210407_power2amp/equal_lnn_AM3.6Hz_22.m4a,,,
,,,,,40392,2021-05-05_14h28.14.720,judgeSpeechMusic_20210407_logNormShiftAmp,2020.1.2,MacIntel,60,,,,,,,,,,,,,,,,,,,,,,,,,,2,6.794415,,0,1,95,245,92,1,stimuli/stim_20210407_power2amp/equal_lnn_AM4.2Hz_66.m4a,,,
,,,,,40392,2021-05-05_14h28.14.720,judgeSpeechMusic_20210407_logNormShiftAmp,2020.1.2,MacIntel,60,,,,,,,,,,,,,,,,,,,,,,,,,,1,6.70521,,0,1,96,246,44,1,stimuli/stim_20210407_power2amp/equal_lnn_AM1.8Hz_57.m4a,,,
,,,,,40392,2021-05-05_14h28.14.720,judgeSpeechMusic_20210407_logNormShiftAmp,2020.1.2,MacIntel,60,,,,,,,,,,,,,,,,,,,,,,,,,,1,6.35325,,0,1,97,247,40,1,stimuli/stim_20210407_power2amp/equal_lnn_AM1.8Hz_27.m4a,,,
,,,,,40392,2021-05-05_14h28.14.720,judgeSpeechMusic_20210407_logNormShiftAmp,2020.1.2,MacIntel,60,,,,,,,,,,,,,,,,,,,,,,,,,,2,7.519705,,0,1,98,248,110,1,stimuli/stim_20210407_power2amp/equal_lnn_AM4.8Hz_32.m4a,,,
,,,,,40392,2021-05-05_14h28.14.720,judgeSpeechMusic_20210407_logNormShiftAmp,2020.1.2,MacIntel,60,,,,,,,,,,,,,,,,,,,,,,,,,,1,5.903955,,0,1,99,249,14,1,stimuli/stim_20210407_power2amp/equal_lnn_AM0.6Hz_9.m4a,,,
,,,,,40392,2021-05-05_14h28.14.720,judgeSpeechMusic_20210407_logNormShiftAmp,2020.1.2,MacIntel,60,,,,,,,,,,,,,,,,,,,,,,,,,,1,6.371915,,0,1,100,250,13,1,stimuli/stim_20210407_power2amp/equal_lnn_AM0.6Hz_32.m4a,,,
,,,,,40392,2021-05-05_14h28.14.720,judgeSpeechMusic_20210407_logNormShiftAmp,2020.1.2,MacIntel,60,,,,,,,,,,,,,,,,,,,,,,,,,,2,6.819625,,0,1,101,251,84,1,stimuli/stim_20210407_power2amp/equal_lnn_AM3.6Hz_69.m4a,,,
,,,,,40392,2021-05-05_14h28.14.720,judgeSpeechMusic_20210407_logNormShiftAmp,2020.1.2,MacIntel,60,,,,,,,,,,,,,,,,,,,,,,,,,,2,6.060625,,0,1,102,252,148,1,stimuli/stim_20210407_power2amp/equal_lnn_AM6Hz_37.m4a,,,
,,,,,40392,2021-05-05_14h28.14.720,judgeSpeechMusic_20210407_logNormShiftAmp,2020.1.2,MacIntel,60,,,,,,,,,,,,,,,,,,,,,,,,,,1,5.926535,,0,1,103,253,46,1,stimuli/stim_20210407_power2amp/equal_lnn_AM2.4Hz_53.m4a,,,
,,,,,40392,2021-05-05_14h28.14.720,judgeSpeechMusic_20210407_logNormShiftAmp,2020.1.2,MacIntel,60,,,,,,,,,,,,,,,,,,,,,,,,,,2,6.15512,,0,1,104,254,141,1,stimuli/stim_20210407_power2amp/equal_lnn_AM6Hz_70.m4a,,,
,,,,,40392,2021-05-05_14h28.14.720,judgeSpeechMusic_20210407_logNormShiftAmp,2020.1.2,MacIntel,60,,,,,,,,,,,,,,,,,,,,,,,,,,2,6.07659,,0,1,105,255,68,1,stimuli/stim_20210407_power2amp/equal_lnn_AM3Hz_68.m4a,,,
,,,,,40392,2021-05-05_14h28.14.720,judgeSpeechMusic_20210407_logNormShiftAmp,2020.1.2,MacIntel,60,,,,,,,,,,,,,,,,,,,,,,,,,,1,6.27979,,0,1,106,256,4,1,stimuli/stim_20210407_power2amp/equal_lnn_AM0.6Hz_80.m4a,,,
,,,,,40392,2021-05-05_14h28.14.720,judgeSpeechMusic_20210407_logNormShiftAmp,2020.1.2,MacIntel,60,,,,,,,,,,,,,,,,,,,,,,,,,,1,11.85804,,0,1,107,257,53,1,stimuli/stim_20210407_power2amp/equal_lnn_AM2.4Hz_19.m4a,,,
,,,,,40392,2021-05-05_14h28.14.720,judgeSpeechMusic_20210407_logNormShiftAmp,2020.1.2,MacIntel,60,,,,,,,,,,,,,,,,,,,,,,,,,,1,7.67196,,0,1,108,258,20,1,stimuli/stim_20210407_power2amp/equal_lnn_AM1.2Hz_89.m4a,,,
,,,,,40392,2021-05-05_14h28.14.720,judgeSpeechMusic_20210407_logNormShiftAmp,2020.1.2,MacIntel,60,,,,,,,,,,,,,,,,,,,,,,,,,,1,6.354665,,0,1,109,259,126,1,stimuli/stim_20210407_power2amp/equal_lnn_AM5.4Hz_94.m4a,,,
,,,,,40392,2021-05-05_14h28.14.720,judgeSpeechMusic_20210407_logNormShiftAmp,2020.1.2,MacIntel,60,,,,,,,,,,,,,,,,,,,,,,,,,,1,9.63896,,0,1,110,260,51,1,stimuli/stim_20210407_power2amp/equal_lnn_AM2.4Hz_60.m4a,,,
,,,,,40392,2021-05-05_14h28.14.720,judgeSpeechMusic_20210407_logNormShiftAmp,2020.1.2,MacIntel,60,,,,,,,,,,,,,,,,,,,,,,,,,,2,5.961085,1,1,1,111,261,111,1,stimuli/stim_20210407_power2amp/equal_lnn_AM4.8Hz_90.m4a,1.520335,,
,,,,,40392,2021-05-05_14h28.14.720,judgeSpeechMusic_20210407_logNormShiftAmp,2020.1.2,MacIntel,60,,,,,,,,,,,,,,,,,,,,,,,,,,2,6.31833,,0,1,112,262,108,1,stimuli/stim_20210407_power2amp/equal_lnn_AM4.8Hz_15.m4a,,,
,,,,,40392,2021-05-05_14h28.14.720,judgeSpeechMusic_20210407_logNormShiftAmp,2020.1.2,MacIntel,60,,,,,,,,,,,,,,,,,,,,,,,,,,1,6.078165,,0,1,113,263,93,1,stimuli/stim_20210407_power2amp/equal_lnn_AM4.2Hz_56.m4a,,,
,,,,,40392,2021-05-05_14h28.14.720,judgeSpeechMusic_20210407_logNormShiftAmp,2020.1.2,MacIntel,60,,,,,,,,,,,,,,,,,,,,,,,,,,1,5.797375,,0,1,114,264,12,1,stimuli/stim_20210407_power2amp/equal_lnn_AM0.6Hz_88.m4a,,,
,,,,,40392,2021-05-05_14h28.14.720,judgeSpeechMusic_20210407_logNormShiftAmp,2020.1.2,MacIntel,60,,,,,,,,,,,,,,,,,,,,,,,,,,1,6.51858,,0,1,115,265,54,1,stimuli/stim_20210407_power2amp/equal_lnn_AM2.4Hz_16.m4a,,,
,,,,,40392,2021-05-05_14h28.14.720,judgeSpeechMusic_20210407_logNormShiftAmp,2020.1.2,MacIntel,60,,,,,,,,,,,,,,,,,,,,,,,,,,1,9.470375,,0,1,116,266,147,1,stimuli/stim_20210407_power2amp/equal_lnn_AM6Hz_61.m4a,,,
,,,,,40392,2021-05-05_14h28.14.720,judgeSpeechMusic_20210407_logNormShiftAmp,2020.1.2,MacIntel,60,,,,,,,,,,,,,,,,,,,,,,,,,,1,6.70021,,0,1,117,267,69,1,stimuli/stim_20210407_power2amp/equal_lnn_AM3Hz_34.m4a,,,
,,,,,40392,2021-05-05_14h28.14.720,judgeSpeechMusic_20210407_logNormShiftAmp,2020.1.2,MacIntel,60,,,,,,,,,,,,,,,,,,,,,,,,,,2,16.834455,,0,1,118,268,121,1,stimuli/stim_20210407_power2amp/equal_lnn_AM5.4Hz_51.m4a,,,
,,,,,40392,2021-05-05_14h28.14.720,judgeSpeechMusic_20210407_logNormShiftAmp,2020.1.2,MacIntel,60,,,,,,,,,,,,,,,,,,,,,,,,,,1,7.80979,,0,1,119,269,71,1,stimuli/stim_20210407_power2amp/equal_lnn_AM3Hz_80.m4a,,,
,,,,,40392,2021-05-05_14h28.14.720,judgeSpeechMusic_20210407_logNormShiftAmp,2020.1.2,MacIntel,60,,,,,,,,,,,,,,,,,,,,,,,,,,2,11.27875,,0,1,120,270,31,1,stimuli/stim_20210407_power2amp/equal_lnn_AM1.8Hz_94.m4a,,,
,,,,,40392,2021-05-05_14h28.14.720,judgeSpeechMusic_20210407_logNormShiftAmp,2020.1.2,MacIntel,60,,,,,,,,,,,,,,,,,,,,,,,,,,1,6.59054,,0,1,121,271,8,1,stimuli/stim_20210407_power2amp/equal_lnn_AM0.6Hz_70.m4a,,,
,,,,,40392,2021-05-05_14h28.14.720,judgeSpeechMusic_20210407_logNormShiftAmp,2020.1.2,MacIntel,60,,,,,,,,,,,,,,,,,,,,,,,,,,2,6.65875,,0,1,122,272,94,1,stimuli/stim_20210407_power2amp/equal_lnn_AM4.2Hz_20.m4a,,,
,,,,,40392,2021-05-05_14h28.14.720,judgeSpeechMusic_20210407_logNormShiftAmp,2020.1.2,MacIntel,60,,,,,,,,,,,,,,,,,,,,,,,,,,2,7.30621,,0,1,123,273,11,1,stimuli/stim_20210407_power2amp/equal_lnn_AM0.6Hz_54.m4a,,,
,,,,,40392,2021-05-05_14h28.14.720,judgeSpeechMusic_20210407_logNormShiftAmp,2020.1.2,MacIntel,60,,,,,,,,,,,,,,,,,,,,,,,,,,2,9.41033,,0,1,124,274,26,1,stimuli/stim_20210407_power2amp/equal_lnn_AM1.2Hz_56.m4a,,,
,,,,,40392,2021-05-05_14h28.14.720,judgeSpeechMusic_20210407_logNormShiftAmp,2020.1.2,MacIntel,60,,,,,,,,,,,,,,,,,,,,,,,,,,2,27.723125,,0,1,125,275,18,1,stimuli/stim_20210407_power2amp/equal_lnn_AM1.2Hz_17.m4a,,,
,,,,,40392,2021-05-05_14h28.14.720,judgeSpeechMusic_20210407_logNormShiftAmp,2020.1.2,MacIntel,60,,,,,,,,,,,,,,,,,,,,,,,,,,2,6.354585,,0,1,126,276,139,1,stimuli/stim_20210407_power2amp/equal_lnn_AM6Hz_88.m4a,,,
,,,,,40392,2021-05-05_14h28.14.720,judgeSpeechMusic_20210407_logNormShiftAmp,2020.1.2,MacIntel,60,,,,,,,,,,,,,,,,,,,,,,,,,,2,6.22458,,0,1,127,277,132,1,stimuli/stim_20210407_power2amp/equal_lnn_AM5.4Hz_87.m4a,,,
,,,,,40392,2021-05-05_14h28.14.720,judgeSpeechMusic_20210407_logNormShiftAmp,2020.1.2,MacIntel,60,,,,,,,,,,,,,,,,,,,,,,,,,,1,6.069955,,0,1,128,278,114,1,stimuli/stim_20210407_power2amp/equal_lnn_AM4.8Hz_91.m4a,,,
,,,,,40392,2021-05-05_14h28.14.720,judgeSpeechMusic_20210407_logNormShiftAmp,2020.1.2,MacIntel,60,,,,,,,,,,,,,,,,,,,,,,,,,,1,5.69746,,0,1,129,279,87,1,stimuli/stim_20210407_power2amp/equal_lnn_AM3.6Hz_67.m4a,,,
,,,,,40392,2021-05-05_14h28.14.720,judgeSpeechMusic_20210407_logNormShiftAmp,2020.1.2,MacIntel,60,,,,,,,,,,,,,,,,,,,,,,,,,,2,11.350005,,0,1,130,280,137,1,stimuli/stim_20210407_power2amp/equal_lnn_AM6Hz_19.m4a,,,
,,,,,40392,2021-05-05_14h28.14.720,judgeSpeechMusic_20210407_logNormShiftAmp,2020.1.2,MacIntel,60,,,,,,,,,,,,,,,,,,,,,,,,,,2,6.36842,4,1,1,131,281,70,1,stimuli/stim_20210407_power2amp/equal_lnn_AM3Hz_57.m4a,1.394375,,
,,,,,40392,2021-05-05_14h28.14.720,judgeSpeechMusic_20210407_logNormShiftAmp,2020.1.2,MacIntel,60,,,,,,,,,,,,,,,,,,,,,,,,,,2,6.96108,,0,1,132,282,144,1,stimuli/stim_20210407_power2amp/equal_lnn_AM6Hz_24.m4a,,,
,,,,,40392,2021-05-05_14h28.14.720,judgeSpeechMusic_20210407_logNormShiftAmp,2020.1.2,MacIntel,60,,,,,,,,,,,,,,,,,,,,,,,,,,1,5.71958,,0,1,133,283,29,1,stimuli/stim_20210407_power2amp/equal_lnn_AM1.2Hz_88.m4a,,,
,,,,,40392,2021-05-05_14h28.14.720,judgeSpeechMusic_20210407_logNormShiftAmp,2020.1.2,MacIntel,60,,,,,,,,,,,,,,,,,,,,,,,,,,2,35.340915,,0,1,134,284,118,1,stimuli/stim_20210407_power2amp/equal_lnn_AM4.8Hz_29.m4a,,,
,,,,,40392,2021-05-05_14h28.14.720,judgeSpeechMusic_20210407_logNormShiftAmp,2020.1.2,MacIntel,60,,,,,,,,,,,,,,,,,,,,,,,,,,1,6.05379,,0,1,135,285,78,1,stimuli/stim_20210407_power2amp/equal_lnn_AM3.6Hz_52.m4a,,,
,,,,,40392,2021-05-05_14h28.14.720,judgeSpeechMusic_20210407_logNormShiftAmp,2020.1.2,MacIntel,60,,,,,,,,,,,,,,,,,,,,,,,,,,1,20.93579,,0,1,136,286,60,1,stimuli/stim_20210407_power2amp/equal_lnn_AM3Hz_45.m4a,,,
,,,,,40392,2021-05-05_14h28.14.720,judgeSpeechMusic_20210407_logNormShiftAmp,2020.1.2,MacIntel,60,,,,,,,,,,,,,,,,,,,,,,,,,,1,5.65308,,0,1,137,287,59,1,stimuli/stim_20210407_power2amp/equal_lnn_AM2.4Hz_1.m4a,,,
,,,,,40392,2021-05-05_14h28.14.720,judgeSpeechMusic_20210407_logNormShiftAmp,2020.1.2,MacIntel,60,,,,,,,,,,,,,,,,,,,,,,,,,,1,5.664625,,0,1,138,288,146,1,stimuli/stim_20210407_power2amp/equal_lnn_AM6Hz_57.m4a,,,
,,,,,40392,2021-05-05_14h28.14.720,judgeSpeechMusic_20210407_logNormShiftAmp,2020.1.2,MacIntel,60,,,,,,,,,,,,,,,,,,,,,,,,,,2,5.926745,,0,1,139,289,49,1,stimuli/stim_20210407_power2amp/equal_lnn_AM2.4Hz_100.m4a,,,
,,,,,40392,2021-05-05_14h28.14.720,judgeSpeechMusic_20210407_logNormShiftAmp,2020.1.2,MacIntel,60,,,,,,,,,,,,,,,,,,,,,,,,,,2,7.98112,,0,1,140,290,95,1,stimuli/stim_20210407_power2amp/equal_lnn_AM4.2Hz_80.m4a,,,
,,,,,40392,2021-05-05_14h28.14.720,judgeSpeechMusic_20210407_logNormShiftAmp,2020.1.2,MacIntel,60,,,,,,,,,,,,,,,,,,,,,,,,,,1,6.102165,,0,1,141,291,33,1,stimuli/stim_20210407_power2amp/equal_lnn_AM1.8Hz_67.m4a,,,
,,,,,40392,2021-05-05_14h28.14.720,judgeSpeechMusic_20210407_logNormShiftAmp,2020.1.2,MacIntel,60,,,,,,,,,,,,,,,,,,,,,,,,,,2,9.939415,,0,1,142,292,145,1,stimuli/stim_20210407_power2amp/equal_lnn_AM6Hz_96.m4a,,,
,,,,,40392,2021-05-05_14h28.14.720,judgeSpeechMusic_20210407_logNormShiftAmp,2020.1.2,MacIntel,60,,,,,,,,,,,,,,,,,,,,,,,,,,1,5.80825,,0,1,143,293,42,1,stimuli/stim_20210407_power2amp/equal_lnn_AM1.8Hz_12.m4a,,,
,,,,,40392,2021-05-05_14h28.14.720,judgeSpeechMusic_20210407_logNormShiftAmp,2020.1.2,MacIntel,60,,,,,,,,,,,,,,,,,,,,,,,,,,1,5.71554,,0,1,144,294,103,1,stimuli/stim_20210407_power2amp/equal_lnn_AM4.2Hz_21.m4a,,,
,,,,,40392,2021-05-05_14h28.14.720,judgeSpeechMusic_20210407_logNormShiftAmp,2020.1.2,MacIntel,60,,,,,,,,,,,,,,,,,,,,,,,,,,1,16.43621,,0,1,145,295,131,1,stimuli/stim_20210407_power2amp/equal_lnn_AM5.4Hz_4.m4a,,,
,,,,,40392,2021-05-05_14h28.14.720,judgeSpeechMusic_20210407_logNormShiftAmp,2020.1.2,MacIntel,60,,,,,,,,,,,,,,,,,,,,,,,,,,1,22.26088,,0,1,146,296,112,1,stimuli/stim_20210407_power2amp/equal_lnn_AM4.8Hz_48.m4a,,,
,,,,,40392,2021-05-05_14h28.14.720,judgeSpeechMusic_20210407_logNormShiftAmp,2020.1.2,MacIntel,60,,,,,,,,,,,,,,,,,,,,,,,,,,2,5.84446,,0,1,147,297,149,1,stimuli/stim_20210407_power2amp/equal_lnn_AM6Hz_82.m4a,,,
,,,,,40392,2021-05-05_14h28.14.720,judgeSpeechMusic_20210407_logNormShiftAmp,2020.1.2,MacIntel,60,,,,,,,,,,,,,,,,,,,,,,,,,,2,9.725375,,0,1,148,298,36,1,stimuli/stim_20210407_power2amp/equal_lnn_AM1.8Hz_24.m4a,,,
,,,,,40392,2021-05-05_14h28.14.720,judgeSpeechMusic_20210407_logNormShiftAmp,2020.1.2,MacIntel,60,,,,,,,,,,,,,,,,,,,,,,,,,,1,5.812,,0,1,149,299,55,1,stimuli/stim_20210407_power2amp/equal_lnn_AM2.4Hz_40.m4a,,,
,,,,,40392,2021-05-05_14h28.14.720,judgeSpeechMusic_20210407_logNormShiftAmp,2020.1.2,MacIntel,60,,,,,,,,,,,,,,,,,,,,,,,,,,,,,,,,,,,,,space,13.50112
