headphoneResponse.keys,headphoneResponse.corr,headphoneResponse.rt,headphoneTrial.thisRepN,headphoneTrial.thisTrialN,headphoneTrial.thisN,headphoneTrial.thisIndex,headphoneTrial.ran,headphone_sound1,headphone_sound2,headphone_sound3,corrAns,participant,date,expName,psychopyVersion,OS,frameRate,trainSlider.response,trainSlider.rt,beepTrainResponse.keys,beepTrainResponse.corr,trainingTrials.thisRepN,trainingTrials.thisTrialN,trainingTrials.thisN,trainingTrials.thisIndex,trainingTrials.ran,trainAudioFile,beepTrainResponse.rt,readyReal_resp.keys,readyReal_resp.rt,ratingSlider.response,ratingSlider.rt,beepResp.keys,beepResp.corr,expTrials.thisRepN,expTrials.thisTrialN,expTrials.thisN,expTrials.thisIndex,expTrials.ran,audioFile,beepResp.rt,end_resp.keys,end_resp.rt
1,1,1.282,0,0,0,4,1,stimuli/screen_quiet.wav,stimuli/screen_antiphase.wav,stimuli/screen_origin.wav,1,40418,2021-05-10_19h48.00.671,judgeSpeechMusic_20210407_logNormShiftAmp,2020.1.2,MacIntel,60,,,,,,,,,,,,,,,,,,,,,,,,,,
3,1,0.842,0,1,1,2,1,stimuli/screen_origin.wav,stimuli/screen_antiphase.wav,stimuli/screen_quiet.wav,3,40418,2021-05-10_19h48.00.671,judgeSpeechMusic_20210407_logNormShiftAmp,2020.1.2,MacIntel,60,,,,,,,,,,,,,,,,,,,,,,,,,,
2,1,1.1,0,2,2,3,1,stimuli/screen_origin.wav,stimuli/screen_quiet.wav,stimuli/screen_antiphase.wav,2,40418,2021-05-10_19h48.00.671,judgeSpeechMusic_20210407_logNormShiftAmp,2020.1.2,MacIntel,60,,,,,,,,,,,,,,,,,,,,,,,,,,
1,1,0.722,0,3,3,5,1,stimuli/screen_quiet.wav,stimuli/screen_origin.wav,stimuli/screen_antiphase.wav,1,40418,2021-05-10_19h48.00.671,judgeSpeechMusic_20210407_logNormShiftAmp,2020.1.2,MacIntel,60,,,,,,,,,,,,,,,,,,,,,,,,,,
3,1,0.468,0,4,4,0,1,stimuli/screen_antiphase.wav,stimuli/screen_origin.wav,stimuli/screen_quiet.wav,3,40418,2021-05-10_19h48.00.671,judgeSpeechMusic_20210407_logNormShiftAmp,2020.1.2,MacIntel,60,,,,,,,,,,,,,,,,,,,,,,,,,,
2,1,0.556,0,5,5,1,1,stimuli/screen_antiphase.wav,stimuli/screen_quiet.wav,stimuli/screen_origin.wav,2,40418,2021-05-10_19h48.00.671,judgeSpeechMusic_20210407_logNormShiftAmp,2020.1.2,MacIntel,60,,,,,,,,,,,,,,,,,,,,,,,,,,
,,,,,,,,,,,,40418,2021-05-10_19h48.00.671,judgeSpeechMusic_20210407_logNormShiftAmp,2020.1.2,MacIntel,60,2,9.263,,0,0,0,0,1,1,stimuli/stim_20210407_power2amp/equal_lnn_AM_training2.7Hz.m4a,,,,,,,,,,,,,,,,
,,,,,,,,,,,,40418,2021-05-10_19h48.00.671,judgeSpeechMusic_20210407_logNormShiftAmp,2020.1.2,MacIntel,60,2,6.818,,0,0,1,1,0,1,stimuli/stim_20210407_power2amp/equal_lnn_AM_training1.5Hz.m4a,,,,,,,,,,,,,,,,
,,,,,,,,,,,,40418,2021-05-10_19h48.00.671,judgeSpeechMusic_20210407_logNormShiftAmp,2020.1.2,MacIntel,60,1,6.109,4,1,0,2,2,2,1,stimuli/stim_20210407_power2amp/equal_lnn_AM_training3.9Hz.m4a,2.32,,,,,,,,,,,,,,,
,,,,,,,,,,,,40418,2021-05-10_19h48.00.671,judgeSpeechMusic_20210407_logNormShiftAmp,2020.1.2,MacIntel,60,2,6.939,,0,0,3,3,3,1,stimuli/stim_20210407_power2amp/equal_lnn_AM_training5.1Hz.m4a,,,,,,,,,,,,,,,,
,,,,,,,,,,,,40418,2021-05-10_19h48.00.671,judgeSpeechMusic_20210407_logNormShiftAmp,2020.1.2,MacIntel,60,,,,,,,,,,,,space,3.6,2,6.665,,0,0,0,0,39,1,stimuli/stim_20210407_power2amp/equal_lnn_AM1.8Hz_95.m4a,,,
,,,,,,,,,,,,40418,2021-05-10_19h48.00.671,judgeSpeechMusic_20210407_logNormShiftAmp,2020.1.2,MacIntel,60,,,,,,,,,,,,,,2,6.101,,0,0,1,1,57,1,stimuli/stim_20210407_power2amp/equal_lnn_AM2.4Hz_28.m4a,,,
,,,,,,,,,,,,40418,2021-05-10_19h48.00.671,judgeSpeechMusic_20210407_logNormShiftAmp,2020.1.2,MacIntel,60,,,,,,,,,,,,,,1,6.11,,0,0,2,2,101,1,stimuli/stim_20210407_power2amp/equal_lnn_AM4.2Hz_64.m4a,,,
,,,,,,,,,,,,40418,2021-05-10_19h48.00.671,judgeSpeechMusic_20210407_logNormShiftAmp,2020.1.2,MacIntel,60,,,,,,,,,,,,,,1,5.76,,0,0,3,3,2,1,stimuli/stim_20210407_power2amp/equal_lnn_AM0.6Hz_8.m4a,,,
,,,,,,,,,,,,40418,2021-05-10_19h48.00.671,judgeSpeechMusic_20210407_logNormShiftAmp,2020.1.2,MacIntel,60,,,,,,,,,,,,,,2,5.792,,0,0,4,4,106,1,stimuli/stim_20210407_power2amp/equal_lnn_AM4.8Hz_9.m4a,,,
,,,,,,,,,,,,40418,2021-05-10_19h48.00.671,judgeSpeechMusic_20210407_logNormShiftAmp,2020.1.2,MacIntel,60,,,,,,,,,,,,,,2,5.693,,0,0,5,5,108,1,stimuli/stim_20210407_power2amp/equal_lnn_AM4.8Hz_34.m4a,,,
,,,,,,,,,,,,40418,2021-05-10_19h48.00.671,judgeSpeechMusic_20210407_logNormShiftAmp,2020.1.2,MacIntel,60,,,,,,,,,,,,,,1,5.675,,0,0,6,6,139,1,stimuli/stim_20210407_power2amp/equal_lnn_AM6Hz_49.m4a,,,
,,,,,,,,,,,,40418,2021-05-10_19h48.00.671,judgeSpeechMusic_20210407_logNormShiftAmp,2020.1.2,MacIntel,60,,,,,,,,,,,,,,2,5.626,,0,0,7,7,85,1,stimuli/stim_20210407_power2amp/equal_lnn_AM3.6Hz_79.m4a,,,
,,,,,,,,,,,,40418,2021-05-10_19h48.00.671,judgeSpeechMusic_20210407_logNormShiftAmp,2020.1.2,MacIntel,60,,,,,,,,,,,,,,1,5.957,,0,0,8,8,29,1,stimuli/stim_20210407_power2amp/equal_lnn_AM1.2Hz_51.m4a,,,
,,,,,,,,,,,,40418,2021-05-10_19h48.00.671,judgeSpeechMusic_20210407_logNormShiftAmp,2020.1.2,MacIntel,60,,,,,,,,,,,,,,1,6.092,,0,0,9,9,88,1,stimuli/stim_20210407_power2amp/equal_lnn_AM3.6Hz_65.m4a,,,
,,,,,,,,,,,,40418,2021-05-10_19h48.00.671,judgeSpeechMusic_20210407_logNormShiftAmp,2020.1.2,MacIntel,60,,,,,,,,,,,,,,1,5.743,,0,0,10,10,28,1,stimuli/stim_20210407_power2amp/equal_lnn_AM1.2Hz_8.m4a,,,
,,,,,,,,,,,,40418,2021-05-10_19h48.00.671,judgeSpeechMusic_20210407_logNormShiftAmp,2020.1.2,MacIntel,60,,,,,,,,,,,,,,1,6.259,,0,0,11,11,61,1,stimuli/stim_20210407_power2amp/equal_lnn_AM3Hz_22.m4a,,,
,,,,,,,,,,,,40418,2021-05-10_19h48.00.671,judgeSpeechMusic_20210407_logNormShiftAmp,2020.1.2,MacIntel,60,,,,,,,,,,,,,,1,5.753,,0,0,12,12,58,1,stimuli/stim_20210407_power2amp/equal_lnn_AM2.4Hz_24.m4a,,,
,,,,,,,,,,,,40418,2021-05-10_19h48.00.671,judgeSpeechMusic_20210407_logNormShiftAmp,2020.1.2,MacIntel,60,,,,,,,,,,,,,,2,5.877,,0,0,13,13,25,1,stimuli/stim_20210407_power2amp/equal_lnn_AM1.2Hz_24.m4a,,,
,,,,,,,,,,,,40418,2021-05-10_19h48.00.671,judgeSpeechMusic_20210407_logNormShiftAmp,2020.1.2,MacIntel,60,,,,,,,,,,,,,,2,6.064,,0,0,14,14,52,1,stimuli/stim_20210407_power2amp/equal_lnn_AM2.4Hz_90.m4a,,,
,,,,,,,,,,,,40418,2021-05-10_19h48.00.671,judgeSpeechMusic_20210407_logNormShiftAmp,2020.1.2,MacIntel,60,,,,,,,,,,,,,,2,6.988,,0,0,15,15,40,1,stimuli/stim_20210407_power2amp/equal_lnn_AM1.8Hz_12.m4a,,,
,,,,,,,,,,,,40418,2021-05-10_19h48.00.671,judgeSpeechMusic_20210407_logNormShiftAmp,2020.1.2,MacIntel,60,,,,,,,,,,,,,,2,6.253,,0,0,16,16,31,1,stimuli/stim_20210407_power2amp/equal_lnn_AM1.8Hz_61.m4a,,,
,,,,,,,,,,,,40418,2021-05-10_19h48.00.671,judgeSpeechMusic_20210407_logNormShiftAmp,2020.1.2,MacIntel,60,,,,,,,,,,,,,,2,6.062,,0,0,17,17,42,1,stimuli/stim_20210407_power2amp/equal_lnn_AM1.8Hz_100.m4a,,,
,,,,,,,,,,,,40418,2021-05-10_19h48.00.671,judgeSpeechMusic_20210407_logNormShiftAmp,2020.1.2,MacIntel,60,,,,,,,,,,,,,,2,6.245,,0,0,18,18,49,1,stimuli/stim_20210407_power2amp/equal_lnn_AM2.4Hz_50.m4a,,,
,,,,,,,,,,,,40418,2021-05-10_19h48.00.671,judgeSpeechMusic_20210407_logNormShiftAmp,2020.1.2,MacIntel,60,,,,,,,,,,,,,,2,7.22,,0,0,19,19,59,1,stimuli/stim_20210407_power2amp/equal_lnn_AM2.4Hz_16.m4a,,,
,,,,,,,,,,,,40418,2021-05-10_19h48.00.671,judgeSpeechMusic_20210407_logNormShiftAmp,2020.1.2,MacIntel,60,,,,,,,,,,,,,,2,6.615,,0,0,20,20,7,1,stimuli/stim_20210407_power2amp/equal_lnn_AM0.6Hz_74.m4a,,,
,,,,,,,,,,,,40418,2021-05-10_19h48.00.671,judgeSpeechMusic_20210407_logNormShiftAmp,2020.1.2,MacIntel,60,,,,,,,,,,,,,,1,6.705,,0,0,21,21,4,1,stimuli/stim_20210407_power2amp/equal_lnn_AM0.6Hz_44.m4a,,,
,,,,,,,,,,,,40418,2021-05-10_19h48.00.671,judgeSpeechMusic_20210407_logNormShiftAmp,2020.1.2,MacIntel,60,,,,,,,,,,,,,,1,5.87,,0,0,22,22,62,1,stimuli/stim_20210407_power2amp/equal_lnn_AM3Hz_44.m4a,,,
,,,,,,,,,,,,40418,2021-05-10_19h48.00.671,judgeSpeechMusic_20210407_logNormShiftAmp,2020.1.2,MacIntel,60,,,,,,,,,,,,,,2,5.82,,0,0,23,23,147,1,stimuli/stim_20210407_power2amp/equal_lnn_AM6Hz_54.m4a,,,
,,,,,,,,,,,,40418,2021-05-10_19h48.00.671,judgeSpeechMusic_20210407_logNormShiftAmp,2020.1.2,MacIntel,60,,,,,,,,,,,,,,1,7.135,,0,0,24,24,14,1,stimuli/stim_20210407_power2amp/equal_lnn_AM0.6Hz_31.m4a,,,
,,,,,,,,,,,,40418,2021-05-10_19h48.00.671,judgeSpeechMusic_20210407_logNormShiftAmp,2020.1.2,MacIntel,60,,,,,,,,,,,,,,1,6.869,,0,0,25,25,72,1,stimuli/stim_20210407_power2amp/equal_lnn_AM3Hz_100.m4a,,,
,,,,,,,,,,,,40418,2021-05-10_19h48.00.671,judgeSpeechMusic_20210407_logNormShiftAmp,2020.1.2,MacIntel,60,,,,,,,,,,,,,,2,5.71,,0,0,26,26,136,1,stimuli/stim_20210407_power2amp/equal_lnn_AM6Hz_61.m4a,,,
,,,,,,,,,,,,40418,2021-05-10_19h48.00.671,judgeSpeechMusic_20210407_logNormShiftAmp,2020.1.2,MacIntel,60,,,,,,,,,,,,,,2,6.512,,0,0,27,27,79,1,stimuli/stim_20210407_power2amp/equal_lnn_AM3.6Hz_33.m4a,,,
,,,,,,,,,,,,40418,2021-05-10_19h48.00.671,judgeSpeechMusic_20210407_logNormShiftAmp,2020.1.2,MacIntel,60,,,,,,,,,,,,,,2,7.021,,0,0,28,28,113,1,stimuli/stim_20210407_power2amp/equal_lnn_AM4.8Hz_20.m4a,,,
,,,,,,,,,,,,40418,2021-05-10_19h48.00.671,judgeSpeechMusic_20210407_logNormShiftAmp,2020.1.2,MacIntel,60,,,,,,,,,,,,,,2,6.342,,0,0,29,29,83,1,stimuli/stim_20210407_power2amp/equal_lnn_AM3.6Hz_69.m4a,,,
,,,,,,,,,,,,40418,2021-05-10_19h48.00.671,judgeSpeechMusic_20210407_logNormShiftAmp,2020.1.2,MacIntel,60,,,,,,,,,,,,,,2,5.921,,0,0,30,30,146,1,stimuli/stim_20210407_power2amp/equal_lnn_AM6Hz_6.m4a,,,
,,,,,,,,,,,,40418,2021-05-10_19h48.00.671,judgeSpeechMusic_20210407_logNormShiftAmp,2020.1.2,MacIntel,60,,,,,,,,,,,,,,1,6.914,,0,0,31,31,9,1,stimuli/stim_20210407_power2amp/equal_lnn_AM0.6Hz_50.m4a,,,
,,,,,,,,,,,,40418,2021-05-10_19h48.00.671,judgeSpeechMusic_20210407_logNormShiftAmp,2020.1.2,MacIntel,60,,,,,,,,,,,,,,1,6.581,,0,0,32,32,78,1,stimuli/stim_20210407_power2amp/equal_lnn_AM3.6Hz_71.m4a,,,
,,,,,,,,,,,,40418,2021-05-10_19h48.00.671,judgeSpeechMusic_20210407_logNormShiftAmp,2020.1.2,MacIntel,60,,,,,,,,,,,,,,1,6.438,,0,0,33,33,111,1,stimuli/stim_20210407_power2amp/equal_lnn_AM4.8Hz_78.m4a,,,
,,,,,,,,,,,,40418,2021-05-10_19h48.00.671,judgeSpeechMusic_20210407_logNormShiftAmp,2020.1.2,MacIntel,60,,,,,,,,,,,,,,1,6.175,,0,0,34,34,15,1,stimuli/stim_20210407_power2amp/equal_lnn_AM1.2Hz_3.m4a,,,
,,,,,,,,,,,,40418,2021-05-10_19h48.00.671,judgeSpeechMusic_20210407_logNormShiftAmp,2020.1.2,MacIntel,60,,,,,,,,,,,,,,1,6.375,,0,0,35,35,17,1,stimuli/stim_20210407_power2amp/equal_lnn_AM1.2Hz_82.m4a,,,
,,,,,,,,,,,,40418,2021-05-10_19h48.00.671,judgeSpeechMusic_20210407_logNormShiftAmp,2020.1.2,MacIntel,60,,,,,,,,,,,,,,1,6.103,1,1,0,36,36,54,1,stimuli/stim_20210407_power2amp/equal_lnn_AM2.4Hz_63.m4a,1.353,,
,,,,,,,,,,,,40418,2021-05-10_19h48.00.671,judgeSpeechMusic_20210407_logNormShiftAmp,2020.1.2,MacIntel,60,,,,,,,,,,,,,,2,6.08,,0,0,37,37,140,1,stimuli/stim_20210407_power2amp/equal_lnn_AM6Hz_30.m4a,,,
,,,,,,,,,,,,40418,2021-05-10_19h48.00.671,judgeSpeechMusic_20210407_logNormShiftAmp,2020.1.2,MacIntel,60,,,,,,,,,,,,,,2,7.753,,0,0,38,38,97,1,stimuli/stim_20210407_power2amp/equal_lnn_AM4.2Hz_60.m4a,,,
,,,,,,,,,,,,40418,2021-05-10_19h48.00.671,judgeSpeechMusic_20210407_logNormShiftAmp,2020.1.2,MacIntel,60,,,,,,,,,,,,,,2,6.408,,0,0,39,39,112,1,stimuli/stim_20210407_power2amp/equal_lnn_AM4.8Hz_43.m4a,,,
,,,,,,,,,,,,40418,2021-05-10_19h48.00.671,judgeSpeechMusic_20210407_logNormShiftAmp,2020.1.2,MacIntel,60,,,,,,,,,,,,,,2,6.711,,0,0,40,40,56,1,stimuli/stim_20210407_power2amp/equal_lnn_AM2.4Hz_7.m4a,,,
,,,,,,,,,,,,40418,2021-05-10_19h48.00.671,judgeSpeechMusic_20210407_logNormShiftAmp,2020.1.2,MacIntel,60,,,,,,,,,,,,,,2,6.854,,0,0,41,41,102,1,stimuli/stim_20210407_power2amp/equal_lnn_AM4.2Hz_63.m4a,,,
,,,,,,,,,,,,40418,2021-05-10_19h48.00.671,judgeSpeechMusic_20210407_logNormShiftAmp,2020.1.2,MacIntel,60,,,,,,,,,,,,,,2,6.77,,0,0,42,42,26,1,stimuli/stim_20210407_power2amp/equal_lnn_AM1.2Hz_40.m4a,,,
,,,,,,,,,,,,40418,2021-05-10_19h48.00.671,judgeSpeechMusic_20210407_logNormShiftAmp,2020.1.2,MacIntel,60,,,,,,,,,,,,,,2,6.525,,0,0,43,43,129,1,stimuli/stim_20210407_power2amp/equal_lnn_AM5.4Hz_23.m4a,,,
,,,,,,,,,,,,40418,2021-05-10_19h48.00.671,judgeSpeechMusic_20210407_logNormShiftAmp,2020.1.2,MacIntel,60,,,,,,,,,,,,,,2,5.677,,0,0,44,44,122,1,stimuli/stim_20210407_power2amp/equal_lnn_AM5.4Hz_25.m4a,,,
,,,,,,,,,,,,40418,2021-05-10_19h48.00.671,judgeSpeechMusic_20210407_logNormShiftAmp,2020.1.2,MacIntel,60,,,,,,,,,,,,,,2,6.544,,0,0,45,45,1,1,stimuli/stim_20210407_power2amp/equal_lnn_AM0.6Hz_18.m4a,,,
,,,,,,,,,,,,40418,2021-05-10_19h48.00.671,judgeSpeechMusic_20210407_logNormShiftAmp,2020.1.2,MacIntel,60,,,,,,,,,,,,,,1,6.236,,0,0,46,46,81,1,stimuli/stim_20210407_power2amp/equal_lnn_AM3.6Hz_38.m4a,,,
,,,,,,,,,,,,40418,2021-05-10_19h48.00.671,judgeSpeechMusic_20210407_logNormShiftAmp,2020.1.2,MacIntel,60,,,,,,,,,,,,,,1,6.171,,0,0,47,47,66,1,stimuli/stim_20210407_power2amp/equal_lnn_AM3Hz_68.m4a,,,
,,,,,,,,,,,,40418,2021-05-10_19h48.00.671,judgeSpeechMusic_20210407_logNormShiftAmp,2020.1.2,MacIntel,60,,,,,,,,,,,,,,1,6.675,,0,0,48,48,0,1,stimuli/stim_20210407_power2amp/equal_lnn_AM0.6Hz_97.m4a,,,
,,,,,,,,,,,,40418,2021-05-10_19h48.00.671,judgeSpeechMusic_20210407_logNormShiftAmp,2020.1.2,MacIntel,60,,,,,,,,,,,,,,1,7.42,,0,0,49,49,16,1,stimuli/stim_20210407_power2amp/equal_lnn_AM1.2Hz_52.m4a,,,
,,,,,,,,,,,,40418,2021-05-10_19h48.00.671,judgeSpeechMusic_20210407_logNormShiftAmp,2020.1.2,MacIntel,60,,,,,,,,,,,,,,2,5.773,,0,0,50,50,121,1,stimuli/stim_20210407_power2amp/equal_lnn_AM5.4Hz_9.m4a,,,
,,,,,,,,,,,,40418,2021-05-10_19h48.00.671,judgeSpeechMusic_20210407_logNormShiftAmp,2020.1.2,MacIntel,60,,,,,,,,,,,,,,2,6.509,,0,0,51,51,134,1,stimuli/stim_20210407_power2amp/equal_lnn_AM5.4Hz_77.m4a,,,
,,,,,,,,,,,,40418,2021-05-10_19h48.00.671,judgeSpeechMusic_20210407_logNormShiftAmp,2020.1.2,MacIntel,60,,,,,,,,,,,,,,2,6.442,,0,0,52,52,132,1,stimuli/stim_20210407_power2amp/equal_lnn_AM5.4Hz_31.m4a,,,
,,,,,,,,,,,,40418,2021-05-10_19h48.00.671,judgeSpeechMusic_20210407_logNormShiftAmp,2020.1.2,MacIntel,60,,,,,,,,,,,,,,2,5.829,,0,0,53,53,131,1,stimuli/stim_20210407_power2amp/equal_lnn_AM5.4Hz_92.m4a,,,
,,,,,,,,,,,,40418,2021-05-10_19h48.00.671,judgeSpeechMusic_20210407_logNormShiftAmp,2020.1.2,MacIntel,60,,,,,,,,,,,,,,2,6.776,,0,0,54,54,120,1,stimuli/stim_20210407_power2amp/equal_lnn_AM5.4Hz_61.m4a,,,
,,,,,,,,,,,,40418,2021-05-10_19h48.00.671,judgeSpeechMusic_20210407_logNormShiftAmp,2020.1.2,MacIntel,60,,,,,,,,,,,,,,2,5.959,,0,0,55,55,127,1,stimuli/stim_20210407_power2amp/equal_lnn_AM5.4Hz_67.m4a,,,
,,,,,,,,,,,,40418,2021-05-10_19h48.00.671,judgeSpeechMusic_20210407_logNormShiftAmp,2020.1.2,MacIntel,60,,,,,,,,,,,,,,2,6.437,,0,0,56,56,64,1,stimuli/stim_20210407_power2amp/equal_lnn_AM3Hz_58.m4a,,,
,,,,,,,,,,,,40418,2021-05-10_19h48.00.671,judgeSpeechMusic_20210407_logNormShiftAmp,2020.1.2,MacIntel,60,,,,,,,,,,,,,,2,6.203,,0,0,57,57,37,1,stimuli/stim_20210407_power2amp/equal_lnn_AM1.8Hz_38.m4a,,,
,,,,,,,,,,,,40418,2021-05-10_19h48.00.671,judgeSpeechMusic_20210407_logNormShiftAmp,2020.1.2,MacIntel,60,,,,,,,,,,,,,,2,6.253,,0,0,58,58,100,1,stimuli/stim_20210407_power2amp/equal_lnn_AM4.2Hz_19.m4a,,,
,,,,,,,,,,,,40418,2021-05-10_19h48.00.671,judgeSpeechMusic_20210407_logNormShiftAmp,2020.1.2,MacIntel,60,,,,,,,,,,,,,,2,5.759,,0,0,59,59,33,1,stimuli/stim_20210407_power2amp/equal_lnn_AM1.8Hz_41.m4a,,,
,,,,,,,,,,,,40418,2021-05-10_19h48.00.671,judgeSpeechMusic_20210407_logNormShiftAmp,2020.1.2,MacIntel,60,,,,,,,,,,,,,,1,5.854,,0,0,60,60,53,1,stimuli/stim_20210407_power2amp/equal_lnn_AM2.4Hz_12.m4a,,,
,,,,,,,,,,,,40418,2021-05-10_19h48.00.671,judgeSpeechMusic_20210407_logNormShiftAmp,2020.1.2,MacIntel,60,,,,,,,,,,,,,,1,5.721,2,1,0,61,61,46,1,stimuli/stim_20210407_power2amp/equal_lnn_AM2.4Hz_18.m4a,1.208,,
,,,,,,,,,,,,40418,2021-05-10_19h48.00.671,judgeSpeechMusic_20210407_logNormShiftAmp,2020.1.2,MacIntel,60,,,,,,,,,,,,,,1,6.11,,0,0,62,62,32,1,stimuli/stim_20210407_power2amp/equal_lnn_AM1.8Hz_23.m4a,,,
,,,,,,,,,,,,40418,2021-05-10_19h48.00.671,judgeSpeechMusic_20210407_logNormShiftAmp,2020.1.2,MacIntel,60,,,,,,,,,,,,,,2,6.662,,0,0,63,63,118,1,stimuli/stim_20210407_power2amp/equal_lnn_AM4.8Hz_18.m4a,,,
,,,,,,,,,,,,40418,2021-05-10_19h48.00.671,judgeSpeechMusic_20210407_logNormShiftAmp,2020.1.2,MacIntel,60,,,,,,,,,,,,,,2,6.243,,0,0,64,64,96,1,stimuli/stim_20210407_power2amp/equal_lnn_AM4.2Hz_14.m4a,,,
,,,,,,,,,,,,40418,2021-05-10_19h48.00.671,judgeSpeechMusic_20210407_logNormShiftAmp,2020.1.2,MacIntel,60,,,,,,,,,,,,,,2,6.346,,0,0,65,65,128,1,stimuli/stim_20210407_power2amp/equal_lnn_AM5.4Hz_37.m4a,,,
,,,,,,,,,,,,40418,2021-05-10_19h48.00.671,judgeSpeechMusic_20210407_logNormShiftAmp,2020.1.2,MacIntel,60,,,,,,,,,,,,,,2,5.642,,0,0,66,66,11,1,stimuli/stim_20210407_power2amp/equal_lnn_AM0.6Hz_32.m4a,,,
,,,,,,,,,,,,40418,2021-05-10_19h48.00.671,judgeSpeechMusic_20210407_logNormShiftAmp,2020.1.2,MacIntel,60,,,,,,,,,,,,,,2,5.71,,0,0,67,67,114,1,stimuli/stim_20210407_power2amp/equal_lnn_AM4.8Hz_42.m4a,,,
,,,,,,,,,,,,40418,2021-05-10_19h48.00.671,judgeSpeechMusic_20210407_logNormShiftAmp,2020.1.2,MacIntel,60,,,,,,,,,,,,,,2,6.659,,0,0,68,68,20,1,stimuli/stim_20210407_power2amp/equal_lnn_AM1.2Hz_28.m4a,,,
,,,,,,,,,,,,40418,2021-05-10_19h48.00.671,judgeSpeechMusic_20210407_logNormShiftAmp,2020.1.2,MacIntel,60,,,,,,,,,,,,,,2,7.178,,0,0,69,69,119,1,stimuli/stim_20210407_power2amp/equal_lnn_AM4.8Hz_14.m4a,,,
,,,,,,,,,,,,40418,2021-05-10_19h48.00.671,judgeSpeechMusic_20210407_logNormShiftAmp,2020.1.2,MacIntel,60,,,,,,,,,,,,,,2,5.887,,0,0,70,70,117,1,stimuli/stim_20210407_power2amp/equal_lnn_AM4.8Hz_68.m4a,,,
,,,,,,,,,,,,40418,2021-05-10_19h48.00.671,judgeSpeechMusic_20210407_logNormShiftAmp,2020.1.2,MacIntel,60,,,,,,,,,,,,,,2,6.231,,0,0,71,71,104,1,stimuli/stim_20210407_power2amp/equal_lnn_AM4.2Hz_99.m4a,,,
,,,,,,,,,,,,40418,2021-05-10_19h48.00.671,judgeSpeechMusic_20210407_logNormShiftAmp,2020.1.2,MacIntel,60,,,,,,,,,,,,,,2,6.304,,0,0,72,72,36,1,stimuli/stim_20210407_power2amp/equal_lnn_AM1.8Hz_85.m4a,,,
,,,,,,,,,,,,40418,2021-05-10_19h48.00.671,judgeSpeechMusic_20210407_logNormShiftAmp,2020.1.2,MacIntel,60,,,,,,,,,,,,,,2,6.296,,0,0,73,73,41,1,stimuli/stim_20210407_power2amp/equal_lnn_AM1.8Hz_54.m4a,,,
,,,,,,,,,,,,40418,2021-05-10_19h48.00.671,judgeSpeechMusic_20210407_logNormShiftAmp,2020.1.2,MacIntel,60,,,,,,,,,,,,,,2,6.419,,0,0,74,74,141,1,stimuli/stim_20210407_power2amp/equal_lnn_AM6Hz_44.m4a,,,
,,,,,,,,,,,,40418,2021-05-10_19h48.00.671,judgeSpeechMusic_20210407_logNormShiftAmp,2020.1.2,MacIntel,60,,,,,,,,,,,,,,2,6.322,,0,0,75,75,92,1,stimuli/stim_20210407_power2amp/equal_lnn_AM4.2Hz_61.m4a,,,
,,,,,,,,,,,,40418,2021-05-10_19h48.00.671,judgeSpeechMusic_20210407_logNormShiftAmp,2020.1.2,MacIntel,60,,,,,,,,,,,,,,2,5.628,,0,0,76,76,126,1,stimuli/stim_20210407_power2amp/equal_lnn_AM5.4Hz_5.m4a,,,
,,,,,,,,,,,,40418,2021-05-10_19h48.00.671,judgeSpeechMusic_20210407_logNormShiftAmp,2020.1.2,MacIntel,60,,,,,,,,,,,,,,2,6.22,,0,0,77,77,51,1,stimuli/stim_20210407_power2amp/equal_lnn_AM2.4Hz_40.m4a,,,
,,,,,,,,,,,,40418,2021-05-10_19h48.00.671,judgeSpeechMusic_20210407_logNormShiftAmp,2020.1.2,MacIntel,60,,,,,,,,,,,,,,2,6.63,,0,0,78,78,44,1,stimuli/stim_20210407_power2amp/equal_lnn_AM1.8Hz_14.m4a,,,
,,,,,,,,,,,,40418,2021-05-10_19h48.00.671,judgeSpeechMusic_20210407_logNormShiftAmp,2020.1.2,MacIntel,60,,,,,,,,,,,,,,2,6.787,,0,0,79,79,8,1,stimuli/stim_20210407_power2amp/equal_lnn_AM0.6Hz_55.m4a,,,
,,,,,,,,,,,,40418,2021-05-10_19h48.00.671,judgeSpeechMusic_20210407_logNormShiftAmp,2020.1.2,MacIntel,60,,,,,,,,,,,,,,2,6.721,,0,0,80,80,143,1,stimuli/stim_20210407_power2amp/equal_lnn_AM6Hz_15.m4a,,,
,,,,,,,,,,,,40418,2021-05-10_19h48.00.671,judgeSpeechMusic_20210407_logNormShiftAmp,2020.1.2,MacIntel,60,,,,,,,,,,,,,,2,5.754,,0,0,81,81,34,1,stimuli/stim_20210407_power2amp/equal_lnn_AM1.8Hz_82.m4a,,,
,,,,,,,,,,,,40418,2021-05-10_19h48.00.671,judgeSpeechMusic_20210407_logNormShiftAmp,2020.1.2,MacIntel,60,,,,,,,,,,,,,,2,5.787,,0,0,82,82,89,1,stimuli/stim_20210407_power2amp/equal_lnn_AM3.6Hz_80.m4a,,,
,,,,,,,,,,,,40418,2021-05-10_19h48.00.671,judgeSpeechMusic_20210407_logNormShiftAmp,2020.1.2,MacIntel,60,,,,,,,,,,,,,,2,5.925,,0,0,83,83,90,1,stimuli/stim_20210407_power2amp/equal_lnn_AM4.2Hz_43.m4a,,,
,,,,,,,,,,,,40418,2021-05-10_19h48.00.671,judgeSpeechMusic_20210407_logNormShiftAmp,2020.1.2,MacIntel,60,,,,,,,,,,,,,,2,6.403,,0,0,84,84,70,1,stimuli/stim_20210407_power2amp/equal_lnn_AM3Hz_57.m4a,,,
,,,,,,,,,,,,40418,2021-05-10_19h48.00.671,judgeSpeechMusic_20210407_logNormShiftAmp,2020.1.2,MacIntel,60,,,,,,,,,,,,,,2,5.72,,0,0,85,85,135,1,stimuli/stim_20210407_power2amp/equal_lnn_AM6Hz_39.m4a,,,
,,,,,,,,,,,,40418,2021-05-10_19h48.00.671,judgeSpeechMusic_20210407_logNormShiftAmp,2020.1.2,MacIntel,60,,,,,,,,,,,,,,2,6.186,1,1,0,86,86,99,1,stimuli/stim_20210407_power2amp/equal_lnn_AM4.2Hz_10.m4a,1.314,,
,,,,,,,,,,,,40418,2021-05-10_19h48.00.671,judgeSpeechMusic_20210407_logNormShiftAmp,2020.1.2,MacIntel,60,,,,,,,,,,,,,,2,6.091,,0,0,87,87,73,1,stimuli/stim_20210407_power2amp/equal_lnn_AM3Hz_73.m4a,,,
,,,,,,,,,,,,40418,2021-05-10_19h48.00.671,judgeSpeechMusic_20210407_logNormShiftAmp,2020.1.2,MacIntel,60,,,,,,,,,,,,,,2,6.386,,0,0,88,88,75,1,stimuli/stim_20210407_power2amp/equal_lnn_AM3.6Hz_1.m4a,,,
,,,,,,,,,,,,40418,2021-05-10_19h48.00.671,judgeSpeechMusic_20210407_logNormShiftAmp,2020.1.2,MacIntel,60,,,,,,,,,,,,,,2,7.585,,0,0,89,89,82,1,stimuli/stim_20210407_power2amp/equal_lnn_AM3.6Hz_61.m4a,,,
,,,,,,,,,,,,40418,2021-05-10_19h48.00.671,judgeSpeechMusic_20210407_logNormShiftAmp,2020.1.2,MacIntel,60,,,,,,,,,,,,,,2,6.556,,0,0,90,90,95,1,stimuli/stim_20210407_power2amp/equal_lnn_AM4.2Hz_51.m4a,,,
,,,,,,,,,,,,40418,2021-05-10_19h48.00.671,judgeSpeechMusic_20210407_logNormShiftAmp,2020.1.2,MacIntel,60,,,,,,,,,,,,,,2,6.321,,0,0,91,91,43,1,stimuli/stim_20210407_power2amp/equal_lnn_AM1.8Hz_98.m4a,,,
,,,,,,,,,,,,40418,2021-05-10_19h48.00.671,judgeSpeechMusic_20210407_logNormShiftAmp,2020.1.2,MacIntel,60,,,,,,,,,,,,,,2,6.88,,0,0,92,92,148,1,stimuli/stim_20210407_power2amp/equal_lnn_AM6Hz_18.m4a,,,
,,,,,,,,,,,,40418,2021-05-10_19h48.00.671,judgeSpeechMusic_20210407_logNormShiftAmp,2020.1.2,MacIntel,60,,,,,,,,,,,,,,1,6.371,,0,0,93,93,6,1,stimuli/stim_20210407_power2amp/equal_lnn_AM0.6Hz_56.m4a,,,
,,,,,,,,,,,,40418,2021-05-10_19h48.00.671,judgeSpeechMusic_20210407_logNormShiftAmp,2020.1.2,MacIntel,60,,,,,,,,,,,,,,1,6.892,,0,0,94,94,84,1,stimuli/stim_20210407_power2amp/equal_lnn_AM3.6Hz_86.m4a,,,
,,,,,,,,,,,,40418,2021-05-10_19h48.00.671,judgeSpeechMusic_20210407_logNormShiftAmp,2020.1.2,MacIntel,60,,,,,,,,,,,,,,2,7.32,,0,0,95,95,19,1,stimuli/stim_20210407_power2amp/equal_lnn_AM1.2Hz_13.m4a,,,
,,,,,,,,,,,,40418,2021-05-10_19h48.00.671,judgeSpeechMusic_20210407_logNormShiftAmp,2020.1.2,MacIntel,60,,,,,,,,,,,,,,1,5.837,,0,0,96,96,47,1,stimuli/stim_20210407_power2amp/equal_lnn_AM2.4Hz_64.m4a,,,
,,,,,,,,,,,,40418,2021-05-10_19h48.00.671,judgeSpeechMusic_20210407_logNormShiftAmp,2020.1.2,MacIntel,60,,,,,,,,,,,,,,1,8.393,,0,0,97,97,50,1,stimuli/stim_20210407_power2amp/equal_lnn_AM2.4Hz_45.m4a,,,
,,,,,,,,,,,,40418,2021-05-10_19h48.00.671,judgeSpeechMusic_20210407_logNormShiftAmp,2020.1.2,MacIntel,60,,,,,,,,,,,,,,1,6.354,,0,0,98,98,38,1,stimuli/stim_20210407_power2amp/equal_lnn_AM1.8Hz_88.m4a,,,
,,,,,,,,,,,,40418,2021-05-10_19h48.00.671,judgeSpeechMusic_20210407_logNormShiftAmp,2020.1.2,MacIntel,60,,,,,,,,,,,,,,2,5.996,,0,0,99,99,77,1,stimuli/stim_20210407_power2amp/equal_lnn_AM3.6Hz_45.m4a,,,
,,,,,,,,,,,,40418,2021-05-10_19h48.00.671,judgeSpeechMusic_20210407_logNormShiftAmp,2020.1.2,MacIntel,60,,,,,,,,,,,,,,2,5.693,,0,0,100,100,149,1,stimuli/stim_20210407_power2amp/equal_lnn_AM6Hz_33.m4a,,,
,,,,,,,,,,,,40418,2021-05-10_19h48.00.671,judgeSpeechMusic_20210407_logNormShiftAmp,2020.1.2,MacIntel,60,,,,,,,,,,,,,,2,6.256,,0,0,101,101,86,1,stimuli/stim_20210407_power2amp/equal_lnn_AM3.6Hz_95.m4a,,,
,,,,,,,,,,,,40418,2021-05-10_19h48.00.671,judgeSpeechMusic_20210407_logNormShiftAmp,2020.1.2,MacIntel,60,,,,,,,,,,,,,,1,6.938,,0,0,102,102,3,1,stimuli/stim_20210407_power2amp/equal_lnn_AM0.6Hz_80.m4a,,,
,,,,,,,,,,,,40418,2021-05-10_19h48.00.671,judgeSpeechMusic_20210407_logNormShiftAmp,2020.1.2,MacIntel,60,,,,,,,,,,,,,,1,6.021,,0,0,103,103,116,1,stimuli/stim_20210407_power2amp/equal_lnn_AM4.8Hz_59.m4a,,,
,,,,,,,,,,,,40418,2021-05-10_19h48.00.671,judgeSpeechMusic_20210407_logNormShiftAmp,2020.1.2,MacIntel,60,,,,,,,,,,,,,,1,6.159,,0,0,104,104,71,1,stimuli/stim_20210407_power2amp/equal_lnn_AM3Hz_1.m4a,,,
,,,,,,,,,,,,40418,2021-05-10_19h48.00.671,judgeSpeechMusic_20210407_logNormShiftAmp,2020.1.2,MacIntel,60,,,,,,,,,,,,,,2,7.42,,0,0,105,105,23,1,stimuli/stim_20210407_power2amp/equal_lnn_AM1.2Hz_59.m4a,,,
,,,,,,,,,,,,40418,2021-05-10_19h48.00.671,judgeSpeechMusic_20210407_logNormShiftAmp,2020.1.2,MacIntel,60,,,,,,,,,,,,,,2,6.304,,0,0,106,106,130,1,stimuli/stim_20210407_power2amp/equal_lnn_AM5.4Hz_58.m4a,,,
,,,,,,,,,,,,40418,2021-05-10_19h48.00.671,judgeSpeechMusic_20210407_logNormShiftAmp,2020.1.2,MacIntel,60,,,,,,,,,,,,,,2,6.554,,0,0,107,107,133,1,stimuli/stim_20210407_power2amp/equal_lnn_AM5.4Hz_88.m4a,,,
,,,,,,,,,,,,40418,2021-05-10_19h48.00.671,judgeSpeechMusic_20210407_logNormShiftAmp,2020.1.2,MacIntel,60,,,,,,,,,,,,,,2,6.078,,0,0,108,108,5,1,stimuli/stim_20210407_power2amp/equal_lnn_AM0.6Hz_98.m4a,,,
,,,,,,,,,,,,40418,2021-05-10_19h48.00.671,judgeSpeechMusic_20210407_logNormShiftAmp,2020.1.2,MacIntel,60,,,,,,,,,,,,,,1,5.769,,0,0,109,109,63,1,stimuli/stim_20210407_power2amp/equal_lnn_AM3Hz_88.m4a,,,
,,,,,,,,,,,,40418,2021-05-10_19h48.00.671,judgeSpeechMusic_20210407_logNormShiftAmp,2020.1.2,MacIntel,60,,,,,,,,,,,,,,1,5.854,4,1,0,110,110,48,1,stimuli/stim_20210407_power2amp/equal_lnn_AM2.4Hz_62.m4a,2.221,,
,,,,,,,,,,,,40418,2021-05-10_19h48.00.671,judgeSpeechMusic_20210407_logNormShiftAmp,2020.1.2,MacIntel,60,,,,,,,,,,,,,,2,8.926,,0,0,111,111,80,1,stimuli/stim_20210407_power2amp/equal_lnn_AM3.6Hz_12.m4a,,,
,,,,,,,,,,,,40418,2021-05-10_19h48.00.671,judgeSpeechMusic_20210407_logNormShiftAmp,2020.1.2,MacIntel,60,,,,,,,,,,,,,,2,7.511,,0,0,112,112,12,1,stimuli/stim_20210407_power2amp/equal_lnn_AM0.6Hz_60.m4a,,,
,,,,,,,,,,,,40418,2021-05-10_19h48.00.671,judgeSpeechMusic_20210407_logNormShiftAmp,2020.1.2,MacIntel,60,,,,,,,,,,,,,,2,6.613,,0,0,113,113,22,1,stimuli/stim_20210407_power2amp/equal_lnn_AM1.2Hz_35.m4a,,,
,,,,,,,,,,,,40418,2021-05-10_19h48.00.671,judgeSpeechMusic_20210407_logNormShiftAmp,2020.1.2,MacIntel,60,,,,,,,,,,,,,,2,6.187,,0,0,114,114,98,1,stimuli/stim_20210407_power2amp/equal_lnn_AM4.2Hz_37.m4a,,,
,,,,,,,,,,,,40418,2021-05-10_19h48.00.671,judgeSpeechMusic_20210407_logNormShiftAmp,2020.1.2,MacIntel,60,,,,,,,,,,,,,,2,6.162,,0,0,115,115,35,1,stimuli/stim_20210407_power2amp/equal_lnn_AM1.8Hz_3.m4a,,,
,,,,,,,,,,,,40418,2021-05-10_19h48.00.671,judgeSpeechMusic_20210407_logNormShiftAmp,2020.1.2,MacIntel,60,,,,,,,,,,,,,,2,6.692,,0,0,116,116,67,1,stimuli/stim_20210407_power2amp/equal_lnn_AM3Hz_79.m4a,,,
,,,,,,,,,,,,40418,2021-05-10_19h48.00.671,judgeSpeechMusic_20210407_logNormShiftAmp,2020.1.2,MacIntel,60,,,,,,,,,,,,,,2,7.841,,0,0,117,117,45,1,stimuli/stim_20210407_power2amp/equal_lnn_AM2.4Hz_9.m4a,,,
,,,,,,,,,,,,40418,2021-05-10_19h48.00.671,judgeSpeechMusic_20210407_logNormShiftAmp,2020.1.2,MacIntel,60,,,,,,,,,,,,,,2,8.403,,0,0,118,118,68,1,stimuli/stim_20210407_power2amp/equal_lnn_AM3Hz_94.m4a,,,
,,,,,,,,,,,,40418,2021-05-10_19h48.00.671,judgeSpeechMusic_20210407_logNormShiftAmp,2020.1.2,MacIntel,60,,,,,,,,,,,,,,2,6.403,,0,0,119,119,10,1,stimuli/stim_20210407_power2amp/equal_lnn_AM0.6Hz_42.m4a,,,
,,,,,,,,,,,,40418,2021-05-10_19h48.00.671,judgeSpeechMusic_20210407_logNormShiftAmp,2020.1.2,MacIntel,60,,,,,,,,,,,,,,2,7.573,,0,0,120,120,91,1,stimuli/stim_20210407_power2amp/equal_lnn_AM4.2Hz_3.m4a,,,
,,,,,,,,,,,,40418,2021-05-10_19h48.00.671,judgeSpeechMusic_20210407_logNormShiftAmp,2020.1.2,MacIntel,60,,,,,,,,,,,,,,2,7.261,,0,0,121,121,144,1,stimuli/stim_20210407_power2amp/equal_lnn_AM6Hz_36.m4a,,,
,,,,,,,,,,,,40418,2021-05-10_19h48.00.671,judgeSpeechMusic_20210407_logNormShiftAmp,2020.1.2,MacIntel,60,,,,,,,,,,,,,,2,6.605,,0,0,122,122,103,1,stimuli/stim_20210407_power2amp/equal_lnn_AM4.2Hz_36.m4a,,,
,,,,,,,,,,,,40418,2021-05-10_19h48.00.671,judgeSpeechMusic_20210407_logNormShiftAmp,2020.1.2,MacIntel,60,,,,,,,,,,,,,,2,5.888,,0,0,123,123,69,1,stimuli/stim_20210407_power2amp/equal_lnn_AM3Hz_90.m4a,,,
,,,,,,,,,,,,40418,2021-05-10_19h48.00.671,judgeSpeechMusic_20210407_logNormShiftAmp,2020.1.2,MacIntel,60,,,,,,,,,,,,,,1,5.725,,0,0,124,124,109,1,stimuli/stim_20210407_power2amp/equal_lnn_AM4.8Hz_96.m4a,,,
,,,,,,,,,,,,40418,2021-05-10_19h48.00.671,judgeSpeechMusic_20210407_logNormShiftAmp,2020.1.2,MacIntel,60,,,,,,,,,,,,,,1,5.688,,0,0,125,125,124,1,stimuli/stim_20210407_power2amp/equal_lnn_AM5.4Hz_83.m4a,,,
,,,,,,,,,,,,40418,2021-05-10_19h48.00.671,judgeSpeechMusic_20210407_logNormShiftAmp,2020.1.2,MacIntel,60,,,,,,,,,,,,,,1,5.795,,0,0,126,126,60,1,stimuli/stim_20210407_power2amp/equal_lnn_AM3Hz_98.m4a,,,
,,,,,,,,,,,,40418,2021-05-10_19h48.00.671,judgeSpeechMusic_20210407_logNormShiftAmp,2020.1.2,MacIntel,60,,,,,,,,,,,,,,1,6.903,,0,0,127,127,123,1,stimuli/stim_20210407_power2amp/equal_lnn_AM5.4Hz_51.m4a,,,
,,,,,,,,,,,,40418,2021-05-10_19h48.00.671,judgeSpeechMusic_20210407_logNormShiftAmp,2020.1.2,MacIntel,60,,,,,,,,,,,,,,1,6.574,,0,0,128,128,110,1,stimuli/stim_20210407_power2amp/equal_lnn_AM4.8Hz_99.m4a,,,
,,,,,,,,,,,,40418,2021-05-10_19h48.00.671,judgeSpeechMusic_20210407_logNormShiftAmp,2020.1.2,MacIntel,60,,,,,,,,,,,,,,1,6.074,,0,0,129,129,142,1,stimuli/stim_20210407_power2amp/equal_lnn_AM6Hz_11.m4a,,,
,,,,,,,,,,,,40418,2021-05-10_19h48.00.671,judgeSpeechMusic_20210407_logNormShiftAmp,2020.1.2,MacIntel,60,,,,,,,,,,,,,,1,7.194,,0,0,130,130,24,1,stimuli/stim_20210407_power2amp/equal_lnn_AM1.2Hz_11.m4a,,,
,,,,,,,,,,,,40418,2021-05-10_19h48.00.671,judgeSpeechMusic_20210407_logNormShiftAmp,2020.1.2,MacIntel,60,,,,,,,,,,,,,,1,8.676,,0,0,131,131,115,1,stimuli/stim_20210407_power2amp/equal_lnn_AM4.8Hz_32.m4a,,,
,,,,,,,,,,,,40418,2021-05-10_19h48.00.671,judgeSpeechMusic_20210407_logNormShiftAmp,2020.1.2,MacIntel,60,,,,,,,,,,,,,,1,6.659,3,1,0,132,132,138,1,stimuli/stim_20210407_power2amp/equal_lnn_AM6Hz_98.m4a,0.989,,
,,,,,,,,,,,,40418,2021-05-10_19h48.00.671,judgeSpeechMusic_20210407_logNormShiftAmp,2020.1.2,MacIntel,60,,,,,,,,,,,,,,1,5.72,,0,0,133,133,27,1,stimuli/stim_20210407_power2amp/equal_lnn_AM1.2Hz_26.m4a,,,
,,,,,,,,,,,,40418,2021-05-10_19h48.00.671,judgeSpeechMusic_20210407_logNormShiftAmp,2020.1.2,MacIntel,60,,,,,,,,,,,,,,1,6.26,,0,0,134,134,105,1,stimuli/stim_20210407_power2amp/equal_lnn_AM4.8Hz_65.m4a,,,
,,,,,,,,,,,,40418,2021-05-10_19h48.00.671,judgeSpeechMusic_20210407_logNormShiftAmp,2020.1.2,MacIntel,60,,,,,,,,,,,,,,2,6.863,,0,0,135,135,18,1,stimuli/stim_20210407_power2amp/equal_lnn_AM1.2Hz_22.m4a,,,
,,,,,,,,,,,,40418,2021-05-10_19h48.00.671,judgeSpeechMusic_20210407_logNormShiftAmp,2020.1.2,MacIntel,60,,,,,,,,,,,,,,2,5.638,,0,0,136,136,87,1,stimuli/stim_20210407_power2amp/equal_lnn_AM3.6Hz_66.m4a,,,
,,,,,,,,,,,,40418,2021-05-10_19h48.00.671,judgeSpeechMusic_20210407_logNormShiftAmp,2020.1.2,MacIntel,60,,,,,,,,,,,,,,2,5.709,,0,0,137,137,74,1,stimuli/stim_20210407_power2amp/equal_lnn_AM3Hz_67.m4a,,,
,,,,,,,,,,,,40418,2021-05-10_19h48.00.671,judgeSpeechMusic_20210407_logNormShiftAmp,2020.1.2,MacIntel,60,,,,,,,,,,,,,,2,6.095,,0,0,138,138,55,1,stimuli/stim_20210407_power2amp/equal_lnn_AM2.4Hz_61.m4a,,,
,,,,,,,,,,,,40418,2021-05-10_19h48.00.671,judgeSpeechMusic_20210407_logNormShiftAmp,2020.1.2,MacIntel,60,,,,,,,,,,,,,,2,6.196,,0,0,139,139,125,1,stimuli/stim_20210407_power2amp/equal_lnn_AM5.4Hz_53.m4a,,,
,,,,,,,,,,,,40418,2021-05-10_19h48.00.671,judgeSpeechMusic_20210407_logNormShiftAmp,2020.1.2,MacIntel,60,,,,,,,,,,,,,,2,6.493,,0,0,140,140,137,1,stimuli/stim_20210407_power2amp/equal_lnn_AM6Hz_71.m4a,,,
,,,,,,,,,,,,40418,2021-05-10_19h48.00.671,judgeSpeechMusic_20210407_logNormShiftAmp,2020.1.2,MacIntel,60,,,,,,,,,,,,,,2,6.73,,0,0,141,141,107,1,stimuli/stim_20210407_power2amp/equal_lnn_AM4.8Hz_26.m4a,,,
,,,,,,,,,,,,40418,2021-05-10_19h48.00.671,judgeSpeechMusic_20210407_logNormShiftAmp,2020.1.2,MacIntel,60,,,,,,,,,,,,,,2,6.376,,0,0,142,142,65,1,stimuli/stim_20210407_power2amp/equal_lnn_AM3Hz_59.m4a,,,
,,,,,,,,,,,,40418,2021-05-10_19h48.00.671,judgeSpeechMusic_20210407_logNormShiftAmp,2020.1.2,MacIntel,60,,,,,,,,,,,,,,2,6.489,,0,0,143,143,76,1,stimuli/stim_20210407_power2amp/equal_lnn_AM3.6Hz_32.m4a,,,
,,,,,,,,,,,,40418,2021-05-10_19h48.00.671,judgeSpeechMusic_20210407_logNormShiftAmp,2020.1.2,MacIntel,60,,,,,,,,,,,,,,2,5.846,,0,0,144,144,145,1,stimuli/stim_20210407_power2amp/equal_lnn_AM6Hz_96.m4a,,,
,,,,,,,,,,,,40418,2021-05-10_19h48.00.671,judgeSpeechMusic_20210407_logNormShiftAmp,2020.1.2,MacIntel,60,,,,,,,,,,,,,,2,6.445,,0,0,145,145,30,1,stimuli/stim_20210407_power2amp/equal_lnn_AM1.8Hz_18.m4a,,,
,,,,,,,,,,,,40418,2021-05-10_19h48.00.671,judgeSpeechMusic_20210407_logNormShiftAmp,2020.1.2,MacIntel,60,,,,,,,,,,,,,,1,7.188,,0,0,146,146,21,1,stimuli/stim_20210407_power2amp/equal_lnn_AM1.2Hz_53.m4a,,,
,,,,,,,,,,,,40418,2021-05-10_19h48.00.671,judgeSpeechMusic_20210407_logNormShiftAmp,2020.1.2,MacIntel,60,,,,,,,,,,,,,,1,6.387,,0,0,147,147,93,1,stimuli/stim_20210407_power2amp/equal_lnn_AM4.2Hz_67.m4a,,,
,,,,,,,,,,,,40418,2021-05-10_19h48.00.671,judgeSpeechMusic_20210407_logNormShiftAmp,2020.1.2,MacIntel,60,,,,,,,,,,,,,,1,7.992,,0,0,148,148,94,1,stimuli/stim_20210407_power2amp/equal_lnn_AM4.2Hz_85.m4a,,,
,,,,,,,,,,,,40418,2021-05-10_19h48.00.671,judgeSpeechMusic_20210407_logNormShiftAmp,2020.1.2,MacIntel,60,,,,,,,,,,,,,,1,6.104,,0,0,149,149,13,1,stimuli/stim_20210407_power2amp/equal_lnn_AM0.6Hz_5.m4a,,,
,,,,,,,,,,,,40418,2021-05-10_19h48.00.671,judgeSpeechMusic_20210407_logNormShiftAmp,2020.1.2,MacIntel,60,,,,,,,,,,,,,,1,6.072,,0,1,0,150,145,1,stimuli/stim_20210407_power2amp/equal_lnn_AM6Hz_96.m4a,,,
,,,,,,,,,,,,40418,2021-05-10_19h48.00.671,judgeSpeechMusic_20210407_logNormShiftAmp,2020.1.2,MacIntel,60,,,,,,,,,,,,,,2,5.745,,0,1,1,151,36,1,stimuli/stim_20210407_power2amp/equal_lnn_AM1.8Hz_85.m4a,,,
,,,,,,,,,,,,40418,2021-05-10_19h48.00.671,judgeSpeechMusic_20210407_logNormShiftAmp,2020.1.2,MacIntel,60,,,,,,,,,,,,,,2,5.708,2,1,1,2,152,24,1,stimuli/stim_20210407_power2amp/equal_lnn_AM1.2Hz_11.m4a,1.444,,
,,,,,,,,,,,,40418,2021-05-10_19h48.00.671,judgeSpeechMusic_20210407_logNormShiftAmp,2020.1.2,MacIntel,60,,,,,,,,,,,,,,2,5.992,,0,1,3,153,84,1,stimuli/stim_20210407_power2amp/equal_lnn_AM3.6Hz_86.m4a,,,
,,,,,,,,,,,,40418,2021-05-10_19h48.00.671,judgeSpeechMusic_20210407_logNormShiftAmp,2020.1.2,MacIntel,60,,,,,,,,,,,,,,1,6.488,,0,1,4,154,35,1,stimuli/stim_20210407_power2amp/equal_lnn_AM1.8Hz_3.m4a,,,
,,,,,,,,,,,,40418,2021-05-10_19h48.00.671,judgeSpeechMusic_20210407_logNormShiftAmp,2020.1.2,MacIntel,60,,,,,,,,,,,,,,1,5.956,,0,1,5,155,140,1,stimuli/stim_20210407_power2amp/equal_lnn_AM6Hz_30.m4a,,,
,,,,,,,,,,,,40418,2021-05-10_19h48.00.671,judgeSpeechMusic_20210407_logNormShiftAmp,2020.1.2,MacIntel,60,,,,,,,,,,,,,,1,5.693,,0,1,6,156,23,1,stimuli/stim_20210407_power2amp/equal_lnn_AM1.2Hz_59.m4a,,,
,,,,,,,,,,,,40418,2021-05-10_19h48.00.671,judgeSpeechMusic_20210407_logNormShiftAmp,2020.1.2,MacIntel,60,,,,,,,,,,,,,,1,6.286,,0,1,7,157,95,1,stimuli/stim_20210407_power2amp/equal_lnn_AM4.2Hz_51.m4a,,,
,,,,,,,,,,,,40418,2021-05-10_19h48.00.671,judgeSpeechMusic_20210407_logNormShiftAmp,2020.1.2,MacIntel,60,,,,,,,,,,,,,,1,6.205,,0,1,8,158,15,1,stimuli/stim_20210407_power2amp/equal_lnn_AM1.2Hz_3.m4a,,,
,,,,,,,,,,,,40418,2021-05-10_19h48.00.671,judgeSpeechMusic_20210407_logNormShiftAmp,2020.1.2,MacIntel,60,,,,,,,,,,,,,,1,13.174,,0,1,9,159,56,1,stimuli/stim_20210407_power2amp/equal_lnn_AM2.4Hz_7.m4a,,,
,,,,,,,,,,,,40418,2021-05-10_19h48.00.671,judgeSpeechMusic_20210407_logNormShiftAmp,2020.1.2,MacIntel,60,,,,,,,,,,,,,,2,7.297,,0,1,10,160,120,1,stimuli/stim_20210407_power2amp/equal_lnn_AM5.4Hz_61.m4a,,,
,,,,,,,,,,,,40418,2021-05-10_19h48.00.671,judgeSpeechMusic_20210407_logNormShiftAmp,2020.1.2,MacIntel,60,,,,,,,,,,,,,,2,6.443,,0,1,11,161,21,1,stimuli/stim_20210407_power2amp/equal_lnn_AM1.2Hz_53.m4a,,,
,,,,,,,,,,,,40418,2021-05-10_19h48.00.671,judgeSpeechMusic_20210407_logNormShiftAmp,2020.1.2,MacIntel,60,,,,,,,,,,,,,,2,6.539,,0,1,12,162,10,1,stimuli/stim_20210407_power2amp/equal_lnn_AM0.6Hz_42.m4a,,,
,,,,,,,,,,,,40418,2021-05-10_19h48.00.671,judgeSpeechMusic_20210407_logNormShiftAmp,2020.1.2,MacIntel,60,,,,,,,,,,,,,,2,6.287,,0,1,13,163,146,1,stimuli/stim_20210407_power2amp/equal_lnn_AM6Hz_6.m4a,,,
,,,,,,,,,,,,40418,2021-05-10_19h48.00.671,judgeSpeechMusic_20210407_logNormShiftAmp,2020.1.2,MacIntel,60,,,,,,,,,,,,,,2,7.492,,0,1,14,164,50,1,stimuli/stim_20210407_power2amp/equal_lnn_AM2.4Hz_45.m4a,,,
,,,,,,,,,,,,40418,2021-05-10_19h48.00.671,judgeSpeechMusic_20210407_logNormShiftAmp,2020.1.2,MacIntel,60,,,,,,,,,,,,,,2,5.955,,0,1,15,165,114,1,stimuli/stim_20210407_power2amp/equal_lnn_AM4.8Hz_42.m4a,,,
,,,,,,,,,,,,40418,2021-05-10_19h48.00.671,judgeSpeechMusic_20210407_logNormShiftAmp,2020.1.2,MacIntel,60,,,,,,,,,,,,,,2,8.209,,0,1,16,166,8,1,stimuli/stim_20210407_power2amp/equal_lnn_AM0.6Hz_55.m4a,,,
,,,,,,,,,,,,40418,2021-05-10_19h48.00.671,judgeSpeechMusic_20210407_logNormShiftAmp,2020.1.2,MacIntel,60,,,,,,,,,,,,,,2,6.887,,0,1,17,167,131,1,stimuli/stim_20210407_power2amp/equal_lnn_AM5.4Hz_92.m4a,,,
,,,,,,,,,,,,40418,2021-05-10_19h48.00.671,judgeSpeechMusic_20210407_logNormShiftAmp,2020.1.2,MacIntel,60,,,,,,,,,,,,,,2,6.572,,0,1,18,168,14,1,stimuli/stim_20210407_power2amp/equal_lnn_AM0.6Hz_31.m4a,,,
,,,,,,,,,,,,40418,2021-05-10_19h48.00.671,judgeSpeechMusic_20210407_logNormShiftAmp,2020.1.2,MacIntel,60,,,,,,,,,,,,,,2,6.459,,0,1,19,169,29,1,stimuli/stim_20210407_power2amp/equal_lnn_AM1.2Hz_51.m4a,,,
,,,,,,,,,,,,40418,2021-05-10_19h48.00.671,judgeSpeechMusic_20210407_logNormShiftAmp,2020.1.2,MacIntel,60,,,,,,,,,,,,,,2,7.493,,0,1,20,170,124,1,stimuli/stim_20210407_power2amp/equal_lnn_AM5.4Hz_83.m4a,,,
,,,,,,,,,,,,40418,2021-05-10_19h48.00.671,judgeSpeechMusic_20210407_logNormShiftAmp,2020.1.2,MacIntel,60,,,,,,,,,,,,,,2,6.272,,0,1,21,171,87,1,stimuli/stim_20210407_power2amp/equal_lnn_AM3.6Hz_66.m4a,,,
,,,,,,,,,,,,40418,2021-05-10_19h48.00.671,judgeSpeechMusic_20210407_logNormShiftAmp,2020.1.2,MacIntel,60,,,,,,,,,,,,,,2,6.52,,0,1,22,172,20,1,stimuli/stim_20210407_power2amp/equal_lnn_AM1.2Hz_28.m4a,,,
,,,,,,,,,,,,40418,2021-05-10_19h48.00.671,judgeSpeechMusic_20210407_logNormShiftAmp,2020.1.2,MacIntel,60,,,,,,,,,,,,,,2,6.347,,0,1,23,173,40,1,stimuli/stim_20210407_power2amp/equal_lnn_AM1.8Hz_12.m4a,,,
,,,,,,,,,,,,40418,2021-05-10_19h48.00.671,judgeSpeechMusic_20210407_logNormShiftAmp,2020.1.2,MacIntel,60,,,,,,,,,,,,,,1,7.31,,0,1,24,174,48,1,stimuli/stim_20210407_power2amp/equal_lnn_AM2.4Hz_62.m4a,,,
,,,,,,,,,,,,40418,2021-05-10_19h48.00.671,judgeSpeechMusic_20210407_logNormShiftAmp,2020.1.2,MacIntel,60,,,,,,,,,,,,,,1,5.769,1,1,1,25,175,81,1,stimuli/stim_20210407_power2amp/equal_lnn_AM3.6Hz_38.m4a,1.107,,
,,,,,,,,,,,,40418,2021-05-10_19h48.00.671,judgeSpeechMusic_20210407_logNormShiftAmp,2020.1.2,MacIntel,60,,,,,,,,,,,,,,1,6.28,,0,1,26,176,138,1,stimuli/stim_20210407_power2amp/equal_lnn_AM6Hz_98.m4a,,,
,,,,,,,,,,,,40418,2021-05-10_19h48.00.671,judgeSpeechMusic_20210407_logNormShiftAmp,2020.1.2,MacIntel,60,,,,,,,,,,,,,,1,6.605,,0,1,27,177,67,1,stimuli/stim_20210407_power2amp/equal_lnn_AM3Hz_79.m4a,,,
,,,,,,,,,,,,40418,2021-05-10_19h48.00.671,judgeSpeechMusic_20210407_logNormShiftAmp,2020.1.2,MacIntel,60,,,,,,,,,,,,,,1,6.711,,0,1,28,178,42,1,stimuli/stim_20210407_power2amp/equal_lnn_AM1.8Hz_100.m4a,,,
,,,,,,,,,,,,40418,2021-05-10_19h48.00.671,judgeSpeechMusic_20210407_logNormShiftAmp,2020.1.2,MacIntel,60,,,,,,,,,,,,,,1,6.299,,0,1,29,179,32,1,stimuli/stim_20210407_power2amp/equal_lnn_AM1.8Hz_23.m4a,,,
,,,,,,,,,,,,40418,2021-05-10_19h48.00.671,judgeSpeechMusic_20210407_logNormShiftAmp,2020.1.2,MacIntel,60,,,,,,,,,,,,,,2,7.028,,0,1,30,180,25,1,stimuli/stim_20210407_power2amp/equal_lnn_AM1.2Hz_24.m4a,,,
,,,,,,,,,,,,40418,2021-05-10_19h48.00.671,judgeSpeechMusic_20210407_logNormShiftAmp,2020.1.2,MacIntel,60,,,,,,,,,,,,,,2,6.037,,0,1,31,181,149,1,stimuli/stim_20210407_power2amp/equal_lnn_AM6Hz_33.m4a,,,
,,,,,,,,,,,,40418,2021-05-10_19h48.00.671,judgeSpeechMusic_20210407_logNormShiftAmp,2020.1.2,MacIntel,60,,,,,,,,,,,,,,2,5.687,,0,1,32,182,118,1,stimuli/stim_20210407_power2amp/equal_lnn_AM4.8Hz_18.m4a,,,
,,,,,,,,,,,,40418,2021-05-10_19h48.00.671,judgeSpeechMusic_20210407_logNormShiftAmp,2020.1.2,MacIntel,60,,,,,,,,,,,,,,2,6.338,,0,1,33,183,44,1,stimuli/stim_20210407_power2amp/equal_lnn_AM1.8Hz_14.m4a,,,
,,,,,,,,,,,,40418,2021-05-10_19h48.00.671,judgeSpeechMusic_20210407_logNormShiftAmp,2020.1.2,MacIntel,60,,,,,,,,,,,,,,2,6.18,,0,1,34,184,34,1,stimuli/stim_20210407_power2amp/equal_lnn_AM1.8Hz_82.m4a,,,
,,,,,,,,,,,,40418,2021-05-10_19h48.00.671,judgeSpeechMusic_20210407_logNormShiftAmp,2020.1.2,MacIntel,60,,,,,,,,,,,,,,2,6.153,,0,1,35,185,82,1,stimuli/stim_20210407_power2amp/equal_lnn_AM3.6Hz_61.m4a,,,
,,,,,,,,,,,,40418,2021-05-10_19h48.00.671,judgeSpeechMusic_20210407_logNormShiftAmp,2020.1.2,MacIntel,60,,,,,,,,,,,,,,2,6.23,,0,1,36,186,51,1,stimuli/stim_20210407_power2amp/equal_lnn_AM2.4Hz_40.m4a,,,
,,,,,,,,,,,,40418,2021-05-10_19h48.00.671,judgeSpeechMusic_20210407_logNormShiftAmp,2020.1.2,MacIntel,60,,,,,,,,,,,,,,2,5.814,,0,1,37,187,79,1,stimuli/stim_20210407_power2amp/equal_lnn_AM3.6Hz_33.m4a,,,
,,,,,,,,,,,,40418,2021-05-10_19h48.00.671,judgeSpeechMusic_20210407_logNormShiftAmp,2020.1.2,MacIntel,60,,,,,,,,,,,,,,2,6.979,,0,1,38,188,53,1,stimuli/stim_20210407_power2amp/equal_lnn_AM2.4Hz_12.m4a,,,
,,,,,,,,,,,,40418,2021-05-10_19h48.00.671,judgeSpeechMusic_20210407_logNormShiftAmp,2020.1.2,MacIntel,60,,,,,,,,,,,,,,2,7.347,,0,1,39,189,116,1,stimuli/stim_20210407_power2amp/equal_lnn_AM4.8Hz_59.m4a,,,
,,,,,,,,,,,,40418,2021-05-10_19h48.00.671,judgeSpeechMusic_20210407_logNormShiftAmp,2020.1.2,MacIntel,60,,,,,,,,,,,,,,2,5.806,,0,1,40,190,89,1,stimuli/stim_20210407_power2amp/equal_lnn_AM3.6Hz_80.m4a,,,
,,,,,,,,,,,,40418,2021-05-10_19h48.00.671,judgeSpeechMusic_20210407_logNormShiftAmp,2020.1.2,MacIntel,60,,,,,,,,,,,,,,2,6.825,,0,1,41,191,90,1,stimuli/stim_20210407_power2amp/equal_lnn_AM4.2Hz_43.m4a,,,
,,,,,,,,,,,,40418,2021-05-10_19h48.00.671,judgeSpeechMusic_20210407_logNormShiftAmp,2020.1.2,MacIntel,60,,,,,,,,,,,,,,2,17.109,,0,1,42,192,130,1,stimuli/stim_20210407_power2amp/equal_lnn_AM5.4Hz_58.m4a,,,
,,,,,,,,,,,,40418,2021-05-10_19h48.00.671,judgeSpeechMusic_20210407_logNormShiftAmp,2020.1.2,MacIntel,60,,,,,,,,,,,,,,2,6.421,,0,1,43,193,134,1,stimuli/stim_20210407_power2amp/equal_lnn_AM5.4Hz_77.m4a,,,
,,,,,,,,,,,,40418,2021-05-10_19h48.00.671,judgeSpeechMusic_20210407_logNormShiftAmp,2020.1.2,MacIntel,60,,,,,,,,,,,,,,2,6.462,,0,1,44,194,55,1,stimuli/stim_20210407_power2amp/equal_lnn_AM2.4Hz_61.m4a,,,
,,,,,,,,,,,,40418,2021-05-10_19h48.00.671,judgeSpeechMusic_20210407_logNormShiftAmp,2020.1.2,MacIntel,60,,,,,,,,,,,,,,2,7.394,,0,1,45,195,122,1,stimuli/stim_20210407_power2amp/equal_lnn_AM5.4Hz_25.m4a,,,
,,,,,,,,,,,,40418,2021-05-10_19h48.00.671,judgeSpeechMusic_20210407_logNormShiftAmp,2020.1.2,MacIntel,60,,,,,,,,,,,,,,2,6.646,,0,1,46,196,113,1,stimuli/stim_20210407_power2amp/equal_lnn_AM4.8Hz_20.m4a,,,
,,,,,,,,,,,,40418,2021-05-10_19h48.00.671,judgeSpeechMusic_20210407_logNormShiftAmp,2020.1.2,MacIntel,60,,,,,,,,,,,,,,2,6.131,3,1,1,47,197,109,1,stimuli/stim_20210407_power2amp/equal_lnn_AM4.8Hz_96.m4a,0.39,,
,,,,,,,,,,,,40418,2021-05-10_19h48.00.671,judgeSpeechMusic_20210407_logNormShiftAmp,2020.1.2,MacIntel,60,,,,,,,,,,,,,,2,5.742,,0,1,48,198,148,1,stimuli/stim_20210407_power2amp/equal_lnn_AM6Hz_18.m4a,,,
,,,,,,,,,,,,40418,2021-05-10_19h48.00.671,judgeSpeechMusic_20210407_logNormShiftAmp,2020.1.2,MacIntel,60,,,,,,,,,,,,,,2,6.07,,0,1,49,199,104,1,stimuli/stim_20210407_power2amp/equal_lnn_AM4.2Hz_99.m4a,,,
,,,,,,,,,,,,40418,2021-05-10_19h48.00.671,judgeSpeechMusic_20210407_logNormShiftAmp,2020.1.2,MacIntel,60,,,,,,,,,,,,,,2,5.923,,0,1,50,200,9,1,stimuli/stim_20210407_power2amp/equal_lnn_AM0.6Hz_50.m4a,,,
,,,,,,,,,,,,40418,2021-05-10_19h48.00.671,judgeSpeechMusic_20210407_logNormShiftAmp,2020.1.2,MacIntel,60,,,,,,,,,,,,,,2,6.221,,0,1,51,201,17,1,stimuli/stim_20210407_power2amp/equal_lnn_AM1.2Hz_82.m4a,,,
,,,,,,,,,,,,40418,2021-05-10_19h48.00.671,judgeSpeechMusic_20210407_logNormShiftAmp,2020.1.2,MacIntel,60,,,,,,,,,,,,,,2,5.947,,0,1,52,202,103,1,stimuli/stim_20210407_power2amp/equal_lnn_AM4.2Hz_36.m4a,,,
,,,,,,,,,,,,40418,2021-05-10_19h48.00.671,judgeSpeechMusic_20210407_logNormShiftAmp,2020.1.2,MacIntel,60,,,,,,,,,,,,,,2,6.354,,0,1,53,203,123,1,stimuli/stim_20210407_power2amp/equal_lnn_AM5.4Hz_51.m4a,,,
,,,,,,,,,,,,40418,2021-05-10_19h48.00.671,judgeSpeechMusic_20210407_logNormShiftAmp,2020.1.2,MacIntel,60,,,,,,,,,,,,,,2,5.86,,0,1,54,204,101,1,stimuli/stim_20210407_power2amp/equal_lnn_AM4.2Hz_64.m4a,,,
,,,,,,,,,,,,40418,2021-05-10_19h48.00.671,judgeSpeechMusic_20210407_logNormShiftAmp,2020.1.2,MacIntel,60,,,,,,,,,,,,,,2,6.037,,0,1,55,205,83,1,stimuli/stim_20210407_power2amp/equal_lnn_AM3.6Hz_69.m4a,,,
,,,,,,,,,,,,40418,2021-05-10_19h48.00.671,judgeSpeechMusic_20210407_logNormShiftAmp,2020.1.2,MacIntel,60,,,,,,,,,,,,,,2,5.894,,0,1,56,206,54,1,stimuli/stim_20210407_power2amp/equal_lnn_AM2.4Hz_63.m4a,,,
,,,,,,,,,,,,40418,2021-05-10_19h48.00.671,judgeSpeechMusic_20210407_logNormShiftAmp,2020.1.2,MacIntel,60,,,,,,,,,,,,,,2,6.985,,0,1,57,207,105,1,stimuli/stim_20210407_power2amp/equal_lnn_AM4.8Hz_65.m4a,,,
,,,,,,,,,,,,40418,2021-05-10_19h48.00.671,judgeSpeechMusic_20210407_logNormShiftAmp,2020.1.2,MacIntel,60,,,,,,,,,,,,,,2,6.155,,0,1,58,208,72,1,stimuli/stim_20210407_power2amp/equal_lnn_AM3Hz_100.m4a,,,
,,,,,,,,,,,,40418,2021-05-10_19h48.00.671,judgeSpeechMusic_20210407_logNormShiftAmp,2020.1.2,MacIntel,60,,,,,,,,,,,,,,2,6.426,,0,1,59,209,74,1,stimuli/stim_20210407_power2amp/equal_lnn_AM3Hz_67.m4a,,,
,,,,,,,,,,,,40418,2021-05-10_19h48.00.671,judgeSpeechMusic_20210407_logNormShiftAmp,2020.1.2,MacIntel,60,,,,,,,,,,,,,,2,6.132,,0,1,60,210,137,1,stimuli/stim_20210407_power2amp/equal_lnn_AM6Hz_71.m4a,,,
,,,,,,,,,,,,40418,2021-05-10_19h48.00.671,judgeSpeechMusic_20210407_logNormShiftAmp,2020.1.2,MacIntel,60,,,,,,,,,,,,,,2,6.43,,0,1,61,211,26,1,stimuli/stim_20210407_power2amp/equal_lnn_AM1.2Hz_40.m4a,,,
,,,,,,,,,,,,40418,2021-05-10_19h48.00.671,judgeSpeechMusic_20210407_logNormShiftAmp,2020.1.2,MacIntel,60,,,,,,,,,,,,,,2,6.155,,0,1,62,212,22,1,stimuli/stim_20210407_power2amp/equal_lnn_AM1.2Hz_35.m4a,,,
,,,,,,,,,,,,40418,2021-05-10_19h48.00.671,judgeSpeechMusic_20210407_logNormShiftAmp,2020.1.2,MacIntel,60,,,,,,,,,,,,,,2,7.462,,0,1,63,213,73,1,stimuli/stim_20210407_power2amp/equal_lnn_AM3Hz_73.m4a,,,
,,,,,,,,,,,,40418,2021-05-10_19h48.00.671,judgeSpeechMusic_20210407_logNormShiftAmp,2020.1.2,MacIntel,60,,,,,,,,,,,,,,2,7.987,,0,1,64,214,70,1,stimuli/stim_20210407_power2amp/equal_lnn_AM3Hz_57.m4a,,,
,,,,,,,,,,,,40418,2021-05-10_19h48.00.671,judgeSpeechMusic_20210407_logNormShiftAmp,2020.1.2,MacIntel,60,,,,,,,,,,,,,,2,5.893,,0,1,65,215,112,1,stimuli/stim_20210407_power2amp/equal_lnn_AM4.8Hz_43.m4a,,,
,,,,,,,,,,,,40418,2021-05-10_19h48.00.671,judgeSpeechMusic_20210407_logNormShiftAmp,2020.1.2,MacIntel,60,,,,,,,,,,,,,,2,5.786,,0,1,66,216,76,1,stimuli/stim_20210407_power2amp/equal_lnn_AM3.6Hz_32.m4a,,,
,,,,,,,,,,,,40418,2021-05-10_19h48.00.671,judgeSpeechMusic_20210407_logNormShiftAmp,2020.1.2,MacIntel,60,,,,,,,,,,,,,,2,6.127,,0,1,67,217,144,1,stimuli/stim_20210407_power2amp/equal_lnn_AM6Hz_36.m4a,,,
,,,,,,,,,,,,40418,2021-05-10_19h48.00.671,judgeSpeechMusic_20210407_logNormShiftAmp,2020.1.2,MacIntel,60,,,,,,,,,,,,,,2,6.62,2,1,1,68,218,135,1,stimuli/stim_20210407_power2amp/equal_lnn_AM6Hz_39.m4a,1.024,,
,,,,,,,,,,,,40418,2021-05-10_19h48.00.671,judgeSpeechMusic_20210407_logNormShiftAmp,2020.1.2,MacIntel,60,,,,,,,,,,,,,,2,7.577,,0,1,69,219,49,1,stimuli/stim_20210407_power2amp/equal_lnn_AM2.4Hz_50.m4a,,,
,,,,,,,,,,,,40418,2021-05-10_19h48.00.671,judgeSpeechMusic_20210407_logNormShiftAmp,2020.1.2,MacIntel,60,,,,,,,,,,,,,,2,6.255,,0,1,70,220,98,1,stimuli/stim_20210407_power2amp/equal_lnn_AM4.2Hz_37.m4a,,,
,,,,,,,,,,,,40418,2021-05-10_19h48.00.671,judgeSpeechMusic_20210407_logNormShiftAmp,2020.1.2,MacIntel,60,,,,,,,,,,,,,,2,7.071,,0,1,71,221,126,1,stimuli/stim_20210407_power2amp/equal_lnn_AM5.4Hz_5.m4a,,,
,,,,,,,,,,,,40418,2021-05-10_19h48.00.671,judgeSpeechMusic_20210407_logNormShiftAmp,2020.1.2,MacIntel,60,,,,,,,,,,,,,,2,15.336,,0,1,72,222,33,1,stimuli/stim_20210407_power2amp/equal_lnn_AM1.8Hz_41.m4a,,,
,,,,,,,,,,,,40418,2021-05-10_19h48.00.671,judgeSpeechMusic_20210407_logNormShiftAmp,2020.1.2,MacIntel,60,,,,,,,,,,,,,,2,7.503,,0,1,73,223,99,1,stimuli/stim_20210407_power2amp/equal_lnn_AM4.2Hz_10.m4a,,,
,,,,,,,,,,,,40418,2021-05-10_19h48.00.671,judgeSpeechMusic_20210407_logNormShiftAmp,2020.1.2,MacIntel,60,,,,,,,,,,,,,,2,6.718,,0,1,74,224,11,1,stimuli/stim_20210407_power2amp/equal_lnn_AM0.6Hz_32.m4a,,,
,,,,,,,,,,,,40418,2021-05-10_19h48.00.671,judgeSpeechMusic_20210407_logNormShiftAmp,2020.1.2,MacIntel,60,,,,,,,,,,,,,,2,6.159,,0,1,75,225,69,1,stimuli/stim_20210407_power2amp/equal_lnn_AM3Hz_90.m4a,,,
,,,,,,,,,,,,40418,2021-05-10_19h48.00.671,judgeSpeechMusic_20210407_logNormShiftAmp,2020.1.2,MacIntel,60,,,,,,,,,,,,,,2,5.955,,0,1,76,226,58,1,stimuli/stim_20210407_power2amp/equal_lnn_AM2.4Hz_24.m4a,,,
,,,,,,,,,,,,40418,2021-05-10_19h48.00.671,judgeSpeechMusic_20210407_logNormShiftAmp,2020.1.2,MacIntel,60,,,,,,,,,,,,,,2,5.695,,0,1,77,227,91,1,stimuli/stim_20210407_power2amp/equal_lnn_AM4.2Hz_3.m4a,,,
,,,,,,,,,,,,40418,2021-05-10_19h48.00.671,judgeSpeechMusic_20210407_logNormShiftAmp,2020.1.2,MacIntel,60,,,,,,,,,,,,,,2,5.94,,0,1,78,228,106,1,stimuli/stim_20210407_power2amp/equal_lnn_AM4.8Hz_9.m4a,,,
,,,,,,,,,,,,40418,2021-05-10_19h48.00.671,judgeSpeechMusic_20210407_logNormShiftAmp,2020.1.2,MacIntel,60,,,,,,,,,,,,,,2,5.921,,0,1,79,229,133,1,stimuli/stim_20210407_power2amp/equal_lnn_AM5.4Hz_88.m4a,,,
,,,,,,,,,,,,40418,2021-05-10_19h48.00.671,judgeSpeechMusic_20210407_logNormShiftAmp,2020.1.2,MacIntel,60,,,,,,,,,,,,,,2,5.789,,0,1,80,230,111,1,stimuli/stim_20210407_power2amp/equal_lnn_AM4.8Hz_78.m4a,,,
,,,,,,,,,,,,40418,2021-05-10_19h48.00.671,judgeSpeechMusic_20210407_logNormShiftAmp,2020.1.2,MacIntel,60,,,,,,,,,,,,,,2,5.96,,0,1,81,231,61,1,stimuli/stim_20210407_power2amp/equal_lnn_AM3Hz_22.m4a,,,
,,,,,,,,,,,,40418,2021-05-10_19h48.00.671,judgeSpeechMusic_20210407_logNormShiftAmp,2020.1.2,MacIntel,60,,,,,,,,,,,,,,2,5.922,,0,1,82,232,141,1,stimuli/stim_20210407_power2amp/equal_lnn_AM6Hz_44.m4a,,,
,,,,,,,,,,,,40418,2021-05-10_19h48.00.671,judgeSpeechMusic_20210407_logNormShiftAmp,2020.1.2,MacIntel,60,,,,,,,,,,,,,,2,5.775,,0,1,83,233,92,1,stimuli/stim_20210407_power2amp/equal_lnn_AM4.2Hz_61.m4a,,,
,,,,,,,,,,,,40418,2021-05-10_19h48.00.671,judgeSpeechMusic_20210407_logNormShiftAmp,2020.1.2,MacIntel,60,,,,,,,,,,,,,,2,5.975,,0,1,84,234,88,1,stimuli/stim_20210407_power2amp/equal_lnn_AM3.6Hz_65.m4a,,,
,,,,,,,,,,,,40418,2021-05-10_19h48.00.671,judgeSpeechMusic_20210407_logNormShiftAmp,2020.1.2,MacIntel,60,,,,,,,,,,,,,,2,5.688,,0,1,85,235,97,1,stimuli/stim_20210407_power2amp/equal_lnn_AM4.2Hz_60.m4a,,,
,,,,,,,,,,,,40418,2021-05-10_19h48.00.671,judgeSpeechMusic_20210407_logNormShiftAmp,2020.1.2,MacIntel,60,,,,,,,,,,,,,,2,6.371,,0,1,86,236,4,1,stimuli/stim_20210407_power2amp/equal_lnn_AM0.6Hz_44.m4a,,,
,,,,,,,,,,,,40418,2021-05-10_19h48.00.671,judgeSpeechMusic_20210407_logNormShiftAmp,2020.1.2,MacIntel,60,,,,,,,,,,,,,,2,5.892,,0,1,87,237,52,1,stimuli/stim_20210407_power2amp/equal_lnn_AM2.4Hz_90.m4a,,,
,,,,,,,,,,,,40418,2021-05-10_19h48.00.671,judgeSpeechMusic_20210407_logNormShiftAmp,2020.1.2,MacIntel,60,,,,,,,,,,,,,,2,6.209,,0,1,88,238,94,1,stimuli/stim_20210407_power2amp/equal_lnn_AM4.2Hz_85.m4a,,,
,,,,,,,,,,,,40418,2021-05-10_19h48.00.671,judgeSpeechMusic_20210407_logNormShiftAmp,2020.1.2,MacIntel,60,,,,,,,,,,,,,,2,6.204,,0,1,89,239,107,1,stimuli/stim_20210407_power2amp/equal_lnn_AM4.8Hz_26.m4a,,,
,,,,,,,,,,,,40418,2021-05-10_19h48.00.671,judgeSpeechMusic_20210407_logNormShiftAmp,2020.1.2,MacIntel,60,,,,,,,,,,,,,,2,6.14,4,1,1,90,240,41,1,stimuli/stim_20210407_power2amp/equal_lnn_AM1.8Hz_54.m4a,0.899,,
,,,,,,,,,,,,40418,2021-05-10_19h48.00.671,judgeSpeechMusic_20210407_logNormShiftAmp,2020.1.2,MacIntel,60,,,,,,,,,,,,,,2,5.593,,0,1,91,241,85,1,stimuli/stim_20210407_power2amp/equal_lnn_AM3.6Hz_79.m4a,,,
,,,,,,,,,,,,40418,2021-05-10_19h48.00.671,judgeSpeechMusic_20210407_logNormShiftAmp,2020.1.2,MacIntel,60,,,,,,,,,,,,,,2,5.753,,0,1,92,242,96,1,stimuli/stim_20210407_power2amp/equal_lnn_AM4.2Hz_14.m4a,,,
,,,,,,,,,,,,40418,2021-05-10_19h48.00.671,judgeSpeechMusic_20210407_logNormShiftAmp,2020.1.2,MacIntel,60,,,,,,,,,,,,,,2,5.842,,0,1,93,243,47,1,stimuli/stim_20210407_power2amp/equal_lnn_AM2.4Hz_64.m4a,,,
,,,,,,,,,,,,40418,2021-05-10_19h48.00.671,judgeSpeechMusic_20210407_logNormShiftAmp,2020.1.2,MacIntel,60,,,,,,,,,,,,,,2,6.096,,0,1,94,244,13,1,stimuli/stim_20210407_power2amp/equal_lnn_AM0.6Hz_5.m4a,,,
,,,,,,,,,,,,40418,2021-05-10_19h48.00.671,judgeSpeechMusic_20210407_logNormShiftAmp,2020.1.2,MacIntel,60,,,,,,,,,,,,,,2,6.392,,0,1,95,245,45,1,stimuli/stim_20210407_power2amp/equal_lnn_AM2.4Hz_9.m4a,,,
,,,,,,,,,,,,40418,2021-05-10_19h48.00.671,judgeSpeechMusic_20210407_logNormShiftAmp,2020.1.2,MacIntel,60,,,,,,,,,,,,,,2,5.721,,0,1,96,246,0,1,stimuli/stim_20210407_power2amp/equal_lnn_AM0.6Hz_97.m4a,,,
,,,,,,,,,,,,40418,2021-05-10_19h48.00.671,judgeSpeechMusic_20210407_logNormShiftAmp,2020.1.2,MacIntel,60,,,,,,,,,,,,,,2,6.02,,0,1,97,247,68,1,stimuli/stim_20210407_power2amp/equal_lnn_AM3Hz_94.m4a,,,
,,,,,,,,,,,,40418,2021-05-10_19h48.00.671,judgeSpeechMusic_20210407_logNormShiftAmp,2020.1.2,MacIntel,60,,,,,,,,,,,,,,2,6.17,,0,1,98,248,31,1,stimuli/stim_20210407_power2amp/equal_lnn_AM1.8Hz_61.m4a,,,
,,,,,,,,,,,,40418,2021-05-10_19h48.00.671,judgeSpeechMusic_20210407_logNormShiftAmp,2020.1.2,MacIntel,60,,,,,,,,,,,,,,2,6.303,,0,1,99,249,143,1,stimuli/stim_20210407_power2amp/equal_lnn_AM6Hz_15.m4a,,,
,,,,,,,,,,,,40418,2021-05-10_19h48.00.671,judgeSpeechMusic_20210407_logNormShiftAmp,2020.1.2,MacIntel,60,,,,,,,,,,,,,,2,7.789,,0,1,100,250,38,1,stimuli/stim_20210407_power2amp/equal_lnn_AM1.8Hz_88.m4a,,,
,,,,,,,,,,,,40418,2021-05-10_19h48.00.671,judgeSpeechMusic_20210407_logNormShiftAmp,2020.1.2,MacIntel,60,,,,,,,,,,,,,,2,6.253,,0,1,101,251,128,1,stimuli/stim_20210407_power2amp/equal_lnn_AM5.4Hz_37.m4a,,,
,,,,,,,,,,,,40418,2021-05-10_19h48.00.671,judgeSpeechMusic_20210407_logNormShiftAmp,2020.1.2,MacIntel,60,,,,,,,,,,,,,,2,5.477,,0,1,102,252,121,1,stimuli/stim_20210407_power2amp/equal_lnn_AM5.4Hz_9.m4a,,,
,,,,,,,,,,,,40418,2021-05-10_19h48.00.671,judgeSpeechMusic_20210407_logNormShiftAmp,2020.1.2,MacIntel,60,,,,,,,,,,,,,,2,5.859,,0,1,103,253,127,1,stimuli/stim_20210407_power2amp/equal_lnn_AM5.4Hz_67.m4a,,,
,,,,,,,,,,,,40418,2021-05-10_19h48.00.671,judgeSpeechMusic_20210407_logNormShiftAmp,2020.1.2,MacIntel,60,,,,,,,,,,,,,,2,6.387,,0,1,104,254,86,1,stimuli/stim_20210407_power2amp/equal_lnn_AM3.6Hz_95.m4a,,,
,,,,,,,,,,,,40418,2021-05-10_19h48.00.671,judgeSpeechMusic_20210407_logNormShiftAmp,2020.1.2,MacIntel,60,,,,,,,,,,,,,,2,6.905,,0,1,105,255,129,1,stimuli/stim_20210407_power2amp/equal_lnn_AM5.4Hz_23.m4a,,,
,,,,,,,,,,,,40418,2021-05-10_19h48.00.671,judgeSpeechMusic_20210407_logNormShiftAmp,2020.1.2,MacIntel,60,,,,,,,,,,,,,,2,6.688,,0,1,106,256,19,1,stimuli/stim_20210407_power2amp/equal_lnn_AM1.2Hz_13.m4a,,,
,,,,,,,,,,,,40418,2021-05-10_19h48.00.671,judgeSpeechMusic_20210407_logNormShiftAmp,2020.1.2,MacIntel,60,,,,,,,,,,,,,,2,6.276,,0,1,107,257,71,1,stimuli/stim_20210407_power2amp/equal_lnn_AM3Hz_1.m4a,,,
,,,,,,,,,,,,40418,2021-05-10_19h48.00.671,judgeSpeechMusic_20210407_logNormShiftAmp,2020.1.2,MacIntel,60,,,,,,,,,,,,,,2,5.254,,0,1,108,258,80,1,stimuli/stim_20210407_power2amp/equal_lnn_AM3.6Hz_12.m4a,,,
,,,,,,,,,,,,40418,2021-05-10_19h48.00.671,judgeSpeechMusic_20210407_logNormShiftAmp,2020.1.2,MacIntel,60,,,,,,,,,,,,,,2,5.591,,0,1,109,259,77,1,stimuli/stim_20210407_power2amp/equal_lnn_AM3.6Hz_45.m4a,,,
,,,,,,,,,,,,40418,2021-05-10_19h48.00.671,judgeSpeechMusic_20210407_logNormShiftAmp,2020.1.2,MacIntel,60,,,,,,,,,,,,,,2,5.762,,0,1,110,260,59,1,stimuli/stim_20210407_power2amp/equal_lnn_AM2.4Hz_16.m4a,,,
,,,,,,,,,,,,40418,2021-05-10_19h48.00.671,judgeSpeechMusic_20210407_logNormShiftAmp,2020.1.2,MacIntel,60,,,,,,,,,,,,,,2,6.196,,0,1,111,261,27,1,stimuli/stim_20210407_power2amp/equal_lnn_AM1.2Hz_26.m4a,,,
,,,,,,,,,,,,40418,2021-05-10_19h48.00.671,judgeSpeechMusic_20210407_logNormShiftAmp,2020.1.2,MacIntel,60,,,,,,,,,,,,,,2,6.677,,0,1,112,262,39,1,stimuli/stim_20210407_power2amp/equal_lnn_AM1.8Hz_95.m4a,,,
,,,,,,,,,,,,40418,2021-05-10_19h48.00.671,judgeSpeechMusic_20210407_logNormShiftAmp,2020.1.2,MacIntel,60,,,,,,,,,,,,,,2,5.642,,0,1,113,263,43,1,stimuli/stim_20210407_power2amp/equal_lnn_AM1.8Hz_98.m4a,,,
,,,,,,,,,,,,40418,2021-05-10_19h48.00.671,judgeSpeechMusic_20210407_logNormShiftAmp,2020.1.2,MacIntel,60,,,,,,,,,,,,,,2,5.776,2,1,1,114,264,16,1,stimuli/stim_20210407_power2amp/equal_lnn_AM1.2Hz_52.m4a,1.595,,
,,,,,,,,,,,,40418,2021-05-10_19h48.00.671,judgeSpeechMusic_20210407_logNormShiftAmp,2020.1.2,MacIntel,60,,,,,,,,,,,,,,2,9.155,,0,1,115,265,12,1,stimuli/stim_20210407_power2amp/equal_lnn_AM0.6Hz_60.m4a,,,
,,,,,,,,,,,,40418,2021-05-10_19h48.00.671,judgeSpeechMusic_20210407_logNormShiftAmp,2020.1.2,MacIntel,60,,,,,,,,,,,,,,2,6.287,,0,1,116,266,62,1,stimuli/stim_20210407_power2amp/equal_lnn_AM3Hz_44.m4a,,,
,,,,,,,,,,,,40418,2021-05-10_19h48.00.671,judgeSpeechMusic_20210407_logNormShiftAmp,2020.1.2,MacIntel,60,,,,,,,,,,,,,,2,5.869,,0,1,117,267,30,1,stimuli/stim_20210407_power2amp/equal_lnn_AM1.8Hz_18.m4a,,,
,,,,,,,,,,,,40418,2021-05-10_19h48.00.671,judgeSpeechMusic_20210407_logNormShiftAmp,2020.1.2,MacIntel,60,,,,,,,,,,,,,,2,6.031,,0,1,118,268,110,1,stimuli/stim_20210407_power2amp/equal_lnn_AM4.8Hz_99.m4a,,,
,,,,,,,,,,,,40418,2021-05-10_19h48.00.671,judgeSpeechMusic_20210407_logNormShiftAmp,2020.1.2,MacIntel,60,,,,,,,,,,,,,,2,9.129,,0,1,119,269,108,1,stimuli/stim_20210407_power2amp/equal_lnn_AM4.8Hz_34.m4a,,,
,,,,,,,,,,,,40418,2021-05-10_19h48.00.671,judgeSpeechMusic_20210407_logNormShiftAmp,2020.1.2,MacIntel,60,,,,,,,,,,,,,,2,5.805,,0,1,120,270,46,1,stimuli/stim_20210407_power2amp/equal_lnn_AM2.4Hz_18.m4a,,,
,,,,,,,,,,,,40418,2021-05-10_19h48.00.671,judgeSpeechMusic_20210407_logNormShiftAmp,2020.1.2,MacIntel,60,,,,,,,,,,,,,,2,6.578,,0,1,121,271,65,1,stimuli/stim_20210407_power2amp/equal_lnn_AM3Hz_59.m4a,,,
,,,,,,,,,,,,40418,2021-05-10_19h48.00.671,judgeSpeechMusic_20210407_logNormShiftAmp,2020.1.2,MacIntel,60,,,,,,,,,,,,,,2,7.277,,0,1,122,272,75,1,stimuli/stim_20210407_power2amp/equal_lnn_AM3.6Hz_1.m4a,,,
,,,,,,,,,,,,40418,2021-05-10_19h48.00.671,judgeSpeechMusic_20210407_logNormShiftAmp,2020.1.2,MacIntel,60,,,,,,,,,,,,,,2,6.538,,0,1,123,273,37,1,stimuli/stim_20210407_power2amp/equal_lnn_AM1.8Hz_38.m4a,,,
,,,,,,,,,,,,40418,2021-05-10_19h48.00.671,judgeSpeechMusic_20210407_logNormShiftAmp,2020.1.2,MacIntel,60,,,,,,,,,,,,,,2,7.254,,0,1,124,274,5,1,stimuli/stim_20210407_power2amp/equal_lnn_AM0.6Hz_98.m4a,,,
,,,,,,,,,,,,40418,2021-05-10_19h48.00.671,judgeSpeechMusic_20210407_logNormShiftAmp,2020.1.2,MacIntel,60,,,,,,,,,,,,,,2,6.046,,0,1,125,275,6,1,stimuli/stim_20210407_power2amp/equal_lnn_AM0.6Hz_56.m4a,,,
,,,,,,,,,,,,40418,2021-05-10_19h48.00.671,judgeSpeechMusic_20210407_logNormShiftAmp,2020.1.2,MacIntel,60,,,,,,,,,,,,,,2,6.876,,0,1,126,276,147,1,stimuli/stim_20210407_power2amp/equal_lnn_AM6Hz_54.m4a,,,
,,,,,,,,,,,,40418,2021-05-10_19h48.00.671,judgeSpeechMusic_20210407_logNormShiftAmp,2020.1.2,MacIntel,60,,,,,,,,,,,,,,2,5.676,,0,1,127,277,115,1,stimuli/stim_20210407_power2amp/equal_lnn_AM4.8Hz_32.m4a,,,
,,,,,,,,,,,,40418,2021-05-10_19h48.00.671,judgeSpeechMusic_20210407_logNormShiftAmp,2020.1.2,MacIntel,60,,,,,,,,,,,,,,2,6.172,,0,1,128,278,28,1,stimuli/stim_20210407_power2amp/equal_lnn_AM1.2Hz_8.m4a,,,
,,,,,,,,,,,,40418,2021-05-10_19h48.00.671,judgeSpeechMusic_20210407_logNormShiftAmp,2020.1.2,MacIntel,60,,,,,,,,,,,,,,2,5.854,,0,1,129,279,102,1,stimuli/stim_20210407_power2amp/equal_lnn_AM4.2Hz_63.m4a,,,
,,,,,,,,,,,,40418,2021-05-10_19h48.00.671,judgeSpeechMusic_20210407_logNormShiftAmp,2020.1.2,MacIntel,60,,,,,,,,,,,,,,2,6.227,,0,1,130,280,119,1,stimuli/stim_20210407_power2amp/equal_lnn_AM4.8Hz_14.m4a,,,
,,,,,,,,,,,,40418,2021-05-10_19h48.00.671,judgeSpeechMusic_20210407_logNormShiftAmp,2020.1.2,MacIntel,60,,,,,,,,,,,,,,2,5.92,,0,1,131,281,7,1,stimuli/stim_20210407_power2amp/equal_lnn_AM0.6Hz_74.m4a,,,
,,,,,,,,,,,,40418,2021-05-10_19h48.00.671,judgeSpeechMusic_20210407_logNormShiftAmp,2020.1.2,MacIntel,60,,,,,,,,,,,,,,2,5.979,,0,1,132,282,125,1,stimuli/stim_20210407_power2amp/equal_lnn_AM5.4Hz_53.m4a,,,
,,,,,,,,,,,,40418,2021-05-10_19h48.00.671,judgeSpeechMusic_20210407_logNormShiftAmp,2020.1.2,MacIntel,60,,,,,,,,,,,,,,1,6.593,,0,1,133,283,1,1,stimuli/stim_20210407_power2amp/equal_lnn_AM0.6Hz_18.m4a,,,
,,,,,,,,,,,,40418,2021-05-10_19h48.00.671,judgeSpeechMusic_20210407_logNormShiftAmp,2020.1.2,MacIntel,60,,,,,,,,,,,,,,1,5.887,,0,1,134,284,57,1,stimuli/stim_20210407_power2amp/equal_lnn_AM2.4Hz_28.m4a,,,
,,,,,,,,,,,,40418,2021-05-10_19h48.00.671,judgeSpeechMusic_20210407_logNormShiftAmp,2020.1.2,MacIntel,60,,,,,,,,,,,,,,1,6.263,,0,1,135,285,139,1,stimuli/stim_20210407_power2amp/equal_lnn_AM6Hz_49.m4a,,,
,,,,,,,,,,,,40418,2021-05-10_19h48.00.671,judgeSpeechMusic_20210407_logNormShiftAmp,2020.1.2,MacIntel,60,,,,,,,,,,,,,,2,5.823,,0,1,136,286,78,1,stimuli/stim_20210407_power2amp/equal_lnn_AM3.6Hz_71.m4a,,,
,,,,,,,,,,,,40418,2021-05-10_19h48.00.671,judgeSpeechMusic_20210407_logNormShiftAmp,2020.1.2,MacIntel,60,,,,,,,,,,,,,,2,5.872,,0,1,137,287,60,1,stimuli/stim_20210407_power2amp/equal_lnn_AM3Hz_98.m4a,,,
,,,,,,,,,,,,40418,2021-05-10_19h48.00.671,judgeSpeechMusic_20210407_logNormShiftAmp,2020.1.2,MacIntel,60,,,,,,,,,,,,,,2,10.497,2,1,1,138,288,117,1,stimuli/stim_20210407_power2amp/equal_lnn_AM4.8Hz_68.m4a,1.688,,
,,,,,,,,,,,,40418,2021-05-10_19h48.00.671,judgeSpeechMusic_20210407_logNormShiftAmp,2020.1.2,MacIntel,60,,,,,,,,,,,,,,2,6.721,,0,1,139,289,66,1,stimuli/stim_20210407_power2amp/equal_lnn_AM3Hz_68.m4a,,,
,,,,,,,,,,,,40418,2021-05-10_19h48.00.671,judgeSpeechMusic_20210407_logNormShiftAmp,2020.1.2,MacIntel,60,,,,,,,,,,,,,,1,5.793,,0,1,140,290,136,1,stimuli/stim_20210407_power2amp/equal_lnn_AM6Hz_61.m4a,,,
,,,,,,,,,,,,40418,2021-05-10_19h48.00.671,judgeSpeechMusic_20210407_logNormShiftAmp,2020.1.2,MacIntel,60,,,,,,,,,,,,,,1,6.627,,0,1,141,291,18,1,stimuli/stim_20210407_power2amp/equal_lnn_AM1.2Hz_22.m4a,,,
,,,,,,,,,,,,40418,2021-05-10_19h48.00.671,judgeSpeechMusic_20210407_logNormShiftAmp,2020.1.2,MacIntel,60,,,,,,,,,,,,,,1,7.097,,0,1,142,292,100,1,stimuli/stim_20210407_power2amp/equal_lnn_AM4.2Hz_19.m4a,,,
,,,,,,,,,,,,40418,2021-05-10_19h48.00.671,judgeSpeechMusic_20210407_logNormShiftAmp,2020.1.2,MacIntel,60,,,,,,,,,,,,,,1,8.003,,0,1,143,293,142,1,stimuli/stim_20210407_power2amp/equal_lnn_AM6Hz_11.m4a,,,
,,,,,,,,,,,,40418,2021-05-10_19h48.00.671,judgeSpeechMusic_20210407_logNormShiftAmp,2020.1.2,MacIntel,60,,,,,,,,,,,,,,1,5.822,,0,1,144,294,3,1,stimuli/stim_20210407_power2amp/equal_lnn_AM0.6Hz_80.m4a,,,
,,,,,,,,,,,,40418,2021-05-10_19h48.00.671,judgeSpeechMusic_20210407_logNormShiftAmp,2020.1.2,MacIntel,60,,,,,,,,,,,,,,1,6.229,,0,1,145,295,2,1,stimuli/stim_20210407_power2amp/equal_lnn_AM0.6Hz_8.m4a,,,
,,,,,,,,,,,,40418,2021-05-10_19h48.00.671,judgeSpeechMusic_20210407_logNormShiftAmp,2020.1.2,MacIntel,60,,,,,,,,,,,,,,1,7.388,,0,1,146,296,132,1,stimuli/stim_20210407_power2amp/equal_lnn_AM5.4Hz_31.m4a,,,
,,,,,,,,,,,,40418,2021-05-10_19h48.00.671,judgeSpeechMusic_20210407_logNormShiftAmp,2020.1.2,MacIntel,60,,,,,,,,,,,,,,1,10.209,,0,1,147,297,93,1,stimuli/stim_20210407_power2amp/equal_lnn_AM4.2Hz_67.m4a,,,
,,,,,,,,,,,,40418,2021-05-10_19h48.00.671,judgeSpeechMusic_20210407_logNormShiftAmp,2020.1.2,MacIntel,60,,,,,,,,,,,,,,1,5.613,,0,1,148,298,64,1,stimuli/stim_20210407_power2amp/equal_lnn_AM3Hz_58.m4a,,,
,,,,,,,,,,,,40418,2021-05-10_19h48.00.671,judgeSpeechMusic_20210407_logNormShiftAmp,2020.1.2,MacIntel,60,,,,,,,,,,,,,,1,7.037,,0,1,149,299,63,1,stimuli/stim_20210407_power2amp/equal_lnn_AM3Hz_88.m4a,,,
,,,,,,,,,,,,40418,2021-05-10_19h48.00.671,judgeSpeechMusic_20210407_logNormShiftAmp,2020.1.2,MacIntel,60,,,,,,,,,,,,,,,,,,,,,,,,,space,6.335
