headphoneResponse.keys,headphoneResponse.corr,headphoneResponse.rt,headphoneTrial.thisRepN,headphoneTrial.thisTrialN,headphoneTrial.thisN,headphoneTrial.thisIndex,headphoneTrial.ran,headphone_sound1,headphone_sound2,headphone_sound3,corrAns,participant,date,expName,psychopyVersion,OS,frameRate,trainSlider.response,trainSlider.rt,beepTrainResponse.keys,beepTrainResponse.corr,trainingTrials.thisRepN,trainingTrials.thisTrialN,trainingTrials.thisN,trainingTrials.thisIndex,trainingTrials.ran,trainAudioFile,beepTrainResponse.rt,readyReal_resp.keys,readyReal_resp.rt,ratingSlider.response,ratingSlider.rt,beepResp.keys,beepResp.corr,expTrials.thisRepN,expTrials.thisTrialN,expTrials.thisN,expTrials.thisIndex,expTrials.ran,audioFile,beepResp.rt,end_resp.keys,end_resp.rt
1,0,0.67099,0,0,0,1,1,stimuli/screen_antiphase.wav,stimuli/screen_quiet.wav,stimuli/screen_origin.wav,2,40498,2021-04-21_21h16.04.881,judgeSpeechMusic_20210407_logNormShiftAmp,2020.1.2,Win32,60,,,,,,,,,,,,,,,,,,,,,,,,,,
3,1,1.010725,0,1,1,2,1,stimuli/screen_origin.wav,stimuli/screen_antiphase.wav,stimuli/screen_quiet.wav,3,40498,2021-04-21_21h16.04.881,judgeSpeechMusic_20210407_logNormShiftAmp,2020.1.2,Win32,60,,,,,,,,,,,,,,,,,,,,,,,,,,
3,1,0.53441,0,2,2,0,1,stimuli/screen_antiphase.wav,stimuli/screen_origin.wav,stimuli/screen_quiet.wav,3,40498,2021-04-21_21h16.04.881,judgeSpeechMusic_20210407_logNormShiftAmp,2020.1.2,Win32,60,,,,,,,,,,,,,,,,,,,,,,,,,,
1,1,0.435045,0,3,3,5,1,stimuli/screen_quiet.wav,stimuli/screen_origin.wav,stimuli/screen_antiphase.wav,1,40498,2021-04-21_21h16.04.881,judgeSpeechMusic_20210407_logNormShiftAmp,2020.1.2,Win32,60,,,,,,,,,,,,,,,,,,,,,,,,,,
1,1,0.39381,0,4,4,4,1,stimuli/screen_quiet.wav,stimuli/screen_antiphase.wav,stimuli/screen_origin.wav,1,40498,2021-04-21_21h16.04.881,judgeSpeechMusic_20210407_logNormShiftAmp,2020.1.2,Win32,60,,,,,,,,,,,,,,,,,,,,,,,,,,
2,1,0.3593,0,5,5,3,1,stimuli/screen_origin.wav,stimuli/screen_quiet.wav,stimuli/screen_antiphase.wav,2,40498,2021-04-21_21h16.04.881,judgeSpeechMusic_20210407_logNormShiftAmp,2020.1.2,Win32,60,,,,,,,,,,,,,,,,,,,,,,,,,,
,,,,,,,,,,,,40498,2021-04-21_21h16.04.881,judgeSpeechMusic_20210407_logNormShiftAmp,2020.1.2,Win32,60,1,11.81573,,0,0,0,0,2,1,stimuli/stim_20210407_power2amp/equal_lnn_AM_training3.9Hz.m4a,,,,,,,,,,,,,,,,
,,,,,,,,,,,,40498,2021-04-21_21h16.04.881,judgeSpeechMusic_20210407_logNormShiftAmp,2020.1.2,Win32,60,2,7.13096,,0,0,1,1,3,1,stimuli/stim_20210407_power2amp/equal_lnn_AM_training5.1Hz.m4a,,,,,,,,,,,,,,,,
,,,,,,,,,,,,40498,2021-04-21_21h16.04.881,judgeSpeechMusic_20210407_logNormShiftAmp,2020.1.2,Win32,60,1,6.66687,4,1,0,2,2,0,1,stimuli/stim_20210407_power2amp/equal_lnn_AM_training1.5Hz.m4a,3.428305,,,,,,,,,,,,,,,
,,,,,,,,,,,,40498,2021-04-21_21h16.04.881,judgeSpeechMusic_20210407_logNormShiftAmp,2020.1.2,Win32,60,2,7.06058,,0,0,3,3,1,1,stimuli/stim_20210407_power2amp/equal_lnn_AM_training2.7Hz.m4a,,,,,,,,,,,,,,,,
,,,,,,,,,,,,40498,2021-04-21_21h16.04.881,judgeSpeechMusic_20210407_logNormShiftAmp,2020.1.2,Win32,60,,,,,,,,,,,,space,2.38851,2,8.79572,,0,0,0,0,63,1,stimuli/stim_20210407_power2amp/equal_lnn_AM3Hz_28.m4a,,,
,,,,,,,,,,,,40498,2021-04-21_21h16.04.881,judgeSpeechMusic_20210407_logNormShiftAmp,2020.1.2,Win32,60,,,,,,,,,,,,,,2,6.392115,,0,0,1,1,139,1,stimuli/stim_20210407_power2amp/equal_lnn_AM6Hz_37.m4a,,,
,,,,,,,,,,,,40498,2021-04-21_21h16.04.881,judgeSpeechMusic_20210407_logNormShiftAmp,2020.1.2,Win32,60,,,,,,,,,,,,,,2,7.386795,,0,0,2,2,58,1,stimuli/stim_20210407_power2amp/equal_lnn_AM2.4Hz_8.m4a,,,
,,,,,,,,,,,,40498,2021-04-21_21h16.04.881,judgeSpeechMusic_20210407_logNormShiftAmp,2020.1.2,Win32,60,,,,,,,,,,,,,,2,5.780035,,0,0,3,3,141,1,stimuli/stim_20210407_power2amp/equal_lnn_AM6Hz_15.m4a,,,
,,,,,,,,,,,,40498,2021-04-21_21h16.04.881,judgeSpeechMusic_20210407_logNormShiftAmp,2020.1.2,Win32,60,,,,,,,,,,,,,,2,5.91394,,0,0,4,4,78,1,stimuli/stim_20210407_power2amp/equal_lnn_AM3.6Hz_53.m4a,,,
,,,,,,,,,,,,40498,2021-04-21_21h16.04.881,judgeSpeechMusic_20210407_logNormShiftAmp,2020.1.2,Win32,60,,,,,,,,,,,,,,2,6.158495,,0,0,5,5,110,1,stimuli/stim_20210407_power2amp/equal_lnn_AM4.8Hz_4.m4a,,,
,,,,,,,,,,,,40498,2021-04-21_21h16.04.881,judgeSpeechMusic_20210407_logNormShiftAmp,2020.1.2,Win32,60,,,,,,,,,,,,,,1,6.133155,,0,0,6,6,104,1,stimuli/stim_20210407_power2amp/equal_lnn_AM4.2Hz_28.m4a,,,
,,,,,,,,,,,,40498,2021-04-21_21h16.04.881,judgeSpeechMusic_20210407_logNormShiftAmp,2020.1.2,Win32,60,,,,,,,,,,,,,,2,6.064075,,0,0,7,7,53,1,stimuli/stim_20210407_power2amp/equal_lnn_AM2.4Hz_39.m4a,,,
,,,,,,,,,,,,40498,2021-04-21_21h16.04.881,judgeSpeechMusic_20210407_logNormShiftAmp,2020.1.2,Win32,60,,,,,,,,,,,,,,2,5.711995,,0,0,8,8,119,1,stimuli/stim_20210407_power2amp/equal_lnn_AM4.8Hz_30.m4a,,,
,,,,,,,,,,,,40498,2021-04-21_21h16.04.881,judgeSpeechMusic_20210407_logNormShiftAmp,2020.1.2,Win32,60,,,,,,,,,,,,,,1,5.9977,,0,0,9,9,81,1,stimuli/stim_20210407_power2amp/equal_lnn_AM3.6Hz_94.m4a,,,
,,,,,,,,,,,,40498,2021-04-21_21h16.04.881,judgeSpeechMusic_20210407_logNormShiftAmp,2020.1.2,Win32,60,,,,,,,,,,,,,,1,5.748435,,0,0,10,10,4,1,stimuli/stim_20210407_power2amp/equal_lnn_AM0.6Hz_5.m4a,,,
,,,,,,,,,,,,40498,2021-04-21_21h16.04.881,judgeSpeechMusic_20210407_logNormShiftAmp,2020.1.2,Win32,60,,,,,,,,,,,,,,2,7.437895,,0,0,11,11,32,1,stimuli/stim_20210407_power2amp/equal_lnn_AM1.8Hz_86.m4a,,,
,,,,,,,,,,,,40498,2021-04-21_21h16.04.881,judgeSpeechMusic_20210407_logNormShiftAmp,2020.1.2,Win32,60,,,,,,,,,,,,,,2,5.947375,,0,0,12,12,28,1,stimuli/stim_20210407_power2amp/equal_lnn_AM1.2Hz_81.m4a,,,
,,,,,,,,,,,,40498,2021-04-21_21h16.04.881,judgeSpeechMusic_20210407_logNormShiftAmp,2020.1.2,Win32,60,,,,,,,,,,,,,,2,5.88528,,0,0,13,13,97,1,stimuli/stim_20210407_power2amp/equal_lnn_AM4.2Hz_89.m4a,,,
,,,,,,,,,,,,40498,2021-04-21_21h16.04.881,judgeSpeechMusic_20210407_logNormShiftAmp,2020.1.2,Win32,60,,,,,,,,,,,,,,2,5.81509,,0,0,14,14,87,1,stimuli/stim_20210407_power2amp/equal_lnn_AM3.6Hz_21.m4a,,,
,,,,,,,,,,,,40498,2021-04-21_21h16.04.881,judgeSpeechMusic_20210407_logNormShiftAmp,2020.1.2,Win32,60,,,,,,,,,,,,,,2,6.881965,,0,0,15,15,91,1,stimuli/stim_20210407_power2amp/equal_lnn_AM4.2Hz_45.m4a,,,
,,,,,,,,,,,,40498,2021-04-21_21h16.04.881,judgeSpeechMusic_20210407_logNormShiftAmp,2020.1.2,Win32,60,,,,,,,,,,,,,,2,5.626035,,0,0,16,16,117,1,stimuli/stim_20210407_power2amp/equal_lnn_AM4.8Hz_14.m4a,,,
,,,,,,,,,,,,40498,2021-04-21_21h16.04.881,judgeSpeechMusic_20210407_logNormShiftAmp,2020.1.2,Win32,60,,,,,,,,,,,,,,1,5.846515,,0,0,17,17,7,1,stimuli/stim_20210407_power2amp/equal_lnn_AM0.6Hz_72.m4a,,,
,,,,,,,,,,,,40498,2021-04-21_21h16.04.881,judgeSpeechMusic_20210407_logNormShiftAmp,2020.1.2,Win32,60,,,,,,,,,,,,,,2,5.90738,,0,0,18,18,134,1,stimuli/stim_20210407_power2amp/equal_lnn_AM5.4Hz_86.m4a,,,
,,,,,,,,,,,,40498,2021-04-21_21h16.04.881,judgeSpeechMusic_20210407_logNormShiftAmp,2020.1.2,Win32,60,,,,,,,,,,,,,,1,5.625175,,0,0,19,19,21,1,stimuli/stim_20210407_power2amp/equal_lnn_AM1.2Hz_53.m4a,,,
,,,,,,,,,,,,40498,2021-04-21_21h16.04.881,judgeSpeechMusic_20210407_logNormShiftAmp,2020.1.2,Win32,60,,,,,,,,,,,,,,1,5.55901,,0,0,20,20,147,1,stimuli/stim_20210407_power2amp/equal_lnn_AM6Hz_92.m4a,,,
,,,,,,,,,,,,40498,2021-04-21_21h16.04.881,judgeSpeechMusic_20210407_logNormShiftAmp,2020.1.2,Win32,60,,,,,,,,,,,,,,1,5.61339,,0,0,21,21,86,1,stimuli/stim_20210407_power2amp/equal_lnn_AM3.6Hz_7.m4a,,,
,,,,,,,,,,,,40498,2021-04-21_21h16.04.881,judgeSpeechMusic_20210407_logNormShiftAmp,2020.1.2,Win32,60,,,,,,,,,,,,,,1,5.63613,,0,0,22,22,61,1,stimuli/stim_20210407_power2amp/equal_lnn_AM3Hz_92.m4a,,,
,,,,,,,,,,,,40498,2021-04-21_21h16.04.881,judgeSpeechMusic_20210407_logNormShiftAmp,2020.1.2,Win32,60,,,,,,,,,,,,,,1,5.673285,,0,0,23,23,45,1,stimuli/stim_20210407_power2amp/equal_lnn_AM2.4Hz_31.m4a,,,
,,,,,,,,,,,,40498,2021-04-21_21h16.04.881,judgeSpeechMusic_20210407_logNormShiftAmp,2020.1.2,Win32,60,,,,,,,,,,,,,,1,5.746165,,0,0,24,24,128,1,stimuli/stim_20210407_power2amp/equal_lnn_AM5.4Hz_34.m4a,,,
,,,,,,,,,,,,40498,2021-04-21_21h16.04.881,judgeSpeechMusic_20210407_logNormShiftAmp,2020.1.2,Win32,60,,,,,,,,,,,,,,1,6.36459,,0,0,25,25,130,1,stimuli/stim_20210407_power2amp/equal_lnn_AM5.4Hz_85.m4a,,,
,,,,,,,,,,,,40498,2021-04-21_21h16.04.881,judgeSpeechMusic_20210407_logNormShiftAmp,2020.1.2,Win32,60,,,,,,,,,,,,,,1,7.094755,,0,0,26,26,9,1,stimuli/stim_20210407_power2amp/equal_lnn_AM0.6Hz_100.m4a,,,
,,,,,,,,,,,,40498,2021-04-21_21h16.04.881,judgeSpeechMusic_20210407_logNormShiftAmp,2020.1.2,Win32,60,,,,,,,,,,,,,,1,6.9825,,0,0,27,27,12,1,stimuli/stim_20210407_power2amp/equal_lnn_AM0.6Hz_7.m4a,,,
,,,,,,,,,,,,40498,2021-04-21_21h16.04.881,judgeSpeechMusic_20210407_logNormShiftAmp,2020.1.2,Win32,60,,,,,,,,,,,,,,1,6.042235,,0,0,28,28,22,1,stimuli/stim_20210407_power2amp/equal_lnn_AM1.2Hz_14.m4a,,,
,,,,,,,,,,,,40498,2021-04-21_21h16.04.881,judgeSpeechMusic_20210407_logNormShiftAmp,2020.1.2,Win32,60,,,,,,,,,,,,,,1,5.57514,,0,0,29,29,0,1,stimuli/stim_20210407_power2amp/equal_lnn_AM0.6Hz_79.m4a,,,
,,,,,,,,,,,,40498,2021-04-21_21h16.04.881,judgeSpeechMusic_20210407_logNormShiftAmp,2020.1.2,Win32,60,,,,,,,,,,,,,,1,6.527975,,0,0,30,30,11,1,stimuli/stim_20210407_power2amp/equal_lnn_AM0.6Hz_73.m4a,,,
,,,,,,,,,,,,40498,2021-04-21_21h16.04.881,judgeSpeechMusic_20210407_logNormShiftAmp,2020.1.2,Win32,60,,,,,,,,,,,,,,2,5.904215,,0,0,31,31,101,1,stimuli/stim_20210407_power2amp/equal_lnn_AM4.2Hz_68.m4a,,,
,,,,,,,,,,,,40498,2021-04-21_21h16.04.881,judgeSpeechMusic_20210407_logNormShiftAmp,2020.1.2,Win32,60,,,,,,,,,,,,,,2,8.37258,,0,0,32,32,49,1,stimuli/stim_20210407_power2amp/equal_lnn_AM2.4Hz_36.m4a,,,
,,,,,,,,,,,,40498,2021-04-21_21h16.04.881,judgeSpeechMusic_20210407_logNormShiftAmp,2020.1.2,Win32,60,,,,,,,,,,,,,,2,5.920585,3,1,0,33,33,41,1,stimuli/stim_20210407_power2amp/equal_lnn_AM1.8Hz_67.m4a,1.496385,,
,,,,,,,,,,,,40498,2021-04-21_21h16.04.881,judgeSpeechMusic_20210407_logNormShiftAmp,2020.1.2,Win32,60,,,,,,,,,,,,,,2,5.91351,,0,0,34,34,76,1,stimuli/stim_20210407_power2amp/equal_lnn_AM3.6Hz_77.m4a,,,
,,,,,,,,,,,,40498,2021-04-21_21h16.04.881,judgeSpeechMusic_20210407_logNormShiftAmp,2020.1.2,Win32,60,,,,,,,,,,,,,,2,6.89552,,0,0,35,35,47,1,stimuli/stim_20210407_power2amp/equal_lnn_AM2.4Hz_70.m4a,,,
,,,,,,,,,,,,40498,2021-04-21_21h16.04.881,judgeSpeechMusic_20210407_logNormShiftAmp,2020.1.2,Win32,60,,,,,,,,,,,,,,2,5.60471,,0,0,36,36,74,1,stimuli/stim_20210407_power2amp/equal_lnn_AM3Hz_48.m4a,,,
,,,,,,,,,,,,40498,2021-04-21_21h16.04.881,judgeSpeechMusic_20210407_logNormShiftAmp,2020.1.2,Win32,60,,,,,,,,,,,,,,1,5.657505,,0,0,37,37,3,1,stimuli/stim_20210407_power2amp/equal_lnn_AM0.6Hz_11.m4a,,,
,,,,,,,,,,,,40498,2021-04-21_21h16.04.881,judgeSpeechMusic_20210407_logNormShiftAmp,2020.1.2,Win32,60,,,,,,,,,,,,,,1,5.47006,,0,0,38,38,114,1,stimuli/stim_20210407_power2amp/equal_lnn_AM4.8Hz_34.m4a,,,
,,,,,,,,,,,,40498,2021-04-21_21h16.04.881,judgeSpeechMusic_20210407_logNormShiftAmp,2020.1.2,Win32,60,,,,,,,,,,,,,,2,6.71477,,0,0,39,39,116,1,stimuli/stim_20210407_power2amp/equal_lnn_AM4.8Hz_23.m4a,,,
,,,,,,,,,,,,40498,2021-04-21_21h16.04.881,judgeSpeechMusic_20210407_logNormShiftAmp,2020.1.2,Win32,60,,,,,,,,,,,,,,1,7.30667,,0,0,40,40,138,1,stimuli/stim_20210407_power2amp/equal_lnn_AM6Hz_35.m4a,,,
,,,,,,,,,,,,40498,2021-04-21_21h16.04.881,judgeSpeechMusic_20210407_logNormShiftAmp,2020.1.2,Win32,60,,,,,,,,,,,,,,1,5.95245,,0,0,41,41,60,1,stimuli/stim_20210407_power2amp/equal_lnn_AM3Hz_1.m4a,,,
,,,,,,,,,,,,40498,2021-04-21_21h16.04.881,judgeSpeechMusic_20210407_logNormShiftAmp,2020.1.2,Win32,60,,,,,,,,,,,,,,2,5.748695,,0,0,42,42,131,1,stimuli/stim_20210407_power2amp/equal_lnn_AM5.4Hz_94.m4a,,,
,,,,,,,,,,,,40498,2021-04-21_21h16.04.881,judgeSpeechMusic_20210407_logNormShiftAmp,2020.1.2,Win32,60,,,,,,,,,,,,,,2,5.897285,,0,0,43,43,145,1,stimuli/stim_20210407_power2amp/equal_lnn_AM6Hz_12.m4a,,,
,,,,,,,,,,,,40498,2021-04-21_21h16.04.881,judgeSpeechMusic_20210407_logNormShiftAmp,2020.1.2,Win32,60,,,,,,,,,,,,,,2,6.252385,,0,0,44,44,126,1,stimuli/stim_20210407_power2amp/equal_lnn_AM5.4Hz_62.m4a,,,
,,,,,,,,,,,,40498,2021-04-21_21h16.04.881,judgeSpeechMusic_20210407_logNormShiftAmp,2020.1.2,Win32,60,,,,,,,,,,,,,,1,6.03031,,0,0,45,45,68,1,stimuli/stim_20210407_power2amp/equal_lnn_AM3Hz_89.m4a,,,
,,,,,,,,,,,,40498,2021-04-21_21h16.04.881,judgeSpeechMusic_20210407_logNormShiftAmp,2020.1.2,Win32,60,,,,,,,,,,,,,,1,5.49929,,0,0,46,46,127,1,stimuli/stim_20210407_power2amp/equal_lnn_AM5.4Hz_21.m4a,,,
,,,,,,,,,,,,40498,2021-04-21_21h16.04.881,judgeSpeechMusic_20210407_logNormShiftAmp,2020.1.2,Win32,60,,,,,,,,,,,,,,1,5.57151,,0,0,47,47,66,1,stimuli/stim_20210407_power2amp/equal_lnn_AM3Hz_26.m4a,,,
,,,,,,,,,,,,40498,2021-04-21_21h16.04.881,judgeSpeechMusic_20210407_logNormShiftAmp,2020.1.2,Win32,60,,,,,,,,,,,,,,1,5.44761,,0,0,48,48,132,1,stimuli/stim_20210407_power2amp/equal_lnn_AM5.4Hz_68.m4a,,,
,,,,,,,,,,,,40498,2021-04-21_21h16.04.881,judgeSpeechMusic_20210407_logNormShiftAmp,2020.1.2,Win32,60,,,,,,,,,,,,,,1,5.718915,,0,0,49,49,50,1,stimuli/stim_20210407_power2amp/equal_lnn_AM2.4Hz_55.m4a,,,
,,,,,,,,,,,,40498,2021-04-21_21h16.04.881,judgeSpeechMusic_20210407_logNormShiftAmp,2020.1.2,Win32,60,,,,,,,,,,,,,,2,5.967635,,0,0,50,50,120,1,stimuli/stim_20210407_power2amp/equal_lnn_AM5.4Hz_74.m4a,,,
,,,,,,,,,,,,40498,2021-04-21_21h16.04.881,judgeSpeechMusic_20210407_logNormShiftAmp,2020.1.2,Win32,60,,,,,,,,,,,,,,2,5.67605,,0,0,51,51,62,1,stimuli/stim_20210407_power2amp/equal_lnn_AM3Hz_60.m4a,,,
,,,,,,,,,,,,40498,2021-04-21_21h16.04.881,judgeSpeechMusic_20210407_logNormShiftAmp,2020.1.2,Win32,60,,,,,,,,,,,,,,2,5.546,,0,0,52,52,43,1,stimuli/stim_20210407_power2amp/equal_lnn_AM1.8Hz_24.m4a,,,
,,,,,,,,,,,,40498,2021-04-21_21h16.04.881,judgeSpeechMusic_20210407_logNormShiftAmp,2020.1.2,Win32,60,,,,,,,,,,,,,,2,5.424135,,0,0,53,53,34,1,stimuli/stim_20210407_power2amp/equal_lnn_AM1.8Hz_78.m4a,,,
,,,,,,,,,,,,40498,2021-04-21_21h16.04.881,judgeSpeechMusic_20210407_logNormShiftAmp,2020.1.2,Win32,60,,,,,,,,,,,,,,2,5.566265,,0,0,54,54,52,1,stimuli/stim_20210407_power2amp/equal_lnn_AM2.4Hz_25.m4a,,,
,,,,,,,,,,,,40498,2021-04-21_21h16.04.881,judgeSpeechMusic_20210407_logNormShiftAmp,2020.1.2,Win32,60,,,,,,,,,,,,,,2,5.5759,2,1,0,55,55,20,1,stimuli/stim_20210407_power2amp/equal_lnn_AM1.2Hz_27.m4a,0.58796,,
,,,,,,,,,,,,40498,2021-04-21_21h16.04.881,judgeSpeechMusic_20210407_logNormShiftAmp,2020.1.2,Win32,60,,,,,,,,,,,,,,2,5.51939,,0,0,56,56,95,1,stimuli/stim_20210407_power2amp/equal_lnn_AM4.2Hz_54.m4a,,,
,,,,,,,,,,,,40498,2021-04-21_21h16.04.881,judgeSpeechMusic_20210407_logNormShiftAmp,2020.1.2,Win32,60,,,,,,,,,,,,,,2,5.37987,,0,0,57,57,85,1,stimuli/stim_20210407_power2amp/equal_lnn_AM3.6Hz_85.m4a,,,
,,,,,,,,,,,,40498,2021-04-21_21h16.04.881,judgeSpeechMusic_20210407_logNormShiftAmp,2020.1.2,Win32,60,,,,,,,,,,,,,,2,6.53176,,0,0,58,58,38,1,stimuli/stim_20210407_power2amp/equal_lnn_AM1.8Hz_61.m4a,,,
,,,,,,,,,,,,40498,2021-04-21_21h16.04.881,judgeSpeechMusic_20210407_logNormShiftAmp,2020.1.2,Win32,60,,,,,,,,,,,,,,2,5.84593,,0,0,59,59,109,1,stimuli/stim_20210407_power2amp/equal_lnn_AM4.8Hz_82.m4a,,,
,,,,,,,,,,,,40498,2021-04-21_21h16.04.881,judgeSpeechMusic_20210407_logNormShiftAmp,2020.1.2,Win32,60,,,,,,,,,,,,,,2,8.64314,,0,0,60,60,100,1,stimuli/stim_20210407_power2amp/equal_lnn_AM4.2Hz_38.m4a,,,
,,,,,,,,,,,,40498,2021-04-21_21h16.04.881,judgeSpeechMusic_20210407_logNormShiftAmp,2020.1.2,Win32,60,,,,,,,,,,,,,,2,5.604655,,0,0,61,61,79,1,stimuli/stim_20210407_power2amp/equal_lnn_AM3.6Hz_64.m4a,,,
,,,,,,,,,,,,40498,2021-04-21_21h16.04.881,judgeSpeechMusic_20210407_logNormShiftAmp,2020.1.2,Win32,60,,,,,,,,,,,,,,2,5.390665,,0,0,62,62,144,1,stimuli/stim_20210407_power2amp/equal_lnn_AM6Hz_98.m4a,,,
,,,,,,,,,,,,40498,2021-04-21_21h16.04.881,judgeSpeechMusic_20210407_logNormShiftAmp,2020.1.2,Win32,60,,,,,,,,,,,,,,2,5.519645,,0,0,63,63,67,1,stimuli/stim_20210407_power2amp/equal_lnn_AM3Hz_76.m4a,,,
,,,,,,,,,,,,40498,2021-04-21_21h16.04.881,judgeSpeechMusic_20210407_logNormShiftAmp,2020.1.2,Win32,60,,,,,,,,,,,,,,2,5.683935,,0,0,64,64,19,1,stimuli/stim_20210407_power2amp/equal_lnn_AM1.2Hz_9.m4a,,,
,,,,,,,,,,,,40498,2021-04-21_21h16.04.881,judgeSpeechMusic_20210407_logNormShiftAmp,2020.1.2,Win32,60,,,,,,,,,,,,,,2,6.01552,,0,0,65,65,55,1,stimuli/stim_20210407_power2amp/equal_lnn_AM2.4Hz_89.m4a,,,
,,,,,,,,,,,,40498,2021-04-21_21h16.04.881,judgeSpeechMusic_20210407_logNormShiftAmp,2020.1.2,Win32,60,,,,,,,,,,,,,,2,5.79749,,0,0,66,66,23,1,stimuli/stim_20210407_power2amp/equal_lnn_AM1.2Hz_72.m4a,,,
,,,,,,,,,,,,40498,2021-04-21_21h16.04.881,judgeSpeechMusic_20210407_logNormShiftAmp,2020.1.2,Win32,60,,,,,,,,,,,,,,2,5.705985,,0,0,67,67,42,1,stimuli/stim_20210407_power2amp/equal_lnn_AM1.8Hz_82.m4a,,,
,,,,,,,,,,,,40498,2021-04-21_21h16.04.881,judgeSpeechMusic_20210407_logNormShiftAmp,2020.1.2,Win32,60,,,,,,,,,,,,,,2,5.591175,,0,0,68,68,142,1,stimuli/stim_20210407_power2amp/equal_lnn_AM6Hz_89.m4a,,,
,,,,,,,,,,,,40498,2021-04-21_21h16.04.881,judgeSpeechMusic_20210407_logNormShiftAmp,2020.1.2,Win32,60,,,,,,,,,,,,,,2,5.738655,,0,0,69,69,6,1,stimuli/stim_20210407_power2amp/equal_lnn_AM0.6Hz_48.m4a,,,
,,,,,,,,,,,,40498,2021-04-21_21h16.04.881,judgeSpeechMusic_20210407_logNormShiftAmp,2020.1.2,Win32,60,,,,,,,,,,,,,,2,5.964005,,0,0,70,70,122,1,stimuli/stim_20210407_power2amp/equal_lnn_AM5.4Hz_7.m4a,,,
,,,,,,,,,,,,40498,2021-04-21_21h16.04.881,judgeSpeechMusic_20210407_logNormShiftAmp,2020.1.2,Win32,60,,,,,,,,,,,,,,2,6.47994,,0,0,71,71,149,1,stimuli/stim_20210407_power2amp/equal_lnn_AM6Hz_13.m4a,,,
,,,,,,,,,,,,40498,2021-04-21_21h16.04.881,judgeSpeechMusic_20210407_logNormShiftAmp,2020.1.2,Win32,60,,,,,,,,,,,,,,2,5.620235,,0,0,72,72,98,1,stimuli/stim_20210407_power2amp/equal_lnn_AM4.2Hz_81.m4a,,,
,,,,,,,,,,,,40498,2021-04-21_21h16.04.881,judgeSpeechMusic_20210407_logNormShiftAmp,2020.1.2,Win32,60,,,,,,,,,,,,,,2,6.28743,,0,0,73,73,18,1,stimuli/stim_20210407_power2amp/equal_lnn_AM1.2Hz_77.m4a,,,
,,,,,,,,,,,,40498,2021-04-21_21h16.04.881,judgeSpeechMusic_20210407_logNormShiftAmp,2020.1.2,Win32,60,,,,,,,,,,,,,,2,5.60865,,0,0,74,74,44,1,stimuli/stim_20210407_power2amp/equal_lnn_AM1.8Hz_12.m4a,,,
,,,,,,,,,,,,40498,2021-04-21_21h16.04.881,judgeSpeechMusic_20210407_logNormShiftAmp,2020.1.2,Win32,60,,,,,,,,,,,,,,2,5.72953,2,1,0,75,75,107,1,stimuli/stim_20210407_power2amp/equal_lnn_AM4.8Hz_63.m4a,0.45182,,
,,,,,,,,,,,,40498,2021-04-21_21h16.04.881,judgeSpeechMusic_20210407_logNormShiftAmp,2020.1.2,Win32,60,,,,,,,,,,,,,,2,6.05926,,0,0,76,76,37,1,stimuli/stim_20210407_power2amp/equal_lnn_AM1.8Hz_51.m4a,,,
,,,,,,,,,,,,40498,2021-04-21_21h16.04.881,judgeSpeechMusic_20210407_logNormShiftAmp,2020.1.2,Win32,60,,,,,,,,,,,,,,2,5.563155,,0,0,77,77,80,1,stimuli/stim_20210407_power2amp/equal_lnn_AM3.6Hz_8.m4a,,,
,,,,,,,,,,,,40498,2021-04-21_21h16.04.881,judgeSpeechMusic_20210407_logNormShiftAmp,2020.1.2,Win32,60,,,,,,,,,,,,,,2,5.63684,,0,0,78,78,124,1,stimuli/stim_20210407_power2amp/equal_lnn_AM5.4Hz_99.m4a,,,
,,,,,,,,,,,,40498,2021-04-21_21h16.04.881,judgeSpeechMusic_20210407_logNormShiftAmp,2020.1.2,Win32,60,,,,,,,,,,,,,,2,6.232955,,0,0,79,79,2,1,stimuli/stim_20210407_power2amp/equal_lnn_AM0.6Hz_37.m4a,,,
,,,,,,,,,,,,40498,2021-04-21_21h16.04.881,judgeSpeechMusic_20210407_logNormShiftAmp,2020.1.2,Win32,60,,,,,,,,,,,,,,2,5.62684,,0,0,80,80,136,1,stimuli/stim_20210407_power2amp/equal_lnn_AM6Hz_61.m4a,,,
,,,,,,,,,,,,40498,2021-04-21_21h16.04.881,judgeSpeechMusic_20210407_logNormShiftAmp,2020.1.2,Win32,60,,,,,,,,,,,,,,2,5.69682,,0,0,81,81,27,1,stimuli/stim_20210407_power2amp/equal_lnn_AM1.2Hz_30.m4a,,,
,,,,,,,,,,,,40498,2021-04-21_21h16.04.881,judgeSpeechMusic_20210407_logNormShiftAmp,2020.1.2,Win32,60,,,,,,,,,,,,,,2,5.50445,,0,0,82,82,93,1,stimuli/stim_20210407_power2amp/equal_lnn_AM4.2Hz_94.m4a,,,
,,,,,,,,,,,,40498,2021-04-21_21h16.04.881,judgeSpeechMusic_20210407_logNormShiftAmp,2020.1.2,Win32,60,,,,,,,,,,,,,,2,5.61287,,0,0,83,83,75,1,stimuli/stim_20210407_power2amp/equal_lnn_AM3.6Hz_40.m4a,,,
,,,,,,,,,,,,40498,2021-04-21_21h16.04.881,judgeSpeechMusic_20210407_logNormShiftAmp,2020.1.2,Win32,60,,,,,,,,,,,,,,2,6.07509,,0,0,84,84,82,1,stimuli/stim_20210407_power2amp/equal_lnn_AM3.6Hz_5.m4a,,,
,,,,,,,,,,,,40498,2021-04-21_21h16.04.881,judgeSpeechMusic_20210407_logNormShiftAmp,2020.1.2,Win32,60,,,,,,,,,,,,,,2,5.541885,,0,0,85,85,137,1,stimuli/stim_20210407_power2amp/equal_lnn_AM6Hz_19.m4a,,,
,,,,,,,,,,,,40498,2021-04-21_21h16.04.881,judgeSpeechMusic_20210407_logNormShiftAmp,2020.1.2,Win32,60,,,,,,,,,,,,,,1,5.734465,,0,0,86,86,39,1,stimuli/stim_20210407_power2amp/equal_lnn_AM1.8Hz_11.m4a,,,
,,,,,,,,,,,,40498,2021-04-21_21h16.04.881,judgeSpeechMusic_20210407_logNormShiftAmp,2020.1.2,Win32,60,,,,,,,,,,,,,,1,5.672765,,0,0,87,87,30,1,stimuli/stim_20210407_power2amp/equal_lnn_AM1.8Hz_35.m4a,,,
,,,,,,,,,,,,40498,2021-04-21_21h16.04.881,judgeSpeechMusic_20210407_logNormShiftAmp,2020.1.2,Win32,60,,,,,,,,,,,,,,1,5.491685,,0,0,88,88,29,1,stimuli/stim_20210407_power2amp/equal_lnn_AM1.2Hz_47.m4a,,,
,,,,,,,,,,,,40498,2021-04-21_21h16.04.881,judgeSpeechMusic_20210407_logNormShiftAmp,2020.1.2,Win32,60,,,,,,,,,,,,,,1,6.331465,,0,0,89,89,140,1,stimuli/stim_20210407_power2amp/equal_lnn_AM6Hz_49.m4a,,,
,,,,,,,,,,,,40498,2021-04-21_21h16.04.881,judgeSpeechMusic_20210407_logNormShiftAmp,2020.1.2,Win32,60,,,,,,,,,,,,,,1,5.59672,,0,0,90,90,10,1,stimuli/stim_20210407_power2amp/equal_lnn_AM0.6Hz_62.m4a,,,
,,,,,,,,,,,,40498,2021-04-21_21h16.04.881,judgeSpeechMusic_20210407_logNormShiftAmp,2020.1.2,Win32,60,,,,,,,,,,,,,,1,5.6259,,0,0,91,91,94,1,stimuli/stim_20210407_power2amp/equal_lnn_AM4.2Hz_29.m4a,,,
,,,,,,,,,,,,40498,2021-04-21_21h16.04.881,judgeSpeechMusic_20210407_logNormShiftAmp,2020.1.2,Win32,60,,,,,,,,,,,,,,1,5.458655,,0,0,92,92,99,1,stimuli/stim_20210407_power2amp/equal_lnn_AM4.2Hz_82.m4a,,,
,,,,,,,,,,,,40498,2021-04-21_21h16.04.881,judgeSpeechMusic_20210407_logNormShiftAmp,2020.1.2,Win32,60,,,,,,,,,,,,,,1,5.462855,,0,0,93,93,14,1,stimuli/stim_20210407_power2amp/equal_lnn_AM0.6Hz_3.m4a,,,
,,,,,,,,,,,,40498,2021-04-21_21h16.04.881,judgeSpeechMusic_20210407_logNormShiftAmp,2020.1.2,Win32,60,,,,,,,,,,,,,,1,5.657355,,0,0,94,94,108,1,stimuli/stim_20210407_power2amp/equal_lnn_AM4.8Hz_47.m4a,,,
,,,,,,,,,,,,40498,2021-04-21_21h16.04.881,judgeSpeechMusic_20210407_logNormShiftAmp,2020.1.2,Win32,60,,,,,,,,,,,,,,1,5.95355,,0,0,95,95,135,1,stimuli/stim_20210407_power2amp/equal_lnn_AM6Hz_82.m4a,,,
,,,,,,,,,,,,40498,2021-04-21_21h16.04.881,judgeSpeechMusic_20210407_logNormShiftAmp,2020.1.2,Win32,60,,,,,,,,,,,,,,1,6.764625,,0,0,96,96,88,1,stimuli/stim_20210407_power2amp/equal_lnn_AM3.6Hz_19.m4a,,,
,,,,,,,,,,,,40498,2021-04-21_21h16.04.881,judgeSpeechMusic_20210407_logNormShiftAmp,2020.1.2,Win32,60,,,,,,,,,,,,,,1,5.863375,,0,0,97,97,36,1,stimuli/stim_20210407_power2amp/equal_lnn_AM1.8Hz_53.m4a,,,
,,,,,,,,,,,,40498,2021-04-21_21h16.04.881,judgeSpeechMusic_20210407_logNormShiftAmp,2020.1.2,Win32,60,,,,,,,,,,,,,,1,5.80774,,0,0,98,98,25,1,stimuli/stim_20210407_power2amp/equal_lnn_AM1.2Hz_56.m4a,,,
,,,,,,,,,,,,40498,2021-04-21_21h16.04.881,judgeSpeechMusic_20210407_logNormShiftAmp,2020.1.2,Win32,60,,,,,,,,,,,,,,1,5.779645,,0,0,99,99,15,1,stimuli/stim_20210407_power2amp/equal_lnn_AM1.2Hz_76.m4a,,,
,,,,,,,,,,,,40498,2021-04-21_21h16.04.881,judgeSpeechMusic_20210407_logNormShiftAmp,2020.1.2,Win32,60,,,,,,,,,,,,,,1,6.30147,3,1,0,100,100,31,1,stimuli/stim_20210407_power2amp/equal_lnn_AM1.8Hz_46.m4a,0.57165,,
,,,,,,,,,,,,40498,2021-04-21_21h16.04.881,judgeSpeechMusic_20210407_logNormShiftAmp,2020.1.2,Win32,60,,,,,,,,,,,,,,1,6.35658,,0,0,101,101,89,1,stimuli/stim_20210407_power2amp/equal_lnn_AM3.6Hz_92.m4a,,,
,,,,,,,,,,,,40498,2021-04-21_21h16.04.881,judgeSpeechMusic_20210407_logNormShiftAmp,2020.1.2,Win32,60,,,,,,,,,,,,,,1,5.89153,,0,0,102,102,13,1,stimuli/stim_20210407_power2amp/equal_lnn_AM0.6Hz_80.m4a,,,
,,,,,,,,,,,,40498,2021-04-21_21h16.04.881,judgeSpeechMusic_20210407_logNormShiftAmp,2020.1.2,Win32,60,,,,,,,,,,,,,,1,5.605385,,0,0,103,103,5,1,stimuli/stim_20210407_power2amp/equal_lnn_AM0.6Hz_86.m4a,,,
,,,,,,,,,,,,40498,2021-04-21_21h16.04.881,judgeSpeechMusic_20210407_logNormShiftAmp,2020.1.2,Win32,60,,,,,,,,,,,,,,1,7.98356,,0,0,104,104,72,1,stimuli/stim_20210407_power2amp/equal_lnn_AM3Hz_55.m4a,,,
,,,,,,,,,,,,40498,2021-04-21_21h16.04.881,judgeSpeechMusic_20210407_logNormShiftAmp,2020.1.2,Win32,60,,,,,,,,,,,,,,1,6.26421,,0,0,105,105,48,1,stimuli/stim_20210407_power2amp/equal_lnn_AM2.4Hz_4.m4a,,,
,,,,,,,,,,,,40498,2021-04-21_21h16.04.881,judgeSpeechMusic_20210407_logNormShiftAmp,2020.1.2,Win32,60,,,,,,,,,,,,,,1,5.719435,,0,0,106,106,112,1,stimuli/stim_20210407_power2amp/equal_lnn_AM4.8Hz_37.m4a,,,
,,,,,,,,,,,,40498,2021-04-21_21h16.04.881,judgeSpeechMusic_20210407_logNormShiftAmp,2020.1.2,Win32,60,,,,,,,,,,,,,,1,5.831325,,0,0,107,107,57,1,stimuli/stim_20210407_power2amp/equal_lnn_AM2.4Hz_44.m4a,,,
,,,,,,,,,,,,40498,2021-04-21_21h16.04.881,judgeSpeechMusic_20210407_logNormShiftAmp,2020.1.2,Win32,60,,,,,,,,,,,,,,1,5.66946,,0,0,108,108,69,1,stimuli/stim_20210407_power2amp/equal_lnn_AM3Hz_87.m4a,,,
,,,,,,,,,,,,40498,2021-04-21_21h16.04.881,judgeSpeechMusic_20210407_logNormShiftAmp,2020.1.2,Win32,60,,,,,,,,,,,,,,1,5.5492,,0,0,109,109,115,1,stimuli/stim_20210407_power2amp/equal_lnn_AM4.8Hz_3.m4a,,,
,,,,,,,,,,,,40498,2021-04-21_21h16.04.881,judgeSpeechMusic_20210407_logNormShiftAmp,2020.1.2,Win32,60,,,,,,,,,,,,,,1,5.7301,,0,0,110,110,24,1,stimuli/stim_20210407_power2amp/equal_lnn_AM1.2Hz_49.m4a,,,
,,,,,,,,,,,,40498,2021-04-21_21h16.04.881,judgeSpeechMusic_20210407_logNormShiftAmp,2020.1.2,Win32,60,,,,,,,,,,,,,,1,5.596235,,0,0,111,111,71,1,stimuli/stim_20210407_power2amp/equal_lnn_AM3Hz_74.m4a,,,
,,,,,,,,,,,,40498,2021-04-21_21h16.04.881,judgeSpeechMusic_20210407_logNormShiftAmp,2020.1.2,Win32,60,,,,,,,,,,,,,,1,5.496115,,0,0,112,112,106,1,stimuli/stim_20210407_power2amp/equal_lnn_AM4.8Hz_73.m4a,,,
,,,,,,,,,,,,40498,2021-04-21_21h16.04.881,judgeSpeechMusic_20210407_logNormShiftAmp,2020.1.2,Win32,60,,,,,,,,,,,,,,1,5.478345,,0,0,113,113,121,1,stimuli/stim_20210407_power2amp/equal_lnn_AM5.4Hz_14.m4a,,,
,,,,,,,,,,,,40498,2021-04-21_21h16.04.881,judgeSpeechMusic_20210407_logNormShiftAmp,2020.1.2,Win32,60,,,,,,,,,,,,,,1,5.6505,,0,0,114,114,148,1,stimuli/stim_20210407_power2amp/equal_lnn_AM6Hz_63.m4a,,,
,,,,,,,,,,,,40498,2021-04-21_21h16.04.881,judgeSpeechMusic_20210407_logNormShiftAmp,2020.1.2,Win32,60,,,,,,,,,,,,,,1,5.723665,,0,0,115,115,40,1,stimuli/stim_20210407_power2amp/equal_lnn_AM1.8Hz_41.m4a,,,
,,,,,,,,,,,,40498,2021-04-21_21h16.04.881,judgeSpeechMusic_20210407_logNormShiftAmp,2020.1.2,Win32,60,,,,,,,,,,,,,,1,5.730365,,0,0,116,116,35,1,stimuli/stim_20210407_power2amp/equal_lnn_AM1.8Hz_34.m4a,,,
,,,,,,,,,,,,40498,2021-04-21_21h16.04.881,judgeSpeechMusic_20210407_logNormShiftAmp,2020.1.2,Win32,60,,,,,,,,,,,,,,1,5.641475,,0,0,117,117,102,1,stimuli/stim_20210407_power2amp/equal_lnn_AM4.2Hz_47.m4a,,,
,,,,,,,,,,,,40498,2021-04-21_21h16.04.881,judgeSpeechMusic_20210407_logNormShiftAmp,2020.1.2,Win32,60,,,,,,,,,,,,,,1,6.0201,,0,0,118,118,83,1,stimuli/stim_20210407_power2amp/equal_lnn_AM3.6Hz_93.m4a,,,
,,,,,,,,,,,,40498,2021-04-21_21h16.04.881,judgeSpeechMusic_20210407_logNormShiftAmp,2020.1.2,Win32,60,,,,,,,,,,,,,,1,5.499205,,0,0,119,119,133,1,stimuli/stim_20210407_power2amp/equal_lnn_AM5.4Hz_36.m4a,,,
,,,,,,,,,,,,40498,2021-04-21_21h16.04.881,judgeSpeechMusic_20210407_logNormShiftAmp,2020.1.2,Win32,60,,,,,,,,,,,,,,1,5.54978,2,1,0,120,120,113,1,stimuli/stim_20210407_power2amp/equal_lnn_AM4.8Hz_91.m4a,0.504815,,
,,,,,,,,,,,,40498,2021-04-21_21h16.04.881,judgeSpeechMusic_20210407_logNormShiftAmp,2020.1.2,Win32,60,,,,,,,,,,,,,,1,6.79458,,0,0,121,121,96,1,stimuli/stim_20210407_power2amp/equal_lnn_AM4.2Hz_27.m4a,,,
,,,,,,,,,,,,40498,2021-04-21_21h16.04.881,judgeSpeechMusic_20210407_logNormShiftAmp,2020.1.2,Win32,60,,,,,,,,,,,,,,1,5.783555,,0,0,122,122,17,1,stimuli/stim_20210407_power2amp/equal_lnn_AM1.2Hz_16.m4a,,,
,,,,,,,,,,,,40498,2021-04-21_21h16.04.881,judgeSpeechMusic_20210407_logNormShiftAmp,2020.1.2,Win32,60,,,,,,,,,,,,,,1,5.79219,,0,0,123,123,92,1,stimuli/stim_20210407_power2amp/equal_lnn_AM4.2Hz_39.m4a,,,
,,,,,,,,,,,,40498,2021-04-21_21h16.04.881,judgeSpeechMusic_20210407_logNormShiftAmp,2020.1.2,Win32,60,,,,,,,,,,,,,,1,6.765405,,0,0,124,124,51,1,stimuli/stim_20210407_power2amp/equal_lnn_AM2.4Hz_35.m4a,,,
,,,,,,,,,,,,40498,2021-04-21_21h16.04.881,judgeSpeechMusic_20210407_logNormShiftAmp,2020.1.2,Win32,60,,,,,,,,,,,,,,1,6.28925,,0,0,125,125,16,1,stimuli/stim_20210407_power2amp/equal_lnn_AM1.2Hz_95.m4a,,,
,,,,,,,,,,,,40498,2021-04-21_21h16.04.881,judgeSpeechMusic_20210407_logNormShiftAmp,2020.1.2,Win32,60,,,,,,,,,,,,,,1,6.13871,,0,0,126,126,8,1,stimuli/stim_20210407_power2amp/equal_lnn_AM0.6Hz_76.m4a,,,
,,,,,,,,,,,,40498,2021-04-21_21h16.04.881,judgeSpeechMusic_20210407_logNormShiftAmp,2020.1.2,Win32,60,,,,,,,,,,,,,,1,6.33237,,0,0,127,127,46,1,stimuli/stim_20210407_power2amp/equal_lnn_AM2.4Hz_14.m4a,,,
,,,,,,,,,,,,40498,2021-04-21_21h16.04.881,judgeSpeechMusic_20210407_logNormShiftAmp,2020.1.2,Win32,60,,,,,,,,,,,,,,1,6.14703,,0,0,128,128,111,1,stimuli/stim_20210407_power2amp/equal_lnn_AM4.8Hz_80.m4a,,,
,,,,,,,,,,,,40498,2021-04-21_21h16.04.881,judgeSpeechMusic_20210407_logNormShiftAmp,2020.1.2,Win32,60,,,,,,,,,,,,,,1,6.293365,,0,0,129,129,59,1,stimuli/stim_20210407_power2amp/equal_lnn_AM2.4Hz_85.m4a,,,
,,,,,,,,,,,,40498,2021-04-21_21h16.04.881,judgeSpeechMusic_20210407_logNormShiftAmp,2020.1.2,Win32,60,,,,,,,,,,,,,,1,6.280565,,0,0,130,130,146,1,stimuli/stim_20210407_power2amp/equal_lnn_AM6Hz_54.m4a,,,
,,,,,,,,,,,,40498,2021-04-21_21h16.04.881,judgeSpeechMusic_20210407_logNormShiftAmp,2020.1.2,Win32,60,,,,,,,,,,,,,,1,9.032245,,0,0,131,131,123,1,stimuli/stim_20210407_power2amp/equal_lnn_AM5.4Hz_32.m4a,,,
,,,,,,,,,,,,40498,2021-04-21_21h16.04.881,judgeSpeechMusic_20210407_logNormShiftAmp,2020.1.2,Win32,60,,,,,,,,,,,,,,1,20.298445,,0,0,132,132,129,1,stimuli/stim_20210407_power2amp/equal_lnn_AM5.4Hz_92.m4a,,,
,,,,,,,,,,,,40498,2021-04-21_21h16.04.881,judgeSpeechMusic_20210407_logNormShiftAmp,2020.1.2,Win32,60,,,,,,,,,,,,,,1,9.41188,,0,0,133,133,103,1,stimuli/stim_20210407_power2amp/equal_lnn_AM4.2Hz_58.m4a,,,
,,,,,,,,,,,,40498,2021-04-21_21h16.04.881,judgeSpeechMusic_20210407_logNormShiftAmp,2020.1.2,Win32,60,,,,,,,,,,,,,,1,6.66526,,0,0,134,134,56,1,stimuli/stim_20210407_power2amp/equal_lnn_AM2.4Hz_48.m4a,,,
,,,,,,,,,,,,40498,2021-04-21_21h16.04.881,judgeSpeechMusic_20210407_logNormShiftAmp,2020.1.2,Win32,60,,,,,,,,,,,,,,1,7.755275,,0,0,135,135,26,1,stimuli/stim_20210407_power2amp/equal_lnn_AM1.2Hz_96.m4a,,,
,,,,,,,,,,,,40498,2021-04-21_21h16.04.881,judgeSpeechMusic_20210407_logNormShiftAmp,2020.1.2,Win32,60,,,,,,,,,,,,,,1,5.851315,,0,0,136,136,105,1,stimuli/stim_20210407_power2amp/equal_lnn_AM4.8Hz_22.m4a,,,
,,,,,,,,,,,,40498,2021-04-21_21h16.04.881,judgeSpeechMusic_20210407_logNormShiftAmp,2020.1.2,Win32,60,,,,,,,,,,,,,,1,5.633675,,0,0,137,137,90,1,stimuli/stim_20210407_power2amp/equal_lnn_AM4.2Hz_2.m4a,,,
,,,,,,,,,,,,40498,2021-04-21_21h16.04.881,judgeSpeechMusic_20210407_logNormShiftAmp,2020.1.2,Win32,60,,,,,,,,,,,,,,1,5.62951,,0,0,138,138,73,1,stimuli/stim_20210407_power2amp/equal_lnn_AM3Hz_72.m4a,,,
,,,,,,,,,,,,40498,2021-04-21_21h16.04.881,judgeSpeechMusic_20210407_logNormShiftAmp,2020.1.2,Win32,60,,,,,,,,,,,,,,1,5.542625,,0,0,139,139,84,1,stimuli/stim_20210407_power2amp/equal_lnn_AM3.6Hz_25.m4a,,,
,,,,,,,,,,,,40498,2021-04-21_21h16.04.881,judgeSpeechMusic_20210407_logNormShiftAmp,2020.1.2,Win32,60,,,,,,,,,,,,,,1,5.63026,,0,0,140,140,118,1,stimuli/stim_20210407_power2amp/equal_lnn_AM4.8Hz_99.m4a,,,
,,,,,,,,,,,,40498,2021-04-21_21h16.04.881,judgeSpeechMusic_20210407_logNormShiftAmp,2020.1.2,Win32,60,,,,,,,,,,,,,,1,5.579955,1,1,0,141,141,64,1,stimuli/stim_20210407_power2amp/equal_lnn_AM3Hz_29.m4a,0.57158,,
,,,,,,,,,,,,40498,2021-04-21_21h16.04.881,judgeSpeechMusic_20210407_logNormShiftAmp,2020.1.2,Win32,60,,,,,,,,,,,,,,1,5.69163,,0,0,142,142,1,1,stimuli/stim_20210407_power2amp/equal_lnn_AM0.6Hz_25.m4a,,,
,,,,,,,,,,,,40498,2021-04-21_21h16.04.881,judgeSpeechMusic_20210407_logNormShiftAmp,2020.1.2,Win32,60,,,,,,,,,,,,,,1,5.646755,,0,0,143,143,125,1,stimuli/stim_20210407_power2amp/equal_lnn_AM5.4Hz_15.m4a,,,
,,,,,,,,,,,,40498,2021-04-21_21h16.04.881,judgeSpeechMusic_20210407_logNormShiftAmp,2020.1.2,Win32,60,,,,,,,,,,,,,,1,5.63311,,0,0,144,144,65,1,stimuli/stim_20210407_power2amp/equal_lnn_AM3Hz_31.m4a,,,
,,,,,,,,,,,,40498,2021-04-21_21h16.04.881,judgeSpeechMusic_20210407_logNormShiftAmp,2020.1.2,Win32,60,,,,,,,,,,,,,,1,5.6472,,0,0,145,145,143,1,stimuli/stim_20210407_power2amp/equal_lnn_AM6Hz_91.m4a,,,
,,,,,,,,,,,,40498,2021-04-21_21h16.04.881,judgeSpeechMusic_20210407_logNormShiftAmp,2020.1.2,Win32,60,,,,,,,,,,,,,,1,5.63071,,0,0,146,146,54,1,stimuli/stim_20210407_power2amp/equal_lnn_AM2.4Hz_74.m4a,,,
,,,,,,,,,,,,40498,2021-04-21_21h16.04.881,judgeSpeechMusic_20210407_logNormShiftAmp,2020.1.2,Win32,60,,,,,,,,,,,,,,1,5.781295,,0,0,147,147,33,1,stimuli/stim_20210407_power2amp/equal_lnn_AM1.8Hz_17.m4a,,,
,,,,,,,,,,,,40498,2021-04-21_21h16.04.881,judgeSpeechMusic_20210407_logNormShiftAmp,2020.1.2,Win32,60,,,,,,,,,,,,,,1,5.580505,,0,0,148,148,77,1,stimuli/stim_20210407_power2amp/equal_lnn_AM3.6Hz_2.m4a,,,
,,,,,,,,,,,,40498,2021-04-21_21h16.04.881,judgeSpeechMusic_20210407_logNormShiftAmp,2020.1.2,Win32,60,,,,,,,,,,,,,,1,5.574145,,0,0,149,149,70,1,stimuli/stim_20210407_power2amp/equal_lnn_AM3Hz_70.m4a,,,
,,,,,,,,,,,,40498,2021-04-21_21h16.04.881,judgeSpeechMusic_20210407_logNormShiftAmp,2020.1.2,Win32,60,,,,,,,,,,,,,,1,5.623625,,0,1,0,150,14,1,stimuli/stim_20210407_power2amp/equal_lnn_AM0.6Hz_3.m4a,,,
,,,,,,,,,,,,40498,2021-04-21_21h16.04.881,judgeSpeechMusic_20210407_logNormShiftAmp,2020.1.2,Win32,60,,,,,,,,,,,,,,1,6.26395,,0,1,1,151,74,1,stimuli/stim_20210407_power2amp/equal_lnn_AM3Hz_48.m4a,,,
,,,,,,,,,,,,40498,2021-04-21_21h16.04.881,judgeSpeechMusic_20210407_logNormShiftAmp,2020.1.2,Win32,60,,,,,,,,,,,,,,1,5.76127,,0,1,2,152,136,1,stimuli/stim_20210407_power2amp/equal_lnn_AM6Hz_61.m4a,,,
,,,,,,,,,,,,40498,2021-04-21_21h16.04.881,judgeSpeechMusic_20210407_logNormShiftAmp,2020.1.2,Win32,60,,,,,,,,,,,,,,1,5.55803,,0,1,3,153,133,1,stimuli/stim_20210407_power2amp/equal_lnn_AM5.4Hz_36.m4a,,,
,,,,,,,,,,,,40498,2021-04-21_21h16.04.881,judgeSpeechMusic_20210407_logNormShiftAmp,2020.1.2,Win32,60,,,,,,,,,,,,,,1,5.6134,,0,1,4,154,25,1,stimuli/stim_20210407_power2amp/equal_lnn_AM1.2Hz_56.m4a,,,
,,,,,,,,,,,,40498,2021-04-21_21h16.04.881,judgeSpeechMusic_20210407_logNormShiftAmp,2020.1.2,Win32,60,,,,,,,,,,,,,,1,5.67486,,0,1,5,155,28,1,stimuli/stim_20210407_power2amp/equal_lnn_AM1.2Hz_81.m4a,,,
,,,,,,,,,,,,40498,2021-04-21_21h16.04.881,judgeSpeechMusic_20210407_logNormShiftAmp,2020.1.2,Win32,60,,,,,,,,,,,,,,1,5.700965,,0,1,6,156,13,1,stimuli/stim_20210407_power2amp/equal_lnn_AM0.6Hz_80.m4a,,,
,,,,,,,,,,,,40498,2021-04-21_21h16.04.881,judgeSpeechMusic_20210407_logNormShiftAmp,2020.1.2,Win32,60,,,,,,,,,,,,,,1,7.6341,,0,1,7,157,92,1,stimuli/stim_20210407_power2amp/equal_lnn_AM4.2Hz_39.m4a,,,
,,,,,,,,,,,,40498,2021-04-21_21h16.04.881,judgeSpeechMusic_20210407_logNormShiftAmp,2020.1.2,Win32,60,,,,,,,,,,,,,,1,6.319285,,0,1,8,158,23,1,stimuli/stim_20210407_power2amp/equal_lnn_AM1.2Hz_72.m4a,,,
,,,,,,,,,,,,40498,2021-04-21_21h16.04.881,judgeSpeechMusic_20210407_logNormShiftAmp,2020.1.2,Win32,60,,,,,,,,,,,,,,1,7.784055,,0,1,9,159,78,1,stimuli/stim_20210407_power2amp/equal_lnn_AM3.6Hz_53.m4a,,,
,,,,,,,,,,,,40498,2021-04-21_21h16.04.881,judgeSpeechMusic_20210407_logNormShiftAmp,2020.1.2,Win32,60,,,,,,,,,,,,,,1,5.99777,,0,1,10,160,87,1,stimuli/stim_20210407_power2amp/equal_lnn_AM3.6Hz_21.m4a,,,
,,,,,,,,,,,,40498,2021-04-21_21h16.04.881,judgeSpeechMusic_20210407_logNormShiftAmp,2020.1.2,Win32,60,,,,,,,,,,,,,,1,5.523085,,0,1,11,161,106,1,stimuli/stim_20210407_power2amp/equal_lnn_AM4.8Hz_73.m4a,,,
,,,,,,,,,,,,40498,2021-04-21_21h16.04.881,judgeSpeechMusic_20210407_logNormShiftAmp,2020.1.2,Win32,60,,,,,,,,,,,,,,1,5.579895,,0,1,12,162,9,1,stimuli/stim_20210407_power2amp/equal_lnn_AM0.6Hz_100.m4a,,,
,,,,,,,,,,,,40498,2021-04-21_21h16.04.881,judgeSpeechMusic_20210407_logNormShiftAmp,2020.1.2,Win32,60,,,,,,,,,,,,,,1,5.46891,,0,1,13,163,98,1,stimuli/stim_20210407_power2amp/equal_lnn_AM4.2Hz_81.m4a,,,
,,,,,,,,,,,,40498,2021-04-21_21h16.04.881,judgeSpeechMusic_20210407_logNormShiftAmp,2020.1.2,Win32,60,,,,,,,,,,,,,,1,5.680915,,0,1,14,164,20,1,stimuli/stim_20210407_power2amp/equal_lnn_AM1.2Hz_27.m4a,,,
,,,,,,,,,,,,40498,2021-04-21_21h16.04.881,judgeSpeechMusic_20210407_logNormShiftAmp,2020.1.2,Win32,60,,,,,,,,,,,,,,1,5.550505,1,1,1,15,165,52,1,stimuli/stim_20210407_power2amp/equal_lnn_AM2.4Hz_25.m4a,0.61484,,
,,,,,,,,,,,,40498,2021-04-21_21h16.04.881,judgeSpeechMusic_20210407_logNormShiftAmp,2020.1.2,Win32,60,,,,,,,,,,,,,,1,6.653225,,0,1,16,166,86,1,stimuli/stim_20210407_power2amp/equal_lnn_AM3.6Hz_7.m4a,,,
,,,,,,,,,,,,40498,2021-04-21_21h16.04.881,judgeSpeechMusic_20210407_logNormShiftAmp,2020.1.2,Win32,60,,,,,,,,,,,,,,1,6.16359,,0,1,17,167,2,1,stimuli/stim_20210407_power2amp/equal_lnn_AM0.6Hz_37.m4a,,,
,,,,,,,,,,,,40498,2021-04-21_21h16.04.881,judgeSpeechMusic_20210407_logNormShiftAmp,2020.1.2,Win32,60,,,,,,,,,,,,,,1,5.392385,,0,1,18,168,109,1,stimuli/stim_20210407_power2amp/equal_lnn_AM4.8Hz_82.m4a,,,
,,,,,,,,,,,,40498,2021-04-21_21h16.04.881,judgeSpeechMusic_20210407_logNormShiftAmp,2020.1.2,Win32,60,,,,,,,,,,,,,,1,5.46464,,0,1,19,169,146,1,stimuli/stim_20210407_power2amp/equal_lnn_AM6Hz_54.m4a,,,
,,,,,,,,,,,,40498,2021-04-21_21h16.04.881,judgeSpeechMusic_20210407_logNormShiftAmp,2020.1.2,Win32,60,,,,,,,,,,,,,,1,5.52934,,0,1,20,170,123,1,stimuli/stim_20210407_power2amp/equal_lnn_AM5.4Hz_32.m4a,,,
,,,,,,,,,,,,40498,2021-04-21_21h16.04.881,judgeSpeechMusic_20210407_logNormShiftAmp,2020.1.2,Win32,60,,,,,,,,,,,,,,1,6.65999,,0,1,21,171,6,1,stimuli/stim_20210407_power2amp/equal_lnn_AM0.6Hz_48.m4a,,,
,,,,,,,,,,,,40498,2021-04-21_21h16.04.881,judgeSpeechMusic_20210407_logNormShiftAmp,2020.1.2,Win32,60,,,,,,,,,,,,,,1,6.264575,,0,1,22,172,97,1,stimuli/stim_20210407_power2amp/equal_lnn_AM4.2Hz_89.m4a,,,
,,,,,,,,,,,,40498,2021-04-21_21h16.04.881,judgeSpeechMusic_20210407_logNormShiftAmp,2020.1.2,Win32,60,,,,,,,,,,,,,,1,5.54518,,0,1,23,173,12,1,stimuli/stim_20210407_power2amp/equal_lnn_AM0.6Hz_7.m4a,,,
,,,,,,,,,,,,40498,2021-04-21_21h16.04.881,judgeSpeechMusic_20210407_logNormShiftAmp,2020.1.2,Win32,60,,,,,,,,,,,,,,1,5.950735,,0,1,24,174,40,1,stimuli/stim_20210407_power2amp/equal_lnn_AM1.8Hz_41.m4a,,,
,,,,,,,,,,,,40498,2021-04-21_21h16.04.881,judgeSpeechMusic_20210407_logNormShiftAmp,2020.1.2,Win32,60,,,,,,,,,,,,,,1,6.382135,,0,1,25,175,134,1,stimuli/stim_20210407_power2amp/equal_lnn_AM5.4Hz_86.m4a,,,
,,,,,,,,,,,,40498,2021-04-21_21h16.04.881,judgeSpeechMusic_20210407_logNormShiftAmp,2020.1.2,Win32,60,,,,,,,,,,,,,,1,6.181115,,0,1,26,176,95,1,stimuli/stim_20210407_power2amp/equal_lnn_AM4.2Hz_54.m4a,,,
,,,,,,,,,,,,40498,2021-04-21_21h16.04.881,judgeSpeechMusic_20210407_logNormShiftAmp,2020.1.2,Win32,60,,,,,,,,,,,,,,1,6.94369,,0,1,27,177,60,1,stimuli/stim_20210407_power2amp/equal_lnn_AM3Hz_1.m4a,,,
,,,,,,,,,,,,40498,2021-04-21_21h16.04.881,judgeSpeechMusic_20210407_logNormShiftAmp,2020.1.2,Win32,60,,,,,,,,,,,,,,1,6.429525,,0,1,28,178,65,1,stimuli/stim_20210407_power2amp/equal_lnn_AM3Hz_31.m4a,,,
,,,,,,,,,,,,40498,2021-04-21_21h16.04.881,judgeSpeechMusic_20210407_logNormShiftAmp,2020.1.2,Win32,60,,,,,,,,,,,,,,1,6.449125,,0,1,29,179,57,1,stimuli/stim_20210407_power2amp/equal_lnn_AM2.4Hz_44.m4a,,,
,,,,,,,,,,,,40498,2021-04-21_21h16.04.881,judgeSpeechMusic_20210407_logNormShiftAmp,2020.1.2,Win32,60,,,,,,,,,,,,,,1,5.60592,,0,1,30,180,111,1,stimuli/stim_20210407_power2amp/equal_lnn_AM4.8Hz_80.m4a,,,
,,,,,,,,,,,,40498,2021-04-21_21h16.04.881,judgeSpeechMusic_20210407_logNormShiftAmp,2020.1.2,Win32,60,,,,,,,,,,,,,,1,5.75536,,0,1,31,181,4,1,stimuli/stim_20210407_power2amp/equal_lnn_AM0.6Hz_5.m4a,,,
,,,,,,,,,,,,40498,2021-04-21_21h16.04.881,judgeSpeechMusic_20210407_logNormShiftAmp,2020.1.2,Win32,60,,,,,,,,,,,,,,1,5.74093,,0,1,32,182,37,1,stimuli/stim_20210407_power2amp/equal_lnn_AM1.8Hz_51.m4a,,,
,,,,,,,,,,,,40498,2021-04-21_21h16.04.881,judgeSpeechMusic_20210407_logNormShiftAmp,2020.1.2,Win32,60,,,,,,,,,,,,,,1,5.620265,,0,1,33,183,22,1,stimuli/stim_20210407_power2amp/equal_lnn_AM1.2Hz_14.m4a,,,
,,,,,,,,,,,,40498,2021-04-21_21h16.04.881,judgeSpeechMusic_20210407_logNormShiftAmp,2020.1.2,Win32,60,,,,,,,,,,,,,,1,5.712795,,0,1,34,184,135,1,stimuli/stim_20210407_power2amp/equal_lnn_AM6Hz_82.m4a,,,
,,,,,,,,,,,,40498,2021-04-21_21h16.04.881,judgeSpeechMusic_20210407_logNormShiftAmp,2020.1.2,Win32,60,,,,,,,,,,,,,,1,5.60953,,0,1,35,185,120,1,stimuli/stim_20210407_power2amp/equal_lnn_AM5.4Hz_74.m4a,,,
,,,,,,,,,,,,40498,2021-04-21_21h16.04.881,judgeSpeechMusic_20210407_logNormShiftAmp,2020.1.2,Win32,60,,,,,,,,,,,,,,1,5.616395,,0,1,36,186,7,1,stimuli/stim_20210407_power2amp/equal_lnn_AM0.6Hz_72.m4a,,,
,,,,,,,,,,,,40498,2021-04-21_21h16.04.881,judgeSpeechMusic_20210407_logNormShiftAmp,2020.1.2,Win32,60,,,,,,,,,,,,,,1,5.763745,,0,1,37,187,5,1,stimuli/stim_20210407_power2amp/equal_lnn_AM0.6Hz_86.m4a,,,
,,,,,,,,,,,,40498,2021-04-21_21h16.04.881,judgeSpeechMusic_20210407_logNormShiftAmp,2020.1.2,Win32,60,,,,,,,,,,,,,,1,5.55606,,0,1,38,188,38,1,stimuli/stim_20210407_power2amp/equal_lnn_AM1.8Hz_61.m4a,,,
,,,,,,,,,,,,40498,2021-04-21_21h16.04.881,judgeSpeechMusic_20210407_logNormShiftAmp,2020.1.2,Win32,60,,,,,,,,,,,,,,1,5.5479,1,1,1,39,189,83,1,stimuli/stim_20210407_power2amp/equal_lnn_AM3.6Hz_93.m4a,0.44101,,
,,,,,,,,,,,,40498,2021-04-21_21h16.04.881,judgeSpeechMusic_20210407_logNormShiftAmp,2020.1.2,Win32,60,,,,,,,,,,,,,,1,5.729555,,0,1,40,190,94,1,stimuli/stim_20210407_power2amp/equal_lnn_AM4.2Hz_29.m4a,,,
,,,,,,,,,,,,40498,2021-04-21_21h16.04.881,judgeSpeechMusic_20210407_logNormShiftAmp,2020.1.2,Win32,60,,,,,,,,,,,,,,1,5.832585,,0,1,41,191,93,1,stimuli/stim_20210407_power2amp/equal_lnn_AM4.2Hz_94.m4a,,,
,,,,,,,,,,,,40498,2021-04-21_21h16.04.881,judgeSpeechMusic_20210407_logNormShiftAmp,2020.1.2,Win32,60,,,,,,,,,,,,,,1,5.71394,,0,1,42,192,149,1,stimuli/stim_20210407_power2amp/equal_lnn_AM6Hz_13.m4a,,,
,,,,,,,,,,,,40498,2021-04-21_21h16.04.881,judgeSpeechMusic_20210407_logNormShiftAmp,2020.1.2,Win32,60,,,,,,,,,,,,,,1,5.808275,,0,1,43,193,47,1,stimuli/stim_20210407_power2amp/equal_lnn_AM2.4Hz_70.m4a,,,
,,,,,,,,,,,,40498,2021-04-21_21h16.04.881,judgeSpeechMusic_20210407_logNormShiftAmp,2020.1.2,Win32,60,,,,,,,,,,,,,,1,5.726285,,0,1,44,194,62,1,stimuli/stim_20210407_power2amp/equal_lnn_AM3Hz_60.m4a,,,
,,,,,,,,,,,,40498,2021-04-21_21h16.04.881,judgeSpeechMusic_20210407_logNormShiftAmp,2020.1.2,Win32,60,,,,,,,,,,,,,,1,5.725455,,0,1,45,195,10,1,stimuli/stim_20210407_power2amp/equal_lnn_AM0.6Hz_62.m4a,,,
,,,,,,,,,,,,40498,2021-04-21_21h16.04.881,judgeSpeechMusic_20210407_logNormShiftAmp,2020.1.2,Win32,60,,,,,,,,,,,,,,1,6.01331,,0,1,46,196,115,1,stimuli/stim_20210407_power2amp/equal_lnn_AM4.8Hz_3.m4a,,,
,,,,,,,,,,,,40498,2021-04-21_21h16.04.881,judgeSpeechMusic_20210407_logNormShiftAmp,2020.1.2,Win32,60,,,,,,,,,,,,,,1,5.661085,,0,1,47,197,54,1,stimuli/stim_20210407_power2amp/equal_lnn_AM2.4Hz_74.m4a,,,
,,,,,,,,,,,,40498,2021-04-21_21h16.04.881,judgeSpeechMusic_20210407_logNormShiftAmp,2020.1.2,Win32,60,,,,,,,,,,,,,,1,5.89929,,0,1,48,198,44,1,stimuli/stim_20210407_power2amp/equal_lnn_AM1.8Hz_12.m4a,,,
,,,,,,,,,,,,40498,2021-04-21_21h16.04.881,judgeSpeechMusic_20210407_logNormShiftAmp,2020.1.2,Win32,60,,,,,,,,,,,,,,1,6.08849,,0,1,49,199,71,1,stimuli/stim_20210407_power2amp/equal_lnn_AM3Hz_74.m4a,,,
,,,,,,,,,,,,40498,2021-04-21_21h16.04.881,judgeSpeechMusic_20210407_logNormShiftAmp,2020.1.2,Win32,60,,,,,,,,,,,,,,1,5.669005,,0,1,50,200,148,1,stimuli/stim_20210407_power2amp/equal_lnn_AM6Hz_63.m4a,,,
,,,,,,,,,,,,40498,2021-04-21_21h16.04.881,judgeSpeechMusic_20210407_logNormShiftAmp,2020.1.2,Win32,60,,,,,,,,,,,,,,1,7.13668,,0,1,51,201,35,1,stimuli/stim_20210407_power2amp/equal_lnn_AM1.8Hz_34.m4a,,,
,,,,,,,,,,,,40498,2021-04-21_21h16.04.881,judgeSpeechMusic_20210407_logNormShiftAmp,2020.1.2,Win32,60,,,,,,,,,,,,,,1,6.030705,,0,1,52,202,143,1,stimuli/stim_20210407_power2amp/equal_lnn_AM6Hz_91.m4a,,,
,,,,,,,,,,,,40498,2021-04-21_21h16.04.881,judgeSpeechMusic_20210407_logNormShiftAmp,2020.1.2,Win32,60,,,,,,,,,,,,,,1,7.56681,,0,1,53,203,59,1,stimuli/stim_20210407_power2amp/equal_lnn_AM2.4Hz_85.m4a,,,
,,,,,,,,,,,,40498,2021-04-21_21h16.04.881,judgeSpeechMusic_20210407_logNormShiftAmp,2020.1.2,Win32,60,,,,,,,,,,,,,,1,6.698035,,0,1,54,204,75,1,stimuli/stim_20210407_power2amp/equal_lnn_AM3.6Hz_40.m4a,,,
,,,,,,,,,,,,40498,2021-04-21_21h16.04.881,judgeSpeechMusic_20210407_logNormShiftAmp,2020.1.2,Win32,60,,,,,,,,,,,,,,1,5.615305,,0,1,55,205,131,1,stimuli/stim_20210407_power2amp/equal_lnn_AM5.4Hz_94.m4a,,,
,,,,,,,,,,,,40498,2021-04-21_21h16.04.881,judgeSpeechMusic_20210407_logNormShiftAmp,2020.1.2,Win32,60,,,,,,,,,,,,,,1,7.165395,,0,1,56,206,112,1,stimuli/stim_20210407_power2amp/equal_lnn_AM4.8Hz_37.m4a,,,
,,,,,,,,,,,,40498,2021-04-21_21h16.04.881,judgeSpeechMusic_20210407_logNormShiftAmp,2020.1.2,Win32,60,,,,,,,,,,,,,,1,5.89754,,0,1,57,207,145,1,stimuli/stim_20210407_power2amp/equal_lnn_AM6Hz_12.m4a,,,
,,,,,,,,,,,,40498,2021-04-21_21h16.04.881,judgeSpeechMusic_20210407_logNormShiftAmp,2020.1.2,Win32,60,,,,,,,,,,,,,,1,5.59007,,0,1,58,208,138,1,stimuli/stim_20210407_power2amp/equal_lnn_AM6Hz_35.m4a,,,
,,,,,,,,,,,,40498,2021-04-21_21h16.04.881,judgeSpeechMusic_20210407_logNormShiftAmp,2020.1.2,Win32,60,,,,,,,,,,,,,,1,6.181085,,0,1,59,209,126,1,stimuli/stim_20210407_power2amp/equal_lnn_AM5.4Hz_62.m4a,,,
,,,,,,,,,,,,40498,2021-04-21_21h16.04.881,judgeSpeechMusic_20210407_logNormShiftAmp,2020.1.2,Win32,60,,,,,,,,,,,,,,1,7.27369,,0,1,60,210,140,1,stimuli/stim_20210407_power2amp/equal_lnn_AM6Hz_49.m4a,,,
,,,,,,,,,,,,40498,2021-04-21_21h16.04.881,judgeSpeechMusic_20210407_logNormShiftAmp,2020.1.2,Win32,60,,,,,,,,,,,,,,1,6.371465,,0,1,61,211,102,1,stimuli/stim_20210407_power2amp/equal_lnn_AM4.2Hz_47.m4a,,,
,,,,,,,,,,,,40498,2021-04-21_21h16.04.881,judgeSpeechMusic_20210407_logNormShiftAmp,2020.1.2,Win32,60,,,,,,,,,,,,,,1,5.86525,,0,1,62,212,42,1,stimuli/stim_20210407_power2amp/equal_lnn_AM1.8Hz_82.m4a,,,
,,,,,,,,,,,,40498,2021-04-21_21h16.04.881,judgeSpeechMusic_20210407_logNormShiftAmp,2020.1.2,Win32,60,,,,,,,,,,,,,,1,7.383125,,0,1,63,213,21,1,stimuli/stim_20210407_power2amp/equal_lnn_AM1.2Hz_53.m4a,,,
,,,,,,,,,,,,40498,2021-04-21_21h16.04.881,judgeSpeechMusic_20210407_logNormShiftAmp,2020.1.2,Win32,60,,,,,,,,,,,,,,1,11.239545,1,1,1,64,214,33,1,stimuli/stim_20210407_power2amp/equal_lnn_AM1.8Hz_17.m4a,2.06392,,
,,,,,,,,,,,,40498,2021-04-21_21h16.04.881,judgeSpeechMusic_20210407_logNormShiftAmp,2020.1.2,Win32,60,,,,,,,,,,,,,,1,6.64763,,0,1,65,215,24,1,stimuli/stim_20210407_power2amp/equal_lnn_AM1.2Hz_49.m4a,,,
,,,,,,,,,,,,40498,2021-04-21_21h16.04.881,judgeSpeechMusic_20210407_logNormShiftAmp,2020.1.2,Win32,60,,,,,,,,,,,,,,1,6.211375,,0,1,66,216,45,1,stimuli/stim_20210407_power2amp/equal_lnn_AM2.4Hz_31.m4a,,,
,,,,,,,,,,,,40498,2021-04-21_21h16.04.881,judgeSpeechMusic_20210407_logNormShiftAmp,2020.1.2,Win32,60,,,,,,,,,,,,,,1,6.18301,,0,1,67,217,31,1,stimuli/stim_20210407_power2amp/equal_lnn_AM1.8Hz_46.m4a,,,
,,,,,,,,,,,,40498,2021-04-21_21h16.04.881,judgeSpeechMusic_20210407_logNormShiftAmp,2020.1.2,Win32,60,,,,,,,,,,,,,,1,6.34301,,0,1,68,218,105,1,stimuli/stim_20210407_power2amp/equal_lnn_AM4.8Hz_22.m4a,,,
,,,,,,,,,,,,40498,2021-04-21_21h16.04.881,judgeSpeechMusic_20210407_logNormShiftAmp,2020.1.2,Win32,60,,,,,,,,,,,,,,1,7.67338,,0,1,69,219,46,1,stimuli/stim_20210407_power2amp/equal_lnn_AM2.4Hz_14.m4a,,,
,,,,,,,,,,,,40498,2021-04-21_21h16.04.881,judgeSpeechMusic_20210407_logNormShiftAmp,2020.1.2,Win32,60,,,,,,,,,,,,,,1,10.307075,,0,1,70,220,100,1,stimuli/stim_20210407_power2amp/equal_lnn_AM4.2Hz_38.m4a,,,
,,,,,,,,,,,,40498,2021-04-21_21h16.04.881,judgeSpeechMusic_20210407_logNormShiftAmp,2020.1.2,Win32,60,,,,,,,,,,,,,,1,8.10275,,0,1,71,221,77,1,stimuli/stim_20210407_power2amp/equal_lnn_AM3.6Hz_2.m4a,,,
,,,,,,,,,,,,40498,2021-04-21_21h16.04.881,judgeSpeechMusic_20210407_logNormShiftAmp,2020.1.2,Win32,60,,,,,,,,,,,,,,1,6.70461,,0,1,72,222,96,1,stimuli/stim_20210407_power2amp/equal_lnn_AM4.2Hz_27.m4a,,,
,,,,,,,,,,,,40498,2021-04-21_21h16.04.881,judgeSpeechMusic_20210407_logNormShiftAmp,2020.1.2,Win32,60,,,,,,,,,,,,,,1,13.979395,,0,1,73,223,128,1,stimuli/stim_20210407_power2amp/equal_lnn_AM5.4Hz_34.m4a,,,
,,,,,,,,,,,,40498,2021-04-21_21h16.04.881,judgeSpeechMusic_20210407_logNormShiftAmp,2020.1.2,Win32,60,,,,,,,,,,,,,,1,7.265695,,0,1,74,224,108,1,stimuli/stim_20210407_power2amp/equal_lnn_AM4.8Hz_47.m4a,,,
,,,,,,,,,,,,40498,2021-04-21_21h16.04.881,judgeSpeechMusic_20210407_logNormShiftAmp,2020.1.2,Win32,60,,,,,,,,,,,,,,1,7.287565,,0,1,75,225,80,1,stimuli/stim_20210407_power2amp/equal_lnn_AM3.6Hz_8.m4a,,,
,,,,,,,,,,,,40498,2021-04-21_21h16.04.881,judgeSpeechMusic_20210407_logNormShiftAmp,2020.1.2,Win32,60,,,,,,,,,,,,,,1,6.99861,,0,1,76,226,129,1,stimuli/stim_20210407_power2amp/equal_lnn_AM5.4Hz_92.m4a,,,
,,,,,,,,,,,,40498,2021-04-21_21h16.04.881,judgeSpeechMusic_20210407_logNormShiftAmp,2020.1.2,Win32,60,,,,,,,,,,,,,,1,7.139185,,0,1,77,227,56,1,stimuli/stim_20210407_power2amp/equal_lnn_AM2.4Hz_48.m4a,,,
,,,,,,,,,,,,40498,2021-04-21_21h16.04.881,judgeSpeechMusic_20210407_logNormShiftAmp,2020.1.2,Win32,60,,,,,,,,,,,,,,1,6.28171,,0,1,78,228,118,1,stimuli/stim_20210407_power2amp/equal_lnn_AM4.8Hz_99.m4a,,,
,,,,,,,,,,,,40498,2021-04-21_21h16.04.881,judgeSpeechMusic_20210407_logNormShiftAmp,2020.1.2,Win32,60,,,,,,,,,,,,,,1,6.960295,,0,1,79,229,58,1,stimuli/stim_20210407_power2amp/equal_lnn_AM2.4Hz_8.m4a,,,
,,,,,,,,,,,,40498,2021-04-21_21h16.04.881,judgeSpeechMusic_20210407_logNormShiftAmp,2020.1.2,Win32,60,,,,,,,,,,,,,,1,5.598835,,0,1,80,230,119,1,stimuli/stim_20210407_power2amp/equal_lnn_AM4.8Hz_30.m4a,,,
,,,,,,,,,,,,40498,2021-04-21_21h16.04.881,judgeSpeechMusic_20210407_logNormShiftAmp,2020.1.2,Win32,60,,,,,,,,,,,,,,1,6.539725,,0,1,81,231,1,1,stimuli/stim_20210407_power2amp/equal_lnn_AM0.6Hz_25.m4a,,,
,,,,,,,,,,,,40498,2021-04-21_21h16.04.881,judgeSpeechMusic_20210407_logNormShiftAmp,2020.1.2,Win32,60,,,,,,,,,,,,,,1,6.91449,,0,1,82,232,16,1,stimuli/stim_20210407_power2amp/equal_lnn_AM1.2Hz_95.m4a,,,
,,,,,,,,,,,,40498,2021-04-21_21h16.04.881,judgeSpeechMusic_20210407_logNormShiftAmp,2020.1.2,Win32,60,,,,,,,,,,,,,,1,6.286175,,0,1,83,233,121,1,stimuli/stim_20210407_power2amp/equal_lnn_AM5.4Hz_14.m4a,,,
,,,,,,,,,,,,40498,2021-04-21_21h16.04.881,judgeSpeechMusic_20210407_logNormShiftAmp,2020.1.2,Win32,60,,,,,,,,,,,,,,1,6.371375,1,1,1,84,234,29,1,stimuli/stim_20210407_power2amp/equal_lnn_AM1.2Hz_47.m4a,1.57966,,
,,,,,,,,,,,,40498,2021-04-21_21h16.04.881,judgeSpeechMusic_20210407_logNormShiftAmp,2020.1.2,Win32,60,,,,,,,,,,,,,,1,12.94259,,0,1,85,235,26,1,stimuli/stim_20210407_power2amp/equal_lnn_AM1.2Hz_96.m4a,,,
,,,,,,,,,,,,40498,2021-04-21_21h16.04.881,judgeSpeechMusic_20210407_logNormShiftAmp,2020.1.2,Win32,60,,,,,,,,,,,,,,1,5.830855,,0,1,86,236,122,1,stimuli/stim_20210407_power2amp/equal_lnn_AM5.4Hz_7.m4a,,,
,,,,,,,,,,,,40498,2021-04-21_21h16.04.881,judgeSpeechMusic_20210407_logNormShiftAmp,2020.1.2,Win32,60,,,,,,,,,,,,,,1,5.59818,,0,1,87,237,116,1,stimuli/stim_20210407_power2amp/equal_lnn_AM4.8Hz_23.m4a,,,
,,,,,,,,,,,,40498,2021-04-21_21h16.04.881,judgeSpeechMusic_20210407_logNormShiftAmp,2020.1.2,Win32,60,,,,,,,,,,,,,,1,5.78714,,0,1,88,238,110,1,stimuli/stim_20210407_power2amp/equal_lnn_AM4.8Hz_4.m4a,,,
,,,,,,,,,,,,40498,2021-04-21_21h16.04.881,judgeSpeechMusic_20210407_logNormShiftAmp,2020.1.2,Win32,60,,,,,,,,,,,,,,1,5.396225,,0,1,89,239,101,1,stimuli/stim_20210407_power2amp/equal_lnn_AM4.2Hz_68.m4a,,,
,,,,,,,,,,,,40498,2021-04-21_21h16.04.881,judgeSpeechMusic_20210407_logNormShiftAmp,2020.1.2,Win32,60,,,,,,,,,,,,,,1,5.9358,,0,1,90,240,137,1,stimuli/stim_20210407_power2amp/equal_lnn_AM6Hz_19.m4a,,,
,,,,,,,,,,,,40498,2021-04-21_21h16.04.881,judgeSpeechMusic_20210407_logNormShiftAmp,2020.1.2,Win32,60,,,,,,,,,,,,,,1,5.934525,,0,1,91,241,34,1,stimuli/stim_20210407_power2amp/equal_lnn_AM1.8Hz_78.m4a,,,
,,,,,,,,,,,,40498,2021-04-21_21h16.04.881,judgeSpeechMusic_20210407_logNormShiftAmp,2020.1.2,Win32,60,,,,,,,,,,,,,,1,6.07054,,0,1,92,242,66,1,stimuli/stim_20210407_power2amp/equal_lnn_AM3Hz_26.m4a,,,
,,,,,,,,,,,,40498,2021-04-21_21h16.04.881,judgeSpeechMusic_20210407_logNormShiftAmp,2020.1.2,Win32,60,,,,,,,,,,,,,,1,7.92051,,0,1,93,243,142,1,stimuli/stim_20210407_power2amp/equal_lnn_AM6Hz_89.m4a,,,
,,,,,,,,,,,,40498,2021-04-21_21h16.04.881,judgeSpeechMusic_20210407_logNormShiftAmp,2020.1.2,Win32,60,,,,,,,,,,,,,,1,5.245935,,0,1,94,244,32,1,stimuli/stim_20210407_power2amp/equal_lnn_AM1.8Hz_86.m4a,,,
,,,,,,,,,,,,40498,2021-04-21_21h16.04.881,judgeSpeechMusic_20210407_logNormShiftAmp,2020.1.2,Win32,60,,,,,,,,,,,,,,1,5.70429,,0,1,95,245,81,1,stimuli/stim_20210407_power2amp/equal_lnn_AM3.6Hz_94.m4a,,,
,,,,,,,,,,,,40498,2021-04-21_21h16.04.881,judgeSpeechMusic_20210407_logNormShiftAmp,2020.1.2,Win32,60,,,,,,,,,,,,,,1,6.623295,,0,1,96,246,90,1,stimuli/stim_20210407_power2amp/equal_lnn_AM4.2Hz_2.m4a,,,
,,,,,,,,,,,,40498,2021-04-21_21h16.04.881,judgeSpeechMusic_20210407_logNormShiftAmp,2020.1.2,Win32,60,,,,,,,,,,,,,,1,12.47525,,0,1,97,247,144,1,stimuli/stim_20210407_power2amp/equal_lnn_AM6Hz_98.m4a,,,
,,,,,,,,,,,,40498,2021-04-21_21h16.04.881,judgeSpeechMusic_20210407_logNormShiftAmp,2020.1.2,Win32,60,,,,,,,,,,,,,,1,5.636295,,0,1,98,248,125,1,stimuli/stim_20210407_power2amp/equal_lnn_AM5.4Hz_15.m4a,,,
,,,,,,,,,,,,40498,2021-04-21_21h16.04.881,judgeSpeechMusic_20210407_logNormShiftAmp,2020.1.2,Win32,60,,,,,,,,,,,,,,1,5.52934,,0,1,99,249,61,1,stimuli/stim_20210407_power2amp/equal_lnn_AM3Hz_92.m4a,,,
,,,,,,,,,,,,40498,2021-04-21_21h16.04.881,judgeSpeechMusic_20210407_logNormShiftAmp,2020.1.2,Win32,60,,,,,,,,,,,,,,1,5.900305,,0,1,100,250,39,1,stimuli/stim_20210407_power2amp/equal_lnn_AM1.8Hz_11.m4a,,,
,,,,,,,,,,,,40498,2021-04-21_21h16.04.881,judgeSpeechMusic_20210407_logNormShiftAmp,2020.1.2,Win32,60,,,,,,,,,,,,,,1,7.157785,,0,1,101,251,91,1,stimuli/stim_20210407_power2amp/equal_lnn_AM4.2Hz_45.m4a,,,
,,,,,,,,,,,,40498,2021-04-21_21h16.04.881,judgeSpeechMusic_20210407_logNormShiftAmp,2020.1.2,Win32,60,,,,,,,,,,,,,,1,5.93389,,0,1,102,252,67,1,stimuli/stim_20210407_power2amp/equal_lnn_AM3Hz_76.m4a,,,
,,,,,,,,,,,,40498,2021-04-21_21h16.04.881,judgeSpeechMusic_20210407_logNormShiftAmp,2020.1.2,Win32,60,,,,,,,,,,,,,,1,5.85737,,0,1,103,253,15,1,stimuli/stim_20210407_power2amp/equal_lnn_AM1.2Hz_76.m4a,,,
,,,,,,,,,,,,40498,2021-04-21_21h16.04.881,judgeSpeechMusic_20210407_logNormShiftAmp,2020.1.2,Win32,60,,,,,,,,,,,,,,1,6.624865,,0,1,104,254,89,1,stimuli/stim_20210407_power2amp/equal_lnn_AM3.6Hz_92.m4a,,,
,,,,,,,,,,,,40498,2021-04-21_21h16.04.881,judgeSpeechMusic_20210407_logNormShiftAmp,2020.1.2,Win32,60,,,,,,,,,,,,,,1,5.733925,,0,1,105,255,85,1,stimuli/stim_20210407_power2amp/equal_lnn_AM3.6Hz_85.m4a,,,
,,,,,,,,,,,,40498,2021-04-21_21h16.04.881,judgeSpeechMusic_20210407_logNormShiftAmp,2020.1.2,Win32,60,,,,,,,,,,,,,,1,6.806535,,0,1,106,256,49,1,stimuli/stim_20210407_power2amp/equal_lnn_AM2.4Hz_36.m4a,,,
,,,,,,,,,,,,40498,2021-04-21_21h16.04.881,judgeSpeechMusic_20210407_logNormShiftAmp,2020.1.2,Win32,60,,,,,,,,,,,,,,1,6.3552,,0,1,107,257,139,1,stimuli/stim_20210407_power2amp/equal_lnn_AM6Hz_37.m4a,,,
,,,,,,,,,,,,40498,2021-04-21_21h16.04.881,judgeSpeechMusic_20210407_logNormShiftAmp,2020.1.2,Win32,60,,,,,,,,,,,,,,1,6.263865,,0,1,108,258,68,1,stimuli/stim_20210407_power2amp/equal_lnn_AM3Hz_89.m4a,,,
,,,,,,,,,,,,40498,2021-04-21_21h16.04.881,judgeSpeechMusic_20210407_logNormShiftAmp,2020.1.2,Win32,60,,,,,,,,,,,,,,1,5.78832,1,1,1,109,259,76,1,stimuli/stim_20210407_power2amp/equal_lnn_AM3.6Hz_77.m4a,10.32272,,
,,,,,,,,,,,,40498,2021-04-21_21h16.04.881,judgeSpeechMusic_20210407_logNormShiftAmp,2020.1.2,Win32,60,,,,,,,,,,,,,,1,5.6176,,0,1,110,260,73,1,stimuli/stim_20210407_power2amp/equal_lnn_AM3Hz_72.m4a,,,
,,,,,,,,,,,,40498,2021-04-21_21h16.04.881,judgeSpeechMusic_20210407_logNormShiftAmp,2020.1.2,Win32,60,,,,,,,,,,,,,,1,5.523955,,0,1,111,261,8,1,stimuli/stim_20210407_power2amp/equal_lnn_AM0.6Hz_76.m4a,,,
,,,,,,,,,,,,40498,2021-04-21_21h16.04.881,judgeSpeechMusic_20210407_logNormShiftAmp,2020.1.2,Win32,60,,,,,,,,,,,,,,1,5.73023,,0,1,112,262,36,1,stimuli/stim_20210407_power2amp/equal_lnn_AM1.8Hz_53.m4a,,,
,,,,,,,,,,,,40498,2021-04-21_21h16.04.881,judgeSpeechMusic_20210407_logNormShiftAmp,2020.1.2,Win32,60,,,,,,,,,,,,,,1,5.876165,,0,1,113,263,141,1,stimuli/stim_20210407_power2amp/equal_lnn_AM6Hz_15.m4a,,,
,,,,,,,,,,,,40498,2021-04-21_21h16.04.881,judgeSpeechMusic_20210407_logNormShiftAmp,2020.1.2,Win32,60,,,,,,,,,,,,,,1,5.81907,,0,1,114,264,69,1,stimuli/stim_20210407_power2amp/equal_lnn_AM3Hz_87.m4a,,,
,,,,,,,,,,,,40498,2021-04-21_21h16.04.881,judgeSpeechMusic_20210407_logNormShiftAmp,2020.1.2,Win32,60,,,,,,,,,,,,,,1,6.447365,,0,1,115,265,84,1,stimuli/stim_20210407_power2amp/equal_lnn_AM3.6Hz_25.m4a,,,
,,,,,,,,,,,,40498,2021-04-21_21h16.04.881,judgeSpeechMusic_20210407_logNormShiftAmp,2020.1.2,Win32,60,,,,,,,,,,,,,,1,5.68663,,0,1,116,266,11,1,stimuli/stim_20210407_power2amp/equal_lnn_AM0.6Hz_73.m4a,,,
,,,,,,,,,,,,40498,2021-04-21_21h16.04.881,judgeSpeechMusic_20210407_logNormShiftAmp,2020.1.2,Win32,60,,,,,,,,,,,,,,1,5.536435,,0,1,117,267,130,1,stimuli/stim_20210407_power2amp/equal_lnn_AM5.4Hz_85.m4a,,,
,,,,,,,,,,,,40498,2021-04-21_21h16.04.881,judgeSpeechMusic_20210407_logNormShiftAmp,2020.1.2,Win32,60,,,,,,,,,,,,,,1,7.306925,,0,1,118,268,117,1,stimuli/stim_20210407_power2amp/equal_lnn_AM4.8Hz_14.m4a,,,
,,,,,,,,,,,,40498,2021-04-21_21h16.04.881,judgeSpeechMusic_20210407_logNormShiftAmp,2020.1.2,Win32,60,,,,,,,,,,,,,,1,10.19752,,0,1,119,269,19,1,stimuli/stim_20210407_power2amp/equal_lnn_AM1.2Hz_9.m4a,,,
,,,,,,,,,,,,40498,2021-04-21_21h16.04.881,judgeSpeechMusic_20210407_logNormShiftAmp,2020.1.2,Win32,60,,,,,,,,,,,,,,1,5.781825,,0,1,120,270,99,1,stimuli/stim_20210407_power2amp/equal_lnn_AM4.2Hz_82.m4a,,,
,,,,,,,,,,,,40498,2021-04-21_21h16.04.881,judgeSpeechMusic_20210407_logNormShiftAmp,2020.1.2,Win32,60,,,,,,,,,,,,,,1,6.091915,,0,1,121,271,63,1,stimuli/stim_20210407_power2amp/equal_lnn_AM3Hz_28.m4a,,,
,,,,,,,,,,,,40498,2021-04-21_21h16.04.881,judgeSpeechMusic_20210407_logNormShiftAmp,2020.1.2,Win32,60,,,,,,,,,,,,,,1,6.03082,,0,1,122,272,3,1,stimuli/stim_20210407_power2amp/equal_lnn_AM0.6Hz_11.m4a,,,
,,,,,,,,,,,,40498,2021-04-21_21h16.04.881,judgeSpeechMusic_20210407_logNormShiftAmp,2020.1.2,Win32,60,,,,,,,,,,,,,,1,5.6934,,0,1,123,273,113,1,stimuli/stim_20210407_power2amp/equal_lnn_AM4.8Hz_91.m4a,,,
,,,,,,,,,,,,40498,2021-04-21_21h16.04.881,judgeSpeechMusic_20210407_logNormShiftAmp,2020.1.2,Win32,60,,,,,,,,,,,,,,1,5.6384,,0,1,124,274,64,1,stimuli/stim_20210407_power2amp/equal_lnn_AM3Hz_29.m4a,,,
,,,,,,,,,,,,40498,2021-04-21_21h16.04.881,judgeSpeechMusic_20210407_logNormShiftAmp,2020.1.2,Win32,60,,,,,,,,,,,,,,1,5.77934,,0,1,125,275,30,1,stimuli/stim_20210407_power2amp/equal_lnn_AM1.8Hz_35.m4a,,,
,,,,,,,,,,,,40498,2021-04-21_21h16.04.881,judgeSpeechMusic_20210407_logNormShiftAmp,2020.1.2,Win32,60,,,,,,,,,,,,,,1,5.858055,,0,1,126,276,107,1,stimuli/stim_20210407_power2amp/equal_lnn_AM4.8Hz_63.m4a,,,
,,,,,,,,,,,,40498,2021-04-21_21h16.04.881,judgeSpeechMusic_20210407_logNormShiftAmp,2020.1.2,Win32,60,,,,,,,,,,,,,,1,5.565655,,0,1,127,277,114,1,stimuli/stim_20210407_power2amp/equal_lnn_AM4.8Hz_34.m4a,,,
,,,,,,,,,,,,40498,2021-04-21_21h16.04.881,judgeSpeechMusic_20210407_logNormShiftAmp,2020.1.2,Win32,60,,,,,,,,,,,,,,1,5.67496,,0,1,128,278,51,1,stimuli/stim_20210407_power2amp/equal_lnn_AM2.4Hz_35.m4a,,,
,,,,,,,,,,,,40498,2021-04-21_21h16.04.881,judgeSpeechMusic_20210407_logNormShiftAmp,2020.1.2,Win32,60,,,,,,,,,,,,,,1,5.363965,2,1,1,129,279,79,1,stimuli/stim_20210407_power2amp/equal_lnn_AM3.6Hz_64.m4a,1.077715,,
,,,,,,,,,,,,40498,2021-04-21_21h16.04.881,judgeSpeechMusic_20210407_logNormShiftAmp,2020.1.2,Win32,60,,,,,,,,,,,,,,1,5.81714,,0,1,130,280,41,1,stimuli/stim_20210407_power2amp/equal_lnn_AM1.8Hz_67.m4a,,,
,,,,,,,,,,,,40498,2021-04-21_21h16.04.881,judgeSpeechMusic_20210407_logNormShiftAmp,2020.1.2,Win32,60,,,,,,,,,,,,,,1,5.61662,,0,1,131,281,132,1,stimuli/stim_20210407_power2amp/equal_lnn_AM5.4Hz_68.m4a,,,
,,,,,,,,,,,,40498,2021-04-21_21h16.04.881,judgeSpeechMusic_20210407_logNormShiftAmp,2020.1.2,Win32,60,,,,,,,,,,,,,,1,6.122235,,0,1,132,282,82,1,stimuli/stim_20210407_power2amp/equal_lnn_AM3.6Hz_5.m4a,,,
,,,,,,,,,,,,40498,2021-04-21_21h16.04.881,judgeSpeechMusic_20210407_logNormShiftAmp,2020.1.2,Win32,60,,,,,,,,,,,,,,1,10.488865,,0,1,133,283,18,1,stimuli/stim_20210407_power2amp/equal_lnn_AM1.2Hz_77.m4a,,,
,,,,,,,,,,,,40498,2021-04-21_21h16.04.881,judgeSpeechMusic_20210407_logNormShiftAmp,2020.1.2,Win32,60,,,,,,,,,,,,,,1,5.278655,,0,1,134,284,53,1,stimuli/stim_20210407_power2amp/equal_lnn_AM2.4Hz_39.m4a,,,
,,,,,,,,,,,,40498,2021-04-21_21h16.04.881,judgeSpeechMusic_20210407_logNormShiftAmp,2020.1.2,Win32,60,,,,,,,,,,,,,,1,5.937985,,0,1,135,285,70,1,stimuli/stim_20210407_power2amp/equal_lnn_AM3Hz_70.m4a,,,
,,,,,,,,,,,,40498,2021-04-21_21h16.04.881,judgeSpeechMusic_20210407_logNormShiftAmp,2020.1.2,Win32,60,,,,,,,,,,,,,,1,5.29171,,0,1,136,286,43,1,stimuli/stim_20210407_power2amp/equal_lnn_AM1.8Hz_24.m4a,,,
,,,,,,,,,,,,40498,2021-04-21_21h16.04.881,judgeSpeechMusic_20210407_logNormShiftAmp,2020.1.2,Win32,60,,,,,,,,,,,,,,1,5.402435,,0,1,137,287,88,1,stimuli/stim_20210407_power2amp/equal_lnn_AM3.6Hz_19.m4a,,,
,,,,,,,,,,,,40498,2021-04-21_21h16.04.881,judgeSpeechMusic_20210407_logNormShiftAmp,2020.1.2,Win32,60,,,,,,,,,,,,,,1,5.54899,,0,1,138,288,48,1,stimuli/stim_20210407_power2amp/equal_lnn_AM2.4Hz_4.m4a,,,
,,,,,,,,,,,,40498,2021-04-21_21h16.04.881,judgeSpeechMusic_20210407_logNormShiftAmp,2020.1.2,Win32,60,,,,,,,,,,,,,,1,5.746455,,0,1,139,289,55,1,stimuli/stim_20210407_power2amp/equal_lnn_AM2.4Hz_89.m4a,,,
,,,,,,,,,,,,40498,2021-04-21_21h16.04.881,judgeSpeechMusic_20210407_logNormShiftAmp,2020.1.2,Win32,60,,,,,,,,,,,,,,1,5.38759,,0,1,140,290,124,1,stimuli/stim_20210407_power2amp/equal_lnn_AM5.4Hz_99.m4a,,,
,,,,,,,,,,,,40498,2021-04-21_21h16.04.881,judgeSpeechMusic_20210407_logNormShiftAmp,2020.1.2,Win32,60,,,,,,,,,,,,,,1,5.680255,,0,1,141,291,0,1,stimuli/stim_20210407_power2amp/equal_lnn_AM0.6Hz_79.m4a,,,
,,,,,,,,,,,,40498,2021-04-21_21h16.04.881,judgeSpeechMusic_20210407_logNormShiftAmp,2020.1.2,Win32,60,,,,,,,,,,,,,,1,5.684465,,0,1,142,292,147,1,stimuli/stim_20210407_power2amp/equal_lnn_AM6Hz_92.m4a,,,
,,,,,,,,,,,,40498,2021-04-21_21h16.04.881,judgeSpeechMusic_20210407_logNormShiftAmp,2020.1.2,Win32,60,,,,,,,,,,,,,,1,5.762875,,0,1,143,293,17,1,stimuli/stim_20210407_power2amp/equal_lnn_AM1.2Hz_16.m4a,,,
,,,,,,,,,,,,40498,2021-04-21_21h16.04.881,judgeSpeechMusic_20210407_logNormShiftAmp,2020.1.2,Win32,60,,,,,,,,,,,,,,1,5.68332,,0,1,144,294,50,1,stimuli/stim_20210407_power2amp/equal_lnn_AM2.4Hz_55.m4a,,,
,,,,,,,,,,,,40498,2021-04-21_21h16.04.881,judgeSpeechMusic_20210407_logNormShiftAmp,2020.1.2,Win32,60,,,,,,,,,,,,,,1,5.630185,,0,1,145,295,127,1,stimuli/stim_20210407_power2amp/equal_lnn_AM5.4Hz_21.m4a,,,
,,,,,,,,,,,,40498,2021-04-21_21h16.04.881,judgeSpeechMusic_20210407_logNormShiftAmp,2020.1.2,Win32,60,,,,,,,,,,,,,,1,5.52896,,0,1,146,296,104,1,stimuli/stim_20210407_power2amp/equal_lnn_AM4.2Hz_28.m4a,,,
,,,,,,,,,,,,40498,2021-04-21_21h16.04.881,judgeSpeechMusic_20210407_logNormShiftAmp,2020.1.2,Win32,60,,,,,,,,,,,,,,1,5.663575,,0,1,147,297,72,1,stimuli/stim_20210407_power2amp/equal_lnn_AM3Hz_55.m4a,,,
,,,,,,,,,,,,40498,2021-04-21_21h16.04.881,judgeSpeechMusic_20210407_logNormShiftAmp,2020.1.2,Win32,60,,,,,,,,,,,,,,1,5.680105,,0,1,148,298,27,1,stimuli/stim_20210407_power2amp/equal_lnn_AM1.2Hz_30.m4a,,,
,,,,,,,,,,,,40498,2021-04-21_21h16.04.881,judgeSpeechMusic_20210407_logNormShiftAmp,2020.1.2,Win32,60,,,,,,,,,,,,,,1,5.65274,,0,1,149,299,103,1,stimuli/stim_20210407_power2amp/equal_lnn_AM4.2Hz_58.m4a,,,
,,,,,,,,,,,,40498,2021-04-21_21h16.04.881,judgeSpeechMusic_20210407_logNormShiftAmp,2020.1.2,Win32,60,,,,,,,,,,,,,,,,,,,,,,,,,space,10.26051
