volAdjustRep.thisRepN,volAdjustRep.thisTrialN,volAdjustRep.thisN,volAdjustRep.thisIndex,volAdjustRep.ran,participant,date,expName,psychopyVersion,OS,frameRate,headphoneResponse.keys,headphoneResponse.corr,headphoneResponse.rt,headphoneTrial.thisRepN,headphoneTrial.thisTrialN,headphoneTrial.thisN,headphoneTrial.thisIndex,headphoneTrial.ran,headphone_sound1,headphone_sound2,headphone_sound3,corrAns,trainSlider.response,trainSlider.rt,beepTrainResponse.keys,beepTrainResponse.corr,trainingTrials.thisRepN,trainingTrials.thisTrialN,trainingTrials.thisN,trainingTrials.thisIndex,trainingTrials.ran,trainAudioFile,beepTrainResponse.rt,readyReal_resp.keys,readyReal_resp.rt,ratingSlider.response,ratingSlider.rt,beepResp.keys,beepResp.corr,expTrials.thisRepN,expTrials.thisTrialN,expTrials.thisN,expTrials.thisIndex,expTrials.ran,audioFile,beepResp.rt,end_resp.keys,end_resp.rt
0,0,0,0,1,40550,2021-04-22_16h30.36.599,judgeSpeechMusic_20210407_logNormShiftAmp,2020.1.2,MacIntel,60,,,,,,,,,,,,,,,,,,,,,,,,,,,,,,,,,,,,,,
,,,,,40550,2021-04-22_16h30.36.599,judgeSpeechMusic_20210407_logNormShiftAmp,2020.1.2,MacIntel,60,3,1,1.380695,0,0,0,0,1,stimuli/screen_antiphase.wav,stimuli/screen_origin.wav,stimuli/screen_quiet.wav,3,,,,,,,,,,,,,,,,,,,,,,,,,,
,,,,,40550,2021-04-22_16h30.36.599,judgeSpeechMusic_20210407_logNormShiftAmp,2020.1.2,MacIntel,60,3,1,1.757315,0,1,1,2,1,stimuli/screen_origin.wav,stimuli/screen_antiphase.wav,stimuli/screen_quiet.wav,3,,,,,,,,,,,,,,,,,,,,,,,,,,
,,,,,40550,2021-04-22_16h30.36.599,judgeSpeechMusic_20210407_logNormShiftAmp,2020.1.2,MacIntel,60,1,1,1.448635,0,2,2,5,1,stimuli/screen_quiet.wav,stimuli/screen_origin.wav,stimuli/screen_antiphase.wav,1,,,,,,,,,,,,,,,,,,,,,,,,,,
,,,,,40550,2021-04-22_16h30.36.599,judgeSpeechMusic_20210407_logNormShiftAmp,2020.1.2,MacIntel,60,2,1,1.641735,0,3,3,3,1,stimuli/screen_origin.wav,stimuli/screen_quiet.wav,stimuli/screen_antiphase.wav,2,,,,,,,,,,,,,,,,,,,,,,,,,,
,,,,,40550,2021-04-22_16h30.36.599,judgeSpeechMusic_20210407_logNormShiftAmp,2020.1.2,MacIntel,60,1,1,1.017335,0,4,4,4,1,stimuli/screen_quiet.wav,stimuli/screen_antiphase.wav,stimuli/screen_origin.wav,1,,,,,,,,,,,,,,,,,,,,,,,,,,
,,,,,40550,2021-04-22_16h30.36.599,judgeSpeechMusic_20210407_logNormShiftAmp,2020.1.2,MacIntel,60,2,1,1.00896,0,5,5,1,1,stimuli/screen_antiphase.wav,stimuli/screen_quiet.wav,stimuli/screen_origin.wav,2,,,,,,,,,,,,,,,,,,,,,,,,,,
,,,,,40550,2021-04-22_16h30.36.599,judgeSpeechMusic_20210407_logNormShiftAmp,2020.1.2,MacIntel,60,,,,,,,,,,,,,2,18.21003,,0,0,0,0,1,1,stimuli/stim_20210407_power2amp/equal_lnn_AM_training2.7Hz.m4a,,,,,,,,,,,,,,,,
,,,,,40550,2021-04-22_16h30.36.599,judgeSpeechMusic_20210407_logNormShiftAmp,2020.1.2,MacIntel,60,,,,,,,,,,,,,2,6.692635,,0,0,1,1,2,1,stimuli/stim_20210407_power2amp/equal_lnn_AM_training3.9Hz.m4a,,,,,,,,,,,,,,,,
,,,,,40550,2021-04-22_16h30.36.599,judgeSpeechMusic_20210407_logNormShiftAmp,2020.1.2,MacIntel,60,,,,,,,,,,,,,1,8.562395,2,1,0,2,2,0,1,stimuli/stim_20210407_power2amp/equal_lnn_AM_training1.5Hz.m4a,4.538845,,,,,,,,,,,,,,,
,,,,,40550,2021-04-22_16h30.36.599,judgeSpeechMusic_20210407_logNormShiftAmp,2020.1.2,MacIntel,60,,,,,,,,,,,,,1,7.39346,,0,0,3,3,3,1,stimuli/stim_20210407_power2amp/equal_lnn_AM_training5.1Hz.m4a,,,,,,,,,,,,,,,,
,,,,,40550,2021-04-22_16h30.36.599,judgeSpeechMusic_20210407_logNormShiftAmp,2020.1.2,MacIntel,60,,,,,,,,,,,,,,,,,,,,,,,,space,7.648385,2,11.199455,,0,0,0,0,134,1,stimuli/stim_20210407_power2amp/equal_lnn_AM5.4Hz_27.m4a,,,
,,,,,40550,2021-04-22_16h30.36.599,judgeSpeechMusic_20210407_logNormShiftAmp,2020.1.2,MacIntel,60,,,,,,,,,,,,,,,,,,,,,,,,,,2,7.835555,,0,0,1,1,86,1,stimuli/stim_20210407_power2amp/equal_lnn_AM3.6Hz_2.m4a,,,
,,,,,40550,2021-04-22_16h30.36.599,judgeSpeechMusic_20210407_logNormShiftAmp,2020.1.2,MacIntel,60,,,,,,,,,,,,,,,,,,,,,,,,,,2,8.84481,,0,0,2,2,138,1,stimuli/stim_20210407_power2amp/equal_lnn_AM6Hz_26.m4a,,,
,,,,,40550,2021-04-22_16h30.36.599,judgeSpeechMusic_20210407_logNormShiftAmp,2020.1.2,MacIntel,60,,,,,,,,,,,,,,,,,,,,,,,,,,1,6.02924,,0,0,3,3,36,1,stimuli/stim_20210407_power2amp/equal_lnn_AM1.8Hz_100.m4a,,,
,,,,,40550,2021-04-22_16h30.36.599,judgeSpeechMusic_20210407_logNormShiftAmp,2020.1.2,MacIntel,60,,,,,,,,,,,,,,,,,,,,,,,,,,2,6.79208,,0,0,4,4,148,1,stimuli/stim_20210407_power2amp/equal_lnn_AM6Hz_99.m4a,,,
,,,,,40550,2021-04-22_16h30.36.599,judgeSpeechMusic_20210407_logNormShiftAmp,2020.1.2,MacIntel,60,,,,,,,,,,,,,,,,,,,,,,,,,,1,6.08858,,0,0,5,5,115,1,stimuli/stim_20210407_power2amp/equal_lnn_AM4.8Hz_24.m4a,,,
,,,,,40550,2021-04-22_16h30.36.599,judgeSpeechMusic_20210407_logNormShiftAmp,2020.1.2,MacIntel,60,,,,,,,,,,,,,,,,,,,,,,,,,,1,6.17768,,0,0,6,6,26,1,stimuli/stim_20210407_power2amp/equal_lnn_AM1.2Hz_27.m4a,,,
,,,,,40550,2021-04-22_16h30.36.599,judgeSpeechMusic_20210407_logNormShiftAmp,2020.1.2,MacIntel,60,,,,,,,,,,,,,,,,,,,,,,,,,,1,6.010905,,0,0,7,7,109,1,stimuli/stim_20210407_power2amp/equal_lnn_AM4.8Hz_13.m4a,,,
,,,,,40550,2021-04-22_16h30.36.599,judgeSpeechMusic_20210407_logNormShiftAmp,2020.1.2,MacIntel,60,,,,,,,,,,,,,,,,,,,,,,,,,,2,6.245525,,0,0,8,8,23,1,stimuli/stim_20210407_power2amp/equal_lnn_AM1.2Hz_97.m4a,,,
,,,,,40550,2021-04-22_16h30.36.599,judgeSpeechMusic_20210407_logNormShiftAmp,2020.1.2,MacIntel,60,,,,,,,,,,,,,,,,,,,,,,,,,,1,5.96228,,0,0,9,9,87,1,stimuli/stim_20210407_power2amp/equal_lnn_AM3.6Hz_30.m4a,,,
,,,,,40550,2021-04-22_16h30.36.599,judgeSpeechMusic_20210407_logNormShiftAmp,2020.1.2,MacIntel,60,,,,,,,,,,,,,,,,,,,,,,,,,,1,5.79021,,0,0,10,10,95,1,stimuli/stim_20210407_power2amp/equal_lnn_AM4.2Hz_59.m4a,,,
,,,,,40550,2021-04-22_16h30.36.599,judgeSpeechMusic_20210407_logNormShiftAmp,2020.1.2,MacIntel,60,,,,,,,,,,,,,,,,,,,,,,,,,,2,5.847355,,0,0,11,11,105,1,stimuli/stim_20210407_power2amp/equal_lnn_AM4.8Hz_87.m4a,,,
,,,,,40550,2021-04-22_16h30.36.599,judgeSpeechMusic_20210407_logNormShiftAmp,2020.1.2,MacIntel,60,,,,,,,,,,,,,,,,,,,,,,,,,,2,6.47647,,0,0,12,12,2,1,stimuli/stim_20210407_power2amp/equal_lnn_AM0.6Hz_61.m4a,,,
,,,,,40550,2021-04-22_16h30.36.599,judgeSpeechMusic_20210407_logNormShiftAmp,2020.1.2,MacIntel,60,,,,,,,,,,,,,,,,,,,,,,,,,,2,5.85442,,0,0,13,13,29,1,stimuli/stim_20210407_power2amp/equal_lnn_AM1.2Hz_90.m4a,,,
,,,,,40550,2021-04-22_16h30.36.599,judgeSpeechMusic_20210407_logNormShiftAmp,2020.1.2,MacIntel,60,,,,,,,,,,,,,,,,,,,,,,,,,,1,6.209975,,0,0,14,14,137,1,stimuli/stim_20210407_power2amp/equal_lnn_AM6Hz_58.m4a,,,
,,,,,40550,2021-04-22_16h30.36.599,judgeSpeechMusic_20210407_logNormShiftAmp,2020.1.2,MacIntel,60,,,,,,,,,,,,,,,,,,,,,,,,,,1,5.96387,,0,0,15,15,144,1,stimuli/stim_20210407_power2amp/equal_lnn_AM6Hz_73.m4a,,,
,,,,,40550,2021-04-22_16h30.36.599,judgeSpeechMusic_20210407_logNormShiftAmp,2020.1.2,MacIntel,60,,,,,,,,,,,,,,,,,,,,,,,,,,1,6.01163,,0,0,16,16,53,1,stimuli/stim_20210407_power2amp/equal_lnn_AM2.4Hz_53.m4a,,,
,,,,,40550,2021-04-22_16h30.36.599,judgeSpeechMusic_20210407_logNormShiftAmp,2020.1.2,MacIntel,60,,,,,,,,,,,,,,,,,,,,,,,,,,2,6.34468,,0,0,17,17,99,1,stimuli/stim_20210407_power2amp/equal_lnn_AM4.2Hz_46.m4a,,,
,,,,,40550,2021-04-22_16h30.36.599,judgeSpeechMusic_20210407_logNormShiftAmp,2020.1.2,MacIntel,60,,,,,,,,,,,,,,,,,,,,,,,,,,2,8.10315,,0,0,18,18,62,1,stimuli/stim_20210407_power2amp/equal_lnn_AM3Hz_96.m4a,,,
,,,,,40550,2021-04-22_16h30.36.599,judgeSpeechMusic_20210407_logNormShiftAmp,2020.1.2,MacIntel,60,,,,,,,,,,,,,,,,,,,,,,,,,,1,8.144675,,0,0,19,19,59,1,stimuli/stim_20210407_power2amp/equal_lnn_AM2.4Hz_26.m4a,,,
,,,,,40550,2021-04-22_16h30.36.599,judgeSpeechMusic_20210407_logNormShiftAmp,2020.1.2,MacIntel,60,,,,,,,,,,,,,,,,,,,,,,,,,,2,5.928735,,0,0,20,20,48,1,stimuli/stim_20210407_power2amp/equal_lnn_AM2.4Hz_69.m4a,,,
,,,,,40550,2021-04-22_16h30.36.599,judgeSpeechMusic_20210407_logNormShiftAmp,2020.1.2,MacIntel,60,,,,,,,,,,,,,,,,,,,,,,,,,,1,5.69596,,0,0,21,21,68,1,stimuli/stim_20210407_power2amp/equal_lnn_AM3Hz_16.m4a,,,
,,,,,40550,2021-04-22_16h30.36.599,judgeSpeechMusic_20210407_logNormShiftAmp,2020.1.2,MacIntel,60,,,,,,,,,,,,,,,,,,,,,,,,,,2,7.828215,,0,0,22,22,7,1,stimuli/stim_20210407_power2amp/equal_lnn_AM0.6Hz_42.m4a,,,
,,,,,40550,2021-04-22_16h30.36.599,judgeSpeechMusic_20210407_logNormShiftAmp,2020.1.2,MacIntel,60,,,,,,,,,,,,,,,,,,,,,,,,,,2,5.83859,,0,0,23,23,84,1,stimuli/stim_20210407_power2amp/equal_lnn_AM3.6Hz_69.m4a,,,
,,,,,40550,2021-04-22_16h30.36.599,judgeSpeechMusic_20210407_logNormShiftAmp,2020.1.2,MacIntel,60,,,,,,,,,,,,,,,,,,,,,,,,,,1,5.827955,,0,0,24,24,12,1,stimuli/stim_20210407_power2amp/equal_lnn_AM0.6Hz_97.m4a,,,
,,,,,40550,2021-04-22_16h30.36.599,judgeSpeechMusic_20210407_logNormShiftAmp,2020.1.2,MacIntel,60,,,,,,,,,,,,,,,,,,,,,,,,,,2,5.913815,,0,0,25,25,83,1,stimuli/stim_20210407_power2amp/equal_lnn_AM3.6Hz_71.m4a,,,
,,,,,40550,2021-04-22_16h30.36.599,judgeSpeechMusic_20210407_logNormShiftAmp,2020.1.2,MacIntel,60,,,,,,,,,,,,,,,,,,,,,,,,,,1,5.755975,,0,0,26,26,120,1,stimuli/stim_20210407_power2amp/equal_lnn_AM5.4Hz_63.m4a,,,
,,,,,40550,2021-04-22_16h30.36.599,judgeSpeechMusic_20210407_logNormShiftAmp,2020.1.2,MacIntel,60,,,,,,,,,,,,,,,,,,,,,,,,,,1,5.728065,,0,0,27,27,4,1,stimuli/stim_20210407_power2amp/equal_lnn_AM0.6Hz_12.m4a,,,
,,,,,40550,2021-04-22_16h30.36.599,judgeSpeechMusic_20210407_logNormShiftAmp,2020.1.2,MacIntel,60,,,,,,,,,,,,,,,,,,,,,,,,,,2,5.896545,,0,0,28,28,147,1,stimuli/stim_20210407_power2amp/equal_lnn_AM6Hz_69.m4a,,,
,,,,,40550,2021-04-22_16h30.36.599,judgeSpeechMusic_20210407_logNormShiftAmp,2020.1.2,MacIntel,60,,,,,,,,,,,,,,,,,,,,,,,,,,1,5.628905,,0,0,29,29,123,1,stimuli/stim_20210407_power2amp/equal_lnn_AM5.4Hz_42.m4a,,,
,,,,,40550,2021-04-22_16h30.36.599,judgeSpeechMusic_20210407_logNormShiftAmp,2020.1.2,MacIntel,60,,,,,,,,,,,,,,,,,,,,,,,,,,1,10.29338,,0,0,30,30,63,1,stimuli/stim_20210407_power2amp/equal_lnn_AM3Hz_46.m4a,,,
,,,,,40550,2021-04-22_16h30.36.599,judgeSpeechMusic_20210407_logNormShiftAmp,2020.1.2,MacIntel,60,,,,,,,,,,,,,,,,,,,,,,,,,,1,5.62845,,0,0,31,31,135,1,stimuli/stim_20210407_power2amp/equal_lnn_AM6Hz_71.m4a,,,
,,,,,40550,2021-04-22_16h30.36.599,judgeSpeechMusic_20210407_logNormShiftAmp,2020.1.2,MacIntel,60,,,,,,,,,,,,,,,,,,,,,,,,,,2,5.92785,2,1,0,32,32,131,1,stimuli/stim_20210407_power2amp/equal_lnn_AM5.4Hz_52.m4a,1.71178,,
,,,,,40550,2021-04-22_16h30.36.599,judgeSpeechMusic_20210407_logNormShiftAmp,2020.1.2,MacIntel,60,,,,,,,,,,,,,,,,,,,,,,,,,,2,5.62699,,0,0,33,33,52,1,stimuli/stim_20210407_power2amp/equal_lnn_AM2.4Hz_63.m4a,,,
,,,,,40550,2021-04-22_16h30.36.599,judgeSpeechMusic_20210407_logNormShiftAmp,2020.1.2,MacIntel,60,,,,,,,,,,,,,,,,,,,,,,,,,,2,5.612775,,0,0,34,34,40,1,stimuli/stim_20210407_power2amp/equal_lnn_AM1.8Hz_93.m4a,,,
,,,,,40550,2021-04-22_16h30.36.599,judgeSpeechMusic_20210407_logNormShiftAmp,2020.1.2,MacIntel,60,,,,,,,,,,,,,,,,,,,,,,,,,,2,5.67941,,0,0,35,35,97,1,stimuli/stim_20210407_power2amp/equal_lnn_AM4.2Hz_43.m4a,,,
,,,,,40550,2021-04-22_16h30.36.599,judgeSpeechMusic_20210407_logNormShiftAmp,2020.1.2,MacIntel,60,,,,,,,,,,,,,,,,,,,,,,,,,,2,7.21198,,0,0,36,36,66,1,stimuli/stim_20210407_power2amp/equal_lnn_AM3Hz_33.m4a,,,
,,,,,40550,2021-04-22_16h30.36.599,judgeSpeechMusic_20210407_logNormShiftAmp,2020.1.2,MacIntel,60,,,,,,,,,,,,,,,,,,,,,,,,,,1,5.94736,,0,0,37,37,142,1,stimuli/stim_20210407_power2amp/equal_lnn_AM6Hz_19.m4a,,,
,,,,,40550,2021-04-22_16h30.36.599,judgeSpeechMusic_20210407_logNormShiftAmp,2020.1.2,MacIntel,60,,,,,,,,,,,,,,,,,,,,,,,,,,1,5.610815,,0,0,38,38,46,1,stimuli/stim_20210407_power2amp/equal_lnn_AM2.4Hz_17.m4a,,,
,,,,,40550,2021-04-22_16h30.36.599,judgeSpeechMusic_20210407_logNormShiftAmp,2020.1.2,MacIntel,60,,,,,,,,,,,,,,,,,,,,,,,,,,2,5.76354,,0,0,39,39,1,1,stimuli/stim_20210407_power2amp/equal_lnn_AM0.6Hz_68.m4a,,,
,,,,,40550,2021-04-22_16h30.36.599,judgeSpeechMusic_20210407_logNormShiftAmp,2020.1.2,MacIntel,60,,,,,,,,,,,,,,,,,,,,,,,,,,1,5.745395,,0,0,40,40,43,1,stimuli/stim_20210407_power2amp/equal_lnn_AM1.8Hz_73.m4a,,,
,,,,,40550,2021-04-22_16h30.36.599,judgeSpeechMusic_20210407_logNormShiftAmp,2020.1.2,MacIntel,60,,,,,,,,,,,,,,,,,,,,,,,,,,2,6.32846,,0,0,41,41,38,1,stimuli/stim_20210407_power2amp/equal_lnn_AM1.8Hz_31.m4a,,,
,,,,,40550,2021-04-22_16h30.36.599,judgeSpeechMusic_20210407_logNormShiftAmp,2020.1.2,MacIntel,60,,,,,,,,,,,,,,,,,,,,,,,,,,2,6.67786,,0,0,42,42,6,1,stimuli/stim_20210407_power2amp/equal_lnn_AM0.6Hz_47.m4a,,,
,,,,,40550,2021-04-22_16h30.36.599,judgeSpeechMusic_20210407_logNormShiftAmp,2020.1.2,MacIntel,60,,,,,,,,,,,,,,,,,,,,,,,,,,1,5.746205,,0,0,43,43,85,1,stimuli/stim_20210407_power2amp/equal_lnn_AM3.6Hz_6.m4a,,,
,,,,,40550,2021-04-22_16h30.36.599,judgeSpeechMusic_20210407_logNormShiftAmp,2020.1.2,MacIntel,60,,,,,,,,,,,,,,,,,,,,,,,,,,1,5.595225,,0,0,44,44,28,1,stimuli/stim_20210407_power2amp/equal_lnn_AM1.2Hz_82.m4a,,,
,,,,,40550,2021-04-22_16h30.36.599,judgeSpeechMusic_20210407_logNormShiftAmp,2020.1.2,MacIntel,60,,,,,,,,,,,,,,,,,,,,,,,,,,2,6.1112,,0,0,45,45,11,1,stimuli/stim_20210407_power2amp/equal_lnn_AM0.6Hz_60.m4a,,,
,,,,,40550,2021-04-22_16h30.36.599,judgeSpeechMusic_20210407_logNormShiftAmp,2020.1.2,MacIntel,60,,,,,,,,,,,,,,,,,,,,,,,,,,2,5.72972,,0,0,46,46,126,1,stimuli/stim_20210407_power2amp/equal_lnn_AM5.4Hz_33.m4a,,,
,,,,,40550,2021-04-22_16h30.36.599,judgeSpeechMusic_20210407_logNormShiftAmp,2020.1.2,MacIntel,60,,,,,,,,,,,,,,,,,,,,,,,,,,1,5.610365,,0,0,47,47,139,1,stimuli/stim_20210407_power2amp/equal_lnn_AM6Hz_72.m4a,,,
,,,,,40550,2021-04-22_16h30.36.599,judgeSpeechMusic_20210407_logNormShiftAmp,2020.1.2,MacIntel,60,,,,,,,,,,,,,,,,,,,,,,,,,,2,5.829125,,0,0,48,48,41,1,stimuli/stim_20210407_power2amp/equal_lnn_AM1.8Hz_46.m4a,,,
,,,,,40550,2021-04-22_16h30.36.599,judgeSpeechMusic_20210407_logNormShiftAmp,2020.1.2,MacIntel,60,,,,,,,,,,,,,,,,,,,,,,,,,,1,6.812665,,0,0,49,49,76,1,stimuli/stim_20210407_power2amp/equal_lnn_AM3.6Hz_23.m4a,,,
,,,,,40550,2021-04-22_16h30.36.599,judgeSpeechMusic_20210407_logNormShiftAmp,2020.1.2,MacIntel,60,,,,,,,,,,,,,,,,,,,,,,,,,,2,6.398085,,0,0,50,50,91,1,stimuli/stim_20210407_power2amp/equal_lnn_AM4.2Hz_34.m4a,,,
,,,,,40550,2021-04-22_16h30.36.599,judgeSpeechMusic_20210407_logNormShiftAmp,2020.1.2,MacIntel,60,,,,,,,,,,,,,,,,,,,,,,,,,,1,6.54029,,0,0,51,51,77,1,stimuli/stim_20210407_power2amp/equal_lnn_AM3.6Hz_58.m4a,,,
,,,,,40550,2021-04-22_16h30.36.599,judgeSpeechMusic_20210407_logNormShiftAmp,2020.1.2,MacIntel,60,,,,,,,,,,,,,,,,,,,,,,,,,,1,5.598055,2,1,0,52,52,34,1,stimuli/stim_20210407_power2amp/equal_lnn_AM1.8Hz_61.m4a,0.480475,,
,,,,,40550,2021-04-22_16h30.36.599,judgeSpeechMusic_20210407_logNormShiftAmp,2020.1.2,MacIntel,60,,,,,,,,,,,,,,,,,,,,,,,,,,2,8.230085,,0,0,53,53,118,1,stimuli/stim_20210407_power2amp/equal_lnn_AM4.8Hz_28.m4a,,,
,,,,,40550,2021-04-22_16h30.36.599,judgeSpeechMusic_20210407_logNormShiftAmp,2020.1.2,MacIntel,60,,,,,,,,,,,,,,,,,,,,,,,,,,2,5.72674,,0,0,54,54,27,1,stimuli/stim_20210407_power2amp/equal_lnn_AM1.2Hz_59.m4a,,,
,,,,,40550,2021-04-22_16h30.36.599,judgeSpeechMusic_20210407_logNormShiftAmp,2020.1.2,MacIntel,60,,,,,,,,,,,,,,,,,,,,,,,,,,1,5.628605,,0,0,55,55,108,1,stimuli/stim_20210407_power2amp/equal_lnn_AM4.8Hz_15.m4a,,,
,,,,,40550,2021-04-22_16h30.36.599,judgeSpeechMusic_20210407_logNormShiftAmp,2020.1.2,MacIntel,60,,,,,,,,,,,,,,,,,,,,,,,,,,1,5.74385,,0,0,56,56,102,1,stimuli/stim_20210407_power2amp/equal_lnn_AM4.2Hz_5.m4a,,,
,,,,,40550,2021-04-22_16h30.36.599,judgeSpeechMusic_20210407_logNormShiftAmp,2020.1.2,MacIntel,60,,,,,,,,,,,,,,,,,,,,,,,,,,1,6.094895,,0,0,57,57,98,1,stimuli/stim_20210407_power2amp/equal_lnn_AM4.2Hz_86.m4a,,,
,,,,,40550,2021-04-22_16h30.36.599,judgeSpeechMusic_20210407_logNormShiftAmp,2020.1.2,MacIntel,60,,,,,,,,,,,,,,,,,,,,,,,,,,1,6.07881,,0,0,58,58,44,1,stimuli/stim_20210407_power2amp/equal_lnn_AM1.8Hz_30.m4a,,,
,,,,,40550,2021-04-22_16h30.36.599,judgeSpeechMusic_20210407_logNormShiftAmp,2020.1.2,MacIntel,60,,,,,,,,,,,,,,,,,,,,,,,,,,2,6.294735,,0,0,59,59,140,1,stimuli/stim_20210407_power2amp/equal_lnn_AM6Hz_54.m4a,,,
,,,,,40550,2021-04-22_16h30.36.599,judgeSpeechMusic_20210407_logNormShiftAmp,2020.1.2,MacIntel,60,,,,,,,,,,,,,,,,,,,,,,,,,,2,8.931,,0,0,60,60,129,1,stimuli/stim_20210407_power2amp/equal_lnn_AM5.4Hz_22.m4a,,,
,,,,,40550,2021-04-22_16h30.36.599,judgeSpeechMusic_20210407_logNormShiftAmp,2020.1.2,MacIntel,60,,,,,,,,,,,,,,,,,,,,,,,,,,1,11.026365,,0,0,61,61,30,1,stimuli/stim_20210407_power2amp/equal_lnn_AM1.8Hz_90.m4a,,,
,,,,,40550,2021-04-22_16h30.36.599,judgeSpeechMusic_20210407_logNormShiftAmp,2020.1.2,MacIntel,60,,,,,,,,,,,,,,,,,,,,,,,,,,1,7.11069,,0,0,62,62,113,1,stimuli/stim_20210407_power2amp/equal_lnn_AM4.8Hz_8.m4a,,,
,,,,,40550,2021-04-22_16h30.36.599,judgeSpeechMusic_20210407_logNormShiftAmp,2020.1.2,MacIntel,60,,,,,,,,,,,,,,,,,,,,,,,,,,1,5.947185,,0,0,63,63,72,1,stimuli/stim_20210407_power2amp/equal_lnn_AM3Hz_22.m4a,,,
,,,,,40550,2021-04-22_16h30.36.599,judgeSpeechMusic_20210407_logNormShiftAmp,2020.1.2,MacIntel,60,,,,,,,,,,,,,,,,,,,,,,,,,,2,5.742305,,0,0,64,64,61,1,stimuli/stim_20210407_power2amp/equal_lnn_AM3Hz_52.m4a,,,
,,,,,40550,2021-04-22_16h30.36.599,judgeSpeechMusic_20210407_logNormShiftAmp,2020.1.2,MacIntel,60,,,,,,,,,,,,,,,,,,,,,,,,,,1,5.72992,,0,0,65,65,64,1,stimuli/stim_20210407_power2amp/equal_lnn_AM3Hz_1.m4a,,,
,,,,,40550,2021-04-22_16h30.36.599,judgeSpeechMusic_20210407_logNormShiftAmp,2020.1.2,MacIntel,60,,,,,,,,,,,,,,,,,,,,,,,,,,1,5.628555,,0,0,66,66,88,1,stimuli/stim_20210407_power2amp/equal_lnn_AM3.6Hz_42.m4a,,,
,,,,,40550,2021-04-22_16h30.36.599,judgeSpeechMusic_20210407_logNormShiftAmp,2020.1.2,MacIntel,60,,,,,,,,,,,,,,,,,,,,,,,,,,2,5.64561,,0,0,67,67,122,1,stimuli/stim_20210407_power2amp/equal_lnn_AM5.4Hz_76.m4a,,,
,,,,,40550,2021-04-22_16h30.36.599,judgeSpeechMusic_20210407_logNormShiftAmp,2020.1.2,MacIntel,60,,,,,,,,,,,,,,,,,,,,,,,,,,1,7.69622,,0,0,68,68,107,1,stimuli/stim_20210407_power2amp/equal_lnn_AM4.8Hz_20.m4a,,,
,,,,,40550,2021-04-22_16h30.36.599,judgeSpeechMusic_20210407_logNormShiftAmp,2020.1.2,MacIntel,60,,,,,,,,,,,,,,,,,,,,,,,,,,2,6.328295,,0,0,69,69,103,1,stimuli/stim_20210407_power2amp/equal_lnn_AM4.2Hz_22.m4a,,,
,,,,,40550,2021-04-22_16h30.36.599,judgeSpeechMusic_20210407_logNormShiftAmp,2020.1.2,MacIntel,60,,,,,,,,,,,,,,,,,,,,,,,,,,1,6.32838,,0,0,70,70,133,1,stimuli/stim_20210407_power2amp/equal_lnn_AM5.4Hz_92.m4a,,,
,,,,,40550,2021-04-22_16h30.36.599,judgeSpeechMusic_20210407_logNormShiftAmp,2020.1.2,MacIntel,60,,,,,,,,,,,,,,,,,,,,,,,,,,2,6.543945,,0,0,71,71,121,1,stimuli/stim_20210407_power2amp/equal_lnn_AM5.4Hz_62.m4a,,,
,,,,,40550,2021-04-22_16h30.36.599,judgeSpeechMusic_20210407_logNormShiftAmp,2020.1.2,MacIntel,60,,,,,,,,,,,,,,,,,,,,,,,,,,1,6.11317,,0,0,72,72,55,1,stimuli/stim_20210407_power2amp/equal_lnn_AM2.4Hz_34.m4a,,,
,,,,,40550,2021-04-22_16h30.36.599,judgeSpeechMusic_20210407_logNormShiftAmp,2020.1.2,MacIntel,60,,,,,,,,,,,,,,,,,,,,,,,,,,2,7.16283,,0,0,73,73,31,1,stimuli/stim_20210407_power2amp/equal_lnn_AM1.8Hz_57.m4a,,,
,,,,,40550,2021-04-22_16h30.36.599,judgeSpeechMusic_20210407_logNormShiftAmp,2020.1.2,MacIntel,60,,,,,,,,,,,,,,,,,,,,,,,,,,2,11.459725,,0,0,74,74,75,1,stimuli/stim_20210407_power2amp/equal_lnn_AM3.6Hz_55.m4a,,,
,,,,,40550,2021-04-22_16h30.36.599,judgeSpeechMusic_20210407_logNormShiftAmp,2020.1.2,MacIntel,60,,,,,,,,,,,,,,,,,,,,,,,,,,1,5.60509,,0,0,75,75,70,1,stimuli/stim_20210407_power2amp/equal_lnn_AM3Hz_51.m4a,,,
,,,,,40550,2021-04-22_16h30.36.599,judgeSpeechMusic_20210407_logNormShiftAmp,2020.1.2,MacIntel,60,,,,,,,,,,,,,,,,,,,,,,,,,,1,5.84536,,0,0,76,76,15,1,stimuli/stim_20210407_power2amp/equal_lnn_AM1.2Hz_12.m4a,,,
,,,,,40550,2021-04-22_16h30.36.599,judgeSpeechMusic_20210407_logNormShiftAmp,2020.1.2,MacIntel,60,,,,,,,,,,,,,,,,,,,,,,,,,,2,7.59529,1,1,0,77,77,117,1,stimuli/stim_20210407_power2amp/equal_lnn_AM4.8Hz_96.m4a,0.546495,,
,,,,,40550,2021-04-22_16h30.36.599,judgeSpeechMusic_20210407_logNormShiftAmp,2020.1.2,MacIntel,60,,,,,,,,,,,,,,,,,,,,,,,,,,2,6.58019,,0,0,78,78,33,1,stimuli/stim_20210407_power2amp/equal_lnn_AM1.8Hz_65.m4a,,,
,,,,,40550,2021-04-22_16h30.36.599,judgeSpeechMusic_20210407_logNormShiftAmp,2020.1.2,MacIntel,60,,,,,,,,,,,,,,,,,,,,,,,,,,1,6.04495,,0,0,79,79,81,1,stimuli/stim_20210407_power2amp/equal_lnn_AM3.6Hz_80.m4a,,,
,,,,,40550,2021-04-22_16h30.36.599,judgeSpeechMusic_20210407_logNormShiftAmp,2020.1.2,MacIntel,60,,,,,,,,,,,,,,,,,,,,,,,,,,1,5.596805,,0,0,80,80,96,1,stimuli/stim_20210407_power2amp/equal_lnn_AM4.2Hz_73.m4a,,,
,,,,,40550,2021-04-22_16h30.36.599,judgeSpeechMusic_20210407_logNormShiftAmp,2020.1.2,MacIntel,60,,,,,,,,,,,,,,,,,,,,,,,,,,2,5.704505,,0,0,81,81,19,1,stimuli/stim_20210407_power2amp/equal_lnn_AM1.2Hz_4.m4a,,,
,,,,,40550,2021-04-22_16h30.36.599,judgeSpeechMusic_20210407_logNormShiftAmp,2020.1.2,MacIntel,60,,,,,,,,,,,,,,,,,,,,,,,,,,2,6.611945,,0,0,82,82,136,1,stimuli/stim_20210407_power2amp/equal_lnn_AM6Hz_33.m4a,,,
,,,,,40550,2021-04-22_16h30.36.599,judgeSpeechMusic_20210407_logNormShiftAmp,2020.1.2,MacIntel,60,,,,,,,,,,,,,,,,,,,,,,,,,,2,6.208455,,0,0,83,83,8,1,stimuli/stim_20210407_power2amp/equal_lnn_AM0.6Hz_18.m4a,,,
,,,,,40550,2021-04-22_16h30.36.599,judgeSpeechMusic_20210407_logNormShiftAmp,2020.1.2,MacIntel,60,,,,,,,,,,,,,,,,,,,,,,,,,,1,9.93663,,0,0,84,84,127,1,stimuli/stim_20210407_power2amp/equal_lnn_AM5.4Hz_35.m4a,,,
,,,,,40550,2021-04-22_16h30.36.599,judgeSpeechMusic_20210407_logNormShiftAmp,2020.1.2,MacIntel,60,,,,,,,,,,,,,,,,,,,,,,,,,,2,8.44406,,0,0,85,85,92,1,stimuli/stim_20210407_power2amp/equal_lnn_AM4.2Hz_28.m4a,,,
,,,,,40550,2021-04-22_16h30.36.599,judgeSpeechMusic_20210407_logNormShiftAmp,2020.1.2,MacIntel,60,,,,,,,,,,,,,,,,,,,,,,,,,,1,5.877595,,0,0,86,86,17,1,stimuli/stim_20210407_power2amp/equal_lnn_AM1.2Hz_50.m4a,,,
,,,,,40550,2021-04-22_16h30.36.599,judgeSpeechMusic_20210407_logNormShiftAmp,2020.1.2,MacIntel,60,,,,,,,,,,,,,,,,,,,,,,,,,,1,6.20376,,0,0,87,87,71,1,stimuli/stim_20210407_power2amp/equal_lnn_AM3Hz_38.m4a,,,
,,,,,40550,2021-04-22_16h30.36.599,judgeSpeechMusic_20210407_logNormShiftAmp,2020.1.2,MacIntel,60,,,,,,,,,,,,,,,,,,,,,,,,,,1,6.157645,,0,0,88,88,100,1,stimuli/stim_20210407_power2amp/equal_lnn_AM4.2Hz_93.m4a,,,
,,,,,40550,2021-04-22_16h30.36.599,judgeSpeechMusic_20210407_logNormShiftAmp,2020.1.2,MacIntel,60,,,,,,,,,,,,,,,,,,,,,,,,,,2,5.807245,,0,0,89,89,60,1,stimuli/stim_20210407_power2amp/equal_lnn_AM3Hz_29.m4a,,,
,,,,,40550,2021-04-22_16h30.36.599,judgeSpeechMusic_20210407_logNormShiftAmp,2020.1.2,MacIntel,60,,,,,,,,,,,,,,,,,,,,,,,,,,1,5.92866,,0,0,90,90,13,1,stimuli/stim_20210407_power2amp/equal_lnn_AM0.6Hz_27.m4a,,,
,,,,,40550,2021-04-22_16h30.36.599,judgeSpeechMusic_20210407_logNormShiftAmp,2020.1.2,MacIntel,60,,,,,,,,,,,,,,,,,,,,,,,,,,2,5.611745,,0,0,91,91,111,1,stimuli/stim_20210407_power2amp/equal_lnn_AM4.8Hz_17.m4a,,,
,,,,,40550,2021-04-22_16h30.36.599,judgeSpeechMusic_20210407_logNormShiftAmp,2020.1.2,MacIntel,60,,,,,,,,,,,,,,,,,,,,,,,,,,1,6.42862,,0,0,92,92,65,1,stimuli/stim_20210407_power2amp/equal_lnn_AM3Hz_86.m4a,,,
,,,,,40550,2021-04-22_16h30.36.599,judgeSpeechMusic_20210407_logNormShiftAmp,2020.1.2,MacIntel,60,,,,,,,,,,,,,,,,,,,,,,,,,,2,6.046225,,0,0,93,93,106,1,stimuli/stim_20210407_power2amp/equal_lnn_AM4.8Hz_29.m4a,,,
,,,,,40550,2021-04-22_16h30.36.599,judgeSpeechMusic_20210407_logNormShiftAmp,2020.1.2,MacIntel,60,,,,,,,,,,,,,,,,,,,,,,,,,,2,5.927975,,0,0,94,94,132,1,stimuli/stim_20210407_power2amp/equal_lnn_AM5.4Hz_98.m4a,,,
,,,,,40550,2021-04-22_16h30.36.599,judgeSpeechMusic_20210407_logNormShiftAmp,2020.1.2,MacIntel,60,,,,,,,,,,,,,,,,,,,,,,,,,,1,5.97238,,0,0,95,95,74,1,stimuli/stim_20210407_power2amp/equal_lnn_AM3Hz_71.m4a,,,
,,,,,40550,2021-04-22_16h30.36.599,judgeSpeechMusic_20210407_logNormShiftAmp,2020.1.2,MacIntel,60,,,,,,,,,,,,,,,,,,,,,,,,,,1,5.67732,,0,0,96,96,78,1,stimuli/stim_20210407_power2amp/equal_lnn_AM3.6Hz_59.m4a,,,
,,,,,40550,2021-04-22_16h30.36.599,judgeSpeechMusic_20210407_logNormShiftAmp,2020.1.2,MacIntel,60,,,,,,,,,,,,,,,,,,,,,,,,,,1,5.82708,,0,0,97,97,119,1,stimuli/stim_20210407_power2amp/equal_lnn_AM4.8Hz_80.m4a,,,
,,,,,40550,2021-04-22_16h30.36.599,judgeSpeechMusic_20210407_logNormShiftAmp,2020.1.2,MacIntel,60,,,,,,,,,,,,,,,,,,,,,,,,,,2,5.85975,,0,0,98,98,112,1,stimuli/stim_20210407_power2amp/equal_lnn_AM4.8Hz_76.m4a,,,
,,,,,40550,2021-04-22_16h30.36.599,judgeSpeechMusic_20210407_logNormShiftAmp,2020.1.2,MacIntel,60,,,,,,,,,,,,,,,,,,,,,,,,,,2,5.62721,,0,0,99,99,145,1,stimuli/stim_20210407_power2amp/equal_lnn_AM6Hz_24.m4a,,,
,,,,,40550,2021-04-22_16h30.36.599,judgeSpeechMusic_20210407_logNormShiftAmp,2020.1.2,MacIntel,60,,,,,,,,,,,,,,,,,,,,,,,,,,2,7.07936,4,1,0,100,100,50,1,stimuli/stim_20210407_power2amp/equal_lnn_AM2.4Hz_24.m4a,1.238675,,
,,,,,40550,2021-04-22_16h30.36.599,judgeSpeechMusic_20210407_logNormShiftAmp,2020.1.2,MacIntel,60,,,,,,,,,,,,,,,,,,,,,,,,,,2,10.52804,,0,0,101,101,67,1,stimuli/stim_20210407_power2amp/equal_lnn_AM3Hz_49.m4a,,,
,,,,,40550,2021-04-22_16h30.36.599,judgeSpeechMusic_20210407_logNormShiftAmp,2020.1.2,MacIntel,60,,,,,,,,,,,,,,,,,,,,,,,,,,1,6.437705,,0,0,102,102,49,1,stimuli/stim_20210407_power2amp/equal_lnn_AM2.4Hz_65.m4a,,,
,,,,,40550,2021-04-22_16h30.36.599,judgeSpeechMusic_20210407_logNormShiftAmp,2020.1.2,MacIntel,60,,,,,,,,,,,,,,,,,,,,,,,,,,2,6.92742,,0,0,103,103,114,1,stimuli/stim_20210407_power2amp/equal_lnn_AM4.8Hz_70.m4a,,,
,,,,,40550,2021-04-22_16h30.36.599,judgeSpeechMusic_20210407_logNormShiftAmp,2020.1.2,MacIntel,60,,,,,,,,,,,,,,,,,,,,,,,,,,1,6.045505,,0,0,104,104,16,1,stimuli/stim_20210407_power2amp/equal_lnn_AM1.2Hz_86.m4a,,,
,,,,,40550,2021-04-22_16h30.36.599,judgeSpeechMusic_20210407_logNormShiftAmp,2020.1.2,MacIntel,60,,,,,,,,,,,,,,,,,,,,,,,,,,2,6.77578,,0,0,105,105,79,1,stimuli/stim_20210407_power2amp/equal_lnn_AM3.6Hz_40.m4a,,,
,,,,,40550,2021-04-22_16h30.36.599,judgeSpeechMusic_20210407_logNormShiftAmp,2020.1.2,MacIntel,60,,,,,,,,,,,,,,,,,,,,,,,,,,1,5.894745,,0,0,106,106,9,1,stimuli/stim_20210407_power2amp/equal_lnn_AM0.6Hz_94.m4a,,,
,,,,,40550,2021-04-22_16h30.36.599,judgeSpeechMusic_20210407_logNormShiftAmp,2020.1.2,MacIntel,60,,,,,,,,,,,,,,,,,,,,,,,,,,2,5.894765,,0,0,107,107,124,1,stimuli/stim_20210407_power2amp/equal_lnn_AM5.4Hz_41.m4a,,,
,,,,,40550,2021-04-22_16h30.36.599,judgeSpeechMusic_20210407_logNormShiftAmp,2020.1.2,MacIntel,60,,,,,,,,,,,,,,,,,,,,,,,,,,1,7.17749,,0,0,108,108,5,1,stimuli/stim_20210407_power2amp/equal_lnn_AM0.6Hz_56.m4a,,,
,,,,,40550,2021-04-22_16h30.36.599,judgeSpeechMusic_20210407_logNormShiftAmp,2020.1.2,MacIntel,60,,,,,,,,,,,,,,,,,,,,,,,,,,1,5.712195,,0,0,109,109,25,1,stimuli/stim_20210407_power2amp/equal_lnn_AM1.2Hz_57.m4a,,,
,,,,,40550,2021-04-22_16h30.36.599,judgeSpeechMusic_20210407_logNormShiftAmp,2020.1.2,MacIntel,60,,,,,,,,,,,,,,,,,,,,,,,,,,2,6.97205,,0,0,110,110,58,1,stimuli/stim_20210407_power2amp/equal_lnn_AM2.4Hz_35.m4a,,,
,,,,,40550,2021-04-22_16h30.36.599,judgeSpeechMusic_20210407_logNormShiftAmp,2020.1.2,MacIntel,60,,,,,,,,,,,,,,,,,,,,,,,,,,1,6.378365,,0,0,111,111,94,1,stimuli/stim_20210407_power2amp/equal_lnn_AM4.2Hz_94.m4a,,,
,,,,,40550,2021-04-22_16h30.36.599,judgeSpeechMusic_20210407_logNormShiftAmp,2020.1.2,MacIntel,60,,,,,,,,,,,,,,,,,,,,,,,,,,2,6.64576,,0,0,112,112,149,1,stimuli/stim_20210407_power2amp/equal_lnn_AM6Hz_74.m4a,,,
,,,,,40550,2021-04-22_16h30.36.599,judgeSpeechMusic_20210407_logNormShiftAmp,2020.1.2,MacIntel,60,,,,,,,,,,,,,,,,,,,,,,,,,,2,7.16122,,0,0,113,113,39,1,stimuli/stim_20210407_power2amp/equal_lnn_AM1.8Hz_19.m4a,,,
,,,,,40550,2021-04-22_16h30.36.599,judgeSpeechMusic_20210407_logNormShiftAmp,2020.1.2,MacIntel,60,,,,,,,,,,,,,,,,,,,,,,,,,,1,6.305105,,0,0,114,114,56,1,stimuli/stim_20210407_power2amp/equal_lnn_AM2.4Hz_25.m4a,,,
,,,,,40550,2021-04-22_16h30.36.599,judgeSpeechMusic_20210407_logNormShiftAmp,2020.1.2,MacIntel,60,,,,,,,,,,,,,,,,,,,,,,,,,,2,6.493715,,0,0,115,115,32,1,stimuli/stim_20210407_power2amp/equal_lnn_AM1.8Hz_78.m4a,,,
,,,,,40550,2021-04-22_16h30.36.599,judgeSpeechMusic_20210407_logNormShiftAmp,2020.1.2,MacIntel,60,,,,,,,,,,,,,,,,,,,,,,,,,,1,5.79542,,0,0,116,116,20,1,stimuli/stim_20210407_power2amp/equal_lnn_AM1.2Hz_54.m4a,,,
,,,,,40550,2021-04-22_16h30.36.599,judgeSpeechMusic_20210407_logNormShiftAmp,2020.1.2,MacIntel,60,,,,,,,,,,,,,,,,,,,,,,,,,,1,5.59391,,0,0,117,117,57,1,stimuli/stim_20210407_power2amp/equal_lnn_AM2.4Hz_90.m4a,,,
,,,,,40550,2021-04-22_16h30.36.599,judgeSpeechMusic_20210407_logNormShiftAmp,2020.1.2,MacIntel,60,,,,,,,,,,,,,,,,,,,,,,,,,,1,5.93069,,0,0,118,118,47,1,stimuli/stim_20210407_power2amp/equal_lnn_AM2.4Hz_84.m4a,,,
,,,,,40550,2021-04-22_16h30.36.599,judgeSpeechMusic_20210407_logNormShiftAmp,2020.1.2,MacIntel,60,,,,,,,,,,,,,,,,,,,,,,,,,,1,5.860995,,0,0,119,119,141,1,stimuli/stim_20210407_power2amp/equal_lnn_AM6Hz_55.m4a,,,
,,,,,40550,2021-04-22_16h30.36.599,judgeSpeechMusic_20210407_logNormShiftAmp,2020.1.2,MacIntel,60,,,,,,,,,,,,,,,,,,,,,,,,,,1,7.20395,,0,0,120,120,110,1,stimuli/stim_20210407_power2amp/equal_lnn_AM4.8Hz_65.m4a,,,
,,,,,40550,2021-04-22_16h30.36.599,judgeSpeechMusic_20210407_logNormShiftAmp,2020.1.2,MacIntel,60,,,,,,,,,,,,,,,,,,,,,,,,,,2,5.810255,3,1,0,121,121,73,1,stimuli/stim_20210407_power2amp/equal_lnn_AM3Hz_63.m4a,0.995615,,
,,,,,40550,2021-04-22_16h30.36.599,judgeSpeechMusic_20210407_logNormShiftAmp,2020.1.2,MacIntel,60,,,,,,,,,,,,,,,,,,,,,,,,,,1,5.761335,,0,0,122,122,24,1,stimuli/stim_20210407_power2amp/equal_lnn_AM1.2Hz_93.m4a,,,
,,,,,40550,2021-04-22_16h30.36.599,judgeSpeechMusic_20210407_logNormShiftAmp,2020.1.2,MacIntel,60,,,,,,,,,,,,,,,,,,,,,,,,,,2,6.311985,,0,0,123,123,128,1,stimuli/stim_20210407_power2amp/equal_lnn_AM5.4Hz_28.m4a,,,
,,,,,40550,2021-04-22_16h30.36.599,judgeSpeechMusic_20210407_logNormShiftAmp,2020.1.2,MacIntel,60,,,,,,,,,,,,,,,,,,,,,,,,,,1,5.86146,,0,0,124,124,22,1,stimuli/stim_20210407_power2amp/equal_lnn_AM1.2Hz_85.m4a,,,
,,,,,40550,2021-04-22_16h30.36.599,judgeSpeechMusic_20210407_logNormShiftAmp,2020.1.2,MacIntel,60,,,,,,,,,,,,,,,,,,,,,,,,,,2,6.210425,,0,0,125,125,80,1,stimuli/stim_20210407_power2amp/equal_lnn_AM3.6Hz_76.m4a,,,
,,,,,40550,2021-04-22_16h30.36.599,judgeSpeechMusic_20210407_logNormShiftAmp,2020.1.2,MacIntel,60,,,,,,,,,,,,,,,,,,,,,,,,,,1,6.34533,,0,0,126,126,14,1,stimuli/stim_20210407_power2amp/equal_lnn_AM0.6Hz_99.m4a,,,
,,,,,40550,2021-04-22_16h30.36.599,judgeSpeechMusic_20210407_logNormShiftAmp,2020.1.2,MacIntel,60,,,,,,,,,,,,,,,,,,,,,,,,,,2,6.539605,,0,0,127,127,82,1,stimuli/stim_20210407_power2amp/equal_lnn_AM3.6Hz_78.m4a,,,
,,,,,40550,2021-04-22_16h30.36.599,judgeSpeechMusic_20210407_logNormShiftAmp,2020.1.2,MacIntel,60,,,,,,,,,,,,,,,,,,,,,,,,,,1,5.59712,,0,0,128,128,18,1,stimuli/stim_20210407_power2amp/equal_lnn_AM1.2Hz_81.m4a,,,
,,,,,40550,2021-04-22_16h30.36.599,judgeSpeechMusic_20210407_logNormShiftAmp,2020.1.2,MacIntel,60,,,,,,,,,,,,,,,,,,,,,,,,,,1,7.812515,,0,0,129,129,143,1,stimuli/stim_20210407_power2amp/equal_lnn_AM6Hz_2.m4a,,,
,,,,,40550,2021-04-22_16h30.36.599,judgeSpeechMusic_20210407_logNormShiftAmp,2020.1.2,MacIntel,60,,,,,,,,,,,,,,,,,,,,,,,,,,2,6.62855,,0,0,130,130,89,1,stimuli/stim_20210407_power2amp/equal_lnn_AM3.6Hz_87.m4a,,,
,,,,,40550,2021-04-22_16h30.36.599,judgeSpeechMusic_20210407_logNormShiftAmp,2020.1.2,MacIntel,60,,,,,,,,,,,,,,,,,,,,,,,,,,2,6.22884,,0,0,131,131,93,1,stimuli/stim_20210407_power2amp/equal_lnn_AM4.2Hz_71.m4a,,,
,,,,,40550,2021-04-22_16h30.36.599,judgeSpeechMusic_20210407_logNormShiftAmp,2020.1.2,MacIntel,60,,,,,,,,,,,,,,,,,,,,,,,,,,1,5.71102,,0,0,132,132,90,1,stimuli/stim_20210407_power2amp/equal_lnn_AM4.2Hz_27.m4a,,,
,,,,,40550,2021-04-22_16h30.36.599,judgeSpeechMusic_20210407_logNormShiftAmp,2020.1.2,MacIntel,60,,,,,,,,,,,,,,,,,,,,,,,,,,1,6.64361,,0,0,133,133,45,1,stimuli/stim_20210407_power2amp/equal_lnn_AM2.4Hz_59.m4a,,,
,,,,,40550,2021-04-22_16h30.36.599,judgeSpeechMusic_20210407_logNormShiftAmp,2020.1.2,MacIntel,60,,,,,,,,,,,,,,,,,,,,,,,,,,2,6.01155,,0,0,134,134,21,1,stimuli/stim_20210407_power2amp/equal_lnn_AM1.2Hz_18.m4a,,,
,,,,,40550,2021-04-22_16h30.36.599,judgeSpeechMusic_20210407_logNormShiftAmp,2020.1.2,MacIntel,60,,,,,,,,,,,,,,,,,,,,,,,,,,2,5.630245,,0,0,135,135,101,1,stimuli/stim_20210407_power2amp/equal_lnn_AM4.2Hz_23.m4a,,,
,,,,,40550,2021-04-22_16h30.36.599,judgeSpeechMusic_20210407_logNormShiftAmp,2020.1.2,MacIntel,60,,,,,,,,,,,,,,,,,,,,,,,,,,1,6.0113,,0,0,136,136,0,1,stimuli/stim_20210407_power2amp/equal_lnn_AM0.6Hz_89.m4a,,,
,,,,,40550,2021-04-22_16h30.36.599,judgeSpeechMusic_20210407_logNormShiftAmp,2020.1.2,MacIntel,60,,,,,,,,,,,,,,,,,,,,,,,,,,1,5.845205,,0,0,137,137,3,1,stimuli/stim_20210407_power2amp/equal_lnn_AM0.6Hz_54.m4a,,,
,,,,,40550,2021-04-22_16h30.36.599,judgeSpeechMusic_20210407_logNormShiftAmp,2020.1.2,MacIntel,60,,,,,,,,,,,,,,,,,,,,,,,,,,1,5.744355,,0,0,138,138,51,1,stimuli/stim_20210407_power2amp/equal_lnn_AM2.4Hz_82.m4a,,,
,,,,,40550,2021-04-22_16h30.36.599,judgeSpeechMusic_20210407_logNormShiftAmp,2020.1.2,MacIntel,60,,,,,,,,,,,,,,,,,,,,,,,,,,1,6.245745,,0,0,139,139,37,1,stimuli/stim_20210407_power2amp/equal_lnn_AM1.8Hz_44.m4a,,,
,,,,,40550,2021-04-22_16h30.36.599,judgeSpeechMusic_20210407_logNormShiftAmp,2020.1.2,MacIntel,60,,,,,,,,,,,,,,,,,,,,,,,,,,1,5.84378,,0,0,140,140,130,1,stimuli/stim_20210407_power2amp/equal_lnn_AM5.4Hz_46.m4a,,,
,,,,,40550,2021-04-22_16h30.36.599,judgeSpeechMusic_20210407_logNormShiftAmp,2020.1.2,MacIntel,60,,,,,,,,,,,,,,,,,,,,,,,,,,2,5.62846,,0,0,141,141,104,1,stimuli/stim_20210407_power2amp/equal_lnn_AM4.2Hz_69.m4a,,,
,,,,,40550,2021-04-22_16h30.36.599,judgeSpeechMusic_20210407_logNormShiftAmp,2020.1.2,MacIntel,60,,,,,,,,,,,,,,,,,,,,,,,,,,1,6.163155,,0,0,142,142,42,1,stimuli/stim_20210407_power2amp/equal_lnn_AM1.8Hz_55.m4a,,,
,,,,,40550,2021-04-22_16h30.36.599,judgeSpeechMusic_20210407_logNormShiftAmp,2020.1.2,MacIntel,60,,,,,,,,,,,,,,,,,,,,,,,,,,1,5.677295,,0,0,143,143,35,1,stimuli/stim_20210407_power2amp/equal_lnn_AM1.8Hz_14.m4a,,,
,,,,,40550,2021-04-22_16h30.36.599,judgeSpeechMusic_20210407_logNormShiftAmp,2020.1.2,MacIntel,60,,,,,,,,,,,,,,,,,,,,,,,,,,2,5.908675,,0,0,144,144,146,1,stimuli/stim_20210407_power2amp/equal_lnn_AM6Hz_76.m4a,,,
,,,,,40550,2021-04-22_16h30.36.599,judgeSpeechMusic_20210407_logNormShiftAmp,2020.1.2,MacIntel,60,,,,,,,,,,,,,,,,,,,,,,,,,,1,5.58889,1,1,0,145,145,69,1,stimuli/stim_20210407_power2amp/equal_lnn_AM3Hz_45.m4a,0.802635,,
,,,,,40550,2021-04-22_16h30.36.599,judgeSpeechMusic_20210407_logNormShiftAmp,2020.1.2,MacIntel,60,,,,,,,,,,,,,,,,,,,,,,,,,,2,6.326375,,0,0,146,146,116,1,stimuli/stim_20210407_power2amp/equal_lnn_AM4.8Hz_90.m4a,,,
,,,,,40550,2021-04-22_16h30.36.599,judgeSpeechMusic_20210407_logNormShiftAmp,2020.1.2,MacIntel,60,,,,,,,,,,,,,,,,,,,,,,,,,,1,5.829,,0,0,147,147,125,1,stimuli/stim_20210407_power2amp/equal_lnn_AM5.4Hz_66.m4a,,,
,,,,,40550,2021-04-22_16h30.36.599,judgeSpeechMusic_20210407_logNormShiftAmp,2020.1.2,MacIntel,60,,,,,,,,,,,,,,,,,,,,,,,,,,1,5.627025,,0,0,148,148,54,1,stimuli/stim_20210407_power2amp/equal_lnn_AM2.4Hz_92.m4a,,,
,,,,,40550,2021-04-22_16h30.36.599,judgeSpeechMusic_20210407_logNormShiftAmp,2020.1.2,MacIntel,60,,,,,,,,,,,,,,,,,,,,,,,,,,2,5.79615,,0,0,149,149,10,1,stimuli/stim_20210407_power2amp/equal_lnn_AM0.6Hz_20.m4a,,,
,,,,,40550,2021-04-22_16h30.36.599,judgeSpeechMusic_20210407_logNormShiftAmp,2020.1.2,MacIntel,60,,,,,,,,,,,,,,,,,,,,,,,,,,2,5.811205,,0,1,0,150,93,1,stimuli/stim_20210407_power2amp/equal_lnn_AM4.2Hz_71.m4a,,,
,,,,,40550,2021-04-22_16h30.36.599,judgeSpeechMusic_20210407_logNormShiftAmp,2020.1.2,MacIntel,60,,,,,,,,,,,,,,,,,,,,,,,,,,2,5.561855,,0,1,1,151,96,1,stimuli/stim_20210407_power2amp/equal_lnn_AM4.2Hz_73.m4a,,,
,,,,,40550,2021-04-22_16h30.36.599,judgeSpeechMusic_20210407_logNormShiftAmp,2020.1.2,MacIntel,60,,,,,,,,,,,,,,,,,,,,,,,,,,1,5.76216,,0,1,2,152,35,1,stimuli/stim_20210407_power2amp/equal_lnn_AM1.8Hz_14.m4a,,,
,,,,,40550,2021-04-22_16h30.36.599,judgeSpeechMusic_20210407_logNormShiftAmp,2020.1.2,MacIntel,60,,,,,,,,,,,,,,,,,,,,,,,,,,1,6.437425,,0,1,3,153,33,1,stimuli/stim_20210407_power2amp/equal_lnn_AM1.8Hz_65.m4a,,,
,,,,,40550,2021-04-22_16h30.36.599,judgeSpeechMusic_20210407_logNormShiftAmp,2020.1.2,MacIntel,60,,,,,,,,,,,,,,,,,,,,,,,,,,1,5.92707,,0,1,4,154,22,1,stimuli/stim_20210407_power2amp/equal_lnn_AM1.2Hz_85.m4a,,,
,,,,,40550,2021-04-22_16h30.36.599,judgeSpeechMusic_20210407_logNormShiftAmp,2020.1.2,MacIntel,60,,,,,,,,,,,,,,,,,,,,,,,,,,2,6.529,,0,1,5,155,68,1,stimuli/stim_20210407_power2amp/equal_lnn_AM3Hz_16.m4a,,,
,,,,,40550,2021-04-22_16h30.36.599,judgeSpeechMusic_20210407_logNormShiftAmp,2020.1.2,MacIntel,60,,,,,,,,,,,,,,,,,,,,,,,,,,2,6.60548,,0,1,6,156,141,1,stimuli/stim_20210407_power2amp/equal_lnn_AM6Hz_55.m4a,,,
,,,,,40550,2021-04-22_16h30.36.599,judgeSpeechMusic_20210407_logNormShiftAmp,2020.1.2,MacIntel,60,,,,,,,,,,,,,,,,,,,,,,,,,,1,5.9277,,0,1,7,157,90,1,stimuli/stim_20210407_power2amp/equal_lnn_AM4.2Hz_27.m4a,,,
,,,,,40550,2021-04-22_16h30.36.599,judgeSpeechMusic_20210407_logNormShiftAmp,2020.1.2,MacIntel,60,,,,,,,,,,,,,,,,,,,,,,,,,,2,5.962695,,0,1,8,158,125,1,stimuli/stim_20210407_power2amp/equal_lnn_AM5.4Hz_66.m4a,,,
,,,,,40550,2021-04-22_16h30.36.599,judgeSpeechMusic_20210407_logNormShiftAmp,2020.1.2,MacIntel,60,,,,,,,,,,,,,,,,,,,,,,,,,,1,6.21022,,0,1,9,159,101,1,stimuli/stim_20210407_power2amp/equal_lnn_AM4.2Hz_23.m4a,,,
,,,,,40550,2021-04-22_16h30.36.599,judgeSpeechMusic_20210407_logNormShiftAmp,2020.1.2,MacIntel,60,,,,,,,,,,,,,,,,,,,,,,,,,,1,6.42851,,0,1,10,160,81,1,stimuli/stim_20210407_power2amp/equal_lnn_AM3.6Hz_80.m4a,,,
,,,,,40550,2021-04-22_16h30.36.599,judgeSpeechMusic_20210407_logNormShiftAmp,2020.1.2,MacIntel,60,,,,,,,,,,,,,,,,,,,,,,,,,,2,7.737245,,0,1,11,161,7,1,stimuli/stim_20210407_power2amp/equal_lnn_AM0.6Hz_42.m4a,,,
,,,,,40550,2021-04-22_16h30.36.599,judgeSpeechMusic_20210407_logNormShiftAmp,2020.1.2,MacIntel,60,,,,,,,,,,,,,,,,,,,,,,,,,,1,6.713415,,0,1,12,162,109,1,stimuli/stim_20210407_power2amp/equal_lnn_AM4.8Hz_13.m4a,,,
,,,,,40550,2021-04-22_16h30.36.599,judgeSpeechMusic_20210407_logNormShiftAmp,2020.1.2,MacIntel,60,,,,,,,,,,,,,,,,,,,,,,,,,,2,7.011145,,0,1,13,163,10,1,stimuli/stim_20210407_power2amp/equal_lnn_AM0.6Hz_20.m4a,,,
,,,,,40550,2021-04-22_16h30.36.599,judgeSpeechMusic_20210407_logNormShiftAmp,2020.1.2,MacIntel,60,,,,,,,,,,,,,,,,,,,,,,,,,,1,6.81428,,0,1,14,164,0,1,stimuli/stim_20210407_power2amp/equal_lnn_AM0.6Hz_89.m4a,,,
,,,,,40550,2021-04-22_16h30.36.599,judgeSpeechMusic_20210407_logNormShiftAmp,2020.1.2,MacIntel,60,,,,,,,,,,,,,,,,,,,,,,,,,,1,8.82646,2,1,1,15,165,106,1,stimuli/stim_20210407_power2amp/equal_lnn_AM4.8Hz_29.m4a,0.9254,,
,,,,,40550,2021-04-22_16h30.36.599,judgeSpeechMusic_20210407_logNormShiftAmp,2020.1.2,MacIntel,60,,,,,,,,,,,,,,,,,,,,,,,,,,2,5.85693,,0,1,16,166,132,1,stimuli/stim_20210407_power2amp/equal_lnn_AM5.4Hz_98.m4a,,,
,,,,,40550,2021-04-22_16h30.36.599,judgeSpeechMusic_20210407_logNormShiftAmp,2020.1.2,MacIntel,60,,,,,,,,,,,,,,,,,,,,,,,,,,1,6.979165,,0,1,17,167,62,1,stimuli/stim_20210407_power2amp/equal_lnn_AM3Hz_96.m4a,,,
,,,,,40550,2021-04-22_16h30.36.599,judgeSpeechMusic_20210407_logNormShiftAmp,2020.1.2,MacIntel,60,,,,,,,,,,,,,,,,,,,,,,,,,,1,6.208865,,0,1,18,168,77,1,stimuli/stim_20210407_power2amp/equal_lnn_AM3.6Hz_58.m4a,,,
,,,,,40550,2021-04-22_16h30.36.599,judgeSpeechMusic_20210407_logNormShiftAmp,2020.1.2,MacIntel,60,,,,,,,,,,,,,,,,,,,,,,,,,,2,6.24516,,0,1,19,169,58,1,stimuli/stim_20210407_power2amp/equal_lnn_AM2.4Hz_35.m4a,,,
,,,,,40550,2021-04-22_16h30.36.599,judgeSpeechMusic_20210407_logNormShiftAmp,2020.1.2,MacIntel,60,,,,,,,,,,,,,,,,,,,,,,,,,,2,7.406325,,0,1,20,170,114,1,stimuli/stim_20210407_power2amp/equal_lnn_AM4.8Hz_70.m4a,,,
,,,,,40550,2021-04-22_16h30.36.599,judgeSpeechMusic_20210407_logNormShiftAmp,2020.1.2,MacIntel,60,,,,,,,,,,,,,,,,,,,,,,,,,,1,5.66187,,0,1,21,171,100,1,stimuli/stim_20210407_power2amp/equal_lnn_AM4.2Hz_93.m4a,,,
,,,,,40550,2021-04-22_16h30.36.599,judgeSpeechMusic_20210407_logNormShiftAmp,2020.1.2,MacIntel,60,,,,,,,,,,,,,,,,,,,,,,,,,,1,7.53934,,0,1,22,172,52,1,stimuli/stim_20210407_power2amp/equal_lnn_AM2.4Hz_63.m4a,,,
,,,,,40550,2021-04-22_16h30.36.599,judgeSpeechMusic_20210407_logNormShiftAmp,2020.1.2,MacIntel,60,,,,,,,,,,,,,,,,,,,,,,,,,,2,6.511865,,0,1,23,173,26,1,stimuli/stim_20210407_power2amp/equal_lnn_AM1.2Hz_27.m4a,,,
,,,,,40550,2021-04-22_16h30.36.599,judgeSpeechMusic_20210407_logNormShiftAmp,2020.1.2,MacIntel,60,,,,,,,,,,,,,,,,,,,,,,,,,,1,6.922995,,0,1,24,174,63,1,stimuli/stim_20210407_power2amp/equal_lnn_AM3Hz_46.m4a,,,
,,,,,40550,2021-04-22_16h30.36.599,judgeSpeechMusic_20210407_logNormShiftAmp,2020.1.2,MacIntel,60,,,,,,,,,,,,,,,,,,,,,,,,,,2,6.328285,,0,1,25,175,103,1,stimuli/stim_20210407_power2amp/equal_lnn_AM4.2Hz_22.m4a,,,
,,,,,40550,2021-04-22_16h30.36.599,judgeSpeechMusic_20210407_logNormShiftAmp,2020.1.2,MacIntel,60,,,,,,,,,,,,,,,,,,,,,,,,,,1,6.461895,,0,1,26,176,59,1,stimuli/stim_20210407_power2amp/equal_lnn_AM2.4Hz_26.m4a,,,
,,,,,40550,2021-04-22_16h30.36.599,judgeSpeechMusic_20210407_logNormShiftAmp,2020.1.2,MacIntel,60,,,,,,,,,,,,,,,,,,,,,,,,,,2,6.44432,,0,1,27,177,120,1,stimuli/stim_20210407_power2amp/equal_lnn_AM5.4Hz_63.m4a,,,
,,,,,40550,2021-04-22_16h30.36.599,judgeSpeechMusic_20210407_logNormShiftAmp,2020.1.2,MacIntel,60,,,,,,,,,,,,,,,,,,,,,,,,,,1,6.603285,,0,1,28,178,80,1,stimuli/stim_20210407_power2amp/equal_lnn_AM3.6Hz_76.m4a,,,
,,,,,40550,2021-04-22_16h30.36.599,judgeSpeechMusic_20210407_logNormShiftAmp,2020.1.2,MacIntel,60,,,,,,,,,,,,,,,,,,,,,,,,,,1,6.46128,,0,1,29,179,146,1,stimuli/stim_20210407_power2amp/equal_lnn_AM6Hz_76.m4a,,,
,,,,,40550,2021-04-22_16h30.36.599,judgeSpeechMusic_20210407_logNormShiftAmp,2020.1.2,MacIntel,60,,,,,,,,,,,,,,,,,,,,,,,,,,2,6.194205,,0,1,30,180,64,1,stimuli/stim_20210407_power2amp/equal_lnn_AM3Hz_1.m4a,,,
,,,,,40550,2021-04-22_16h30.36.599,judgeSpeechMusic_20210407_logNormShiftAmp,2020.1.2,MacIntel,60,,,,,,,,,,,,,,,,,,,,,,,,,,2,8.041395,,0,1,31,181,82,1,stimuli/stim_20210407_power2amp/equal_lnn_AM3.6Hz_78.m4a,,,
,,,,,40550,2021-04-22_16h30.36.599,judgeSpeechMusic_20210407_logNormShiftAmp,2020.1.2,MacIntel,60,,,,,,,,,,,,,,,,,,,,,,,,,,1,8.77783,,0,1,32,182,12,1,stimuli/stim_20210407_power2amp/equal_lnn_AM0.6Hz_97.m4a,,,
,,,,,40550,2021-04-22_16h30.36.599,judgeSpeechMusic_20210407_logNormShiftAmp,2020.1.2,MacIntel,60,,,,,,,,,,,,,,,,,,,,,,,,,,2,8.41111,,0,1,33,183,133,1,stimuli/stim_20210407_power2amp/equal_lnn_AM5.4Hz_92.m4a,,,
,,,,,40550,2021-04-22_16h30.36.599,judgeSpeechMusic_20210407_logNormShiftAmp,2020.1.2,MacIntel,60,,,,,,,,,,,,,,,,,,,,,,,,,,2,8.804845,,0,1,34,184,47,1,stimuli/stim_20210407_power2amp/equal_lnn_AM2.4Hz_84.m4a,,,
,,,,,40550,2021-04-22_16h30.36.599,judgeSpeechMusic_20210407_logNormShiftAmp,2020.1.2,MacIntel,60,,,,,,,,,,,,,,,,,,,,,,,,,,1,8.390625,2,1,1,35,185,130,1,stimuli/stim_20210407_power2amp/equal_lnn_AM5.4Hz_46.m4a,0.94629,,
,,,,,40550,2021-04-22_16h30.36.599,judgeSpeechMusic_20210407_logNormShiftAmp,2020.1.2,MacIntel,60,,,,,,,,,,,,,,,,,,,,,,,,,,2,9.527455,,0,1,36,186,142,1,stimuli/stim_20210407_power2amp/equal_lnn_AM6Hz_19.m4a,,,
,,,,,40550,2021-04-22_16h30.36.599,judgeSpeechMusic_20210407_logNormShiftAmp,2020.1.2,MacIntel,60,,,,,,,,,,,,,,,,,,,,,,,,,,1,8.42358,,0,1,37,187,97,1,stimuli/stim_20210407_power2amp/equal_lnn_AM4.2Hz_43.m4a,,,
,,,,,40550,2021-04-22_16h30.36.599,judgeSpeechMusic_20210407_logNormShiftAmp,2020.1.2,MacIntel,60,,,,,,,,,,,,,,,,,,,,,,,,,,1,6.10955,,0,1,38,188,102,1,stimuli/stim_20210407_power2amp/equal_lnn_AM4.2Hz_5.m4a,,,
,,,,,40550,2021-04-22_16h30.36.599,judgeSpeechMusic_20210407_logNormShiftAmp,2020.1.2,MacIntel,60,,,,,,,,,,,,,,,,,,,,,,,,,,2,7.52795,,0,1,39,189,86,1,stimuli/stim_20210407_power2amp/equal_lnn_AM3.6Hz_2.m4a,,,
,,,,,40550,2021-04-22_16h30.36.599,judgeSpeechMusic_20210407_logNormShiftAmp,2020.1.2,MacIntel,60,,,,,,,,,,,,,,,,,,,,,,,,,,1,6.491745,,0,1,40,190,71,1,stimuli/stim_20210407_power2amp/equal_lnn_AM3Hz_38.m4a,,,
,,,,,40550,2021-04-22_16h30.36.599,judgeSpeechMusic_20210407_logNormShiftAmp,2020.1.2,MacIntel,60,,,,,,,,,,,,,,,,,,,,,,,,,,2,5.64523,,0,1,41,191,144,1,stimuli/stim_20210407_power2amp/equal_lnn_AM6Hz_73.m4a,,,
,,,,,40550,2021-04-22_16h30.36.599,judgeSpeechMusic_20210407_logNormShiftAmp,2020.1.2,MacIntel,60,,,,,,,,,,,,,,,,,,,,,,,,,,1,6.328515,,0,1,42,192,19,1,stimuli/stim_20210407_power2amp/equal_lnn_AM1.2Hz_4.m4a,,,
,,,,,40550,2021-04-22_16h30.36.599,judgeSpeechMusic_20210407_logNormShiftAmp,2020.1.2,MacIntel,60,,,,,,,,,,,,,,,,,,,,,,,,,,1,6.94472,,0,1,43,193,54,1,stimuli/stim_20210407_power2amp/equal_lnn_AM2.4Hz_92.m4a,,,
,,,,,40550,2021-04-22_16h30.36.599,judgeSpeechMusic_20210407_logNormShiftAmp,2020.1.2,MacIntel,60,,,,,,,,,,,,,,,,,,,,,,,,,,1,5.66979,,0,1,44,194,30,1,stimuli/stim_20210407_power2amp/equal_lnn_AM1.8Hz_90.m4a,,,
,,,,,40550,2021-04-22_16h30.36.599,judgeSpeechMusic_20210407_logNormShiftAmp,2020.1.2,MacIntel,60,,,,,,,,,,,,,,,,,,,,,,,,,,2,5.59553,,0,1,45,195,39,1,stimuli/stim_20210407_power2amp/equal_lnn_AM1.8Hz_19.m4a,,,
,,,,,40550,2021-04-22_16h30.36.599,judgeSpeechMusic_20210407_logNormShiftAmp,2020.1.2,MacIntel,60,,,,,,,,,,,,,,,,,,,,,,,,,,1,5.89406,,0,1,46,196,11,1,stimuli/stim_20210407_power2amp/equal_lnn_AM0.6Hz_60.m4a,,,
,,,,,40550,2021-04-22_16h30.36.599,judgeSpeechMusic_20210407_logNormShiftAmp,2020.1.2,MacIntel,60,,,,,,,,,,,,,,,,,,,,,,,,,,2,5.6603,,0,1,47,197,113,1,stimuli/stim_20210407_power2amp/equal_lnn_AM4.8Hz_8.m4a,,,
,,,,,40550,2021-04-22_16h30.36.599,judgeSpeechMusic_20210407_logNormShiftAmp,2020.1.2,MacIntel,60,,,,,,,,,,,,,,,,,,,,,,,,,,1,6.11102,,0,1,48,198,41,1,stimuli/stim_20210407_power2amp/equal_lnn_AM1.8Hz_46.m4a,,,
,,,,,40550,2021-04-22_16h30.36.599,judgeSpeechMusic_20210407_logNormShiftAmp,2020.1.2,MacIntel,60,,,,,,,,,,,,,,,,,,,,,,,,,,2,6.32324,,0,1,49,199,78,1,stimuli/stim_20210407_power2amp/equal_lnn_AM3.6Hz_59.m4a,,,
,,,,,40550,2021-04-22_16h30.36.599,judgeSpeechMusic_20210407_logNormShiftAmp,2020.1.2,MacIntel,60,,,,,,,,,,,,,,,,,,,,,,,,,,1,7.32666,,0,1,50,200,6,1,stimuli/stim_20210407_power2amp/equal_lnn_AM0.6Hz_47.m4a,,,
,,,,,40550,2021-04-22_16h30.36.599,judgeSpeechMusic_20210407_logNormShiftAmp,2020.1.2,MacIntel,60,,,,,,,,,,,,,,,,,,,,,,,,,,2,6.62883,,0,1,51,201,127,1,stimuli/stim_20210407_power2amp/equal_lnn_AM5.4Hz_35.m4a,,,
,,,,,40550,2021-04-22_16h30.36.599,judgeSpeechMusic_20210407_logNormShiftAmp,2020.1.2,MacIntel,60,,,,,,,,,,,,,,,,,,,,,,,,,,2,6.32807,,0,1,52,202,98,1,stimuli/stim_20210407_power2amp/equal_lnn_AM4.2Hz_86.m4a,,,
,,,,,40550,2021-04-22_16h30.36.599,judgeSpeechMusic_20210407_logNormShiftAmp,2020.1.2,MacIntel,60,,,,,,,,,,,,,,,,,,,,,,,,,,2,5.960855,,0,1,53,203,72,1,stimuli/stim_20210407_power2amp/equal_lnn_AM3Hz_22.m4a,,,
,,,,,40550,2021-04-22_16h30.36.599,judgeSpeechMusic_20210407_logNormShiftAmp,2020.1.2,MacIntel,60,,,,,,,,,,,,,,,,,,,,,,,,,,1,6.46206,,0,1,54,204,118,1,stimuli/stim_20210407_power2amp/equal_lnn_AM4.8Hz_28.m4a,,,
,,,,,40550,2021-04-22_16h30.36.599,judgeSpeechMusic_20210407_logNormShiftAmp,2020.1.2,MacIntel,60,,,,,,,,,,,,,,,,,,,,,,,,,,2,13.096145,,0,1,55,205,57,1,stimuli/stim_20210407_power2amp/equal_lnn_AM2.4Hz_90.m4a,,,
,,,,,40550,2021-04-22_16h30.36.599,judgeSpeechMusic_20210407_logNormShiftAmp,2020.1.2,MacIntel,60,,,,,,,,,,,,,,,,,,,,,,,,,,2,5.794205,1,1,1,56,206,122,1,stimuli/stim_20210407_power2amp/equal_lnn_AM5.4Hz_76.m4a,1.59553,,
,,,,,40550,2021-04-22_16h30.36.599,judgeSpeechMusic_20210407_logNormShiftAmp,2020.1.2,MacIntel,60,,,,,,,,,,,,,,,,,,,,,,,,,,1,7.176475,,0,1,57,207,110,1,stimuli/stim_20210407_power2amp/equal_lnn_AM4.8Hz_65.m4a,,,
,,,,,40550,2021-04-22_16h30.36.599,judgeSpeechMusic_20210407_logNormShiftAmp,2020.1.2,MacIntel,60,,,,,,,,,,,,,,,,,,,,,,,,,,2,6.47846,,0,1,58,208,112,1,stimuli/stim_20210407_power2amp/equal_lnn_AM4.8Hz_76.m4a,,,
,,,,,40550,2021-04-22_16h30.36.599,judgeSpeechMusic_20210407_logNormShiftAmp,2020.1.2,MacIntel,60,,,,,,,,,,,,,,,,,,,,,,,,,,2,14.946195,,0,1,59,209,91,1,stimuli/stim_20210407_power2amp/equal_lnn_AM4.2Hz_34.m4a,,,
,,,,,40550,2021-04-22_16h30.36.599,judgeSpeechMusic_20210407_logNormShiftAmp,2020.1.2,MacIntel,60,,,,,,,,,,,,,,,,,,,,,,,,,,2,7.00955,,0,1,60,210,108,1,stimuli/stim_20210407_power2amp/equal_lnn_AM4.8Hz_15.m4a,,,
,,,,,40550,2021-04-22_16h30.36.599,judgeSpeechMusic_20210407_logNormShiftAmp,2020.1.2,MacIntel,60,,,,,,,,,,,,,,,,,,,,,,,,,,2,10.37786,,0,1,61,211,70,1,stimuli/stim_20210407_power2amp/equal_lnn_AM3Hz_51.m4a,,,
,,,,,40550,2021-04-22_16h30.36.599,judgeSpeechMusic_20210407_logNormShiftAmp,2020.1.2,MacIntel,60,,,,,,,,,,,,,,,,,,,,,,,,,,1,18.561215,,0,1,62,212,137,1,stimuli/stim_20210407_power2amp/equal_lnn_AM6Hz_58.m4a,,,
,,,,,40550,2021-04-22_16h30.36.599,judgeSpeechMusic_20210407_logNormShiftAmp,2020.1.2,MacIntel,60,,,,,,,,,,,,,,,,,,,,,,,,,,1,586.779545,,0,1,63,213,111,1,stimuli/stim_20210407_power2amp/equal_lnn_AM4.8Hz_17.m4a,,,
,,,,,40550,2021-04-22_16h30.36.599,judgeSpeechMusic_20210407_logNormShiftAmp,2020.1.2,MacIntel,60,,,,,,,,,,,,,,,,,,,,,,,,,,2,6.529365,,0,1,64,214,139,1,stimuli/stim_20210407_power2amp/equal_lnn_AM6Hz_72.m4a,,,
,,,,,40550,2021-04-22_16h30.36.599,judgeSpeechMusic_20210407_logNormShiftAmp,2020.1.2,MacIntel,60,,,,,,,,,,,,,,,,,,,,,,,,,,1,7.361515,,0,1,65,215,55,1,stimuli/stim_20210407_power2amp/equal_lnn_AM2.4Hz_34.m4a,,,
,,,,,40550,2021-04-22_16h30.36.599,judgeSpeechMusic_20210407_logNormShiftAmp,2020.1.2,MacIntel,60,,,,,,,,,,,,,,,,,,,,,,,,,,1,5.794645,,0,1,66,216,36,1,stimuli/stim_20210407_power2amp/equal_lnn_AM1.8Hz_100.m4a,,,
,,,,,40550,2021-04-22_16h30.36.599,judgeSpeechMusic_20210407_logNormShiftAmp,2020.1.2,MacIntel,60,,,,,,,,,,,,,,,,,,,,,,,,,,1,8.41954,,0,1,67,217,29,1,stimuli/stim_20210407_power2amp/equal_lnn_AM1.2Hz_90.m4a,,,
,,,,,40550,2021-04-22_16h30.36.599,judgeSpeechMusic_20210407_logNormShiftAmp,2020.1.2,MacIntel,60,,,,,,,,,,,,,,,,,,,,,,,,,,1,5.86129,,0,1,68,218,16,1,stimuli/stim_20210407_power2amp/equal_lnn_AM1.2Hz_86.m4a,,,
,,,,,40550,2021-04-22_16h30.36.599,judgeSpeechMusic_20210407_logNormShiftAmp,2020.1.2,MacIntel,60,,,,,,,,,,,,,,,,,,,,,,,,,,2,5.96385,,0,1,69,219,123,1,stimuli/stim_20210407_power2amp/equal_lnn_AM5.4Hz_42.m4a,,,
,,,,,40550,2021-04-22_16h30.36.599,judgeSpeechMusic_20210407_logNormShiftAmp,2020.1.2,MacIntel,60,,,,,,,,,,,,,,,,,,,,,,,,,,2,6.095235,,0,1,70,220,50,1,stimuli/stim_20210407_power2amp/equal_lnn_AM2.4Hz_24.m4a,,,
,,,,,40550,2021-04-22_16h30.36.599,judgeSpeechMusic_20210407_logNormShiftAmp,2020.1.2,MacIntel,60,,,,,,,,,,,,,,,,,,,,,,,,,,2,5.84224,,0,1,71,221,105,1,stimuli/stim_20210407_power2amp/equal_lnn_AM4.8Hz_87.m4a,,,
,,,,,40550,2021-04-22_16h30.36.599,judgeSpeechMusic_20210407_logNormShiftAmp,2020.1.2,MacIntel,60,,,,,,,,,,,,,,,,,,,,,,,,,,1,5.92753,,0,1,72,222,14,1,stimuli/stim_20210407_power2amp/equal_lnn_AM0.6Hz_99.m4a,,,
,,,,,40550,2021-04-22_16h30.36.599,judgeSpeechMusic_20210407_logNormShiftAmp,2020.1.2,MacIntel,60,,,,,,,,,,,,,,,,,,,,,,,,,,2,6.578225,,0,1,73,223,117,1,stimuli/stim_20210407_power2amp/equal_lnn_AM4.8Hz_96.m4a,,,
,,,,,40550,2021-04-22_16h30.36.599,judgeSpeechMusic_20210407_logNormShiftAmp,2020.1.2,MacIntel,60,,,,,,,,,,,,,,,,,,,,,,,,,,1,5.98985,,0,1,74,224,44,1,stimuli/stim_20210407_power2amp/equal_lnn_AM1.8Hz_30.m4a,,,
,,,,,40550,2021-04-22_16h30.36.599,judgeSpeechMusic_20210407_logNormShiftAmp,2020.1.2,MacIntel,60,,,,,,,,,,,,,,,,,,,,,,,,,,1,6.18049,,0,1,75,225,53,1,stimuli/stim_20210407_power2amp/equal_lnn_AM2.4Hz_53.m4a,,,
,,,,,40550,2021-04-22_16h30.36.599,judgeSpeechMusic_20210407_logNormShiftAmp,2020.1.2,MacIntel,60,,,,,,,,,,,,,,,,,,,,,,,,,,1,5.64454,1,1,1,76,226,145,1,stimuli/stim_20210407_power2amp/equal_lnn_AM6Hz_24.m4a,0.41411,,
,,,,,40550,2021-04-22_16h30.36.599,judgeSpeechMusic_20210407_logNormShiftAmp,2020.1.2,MacIntel,60,,,,,,,,,,,,,,,,,,,,,,,,,,1,5.944655,,0,1,77,227,88,1,stimuli/stim_20210407_power2amp/equal_lnn_AM3.6Hz_42.m4a,,,
,,,,,40550,2021-04-22_16h30.36.599,judgeSpeechMusic_20210407_logNormShiftAmp,2020.1.2,MacIntel,60,,,,,,,,,,,,,,,,,,,,,,,,,,2,5.928805,,0,1,78,228,66,1,stimuli/stim_20210407_power2amp/equal_lnn_AM3Hz_33.m4a,,,
,,,,,40550,2021-04-22_16h30.36.599,judgeSpeechMusic_20210407_logNormShiftAmp,2020.1.2,MacIntel,60,,,,,,,,,,,,,,,,,,,,,,,,,,1,7.99571,,0,1,79,229,87,1,stimuli/stim_20210407_power2amp/equal_lnn_AM3.6Hz_30.m4a,,,
,,,,,40550,2021-04-22_16h30.36.599,judgeSpeechMusic_20210407_logNormShiftAmp,2020.1.2,MacIntel,60,,,,,,,,,,,,,,,,,,,,,,,,,,1,7.34911,,0,1,80,230,74,1,stimuli/stim_20210407_power2amp/equal_lnn_AM3Hz_71.m4a,,,
,,,,,40550,2021-04-22_16h30.36.599,judgeSpeechMusic_20210407_logNormShiftAmp,2020.1.2,MacIntel,60,,,,,,,,,,,,,,,,,,,,,,,,,,2,7.92465,,0,1,81,231,121,1,stimuli/stim_20210407_power2amp/equal_lnn_AM5.4Hz_62.m4a,,,
,,,,,40550,2021-04-22_16h30.36.599,judgeSpeechMusic_20210407_logNormShiftAmp,2020.1.2,MacIntel,60,,,,,,,,,,,,,,,,,,,,,,,,,,2,9.36211,,0,1,82,232,85,1,stimuli/stim_20210407_power2amp/equal_lnn_AM3.6Hz_6.m4a,,,
,,,,,40550,2021-04-22_16h30.36.599,judgeSpeechMusic_20210407_logNormShiftAmp,2020.1.2,MacIntel,60,,,,,,,,,,,,,,,,,,,,,,,,,,1,6.579705,,0,1,83,233,40,1,stimuli/stim_20210407_power2amp/equal_lnn_AM1.8Hz_93.m4a,,,
,,,,,40550,2021-04-22_16h30.36.599,judgeSpeechMusic_20210407_logNormShiftAmp,2020.1.2,MacIntel,60,,,,,,,,,,,,,,,,,,,,,,,,,,1,8.62863,,0,1,84,234,28,1,stimuli/stim_20210407_power2amp/equal_lnn_AM1.2Hz_82.m4a,,,
,,,,,40550,2021-04-22_16h30.36.599,judgeSpeechMusic_20210407_logNormShiftAmp,2020.1.2,MacIntel,60,,,,,,,,,,,,,,,,,,,,,,,,,,1,5.959995,,0,1,85,235,76,1,stimuli/stim_20210407_power2amp/equal_lnn_AM3.6Hz_23.m4a,,,
,,,,,40550,2021-04-22_16h30.36.599,judgeSpeechMusic_20210407_logNormShiftAmp,2020.1.2,MacIntel,60,,,,,,,,,,,,,,,,,,,,,,,,,,2,5.627985,,0,1,86,236,23,1,stimuli/stim_20210407_power2amp/equal_lnn_AM1.2Hz_97.m4a,,,
,,,,,40550,2021-04-22_16h30.36.599,judgeSpeechMusic_20210407_logNormShiftAmp,2020.1.2,MacIntel,60,,,,,,,,,,,,,,,,,,,,,,,,,,2,6.377385,,0,1,87,237,38,1,stimuli/stim_20210407_power2amp/equal_lnn_AM1.8Hz_31.m4a,,,
,,,,,40550,2021-04-22_16h30.36.599,judgeSpeechMusic_20210407_logNormShiftAmp,2020.1.2,MacIntel,60,,,,,,,,,,,,,,,,,,,,,,,,,,1,6.978395,,0,1,88,238,4,1,stimuli/stim_20210407_power2amp/equal_lnn_AM0.6Hz_12.m4a,,,
,,,,,40550,2021-04-22_16h30.36.599,judgeSpeechMusic_20210407_logNormShiftAmp,2020.1.2,MacIntel,60,,,,,,,,,,,,,,,,,,,,,,,,,,2,6.14521,,0,1,89,239,143,1,stimuli/stim_20210407_power2amp/equal_lnn_AM6Hz_2.m4a,,,
,,,,,40550,2021-04-22_16h30.36.599,judgeSpeechMusic_20210407_logNormShiftAmp,2020.1.2,MacIntel,60,,,,,,,,,,,,,,,,,,,,,,,,,,2,8.378455,,0,1,90,240,136,1,stimuli/stim_20210407_power2amp/equal_lnn_AM6Hz_33.m4a,,,
,,,,,40550,2021-04-22_16h30.36.599,judgeSpeechMusic_20210407_logNormShiftAmp,2020.1.2,MacIntel,60,,,,,,,,,,,,,,,,,,,,,,,,,,1,6.064275,,0,1,91,241,107,1,stimuli/stim_20210407_power2amp/equal_lnn_AM4.8Hz_20.m4a,,,
,,,,,40550,2021-04-22_16h30.36.599,judgeSpeechMusic_20210407_logNormShiftAmp,2020.1.2,MacIntel,60,,,,,,,,,,,,,,,,,,,,,,,,,,2,6.661165,,0,1,92,242,138,1,stimuli/stim_20210407_power2amp/equal_lnn_AM6Hz_26.m4a,,,
,,,,,40550,2021-04-22_16h30.36.599,judgeSpeechMusic_20210407_logNormShiftAmp,2020.1.2,MacIntel,60,,,,,,,,,,,,,,,,,,,,,,,,,,1,6.2445,,0,1,93,243,32,1,stimuli/stim_20210407_power2amp/equal_lnn_AM1.8Hz_78.m4a,,,
,,,,,40550,2021-04-22_16h30.36.599,judgeSpeechMusic_20210407_logNormShiftAmp,2020.1.2,MacIntel,60,,,,,,,,,,,,,,,,,,,,,,,,,,2,8.38912,,0,1,94,244,83,1,stimuli/stim_20210407_power2amp/equal_lnn_AM3.6Hz_71.m4a,,,
,,,,,40550,2021-04-22_16h30.36.599,judgeSpeechMusic_20210407_logNormShiftAmp,2020.1.2,MacIntel,60,,,,,,,,,,,,,,,,,,,,,,,,,,1,6.44599,,0,1,95,245,94,1,stimuli/stim_20210407_power2amp/equal_lnn_AM4.2Hz_94.m4a,,,
,,,,,40550,2021-04-22_16h30.36.599,judgeSpeechMusic_20210407_logNormShiftAmp,2020.1.2,MacIntel,60,,,,,,,,,,,,,,,,,,,,,,,,,,2,7.393925,,0,1,96,246,140,1,stimuli/stim_20210407_power2amp/equal_lnn_AM6Hz_54.m4a,,,
,,,,,40550,2021-04-22_16h30.36.599,judgeSpeechMusic_20210407_logNormShiftAmp,2020.1.2,MacIntel,60,,,,,,,,,,,,,,,,,,,,,,,,,,2,6.33957,3,1,1,97,247,13,1,stimuli/stim_20210407_power2amp/equal_lnn_AM0.6Hz_27.m4a,2.825875,,
,,,,,40550,2021-04-22_16h30.36.599,judgeSpeechMusic_20210407_logNormShiftAmp,2020.1.2,MacIntel,60,,,,,,,,,,,,,,,,,,,,,,,,,,2,7.37026,,0,1,98,248,8,1,stimuli/stim_20210407_power2amp/equal_lnn_AM0.6Hz_18.m4a,,,
,,,,,40550,2021-04-22_16h30.36.599,judgeSpeechMusic_20210407_logNormShiftAmp,2020.1.2,MacIntel,60,,,,,,,,,,,,,,,,,,,,,,,,,,2,6.77805,,0,1,99,249,27,1,stimuli/stim_20210407_power2amp/equal_lnn_AM1.2Hz_59.m4a,,,
,,,,,40550,2021-04-22_16h30.36.599,judgeSpeechMusic_20210407_logNormShiftAmp,2020.1.2,MacIntel,60,,,,,,,,,,,,,,,,,,,,,,,,,,2,7.31193,,0,1,100,250,95,1,stimuli/stim_20210407_power2amp/equal_lnn_AM4.2Hz_59.m4a,,,
,,,,,40550,2021-04-22_16h30.36.599,judgeSpeechMusic_20210407_logNormShiftAmp,2020.1.2,MacIntel,60,,,,,,,,,,,,,,,,,,,,,,,,,,1,6.54372,,0,1,101,251,49,1,stimuli/stim_20210407_power2amp/equal_lnn_AM2.4Hz_65.m4a,,,
,,,,,40550,2021-04-22_16h30.36.599,judgeSpeechMusic_20210407_logNormShiftAmp,2020.1.2,MacIntel,60,,,,,,,,,,,,,,,,,,,,,,,,,,1,7.6259,,0,1,102,252,119,1,stimuli/stim_20210407_power2amp/equal_lnn_AM4.8Hz_80.m4a,,,
,,,,,40550,2021-04-22_16h30.36.599,judgeSpeechMusic_20210407_logNormShiftAmp,2020.1.2,MacIntel,60,,,,,,,,,,,,,,,,,,,,,,,,,,1,6.77769,,0,1,103,253,2,1,stimuli/stim_20210407_power2amp/equal_lnn_AM0.6Hz_61.m4a,,,
,,,,,40550,2021-04-22_16h30.36.599,judgeSpeechMusic_20210407_logNormShiftAmp,2020.1.2,MacIntel,60,,,,,,,,,,,,,,,,,,,,,,,,,,2,6.640445,,0,1,104,254,75,1,stimuli/stim_20210407_power2amp/equal_lnn_AM3.6Hz_55.m4a,,,
,,,,,40550,2021-04-22_16h30.36.599,judgeSpeechMusic_20210407_logNormShiftAmp,2020.1.2,MacIntel,60,,,,,,,,,,,,,,,,,,,,,,,,,,2,7.882145,,0,1,105,255,51,1,stimuli/stim_20210407_power2amp/equal_lnn_AM2.4Hz_82.m4a,,,
,,,,,40550,2021-04-22_16h30.36.599,judgeSpeechMusic_20210407_logNormShiftAmp,2020.1.2,MacIntel,60,,,,,,,,,,,,,,,,,,,,,,,,,,2,6.33836,,0,1,106,256,116,1,stimuli/stim_20210407_power2amp/equal_lnn_AM4.8Hz_90.m4a,,,
,,,,,40550,2021-04-22_16h30.36.599,judgeSpeechMusic_20210407_logNormShiftAmp,2020.1.2,MacIntel,60,,,,,,,,,,,,,,,,,,,,,,,,,,2,5.943575,,0,1,107,257,20,1,stimuli/stim_20210407_power2amp/equal_lnn_AM1.2Hz_54.m4a,,,
,,,,,40550,2021-04-22_16h30.36.599,judgeSpeechMusic_20210407_logNormShiftAmp,2020.1.2,MacIntel,60,,,,,,,,,,,,,,,,,,,,,,,,,,1,6.128255,,0,1,108,258,131,1,stimuli/stim_20210407_power2amp/equal_lnn_AM5.4Hz_52.m4a,,,
,,,,,40550,2021-04-22_16h30.36.599,judgeSpeechMusic_20210407_logNormShiftAmp,2020.1.2,MacIntel,60,,,,,,,,,,,,,,,,,,,,,,,,,,2,6.363125,,0,1,109,259,21,1,stimuli/stim_20210407_power2amp/equal_lnn_AM1.2Hz_18.m4a,,,
,,,,,40550,2021-04-22_16h30.36.599,judgeSpeechMusic_20210407_logNormShiftAmp,2020.1.2,MacIntel,60,,,,,,,,,,,,,,,,,,,,,,,,,,1,7.345275,,0,1,110,260,5,1,stimuli/stim_20210407_power2amp/equal_lnn_AM0.6Hz_56.m4a,,,
,,,,,40550,2021-04-22_16h30.36.599,judgeSpeechMusic_20210407_logNormShiftAmp,2020.1.2,MacIntel,60,,,,,,,,,,,,,,,,,,,,,,,,,,2,6.19436,,0,1,111,261,18,1,stimuli/stim_20210407_power2amp/equal_lnn_AM1.2Hz_81.m4a,,,
,,,,,40550,2021-04-22_16h30.36.599,judgeSpeechMusic_20210407_logNormShiftAmp,2020.1.2,MacIntel,60,,,,,,,,,,,,,,,,,,,,,,,,,,1,6.22699,,0,1,112,262,60,1,stimuli/stim_20210407_power2amp/equal_lnn_AM3Hz_29.m4a,,,
,,,,,40550,2021-04-22_16h30.36.599,judgeSpeechMusic_20210407_logNormShiftAmp,2020.1.2,MacIntel,60,,,,,,,,,,,,,,,,,,,,,,,,,,1,6.545755,,0,1,113,263,3,1,stimuli/stim_20210407_power2amp/equal_lnn_AM0.6Hz_54.m4a,,,
,,,,,40550,2021-04-22_16h30.36.599,judgeSpeechMusic_20210407_logNormShiftAmp,2020.1.2,MacIntel,60,,,,,,,,,,,,,,,,,,,,,,,,,,2,9.194145,,0,1,114,264,56,1,stimuli/stim_20210407_power2amp/equal_lnn_AM2.4Hz_25.m4a,,,
,,,,,40550,2021-04-22_16h30.36.599,judgeSpeechMusic_20210407_logNormShiftAmp,2020.1.2,MacIntel,60,,,,,,,,,,,,,,,,,,,,,,,,,,1,7.24667,,0,1,115,265,73,1,stimuli/stim_20210407_power2amp/equal_lnn_AM3Hz_63.m4a,,,
,,,,,40550,2021-04-22_16h30.36.599,judgeSpeechMusic_20210407_logNormShiftAmp,2020.1.2,MacIntel,60,,,,,,,,,,,,,,,,,,,,,,,,,,2,6.51079,,0,1,116,266,124,1,stimuli/stim_20210407_power2amp/equal_lnn_AM5.4Hz_41.m4a,,,
,,,,,40550,2021-04-22_16h30.36.599,judgeSpeechMusic_20210407_logNormShiftAmp,2020.1.2,MacIntel,60,,,,,,,,,,,,,,,,,,,,,,,,,,1,5.928735,2,1,1,117,267,31,1,stimuli/stim_20210407_power2amp/equal_lnn_AM1.8Hz_57.m4a,0.765505,,
,,,,,40550,2021-04-22_16h30.36.599,judgeSpeechMusic_20210407_logNormShiftAmp,2020.1.2,MacIntel,60,,,,,,,,,,,,,,,,,,,,,,,,,,2,6.742945,,0,1,118,268,42,1,stimuli/stim_20210407_power2amp/equal_lnn_AM1.8Hz_55.m4a,,,
,,,,,40550,2021-04-22_16h30.36.599,judgeSpeechMusic_20210407_logNormShiftAmp,2020.1.2,MacIntel,60,,,,,,,,,,,,,,,,,,,,,,,,,,1,7.111915,,0,1,119,269,48,1,stimuli/stim_20210407_power2amp/equal_lnn_AM2.4Hz_69.m4a,,,
,,,,,40550,2021-04-22_16h30.36.599,judgeSpeechMusic_20210407_logNormShiftAmp,2020.1.2,MacIntel,60,,,,,,,,,,,,,,,,,,,,,,,,,,1,9.776855,,0,1,120,270,9,1,stimuli/stim_20210407_power2amp/equal_lnn_AM0.6Hz_94.m4a,,,
,,,,,40550,2021-04-22_16h30.36.599,judgeSpeechMusic_20210407_logNormShiftAmp,2020.1.2,MacIntel,60,,,,,,,,,,,,,,,,,,,,,,,,,,2,5.910495,,0,1,121,271,126,1,stimuli/stim_20210407_power2amp/equal_lnn_AM5.4Hz_33.m4a,,,
,,,,,40550,2021-04-22_16h30.36.599,judgeSpeechMusic_20210407_logNormShiftAmp,2020.1.2,MacIntel,60,,,,,,,,,,,,,,,,,,,,,,,,,,1,5.64364,,0,1,122,272,79,1,stimuli/stim_20210407_power2amp/equal_lnn_AM3.6Hz_40.m4a,,,
,,,,,40550,2021-04-22_16h30.36.599,judgeSpeechMusic_20210407_logNormShiftAmp,2020.1.2,MacIntel,60,,,,,,,,,,,,,,,,,,,,,,,,,,1,5.47951,,0,1,123,273,43,1,stimuli/stim_20210407_power2amp/equal_lnn_AM1.8Hz_73.m4a,,,
,,,,,40550,2021-04-22_16h30.36.599,judgeSpeechMusic_20210407_logNormShiftAmp,2020.1.2,MacIntel,60,,,,,,,,,,,,,,,,,,,,,,,,,,2,5.64497,,0,1,124,274,135,1,stimuli/stim_20210407_power2amp/equal_lnn_AM6Hz_71.m4a,,,
,,,,,40550,2021-04-22_16h30.36.599,judgeSpeechMusic_20210407_logNormShiftAmp,2020.1.2,MacIntel,60,,,,,,,,,,,,,,,,,,,,,,,,,,1,5.94452,,0,1,125,275,89,1,stimuli/stim_20210407_power2amp/equal_lnn_AM3.6Hz_87.m4a,,,
,,,,,40550,2021-04-22_16h30.36.599,judgeSpeechMusic_20210407_logNormShiftAmp,2020.1.2,MacIntel,60,,,,,,,,,,,,,,,,,,,,,,,,,,1,5.878235,,0,1,126,276,17,1,stimuli/stim_20210407_power2amp/equal_lnn_AM1.2Hz_50.m4a,,,
,,,,,40550,2021-04-22_16h30.36.599,judgeSpeechMusic_20210407_logNormShiftAmp,2020.1.2,MacIntel,60,,,,,,,,,,,,,,,,,,,,,,,,,,2,5.84512,,0,1,127,277,149,1,stimuli/stim_20210407_power2amp/equal_lnn_AM6Hz_74.m4a,,,
,,,,,40550,2021-04-22_16h30.36.599,judgeSpeechMusic_20210407_logNormShiftAmp,2020.1.2,MacIntel,60,,,,,,,,,,,,,,,,,,,,,,,,,,1,5.64522,,0,1,128,278,67,1,stimuli/stim_20210407_power2amp/equal_lnn_AM3Hz_49.m4a,,,
,,,,,40550,2021-04-22_16h30.36.599,judgeSpeechMusic_20210407_logNormShiftAmp,2020.1.2,MacIntel,60,,,,,,,,,,,,,,,,,,,,,,,,,,2,5.77972,,0,1,129,279,25,1,stimuli/stim_20210407_power2amp/equal_lnn_AM1.2Hz_57.m4a,,,
,,,,,40550,2021-04-22_16h30.36.599,judgeSpeechMusic_20210407_logNormShiftAmp,2020.1.2,MacIntel,60,,,,,,,,,,,,,,,,,,,,,,,,,,1,6.87866,,0,1,130,280,45,1,stimuli/stim_20210407_power2amp/equal_lnn_AM2.4Hz_59.m4a,,,
,,,,,40550,2021-04-22_16h30.36.599,judgeSpeechMusic_20210407_logNormShiftAmp,2020.1.2,MacIntel,60,,,,,,,,,,,,,,,,,,,,,,,,,,2,6.844145,,0,1,131,281,65,1,stimuli/stim_20210407_power2amp/equal_lnn_AM3Hz_86.m4a,,,
,,,,,40550,2021-04-22_16h30.36.599,judgeSpeechMusic_20210407_logNormShiftAmp,2020.1.2,MacIntel,60,,,,,,,,,,,,,,,,,,,,,,,,,,1,6.04371,,0,1,132,282,92,1,stimuli/stim_20210407_power2amp/equal_lnn_AM4.2Hz_28.m4a,,,
,,,,,40550,2021-04-22_16h30.36.599,judgeSpeechMusic_20210407_logNormShiftAmp,2020.1.2,MacIntel,60,,,,,,,,,,,,,,,,,,,,,,,,,,1,6.52879,,0,1,133,283,34,1,stimuli/stim_20210407_power2amp/equal_lnn_AM1.8Hz_61.m4a,,,
,,,,,40550,2021-04-22_16h30.36.599,judgeSpeechMusic_20210407_logNormShiftAmp,2020.1.2,MacIntel,60,,,,,,,,,,,,,,,,,,,,,,,,,,2,6.027115,,0,1,134,284,1,1,stimuli/stim_20210407_power2amp/equal_lnn_AM0.6Hz_68.m4a,,,
,,,,,40550,2021-04-22_16h30.36.599,judgeSpeechMusic_20210407_logNormShiftAmp,2020.1.2,MacIntel,60,,,,,,,,,,,,,,,,,,,,,,,,,,2,6.46857,,0,1,135,285,115,1,stimuli/stim_20210407_power2amp/equal_lnn_AM4.8Hz_24.m4a,,,
,,,,,40550,2021-04-22_16h30.36.599,judgeSpeechMusic_20210407_logNormShiftAmp,2020.1.2,MacIntel,60,,,,,,,,,,,,,,,,,,,,,,,,,,2,6.12781,,0,1,136,286,134,1,stimuli/stim_20210407_power2amp/equal_lnn_AM5.4Hz_27.m4a,,,
,,,,,40550,2021-04-22_16h30.36.599,judgeSpeechMusic_20210407_logNormShiftAmp,2020.1.2,MacIntel,60,,,,,,,,,,,,,,,,,,,,,,,,,,2,8.49008,,0,1,137,287,147,1,stimuli/stim_20210407_power2amp/equal_lnn_AM6Hz_69.m4a,,,
,,,,,40550,2021-04-22_16h30.36.599,judgeSpeechMusic_20210407_logNormShiftAmp,2020.1.2,MacIntel,60,,,,,,,,,,,,,,,,,,,,,,,,,,1,6.72852,,0,1,138,288,15,1,stimuli/stim_20210407_power2amp/equal_lnn_AM1.2Hz_12.m4a,,,
,,,,,40550,2021-04-22_16h30.36.599,judgeSpeechMusic_20210407_logNormShiftAmp,2020.1.2,MacIntel,60,,,,,,,,,,,,,,,,,,,,,,,,,,2,6.044155,,0,1,139,289,61,1,stimuli/stim_20210407_power2amp/equal_lnn_AM3Hz_52.m4a,,,
,,,,,40550,2021-04-22_16h30.36.599,judgeSpeechMusic_20210407_logNormShiftAmp,2020.1.2,MacIntel,60,,,,,,,,,,,,,,,,,,,,,,,,,,1,6.098175,,0,1,140,290,46,1,stimuli/stim_20210407_power2amp/equal_lnn_AM2.4Hz_17.m4a,,,
,,,,,40550,2021-04-22_16h30.36.599,judgeSpeechMusic_20210407_logNormShiftAmp,2020.1.2,MacIntel,60,,,,,,,,,,,,,,,,,,,,,,,,,,1,6.26172,,0,1,141,291,99,1,stimuli/stim_20210407_power2amp/equal_lnn_AM4.2Hz_46.m4a,,,
,,,,,40550,2021-04-22_16h30.36.599,judgeSpeechMusic_20210407_logNormShiftAmp,2020.1.2,MacIntel,60,,,,,,,,,,,,,,,,,,,,,,,,,,1,7.665165,,0,1,142,292,69,1,stimuli/stim_20210407_power2amp/equal_lnn_AM3Hz_45.m4a,,,
,,,,,40550,2021-04-22_16h30.36.599,judgeSpeechMusic_20210407_logNormShiftAmp,2020.1.2,MacIntel,60,,,,,,,,,,,,,,,,,,,,,,,,,,2,6.674905,,0,1,143,293,148,1,stimuli/stim_20210407_power2amp/equal_lnn_AM6Hz_99.m4a,,,
,,,,,40550,2021-04-22_16h30.36.599,judgeSpeechMusic_20210407_logNormShiftAmp,2020.1.2,MacIntel,60,,,,,,,,,,,,,,,,,,,,,,,,,,2,6.66166,,0,1,144,294,129,1,stimuli/stim_20210407_power2amp/equal_lnn_AM5.4Hz_22.m4a,,,
,,,,,40550,2021-04-22_16h30.36.599,judgeSpeechMusic_20210407_logNormShiftAmp,2020.1.2,MacIntel,60,,,,,,,,,,,,,,,,,,,,,,,,,,1,7.54707,,0,1,145,295,104,1,stimuli/stim_20210407_power2amp/equal_lnn_AM4.2Hz_69.m4a,,,
,,,,,40550,2021-04-22_16h30.36.599,judgeSpeechMusic_20210407_logNormShiftAmp,2020.1.2,MacIntel,60,,,,,,,,,,,,,,,,,,,,,,,,,,1,6.59358,,0,1,146,296,84,1,stimuli/stim_20210407_power2amp/equal_lnn_AM3.6Hz_69.m4a,,,
,,,,,40550,2021-04-22_16h30.36.599,judgeSpeechMusic_20210407_logNormShiftAmp,2020.1.2,MacIntel,60,,,,,,,,,,,,,,,,,,,,,,,,,,2,5.96201,,0,1,147,297,24,1,stimuli/stim_20210407_power2amp/equal_lnn_AM1.2Hz_93.m4a,,,
,,,,,40550,2021-04-22_16h30.36.599,judgeSpeechMusic_20210407_logNormShiftAmp,2020.1.2,MacIntel,60,,,,,,,,,,,,,,,,,,,,,,,,,,2,5.84481,,0,1,148,298,37,1,stimuli/stim_20210407_power2amp/equal_lnn_AM1.8Hz_44.m4a,,,
,,,,,40550,2021-04-22_16h30.36.599,judgeSpeechMusic_20210407_logNormShiftAmp,2020.1.2,MacIntel,60,,,,,,,,,,,,,,,,,,,,,,,,,,2,5.777915,,0,1,149,299,128,1,stimuli/stim_20210407_power2amp/equal_lnn_AM5.4Hz_28.m4a,,,
,,,,,40550,2021-04-22_16h30.36.599,judgeSpeechMusic_20210407_logNormShiftAmp,2020.1.2,MacIntel,60,,,,,,,,,,,,,,,,,,,,,,,,,,,,,,,,,,,,,space,6.31628
