headphoneResponse.keys,headphoneResponse.corr,headphoneResponse.rt,headphoneTrial.thisRepN,headphoneTrial.thisTrialN,headphoneTrial.thisN,headphoneTrial.thisIndex,headphoneTrial.ran,headphone_sound1,headphone_sound2,headphone_sound3,corrAns,participant,date,expName,psychopyVersion,OS,frameRate,trainSlider.response,trainSlider.rt,beepTrainResponse.keys,beepTrainResponse.corr,trainingTrials.thisRepN,trainingTrials.thisTrialN,trainingTrials.thisN,trainingTrials.thisIndex,trainingTrials.ran,trainAudioFile,beepTrainResponse.rt,readyReal_resp.keys,readyReal_resp.rt,ratingSlider.response,ratingSlider.rt,beepResp.keys,beepResp.corr,expTrials.thisRepN,expTrials.thisTrialN,expTrials.thisN,expTrials.thisIndex,expTrials.ran,audioFile,beepResp.rt,end_resp.keys,end_resp.rt
1,1,0.76941,0,0,0,5,1,stimuli/screen_quiet.wav,stimuli/screen_origin.wav,stimuli/screen_antiphase.wav,1,40596,2021-05-10_21h52.09.014,judgeSpeechMusic_20210407_logNormShiftAmp,2020.1.2,MacIntel,60,,,,,,,,,,,,,,,,,,,,,,,,,,
2,1,0.590255,0,1,1,3,1,stimuli/screen_origin.wav,stimuli/screen_quiet.wav,stimuli/screen_antiphase.wav,2,40596,2021-05-10_21h52.09.014,judgeSpeechMusic_20210407_logNormShiftAmp,2020.1.2,MacIntel,60,,,,,,,,,,,,,,,,,,,,,,,,,,
2,0,1.78505,0,2,2,4,1,stimuli/screen_quiet.wav,stimuli/screen_antiphase.wav,stimuli/screen_origin.wav,1,40596,2021-05-10_21h52.09.014,judgeSpeechMusic_20210407_logNormShiftAmp,2020.1.2,MacIntel,60,,,,,,,,,,,,,,,,,,,,,,,,,,
3,1,0.40822,0,3,3,2,1,stimuli/screen_origin.wav,stimuli/screen_antiphase.wav,stimuli/screen_quiet.wav,3,40596,2021-05-10_21h52.09.014,judgeSpeechMusic_20210407_logNormShiftAmp,2020.1.2,MacIntel,60,,,,,,,,,,,,,,,,,,,,,,,,,,
2,1,0.324115,0,4,4,1,1,stimuli/screen_antiphase.wav,stimuli/screen_quiet.wav,stimuli/screen_origin.wav,2,40596,2021-05-10_21h52.09.014,judgeSpeechMusic_20210407_logNormShiftAmp,2020.1.2,MacIntel,60,,,,,,,,,,,,,,,,,,,,,,,,,,
3,1,0.49758,0,5,5,0,1,stimuli/screen_antiphase.wav,stimuli/screen_origin.wav,stimuli/screen_quiet.wav,3,40596,2021-05-10_21h52.09.014,judgeSpeechMusic_20210407_logNormShiftAmp,2020.1.2,MacIntel,60,,,,,,,,,,,,,,,,,,,,,,,,,,
,,,,,,,,,,,,40596,2021-05-10_21h52.09.014,judgeSpeechMusic_20210407_logNormShiftAmp,2020.1.2,MacIntel,60,2,14.379835,,0,0,0,0,0,1,stimuli/stim_20210407_power2amp/equal_lnn_AM_training1.5Hz.m4a,,,,,,,,,,,,,,,,
,,,,,,,,,,,,40596,2021-05-10_21h52.09.014,judgeSpeechMusic_20210407_logNormShiftAmp,2020.1.2,MacIntel,60,2,7.418785,,0,0,1,1,2,1,stimuli/stim_20210407_power2amp/equal_lnn_AM_training3.9Hz.m4a,,,,,,,,,,,,,,,,
,,,,,,,,,,,,40596,2021-05-10_21h52.09.014,judgeSpeechMusic_20210407_logNormShiftAmp,2020.1.2,MacIntel,60,2,6.68735,4,1,0,2,2,1,1,stimuli/stim_20210407_power2amp/equal_lnn_AM_training2.7Hz.m4a,2.107625,,,,,,,,,,,,,,,
,,,,,,,,,,,,40596,2021-05-10_21h52.09.014,judgeSpeechMusic_20210407_logNormShiftAmp,2020.1.2,MacIntel,60,2,8.289515,,0,0,3,3,3,1,stimuli/stim_20210407_power2amp/equal_lnn_AM_training5.1Hz.m4a,,,,,,,,,,,,,,,,
,,,,,,,,,,,,40596,2021-05-10_21h52.09.014,judgeSpeechMusic_20210407_logNormShiftAmp,2020.1.2,MacIntel,60,,,,,,,,,,,,space,3.961465,2,7.30818,,0,0,0,0,29,1,stimuli/stim_20210407_power2amp/equal_lnn_AM1.2Hz_32.m4a,,,
,,,,,,,,,,,,40596,2021-05-10_21h52.09.014,judgeSpeechMusic_20210407_logNormShiftAmp,2020.1.2,MacIntel,60,,,,,,,,,,,,,,2,7.16055,,0,0,1,1,126,1,stimuli/stim_20210407_power2amp/equal_lnn_AM5.4Hz_10.m4a,,,
,,,,,,,,,,,,40596,2021-05-10_21h52.09.014,judgeSpeechMusic_20210407_logNormShiftAmp,2020.1.2,MacIntel,60,,,,,,,,,,,,,,1,6.176735,,0,0,2,2,104,1,stimuli/stim_20210407_power2amp/equal_lnn_AM4.2Hz_15.m4a,,,
,,,,,,,,,,,,40596,2021-05-10_21h52.09.014,judgeSpeechMusic_20210407_logNormShiftAmp,2020.1.2,MacIntel,60,,,,,,,,,,,,,,1,6.484415,,0,0,3,3,88,1,stimuli/stim_20210407_power2amp/equal_lnn_AM3.6Hz_49.m4a,,,
,,,,,,,,,,,,40596,2021-05-10_21h52.09.014,judgeSpeechMusic_20210407_logNormShiftAmp,2020.1.2,MacIntel,60,,,,,,,,,,,,,,1,5.78311,,0,0,4,4,113,1,stimuli/stim_20210407_power2amp/equal_lnn_AM4.8Hz_21.m4a,,,
,,,,,,,,,,,,40596,2021-05-10_21h52.09.014,judgeSpeechMusic_20210407_logNormShiftAmp,2020.1.2,MacIntel,60,,,,,,,,,,,,,,2,6.053635,,0,0,5,5,116,1,stimuli/stim_20210407_power2amp/equal_lnn_AM4.8Hz_100.m4a,,,
,,,,,,,,,,,,40596,2021-05-10_21h52.09.014,judgeSpeechMusic_20210407_logNormShiftAmp,2020.1.2,MacIntel,60,,,,,,,,,,,,,,2,6.39742,,0,0,6,6,59,1,stimuli/stim_20210407_power2amp/equal_lnn_AM2.4Hz_59.m4a,,,
,,,,,,,,,,,,40596,2021-05-10_21h52.09.014,judgeSpeechMusic_20210407_logNormShiftAmp,2020.1.2,MacIntel,60,,,,,,,,,,,,,,2,7.043535,,0,0,7,7,98,1,stimuli/stim_20210407_power2amp/equal_lnn_AM4.2Hz_29.m4a,,,
,,,,,,,,,,,,40596,2021-05-10_21h52.09.014,judgeSpeechMusic_20210407_logNormShiftAmp,2020.1.2,MacIntel,60,,,,,,,,,,,,,,2,5.83536,,0,0,8,8,112,1,stimuli/stim_20210407_power2amp/equal_lnn_AM4.8Hz_99.m4a,,,
,,,,,,,,,,,,40596,2021-05-10_21h52.09.014,judgeSpeechMusic_20210407_logNormShiftAmp,2020.1.2,MacIntel,60,,,,,,,,,,,,,,1,5.531885,,0,0,9,9,133,1,stimuli/stim_20210407_power2amp/equal_lnn_AM5.4Hz_76.m4a,,,
,,,,,,,,,,,,40596,2021-05-10_21h52.09.014,judgeSpeechMusic_20210407_logNormShiftAmp,2020.1.2,MacIntel,60,,,,,,,,,,,,,,2,5.650765,,0,0,10,10,68,1,stimuli/stim_20210407_power2amp/equal_lnn_AM3Hz_37.m4a,,,
,,,,,,,,,,,,40596,2021-05-10_21h52.09.014,judgeSpeechMusic_20210407_logNormShiftAmp,2020.1.2,MacIntel,60,,,,,,,,,,,,,,2,5.80121,,0,0,11,11,74,1,stimuli/stim_20210407_power2amp/equal_lnn_AM3Hz_33.m4a,,,
,,,,,,,,,,,,40596,2021-05-10_21h52.09.014,judgeSpeechMusic_20210407_logNormShiftAmp,2020.1.2,MacIntel,60,,,,,,,,,,,,,,1,6.209545,,0,0,12,12,36,1,stimuli/stim_20210407_power2amp/equal_lnn_AM1.8Hz_77.m4a,,,
,,,,,,,,,,,,40596,2021-05-10_21h52.09.014,judgeSpeechMusic_20210407_logNormShiftAmp,2020.1.2,MacIntel,60,,,,,,,,,,,,,,2,5.62167,,0,0,13,13,90,1,stimuli/stim_20210407_power2amp/equal_lnn_AM4.2Hz_65.m4a,,,
,,,,,,,,,,,,40596,2021-05-10_21h52.09.014,judgeSpeechMusic_20210407_logNormShiftAmp,2020.1.2,MacIntel,60,,,,,,,,,,,,,,1,5.91935,,0,0,14,14,25,1,stimuli/stim_20210407_power2amp/equal_lnn_AM1.2Hz_6.m4a,,,
,,,,,,,,,,,,40596,2021-05-10_21h52.09.014,judgeSpeechMusic_20210407_logNormShiftAmp,2020.1.2,MacIntel,60,,,,,,,,,,,,,,2,5.820865,,0,0,15,15,73,1,stimuli/stim_20210407_power2amp/equal_lnn_AM3Hz_93.m4a,,,
,,,,,,,,,,,,40596,2021-05-10_21h52.09.014,judgeSpeechMusic_20210407_logNormShiftAmp,2020.1.2,MacIntel,60,,,,,,,,,,,,,,2,5.583865,,0,0,16,16,110,1,stimuli/stim_20210407_power2amp/equal_lnn_AM4.8Hz_76.m4a,,,
,,,,,,,,,,,,40596,2021-05-10_21h52.09.014,judgeSpeechMusic_20210407_logNormShiftAmp,2020.1.2,MacIntel,60,,,,,,,,,,,,,,1,5.615505,,0,0,17,17,64,1,stimuli/stim_20210407_power2amp/equal_lnn_AM3Hz_67.m4a,,,
,,,,,,,,,,,,40596,2021-05-10_21h52.09.014,judgeSpeechMusic_20210407_logNormShiftAmp,2020.1.2,MacIntel,60,,,,,,,,,,,,,,1,5.592345,,0,0,18,18,43,1,stimuli/stim_20210407_power2amp/equal_lnn_AM1.8Hz_72.m4a,,,
,,,,,,,,,,,,40596,2021-05-10_21h52.09.014,judgeSpeechMusic_20210407_logNormShiftAmp,2020.1.2,MacIntel,60,,,,,,,,,,,,,,1,6.035345,,0,0,19,19,37,1,stimuli/stim_20210407_power2amp/equal_lnn_AM1.8Hz_70.m4a,,,
,,,,,,,,,,,,40596,2021-05-10_21h52.09.014,judgeSpeechMusic_20210407_logNormShiftAmp,2020.1.2,MacIntel,60,,,,,,,,,,,,,,2,8.273995,,0,0,20,20,132,1,stimuli/stim_20210407_power2amp/equal_lnn_AM5.4Hz_12.m4a,,,
,,,,,,,,,,,,40596,2021-05-10_21h52.09.014,judgeSpeechMusic_20210407_logNormShiftAmp,2020.1.2,MacIntel,60,,,,,,,,,,,,,,1,5.76685,,0,0,21,21,61,1,stimuli/stim_20210407_power2amp/equal_lnn_AM3Hz_2.m4a,,,
,,,,,,,,,,,,40596,2021-05-10_21h52.09.014,judgeSpeechMusic_20210407_logNormShiftAmp,2020.1.2,MacIntel,60,,,,,,,,,,,,,,2,6.1668,,0,0,22,22,7,1,stimuli/stim_20210407_power2amp/equal_lnn_AM0.6Hz_8.m4a,,,
,,,,,,,,,,,,40596,2021-05-10_21h52.09.014,judgeSpeechMusic_20210407_logNormShiftAmp,2020.1.2,MacIntel,60,,,,,,,,,,,,,,1,5.66034,,0,0,23,23,16,1,stimuli/stim_20210407_power2amp/equal_lnn_AM1.2Hz_35.m4a,,,
,,,,,,,,,,,,40596,2021-05-10_21h52.09.014,judgeSpeechMusic_20210407_logNormShiftAmp,2020.1.2,MacIntel,60,,,,,,,,,,,,,,2,6.529395,,0,0,24,24,102,1,stimuli/stim_20210407_power2amp/equal_lnn_AM4.2Hz_78.m4a,,,
,,,,,,,,,,,,40596,2021-05-10_21h52.09.014,judgeSpeechMusic_20210407_logNormShiftAmp,2020.1.2,MacIntel,60,,,,,,,,,,,,,,2,6.790255,,0,0,25,25,44,1,stimuli/stim_20210407_power2amp/equal_lnn_AM1.8Hz_24.m4a,,,
,,,,,,,,,,,,40596,2021-05-10_21h52.09.014,judgeSpeechMusic_20210407_logNormShiftAmp,2020.1.2,MacIntel,60,,,,,,,,,,,,,,2,5.611195,,0,0,26,26,146,1,stimuli/stim_20210407_power2amp/equal_lnn_AM6Hz_71.m4a,,,
,,,,,,,,,,,,40596,2021-05-10_21h52.09.014,judgeSpeechMusic_20210407_logNormShiftAmp,2020.1.2,MacIntel,60,,,,,,,,,,,,,,1,5.69919,,0,0,27,27,134,1,stimuli/stim_20210407_power2amp/equal_lnn_AM5.4Hz_4.m4a,,,
,,,,,,,,,,,,40596,2021-05-10_21h52.09.014,judgeSpeechMusic_20210407_logNormShiftAmp,2020.1.2,MacIntel,60,,,,,,,,,,,,,,2,5.616935,,0,0,28,28,84,1,stimuli/stim_20210407_power2amp/equal_lnn_AM3.6Hz_35.m4a,,,
,,,,,,,,,,,,40596,2021-05-10_21h52.09.014,judgeSpeechMusic_20210407_logNormShiftAmp,2020.1.2,MacIntel,60,,,,,,,,,,,,,,2,5.64999,,0,0,29,29,26,1,stimuli/stim_20210407_power2amp/equal_lnn_AM1.2Hz_45.m4a,,,
,,,,,,,,,,,,40596,2021-05-10_21h52.09.014,judgeSpeechMusic_20210407_logNormShiftAmp,2020.1.2,MacIntel,60,,,,,,,,,,,,,,1,6.24379,,0,0,30,30,19,1,stimuli/stim_20210407_power2amp/equal_lnn_AM1.2Hz_84.m4a,,,
,,,,,,,,,,,,40596,2021-05-10_21h52.09.014,judgeSpeechMusic_20210407_logNormShiftAmp,2020.1.2,MacIntel,60,,,,,,,,,,,,,,2,6.40005,,0,0,31,31,42,1,stimuli/stim_20210407_power2amp/equal_lnn_AM1.8Hz_14.m4a,,,
,,,,,,,,,,,,40596,2021-05-10_21h52.09.014,judgeSpeechMusic_20210407_logNormShiftAmp,2020.1.2,MacIntel,60,,,,,,,,,,,,,,2,5.58845,1,1,0,32,32,135,1,stimuli/stim_20210407_power2amp/equal_lnn_AM6Hz_64.m4a,1.529975,,
,,,,,,,,,,,,40596,2021-05-10_21h52.09.014,judgeSpeechMusic_20210407_logNormShiftAmp,2020.1.2,MacIntel,60,,,,,,,,,,,,,,1,6.199865,,0,0,33,33,33,1,stimuli/stim_20210407_power2amp/equal_lnn_AM1.8Hz_2.m4a,,,
,,,,,,,,,,,,40596,2021-05-10_21h52.09.014,judgeSpeechMusic_20210407_logNormShiftAmp,2020.1.2,MacIntel,60,,,,,,,,,,,,,,2,6.92077,,0,0,34,34,130,1,stimuli/stim_20210407_power2amp/equal_lnn_AM5.4Hz_72.m4a,,,
,,,,,,,,,,,,40596,2021-05-10_21h52.09.014,judgeSpeechMusic_20210407_logNormShiftAmp,2020.1.2,MacIntel,60,,,,,,,,,,,,,,2,5.567615,,0,0,35,35,118,1,stimuli/stim_20210407_power2amp/equal_lnn_AM4.8Hz_94.m4a,,,
,,,,,,,,,,,,40596,2021-05-10_21h52.09.014,judgeSpeechMusic_20210407_logNormShiftAmp,2020.1.2,MacIntel,60,,,,,,,,,,,,,,1,5.72651,,0,0,36,36,8,1,stimuli/stim_20210407_power2amp/equal_lnn_AM0.6Hz_68.m4a,,,
,,,,,,,,,,,,40596,2021-05-10_21h52.09.014,judgeSpeechMusic_20210407_logNormShiftAmp,2020.1.2,MacIntel,60,,,,,,,,,,,,,,2,6.27099,,0,0,37,37,124,1,stimuli/stim_20210407_power2amp/equal_lnn_AM5.4Hz_33.m4a,,,
,,,,,,,,,,,,40596,2021-05-10_21h52.09.014,judgeSpeechMusic_20210407_logNormShiftAmp,2020.1.2,MacIntel,60,,,,,,,,,,,,,,1,5.657585,,0,0,38,38,62,1,stimuli/stim_20210407_power2amp/equal_lnn_AM3Hz_60.m4a,,,
,,,,,,,,,,,,40596,2021-05-10_21h52.09.014,judgeSpeechMusic_20210407_logNormShiftAmp,2020.1.2,MacIntel,60,,,,,,,,,,,,,,2,6.310925,,0,0,39,39,85,1,stimuli/stim_20210407_power2amp/equal_lnn_AM3.6Hz_36.m4a,,,
,,,,,,,,,,,,40596,2021-05-10_21h52.09.014,judgeSpeechMusic_20210407_logNormShiftAmp,2020.1.2,MacIntel,60,,,,,,,,,,,,,,1,6.96366,,0,0,40,40,1,1,stimuli/stim_20210407_power2amp/equal_lnn_AM0.6Hz_84.m4a,,,
,,,,,,,,,,,,40596,2021-05-10_21h52.09.014,judgeSpeechMusic_20210407_logNormShiftAmp,2020.1.2,MacIntel,60,,,,,,,,,,,,,,2,6.15733,,0,0,41,41,0,1,stimuli/stim_20210407_power2amp/equal_lnn_AM0.6Hz_1.m4a,,,
,,,,,,,,,,,,40596,2021-05-10_21h52.09.014,judgeSpeechMusic_20210407_logNormShiftAmp,2020.1.2,MacIntel,60,,,,,,,,,,,,,,2,6.82077,,0,0,42,42,9,1,stimuli/stim_20210407_power2amp/equal_lnn_AM0.6Hz_69.m4a,,,
,,,,,,,,,,,,40596,2021-05-10_21h52.09.014,judgeSpeechMusic_20210407_logNormShiftAmp,2020.1.2,MacIntel,60,,,,,,,,,,,,,,2,6.55641,,0,0,43,43,69,1,stimuli/stim_20210407_power2amp/equal_lnn_AM3Hz_36.m4a,,,
,,,,,,,,,,,,40596,2021-05-10_21h52.09.014,judgeSpeechMusic_20210407_logNormShiftAmp,2020.1.2,MacIntel,60,,,,,,,,,,,,,,2,6.640635,,0,0,44,44,131,1,stimuli/stim_20210407_power2amp/equal_lnn_AM5.4Hz_41.m4a,,,
,,,,,,,,,,,,40596,2021-05-10_21h52.09.014,judgeSpeechMusic_20210407_logNormShiftAmp,2020.1.2,MacIntel,60,,,,,,,,,,,,,,2,5.57023,,0,0,45,45,140,1,stimuli/stim_20210407_power2amp/equal_lnn_AM6Hz_1.m4a,,,
,,,,,,,,,,,,40596,2021-05-10_21h52.09.014,judgeSpeechMusic_20210407_logNormShiftAmp,2020.1.2,MacIntel,60,,,,,,,,,,,,,,2,7.178635,,0,0,46,46,40,1,stimuli/stim_20210407_power2amp/equal_lnn_AM1.8Hz_88.m4a,,,
,,,,,,,,,,,,40596,2021-05-10_21h52.09.014,judgeSpeechMusic_20210407_logNormShiftAmp,2020.1.2,MacIntel,60,,,,,,,,,,,,,,1,6.367725,,0,0,47,47,6,1,stimuli/stim_20210407_power2amp/equal_lnn_AM0.6Hz_94.m4a,,,
,,,,,,,,,,,,40596,2021-05-10_21h52.09.014,judgeSpeechMusic_20210407_logNormShiftAmp,2020.1.2,MacIntel,60,,,,,,,,,,,,,,1,5.679085,,0,0,48,48,4,1,stimuli/stim_20210407_power2amp/equal_lnn_AM0.6Hz_29.m4a,,,
,,,,,,,,,,,,40596,2021-05-10_21h52.09.014,judgeSpeechMusic_20210407_logNormShiftAmp,2020.1.2,MacIntel,60,,,,,,,,,,,,,,1,5.93318,,0,0,49,49,99,1,stimuli/stim_20210407_power2amp/equal_lnn_AM4.2Hz_34.m4a,,,
,,,,,,,,,,,,40596,2021-05-10_21h52.09.014,judgeSpeechMusic_20210407_logNormShiftAmp,2020.1.2,MacIntel,60,,,,,,,,,,,,,,1,6.13214,,0,0,50,50,93,1,stimuli/stim_20210407_power2amp/equal_lnn_AM4.2Hz_77.m4a,,,
,,,,,,,,,,,,40596,2021-05-10_21h52.09.014,judgeSpeechMusic_20210407_logNormShiftAmp,2020.1.2,MacIntel,60,,,,,,,,,,,,,,1,5.821015,,0,0,51,51,119,1,stimuli/stim_20210407_power2amp/equal_lnn_AM4.8Hz_61.m4a,,,
,,,,,,,,,,,,40596,2021-05-10_21h52.09.014,judgeSpeechMusic_20210407_logNormShiftAmp,2020.1.2,MacIntel,60,,,,,,,,,,,,,,2,6.125675,,0,0,52,52,55,1,stimuli/stim_20210407_power2amp/equal_lnn_AM2.4Hz_85.m4a,,,
,,,,,,,,,,,,40596,2021-05-10_21h52.09.014,judgeSpeechMusic_20210407_logNormShiftAmp,2020.1.2,MacIntel,60,,,,,,,,,,,,,,2,5.61475,,0,0,53,53,78,1,stimuli/stim_20210407_power2amp/equal_lnn_AM3.6Hz_2.m4a,,,
,,,,,,,,,,,,40596,2021-05-10_21h52.09.014,judgeSpeechMusic_20210407_logNormShiftAmp,2020.1.2,MacIntel,60,,,,,,,,,,,,,,2,5.645125,,0,0,54,54,96,1,stimuli/stim_20210407_power2amp/equal_lnn_AM4.2Hz_54.m4a,,,
,,,,,,,,,,,,40596,2021-05-10_21h52.09.014,judgeSpeechMusic_20210407_logNormShiftAmp,2020.1.2,MacIntel,60,,,,,,,,,,,,,,2,6.013595,,0,0,55,55,32,1,stimuli/stim_20210407_power2amp/equal_lnn_AM1.8Hz_46.m4a,,,
,,,,,,,,,,,,40596,2021-05-10_21h52.09.014,judgeSpeechMusic_20210407_logNormShiftAmp,2020.1.2,MacIntel,60,,,,,,,,,,,,,,2,5.846765,2,1,0,56,56,48,1,stimuli/stim_20210407_power2amp/equal_lnn_AM2.4Hz_38.m4a,1.363055,,
,,,,,,,,,,,,40596,2021-05-10_21h52.09.014,judgeSpeechMusic_20210407_logNormShiftAmp,2020.1.2,MacIntel,60,,,,,,,,,,,,,,2,5.95863,,0,0,57,57,144,1,stimuli/stim_20210407_power2amp/equal_lnn_AM6Hz_98.m4a,,,
,,,,,,,,,,,,40596,2021-05-10_21h52.09.014,judgeSpeechMusic_20210407_logNormShiftAmp,2020.1.2,MacIntel,60,,,,,,,,,,,,,,2,5.67195,,0,0,58,58,137,1,stimuli/stim_20210407_power2amp/equal_lnn_AM6Hz_100.m4a,,,
,,,,,,,,,,,,40596,2021-05-10_21h52.09.014,judgeSpeechMusic_20210407_logNormShiftAmp,2020.1.2,MacIntel,60,,,,,,,,,,,,,,1,5.6227,,0,0,59,59,49,1,stimuli/stim_20210407_power2amp/equal_lnn_AM2.4Hz_16.m4a,,,
,,,,,,,,,,,,40596,2021-05-10_21h52.09.014,judgeSpeechMusic_20210407_logNormShiftAmp,2020.1.2,MacIntel,60,,,,,,,,,,,,,,2,7.762765,,0,0,60,60,47,1,stimuli/stim_20210407_power2amp/equal_lnn_AM2.4Hz_50.m4a,,,
,,,,,,,,,,,,40596,2021-05-10_21h52.09.014,judgeSpeechMusic_20210407_logNormShiftAmp,2020.1.2,MacIntel,60,,,,,,,,,,,,,,2,7.136035,,0,0,61,61,54,1,stimuli/stim_20210407_power2amp/equal_lnn_AM2.4Hz_56.m4a,,,
,,,,,,,,,,,,40596,2021-05-10_21h52.09.014,judgeSpeechMusic_20210407_logNormShiftAmp,2020.1.2,MacIntel,60,,,,,,,,,,,,,,2,6.88494,,0,0,62,62,122,1,stimuli/stim_20210407_power2amp/equal_lnn_AM5.4Hz_86.m4a,,,
,,,,,,,,,,,,40596,2021-05-10_21h52.09.014,judgeSpeechMusic_20210407_logNormShiftAmp,2020.1.2,MacIntel,60,,,,,,,,,,,,,,2,5.96292,,0,0,63,63,86,1,stimuli/stim_20210407_power2amp/equal_lnn_AM3.6Hz_12.m4a,,,
,,,,,,,,,,,,40596,2021-05-10_21h52.09.014,judgeSpeechMusic_20210407_logNormShiftAmp,2020.1.2,MacIntel,60,,,,,,,,,,,,,,2,6.02931,,0,0,64,64,46,1,stimuli/stim_20210407_power2amp/equal_lnn_AM2.4Hz_64.m4a,,,
,,,,,,,,,,,,40596,2021-05-10_21h52.09.014,judgeSpeechMusic_20210407_logNormShiftAmp,2020.1.2,MacIntel,60,,,,,,,,,,,,,,2,5.905175,,0,0,65,65,65,1,stimuli/stim_20210407_power2amp/equal_lnn_AM3Hz_54.m4a,,,
,,,,,,,,,,,,40596,2021-05-10_21h52.09.014,judgeSpeechMusic_20210407_logNormShiftAmp,2020.1.2,MacIntel,60,,,,,,,,,,,,,,2,6.36682,,0,0,66,66,121,1,stimuli/stim_20210407_power2amp/equal_lnn_AM5.4Hz_9.m4a,,,
,,,,,,,,,,,,40596,2021-05-10_21h52.09.014,judgeSpeechMusic_20210407_logNormShiftAmp,2020.1.2,MacIntel,60,,,,,,,,,,,,,,2,5.668705,,0,0,67,67,125,1,stimuli/stim_20210407_power2amp/equal_lnn_AM5.4Hz_19.m4a,,,
,,,,,,,,,,,,40596,2021-05-10_21h52.09.014,judgeSpeechMusic_20210407_logNormShiftAmp,2020.1.2,MacIntel,60,,,,,,,,,,,,,,2,5.640445,,0,0,68,68,82,1,stimuli/stim_20210407_power2amp/equal_lnn_AM3.6Hz_6.m4a,,,
,,,,,,,,,,,,40596,2021-05-10_21h52.09.014,judgeSpeechMusic_20210407_logNormShiftAmp,2020.1.2,MacIntel,60,,,,,,,,,,,,,,1,6.30102,,0,0,69,69,28,1,stimuli/stim_20210407_power2amp/equal_lnn_AM1.2Hz_80.m4a,,,
,,,,,,,,,,,,40596,2021-05-10_21h52.09.014,judgeSpeechMusic_20210407_logNormShiftAmp,2020.1.2,MacIntel,60,,,,,,,,,,,,,,2,6.1343,,0,0,70,70,58,1,stimuli/stim_20210407_power2amp/equal_lnn_AM2.4Hz_73.m4a,,,
,,,,,,,,,,,,40596,2021-05-10_21h52.09.014,judgeSpeechMusic_20210407_logNormShiftAmp,2020.1.2,MacIntel,60,,,,,,,,,,,,,,2,5.661355,,0,0,71,71,109,1,stimuli/stim_20210407_power2amp/equal_lnn_AM4.8Hz_93.m4a,,,
,,,,,,,,,,,,40596,2021-05-10_21h52.09.014,judgeSpeechMusic_20210407_logNormShiftAmp,2020.1.2,MacIntel,60,,,,,,,,,,,,,,2,6.18342,,0,0,72,72,80,1,stimuli/stim_20210407_power2amp/equal_lnn_AM3.6Hz_100.m4a,,,
,,,,,,,,,,,,40596,2021-05-10_21h52.09.014,judgeSpeechMusic_20210407_logNormShiftAmp,2020.1.2,MacIntel,60,,,,,,,,,,,,,,2,6.216645,,0,0,73,73,75,1,stimuli/stim_20210407_power2amp/equal_lnn_AM3.6Hz_97.m4a,,,
,,,,,,,,,,,,40596,2021-05-10_21h52.09.014,judgeSpeechMusic_20210407_logNormShiftAmp,2020.1.2,MacIntel,60,,,,,,,,,,,,,,2,6.331495,,0,0,74,74,91,1,stimuli/stim_20210407_power2amp/equal_lnn_AM4.2Hz_50.m4a,,,
,,,,,,,,,,,,40596,2021-05-10_21h52.09.014,judgeSpeechMusic_20210407_logNormShiftAmp,2020.1.2,MacIntel,60,,,,,,,,,,,,,,1,5.7335,,0,0,75,75,20,1,stimuli/stim_20210407_power2amp/equal_lnn_AM1.2Hz_77.m4a,,,
,,,,,,,,,,,,40596,2021-05-10_21h52.09.014,judgeSpeechMusic_20210407_logNormShiftAmp,2020.1.2,MacIntel,60,,,,,,,,,,,,,,1,7.04236,,0,0,76,76,101,1,stimuli/stim_20210407_power2amp/equal_lnn_AM4.2Hz_52.m4a,,,
,,,,,,,,,,,,40596,2021-05-10_21h52.09.014,judgeSpeechMusic_20210407_logNormShiftAmp,2020.1.2,MacIntel,60,,,,,,,,,,,,,,2,6.244485,,0,0,77,77,141,1,stimuli/stim_20210407_power2amp/equal_lnn_AM6Hz_6.m4a,,,
,,,,,,,,,,,,40596,2021-05-10_21h52.09.014,judgeSpeechMusic_20210407_logNormShiftAmp,2020.1.2,MacIntel,60,,,,,,,,,,,,,,2,7.14824,,0,0,78,78,21,1,stimuli/stim_20210407_power2amp/equal_lnn_AM1.2Hz_66.m4a,,,
,,,,,,,,,,,,40596,2021-05-10_21h52.09.014,judgeSpeechMusic_20210407_logNormShiftAmp,2020.1.2,MacIntel,60,,,,,,,,,,,,,,2,6.733295,,0,0,79,79,45,1,stimuli/stim_20210407_power2amp/equal_lnn_AM2.4Hz_74.m4a,,,
,,,,,,,,,,,,40596,2021-05-10_21h52.09.014,judgeSpeechMusic_20210407_logNormShiftAmp,2020.1.2,MacIntel,60,,,,,,,,,,,,,,2,5.98686,4,1,0,80,80,30,1,stimuli/stim_20210407_power2amp/equal_lnn_AM1.8Hz_51.m4a,0.570485,,
,,,,,,,,,,,,40596,2021-05-10_21h52.09.014,judgeSpeechMusic_20210407_logNormShiftAmp,2020.1.2,MacIntel,60,,,,,,,,,,,,,,1,5.73477,,0,0,81,81,27,1,stimuli/stim_20210407_power2amp/equal_lnn_AM1.2Hz_54.m4a,,,
,,,,,,,,,,,,40596,2021-05-10_21h52.09.014,judgeSpeechMusic_20210407_logNormShiftAmp,2020.1.2,MacIntel,60,,,,,,,,,,,,,,1,6.367995,,0,0,82,82,139,1,stimuli/stim_20210407_power2amp/equal_lnn_AM6Hz_10.m4a,,,
,,,,,,,,,,,,40596,2021-05-10_21h52.09.014,judgeSpeechMusic_20210407_logNormShiftAmp,2020.1.2,MacIntel,60,,,,,,,,,,,,,,2,6.83472,,0,0,83,83,39,1,stimuli/stim_20210407_power2amp/equal_lnn_AM1.8Hz_39.m4a,,,
,,,,,,,,,,,,40596,2021-05-10_21h52.09.014,judgeSpeechMusic_20210407_logNormShiftAmp,2020.1.2,MacIntel,60,,,,,,,,,,,,,,2,6.32143,,0,0,84,84,129,1,stimuli/stim_20210407_power2amp/equal_lnn_AM5.4Hz_18.m4a,,,
,,,,,,,,,,,,40596,2021-05-10_21h52.09.014,judgeSpeechMusic_20210407_logNormShiftAmp,2020.1.2,MacIntel,60,,,,,,,,,,,,,,2,7.579675,,0,0,85,85,53,1,stimuli/stim_20210407_power2amp/equal_lnn_AM2.4Hz_26.m4a,,,
,,,,,,,,,,,,40596,2021-05-10_21h52.09.014,judgeSpeechMusic_20210407_logNormShiftAmp,2020.1.2,MacIntel,60,,,,,,,,,,,,,,2,7.2307,,0,0,86,86,24,1,stimuli/stim_20210407_power2amp/equal_lnn_AM1.2Hz_76.m4a,,,
,,,,,,,,,,,,40596,2021-05-10_21h52.09.014,judgeSpeechMusic_20210407_logNormShiftAmp,2020.1.2,MacIntel,60,,,,,,,,,,,,,,2,5.905155,,0,0,87,87,81,1,stimuli/stim_20210407_power2amp/equal_lnn_AM3.6Hz_78.m4a,,,
,,,,,,,,,,,,40596,2021-05-10_21h52.09.014,judgeSpeechMusic_20210407_logNormShiftAmp,2020.1.2,MacIntel,60,,,,,,,,,,,,,,2,5.95662,,0,0,88,88,114,1,stimuli/stim_20210407_power2amp/equal_lnn_AM4.8Hz_96.m4a,,,
,,,,,,,,,,,,40596,2021-05-10_21h52.09.014,judgeSpeechMusic_20210407_logNormShiftAmp,2020.1.2,MacIntel,60,,,,,,,,,,,,,,2,5.724335,,0,0,89,89,100,1,stimuli/stim_20210407_power2amp/equal_lnn_AM4.2Hz_28.m4a,,,
,,,,,,,,,,,,40596,2021-05-10_21h52.09.014,judgeSpeechMusic_20210407_logNormShiftAmp,2020.1.2,MacIntel,60,,,,,,,,,,,,,,2,6.106965,,0,0,90,90,70,1,stimuli/stim_20210407_power2amp/equal_lnn_AM3Hz_27.m4a,,,
,,,,,,,,,,,,40596,2021-05-10_21h52.09.014,judgeSpeechMusic_20210407_logNormShiftAmp,2020.1.2,MacIntel,60,,,,,,,,,,,,,,1,6.608715,,0,0,91,91,56,1,stimuli/stim_20210407_power2amp/equal_lnn_AM2.4Hz_82.m4a,,,
,,,,,,,,,,,,40596,2021-05-10_21h52.09.014,judgeSpeechMusic_20210407_logNormShiftAmp,2020.1.2,MacIntel,60,,,,,,,,,,,,,,2,8.84911,,0,0,92,92,108,1,stimuli/stim_20210407_power2amp/equal_lnn_AM4.8Hz_58.m4a,,,
,,,,,,,,,,,,40596,2021-05-10_21h52.09.014,judgeSpeechMusic_20210407_logNormShiftAmp,2020.1.2,MacIntel,60,,,,,,,,,,,,,,2,6.443085,,0,0,93,93,111,1,stimuli/stim_20210407_power2amp/equal_lnn_AM4.8Hz_65.m4a,,,
,,,,,,,,,,,,40596,2021-05-10_21h52.09.014,judgeSpeechMusic_20210407_logNormShiftAmp,2020.1.2,MacIntel,60,,,,,,,,,,,,,,1,8.84907,,0,0,94,94,148,1,stimuli/stim_20210407_power2amp/equal_lnn_AM6Hz_7.m4a,,,
,,,,,,,,,,,,40596,2021-05-10_21h52.09.014,judgeSpeechMusic_20210407_logNormShiftAmp,2020.1.2,MacIntel,60,,,,,,,,,,,,,,2,5.741155,,0,0,95,95,142,1,stimuli/stim_20210407_power2amp/equal_lnn_AM6Hz_49.m4a,,,
,,,,,,,,,,,,40596,2021-05-10_21h52.09.014,judgeSpeechMusic_20210407_logNormShiftAmp,2020.1.2,MacIntel,60,,,,,,,,,,,,,,2,6.707335,,0,0,96,96,117,1,stimuli/stim_20210407_power2amp/equal_lnn_AM4.8Hz_15.m4a,,,
,,,,,,,,,,,,40596,2021-05-10_21h52.09.014,judgeSpeechMusic_20210407_logNormShiftAmp,2020.1.2,MacIntel,60,,,,,,,,,,,,,,2,7.274135,,0,0,97,97,106,1,stimuli/stim_20210407_power2amp/equal_lnn_AM4.8Hz_38.m4a,,,
,,,,,,,,,,,,40596,2021-05-10_21h52.09.014,judgeSpeechMusic_20210407_logNormShiftAmp,2020.1.2,MacIntel,60,,,,,,,,,,,,,,2,11.15413,,0,0,98,98,149,1,stimuli/stim_20210407_power2amp/equal_lnn_AM6Hz_97.m4a,,,
,,,,,,,,,,,,40596,2021-05-10_21h52.09.014,judgeSpeechMusic_20210407_logNormShiftAmp,2020.1.2,MacIntel,60,,,,,,,,,,,,,,1,6.69168,,0,0,99,99,127,1,stimuli/stim_20210407_power2amp/equal_lnn_AM5.4Hz_85.m4a,,,
,,,,,,,,,,,,40596,2021-05-10_21h52.09.014,judgeSpeechMusic_20210407_logNormShiftAmp,2020.1.2,MacIntel,60,,,,,,,,,,,,,,1,8.15517,,0,0,100,100,72,1,stimuli/stim_20210407_power2amp/equal_lnn_AM3Hz_56.m4a,,,
,,,,,,,,,,,,40596,2021-05-10_21h52.09.014,judgeSpeechMusic_20210407_logNormShiftAmp,2020.1.2,MacIntel,60,,,,,,,,,,,,,,2,5.90904,,0,0,101,101,77,1,stimuli/stim_20210407_power2amp/equal_lnn_AM3.6Hz_79.m4a,,,
,,,,,,,,,,,,40596,2021-05-10_21h52.09.014,judgeSpeechMusic_20210407_logNormShiftAmp,2020.1.2,MacIntel,60,,,,,,,,,,,,,,2,5.60013,,0,0,102,102,103,1,stimuli/stim_20210407_power2amp/equal_lnn_AM4.2Hz_86.m4a,,,
,,,,,,,,,,,,40596,2021-05-10_21h52.09.014,judgeSpeechMusic_20210407_logNormShiftAmp,2020.1.2,MacIntel,60,,,,,,,,,,,,,,2,9.734095,,0,0,103,103,87,1,stimuli/stim_20210407_power2amp/equal_lnn_AM3.6Hz_54.m4a,,,
,,,,,,,,,,,,40596,2021-05-10_21h52.09.014,judgeSpeechMusic_20210407_logNormShiftAmp,2020.1.2,MacIntel,60,,,,,,,,,,,,,,1,5.787525,,0,0,104,104,2,1,stimuli/stim_20210407_power2amp/equal_lnn_AM0.6Hz_7.m4a,,,
,,,,,,,,,,,,40596,2021-05-10_21h52.09.014,judgeSpeechMusic_20210407_logNormShiftAmp,2020.1.2,MacIntel,60,,,,,,,,,,,,,,2,5.6704,1,1,0,105,105,136,1,stimuli/stim_20210407_power2amp/equal_lnn_AM6Hz_28.m4a,2.667105,,
,,,,,,,,,,,,40596,2021-05-10_21h52.09.014,judgeSpeechMusic_20210407_logNormShiftAmp,2020.1.2,MacIntel,60,,,,,,,,,,,,,,2,7.276985,,0,0,106,106,79,1,stimuli/stim_20210407_power2amp/equal_lnn_AM3.6Hz_83.m4a,,,
,,,,,,,,,,,,40596,2021-05-10_21h52.09.014,judgeSpeechMusic_20210407_logNormShiftAmp,2020.1.2,MacIntel,60,,,,,,,,,,,,,,1,6.868045,,0,0,107,107,5,1,stimuli/stim_20210407_power2amp/equal_lnn_AM0.6Hz_73.m4a,,,
,,,,,,,,,,,,40596,2021-05-10_21h52.09.014,judgeSpeechMusic_20210407_logNormShiftAmp,2020.1.2,MacIntel,60,,,,,,,,,,,,,,2,6.551695,,0,0,108,108,145,1,stimuli/stim_20210407_power2amp/equal_lnn_AM6Hz_52.m4a,,,
,,,,,,,,,,,,40596,2021-05-10_21h52.09.014,judgeSpeechMusic_20210407_logNormShiftAmp,2020.1.2,MacIntel,60,,,,,,,,,,,,,,2,6.803865,,0,0,109,109,12,1,stimuli/stim_20210407_power2amp/equal_lnn_AM0.6Hz_75.m4a,,,
,,,,,,,,,,,,40596,2021-05-10_21h52.09.014,judgeSpeechMusic_20210407_logNormShiftAmp,2020.1.2,MacIntel,60,,,,,,,,,,,,,,2,5.780725,,0,0,110,110,128,1,stimuli/stim_20210407_power2amp/equal_lnn_AM5.4Hz_11.m4a,,,
,,,,,,,,,,,,40596,2021-05-10_21h52.09.014,judgeSpeechMusic_20210407_logNormShiftAmp,2020.1.2,MacIntel,60,,,,,,,,,,,,,,2,5.78829,,0,0,111,111,89,1,stimuli/stim_20210407_power2amp/equal_lnn_AM3.6Hz_95.m4a,,,
,,,,,,,,,,,,40596,2021-05-10_21h52.09.014,judgeSpeechMusic_20210407_logNormShiftAmp,2020.1.2,MacIntel,60,,,,,,,,,,,,,,2,7.71571,,0,0,112,112,76,1,stimuli/stim_20210407_power2amp/equal_lnn_AM3.6Hz_59.m4a,,,
,,,,,,,,,,,,40596,2021-05-10_21h52.09.014,judgeSpeechMusic_20210407_logNormShiftAmp,2020.1.2,MacIntel,60,,,,,,,,,,,,,,1,6.690215,,0,0,113,113,13,1,stimuli/stim_20210407_power2amp/equal_lnn_AM0.6Hz_77.m4a,,,
,,,,,,,,,,,,40596,2021-05-10_21h52.09.014,judgeSpeechMusic_20210407_logNormShiftAmp,2020.1.2,MacIntel,60,,,,,,,,,,,,,,2,7.59222,,0,0,114,114,107,1,stimuli/stim_20210407_power2amp/equal_lnn_AM4.8Hz_52.m4a,,,
,,,,,,,,,,,,40596,2021-05-10_21h52.09.014,judgeSpeechMusic_20210407_logNormShiftAmp,2020.1.2,MacIntel,60,,,,,,,,,,,,,,2,8.76983,,0,0,115,115,10,1,stimuli/stim_20210407_power2amp/equal_lnn_AM0.6Hz_5.m4a,,,
,,,,,,,,,,,,40596,2021-05-10_21h52.09.014,judgeSpeechMusic_20210407_logNormShiftAmp,2020.1.2,MacIntel,60,,,,,,,,,,,,,,2,6.82091,,0,0,116,116,50,1,stimuli/stim_20210407_power2amp/equal_lnn_AM2.4Hz_42.m4a,,,
,,,,,,,,,,,,40596,2021-05-10_21h52.09.014,judgeSpeechMusic_20210407_logNormShiftAmp,2020.1.2,MacIntel,60,,,,,,,,,,,,,,2,6.226045,,0,0,117,117,3,1,stimuli/stim_20210407_power2amp/equal_lnn_AM0.6Hz_88.m4a,,,
,,,,,,,,,,,,40596,2021-05-10_21h52.09.014,judgeSpeechMusic_20210407_logNormShiftAmp,2020.1.2,MacIntel,60,,,,,,,,,,,,,,2,5.81785,,0,0,118,118,34,1,stimuli/stim_20210407_power2amp/equal_lnn_AM1.8Hz_22.m4a,,,
,,,,,,,,,,,,40596,2021-05-10_21h52.09.014,judgeSpeechMusic_20210407_logNormShiftAmp,2020.1.2,MacIntel,60,,,,,,,,,,,,,,1,7.00437,,0,0,119,119,17,1,stimuli/stim_20210407_power2amp/equal_lnn_AM1.2Hz_63.m4a,,,
,,,,,,,,,,,,40596,2021-05-10_21h52.09.014,judgeSpeechMusic_20210407_logNormShiftAmp,2020.1.2,MacIntel,60,,,,,,,,,,,,,,1,6.11267,,0,0,120,120,57,1,stimuli/stim_20210407_power2amp/equal_lnn_AM2.4Hz_92.m4a,,,
,,,,,,,,,,,,40596,2021-05-10_21h52.09.014,judgeSpeechMusic_20210407_logNormShiftAmp,2020.1.2,MacIntel,60,,,,,,,,,,,,,,2,6.38039,,0,0,121,121,143,1,stimuli/stim_20210407_power2amp/equal_lnn_AM6Hz_51.m4a,,,
,,,,,,,,,,,,40596,2021-05-10_21h52.09.014,judgeSpeechMusic_20210407_logNormShiftAmp,2020.1.2,MacIntel,60,,,,,,,,,,,,,,2,6.66608,,0,0,122,122,52,1,stimuli/stim_20210407_power2amp/equal_lnn_AM2.4Hz_2.m4a,,,
,,,,,,,,,,,,40596,2021-05-10_21h52.09.014,judgeSpeechMusic_20210407_logNormShiftAmp,2020.1.2,MacIntel,60,,,,,,,,,,,,,,2,6.31769,,0,0,123,123,120,1,stimuli/stim_20210407_power2amp/equal_lnn_AM5.4Hz_96.m4a,,,
,,,,,,,,,,,,40596,2021-05-10_21h52.09.014,judgeSpeechMusic_20210407_logNormShiftAmp,2020.1.2,MacIntel,60,,,,,,,,,,,,,,2,8.37946,,0,0,124,124,115,1,stimuli/stim_20210407_power2amp/equal_lnn_AM4.8Hz_50.m4a,,,
,,,,,,,,,,,,40596,2021-05-10_21h52.09.014,judgeSpeechMusic_20210407_logNormShiftAmp,2020.1.2,MacIntel,60,,,,,,,,,,,,,,1,6.439355,,0,0,125,125,11,1,stimuli/stim_20210407_power2amp/equal_lnn_AM0.6Hz_49.m4a,,,
,,,,,,,,,,,,40596,2021-05-10_21h52.09.014,judgeSpeechMusic_20210407_logNormShiftAmp,2020.1.2,MacIntel,60,,,,,,,,,,,,,,2,7.32827,,0,0,126,126,31,1,stimuli/stim_20210407_power2amp/equal_lnn_AM1.8Hz_37.m4a,,,
,,,,,,,,,,,,40596,2021-05-10_21h52.09.014,judgeSpeechMusic_20210407_logNormShiftAmp,2020.1.2,MacIntel,60,,,,,,,,,,,,,,2,6.95916,,0,0,127,127,66,1,stimuli/stim_20210407_power2amp/equal_lnn_AM3Hz_57.m4a,,,
,,,,,,,,,,,,40596,2021-05-10_21h52.09.014,judgeSpeechMusic_20210407_logNormShiftAmp,2020.1.2,MacIntel,60,,,,,,,,,,,,,,2,6.454185,,0,0,128,128,105,1,stimuli/stim_20210407_power2amp/equal_lnn_AM4.8Hz_73.m4a,,,
,,,,,,,,,,,,40596,2021-05-10_21h52.09.014,judgeSpeechMusic_20210407_logNormShiftAmp,2020.1.2,MacIntel,60,,,,,,,,,,,,,,2,6.079735,,0,0,129,129,60,1,stimuli/stim_20210407_power2amp/equal_lnn_AM3Hz_5.m4a,,,
,,,,,,,,,,,,40596,2021-05-10_21h52.09.014,judgeSpeechMusic_20210407_logNormShiftAmp,2020.1.2,MacIntel,60,,,,,,,,,,,,,,1,5.842575,3,1,0,130,130,14,1,stimuli/stim_20210407_power2amp/equal_lnn_AM0.6Hz_61.m4a,0.66704,,
,,,,,,,,,,,,40596,2021-05-10_21h52.09.014,judgeSpeechMusic_20210407_logNormShiftAmp,2020.1.2,MacIntel,60,,,,,,,,,,,,,,1,8.911735,,0,0,131,131,18,1,stimuli/stim_20210407_power2amp/equal_lnn_AM1.2Hz_92.m4a,,,
,,,,,,,,,,,,40596,2021-05-10_21h52.09.014,judgeSpeechMusic_20210407_logNormShiftAmp,2020.1.2,MacIntel,60,,,,,,,,,,,,,,2,6.93163,,0,0,132,132,123,1,stimuli/stim_20210407_power2amp/equal_lnn_AM5.4Hz_14.m4a,,,
,,,,,,,,,,,,40596,2021-05-10_21h52.09.014,judgeSpeechMusic_20210407_logNormShiftAmp,2020.1.2,MacIntel,60,,,,,,,,,,,,,,1,5.719665,,0,0,133,133,35,1,stimuli/stim_20210407_power2amp/equal_lnn_AM1.8Hz_100.m4a,,,
,,,,,,,,,,,,40596,2021-05-10_21h52.09.014,judgeSpeechMusic_20210407_logNormShiftAmp,2020.1.2,MacIntel,60,,,,,,,,,,,,,,1,5.60163,,0,0,134,134,41,1,stimuli/stim_20210407_power2amp/equal_lnn_AM1.8Hz_6.m4a,,,
,,,,,,,,,,,,40596,2021-05-10_21h52.09.014,judgeSpeechMusic_20210407_logNormShiftAmp,2020.1.2,MacIntel,60,,,,,,,,,,,,,,1,5.225465,,0,0,135,135,71,1,stimuli/stim_20210407_power2amp/equal_lnn_AM3Hz_77.m4a,,,
,,,,,,,,,,,,40596,2021-05-10_21h52.09.014,judgeSpeechMusic_20210407_logNormShiftAmp,2020.1.2,MacIntel,60,,,,,,,,,,,,,,1,5.58481,,0,0,136,136,15,1,stimuli/stim_20210407_power2amp/equal_lnn_AM1.2Hz_94.m4a,,,
,,,,,,,,,,,,40596,2021-05-10_21h52.09.014,judgeSpeechMusic_20210407_logNormShiftAmp,2020.1.2,MacIntel,60,,,,,,,,,,,,,,1,7.1987,,0,0,137,137,63,1,stimuli/stim_20210407_power2amp/equal_lnn_AM3Hz_64.m4a,,,
,,,,,,,,,,,,40596,2021-05-10_21h52.09.014,judgeSpeechMusic_20210407_logNormShiftAmp,2020.1.2,MacIntel,60,,,,,,,,,,,,,,1,6.181825,,0,0,138,138,67,1,stimuli/stim_20210407_power2amp/equal_lnn_AM3Hz_76.m4a,,,
,,,,,,,,,,,,40596,2021-05-10_21h52.09.014,judgeSpeechMusic_20210407_logNormShiftAmp,2020.1.2,MacIntel,60,,,,,,,,,,,,,,1,6.467825,,0,0,139,139,38,1,stimuli/stim_20210407_power2amp/equal_lnn_AM1.8Hz_47.m4a,,,
,,,,,,,,,,,,40596,2021-05-10_21h52.09.014,judgeSpeechMusic_20210407_logNormShiftAmp,2020.1.2,MacIntel,60,,,,,,,,,,,,,,1,6.201085,,0,0,140,140,23,1,stimuli/stim_20210407_power2amp/equal_lnn_AM1.2Hz_7.m4a,,,
,,,,,,,,,,,,40596,2021-05-10_21h52.09.014,judgeSpeechMusic_20210407_logNormShiftAmp,2020.1.2,MacIntel,60,,,,,,,,,,,,,,2,5.75606,,0,0,141,141,92,1,stimuli/stim_20210407_power2amp/equal_lnn_AM4.2Hz_76.m4a,,,
,,,,,,,,,,,,40596,2021-05-10_21h52.09.014,judgeSpeechMusic_20210407_logNormShiftAmp,2020.1.2,MacIntel,60,,,,,,,,,,,,,,2,7.588175,,0,0,142,142,22,1,stimuli/stim_20210407_power2amp/equal_lnn_AM1.2Hz_47.m4a,,,
,,,,,,,,,,,,40596,2021-05-10_21h52.09.014,judgeSpeechMusic_20210407_logNormShiftAmp,2020.1.2,MacIntel,60,,,,,,,,,,,,,,2,6.32033,,0,0,143,143,95,1,stimuli/stim_20210407_power2amp/equal_lnn_AM4.2Hz_26.m4a,,,
,,,,,,,,,,,,40596,2021-05-10_21h52.09.014,judgeSpeechMusic_20210407_logNormShiftAmp,2020.1.2,MacIntel,60,,,,,,,,,,,,,,2,6.583925,,0,0,144,144,97,1,stimuli/stim_20210407_power2amp/equal_lnn_AM4.2Hz_5.m4a,,,
,,,,,,,,,,,,40596,2021-05-10_21h52.09.014,judgeSpeechMusic_20210407_logNormShiftAmp,2020.1.2,MacIntel,60,,,,,,,,,,,,,,2,6.52375,,0,0,145,145,94,1,stimuli/stim_20210407_power2amp/equal_lnn_AM4.2Hz_71.m4a,,,
,,,,,,,,,,,,40596,2021-05-10_21h52.09.014,judgeSpeechMusic_20210407_logNormShiftAmp,2020.1.2,MacIntel,60,,,,,,,,,,,,,,2,6.66652,,0,0,146,146,51,1,stimuli/stim_20210407_power2amp/equal_lnn_AM2.4Hz_7.m4a,,,
,,,,,,,,,,,,40596,2021-05-10_21h52.09.014,judgeSpeechMusic_20210407_logNormShiftAmp,2020.1.2,MacIntel,60,,,,,,,,,,,,,,2,6.94028,,0,0,147,147,83,1,stimuli/stim_20210407_power2amp/equal_lnn_AM3.6Hz_98.m4a,,,
,,,,,,,,,,,,40596,2021-05-10_21h52.09.014,judgeSpeechMusic_20210407_logNormShiftAmp,2020.1.2,MacIntel,60,,,,,,,,,,,,,,2,6.572235,,0,0,148,148,138,1,stimuli/stim_20210407_power2amp/equal_lnn_AM6Hz_96.m4a,,,
,,,,,,,,,,,,40596,2021-05-10_21h52.09.014,judgeSpeechMusic_20210407_logNormShiftAmp,2020.1.2,MacIntel,60,,,,,,,,,,,,,,2,5.87477,,0,0,149,149,147,1,stimuli/stim_20210407_power2amp/equal_lnn_AM6Hz_33.m4a,,,
,,,,,,,,,,,,40596,2021-05-10_21h52.09.014,judgeSpeechMusic_20210407_logNormShiftAmp,2020.1.2,MacIntel,60,,,,,,,,,,,,,,2,5.624805,,0,1,0,150,48,1,stimuli/stim_20210407_power2amp/equal_lnn_AM2.4Hz_38.m4a,,,
,,,,,,,,,,,,40596,2021-05-10_21h52.09.014,judgeSpeechMusic_20210407_logNormShiftAmp,2020.1.2,MacIntel,60,,,,,,,,,,,,,,1,5.579525,,0,1,1,151,17,1,stimuli/stim_20210407_power2amp/equal_lnn_AM1.2Hz_63.m4a,,,
,,,,,,,,,,,,40596,2021-05-10_21h52.09.014,judgeSpeechMusic_20210407_logNormShiftAmp,2020.1.2,MacIntel,60,,,,,,,,,,,,,,2,5.593885,,0,1,2,152,64,1,stimuli/stim_20210407_power2amp/equal_lnn_AM3Hz_67.m4a,,,
,,,,,,,,,,,,40596,2021-05-10_21h52.09.014,judgeSpeechMusic_20210407_logNormShiftAmp,2020.1.2,MacIntel,60,,,,,,,,,,,,,,2,6.681055,4,1,1,3,153,141,1,stimuli/stim_20210407_power2amp/equal_lnn_AM6Hz_6.m4a,1.1595,,
,,,,,,,,,,,,40596,2021-05-10_21h52.09.014,judgeSpeechMusic_20210407_logNormShiftAmp,2020.1.2,MacIntel,60,,,,,,,,,,,,,,1,6.845695,,0,1,4,154,62,1,stimuli/stim_20210407_power2amp/equal_lnn_AM3Hz_60.m4a,,,
,,,,,,,,,,,,40596,2021-05-10_21h52.09.014,judgeSpeechMusic_20210407_logNormShiftAmp,2020.1.2,MacIntel,60,,,,,,,,,,,,,,1,8.860845,,0,1,5,155,9,1,stimuli/stim_20210407_power2amp/equal_lnn_AM0.6Hz_69.m4a,,,
,,,,,,,,,,,,40596,2021-05-10_21h52.09.014,judgeSpeechMusic_20210407_logNormShiftAmp,2020.1.2,MacIntel,60,,,,,,,,,,,,,,1,6.28072,,0,1,6,156,2,1,stimuli/stim_20210407_power2amp/equal_lnn_AM0.6Hz_7.m4a,,,
,,,,,,,,,,,,40596,2021-05-10_21h52.09.014,judgeSpeechMusic_20210407_logNormShiftAmp,2020.1.2,MacIntel,60,,,,,,,,,,,,,,2,5.95519,,0,1,7,157,113,1,stimuli/stim_20210407_power2amp/equal_lnn_AM4.8Hz_21.m4a,,,
,,,,,,,,,,,,40596,2021-05-10_21h52.09.014,judgeSpeechMusic_20210407_logNormShiftAmp,2020.1.2,MacIntel,60,,,,,,,,,,,,,,1,6.78287,,0,1,8,158,19,1,stimuli/stim_20210407_power2amp/equal_lnn_AM1.2Hz_84.m4a,,,
,,,,,,,,,,,,40596,2021-05-10_21h52.09.014,judgeSpeechMusic_20210407_logNormShiftAmp,2020.1.2,MacIntel,60,,,,,,,,,,,,,,1,6.298415,,0,1,9,159,91,1,stimuli/stim_20210407_power2amp/equal_lnn_AM4.2Hz_50.m4a,,,
,,,,,,,,,,,,40596,2021-05-10_21h52.09.014,judgeSpeechMusic_20210407_logNormShiftAmp,2020.1.2,MacIntel,60,,,,,,,,,,,,,,1,6.359735,,0,1,10,160,99,1,stimuli/stim_20210407_power2amp/equal_lnn_AM4.2Hz_34.m4a,,,
,,,,,,,,,,,,40596,2021-05-10_21h52.09.014,judgeSpeechMusic_20210407_logNormShiftAmp,2020.1.2,MacIntel,60,,,,,,,,,,,,,,1,7.8599,,0,1,11,161,140,1,stimuli/stim_20210407_power2amp/equal_lnn_AM6Hz_1.m4a,,,
,,,,,,,,,,,,40596,2021-05-10_21h52.09.014,judgeSpeechMusic_20210407_logNormShiftAmp,2020.1.2,MacIntel,60,,,,,,,,,,,,,,1,6.77067,,0,1,12,162,123,1,stimuli/stim_20210407_power2amp/equal_lnn_AM5.4Hz_14.m4a,,,
,,,,,,,,,,,,40596,2021-05-10_21h52.09.014,judgeSpeechMusic_20210407_logNormShiftAmp,2020.1.2,MacIntel,60,,,,,,,,,,,,,,2,7.94744,,0,1,13,163,54,1,stimuli/stim_20210407_power2amp/equal_lnn_AM2.4Hz_56.m4a,,,
,,,,,,,,,,,,40596,2021-05-10_21h52.09.014,judgeSpeechMusic_20210407_logNormShiftAmp,2020.1.2,MacIntel,60,,,,,,,,,,,,,,1,6.33874,,0,1,14,164,114,1,stimuli/stim_20210407_power2amp/equal_lnn_AM4.8Hz_96.m4a,,,
,,,,,,,,,,,,40596,2021-05-10_21h52.09.014,judgeSpeechMusic_20210407_logNormShiftAmp,2020.1.2,MacIntel,60,,,,,,,,,,,,,,1,5.663085,,0,1,15,165,82,1,stimuli/stim_20210407_power2amp/equal_lnn_AM3.6Hz_6.m4a,,,
,,,,,,,,,,,,40596,2021-05-10_21h52.09.014,judgeSpeechMusic_20210407_logNormShiftAmp,2020.1.2,MacIntel,60,,,,,,,,,,,,,,1,5.55414,,0,1,16,166,72,1,stimuli/stim_20210407_power2amp/equal_lnn_AM3Hz_56.m4a,,,
,,,,,,,,,,,,40596,2021-05-10_21h52.09.014,judgeSpeechMusic_20210407_logNormShiftAmp,2020.1.2,MacIntel,60,,,,,,,,,,,,,,1,5.525415,,0,1,17,167,15,1,stimuli/stim_20210407_power2amp/equal_lnn_AM1.2Hz_94.m4a,,,
,,,,,,,,,,,,40596,2021-05-10_21h52.09.014,judgeSpeechMusic_20210407_logNormShiftAmp,2020.1.2,MacIntel,60,,,,,,,,,,,,,,2,5.844465,,0,1,18,168,132,1,stimuli/stim_20210407_power2amp/equal_lnn_AM5.4Hz_12.m4a,,,
,,,,,,,,,,,,40596,2021-05-10_21h52.09.014,judgeSpeechMusic_20210407_logNormShiftAmp,2020.1.2,MacIntel,60,,,,,,,,,,,,,,1,6.867865,,0,1,19,169,65,1,stimuli/stim_20210407_power2amp/equal_lnn_AM3Hz_54.m4a,,,
,,,,,,,,,,,,40596,2021-05-10_21h52.09.014,judgeSpeechMusic_20210407_logNormShiftAmp,2020.1.2,MacIntel,60,,,,,,,,,,,,,,1,5.750935,,0,1,20,170,90,1,stimuli/stim_20210407_power2amp/equal_lnn_AM4.2Hz_65.m4a,,,
,,,,,,,,,,,,40596,2021-05-10_21h52.09.014,judgeSpeechMusic_20210407_logNormShiftAmp,2020.1.2,MacIntel,60,,,,,,,,,,,,,,1,5.63483,,0,1,21,171,103,1,stimuli/stim_20210407_power2amp/equal_lnn_AM4.2Hz_86.m4a,,,
,,,,,,,,,,,,40596,2021-05-10_21h52.09.014,judgeSpeechMusic_20210407_logNormShiftAmp,2020.1.2,MacIntel,60,,,,,,,,,,,,,,1,5.934375,,0,1,22,172,55,1,stimuli/stim_20210407_power2amp/equal_lnn_AM2.4Hz_85.m4a,,,
,,,,,,,,,,,,40596,2021-05-10_21h52.09.014,judgeSpeechMusic_20210407_logNormShiftAmp,2020.1.2,MacIntel,60,,,,,,,,,,,,,,1,5.59032,,0,1,23,173,70,1,stimuli/stim_20210407_power2amp/equal_lnn_AM3Hz_27.m4a,,,
,,,,,,,,,,,,40596,2021-05-10_21h52.09.014,judgeSpeechMusic_20210407_logNormShiftAmp,2020.1.2,MacIntel,60,,,,,,,,,,,,,,2,6.827875,,0,1,24,174,92,1,stimuli/stim_20210407_power2amp/equal_lnn_AM4.2Hz_76.m4a,,,
,,,,,,,,,,,,40596,2021-05-10_21h52.09.014,judgeSpeechMusic_20210407_logNormShiftAmp,2020.1.2,MacIntel,60,,,,,,,,,,,,,,2,6.83245,,0,1,25,175,111,1,stimuli/stim_20210407_power2amp/equal_lnn_AM4.8Hz_65.m4a,,,
,,,,,,,,,,,,40596,2021-05-10_21h52.09.014,judgeSpeechMusic_20210407_logNormShiftAmp,2020.1.2,MacIntel,60,,,,,,,,,,,,,,1,7.003475,1,1,1,26,176,78,1,stimuli/stim_20210407_power2amp/equal_lnn_AM3.6Hz_2.m4a,1.281995,,
,,,,,,,,,,,,40596,2021-05-10_21h52.09.014,judgeSpeechMusic_20210407_logNormShiftAmp,2020.1.2,MacIntel,60,,,,,,,,,,,,,,1,5.64246,,0,1,27,177,39,1,stimuli/stim_20210407_power2amp/equal_lnn_AM1.8Hz_39.m4a,,,
,,,,,,,,,,,,40596,2021-05-10_21h52.09.014,judgeSpeechMusic_20210407_logNormShiftAmp,2020.1.2,MacIntel,60,,,,,,,,,,,,,,2,6.306375,,0,1,28,178,104,1,stimuli/stim_20210407_power2amp/equal_lnn_AM4.2Hz_15.m4a,,,
,,,,,,,,,,,,40596,2021-05-10_21h52.09.014,judgeSpeechMusic_20210407_logNormShiftAmp,2020.1.2,MacIntel,60,,,,,,,,,,,,,,2,5.558005,,0,1,29,179,112,1,stimuli/stim_20210407_power2amp/equal_lnn_AM4.8Hz_99.m4a,,,
,,,,,,,,,,,,40596,2021-05-10_21h52.09.014,judgeSpeechMusic_20210407_logNormShiftAmp,2020.1.2,MacIntel,60,,,,,,,,,,,,,,1,6.58567,,0,1,30,180,108,1,stimuli/stim_20210407_power2amp/equal_lnn_AM4.8Hz_58.m4a,,,
,,,,,,,,,,,,40596,2021-05-10_21h52.09.014,judgeSpeechMusic_20210407_logNormShiftAmp,2020.1.2,MacIntel,60,,,,,,,,,,,,,,1,5.99779,,0,1,31,181,47,1,stimuli/stim_20210407_power2amp/equal_lnn_AM2.4Hz_50.m4a,,,
,,,,,,,,,,,,40596,2021-05-10_21h52.09.014,judgeSpeechMusic_20210407_logNormShiftAmp,2020.1.2,MacIntel,60,,,,,,,,,,,,,,1,5.90132,,0,1,32,182,131,1,stimuli/stim_20210407_power2amp/equal_lnn_AM5.4Hz_41.m4a,,,
,,,,,,,,,,,,40596,2021-05-10_21h52.09.014,judgeSpeechMusic_20210407_logNormShiftAmp,2020.1.2,MacIntel,60,,,,,,,,,,,,,,2,6.07525,,0,1,33,183,136,1,stimuli/stim_20210407_power2amp/equal_lnn_AM6Hz_28.m4a,,,
,,,,,,,,,,,,40596,2021-05-10_21h52.09.014,judgeSpeechMusic_20210407_logNormShiftAmp,2020.1.2,MacIntel,60,,,,,,,,,,,,,,2,11.371665,,0,1,34,184,101,1,stimuli/stim_20210407_power2amp/equal_lnn_AM4.2Hz_52.m4a,,,
,,,,,,,,,,,,40596,2021-05-10_21h52.09.014,judgeSpeechMusic_20210407_logNormShiftAmp,2020.1.2,MacIntel,60,,,,,,,,,,,,,,1,6.081365,,0,1,35,185,22,1,stimuli/stim_20210407_power2amp/equal_lnn_AM1.2Hz_47.m4a,,,
,,,,,,,,,,,,40596,2021-05-10_21h52.09.014,judgeSpeechMusic_20210407_logNormShiftAmp,2020.1.2,MacIntel,60,,,,,,,,,,,,,,1,5.863035,,0,1,36,186,36,1,stimuli/stim_20210407_power2amp/equal_lnn_AM1.8Hz_77.m4a,,,
,,,,,,,,,,,,40596,2021-05-10_21h52.09.014,judgeSpeechMusic_20210407_logNormShiftAmp,2020.1.2,MacIntel,60,,,,,,,,,,,,,,2,7.347725,,0,1,37,187,139,1,stimuli/stim_20210407_power2amp/equal_lnn_AM6Hz_10.m4a,,,
,,,,,,,,,,,,40596,2021-05-10_21h52.09.014,judgeSpeechMusic_20210407_logNormShiftAmp,2020.1.2,MacIntel,60,,,,,,,,,,,,,,2,6.392965,,0,1,38,188,120,1,stimuli/stim_20210407_power2amp/equal_lnn_AM5.4Hz_96.m4a,,,
,,,,,,,,,,,,40596,2021-05-10_21h52.09.014,judgeSpeechMusic_20210407_logNormShiftAmp,2020.1.2,MacIntel,60,,,,,,,,,,,,,,1,6.975655,,0,1,39,189,80,1,stimuli/stim_20210407_power2amp/equal_lnn_AM3.6Hz_100.m4a,,,
,,,,,,,,,,,,40596,2021-05-10_21h52.09.014,judgeSpeechMusic_20210407_logNormShiftAmp,2020.1.2,MacIntel,60,,,,,,,,,,,,,,1,7.001545,,0,1,40,190,148,1,stimuli/stim_20210407_power2amp/equal_lnn_AM6Hz_7.m4a,,,
,,,,,,,,,,,,40596,2021-05-10_21h52.09.014,judgeSpeechMusic_20210407_logNormShiftAmp,2020.1.2,MacIntel,60,,,,,,,,,,,,,,2,5.58267,,0,1,41,191,142,1,stimuli/stim_20210407_power2amp/equal_lnn_AM6Hz_49.m4a,,,
,,,,,,,,,,,,40596,2021-05-10_21h52.09.014,judgeSpeechMusic_20210407_logNormShiftAmp,2020.1.2,MacIntel,60,,,,,,,,,,,,,,1,7.71745,,0,1,42,192,52,1,stimuli/stim_20210407_power2amp/equal_lnn_AM2.4Hz_2.m4a,,,
,,,,,,,,,,,,40596,2021-05-10_21h52.09.014,judgeSpeechMusic_20210407_logNormShiftAmp,2020.1.2,MacIntel,60,,,,,,,,,,,,,,1,5.695905,,0,1,43,193,14,1,stimuli/stim_20210407_power2amp/equal_lnn_AM0.6Hz_61.m4a,,,
,,,,,,,,,,,,40596,2021-05-10_21h52.09.014,judgeSpeechMusic_20210407_logNormShiftAmp,2020.1.2,MacIntel,60,,,,,,,,,,,,,,1,6.822445,,0,1,44,194,18,1,stimuli/stim_20210407_power2amp/equal_lnn_AM1.2Hz_92.m4a,,,
,,,,,,,,,,,,40596,2021-05-10_21h52.09.014,judgeSpeechMusic_20210407_logNormShiftAmp,2020.1.2,MacIntel,60,,,,,,,,,,,,,,2,8.024485,,0,1,45,195,34,1,stimuli/stim_20210407_power2amp/equal_lnn_AM1.8Hz_22.m4a,,,
,,,,,,,,,,,,40596,2021-05-10_21h52.09.014,judgeSpeechMusic_20210407_logNormShiftAmp,2020.1.2,MacIntel,60,,,,,,,,,,,,,,2,6.44782,,0,1,46,196,40,1,stimuli/stim_20210407_power2amp/equal_lnn_AM1.8Hz_88.m4a,,,
,,,,,,,,,,,,40596,2021-05-10_21h52.09.014,judgeSpeechMusic_20210407_logNormShiftAmp,2020.1.2,MacIntel,60,,,,,,,,,,,,,,2,6.04787,,0,1,47,197,87,1,stimuli/stim_20210407_power2amp/equal_lnn_AM3.6Hz_54.m4a,,,
,,,,,,,,,,,,40596,2021-05-10_21h52.09.014,judgeSpeechMusic_20210407_logNormShiftAmp,2020.1.2,MacIntel,60,,,,,,,,,,,,,,2,5.548555,,0,1,48,198,27,1,stimuli/stim_20210407_power2amp/equal_lnn_AM1.2Hz_54.m4a,,,
,,,,,,,,,,,,40596,2021-05-10_21h52.09.014,judgeSpeechMusic_20210407_logNormShiftAmp,2020.1.2,MacIntel,60,,,,,,,,,,,,,,2,8.82526,,0,1,49,199,119,1,stimuli/stim_20210407_power2amp/equal_lnn_AM4.8Hz_61.m4a,,,
,,,,,,,,,,,,40596,2021-05-10_21h52.09.014,judgeSpeechMusic_20210407_logNormShiftAmp,2020.1.2,MacIntel,60,,,,,,,,,,,,,,2,7.45851,,0,1,50,200,28,1,stimuli/stim_20210407_power2amp/equal_lnn_AM1.2Hz_80.m4a,,,
,,,,,,,,,,,,40596,2021-05-10_21h52.09.014,judgeSpeechMusic_20210407_logNormShiftAmp,2020.1.2,MacIntel,60,,,,,,,,,,,,,,2,7.45796,2,1,1,51,201,56,1,stimuli/stim_20210407_power2amp/equal_lnn_AM2.4Hz_82.m4a,1.92295,,
,,,,,,,,,,,,40596,2021-05-10_21h52.09.014,judgeSpeechMusic_20210407_logNormShiftAmp,2020.1.2,MacIntel,60,,,,,,,,,,,,,,2,7.11301,,0,1,52,202,102,1,stimuli/stim_20210407_power2amp/equal_lnn_AM4.2Hz_78.m4a,,,
,,,,,,,,,,,,40596,2021-05-10_21h52.09.014,judgeSpeechMusic_20210407_logNormShiftAmp,2020.1.2,MacIntel,60,,,,,,,,,,,,,,1,6.472765,,0,1,53,203,134,1,stimuli/stim_20210407_power2amp/equal_lnn_AM5.4Hz_4.m4a,,,
,,,,,,,,,,,,40596,2021-05-10_21h52.09.014,judgeSpeechMusic_20210407_logNormShiftAmp,2020.1.2,MacIntel,60,,,,,,,,,,,,,,2,6.653255,,0,1,54,204,66,1,stimuli/stim_20210407_power2amp/equal_lnn_AM3Hz_57.m4a,,,
,,,,,,,,,,,,40596,2021-05-10_21h52.09.014,judgeSpeechMusic_20210407_logNormShiftAmp,2020.1.2,MacIntel,60,,,,,,,,,,,,,,1,6.73618,,0,1,55,205,43,1,stimuli/stim_20210407_power2amp/equal_lnn_AM1.8Hz_72.m4a,,,
,,,,,,,,,,,,40596,2021-05-10_21h52.09.014,judgeSpeechMusic_20210407_logNormShiftAmp,2020.1.2,MacIntel,60,,,,,,,,,,,,,,2,13.320565,,0,1,56,206,117,1,stimuli/stim_20210407_power2amp/equal_lnn_AM4.8Hz_15.m4a,,,
,,,,,,,,,,,,40596,2021-05-10_21h52.09.014,judgeSpeechMusic_20210407_logNormShiftAmp,2020.1.2,MacIntel,60,,,,,,,,,,,,,,1,6.22536,,0,1,57,207,61,1,stimuli/stim_20210407_power2amp/equal_lnn_AM3Hz_2.m4a,,,
,,,,,,,,,,,,40596,2021-05-10_21h52.09.014,judgeSpeechMusic_20210407_logNormShiftAmp,2020.1.2,MacIntel,60,,,,,,,,,,,,,,2,5.734695,,0,1,58,208,81,1,stimuli/stim_20210407_power2amp/equal_lnn_AM3.6Hz_78.m4a,,,
,,,,,,,,,,,,40596,2021-05-10_21h52.09.014,judgeSpeechMusic_20210407_logNormShiftAmp,2020.1.2,MacIntel,60,,,,,,,,,,,,,,2,6.286845,,0,1,59,209,60,1,stimuli/stim_20210407_power2amp/equal_lnn_AM3Hz_5.m4a,,,
,,,,,,,,,,,,40596,2021-05-10_21h52.09.014,judgeSpeechMusic_20210407_logNormShiftAmp,2020.1.2,MacIntel,60,,,,,,,,,,,,,,2,6.343305,,0,1,60,210,51,1,stimuli/stim_20210407_power2amp/equal_lnn_AM2.4Hz_7.m4a,,,
,,,,,,,,,,,,40596,2021-05-10_21h52.09.014,judgeSpeechMusic_20210407_logNormShiftAmp,2020.1.2,MacIntel,60,,,,,,,,,,,,,,1,5.79546,,0,1,61,211,149,1,stimuli/stim_20210407_power2amp/equal_lnn_AM6Hz_97.m4a,,,
,,,,,,,,,,,,40596,2021-05-10_21h52.09.014,judgeSpeechMusic_20210407_logNormShiftAmp,2020.1.2,MacIntel,60,,,,,,,,,,,,,,1,5.914595,,0,1,62,212,10,1,stimuli/stim_20210407_power2amp/equal_lnn_AM0.6Hz_5.m4a,,,
,,,,,,,,,,,,40596,2021-05-10_21h52.09.014,judgeSpeechMusic_20210407_logNormShiftAmp,2020.1.2,MacIntel,60,,,,,,,,,,,,,,1,5.995945,,0,1,63,213,76,1,stimuli/stim_20210407_power2amp/equal_lnn_AM3.6Hz_59.m4a,,,
,,,,,,,,,,,,40596,2021-05-10_21h52.09.014,judgeSpeechMusic_20210407_logNormShiftAmp,2020.1.2,MacIntel,60,,,,,,,,,,,,,,1,5.590705,,0,1,64,214,74,1,stimuli/stim_20210407_power2amp/equal_lnn_AM3Hz_33.m4a,,,
,,,,,,,,,,,,40596,2021-05-10_21h52.09.014,judgeSpeechMusic_20210407_logNormShiftAmp,2020.1.2,MacIntel,60,,,,,,,,,,,,,,1,5.82804,,0,1,65,215,98,1,stimuli/stim_20210407_power2amp/equal_lnn_AM4.2Hz_29.m4a,,,
,,,,,,,,,,,,40596,2021-05-10_21h52.09.014,judgeSpeechMusic_20210407_logNormShiftAmp,2020.1.2,MacIntel,60,,,,,,,,,,,,,,1,6.937695,,0,1,66,216,44,1,stimuli/stim_20210407_power2amp/equal_lnn_AM1.8Hz_24.m4a,,,
,,,,,,,,,,,,40596,2021-05-10_21h52.09.014,judgeSpeechMusic_20210407_logNormShiftAmp,2020.1.2,MacIntel,60,,,,,,,,,,,,,,2,9.966065,,0,1,67,217,143,1,stimuli/stim_20210407_power2amp/equal_lnn_AM6Hz_51.m4a,,,
,,,,,,,,,,,,40596,2021-05-10_21h52.09.014,judgeSpeechMusic_20210407_logNormShiftAmp,2020.1.2,MacIntel,60,,,,,,,,,,,,,,1,9.329495,,0,1,68,218,77,1,stimuli/stim_20210407_power2amp/equal_lnn_AM3.6Hz_79.m4a,,,
,,,,,,,,,,,,40596,2021-05-10_21h52.09.014,judgeSpeechMusic_20210407_logNormShiftAmp,2020.1.2,MacIntel,60,,,,,,,,,,,,,,2,7.261425,,0,1,69,219,122,1,stimuli/stim_20210407_power2amp/equal_lnn_AM5.4Hz_86.m4a,,,
,,,,,,,,,,,,40596,2021-05-10_21h52.09.014,judgeSpeechMusic_20210407_logNormShiftAmp,2020.1.2,MacIntel,60,,,,,,,,,,,,,,2,7.816275,,0,1,70,220,29,1,stimuli/stim_20210407_power2amp/equal_lnn_AM1.2Hz_32.m4a,,,
,,,,,,,,,,,,40596,2021-05-10_21h52.09.014,judgeSpeechMusic_20210407_logNormShiftAmp,2020.1.2,MacIntel,60,,,,,,,,,,,,,,2,6.549075,,0,1,71,221,31,1,stimuli/stim_20210407_power2amp/equal_lnn_AM1.8Hz_37.m4a,,,
,,,,,,,,,,,,40596,2021-05-10_21h52.09.014,judgeSpeechMusic_20210407_logNormShiftAmp,2020.1.2,MacIntel,60,,,,,,,,,,,,,,1,5.94658,,0,1,72,222,59,1,stimuli/stim_20210407_power2amp/equal_lnn_AM2.4Hz_59.m4a,,,
,,,,,,,,,,,,40596,2021-05-10_21h52.09.014,judgeSpeechMusic_20210407_logNormShiftAmp,2020.1.2,MacIntel,60,,,,,,,,,,,,,,1,5.53642,,0,1,73,223,147,1,stimuli/stim_20210407_power2amp/equal_lnn_AM6Hz_33.m4a,,,
,,,,,,,,,,,,40596,2021-05-10_21h52.09.014,judgeSpeechMusic_20210407_logNormShiftAmp,2020.1.2,MacIntel,60,,,,,,,,,,,,,,2,5.682385,,0,1,74,224,133,1,stimuli/stim_20210407_power2amp/equal_lnn_AM5.4Hz_76.m4a,,,
,,,,,,,,,,,,40596,2021-05-10_21h52.09.014,judgeSpeechMusic_20210407_logNormShiftAmp,2020.1.2,MacIntel,60,,,,,,,,,,,,,,2,5.801475,,0,1,75,225,85,1,stimuli/stim_20210407_power2amp/equal_lnn_AM3.6Hz_36.m4a,,,
,,,,,,,,,,,,40596,2021-05-10_21h52.09.014,judgeSpeechMusic_20210407_logNormShiftAmp,2020.1.2,MacIntel,60,,,,,,,,,,,,,,2,6.63668,1,1,1,76,226,13,1,stimuli/stim_20210407_power2amp/equal_lnn_AM0.6Hz_77.m4a,1.12232,,
,,,,,,,,,,,,40596,2021-05-10_21h52.09.014,judgeSpeechMusic_20210407_logNormShiftAmp,2020.1.2,MacIntel,60,,,,,,,,,,,,,,2,7.755135,,0,1,77,227,50,1,stimuli/stim_20210407_power2amp/equal_lnn_AM2.4Hz_42.m4a,,,
,,,,,,,,,,,,40596,2021-05-10_21h52.09.014,judgeSpeechMusic_20210407_logNormShiftAmp,2020.1.2,MacIntel,60,,,,,,,,,,,,,,2,6.89029,,0,1,78,228,21,1,stimuli/stim_20210407_power2amp/equal_lnn_AM1.2Hz_66.m4a,,,
,,,,,,,,,,,,40596,2021-05-10_21h52.09.014,judgeSpeechMusic_20210407_logNormShiftAmp,2020.1.2,MacIntel,60,,,,,,,,,,,,,,2,6.64039,,0,1,79,229,100,1,stimuli/stim_20210407_power2amp/equal_lnn_AM4.2Hz_28.m4a,,,
,,,,,,,,,,,,40596,2021-05-10_21h52.09.014,judgeSpeechMusic_20210407_logNormShiftAmp,2020.1.2,MacIntel,60,,,,,,,,,,,,,,1,6.23513,,0,1,80,230,12,1,stimuli/stim_20210407_power2amp/equal_lnn_AM0.6Hz_75.m4a,,,
,,,,,,,,,,,,40596,2021-05-10_21h52.09.014,judgeSpeechMusic_20210407_logNormShiftAmp,2020.1.2,MacIntel,60,,,,,,,,,,,,,,2,5.71491,,0,1,81,231,4,1,stimuli/stim_20210407_power2amp/equal_lnn_AM0.6Hz_29.m4a,,,
,,,,,,,,,,,,40596,2021-05-10_21h52.09.014,judgeSpeechMusic_20210407_logNormShiftAmp,2020.1.2,MacIntel,60,,,,,,,,,,,,,,2,5.857155,,0,1,82,232,83,1,stimuli/stim_20210407_power2amp/equal_lnn_AM3.6Hz_98.m4a,,,
,,,,,,,,,,,,40596,2021-05-10_21h52.09.014,judgeSpeechMusic_20210407_logNormShiftAmp,2020.1.2,MacIntel,60,,,,,,,,,,,,,,2,6.039515,,0,1,83,233,79,1,stimuli/stim_20210407_power2amp/equal_lnn_AM3.6Hz_83.m4a,,,
,,,,,,,,,,,,40596,2021-05-10_21h52.09.014,judgeSpeechMusic_20210407_logNormShiftAmp,2020.1.2,MacIntel,60,,,,,,,,,,,,,,2,6.128365,,0,1,84,234,137,1,stimuli/stim_20210407_power2amp/equal_lnn_AM6Hz_100.m4a,,,
,,,,,,,,,,,,40596,2021-05-10_21h52.09.014,judgeSpeechMusic_20210407_logNormShiftAmp,2020.1.2,MacIntel,60,,,,,,,,,,,,,,2,6.012715,,0,1,85,235,135,1,stimuli/stim_20210407_power2amp/equal_lnn_AM6Hz_64.m4a,,,
,,,,,,,,,,,,40596,2021-05-10_21h52.09.014,judgeSpeechMusic_20210407_logNormShiftAmp,2020.1.2,MacIntel,60,,,,,,,,,,,,,,2,5.806935,,0,1,86,236,46,1,stimuli/stim_20210407_power2amp/equal_lnn_AM2.4Hz_64.m4a,,,
,,,,,,,,,,,,40596,2021-05-10_21h52.09.014,judgeSpeechMusic_20210407_logNormShiftAmp,2020.1.2,MacIntel,60,,,,,,,,,,,,,,1,6.655745,,0,1,87,237,1,1,stimuli/stim_20210407_power2amp/equal_lnn_AM0.6Hz_84.m4a,,,
,,,,,,,,,,,,40596,2021-05-10_21h52.09.014,judgeSpeechMusic_20210407_logNormShiftAmp,2020.1.2,MacIntel,60,,,,,,,,,,,,,,2,6.920855,,0,1,88,238,118,1,stimuli/stim_20210407_power2amp/equal_lnn_AM4.8Hz_94.m4a,,,
,,,,,,,,,,,,40596,2021-05-10_21h52.09.014,judgeSpeechMusic_20210407_logNormShiftAmp,2020.1.2,MacIntel,60,,,,,,,,,,,,,,2,6.04663,,0,1,89,239,97,1,stimuli/stim_20210407_power2amp/equal_lnn_AM4.2Hz_5.m4a,,,
,,,,,,,,,,,,40596,2021-05-10_21h52.09.014,judgeSpeechMusic_20210407_logNormShiftAmp,2020.1.2,MacIntel,60,,,,,,,,,,,,,,1,5.723735,,0,1,90,240,33,1,stimuli/stim_20210407_power2amp/equal_lnn_AM1.8Hz_2.m4a,,,
,,,,,,,,,,,,40596,2021-05-10_21h52.09.014,judgeSpeechMusic_20210407_logNormShiftAmp,2020.1.2,MacIntel,60,,,,,,,,,,,,,,2,6.1939,,0,1,91,241,130,1,stimuli/stim_20210407_power2amp/equal_lnn_AM5.4Hz_72.m4a,,,
,,,,,,,,,,,,40596,2021-05-10_21h52.09.014,judgeSpeechMusic_20210407_logNormShiftAmp,2020.1.2,MacIntel,60,,,,,,,,,,,,,,2,6.57797,,0,1,92,242,3,1,stimuli/stim_20210407_power2amp/equal_lnn_AM0.6Hz_88.m4a,,,
,,,,,,,,,,,,40596,2021-05-10_21h52.09.014,judgeSpeechMusic_20210407_logNormShiftAmp,2020.1.2,MacIntel,60,,,,,,,,,,,,,,2,5.62186,,0,1,93,243,107,1,stimuli/stim_20210407_power2amp/equal_lnn_AM4.8Hz_52.m4a,,,
,,,,,,,,,,,,40596,2021-05-10_21h52.09.014,judgeSpeechMusic_20210407_logNormShiftAmp,2020.1.2,MacIntel,60,,,,,,,,,,,,,,2,5.625025,,0,1,94,244,106,1,stimuli/stim_20210407_power2amp/equal_lnn_AM4.8Hz_38.m4a,,,
,,,,,,,,,,,,40596,2021-05-10_21h52.09.014,judgeSpeechMusic_20210407_logNormShiftAmp,2020.1.2,MacIntel,60,,,,,,,,,,,,,,2,5.577895,,0,1,95,245,128,1,stimuli/stim_20210407_power2amp/equal_lnn_AM5.4Hz_11.m4a,,,
,,,,,,,,,,,,40596,2021-05-10_21h52.09.014,judgeSpeechMusic_20210407_logNormShiftAmp,2020.1.2,MacIntel,60,,,,,,,,,,,,,,1,5.679715,,0,1,96,246,5,1,stimuli/stim_20210407_power2amp/equal_lnn_AM0.6Hz_73.m4a,,,
,,,,,,,,,,,,40596,2021-05-10_21h52.09.014,judgeSpeechMusic_20210407_logNormShiftAmp,2020.1.2,MacIntel,60,,,,,,,,,,,,,,1,7.169505,1,1,1,97,247,8,1,stimuli/stim_20210407_power2amp/equal_lnn_AM0.6Hz_68.m4a,1.29877,,
,,,,,,,,,,,,40596,2021-05-10_21h52.09.014,judgeSpeechMusic_20210407_logNormShiftAmp,2020.1.2,MacIntel,60,,,,,,,,,,,,,,2,6.65374,,0,1,98,248,86,1,stimuli/stim_20210407_power2amp/equal_lnn_AM3.6Hz_12.m4a,,,
,,,,,,,,,,,,40596,2021-05-10_21h52.09.014,judgeSpeechMusic_20210407_logNormShiftAmp,2020.1.2,MacIntel,60,,,,,,,,,,,,,,2,6.324435,,0,1,99,249,124,1,stimuli/stim_20210407_power2amp/equal_lnn_AM5.4Hz_33.m4a,,,
,,,,,,,,,,,,40596,2021-05-10_21h52.09.014,judgeSpeechMusic_20210407_logNormShiftAmp,2020.1.2,MacIntel,60,,,,,,,,,,,,,,2,6.26225,,0,1,100,250,53,1,stimuli/stim_20210407_power2amp/equal_lnn_AM2.4Hz_26.m4a,,,
,,,,,,,,,,,,40596,2021-05-10_21h52.09.014,judgeSpeechMusic_20210407_logNormShiftAmp,2020.1.2,MacIntel,60,,,,,,,,,,,,,,2,6.14796,,0,1,101,251,38,1,stimuli/stim_20210407_power2amp/equal_lnn_AM1.8Hz_47.m4a,,,
,,,,,,,,,,,,40596,2021-05-10_21h52.09.014,judgeSpeechMusic_20210407_logNormShiftAmp,2020.1.2,MacIntel,60,,,,,,,,,,,,,,2,5.565405,,0,1,102,252,67,1,stimuli/stim_20210407_power2amp/equal_lnn_AM3Hz_76.m4a,,,
,,,,,,,,,,,,40596,2021-05-10_21h52.09.014,judgeSpeechMusic_20210407_logNormShiftAmp,2020.1.2,MacIntel,60,,,,,,,,,,,,,,2,5.536475,,0,1,103,253,144,1,stimuli/stim_20210407_power2amp/equal_lnn_AM6Hz_98.m4a,,,
,,,,,,,,,,,,40596,2021-05-10_21h52.09.014,judgeSpeechMusic_20210407_logNormShiftAmp,2020.1.2,MacIntel,60,,,,,,,,,,,,,,1,5.928705,,0,1,104,254,16,1,stimuli/stim_20210407_power2amp/equal_lnn_AM1.2Hz_35.m4a,,,
,,,,,,,,,,,,40596,2021-05-10_21h52.09.014,judgeSpeechMusic_20210407_logNormShiftAmp,2020.1.2,MacIntel,60,,,,,,,,,,,,,,2,6.8987,,0,1,105,255,93,1,stimuli/stim_20210407_power2amp/equal_lnn_AM4.2Hz_77.m4a,,,
,,,,,,,,,,,,40596,2021-05-10_21h52.09.014,judgeSpeechMusic_20210407_logNormShiftAmp,2020.1.2,MacIntel,60,,,,,,,,,,,,,,1,7.355415,,0,1,106,256,25,1,stimuli/stim_20210407_power2amp/equal_lnn_AM1.2Hz_6.m4a,,,
,,,,,,,,,,,,40596,2021-05-10_21h52.09.014,judgeSpeechMusic_20210407_logNormShiftAmp,2020.1.2,MacIntel,60,,,,,,,,,,,,,,2,7.27447,,0,1,107,257,88,1,stimuli/stim_20210407_power2amp/equal_lnn_AM3.6Hz_49.m4a,,,
,,,,,,,,,,,,40596,2021-05-10_21h52.09.014,judgeSpeechMusic_20210407_logNormShiftAmp,2020.1.2,MacIntel,60,,,,,,,,,,,,,,2,6.956705,,0,1,108,258,11,1,stimuli/stim_20210407_power2amp/equal_lnn_AM0.6Hz_49.m4a,,,
,,,,,,,,,,,,40596,2021-05-10_21h52.09.014,judgeSpeechMusic_20210407_logNormShiftAmp,2020.1.2,MacIntel,60,,,,,,,,,,,,,,2,6.357865,,0,1,109,259,95,1,stimuli/stim_20210407_power2amp/equal_lnn_AM4.2Hz_26.m4a,,,
,,,,,,,,,,,,40596,2021-05-10_21h52.09.014,judgeSpeechMusic_20210407_logNormShiftAmp,2020.1.2,MacIntel,60,,,,,,,,,,,,,,2,6.9828,,0,1,110,260,71,1,stimuli/stim_20210407_power2amp/equal_lnn_AM3Hz_77.m4a,,,
,,,,,,,,,,,,40596,2021-05-10_21h52.09.014,judgeSpeechMusic_20210407_logNormShiftAmp,2020.1.2,MacIntel,60,,,,,,,,,,,,,,2,6.040315,,0,1,111,261,30,1,stimuli/stim_20210407_power2amp/equal_lnn_AM1.8Hz_51.m4a,,,
,,,,,,,,,,,,40596,2021-05-10_21h52.09.014,judgeSpeechMusic_20210407_logNormShiftAmp,2020.1.2,MacIntel,60,,,,,,,,,,,,,,2,6.50619,,0,1,112,262,68,1,stimuli/stim_20210407_power2amp/equal_lnn_AM3Hz_37.m4a,,,
,,,,,,,,,,,,40596,2021-05-10_21h52.09.014,judgeSpeechMusic_20210407_logNormShiftAmp,2020.1.2,MacIntel,60,,,,,,,,,,,,,,2,6.37817,,0,1,113,263,49,1,stimuli/stim_20210407_power2amp/equal_lnn_AM2.4Hz_16.m4a,,,
,,,,,,,,,,,,40596,2021-05-10_21h52.09.014,judgeSpeechMusic_20210407_logNormShiftAmp,2020.1.2,MacIntel,60,,,,,,,,,,,,,,2,5.64724,,0,1,114,264,69,1,stimuli/stim_20210407_power2amp/equal_lnn_AM3Hz_36.m4a,,,
,,,,,,,,,,,,40596,2021-05-10_21h52.09.014,judgeSpeechMusic_20210407_logNormShiftAmp,2020.1.2,MacIntel,60,,,,,,,,,,,,,,2,6.152915,,0,1,115,265,26,1,stimuli/stim_20210407_power2amp/equal_lnn_AM1.2Hz_45.m4a,,,
,,,,,,,,,,,,40596,2021-05-10_21h52.09.014,judgeSpeechMusic_20210407_logNormShiftAmp,2020.1.2,MacIntel,60,,,,,,,,,,,,,,2,6.06815,,0,1,116,266,23,1,stimuli/stim_20210407_power2amp/equal_lnn_AM1.2Hz_7.m4a,,,
,,,,,,,,,,,,40596,2021-05-10_21h52.09.014,judgeSpeechMusic_20210407_logNormShiftAmp,2020.1.2,MacIntel,60,,,,,,,,,,,,,,2,5.874305,,0,1,117,267,37,1,stimuli/stim_20210407_power2amp/equal_lnn_AM1.8Hz_70.m4a,,,
,,,,,,,,,,,,40596,2021-05-10_21h52.09.014,judgeSpeechMusic_20210407_logNormShiftAmp,2020.1.2,MacIntel,60,,,,,,,,,,,,,,2,6.58938,1,1,1,118,268,73,1,stimuli/stim_20210407_power2amp/equal_lnn_AM3Hz_93.m4a,1.128525,,
,,,,,,,,,,,,40596,2021-05-10_21h52.09.014,judgeSpeechMusic_20210407_logNormShiftAmp,2020.1.2,MacIntel,60,,,,,,,,,,,,,,2,8.10903,,0,1,119,269,116,1,stimuli/stim_20210407_power2amp/equal_lnn_AM4.8Hz_100.m4a,,,
,,,,,,,,,,,,40596,2021-05-10_21h52.09.014,judgeSpeechMusic_20210407_logNormShiftAmp,2020.1.2,MacIntel,60,,,,,,,,,,,,,,1,7.410575,,0,1,120,270,110,1,stimuli/stim_20210407_power2amp/equal_lnn_AM4.8Hz_76.m4a,,,
,,,,,,,,,,,,40596,2021-05-10_21h52.09.014,judgeSpeechMusic_20210407_logNormShiftAmp,2020.1.2,MacIntel,60,,,,,,,,,,,,,,2,11.37751,,0,1,121,271,109,1,stimuli/stim_20210407_power2amp/equal_lnn_AM4.8Hz_93.m4a,,,
,,,,,,,,,,,,40596,2021-05-10_21h52.09.014,judgeSpeechMusic_20210407_logNormShiftAmp,2020.1.2,MacIntel,60,,,,,,,,,,,,,,1,6.39131,,0,1,122,272,105,1,stimuli/stim_20210407_power2amp/equal_lnn_AM4.8Hz_73.m4a,,,
,,,,,,,,,,,,40596,2021-05-10_21h52.09.014,judgeSpeechMusic_20210407_logNormShiftAmp,2020.1.2,MacIntel,60,,,,,,,,,,,,,,2,5.66421,,0,1,123,273,89,1,stimuli/stim_20210407_power2amp/equal_lnn_AM3.6Hz_95.m4a,,,
,,,,,,,,,,,,40596,2021-05-10_21h52.09.014,judgeSpeechMusic_20210407_logNormShiftAmp,2020.1.2,MacIntel,60,,,,,,,,,,,,,,2,6.059825,,0,1,124,274,115,1,stimuli/stim_20210407_power2amp/equal_lnn_AM4.8Hz_50.m4a,,,
,,,,,,,,,,,,40596,2021-05-10_21h52.09.014,judgeSpeechMusic_20210407_logNormShiftAmp,2020.1.2,MacIntel,60,,,,,,,,,,,,,,1,6.459405,,0,1,125,275,0,1,stimuli/stim_20210407_power2amp/equal_lnn_AM0.6Hz_1.m4a,,,
,,,,,,,,,,,,40596,2021-05-10_21h52.09.014,judgeSpeechMusic_20210407_logNormShiftAmp,2020.1.2,MacIntel,60,,,,,,,,,,,,,,1,5.981325,,0,1,126,276,6,1,stimuli/stim_20210407_power2amp/equal_lnn_AM0.6Hz_94.m4a,,,
,,,,,,,,,,,,40596,2021-05-10_21h52.09.014,judgeSpeechMusic_20210407_logNormShiftAmp,2020.1.2,MacIntel,60,,,,,,,,,,,,,,1,6.00376,,0,1,127,277,32,1,stimuli/stim_20210407_power2amp/equal_lnn_AM1.8Hz_46.m4a,,,
,,,,,,,,,,,,40596,2021-05-10_21h52.09.014,judgeSpeechMusic_20210407_logNormShiftAmp,2020.1.2,MacIntel,60,,,,,,,,,,,,,,2,5.679215,,0,1,128,278,84,1,stimuli/stim_20210407_power2amp/equal_lnn_AM3.6Hz_35.m4a,,,
,,,,,,,,,,,,40596,2021-05-10_21h52.09.014,judgeSpeechMusic_20210407_logNormShiftAmp,2020.1.2,MacIntel,60,,,,,,,,,,,,,,1,7.66313,,0,1,129,279,63,1,stimuli/stim_20210407_power2amp/equal_lnn_AM3Hz_64.m4a,,,
,,,,,,,,,,,,40596,2021-05-10_21h52.09.014,judgeSpeechMusic_20210407_logNormShiftAmp,2020.1.2,MacIntel,60,,,,,,,,,,,,,,2,6.210475,,0,1,130,280,145,1,stimuli/stim_20210407_power2amp/equal_lnn_AM6Hz_52.m4a,,,
,,,,,,,,,,,,40596,2021-05-10_21h52.09.014,judgeSpeechMusic_20210407_logNormShiftAmp,2020.1.2,MacIntel,60,,,,,,,,,,,,,,1,5.62967,,0,1,131,281,42,1,stimuli/stim_20210407_power2amp/equal_lnn_AM1.8Hz_14.m4a,,,
,,,,,,,,,,,,40596,2021-05-10_21h52.09.014,judgeSpeechMusic_20210407_logNormShiftAmp,2020.1.2,MacIntel,60,,,,,,,,,,,,,,2,6.919365,,0,1,132,282,94,1,stimuli/stim_20210407_power2amp/equal_lnn_AM4.2Hz_71.m4a,,,
,,,,,,,,,,,,40596,2021-05-10_21h52.09.014,judgeSpeechMusic_20210407_logNormShiftAmp,2020.1.2,MacIntel,60,,,,,,,,,,,,,,2,6.126385,,0,1,133,283,41,1,stimuli/stim_20210407_power2amp/equal_lnn_AM1.8Hz_6.m4a,,,
,,,,,,,,,,,,40596,2021-05-10_21h52.09.014,judgeSpeechMusic_20210407_logNormShiftAmp,2020.1.2,MacIntel,60,,,,,,,,,,,,,,2,5.76716,,0,1,134,284,126,1,stimuli/stim_20210407_power2amp/equal_lnn_AM5.4Hz_10.m4a,,,
,,,,,,,,,,,,40596,2021-05-10_21h52.09.014,judgeSpeechMusic_20210407_logNormShiftAmp,2020.1.2,MacIntel,60,,,,,,,,,,,,,,1,6.76775,,0,1,135,285,57,1,stimuli/stim_20210407_power2amp/equal_lnn_AM2.4Hz_92.m4a,,,
,,,,,,,,,,,,40596,2021-05-10_21h52.09.014,judgeSpeechMusic_20210407_logNormShiftAmp,2020.1.2,MacIntel,60,,,,,,,,,,,,,,2,6.75329,,0,1,136,286,20,1,stimuli/stim_20210407_power2amp/equal_lnn_AM1.2Hz_77.m4a,,,
,,,,,,,,,,,,40596,2021-05-10_21h52.09.014,judgeSpeechMusic_20210407_logNormShiftAmp,2020.1.2,MacIntel,60,,,,,,,,,,,,,,2,5.70277,,0,1,137,287,138,1,stimuli/stim_20210407_power2amp/equal_lnn_AM6Hz_96.m4a,,,
,,,,,,,,,,,,40596,2021-05-10_21h52.09.014,judgeSpeechMusic_20210407_logNormShiftAmp,2020.1.2,MacIntel,60,,,,,,,,,,,,,,2,5.59461,,0,1,138,288,96,1,stimuli/stim_20210407_power2amp/equal_lnn_AM4.2Hz_54.m4a,,,
,,,,,,,,,,,,40596,2021-05-10_21h52.09.014,judgeSpeechMusic_20210407_logNormShiftAmp,2020.1.2,MacIntel,60,,,,,,,,,,,,,,1,6.94679,1,1,1,139,289,7,1,stimuli/stim_20210407_power2amp/equal_lnn_AM0.6Hz_8.m4a,1.132125,,
,,,,,,,,,,,,40596,2021-05-10_21h52.09.014,judgeSpeechMusic_20210407_logNormShiftAmp,2020.1.2,MacIntel,60,,,,,,,,,,,,,,2,6.431085,,0,1,140,290,125,1,stimuli/stim_20210407_power2amp/equal_lnn_AM5.4Hz_19.m4a,,,
,,,,,,,,,,,,40596,2021-05-10_21h52.09.014,judgeSpeechMusic_20210407_logNormShiftAmp,2020.1.2,MacIntel,60,,,,,,,,,,,,,,2,5.4218,,0,1,141,291,127,1,stimuli/stim_20210407_power2amp/equal_lnn_AM5.4Hz_85.m4a,,,
,,,,,,,,,,,,40596,2021-05-10_21h52.09.014,judgeSpeechMusic_20210407_logNormShiftAmp,2020.1.2,MacIntel,60,,,,,,,,,,,,,,2,7.749305,,0,1,142,292,35,1,stimuli/stim_20210407_power2amp/equal_lnn_AM1.8Hz_100.m4a,,,
,,,,,,,,,,,,40596,2021-05-10_21h52.09.014,judgeSpeechMusic_20210407_logNormShiftAmp,2020.1.2,MacIntel,60,,,,,,,,,,,,,,2,6.92904,,0,1,143,293,45,1,stimuli/stim_20210407_power2amp/equal_lnn_AM2.4Hz_74.m4a,,,
,,,,,,,,,,,,40596,2021-05-10_21h52.09.014,judgeSpeechMusic_20210407_logNormShiftAmp,2020.1.2,MacIntel,60,,,,,,,,,,,,,,2,6.500755,,0,1,144,294,121,1,stimuli/stim_20210407_power2amp/equal_lnn_AM5.4Hz_9.m4a,,,
,,,,,,,,,,,,40596,2021-05-10_21h52.09.014,judgeSpeechMusic_20210407_logNormShiftAmp,2020.1.2,MacIntel,60,,,,,,,,,,,,,,2,6.264525,,0,1,145,295,24,1,stimuli/stim_20210407_power2amp/equal_lnn_AM1.2Hz_76.m4a,,,
,,,,,,,,,,,,40596,2021-05-10_21h52.09.014,judgeSpeechMusic_20210407_logNormShiftAmp,2020.1.2,MacIntel,60,,,,,,,,,,,,,,2,5.5926,,0,1,146,296,146,1,stimuli/stim_20210407_power2amp/equal_lnn_AM6Hz_71.m4a,,,
,,,,,,,,,,,,40596,2021-05-10_21h52.09.014,judgeSpeechMusic_20210407_logNormShiftAmp,2020.1.2,MacIntel,60,,,,,,,,,,,,,,2,6.757535,,0,1,147,297,129,1,stimuli/stim_20210407_power2amp/equal_lnn_AM5.4Hz_18.m4a,,,
,,,,,,,,,,,,40596,2021-05-10_21h52.09.014,judgeSpeechMusic_20210407_logNormShiftAmp,2020.1.2,MacIntel,60,,,,,,,,,,,,,,2,6.461635,,0,1,148,298,75,1,stimuli/stim_20210407_power2amp/equal_lnn_AM3.6Hz_97.m4a,,,
,,,,,,,,,,,,40596,2021-05-10_21h52.09.014,judgeSpeechMusic_20210407_logNormShiftAmp,2020.1.2,MacIntel,60,,,,,,,,,,,,,,2,6.882745,,0,1,149,299,58,1,stimuli/stim_20210407_power2amp/equal_lnn_AM2.4Hz_73.m4a,,,
,,,,,,,,,,,,40596,2021-05-10_21h52.09.014,judgeSpeechMusic_20210407_logNormShiftAmp,2020.1.2,MacIntel,60,,,,,,,,,,,,,,,,,,,,,,,,,space,5.946815
