headphoneResponse.keys,headphoneResponse.corr,headphoneResponse.rt,headphoneTrial.thisRepN,headphoneTrial.thisTrialN,headphoneTrial.thisN,headphoneTrial.thisIndex,headphoneTrial.ran,headphone_sound1,headphone_sound2,headphone_sound3,corrAns,participant,date,expName,psychopyVersion,OS,frameRate,trainSlider.response,trainSlider.rt,beepTrainResponse.keys,beepTrainResponse.corr,trainingTrials.thisRepN,trainingTrials.thisTrialN,trainingTrials.thisN,trainingTrials.thisIndex,trainingTrials.ran,trainAudioFile,beepTrainResponse.rt,readyReal_resp.keys,readyReal_resp.rt,ratingSlider.response,ratingSlider.rt,beepResp.keys,beepResp.corr,expTrials.thisRepN,expTrials.thisTrialN,expTrials.thisN,expTrials.thisIndex,expTrials.ran,audioFile,beepResp.rt,end_resp.keys,end_resp.rt
1,1,0.544805,0,0,0,4,1,stimuli/screen_quiet.wav,stimuli/screen_antiphase.wav,stimuli/screen_origin.wav,1,40619,2021-04-29_20h55.30.128,judgeSpeechMusic_20210407_logNormShiftAmp,2020.1.2,MacIntel,60,,,,,,,,,,,,,,,,,,,,,,,,,,
3,1,0.373905,0,1,1,2,1,stimuli/screen_origin.wav,stimuli/screen_antiphase.wav,stimuli/screen_quiet.wav,3,40619,2021-04-29_20h55.30.128,judgeSpeechMusic_20210407_logNormShiftAmp,2020.1.2,MacIntel,60,,,,,,,,,,,,,,,,,,,,,,,,,,
2,1,0.330055,0,2,2,1,1,stimuli/screen_antiphase.wav,stimuli/screen_quiet.wav,stimuli/screen_origin.wav,2,40619,2021-04-29_20h55.30.128,judgeSpeechMusic_20210407_logNormShiftAmp,2020.1.2,MacIntel,60,,,,,,,,,,,,,,,,,,,,,,,,,,
2,1,0.27745,0,3,3,3,1,stimuli/screen_origin.wav,stimuli/screen_quiet.wav,stimuli/screen_antiphase.wav,2,40619,2021-04-29_20h55.30.128,judgeSpeechMusic_20210407_logNormShiftAmp,2020.1.2,MacIntel,60,,,,,,,,,,,,,,,,,,,,,,,,,,
3,1,0.38864,0,4,4,0,1,stimuli/screen_antiphase.wav,stimuli/screen_origin.wav,stimuli/screen_quiet.wav,3,40619,2021-04-29_20h55.30.128,judgeSpeechMusic_20210407_logNormShiftAmp,2020.1.2,MacIntel,60,,,,,,,,,,,,,,,,,,,,,,,,,,
1,1,0.292815,0,5,5,5,1,stimuli/screen_quiet.wav,stimuli/screen_origin.wav,stimuli/screen_antiphase.wav,1,40619,2021-04-29_20h55.30.128,judgeSpeechMusic_20210407_logNormShiftAmp,2020.1.2,MacIntel,60,,,,,,,,,,,,,,,,,,,,,,,,,,
,,,,,,,,,,,,40619,2021-04-29_20h55.30.128,judgeSpeechMusic_20210407_logNormShiftAmp,2020.1.2,MacIntel,60,2,10.420205,,0,0,0,0,1,1,stimuli/stim_20210407_power2amp/equal_lnn_AM_training2.7Hz.m4a,,,,,,,,,,,,,,,,
,,,,,,,,,,,,40619,2021-04-29_20h55.30.128,judgeSpeechMusic_20210407_logNormShiftAmp,2020.1.2,MacIntel,60,2,6.862485,,0,0,1,1,0,1,stimuli/stim_20210407_power2amp/equal_lnn_AM_training1.5Hz.m4a,,,,,,,,,,,,,,,,
,,,,,,,,,,,,40619,2021-04-29_20h55.30.128,judgeSpeechMusic_20210407_logNormShiftAmp,2020.1.2,MacIntel,60,1,7.55541,4,1,0,2,2,3,1,stimuli/stim_20210407_power2amp/equal_lnn_AM_training5.1Hz.m4a,2.28953,,,,,,,,,,,,,,,
,,,,,,,,,,,,40619,2021-04-29_20h55.30.128,judgeSpeechMusic_20210407_logNormShiftAmp,2020.1.2,MacIntel,60,2,9.10793,,0,0,3,3,2,1,stimuli/stim_20210407_power2amp/equal_lnn_AM_training3.9Hz.m4a,,,,,,,,,,,,,,,,
,,,,,,,,,,,,40619,2021-04-29_20h55.30.128,judgeSpeechMusic_20210407_logNormShiftAmp,2020.1.2,MacIntel,60,,,,,,,,,,,,space,2.838135,2,10.63455,,0,0,0,0,62,1,stimuli/stim_20210407_power2amp/equal_lnn_AM3Hz_76.m4a,,,
,,,,,,,,,,,,40619,2021-04-29_20h55.30.128,judgeSpeechMusic_20210407_logNormShiftAmp,2020.1.2,MacIntel,60,,,,,,,,,,,,,,1,8.71415,,0,0,1,1,4,1,stimuli/stim_20210407_power2amp/equal_lnn_AM0.6Hz_4.m4a,,,
,,,,,,,,,,,,40619,2021-04-29_20h55.30.128,judgeSpeechMusic_20210407_logNormShiftAmp,2020.1.2,MacIntel,60,,,,,,,,,,,,,,1,7.05777,,0,0,2,2,59,1,stimuli/stim_20210407_power2amp/equal_lnn_AM2.4Hz_85.m4a,,,
,,,,,,,,,,,,40619,2021-04-29_20h55.30.128,judgeSpeechMusic_20210407_logNormShiftAmp,2020.1.2,MacIntel,60,,,,,,,,,,,,,,2,6.77134,,0,0,3,3,71,1,stimuli/stim_20210407_power2amp/equal_lnn_AM3Hz_8.m4a,,,
,,,,,,,,,,,,40619,2021-04-29_20h55.30.128,judgeSpeechMusic_20210407_logNormShiftAmp,2020.1.2,MacIntel,60,,,,,,,,,,,,,,1,7.11767,,0,0,4,4,93,1,stimuli/stim_20210407_power2amp/equal_lnn_AM4.2Hz_87.m4a,,,
,,,,,,,,,,,,40619,2021-04-29_20h55.30.128,judgeSpeechMusic_20210407_logNormShiftAmp,2020.1.2,MacIntel,60,,,,,,,,,,,,,,2,6.078415,,0,0,5,5,41,1,stimuli/stim_20210407_power2amp/equal_lnn_AM1.8Hz_38.m4a,,,
,,,,,,,,,,,,40619,2021-04-29_20h55.30.128,judgeSpeechMusic_20210407_logNormShiftAmp,2020.1.2,MacIntel,60,,,,,,,,,,,,,,2,5.502315,,0,0,6,6,79,1,stimuli/stim_20210407_power2amp/equal_lnn_AM3.6Hz_1.m4a,,,
,,,,,,,,,,,,40619,2021-04-29_20h55.30.128,judgeSpeechMusic_20210407_logNormShiftAmp,2020.1.2,MacIntel,60,,,,,,,,,,,,,,1,6.157975,,0,0,7,7,1,1,stimuli/stim_20210407_power2amp/equal_lnn_AM0.6Hz_86.m4a,,,
,,,,,,,,,,,,40619,2021-04-29_20h55.30.128,judgeSpeechMusic_20210407_logNormShiftAmp,2020.1.2,MacIntel,60,,,,,,,,,,,,,,1,5.969025,,0,0,8,8,27,1,stimuli/stim_20210407_power2amp/equal_lnn_AM1.2Hz_54.m4a,,,
,,,,,,,,,,,,40619,2021-04-29_20h55.30.128,judgeSpeechMusic_20210407_logNormShiftAmp,2020.1.2,MacIntel,60,,,,,,,,,,,,,,1,6.09384,,0,0,9,9,122,1,stimuli/stim_20210407_power2amp/equal_lnn_AM5.4Hz_83.m4a,,,
,,,,,,,,,,,,40619,2021-04-29_20h55.30.128,judgeSpeechMusic_20210407_logNormShiftAmp,2020.1.2,MacIntel,60,,,,,,,,,,,,,,2,7.20522,,0,0,10,10,43,1,stimuli/stim_20210407_power2amp/equal_lnn_AM1.8Hz_79.m4a,,,
,,,,,,,,,,,,40619,2021-04-29_20h55.30.128,judgeSpeechMusic_20210407_logNormShiftAmp,2020.1.2,MacIntel,60,,,,,,,,,,,,,,2,6.17074,,0,0,11,11,39,1,stimuli/stim_20210407_power2amp/equal_lnn_AM1.8Hz_98.m4a,,,
,,,,,,,,,,,,40619,2021-04-29_20h55.30.128,judgeSpeechMusic_20210407_logNormShiftAmp,2020.1.2,MacIntel,60,,,,,,,,,,,,,,1,5.91849,,0,0,12,12,147,1,stimuli/stim_20210407_power2amp/equal_lnn_AM6Hz_4.m4a,,,
,,,,,,,,,,,,40619,2021-04-29_20h55.30.128,judgeSpeechMusic_20210407_logNormShiftAmp,2020.1.2,MacIntel,60,,,,,,,,,,,,,,1,5.957935,,0,0,13,13,127,1,stimuli/stim_20210407_power2amp/equal_lnn_AM5.4Hz_55.m4a,,,
,,,,,,,,,,,,40619,2021-04-29_20h55.30.128,judgeSpeechMusic_20210407_logNormShiftAmp,2020.1.2,MacIntel,60,,,,,,,,,,,,,,1,6.37619,,0,0,14,14,133,1,stimuli/stim_20210407_power2amp/equal_lnn_AM5.4Hz_52.m4a,,,
,,,,,,,,,,,,40619,2021-04-29_20h55.30.128,judgeSpeechMusic_20210407_logNormShiftAmp,2020.1.2,MacIntel,60,,,,,,,,,,,,,,1,6.579385,,0,0,15,15,11,1,stimuli/stim_20210407_power2amp/equal_lnn_AM0.6Hz_29.m4a,,,
,,,,,,,,,,,,40619,2021-04-29_20h55.30.128,judgeSpeechMusic_20210407_logNormShiftAmp,2020.1.2,MacIntel,60,,,,,,,,,,,,,,1,6.10357,,0,0,16,16,113,1,stimuli/stim_20210407_power2amp/equal_lnn_AM4.8Hz_5.m4a,,,
,,,,,,,,,,,,40619,2021-04-29_20h55.30.128,judgeSpeechMusic_20210407_logNormShiftAmp,2020.1.2,MacIntel,60,,,,,,,,,,,,,,1,7.254705,,0,0,17,17,95,1,stimuli/stim_20210407_power2amp/equal_lnn_AM4.2Hz_48.m4a,,,
,,,,,,,,,,,,40619,2021-04-29_20h55.30.128,judgeSpeechMusic_20210407_logNormShiftAmp,2020.1.2,MacIntel,60,,,,,,,,,,,,,,1,6.692135,,0,0,18,18,17,1,stimuli/stim_20210407_power2amp/equal_lnn_AM1.2Hz_61.m4a,,,
,,,,,,,,,,,,40619,2021-04-29_20h55.30.128,judgeSpeechMusic_20210407_logNormShiftAmp,2020.1.2,MacIntel,60,,,,,,,,,,,,,,2,5.95141,,0,0,19,19,45,1,stimuli/stim_20210407_power2amp/equal_lnn_AM2.4Hz_6.m4a,,,
,,,,,,,,,,,,40619,2021-04-29_20h55.30.128,judgeSpeechMusic_20210407_logNormShiftAmp,2020.1.2,MacIntel,60,,,,,,,,,,,,,,2,5.9732,,0,0,20,20,137,1,stimuli/stim_20210407_power2amp/equal_lnn_AM6Hz_71.m4a,,,
,,,,,,,,,,,,40619,2021-04-29_20h55.30.128,judgeSpeechMusic_20210407_logNormShiftAmp,2020.1.2,MacIntel,60,,,,,,,,,,,,,,2,5.956005,,0,0,21,21,140,1,stimuli/stim_20210407_power2amp/equal_lnn_AM6Hz_65.m4a,,,
,,,,,,,,,,,,40619,2021-04-29_20h55.30.128,judgeSpeechMusic_20210407_logNormShiftAmp,2020.1.2,MacIntel,60,,,,,,,,,,,,,,1,6.1552,,0,0,22,22,139,1,stimuli/stim_20210407_power2amp/equal_lnn_AM6Hz_48.m4a,,,
,,,,,,,,,,,,40619,2021-04-29_20h55.30.128,judgeSpeechMusic_20210407_logNormShiftAmp,2020.1.2,MacIntel,60,,,,,,,,,,,,,,1,6.52001,,0,0,23,23,107,1,stimuli/stim_20210407_power2amp/equal_lnn_AM4.8Hz_6.m4a,,,
,,,,,,,,,,,,40619,2021-04-29_20h55.30.128,judgeSpeechMusic_20210407_logNormShiftAmp,2020.1.2,MacIntel,60,,,,,,,,,,,,,,2,6.704835,,0,0,24,24,111,1,stimuli/stim_20210407_power2amp/equal_lnn_AM4.8Hz_78.m4a,,,
,,,,,,,,,,,,40619,2021-04-29_20h55.30.128,judgeSpeechMusic_20210407_logNormShiftAmp,2020.1.2,MacIntel,60,,,,,,,,,,,,,,2,6.785595,,0,0,25,25,105,1,stimuli/stim_20210407_power2amp/equal_lnn_AM4.8Hz_2.m4a,,,
,,,,,,,,,,,,40619,2021-04-29_20h55.30.128,judgeSpeechMusic_20210407_logNormShiftAmp,2020.1.2,MacIntel,60,,,,,,,,,,,,,,2,5.965305,,0,0,26,26,18,1,stimuli/stim_20210407_power2amp/equal_lnn_AM1.2Hz_41.m4a,,,
,,,,,,,,,,,,40619,2021-04-29_20h55.30.128,judgeSpeechMusic_20210407_logNormShiftAmp,2020.1.2,MacIntel,60,,,,,,,,,,,,,,2,6.063435,,0,0,27,27,48,1,stimuli/stim_20210407_power2amp/equal_lnn_AM2.4Hz_41.m4a,,,
,,,,,,,,,,,,40619,2021-04-29_20h55.30.128,judgeSpeechMusic_20210407_logNormShiftAmp,2020.1.2,MacIntel,60,,,,,,,,,,,,,,2,6.635705,,0,0,28,28,35,1,stimuli/stim_20210407_power2amp/equal_lnn_AM1.8Hz_47.m4a,,,
,,,,,,,,,,,,40619,2021-04-29_20h55.30.128,judgeSpeechMusic_20210407_logNormShiftAmp,2020.1.2,MacIntel,60,,,,,,,,,,,,,,1,5.957195,,0,0,29,29,100,1,stimuli/stim_20210407_power2amp/equal_lnn_AM4.2Hz_52.m4a,,,
,,,,,,,,,,,,40619,2021-04-29_20h55.30.128,judgeSpeechMusic_20210407_logNormShiftAmp,2020.1.2,MacIntel,60,,,,,,,,,,,,,,2,9.99026,,0,0,30,30,34,1,stimuli/stim_20210407_power2amp/equal_lnn_AM1.8Hz_7.m4a,,,
,,,,,,,,,,,,40619,2021-04-29_20h55.30.128,judgeSpeechMusic_20210407_logNormShiftAmp,2020.1.2,MacIntel,60,,,,,,,,,,,,,,2,6.038605,1,1,0,31,31,37,1,stimuli/stim_20210407_power2amp/equal_lnn_AM1.8Hz_88.m4a,1.31038,,
,,,,,,,,,,,,40619,2021-04-29_20h55.30.128,judgeSpeechMusic_20210407_logNormShiftAmp,2020.1.2,MacIntel,60,,,,,,,,,,,,,,2,6.44448,,0,0,32,32,64,1,stimuli/stim_20210407_power2amp/equal_lnn_AM3Hz_54.m4a,,,
,,,,,,,,,,,,40619,2021-04-29_20h55.30.128,judgeSpeechMusic_20210407_logNormShiftAmp,2020.1.2,MacIntel,60,,,,,,,,,,,,,,2,5.86485,,0,0,33,33,53,1,stimuli/stim_20210407_power2amp/equal_lnn_AM2.4Hz_9.m4a,,,
,,,,,,,,,,,,40619,2021-04-29_20h55.30.128,judgeSpeechMusic_20210407_logNormShiftAmp,2020.1.2,MacIntel,60,,,,,,,,,,,,,,2,5.955775,,0,0,34,34,20,1,stimuli/stim_20210407_power2amp/equal_lnn_AM1.2Hz_18.m4a,,,
,,,,,,,,,,,,40619,2021-04-29_20h55.30.128,judgeSpeechMusic_20210407_logNormShiftAmp,2020.1.2,MacIntel,60,,,,,,,,,,,,,,1,5.918335,,0,0,35,35,118,1,stimuli/stim_20210407_power2amp/equal_lnn_AM4.8Hz_20.m4a,,,
,,,,,,,,,,,,40619,2021-04-29_20h55.30.128,judgeSpeechMusic_20210407_logNormShiftAmp,2020.1.2,MacIntel,60,,,,,,,,,,,,,,1,5.55173,,0,0,36,36,81,1,stimuli/stim_20210407_power2amp/equal_lnn_AM3.6Hz_25.m4a,,,
,,,,,,,,,,,,40619,2021-04-29_20h55.30.128,judgeSpeechMusic_20210407_logNormShiftAmp,2020.1.2,MacIntel,60,,,,,,,,,,,,,,1,5.932515,,0,0,37,37,49,1,stimuli/stim_20210407_power2amp/equal_lnn_AM2.4Hz_17.m4a,,,
,,,,,,,,,,,,40619,2021-04-29_20h55.30.128,judgeSpeechMusic_20210407_logNormShiftAmp,2020.1.2,MacIntel,60,,,,,,,,,,,,,,2,7.24236,,0,0,38,38,73,1,stimuli/stim_20210407_power2amp/equal_lnn_AM3Hz_55.m4a,,,
,,,,,,,,,,,,40619,2021-04-29_20h55.30.128,judgeSpeechMusic_20210407_logNormShiftAmp,2020.1.2,MacIntel,60,,,,,,,,,,,,,,1,5.870805,,0,0,39,39,138,1,stimuli/stim_20210407_power2amp/equal_lnn_AM6Hz_7.m4a,,,
,,,,,,,,,,,,40619,2021-04-29_20h55.30.128,judgeSpeechMusic_20210407_logNormShiftAmp,2020.1.2,MacIntel,60,,,,,,,,,,,,,,2,9.291075,,0,0,40,40,21,1,stimuli/stim_20210407_power2amp/equal_lnn_AM1.2Hz_14.m4a,,,
,,,,,,,,,,,,40619,2021-04-29_20h55.30.128,judgeSpeechMusic_20210407_logNormShiftAmp,2020.1.2,MacIntel,60,,,,,,,,,,,,,,1,5.85962,,0,0,41,41,124,1,stimuli/stim_20210407_power2amp/equal_lnn_AM5.4Hz_82.m4a,,,
,,,,,,,,,,,,40619,2021-04-29_20h55.30.128,judgeSpeechMusic_20210407_logNormShiftAmp,2020.1.2,MacIntel,60,,,,,,,,,,,,,,1,6.156745,,0,0,42,42,31,1,stimuli/stim_20210407_power2amp/equal_lnn_AM1.8Hz_20.m4a,,,
,,,,,,,,,,,,40619,2021-04-29_20h55.30.128,judgeSpeechMusic_20210407_logNormShiftAmp,2020.1.2,MacIntel,60,,,,,,,,,,,,,,1,5.578695,,0,0,43,43,50,1,stimuli/stim_20210407_power2amp/equal_lnn_AM2.4Hz_58.m4a,,,
,,,,,,,,,,,,40619,2021-04-29_20h55.30.128,judgeSpeechMusic_20210407_logNormShiftAmp,2020.1.2,MacIntel,60,,,,,,,,,,,,,,2,6.95076,,0,0,44,44,78,1,stimuli/stim_20210407_power2amp/equal_lnn_AM3.6Hz_60.m4a,,,
,,,,,,,,,,,,40619,2021-04-29_20h55.30.128,judgeSpeechMusic_20210407_logNormShiftAmp,2020.1.2,MacIntel,60,,,,,,,,,,,,,,2,5.87294,,0,0,45,45,103,1,stimuli/stim_20210407_power2amp/equal_lnn_AM4.2Hz_89.m4a,,,
,,,,,,,,,,,,40619,2021-04-29_20h55.30.128,judgeSpeechMusic_20210407_logNormShiftAmp,2020.1.2,MacIntel,60,,,,,,,,,,,,,,2,5.751915,,0,0,46,46,70,1,stimuli/stim_20210407_power2amp/equal_lnn_AM3Hz_13.m4a,,,
,,,,,,,,,,,,40619,2021-04-29_20h55.30.128,judgeSpeechMusic_20210407_logNormShiftAmp,2020.1.2,MacIntel,60,,,,,,,,,,,,,,1,6.660705,,0,0,47,47,104,1,stimuli/stim_20210407_power2amp/equal_lnn_AM4.2Hz_19.m4a,,,
,,,,,,,,,,,,40619,2021-04-29_20h55.30.128,judgeSpeechMusic_20210407_logNormShiftAmp,2020.1.2,MacIntel,60,,,,,,,,,,,,,,1,5.94137,,0,0,48,48,106,1,stimuli/stim_20210407_power2amp/equal_lnn_AM4.8Hz_12.m4a,,,
,,,,,,,,,,,,40619,2021-04-29_20h55.30.128,judgeSpeechMusic_20210407_logNormShiftAmp,2020.1.2,MacIntel,60,,,,,,,,,,,,,,2,5.87466,,0,0,49,49,54,1,stimuli/stim_20210407_power2amp/equal_lnn_AM2.4Hz_73.m4a,,,
,,,,,,,,,,,,40619,2021-04-29_20h55.30.128,judgeSpeechMusic_20210407_logNormShiftAmp,2020.1.2,MacIntel,60,,,,,,,,,,,,,,2,6.853315,,0,0,50,50,16,1,stimuli/stim_20210407_power2amp/equal_lnn_AM1.2Hz_1.m4a,,,
,,,,,,,,,,,,40619,2021-04-29_20h55.30.128,judgeSpeechMusic_20210407_logNormShiftAmp,2020.1.2,MacIntel,60,,,,,,,,,,,,,,1,6.038705,,0,0,51,51,69,1,stimuli/stim_20210407_power2amp/equal_lnn_AM3Hz_66.m4a,,,
,,,,,,,,,,,,40619,2021-04-29_20h55.30.128,judgeSpeechMusic_20210407_logNormShiftAmp,2020.1.2,MacIntel,60,,,,,,,,,,,,,,1,5.81008,,0,0,52,52,12,1,stimuli/stim_20210407_power2amp/equal_lnn_AM0.6Hz_69.m4a,,,
,,,,,,,,,,,,40619,2021-04-29_20h55.30.128,judgeSpeechMusic_20210407_logNormShiftAmp,2020.1.2,MacIntel,60,,,,,,,,,,,,,,1,5.54165,,0,0,53,53,144,1,stimuli/stim_20210407_power2amp/equal_lnn_AM6Hz_53.m4a,,,
,,,,,,,,,,,,40619,2021-04-29_20h55.30.128,judgeSpeechMusic_20210407_logNormShiftAmp,2020.1.2,MacIntel,60,,,,,,,,,,,,,,2,6.230655,,0,0,54,54,10,1,stimuli/stim_20210407_power2amp/equal_lnn_AM0.6Hz_75.m4a,,,
,,,,,,,,,,,,40619,2021-04-29_20h55.30.128,judgeSpeechMusic_20210407_logNormShiftAmp,2020.1.2,MacIntel,60,,,,,,,,,,,,,,1,6.866,2,1,0,55,55,123,1,stimuli/stim_20210407_power2amp/equal_lnn_AM5.4Hz_37.m4a,1.670595,,
,,,,,,,,,,,,40619,2021-04-29_20h55.30.128,judgeSpeechMusic_20210407_logNormShiftAmp,2020.1.2,MacIntel,60,,,,,,,,,,,,,,2,7.586325,,0,0,56,56,25,1,stimuli/stim_20210407_power2amp/equal_lnn_AM1.2Hz_11.m4a,,,
,,,,,,,,,,,,40619,2021-04-29_20h55.30.128,judgeSpeechMusic_20210407_logNormShiftAmp,2020.1.2,MacIntel,60,,,,,,,,,,,,,,1,6.005925,,0,0,57,57,28,1,stimuli/stim_20210407_power2amp/equal_lnn_AM1.2Hz_75.m4a,,,
,,,,,,,,,,,,40619,2021-04-29_20h55.30.128,judgeSpeechMusic_20210407_logNormShiftAmp,2020.1.2,MacIntel,60,,,,,,,,,,,,,,2,5.972325,,0,0,58,58,117,1,stimuli/stim_20210407_power2amp/equal_lnn_AM4.8Hz_85.m4a,,,
,,,,,,,,,,,,40619,2021-04-29_20h55.30.128,judgeSpeechMusic_20210407_logNormShiftAmp,2020.1.2,MacIntel,60,,,,,,,,,,,,,,1,6.65492,,0,0,59,59,5,1,stimuli/stim_20210407_power2amp/equal_lnn_AM0.6Hz_17.m4a,,,
,,,,,,,,,,,,40619,2021-04-29_20h55.30.128,judgeSpeechMusic_20210407_logNormShiftAmp,2020.1.2,MacIntel,60,,,,,,,,,,,,,,2,11.210055,,0,0,60,60,84,1,stimuli/stim_20210407_power2amp/equal_lnn_AM3.6Hz_68.m4a,,,
,,,,,,,,,,,,40619,2021-04-29_20h55.30.128,judgeSpeechMusic_20210407_logNormShiftAmp,2020.1.2,MacIntel,60,,,,,,,,,,,,,,1,5.659085,,0,0,61,61,65,1,stimuli/stim_20210407_power2amp/equal_lnn_AM3Hz_11.m4a,,,
,,,,,,,,,,,,40619,2021-04-29_20h55.30.128,judgeSpeechMusic_20210407_logNormShiftAmp,2020.1.2,MacIntel,60,,,,,,,,,,,,,,2,6.093365,,0,0,62,62,135,1,stimuli/stim_20210407_power2amp/equal_lnn_AM6Hz_41.m4a,,,
,,,,,,,,,,,,40619,2021-04-29_20h55.30.128,judgeSpeechMusic_20210407_logNormShiftAmp,2020.1.2,MacIntel,60,,,,,,,,,,,,,,1,5.794715,,0,0,63,63,98,1,stimuli/stim_20210407_power2amp/equal_lnn_AM4.2Hz_30.m4a,,,
,,,,,,,,,,,,40619,2021-04-29_20h55.30.128,judgeSpeechMusic_20210407_logNormShiftAmp,2020.1.2,MacIntel,60,,,,,,,,,,,,,,2,5.8841,,0,0,64,64,91,1,stimuli/stim_20210407_power2amp/equal_lnn_AM4.2Hz_14.m4a,,,
,,,,,,,,,,,,40619,2021-04-29_20h55.30.128,judgeSpeechMusic_20210407_logNormShiftAmp,2020.1.2,MacIntel,60,,,,,,,,,,,,,,2,6.40939,,0,0,65,65,72,1,stimuli/stim_20210407_power2amp/equal_lnn_AM3Hz_15.m4a,,,
,,,,,,,,,,,,40619,2021-04-29_20h55.30.128,judgeSpeechMusic_20210407_logNormShiftAmp,2020.1.2,MacIntel,60,,,,,,,,,,,,,,2,5.62361,,0,0,66,66,83,1,stimuli/stim_20210407_power2amp/equal_lnn_AM3.6Hz_4.m4a,,,
,,,,,,,,,,,,40619,2021-04-29_20h55.30.128,judgeSpeechMusic_20210407_logNormShiftAmp,2020.1.2,MacIntel,60,,,,,,,,,,,,,,1,6.088495,,0,0,67,67,126,1,stimuli/stim_20210407_power2amp/equal_lnn_AM5.4Hz_47.m4a,,,
,,,,,,,,,,,,40619,2021-04-29_20h55.30.128,judgeSpeechMusic_20210407_logNormShiftAmp,2020.1.2,MacIntel,60,,,,,,,,,,,,,,1,5.62778,,0,0,68,68,8,1,stimuli/stim_20210407_power2amp/equal_lnn_AM0.6Hz_64.m4a,,,
,,,,,,,,,,,,40619,2021-04-29_20h55.30.128,judgeSpeechMusic_20210407_logNormShiftAmp,2020.1.2,MacIntel,60,,,,,,,,,,,,,,1,5.624185,,0,0,69,69,88,1,stimuli/stim_20210407_power2amp/equal_lnn_AM3.6Hz_30.m4a,,,
,,,,,,,,,,,,40619,2021-04-29_20h55.30.128,judgeSpeechMusic_20210407_logNormShiftAmp,2020.1.2,MacIntel,60,,,,,,,,,,,,,,1,6.661445,,0,0,70,70,57,1,stimuli/stim_20210407_power2amp/equal_lnn_AM2.4Hz_31.m4a,,,
,,,,,,,,,,,,40619,2021-04-29_20h55.30.128,judgeSpeechMusic_20210407_logNormShiftAmp,2020.1.2,MacIntel,60,,,,,,,,,,,,,,1,5.95678,,0,0,71,71,112,1,stimuli/stim_20210407_power2amp/equal_lnn_AM4.8Hz_100.m4a,,,
,,,,,,,,,,,,40619,2021-04-29_20h55.30.128,judgeSpeechMusic_20210407_logNormShiftAmp,2020.1.2,MacIntel,60,,,,,,,,,,,,,,2,5.89067,,0,0,72,72,47,1,stimuli/stim_20210407_power2amp/equal_lnn_AM2.4Hz_92.m4a,,,
,,,,,,,,,,,,40619,2021-04-29_20h55.30.128,judgeSpeechMusic_20210407_logNormShiftAmp,2020.1.2,MacIntel,60,,,,,,,,,,,,,,1,7.77251,,0,0,73,73,92,1,stimuli/stim_20210407_power2amp/equal_lnn_AM4.2Hz_38.m4a,,,
,,,,,,,,,,,,40619,2021-04-29_20h55.30.128,judgeSpeechMusic_20210407_logNormShiftAmp,2020.1.2,MacIntel,60,,,,,,,,,,,,,,2,6.87938,,0,0,74,74,96,1,stimuli/stim_20210407_power2amp/equal_lnn_AM4.2Hz_39.m4a,,,
,,,,,,,,,,,,40619,2021-04-29_20h55.30.128,judgeSpeechMusic_20210407_logNormShiftAmp,2020.1.2,MacIntel,60,,,,,,,,,,,,,,1,7.72408,3,1,0,75,75,148,1,stimuli/stim_20210407_power2amp/equal_lnn_AM6Hz_21.m4a,1.123105,,
,,,,,,,,,,,,40619,2021-04-29_20h55.30.128,judgeSpeechMusic_20210407_logNormShiftAmp,2020.1.2,MacIntel,60,,,,,,,,,,,,,,1,7.800535,,0,0,76,76,9,1,stimuli/stim_20210407_power2amp/equal_lnn_AM0.6Hz_9.m4a,,,
,,,,,,,,,,,,40619,2021-04-29_20h55.30.128,judgeSpeechMusic_20210407_logNormShiftAmp,2020.1.2,MacIntel,60,,,,,,,,,,,,,,2,7.036625,,0,0,77,77,120,1,stimuli/stim_20210407_power2amp/equal_lnn_AM5.4Hz_49.m4a,,,
,,,,,,,,,,,,40619,2021-04-29_20h55.30.128,judgeSpeechMusic_20210407_logNormShiftAmp,2020.1.2,MacIntel,60,,,,,,,,,,,,,,1,7.17623,,0,0,78,78,23,1,stimuli/stim_20210407_power2amp/equal_lnn_AM1.2Hz_36.m4a,,,
,,,,,,,,,,,,40619,2021-04-29_20h55.30.128,judgeSpeechMusic_20210407_logNormShiftAmp,2020.1.2,MacIntel,60,,,,,,,,,,,,,,1,6.02473,,0,0,79,79,145,1,stimuli/stim_20210407_power2amp/equal_lnn_AM6Hz_100.m4a,,,
,,,,,,,,,,,,40619,2021-04-29_20h55.30.128,judgeSpeechMusic_20210407_logNormShiftAmp,2020.1.2,MacIntel,60,,,,,,,,,,,,,,2,5.893255,,0,0,80,80,66,1,stimuli/stim_20210407_power2amp/equal_lnn_AM3Hz_74.m4a,,,
,,,,,,,,,,,,40619,2021-04-29_20h55.30.128,judgeSpeechMusic_20210407_logNormShiftAmp,2020.1.2,MacIntel,60,,,,,,,,,,,,,,2,16.253335,,0,0,81,81,68,1,stimuli/stim_20210407_power2amp/equal_lnn_AM3Hz_60.m4a,,,
,,,,,,,,,,,,40619,2021-04-29_20h55.30.128,judgeSpeechMusic_20210407_logNormShiftAmp,2020.1.2,MacIntel,60,,,,,,,,,,,,,,2,7.57031,,0,0,82,82,38,1,stimuli/stim_20210407_power2amp/equal_lnn_AM1.8Hz_9.m4a,,,
,,,,,,,,,,,,40619,2021-04-29_20h55.30.128,judgeSpeechMusic_20210407_logNormShiftAmp,2020.1.2,MacIntel,60,,,,,,,,,,,,,,1,8.492475,,0,0,83,83,114,1,stimuli/stim_20210407_power2amp/equal_lnn_AM4.8Hz_77.m4a,,,
,,,,,,,,,,,,40619,2021-04-29_20h55.30.128,judgeSpeechMusic_20210407_logNormShiftAmp,2020.1.2,MacIntel,60,,,,,,,,,,,,,,2,7.386295,,0,0,84,84,24,1,stimuli/stim_20210407_power2amp/equal_lnn_AM1.2Hz_3.m4a,,,
,,,,,,,,,,,,40619,2021-04-29_20h55.30.128,judgeSpeechMusic_20210407_logNormShiftAmp,2020.1.2,MacIntel,60,,,,,,,,,,,,,,2,6.83939,,0,0,85,85,94,1,stimuli/stim_20210407_power2amp/equal_lnn_AM4.2Hz_36.m4a,,,
,,,,,,,,,,,,40619,2021-04-29_20h55.30.128,judgeSpeechMusic_20210407_logNormShiftAmp,2020.1.2,MacIntel,60,,,,,,,,,,,,,,1,7.567635,,0,0,86,86,19,1,stimuli/stim_20210407_power2amp/equal_lnn_AM1.2Hz_6.m4a,,,
,,,,,,,,,,,,40619,2021-04-29_20h55.30.128,judgeSpeechMusic_20210407_logNormShiftAmp,2020.1.2,MacIntel,60,,,,,,,,,,,,,,1,8.039025,,0,0,87,87,14,1,stimuli/stim_20210407_power2amp/equal_lnn_AM0.6Hz_72.m4a,,,
,,,,,,,,,,,,40619,2021-04-29_20h55.30.128,judgeSpeechMusic_20210407_logNormShiftAmp,2020.1.2,MacIntel,60,,,,,,,,,,,,,,2,6.09703,,0,0,88,88,52,1,stimuli/stim_20210407_power2amp/equal_lnn_AM2.4Hz_21.m4a,,,
,,,,,,,,,,,,40619,2021-04-29_20h55.30.128,judgeSpeechMusic_20210407_logNormShiftAmp,2020.1.2,MacIntel,60,,,,,,,,,,,,,,2,6.77145,,0,0,89,89,67,1,stimuli/stim_20210407_power2amp/equal_lnn_AM3Hz_97.m4a,,,
,,,,,,,,,,,,40619,2021-04-29_20h55.30.128,judgeSpeechMusic_20210407_logNormShiftAmp,2020.1.2,MacIntel,60,,,,,,,,,,,,,,2,5.824705,,0,0,90,90,76,1,stimuli/stim_20210407_power2amp/equal_lnn_AM3.6Hz_47.m4a,,,
,,,,,,,,,,,,40619,2021-04-29_20h55.30.128,judgeSpeechMusic_20210407_logNormShiftAmp,2020.1.2,MacIntel,60,,,,,,,,,,,,,,2,5.356245,,0,0,91,91,108,1,stimuli/stim_20210407_power2amp/equal_lnn_AM4.8Hz_88.m4a,,,
,,,,,,,,,,,,40619,2021-04-29_20h55.30.128,judgeSpeechMusic_20210407_logNormShiftAmp,2020.1.2,MacIntel,60,,,,,,,,,,,,,,2,8.20977,,0,0,92,92,55,1,stimuli/stim_20210407_power2amp/equal_lnn_AM2.4Hz_70.m4a,,,
,,,,,,,,,,,,40619,2021-04-29_20h55.30.128,judgeSpeechMusic_20210407_logNormShiftAmp,2020.1.2,MacIntel,60,,,,,,,,,,,,,,1,8.31602,,0,0,93,93,44,1,stimuli/stim_20210407_power2amp/equal_lnn_AM1.8Hz_8.m4a,,,
,,,,,,,,,,,,40619,2021-04-29_20h55.30.128,judgeSpeechMusic_20210407_logNormShiftAmp,2020.1.2,MacIntel,60,,,,,,,,,,,,,,1,6.21377,,0,0,94,94,121,1,stimuli/stim_20210407_power2amp/equal_lnn_AM5.4Hz_41.m4a,,,
,,,,,,,,,,,,40619,2021-04-29_20h55.30.128,judgeSpeechMusic_20210407_logNormShiftAmp,2020.1.2,MacIntel,60,,,,,,,,,,,,,,2,11.25673,,0,0,95,95,116,1,stimuli/stim_20210407_power2amp/equal_lnn_AM4.8Hz_68.m4a,,,
,,,,,,,,,,,,40619,2021-04-29_20h55.30.128,judgeSpeechMusic_20210407_logNormShiftAmp,2020.1.2,MacIntel,60,,,,,,,,,,,,,,1,10.20456,,0,0,96,96,32,1,stimuli/stim_20210407_power2amp/equal_lnn_AM1.8Hz_16.m4a,,,
,,,,,,,,,,,,40619,2021-04-29_20h55.30.128,judgeSpeechMusic_20210407_logNormShiftAmp,2020.1.2,MacIntel,60,,,,,,,,,,,,,,2,7.58861,,0,0,97,97,46,1,stimuli/stim_20210407_power2amp/equal_lnn_AM2.4Hz_76.m4a,,,
,,,,,,,,,,,,40619,2021-04-29_20h55.30.128,judgeSpeechMusic_20210407_logNormShiftAmp,2020.1.2,MacIntel,60,,,,,,,,,,,,,,2,10.22681,,0,0,98,98,97,1,stimuli/stim_20210407_power2amp/equal_lnn_AM4.2Hz_57.m4a,,,
,,,,,,,,,,,,40619,2021-04-29_20h55.30.128,judgeSpeechMusic_20210407_logNormShiftAmp,2020.1.2,MacIntel,60,,,,,,,,,,,,,,1,7.472555,,0,0,99,99,142,1,stimuli/stim_20210407_power2amp/equal_lnn_AM6Hz_47.m4a,,,
,,,,,,,,,,,,40619,2021-04-29_20h55.30.128,judgeSpeechMusic_20210407_logNormShiftAmp,2020.1.2,MacIntel,60,,,,,,,,,,,,,,1,5.85772,2,1,0,100,100,86,1,stimuli/stim_20210407_power2amp/equal_lnn_AM3.6Hz_54.m4a,1.18965,,
,,,,,,,,,,,,40619,2021-04-29_20h55.30.128,judgeSpeechMusic_20210407_logNormShiftAmp,2020.1.2,MacIntel,60,,,,,,,,,,,,,,2,5.925235,,0,0,101,101,110,1,stimuli/stim_20210407_power2amp/equal_lnn_AM4.8Hz_46.m4a,,,
,,,,,,,,,,,,40619,2021-04-29_20h55.30.128,judgeSpeechMusic_20210407_logNormShiftAmp,2020.1.2,MacIntel,60,,,,,,,,,,,,,,1,6.14311,,0,0,102,102,3,1,stimuli/stim_20210407_power2amp/equal_lnn_AM0.6Hz_46.m4a,,,
,,,,,,,,,,,,40619,2021-04-29_20h55.30.128,judgeSpeechMusic_20210407_logNormShiftAmp,2020.1.2,MacIntel,60,,,,,,,,,,,,,,1,5.755965,,0,0,103,103,42,1,stimuli/stim_20210407_power2amp/equal_lnn_AM1.8Hz_85.m4a,,,
,,,,,,,,,,,,40619,2021-04-29_20h55.30.128,judgeSpeechMusic_20210407_logNormShiftAmp,2020.1.2,MacIntel,60,,,,,,,,,,,,,,2,10.91996,,0,0,104,104,131,1,stimuli/stim_20210407_power2amp/equal_lnn_AM5.4Hz_73.m4a,,,
,,,,,,,,,,,,40619,2021-04-29_20h55.30.128,judgeSpeechMusic_20210407_logNormShiftAmp,2020.1.2,MacIntel,60,,,,,,,,,,,,,,1,6.94251,,0,0,105,105,128,1,stimuli/stim_20210407_power2amp/equal_lnn_AM5.4Hz_34.m4a,,,
,,,,,,,,,,,,40619,2021-04-29_20h55.30.128,judgeSpeechMusic_20210407_logNormShiftAmp,2020.1.2,MacIntel,60,,,,,,,,,,,,,,1,5.647525,,0,0,106,106,125,1,stimuli/stim_20210407_power2amp/equal_lnn_AM5.4Hz_13.m4a,,,
,,,,,,,,,,,,40619,2021-04-29_20h55.30.128,judgeSpeechMusic_20210407_logNormShiftAmp,2020.1.2,MacIntel,60,,,,,,,,,,,,,,1,5.43874,,0,0,107,107,29,1,stimuli/stim_20210407_power2amp/equal_lnn_AM1.2Hz_17.m4a,,,
,,,,,,,,,,,,40619,2021-04-29_20h55.30.128,judgeSpeechMusic_20210407_logNormShiftAmp,2020.1.2,MacIntel,60,,,,,,,,,,,,,,2,6.761045,,0,0,108,108,7,1,stimuli/stim_20210407_power2amp/equal_lnn_AM0.6Hz_12.m4a,,,
,,,,,,,,,,,,40619,2021-04-29_20h55.30.128,judgeSpeechMusic_20210407_logNormShiftAmp,2020.1.2,MacIntel,60,,,,,,,,,,,,,,2,5.988905,,0,0,109,109,30,1,stimuli/stim_20210407_power2amp/equal_lnn_AM1.8Hz_97.m4a,,,
,,,,,,,,,,,,40619,2021-04-29_20h55.30.128,judgeSpeechMusic_20210407_logNormShiftAmp,2020.1.2,MacIntel,60,,,,,,,,,,,,,,2,5.855455,,0,0,110,110,74,1,stimuli/stim_20210407_power2amp/equal_lnn_AM3Hz_53.m4a,,,
,,,,,,,,,,,,40619,2021-04-29_20h55.30.128,judgeSpeechMusic_20210407_logNormShiftAmp,2020.1.2,MacIntel,60,,,,,,,,,,,,,,1,7.84321,,0,0,111,111,36,1,stimuli/stim_20210407_power2amp/equal_lnn_AM1.8Hz_11.m4a,,,
,,,,,,,,,,,,40619,2021-04-29_20h55.30.128,judgeSpeechMusic_20210407_logNormShiftAmp,2020.1.2,MacIntel,60,,,,,,,,,,,,,,2,10.695825,,0,0,112,112,146,1,stimuli/stim_20210407_power2amp/equal_lnn_AM6Hz_18.m4a,,,
,,,,,,,,,,,,40619,2021-04-29_20h55.30.128,judgeSpeechMusic_20210407_logNormShiftAmp,2020.1.2,MacIntel,60,,,,,,,,,,,,,,2,8.02566,,0,0,113,113,22,1,stimuli/stim_20210407_power2amp/equal_lnn_AM1.2Hz_40.m4a,,,
,,,,,,,,,,,,40619,2021-04-29_20h55.30.128,judgeSpeechMusic_20210407_logNormShiftAmp,2020.1.2,MacIntel,60,,,,,,,,,,,,,,2,6.673865,,0,0,114,114,82,1,stimuli/stim_20210407_power2amp/equal_lnn_AM3.6Hz_76.m4a,,,
,,,,,,,,,,,,40619,2021-04-29_20h55.30.128,judgeSpeechMusic_20210407_logNormShiftAmp,2020.1.2,MacIntel,60,,,,,,,,,,,,,,2,7.84246,,0,0,115,115,109,1,stimuli/stim_20210407_power2amp/equal_lnn_AM4.8Hz_66.m4a,,,
,,,,,,,,,,,,40619,2021-04-29_20h55.30.128,judgeSpeechMusic_20210407_logNormShiftAmp,2020.1.2,MacIntel,60,,,,,,,,,,,,,,2,6.60822,,0,0,116,116,130,1,stimuli/stim_20210407_power2amp/equal_lnn_AM5.4Hz_25.m4a,,,
,,,,,,,,,,,,40619,2021-04-29_20h55.30.128,judgeSpeechMusic_20210407_logNormShiftAmp,2020.1.2,MacIntel,60,,,,,,,,,,,,,,2,16.13052,,0,0,117,117,102,1,stimuli/stim_20210407_power2amp/equal_lnn_AM4.2Hz_67.m4a,,,
,,,,,,,,,,,,40619,2021-04-29_20h55.30.128,judgeSpeechMusic_20210407_logNormShiftAmp,2020.1.2,MacIntel,60,,,,,,,,,,,,,,2,5.952755,,0,0,118,118,115,1,stimuli/stim_20210407_power2amp/equal_lnn_AM4.8Hz_38.m4a,,,
,,,,,,,,,,,,40619,2021-04-29_20h55.30.128,judgeSpeechMusic_20210407_logNormShiftAmp,2020.1.2,MacIntel,60,,,,,,,,,,,,,,1,8.47944,,0,0,119,119,26,1,stimuli/stim_20210407_power2amp/equal_lnn_AM1.2Hz_13.m4a,,,
,,,,,,,,,,,,40619,2021-04-29_20h55.30.128,judgeSpeechMusic_20210407_logNormShiftAmp,2020.1.2,MacIntel,60,,,,,,,,,,,,,,2,7.721905,,0,0,120,120,90,1,stimuli/stim_20210407_power2amp/equal_lnn_AM4.2Hz_37.m4a,,,
,,,,,,,,,,,,40619,2021-04-29_20h55.30.128,judgeSpeechMusic_20210407_logNormShiftAmp,2020.1.2,MacIntel,60,,,,,,,,,,,,,,2,9.022145,2,1,0,121,121,80,1,stimuli/stim_20210407_power2amp/equal_lnn_AM3.6Hz_81.m4a,1.17906,,
,,,,,,,,,,,,40619,2021-04-29_20h55.30.128,judgeSpeechMusic_20210407_logNormShiftAmp,2020.1.2,MacIntel,60,,,,,,,,,,,,,,1,6.12684,,0,0,122,122,99,1,stimuli/stim_20210407_power2amp/equal_lnn_AM4.2Hz_33.m4a,,,
,,,,,,,,,,,,40619,2021-04-29_20h55.30.128,judgeSpeechMusic_20210407_logNormShiftAmp,2020.1.2,MacIntel,60,,,,,,,,,,,,,,2,11.97393,,0,0,123,123,136,1,stimuli/stim_20210407_power2amp/equal_lnn_AM6Hz_37.m4a,,,
,,,,,,,,,,,,40619,2021-04-29_20h55.30.128,judgeSpeechMusic_20210407_logNormShiftAmp,2020.1.2,MacIntel,60,,,,,,,,,,,,,,2,2063.56437,,0,0,124,124,149,1,stimuli/stim_20210407_power2amp/equal_lnn_AM6Hz_24.m4a,,,
,,,,,,,,,,,,40619,2021-04-29_20h55.30.128,judgeSpeechMusic_20210407_logNormShiftAmp,2020.1.2,MacIntel,60,,,,,,,,,,,,,,2,7.84082,,0,0,125,125,51,1,stimuli/stim_20210407_power2amp/equal_lnn_AM2.4Hz_82.m4a,,,
,,,,,,,,,,,,40619,2021-04-29_20h55.30.128,judgeSpeechMusic_20210407_logNormShiftAmp,2020.1.2,MacIntel,60,,,,,,,,,,,,,,1,5.9543,,0,0,126,126,134,1,stimuli/stim_20210407_power2amp/equal_lnn_AM5.4Hz_8.m4a,,,
,,,,,,,,,,,,40619,2021-04-29_20h55.30.128,judgeSpeechMusic_20210407_logNormShiftAmp,2020.1.2,MacIntel,60,,,,,,,,,,,,,,1,5.952785,,0,0,127,127,60,1,stimuli/stim_20210407_power2amp/equal_lnn_AM3Hz_27.m4a,,,
,,,,,,,,,,,,40619,2021-04-29_20h55.30.128,judgeSpeechMusic_20210407_logNormShiftAmp,2020.1.2,MacIntel,60,,,,,,,,,,,,,,1,6.490025,,0,0,128,128,119,1,stimuli/stim_20210407_power2amp/equal_lnn_AM4.8Hz_69.m4a,,,
,,,,,,,,,,,,40619,2021-04-29_20h55.30.128,judgeSpeechMusic_20210407_logNormShiftAmp,2020.1.2,MacIntel,60,,,,,,,,,,,,,,2,8.971195,,0,0,129,129,13,1,stimuli/stim_20210407_power2amp/equal_lnn_AM0.6Hz_60.m4a,,,
,,,,,,,,,,,,40619,2021-04-29_20h55.30.128,judgeSpeechMusic_20210407_logNormShiftAmp,2020.1.2,MacIntel,60,,,,,,,,,,,,,,2,5.79331,,0,0,130,130,63,1,stimuli/stim_20210407_power2amp/equal_lnn_AM3Hz_91.m4a,,,
,,,,,,,,,,,,40619,2021-04-29_20h55.30.128,judgeSpeechMusic_20210407_logNormShiftAmp,2020.1.2,MacIntel,60,,,,,,,,,,,,,,1,5.71832,,0,0,131,131,58,1,stimuli/stim_20210407_power2amp/equal_lnn_AM2.4Hz_88.m4a,,,
,,,,,,,,,,,,40619,2021-04-29_20h55.30.128,judgeSpeechMusic_20210407_logNormShiftAmp,2020.1.2,MacIntel,60,,,,,,,,,,,,,,2,6.0893,,0,0,132,132,15,1,stimuli/stim_20210407_power2amp/equal_lnn_AM1.2Hz_21.m4a,,,
,,,,,,,,,,,,40619,2021-04-29_20h55.30.128,judgeSpeechMusic_20210407_logNormShiftAmp,2020.1.2,MacIntel,60,,,,,,,,,,,,,,1,7.668095,,0,0,133,133,6,1,stimuli/stim_20210407_power2amp/equal_lnn_AM0.6Hz_68.m4a,,,
,,,,,,,,,,,,40619,2021-04-29_20h55.30.128,judgeSpeechMusic_20210407_logNormShiftAmp,2020.1.2,MacIntel,60,,,,,,,,,,,,,,1,5.9855,,0,0,134,134,0,1,stimuli/stim_20210407_power2amp/equal_lnn_AM0.6Hz_20.m4a,,,
,,,,,,,,,,,,40619,2021-04-29_20h55.30.128,judgeSpeechMusic_20210407_logNormShiftAmp,2020.1.2,MacIntel,60,,,,,,,,,,,,,,2,5.64015,,0,0,135,135,77,1,stimuli/stim_20210407_power2amp/equal_lnn_AM3.6Hz_74.m4a,,,
,,,,,,,,,,,,40619,2021-04-29_20h55.30.128,judgeSpeechMusic_20210407_logNormShiftAmp,2020.1.2,MacIntel,60,,,,,,,,,,,,,,2,6.869745,,0,0,136,136,141,1,stimuli/stim_20210407_power2amp/equal_lnn_AM6Hz_28.m4a,,,
,,,,,,,,,,,,40619,2021-04-29_20h55.30.128,judgeSpeechMusic_20210407_logNormShiftAmp,2020.1.2,MacIntel,60,,,,,,,,,,,,,,2,6.551535,,0,0,137,137,101,1,stimuli/stim_20210407_power2amp/equal_lnn_AM4.2Hz_46.m4a,,,
,,,,,,,,,,,,40619,2021-04-29_20h55.30.128,judgeSpeechMusic_20210407_logNormShiftAmp,2020.1.2,MacIntel,60,,,,,,,,,,,,,,1,6.10038,,0,0,138,138,40,1,stimuli/stim_20210407_power2amp/equal_lnn_AM1.8Hz_92.m4a,,,
,,,,,,,,,,,,40619,2021-04-29_20h55.30.128,judgeSpeechMusic_20210407_logNormShiftAmp,2020.1.2,MacIntel,60,,,,,,,,,,,,,,2,6.36776,,0,0,139,139,2,1,stimuli/stim_20210407_power2amp/equal_lnn_AM0.6Hz_81.m4a,,,
,,,,,,,,,,,,40619,2021-04-29_20h55.30.128,judgeSpeechMusic_20210407_logNormShiftAmp,2020.1.2,MacIntel,60,,,,,,,,,,,,,,1,5.9262,,0,0,140,140,143,1,stimuli/stim_20210407_power2amp/equal_lnn_AM6Hz_88.m4a,,,
,,,,,,,,,,,,40619,2021-04-29_20h55.30.128,judgeSpeechMusic_20210407_logNormShiftAmp,2020.1.2,MacIntel,60,,,,,,,,,,,,,,2,6.08005,,0,0,141,141,132,1,stimuli/stim_20210407_power2amp/equal_lnn_AM5.4Hz_89.m4a,,,
,,,,,,,,,,,,40619,2021-04-29_20h55.30.128,judgeSpeechMusic_20210407_logNormShiftAmp,2020.1.2,MacIntel,60,,,,,,,,,,,,,,1,7.02113,,0,0,142,142,75,1,stimuli/stim_20210407_power2amp/equal_lnn_AM3.6Hz_59.m4a,,,
,,,,,,,,,,,,40619,2021-04-29_20h55.30.128,judgeSpeechMusic_20210407_logNormShiftAmp,2020.1.2,MacIntel,60,,,,,,,,,,,,,,2,6.20545,2,1,0,143,143,89,1,stimuli/stim_20210407_power2amp/equal_lnn_AM3.6Hz_41.m4a,1.272765,,
,,,,,,,,,,,,40619,2021-04-29_20h55.30.128,judgeSpeechMusic_20210407_logNormShiftAmp,2020.1.2,MacIntel,60,,,,,,,,,,,,,,2,9.257635,,0,0,144,144,33,1,stimuli/stim_20210407_power2amp/equal_lnn_AM1.8Hz_46.m4a,,,
,,,,,,,,,,,,40619,2021-04-29_20h55.30.128,judgeSpeechMusic_20210407_logNormShiftAmp,2020.1.2,MacIntel,60,,,,,,,,,,,,,,2,9.430155,,0,0,145,145,87,1,stimuli/stim_20210407_power2amp/equal_lnn_AM3.6Hz_18.m4a,,,
,,,,,,,,,,,,40619,2021-04-29_20h55.30.128,judgeSpeechMusic_20210407_logNormShiftAmp,2020.1.2,MacIntel,60,,,,,,,,,,,,,,1,9.522785,,0,0,146,146,85,1,stimuli/stim_20210407_power2amp/equal_lnn_AM3.6Hz_91.m4a,,,
,,,,,,,,,,,,40619,2021-04-29_20h55.30.128,judgeSpeechMusic_20210407_logNormShiftAmp,2020.1.2,MacIntel,60,,,,,,,,,,,,,,1,6.834565,,0,0,147,147,56,1,stimuli/stim_20210407_power2amp/equal_lnn_AM2.4Hz_68.m4a,,,
,,,,,,,,,,,,40619,2021-04-29_20h55.30.128,judgeSpeechMusic_20210407_logNormShiftAmp,2020.1.2,MacIntel,60,,,,,,,,,,,,,,2,6.252765,,0,0,148,148,129,1,stimuli/stim_20210407_power2amp/equal_lnn_AM5.4Hz_80.m4a,,,
,,,,,,,,,,,,40619,2021-04-29_20h55.30.128,judgeSpeechMusic_20210407_logNormShiftAmp,2020.1.2,MacIntel,60,,,,,,,,,,,,,,2,9.670185,,0,0,149,149,61,1,stimuli/stim_20210407_power2amp/equal_lnn_AM3Hz_82.m4a,,,
,,,,,,,,,,,,40619,2021-04-29_20h55.30.128,judgeSpeechMusic_20210407_logNormShiftAmp,2020.1.2,MacIntel,60,,,,,,,,,,,,,,1,6.20255,,0,1,0,150,27,1,stimuli/stim_20210407_power2amp/equal_lnn_AM1.2Hz_54.m4a,,,
,,,,,,,,,,,,40619,2021-04-29_20h55.30.128,judgeSpeechMusic_20210407_logNormShiftAmp,2020.1.2,MacIntel,60,,,,,,,,,,,,,,2,6.2676,,0,1,1,151,100,1,stimuli/stim_20210407_power2amp/equal_lnn_AM4.2Hz_52.m4a,,,
,,,,,,,,,,,,40619,2021-04-29_20h55.30.128,judgeSpeechMusic_20210407_logNormShiftAmp,2020.1.2,MacIntel,60,,,,,,,,,,,,,,2,5.80209,,0,1,2,152,44,1,stimuli/stim_20210407_power2amp/equal_lnn_AM1.8Hz_8.m4a,,,
,,,,,,,,,,,,40619,2021-04-29_20h55.30.128,judgeSpeechMusic_20210407_logNormShiftAmp,2020.1.2,MacIntel,60,,,,,,,,,,,,,,1,5.72382,,0,1,3,153,136,1,stimuli/stim_20210407_power2amp/equal_lnn_AM6Hz_37.m4a,,,
,,,,,,,,,,,,40619,2021-04-29_20h55.30.128,judgeSpeechMusic_20210407_logNormShiftAmp,2020.1.2,MacIntel,60,,,,,,,,,,,,,,2,5.98833,,0,1,4,154,76,1,stimuli/stim_20210407_power2amp/equal_lnn_AM3.6Hz_47.m4a,,,
,,,,,,,,,,,,40619,2021-04-29_20h55.30.128,judgeSpeechMusic_20210407_logNormShiftAmp,2020.1.2,MacIntel,60,,,,,,,,,,,,,,1,8.390715,,0,1,5,155,114,1,stimuli/stim_20210407_power2amp/equal_lnn_AM4.8Hz_77.m4a,,,
,,,,,,,,,,,,40619,2021-04-29_20h55.30.128,judgeSpeechMusic_20210407_logNormShiftAmp,2020.1.2,MacIntel,60,,,,,,,,,,,,,,1,6.276565,,0,1,6,156,127,1,stimuli/stim_20210407_power2amp/equal_lnn_AM5.4Hz_55.m4a,,,
,,,,,,,,,,,,40619,2021-04-29_20h55.30.128,judgeSpeechMusic_20210407_logNormShiftAmp,2020.1.2,MacIntel,60,,,,,,,,,,,,,,1,7.912735,,0,1,7,157,39,1,stimuli/stim_20210407_power2amp/equal_lnn_AM1.8Hz_98.m4a,,,
,,,,,,,,,,,,40619,2021-04-29_20h55.30.128,judgeSpeechMusic_20210407_logNormShiftAmp,2020.1.2,MacIntel,60,,,,,,,,,,,,,,2,6.53669,,0,1,8,158,38,1,stimuli/stim_20210407_power2amp/equal_lnn_AM1.8Hz_9.m4a,,,
,,,,,,,,,,,,40619,2021-04-29_20h55.30.128,judgeSpeechMusic_20210407_logNormShiftAmp,2020.1.2,MacIntel,60,,,,,,,,,,,,,,2,6.69126,,0,1,9,159,86,1,stimuli/stim_20210407_power2amp/equal_lnn_AM3.6Hz_54.m4a,,,
,,,,,,,,,,,,40619,2021-04-29_20h55.30.128,judgeSpeechMusic_20210407_logNormShiftAmp,2020.1.2,MacIntel,60,,,,,,,,,,,,,,1,6.177225,,0,1,10,160,85,1,stimuli/stim_20210407_power2amp/equal_lnn_AM3.6Hz_91.m4a,,,
,,,,,,,,,,,,40619,2021-04-29_20h55.30.128,judgeSpeechMusic_20210407_logNormShiftAmp,2020.1.2,MacIntel,60,,,,,,,,,,,,,,1,7.540945,,0,1,11,161,78,1,stimuli/stim_20210407_power2amp/equal_lnn_AM3.6Hz_60.m4a,,,
,,,,,,,,,,,,40619,2021-04-29_20h55.30.128,judgeSpeechMusic_20210407_logNormShiftAmp,2020.1.2,MacIntel,60,,,,,,,,,,,,,,2,6.435735,,0,1,12,162,103,1,stimuli/stim_20210407_power2amp/equal_lnn_AM4.2Hz_89.m4a,,,
,,,,,,,,,,,,40619,2021-04-29_20h55.30.128,judgeSpeechMusic_20210407_logNormShiftAmp,2020.1.2,MacIntel,60,,,,,,,,,,,,,,1,9.05032,,0,1,13,163,143,1,stimuli/stim_20210407_power2amp/equal_lnn_AM6Hz_88.m4a,,,
,,,,,,,,,,,,40619,2021-04-29_20h55.30.128,judgeSpeechMusic_20210407_logNormShiftAmp,2020.1.2,MacIntel,60,,,,,,,,,,,,,,1,5.82875,,0,1,14,164,6,1,stimuli/stim_20210407_power2amp/equal_lnn_AM0.6Hz_68.m4a,,,
,,,,,,,,,,,,40619,2021-04-29_20h55.30.128,judgeSpeechMusic_20210407_logNormShiftAmp,2020.1.2,MacIntel,60,,,,,,,,,,,,,,2,6.12014,,0,1,15,165,108,1,stimuli/stim_20210407_power2amp/equal_lnn_AM4.8Hz_88.m4a,,,
,,,,,,,,,,,,40619,2021-04-29_20h55.30.128,judgeSpeechMusic_20210407_logNormShiftAmp,2020.1.2,MacIntel,60,,,,,,,,,,,,,,1,6.504675,1,1,1,16,166,87,1,stimuli/stim_20210407_power2amp/equal_lnn_AM3.6Hz_18.m4a,1.144525,,
,,,,,,,,,,,,40619,2021-04-29_20h55.30.128,judgeSpeechMusic_20210407_logNormShiftAmp,2020.1.2,MacIntel,60,,,,,,,,,,,,,,1,10.50495,,0,1,17,167,12,1,stimuli/stim_20210407_power2amp/equal_lnn_AM0.6Hz_69.m4a,,,
,,,,,,,,,,,,40619,2021-04-29_20h55.30.128,judgeSpeechMusic_20210407_logNormShiftAmp,2020.1.2,MacIntel,60,,,,,,,,,,,,,,2,5.90792,,0,1,18,168,89,1,stimuli/stim_20210407_power2amp/equal_lnn_AM3.6Hz_41.m4a,,,
,,,,,,,,,,,,40619,2021-04-29_20h55.30.128,judgeSpeechMusic_20210407_logNormShiftAmp,2020.1.2,MacIntel,60,,,,,,,,,,,,,,2,6.009655,,0,1,19,169,98,1,stimuli/stim_20210407_power2amp/equal_lnn_AM4.2Hz_30.m4a,,,
,,,,,,,,,,,,40619,2021-04-29_20h55.30.128,judgeSpeechMusic_20210407_logNormShiftAmp,2020.1.2,MacIntel,60,,,,,,,,,,,,,,1,7.328625,,0,1,20,170,62,1,stimuli/stim_20210407_power2amp/equal_lnn_AM3Hz_76.m4a,,,
,,,,,,,,,,,,40619,2021-04-29_20h55.30.128,judgeSpeechMusic_20210407_logNormShiftAmp,2020.1.2,MacIntel,60,,,,,,,,,,,,,,1,6.30153,,0,1,21,171,130,1,stimuli/stim_20210407_power2amp/equal_lnn_AM5.4Hz_25.m4a,,,
,,,,,,,,,,,,40619,2021-04-29_20h55.30.128,judgeSpeechMusic_20210407_logNormShiftAmp,2020.1.2,MacIntel,60,,,,,,,,,,,,,,2,6.723305,,0,1,22,172,92,1,stimuli/stim_20210407_power2amp/equal_lnn_AM4.2Hz_38.m4a,,,
,,,,,,,,,,,,40619,2021-04-29_20h55.30.128,judgeSpeechMusic_20210407_logNormShiftAmp,2020.1.2,MacIntel,60,,,,,,,,,,,,,,1,7.453155,,0,1,23,173,54,1,stimuli/stim_20210407_power2amp/equal_lnn_AM2.4Hz_73.m4a,,,
,,,,,,,,,,,,40619,2021-04-29_20h55.30.128,judgeSpeechMusic_20210407_logNormShiftAmp,2020.1.2,MacIntel,60,,,,,,,,,,,,,,2,5.820445,,0,1,24,174,49,1,stimuli/stim_20210407_power2amp/equal_lnn_AM2.4Hz_17.m4a,,,
,,,,,,,,,,,,40619,2021-04-29_20h55.30.128,judgeSpeechMusic_20210407_logNormShiftAmp,2020.1.2,MacIntel,60,,,,,,,,,,,,,,1,7.108705,,0,1,25,175,141,1,stimuli/stim_20210407_power2amp/equal_lnn_AM6Hz_28.m4a,,,
,,,,,,,,,,,,40619,2021-04-29_20h55.30.128,judgeSpeechMusic_20210407_logNormShiftAmp,2020.1.2,MacIntel,60,,,,,,,,,,,,,,2,6.2712,,0,1,26,176,138,1,stimuli/stim_20210407_power2amp/equal_lnn_AM6Hz_7.m4a,,,
,,,,,,,,,,,,40619,2021-04-29_20h55.30.128,judgeSpeechMusic_20210407_logNormShiftAmp,2020.1.2,MacIntel,60,,,,,,,,,,,,,,2,7.204905,,0,1,27,177,95,1,stimuli/stim_20210407_power2amp/equal_lnn_AM4.2Hz_48.m4a,,,
,,,,,,,,,,,,40619,2021-04-29_20h55.30.128,judgeSpeechMusic_20210407_logNormShiftAmp,2020.1.2,MacIntel,60,,,,,,,,,,,,,,1,7.488835,,0,1,28,178,2,1,stimuli/stim_20210407_power2amp/equal_lnn_AM0.6Hz_81.m4a,,,
,,,,,,,,,,,,40619,2021-04-29_20h55.30.128,judgeSpeechMusic_20210407_logNormShiftAmp,2020.1.2,MacIntel,60,,,,,,,,,,,,,,1,8.87273,,0,1,29,179,25,1,stimuli/stim_20210407_power2amp/equal_lnn_AM1.2Hz_11.m4a,,,
,,,,,,,,,,,,40619,2021-04-29_20h55.30.128,judgeSpeechMusic_20210407_logNormShiftAmp,2020.1.2,MacIntel,60,,,,,,,,,,,,,,1,6.175015,,0,1,30,180,64,1,stimuli/stim_20210407_power2amp/equal_lnn_AM3Hz_54.m4a,,,
,,,,,,,,,,,,40619,2021-04-29_20h55.30.128,judgeSpeechMusic_20210407_logNormShiftAmp,2020.1.2,MacIntel,60,,,,,,,,,,,,,,2,6.090885,,0,1,31,181,133,1,stimuli/stim_20210407_power2amp/equal_lnn_AM5.4Hz_52.m4a,,,
,,,,,,,,,,,,40619,2021-04-29_20h55.30.128,judgeSpeechMusic_20210407_logNormShiftAmp,2020.1.2,MacIntel,60,,,,,,,,,,,,,,1,5.78857,,0,1,32,182,128,1,stimuli/stim_20210407_power2amp/equal_lnn_AM5.4Hz_34.m4a,,,
,,,,,,,,,,,,40619,2021-04-29_20h55.30.128,judgeSpeechMusic_20210407_logNormShiftAmp,2020.1.2,MacIntel,60,,,,,,,,,,,,,,1,7.80014,,0,1,33,183,129,1,stimuli/stim_20210407_power2amp/equal_lnn_AM5.4Hz_80.m4a,,,
,,,,,,,,,,,,40619,2021-04-29_20h55.30.128,judgeSpeechMusic_20210407_logNormShiftAmp,2020.1.2,MacIntel,60,,,,,,,,,,,,,,1,10.499525,,0,1,34,184,75,1,stimuli/stim_20210407_power2amp/equal_lnn_AM3.6Hz_59.m4a,,,
,,,,,,,,,,,,40619,2021-04-29_20h55.30.128,judgeSpeechMusic_20210407_logNormShiftAmp,2020.1.2,MacIntel,60,,,,,,,,,,,,,,1,8.23936,,0,1,35,185,96,1,stimuli/stim_20210407_power2amp/equal_lnn_AM4.2Hz_39.m4a,,,
,,,,,,,,,,,,40619,2021-04-29_20h55.30.128,judgeSpeechMusic_20210407_logNormShiftAmp,2020.1.2,MacIntel,60,,,,,,,,,,,,,,1,6.489545,4,1,1,36,186,28,1,stimuli/stim_20210407_power2amp/equal_lnn_AM1.2Hz_75.m4a,1.657275,,
,,,,,,,,,,,,40619,2021-04-29_20h55.30.128,judgeSpeechMusic_20210407_logNormShiftAmp,2020.1.2,MacIntel,60,,,,,,,,,,,,,,1,16.15718,,0,1,37,187,55,1,stimuli/stim_20210407_power2amp/equal_lnn_AM2.4Hz_70.m4a,,,
,,,,,,,,,,,,40619,2021-04-29_20h55.30.128,judgeSpeechMusic_20210407_logNormShiftAmp,2020.1.2,MacIntel,60,,,,,,,,,,,,,,2,13.626165,,0,1,38,188,20,1,stimuli/stim_20210407_power2amp/equal_lnn_AM1.2Hz_18.m4a,,,
,,,,,,,,,,,,40619,2021-04-29_20h55.30.128,judgeSpeechMusic_20210407_logNormShiftAmp,2020.1.2,MacIntel,60,,,,,,,,,,,,,,2,18.55495,,0,1,39,189,33,1,stimuli/stim_20210407_power2amp/equal_lnn_AM1.8Hz_46.m4a,,,
,,,,,,,,,,,,40619,2021-04-29_20h55.30.128,judgeSpeechMusic_20210407_logNormShiftAmp,2020.1.2,MacIntel,60,,,,,,,,,,,,,,2,7.69601,,0,1,40,190,77,1,stimuli/stim_20210407_power2amp/equal_lnn_AM3.6Hz_74.m4a,,,
,,,,,,,,,,,,40619,2021-04-29_20h55.30.128,judgeSpeechMusic_20210407_logNormShiftAmp,2020.1.2,MacIntel,60,,,,,,,,,,,,,,1,7.35494,,0,1,41,191,121,1,stimuli/stim_20210407_power2amp/equal_lnn_AM5.4Hz_41.m4a,,,
,,,,,,,,,,,,40619,2021-04-29_20h55.30.128,judgeSpeechMusic_20210407_logNormShiftAmp,2020.1.2,MacIntel,60,,,,,,,,,,,,,,1,7.220195,,0,1,42,192,1,1,stimuli/stim_20210407_power2amp/equal_lnn_AM0.6Hz_86.m4a,,,
,,,,,,,,,,,,40619,2021-04-29_20h55.30.128,judgeSpeechMusic_20210407_logNormShiftAmp,2020.1.2,MacIntel,60,,,,,,,,,,,,,,2,8.07661,,0,1,43,193,45,1,stimuli/stim_20210407_power2amp/equal_lnn_AM2.4Hz_6.m4a,,,
,,,,,,,,,,,,40619,2021-04-29_20h55.30.128,judgeSpeechMusic_20210407_logNormShiftAmp,2020.1.2,MacIntel,60,,,,,,,,,,,,,,1,9.554825,,0,1,44,194,32,1,stimuli/stim_20210407_power2amp/equal_lnn_AM1.8Hz_16.m4a,,,
,,,,,,,,,,,,40619,2021-04-29_20h55.30.128,judgeSpeechMusic_20210407_logNormShiftAmp,2020.1.2,MacIntel,60,,,,,,,,,,,,,,2,7.790155,,0,1,45,195,9,1,stimuli/stim_20210407_power2amp/equal_lnn_AM0.6Hz_9.m4a,,,
,,,,,,,,,,,,40619,2021-04-29_20h55.30.128,judgeSpeechMusic_20210407_logNormShiftAmp,2020.1.2,MacIntel,60,,,,,,,,,,,,,,2,10.79401,,0,1,46,196,101,1,stimuli/stim_20210407_power2amp/equal_lnn_AM4.2Hz_46.m4a,,,
,,,,,,,,,,,,40619,2021-04-29_20h55.30.128,judgeSpeechMusic_20210407_logNormShiftAmp,2020.1.2,MacIntel,60,,,,,,,,,,,,,,2,11.47198,,0,1,47,197,102,1,stimuli/stim_20210407_power2amp/equal_lnn_AM4.2Hz_67.m4a,,,
,,,,,,,,,,,,40619,2021-04-29_20h55.30.128,judgeSpeechMusic_20210407_logNormShiftAmp,2020.1.2,MacIntel,60,,,,,,,,,,,,,,2,5.84769,,0,1,48,198,47,1,stimuli/stim_20210407_power2amp/equal_lnn_AM2.4Hz_92.m4a,,,
,,,,,,,,,,,,40619,2021-04-29_20h55.30.128,judgeSpeechMusic_20210407_logNormShiftAmp,2020.1.2,MacIntel,60,,,,,,,,,,,,,,1,6.302205,,0,1,49,199,118,1,stimuli/stim_20210407_power2amp/equal_lnn_AM4.8Hz_20.m4a,,,
,,,,,,,,,,,,40619,2021-04-29_20h55.30.128,judgeSpeechMusic_20210407_logNormShiftAmp,2020.1.2,MacIntel,60,,,,,,,,,,,,,,1,6.944685,,0,1,50,200,59,1,stimuli/stim_20210407_power2amp/equal_lnn_AM2.4Hz_85.m4a,,,
,,,,,,,,,,,,40619,2021-04-29_20h55.30.128,judgeSpeechMusic_20210407_logNormShiftAmp,2020.1.2,MacIntel,60,,,,,,,,,,,,,,1,6.089265,,0,1,51,201,61,1,stimuli/stim_20210407_power2amp/equal_lnn_AM3Hz_82.m4a,,,
,,,,,,,,,,,,40619,2021-04-29_20h55.30.128,judgeSpeechMusic_20210407_logNormShiftAmp,2020.1.2,MacIntel,60,,,,,,,,,,,,,,1,6.338755,,0,1,52,202,116,1,stimuli/stim_20210407_power2amp/equal_lnn_AM4.8Hz_68.m4a,,,
,,,,,,,,,,,,40619,2021-04-29_20h55.30.128,judgeSpeechMusic_20210407_logNormShiftAmp,2020.1.2,MacIntel,60,,,,,,,,,,,,,,2,6.39464,,0,1,53,203,106,1,stimuli/stim_20210407_power2amp/equal_lnn_AM4.8Hz_12.m4a,,,
,,,,,,,,,,,,40619,2021-04-29_20h55.30.128,judgeSpeechMusic_20210407_logNormShiftAmp,2020.1.2,MacIntel,60,,,,,,,,,,,,,,1,7.621665,,0,1,54,204,5,1,stimuli/stim_20210407_power2amp/equal_lnn_AM0.6Hz_17.m4a,,,
,,,,,,,,,,,,40619,2021-04-29_20h55.30.128,judgeSpeechMusic_20210407_logNormShiftAmp,2020.1.2,MacIntel,60,,,,,,,,,,,,,,1,6.87417,,0,1,55,205,41,1,stimuli/stim_20210407_power2amp/equal_lnn_AM1.8Hz_38.m4a,,,
,,,,,,,,,,,,40619,2021-04-29_20h55.30.128,judgeSpeechMusic_20210407_logNormShiftAmp,2020.1.2,MacIntel,60,,,,,,,,,,,,,,1,6.07866,,0,1,56,206,144,1,stimuli/stim_20210407_power2amp/equal_lnn_AM6Hz_53.m4a,,,
,,,,,,,,,,,,40619,2021-04-29_20h55.30.128,judgeSpeechMusic_20210407_logNormShiftAmp,2020.1.2,MacIntel,60,,,,,,,,,,,,,,1,7.35581,1,1,1,57,207,4,1,stimuli/stim_20210407_power2amp/equal_lnn_AM0.6Hz_4.m4a,0.397545,,
,,,,,,,,,,,,40619,2021-04-29_20h55.30.128,judgeSpeechMusic_20210407_logNormShiftAmp,2020.1.2,MacIntel,60,,,,,,,,,,,,,,2,5.905115,,0,1,58,208,79,1,stimuli/stim_20210407_power2amp/equal_lnn_AM3.6Hz_1.m4a,,,
,,,,,,,,,,,,40619,2021-04-29_20h55.30.128,judgeSpeechMusic_20210407_logNormShiftAmp,2020.1.2,MacIntel,60,,,,,,,,,,,,,,1,7.616155,,0,1,59,209,132,1,stimuli/stim_20210407_power2amp/equal_lnn_AM5.4Hz_89.m4a,,,
,,,,,,,,,,,,40619,2021-04-29_20h55.30.128,judgeSpeechMusic_20210407_logNormShiftAmp,2020.1.2,MacIntel,60,,,,,,,,,,,,,,2,5.873025,,0,1,60,210,142,1,stimuli/stim_20210407_power2amp/equal_lnn_AM6Hz_47.m4a,,,
,,,,,,,,,,,,40619,2021-04-29_20h55.30.128,judgeSpeechMusic_20210407_logNormShiftAmp,2020.1.2,MacIntel,60,,,,,,,,,,,,,,1,7.013715,,0,1,61,211,56,1,stimuli/stim_20210407_power2amp/equal_lnn_AM2.4Hz_68.m4a,,,
,,,,,,,,,,,,40619,2021-04-29_20h55.30.128,judgeSpeechMusic_20210407_logNormShiftAmp,2020.1.2,MacIntel,60,,,,,,,,,,,,,,1,6.4894,,0,1,62,212,24,1,stimuli/stim_20210407_power2amp/equal_lnn_AM1.2Hz_3.m4a,,,
,,,,,,,,,,,,40619,2021-04-29_20h55.30.128,judgeSpeechMusic_20210407_logNormShiftAmp,2020.1.2,MacIntel,60,,,,,,,,,,,,,,1,9.67151,,0,1,63,213,18,1,stimuli/stim_20210407_power2amp/equal_lnn_AM1.2Hz_41.m4a,,,
,,,,,,,,,,,,40619,2021-04-29_20h55.30.128,judgeSpeechMusic_20210407_logNormShiftAmp,2020.1.2,MacIntel,60,,,,,,,,,,,,,,1,13.850695,,0,1,64,214,15,1,stimuli/stim_20210407_power2amp/equal_lnn_AM1.2Hz_21.m4a,,,
,,,,,,,,,,,,40619,2021-04-29_20h55.30.128,judgeSpeechMusic_20210407_logNormShiftAmp,2020.1.2,MacIntel,60,,,,,,,,,,,,,,1,10.954365,,0,1,65,215,110,1,stimuli/stim_20210407_power2amp/equal_lnn_AM4.8Hz_46.m4a,,,
,,,,,,,,,,,,40619,2021-04-29_20h55.30.128,judgeSpeechMusic_20210407_logNormShiftAmp,2020.1.2,MacIntel,60,,,,,,,,,,,,,,2,7.692295,,0,1,66,216,60,1,stimuli/stim_20210407_power2amp/equal_lnn_AM3Hz_27.m4a,,,
,,,,,,,,,,,,40619,2021-04-29_20h55.30.128,judgeSpeechMusic_20210407_logNormShiftAmp,2020.1.2,MacIntel,60,,,,,,,,,,,,,,2,5.71819,,0,1,67,217,81,1,stimuli/stim_20210407_power2amp/equal_lnn_AM3.6Hz_25.m4a,,,
,,,,,,,,,,,,40619,2021-04-29_20h55.30.128,judgeSpeechMusic_20210407_logNormShiftAmp,2020.1.2,MacIntel,60,,,,,,,,,,,,,,1,6.4612,,0,1,68,218,93,1,stimuli/stim_20210407_power2amp/equal_lnn_AM4.2Hz_87.m4a,,,
,,,,,,,,,,,,40619,2021-04-29_20h55.30.128,judgeSpeechMusic_20210407_logNormShiftAmp,2020.1.2,MacIntel,60,,,,,,,,,,,,,,1,7.408275,,0,1,69,219,111,1,stimuli/stim_20210407_power2amp/equal_lnn_AM4.8Hz_78.m4a,,,
,,,,,,,,,,,,40619,2021-04-29_20h55.30.128,judgeSpeechMusic_20210407_logNormShiftAmp,2020.1.2,MacIntel,60,,,,,,,,,,,,,,1,6.56061,,0,1,70,220,123,1,stimuli/stim_20210407_power2amp/equal_lnn_AM5.4Hz_37.m4a,,,
,,,,,,,,,,,,40619,2021-04-29_20h55.30.128,judgeSpeechMusic_20210407_logNormShiftAmp,2020.1.2,MacIntel,60,,,,,,,,,,,,,,2,6.052105,,0,1,71,221,140,1,stimuli/stim_20210407_power2amp/equal_lnn_AM6Hz_65.m4a,,,
,,,,,,,,,,,,40619,2021-04-29_20h55.30.128,judgeSpeechMusic_20210407_logNormShiftAmp,2020.1.2,MacIntel,60,,,,,,,,,,,,,,2,11.842975,,0,1,72,222,134,1,stimuli/stim_20210407_power2amp/equal_lnn_AM5.4Hz_8.m4a,,,
,,,,,,,,,,,,40619,2021-04-29_20h55.30.128,judgeSpeechMusic_20210407_logNormShiftAmp,2020.1.2,MacIntel,60,,,,,,,,,,,,,,1,7.1446,,0,1,73,223,50,1,stimuli/stim_20210407_power2amp/equal_lnn_AM2.4Hz_58.m4a,,,
,,,,,,,,,,,,40619,2021-04-29_20h55.30.128,judgeSpeechMusic_20210407_logNormShiftAmp,2020.1.2,MacIntel,60,,,,,,,,,,,,,,1,7.97166,,0,1,74,224,68,1,stimuli/stim_20210407_power2amp/equal_lnn_AM3Hz_60.m4a,,,
,,,,,,,,,,,,40619,2021-04-29_20h55.30.128,judgeSpeechMusic_20210407_logNormShiftAmp,2020.1.2,MacIntel,60,,,,,,,,,,,,,,2,5.656645,,0,1,75,225,117,1,stimuli/stim_20210407_power2amp/equal_lnn_AM4.8Hz_85.m4a,,,
,,,,,,,,,,,,40619,2021-04-29_20h55.30.128,judgeSpeechMusic_20210407_logNormShiftAmp,2020.1.2,MacIntel,60,,,,,,,,,,,,,,1,6.73159,,0,1,76,226,21,1,stimuli/stim_20210407_power2amp/equal_lnn_AM1.2Hz_14.m4a,,,
,,,,,,,,,,,,40619,2021-04-29_20h55.30.128,judgeSpeechMusic_20210407_logNormShiftAmp,2020.1.2,MacIntel,60,,,,,,,,,,,,,,2,6.735785,,0,1,77,227,94,1,stimuli/stim_20210407_power2amp/equal_lnn_AM4.2Hz_36.m4a,,,
,,,,,,,,,,,,40619,2021-04-29_20h55.30.128,judgeSpeechMusic_20210407_logNormShiftAmp,2020.1.2,MacIntel,60,,,,,,,,,,,,,,2,5.989635,,0,1,78,228,131,1,stimuli/stim_20210407_power2amp/equal_lnn_AM5.4Hz_73.m4a,,,
,,,,,,,,,,,,40619,2021-04-29_20h55.30.128,judgeSpeechMusic_20210407_logNormShiftAmp,2020.1.2,MacIntel,60,,,,,,,,,,,,,,1,6.70561,3,1,1,79,229,17,1,stimuli/stim_20210407_power2amp/equal_lnn_AM1.2Hz_61.m4a,1.13164,,
,,,,,,,,,,,,40619,2021-04-29_20h55.30.128,judgeSpeechMusic_20210407_logNormShiftAmp,2020.1.2,MacIntel,60,,,,,,,,,,,,,,1,5.72435,,0,1,80,230,29,1,stimuli/stim_20210407_power2amp/equal_lnn_AM1.2Hz_17.m4a,,,
,,,,,,,,,,,,40619,2021-04-29_20h55.30.128,judgeSpeechMusic_20210407_logNormShiftAmp,2020.1.2,MacIntel,60,,,,,,,,,,,,,,1,5.57162,,0,1,81,231,135,1,stimuli/stim_20210407_power2amp/equal_lnn_AM6Hz_41.m4a,,,
,,,,,,,,,,,,40619,2021-04-29_20h55.30.128,judgeSpeechMusic_20210407_logNormShiftAmp,2020.1.2,MacIntel,60,,,,,,,,,,,,,,2,5.90595,,0,1,82,232,13,1,stimuli/stim_20210407_power2amp/equal_lnn_AM0.6Hz_60.m4a,,,
,,,,,,,,,,,,40619,2021-04-29_20h55.30.128,judgeSpeechMusic_20210407_logNormShiftAmp,2020.1.2,MacIntel,60,,,,,,,,,,,,,,2,5.50801,,0,1,83,233,124,1,stimuli/stim_20210407_power2amp/equal_lnn_AM5.4Hz_82.m4a,,,
,,,,,,,,,,,,40619,2021-04-29_20h55.30.128,judgeSpeechMusic_20210407_logNormShiftAmp,2020.1.2,MacIntel,60,,,,,,,,,,,,,,2,6.4067,,0,1,84,234,91,1,stimuli/stim_20210407_power2amp/equal_lnn_AM4.2Hz_14.m4a,,,
,,,,,,,,,,,,40619,2021-04-29_20h55.30.128,judgeSpeechMusic_20210407_logNormShiftAmp,2020.1.2,MacIntel,60,,,,,,,,,,,,,,2,6.3094,,0,1,85,235,122,1,stimuli/stim_20210407_power2amp/equal_lnn_AM5.4Hz_83.m4a,,,
,,,,,,,,,,,,40619,2021-04-29_20h55.30.128,judgeSpeechMusic_20210407_logNormShiftAmp,2020.1.2,MacIntel,60,,,,,,,,,,,,,,1,5.934765,,0,1,86,236,46,1,stimuli/stim_20210407_power2amp/equal_lnn_AM2.4Hz_76.m4a,,,
,,,,,,,,,,,,40619,2021-04-29_20h55.30.128,judgeSpeechMusic_20210407_logNormShiftAmp,2020.1.2,MacIntel,60,,,,,,,,,,,,,,2,7.0305,,0,1,87,237,42,1,stimuli/stim_20210407_power2amp/equal_lnn_AM1.8Hz_85.m4a,,,
,,,,,,,,,,,,40619,2021-04-29_20h55.30.128,judgeSpeechMusic_20210407_logNormShiftAmp,2020.1.2,MacIntel,60,,,,,,,,,,,,,,1,5.58759,,0,1,88,238,148,1,stimuli/stim_20210407_power2amp/equal_lnn_AM6Hz_21.m4a,,,
,,,,,,,,,,,,40619,2021-04-29_20h55.30.128,judgeSpeechMusic_20210407_logNormShiftAmp,2020.1.2,MacIntel,60,,,,,,,,,,,,,,2,6.406715,,0,1,89,239,71,1,stimuli/stim_20210407_power2amp/equal_lnn_AM3Hz_8.m4a,,,
,,,,,,,,,,,,40619,2021-04-29_20h55.30.128,judgeSpeechMusic_20210407_logNormShiftAmp,2020.1.2,MacIntel,60,,,,,,,,,,,,,,2,7.313445,,0,1,90,240,16,1,stimuli/stim_20210407_power2amp/equal_lnn_AM1.2Hz_1.m4a,,,
,,,,,,,,,,,,40619,2021-04-29_20h55.30.128,judgeSpeechMusic_20210407_logNormShiftAmp,2020.1.2,MacIntel,60,,,,,,,,,,,,,,1,9.14253,,0,1,91,241,112,1,stimuli/stim_20210407_power2amp/equal_lnn_AM4.8Hz_100.m4a,,,
,,,,,,,,,,,,40619,2021-04-29_20h55.30.128,judgeSpeechMusic_20210407_logNormShiftAmp,2020.1.2,MacIntel,60,,,,,,,,,,,,,,2,8.33826,,0,1,92,242,119,1,stimuli/stim_20210407_power2amp/equal_lnn_AM4.8Hz_69.m4a,,,
,,,,,,,,,,,,40619,2021-04-29_20h55.30.128,judgeSpeechMusic_20210407_logNormShiftAmp,2020.1.2,MacIntel,60,,,,,,,,,,,,,,1,9.97135,,0,1,93,243,8,1,stimuli/stim_20210407_power2amp/equal_lnn_AM0.6Hz_64.m4a,,,
,,,,,,,,,,,,40619,2021-04-29_20h55.30.128,judgeSpeechMusic_20210407_logNormShiftAmp,2020.1.2,MacIntel,60,,,,,,,,,,,,,,2,8.002305,,0,1,94,244,48,1,stimuli/stim_20210407_power2amp/equal_lnn_AM2.4Hz_41.m4a,,,
,,,,,,,,,,,,40619,2021-04-29_20h55.30.128,judgeSpeechMusic_20210407_logNormShiftAmp,2020.1.2,MacIntel,60,,,,,,,,,,,,,,1,7.2181,,0,1,95,245,35,1,stimuli/stim_20210407_power2amp/equal_lnn_AM1.8Hz_47.m4a,,,
,,,,,,,,,,,,40619,2021-04-29_20h55.30.128,judgeSpeechMusic_20210407_logNormShiftAmp,2020.1.2,MacIntel,60,,,,,,,,,,,,,,2,7.558125,,0,1,96,246,22,1,stimuli/stim_20210407_power2amp/equal_lnn_AM1.2Hz_40.m4a,,,
,,,,,,,,,,,,40619,2021-04-29_20h55.30.128,judgeSpeechMusic_20210407_logNormShiftAmp,2020.1.2,MacIntel,60,,,,,,,,,,,,,,2,7.20459,,0,1,97,247,63,1,stimuli/stim_20210407_power2amp/equal_lnn_AM3Hz_91.m4a,,,
,,,,,,,,,,,,40619,2021-04-29_20h55.30.128,judgeSpeechMusic_20210407_logNormShiftAmp,2020.1.2,MacIntel,60,,,,,,,,,,,,,,2,5.55275,,0,1,98,248,43,1,stimuli/stim_20210407_power2amp/equal_lnn_AM1.8Hz_79.m4a,,,
,,,,,,,,,,,,40619,2021-04-29_20h55.30.128,judgeSpeechMusic_20210407_logNormShiftAmp,2020.1.2,MacIntel,60,,,,,,,,,,,,,,2,5.863695,4,1,1,99,249,104,1,stimuli/stim_20210407_power2amp/equal_lnn_AM4.2Hz_19.m4a,2.021325,,
,,,,,,,,,,,,40619,2021-04-29_20h55.30.128,judgeSpeechMusic_20210407_logNormShiftAmp,2020.1.2,MacIntel,60,,,,,,,,,,,,,,2,5.78713,,0,1,100,250,52,1,stimuli/stim_20210407_power2amp/equal_lnn_AM2.4Hz_21.m4a,,,
,,,,,,,,,,,,40619,2021-04-29_20h55.30.128,judgeSpeechMusic_20210407_logNormShiftAmp,2020.1.2,MacIntel,60,,,,,,,,,,,,,,1,7.30431,,0,1,101,251,115,1,stimuli/stim_20210407_power2amp/equal_lnn_AM4.8Hz_38.m4a,,,
,,,,,,,,,,,,40619,2021-04-29_20h55.30.128,judgeSpeechMusic_20210407_logNormShiftAmp,2020.1.2,MacIntel,60,,,,,,,,,,,,,,1,8.42136,,0,1,102,252,74,1,stimuli/stim_20210407_power2amp/equal_lnn_AM3Hz_53.m4a,,,
,,,,,,,,,,,,40619,2021-04-29_20h55.30.128,judgeSpeechMusic_20210407_logNormShiftAmp,2020.1.2,MacIntel,60,,,,,,,,,,,,,,2,5.59321,,0,1,103,253,34,1,stimuli/stim_20210407_power2amp/equal_lnn_AM1.8Hz_7.m4a,,,
,,,,,,,,,,,,40619,2021-04-29_20h55.30.128,judgeSpeechMusic_20210407_logNormShiftAmp,2020.1.2,MacIntel,60,,,,,,,,,,,,,,1,6.20746,,0,1,104,254,11,1,stimuli/stim_20210407_power2amp/equal_lnn_AM0.6Hz_29.m4a,,,
,,,,,,,,,,,,40619,2021-04-29_20h55.30.128,judgeSpeechMusic_20210407_logNormShiftAmp,2020.1.2,MacIntel,60,,,,,,,,,,,,,,1,5.92037,,0,1,105,255,23,1,stimuli/stim_20210407_power2amp/equal_lnn_AM1.2Hz_36.m4a,,,
,,,,,,,,,,,,40619,2021-04-29_20h55.30.128,judgeSpeechMusic_20210407_logNormShiftAmp,2020.1.2,MacIntel,60,,,,,,,,,,,,,,2,7.12004,,0,1,106,256,105,1,stimuli/stim_20210407_power2amp/equal_lnn_AM4.8Hz_2.m4a,,,
,,,,,,,,,,,,40619,2021-04-29_20h55.30.128,judgeSpeechMusic_20210407_logNormShiftAmp,2020.1.2,MacIntel,60,,,,,,,,,,,,,,2,7.771695,,0,1,107,257,146,1,stimuli/stim_20210407_power2amp/equal_lnn_AM6Hz_18.m4a,,,
,,,,,,,,,,,,40619,2021-04-29_20h55.30.128,judgeSpeechMusic_20210407_logNormShiftAmp,2020.1.2,MacIntel,60,,,,,,,,,,,,,,2,6.972625,,0,1,108,258,125,1,stimuli/stim_20210407_power2amp/equal_lnn_AM5.4Hz_13.m4a,,,
,,,,,,,,,,,,40619,2021-04-29_20h55.30.128,judgeSpeechMusic_20210407_logNormShiftAmp,2020.1.2,MacIntel,60,,,,,,,,,,,,,,1,8.471185,,0,1,109,259,19,1,stimuli/stim_20210407_power2amp/equal_lnn_AM1.2Hz_6.m4a,,,
,,,,,,,,,,,,40619,2021-04-29_20h55.30.128,judgeSpeechMusic_20210407_logNormShiftAmp,2020.1.2,MacIntel,60,,,,,,,,,,,,,,2,6.28975,,0,1,110,260,82,1,stimuli/stim_20210407_power2amp/equal_lnn_AM3.6Hz_76.m4a,,,
,,,,,,,,,,,,40619,2021-04-29_20h55.30.128,judgeSpeechMusic_20210407_logNormShiftAmp,2020.1.2,MacIntel,60,,,,,,,,,,,,,,2,6.30496,,0,1,111,261,83,1,stimuli/stim_20210407_power2amp/equal_lnn_AM3.6Hz_4.m4a,,,
,,,,,,,,,,,,40619,2021-04-29_20h55.30.128,judgeSpeechMusic_20210407_logNormShiftAmp,2020.1.2,MacIntel,60,,,,,,,,,,,,,,1,7.205445,,0,1,112,262,66,1,stimuli/stim_20210407_power2amp/equal_lnn_AM3Hz_74.m4a,,,
,,,,,,,,,,,,40619,2021-04-29_20h55.30.128,judgeSpeechMusic_20210407_logNormShiftAmp,2020.1.2,MacIntel,60,,,,,,,,,,,,,,1,8.623085,,0,1,113,263,10,1,stimuli/stim_20210407_power2amp/equal_lnn_AM0.6Hz_75.m4a,,,
,,,,,,,,,,,,40619,2021-04-29_20h55.30.128,judgeSpeechMusic_20210407_logNormShiftAmp,2020.1.2,MacIntel,60,,,,,,,,,,,,,,1,6.853125,,0,1,114,264,99,1,stimuli/stim_20210407_power2amp/equal_lnn_AM4.2Hz_33.m4a,,,
,,,,,,,,,,,,40619,2021-04-29_20h55.30.128,judgeSpeechMusic_20210407_logNormShiftAmp,2020.1.2,MacIntel,60,,,,,,,,,,,,,,2,5.606305,,0,1,115,265,58,1,stimuli/stim_20210407_power2amp/equal_lnn_AM2.4Hz_88.m4a,,,
,,,,,,,,,,,,40619,2021-04-29_20h55.30.128,judgeSpeechMusic_20210407_logNormShiftAmp,2020.1.2,MacIntel,60,,,,,,,,,,,,,,2,6.59115,,0,1,116,266,113,1,stimuli/stim_20210407_power2amp/equal_lnn_AM4.8Hz_5.m4a,,,
,,,,,,,,,,,,40619,2021-04-29_20h55.30.128,judgeSpeechMusic_20210407_logNormShiftAmp,2020.1.2,MacIntel,60,,,,,,,,,,,,,,2,6.6351,,0,1,117,267,145,1,stimuli/stim_20210407_power2amp/equal_lnn_AM6Hz_100.m4a,,,
,,,,,,,,,,,,40619,2021-04-29_20h55.30.128,judgeSpeechMusic_20210407_logNormShiftAmp,2020.1.2,MacIntel,60,,,,,,,,,,,,,,1,7.68928,,0,1,118,268,51,1,stimuli/stim_20210407_power2amp/equal_lnn_AM2.4Hz_82.m4a,,,
,,,,,,,,,,,,40619,2021-04-29_20h55.30.128,judgeSpeechMusic_20210407_logNormShiftAmp,2020.1.2,MacIntel,60,,,,,,,,,,,,,,1,7.471335,,0,1,119,269,109,1,stimuli/stim_20210407_power2amp/equal_lnn_AM4.8Hz_66.m4a,,,
,,,,,,,,,,,,40619,2021-04-29_20h55.30.128,judgeSpeechMusic_20210407_logNormShiftAmp,2020.1.2,MacIntel,60,,,,,,,,,,,,,,1,5.992315,,0,1,120,270,139,1,stimuli/stim_20210407_power2amp/equal_lnn_AM6Hz_48.m4a,,,
,,,,,,,,,,,,40619,2021-04-29_20h55.30.128,judgeSpeechMusic_20210407_logNormShiftAmp,2020.1.2,MacIntel,60,,,,,,,,,,,,,,2,8.5242,,0,1,121,271,57,1,stimuli/stim_20210407_power2amp/equal_lnn_AM2.4Hz_31.m4a,,,
,,,,,,,,,,,,40619,2021-04-29_20h55.30.128,judgeSpeechMusic_20210407_logNormShiftAmp,2020.1.2,MacIntel,60,,,,,,,,,,,,,,2,11.90559,4,1,1,122,272,70,1,stimuli/stim_20210407_power2amp/equal_lnn_AM3Hz_13.m4a,2.112505,,
,,,,,,,,,,,,40619,2021-04-29_20h55.30.128,judgeSpeechMusic_20210407_logNormShiftAmp,2020.1.2,MacIntel,60,,,,,,,,,,,,,,2,13.521515,,0,1,123,273,0,1,stimuli/stim_20210407_power2amp/equal_lnn_AM0.6Hz_20.m4a,,,
,,,,,,,,,,,,40619,2021-04-29_20h55.30.128,judgeSpeechMusic_20210407_logNormShiftAmp,2020.1.2,MacIntel,60,,,,,,,,,,,,,,1,5.841,,0,1,124,274,126,1,stimuli/stim_20210407_power2amp/equal_lnn_AM5.4Hz_47.m4a,,,
,,,,,,,,,,,,40619,2021-04-29_20h55.30.128,judgeSpeechMusic_20210407_logNormShiftAmp,2020.1.2,MacIntel,60,,,,,,,,,,,,,,1,6.9702,,0,1,125,275,147,1,stimuli/stim_20210407_power2amp/equal_lnn_AM6Hz_4.m4a,,,
,,,,,,,,,,,,40619,2021-04-29_20h55.30.128,judgeSpeechMusic_20210407_logNormShiftAmp,2020.1.2,MacIntel,60,,,,,,,,,,,,,,2,5.71998,,0,1,126,276,67,1,stimuli/stim_20210407_power2amp/equal_lnn_AM3Hz_97.m4a,,,
,,,,,,,,,,,,40619,2021-04-29_20h55.30.128,judgeSpeechMusic_20210407_logNormShiftAmp,2020.1.2,MacIntel,60,,,,,,,,,,,,,,1,6.001025,,0,1,127,277,26,1,stimuli/stim_20210407_power2amp/equal_lnn_AM1.2Hz_13.m4a,,,
,,,,,,,,,,,,40619,2021-04-29_20h55.30.128,judgeSpeechMusic_20210407_logNormShiftAmp,2020.1.2,MacIntel,60,,,,,,,,,,,,,,1,7.023755,,0,1,128,278,69,1,stimuli/stim_20210407_power2amp/equal_lnn_AM3Hz_66.m4a,,,
,,,,,,,,,,,,40619,2021-04-29_20h55.30.128,judgeSpeechMusic_20210407_logNormShiftAmp,2020.1.2,MacIntel,60,,,,,,,,,,,,,,1,8.34225,,0,1,129,279,97,1,stimuli/stim_20210407_power2amp/equal_lnn_AM4.2Hz_57.m4a,,,
,,,,,,,,,,,,40619,2021-04-29_20h55.30.128,judgeSpeechMusic_20210407_logNormShiftAmp,2020.1.2,MacIntel,60,,,,,,,,,,,,,,1,6.494555,,0,1,130,280,40,1,stimuli/stim_20210407_power2amp/equal_lnn_AM1.8Hz_92.m4a,,,
,,,,,,,,,,,,40619,2021-04-29_20h55.30.128,judgeSpeechMusic_20210407_logNormShiftAmp,2020.1.2,MacIntel,60,,,,,,,,,,,,,,1,7.467425,,0,1,131,281,72,1,stimuli/stim_20210407_power2amp/equal_lnn_AM3Hz_15.m4a,,,
,,,,,,,,,,,,40619,2021-04-29_20h55.30.128,judgeSpeechMusic_20210407_logNormShiftAmp,2020.1.2,MacIntel,60,,,,,,,,,,,,,,1,7.707995,,0,1,132,282,36,1,stimuli/stim_20210407_power2amp/equal_lnn_AM1.8Hz_11.m4a,,,
,,,,,,,,,,,,40619,2021-04-29_20h55.30.128,judgeSpeechMusic_20210407_logNormShiftAmp,2020.1.2,MacIntel,60,,,,,,,,,,,,,,2,5.826195,,0,1,133,283,30,1,stimuli/stim_20210407_power2amp/equal_lnn_AM1.8Hz_97.m4a,,,
,,,,,,,,,,,,40619,2021-04-29_20h55.30.128,judgeSpeechMusic_20210407_logNormShiftAmp,2020.1.2,MacIntel,60,,,,,,,,,,,,,,1,6.038105,,0,1,134,284,65,1,stimuli/stim_20210407_power2amp/equal_lnn_AM3Hz_11.m4a,,,
,,,,,,,,,,,,40619,2021-04-29_20h55.30.128,judgeSpeechMusic_20210407_logNormShiftAmp,2020.1.2,MacIntel,60,,,,,,,,,,,,,,1,5.660425,,0,1,135,285,14,1,stimuli/stim_20210407_power2amp/equal_lnn_AM0.6Hz_72.m4a,,,
,,,,,,,,,,,,40619,2021-04-29_20h55.30.128,judgeSpeechMusic_20210407_logNormShiftAmp,2020.1.2,MacIntel,60,,,,,,,,,,,,,,1,5.493945,,0,1,136,286,137,1,stimuli/stim_20210407_power2amp/equal_lnn_AM6Hz_71.m4a,,,
,,,,,,,,,,,,40619,2021-04-29_20h55.30.128,judgeSpeechMusic_20210407_logNormShiftAmp,2020.1.2,MacIntel,60,,,,,,,,,,,,,,2,5.56901,,0,1,137,287,53,1,stimuli/stim_20210407_power2amp/equal_lnn_AM2.4Hz_9.m4a,,,
,,,,,,,,,,,,40619,2021-04-29_20h55.30.128,judgeSpeechMusic_20210407_logNormShiftAmp,2020.1.2,MacIntel,60,,,,,,,,,,,,,,1,5.72549,,0,1,138,288,80,1,stimuli/stim_20210407_power2amp/equal_lnn_AM3.6Hz_81.m4a,,,
,,,,,,,,,,,,40619,2021-04-29_20h55.30.128,judgeSpeechMusic_20210407_logNormShiftAmp,2020.1.2,MacIntel,60,,,,,,,,,,,,,,1,5.619715,,0,1,139,289,31,1,stimuli/stim_20210407_power2amp/equal_lnn_AM1.8Hz_20.m4a,,,
,,,,,,,,,,,,40619,2021-04-29_20h55.30.128,judgeSpeechMusic_20210407_logNormShiftAmp,2020.1.2,MacIntel,60,,,,,,,,,,,,,,2,6.75886,,0,1,140,290,88,1,stimuli/stim_20210407_power2amp/equal_lnn_AM3.6Hz_30.m4a,,,
,,,,,,,,,,,,40619,2021-04-29_20h55.30.128,judgeSpeechMusic_20210407_logNormShiftAmp,2020.1.2,MacIntel,60,,,,,,,,,,,,,,1,7.653745,,0,1,141,291,7,1,stimuli/stim_20210407_power2amp/equal_lnn_AM0.6Hz_12.m4a,,,
,,,,,,,,,,,,40619,2021-04-29_20h55.30.128,judgeSpeechMusic_20210407_logNormShiftAmp,2020.1.2,MacIntel,60,,,,,,,,,,,,,,2,6.368705,,0,1,142,292,107,1,stimuli/stim_20210407_power2amp/equal_lnn_AM4.8Hz_6.m4a,,,
,,,,,,,,,,,,40619,2021-04-29_20h55.30.128,judgeSpeechMusic_20210407_logNormShiftAmp,2020.1.2,MacIntel,60,,,,,,,,,,,,,,1,7.60548,,0,1,143,293,73,1,stimuli/stim_20210407_power2amp/equal_lnn_AM3Hz_55.m4a,,,
,,,,,,,,,,,,40619,2021-04-29_20h55.30.128,judgeSpeechMusic_20210407_logNormShiftAmp,2020.1.2,MacIntel,60,,,,,,,,,,,,,,2,6.29172,,0,1,144,294,120,1,stimuli/stim_20210407_power2amp/equal_lnn_AM5.4Hz_49.m4a,,,
,,,,,,,,,,,,40619,2021-04-29_20h55.30.128,judgeSpeechMusic_20210407_logNormShiftAmp,2020.1.2,MacIntel,60,,,,,,,,,,,,,,1,5.90101,,0,1,145,295,149,1,stimuli/stim_20210407_power2amp/equal_lnn_AM6Hz_24.m4a,,,
,,,,,,,,,,,,40619,2021-04-29_20h55.30.128,judgeSpeechMusic_20210407_logNormShiftAmp,2020.1.2,MacIntel,60,,,,,,,,,,,,,,2,5.78644,,0,1,146,296,90,1,stimuli/stim_20210407_power2amp/equal_lnn_AM4.2Hz_37.m4a,,,
,,,,,,,,,,,,40619,2021-04-29_20h55.30.128,judgeSpeechMusic_20210407_logNormShiftAmp,2020.1.2,MacIntel,60,,,,,,,,,,,,,,1,5.753035,,0,1,147,297,37,1,stimuli/stim_20210407_power2amp/equal_lnn_AM1.8Hz_88.m4a,,,
,,,,,,,,,,,,40619,2021-04-29_20h55.30.128,judgeSpeechMusic_20210407_logNormShiftAmp,2020.1.2,MacIntel,60,,,,,,,,,,,,,,1,6.007485,,0,1,148,298,84,1,stimuli/stim_20210407_power2amp/equal_lnn_AM3.6Hz_68.m4a,,,
,,,,,,,,,,,,40619,2021-04-29_20h55.30.128,judgeSpeechMusic_20210407_logNormShiftAmp,2020.1.2,MacIntel,60,,,,,,,,,,,,,,2,6.152275,,0,1,149,299,3,1,stimuli/stim_20210407_power2amp/equal_lnn_AM0.6Hz_46.m4a,,,
,,,,,,,,,,,,40619,2021-04-29_20h55.30.128,judgeSpeechMusic_20210407_logNormShiftAmp,2020.1.2,MacIntel,60,,,,,,,,,,,,,,,,,,,,,,,,,space,4.52808
