headphoneResponse.keys,headphoneResponse.corr,headphoneResponse.rt,headphoneTrial.thisRepN,headphoneTrial.thisTrialN,headphoneTrial.thisN,headphoneTrial.thisIndex,headphoneTrial.ran,headphone_sound1,headphone_sound2,headphone_sound3,corrAns,participant,date,expName,psychopyVersion,OS,frameRate,trainSlider.response,trainSlider.rt,beepTrainResponse.keys,beepTrainResponse.corr,trainingTrials.thisRepN,trainingTrials.thisTrialN,trainingTrials.thisN,trainingTrials.thisIndex,trainingTrials.ran,trainAudioFile,beepTrainResponse.rt,readyReal_resp.keys,readyReal_resp.rt,ratingSlider.response,ratingSlider.rt,beepResp.keys,beepResp.corr,expTrials.thisRepN,expTrials.thisTrialN,expTrials.thisN,expTrials.thisIndex,expTrials.ran,audioFile,beepResp.rt,end_resp.keys,end_resp.rt
2,0,2.823595,0,0,0,5,1,stimuli/screen_quiet.wav,stimuli/screen_origin.wav,stimuli/screen_antiphase.wav,1,40624,2021-05-10_17h36.19.056,judgeSpeechMusic_20210407_logNormShiftAmp,2020.1.2,MacIntel,60,,,,,,,,,,,,,,,,,,,,,,,,,,
3,1,0.869475,0,1,1,0,1,stimuli/screen_antiphase.wav,stimuli/screen_origin.wav,stimuli/screen_quiet.wav,3,40624,2021-05-10_17h36.19.056,judgeSpeechMusic_20210407_logNormShiftAmp,2020.1.2,MacIntel,60,,,,,,,,,,,,,,,,,,,,,,,,,,
3,1,0.622935,0,2,2,2,1,stimuli/screen_origin.wav,stimuli/screen_antiphase.wav,stimuli/screen_quiet.wav,3,40624,2021-05-10_17h36.19.056,judgeSpeechMusic_20210407_logNormShiftAmp,2020.1.2,MacIntel,60,,,,,,,,,,,,,,,,,,,,,,,,,,
2,1,0.77312,0,3,3,3,1,stimuli/screen_origin.wav,stimuli/screen_quiet.wav,stimuli/screen_antiphase.wav,2,40624,2021-05-10_17h36.19.056,judgeSpeechMusic_20210407_logNormShiftAmp,2020.1.2,MacIntel,60,,,,,,,,,,,,,,,,,,,,,,,,,,
1,1,0.68503,0,4,4,4,1,stimuli/screen_quiet.wav,stimuli/screen_antiphase.wav,stimuli/screen_origin.wav,1,40624,2021-05-10_17h36.19.056,judgeSpeechMusic_20210407_logNormShiftAmp,2020.1.2,MacIntel,60,,,,,,,,,,,,,,,,,,,,,,,,,,
2,1,0.63576,0,5,5,1,1,stimuli/screen_antiphase.wav,stimuli/screen_quiet.wav,stimuli/screen_origin.wav,2,40624,2021-05-10_17h36.19.056,judgeSpeechMusic_20210407_logNormShiftAmp,2020.1.2,MacIntel,60,,,,,,,,,,,,,,,,,,,,,,,,,,
,,,,,,,,,,,,40624,2021-05-10_17h36.19.056,judgeSpeechMusic_20210407_logNormShiftAmp,2020.1.2,MacIntel,60,2,17.108245,,0,0,0,0,3,1,stimuli/stim_20210407_power2amp/equal_lnn_AM_training5.1Hz.m4a,,,,,,,,,,,,,,,,
,,,,,,,,,,,,40624,2021-05-10_17h36.19.056,judgeSpeechMusic_20210407_logNormShiftAmp,2020.1.2,MacIntel,60,2,11.40003,,0,0,1,1,2,1,stimuli/stim_20210407_power2amp/equal_lnn_AM_training3.9Hz.m4a,,,,,,,,,,,,,,,,
,,,,,,,,,,,,40624,2021-05-10_17h36.19.056,judgeSpeechMusic_20210407_logNormShiftAmp,2020.1.2,MacIntel,60,1,30.163645,3,1,0,2,2,1,1,stimuli/stim_20210407_power2amp/equal_lnn_AM_training2.7Hz.m4a,1.671045,,,,,,,,,,,,,,,
,,,,,,,,,,,,40624,2021-05-10_17h36.19.056,judgeSpeechMusic_20210407_logNormShiftAmp,2020.1.2,MacIntel,60,2,9.135985,,0,0,3,3,0,1,stimuli/stim_20210407_power2amp/equal_lnn_AM_training1.5Hz.m4a,,,,,,,,,,,,,,,,
,,,,,,,,,,,,40624,2021-05-10_17h36.19.056,judgeSpeechMusic_20210407_logNormShiftAmp,2020.1.2,MacIntel,60,,,,,,,,,,,,space,5.815645,1,10.062765,,0,0,0,0,128,1,stimuli/stim_20210407_power2amp/equal_lnn_AM5.4Hz_38.m4a,,,
,,,,,,,,,,,,40624,2021-05-10_17h36.19.056,judgeSpeechMusic_20210407_logNormShiftAmp,2020.1.2,MacIntel,60,,,,,,,,,,,,,,2,6.117115,,0,0,1,1,57,1,stimuli/stim_20210407_power2amp/equal_lnn_AM2.4Hz_6.m4a,,,
,,,,,,,,,,,,40624,2021-05-10_17h36.19.056,judgeSpeechMusic_20210407_logNormShiftAmp,2020.1.2,MacIntel,60,,,,,,,,,,,,,,1,7.42101,,0,0,2,2,26,1,stimuli/stim_20210407_power2amp/equal_lnn_AM1.2Hz_44.m4a,,,
,,,,,,,,,,,,40624,2021-05-10_17h36.19.056,judgeSpeechMusic_20210407_logNormShiftAmp,2020.1.2,MacIntel,60,,,,,,,,,,,,,,2,7.677065,,0,0,3,3,30,1,stimuli/stim_20210407_power2amp/equal_lnn_AM1.8Hz_99.m4a,,,
,,,,,,,,,,,,40624,2021-05-10_17h36.19.056,judgeSpeechMusic_20210407_logNormShiftAmp,2020.1.2,MacIntel,60,,,,,,,,,,,,,,1,6.38864,,0,0,4,4,127,1,stimuli/stim_20210407_power2amp/equal_lnn_AM5.4Hz_45.m4a,,,
,,,,,,,,,,,,40624,2021-05-10_17h36.19.056,judgeSpeechMusic_20210407_logNormShiftAmp,2020.1.2,MacIntel,60,,,,,,,,,,,,,,1,6.49007,,0,0,5,5,142,1,stimuli/stim_20210407_power2amp/equal_lnn_AM6Hz_97.m4a,,,
,,,,,,,,,,,,40624,2021-05-10_17h36.19.056,judgeSpeechMusic_20210407_logNormShiftAmp,2020.1.2,MacIntel,60,,,,,,,,,,,,,,2,10.71369,,0,0,6,6,76,1,stimuli/stim_20210407_power2amp/equal_lnn_AM3.6Hz_7.m4a,,,
,,,,,,,,,,,,40624,2021-05-10_17h36.19.056,judgeSpeechMusic_20210407_logNormShiftAmp,2020.1.2,MacIntel,60,,,,,,,,,,,,,,1,6.134395,,0,0,7,7,71,1,stimuli/stim_20210407_power2amp/equal_lnn_AM3Hz_21.m4a,,,
,,,,,,,,,,,,40624,2021-05-10_17h36.19.056,judgeSpeechMusic_20210407_logNormShiftAmp,2020.1.2,MacIntel,60,,,,,,,,,,,,,,1,11.075775,,0,0,8,8,4,1,stimuli/stim_20210407_power2amp/equal_lnn_AM0.6Hz_74.m4a,,,
,,,,,,,,,,,,40624,2021-05-10_17h36.19.056,judgeSpeechMusic_20210407_logNormShiftAmp,2020.1.2,MacIntel,60,,,,,,,,,,,,,,1,6.07889,,0,0,9,9,81,1,stimuli/stim_20210407_power2amp/equal_lnn_AM3.6Hz_55.m4a,,,
,,,,,,,,,,,,40624,2021-05-10_17h36.19.056,judgeSpeechMusic_20210407_logNormShiftAmp,2020.1.2,MacIntel,60,,,,,,,,,,,,,,1,6.66279,,0,0,10,10,105,1,stimuli/stim_20210407_power2amp/equal_lnn_AM4.8Hz_7.m4a,,,
,,,,,,,,,,,,40624,2021-05-10_17h36.19.056,judgeSpeechMusic_20210407_logNormShiftAmp,2020.1.2,MacIntel,60,,,,,,,,,,,,,,2,6.92014,,0,0,11,11,62,1,stimuli/stim_20210407_power2amp/equal_lnn_AM3Hz_73.m4a,,,
,,,,,,,,,,,,40624,2021-05-10_17h36.19.056,judgeSpeechMusic_20210407_logNormShiftAmp,2020.1.2,MacIntel,60,,,,,,,,,,,,,,1,7.20223,,0,0,12,12,107,1,stimuli/stim_20210407_power2amp/equal_lnn_AM4.8Hz_44.m4a,,,
,,,,,,,,,,,,40624,2021-05-10_17h36.19.056,judgeSpeechMusic_20210407_logNormShiftAmp,2020.1.2,MacIntel,60,,,,,,,,,,,,,,1,6.25479,,0,0,13,13,46,1,stimuli/stim_20210407_power2amp/equal_lnn_AM2.4Hz_89.m4a,,,
,,,,,,,,,,,,40624,2021-05-10_17h36.19.056,judgeSpeechMusic_20210407_logNormShiftAmp,2020.1.2,MacIntel,60,,,,,,,,,,,,,,1,9.170155,,0,0,14,14,74,1,stimuli/stim_20210407_power2amp/equal_lnn_AM3Hz_43.m4a,,,
,,,,,,,,,,,,40624,2021-05-10_17h36.19.056,judgeSpeechMusic_20210407_logNormShiftAmp,2020.1.2,MacIntel,60,,,,,,,,,,,,,,2,6.63831,,0,0,15,15,40,1,stimuli/stim_20210407_power2amp/equal_lnn_AM1.8Hz_38.m4a,,,
,,,,,,,,,,,,40624,2021-05-10_17h36.19.056,judgeSpeechMusic_20210407_logNormShiftAmp,2020.1.2,MacIntel,60,,,,,,,,,,,,,,1,5.999835,,0,0,16,16,145,1,stimuli/stim_20210407_power2amp/equal_lnn_AM6Hz_52.m4a,,,
,,,,,,,,,,,,40624,2021-05-10_17h36.19.056,judgeSpeechMusic_20210407_logNormShiftAmp,2020.1.2,MacIntel,60,,,,,,,,,,,,,,2,6.707255,,0,0,17,17,8,1,stimuli/stim_20210407_power2amp/equal_lnn_AM0.6Hz_43.m4a,,,
,,,,,,,,,,,,40624,2021-05-10_17h36.19.056,judgeSpeechMusic_20210407_logNormShiftAmp,2020.1.2,MacIntel,60,,,,,,,,,,,,,,1,6.521135,,0,0,18,18,99,1,stimuli/stim_20210407_power2amp/equal_lnn_AM4.2Hz_92.m4a,,,
,,,,,,,,,,,,40624,2021-05-10_17h36.19.056,judgeSpeechMusic_20210407_logNormShiftAmp,2020.1.2,MacIntel,60,,,,,,,,,,,,,,2,7.29035,,0,0,19,19,120,1,stimuli/stim_20210407_power2amp/equal_lnn_AM5.4Hz_42.m4a,,,
,,,,,,,,,,,,40624,2021-05-10_17h36.19.056,judgeSpeechMusic_20210407_logNormShiftAmp,2020.1.2,MacIntel,60,,,,,,,,,,,,,,1,6.675345,,0,0,20,20,66,1,stimuli/stim_20210407_power2amp/equal_lnn_AM3Hz_27.m4a,,,
,,,,,,,,,,,,40624,2021-05-10_17h36.19.056,judgeSpeechMusic_20210407_logNormShiftAmp,2020.1.2,MacIntel,60,,,,,,,,,,,,,,2,7.22215,,0,0,21,21,130,1,stimuli/stim_20210407_power2amp/equal_lnn_AM5.4Hz_20.m4a,,,
,,,,,,,,,,,,40624,2021-05-10_17h36.19.056,judgeSpeechMusic_20210407_logNormShiftAmp,2020.1.2,MacIntel,60,,,,,,,,,,,,,,2,6.1945,,0,0,22,22,86,1,stimuli/stim_20210407_power2amp/equal_lnn_AM3.6Hz_82.m4a,,,
,,,,,,,,,,,,40624,2021-05-10_17h36.19.056,judgeSpeechMusic_20210407_logNormShiftAmp,2020.1.2,MacIntel,60,,,,,,,,,,,,,,2,6.143325,,0,0,23,23,34,1,stimuli/stim_20210407_power2amp/equal_lnn_AM1.8Hz_63.m4a,,,
,,,,,,,,,,,,40624,2021-05-10_17h36.19.056,judgeSpeechMusic_20210407_logNormShiftAmp,2020.1.2,MacIntel,60,,,,,,,,,,,,,,2,6.53897,,0,0,24,24,32,1,stimuli/stim_20210407_power2amp/equal_lnn_AM1.8Hz_86.m4a,,,
,,,,,,,,,,,,40624,2021-05-10_17h36.19.056,judgeSpeechMusic_20210407_logNormShiftAmp,2020.1.2,MacIntel,60,,,,,,,,,,,,,,1,8.51452,,0,0,25,25,117,1,stimuli/stim_20210407_power2amp/equal_lnn_AM4.8Hz_38.m4a,,,
,,,,,,,,,,,,40624,2021-05-10_17h36.19.056,judgeSpeechMusic_20210407_logNormShiftAmp,2020.1.2,MacIntel,60,,,,,,,,,,,,,,1,9.75084,,0,0,26,26,116,1,stimuli/stim_20210407_power2amp/equal_lnn_AM4.8Hz_2.m4a,,,
,,,,,,,,,,,,40624,2021-05-10_17h36.19.056,judgeSpeechMusic_20210407_logNormShiftAmp,2020.1.2,MacIntel,60,,,,,,,,,,,,,,2,6.17475,,0,0,27,27,33,1,stimuli/stim_20210407_power2amp/equal_lnn_AM1.8Hz_34.m4a,,,
,,,,,,,,,,,,40624,2021-05-10_17h36.19.056,judgeSpeechMusic_20210407_logNormShiftAmp,2020.1.2,MacIntel,60,,,,,,,,,,,,,,2,6.07492,,0,0,28,28,59,1,stimuli/stim_20210407_power2amp/equal_lnn_AM2.4Hz_88.m4a,,,
,,,,,,,,,,,,40624,2021-05-10_17h36.19.056,judgeSpeechMusic_20210407_logNormShiftAmp,2020.1.2,MacIntel,60,,,,,,,,,,,,,,1,5.809005,,0,0,29,29,140,1,stimuli/stim_20210407_power2amp/equal_lnn_AM6Hz_87.m4a,,,
,,,,,,,,,,,,40624,2021-05-10_17h36.19.056,judgeSpeechMusic_20210407_logNormShiftAmp,2020.1.2,MacIntel,60,,,,,,,,,,,,,,1,7.641755,4,1,0,30,30,65,1,stimuli/stim_20210407_power2amp/equal_lnn_AM3Hz_69.m4a,2.03723,,
,,,,,,,,,,,,40624,2021-05-10_17h36.19.056,judgeSpeechMusic_20210407_logNormShiftAmp,2020.1.2,MacIntel,60,,,,,,,,,,,,,,1,7.22899,,0,0,31,31,106,1,stimuli/stim_20210407_power2amp/equal_lnn_AM4.8Hz_6.m4a,,,
,,,,,,,,,,,,40624,2021-05-10_17h36.19.056,judgeSpeechMusic_20210407_logNormShiftAmp,2020.1.2,MacIntel,60,,,,,,,,,,,,,,2,5.95365,,0,0,32,32,38,1,stimuli/stim_20210407_power2amp/equal_lnn_AM1.8Hz_25.m4a,,,
,,,,,,,,,,,,40624,2021-05-10_17h36.19.056,judgeSpeechMusic_20210407_logNormShiftAmp,2020.1.2,MacIntel,60,,,,,,,,,,,,,,1,6.202415,,0,0,33,33,124,1,stimuli/stim_20210407_power2amp/equal_lnn_AM5.4Hz_80.m4a,,,
,,,,,,,,,,,,40624,2021-05-10_17h36.19.056,judgeSpeechMusic_20210407_logNormShiftAmp,2020.1.2,MacIntel,60,,,,,,,,,,,,,,1,6.588085,,0,0,34,34,12,1,stimuli/stim_20210407_power2amp/equal_lnn_AM0.6Hz_3.m4a,,,
,,,,,,,,,,,,40624,2021-05-10_17h36.19.056,judgeSpeechMusic_20210407_logNormShiftAmp,2020.1.2,MacIntel,60,,,,,,,,,,,,,,2,6.304675,,0,0,35,35,48,1,stimuli/stim_20210407_power2amp/equal_lnn_AM2.4Hz_47.m4a,,,
,,,,,,,,,,,,40624,2021-05-10_17h36.19.056,judgeSpeechMusic_20210407_logNormShiftAmp,2020.1.2,MacIntel,60,,,,,,,,,,,,,,2,7.959695,,0,0,36,36,42,1,stimuli/stim_20210407_power2amp/equal_lnn_AM1.8Hz_29.m4a,,,
,,,,,,,,,,,,40624,2021-05-10_17h36.19.056,judgeSpeechMusic_20210407_logNormShiftAmp,2020.1.2,MacIntel,60,,,,,,,,,,,,,,1,7.487505,,0,0,37,37,123,1,stimuli/stim_20210407_power2amp/equal_lnn_AM5.4Hz_46.m4a,,,
,,,,,,,,,,,,40624,2021-05-10_17h36.19.056,judgeSpeechMusic_20210407_logNormShiftAmp,2020.1.2,MacIntel,60,,,,,,,,,,,,,,2,9.13633,,0,0,38,38,29,1,stimuli/stim_20210407_power2amp/equal_lnn_AM1.2Hz_1.m4a,,,
,,,,,,,,,,,,40624,2021-05-10_17h36.19.056,judgeSpeechMusic_20210407_logNormShiftAmp,2020.1.2,MacIntel,60,,,,,,,,,,,,,,2,6.14579,,0,0,39,39,73,1,stimuli/stim_20210407_power2amp/equal_lnn_AM3Hz_90.m4a,,,
,,,,,,,,,,,,40624,2021-05-10_17h36.19.056,judgeSpeechMusic_20210407_logNormShiftAmp,2020.1.2,MacIntel,60,,,,,,,,,,,,,,2,8.779975,,0,0,40,40,20,1,stimuli/stim_20210407_power2amp/equal_lnn_AM1.2Hz_13.m4a,,,
,,,,,,,,,,,,40624,2021-05-10_17h36.19.056,judgeSpeechMusic_20210407_logNormShiftAmp,2020.1.2,MacIntel,60,,,,,,,,,,,,,,2,6.400835,,0,0,41,41,51,1,stimuli/stim_20210407_power2amp/equal_lnn_AM2.4Hz_39.m4a,,,
,,,,,,,,,,,,40624,2021-05-10_17h36.19.056,judgeSpeechMusic_20210407_logNormShiftAmp,2020.1.2,MacIntel,60,,,,,,,,,,,,,,2,6.573425,,0,0,42,42,9,1,stimuli/stim_20210407_power2amp/equal_lnn_AM0.6Hz_70.m4a,,,
,,,,,,,,,,,,40624,2021-05-10_17h36.19.056,judgeSpeechMusic_20210407_logNormShiftAmp,2020.1.2,MacIntel,60,,,,,,,,,,,,,,2,7.922675,,0,0,43,43,23,1,stimuli/stim_20210407_power2amp/equal_lnn_AM1.2Hz_84.m4a,,,
,,,,,,,,,,,,40624,2021-05-10_17h36.19.056,judgeSpeechMusic_20210407_logNormShiftAmp,2020.1.2,MacIntel,60,,,,,,,,,,,,,,1,5.787405,,0,0,44,44,136,1,stimuli/stim_20210407_power2amp/equal_lnn_AM6Hz_82.m4a,,,
,,,,,,,,,,,,40624,2021-05-10_17h36.19.056,judgeSpeechMusic_20210407_logNormShiftAmp,2020.1.2,MacIntel,60,,,,,,,,,,,,,,2,6.493925,,0,0,45,45,10,1,stimuli/stim_20210407_power2amp/equal_lnn_AM0.6Hz_91.m4a,,,
,,,,,,,,,,,,40624,2021-05-10_17h36.19.056,judgeSpeechMusic_20210407_logNormShiftAmp,2020.1.2,MacIntel,60,,,,,,,,,,,,,,1,7.234565,,0,0,46,46,16,1,stimuli/stim_20210407_power2amp/equal_lnn_AM1.2Hz_24.m4a,,,
,,,,,,,,,,,,40624,2021-05-10_17h36.19.056,judgeSpeechMusic_20210407_logNormShiftAmp,2020.1.2,MacIntel,60,,,,,,,,,,,,,,1,5.91136,,0,0,47,47,113,1,stimuli/stim_20210407_power2amp/equal_lnn_AM4.8Hz_13.m4a,,,
,,,,,,,,,,,,40624,2021-05-10_17h36.19.056,judgeSpeechMusic_20210407_logNormShiftAmp,2020.1.2,MacIntel,60,,,,,,,,,,,,,,1,5.794825,,0,0,48,48,133,1,stimuli/stim_20210407_power2amp/equal_lnn_AM5.4Hz_77.m4a,,,
,,,,,,,,,,,,40624,2021-05-10_17h36.19.056,judgeSpeechMusic_20210407_logNormShiftAmp,2020.1.2,MacIntel,60,,,,,,,,,,,,,,1,5.99115,,0,0,49,49,95,1,stimuli/stim_20210407_power2amp/equal_lnn_AM4.2Hz_43.m4a,,,
,,,,,,,,,,,,40624,2021-05-10_17h36.19.056,judgeSpeechMusic_20210407_logNormShiftAmp,2020.1.2,MacIntel,60,,,,,,,,,,,,,,2,6.024395,,0,0,50,50,53,1,stimuli/stim_20210407_power2amp/equal_lnn_AM2.4Hz_46.m4a,,,
,,,,,,,,,,,,40624,2021-05-10_17h36.19.056,judgeSpeechMusic_20210407_logNormShiftAmp,2020.1.2,MacIntel,60,,,,,,,,,,,,,,1,8.01181,,0,0,51,51,141,1,stimuli/stim_20210407_power2amp/equal_lnn_AM6Hz_86.m4a,,,
,,,,,,,,,,,,40624,2021-05-10_17h36.19.056,judgeSpeechMusic_20210407_logNormShiftAmp,2020.1.2,MacIntel,60,,,,,,,,,,,,,,2,7.88532,,0,0,52,52,88,1,stimuli/stim_20210407_power2amp/equal_lnn_AM3.6Hz_50.m4a,,,
,,,,,,,,,,,,40624,2021-05-10_17h36.19.056,judgeSpeechMusic_20210407_logNormShiftAmp,2020.1.2,MacIntel,60,,,,,,,,,,,,,,1,6.701955,,0,0,53,53,82,1,stimuli/stim_20210407_power2amp/equal_lnn_AM3.6Hz_59.m4a,,,
,,,,,,,,,,,,40624,2021-05-10_17h36.19.056,judgeSpeechMusic_20210407_logNormShiftAmp,2020.1.2,MacIntel,60,,,,,,,,,,,,,,2,5.958255,3,1,0,54,54,7,1,stimuli/stim_20210407_power2amp/equal_lnn_AM0.6Hz_26.m4a,1.16072,,
,,,,,,,,,,,,40624,2021-05-10_17h36.19.056,judgeSpeechMusic_20210407_logNormShiftAmp,2020.1.2,MacIntel,60,,,,,,,,,,,,,,1,10.128515,,0,0,55,55,89,1,stimuli/stim_20210407_power2amp/equal_lnn_AM3.6Hz_100.m4a,,,
,,,,,,,,,,,,40624,2021-05-10_17h36.19.056,judgeSpeechMusic_20210407_logNormShiftAmp,2020.1.2,MacIntel,60,,,,,,,,,,,,,,1,7.31835,,0,0,56,56,103,1,stimuli/stim_20210407_power2amp/equal_lnn_AM4.2Hz_96.m4a,,,
,,,,,,,,,,,,40624,2021-05-10_17h36.19.056,judgeSpeechMusic_20210407_logNormShiftAmp,2020.1.2,MacIntel,60,,,,,,,,,,,,,,2,6.819725,,0,0,57,57,22,1,stimuli/stim_20210407_power2amp/equal_lnn_AM1.2Hz_40.m4a,,,
,,,,,,,,,,,,40624,2021-05-10_17h36.19.056,judgeSpeechMusic_20210407_logNormShiftAmp,2020.1.2,MacIntel,60,,,,,,,,,,,,,,1,7.64439,,0,0,58,58,50,1,stimuli/stim_20210407_power2amp/equal_lnn_AM2.4Hz_30.m4a,,,
,,,,,,,,,,,,40624,2021-05-10_17h36.19.056,judgeSpeechMusic_20210407_logNormShiftAmp,2020.1.2,MacIntel,60,,,,,,,,,,,,,,1,5.918685,,0,0,59,59,143,1,stimuli/stim_20210407_power2amp/equal_lnn_AM6Hz_70.m4a,,,
,,,,,,,,,,,,40624,2021-05-10_17h36.19.056,judgeSpeechMusic_20210407_logNormShiftAmp,2020.1.2,MacIntel,60,,,,,,,,,,,,,,1,8.00777,,0,0,60,60,78,1,stimuli/stim_20210407_power2amp/equal_lnn_AM3.6Hz_75.m4a,,,
,,,,,,,,,,,,40624,2021-05-10_17h36.19.056,judgeSpeechMusic_20210407_logNormShiftAmp,2020.1.2,MacIntel,60,,,,,,,,,,,,,,2,7.03905,,0,0,61,61,104,1,stimuli/stim_20210407_power2amp/equal_lnn_AM4.2Hz_62.m4a,,,
,,,,,,,,,,,,40624,2021-05-10_17h36.19.056,judgeSpeechMusic_20210407_logNormShiftAmp,2020.1.2,MacIntel,60,,,,,,,,,,,,,,2,6.378345,,0,0,62,62,58,1,stimuli/stim_20210407_power2amp/equal_lnn_AM2.4Hz_74.m4a,,,
,,,,,,,,,,,,40624,2021-05-10_17h36.19.056,judgeSpeechMusic_20210407_logNormShiftAmp,2020.1.2,MacIntel,60,,,,,,,,,,,,,,1,5.92505,,0,0,63,63,144,1,stimuli/stim_20210407_power2amp/equal_lnn_AM6Hz_32.m4a,,,
,,,,,,,,,,,,40624,2021-05-10_17h36.19.056,judgeSpeechMusic_20210407_logNormShiftAmp,2020.1.2,MacIntel,60,,,,,,,,,,,,,,2,7.872615,,0,0,64,64,101,1,stimuli/stim_20210407_power2amp/equal_lnn_AM4.2Hz_99.m4a,,,
,,,,,,,,,,,,40624,2021-05-10_17h36.19.056,judgeSpeechMusic_20210407_logNormShiftAmp,2020.1.2,MacIntel,60,,,,,,,,,,,,,,1,5.820485,,0,0,65,65,92,1,stimuli/stim_20210407_power2amp/equal_lnn_AM4.2Hz_52.m4a,,,
,,,,,,,,,,,,40624,2021-05-10_17h36.19.056,judgeSpeechMusic_20210407_logNormShiftAmp,2020.1.2,MacIntel,60,,,,,,,,,,,,,,2,6.538005,,0,0,66,66,54,1,stimuli/stim_20210407_power2amp/equal_lnn_AM2.4Hz_57.m4a,,,
,,,,,,,,,,,,40624,2021-05-10_17h36.19.056,judgeSpeechMusic_20210407_logNormShiftAmp,2020.1.2,MacIntel,60,,,,,,,,,,,,,,2,5.958005,,0,0,67,67,111,1,stimuli/stim_20210407_power2amp/equal_lnn_AM4.8Hz_40.m4a,,,
,,,,,,,,,,,,40624,2021-05-10_17h36.19.056,judgeSpeechMusic_20210407_logNormShiftAmp,2020.1.2,MacIntel,60,,,,,,,,,,,,,,1,6.873965,,0,0,68,68,108,1,stimuli/stim_20210407_power2amp/equal_lnn_AM4.8Hz_79.m4a,,,
,,,,,,,,,,,,40624,2021-05-10_17h36.19.056,judgeSpeechMusic_20210407_logNormShiftAmp,2020.1.2,MacIntel,60,,,,,,,,,,,,,,1,6.35572,,0,0,69,69,5,1,stimuli/stim_20210407_power2amp/equal_lnn_AM0.6Hz_9.m4a,,,
,,,,,,,,,,,,40624,2021-05-10_17h36.19.056,judgeSpeechMusic_20210407_logNormShiftAmp,2020.1.2,MacIntel,60,,,,,,,,,,,,,,2,7.38461,,0,0,70,70,68,1,stimuli/stim_20210407_power2amp/equal_lnn_AM3Hz_57.m4a,,,
,,,,,,,,,,,,40624,2021-05-10_17h36.19.056,judgeSpeechMusic_20210407_logNormShiftAmp,2020.1.2,MacIntel,60,,,,,,,,,,,,,,1,5.85999,,0,0,71,71,112,1,stimuli/stim_20210407_power2amp/equal_lnn_AM4.8Hz_76.m4a,,,
,,,,,,,,,,,,40624,2021-05-10_17h36.19.056,judgeSpeechMusic_20210407_logNormShiftAmp,2020.1.2,MacIntel,60,,,,,,,,,,,,,,1,5.803085,,0,0,72,72,6,1,stimuli/stim_20210407_power2amp/equal_lnn_AM0.6Hz_85.m4a,,,
,,,,,,,,,,,,40624,2021-05-10_17h36.19.056,judgeSpeechMusic_20210407_logNormShiftAmp,2020.1.2,MacIntel,60,,,,,,,,,,,,,,2,5.752585,,0,0,73,73,137,1,stimuli/stim_20210407_power2amp/equal_lnn_AM6Hz_31.m4a,,,
,,,,,,,,,,,,40624,2021-05-10_17h36.19.056,judgeSpeechMusic_20210407_logNormShiftAmp,2020.1.2,MacIntel,60,,,,,,,,,,,,,,1,5.87128,,0,0,74,74,25,1,stimuli/stim_20210407_power2amp/equal_lnn_AM1.2Hz_49.m4a,,,
,,,,,,,,,,,,40624,2021-05-10_17h36.19.056,judgeSpeechMusic_20210407_logNormShiftAmp,2020.1.2,MacIntel,60,,,,,,,,,,,,,,1,7.73764,,0,0,75,75,61,1,stimuli/stim_20210407_power2amp/equal_lnn_AM3Hz_91.m4a,,,
,,,,,,,,,,,,40624,2021-05-10_17h36.19.056,judgeSpeechMusic_20210407_logNormShiftAmp,2020.1.2,MacIntel,60,,,,,,,,,,,,,,1,6.01329,,0,0,76,76,2,1,stimuli/stim_20210407_power2amp/equal_lnn_AM0.6Hz_44.m4a,,,
,,,,,,,,,,,,40624,2021-05-10_17h36.19.056,judgeSpeechMusic_20210407_logNormShiftAmp,2020.1.2,MacIntel,60,,,,,,,,,,,,,,2,6.076155,,0,0,77,77,3,1,stimuli/stim_20210407_power2amp/equal_lnn_AM0.6Hz_46.m4a,,,
,,,,,,,,,,,,40624,2021-05-10_17h36.19.056,judgeSpeechMusic_20210407_logNormShiftAmp,2020.1.2,MacIntel,60,,,,,,,,,,,,,,1,6.090465,1,1,0,78,78,146,1,stimuli/stim_20210407_power2amp/equal_lnn_AM6Hz_84.m4a,1.16252,,
,,,,,,,,,,,,40624,2021-05-10_17h36.19.056,judgeSpeechMusic_20210407_logNormShiftAmp,2020.1.2,MacIntel,60,,,,,,,,,,,,,,2,6.086885,,0,0,79,79,118,1,stimuli/stim_20210407_power2amp/equal_lnn_AM4.8Hz_89.m4a,,,
,,,,,,,,,,,,40624,2021-05-10_17h36.19.056,judgeSpeechMusic_20210407_logNormShiftAmp,2020.1.2,MacIntel,60,,,,,,,,,,,,,,2,7.01995,,0,0,80,80,129,1,stimuli/stim_20210407_power2amp/equal_lnn_AM5.4Hz_88.m4a,,,
,,,,,,,,,,,,40624,2021-05-10_17h36.19.056,judgeSpeechMusic_20210407_logNormShiftAmp,2020.1.2,MacIntel,60,,,,,,,,,,,,,,2,7.319075,,0,0,81,81,84,1,stimuli/stim_20210407_power2amp/equal_lnn_AM3.6Hz_57.m4a,,,
,,,,,,,,,,,,40624,2021-05-10_17h36.19.056,judgeSpeechMusic_20210407_logNormShiftAmp,2020.1.2,MacIntel,60,,,,,,,,,,,,,,2,11.85581,,0,0,82,82,93,1,stimuli/stim_20210407_power2amp/equal_lnn_AM4.2Hz_94.m4a,,,
,,,,,,,,,,,,40624,2021-05-10_17h36.19.056,judgeSpeechMusic_20210407_logNormShiftAmp,2020.1.2,MacIntel,60,,,,,,,,,,,,,,2,7.6274,,0,0,83,83,100,1,stimuli/stim_20210407_power2amp/equal_lnn_AM4.2Hz_84.m4a,,,
,,,,,,,,,,,,40624,2021-05-10_17h36.19.056,judgeSpeechMusic_20210407_logNormShiftAmp,2020.1.2,MacIntel,60,,,,,,,,,,,,,,1,5.90646,,0,0,84,84,14,1,stimuli/stim_20210407_power2amp/equal_lnn_AM0.6Hz_45.m4a,,,
,,,,,,,,,,,,40624,2021-05-10_17h36.19.056,judgeSpeechMusic_20210407_logNormShiftAmp,2020.1.2,MacIntel,60,,,,,,,,,,,,,,1,6.527455,,0,0,85,85,85,1,stimuli/stim_20210407_power2amp/equal_lnn_AM3.6Hz_1.m4a,,,
,,,,,,,,,,,,40624,2021-05-10_17h36.19.056,judgeSpeechMusic_20210407_logNormShiftAmp,2020.1.2,MacIntel,60,,,,,,,,,,,,,,1,5.964315,,0,0,86,86,121,1,stimuli/stim_20210407_power2amp/equal_lnn_AM5.4Hz_29.m4a,,,
,,,,,,,,,,,,40624,2021-05-10_17h36.19.056,judgeSpeechMusic_20210407_logNormShiftAmp,2020.1.2,MacIntel,60,,,,,,,,,,,,,,1,5.853275,,0,0,87,87,126,1,stimuli/stim_20210407_power2amp/equal_lnn_AM5.4Hz_50.m4a,,,
,,,,,,,,,,,,40624,2021-05-10_17h36.19.056,judgeSpeechMusic_20210407_logNormShiftAmp,2020.1.2,MacIntel,60,,,,,,,,,,,,,,2,5.86156,,0,0,88,88,24,1,stimuli/stim_20210407_power2amp/equal_lnn_AM1.2Hz_28.m4a,,,
,,,,,,,,,,,,40624,2021-05-10_17h36.19.056,judgeSpeechMusic_20210407_logNormShiftAmp,2020.1.2,MacIntel,60,,,,,,,,,,,,,,1,5.789275,,0,0,89,89,79,1,stimuli/stim_20210407_power2amp/equal_lnn_AM3.6Hz_64.m4a,,,
,,,,,,,,,,,,40624,2021-05-10_17h36.19.056,judgeSpeechMusic_20210407_logNormShiftAmp,2020.1.2,MacIntel,60,,,,,,,,,,,,,,2,6.15813,,0,0,90,90,1,1,stimuli/stim_20210407_power2amp/equal_lnn_AM0.6Hz_84.m4a,,,
,,,,,,,,,,,,40624,2021-05-10_17h36.19.056,judgeSpeechMusic_20210407_logNormShiftAmp,2020.1.2,MacIntel,60,,,,,,,,,,,,,,1,6.034415,,0,0,91,91,90,1,stimuli/stim_20210407_power2amp/equal_lnn_AM4.2Hz_91.m4a,,,
,,,,,,,,,,,,40624,2021-05-10_17h36.19.056,judgeSpeechMusic_20210407_logNormShiftAmp,2020.1.2,MacIntel,60,,,,,,,,,,,,,,2,6.854165,,0,0,92,92,80,1,stimuli/stim_20210407_power2amp/equal_lnn_AM3.6Hz_90.m4a,,,
,,,,,,,,,,,,40624,2021-05-10_17h36.19.056,judgeSpeechMusic_20210407_logNormShiftAmp,2020.1.2,MacIntel,60,,,,,,,,,,,,,,2,6.726285,,0,0,93,93,17,1,stimuli/stim_20210407_power2amp/equal_lnn_AM1.2Hz_64.m4a,,,
,,,,,,,,,,,,40624,2021-05-10_17h36.19.056,judgeSpeechMusic_20210407_logNormShiftAmp,2020.1.2,MacIntel,60,,,,,,,,,,,,,,1,5.906855,,0,0,94,94,109,1,stimuli/stim_20210407_power2amp/equal_lnn_AM4.8Hz_87.m4a,,,
,,,,,,,,,,,,40624,2021-05-10_17h36.19.056,judgeSpeechMusic_20210407_logNormShiftAmp,2020.1.2,MacIntel,60,,,,,,,,,,,,,,1,5.941995,,0,0,95,95,110,1,stimuli/stim_20210407_power2amp/equal_lnn_AM4.8Hz_30.m4a,,,
,,,,,,,,,,,,40624,2021-05-10_17h36.19.056,judgeSpeechMusic_20210407_logNormShiftAmp,2020.1.2,MacIntel,60,,,,,,,,,,,,,,1,5.83548,,0,0,96,96,134,1,stimuli/stim_20210407_power2amp/equal_lnn_AM5.4Hz_100.m4a,,,
,,,,,,,,,,,,40624,2021-05-10_17h36.19.056,judgeSpeechMusic_20210407_logNormShiftAmp,2020.1.2,MacIntel,60,,,,,,,,,,,,,,1,6.82758,,0,0,97,97,41,1,stimuli/stim_20210407_power2amp/equal_lnn_AM1.8Hz_32.m4a,,,
,,,,,,,,,,,,40624,2021-05-10_17h36.19.056,judgeSpeechMusic_20210407_logNormShiftAmp,2020.1.2,MacIntel,60,,,,,,,,,,,,,,2,5.77629,,0,0,98,98,44,1,stimuli/stim_20210407_power2amp/equal_lnn_AM1.8Hz_98.m4a,,,
,,,,,,,,,,,,40624,2021-05-10_17h36.19.056,judgeSpeechMusic_20210407_logNormShiftAmp,2020.1.2,MacIntel,60,,,,,,,,,,,,,,2,6.458585,1,1,0,99,99,72,1,stimuli/stim_20210407_power2amp/equal_lnn_AM3Hz_35.m4a,1.160625,,
,,,,,,,,,,,,40624,2021-05-10_17h36.19.056,judgeSpeechMusic_20210407_logNormShiftAmp,2020.1.2,MacIntel,60,,,,,,,,,,,,,,2,5.953435,,0,0,100,100,13,1,stimuli/stim_20210407_power2amp/equal_lnn_AM0.6Hz_34.m4a,,,
,,,,,,,,,,,,40624,2021-05-10_17h36.19.056,judgeSpeechMusic_20210407_logNormShiftAmp,2020.1.2,MacIntel,60,,,,,,,,,,,,,,2,6.72649,,0,0,101,101,87,1,stimuli/stim_20210407_power2amp/equal_lnn_AM3.6Hz_89.m4a,,,
,,,,,,,,,,,,40624,2021-05-10_17h36.19.056,judgeSpeechMusic_20210407_logNormShiftAmp,2020.1.2,MacIntel,60,,,,,,,,,,,,,,1,5.83716,,0,0,102,102,138,1,stimuli/stim_20210407_power2amp/equal_lnn_AM6Hz_29.m4a,,,
,,,,,,,,,,,,40624,2021-05-10_17h36.19.056,judgeSpeechMusic_20210407_logNormShiftAmp,2020.1.2,MacIntel,60,,,,,,,,,,,,,,1,6.79004,,0,0,103,103,83,1,stimuli/stim_20210407_power2amp/equal_lnn_AM3.6Hz_2.m4a,,,
,,,,,,,,,,,,40624,2021-05-10_17h36.19.056,judgeSpeechMusic_20210407_logNormShiftAmp,2020.1.2,MacIntel,60,,,,,,,,,,,,,,2,6.254035,,0,0,104,104,67,1,stimuli/stim_20210407_power2amp/equal_lnn_AM3Hz_86.m4a,,,
,,,,,,,,,,,,40624,2021-05-10_17h36.19.056,judgeSpeechMusic_20210407_logNormShiftAmp,2020.1.2,MacIntel,60,,,,,,,,,,,,,,2,7.905415,,0,0,105,105,35,1,stimuli/stim_20210407_power2amp/equal_lnn_AM1.8Hz_44.m4a,,,
,,,,,,,,,,,,40624,2021-05-10_17h36.19.056,judgeSpeechMusic_20210407_logNormShiftAmp,2020.1.2,MacIntel,60,,,,,,,,,,,,,,2,6.00734,,0,0,106,106,77,1,stimuli/stim_20210407_power2amp/equal_lnn_AM3.6Hz_78.m4a,,,
,,,,,,,,,,,,40624,2021-05-10_17h36.19.056,judgeSpeechMusic_20210407_logNormShiftAmp,2020.1.2,MacIntel,60,,,,,,,,,,,,,,1,6.696105,,0,0,107,107,15,1,stimuli/stim_20210407_power2amp/equal_lnn_AM1.2Hz_95.m4a,,,
,,,,,,,,,,,,40624,2021-05-10_17h36.19.056,judgeSpeechMusic_20210407_logNormShiftAmp,2020.1.2,MacIntel,60,,,,,,,,,,,,,,1,5.75442,,0,0,108,108,122,1,stimuli/stim_20210407_power2amp/equal_lnn_AM5.4Hz_23.m4a,,,
,,,,,,,,,,,,40624,2021-05-10_17h36.19.056,judgeSpeechMusic_20210407_logNormShiftAmp,2020.1.2,MacIntel,60,,,,,,,,,,,,,,2,6.694625,,0,0,109,109,139,1,stimuli/stim_20210407_power2amp/equal_lnn_AM6Hz_9.m4a,,,
,,,,,,,,,,,,40624,2021-05-10_17h36.19.056,judgeSpeechMusic_20210407_logNormShiftAmp,2020.1.2,MacIntel,60,,,,,,,,,,,,,,1,7.70876,,0,0,110,110,97,1,stimuli/stim_20210407_power2amp/equal_lnn_AM4.2Hz_17.m4a,,,
,,,,,,,,,,,,40624,2021-05-10_17h36.19.056,judgeSpeechMusic_20210407_logNormShiftAmp,2020.1.2,MacIntel,60,,,,,,,,,,,,,,2,6.635815,,0,0,111,111,91,1,stimuli/stim_20210407_power2amp/equal_lnn_AM4.2Hz_51.m4a,,,
,,,,,,,,,,,,40624,2021-05-10_17h36.19.056,judgeSpeechMusic_20210407_logNormShiftAmp,2020.1.2,MacIntel,60,,,,,,,,,,,,,,1,7.369375,,0,0,112,112,119,1,stimuli/stim_20210407_power2amp/equal_lnn_AM4.8Hz_75.m4a,,,
,,,,,,,,,,,,40624,2021-05-10_17h36.19.056,judgeSpeechMusic_20210407_logNormShiftAmp,2020.1.2,MacIntel,60,,,,,,,,,,,,,,2,6.29006,,0,0,113,113,37,1,stimuli/stim_20210407_power2amp/equal_lnn_AM1.8Hz_83.m4a,,,
,,,,,,,,,,,,40624,2021-05-10_17h36.19.056,judgeSpeechMusic_20210407_logNormShiftAmp,2020.1.2,MacIntel,60,,,,,,,,,,,,,,2,5.74072,,0,0,114,114,55,1,stimuli/stim_20210407_power2amp/equal_lnn_AM2.4Hz_23.m4a,,,
,,,,,,,,,,,,40624,2021-05-10_17h36.19.056,judgeSpeechMusic_20210407_logNormShiftAmp,2020.1.2,MacIntel,60,,,,,,,,,,,,,,1,6.44241,,0,0,115,115,114,1,stimuli/stim_20210407_power2amp/equal_lnn_AM4.8Hz_26.m4a,,,
,,,,,,,,,,,,40624,2021-05-10_17h36.19.056,judgeSpeechMusic_20210407_logNormShiftAmp,2020.1.2,MacIntel,60,,,,,,,,,,,,,,1,5.95314,,0,0,116,116,148,1,stimuli/stim_20210407_power2amp/equal_lnn_AM6Hz_49.m4a,,,
,,,,,,,,,,,,40624,2021-05-10_17h36.19.056,judgeSpeechMusic_20210407_logNormShiftAmp,2020.1.2,MacIntel,60,,,,,,,,,,,,,,1,6.45438,,0,0,117,117,11,1,stimuli/stim_20210407_power2amp/equal_lnn_AM0.6Hz_49.m4a,,,
,,,,,,,,,,,,40624,2021-05-10_17h36.19.056,judgeSpeechMusic_20210407_logNormShiftAmp,2020.1.2,MacIntel,60,,,,,,,,,,,,,,2,6.745695,,0,0,118,118,28,1,stimuli/stim_20210407_power2amp/equal_lnn_AM1.2Hz_12.m4a,,,
,,,,,,,,,,,,40624,2021-05-10_17h36.19.056,judgeSpeechMusic_20210407_logNormShiftAmp,2020.1.2,MacIntel,60,,,,,,,,,,,,,,2,5.64392,,0,0,119,119,31,1,stimuli/stim_20210407_power2amp/equal_lnn_AM1.8Hz_59.m4a,,,
,,,,,,,,,,,,40624,2021-05-10_17h36.19.056,judgeSpeechMusic_20210407_logNormShiftAmp,2020.1.2,MacIntel,60,,,,,,,,,,,,,,2,6.241785,,0,0,120,120,52,1,stimuli/stim_20210407_power2amp/equal_lnn_AM2.4Hz_51.m4a,,,
,,,,,,,,,,,,40624,2021-05-10_17h36.19.056,judgeSpeechMusic_20210407_logNormShiftAmp,2020.1.2,MacIntel,60,,,,,,,,,,,,,,2,6.53625,,0,0,121,121,70,1,stimuli/stim_20210407_power2amp/equal_lnn_AM3Hz_2.m4a,,,
,,,,,,,,,,,,40624,2021-05-10_17h36.19.056,judgeSpeechMusic_20210407_logNormShiftAmp,2020.1.2,MacIntel,60,,,,,,,,,,,,,,2,6.753675,,0,0,122,122,60,1,stimuli/stim_20210407_power2amp/equal_lnn_AM3Hz_78.m4a,,,
,,,,,,,,,,,,40624,2021-05-10_17h36.19.056,judgeSpeechMusic_20210407_logNormShiftAmp,2020.1.2,MacIntel,60,,,,,,,,,,,,,,2,6.62545,1,1,0,123,123,43,1,stimuli/stim_20210407_power2amp/equal_lnn_AM1.8Hz_97.m4a,1.24332,,
,,,,,,,,,,,,40624,2021-05-10_17h36.19.056,judgeSpeechMusic_20210407_logNormShiftAmp,2020.1.2,MacIntel,60,,,,,,,,,,,,,,1,5.805705,,0,0,124,124,102,1,stimuli/stim_20210407_power2amp/equal_lnn_AM4.2Hz_28.m4a,,,
,,,,,,,,,,,,40624,2021-05-10_17h36.19.056,judgeSpeechMusic_20210407_logNormShiftAmp,2020.1.2,MacIntel,60,,,,,,,,,,,,,,1,6.37811,,0,0,125,125,94,1,stimuli/stim_20210407_power2amp/equal_lnn_AM4.2Hz_100.m4a,,,
,,,,,,,,,,,,40624,2021-05-10_17h36.19.056,judgeSpeechMusic_20210407_logNormShiftAmp,2020.1.2,MacIntel,60,,,,,,,,,,,,,,2,5.844205,,0,0,126,126,27,1,stimuli/stim_20210407_power2amp/equal_lnn_AM1.2Hz_78.m4a,,,
,,,,,,,,,,,,40624,2021-05-10_17h36.19.056,judgeSpeechMusic_20210407_logNormShiftAmp,2020.1.2,MacIntel,60,,,,,,,,,,,,,,1,5.835855,,0,0,127,127,63,1,stimuli/stim_20210407_power2amp/equal_lnn_AM3Hz_72.m4a,,,
,,,,,,,,,,,,40624,2021-05-10_17h36.19.056,judgeSpeechMusic_20210407_logNormShiftAmp,2020.1.2,MacIntel,60,,,,,,,,,,,,,,2,6.288955,,0,0,128,128,36,1,stimuli/stim_20210407_power2amp/equal_lnn_AM1.8Hz_15.m4a,,,
,,,,,,,,,,,,40624,2021-05-10_17h36.19.056,judgeSpeechMusic_20210407_logNormShiftAmp,2020.1.2,MacIntel,60,,,,,,,,,,,,,,2,7.453745,,0,0,129,129,149,1,stimuli/stim_20210407_power2amp/equal_lnn_AM6Hz_21.m4a,,,
,,,,,,,,,,,,40624,2021-05-10_17h36.19.056,judgeSpeechMusic_20210407_logNormShiftAmp,2020.1.2,MacIntel,60,,,,,,,,,,,,,,1,6.67333,,0,0,130,130,125,1,stimuli/stim_20210407_power2amp/equal_lnn_AM5.4Hz_31.m4a,,,
,,,,,,,,,,,,40624,2021-05-10_17h36.19.056,judgeSpeechMusic_20210407_logNormShiftAmp,2020.1.2,MacIntel,60,,,,,,,,,,,,,,2,9.802255,,0,0,131,131,19,1,stimuli/stim_20210407_power2amp/equal_lnn_AM1.2Hz_42.m4a,,,
,,,,,,,,,,,,40624,2021-05-10_17h36.19.056,judgeSpeechMusic_20210407_logNormShiftAmp,2020.1.2,MacIntel,60,,,,,,,,,,,,,,2,7.036395,,0,0,132,132,39,1,stimuli/stim_20210407_power2amp/equal_lnn_AM1.8Hz_67.m4a,,,
,,,,,,,,,,,,40624,2021-05-10_17h36.19.056,judgeSpeechMusic_20210407_logNormShiftAmp,2020.1.2,MacIntel,60,,,,,,,,,,,,,,2,8.013155,,0,0,133,133,56,1,stimuli/stim_20210407_power2amp/equal_lnn_AM2.4Hz_61.m4a,,,
,,,,,,,,,,,,40624,2021-05-10_17h36.19.056,judgeSpeechMusic_20210407_logNormShiftAmp,2020.1.2,MacIntel,60,,,,,,,,,,,,,,2,5.69945,,0,0,134,134,18,1,stimuli/stim_20210407_power2amp/equal_lnn_AM1.2Hz_45.m4a,,,
,,,,,,,,,,,,40624,2021-05-10_17h36.19.056,judgeSpeechMusic_20210407_logNormShiftAmp,2020.1.2,MacIntel,60,,,,,,,,,,,,,,1,5.819715,,0,0,135,135,131,1,stimuli/stim_20210407_power2amp/equal_lnn_AM5.4Hz_32.m4a,,,
,,,,,,,,,,,,40624,2021-05-10_17h36.19.056,judgeSpeechMusic_20210407_logNormShiftAmp,2020.1.2,MacIntel,60,,,,,,,,,,,,,,1,5.84008,,0,0,136,136,132,1,stimuli/stim_20210407_power2amp/equal_lnn_AM5.4Hz_47.m4a,,,
,,,,,,,,,,,,40624,2021-05-10_17h36.19.056,judgeSpeechMusic_20210407_logNormShiftAmp,2020.1.2,MacIntel,60,,,,,,,,,,,,,,2,6.402355,,0,0,137,137,98,1,stimuli/stim_20210407_power2amp/equal_lnn_AM4.2Hz_54.m4a,,,
,,,,,,,,,,,,40624,2021-05-10_17h36.19.056,judgeSpeechMusic_20210407_logNormShiftAmp,2020.1.2,MacIntel,60,,,,,,,,,,,,,,1,6.389725,,0,0,138,138,64,1,stimuli/stim_20210407_power2amp/equal_lnn_AM3Hz_10.m4a,,,
,,,,,,,,,,,,40624,2021-05-10_17h36.19.056,judgeSpeechMusic_20210407_logNormShiftAmp,2020.1.2,MacIntel,60,,,,,,,,,,,,,,1,6.78979,,0,0,139,139,135,1,stimuli/stim_20210407_power2amp/equal_lnn_AM6Hz_36.m4a,,,
,,,,,,,,,,,,40624,2021-05-10_17h36.19.056,judgeSpeechMusic_20210407_logNormShiftAmp,2020.1.2,MacIntel,60,,,,,,,,,,,,,,2,6.521295,,0,0,140,140,115,1,stimuli/stim_20210407_power2amp/equal_lnn_AM4.8Hz_88.m4a,,,
,,,,,,,,,,,,40624,2021-05-10_17h36.19.056,judgeSpeechMusic_20210407_logNormShiftAmp,2020.1.2,MacIntel,60,,,,,,,,,,,,,,1,6.985725,,0,0,141,141,45,1,stimuli/stim_20210407_power2amp/equal_lnn_AM2.4Hz_35.m4a,,,
,,,,,,,,,,,,40624,2021-05-10_17h36.19.056,judgeSpeechMusic_20210407_logNormShiftAmp,2020.1.2,MacIntel,60,,,,,,,,,,,,,,2,6.324935,,0,0,142,142,147,1,stimuli/stim_20210407_power2amp/equal_lnn_AM6Hz_57.m4a,,,
,,,,,,,,,,,,40624,2021-05-10_17h36.19.056,judgeSpeechMusic_20210407_logNormShiftAmp,2020.1.2,MacIntel,60,,,,,,,,,,,,,,1,5.71665,,0,0,143,143,96,1,stimuli/stim_20210407_power2amp/equal_lnn_AM4.2Hz_68.m4a,,,
,,,,,,,,,,,,40624,2021-05-10_17h36.19.056,judgeSpeechMusic_20210407_logNormShiftAmp,2020.1.2,MacIntel,60,,,,,,,,,,,,,,2,5.66102,,0,0,144,144,21,1,stimuli/stim_20210407_power2amp/equal_lnn_AM1.2Hz_74.m4a,,,
,,,,,,,,,,,,40624,2021-05-10_17h36.19.056,judgeSpeechMusic_20210407_logNormShiftAmp,2020.1.2,MacIntel,60,,,,,,,,,,,,,,1,5.869775,,0,0,145,145,75,1,stimuli/stim_20210407_power2amp/equal_lnn_AM3.6Hz_13.m4a,,,
,,,,,,,,,,,,40624,2021-05-10_17h36.19.056,judgeSpeechMusic_20210407_logNormShiftAmp,2020.1.2,MacIntel,60,,,,,,,,,,,,,,2,6.46959,4,1,0,146,146,47,1,stimuli/stim_20210407_power2amp/equal_lnn_AM2.4Hz_90.m4a,0.858755,,
,,,,,,,,,,,,40624,2021-05-10_17h36.19.056,judgeSpeechMusic_20210407_logNormShiftAmp,2020.1.2,MacIntel,60,,,,,,,,,,,,,,1,5.809145,,0,0,147,147,0,1,stimuli/stim_20210407_power2amp/equal_lnn_AM0.6Hz_23.m4a,,,
,,,,,,,,,,,,40624,2021-05-10_17h36.19.056,judgeSpeechMusic_20210407_logNormShiftAmp,2020.1.2,MacIntel,60,,,,,,,,,,,,,,1,5.824675,,0,0,148,148,69,1,stimuli/stim_20210407_power2amp/equal_lnn_AM3Hz_22.m4a,,,
,,,,,,,,,,,,40624,2021-05-10_17h36.19.056,judgeSpeechMusic_20210407_logNormShiftAmp,2020.1.2,MacIntel,60,,,,,,,,,,,,,,2,5.72391,,0,0,149,149,49,1,stimuli/stim_20210407_power2amp/equal_lnn_AM2.4Hz_10.m4a,,,
,,,,,,,,,,,,40624,2021-05-10_17h36.19.056,judgeSpeechMusic_20210407_logNormShiftAmp,2020.1.2,MacIntel,60,,,,,,,,,,,,,,2,7.319545,,0,1,0,150,29,1,stimuli/stim_20210407_power2amp/equal_lnn_AM1.2Hz_1.m4a,,,
,,,,,,,,,,,,40624,2021-05-10_17h36.19.056,judgeSpeechMusic_20210407_logNormShiftAmp,2020.1.2,MacIntel,60,,,,,,,,,,,,,,1,5.804975,,0,1,1,151,4,1,stimuli/stim_20210407_power2amp/equal_lnn_AM0.6Hz_74.m4a,,,
,,,,,,,,,,,,40624,2021-05-10_17h36.19.056,judgeSpeechMusic_20210407_logNormShiftAmp,2020.1.2,MacIntel,60,,,,,,,,,,,,,,1,5.839175,,0,1,2,152,78,1,stimuli/stim_20210407_power2amp/equal_lnn_AM3.6Hz_75.m4a,,,
,,,,,,,,,,,,40624,2021-05-10_17h36.19.056,judgeSpeechMusic_20210407_logNormShiftAmp,2020.1.2,MacIntel,60,,,,,,,,,,,,,,1,5.769295,,0,1,3,153,44,1,stimuli/stim_20210407_power2amp/equal_lnn_AM1.8Hz_98.m4a,,,
,,,,,,,,,,,,40624,2021-05-10_17h36.19.056,judgeSpeechMusic_20210407_logNormShiftAmp,2020.1.2,MacIntel,60,,,,,,,,,,,,,,2,5.75967,,0,1,4,154,14,1,stimuli/stim_20210407_power2amp/equal_lnn_AM0.6Hz_45.m4a,,,
,,,,,,,,,,,,40624,2021-05-10_17h36.19.056,judgeSpeechMusic_20210407_logNormShiftAmp,2020.1.2,MacIntel,60,,,,,,,,,,,,,,1,5.761795,,0,1,5,155,118,1,stimuli/stim_20210407_power2amp/equal_lnn_AM4.8Hz_89.m4a,,,
,,,,,,,,,,,,40624,2021-05-10_17h36.19.056,judgeSpeechMusic_20210407_logNormShiftAmp,2020.1.2,MacIntel,60,,,,,,,,,,,,,,2,6.45365,,0,1,6,156,22,1,stimuli/stim_20210407_power2amp/equal_lnn_AM1.2Hz_40.m4a,,,
,,,,,,,,,,,,40624,2021-05-10_17h36.19.056,judgeSpeechMusic_20210407_logNormShiftAmp,2020.1.2,MacIntel,60,,,,,,,,,,,,,,2,5.991205,,0,1,7,157,92,1,stimuli/stim_20210407_power2amp/equal_lnn_AM4.2Hz_52.m4a,,,
,,,,,,,,,,,,40624,2021-05-10_17h36.19.056,judgeSpeechMusic_20210407_logNormShiftAmp,2020.1.2,MacIntel,60,,,,,,,,,,,,,,2,6.00235,,0,1,8,158,45,1,stimuli/stim_20210407_power2amp/equal_lnn_AM2.4Hz_35.m4a,,,
,,,,,,,,,,,,40624,2021-05-10_17h36.19.056,judgeSpeechMusic_20210407_logNormShiftAmp,2020.1.2,MacIntel,60,,,,,,,,,,,,,,2,6.1181,,0,1,9,159,1,1,stimuli/stim_20210407_power2amp/equal_lnn_AM0.6Hz_84.m4a,,,
,,,,,,,,,,,,40624,2021-05-10_17h36.19.056,judgeSpeechMusic_20210407_logNormShiftAmp,2020.1.2,MacIntel,60,,,,,,,,,,,,,,2,6.819455,,0,1,10,160,23,1,stimuli/stim_20210407_power2amp/equal_lnn_AM1.2Hz_84.m4a,,,
,,,,,,,,,,,,40624,2021-05-10_17h36.19.056,judgeSpeechMusic_20210407_logNormShiftAmp,2020.1.2,MacIntel,60,,,,,,,,,,,,,,1,7.034785,,0,1,11,161,116,1,stimuli/stim_20210407_power2amp/equal_lnn_AM4.8Hz_2.m4a,,,
,,,,,,,,,,,,40624,2021-05-10_17h36.19.056,judgeSpeechMusic_20210407_logNormShiftAmp,2020.1.2,MacIntel,60,,,,,,,,,,,,,,1,6.97237,,0,1,12,162,148,1,stimuli/stim_20210407_power2amp/equal_lnn_AM6Hz_49.m4a,,,
,,,,,,,,,,,,40624,2021-05-10_17h36.19.056,judgeSpeechMusic_20210407_logNormShiftAmp,2020.1.2,MacIntel,60,,,,,,,,,,,,,,2,6.038175,,0,1,13,163,17,1,stimuli/stim_20210407_power2amp/equal_lnn_AM1.2Hz_64.m4a,,,
,,,,,,,,,,,,40624,2021-05-10_17h36.19.056,judgeSpeechMusic_20210407_logNormShiftAmp,2020.1.2,MacIntel,60,,,,,,,,,,,,,,2,5.60348,,0,1,14,164,143,1,stimuli/stim_20210407_power2amp/equal_lnn_AM6Hz_70.m4a,,,
,,,,,,,,,,,,40624,2021-05-10_17h36.19.056,judgeSpeechMusic_20210407_logNormShiftAmp,2020.1.2,MacIntel,60,,,,,,,,,,,,,,1,6.740305,,0,1,15,165,59,1,stimuli/stim_20210407_power2amp/equal_lnn_AM2.4Hz_88.m4a,,,
,,,,,,,,,,,,40624,2021-05-10_17h36.19.056,judgeSpeechMusic_20210407_logNormShiftAmp,2020.1.2,MacIntel,60,,,,,,,,,,,,,,2,6.520075,,0,1,16,166,98,1,stimuli/stim_20210407_power2amp/equal_lnn_AM4.2Hz_54.m4a,,,
,,,,,,,,,,,,40624,2021-05-10_17h36.19.056,judgeSpeechMusic_20210407_logNormShiftAmp,2020.1.2,MacIntel,60,,,,,,,,,,,,,,2,6.6794,,0,1,17,167,20,1,stimuli/stim_20210407_power2amp/equal_lnn_AM1.2Hz_13.m4a,,,
,,,,,,,,,,,,40624,2021-05-10_17h36.19.056,judgeSpeechMusic_20210407_logNormShiftAmp,2020.1.2,MacIntel,60,,,,,,,,,,,,,,2,5.653895,,0,1,18,168,106,1,stimuli/stim_20210407_power2amp/equal_lnn_AM4.8Hz_6.m4a,,,
,,,,,,,,,,,,40624,2021-05-10_17h36.19.056,judgeSpeechMusic_20210407_logNormShiftAmp,2020.1.2,MacIntel,60,,,,,,,,,,,,,,1,6.20809,1,1,1,19,169,39,1,stimuli/stim_20210407_power2amp/equal_lnn_AM1.8Hz_67.m4a,1.07933,,
,,,,,,,,,,,,40624,2021-05-10_17h36.19.056,judgeSpeechMusic_20210407_logNormShiftAmp,2020.1.2,MacIntel,60,,,,,,,,,,,,,,2,6.138455,,0,1,20,170,63,1,stimuli/stim_20210407_power2amp/equal_lnn_AM3Hz_72.m4a,,,
,,,,,,,,,,,,40624,2021-05-10_17h36.19.056,judgeSpeechMusic_20210407_logNormShiftAmp,2020.1.2,MacIntel,60,,,,,,,,,,,,,,2,6.42426,,0,1,21,171,114,1,stimuli/stim_20210407_power2amp/equal_lnn_AM4.8Hz_26.m4a,,,
,,,,,,,,,,,,40624,2021-05-10_17h36.19.056,judgeSpeechMusic_20210407_logNormShiftAmp,2020.1.2,MacIntel,60,,,,,,,,,,,,,,2,5.760435,,0,1,22,172,42,1,stimuli/stim_20210407_power2amp/equal_lnn_AM1.8Hz_29.m4a,,,
,,,,,,,,,,,,40624,2021-05-10_17h36.19.056,judgeSpeechMusic_20210407_logNormShiftAmp,2020.1.2,MacIntel,60,,,,,,,,,,,,,,2,6.257865,,0,1,23,173,58,1,stimuli/stim_20210407_power2amp/equal_lnn_AM2.4Hz_74.m4a,,,
,,,,,,,,,,,,40624,2021-05-10_17h36.19.056,judgeSpeechMusic_20210407_logNormShiftAmp,2020.1.2,MacIntel,60,,,,,,,,,,,,,,1,5.70353,,0,1,24,174,123,1,stimuli/stim_20210407_power2amp/equal_lnn_AM5.4Hz_46.m4a,,,
,,,,,,,,,,,,40624,2021-05-10_17h36.19.056,judgeSpeechMusic_20210407_logNormShiftAmp,2020.1.2,MacIntel,60,,,,,,,,,,,,,,1,5.811865,,0,1,25,175,27,1,stimuli/stim_20210407_power2amp/equal_lnn_AM1.2Hz_78.m4a,,,
,,,,,,,,,,,,40624,2021-05-10_17h36.19.056,judgeSpeechMusic_20210407_logNormShiftAmp,2020.1.2,MacIntel,60,,,,,,,,,,,,,,1,6.05294,,0,1,26,176,140,1,stimuli/stim_20210407_power2amp/equal_lnn_AM6Hz_87.m4a,,,
,,,,,,,,,,,,40624,2021-05-10_17h36.19.056,judgeSpeechMusic_20210407_logNormShiftAmp,2020.1.2,MacIntel,60,,,,,,,,,,,,,,2,5.970955,,0,1,27,177,34,1,stimuli/stim_20210407_power2amp/equal_lnn_AM1.8Hz_63.m4a,,,
,,,,,,,,,,,,40624,2021-05-10_17h36.19.056,judgeSpeechMusic_20210407_logNormShiftAmp,2020.1.2,MacIntel,60,,,,,,,,,,,,,,2,6.587165,,0,1,28,178,113,1,stimuli/stim_20210407_power2amp/equal_lnn_AM4.8Hz_13.m4a,,,
,,,,,,,,,,,,40624,2021-05-10_17h36.19.056,judgeSpeechMusic_20210407_logNormShiftAmp,2020.1.2,MacIntel,60,,,,,,,,,,,,,,2,6.574975,,0,1,29,179,70,1,stimuli/stim_20210407_power2amp/equal_lnn_AM3Hz_2.m4a,,,
,,,,,,,,,,,,40624,2021-05-10_17h36.19.056,judgeSpeechMusic_20210407_logNormShiftAmp,2020.1.2,MacIntel,60,,,,,,,,,,,,,,2,6.256945,,0,1,30,180,144,1,stimuli/stim_20210407_power2amp/equal_lnn_AM6Hz_32.m4a,,,
,,,,,,,,,,,,40624,2021-05-10_17h36.19.056,judgeSpeechMusic_20210407_logNormShiftAmp,2020.1.2,MacIntel,60,,,,,,,,,,,,,,2,6.18012,,0,1,31,181,43,1,stimuli/stim_20210407_power2amp/equal_lnn_AM1.8Hz_97.m4a,,,
,,,,,,,,,,,,40624,2021-05-10_17h36.19.056,judgeSpeechMusic_20210407_logNormShiftAmp,2020.1.2,MacIntel,60,,,,,,,,,,,,,,1,5.64334,,0,1,32,182,128,1,stimuli/stim_20210407_power2amp/equal_lnn_AM5.4Hz_38.m4a,,,
,,,,,,,,,,,,40624,2021-05-10_17h36.19.056,judgeSpeechMusic_20210407_logNormShiftAmp,2020.1.2,MacIntel,60,,,,,,,,,,,,,,1,5.6709,,0,1,33,183,32,1,stimuli/stim_20210407_power2amp/equal_lnn_AM1.8Hz_86.m4a,,,
,,,,,,,,,,,,40624,2021-05-10_17h36.19.056,judgeSpeechMusic_20210407_logNormShiftAmp,2020.1.2,MacIntel,60,,,,,,,,,,,,,,2,6.591385,,0,1,34,184,48,1,stimuli/stim_20210407_power2amp/equal_lnn_AM2.4Hz_47.m4a,,,
,,,,,,,,,,,,40624,2021-05-10_17h36.19.056,judgeSpeechMusic_20210407_logNormShiftAmp,2020.1.2,MacIntel,60,,,,,,,,,,,,,,1,6.87253,,0,1,35,185,104,1,stimuli/stim_20210407_power2amp/equal_lnn_AM4.2Hz_62.m4a,,,
,,,,,,,,,,,,40624,2021-05-10_17h36.19.056,judgeSpeechMusic_20210407_logNormShiftAmp,2020.1.2,MacIntel,60,,,,,,,,,,,,,,2,7.403665,,0,1,36,186,31,1,stimuli/stim_20210407_power2amp/equal_lnn_AM1.8Hz_59.m4a,,,
,,,,,,,,,,,,40624,2021-05-10_17h36.19.056,judgeSpeechMusic_20210407_logNormShiftAmp,2020.1.2,MacIntel,60,,,,,,,,,,,,,,2,5.735255,,0,1,37,187,97,1,stimuli/stim_20210407_power2amp/equal_lnn_AM4.2Hz_17.m4a,,,
,,,,,,,,,,,,40624,2021-05-10_17h36.19.056,judgeSpeechMusic_20210407_logNormShiftAmp,2020.1.2,MacIntel,60,,,,,,,,,,,,,,1,7.0754,,0,1,38,188,41,1,stimuli/stim_20210407_power2amp/equal_lnn_AM1.8Hz_32.m4a,,,
,,,,,,,,,,,,40624,2021-05-10_17h36.19.056,judgeSpeechMusic_20210407_logNormShiftAmp,2020.1.2,MacIntel,60,,,,,,,,,,,,,,2,6.60414,,0,1,39,189,89,1,stimuli/stim_20210407_power2amp/equal_lnn_AM3.6Hz_100.m4a,,,
,,,,,,,,,,,,40624,2021-05-10_17h36.19.056,judgeSpeechMusic_20210407_logNormShiftAmp,2020.1.2,MacIntel,60,,,,,,,,,,,,,,2,9.832295,,0,1,40,190,3,1,stimuli/stim_20210407_power2amp/equal_lnn_AM0.6Hz_46.m4a,,,
,,,,,,,,,,,,40624,2021-05-10_17h36.19.056,judgeSpeechMusic_20210407_logNormShiftAmp,2020.1.2,MacIntel,60,,,,,,,,,,,,,,2,5.63548,1,1,1,41,191,61,1,stimuli/stim_20210407_power2amp/equal_lnn_AM3Hz_91.m4a,1.146005,,
,,,,,,,,,,,,40624,2021-05-10_17h36.19.056,judgeSpeechMusic_20210407_logNormShiftAmp,2020.1.2,MacIntel,60,,,,,,,,,,,,,,2,6.00496,,0,1,42,192,28,1,stimuli/stim_20210407_power2amp/equal_lnn_AM1.2Hz_12.m4a,,,
,,,,,,,,,,,,40624,2021-05-10_17h36.19.056,judgeSpeechMusic_20210407_logNormShiftAmp,2020.1.2,MacIntel,60,,,,,,,,,,,,,,1,5.773505,,0,1,43,193,110,1,stimuli/stim_20210407_power2amp/equal_lnn_AM4.8Hz_30.m4a,,,
,,,,,,,,,,,,40624,2021-05-10_17h36.19.056,judgeSpeechMusic_20210407_logNormShiftAmp,2020.1.2,MacIntel,60,,,,,,,,,,,,,,1,7.10977,,0,1,44,194,25,1,stimuli/stim_20210407_power2amp/equal_lnn_AM1.2Hz_49.m4a,,,
,,,,,,,,,,,,40624,2021-05-10_17h36.19.056,judgeSpeechMusic_20210407_logNormShiftAmp,2020.1.2,MacIntel,60,,,,,,,,,,,,,,2,5.97011,,0,1,45,195,80,1,stimuli/stim_20210407_power2amp/equal_lnn_AM3.6Hz_90.m4a,,,
,,,,,,,,,,,,40624,2021-05-10_17h36.19.056,judgeSpeechMusic_20210407_logNormShiftAmp,2020.1.2,MacIntel,60,,,,,,,,,,,,,,1,5.87923,,0,1,46,196,136,1,stimuli/stim_20210407_power2amp/equal_lnn_AM6Hz_82.m4a,,,
,,,,,,,,,,,,40624,2021-05-10_17h36.19.056,judgeSpeechMusic_20210407_logNormShiftAmp,2020.1.2,MacIntel,60,,,,,,,,,,,,,,1,6.307435,,0,1,47,197,145,1,stimuli/stim_20210407_power2amp/equal_lnn_AM6Hz_52.m4a,,,
,,,,,,,,,,,,40624,2021-05-10_17h36.19.056,judgeSpeechMusic_20210407_logNormShiftAmp,2020.1.2,MacIntel,60,,,,,,,,,,,,,,2,7.386775,,0,1,48,198,124,1,stimuli/stim_20210407_power2amp/equal_lnn_AM5.4Hz_80.m4a,,,
,,,,,,,,,,,,40624,2021-05-10_17h36.19.056,judgeSpeechMusic_20210407_logNormShiftAmp,2020.1.2,MacIntel,60,,,,,,,,,,,,,,2,6.819975,,0,1,49,199,11,1,stimuli/stim_20210407_power2amp/equal_lnn_AM0.6Hz_49.m4a,,,
,,,,,,,,,,,,40624,2021-05-10_17h36.19.056,judgeSpeechMusic_20210407_logNormShiftAmp,2020.1.2,MacIntel,60,,,,,,,,,,,,,,2,7.28653,,0,1,50,200,26,1,stimuli/stim_20210407_power2amp/equal_lnn_AM1.2Hz_44.m4a,,,
,,,,,,,,,,,,40624,2021-05-10_17h36.19.056,judgeSpeechMusic_20210407_logNormShiftAmp,2020.1.2,MacIntel,60,,,,,,,,,,,,,,1,6.55452,,0,1,51,201,7,1,stimuli/stim_20210407_power2amp/equal_lnn_AM0.6Hz_26.m4a,,,
,,,,,,,,,,,,40624,2021-05-10_17h36.19.056,judgeSpeechMusic_20210407_logNormShiftAmp,2020.1.2,MacIntel,60,,,,,,,,,,,,,,2,5.724605,,0,1,52,202,137,1,stimuli/stim_20210407_power2amp/equal_lnn_AM6Hz_31.m4a,,,
,,,,,,,,,,,,40624,2021-05-10_17h36.19.056,judgeSpeechMusic_20210407_logNormShiftAmp,2020.1.2,MacIntel,60,,,,,,,,,,,,,,1,5.687185,,0,1,53,203,88,1,stimuli/stim_20210407_power2amp/equal_lnn_AM3.6Hz_50.m4a,,,
,,,,,,,,,,,,40624,2021-05-10_17h36.19.056,judgeSpeechMusic_20210407_logNormShiftAmp,2020.1.2,MacIntel,60,,,,,,,,,,,,,,2,6.47157,,0,1,54,204,132,1,stimuli/stim_20210407_power2amp/equal_lnn_AM5.4Hz_47.m4a,,,
,,,,,,,,,,,,40624,2021-05-10_17h36.19.056,judgeSpeechMusic_20210407_logNormShiftAmp,2020.1.2,MacIntel,60,,,,,,,,,,,,,,1,5.721005,,0,1,55,205,79,1,stimuli/stim_20210407_power2amp/equal_lnn_AM3.6Hz_64.m4a,,,
,,,,,,,,,,,,40624,2021-05-10_17h36.19.056,judgeSpeechMusic_20210407_logNormShiftAmp,2020.1.2,MacIntel,60,,,,,,,,,,,,,,1,5.974,,0,1,56,206,94,1,stimuli/stim_20210407_power2amp/equal_lnn_AM4.2Hz_100.m4a,,,
,,,,,,,,,,,,40624,2021-05-10_17h36.19.056,judgeSpeechMusic_20210407_logNormShiftAmp,2020.1.2,MacIntel,60,,,,,,,,,,,,,,2,6.034855,,0,1,57,207,18,1,stimuli/stim_20210407_power2amp/equal_lnn_AM1.2Hz_45.m4a,,,
,,,,,,,,,,,,40624,2021-05-10_17h36.19.056,judgeSpeechMusic_20210407_logNormShiftAmp,2020.1.2,MacIntel,60,,,,,,,,,,,,,,1,5.68519,,0,1,58,208,52,1,stimuli/stim_20210407_power2amp/equal_lnn_AM2.4Hz_51.m4a,,,
,,,,,,,,,,,,40624,2021-05-10_17h36.19.056,judgeSpeechMusic_20210407_logNormShiftAmp,2020.1.2,MacIntel,60,,,,,,,,,,,,,,2,6.01959,,0,1,59,209,50,1,stimuli/stim_20210407_power2amp/equal_lnn_AM2.4Hz_30.m4a,,,
,,,,,,,,,,,,40624,2021-05-10_17h36.19.056,judgeSpeechMusic_20210407_logNormShiftAmp,2020.1.2,MacIntel,60,,,,,,,,,,,,,,2,5.895215,,0,1,60,210,21,1,stimuli/stim_20210407_power2amp/equal_lnn_AM1.2Hz_74.m4a,,,
,,,,,,,,,,,,40624,2021-05-10_17h36.19.056,judgeSpeechMusic_20210407_logNormShiftAmp,2020.1.2,MacIntel,60,,,,,,,,,,,,,,1,5.72261,,0,1,61,211,77,1,stimuli/stim_20210407_power2amp/equal_lnn_AM3.6Hz_78.m4a,,,
,,,,,,,,,,,,40624,2021-05-10_17h36.19.056,judgeSpeechMusic_20210407_logNormShiftAmp,2020.1.2,MacIntel,60,,,,,,,,,,,,,,2,6.40324,,0,1,62,212,119,1,stimuli/stim_20210407_power2amp/equal_lnn_AM4.8Hz_75.m4a,,,
,,,,,,,,,,,,40624,2021-05-10_17h36.19.056,judgeSpeechMusic_20210407_logNormShiftAmp,2020.1.2,MacIntel,60,,,,,,,,,,,,,,2,7.0851,,0,1,63,213,5,1,stimuli/stim_20210407_power2amp/equal_lnn_AM0.6Hz_9.m4a,,,
,,,,,,,,,,,,40624,2021-05-10_17h36.19.056,judgeSpeechMusic_20210407_logNormShiftAmp,2020.1.2,MacIntel,60,,,,,,,,,,,,,,1,6.36119,,0,1,64,214,66,1,stimuli/stim_20210407_power2amp/equal_lnn_AM3Hz_27.m4a,,,
,,,,,,,,,,,,40624,2021-05-10_17h36.19.056,judgeSpeechMusic_20210407_logNormShiftAmp,2020.1.2,MacIntel,60,,,,,,,,,,,,,,2,5.705235,,0,1,65,215,101,1,stimuli/stim_20210407_power2amp/equal_lnn_AM4.2Hz_99.m4a,,,
,,,,,,,,,,,,40624,2021-05-10_17h36.19.056,judgeSpeechMusic_20210407_logNormShiftAmp,2020.1.2,MacIntel,60,,,,,,,,,,,,,,1,5.80496,1,1,1,66,216,67,1,stimuli/stim_20210407_power2amp/equal_lnn_AM3Hz_86.m4a,1.155645,,
,,,,,,,,,,,,40624,2021-05-10_17h36.19.056,judgeSpeechMusic_20210407_logNormShiftAmp,2020.1.2,MacIntel,60,,,,,,,,,,,,,,2,6.470565,,0,1,67,217,36,1,stimuli/stim_20210407_power2amp/equal_lnn_AM1.8Hz_15.m4a,,,
,,,,,,,,,,,,40624,2021-05-10_17h36.19.056,judgeSpeechMusic_20210407_logNormShiftAmp,2020.1.2,MacIntel,60,,,,,,,,,,,,,,2,6.06978,,0,1,68,218,38,1,stimuli/stim_20210407_power2amp/equal_lnn_AM1.8Hz_25.m4a,,,
,,,,,,,,,,,,40624,2021-05-10_17h36.19.056,judgeSpeechMusic_20210407_logNormShiftAmp,2020.1.2,MacIntel,60,,,,,,,,,,,,,,2,6.267735,,0,1,69,219,142,1,stimuli/stim_20210407_power2amp/equal_lnn_AM6Hz_97.m4a,,,
,,,,,,,,,,,,40624,2021-05-10_17h36.19.056,judgeSpeechMusic_20210407_logNormShiftAmp,2020.1.2,MacIntel,60,,,,,,,,,,,,,,2,6.20353,,0,1,70,220,73,1,stimuli/stim_20210407_power2amp/equal_lnn_AM3Hz_90.m4a,,,
,,,,,,,,,,,,40624,2021-05-10_17h36.19.056,judgeSpeechMusic_20210407_logNormShiftAmp,2020.1.2,MacIntel,60,,,,,,,,,,,,,,2,6.140145,,0,1,71,221,6,1,stimuli/stim_20210407_power2amp/equal_lnn_AM0.6Hz_85.m4a,,,
,,,,,,,,,,,,40624,2021-05-10_17h36.19.056,judgeSpeechMusic_20210407_logNormShiftAmp,2020.1.2,MacIntel,60,,,,,,,,,,,,,,1,5.68664,,0,1,72,222,71,1,stimuli/stim_20210407_power2amp/equal_lnn_AM3Hz_21.m4a,,,
,,,,,,,,,,,,40624,2021-05-10_17h36.19.056,judgeSpeechMusic_20210407_logNormShiftAmp,2020.1.2,MacIntel,60,,,,,,,,,,,,,,1,6.106535,,0,1,73,223,96,1,stimuli/stim_20210407_power2amp/equal_lnn_AM4.2Hz_68.m4a,,,
,,,,,,,,,,,,40624,2021-05-10_17h36.19.056,judgeSpeechMusic_20210407_logNormShiftAmp,2020.1.2,MacIntel,60,,,,,,,,,,,,,,1,6.92311,,0,1,74,224,16,1,stimuli/stim_20210407_power2amp/equal_lnn_AM1.2Hz_24.m4a,,,
,,,,,,,,,,,,40624,2021-05-10_17h36.19.056,judgeSpeechMusic_20210407_logNormShiftAmp,2020.1.2,MacIntel,60,,,,,,,,,,,,,,2,6.23992,,0,1,75,225,135,1,stimuli/stim_20210407_power2amp/equal_lnn_AM6Hz_36.m4a,,,
,,,,,,,,,,,,40624,2021-05-10_17h36.19.056,judgeSpeechMusic_20210407_logNormShiftAmp,2020.1.2,MacIntel,60,,,,,,,,,,,,,,2,6.12368,,0,1,76,226,85,1,stimuli/stim_20210407_power2amp/equal_lnn_AM3.6Hz_1.m4a,,,
,,,,,,,,,,,,40624,2021-05-10_17h36.19.056,judgeSpeechMusic_20210407_logNormShiftAmp,2020.1.2,MacIntel,60,,,,,,,,,,,,,,2,6.13652,,0,1,77,227,8,1,stimuli/stim_20210407_power2amp/equal_lnn_AM0.6Hz_43.m4a,,,
,,,,,,,,,,,,40624,2021-05-10_17h36.19.056,judgeSpeechMusic_20210407_logNormShiftAmp,2020.1.2,MacIntel,60,,,,,,,,,,,,,,1,6.710085,,0,1,78,228,111,1,stimuli/stim_20210407_power2amp/equal_lnn_AM4.8Hz_40.m4a,,,
,,,,,,,,,,,,40624,2021-05-10_17h36.19.056,judgeSpeechMusic_20210407_logNormShiftAmp,2020.1.2,MacIntel,60,,,,,,,,,,,,,,2,6.389225,,0,1,79,229,0,1,stimuli/stim_20210407_power2amp/equal_lnn_AM0.6Hz_23.m4a,,,
,,,,,,,,,,,,40624,2021-05-10_17h36.19.056,judgeSpeechMusic_20210407_logNormShiftAmp,2020.1.2,MacIntel,60,,,,,,,,,,,,,,1,6.522915,,0,1,80,230,90,1,stimuli/stim_20210407_power2amp/equal_lnn_AM4.2Hz_91.m4a,,,
,,,,,,,,,,,,40624,2021-05-10_17h36.19.056,judgeSpeechMusic_20210407_logNormShiftAmp,2020.1.2,MacIntel,60,,,,,,,,,,,,,,2,6.52065,,0,1,81,231,127,1,stimuli/stim_20210407_power2amp/equal_lnn_AM5.4Hz_45.m4a,,,
,,,,,,,,,,,,40624,2021-05-10_17h36.19.056,judgeSpeechMusic_20210407_logNormShiftAmp,2020.1.2,MacIntel,60,,,,,,,,,,,,,,1,6.83666,,0,1,82,232,146,1,stimuli/stim_20210407_power2amp/equal_lnn_AM6Hz_84.m4a,,,
,,,,,,,,,,,,40624,2021-05-10_17h36.19.056,judgeSpeechMusic_20210407_logNormShiftAmp,2020.1.2,MacIntel,60,,,,,,,,,,,,,,2,6.733865,,0,1,83,233,134,1,stimuli/stim_20210407_power2amp/equal_lnn_AM5.4Hz_100.m4a,,,
,,,,,,,,,,,,40624,2021-05-10_17h36.19.056,judgeSpeechMusic_20210407_logNormShiftAmp,2020.1.2,MacIntel,60,,,,,,,,,,,,,,1,7.295325,,0,1,84,234,62,1,stimuli/stim_20210407_power2amp/equal_lnn_AM3Hz_73.m4a,,,
,,,,,,,,,,,,40624,2021-05-10_17h36.19.056,judgeSpeechMusic_20210407_logNormShiftAmp,2020.1.2,MacIntel,60,,,,,,,,,,,,,,2,6.25572,,0,1,85,235,129,1,stimuli/stim_20210407_power2amp/equal_lnn_AM5.4Hz_88.m4a,,,
,,,,,,,,,,,,40624,2021-05-10_17h36.19.056,judgeSpeechMusic_20210407_logNormShiftAmp,2020.1.2,MacIntel,60,,,,,,,,,,,,,,1,6.958785,,0,1,86,236,100,1,stimuli/stim_20210407_power2amp/equal_lnn_AM4.2Hz_84.m4a,,,
,,,,,,,,,,,,40624,2021-05-10_17h36.19.056,judgeSpeechMusic_20210407_logNormShiftAmp,2020.1.2,MacIntel,60,,,,,,,,,,,,,,1,7.37186,3,1,1,87,237,56,1,stimuli/stim_20210407_power2amp/equal_lnn_AM2.4Hz_61.m4a,0.60775,,
,,,,,,,,,,,,40624,2021-05-10_17h36.19.056,judgeSpeechMusic_20210407_logNormShiftAmp,2020.1.2,MacIntel,60,,,,,,,,,,,,,,2,6.922245,,0,1,88,238,2,1,stimuli/stim_20210407_power2amp/equal_lnn_AM0.6Hz_44.m4a,,,
,,,,,,,,,,,,40624,2021-05-10_17h36.19.056,judgeSpeechMusic_20210407_logNormShiftAmp,2020.1.2,MacIntel,60,,,,,,,,,,,,,,2,7.15187,,0,1,89,239,40,1,stimuli/stim_20210407_power2amp/equal_lnn_AM1.8Hz_38.m4a,,,
,,,,,,,,,,,,40624,2021-05-10_17h36.19.056,judgeSpeechMusic_20210407_logNormShiftAmp,2020.1.2,MacIntel,60,,,,,,,,,,,,,,2,8.29223,,0,1,90,240,74,1,stimuli/stim_20210407_power2amp/equal_lnn_AM3Hz_43.m4a,,,
,,,,,,,,,,,,40624,2021-05-10_17h36.19.056,judgeSpeechMusic_20210407_logNormShiftAmp,2020.1.2,MacIntel,60,,,,,,,,,,,,,,2,5.9315,,0,1,91,241,86,1,stimuli/stim_20210407_power2amp/equal_lnn_AM3.6Hz_82.m4a,,,
,,,,,,,,,,,,40624,2021-05-10_17h36.19.056,judgeSpeechMusic_20210407_logNormShiftAmp,2020.1.2,MacIntel,60,,,,,,,,,,,,,,2,5.685445,,0,1,92,242,60,1,stimuli/stim_20210407_power2amp/equal_lnn_AM3Hz_78.m4a,,,
,,,,,,,,,,,,40624,2021-05-10_17h36.19.056,judgeSpeechMusic_20210407_logNormShiftAmp,2020.1.2,MacIntel,60,,,,,,,,,,,,,,1,5.85858,,0,1,93,243,141,1,stimuli/stim_20210407_power2amp/equal_lnn_AM6Hz_86.m4a,,,
,,,,,,,,,,,,40624,2021-05-10_17h36.19.056,judgeSpeechMusic_20210407_logNormShiftAmp,2020.1.2,MacIntel,60,,,,,,,,,,,,,,2,7.91157,,0,1,94,244,109,1,stimuli/stim_20210407_power2amp/equal_lnn_AM4.8Hz_87.m4a,,,
,,,,,,,,,,,,40624,2021-05-10_17h36.19.056,judgeSpeechMusic_20210407_logNormShiftAmp,2020.1.2,MacIntel,60,,,,,,,,,,,,,,1,8.23432,,0,1,95,245,95,1,stimuli/stim_20210407_power2amp/equal_lnn_AM4.2Hz_43.m4a,,,
,,,,,,,,,,,,40624,2021-05-10_17h36.19.056,judgeSpeechMusic_20210407_logNormShiftAmp,2020.1.2,MacIntel,60,,,,,,,,,,,,,,2,6.943665,,0,1,96,246,10,1,stimuli/stim_20210407_power2amp/equal_lnn_AM0.6Hz_91.m4a,,,
,,,,,,,,,,,,40624,2021-05-10_17h36.19.056,judgeSpeechMusic_20210407_logNormShiftAmp,2020.1.2,MacIntel,60,,,,,,,,,,,,,,2,7.03518,,0,1,97,247,93,1,stimuli/stim_20210407_power2amp/equal_lnn_AM4.2Hz_94.m4a,,,
,,,,,,,,,,,,40624,2021-05-10_17h36.19.056,judgeSpeechMusic_20210407_logNormShiftAmp,2020.1.2,MacIntel,60,,,,,,,,,,,,,,1,9.25822,,0,1,98,248,120,1,stimuli/stim_20210407_power2amp/equal_lnn_AM5.4Hz_42.m4a,,,
,,,,,,,,,,,,40624,2021-05-10_17h36.19.056,judgeSpeechMusic_20210407_logNormShiftAmp,2020.1.2,MacIntel,60,,,,,,,,,,,,,,1,5.82924,,0,1,99,249,125,1,stimuli/stim_20210407_power2amp/equal_lnn_AM5.4Hz_31.m4a,,,
,,,,,,,,,,,,40624,2021-05-10_17h36.19.056,judgeSpeechMusic_20210407_logNormShiftAmp,2020.1.2,MacIntel,60,,,,,,,,,,,,,,2,6.119845,,0,1,100,250,105,1,stimuli/stim_20210407_power2amp/equal_lnn_AM4.8Hz_7.m4a,,,
,,,,,,,,,,,,40624,2021-05-10_17h36.19.056,judgeSpeechMusic_20210407_logNormShiftAmp,2020.1.2,MacIntel,60,,,,,,,,,,,,,,2,5.861905,,0,1,101,251,81,1,stimuli/stim_20210407_power2amp/equal_lnn_AM3.6Hz_55.m4a,,,
,,,,,,,,,,,,40624,2021-05-10_17h36.19.056,judgeSpeechMusic_20210407_logNormShiftAmp,2020.1.2,MacIntel,60,,,,,,,,,,,,,,2,5.853075,,0,1,102,252,54,1,stimuli/stim_20210407_power2amp/equal_lnn_AM2.4Hz_57.m4a,,,
,,,,,,,,,,,,40624,2021-05-10_17h36.19.056,judgeSpeechMusic_20210407_logNormShiftAmp,2020.1.2,MacIntel,60,,,,,,,,,,,,,,2,5.95832,,0,1,103,253,91,1,stimuli/stim_20210407_power2amp/equal_lnn_AM4.2Hz_51.m4a,,,
,,,,,,,,,,,,40624,2021-05-10_17h36.19.056,judgeSpeechMusic_20210407_logNormShiftAmp,2020.1.2,MacIntel,60,,,,,,,,,,,,,,1,5.82685,,0,1,104,254,108,1,stimuli/stim_20210407_power2amp/equal_lnn_AM4.8Hz_79.m4a,,,
,,,,,,,,,,,,40624,2021-05-10_17h36.19.056,judgeSpeechMusic_20210407_logNormShiftAmp,2020.1.2,MacIntel,60,,,,,,,,,,,,,,1,5.77043,,0,1,105,255,84,1,stimuli/stim_20210407_power2amp/equal_lnn_AM3.6Hz_57.m4a,,,
,,,,,,,,,,,,40624,2021-05-10_17h36.19.056,judgeSpeechMusic_20210407_logNormShiftAmp,2020.1.2,MacIntel,60,,,,,,,,,,,,,,2,5.955865,,0,1,106,256,64,1,stimuli/stim_20210407_power2amp/equal_lnn_AM3Hz_10.m4a,,,
,,,,,,,,,,,,40624,2021-05-10_17h36.19.056,judgeSpeechMusic_20210407_logNormShiftAmp,2020.1.2,MacIntel,60,,,,,,,,,,,,,,2,6.15521,,0,1,107,257,72,1,stimuli/stim_20210407_power2amp/equal_lnn_AM3Hz_35.m4a,,,
,,,,,,,,,,,,40624,2021-05-10_17h36.19.056,judgeSpeechMusic_20210407_logNormShiftAmp,2020.1.2,MacIntel,60,,,,,,,,,,,,,,2,7.00257,,0,1,108,258,30,1,stimuli/stim_20210407_power2amp/equal_lnn_AM1.8Hz_99.m4a,,,
,,,,,,,,,,,,40624,2021-05-10_17h36.19.056,judgeSpeechMusic_20210407_logNormShiftAmp,2020.1.2,MacIntel,60,,,,,,,,,,,,,,1,7.454205,,0,1,109,259,49,1,stimuli/stim_20210407_power2amp/equal_lnn_AM2.4Hz_10.m4a,,,
,,,,,,,,,,,,40624,2021-05-10_17h36.19.056,judgeSpeechMusic_20210407_logNormShiftAmp,2020.1.2,MacIntel,60,,,,,,,,,,,,,,2,6.47854,3,1,1,110,260,53,1,stimuli/stim_20210407_power2amp/equal_lnn_AM2.4Hz_46.m4a,0.49565,,
,,,,,,,,,,,,40624,2021-05-10_17h36.19.056,judgeSpeechMusic_20210407_logNormShiftAmp,2020.1.2,MacIntel,60,,,,,,,,,,,,,,1,6.087435,,0,1,111,261,68,1,stimuli/stim_20210407_power2amp/equal_lnn_AM3Hz_57.m4a,,,
,,,,,,,,,,,,40624,2021-05-10_17h36.19.056,judgeSpeechMusic_20210407_logNormShiftAmp,2020.1.2,MacIntel,60,,,,,,,,,,,,,,1,5.774725,,0,1,112,262,47,1,stimuli/stim_20210407_power2amp/equal_lnn_AM2.4Hz_90.m4a,,,
,,,,,,,,,,,,40624,2021-05-10_17h36.19.056,judgeSpeechMusic_20210407_logNormShiftAmp,2020.1.2,MacIntel,60,,,,,,,,,,,,,,2,6.403175,,0,1,113,263,102,1,stimuli/stim_20210407_power2amp/equal_lnn_AM4.2Hz_28.m4a,,,
,,,,,,,,,,,,40624,2021-05-10_17h36.19.056,judgeSpeechMusic_20210407_logNormShiftAmp,2020.1.2,MacIntel,60,,,,,,,,,,,,,,2,6.36939,,0,1,114,264,115,1,stimuli/stim_20210407_power2amp/equal_lnn_AM4.8Hz_88.m4a,,,
,,,,,,,,,,,,40624,2021-05-10_17h36.19.056,judgeSpeechMusic_20210407_logNormShiftAmp,2020.1.2,MacIntel,60,,,,,,,,,,,,,,2,7.156655,,0,1,115,265,51,1,stimuli/stim_20210407_power2amp/equal_lnn_AM2.4Hz_39.m4a,,,
,,,,,,,,,,,,40624,2021-05-10_17h36.19.056,judgeSpeechMusic_20210407_logNormShiftAmp,2020.1.2,MacIntel,60,,,,,,,,,,,,,,2,5.954595,,0,1,116,266,83,1,stimuli/stim_20210407_power2amp/equal_lnn_AM3.6Hz_2.m4a,,,
,,,,,,,,,,,,40624,2021-05-10_17h36.19.056,judgeSpeechMusic_20210407_logNormShiftAmp,2020.1.2,MacIntel,60,,,,,,,,,,,,,,1,5.840755,,0,1,117,267,46,1,stimuli/stim_20210407_power2amp/equal_lnn_AM2.4Hz_89.m4a,,,
,,,,,,,,,,,,40624,2021-05-10_17h36.19.056,judgeSpeechMusic_20210407_logNormShiftAmp,2020.1.2,MacIntel,60,,,,,,,,,,,,,,1,5.81899,,0,1,118,268,24,1,stimuli/stim_20210407_power2amp/equal_lnn_AM1.2Hz_28.m4a,,,
,,,,,,,,,,,,40624,2021-05-10_17h36.19.056,judgeSpeechMusic_20210407_logNormShiftAmp,2020.1.2,MacIntel,60,,,,,,,,,,,,,,2,5.827335,,0,1,119,269,99,1,stimuli/stim_20210407_power2amp/equal_lnn_AM4.2Hz_92.m4a,,,
,,,,,,,,,,,,40624,2021-05-10_17h36.19.056,judgeSpeechMusic_20210407_logNormShiftAmp,2020.1.2,MacIntel,60,,,,,,,,,,,,,,2,6.120235,,0,1,120,270,87,1,stimuli/stim_20210407_power2amp/equal_lnn_AM3.6Hz_89.m4a,,,
,,,,,,,,,,,,40624,2021-05-10_17h36.19.056,judgeSpeechMusic_20210407_logNormShiftAmp,2020.1.2,MacIntel,60,,,,,,,,,,,,,,1,7.303695,,0,1,121,271,126,1,stimuli/stim_20210407_power2amp/equal_lnn_AM5.4Hz_50.m4a,,,
,,,,,,,,,,,,40624,2021-05-10_17h36.19.056,judgeSpeechMusic_20210407_logNormShiftAmp,2020.1.2,MacIntel,60,,,,,,,,,,,,,,1,5.876575,,0,1,122,272,33,1,stimuli/stim_20210407_power2amp/equal_lnn_AM1.8Hz_34.m4a,,,
,,,,,,,,,,,,40624,2021-05-10_17h36.19.056,judgeSpeechMusic_20210407_logNormShiftAmp,2020.1.2,MacIntel,60,,,,,,,,,,,,,,2,5.678975,,0,1,123,273,55,1,stimuli/stim_20210407_power2amp/equal_lnn_AM2.4Hz_23.m4a,,,
,,,,,,,,,,,,40624,2021-05-10_17h36.19.056,judgeSpeechMusic_20210407_logNormShiftAmp,2020.1.2,MacIntel,60,,,,,,,,,,,,,,1,5.653215,,0,1,124,274,112,1,stimuli/stim_20210407_power2amp/equal_lnn_AM4.8Hz_76.m4a,,,
,,,,,,,,,,,,40624,2021-05-10_17h36.19.056,judgeSpeechMusic_20210407_logNormShiftAmp,2020.1.2,MacIntel,60,,,,,,,,,,,,,,2,5.65666,,0,1,125,275,37,1,stimuli/stim_20210407_power2amp/equal_lnn_AM1.8Hz_83.m4a,,,
,,,,,,,,,,,,40624,2021-05-10_17h36.19.056,judgeSpeechMusic_20210407_logNormShiftAmp,2020.1.2,MacIntel,60,,,,,,,,,,,,,,1,5.785305,,0,1,126,276,65,1,stimuli/stim_20210407_power2amp/equal_lnn_AM3Hz_69.m4a,,,
,,,,,,,,,,,,40624,2021-05-10_17h36.19.056,judgeSpeechMusic_20210407_logNormShiftAmp,2020.1.2,MacIntel,60,,,,,,,,,,,,,,2,6.011025,,0,1,127,277,82,1,stimuli/stim_20210407_power2amp/equal_lnn_AM3.6Hz_59.m4a,,,
,,,,,,,,,,,,40624,2021-05-10_17h36.19.056,judgeSpeechMusic_20210407_logNormShiftAmp,2020.1.2,MacIntel,60,,,,,,,,,,,,,,1,5.871685,,0,1,128,278,19,1,stimuli/stim_20210407_power2amp/equal_lnn_AM1.2Hz_42.m4a,,,
,,,,,,,,,,,,40624,2021-05-10_17h36.19.056,judgeSpeechMusic_20210407_logNormShiftAmp,2020.1.2,MacIntel,60,,,,,,,,,,,,,,1,8.046025,,0,1,129,279,13,1,stimuli/stim_20210407_power2amp/equal_lnn_AM0.6Hz_34.m4a,,,
,,,,,,,,,,,,40624,2021-05-10_17h36.19.056,judgeSpeechMusic_20210407_logNormShiftAmp,2020.1.2,MacIntel,60,,,,,,,,,,,,,,2,6.912845,,0,1,130,280,15,1,stimuli/stim_20210407_power2amp/equal_lnn_AM1.2Hz_95.m4a,,,
,,,,,,,,,,,,40624,2021-05-10_17h36.19.056,judgeSpeechMusic_20210407_logNormShiftAmp,2020.1.2,MacIntel,60,,,,,,,,,,,,,,2,6.60307,,0,1,131,281,107,1,stimuli/stim_20210407_power2amp/equal_lnn_AM4.8Hz_44.m4a,,,
,,,,,,,,,,,,40624,2021-05-10_17h36.19.056,judgeSpeechMusic_20210407_logNormShiftAmp,2020.1.2,MacIntel,60,,,,,,,,,,,,,,1,5.935975,3,1,1,132,282,147,1,stimuli/stim_20210407_power2amp/equal_lnn_AM6Hz_57.m4a,0.772395,,
,,,,,,,,,,,,40624,2021-05-10_17h36.19.056,judgeSpeechMusic_20210407_logNormShiftAmp,2020.1.2,MacIntel,60,,,,,,,,,,,,,,1,5.984065,,0,1,133,283,121,1,stimuli/stim_20210407_power2amp/equal_lnn_AM5.4Hz_29.m4a,,,
,,,,,,,,,,,,40624,2021-05-10_17h36.19.056,judgeSpeechMusic_20210407_logNormShiftAmp,2020.1.2,MacIntel,60,,,,,,,,,,,,,,1,5.85338,,0,1,134,284,131,1,stimuli/stim_20210407_power2amp/equal_lnn_AM5.4Hz_32.m4a,,,
,,,,,,,,,,,,40624,2021-05-10_17h36.19.056,judgeSpeechMusic_20210407_logNormShiftAmp,2020.1.2,MacIntel,60,,,,,,,,,,,,,,2,5.968285,,0,1,135,285,9,1,stimuli/stim_20210407_power2amp/equal_lnn_AM0.6Hz_70.m4a,,,
,,,,,,,,,,,,40624,2021-05-10_17h36.19.056,judgeSpeechMusic_20210407_logNormShiftAmp,2020.1.2,MacIntel,60,,,,,,,,,,,,,,2,6.351885,,0,1,136,286,130,1,stimuli/stim_20210407_power2amp/equal_lnn_AM5.4Hz_20.m4a,,,
,,,,,,,,,,,,40624,2021-05-10_17h36.19.056,judgeSpeechMusic_20210407_logNormShiftAmp,2020.1.2,MacIntel,60,,,,,,,,,,,,,,2,5.938725,,0,1,137,287,103,1,stimuli/stim_20210407_power2amp/equal_lnn_AM4.2Hz_96.m4a,,,
,,,,,,,,,,,,40624,2021-05-10_17h36.19.056,judgeSpeechMusic_20210407_logNormShiftAmp,2020.1.2,MacIntel,60,,,,,,,,,,,,,,1,6.504835,,0,1,138,288,35,1,stimuli/stim_20210407_power2amp/equal_lnn_AM1.8Hz_44.m4a,,,
,,,,,,,,,,,,40624,2021-05-10_17h36.19.056,judgeSpeechMusic_20210407_logNormShiftAmp,2020.1.2,MacIntel,60,,,,,,,,,,,,,,1,6.24781,,0,1,139,289,57,1,stimuli/stim_20210407_power2amp/equal_lnn_AM2.4Hz_6.m4a,,,
,,,,,,,,,,,,40624,2021-05-10_17h36.19.056,judgeSpeechMusic_20210407_logNormShiftAmp,2020.1.2,MacIntel,60,,,,,,,,,,,,,,2,7.12614,,0,1,140,290,69,1,stimuli/stim_20210407_power2amp/equal_lnn_AM3Hz_22.m4a,,,
,,,,,,,,,,,,40624,2021-05-10_17h36.19.056,judgeSpeechMusic_20210407_logNormShiftAmp,2020.1.2,MacIntel,60,,,,,,,,,,,,,,1,6.31248,,0,1,141,291,149,1,stimuli/stim_20210407_power2amp/equal_lnn_AM6Hz_21.m4a,,,
,,,,,,,,,,,,40624,2021-05-10_17h36.19.056,judgeSpeechMusic_20210407_logNormShiftAmp,2020.1.2,MacIntel,60,,,,,,,,,,,,,,1,7.20371,,0,1,142,292,139,1,stimuli/stim_20210407_power2amp/equal_lnn_AM6Hz_9.m4a,,,
,,,,,,,,,,,,40624,2021-05-10_17h36.19.056,judgeSpeechMusic_20210407_logNormShiftAmp,2020.1.2,MacIntel,60,,,,,,,,,,,,,,2,6.002225,,0,1,143,293,122,1,stimuli/stim_20210407_power2amp/equal_lnn_AM5.4Hz_23.m4a,,,
,,,,,,,,,,,,40624,2021-05-10_17h36.19.056,judgeSpeechMusic_20210407_logNormShiftAmp,2020.1.2,MacIntel,60,,,,,,,,,,,,,,1,5.911885,,0,1,144,294,117,1,stimuli/stim_20210407_power2amp/equal_lnn_AM4.8Hz_38.m4a,,,
,,,,,,,,,,,,40624,2021-05-10_17h36.19.056,judgeSpeechMusic_20210407_logNormShiftAmp,2020.1.2,MacIntel,60,,,,,,,,,,,,,,2,6.252955,,0,1,145,295,138,1,stimuli/stim_20210407_power2amp/equal_lnn_AM6Hz_29.m4a,,,
,,,,,,,,,,,,40624,2021-05-10_17h36.19.056,judgeSpeechMusic_20210407_logNormShiftAmp,2020.1.2,MacIntel,60,,,,,,,,,,,,,,2,6.52262,,0,1,146,296,76,1,stimuli/stim_20210407_power2amp/equal_lnn_AM3.6Hz_7.m4a,,,
,,,,,,,,,,,,40624,2021-05-10_17h36.19.056,judgeSpeechMusic_20210407_logNormShiftAmp,2020.1.2,MacIntel,60,,,,,,,,,,,,,,1,6.377095,,0,1,147,297,133,1,stimuli/stim_20210407_power2amp/equal_lnn_AM5.4Hz_77.m4a,,,
,,,,,,,,,,,,40624,2021-05-10_17h36.19.056,judgeSpeechMusic_20210407_logNormShiftAmp,2020.1.2,MacIntel,60,,,,,,,,,,,,,,2,6.602835,,0,1,148,298,75,1,stimuli/stim_20210407_power2amp/equal_lnn_AM3.6Hz_13.m4a,,,
,,,,,,,,,,,,40624,2021-05-10_17h36.19.056,judgeSpeechMusic_20210407_logNormShiftAmp,2020.1.2,MacIntel,60,,,,,,,,,,,,,,2,6.93103,,0,1,149,299,12,1,stimuli/stim_20210407_power2amp/equal_lnn_AM0.6Hz_3.m4a,,,
,,,,,,,,,,,,40624,2021-05-10_17h36.19.056,judgeSpeechMusic_20210407_logNormShiftAmp,2020.1.2,MacIntel,60,,,,,,,,,,,,,,,,,,,,,,,,,space,9.910745
