volAdjustRep.thisRepN,volAdjustRep.thisTrialN,volAdjustRep.thisN,volAdjustRep.thisIndex,volAdjustRep.ran,participant,date,expName,psychopyVersion,OS,frameRate,headphoneResponse.keys,headphoneResponse.corr,headphoneResponse.rt,headphoneTrial.thisRepN,headphoneTrial.thisTrialN,headphoneTrial.thisN,headphoneTrial.thisIndex,headphoneTrial.ran,headphone_sound1,headphone_sound2,headphone_sound3,corrAns,trainSlider.response,trainSlider.rt,beepTrainResponse.keys,beepTrainResponse.corr,trainingTrials.thisRepN,trainingTrials.thisTrialN,trainingTrials.thisN,trainingTrials.thisIndex,trainingTrials.ran,trainAudioFile,beepTrainResponse.rt,readyReal_resp.keys,readyReal_resp.rt,ratingSlider.response,ratingSlider.rt,beepResp.keys,beepResp.corr,expTrials.thisRepN,expTrials.thisTrialN,expTrials.thisN,expTrials.thisIndex,expTrials.ran,audioFile,beepResp.rt,end_resp.keys,end_resp.rt
0,0,0,0,1,40666,2021-05-10_21h21.51.732,judgeSpeechMusic_20210407_logNormShiftAmp,2020.1.2,MacIntel,60,,,,,,,,,,,,,,,,,,,,,,,,,,,,,,,,,,,,,,
,,,,,40666,2021-05-10_21h21.51.732,judgeSpeechMusic_20210407_logNormShiftAmp,2020.1.2,MacIntel,60,2,1,5.05828,0,0,0,3,1,stimuli/screen_origin.wav,stimuli/screen_quiet.wav,stimuli/screen_antiphase.wav,2,,,,,,,,,,,,,,,,,,,,,,,,,,
,,,,,40666,2021-05-10_21h21.51.732,judgeSpeechMusic_20210407_logNormShiftAmp,2020.1.2,MacIntel,60,3,1,1.54031,0,1,1,0,1,stimuli/screen_antiphase.wav,stimuli/screen_origin.wav,stimuli/screen_quiet.wav,3,,,,,,,,,,,,,,,,,,,,,,,,,,
,,,,,40666,2021-05-10_21h21.51.732,judgeSpeechMusic_20210407_logNormShiftAmp,2020.1.2,MacIntel,60,1,1,0.603625,0,2,2,4,1,stimuli/screen_quiet.wav,stimuli/screen_antiphase.wav,stimuli/screen_origin.wav,1,,,,,,,,,,,,,,,,,,,,,,,,,,
,,,,,40666,2021-05-10_21h21.51.732,judgeSpeechMusic_20210407_logNormShiftAmp,2020.1.2,MacIntel,60,1,1,0.506035,0,3,3,5,1,stimuli/screen_quiet.wav,stimuli/screen_origin.wav,stimuli/screen_antiphase.wav,1,,,,,,,,,,,,,,,,,,,,,,,,,,
,,,,,40666,2021-05-10_21h21.51.732,judgeSpeechMusic_20210407_logNormShiftAmp,2020.1.2,MacIntel,60,2,1,0.55466,0,4,4,1,1,stimuli/screen_antiphase.wav,stimuli/screen_quiet.wav,stimuli/screen_origin.wav,2,,,,,,,,,,,,,,,,,,,,,,,,,,
,,,,,40666,2021-05-10_21h21.51.732,judgeSpeechMusic_20210407_logNormShiftAmp,2020.1.2,MacIntel,60,3,1,0.54028,0,5,5,2,1,stimuli/screen_origin.wav,stimuli/screen_antiphase.wav,stimuli/screen_quiet.wav,3,,,,,,,,,,,,,,,,,,,,,,,,,,
,,,,,40666,2021-05-10_21h21.51.732,judgeSpeechMusic_20210407_logNormShiftAmp,2020.1.2,MacIntel,60,,,,,,,,,,,,,2,17.358455,,0,0,0,0,0,1,stimuli/stim_20210407_power2amp/equal_lnn_AM_training1.5Hz.m4a,,,,,,,,,,,,,,,,
,,,,,40666,2021-05-10_21h21.51.732,judgeSpeechMusic_20210407_logNormShiftAmp,2020.1.2,MacIntel,60,,,,,,,,,,,,,1,7.44645,,0,0,1,1,2,1,stimuli/stim_20210407_power2amp/equal_lnn_AM_training3.9Hz.m4a,,,,,,,,,,,,,,,,
,,,,,40666,2021-05-10_21h21.51.732,judgeSpeechMusic_20210407_logNormShiftAmp,2020.1.2,MacIntel,60,,,,,,,,,,,,,1,8.98359,4,1,0,2,2,3,1,stimuli/stim_20210407_power2amp/equal_lnn_AM_training5.1Hz.m4a,2.03871,,,,,,,,,,,,,,,
,,,,,40666,2021-05-10_21h21.51.732,judgeSpeechMusic_20210407_logNormShiftAmp,2020.1.2,MacIntel,60,,,,,,,,,,,,,2,6.59896,,0,0,3,3,1,1,stimuli/stim_20210407_power2amp/equal_lnn_AM_training2.7Hz.m4a,,,,,,,,,,,,,,,,
,,,,,40666,2021-05-10_21h21.51.732,judgeSpeechMusic_20210407_logNormShiftAmp,2020.1.2,MacIntel,60,,,,,,,,,,,,,,,,,,,,,,,,space,5.116965,1,6.992295,,0,0,0,0,122,1,stimuli/stim_20210407_power2amp/equal_lnn_AM5.4Hz_52.m4a,,,
,,,,,40666,2021-05-10_21h21.51.732,judgeSpeechMusic_20210407_logNormShiftAmp,2020.1.2,MacIntel,60,,,,,,,,,,,,,,,,,,,,,,,,,,2,12.10646,,0,0,1,1,15,1,stimuli/stim_20210407_power2amp/equal_lnn_AM1.2Hz_93.m4a,,,
,,,,,40666,2021-05-10_21h21.51.732,judgeSpeechMusic_20210407_logNormShiftAmp,2020.1.2,MacIntel,60,,,,,,,,,,,,,,,,,,,,,,,,,,2,6.985435,,0,0,2,2,2,1,stimuli/stim_20210407_power2amp/equal_lnn_AM0.6Hz_62.m4a,,,
,,,,,40666,2021-05-10_21h21.51.732,judgeSpeechMusic_20210407_logNormShiftAmp,2020.1.2,MacIntel,60,,,,,,,,,,,,,,,,,,,,,,,,,,2,6.3629,,0,0,3,3,41,1,stimuli/stim_20210407_power2amp/equal_lnn_AM1.8Hz_84.m4a,,,
,,,,,40666,2021-05-10_21h21.51.732,judgeSpeechMusic_20210407_logNormShiftAmp,2020.1.2,MacIntel,60,,,,,,,,,,,,,,,,,,,,,,,,,,2,7.606255,,0,0,4,4,48,1,stimuli/stim_20210407_power2amp/equal_lnn_AM2.4Hz_91.m4a,,,
,,,,,40666,2021-05-10_21h21.51.732,judgeSpeechMusic_20210407_logNormShiftAmp,2020.1.2,MacIntel,60,,,,,,,,,,,,,,,,,,,,,,,,,,1,5.823345,,0,0,5,5,79,1,stimuli/stim_20210407_power2amp/equal_lnn_AM3.6Hz_38.m4a,,,
,,,,,40666,2021-05-10_21h21.51.732,judgeSpeechMusic_20210407_logNormShiftAmp,2020.1.2,MacIntel,60,,,,,,,,,,,,,,,,,,,,,,,,,,1,9.366105,,0,0,6,6,84,1,stimuli/stim_20210407_power2amp/equal_lnn_AM3.6Hz_88.m4a,,,
,,,,,40666,2021-05-10_21h21.51.732,judgeSpeechMusic_20210407_logNormShiftAmp,2020.1.2,MacIntel,60,,,,,,,,,,,,,,,,,,,,,,,,,,1,5.831305,,0,0,7,7,101,1,stimuli/stim_20210407_power2amp/equal_lnn_AM4.2Hz_43.m4a,,,
,,,,,40666,2021-05-10_21h21.51.732,judgeSpeechMusic_20210407_logNormShiftAmp,2020.1.2,MacIntel,60,,,,,,,,,,,,,,,,,,,,,,,,,,1,7.402895,,0,0,8,8,43,1,stimuli/stim_20210407_power2amp/equal_lnn_AM1.8Hz_15.m4a,,,
,,,,,40666,2021-05-10_21h21.51.732,judgeSpeechMusic_20210407_logNormShiftAmp,2020.1.2,MacIntel,60,,,,,,,,,,,,,,,,,,,,,,,,,,1,5.694475,,0,0,9,9,80,1,stimuli/stim_20210407_power2amp/equal_lnn_AM3.6Hz_75.m4a,,,
,,,,,40666,2021-05-10_21h21.51.732,judgeSpeechMusic_20210407_logNormShiftAmp,2020.1.2,MacIntel,60,,,,,,,,,,,,,,,,,,,,,,,,,,1,5.781745,,0,0,10,10,76,1,stimuli/stim_20210407_power2amp/equal_lnn_AM3.6Hz_72.m4a,,,
,,,,,40666,2021-05-10_21h21.51.732,judgeSpeechMusic_20210407_logNormShiftAmp,2020.1.2,MacIntel,60,,,,,,,,,,,,,,,,,,,,,,,,,,1,5.769325,,0,0,11,11,65,1,stimuli/stim_20210407_power2amp/equal_lnn_AM3Hz_93.m4a,,,
,,,,,40666,2021-05-10_21h21.51.732,judgeSpeechMusic_20210407_logNormShiftAmp,2020.1.2,MacIntel,60,,,,,,,,,,,,,,,,,,,,,,,,,,1,8.33768,,0,0,12,12,134,1,stimuli/stim_20210407_power2amp/equal_lnn_AM5.4Hz_99.m4a,,,
,,,,,40666,2021-05-10_21h21.51.732,judgeSpeechMusic_20210407_logNormShiftAmp,2020.1.2,MacIntel,60,,,,,,,,,,,,,,,,,,,,,,,,,,1,5.999915,,0,0,13,13,54,1,stimuli/stim_20210407_power2amp/equal_lnn_AM2.4Hz_81.m4a,,,
,,,,,40666,2021-05-10_21h21.51.732,judgeSpeechMusic_20210407_logNormShiftAmp,2020.1.2,MacIntel,60,,,,,,,,,,,,,,,,,,,,,,,,,,2,5.81843,,0,0,14,14,14,1,stimuli/stim_20210407_power2amp/equal_lnn_AM0.6Hz_11.m4a,,,
,,,,,40666,2021-05-10_21h21.51.732,judgeSpeechMusic_20210407_logNormShiftAmp,2020.1.2,MacIntel,60,,,,,,,,,,,,,,,,,,,,,,,,,,1,6.03816,,0,0,15,15,119,1,stimuli/stim_20210407_power2amp/equal_lnn_AM4.8Hz_11.m4a,,,
,,,,,40666,2021-05-10_21h21.51.732,judgeSpeechMusic_20210407_logNormShiftAmp,2020.1.2,MacIntel,60,,,,,,,,,,,,,,,,,,,,,,,,,,2,5.83601,,0,0,16,16,103,1,stimuli/stim_20210407_power2amp/equal_lnn_AM4.2Hz_61.m4a,,,
,,,,,40666,2021-05-10_21h21.51.732,judgeSpeechMusic_20210407_logNormShiftAmp,2020.1.2,MacIntel,60,,,,,,,,,,,,,,,,,,,,,,,,,,2,5.843655,,0,0,17,17,26,1,stimuli/stim_20210407_power2amp/equal_lnn_AM1.2Hz_30.m4a,,,
,,,,,40666,2021-05-10_21h21.51.732,judgeSpeechMusic_20210407_logNormShiftAmp,2020.1.2,MacIntel,60,,,,,,,,,,,,,,,,,,,,,,,,,,1,6.26768,,0,0,18,18,147,1,stimuli/stim_20210407_power2amp/equal_lnn_AM6Hz_14.m4a,,,
,,,,,40666,2021-05-10_21h21.51.732,judgeSpeechMusic_20210407_logNormShiftAmp,2020.1.2,MacIntel,60,,,,,,,,,,,,,,,,,,,,,,,,,,1,6.023045,,0,0,19,19,81,1,stimuli/stim_20210407_power2amp/equal_lnn_AM3.6Hz_58.m4a,,,
,,,,,40666,2021-05-10_21h21.51.732,judgeSpeechMusic_20210407_logNormShiftAmp,2020.1.2,MacIntel,60,,,,,,,,,,,,,,,,,,,,,,,,,,2,5.985905,,0,0,20,20,36,1,stimuli/stim_20210407_power2amp/equal_lnn_AM1.8Hz_45.m4a,,,
,,,,,40666,2021-05-10_21h21.51.732,judgeSpeechMusic_20210407_logNormShiftAmp,2020.1.2,MacIntel,60,,,,,,,,,,,,,,,,,,,,,,,,,,2,7.97536,,0,0,21,21,19,1,stimuli/stim_20210407_power2amp/equal_lnn_AM1.2Hz_96.m4a,,,
,,,,,40666,2021-05-10_21h21.51.732,judgeSpeechMusic_20210407_logNormShiftAmp,2020.1.2,MacIntel,60,,,,,,,,,,,,,,,,,,,,,,,,,,1,6.0706,,0,0,22,22,127,1,stimuli/stim_20210407_power2amp/equal_lnn_AM5.4Hz_86.m4a,,,
,,,,,40666,2021-05-10_21h21.51.732,judgeSpeechMusic_20210407_logNormShiftAmp,2020.1.2,MacIntel,60,,,,,,,,,,,,,,,,,,,,,,,,,,1,6.14879,,0,0,23,23,85,1,stimuli/stim_20210407_power2amp/equal_lnn_AM3.6Hz_87.m4a,,,
,,,,,40666,2021-05-10_21h21.51.732,judgeSpeechMusic_20210407_logNormShiftAmp,2020.1.2,MacIntel,60,,,,,,,,,,,,,,,,,,,,,,,,,,2,5.85383,,0,0,24,24,23,1,stimuli/stim_20210407_power2amp/equal_lnn_AM1.2Hz_68.m4a,,,
,,,,,40666,2021-05-10_21h21.51.732,judgeSpeechMusic_20210407_logNormShiftAmp,2020.1.2,MacIntel,60,,,,,,,,,,,,,,,,,,,,,,,,,,2,6.287705,,0,0,25,25,108,1,stimuli/stim_20210407_power2amp/equal_lnn_AM4.8Hz_77.m4a,,,
,,,,,40666,2021-05-10_21h21.51.732,judgeSpeechMusic_20210407_logNormShiftAmp,2020.1.2,MacIntel,60,,,,,,,,,,,,,,,,,,,,,,,,,,1,6.45633,,0,0,26,26,38,1,stimuli/stim_20210407_power2amp/equal_lnn_AM1.8Hz_26.m4a,,,
,,,,,40666,2021-05-10_21h21.51.732,judgeSpeechMusic_20210407_logNormShiftAmp,2020.1.2,MacIntel,60,,,,,,,,,,,,,,,,,,,,,,,,,,2,6.512695,,0,0,27,27,58,1,stimuli/stim_20210407_power2amp/equal_lnn_AM2.4Hz_23.m4a,,,
,,,,,40666,2021-05-10_21h21.51.732,judgeSpeechMusic_20210407_logNormShiftAmp,2020.1.2,MacIntel,60,,,,,,,,,,,,,,,,,,,,,,,,,,2,11.529685,,0,0,28,28,7,1,stimuli/stim_20210407_power2amp/equal_lnn_AM0.6Hz_75.m4a,,,
,,,,,40666,2021-05-10_21h21.51.732,judgeSpeechMusic_20210407_logNormShiftAmp,2020.1.2,MacIntel,60,,,,,,,,,,,,,,,,,,,,,,,,,,1,6.136995,,0,0,29,29,70,1,stimuli/stim_20210407_power2amp/equal_lnn_AM3Hz_98.m4a,,,
,,,,,40666,2021-05-10_21h21.51.732,judgeSpeechMusic_20210407_logNormShiftAmp,2020.1.2,MacIntel,60,,,,,,,,,,,,,,,,,,,,,,,,,,1,8.85232,4,1,0,30,30,87,1,stimuli/stim_20210407_power2amp/equal_lnn_AM3.6Hz_10.m4a,1.22599,,
,,,,,40666,2021-05-10_21h21.51.732,judgeSpeechMusic_20210407_logNormShiftAmp,2020.1.2,MacIntel,60,,,,,,,,,,,,,,,,,,,,,,,,,,2,5.835115,,0,0,31,31,49,1,stimuli/stim_20210407_power2amp/equal_lnn_AM2.4Hz_94.m4a,,,
,,,,,40666,2021-05-10_21h21.51.732,judgeSpeechMusic_20210407_logNormShiftAmp,2020.1.2,MacIntel,60,,,,,,,,,,,,,,,,,,,,,,,,,,1,5.752385,,0,0,32,32,137,1,stimuli/stim_20210407_power2amp/equal_lnn_AM6Hz_87.m4a,,,
,,,,,40666,2021-05-10_21h21.51.732,judgeSpeechMusic_20210407_logNormShiftAmp,2020.1.2,MacIntel,60,,,,,,,,,,,,,,,,,,,,,,,,,,2,6.05033,,0,0,33,33,60,1,stimuli/stim_20210407_power2amp/equal_lnn_AM3Hz_75.m4a,,,
,,,,,40666,2021-05-10_21h21.51.732,judgeSpeechMusic_20210407_logNormShiftAmp,2020.1.2,MacIntel,60,,,,,,,,,,,,,,,,,,,,,,,,,,1,5.852435,,0,0,34,34,133,1,stimuli/stim_20210407_power2amp/equal_lnn_AM5.4Hz_69.m4a,,,
,,,,,40666,2021-05-10_21h21.51.732,judgeSpeechMusic_20210407_logNormShiftAmp,2020.1.2,MacIntel,60,,,,,,,,,,,,,,,,,,,,,,,,,,1,5.75585,,0,0,35,35,146,1,stimuli/stim_20210407_power2amp/equal_lnn_AM6Hz_15.m4a,,,
,,,,,40666,2021-05-10_21h21.51.732,judgeSpeechMusic_20210407_logNormShiftAmp,2020.1.2,MacIntel,60,,,,,,,,,,,,,,,,,,,,,,,,,,2,5.869345,,0,0,36,36,86,1,stimuli/stim_20210407_power2amp/equal_lnn_AM3.6Hz_92.m4a,,,
,,,,,40666,2021-05-10_21h21.51.732,judgeSpeechMusic_20210407_logNormShiftAmp,2020.1.2,MacIntel,60,,,,,,,,,,,,,,,,,,,,,,,,,,1,5.93795,,0,0,37,37,121,1,stimuli/stim_20210407_power2amp/equal_lnn_AM5.4Hz_21.m4a,,,
,,,,,40666,2021-05-10_21h21.51.732,judgeSpeechMusic_20210407_logNormShiftAmp,2020.1.2,MacIntel,60,,,,,,,,,,,,,,,,,,,,,,,,,,2,5.83654,,0,0,38,38,50,1,stimuli/stim_20210407_power2amp/equal_lnn_AM2.4Hz_67.m4a,,,
,,,,,40666,2021-05-10_21h21.51.732,judgeSpeechMusic_20210407_logNormShiftAmp,2020.1.2,MacIntel,60,,,,,,,,,,,,,,,,,,,,,,,,,,2,5.796245,,0,0,39,39,61,1,stimuli/stim_20210407_power2amp/equal_lnn_AM3Hz_38.m4a,,,
,,,,,40666,2021-05-10_21h21.51.732,judgeSpeechMusic_20210407_logNormShiftAmp,2020.1.2,MacIntel,60,,,,,,,,,,,,,,,,,,,,,,,,,,1,6.08018,,0,0,40,40,143,1,stimuli/stim_20210407_power2amp/equal_lnn_AM6Hz_9.m4a,,,
,,,,,40666,2021-05-10_21h21.51.732,judgeSpeechMusic_20210407_logNormShiftAmp,2020.1.2,MacIntel,60,,,,,,,,,,,,,,,,,,,,,,,,,,2,9.578855,,0,0,41,41,63,1,stimuli/stim_20210407_power2amp/equal_lnn_AM3Hz_54.m4a,,,
,,,,,40666,2021-05-10_21h21.51.732,judgeSpeechMusic_20210407_logNormShiftAmp,2020.1.2,MacIntel,60,,,,,,,,,,,,,,,,,,,,,,,,,,2,7.61749,,0,0,42,42,5,1,stimuli/stim_20210407_power2amp/equal_lnn_AM0.6Hz_58.m4a,,,
,,,,,40666,2021-05-10_21h21.51.732,judgeSpeechMusic_20210407_logNormShiftAmp,2020.1.2,MacIntel,60,,,,,,,,,,,,,,,,,,,,,,,,,,1,6.549925,,0,0,43,43,135,1,stimuli/stim_20210407_power2amp/equal_lnn_AM6Hz_22.m4a,,,
,,,,,40666,2021-05-10_21h21.51.732,judgeSpeechMusic_20210407_logNormShiftAmp,2020.1.2,MacIntel,60,,,,,,,,,,,,,,,,,,,,,,,,,,2,6.527515,,0,0,44,44,33,1,stimuli/stim_20210407_power2amp/equal_lnn_AM1.8Hz_75.m4a,,,
,,,,,40666,2021-05-10_21h21.51.732,judgeSpeechMusic_20210407_logNormShiftAmp,2020.1.2,MacIntel,60,,,,,,,,,,,,,,,,,,,,,,,,,,2,5.769175,,0,0,45,45,69,1,stimuli/stim_20210407_power2amp/equal_lnn_AM3Hz_60.m4a,,,
,,,,,40666,2021-05-10_21h21.51.732,judgeSpeechMusic_20210407_logNormShiftAmp,2020.1.2,MacIntel,60,,,,,,,,,,,,,,,,,,,,,,,,,,2,5.90903,,0,0,46,46,18,1,stimuli/stim_20210407_power2amp/equal_lnn_AM1.2Hz_91.m4a,,,
,,,,,40666,2021-05-10_21h21.51.732,judgeSpeechMusic_20210407_logNormShiftAmp,2020.1.2,MacIntel,60,,,,,,,,,,,,,,,,,,,,,,,,,,2,5.901605,,0,0,47,47,42,1,stimuli/stim_20210407_power2amp/equal_lnn_AM1.8Hz_79.m4a,,,
,,,,,40666,2021-05-10_21h21.51.732,judgeSpeechMusic_20210407_logNormShiftAmp,2020.1.2,MacIntel,60,,,,,,,,,,,,,,,,,,,,,,,,,,1,6.100205,,0,0,48,48,64,1,stimuli/stim_20210407_power2amp/equal_lnn_AM3Hz_61.m4a,,,
,,,,,40666,2021-05-10_21h21.51.732,judgeSpeechMusic_20210407_logNormShiftAmp,2020.1.2,MacIntel,60,,,,,,,,,,,,,,,,,,,,,,,,,,2,5.790505,,0,0,49,49,46,1,stimuli/stim_20210407_power2amp/equal_lnn_AM2.4Hz_79.m4a,,,
,,,,,40666,2021-05-10_21h21.51.732,judgeSpeechMusic_20210407_logNormShiftAmp,2020.1.2,MacIntel,60,,,,,,,,,,,,,,,,,,,,,,,,,,1,7.639425,,0,0,50,50,109,1,stimuli/stim_20210407_power2amp/equal_lnn_AM4.8Hz_90.m4a,,,
,,,,,40666,2021-05-10_21h21.51.732,judgeSpeechMusic_20210407_logNormShiftAmp,2020.1.2,MacIntel,60,,,,,,,,,,,,,,,,,,,,,,,,,,1,6.115755,,0,0,51,51,4,1,stimuli/stim_20210407_power2amp/equal_lnn_AM0.6Hz_80.m4a,,,
,,,,,40666,2021-05-10_21h21.51.732,judgeSpeechMusic_20210407_logNormShiftAmp,2020.1.2,MacIntel,60,,,,,,,,,,,,,,,,,,,,,,,,,,1,6.549525,,0,0,52,52,129,1,stimuli/stim_20210407_power2amp/equal_lnn_AM5.4Hz_74.m4a,,,
,,,,,40666,2021-05-10_21h21.51.732,judgeSpeechMusic_20210407_logNormShiftAmp,2020.1.2,MacIntel,60,,,,,,,,,,,,,,,,,,,,,,,,,,2,14.315455,3,1,0,53,53,67,1,stimuli/stim_20210407_power2amp/equal_lnn_AM3Hz_64.m4a,1.446245,,
,,,,,40666,2021-05-10_21h21.51.732,judgeSpeechMusic_20210407_logNormShiftAmp,2020.1.2,MacIntel,60,,,,,,,,,,,,,,,,,,,,,,,,,,2,6.846835,,0,0,54,54,39,1,stimuli/stim_20210407_power2amp/equal_lnn_AM1.8Hz_19.m4a,,,
,,,,,40666,2021-05-10_21h21.51.732,judgeSpeechMusic_20210407_logNormShiftAmp,2020.1.2,MacIntel,60,,,,,,,,,,,,,,,,,,,,,,,,,,2,6.82209,,0,0,55,55,102,1,stimuli/stim_20210407_power2amp/equal_lnn_AM4.2Hz_25.m4a,,,
,,,,,40666,2021-05-10_21h21.51.732,judgeSpeechMusic_20210407_logNormShiftAmp,2020.1.2,MacIntel,60,,,,,,,,,,,,,,,,,,,,,,,,,,1,8.682575,,0,0,56,56,90,1,stimuli/stim_20210407_power2amp/equal_lnn_AM4.2Hz_51.m4a,,,
,,,,,40666,2021-05-10_21h21.51.732,judgeSpeechMusic_20210407_logNormShiftAmp,2020.1.2,MacIntel,60,,,,,,,,,,,,,,,,,,,,,,,,,,2,6.65234,,0,0,57,57,53,1,stimuli/stim_20210407_power2amp/equal_lnn_AM2.4Hz_93.m4a,,,
,,,,,40666,2021-05-10_21h21.51.732,judgeSpeechMusic_20210407_logNormShiftAmp,2020.1.2,MacIntel,60,,,,,,,,,,,,,,,,,,,,,,,,,,1,7.240185,,0,0,58,58,123,1,stimuli/stim_20210407_power2amp/equal_lnn_AM5.4Hz_41.m4a,,,
,,,,,40666,2021-05-10_21h21.51.732,judgeSpeechMusic_20210407_logNormShiftAmp,2020.1.2,MacIntel,60,,,,,,,,,,,,,,,,,,,,,,,,,,2,7.2471,,0,0,59,59,47,1,stimuli/stim_20210407_power2amp/equal_lnn_AM2.4Hz_3.m4a,,,
,,,,,40666,2021-05-10_21h21.51.732,judgeSpeechMusic_20210407_logNormShiftAmp,2020.1.2,MacIntel,60,,,,,,,,,,,,,,,,,,,,,,,,,,2,9.313895,,0,0,60,60,93,1,stimuli/stim_20210407_power2amp/equal_lnn_AM4.2Hz_42.m4a,,,
,,,,,40666,2021-05-10_21h21.51.732,judgeSpeechMusic_20210407_logNormShiftAmp,2020.1.2,MacIntel,60,,,,,,,,,,,,,,,,,,,,,,,,,,2,12.077175,,0,0,61,61,105,1,stimuli/stim_20210407_power2amp/equal_lnn_AM4.8Hz_28.m4a,,,
,,,,,40666,2021-05-10_21h21.51.732,judgeSpeechMusic_20210407_logNormShiftAmp,2020.1.2,MacIntel,60,,,,,,,,,,,,,,,,,,,,,,,,,,2,8.53624,,0,0,62,62,125,1,stimuli/stim_20210407_power2amp/equal_lnn_AM5.4Hz_48.m4a,,,
,,,,,40666,2021-05-10_21h21.51.732,judgeSpeechMusic_20210407_logNormShiftAmp,2020.1.2,MacIntel,60,,,,,,,,,,,,,,,,,,,,,,,,,,2,5.816335,,0,0,63,63,88,1,stimuli/stim_20210407_power2amp/equal_lnn_AM3.6Hz_40.m4a,,,
,,,,,40666,2021-05-10_21h21.51.732,judgeSpeechMusic_20210407_logNormShiftAmp,2020.1.2,MacIntel,60,,,,,,,,,,,,,,,,,,,,,,,,,,1,5.916265,,0,0,64,64,92,1,stimuli/stim_20210407_power2amp/equal_lnn_AM4.2Hz_96.m4a,,,
,,,,,40666,2021-05-10_21h21.51.732,judgeSpeechMusic_20210407_logNormShiftAmp,2020.1.2,MacIntel,60,,,,,,,,,,,,,,,,,,,,,,,,,,1,5.65667,,0,0,65,65,118,1,stimuli/stim_20210407_power2amp/equal_lnn_AM4.8Hz_37.m4a,,,
,,,,,40666,2021-05-10_21h21.51.732,judgeSpeechMusic_20210407_logNormShiftAmp,2020.1.2,MacIntel,60,,,,,,,,,,,,,,,,,,,,,,,,,,1,6.61487,,0,0,66,66,13,1,stimuli/stim_20210407_power2amp/equal_lnn_AM0.6Hz_79.m4a,,,
,,,,,40666,2021-05-10_21h21.51.732,judgeSpeechMusic_20210407_logNormShiftAmp,2020.1.2,MacIntel,60,,,,,,,,,,,,,,,,,,,,,,,,,,2,6.22579,,0,0,67,67,57,1,stimuli/stim_20210407_power2amp/equal_lnn_AM2.4Hz_84.m4a,,,
,,,,,40666,2021-05-10_21h21.51.732,judgeSpeechMusic_20210407_logNormShiftAmp,2020.1.2,MacIntel,60,,,,,,,,,,,,,,,,,,,,,,,,,,2,7.197915,,0,0,68,68,35,1,stimuli/stim_20210407_power2amp/equal_lnn_AM1.8Hz_55.m4a,,,
,,,,,40666,2021-05-10_21h21.51.732,judgeSpeechMusic_20210407_logNormShiftAmp,2020.1.2,MacIntel,60,,,,,,,,,,,,,,,,,,,,,,,,,,1,6.514185,,0,0,69,69,9,1,stimuli/stim_20210407_power2amp/equal_lnn_AM0.6Hz_4.m4a,,,
,,,,,40666,2021-05-10_21h21.51.732,judgeSpeechMusic_20210407_logNormShiftAmp,2020.1.2,MacIntel,60,,,,,,,,,,,,,,,,,,,,,,,,,,1,7.230345,,0,0,70,70,66,1,stimuli/stim_20210407_power2amp/equal_lnn_AM3Hz_100.m4a,,,
,,,,,40666,2021-05-10_21h21.51.732,judgeSpeechMusic_20210407_logNormShiftAmp,2020.1.2,MacIntel,60,,,,,,,,,,,,,,,,,,,,,,,,,,1,6.48707,,0,0,71,71,111,1,stimuli/stim_20210407_power2amp/equal_lnn_AM4.8Hz_38.m4a,,,
,,,,,40666,2021-05-10_21h21.51.732,judgeSpeechMusic_20210407_logNormShiftAmp,2020.1.2,MacIntel,60,,,,,,,,,,,,,,,,,,,,,,,,,,1,8.03165,,0,0,72,72,113,1,stimuli/stim_20210407_power2amp/equal_lnn_AM4.8Hz_9.m4a,,,
,,,,,40666,2021-05-10_21h21.51.732,judgeSpeechMusic_20210407_logNormShiftAmp,2020.1.2,MacIntel,60,,,,,,,,,,,,,,,,,,,,,,,,,,2,6.77977,,0,0,73,73,40,1,stimuli/stim_20210407_power2amp/equal_lnn_AM1.8Hz_85.m4a,,,
,,,,,40666,2021-05-10_21h21.51.732,judgeSpeechMusic_20210407_logNormShiftAmp,2020.1.2,MacIntel,60,,,,,,,,,,,,,,,,,,,,,,,,,,1,6.005855,,0,0,74,74,144,1,stimuli/stim_20210407_power2amp/equal_lnn_AM6Hz_38.m4a,,,
,,,,,40666,2021-05-10_21h21.51.732,judgeSpeechMusic_20210407_logNormShiftAmp,2020.1.2,MacIntel,60,,,,,,,,,,,,,,,,,,,,,,,,,,1,6.44856,,0,0,75,75,145,1,stimuli/stim_20210407_power2amp/equal_lnn_AM6Hz_51.m4a,,,
,,,,,40666,2021-05-10_21h21.51.732,judgeSpeechMusic_20210407_logNormShiftAmp,2020.1.2,MacIntel,60,,,,,,,,,,,,,,,,,,,,,,,,,,1,5.802525,,0,0,76,76,20,1,stimuli/stim_20210407_power2amp/equal_lnn_AM1.2Hz_25.m4a,,,
,,,,,40666,2021-05-10_21h21.51.732,judgeSpeechMusic_20210407_logNormShiftAmp,2020.1.2,MacIntel,60,,,,,,,,,,,,,,,,,,,,,,,,,,2,5.820745,,0,0,77,77,45,1,stimuli/stim_20210407_power2amp/equal_lnn_AM2.4Hz_38.m4a,,,
,,,,,40666,2021-05-10_21h21.51.732,judgeSpeechMusic_20210407_logNormShiftAmp,2020.1.2,MacIntel,60,,,,,,,,,,,,,,,,,,,,,,,,,,1,6.532945,4,1,0,78,78,126,1,stimuli/stim_20210407_power2amp/equal_lnn_AM5.4Hz_72.m4a,0.64026,,
,,,,,40666,2021-05-10_21h21.51.732,judgeSpeechMusic_20210407_logNormShiftAmp,2020.1.2,MacIntel,60,,,,,,,,,,,,,,,,,,,,,,,,,,2,5.898285,,0,0,79,79,31,1,stimuli/stim_20210407_power2amp/equal_lnn_AM1.8Hz_61.m4a,,,
,,,,,40666,2021-05-10_21h21.51.732,judgeSpeechMusic_20210407_logNormShiftAmp,2020.1.2,MacIntel,60,,,,,,,,,,,,,,,,,,,,,,,,,,2,6.74469,,0,0,80,80,89,1,stimuli/stim_20210407_power2amp/equal_lnn_AM3.6Hz_1.m4a,,,
,,,,,40666,2021-05-10_21h21.51.732,judgeSpeechMusic_20210407_logNormShiftAmp,2020.1.2,MacIntel,60,,,,,,,,,,,,,,,,,,,,,,,,,,2,6.30202,,0,0,81,81,59,1,stimuli/stim_20210407_power2amp/equal_lnn_AM2.4Hz_10.m4a,,,
,,,,,40666,2021-05-10_21h21.51.732,judgeSpeechMusic_20210407_logNormShiftAmp,2020.1.2,MacIntel,60,,,,,,,,,,,,,,,,,,,,,,,,,,1,5.75754,,0,0,82,82,27,1,stimuli/stim_20210407_power2amp/equal_lnn_AM1.2Hz_11.m4a,,,
,,,,,40666,2021-05-10_21h21.51.732,judgeSpeechMusic_20210407_logNormShiftAmp,2020.1.2,MacIntel,60,,,,,,,,,,,,,,,,,,,,,,,,,,1,5.68128,,0,0,83,83,124,1,stimuli/stim_20210407_power2amp/equal_lnn_AM5.4Hz_6.m4a,,,
,,,,,40666,2021-05-10_21h21.51.732,judgeSpeechMusic_20210407_logNormShiftAmp,2020.1.2,MacIntel,60,,,,,,,,,,,,,,,,,,,,,,,,,,1,5.65252,,0,0,84,84,96,1,stimuli/stim_20210407_power2amp/equal_lnn_AM4.2Hz_27.m4a,,,
,,,,,40666,2021-05-10_21h21.51.732,judgeSpeechMusic_20210407_logNormShiftAmp,2020.1.2,MacIntel,60,,,,,,,,,,,,,,,,,,,,,,,,,,1,7.19083,,0,0,85,85,100,1,stimuli/stim_20210407_power2amp/equal_lnn_AM4.2Hz_85.m4a,,,
,,,,,40666,2021-05-10_21h21.51.732,judgeSpeechMusic_20210407_logNormShiftAmp,2020.1.2,MacIntel,60,,,,,,,,,,,,,,,,,,,,,,,,,,2,7.615205,,0,0,86,86,94,1,stimuli/stim_20210407_power2amp/equal_lnn_AM4.2Hz_90.m4a,,,
,,,,,40666,2021-05-10_21h21.51.732,judgeSpeechMusic_20210407_logNormShiftAmp,2020.1.2,MacIntel,60,,,,,,,,,,,,,,,,,,,,,,,,,,1,8.903705,,0,0,87,87,95,1,stimuli/stim_20210407_power2amp/equal_lnn_AM4.2Hz_80.m4a,,,
,,,,,40666,2021-05-10_21h21.51.732,judgeSpeechMusic_20210407_logNormShiftAmp,2020.1.2,MacIntel,60,,,,,,,,,,,,,,,,,,,,,,,,,,1,7.185095,,0,0,88,88,116,1,stimuli/stim_20210407_power2amp/equal_lnn_AM4.8Hz_51.m4a,,,
,,,,,40666,2021-05-10_21h21.51.732,judgeSpeechMusic_20210407_logNormShiftAmp,2020.1.2,MacIntel,60,,,,,,,,,,,,,,,,,,,,,,,,,,2,7.754115,,0,0,89,89,62,1,stimuli/stim_20210407_power2amp/equal_lnn_AM3Hz_87.m4a,,,
,,,,,40666,2021-05-10_21h21.51.732,judgeSpeechMusic_20210407_logNormShiftAmp,2020.1.2,MacIntel,60,,,,,,,,,,,,,,,,,,,,,,,,,,1,9.070355,,0,0,90,90,16,1,stimuli/stim_20210407_power2amp/equal_lnn_AM1.2Hz_24.m4a,,,
,,,,,40666,2021-05-10_21h21.51.732,judgeSpeechMusic_20210407_logNormShiftAmp,2020.1.2,MacIntel,60,,,,,,,,,,,,,,,,,,,,,,,,,,2,11.163815,,0,0,91,91,112,1,stimuli/stim_20210407_power2amp/equal_lnn_AM4.8Hz_26.m4a,,,
,,,,,40666,2021-05-10_21h21.51.732,judgeSpeechMusic_20210407_logNormShiftAmp,2020.1.2,MacIntel,60,,,,,,,,,,,,,,,,,,,,,,,,,,1,5.75392,,0,0,92,92,128,1,stimuli/stim_20210407_power2amp/equal_lnn_AM5.4Hz_3.m4a,,,
,,,,,40666,2021-05-10_21h21.51.732,judgeSpeechMusic_20210407_logNormShiftAmp,2020.1.2,MacIntel,60,,,,,,,,,,,,,,,,,,,,,,,,,,1,7.623195,,0,0,93,93,130,1,stimuli/stim_20210407_power2amp/equal_lnn_AM5.4Hz_47.m4a,,,
,,,,,40666,2021-05-10_21h21.51.732,judgeSpeechMusic_20210407_logNormShiftAmp,2020.1.2,MacIntel,60,,,,,,,,,,,,,,,,,,,,,,,,,,1,6.84894,,0,0,94,94,106,1,stimuli/stim_20210407_power2amp/equal_lnn_AM4.8Hz_80.m4a,,,
,,,,,40666,2021-05-10_21h21.51.732,judgeSpeechMusic_20210407_logNormShiftAmp,2020.1.2,MacIntel,60,,,,,,,,,,,,,,,,,,,,,,,,,,1,9.50026,,0,0,95,95,71,1,stimuli/stim_20210407_power2amp/equal_lnn_AM3Hz_31.m4a,,,
,,,,,40666,2021-05-10_21h21.51.732,judgeSpeechMusic_20210407_logNormShiftAmp,2020.1.2,MacIntel,60,,,,,,,,,,,,,,,,,,,,,,,,,,1,6.267285,,0,0,96,96,8,1,stimuli/stim_20210407_power2amp/equal_lnn_AM0.6Hz_54.m4a,,,
,,,,,40666,2021-05-10_21h21.51.732,judgeSpeechMusic_20210407_logNormShiftAmp,2020.1.2,MacIntel,60,,,,,,,,,,,,,,,,,,,,,,,,,,1,5.702405,,0,0,97,97,148,1,stimuli/stim_20210407_power2amp/equal_lnn_AM6Hz_77.m4a,,,
,,,,,40666,2021-05-10_21h21.51.732,judgeSpeechMusic_20210407_logNormShiftAmp,2020.1.2,MacIntel,60,,,,,,,,,,,,,,,,,,,,,,,,,,2,6.48,,0,0,98,98,52,1,stimuli/stim_20210407_power2amp/equal_lnn_AM2.4Hz_49.m4a,,,
,,,,,40666,2021-05-10_21h21.51.732,judgeSpeechMusic_20210407_logNormShiftAmp,2020.1.2,MacIntel,60,,,,,,,,,,,,,,,,,,,,,,,,,,2,6.193245,,0,0,99,99,17,1,stimuli/stim_20210407_power2amp/equal_lnn_AM1.2Hz_58.m4a,,,
,,,,,40666,2021-05-10_21h21.51.732,judgeSpeechMusic_20210407_logNormShiftAmp,2020.1.2,MacIntel,60,,,,,,,,,,,,,,,,,,,,,,,,,,1,6.055525,,0,0,100,100,75,1,stimuli/stim_20210407_power2amp/equal_lnn_AM3.6Hz_47.m4a,,,
,,,,,40666,2021-05-10_21h21.51.732,judgeSpeechMusic_20210407_logNormShiftAmp,2020.1.2,MacIntel,60,,,,,,,,,,,,,,,,,,,,,,,,,,1,5.63819,,0,0,101,101,97,1,stimuli/stim_20210407_power2amp/equal_lnn_AM4.2Hz_12.m4a,,,
,,,,,40666,2021-05-10_21h21.51.732,judgeSpeechMusic_20210407_logNormShiftAmp,2020.1.2,MacIntel,60,,,,,,,,,,,,,,,,,,,,,,,,,,1,5.648435,1,1,0,102,102,140,1,stimuli/stim_20210407_power2amp/equal_lnn_AM6Hz_90.m4a,1.08155,,
,,,,,40666,2021-05-10_21h21.51.732,judgeSpeechMusic_20210407_logNormShiftAmp,2020.1.2,MacIntel,60,,,,,,,,,,,,,,,,,,,,,,,,,,2,6.054455,,0,0,103,103,25,1,stimuli/stim_20210407_power2amp/equal_lnn_AM1.2Hz_45.m4a,,,
,,,,,40666,2021-05-10_21h21.51.732,judgeSpeechMusic_20210407_logNormShiftAmp,2020.1.2,MacIntel,60,,,,,,,,,,,,,,,,,,,,,,,,,,1,6.339295,,0,0,104,104,3,1,stimuli/stim_20210407_power2amp/equal_lnn_AM0.6Hz_40.m4a,,,
,,,,,40666,2021-05-10_21h21.51.732,judgeSpeechMusic_20210407_logNormShiftAmp,2020.1.2,MacIntel,60,,,,,,,,,,,,,,,,,,,,,,,,,,2,5.92988,,0,0,105,105,51,1,stimuli/stim_20210407_power2amp/equal_lnn_AM2.4Hz_98.m4a,,,
,,,,,40666,2021-05-10_21h21.51.732,judgeSpeechMusic_20210407_logNormShiftAmp,2020.1.2,MacIntel,60,,,,,,,,,,,,,,,,,,,,,,,,,,1,5.93992,,0,0,106,106,12,1,stimuli/stim_20210407_power2amp/equal_lnn_AM0.6Hz_14.m4a,,,
,,,,,40666,2021-05-10_21h21.51.732,judgeSpeechMusic_20210407_logNormShiftAmp,2020.1.2,MacIntel,60,,,,,,,,,,,,,,,,,,,,,,,,,,2,5.78134,,0,0,107,107,30,1,stimuli/stim_20210407_power2amp/equal_lnn_AM1.8Hz_93.m4a,,,
,,,,,40666,2021-05-10_21h21.51.732,judgeSpeechMusic_20210407_logNormShiftAmp,2020.1.2,MacIntel,60,,,,,,,,,,,,,,,,,,,,,,,,,,1,6.07439,,0,0,108,108,68,1,stimuli/stim_20210407_power2amp/equal_lnn_AM3Hz_68.m4a,,,
,,,,,40666,2021-05-10_21h21.51.732,judgeSpeechMusic_20210407_logNormShiftAmp,2020.1.2,MacIntel,60,,,,,,,,,,,,,,,,,,,,,,,,,,1,5.662075,,0,0,109,109,104,1,stimuli/stim_20210407_power2amp/equal_lnn_AM4.2Hz_74.m4a,,,
,,,,,40666,2021-05-10_21h21.51.732,judgeSpeechMusic_20210407_logNormShiftAmp,2020.1.2,MacIntel,60,,,,,,,,,,,,,,,,,,,,,,,,,,1,5.697945,,0,0,110,110,131,1,stimuli/stim_20210407_power2amp/equal_lnn_AM5.4Hz_22.m4a,,,
,,,,,40666,2021-05-10_21h21.51.732,judgeSpeechMusic_20210407_logNormShiftAmp,2020.1.2,MacIntel,60,,,,,,,,,,,,,,,,,,,,,,,,,,2,6.0709,,0,0,111,111,56,1,stimuli/stim_20210407_power2amp/equal_lnn_AM2.4Hz_26.m4a,,,
,,,,,40666,2021-05-10_21h21.51.732,judgeSpeechMusic_20210407_logNormShiftAmp,2020.1.2,MacIntel,60,,,,,,,,,,,,,,,,,,,,,,,,,,2,6.49884,,0,0,112,112,32,1,stimuli/stim_20210407_power2amp/equal_lnn_AM1.8Hz_59.m4a,,,
,,,,,40666,2021-05-10_21h21.51.732,judgeSpeechMusic_20210407_logNormShiftAmp,2020.1.2,MacIntel,60,,,,,,,,,,,,,,,,,,,,,,,,,,1,5.99792,,0,0,113,113,115,1,stimuli/stim_20210407_power2amp/equal_lnn_AM4.8Hz_85.m4a,,,
,,,,,40666,2021-05-10_21h21.51.732,judgeSpeechMusic_20210407_logNormShiftAmp,2020.1.2,MacIntel,60,,,,,,,,,,,,,,,,,,,,,,,,,,2,6.458755,,0,0,114,114,22,1,stimuli/stim_20210407_power2amp/equal_lnn_AM1.2Hz_87.m4a,,,
,,,,,40666,2021-05-10_21h21.51.732,judgeSpeechMusic_20210407_logNormShiftAmp,2020.1.2,MacIntel,60,,,,,,,,,,,,,,,,,,,,,,,,,,1,6.34826,,0,0,115,115,77,1,stimuli/stim_20210407_power2amp/equal_lnn_AM3.6Hz_69.m4a,,,
,,,,,40666,2021-05-10_21h21.51.732,judgeSpeechMusic_20210407_logNormShiftAmp,2020.1.2,MacIntel,60,,,,,,,,,,,,,,,,,,,,,,,,,,2,6.08376,,0,0,116,116,72,1,stimuli/stim_20210407_power2amp/equal_lnn_AM3Hz_23.m4a,,,
,,,,,40666,2021-05-10_21h21.51.732,judgeSpeechMusic_20210407_logNormShiftAmp,2020.1.2,MacIntel,60,,,,,,,,,,,,,,,,,,,,,,,,,,2,6.891395,,0,0,117,117,29,1,stimuli/stim_20210407_power2amp/equal_lnn_AM1.2Hz_52.m4a,,,
,,,,,40666,2021-05-10_21h21.51.732,judgeSpeechMusic_20210407_logNormShiftAmp,2020.1.2,MacIntel,60,,,,,,,,,,,,,,,,,,,,,,,,,,2,8.483335,,0,0,118,118,110,1,stimuli/stim_20210407_power2amp/equal_lnn_AM4.8Hz_5.m4a,,,
,,,,,40666,2021-05-10_21h21.51.732,judgeSpeechMusic_20210407_logNormShiftAmp,2020.1.2,MacIntel,60,,,,,,,,,,,,,,,,,,,,,,,,,,2,12.64843,,0,0,119,119,55,1,stimuli/stim_20210407_power2amp/equal_lnn_AM2.4Hz_1.m4a,,,
,,,,,40666,2021-05-10_21h21.51.732,judgeSpeechMusic_20210407_logNormShiftAmp,2020.1.2,MacIntel,60,,,,,,,,,,,,,,,,,,,,,,,,,,1,6.697605,,0,0,120,120,10,1,stimuli/stim_20210407_power2amp/equal_lnn_AM0.6Hz_44.m4a,,,
,,,,,40666,2021-05-10_21h21.51.732,judgeSpeechMusic_20210407_logNormShiftAmp,2020.1.2,MacIntel,60,,,,,,,,,,,,,,,,,,,,,,,,,,2,8.52998,,0,0,121,121,28,1,stimuli/stim_20210407_power2amp/equal_lnn_AM1.2Hz_27.m4a,,,
,,,,,40666,2021-05-10_21h21.51.732,judgeSpeechMusic_20210407_logNormShiftAmp,2020.1.2,MacIntel,60,,,,,,,,,,,,,,,,,,,,,,,,,,1,6.00378,4,1,0,122,122,0,1,stimuli/stim_20210407_power2amp/equal_lnn_AM0.6Hz_67.m4a,0.95943,,
,,,,,40666,2021-05-10_21h21.51.732,judgeSpeechMusic_20210407_logNormShiftAmp,2020.1.2,MacIntel,60,,,,,,,,,,,,,,,,,,,,,,,,,,1,5.73725,,0,0,123,123,149,1,stimuli/stim_20210407_power2amp/equal_lnn_AM6Hz_24.m4a,,,
,,,,,40666,2021-05-10_21h21.51.732,judgeSpeechMusic_20210407_logNormShiftAmp,2020.1.2,MacIntel,60,,,,,,,,,,,,,,,,,,,,,,,,,,1,5.766235,,0,0,124,124,1,1,stimuli/stim_20210407_power2amp/equal_lnn_AM0.6Hz_17.m4a,,,
,,,,,40666,2021-05-10_21h21.51.732,judgeSpeechMusic_20210407_logNormShiftAmp,2020.1.2,MacIntel,60,,,,,,,,,,,,,,,,,,,,,,,,,,2,6.01676,,0,0,125,125,74,1,stimuli/stim_20210407_power2amp/equal_lnn_AM3Hz_26.m4a,,,
,,,,,40666,2021-05-10_21h21.51.732,judgeSpeechMusic_20210407_logNormShiftAmp,2020.1.2,MacIntel,60,,,,,,,,,,,,,,,,,,,,,,,,,,1,5.83759,,0,0,126,126,99,1,stimuli/stim_20210407_power2amp/equal_lnn_AM4.2Hz_44.m4a,,,
,,,,,40666,2021-05-10_21h21.51.732,judgeSpeechMusic_20210407_logNormShiftAmp,2020.1.2,MacIntel,60,,,,,,,,,,,,,,,,,,,,,,,,,,2,5.79854,,0,0,127,127,82,1,stimuli/stim_20210407_power2amp/equal_lnn_AM3.6Hz_89.m4a,,,
,,,,,40666,2021-05-10_21h21.51.732,judgeSpeechMusic_20210407_logNormShiftAmp,2020.1.2,MacIntel,60,,,,,,,,,,,,,,,,,,,,,,,,,,2,5.77869,,0,0,128,128,98,1,stimuli/stim_20210407_power2amp/equal_lnn_AM4.2Hz_92.m4a,,,
,,,,,40666,2021-05-10_21h21.51.732,judgeSpeechMusic_20210407_logNormShiftAmp,2020.1.2,MacIntel,60,,,,,,,,,,,,,,,,,,,,,,,,,,1,6.581785,,0,0,129,129,117,1,stimuli/stim_20210407_power2amp/equal_lnn_AM4.8Hz_14.m4a,,,
,,,,,40666,2021-05-10_21h21.51.732,judgeSpeechMusic_20210407_logNormShiftAmp,2020.1.2,MacIntel,60,,,,,,,,,,,,,,,,,,,,,,,,,,1,5.814825,,0,0,130,130,114,1,stimuli/stim_20210407_power2amp/equal_lnn_AM4.8Hz_74.m4a,,,
,,,,,40666,2021-05-10_21h21.51.732,judgeSpeechMusic_20210407_logNormShiftAmp,2020.1.2,MacIntel,60,,,,,,,,,,,,,,,,,,,,,,,,,,1,5.809675,,0,0,131,131,6,1,stimuli/stim_20210407_power2amp/equal_lnn_AM0.6Hz_15.m4a,,,
,,,,,40666,2021-05-10_21h21.51.732,judgeSpeechMusic_20210407_logNormShiftAmp,2020.1.2,MacIntel,60,,,,,,,,,,,,,,,,,,,,,,,,,,2,8.083985,,0,0,132,132,44,1,stimuli/stim_20210407_power2amp/equal_lnn_AM1.8Hz_2.m4a,,,
,,,,,40666,2021-05-10_21h21.51.732,judgeSpeechMusic_20210407_logNormShiftAmp,2020.1.2,MacIntel,60,,,,,,,,,,,,,,,,,,,,,,,,,,1,5.896815,,0,0,133,133,138,1,stimuli/stim_20210407_power2amp/equal_lnn_AM6Hz_59.m4a,,,
,,,,,40666,2021-05-10_21h21.51.732,judgeSpeechMusic_20210407_logNormShiftAmp,2020.1.2,MacIntel,60,,,,,,,,,,,,,,,,,,,,,,,,,,1,6.87491,,0,0,134,134,83,1,stimuli/stim_20210407_power2amp/equal_lnn_AM3.6Hz_71.m4a,,,
,,,,,40666,2021-05-10_21h21.51.732,judgeSpeechMusic_20210407_logNormShiftAmp,2020.1.2,MacIntel,60,,,,,,,,,,,,,,,,,,,,,,,,,,1,5.86558,,0,0,135,135,136,1,stimuli/stim_20210407_power2amp/equal_lnn_AM6Hz_65.m4a,,,
,,,,,40666,2021-05-10_21h21.51.732,judgeSpeechMusic_20210407_logNormShiftAmp,2020.1.2,MacIntel,60,,,,,,,,,,,,,,,,,,,,,,,,,,1,6.31545,,0,0,136,136,141,1,stimuli/stim_20210407_power2amp/equal_lnn_AM6Hz_25.m4a,,,
,,,,,40666,2021-05-10_21h21.51.732,judgeSpeechMusic_20210407_logNormShiftAmp,2020.1.2,MacIntel,60,,,,,,,,,,,,,,,,,,,,,,,,,,1,5.8969,,0,0,137,137,91,1,stimuli/stim_20210407_power2amp/equal_lnn_AM4.2Hz_17.m4a,,,
,,,,,40666,2021-05-10_21h21.51.732,judgeSpeechMusic_20210407_logNormShiftAmp,2020.1.2,MacIntel,60,,,,,,,,,,,,,,,,,,,,,,,,,,1,5.799665,,0,0,138,138,142,1,stimuli/stim_20210407_power2amp/equal_lnn_AM6Hz_10.m4a,,,
,,,,,40666,2021-05-10_21h21.51.732,judgeSpeechMusic_20210407_logNormShiftAmp,2020.1.2,MacIntel,60,,,,,,,,,,,,,,,,,,,,,,,,,,2,5.859165,,0,0,139,139,73,1,stimuli/stim_20210407_power2amp/equal_lnn_AM3Hz_22.m4a,,,
,,,,,40666,2021-05-10_21h21.51.732,judgeSpeechMusic_20210407_logNormShiftAmp,2020.1.2,MacIntel,60,,,,,,,,,,,,,,,,,,,,,,,,,,1,5.896365,,0,0,140,140,21,1,stimuli/stim_20210407_power2amp/equal_lnn_AM1.2Hz_50.m4a,,,
,,,,,40666,2021-05-10_21h21.51.732,judgeSpeechMusic_20210407_logNormShiftAmp,2020.1.2,MacIntel,60,,,,,,,,,,,,,,,,,,,,,,,,,,1,6.617715,,0,0,141,141,24,1,stimuli/stim_20210407_power2amp/equal_lnn_AM1.2Hz_55.m4a,,,
,,,,,40666,2021-05-10_21h21.51.732,judgeSpeechMusic_20210407_logNormShiftAmp,2020.1.2,MacIntel,60,,,,,,,,,,,,,,,,,,,,,,,,,,1,5.983155,,0,0,142,142,120,1,stimuli/stim_20210407_power2amp/equal_lnn_AM5.4Hz_19.m4a,,,
,,,,,40666,2021-05-10_21h21.51.732,judgeSpeechMusic_20210407_logNormShiftAmp,2020.1.2,MacIntel,60,,,,,,,,,,,,,,,,,,,,,,,,,,1,5.896525,1,1,0,143,143,11,1,stimuli/stim_20210407_power2amp/equal_lnn_AM0.6Hz_1.m4a,1.201205,,
,,,,,40666,2021-05-10_21h21.51.732,judgeSpeechMusic_20210407_logNormShiftAmp,2020.1.2,MacIntel,60,,,,,,,,,,,,,,,,,,,,,,,,,,2,6.72708,,0,0,144,144,34,1,stimuli/stim_20210407_power2amp/equal_lnn_AM1.8Hz_51.m4a,,,
,,,,,40666,2021-05-10_21h21.51.732,judgeSpeechMusic_20210407_logNormShiftAmp,2020.1.2,MacIntel,60,,,,,,,,,,,,,,,,,,,,,,,,,,2,6.36788,,0,0,145,145,132,1,stimuli/stim_20210407_power2amp/equal_lnn_AM5.4Hz_44.m4a,,,
,,,,,40666,2021-05-10_21h21.51.732,judgeSpeechMusic_20210407_logNormShiftAmp,2020.1.2,MacIntel,60,,,,,,,,,,,,,,,,,,,,,,,,,,2,6.08245,,0,0,146,146,139,1,stimuli/stim_20210407_power2amp/equal_lnn_AM6Hz_55.m4a,,,
,,,,,40666,2021-05-10_21h21.51.732,judgeSpeechMusic_20210407_logNormShiftAmp,2020.1.2,MacIntel,60,,,,,,,,,,,,,,,,,,,,,,,,,,1,5.887505,,0,0,147,147,78,1,stimuli/stim_20210407_power2amp/equal_lnn_AM3.6Hz_8.m4a,,,
,,,,,40666,2021-05-10_21h21.51.732,judgeSpeechMusic_20210407_logNormShiftAmp,2020.1.2,MacIntel,60,,,,,,,,,,,,,,,,,,,,,,,,,,1,6.013025,,0,0,148,148,107,1,stimuli/stim_20210407_power2amp/equal_lnn_AM4.8Hz_25.m4a,,,
,,,,,40666,2021-05-10_21h21.51.732,judgeSpeechMusic_20210407_logNormShiftAmp,2020.1.2,MacIntel,60,,,,,,,,,,,,,,,,,,,,,,,,,,2,6.121685,,0,0,149,149,37,1,stimuli/stim_20210407_power2amp/equal_lnn_AM1.8Hz_42.m4a,,,
,,,,,40666,2021-05-10_21h21.51.732,judgeSpeechMusic_20210407_logNormShiftAmp,2020.1.2,MacIntel,60,,,,,,,,,,,,,,,,,,,,,,,,,,2,7.06827,,0,1,0,150,57,1,stimuli/stim_20210407_power2amp/equal_lnn_AM2.4Hz_84.m4a,,,
,,,,,40666,2021-05-10_21h21.51.732,judgeSpeechMusic_20210407_logNormShiftAmp,2020.1.2,MacIntel,60,,,,,,,,,,,,,,,,,,,,,,,,,,1,6.154295,,0,1,1,151,20,1,stimuli/stim_20210407_power2amp/equal_lnn_AM1.2Hz_25.m4a,,,
,,,,,40666,2021-05-10_21h21.51.732,judgeSpeechMusic_20210407_logNormShiftAmp,2020.1.2,MacIntel,60,,,,,,,,,,,,,,,,,,,,,,,,,,1,6.11499,,0,1,2,152,109,1,stimuli/stim_20210407_power2amp/equal_lnn_AM4.8Hz_90.m4a,,,
,,,,,40666,2021-05-10_21h21.51.732,judgeSpeechMusic_20210407_logNormShiftAmp,2020.1.2,MacIntel,60,,,,,,,,,,,,,,,,,,,,,,,,,,1,7.192615,,0,1,3,153,95,1,stimuli/stim_20210407_power2amp/equal_lnn_AM4.2Hz_80.m4a,,,
,,,,,40666,2021-05-10_21h21.51.732,judgeSpeechMusic_20210407_logNormShiftAmp,2020.1.2,MacIntel,60,,,,,,,,,,,,,,,,,,,,,,,,,,1,5.86107,,0,1,4,154,124,1,stimuli/stim_20210407_power2amp/equal_lnn_AM5.4Hz_6.m4a,,,
,,,,,40666,2021-05-10_21h21.51.732,judgeSpeechMusic_20210407_logNormShiftAmp,2020.1.2,MacIntel,60,,,,,,,,,,,,,,,,,,,,,,,,,,2,6.6384,,0,1,5,155,126,1,stimuli/stim_20210407_power2amp/equal_lnn_AM5.4Hz_72.m4a,,,
,,,,,40666,2021-05-10_21h21.51.732,judgeSpeechMusic_20210407_logNormShiftAmp,2020.1.2,MacIntel,60,,,,,,,,,,,,,,,,,,,,,,,,,,1,5.808885,,0,1,6,156,29,1,stimuli/stim_20210407_power2amp/equal_lnn_AM1.2Hz_52.m4a,,,
,,,,,40666,2021-05-10_21h21.51.732,judgeSpeechMusic_20210407_logNormShiftAmp,2020.1.2,MacIntel,60,,,,,,,,,,,,,,,,,,,,,,,,,,2,5.99641,,0,1,7,157,66,1,stimuli/stim_20210407_power2amp/equal_lnn_AM3Hz_100.m4a,,,
,,,,,40666,2021-05-10_21h21.51.732,judgeSpeechMusic_20210407_logNormShiftAmp,2020.1.2,MacIntel,60,,,,,,,,,,,,,,,,,,,,,,,,,,1,5.869825,,0,1,8,158,11,1,stimuli/stim_20210407_power2amp/equal_lnn_AM0.6Hz_1.m4a,,,
,,,,,40666,2021-05-10_21h21.51.732,judgeSpeechMusic_20210407_logNormShiftAmp,2020.1.2,MacIntel,60,,,,,,,,,,,,,,,,,,,,,,,,,,1,5.89075,,0,1,9,159,4,1,stimuli/stim_20210407_power2amp/equal_lnn_AM0.6Hz_80.m4a,,,
,,,,,40666,2021-05-10_21h21.51.732,judgeSpeechMusic_20210407_logNormShiftAmp,2020.1.2,MacIntel,60,,,,,,,,,,,,,,,,,,,,,,,,,,2,6.280935,,0,1,10,160,44,1,stimuli/stim_20210407_power2amp/equal_lnn_AM1.8Hz_2.m4a,,,
,,,,,40666,2021-05-10_21h21.51.732,judgeSpeechMusic_20210407_logNormShiftAmp,2020.1.2,MacIntel,60,,,,,,,,,,,,,,,,,,,,,,,,,,1,5.975455,,0,1,11,161,14,1,stimuli/stim_20210407_power2amp/equal_lnn_AM0.6Hz_11.m4a,,,
,,,,,40666,2021-05-10_21h21.51.732,judgeSpeechMusic_20210407_logNormShiftAmp,2020.1.2,MacIntel,60,,,,,,,,,,,,,,,,,,,,,,,,,,1,5.699685,,0,1,12,162,140,1,stimuli/stim_20210407_power2amp/equal_lnn_AM6Hz_90.m4a,,,
,,,,,40666,2021-05-10_21h21.51.732,judgeSpeechMusic_20210407_logNormShiftAmp,2020.1.2,MacIntel,60,,,,,,,,,,,,,,,,,,,,,,,,,,1,6.210765,,0,1,13,163,145,1,stimuli/stim_20210407_power2amp/equal_lnn_AM6Hz_51.m4a,,,
,,,,,40666,2021-05-10_21h21.51.732,judgeSpeechMusic_20210407_logNormShiftAmp,2020.1.2,MacIntel,60,,,,,,,,,,,,,,,,,,,,,,,,,,1,7.01755,4,1,1,14,164,19,1,stimuli/stim_20210407_power2amp/equal_lnn_AM1.2Hz_96.m4a,1.004295,,
,,,,,40666,2021-05-10_21h21.51.732,judgeSpeechMusic_20210407_logNormShiftAmp,2020.1.2,MacIntel,60,,,,,,,,,,,,,,,,,,,,,,,,,,2,5.853595,,0,1,15,165,59,1,stimuli/stim_20210407_power2amp/equal_lnn_AM2.4Hz_10.m4a,,,
,,,,,40666,2021-05-10_21h21.51.732,judgeSpeechMusic_20210407_logNormShiftAmp,2020.1.2,MacIntel,60,,,,,,,,,,,,,,,,,,,,,,,,,,1,5.815085,,0,1,16,166,79,1,stimuli/stim_20210407_power2amp/equal_lnn_AM3.6Hz_38.m4a,,,
,,,,,40666,2021-05-10_21h21.51.732,judgeSpeechMusic_20210407_logNormShiftAmp,2020.1.2,MacIntel,60,,,,,,,,,,,,,,,,,,,,,,,,,,2,6.709165,,0,1,17,167,112,1,stimuli/stim_20210407_power2amp/equal_lnn_AM4.8Hz_26.m4a,,,
,,,,,40666,2021-05-10_21h21.51.732,judgeSpeechMusic_20210407_logNormShiftAmp,2020.1.2,MacIntel,60,,,,,,,,,,,,,,,,,,,,,,,,,,1,5.93232,,0,1,18,168,82,1,stimuli/stim_20210407_power2amp/equal_lnn_AM3.6Hz_89.m4a,,,
,,,,,40666,2021-05-10_21h21.51.732,judgeSpeechMusic_20210407_logNormShiftAmp,2020.1.2,MacIntel,60,,,,,,,,,,,,,,,,,,,,,,,,,,2,5.817965,,0,1,19,169,67,1,stimuli/stim_20210407_power2amp/equal_lnn_AM3Hz_64.m4a,,,
,,,,,40666,2021-05-10_21h21.51.732,judgeSpeechMusic_20210407_logNormShiftAmp,2020.1.2,MacIntel,60,,,,,,,,,,,,,,,,,,,,,,,,,,1,5.86037,,0,1,20,170,114,1,stimuli/stim_20210407_power2amp/equal_lnn_AM4.8Hz_74.m4a,,,
,,,,,40666,2021-05-10_21h21.51.732,judgeSpeechMusic_20210407_logNormShiftAmp,2020.1.2,MacIntel,60,,,,,,,,,,,,,,,,,,,,,,,,,,1,5.849815,,0,1,21,171,133,1,stimuli/stim_20210407_power2amp/equal_lnn_AM5.4Hz_69.m4a,,,
,,,,,40666,2021-05-10_21h21.51.732,judgeSpeechMusic_20210407_logNormShiftAmp,2020.1.2,MacIntel,60,,,,,,,,,,,,,,,,,,,,,,,,,,1,6.58813,,0,1,22,172,100,1,stimuli/stim_20210407_power2amp/equal_lnn_AM4.2Hz_85.m4a,,,
,,,,,40666,2021-05-10_21h21.51.732,judgeSpeechMusic_20210407_logNormShiftAmp,2020.1.2,MacIntel,60,,,,,,,,,,,,,,,,,,,,,,,,,,1,5.888025,,0,1,23,173,122,1,stimuli/stim_20210407_power2amp/equal_lnn_AM5.4Hz_52.m4a,,,
,,,,,40666,2021-05-10_21h21.51.732,judgeSpeechMusic_20210407_logNormShiftAmp,2020.1.2,MacIntel,60,,,,,,,,,,,,,,,,,,,,,,,,,,1,6.01619,,0,1,24,174,31,1,stimuli/stim_20210407_power2amp/equal_lnn_AM1.8Hz_61.m4a,,,
,,,,,40666,2021-05-10_21h21.51.732,judgeSpeechMusic_20210407_logNormShiftAmp,2020.1.2,MacIntel,60,,,,,,,,,,,,,,,,,,,,,,,,,,2,6.129015,,0,1,25,175,37,1,stimuli/stim_20210407_power2amp/equal_lnn_AM1.8Hz_42.m4a,,,
,,,,,40666,2021-05-10_21h21.51.732,judgeSpeechMusic_20210407_logNormShiftAmp,2020.1.2,MacIntel,60,,,,,,,,,,,,,,,,,,,,,,,,,,2,5.812125,,0,1,26,176,68,1,stimuli/stim_20210407_power2amp/equal_lnn_AM3Hz_68.m4a,,,
,,,,,40666,2021-05-10_21h21.51.732,judgeSpeechMusic_20210407_logNormShiftAmp,2020.1.2,MacIntel,60,,,,,,,,,,,,,,,,,,,,,,,,,,2,5.665895,,0,1,27,177,118,1,stimuli/stim_20210407_power2amp/equal_lnn_AM4.8Hz_37.m4a,,,
,,,,,40666,2021-05-10_21h21.51.732,judgeSpeechMusic_20210407_logNormShiftAmp,2020.1.2,MacIntel,60,,,,,,,,,,,,,,,,,,,,,,,,,,1,5.77111,,0,1,28,178,24,1,stimuli/stim_20210407_power2amp/equal_lnn_AM1.2Hz_55.m4a,,,
,,,,,40666,2021-05-10_21h21.51.732,judgeSpeechMusic_20210407_logNormShiftAmp,2020.1.2,MacIntel,60,,,,,,,,,,,,,,,,,,,,,,,,,,1,5.947865,,0,1,29,179,26,1,stimuli/stim_20210407_power2amp/equal_lnn_AM1.2Hz_30.m4a,,,
,,,,,40666,2021-05-10_21h21.51.732,judgeSpeechMusic_20210407_logNormShiftAmp,2020.1.2,MacIntel,60,,,,,,,,,,,,,,,,,,,,,,,,,,1,5.95865,,0,1,30,180,16,1,stimuli/stim_20210407_power2amp/equal_lnn_AM1.2Hz_24.m4a,,,
,,,,,40666,2021-05-10_21h21.51.732,judgeSpeechMusic_20210407_logNormShiftAmp,2020.1.2,MacIntel,60,,,,,,,,,,,,,,,,,,,,,,,,,,2,6.313035,,0,1,31,181,86,1,stimuli/stim_20210407_power2amp/equal_lnn_AM3.6Hz_92.m4a,,,
,,,,,40666,2021-05-10_21h21.51.732,judgeSpeechMusic_20210407_logNormShiftAmp,2020.1.2,MacIntel,60,,,,,,,,,,,,,,,,,,,,,,,,,,1,5.90555,,0,1,32,182,5,1,stimuli/stim_20210407_power2amp/equal_lnn_AM0.6Hz_58.m4a,,,
,,,,,40666,2021-05-10_21h21.51.732,judgeSpeechMusic_20210407_logNormShiftAmp,2020.1.2,MacIntel,60,,,,,,,,,,,,,,,,,,,,,,,,,,1,5.766665,,0,1,33,183,115,1,stimuli/stim_20210407_power2amp/equal_lnn_AM4.8Hz_85.m4a,,,
,,,,,40666,2021-05-10_21h21.51.732,judgeSpeechMusic_20210407_logNormShiftAmp,2020.1.2,MacIntel,60,,,,,,,,,,,,,,,,,,,,,,,,,,1,5.709535,,0,1,34,184,113,1,stimuli/stim_20210407_power2amp/equal_lnn_AM4.8Hz_9.m4a,,,
,,,,,40666,2021-05-10_21h21.51.732,judgeSpeechMusic_20210407_logNormShiftAmp,2020.1.2,MacIntel,60,,,,,,,,,,,,,,,,,,,,,,,,,,1,6.09426,,0,1,35,185,142,1,stimuli/stim_20210407_power2amp/equal_lnn_AM6Hz_10.m4a,,,
,,,,,40666,2021-05-10_21h21.51.732,judgeSpeechMusic_20210407_logNormShiftAmp,2020.1.2,MacIntel,60,,,,,,,,,,,,,,,,,,,,,,,,,,2,7.613655,,0,1,36,186,56,1,stimuli/stim_20210407_power2amp/equal_lnn_AM2.4Hz_26.m4a,,,
,,,,,40666,2021-05-10_21h21.51.732,judgeSpeechMusic_20210407_logNormShiftAmp,2020.1.2,MacIntel,60,,,,,,,,,,,,,,,,,,,,,,,,,,2,5.940035,,0,1,37,187,52,1,stimuli/stim_20210407_power2amp/equal_lnn_AM2.4Hz_49.m4a,,,
,,,,,40666,2021-05-10_21h21.51.732,judgeSpeechMusic_20210407_logNormShiftAmp,2020.1.2,MacIntel,60,,,,,,,,,,,,,,,,,,,,,,,,,,2,5.802495,1,1,1,38,188,64,1,stimuli/stim_20210407_power2amp/equal_lnn_AM3Hz_61.m4a,1.067155,,
,,,,,40666,2021-05-10_21h21.51.732,judgeSpeechMusic_20210407_logNormShiftAmp,2020.1.2,MacIntel,60,,,,,,,,,,,,,,,,,,,,,,,,,,1,6.810305,,0,1,39,189,129,1,stimuli/stim_20210407_power2amp/equal_lnn_AM5.4Hz_74.m4a,,,
,,,,,40666,2021-05-10_21h21.51.732,judgeSpeechMusic_20210407_logNormShiftAmp,2020.1.2,MacIntel,60,,,,,,,,,,,,,,,,,,,,,,,,,,2,7.37284,,0,1,40,190,38,1,stimuli/stim_20210407_power2amp/equal_lnn_AM1.8Hz_26.m4a,,,
,,,,,40666,2021-05-10_21h21.51.732,judgeSpeechMusic_20210407_logNormShiftAmp,2020.1.2,MacIntel,60,,,,,,,,,,,,,,,,,,,,,,,,,,2,6.77076,,0,1,41,191,53,1,stimuli/stim_20210407_power2amp/equal_lnn_AM2.4Hz_93.m4a,,,
,,,,,40666,2021-05-10_21h21.51.732,judgeSpeechMusic_20210407_logNormShiftAmp,2020.1.2,MacIntel,60,,,,,,,,,,,,,,,,,,,,,,,,,,1,5.9836,,0,1,42,192,149,1,stimuli/stim_20210407_power2amp/equal_lnn_AM6Hz_24.m4a,,,
,,,,,40666,2021-05-10_21h21.51.732,judgeSpeechMusic_20210407_logNormShiftAmp,2020.1.2,MacIntel,60,,,,,,,,,,,,,,,,,,,,,,,,,,1,5.79348,,0,1,43,193,6,1,stimuli/stim_20210407_power2amp/equal_lnn_AM0.6Hz_15.m4a,,,
,,,,,40666,2021-05-10_21h21.51.732,judgeSpeechMusic_20210407_logNormShiftAmp,2020.1.2,MacIntel,60,,,,,,,,,,,,,,,,,,,,,,,,,,1,6.21577,,0,1,44,194,143,1,stimuli/stim_20210407_power2amp/equal_lnn_AM6Hz_9.m4a,,,
,,,,,40666,2021-05-10_21h21.51.732,judgeSpeechMusic_20210407_logNormShiftAmp,2020.1.2,MacIntel,60,,,,,,,,,,,,,,,,,,,,,,,,,,1,6.109745,,0,1,45,195,103,1,stimuli/stim_20210407_power2amp/equal_lnn_AM4.2Hz_61.m4a,,,
,,,,,40666,2021-05-10_21h21.51.732,judgeSpeechMusic_20210407_logNormShiftAmp,2020.1.2,MacIntel,60,,,,,,,,,,,,,,,,,,,,,,,,,,2,6.72338,,0,1,46,196,22,1,stimuli/stim_20210407_power2amp/equal_lnn_AM1.2Hz_87.m4a,,,
,,,,,40666,2021-05-10_21h21.51.732,judgeSpeechMusic_20210407_logNormShiftAmp,2020.1.2,MacIntel,60,,,,,,,,,,,,,,,,,,,,,,,,,,1,6.470875,,0,1,47,197,123,1,stimuli/stim_20210407_power2amp/equal_lnn_AM5.4Hz_41.m4a,,,
,,,,,40666,2021-05-10_21h21.51.732,judgeSpeechMusic_20210407_logNormShiftAmp,2020.1.2,MacIntel,60,,,,,,,,,,,,,,,,,,,,,,,,,,1,6.077675,,0,1,48,198,85,1,stimuli/stim_20210407_power2amp/equal_lnn_AM3.6Hz_87.m4a,,,
,,,,,40666,2021-05-10_21h21.51.732,judgeSpeechMusic_20210407_logNormShiftAmp,2020.1.2,MacIntel,60,,,,,,,,,,,,,,,,,,,,,,,,,,1,5.68235,,0,1,49,199,127,1,stimuli/stim_20210407_power2amp/equal_lnn_AM5.4Hz_86.m4a,,,
,,,,,40666,2021-05-10_21h21.51.732,judgeSpeechMusic_20210407_logNormShiftAmp,2020.1.2,MacIntel,60,,,,,,,,,,,,,,,,,,,,,,,,,,1,7.589925,,0,1,50,200,131,1,stimuli/stim_20210407_power2amp/equal_lnn_AM5.4Hz_22.m4a,,,
,,,,,40666,2021-05-10_21h21.51.732,judgeSpeechMusic_20210407_logNormShiftAmp,2020.1.2,MacIntel,60,,,,,,,,,,,,,,,,,,,,,,,,,,1,5.68541,,0,1,51,201,35,1,stimuli/stim_20210407_power2amp/equal_lnn_AM1.8Hz_55.m4a,,,
,,,,,40666,2021-05-10_21h21.51.732,judgeSpeechMusic_20210407_logNormShiftAmp,2020.1.2,MacIntel,60,,,,,,,,,,,,,,,,,,,,,,,,,,1,5.83968,,0,1,52,202,7,1,stimuli/stim_20210407_power2amp/equal_lnn_AM0.6Hz_75.m4a,,,
,,,,,40666,2021-05-10_21h21.51.732,judgeSpeechMusic_20210407_logNormShiftAmp,2020.1.2,MacIntel,60,,,,,,,,,,,,,,,,,,,,,,,,,,1,7.02641,,0,1,53,203,92,1,stimuli/stim_20210407_power2amp/equal_lnn_AM4.2Hz_96.m4a,,,
,,,,,40666,2021-05-10_21h21.51.732,judgeSpeechMusic_20210407_logNormShiftAmp,2020.1.2,MacIntel,60,,,,,,,,,,,,,,,,,,,,,,,,,,2,6.08026,,0,1,54,204,51,1,stimuli/stim_20210407_power2amp/equal_lnn_AM2.4Hz_98.m4a,,,
,,,,,40666,2021-05-10_21h21.51.732,judgeSpeechMusic_20210407_logNormShiftAmp,2020.1.2,MacIntel,60,,,,,,,,,,,,,,,,,,,,,,,,,,2,5.935125,,0,1,55,205,61,1,stimuli/stim_20210407_power2amp/equal_lnn_AM3Hz_38.m4a,,,
,,,,,40666,2021-05-10_21h21.51.732,judgeSpeechMusic_20210407_logNormShiftAmp,2020.1.2,MacIntel,60,,,,,,,,,,,,,,,,,,,,,,,,,,1,6.30583,,0,1,56,206,78,1,stimuli/stim_20210407_power2amp/equal_lnn_AM3.6Hz_8.m4a,,,
,,,,,40666,2021-05-10_21h21.51.732,judgeSpeechMusic_20210407_logNormShiftAmp,2020.1.2,MacIntel,60,,,,,,,,,,,,,,,,,,,,,,,,,,1,5.750055,,0,1,57,207,47,1,stimuli/stim_20210407_power2amp/equal_lnn_AM2.4Hz_3.m4a,,,
,,,,,40666,2021-05-10_21h21.51.732,judgeSpeechMusic_20210407_logNormShiftAmp,2020.1.2,MacIntel,60,,,,,,,,,,,,,,,,,,,,,,,,,,1,5.869115,,0,1,58,208,41,1,stimuli/stim_20210407_power2amp/equal_lnn_AM1.8Hz_84.m4a,,,
,,,,,40666,2021-05-10_21h21.51.732,judgeSpeechMusic_20210407_logNormShiftAmp,2020.1.2,MacIntel,60,,,,,,,,,,,,,,,,,,,,,,,,,,2,6.819995,,0,1,59,209,58,1,stimuli/stim_20210407_power2amp/equal_lnn_AM2.4Hz_23.m4a,,,
,,,,,40666,2021-05-10_21h21.51.732,judgeSpeechMusic_20210407_logNormShiftAmp,2020.1.2,MacIntel,60,,,,,,,,,,,,,,,,,,,,,,,,,,1,5.748825,,0,1,60,210,125,1,stimuli/stim_20210407_power2amp/equal_lnn_AM5.4Hz_48.m4a,,,
,,,,,40666,2021-05-10_21h21.51.732,judgeSpeechMusic_20210407_logNormShiftAmp,2020.1.2,MacIntel,60,,,,,,,,,,,,,,,,,,,,,,,,,,1,6.668265,,0,1,61,211,146,1,stimuli/stim_20210407_power2amp/equal_lnn_AM6Hz_15.m4a,,,
,,,,,40666,2021-05-10_21h21.51.732,judgeSpeechMusic_20210407_logNormShiftAmp,2020.1.2,MacIntel,60,,,,,,,,,,,,,,,,,,,,,,,,,,1,5.870795,4,1,1,62,212,18,1,stimuli/stim_20210407_power2amp/equal_lnn_AM1.2Hz_91.m4a,0.744545,,
,,,,,40666,2021-05-10_21h21.51.732,judgeSpeechMusic_20210407_logNormShiftAmp,2020.1.2,MacIntel,60,,,,,,,,,,,,,,,,,,,,,,,,,,1,10.69992,,0,1,63,213,21,1,stimuli/stim_20210407_power2amp/equal_lnn_AM1.2Hz_50.m4a,,,
,,,,,40666,2021-05-10_21h21.51.732,judgeSpeechMusic_20210407_logNormShiftAmp,2020.1.2,MacIntel,60,,,,,,,,,,,,,,,,,,,,,,,,,,2,8.07075,,0,1,64,214,3,1,stimuli/stim_20210407_power2amp/equal_lnn_AM0.6Hz_40.m4a,,,
,,,,,40666,2021-05-10_21h21.51.732,judgeSpeechMusic_20210407_logNormShiftAmp,2020.1.2,MacIntel,60,,,,,,,,,,,,,,,,,,,,,,,,,,2,8.626035,,0,1,65,215,15,1,stimuli/stim_20210407_power2amp/equal_lnn_AM1.2Hz_93.m4a,,,
,,,,,40666,2021-05-10_21h21.51.732,judgeSpeechMusic_20210407_logNormShiftAmp,2020.1.2,MacIntel,60,,,,,,,,,,,,,,,,,,,,,,,,,,1,6.33164,,0,1,66,216,90,1,stimuli/stim_20210407_power2amp/equal_lnn_AM4.2Hz_51.m4a,,,
,,,,,40666,2021-05-10_21h21.51.732,judgeSpeechMusic_20210407_logNormShiftAmp,2020.1.2,MacIntel,60,,,,,,,,,,,,,,,,,,,,,,,,,,1,5.65075,,0,1,67,217,80,1,stimuli/stim_20210407_power2amp/equal_lnn_AM3.6Hz_75.m4a,,,
,,,,,40666,2021-05-10_21h21.51.732,judgeSpeechMusic_20210407_logNormShiftAmp,2020.1.2,MacIntel,60,,,,,,,,,,,,,,,,,,,,,,,,,,1,6.094605,,0,1,68,218,108,1,stimuli/stim_20210407_power2amp/equal_lnn_AM4.8Hz_77.m4a,,,
,,,,,40666,2021-05-10_21h21.51.732,judgeSpeechMusic_20210407_logNormShiftAmp,2020.1.2,MacIntel,60,,,,,,,,,,,,,,,,,,,,,,,,,,1,5.799905,,0,1,69,219,147,1,stimuli/stim_20210407_power2amp/equal_lnn_AM6Hz_14.m4a,,,
,,,,,40666,2021-05-10_21h21.51.732,judgeSpeechMusic_20210407_logNormShiftAmp,2020.1.2,MacIntel,60,,,,,,,,,,,,,,,,,,,,,,,,,,2,6.122915,,0,1,70,220,65,1,stimuli/stim_20210407_power2amp/equal_lnn_AM3Hz_93.m4a,,,
,,,,,40666,2021-05-10_21h21.51.732,judgeSpeechMusic_20210407_logNormShiftAmp,2020.1.2,MacIntel,60,,,,,,,,,,,,,,,,,,,,,,,,,,1,5.621985,,0,1,71,221,102,1,stimuli/stim_20210407_power2amp/equal_lnn_AM4.2Hz_25.m4a,,,
,,,,,40666,2021-05-10_21h21.51.732,judgeSpeechMusic_20210407_logNormShiftAmp,2020.1.2,MacIntel,60,,,,,,,,,,,,,,,,,,,,,,,,,,1,5.736715,,0,1,72,222,87,1,stimuli/stim_20210407_power2amp/equal_lnn_AM3.6Hz_10.m4a,,,
,,,,,40666,2021-05-10_21h21.51.732,judgeSpeechMusic_20210407_logNormShiftAmp,2020.1.2,MacIntel,60,,,,,,,,,,,,,,,,,,,,,,,,,,2,6.684445,,0,1,73,223,33,1,stimuli/stim_20210407_power2amp/equal_lnn_AM1.8Hz_75.m4a,,,
,,,,,40666,2021-05-10_21h21.51.732,judgeSpeechMusic_20210407_logNormShiftAmp,2020.1.2,MacIntel,60,,,,,,,,,,,,,,,,,,,,,,,,,,2,5.934015,,0,1,74,224,84,1,stimuli/stim_20210407_power2amp/equal_lnn_AM3.6Hz_88.m4a,,,
,,,,,40666,2021-05-10_21h21.51.732,judgeSpeechMusic_20210407_logNormShiftAmp,2020.1.2,MacIntel,60,,,,,,,,,,,,,,,,,,,,,,,,,,1,5.78247,,0,1,75,225,43,1,stimuli/stim_20210407_power2amp/equal_lnn_AM1.8Hz_15.m4a,,,
,,,,,40666,2021-05-10_21h21.51.732,judgeSpeechMusic_20210407_logNormShiftAmp,2020.1.2,MacIntel,60,,,,,,,,,,,,,,,,,,,,,,,,,,1,5.666255,,0,1,76,226,148,1,stimuli/stim_20210407_power2amp/equal_lnn_AM6Hz_77.m4a,,,
,,,,,40666,2021-05-10_21h21.51.732,judgeSpeechMusic_20210407_logNormShiftAmp,2020.1.2,MacIntel,60,,,,,,,,,,,,,,,,,,,,,,,,,,1,5.67722,,0,1,77,227,119,1,stimuli/stim_20210407_power2amp/equal_lnn_AM4.8Hz_11.m4a,,,
,,,,,40666,2021-05-10_21h21.51.732,judgeSpeechMusic_20210407_logNormShiftAmp,2020.1.2,MacIntel,60,,,,,,,,,,,,,,,,,,,,,,,,,,1,6.38038,,0,1,78,228,30,1,stimuli/stim_20210407_power2amp/equal_lnn_AM1.8Hz_93.m4a,,,
,,,,,40666,2021-05-10_21h21.51.732,judgeSpeechMusic_20210407_logNormShiftAmp,2020.1.2,MacIntel,60,,,,,,,,,,,,,,,,,,,,,,,,,,1,5.75257,,0,1,79,229,121,1,stimuli/stim_20210407_power2amp/equal_lnn_AM5.4Hz_21.m4a,,,
,,,,,40666,2021-05-10_21h21.51.732,judgeSpeechMusic_20210407_logNormShiftAmp,2020.1.2,MacIntel,60,,,,,,,,,,,,,,,,,,,,,,,,,,2,5.869215,,0,1,80,230,60,1,stimuli/stim_20210407_power2amp/equal_lnn_AM3Hz_75.m4a,,,
,,,,,40666,2021-05-10_21h21.51.732,judgeSpeechMusic_20210407_logNormShiftAmp,2020.1.2,MacIntel,60,,,,,,,,,,,,,,,,,,,,,,,,,,1,5.72699,,0,1,81,231,144,1,stimuli/stim_20210407_power2amp/equal_lnn_AM6Hz_38.m4a,,,
,,,,,40666,2021-05-10_21h21.51.732,judgeSpeechMusic_20210407_logNormShiftAmp,2020.1.2,MacIntel,60,,,,,,,,,,,,,,,,,,,,,,,,,,1,5.89636,,0,1,82,232,8,1,stimuli/stim_20210407_power2amp/equal_lnn_AM0.6Hz_54.m4a,,,
,,,,,40666,2021-05-10_21h21.51.732,judgeSpeechMusic_20210407_logNormShiftAmp,2020.1.2,MacIntel,60,,,,,,,,,,,,,,,,,,,,,,,,,,1,5.971065,,0,1,83,233,10,1,stimuli/stim_20210407_power2amp/equal_lnn_AM0.6Hz_44.m4a,,,
,,,,,40666,2021-05-10_21h21.51.732,judgeSpeechMusic_20210407_logNormShiftAmp,2020.1.2,MacIntel,60,,,,,,,,,,,,,,,,,,,,,,,,,,1,5.82211,,0,1,84,234,77,1,stimuli/stim_20210407_power2amp/equal_lnn_AM3.6Hz_69.m4a,,,
,,,,,40666,2021-05-10_21h21.51.732,judgeSpeechMusic_20210407_logNormShiftAmp,2020.1.2,MacIntel,60,,,,,,,,,,,,,,,,,,,,,,,,,,1,5.7679,,0,1,85,235,116,1,stimuli/stim_20210407_power2amp/equal_lnn_AM4.8Hz_51.m4a,,,
,,,,,40666,2021-05-10_21h21.51.732,judgeSpeechMusic_20210407_logNormShiftAmp,2020.1.2,MacIntel,60,,,,,,,,,,,,,,,,,,,,,,,,,,1,5.69487,,0,1,86,236,130,1,stimuli/stim_20210407_power2amp/equal_lnn_AM5.4Hz_47.m4a,,,
,,,,,40666,2021-05-10_21h21.51.732,judgeSpeechMusic_20210407_logNormShiftAmp,2020.1.2,MacIntel,60,,,,,,,,,,,,,,,,,,,,,,,,,,2,5.83823,1,1,1,87,237,89,1,stimuli/stim_20210407_power2amp/equal_lnn_AM3.6Hz_1.m4a,1.325595,,
,,,,,40666,2021-05-10_21h21.51.732,judgeSpeechMusic_20210407_logNormShiftAmp,2020.1.2,MacIntel,60,,,,,,,,,,,,,,,,,,,,,,,,,,2,5.83193,,0,1,88,238,39,1,stimuli/stim_20210407_power2amp/equal_lnn_AM1.8Hz_19.m4a,,,
,,,,,40666,2021-05-10_21h21.51.732,judgeSpeechMusic_20210407_logNormShiftAmp,2020.1.2,MacIntel,60,,,,,,,,,,,,,,,,,,,,,,,,,,2,5.6873,,0,1,89,239,83,1,stimuli/stim_20210407_power2amp/equal_lnn_AM3.6Hz_71.m4a,,,
,,,,,40666,2021-05-10_21h21.51.732,judgeSpeechMusic_20210407_logNormShiftAmp,2020.1.2,MacIntel,60,,,,,,,,,,,,,,,,,,,,,,,,,,2,5.823635,,0,1,90,240,70,1,stimuli/stim_20210407_power2amp/equal_lnn_AM3Hz_98.m4a,,,
,,,,,40666,2021-05-10_21h21.51.732,judgeSpeechMusic_20210407_logNormShiftAmp,2020.1.2,MacIntel,60,,,,,,,,,,,,,,,,,,,,,,,,,,2,5.76723,,0,1,91,241,72,1,stimuli/stim_20210407_power2amp/equal_lnn_AM3Hz_23.m4a,,,
,,,,,40666,2021-05-10_21h21.51.732,judgeSpeechMusic_20210407_logNormShiftAmp,2020.1.2,MacIntel,60,,,,,,,,,,,,,,,,,,,,,,,,,,1,8.033525,,0,1,92,242,132,1,stimuli/stim_20210407_power2amp/equal_lnn_AM5.4Hz_44.m4a,,,
,,,,,40666,2021-05-10_21h21.51.732,judgeSpeechMusic_20210407_logNormShiftAmp,2020.1.2,MacIntel,60,,,,,,,,,,,,,,,,,,,,,,,,,,1,5.819265,,0,1,93,243,99,1,stimuli/stim_20210407_power2amp/equal_lnn_AM4.2Hz_44.m4a,,,
,,,,,40666,2021-05-10_21h21.51.732,judgeSpeechMusic_20210407_logNormShiftAmp,2020.1.2,MacIntel,60,,,,,,,,,,,,,,,,,,,,,,,,,,2,5.818525,,0,1,94,244,45,1,stimuli/stim_20210407_power2amp/equal_lnn_AM2.4Hz_38.m4a,,,
,,,,,40666,2021-05-10_21h21.51.732,judgeSpeechMusic_20210407_logNormShiftAmp,2020.1.2,MacIntel,60,,,,,,,,,,,,,,,,,,,,,,,,,,1,6.587185,,0,1,95,245,81,1,stimuli/stim_20210407_power2amp/equal_lnn_AM3.6Hz_58.m4a,,,
,,,,,40666,2021-05-10_21h21.51.732,judgeSpeechMusic_20210407_logNormShiftAmp,2020.1.2,MacIntel,60,,,,,,,,,,,,,,,,,,,,,,,,,,1,5.86438,,0,1,96,246,48,1,stimuli/stim_20210407_power2amp/equal_lnn_AM2.4Hz_91.m4a,,,
,,,,,40666,2021-05-10_21h21.51.732,judgeSpeechMusic_20210407_logNormShiftAmp,2020.1.2,MacIntel,60,,,,,,,,,,,,,,,,,,,,,,,,,,1,5.854855,,0,1,97,247,120,1,stimuli/stim_20210407_power2amp/equal_lnn_AM5.4Hz_19.m4a,,,
,,,,,40666,2021-05-10_21h21.51.732,judgeSpeechMusic_20210407_logNormShiftAmp,2020.1.2,MacIntel,60,,,,,,,,,,,,,,,,,,,,,,,,,,2,5.8779,,0,1,98,248,46,1,stimuli/stim_20210407_power2amp/equal_lnn_AM2.4Hz_79.m4a,,,
,,,,,40666,2021-05-10_21h21.51.732,judgeSpeechMusic_20210407_logNormShiftAmp,2020.1.2,MacIntel,60,,,,,,,,,,,,,,,,,,,,,,,,,,1,7.268535,,0,1,99,249,94,1,stimuli/stim_20210407_power2amp/equal_lnn_AM4.2Hz_90.m4a,,,
,,,,,40666,2021-05-10_21h21.51.732,judgeSpeechMusic_20210407_logNormShiftAmp,2020.1.2,MacIntel,60,,,,,,,,,,,,,,,,,,,,,,,,,,1,6.002605,,0,1,100,250,17,1,stimuli/stim_20210407_power2amp/equal_lnn_AM1.2Hz_58.m4a,,,
,,,,,40666,2021-05-10_21h21.51.732,judgeSpeechMusic_20210407_logNormShiftAmp,2020.1.2,MacIntel,60,,,,,,,,,,,,,,,,,,,,,,,,,,2,6.937585,,0,1,101,251,96,1,stimuli/stim_20210407_power2amp/equal_lnn_AM4.2Hz_27.m4a,,,
,,,,,40666,2021-05-10_21h21.51.732,judgeSpeechMusic_20210407_logNormShiftAmp,2020.1.2,MacIntel,60,,,,,,,,,,,,,,,,,,,,,,,,,,2,7.131975,,0,1,102,252,25,1,stimuli/stim_20210407_power2amp/equal_lnn_AM1.2Hz_45.m4a,,,
,,,,,40666,2021-05-10_21h21.51.732,judgeSpeechMusic_20210407_logNormShiftAmp,2020.1.2,MacIntel,60,,,,,,,,,,,,,,,,,,,,,,,,,,2,5.817735,,0,1,103,253,62,1,stimuli/stim_20210407_power2amp/equal_lnn_AM3Hz_87.m4a,,,
,,,,,40666,2021-05-10_21h21.51.732,judgeSpeechMusic_20210407_logNormShiftAmp,2020.1.2,MacIntel,60,,,,,,,,,,,,,,,,,,,,,,,,,,1,7.34182,,0,1,104,254,106,1,stimuli/stim_20210407_power2amp/equal_lnn_AM4.8Hz_80.m4a,,,
,,,,,40666,2021-05-10_21h21.51.732,judgeSpeechMusic_20210407_logNormShiftAmp,2020.1.2,MacIntel,60,,,,,,,,,,,,,,,,,,,,,,,,,,1,5.63378,,0,1,105,255,134,1,stimuli/stim_20210407_power2amp/equal_lnn_AM5.4Hz_99.m4a,,,
,,,,,40666,2021-05-10_21h21.51.732,judgeSpeechMusic_20210407_logNormShiftAmp,2020.1.2,MacIntel,60,,,,,,,,,,,,,,,,,,,,,,,,,,1,5.73675,,0,1,106,256,36,1,stimuli/stim_20210407_power2amp/equal_lnn_AM1.8Hz_45.m4a,,,
,,,,,40666,2021-05-10_21h21.51.732,judgeSpeechMusic_20210407_logNormShiftAmp,2020.1.2,MacIntel,60,,,,,,,,,,,,,,,,,,,,,,,,,,1,5.95566,1,1,1,107,257,105,1,stimuli/stim_20210407_power2amp/equal_lnn_AM4.8Hz_28.m4a,1.34319,,
,,,,,40666,2021-05-10_21h21.51.732,judgeSpeechMusic_20210407_logNormShiftAmp,2020.1.2,MacIntel,60,,,,,,,,,,,,,,,,,,,,,,,,,,1,7.24042,,0,1,108,258,101,1,stimuli/stim_20210407_power2amp/equal_lnn_AM4.2Hz_43.m4a,,,
,,,,,40666,2021-05-10_21h21.51.732,judgeSpeechMusic_20210407_logNormShiftAmp,2020.1.2,MacIntel,60,,,,,,,,,,,,,,,,,,,,,,,,,,1,5.96932,,0,1,109,259,2,1,stimuli/stim_20210407_power2amp/equal_lnn_AM0.6Hz_62.m4a,,,
,,,,,40666,2021-05-10_21h21.51.732,judgeSpeechMusic_20210407_logNormShiftAmp,2020.1.2,MacIntel,60,,,,,,,,,,,,,,,,,,,,,,,,,,1,5.83115,,0,1,110,260,73,1,stimuli/stim_20210407_power2amp/equal_lnn_AM3Hz_22.m4a,,,
,,,,,40666,2021-05-10_21h21.51.732,judgeSpeechMusic_20210407_logNormShiftAmp,2020.1.2,MacIntel,60,,,,,,,,,,,,,,,,,,,,,,,,,,1,5.80116,,0,1,111,261,32,1,stimuli/stim_20210407_power2amp/equal_lnn_AM1.8Hz_59.m4a,,,
,,,,,40666,2021-05-10_21h21.51.732,judgeSpeechMusic_20210407_logNormShiftAmp,2020.1.2,MacIntel,60,,,,,,,,,,,,,,,,,,,,,,,,,,1,6.49292,,0,1,112,262,110,1,stimuli/stim_20210407_power2amp/equal_lnn_AM4.8Hz_5.m4a,,,
,,,,,40666,2021-05-10_21h21.51.732,judgeSpeechMusic_20210407_logNormShiftAmp,2020.1.2,MacIntel,60,,,,,,,,,,,,,,,,,,,,,,,,,,2,5.700855,,0,1,113,263,63,1,stimuli/stim_20210407_power2amp/equal_lnn_AM3Hz_54.m4a,,,
,,,,,40666,2021-05-10_21h21.51.732,judgeSpeechMusic_20210407_logNormShiftAmp,2020.1.2,MacIntel,60,,,,,,,,,,,,,,,,,,,,,,,,,,2,8.631255,,0,1,114,264,42,1,stimuli/stim_20210407_power2amp/equal_lnn_AM1.8Hz_79.m4a,,,
,,,,,40666,2021-05-10_21h21.51.732,judgeSpeechMusic_20210407_logNormShiftAmp,2020.1.2,MacIntel,60,,,,,,,,,,,,,,,,,,,,,,,,,,1,5.79461,,0,1,115,265,74,1,stimuli/stim_20210407_power2amp/equal_lnn_AM3Hz_26.m4a,,,
,,,,,40666,2021-05-10_21h21.51.732,judgeSpeechMusic_20210407_logNormShiftAmp,2020.1.2,MacIntel,60,,,,,,,,,,,,,,,,,,,,,,,,,,2,5.814965,,0,1,116,266,69,1,stimuli/stim_20210407_power2amp/equal_lnn_AM3Hz_60.m4a,,,
,,,,,40666,2021-05-10_21h21.51.732,judgeSpeechMusic_20210407_logNormShiftAmp,2020.1.2,MacIntel,60,,,,,,,,,,,,,,,,,,,,,,,,,,1,6.11585,,0,1,117,267,107,1,stimuli/stim_20210407_power2amp/equal_lnn_AM4.8Hz_25.m4a,,,
,,,,,40666,2021-05-10_21h21.51.732,judgeSpeechMusic_20210407_logNormShiftAmp,2020.1.2,MacIntel,60,,,,,,,,,,,,,,,,,,,,,,,,,,1,5.82313,,0,1,118,268,139,1,stimuli/stim_20210407_power2amp/equal_lnn_AM6Hz_55.m4a,,,
,,,,,40666,2021-05-10_21h21.51.732,judgeSpeechMusic_20210407_logNormShiftAmp,2020.1.2,MacIntel,60,,,,,,,,,,,,,,,,,,,,,,,,,,1,10.295345,,0,1,119,269,88,1,stimuli/stim_20210407_power2amp/equal_lnn_AM3.6Hz_40.m4a,,,
,,,,,40666,2021-05-10_21h21.51.732,judgeSpeechMusic_20210407_logNormShiftAmp,2020.1.2,MacIntel,60,,,,,,,,,,,,,,,,,,,,,,,,,,2,6.657725,,0,1,120,270,54,1,stimuli/stim_20210407_power2amp/equal_lnn_AM2.4Hz_81.m4a,,,
,,,,,40666,2021-05-10_21h21.51.732,judgeSpeechMusic_20210407_logNormShiftAmp,2020.1.2,MacIntel,60,,,,,,,,,,,,,,,,,,,,,,,,,,1,5.69658,,0,1,121,271,138,1,stimuli/stim_20210407_power2amp/equal_lnn_AM6Hz_59.m4a,,,
,,,,,40666,2021-05-10_21h21.51.732,judgeSpeechMusic_20210407_logNormShiftAmp,2020.1.2,MacIntel,60,,,,,,,,,,,,,,,,,,,,,,,,,,1,6.101805,,0,1,122,272,13,1,stimuli/stim_20210407_power2amp/equal_lnn_AM0.6Hz_79.m4a,,,
,,,,,40666,2021-05-10_21h21.51.732,judgeSpeechMusic_20210407_logNormShiftAmp,2020.1.2,MacIntel,60,,,,,,,,,,,,,,,,,,,,,,,,,,2,6.074385,,0,1,123,273,49,1,stimuli/stim_20210407_power2amp/equal_lnn_AM2.4Hz_94.m4a,,,
,,,,,40666,2021-05-10_21h21.51.732,judgeSpeechMusic_20210407_logNormShiftAmp,2020.1.2,MacIntel,60,,,,,,,,,,,,,,,,,,,,,,,,,,2,7.94768,,0,1,124,274,40,1,stimuli/stim_20210407_power2amp/equal_lnn_AM1.8Hz_85.m4a,,,
,,,,,40666,2021-05-10_21h21.51.732,judgeSpeechMusic_20210407_logNormShiftAmp,2020.1.2,MacIntel,60,,,,,,,,,,,,,,,,,,,,,,,,,,1,6.21567,,0,1,125,275,93,1,stimuli/stim_20210407_power2amp/equal_lnn_AM4.2Hz_42.m4a,,,
,,,,,40666,2021-05-10_21h21.51.732,judgeSpeechMusic_20210407_logNormShiftAmp,2020.1.2,MacIntel,60,,,,,,,,,,,,,,,,,,,,,,,,,,1,6.354185,,0,1,126,276,27,1,stimuli/stim_20210407_power2amp/equal_lnn_AM1.2Hz_11.m4a,,,
,,,,,40666,2021-05-10_21h21.51.732,judgeSpeechMusic_20210407_logNormShiftAmp,2020.1.2,MacIntel,60,,,,,,,,,,,,,,,,,,,,,,,,,,1,5.71714,,0,1,127,277,97,1,stimuli/stim_20210407_power2amp/equal_lnn_AM4.2Hz_12.m4a,,,
,,,,,40666,2021-05-10_21h21.51.732,judgeSpeechMusic_20210407_logNormShiftAmp,2020.1.2,MacIntel,60,,,,,,,,,,,,,,,,,,,,,,,,,,1,5.738365,,0,1,128,278,104,1,stimuli/stim_20210407_power2amp/equal_lnn_AM4.2Hz_74.m4a,,,
,,,,,40666,2021-05-10_21h21.51.732,judgeSpeechMusic_20210407_logNormShiftAmp,2020.1.2,MacIntel,60,,,,,,,,,,,,,,,,,,,,,,,,,,1,8.14612,,0,1,129,279,50,1,stimuli/stim_20210407_power2amp/equal_lnn_AM2.4Hz_67.m4a,,,
,,,,,40666,2021-05-10_21h21.51.732,judgeSpeechMusic_20210407_logNormShiftAmp,2020.1.2,MacIntel,60,,,,,,,,,,,,,,,,,,,,,,,,,,1,5.90304,1,1,1,130,280,75,1,stimuli/stim_20210407_power2amp/equal_lnn_AM3.6Hz_47.m4a,1.08227,,
,,,,,40666,2021-05-10_21h21.51.732,judgeSpeechMusic_20210407_logNormShiftAmp,2020.1.2,MacIntel,60,,,,,,,,,,,,,,,,,,,,,,,,,,1,6.115475,,0,1,131,281,1,1,stimuli/stim_20210407_power2amp/equal_lnn_AM0.6Hz_17.m4a,,,
,,,,,40666,2021-05-10_21h21.51.732,judgeSpeechMusic_20210407_logNormShiftAmp,2020.1.2,MacIntel,60,,,,,,,,,,,,,,,,,,,,,,,,,,1,5.683765,,0,1,132,282,117,1,stimuli/stim_20210407_power2amp/equal_lnn_AM4.8Hz_14.m4a,,,
,,,,,40666,2021-05-10_21h21.51.732,judgeSpeechMusic_20210407_logNormShiftAmp,2020.1.2,MacIntel,60,,,,,,,,,,,,,,,,,,,,,,,,,,1,8.300335,,0,1,133,283,98,1,stimuli/stim_20210407_power2amp/equal_lnn_AM4.2Hz_92.m4a,,,
,,,,,40666,2021-05-10_21h21.51.732,judgeSpeechMusic_20210407_logNormShiftAmp,2020.1.2,MacIntel,60,,,,,,,,,,,,,,,,,,,,,,,,,,1,6.55952,,0,1,134,284,0,1,stimuli/stim_20210407_power2amp/equal_lnn_AM0.6Hz_67.m4a,,,
,,,,,40666,2021-05-10_21h21.51.732,judgeSpeechMusic_20210407_logNormShiftAmp,2020.1.2,MacIntel,60,,,,,,,,,,,,,,,,,,,,,,,,,,1,5.902245,,0,1,135,285,9,1,stimuli/stim_20210407_power2amp/equal_lnn_AM0.6Hz_4.m4a,,,
,,,,,40666,2021-05-10_21h21.51.732,judgeSpeechMusic_20210407_logNormShiftAmp,2020.1.2,MacIntel,60,,,,,,,,,,,,,,,,,,,,,,,,,,1,5.708425,,0,1,136,286,111,1,stimuli/stim_20210407_power2amp/equal_lnn_AM4.8Hz_38.m4a,,,
,,,,,40666,2021-05-10_21h21.51.732,judgeSpeechMusic_20210407_logNormShiftAmp,2020.1.2,MacIntel,60,,,,,,,,,,,,,,,,,,,,,,,,,,1,6.87886,,0,1,137,287,136,1,stimuli/stim_20210407_power2amp/equal_lnn_AM6Hz_65.m4a,,,
,,,,,40666,2021-05-10_21h21.51.732,judgeSpeechMusic_20210407_logNormShiftAmp,2020.1.2,MacIntel,60,,,,,,,,,,,,,,,,,,,,,,,,,,2,5.918505,,0,1,138,288,71,1,stimuli/stim_20210407_power2amp/equal_lnn_AM3Hz_31.m4a,,,
,,,,,40666,2021-05-10_21h21.51.732,judgeSpeechMusic_20210407_logNormShiftAmp,2020.1.2,MacIntel,60,,,,,,,,,,,,,,,,,,,,,,,,,,1,5.893525,,0,1,139,289,135,1,stimuli/stim_20210407_power2amp/equal_lnn_AM6Hz_22.m4a,,,
,,,,,40666,2021-05-10_21h21.51.732,judgeSpeechMusic_20210407_logNormShiftAmp,2020.1.2,MacIntel,60,,,,,,,,,,,,,,,,,,,,,,,,,,1,9.047735,,0,1,140,290,128,1,stimuli/stim_20210407_power2amp/equal_lnn_AM5.4Hz_3.m4a,,,
,,,,,40666,2021-05-10_21h21.51.732,judgeSpeechMusic_20210407_logNormShiftAmp,2020.1.2,MacIntel,60,,,,,,,,,,,,,,,,,,,,,,,,,,2,6.29585,,0,1,141,291,34,1,stimuli/stim_20210407_power2amp/equal_lnn_AM1.8Hz_51.m4a,,,
,,,,,40666,2021-05-10_21h21.51.732,judgeSpeechMusic_20210407_logNormShiftAmp,2020.1.2,MacIntel,60,,,,,,,,,,,,,,,,,,,,,,,,,,1,5.684855,,0,1,142,292,12,1,stimuli/stim_20210407_power2amp/equal_lnn_AM0.6Hz_14.m4a,,,
,,,,,40666,2021-05-10_21h21.51.732,judgeSpeechMusic_20210407_logNormShiftAmp,2020.1.2,MacIntel,60,,,,,,,,,,,,,,,,,,,,,,,,,,2,7.009155,,0,1,143,293,55,1,stimuli/stim_20210407_power2amp/equal_lnn_AM2.4Hz_1.m4a,,,
,,,,,40666,2021-05-10_21h21.51.732,judgeSpeechMusic_20210407_logNormShiftAmp,2020.1.2,MacIntel,60,,,,,,,,,,,,,,,,,,,,,,,,,,1,5.668285,,0,1,144,294,137,1,stimuli/stim_20210407_power2amp/equal_lnn_AM6Hz_87.m4a,,,
,,,,,40666,2021-05-10_21h21.51.732,judgeSpeechMusic_20210407_logNormShiftAmp,2020.1.2,MacIntel,60,,,,,,,,,,,,,,,,,,,,,,,,,,1,6.129505,,0,1,145,295,141,1,stimuli/stim_20210407_power2amp/equal_lnn_AM6Hz_25.m4a,,,
,,,,,40666,2021-05-10_21h21.51.732,judgeSpeechMusic_20210407_logNormShiftAmp,2020.1.2,MacIntel,60,,,,,,,,,,,,,,,,,,,,,,,,,,2,5.749755,,0,1,146,296,76,1,stimuli/stim_20210407_power2amp/equal_lnn_AM3.6Hz_72.m4a,,,
,,,,,40666,2021-05-10_21h21.51.732,judgeSpeechMusic_20210407_logNormShiftAmp,2020.1.2,MacIntel,60,,,,,,,,,,,,,,,,,,,,,,,,,,1,5.65187,,0,1,147,297,91,1,stimuli/stim_20210407_power2amp/equal_lnn_AM4.2Hz_17.m4a,,,
,,,,,40666,2021-05-10_21h21.51.732,judgeSpeechMusic_20210407_logNormShiftAmp,2020.1.2,MacIntel,60,,,,,,,,,,,,,,,,,,,,,,,,,,1,5.75467,,0,1,148,298,23,1,stimuli/stim_20210407_power2amp/equal_lnn_AM1.2Hz_68.m4a,,,
,,,,,40666,2021-05-10_21h21.51.732,judgeSpeechMusic_20210407_logNormShiftAmp,2020.1.2,MacIntel,60,,,,,,,,,,,,,,,,,,,,,,,,,,1,5.818635,,0,1,149,299,28,1,stimuli/stim_20210407_power2amp/equal_lnn_AM1.2Hz_27.m4a,,,
,,,,,40666,2021-05-10_21h21.51.732,judgeSpeechMusic_20210407_logNormShiftAmp,2020.1.2,MacIntel,60,,,,,,,,,,,,,,,,,,,,,,,,,,,,,,,,,,,,,space,3.1473
