volAdjustRep.thisRepN,volAdjustRep.thisTrialN,volAdjustRep.thisN,volAdjustRep.thisIndex,volAdjustRep.ran,participant,date,expName,psychopyVersion,OS,frameRate,headphoneResponse.keys,headphoneResponse.corr,headphoneResponse.rt,headphoneTrial.thisRepN,headphoneTrial.thisTrialN,headphoneTrial.thisN,headphoneTrial.thisIndex,headphoneTrial.ran,headphone_sound1,headphone_sound2,headphone_sound3,corrAns,trainSlider.response,trainSlider.rt,beepTrainResponse.keys,beepTrainResponse.corr,trainingTrials.thisRepN,trainingTrials.thisTrialN,trainingTrials.thisN,trainingTrials.thisIndex,trainingTrials.ran,trainAudioFile,beepTrainResponse.rt,readyReal_resp.keys,readyReal_resp.rt,ratingSlider.response,ratingSlider.rt,beepResp.keys,beepResp.corr,expTrials.thisRepN,expTrials.thisTrialN,expTrials.thisN,expTrials.thisIndex,expTrials.ran,audioFile,beepResp.rt,end_resp.keys,end_resp.rt
0,0,0,0,1,40685,2021-04-27_18h46.10.192,judgeSpeechMusic_20210407_logNormShiftAmp,2020.1.2,MacIntel,60,,,,,,,,,,,,,,,,,,,,,,,,,,,,,,,,,,,,,,
,,,,,40685,2021-04-27_18h46.10.192,judgeSpeechMusic_20210407_logNormShiftAmp,2020.1.2,MacIntel,60,3,1,2.475265,0,0,0,0,1,stimuli/screen_antiphase.wav,stimuli/screen_origin.wav,stimuli/screen_quiet.wav,3,,,,,,,,,,,,,,,,,,,,,,,,,,
,,,,,40685,2021-04-27_18h46.10.192,judgeSpeechMusic_20210407_logNormShiftAmp,2020.1.2,MacIntel,60,2,1,0.74766,0,1,1,1,1,stimuli/screen_antiphase.wav,stimuli/screen_quiet.wav,stimuli/screen_origin.wav,2,,,,,,,,,,,,,,,,,,,,,,,,,,
,,,,,40685,2021-04-27_18h46.10.192,judgeSpeechMusic_20210407_logNormShiftAmp,2020.1.2,MacIntel,60,1,1,0.73307,0,2,2,4,1,stimuli/screen_quiet.wav,stimuli/screen_antiphase.wav,stimuli/screen_origin.wav,1,,,,,,,,,,,,,,,,,,,,,,,,,,
,,,,,40685,2021-04-27_18h46.10.192,judgeSpeechMusic_20210407_logNormShiftAmp,2020.1.2,MacIntel,60,3,1,0.651165,0,3,3,2,1,stimuli/screen_origin.wav,stimuli/screen_antiphase.wav,stimuli/screen_quiet.wav,3,,,,,,,,,,,,,,,,,,,,,,,,,,
,,,,,40685,2021-04-27_18h46.10.192,judgeSpeechMusic_20210407_logNormShiftAmp,2020.1.2,MacIntel,60,1,1,0.68032,0,4,4,5,1,stimuli/screen_quiet.wav,stimuli/screen_origin.wav,stimuli/screen_antiphase.wav,1,,,,,,,,,,,,,,,,,,,,,,,,,,
,,,,,40685,2021-04-27_18h46.10.192,judgeSpeechMusic_20210407_logNormShiftAmp,2020.1.2,MacIntel,60,2,1,0.52981,0,5,5,3,1,stimuli/screen_origin.wav,stimuli/screen_quiet.wav,stimuli/screen_antiphase.wav,2,,,,,,,,,,,,,,,,,,,,,,,,,,
,,,,,40685,2021-04-27_18h46.10.192,judgeSpeechMusic_20210407_logNormShiftAmp,2020.1.2,MacIntel,60,,,,,,,,,,,,,1,9.9956,,0,0,0,0,0,1,stimuli/stim_20210407_power2amp/equal_lnn_AM_training1.5Hz.m4a,,,,,,,,,,,,,,,,
,,,,,40685,2021-04-27_18h46.10.192,judgeSpeechMusic_20210407_logNormShiftAmp,2020.1.2,MacIntel,60,,,,,,,,,,,,,1,10.421395,,0,0,1,1,1,1,stimuli/stim_20210407_power2amp/equal_lnn_AM_training2.7Hz.m4a,,,,,,,,,,,,,,,,
,,,,,40685,2021-04-27_18h46.10.192,judgeSpeechMusic_20210407_logNormShiftAmp,2020.1.2,MacIntel,60,,,,,,,,,,,,,1,6.32799,2,1,0,2,2,2,1,stimuli/stim_20210407_power2amp/equal_lnn_AM_training3.9Hz.m4a,1.725205,,,,,,,,,,,,,,,
,,,,,40685,2021-04-27_18h46.10.192,judgeSpeechMusic_20210407_logNormShiftAmp,2020.1.2,MacIntel,60,,,,,,,,,,,,,2,6.62536,,0,0,3,3,3,1,stimuli/stim_20210407_power2amp/equal_lnn_AM_training5.1Hz.m4a,,,,,,,,,,,,,,,,
,,,,,40685,2021-04-27_18h46.10.192,judgeSpeechMusic_20210407_logNormShiftAmp,2020.1.2,MacIntel,60,,,,,,,,,,,,,,,,,,,,,,,,space,4.28991,1,7.24634,,0,0,0,0,139,1,stimuli/stim_20210407_power2amp/equal_lnn_AM6Hz_44.m4a,,,
,,,,,40685,2021-04-27_18h46.10.192,judgeSpeechMusic_20210407_logNormShiftAmp,2020.1.2,MacIntel,60,,,,,,,,,,,,,,,,,,,,,,,,,,1,6.29251,,0,0,1,1,92,1,stimuli/stim_20210407_power2amp/equal_lnn_AM4.2Hz_40.m4a,,,
,,,,,40685,2021-04-27_18h46.10.192,judgeSpeechMusic_20210407_logNormShiftAmp,2020.1.2,MacIntel,60,,,,,,,,,,,,,,,,,,,,,,,,,,1,6.3082,,0,0,2,2,20,1,stimuli/stim_20210407_power2amp/equal_lnn_AM1.2Hz_97.m4a,,,
,,,,,40685,2021-04-27_18h46.10.192,judgeSpeechMusic_20210407_logNormShiftAmp,2020.1.2,MacIntel,60,,,,,,,,,,,,,,,,,,,,,,,,,,1,6.055905,,0,0,3,3,42,1,stimuli/stim_20210407_power2amp/equal_lnn_AM1.8Hz_32.m4a,,,
,,,,,40685,2021-04-27_18h46.10.192,judgeSpeechMusic_20210407_logNormShiftAmp,2020.1.2,MacIntel,60,,,,,,,,,,,,,,,,,,,,,,,,,,1,6.362455,,0,0,4,4,49,1,stimuli/stim_20210407_power2amp/equal_lnn_AM2.4Hz_20.m4a,,,
,,,,,40685,2021-04-27_18h46.10.192,judgeSpeechMusic_20210407_logNormShiftAmp,2020.1.2,MacIntel,60,,,,,,,,,,,,,,,,,,,,,,,,,,2,6.677225,,0,0,5,5,148,1,stimuli/stim_20210407_power2amp/equal_lnn_AM6Hz_42.m4a,,,
,,,,,40685,2021-04-27_18h46.10.192,judgeSpeechMusic_20210407_logNormShiftAmp,2020.1.2,MacIntel,60,,,,,,,,,,,,,,,,,,,,,,,,,,2,7.006285,,0,0,6,6,72,1,stimuli/stim_20210407_power2amp/equal_lnn_AM3Hz_70.m4a,,,
,,,,,40685,2021-04-27_18h46.10.192,judgeSpeechMusic_20210407_logNormShiftAmp,2020.1.2,MacIntel,60,,,,,,,,,,,,,,,,,,,,,,,,,,1,5.94066,,0,0,7,7,23,1,stimuli/stim_20210407_power2amp/equal_lnn_AM1.2Hz_96.m4a,,,
,,,,,40685,2021-04-27_18h46.10.192,judgeSpeechMusic_20210407_logNormShiftAmp,2020.1.2,MacIntel,60,,,,,,,,,,,,,,,,,,,,,,,,,,2,6.160405,,0,0,8,8,73,1,stimuli/stim_20210407_power2amp/equal_lnn_AM3Hz_96.m4a,,,
,,,,,40685,2021-04-27_18h46.10.192,judgeSpeechMusic_20210407_logNormShiftAmp,2020.1.2,MacIntel,60,,,,,,,,,,,,,,,,,,,,,,,,,,1,5.87418,,0,0,9,9,48,1,stimuli/stim_20210407_power2amp/equal_lnn_AM2.4Hz_24.m4a,,,
,,,,,40685,2021-04-27_18h46.10.192,judgeSpeechMusic_20210407_logNormShiftAmp,2020.1.2,MacIntel,60,,,,,,,,,,,,,,,,,,,,,,,,,,2,5.86028,,0,0,10,10,147,1,stimuli/stim_20210407_power2amp/equal_lnn_AM6Hz_83.m4a,,,
,,,,,40685,2021-04-27_18h46.10.192,judgeSpeechMusic_20210407_logNormShiftAmp,2020.1.2,MacIntel,60,,,,,,,,,,,,,,,,,,,,,,,,,,2,6.459535,,0,0,11,11,143,1,stimuli/stim_20210407_power2amp/equal_lnn_AM6Hz_96.m4a,,,
,,,,,40685,2021-04-27_18h46.10.192,judgeSpeechMusic_20210407_logNormShiftAmp,2020.1.2,MacIntel,60,,,,,,,,,,,,,,,,,,,,,,,,,,2,6.05955,,0,0,12,12,91,1,stimuli/stim_20210407_power2amp/equal_lnn_AM4.2Hz_19.m4a,,,
,,,,,40685,2021-04-27_18h46.10.192,judgeSpeechMusic_20210407_logNormShiftAmp,2020.1.2,MacIntel,60,,,,,,,,,,,,,,,,,,,,,,,,,,2,5.67363,,0,0,13,13,146,1,stimuli/stim_20210407_power2amp/equal_lnn_AM6Hz_92.m4a,,,
,,,,,40685,2021-04-27_18h46.10.192,judgeSpeechMusic_20210407_logNormShiftAmp,2020.1.2,MacIntel,60,,,,,,,,,,,,,,,,,,,,,,,,,,1,6.47697,,0,0,14,14,21,1,stimuli/stim_20210407_power2amp/equal_lnn_AM1.2Hz_55.m4a,,,
,,,,,40685,2021-04-27_18h46.10.192,judgeSpeechMusic_20210407_logNormShiftAmp,2020.1.2,MacIntel,60,,,,,,,,,,,,,,,,,,,,,,,,,,2,5.908145,,0,0,15,15,114,1,stimuli/stim_20210407_power2amp/equal_lnn_AM4.8Hz_89.m4a,,,
,,,,,40685,2021-04-27_18h46.10.192,judgeSpeechMusic_20210407_logNormShiftAmp,2020.1.2,MacIntel,60,,,,,,,,,,,,,,,,,,,,,,,,,,1,6.108435,,0,0,16,16,37,1,stimuli/stim_20210407_power2amp/equal_lnn_AM1.8Hz_20.m4a,,,
,,,,,40685,2021-04-27_18h46.10.192,judgeSpeechMusic_20210407_logNormShiftAmp,2020.1.2,MacIntel,60,,,,,,,,,,,,,,,,,,,,,,,,,,1,6.44327,,0,0,17,17,87,1,stimuli/stim_20210407_power2amp/equal_lnn_AM3.6Hz_24.m4a,,,
,,,,,40685,2021-04-27_18h46.10.192,judgeSpeechMusic_20210407_logNormShiftAmp,2020.1.2,MacIntel,60,,,,,,,,,,,,,,,,,,,,,,,,,,1,6.326275,,0,0,18,18,80,1,stimuli/stim_20210407_power2amp/equal_lnn_AM3.6Hz_73.m4a,,,
,,,,,40685,2021-04-27_18h46.10.192,judgeSpeechMusic_20210407_logNormShiftAmp,2020.1.2,MacIntel,60,,,,,,,,,,,,,,,,,,,,,,,,,,1,6.04,,0,0,19,19,113,1,stimuli/stim_20210407_power2amp/equal_lnn_AM4.8Hz_99.m4a,,,
,,,,,40685,2021-04-27_18h46.10.192,judgeSpeechMusic_20210407_logNormShiftAmp,2020.1.2,MacIntel,60,,,,,,,,,,,,,,,,,,,,,,,,,,1,5.829925,,0,0,20,20,118,1,stimuli/stim_20210407_power2amp/equal_lnn_AM4.8Hz_23.m4a,,,
,,,,,40685,2021-04-27_18h46.10.192,judgeSpeechMusic_20210407_logNormShiftAmp,2020.1.2,MacIntel,60,,,,,,,,,,,,,,,,,,,,,,,,,,1,5.828385,,0,0,21,21,9,1,stimuli/stim_20210407_power2amp/equal_lnn_AM0.6Hz_27.m4a,,,
,,,,,40685,2021-04-27_18h46.10.192,judgeSpeechMusic_20210407_logNormShiftAmp,2020.1.2,MacIntel,60,,,,,,,,,,,,,,,,,,,,,,,,,,2,6.126335,,0,0,22,22,135,1,stimuli/stim_20210407_power2amp/equal_lnn_AM6Hz_67.m4a,,,
,,,,,40685,2021-04-27_18h46.10.192,judgeSpeechMusic_20210407_logNormShiftAmp,2020.1.2,MacIntel,60,,,,,,,,,,,,,,,,,,,,,,,,,,1,5.71199,,0,0,23,23,54,1,stimuli/stim_20210407_power2amp/equal_lnn_AM2.4Hz_22.m4a,,,
,,,,,40685,2021-04-27_18h46.10.192,judgeSpeechMusic_20210407_logNormShiftAmp,2020.1.2,MacIntel,60,,,,,,,,,,,,,,,,,,,,,,,,,,1,5.996535,,0,0,24,24,28,1,stimuli/stim_20210407_power2amp/equal_lnn_AM1.2Hz_8.m4a,,,
,,,,,40685,2021-04-27_18h46.10.192,judgeSpeechMusic_20210407_logNormShiftAmp,2020.1.2,MacIntel,60,,,,,,,,,,,,,,,,,,,,,,,,,,2,5.910945,,0,0,25,25,124,1,stimuli/stim_20210407_power2amp/equal_lnn_AM5.4Hz_63.m4a,,,
,,,,,40685,2021-04-27_18h46.10.192,judgeSpeechMusic_20210407_logNormShiftAmp,2020.1.2,MacIntel,60,,,,,,,,,,,,,,,,,,,,,,,,,,2,6.109995,,0,0,26,26,99,1,stimuli/stim_20210407_power2amp/equal_lnn_AM4.2Hz_79.m4a,,,
,,,,,40685,2021-04-27_18h46.10.192,judgeSpeechMusic_20210407_logNormShiftAmp,2020.1.2,MacIntel,60,,,,,,,,,,,,,,,,,,,,,,,,,,2,5.86051,,0,0,27,27,108,1,stimuli/stim_20210407_power2amp/equal_lnn_AM4.8Hz_66.m4a,,,
,,,,,40685,2021-04-27_18h46.10.192,judgeSpeechMusic_20210407_logNormShiftAmp,2020.1.2,MacIntel,60,,,,,,,,,,,,,,,,,,,,,,,,,,2,5.67618,,0,0,28,28,121,1,stimuli/stim_20210407_power2amp/equal_lnn_AM5.4Hz_39.m4a,,,
,,,,,40685,2021-04-27_18h46.10.192,judgeSpeechMusic_20210407_logNormShiftAmp,2020.1.2,MacIntel,60,,,,,,,,,,,,,,,,,,,,,,,,,,2,5.8243,,0,0,29,29,131,1,stimuli/stim_20210407_power2amp/equal_lnn_AM5.4Hz_41.m4a,,,
,,,,,40685,2021-04-27_18h46.10.192,judgeSpeechMusic_20210407_logNormShiftAmp,2020.1.2,MacIntel,60,,,,,,,,,,,,,,,,,,,,,,,,,,2,5.846695,,0,0,30,30,111,1,stimuli/stim_20210407_power2amp/equal_lnn_AM4.8Hz_70.m4a,,,
,,,,,40685,2021-04-27_18h46.10.192,judgeSpeechMusic_20210407_logNormShiftAmp,2020.1.2,MacIntel,60,,,,,,,,,,,,,,,,,,,,,,,,,,2,12.771945,,0,0,31,31,126,1,stimuli/stim_20210407_power2amp/equal_lnn_AM5.4Hz_27.m4a,,,
,,,,,40685,2021-04-27_18h46.10.192,judgeSpeechMusic_20210407_logNormShiftAmp,2020.1.2,MacIntel,60,,,,,,,,,,,,,,,,,,,,,,,,,,1,6.127695,,0,0,32,32,75,1,stimuli/stim_20210407_power2amp/equal_lnn_AM3.6Hz_26.m4a,,,
,,,,,40685,2021-04-27_18h46.10.192,judgeSpeechMusic_20210407_logNormShiftAmp,2020.1.2,MacIntel,60,,,,,,,,,,,,,,,,,,,,,,,,,,2,7.275825,,0,0,33,33,89,1,stimuli/stim_20210407_power2amp/equal_lnn_AM3.6Hz_18.m4a,,,
,,,,,40685,2021-04-27_18h46.10.192,judgeSpeechMusic_20210407_logNormShiftAmp,2020.1.2,MacIntel,60,,,,,,,,,,,,,,,,,,,,,,,,,,1,5.860485,,0,0,34,34,59,1,stimuli/stim_20210407_power2amp/equal_lnn_AM2.4Hz_9.m4a,,,
,,,,,40685,2021-04-27_18h46.10.192,judgeSpeechMusic_20210407_logNormShiftAmp,2020.1.2,MacIntel,60,,,,,,,,,,,,,,,,,,,,,,,,,,1,6.34113,,0,0,35,35,11,1,stimuli/stim_20210407_power2amp/equal_lnn_AM0.6Hz_14.m4a,,,
,,,,,40685,2021-04-27_18h46.10.192,judgeSpeechMusic_20210407_logNormShiftAmp,2020.1.2,MacIntel,60,,,,,,,,,,,,,,,,,,,,,,,,,,2,6.946095,,0,0,36,36,79,1,stimuli/stim_20210407_power2amp/equal_lnn_AM3.6Hz_36.m4a,,,
,,,,,40685,2021-04-27_18h46.10.192,judgeSpeechMusic_20210407_logNormShiftAmp,2020.1.2,MacIntel,60,,,,,,,,,,,,,,,,,,,,,,,,,,2,6.145105,4,1,0,37,37,62,1,stimuli/stim_20210407_power2amp/equal_lnn_AM3Hz_87.m4a,2.57775,,
,,,,,40685,2021-04-27_18h46.10.192,judgeSpeechMusic_20210407_logNormShiftAmp,2020.1.2,MacIntel,60,,,,,,,,,,,,,,,,,,,,,,,,,,1,7.85841,,0,0,38,38,102,1,stimuli/stim_20210407_power2amp/equal_lnn_AM4.2Hz_99.m4a,,,
,,,,,40685,2021-04-27_18h46.10.192,judgeSpeechMusic_20210407_logNormShiftAmp,2020.1.2,MacIntel,60,,,,,,,,,,,,,,,,,,,,,,,,,,2,6.24245,,0,0,39,39,109,1,stimuli/stim_20210407_power2amp/equal_lnn_AM4.8Hz_35.m4a,,,
,,,,,40685,2021-04-27_18h46.10.192,judgeSpeechMusic_20210407_logNormShiftAmp,2020.1.2,MacIntel,60,,,,,,,,,,,,,,,,,,,,,,,,,,1,5.828835,,0,0,40,40,13,1,stimuli/stim_20210407_power2amp/equal_lnn_AM0.6Hz_89.m4a,,,
,,,,,40685,2021-04-27_18h46.10.192,judgeSpeechMusic_20210407_logNormShiftAmp,2020.1.2,MacIntel,60,,,,,,,,,,,,,,,,,,,,,,,,,,2,6.09149,,0,0,41,41,130,1,stimuli/stim_20210407_power2amp/equal_lnn_AM5.4Hz_47.m4a,,,
,,,,,40685,2021-04-27_18h46.10.192,judgeSpeechMusic_20210407_logNormShiftAmp,2020.1.2,MacIntel,60,,,,,,,,,,,,,,,,,,,,,,,,,,1,5.91268,,0,0,42,42,34,1,stimuli/stim_20210407_power2amp/equal_lnn_AM1.8Hz_2.m4a,,,
,,,,,40685,2021-04-27_18h46.10.192,judgeSpeechMusic_20210407_logNormShiftAmp,2020.1.2,MacIntel,60,,,,,,,,,,,,,,,,,,,,,,,,,,1,5.8591,,0,0,43,43,7,1,stimuli/stim_20210407_power2amp/equal_lnn_AM0.6Hz_18.m4a,,,
,,,,,40685,2021-04-27_18h46.10.192,judgeSpeechMusic_20210407_logNormShiftAmp,2020.1.2,MacIntel,60,,,,,,,,,,,,,,,,,,,,,,,,,,1,6.612885,,0,0,44,44,0,1,stimuli/stim_20210407_power2amp/equal_lnn_AM0.6Hz_60.m4a,,,
,,,,,40685,2021-04-27_18h46.10.192,judgeSpeechMusic_20210407_logNormShiftAmp,2020.1.2,MacIntel,60,,,,,,,,,,,,,,,,,,,,,,,,,,2,6.527665,,0,0,45,45,117,1,stimuli/stim_20210407_power2amp/equal_lnn_AM4.8Hz_95.m4a,,,
,,,,,40685,2021-04-27_18h46.10.192,judgeSpeechMusic_20210407_logNormShiftAmp,2020.1.2,MacIntel,60,,,,,,,,,,,,,,,,,,,,,,,,,,1,14.276955,,0,0,46,46,29,1,stimuli/stim_20210407_power2amp/equal_lnn_AM1.2Hz_4.m4a,,,
,,,,,40685,2021-04-27_18h46.10.192,judgeSpeechMusic_20210407_logNormShiftAmp,2020.1.2,MacIntel,60,,,,,,,,,,,,,,,,,,,,,,,,,,2,6.542635,,0,0,47,47,77,1,stimuli/stim_20210407_power2amp/equal_lnn_AM3.6Hz_95.m4a,,,
,,,,,40685,2021-04-27_18h46.10.192,judgeSpeechMusic_20210407_logNormShiftAmp,2020.1.2,MacIntel,60,,,,,,,,,,,,,,,,,,,,,,,,,,2,6.21052,,0,0,48,48,64,1,stimuli/stim_20210407_power2amp/equal_lnn_AM3Hz_30.m4a,,,
,,,,,40685,2021-04-27_18h46.10.192,judgeSpeechMusic_20210407_logNormShiftAmp,2020.1.2,MacIntel,60,,,,,,,,,,,,,,,,,,,,,,,,,,2,5.74547,,0,0,49,49,120,1,stimuli/stim_20210407_power2amp/equal_lnn_AM5.4Hz_12.m4a,,,
,,,,,40685,2021-04-27_18h46.10.192,judgeSpeechMusic_20210407_logNormShiftAmp,2020.1.2,MacIntel,60,,,,,,,,,,,,,,,,,,,,,,,,,,2,7.360455,,0,0,50,50,76,1,stimuli/stim_20210407_power2amp/equal_lnn_AM3.6Hz_66.m4a,,,
,,,,,40685,2021-04-27_18h46.10.192,judgeSpeechMusic_20210407_logNormShiftAmp,2020.1.2,MacIntel,60,,,,,,,,,,,,,,,,,,,,,,,,,,2,6.55741,,0,0,51,51,104,1,stimuli/stim_20210407_power2amp/equal_lnn_AM4.2Hz_85.m4a,,,
,,,,,40685,2021-04-27_18h46.10.192,judgeSpeechMusic_20210407_logNormShiftAmp,2020.1.2,MacIntel,60,,,,,,,,,,,,,,,,,,,,,,,,,,1,5.808675,,0,0,52,52,60,1,stimuli/stim_20210407_power2amp/equal_lnn_AM3Hz_28.m4a,,,
,,,,,40685,2021-04-27_18h46.10.192,judgeSpeechMusic_20210407_logNormShiftAmp,2020.1.2,MacIntel,60,,,,,,,,,,,,,,,,,,,,,,,,,,1,7.79266,,0,0,53,53,83,1,stimuli/stim_20210407_power2amp/equal_lnn_AM3.6Hz_57.m4a,,,
,,,,,40685,2021-04-27_18h46.10.192,judgeSpeechMusic_20210407_logNormShiftAmp,2020.1.2,MacIntel,60,,,,,,,,,,,,,,,,,,,,,,,,,,2,5.69592,,0,0,54,54,141,1,stimuli/stim_20210407_power2amp/equal_lnn_AM6Hz_87.m4a,,,
,,,,,40685,2021-04-27_18h46.10.192,judgeSpeechMusic_20210407_logNormShiftAmp,2020.1.2,MacIntel,60,,,,,,,,,,,,,,,,,,,,,,,,,,1,5.927705,,0,0,55,55,40,1,stimuli/stim_20210407_power2amp/equal_lnn_AM1.8Hz_75.m4a,,,
,,,,,40685,2021-04-27_18h46.10.192,judgeSpeechMusic_20210407_logNormShiftAmp,2020.1.2,MacIntel,60,,,,,,,,,,,,,,,,,,,,,,,,,,2,5.82892,,0,0,56,56,129,1,stimuli/stim_20210407_power2amp/equal_lnn_AM5.4Hz_14.m4a,,,
,,,,,40685,2021-04-27_18h46.10.192,judgeSpeechMusic_20210407_logNormShiftAmp,2020.1.2,MacIntel,60,,,,,,,,,,,,,,,,,,,,,,,,,,1,5.71087,1,1,0,57,57,3,1,stimuli/stim_20210407_power2amp/equal_lnn_AM0.6Hz_32.m4a,1.645305,,
,,,,,40685,2021-04-27_18h46.10.192,judgeSpeechMusic_20210407_logNormShiftAmp,2020.1.2,MacIntel,60,,,,,,,,,,,,,,,,,,,,,,,,,,1,5.758245,,0,0,58,58,96,1,stimuli/stim_20210407_power2amp/equal_lnn_AM4.2Hz_58.m4a,,,
,,,,,40685,2021-04-27_18h46.10.192,judgeSpeechMusic_20210407_logNormShiftAmp,2020.1.2,MacIntel,60,,,,,,,,,,,,,,,,,,,,,,,,,,1,5.692125,,0,0,59,59,22,1,stimuli/stim_20210407_power2amp/equal_lnn_AM1.2Hz_74.m4a,,,
,,,,,40685,2021-04-27_18h46.10.192,judgeSpeechMusic_20210407_logNormShiftAmp,2020.1.2,MacIntel,60,,,,,,,,,,,,,,,,,,,,,,,,,,1,6.35819,,0,0,60,60,85,1,stimuli/stim_20210407_power2amp/equal_lnn_AM3.6Hz_1.m4a,,,
,,,,,40685,2021-04-27_18h46.10.192,judgeSpeechMusic_20210407_logNormShiftAmp,2020.1.2,MacIntel,60,,,,,,,,,,,,,,,,,,,,,,,,,,2,6.54114,,0,0,61,61,51,1,stimuli/stim_20210407_power2amp/equal_lnn_AM2.4Hz_43.m4a,,,
,,,,,40685,2021-04-27_18h46.10.192,judgeSpeechMusic_20210407_logNormShiftAmp,2020.1.2,MacIntel,60,,,,,,,,,,,,,,,,,,,,,,,,,,1,6.579605,,0,0,62,62,6,1,stimuli/stim_20210407_power2amp/equal_lnn_AM0.6Hz_56.m4a,,,
,,,,,40685,2021-04-27_18h46.10.192,judgeSpeechMusic_20210407_logNormShiftAmp,2020.1.2,MacIntel,60,,,,,,,,,,,,,,,,,,,,,,,,,,1,5.74567,,0,0,63,63,43,1,stimuli/stim_20210407_power2amp/equal_lnn_AM1.8Hz_56.m4a,,,
,,,,,40685,2021-04-27_18h46.10.192,judgeSpeechMusic_20210407_logNormShiftAmp,2020.1.2,MacIntel,60,,,,,,,,,,,,,,,,,,,,,,,,,,1,5.77807,,0,0,64,64,18,1,stimuli/stim_20210407_power2amp/equal_lnn_AM1.2Hz_24.m4a,,,
,,,,,40685,2021-04-27_18h46.10.192,judgeSpeechMusic_20210407_logNormShiftAmp,2020.1.2,MacIntel,60,,,,,,,,,,,,,,,,,,,,,,,,,,1,5.645115,,0,0,65,65,53,1,stimuli/stim_20210407_power2amp/equal_lnn_AM2.4Hz_1.m4a,,,
,,,,,40685,2021-04-27_18h46.10.192,judgeSpeechMusic_20210407_logNormShiftAmp,2020.1.2,MacIntel,60,,,,,,,,,,,,,,,,,,,,,,,,,,2,6.05971,,0,0,66,66,101,1,stimuli/stim_20210407_power2amp/equal_lnn_AM4.2Hz_1.m4a,,,
,,,,,40685,2021-04-27_18h46.10.192,judgeSpeechMusic_20210407_logNormShiftAmp,2020.1.2,MacIntel,60,,,,,,,,,,,,,,,,,,,,,,,,,,2,5.84124,,0,0,67,67,61,1,stimuli/stim_20210407_power2amp/equal_lnn_AM3Hz_13.m4a,,,
,,,,,40685,2021-04-27_18h46.10.192,judgeSpeechMusic_20210407_logNormShiftAmp,2020.1.2,MacIntel,60,,,,,,,,,,,,,,,,,,,,,,,,,,1,5.84664,,0,0,68,68,2,1,stimuli/stim_20210407_power2amp/equal_lnn_AM0.6Hz_92.m4a,,,
,,,,,40685,2021-04-27_18h46.10.192,judgeSpeechMusic_20210407_logNormShiftAmp,2020.1.2,MacIntel,60,,,,,,,,,,,,,,,,,,,,,,,,,,2,5.82643,,0,0,69,69,70,1,stimuli/stim_20210407_power2amp/equal_lnn_AM3Hz_50.m4a,,,
,,,,,40685,2021-04-27_18h46.10.192,judgeSpeechMusic_20210407_logNormShiftAmp,2020.1.2,MacIntel,60,,,,,,,,,,,,,,,,,,,,,,,,,,2,6.30838,,0,0,70,70,128,1,stimuli/stim_20210407_power2amp/equal_lnn_AM5.4Hz_3.m4a,,,
,,,,,40685,2021-04-27_18h46.10.192,judgeSpeechMusic_20210407_logNormShiftAmp,2020.1.2,MacIntel,60,,,,,,,,,,,,,,,,,,,,,,,,,,1,6.04322,,0,0,71,71,74,1,stimuli/stim_20210407_power2amp/equal_lnn_AM3Hz_34.m4a,,,
,,,,,40685,2021-04-27_18h46.10.192,judgeSpeechMusic_20210407_logNormShiftAmp,2020.1.2,MacIntel,60,,,,,,,,,,,,,,,,,,,,,,,,,,1,6.793645,,0,0,72,72,67,1,stimuli/stim_20210407_power2amp/equal_lnn_AM3Hz_74.m4a,,,
,,,,,40685,2021-04-27_18h46.10.192,judgeSpeechMusic_20210407_logNormShiftAmp,2020.1.2,MacIntel,60,,,,,,,,,,,,,,,,,,,,,,,,,,1,5.761735,,0,0,73,73,15,1,stimuli/stim_20210407_power2amp/equal_lnn_AM1.2Hz_72.m4a,,,
,,,,,40685,2021-04-27_18h46.10.192,judgeSpeechMusic_20210407_logNormShiftAmp,2020.1.2,MacIntel,60,,,,,,,,,,,,,,,,,,,,,,,,,,1,5.662535,,0,0,74,74,82,1,stimuli/stim_20210407_power2amp/equal_lnn_AM3.6Hz_67.m4a,,,
,,,,,40685,2021-04-27_18h46.10.192,judgeSpeechMusic_20210407_logNormShiftAmp,2020.1.2,MacIntel,60,,,,,,,,,,,,,,,,,,,,,,,,,,1,5.97721,,0,0,75,75,17,1,stimuli/stim_20210407_power2amp/equal_lnn_AM1.2Hz_90.m4a,,,
,,,,,40685,2021-04-27_18h46.10.192,judgeSpeechMusic_20210407_logNormShiftAmp,2020.1.2,MacIntel,60,,,,,,,,,,,,,,,,,,,,,,,,,,2,5.75788,,0,0,76,76,122,1,stimuli/stim_20210407_power2amp/equal_lnn_AM5.4Hz_34.m4a,,,
,,,,,40685,2021-04-27_18h46.10.192,judgeSpeechMusic_20210407_logNormShiftAmp,2020.1.2,MacIntel,60,,,,,,,,,,,,,,,,,,,,,,,,,,2,5.91319,2,1,0,77,77,88,1,stimuli/stim_20210407_power2amp/equal_lnn_AM3.6Hz_99.m4a,1.045235,,
,,,,,40685,2021-04-27_18h46.10.192,judgeSpeechMusic_20210407_logNormShiftAmp,2020.1.2,MacIntel,60,,,,,,,,,,,,,,,,,,,,,,,,,,2,5.70583,,0,0,78,78,134,1,stimuli/stim_20210407_power2amp/equal_lnn_AM5.4Hz_81.m4a,,,
,,,,,40685,2021-04-27_18h46.10.192,judgeSpeechMusic_20210407_logNormShiftAmp,2020.1.2,MacIntel,60,,,,,,,,,,,,,,,,,,,,,,,,,,2,7.32936,,0,0,79,79,78,1,stimuli/stim_20210407_power2amp/equal_lnn_AM3.6Hz_85.m4a,,,
,,,,,40685,2021-04-27_18h46.10.192,judgeSpeechMusic_20210407_logNormShiftAmp,2020.1.2,MacIntel,60,,,,,,,,,,,,,,,,,,,,,,,,,,2,5.923645,,0,0,80,80,107,1,stimuli/stim_20210407_power2amp/equal_lnn_AM4.8Hz_38.m4a,,,
,,,,,40685,2021-04-27_18h46.10.192,judgeSpeechMusic_20210407_logNormShiftAmp,2020.1.2,MacIntel,60,,,,,,,,,,,,,,,,,,,,,,,,,,1,5.96199,,0,0,81,81,55,1,stimuli/stim_20210407_power2amp/equal_lnn_AM2.4Hz_6.m4a,,,
,,,,,40685,2021-04-27_18h46.10.192,judgeSpeechMusic_20210407_logNormShiftAmp,2020.1.2,MacIntel,60,,,,,,,,,,,,,,,,,,,,,,,,,,1,5.82909,,0,0,82,82,52,1,stimuli/stim_20210407_power2amp/equal_lnn_AM2.4Hz_67.m4a,,,
,,,,,40685,2021-04-27_18h46.10.192,judgeSpeechMusic_20210407_logNormShiftAmp,2020.1.2,MacIntel,60,,,,,,,,,,,,,,,,,,,,,,,,,,2,5.75949,,0,0,83,83,97,1,stimuli/stim_20210407_power2amp/equal_lnn_AM4.2Hz_6.m4a,,,
,,,,,40685,2021-04-27_18h46.10.192,judgeSpeechMusic_20210407_logNormShiftAmp,2020.1.2,MacIntel,60,,,,,,,,,,,,,,,,,,,,,,,,,,1,5.91201,,0,0,84,84,50,1,stimuli/stim_20210407_power2amp/equal_lnn_AM2.4Hz_60.m4a,,,
,,,,,40685,2021-04-27_18h46.10.192,judgeSpeechMusic_20210407_logNormShiftAmp,2020.1.2,MacIntel,60,,,,,,,,,,,,,,,,,,,,,,,,,,2,5.81058,,0,0,85,85,132,1,stimuli/stim_20210407_power2amp/equal_lnn_AM5.4Hz_70.m4a,,,
,,,,,40685,2021-04-27_18h46.10.192,judgeSpeechMusic_20210407_logNormShiftAmp,2020.1.2,MacIntel,60,,,,,,,,,,,,,,,,,,,,,,,,,,2,5.77611,,0,0,86,86,140,1,stimuli/stim_20210407_power2amp/equal_lnn_AM6Hz_59.m4a,,,
,,,,,40685,2021-04-27_18h46.10.192,judgeSpeechMusic_20210407_logNormShiftAmp,2020.1.2,MacIntel,60,,,,,,,,,,,,,,,,,,,,,,,,,,2,5.76047,,0,0,87,87,71,1,stimuli/stim_20210407_power2amp/equal_lnn_AM3Hz_16.m4a,,,
,,,,,40685,2021-04-27_18h46.10.192,judgeSpeechMusic_20210407_logNormShiftAmp,2020.1.2,MacIntel,60,,,,,,,,,,,,,,,,,,,,,,,,,,2,5.72561,,0,0,88,88,86,1,stimuli/stim_20210407_power2amp/equal_lnn_AM3.6Hz_17.m4a,,,
,,,,,40685,2021-04-27_18h46.10.192,judgeSpeechMusic_20210407_logNormShiftAmp,2020.1.2,MacIntel,60,,,,,,,,,,,,,,,,,,,,,,,,,,2,5.74485,,0,0,89,89,116,1,stimuli/stim_20210407_power2amp/equal_lnn_AM4.8Hz_85.m4a,,,
,,,,,40685,2021-04-27_18h46.10.192,judgeSpeechMusic_20210407_logNormShiftAmp,2020.1.2,MacIntel,60,,,,,,,,,,,,,,,,,,,,,,,,,,2,5.662315,,0,0,90,90,103,1,stimuli/stim_20210407_power2amp/equal_lnn_AM4.2Hz_80.m4a,,,
,,,,,40685,2021-04-27_18h46.10.192,judgeSpeechMusic_20210407_logNormShiftAmp,2020.1.2,MacIntel,60,,,,,,,,,,,,,,,,,,,,,,,,,,1,5.69185,,0,0,91,91,36,1,stimuli/stim_20210407_power2amp/equal_lnn_AM1.8Hz_8.m4a,,,
,,,,,40685,2021-04-27_18h46.10.192,judgeSpeechMusic_20210407_logNormShiftAmp,2020.1.2,MacIntel,60,,,,,,,,,,,,,,,,,,,,,,,,,,1,6.0197,,0,0,92,92,39,1,stimuli/stim_20210407_power2amp/equal_lnn_AM1.8Hz_95.m4a,,,
,,,,,40685,2021-04-27_18h46.10.192,judgeSpeechMusic_20210407_logNormShiftAmp,2020.1.2,MacIntel,60,,,,,,,,,,,,,,,,,,,,,,,,,,1,6.995735,,0,0,93,93,30,1,stimuli/stim_20210407_power2amp/equal_lnn_AM1.8Hz_89.m4a,,,
,,,,,40685,2021-04-27_18h46.10.192,judgeSpeechMusic_20210407_logNormShiftAmp,2020.1.2,MacIntel,60,,,,,,,,,,,,,,,,,,,,,,,,,,2,6.25992,,0,0,94,94,138,1,stimuli/stim_20210407_power2amp/equal_lnn_AM6Hz_66.m4a,,,
,,,,,40685,2021-04-27_18h46.10.192,judgeSpeechMusic_20210407_logNormShiftAmp,2020.1.2,MacIntel,60,,,,,,,,,,,,,,,,,,,,,,,,,,1,5.70795,,0,0,95,95,63,1,stimuli/stim_20210407_power2amp/equal_lnn_AM3Hz_83.m4a,,,
,,,,,40685,2021-04-27_18h46.10.192,judgeSpeechMusic_20210407_logNormShiftAmp,2020.1.2,MacIntel,60,,,,,,,,,,,,,,,,,,,,,,,,,,1,5.77998,,0,0,96,96,12,1,stimuli/stim_20210407_power2amp/equal_lnn_AM0.6Hz_86.m4a,,,
,,,,,40685,2021-04-27_18h46.10.192,judgeSpeechMusic_20210407_logNormShiftAmp,2020.1.2,MacIntel,60,,,,,,,,,,,,,,,,,,,,,,,,,,1,8.259655,,0,0,97,97,142,1,stimuli/stim_20210407_power2amp/equal_lnn_AM6Hz_81.m4a,,,
,,,,,40685,2021-04-27_18h46.10.192,judgeSpeechMusic_20210407_logNormShiftAmp,2020.1.2,MacIntel,60,,,,,,,,,,,,,,,,,,,,,,,,,,1,5.82446,1,1,0,98,98,31,1,stimuli/stim_20210407_power2amp/equal_lnn_AM1.8Hz_34.m4a,1.113705,,
,,,,,40685,2021-04-27_18h46.10.192,judgeSpeechMusic_20210407_logNormShiftAmp,2020.1.2,MacIntel,60,,,,,,,,,,,,,,,,,,,,,,,,,,1,5.73998,,0,0,99,99,19,1,stimuli/stim_20210407_power2amp/equal_lnn_AM1.2Hz_53.m4a,,,
,,,,,40685,2021-04-27_18h46.10.192,judgeSpeechMusic_20210407_logNormShiftAmp,2020.1.2,MacIntel,60,,,,,,,,,,,,,,,,,,,,,,,,,,1,5.909135,,0,0,100,100,35,1,stimuli/stim_20210407_power2amp/equal_lnn_AM1.8Hz_31.m4a,,,
,,,,,40685,2021-04-27_18h46.10.192,judgeSpeechMusic_20210407_logNormShiftAmp,2020.1.2,MacIntel,60,,,,,,,,,,,,,,,,,,,,,,,,,,1,6.17686,,0,0,101,101,27,1,stimuli/stim_20210407_power2amp/equal_lnn_AM1.2Hz_75.m4a,,,
,,,,,40685,2021-04-27_18h46.10.192,judgeSpeechMusic_20210407_logNormShiftAmp,2020.1.2,MacIntel,60,,,,,,,,,,,,,,,,,,,,,,,,,,2,6.062625,,0,0,102,102,133,1,stimuli/stim_20210407_power2amp/equal_lnn_AM5.4Hz_76.m4a,,,
,,,,,40685,2021-04-27_18h46.10.192,judgeSpeechMusic_20210407_logNormShiftAmp,2020.1.2,MacIntel,60,,,,,,,,,,,,,,,,,,,,,,,,,,1,6.47791,,0,0,103,103,46,1,stimuli/stim_20210407_power2amp/equal_lnn_AM2.4Hz_55.m4a,,,
,,,,,40685,2021-04-27_18h46.10.192,judgeSpeechMusic_20210407_logNormShiftAmp,2020.1.2,MacIntel,60,,,,,,,,,,,,,,,,,,,,,,,,,,1,6.26146,,0,0,104,104,41,1,stimuli/stim_20210407_power2amp/equal_lnn_AM1.8Hz_58.m4a,,,
,,,,,40685,2021-04-27_18h46.10.192,judgeSpeechMusic_20210407_logNormShiftAmp,2020.1.2,MacIntel,60,,,,,,,,,,,,,,,,,,,,,,,,,,1,6.223685,,0,0,105,105,14,1,stimuli/stim_20210407_power2amp/equal_lnn_AM0.6Hz_41.m4a,,,
,,,,,40685,2021-04-27_18h46.10.192,judgeSpeechMusic_20210407_logNormShiftAmp,2020.1.2,MacIntel,60,,,,,,,,,,,,,,,,,,,,,,,,,,2,6.724505,,0,0,106,106,93,1,stimuli/stim_20210407_power2amp/equal_lnn_AM4.2Hz_34.m4a,,,
,,,,,40685,2021-04-27_18h46.10.192,judgeSpeechMusic_20210407_logNormShiftAmp,2020.1.2,MacIntel,60,,,,,,,,,,,,,,,,,,,,,,,,,,1,5.84355,,0,0,107,107,68,1,stimuli/stim_20210407_power2amp/equal_lnn_AM3Hz_78.m4a,,,
,,,,,40685,2021-04-27_18h46.10.192,judgeSpeechMusic_20210407_logNormShiftAmp,2020.1.2,MacIntel,60,,,,,,,,,,,,,,,,,,,,,,,,,,1,5.657305,,0,0,108,108,44,1,stimuli/stim_20210407_power2amp/equal_lnn_AM1.8Hz_81.m4a,,,
,,,,,40685,2021-04-27_18h46.10.192,judgeSpeechMusic_20210407_logNormShiftAmp,2020.1.2,MacIntel,60,,,,,,,,,,,,,,,,,,,,,,,,,,2,5.9921,,0,0,109,109,110,1,stimuli/stim_20210407_power2amp/equal_lnn_AM4.8Hz_40.m4a,,,
,,,,,40685,2021-04-27_18h46.10.192,judgeSpeechMusic_20210407_logNormShiftAmp,2020.1.2,MacIntel,60,,,,,,,,,,,,,,,,,,,,,,,,,,1,5.894685,,0,0,110,110,58,1,stimuli/stim_20210407_power2amp/equal_lnn_AM2.4Hz_51.m4a,,,
,,,,,40685,2021-04-27_18h46.10.192,judgeSpeechMusic_20210407_logNormShiftAmp,2020.1.2,MacIntel,60,,,,,,,,,,,,,,,,,,,,,,,,,,2,6.377965,,0,0,111,111,65,1,stimuli/stim_20210407_power2amp/equal_lnn_AM3Hz_9.m4a,,,
,,,,,40685,2021-04-27_18h46.10.192,judgeSpeechMusic_20210407_logNormShiftAmp,2020.1.2,MacIntel,60,,,,,,,,,,,,,,,,,,,,,,,,,,2,5.81153,,0,0,112,112,90,1,stimuli/stim_20210407_power2amp/equal_lnn_AM4.2Hz_78.m4a,,,
,,,,,40685,2021-04-27_18h46.10.192,judgeSpeechMusic_20210407_logNormShiftAmp,2020.1.2,MacIntel,60,,,,,,,,,,,,,,,,,,,,,,,,,,1,5.941745,,0,0,113,113,81,1,stimuli/stim_20210407_power2amp/equal_lnn_AM3.6Hz_94.m4a,,,
,,,,,40685,2021-04-27_18h46.10.192,judgeSpeechMusic_20210407_logNormShiftAmp,2020.1.2,MacIntel,60,,,,,,,,,,,,,,,,,,,,,,,,,,1,5.65971,,0,0,114,114,32,1,stimuli/stim_20210407_power2amp/equal_lnn_AM1.8Hz_47.m4a,,,
,,,,,40685,2021-04-27_18h46.10.192,judgeSpeechMusic_20210407_logNormShiftAmp,2020.1.2,MacIntel,60,,,,,,,,,,,,,,,,,,,,,,,,,,1,6.062375,,0,0,115,115,10,1,stimuli/stim_20210407_power2amp/equal_lnn_AM0.6Hz_17.m4a,,,
,,,,,40685,2021-04-27_18h46.10.192,judgeSpeechMusic_20210407_logNormShiftAmp,2020.1.2,MacIntel,60,,,,,,,,,,,,,,,,,,,,,,,,,,1,5.976775,,0,0,116,116,57,1,stimuli/stim_20210407_power2amp/equal_lnn_AM2.4Hz_59.m4a,,,
,,,,,40685,2021-04-27_18h46.10.192,judgeSpeechMusic_20210407_logNormShiftAmp,2020.1.2,MacIntel,60,,,,,,,,,,,,,,,,,,,,,,,,,,1,5.82887,,0,0,117,117,16,1,stimuli/stim_20210407_power2amp/equal_lnn_AM1.2Hz_92.m4a,,,
,,,,,40685,2021-04-27_18h46.10.192,judgeSpeechMusic_20210407_logNormShiftAmp,2020.1.2,MacIntel,60,,,,,,,,,,,,,,,,,,,,,,,,,,2,5.86035,,0,0,118,118,98,1,stimuli/stim_20210407_power2amp/equal_lnn_AM4.2Hz_28.m4a,,,
,,,,,40685,2021-04-27_18h46.10.192,judgeSpeechMusic_20210407_logNormShiftAmp,2020.1.2,MacIntel,60,,,,,,,,,,,,,,,,,,,,,,,,,,1,6.229175,,0,0,119,119,5,1,stimuli/stim_20210407_power2amp/equal_lnn_AM0.6Hz_38.m4a,,,
,,,,,40685,2021-04-27_18h46.10.192,judgeSpeechMusic_20210407_logNormShiftAmp,2020.1.2,MacIntel,60,,,,,,,,,,,,,,,,,,,,,,,,,,2,6.591555,,0,0,120,120,115,1,stimuli/stim_20210407_power2amp/equal_lnn_AM4.8Hz_58.m4a,,,
,,,,,40685,2021-04-27_18h46.10.192,judgeSpeechMusic_20210407_logNormShiftAmp,2020.1.2,MacIntel,60,,,,,,,,,,,,,,,,,,,,,,,,,,1,6.12574,,0,0,121,121,8,1,stimuli/stim_20210407_power2amp/equal_lnn_AM0.6Hz_25.m4a,,,
,,,,,40685,2021-04-27_18h46.10.192,judgeSpeechMusic_20210407_logNormShiftAmp,2020.1.2,MacIntel,60,,,,,,,,,,,,,,,,,,,,,,,,,,2,5.790335,4,1,0,122,122,100,1,stimuli/stim_20210407_power2amp/equal_lnn_AM4.2Hz_84.m4a,1.577425,,
,,,,,40685,2021-04-27_18h46.10.192,judgeSpeechMusic_20210407_logNormShiftAmp,2020.1.2,MacIntel,60,,,,,,,,,,,,,,,,,,,,,,,,,,2,5.910885,,0,0,123,123,123,1,stimuli/stim_20210407_power2amp/equal_lnn_AM5.4Hz_15.m4a,,,
,,,,,40685,2021-04-27_18h46.10.192,judgeSpeechMusic_20210407_logNormShiftAmp,2020.1.2,MacIntel,60,,,,,,,,,,,,,,,,,,,,,,,,,,2,5.92741,,0,0,124,124,95,1,stimuli/stim_20210407_power2amp/equal_lnn_AM4.2Hz_38.m4a,,,
,,,,,40685,2021-04-27_18h46.10.192,judgeSpeechMusic_20210407_logNormShiftAmp,2020.1.2,MacIntel,60,,,,,,,,,,,,,,,,,,,,,,,,,,1,5.791515,,0,0,125,125,33,1,stimuli/stim_20210407_power2amp/equal_lnn_AM1.8Hz_86.m4a,,,
,,,,,40685,2021-04-27_18h46.10.192,judgeSpeechMusic_20210407_logNormShiftAmp,2020.1.2,MacIntel,60,,,,,,,,,,,,,,,,,,,,,,,,,,1,6.707135,,0,0,126,126,84,1,stimuli/stim_20210407_power2amp/equal_lnn_AM3.6Hz_19.m4a,,,
,,,,,40685,2021-04-27_18h46.10.192,judgeSpeechMusic_20210407_logNormShiftAmp,2020.1.2,MacIntel,60,,,,,,,,,,,,,,,,,,,,,,,,,,1,7.42885,,0,0,127,127,136,1,stimuli/stim_20210407_power2amp/equal_lnn_AM6Hz_46.m4a,,,
,,,,,40685,2021-04-27_18h46.10.192,judgeSpeechMusic_20210407_logNormShiftAmp,2020.1.2,MacIntel,60,,,,,,,,,,,,,,,,,,,,,,,,,,1,5.85922,,0,0,128,128,38,1,stimuli/stim_20210407_power2amp/equal_lnn_AM1.8Hz_91.m4a,,,
,,,,,40685,2021-04-27_18h46.10.192,judgeSpeechMusic_20210407_logNormShiftAmp,2020.1.2,MacIntel,60,,,,,,,,,,,,,,,,,,,,,,,,,,1,5.87555,,0,0,129,129,94,1,stimuli/stim_20210407_power2amp/equal_lnn_AM4.2Hz_49.m4a,,,
,,,,,40685,2021-04-27_18h46.10.192,judgeSpeechMusic_20210407_logNormShiftAmp,2020.1.2,MacIntel,60,,,,,,,,,,,,,,,,,,,,,,,,,,1,5.76452,,0,0,130,130,56,1,stimuli/stim_20210407_power2amp/equal_lnn_AM2.4Hz_84.m4a,,,
,,,,,40685,2021-04-27_18h46.10.192,judgeSpeechMusic_20210407_logNormShiftAmp,2020.1.2,MacIntel,60,,,,,,,,,,,,,,,,,,,,,,,,,,2,5.673465,,0,0,131,131,69,1,stimuli/stim_20210407_power2amp/equal_lnn_AM3Hz_5.m4a,,,
,,,,,40685,2021-04-27_18h46.10.192,judgeSpeechMusic_20210407_logNormShiftAmp,2020.1.2,MacIntel,60,,,,,,,,,,,,,,,,,,,,,,,,,,2,5.722715,,0,0,132,132,127,1,stimuli/stim_20210407_power2amp/equal_lnn_AM5.4Hz_87.m4a,,,
,,,,,40685,2021-04-27_18h46.10.192,judgeSpeechMusic_20210407_logNormShiftAmp,2020.1.2,MacIntel,60,,,,,,,,,,,,,,,,,,,,,,,,,,2,5.725335,,0,0,133,133,149,1,stimuli/stim_20210407_power2amp/equal_lnn_AM6Hz_30.m4a,,,
,,,,,40685,2021-04-27_18h46.10.192,judgeSpeechMusic_20210407_logNormShiftAmp,2020.1.2,MacIntel,60,,,,,,,,,,,,,,,,,,,,,,,,,,2,6.626245,,0,0,134,134,119,1,stimuli/stim_20210407_power2amp/equal_lnn_AM4.8Hz_9.m4a,,,
,,,,,40685,2021-04-27_18h46.10.192,judgeSpeechMusic_20210407_logNormShiftAmp,2020.1.2,MacIntel,60,,,,,,,,,,,,,,,,,,,,,,,,,,2,6.028795,,0,0,135,135,105,1,stimuli/stim_20210407_power2amp/equal_lnn_AM4.8Hz_97.m4a,,,
,,,,,40685,2021-04-27_18h46.10.192,judgeSpeechMusic_20210407_logNormShiftAmp,2020.1.2,MacIntel,60,,,,,,,,,,,,,,,,,,,,,,,,,,1,5.82766,,0,0,136,136,24,1,stimuli/stim_20210407_power2amp/equal_lnn_AM1.2Hz_99.m4a,,,
,,,,,40685,2021-04-27_18h46.10.192,judgeSpeechMusic_20210407_logNormShiftAmp,2020.1.2,MacIntel,60,,,,,,,,,,,,,,,,,,,,,,,,,,1,5.809775,,0,0,137,137,47,1,stimuli/stim_20210407_power2amp/equal_lnn_AM2.4Hz_36.m4a,,,
,,,,,40685,2021-04-27_18h46.10.192,judgeSpeechMusic_20210407_logNormShiftAmp,2020.1.2,MacIntel,60,,,,,,,,,,,,,,,,,,,,,,,,,,1,5.70983,,0,0,138,138,26,1,stimuli/stim_20210407_power2amp/equal_lnn_AM1.2Hz_56.m4a,,,
,,,,,40685,2021-04-27_18h46.10.192,judgeSpeechMusic_20210407_logNormShiftAmp,2020.1.2,MacIntel,60,,,,,,,,,,,,,,,,,,,,,,,,,,2,5.8097,,0,0,139,139,144,1,stimuli/stim_20210407_power2amp/equal_lnn_AM6Hz_93.m4a,,,
,,,,,40685,2021-04-27_18h46.10.192,judgeSpeechMusic_20210407_logNormShiftAmp,2020.1.2,MacIntel,60,,,,,,,,,,,,,,,,,,,,,,,,,,1,11.697555,,0,0,140,140,4,1,stimuli/stim_20210407_power2amp/equal_lnn_AM0.6Hz_8.m4a,,,
,,,,,40685,2021-04-27_18h46.10.192,judgeSpeechMusic_20210407_logNormShiftAmp,2020.1.2,MacIntel,60,,,,,,,,,,,,,,,,,,,,,,,,,,2,6.19109,,0,0,141,141,137,1,stimuli/stim_20210407_power2amp/equal_lnn_AM6Hz_98.m4a,,,
,,,,,40685,2021-04-27_18h46.10.192,judgeSpeechMusic_20210407_logNormShiftAmp,2020.1.2,MacIntel,60,,,,,,,,,,,,,,,,,,,,,,,,,,2,5.91264,3,1,0,142,142,112,1,stimuli/stim_20210407_power2amp/equal_lnn_AM4.8Hz_71.m4a,1.098015,,
,,,,,40685,2021-04-27_18h46.10.192,judgeSpeechMusic_20210407_logNormShiftAmp,2020.1.2,MacIntel,60,,,,,,,,,,,,,,,,,,,,,,,,,,2,5.657845,,0,0,143,143,125,1,stimuli/stim_20210407_power2amp/equal_lnn_AM5.4Hz_100.m4a,,,
,,,,,40685,2021-04-27_18h46.10.192,judgeSpeechMusic_20210407_logNormShiftAmp,2020.1.2,MacIntel,60,,,,,,,,,,,,,,,,,,,,,,,,,,1,6.1296,,0,0,144,144,66,1,stimuli/stim_20210407_power2amp/equal_lnn_AM3Hz_84.m4a,,,
,,,,,40685,2021-04-27_18h46.10.192,judgeSpeechMusic_20210407_logNormShiftAmp,2020.1.2,MacIntel,60,,,,,,,,,,,,,,,,,,,,,,,,,,1,5.70848,,0,0,145,145,1,1,stimuli/stim_20210407_power2amp/equal_lnn_AM0.6Hz_82.m4a,,,
,,,,,40685,2021-04-27_18h46.10.192,judgeSpeechMusic_20210407_logNormShiftAmp,2020.1.2,MacIntel,60,,,,,,,,,,,,,,,,,,,,,,,,,,1,5.67669,,0,0,146,146,25,1,stimuli/stim_20210407_power2amp/equal_lnn_AM1.2Hz_71.m4a,,,
,,,,,40685,2021-04-27_18h46.10.192,judgeSpeechMusic_20210407_logNormShiftAmp,2020.1.2,MacIntel,60,,,,,,,,,,,,,,,,,,,,,,,,,,2,5.77237,,0,0,147,147,106,1,stimuli/stim_20210407_power2amp/equal_lnn_AM4.8Hz_88.m4a,,,
,,,,,40685,2021-04-27_18h46.10.192,judgeSpeechMusic_20210407_logNormShiftAmp,2020.1.2,MacIntel,60,,,,,,,,,,,,,,,,,,,,,,,,,,1,5.90793,,0,0,148,148,45,1,stimuli/stim_20210407_power2amp/equal_lnn_AM2.4Hz_3.m4a,,,
,,,,,40685,2021-04-27_18h46.10.192,judgeSpeechMusic_20210407_logNormShiftAmp,2020.1.2,MacIntel,60,,,,,,,,,,,,,,,,,,,,,,,,,,2,5.85857,,0,0,149,149,145,1,stimuli/stim_20210407_power2amp/equal_lnn_AM6Hz_84.m4a,,,
,,,,,40685,2021-04-27_18h46.10.192,judgeSpeechMusic_20210407_logNormShiftAmp,2020.1.2,MacIntel,60,,,,,,,,,,,,,,,,,,,,,,,,,,2,7.277845,,0,1,0,150,57,1,stimuli/stim_20210407_power2amp/equal_lnn_AM2.4Hz_59.m4a,,,
,,,,,40685,2021-04-27_18h46.10.192,judgeSpeechMusic_20210407_logNormShiftAmp,2020.1.2,MacIntel,60,,,,,,,,,,,,,,,,,,,,,,,,,,1,10.20661,,0,1,1,151,41,1,stimuli/stim_20210407_power2amp/equal_lnn_AM1.8Hz_58.m4a,,,
,,,,,40685,2021-04-27_18h46.10.192,judgeSpeechMusic_20210407_logNormShiftAmp,2020.1.2,MacIntel,60,,,,,,,,,,,,,,,,,,,,,,,,,,2,6.104255,,0,1,2,152,129,1,stimuli/stim_20210407_power2amp/equal_lnn_AM5.4Hz_14.m4a,,,
,,,,,40685,2021-04-27_18h46.10.192,judgeSpeechMusic_20210407_logNormShiftAmp,2020.1.2,MacIntel,60,,,,,,,,,,,,,,,,,,,,,,,,,,2,6.09407,,0,1,3,153,111,1,stimuli/stim_20210407_power2amp/equal_lnn_AM4.8Hz_70.m4a,,,
,,,,,40685,2021-04-27_18h46.10.192,judgeSpeechMusic_20210407_logNormShiftAmp,2020.1.2,MacIntel,60,,,,,,,,,,,,,,,,,,,,,,,,,,2,6.025775,,0,1,4,154,125,1,stimuli/stim_20210407_power2amp/equal_lnn_AM5.4Hz_100.m4a,,,
,,,,,40685,2021-04-27_18h46.10.192,judgeSpeechMusic_20210407_logNormShiftAmp,2020.1.2,MacIntel,60,,,,,,,,,,,,,,,,,,,,,,,,,,1,6.073415,,0,1,5,155,60,1,stimuli/stim_20210407_power2amp/equal_lnn_AM3Hz_28.m4a,,,
,,,,,40685,2021-04-27_18h46.10.192,judgeSpeechMusic_20210407_logNormShiftAmp,2020.1.2,MacIntel,60,,,,,,,,,,,,,,,,,,,,,,,,,,1,5.8265,,0,1,6,156,88,1,stimuli/stim_20210407_power2amp/equal_lnn_AM3.6Hz_99.m4a,,,
,,,,,40685,2021-04-27_18h46.10.192,judgeSpeechMusic_20210407_logNormShiftAmp,2020.1.2,MacIntel,60,,,,,,,,,,,,,,,,,,,,,,,,,,2,5.92992,,0,1,7,157,106,1,stimuli/stim_20210407_power2amp/equal_lnn_AM4.8Hz_88.m4a,,,
,,,,,40685,2021-04-27_18h46.10.192,judgeSpeechMusic_20210407_logNormShiftAmp,2020.1.2,MacIntel,60,,,,,,,,,,,,,,,,,,,,,,,,,,1,5.90733,,0,1,8,158,22,1,stimuli/stim_20210407_power2amp/equal_lnn_AM1.2Hz_74.m4a,,,
,,,,,40685,2021-04-27_18h46.10.192,judgeSpeechMusic_20210407_logNormShiftAmp,2020.1.2,MacIntel,60,,,,,,,,,,,,,,,,,,,,,,,,,,1,5.874495,,0,1,9,159,13,1,stimuli/stim_20210407_power2amp/equal_lnn_AM0.6Hz_89.m4a,,,
,,,,,40685,2021-04-27_18h46.10.192,judgeSpeechMusic_20210407_logNormShiftAmp,2020.1.2,MacIntel,60,,,,,,,,,,,,,,,,,,,,,,,,,,2,5.82924,,0,1,10,160,77,1,stimuli/stim_20210407_power2amp/equal_lnn_AM3.6Hz_95.m4a,,,
,,,,,40685,2021-04-27_18h46.10.192,judgeSpeechMusic_20210407_logNormShiftAmp,2020.1.2,MacIntel,60,,,,,,,,,,,,,,,,,,,,,,,,,,1,5.72582,,0,1,11,161,54,1,stimuli/stim_20210407_power2amp/equal_lnn_AM2.4Hz_22.m4a,,,
,,,,,40685,2021-04-27_18h46.10.192,judgeSpeechMusic_20210407_logNormShiftAmp,2020.1.2,MacIntel,60,,,,,,,,,,,,,,,,,,,,,,,,,,2,5.624615,,0,1,12,162,69,1,stimuli/stim_20210407_power2amp/equal_lnn_AM3Hz_5.m4a,,,
,,,,,40685,2021-04-27_18h46.10.192,judgeSpeechMusic_20210407_logNormShiftAmp,2020.1.2,MacIntel,60,,,,,,,,,,,,,,,,,,,,,,,,,,1,5.760785,,0,1,13,163,39,1,stimuli/stim_20210407_power2amp/equal_lnn_AM1.8Hz_95.m4a,,,
,,,,,40685,2021-04-27_18h46.10.192,judgeSpeechMusic_20210407_logNormShiftAmp,2020.1.2,MacIntel,60,,,,,,,,,,,,,,,,,,,,,,,,,,2,7.02993,3,1,1,14,164,70,1,stimuli/stim_20210407_power2amp/equal_lnn_AM3Hz_50.m4a,1.193675,,
,,,,,40685,2021-04-27_18h46.10.192,judgeSpeechMusic_20210407_logNormShiftAmp,2020.1.2,MacIntel,60,,,,,,,,,,,,,,,,,,,,,,,,,,2,7.761205,,0,1,15,165,80,1,stimuli/stim_20210407_power2amp/equal_lnn_AM3.6Hz_73.m4a,,,
,,,,,40685,2021-04-27_18h46.10.192,judgeSpeechMusic_20210407_logNormShiftAmp,2020.1.2,MacIntel,60,,,,,,,,,,,,,,,,,,,,,,,,,,2,5.7792,,0,1,16,166,142,1,stimuli/stim_20210407_power2amp/equal_lnn_AM6Hz_81.m4a,,,
,,,,,40685,2021-04-27_18h46.10.192,judgeSpeechMusic_20210407_logNormShiftAmp,2020.1.2,MacIntel,60,,,,,,,,,,,,,,,,,,,,,,,,,,1,5.79453,,0,1,17,167,94,1,stimuli/stim_20210407_power2amp/equal_lnn_AM4.2Hz_49.m4a,,,
,,,,,40685,2021-04-27_18h46.10.192,judgeSpeechMusic_20210407_logNormShiftAmp,2020.1.2,MacIntel,60,,,,,,,,,,,,,,,,,,,,,,,,,,2,5.94233,,0,1,18,168,126,1,stimuli/stim_20210407_power2amp/equal_lnn_AM5.4Hz_27.m4a,,,
,,,,,40685,2021-04-27_18h46.10.192,judgeSpeechMusic_20210407_logNormShiftAmp,2020.1.2,MacIntel,60,,,,,,,,,,,,,,,,,,,,,,,,,,2,6.857475,,0,1,19,169,59,1,stimuli/stim_20210407_power2amp/equal_lnn_AM2.4Hz_9.m4a,,,
,,,,,40685,2021-04-27_18h46.10.192,judgeSpeechMusic_20210407_logNormShiftAmp,2020.1.2,MacIntel,60,,,,,,,,,,,,,,,,,,,,,,,,,,2,5.84551,,0,1,20,170,102,1,stimuli/stim_20210407_power2amp/equal_lnn_AM4.2Hz_99.m4a,,,
,,,,,40685,2021-04-27_18h46.10.192,judgeSpeechMusic_20210407_logNormShiftAmp,2020.1.2,MacIntel,60,,,,,,,,,,,,,,,,,,,,,,,,,,1,5.84409,,0,1,21,171,14,1,stimuli/stim_20210407_power2amp/equal_lnn_AM0.6Hz_41.m4a,,,
,,,,,40685,2021-04-27_18h46.10.192,judgeSpeechMusic_20210407_logNormShiftAmp,2020.1.2,MacIntel,60,,,,,,,,,,,,,,,,,,,,,,,,,,1,5.710525,,0,1,22,172,47,1,stimuli/stim_20210407_power2amp/equal_lnn_AM2.4Hz_36.m4a,,,
,,,,,40685,2021-04-27_18h46.10.192,judgeSpeechMusic_20210407_logNormShiftAmp,2020.1.2,MacIntel,60,,,,,,,,,,,,,,,,,,,,,,,,,,1,5.60749,,0,1,23,173,21,1,stimuli/stim_20210407_power2amp/equal_lnn_AM1.2Hz_55.m4a,,,
,,,,,40685,2021-04-27_18h46.10.192,judgeSpeechMusic_20210407_logNormShiftAmp,2020.1.2,MacIntel,60,,,,,,,,,,,,,,,,,,,,,,,,,,2,5.96022,,0,1,24,174,128,1,stimuli/stim_20210407_power2amp/equal_lnn_AM5.4Hz_3.m4a,,,
,,,,,40685,2021-04-27_18h46.10.192,judgeSpeechMusic_20210407_logNormShiftAmp,2020.1.2,MacIntel,60,,,,,,,,,,,,,,,,,,,,,,,,,,2,5.943915,,0,1,25,175,116,1,stimuli/stim_20210407_power2amp/equal_lnn_AM4.8Hz_85.m4a,,,
,,,,,40685,2021-04-27_18h46.10.192,judgeSpeechMusic_20210407_logNormShiftAmp,2020.1.2,MacIntel,60,,,,,,,,,,,,,,,,,,,,,,,,,,2,5.84153,,0,1,26,176,112,1,stimuli/stim_20210407_power2amp/equal_lnn_AM4.8Hz_71.m4a,,,
,,,,,40685,2021-04-27_18h46.10.192,judgeSpeechMusic_20210407_logNormShiftAmp,2020.1.2,MacIntel,60,,,,,,,,,,,,,,,,,,,,,,,,,,1,5.79443,,0,1,27,177,24,1,stimuli/stim_20210407_power2amp/equal_lnn_AM1.2Hz_99.m4a,,,
,,,,,40685,2021-04-27_18h46.10.192,judgeSpeechMusic_20210407_logNormShiftAmp,2020.1.2,MacIntel,60,,,,,,,,,,,,,,,,,,,,,,,,,,1,5.89098,,0,1,28,178,44,1,stimuli/stim_20210407_power2amp/equal_lnn_AM1.8Hz_81.m4a,,,
,,,,,40685,2021-04-27_18h46.10.192,judgeSpeechMusic_20210407_logNormShiftAmp,2020.1.2,MacIntel,60,,,,,,,,,,,,,,,,,,,,,,,,,,2,6.32846,,0,1,29,179,104,1,stimuli/stim_20210407_power2amp/equal_lnn_AM4.2Hz_85.m4a,,,
,,,,,40685,2021-04-27_18h46.10.192,judgeSpeechMusic_20210407_logNormShiftAmp,2020.1.2,MacIntel,60,,,,,,,,,,,,,,,,,,,,,,,,,,1,5.979435,,0,1,30,180,6,1,stimuli/stim_20210407_power2amp/equal_lnn_AM0.6Hz_56.m4a,,,
,,,,,40685,2021-04-27_18h46.10.192,judgeSpeechMusic_20210407_logNormShiftAmp,2020.1.2,MacIntel,60,,,,,,,,,,,,,,,,,,,,,,,,,,2,6.32666,,0,1,31,181,78,1,stimuli/stim_20210407_power2amp/equal_lnn_AM3.6Hz_85.m4a,,,
,,,,,40685,2021-04-27_18h46.10.192,judgeSpeechMusic_20210407_logNormShiftAmp,2020.1.2,MacIntel,60,,,,,,,,,,,,,,,,,,,,,,,,,,2,6.160555,,0,1,32,182,130,1,stimuli/stim_20210407_power2amp/equal_lnn_AM5.4Hz_47.m4a,,,
,,,,,40685,2021-04-27_18h46.10.192,judgeSpeechMusic_20210407_logNormShiftAmp,2020.1.2,MacIntel,60,,,,,,,,,,,,,,,,,,,,,,,,,,2,5.643675,,0,1,33,183,86,1,stimuli/stim_20210407_power2amp/equal_lnn_AM3.6Hz_17.m4a,,,
,,,,,40685,2021-04-27_18h46.10.192,judgeSpeechMusic_20210407_logNormShiftAmp,2020.1.2,MacIntel,60,,,,,,,,,,,,,,,,,,,,,,,,,,2,5.627045,,0,1,34,184,92,1,stimuli/stim_20210407_power2amp/equal_lnn_AM4.2Hz_40.m4a,,,
,,,,,40685,2021-04-27_18h46.10.192,judgeSpeechMusic_20210407_logNormShiftAmp,2020.1.2,MacIntel,60,,,,,,,,,,,,,,,,,,,,,,,,,,2,5.69403,,0,1,35,185,138,1,stimuli/stim_20210407_power2amp/equal_lnn_AM6Hz_66.m4a,,,
,,,,,40685,2021-04-27_18h46.10.192,judgeSpeechMusic_20210407_logNormShiftAmp,2020.1.2,MacIntel,60,,,,,,,,,,,,,,,,,,,,,,,,,,2,5.62473,,0,1,36,186,109,1,stimuli/stim_20210407_power2amp/equal_lnn_AM4.8Hz_35.m4a,,,
,,,,,40685,2021-04-27_18h46.10.192,judgeSpeechMusic_20210407_logNormShiftAmp,2020.1.2,MacIntel,60,,,,,,,,,,,,,,,,,,,,,,,,,,2,7.09069,2,1,1,37,187,65,1,stimuli/stim_20210407_power2amp/equal_lnn_AM3Hz_9.m4a,0.610035,,
,,,,,40685,2021-04-27_18h46.10.192,judgeSpeechMusic_20210407_logNormShiftAmp,2020.1.2,MacIntel,60,,,,,,,,,,,,,,,,,,,,,,,,,,2,6.345905,,0,1,38,188,123,1,stimuli/stim_20210407_power2amp/equal_lnn_AM5.4Hz_15.m4a,,,
,,,,,40685,2021-04-27_18h46.10.192,judgeSpeechMusic_20210407_logNormShiftAmp,2020.1.2,MacIntel,60,,,,,,,,,,,,,,,,,,,,,,,,,,1,5.71213,,0,1,39,189,42,1,stimuli/stim_20210407_power2amp/equal_lnn_AM1.8Hz_32.m4a,,,
,,,,,40685,2021-04-27_18h46.10.192,judgeSpeechMusic_20210407_logNormShiftAmp,2020.1.2,MacIntel,60,,,,,,,,,,,,,,,,,,,,,,,,,,1,5.91089,,0,1,40,190,85,1,stimuli/stim_20210407_power2amp/equal_lnn_AM3.6Hz_1.m4a,,,
,,,,,40685,2021-04-27_18h46.10.192,judgeSpeechMusic_20210407_logNormShiftAmp,2020.1.2,MacIntel,60,,,,,,,,,,,,,,,,,,,,,,,,,,1,5.69239,,0,1,41,191,30,1,stimuli/stim_20210407_power2amp/equal_lnn_AM1.8Hz_89.m4a,,,
,,,,,40685,2021-04-27_18h46.10.192,judgeSpeechMusic_20210407_logNormShiftAmp,2020.1.2,MacIntel,60,,,,,,,,,,,,,,,,,,,,,,,,,,2,5.860735,,0,1,42,192,147,1,stimuli/stim_20210407_power2amp/equal_lnn_AM6Hz_83.m4a,,,
,,,,,40685,2021-04-27_18h46.10.192,judgeSpeechMusic_20210407_logNormShiftAmp,2020.1.2,MacIntel,60,,,,,,,,,,,,,,,,,,,,,,,,,,1,5.75743,,0,1,43,193,10,1,stimuli/stim_20210407_power2amp/equal_lnn_AM0.6Hz_17.m4a,,,
,,,,,40685,2021-04-27_18h46.10.192,judgeSpeechMusic_20210407_logNormShiftAmp,2020.1.2,MacIntel,60,,,,,,,,,,,,,,,,,,,,,,,,,,2,6.57859,,0,1,44,194,101,1,stimuli/stim_20210407_power2amp/equal_lnn_AM4.2Hz_1.m4a,,,
,,,,,40685,2021-04-27_18h46.10.192,judgeSpeechMusic_20210407_logNormShiftAmp,2020.1.2,MacIntel,60,,,,,,,,,,,,,,,,,,,,,,,,,,1,5.79181,,0,1,45,195,63,1,stimuli/stim_20210407_power2amp/equal_lnn_AM3Hz_83.m4a,,,
,,,,,40685,2021-04-27_18h46.10.192,judgeSpeechMusic_20210407_logNormShiftAmp,2020.1.2,MacIntel,60,,,,,,,,,,,,,,,,,,,,,,,,,,1,5.87767,,0,1,46,196,72,1,stimuli/stim_20210407_power2amp/equal_lnn_AM3Hz_70.m4a,,,
,,,,,40685,2021-04-27_18h46.10.192,judgeSpeechMusic_20210407_logNormShiftAmp,2020.1.2,MacIntel,60,,,,,,,,,,,,,,,,,,,,,,,,,,2,5.894865,,0,1,47,197,71,1,stimuli/stim_20210407_power2amp/equal_lnn_AM3Hz_16.m4a,,,
,,,,,40685,2021-04-27_18h46.10.192,judgeSpeechMusic_20210407_logNormShiftAmp,2020.1.2,MacIntel,60,,,,,,,,,,,,,,,,,,,,,,,,,,1,5.74153,,0,1,48,198,19,1,stimuli/stim_20210407_power2amp/equal_lnn_AM1.2Hz_53.m4a,,,
,,,,,40685,2021-04-27_18h46.10.192,judgeSpeechMusic_20210407_logNormShiftAmp,2020.1.2,MacIntel,60,,,,,,,,,,,,,,,,,,,,,,,,,,1,5.5772,,0,1,49,199,58,1,stimuli/stim_20210407_power2amp/equal_lnn_AM2.4Hz_51.m4a,,,
,,,,,40685,2021-04-27_18h46.10.192,judgeSpeechMusic_20210407_logNormShiftAmp,2020.1.2,MacIntel,60,,,,,,,,,,,,,,,,,,,,,,,,,,2,5.896235,,0,1,50,200,67,1,stimuli/stim_20210407_power2amp/equal_lnn_AM3Hz_74.m4a,,,
,,,,,40685,2021-04-27_18h46.10.192,judgeSpeechMusic_20210407_logNormShiftAmp,2020.1.2,MacIntel,60,,,,,,,,,,,,,,,,,,,,,,,,,,1,5.77667,,0,1,51,201,5,1,stimuli/stim_20210407_power2amp/equal_lnn_AM0.6Hz_38.m4a,,,
,,,,,40685,2021-04-27_18h46.10.192,judgeSpeechMusic_20210407_logNormShiftAmp,2020.1.2,MacIntel,60,,,,,,,,,,,,,,,,,,,,,,,,,,2,5.92524,,0,1,52,202,103,1,stimuli/stim_20210407_power2amp/equal_lnn_AM4.2Hz_80.m4a,,,
,,,,,40685,2021-04-27_18h46.10.192,judgeSpeechMusic_20210407_logNormShiftAmp,2020.1.2,MacIntel,60,,,,,,,,,,,,,,,,,,,,,,,,,,2,5.76339,,0,1,53,203,117,1,stimuli/stim_20210407_power2amp/equal_lnn_AM4.8Hz_95.m4a,,,
,,,,,40685,2021-04-27_18h46.10.192,judgeSpeechMusic_20210407_logNormShiftAmp,2020.1.2,MacIntel,60,,,,,,,,,,,,,,,,,,,,,,,,,,2,5.656295,,0,1,54,204,119,1,stimuli/stim_20210407_power2amp/equal_lnn_AM4.8Hz_9.m4a,,,
,,,,,40685,2021-04-27_18h46.10.192,judgeSpeechMusic_20210407_logNormShiftAmp,2020.1.2,MacIntel,60,,,,,,,,,,,,,,,,,,,,,,,,,,1,5.774775,,0,1,55,205,35,1,stimuli/stim_20210407_power2amp/equal_lnn_AM1.8Hz_31.m4a,,,
,,,,,40685,2021-04-27_18h46.10.192,judgeSpeechMusic_20210407_logNormShiftAmp,2020.1.2,MacIntel,60,,,,,,,,,,,,,,,,,,,,,,,,,,1,5.94073,,0,1,56,206,34,1,stimuli/stim_20210407_power2amp/equal_lnn_AM1.8Hz_2.m4a,,,
,,,,,40685,2021-04-27_18h46.10.192,judgeSpeechMusic_20210407_logNormShiftAmp,2020.1.2,MacIntel,60,,,,,,,,,,,,,,,,,,,,,,,,,,2,5.97992,,0,1,57,207,137,1,stimuli/stim_20210407_power2amp/equal_lnn_AM6Hz_98.m4a,,,
,,,,,40685,2021-04-27_18h46.10.192,judgeSpeechMusic_20210407_logNormShiftAmp,2020.1.2,MacIntel,60,,,,,,,,,,,,,,,,,,,,,,,,,,1,5.979925,,0,1,58,208,82,1,stimuli/stim_20210407_power2amp/equal_lnn_AM3.6Hz_67.m4a,,,
,,,,,40685,2021-04-27_18h46.10.192,judgeSpeechMusic_20210407_logNormShiftAmp,2020.1.2,MacIntel,60,,,,,,,,,,,,,,,,,,,,,,,,,,1,5.77736,,0,1,59,209,45,1,stimuli/stim_20210407_power2amp/equal_lnn_AM2.4Hz_3.m4a,,,
,,,,,40685,2021-04-27_18h46.10.192,judgeSpeechMusic_20210407_logNormShiftAmp,2020.1.2,MacIntel,60,,,,,,,,,,,,,,,,,,,,,,,,,,1,5.810585,4,1,1,60,210,28,1,stimuli/stim_20210407_power2amp/equal_lnn_AM1.2Hz_8.m4a,1.881255,,
,,,,,40685,2021-04-27_18h46.10.192,judgeSpeechMusic_20210407_logNormShiftAmp,2020.1.2,MacIntel,60,,,,,,,,,,,,,,,,,,,,,,,,,,2,5.94077,,0,1,61,211,121,1,stimuli/stim_20210407_power2amp/equal_lnn_AM5.4Hz_39.m4a,,,
,,,,,40685,2021-04-27_18h46.10.192,judgeSpeechMusic_20210407_logNormShiftAmp,2020.1.2,MacIntel,60,,,,,,,,,,,,,,,,,,,,,,,,,,1,5.793835,,0,1,62,212,2,1,stimuli/stim_20210407_power2amp/equal_lnn_AM0.6Hz_92.m4a,,,
,,,,,40685,2021-04-27_18h46.10.192,judgeSpeechMusic_20210407_logNormShiftAmp,2020.1.2,MacIntel,60,,,,,,,,,,,,,,,,,,,,,,,,,,1,5.94526,,0,1,63,213,3,1,stimuli/stim_20210407_power2amp/equal_lnn_AM0.6Hz_32.m4a,,,
,,,,,40685,2021-04-27_18h46.10.192,judgeSpeechMusic_20210407_logNormShiftAmp,2020.1.2,MacIntel,60,,,,,,,,,,,,,,,,,,,,,,,,,,2,5.94414,,0,1,64,214,68,1,stimuli/stim_20210407_power2amp/equal_lnn_AM3Hz_78.m4a,,,
,,,,,40685,2021-04-27_18h46.10.192,judgeSpeechMusic_20210407_logNormShiftAmp,2020.1.2,MacIntel,60,,,,,,,,,,,,,,,,,,,,,,,,,,2,5.94232,,0,1,65,215,127,1,stimuli/stim_20210407_power2amp/equal_lnn_AM5.4Hz_87.m4a,,,
,,,,,40685,2021-04-27_18h46.10.192,judgeSpeechMusic_20210407_logNormShiftAmp,2020.1.2,MacIntel,60,,,,,,,,,,,,,,,,,,,,,,,,,,2,6.306675,,0,1,66,216,132,1,stimuli/stim_20210407_power2amp/equal_lnn_AM5.4Hz_70.m4a,,,
,,,,,40685,2021-04-27_18h46.10.192,judgeSpeechMusic_20210407_logNormShiftAmp,2020.1.2,MacIntel,60,,,,,,,,,,,,,,,,,,,,,,,,,,2,6.40972,,0,1,67,217,75,1,stimuli/stim_20210407_power2amp/equal_lnn_AM3.6Hz_26.m4a,,,
,,,,,40685,2021-04-27_18h46.10.192,judgeSpeechMusic_20210407_logNormShiftAmp,2020.1.2,MacIntel,60,,,,,,,,,,,,,,,,,,,,,,,,,,1,6.406915,,0,1,68,218,20,1,stimuli/stim_20210407_power2amp/equal_lnn_AM1.2Hz_97.m4a,,,
,,,,,40685,2021-04-27_18h46.10.192,judgeSpeechMusic_20210407_logNormShiftAmp,2020.1.2,MacIntel,60,,,,,,,,,,,,,,,,,,,,,,,,,,1,5.61209,,0,1,69,219,52,1,stimuli/stim_20210407_power2amp/equal_lnn_AM2.4Hz_67.m4a,,,
,,,,,40685,2021-04-27_18h46.10.192,judgeSpeechMusic_20210407_logNormShiftAmp,2020.1.2,MacIntel,60,,,,,,,,,,,,,,,,,,,,,,,,,,2,5.94447,,0,1,70,220,113,1,stimuli/stim_20210407_power2amp/equal_lnn_AM4.8Hz_99.m4a,,,
,,,,,40685,2021-04-27_18h46.10.192,judgeSpeechMusic_20210407_logNormShiftAmp,2020.1.2,MacIntel,60,,,,,,,,,,,,,,,,,,,,,,,,,,1,6.023905,,0,1,71,221,15,1,stimuli/stim_20210407_power2amp/equal_lnn_AM1.2Hz_72.m4a,,,
,,,,,40685,2021-04-27_18h46.10.192,judgeSpeechMusic_20210407_logNormShiftAmp,2020.1.2,MacIntel,60,,,,,,,,,,,,,,,,,,,,,,,,,,2,6.096105,,0,1,72,222,133,1,stimuli/stim_20210407_power2amp/equal_lnn_AM5.4Hz_76.m4a,,,
,,,,,40685,2021-04-27_18h46.10.192,judgeSpeechMusic_20210407_logNormShiftAmp,2020.1.2,MacIntel,60,,,,,,,,,,,,,,,,,,,,,,,,,,1,6.344435,,0,1,73,223,16,1,stimuli/stim_20210407_power2amp/equal_lnn_AM1.2Hz_92.m4a,,,
,,,,,40685,2021-04-27_18h46.10.192,judgeSpeechMusic_20210407_logNormShiftAmp,2020.1.2,MacIntel,60,,,,,,,,,,,,,,,,,,,,,,,,,,2,5.9282,,0,1,74,224,120,1,stimuli/stim_20210407_power2amp/equal_lnn_AM5.4Hz_12.m4a,,,
,,,,,40685,2021-04-27_18h46.10.192,judgeSpeechMusic_20210407_logNormShiftAmp,2020.1.2,MacIntel,60,,,,,,,,,,,,,,,,,,,,,,,,,,1,6.078955,,0,1,75,225,9,1,stimuli/stim_20210407_power2amp/equal_lnn_AM0.6Hz_27.m4a,,,
,,,,,40685,2021-04-27_18h46.10.192,judgeSpeechMusic_20210407_logNormShiftAmp,2020.1.2,MacIntel,60,,,,,,,,,,,,,,,,,,,,,,,,,,1,5.572725,,0,1,76,226,38,1,stimuli/stim_20210407_power2amp/equal_lnn_AM1.8Hz_91.m4a,,,
,,,,,40685,2021-04-27_18h46.10.192,judgeSpeechMusic_20210407_logNormShiftAmp,2020.1.2,MacIntel,60,,,,,,,,,,,,,,,,,,,,,,,,,,1,5.60707,,0,1,77,227,25,1,stimuli/stim_20210407_power2amp/equal_lnn_AM1.2Hz_71.m4a,,,
,,,,,40685,2021-04-27_18h46.10.192,judgeSpeechMusic_20210407_logNormShiftAmp,2020.1.2,MacIntel,60,,,,,,,,,,,,,,,,,,,,,,,,,,2,6.259175,,0,1,78,228,148,1,stimuli/stim_20210407_power2amp/equal_lnn_AM6Hz_42.m4a,,,
,,,,,40685,2021-04-27_18h46.10.192,judgeSpeechMusic_20210407_logNormShiftAmp,2020.1.2,MacIntel,60,,,,,,,,,,,,,,,,,,,,,,,,,,1,6.178555,,0,1,79,229,49,1,stimuli/stim_20210407_power2amp/equal_lnn_AM2.4Hz_20.m4a,,,
,,,,,40685,2021-04-27_18h46.10.192,judgeSpeechMusic_20210407_logNormShiftAmp,2020.1.2,MacIntel,60,,,,,,,,,,,,,,,,,,,,,,,,,,2,6.163575,,0,1,80,230,124,1,stimuli/stim_20210407_power2amp/equal_lnn_AM5.4Hz_63.m4a,,,
,,,,,40685,2021-04-27_18h46.10.192,judgeSpeechMusic_20210407_logNormShiftAmp,2020.1.2,MacIntel,60,,,,,,,,,,,,,,,,,,,,,,,,,,1,5.69621,,0,1,81,231,43,1,stimuli/stim_20210407_power2amp/equal_lnn_AM1.8Hz_56.m4a,,,
,,,,,40685,2021-04-27_18h46.10.192,judgeSpeechMusic_20210407_logNormShiftAmp,2020.1.2,MacIntel,60,,,,,,,,,,,,,,,,,,,,,,,,,,1,5.873425,,0,1,82,232,66,1,stimuli/stim_20210407_power2amp/equal_lnn_AM3Hz_84.m4a,,,
,,,,,40685,2021-04-27_18h46.10.192,judgeSpeechMusic_20210407_logNormShiftAmp,2020.1.2,MacIntel,60,,,,,,,,,,,,,,,,,,,,,,,,,,2,5.64593,3,1,1,83,233,89,1,stimuli/stim_20210407_power2amp/equal_lnn_AM3.6Hz_18.m4a,1.11009,,
,,,,,40685,2021-04-27_18h46.10.192,judgeSpeechMusic_20210407_logNormShiftAmp,2020.1.2,MacIntel,60,,,,,,,,,,,,,,,,,,,,,,,,,,2,5.67493,,0,1,84,234,139,1,stimuli/stim_20210407_power2amp/equal_lnn_AM6Hz_44.m4a,,,
,,,,,40685,2021-04-27_18h46.10.192,judgeSpeechMusic_20210407_logNormShiftAmp,2020.1.2,MacIntel,60,,,,,,,,,,,,,,,,,,,,,,,,,,1,5.793985,,0,1,85,235,55,1,stimuli/stim_20210407_power2amp/equal_lnn_AM2.4Hz_6.m4a,,,
,,,,,40685,2021-04-27_18h46.10.192,judgeSpeechMusic_20210407_logNormShiftAmp,2020.1.2,MacIntel,60,,,,,,,,,,,,,,,,,,,,,,,,,,1,5.828505,,0,1,86,236,17,1,stimuli/stim_20210407_power2amp/equal_lnn_AM1.2Hz_90.m4a,,,
,,,,,40685,2021-04-27_18h46.10.192,judgeSpeechMusic_20210407_logNormShiftAmp,2020.1.2,MacIntel,60,,,,,,,,,,,,,,,,,,,,,,,,,,2,6.256995,,0,1,87,237,118,1,stimuli/stim_20210407_power2amp/equal_lnn_AM4.8Hz_23.m4a,,,
,,,,,40685,2021-04-27_18h46.10.192,judgeSpeechMusic_20210407_logNormShiftAmp,2020.1.2,MacIntel,60,,,,,,,,,,,,,,,,,,,,,,,,,,2,5.72352,,0,1,88,238,61,1,stimuli/stim_20210407_power2amp/equal_lnn_AM3Hz_13.m4a,,,
,,,,,40685,2021-04-27_18h46.10.192,judgeSpeechMusic_20210407_logNormShiftAmp,2020.1.2,MacIntel,60,,,,,,,,,,,,,,,,,,,,,,,,,,1,5.879215,,0,1,89,239,56,1,stimuli/stim_20210407_power2amp/equal_lnn_AM2.4Hz_84.m4a,,,
,,,,,40685,2021-04-27_18h46.10.192,judgeSpeechMusic_20210407_logNormShiftAmp,2020.1.2,MacIntel,60,,,,,,,,,,,,,,,,,,,,,,,,,,1,6.12832,,0,1,90,240,36,1,stimuli/stim_20210407_power2amp/equal_lnn_AM1.8Hz_8.m4a,,,
,,,,,40685,2021-04-27_18h46.10.192,judgeSpeechMusic_20210407_logNormShiftAmp,2020.1.2,MacIntel,60,,,,,,,,,,,,,,,,,,,,,,,,,,1,5.613095,,0,1,91,241,50,1,stimuli/stim_20210407_power2amp/equal_lnn_AM2.4Hz_60.m4a,,,
,,,,,40685,2021-04-27_18h46.10.192,judgeSpeechMusic_20210407_logNormShiftAmp,2020.1.2,MacIntel,60,,,,,,,,,,,,,,,,,,,,,,,,,,2,6.1104,,0,1,92,242,136,1,stimuli/stim_20210407_power2amp/equal_lnn_AM6Hz_46.m4a,,,
,,,,,40685,2021-04-27_18h46.10.192,judgeSpeechMusic_20210407_logNormShiftAmp,2020.1.2,MacIntel,60,,,,,,,,,,,,,,,,,,,,,,,,,,1,5.87617,,0,1,93,243,26,1,stimuli/stim_20210407_power2amp/equal_lnn_AM1.2Hz_56.m4a,,,
,,,,,40685,2021-04-27_18h46.10.192,judgeSpeechMusic_20210407_logNormShiftAmp,2020.1.2,MacIntel,60,,,,,,,,,,,,,,,,,,,,,,,,,,1,6.280315,,0,1,94,244,0,1,stimuli/stim_20210407_power2amp/equal_lnn_AM0.6Hz_60.m4a,,,
,,,,,40685,2021-04-27_18h46.10.192,judgeSpeechMusic_20210407_logNormShiftAmp,2020.1.2,MacIntel,60,,,,,,,,,,,,,,,,,,,,,,,,,,2,6.12793,,0,1,95,245,108,1,stimuli/stim_20210407_power2amp/equal_lnn_AM4.8Hz_66.m4a,,,
,,,,,40685,2021-04-27_18h46.10.192,judgeSpeechMusic_20210407_logNormShiftAmp,2020.1.2,MacIntel,60,,,,,,,,,,,,,,,,,,,,,,,,,,1,5.94509,,0,1,96,246,81,1,stimuli/stim_20210407_power2amp/equal_lnn_AM3.6Hz_94.m4a,,,
,,,,,40685,2021-04-27_18h46.10.192,judgeSpeechMusic_20210407_logNormShiftAmp,2020.1.2,MacIntel,60,,,,,,,,,,,,,,,,,,,,,,,,,,1,5.744055,,0,1,97,247,90,1,stimuli/stim_20210407_power2amp/equal_lnn_AM4.2Hz_78.m4a,,,
,,,,,40685,2021-04-27_18h46.10.192,judgeSpeechMusic_20210407_logNormShiftAmp,2020.1.2,MacIntel,60,,,,,,,,,,,,,,,,,,,,,,,,,,2,5.778645,,0,1,98,248,91,1,stimuli/stim_20210407_power2amp/equal_lnn_AM4.2Hz_19.m4a,,,
,,,,,40685,2021-04-27_18h46.10.192,judgeSpeechMusic_20210407_logNormShiftAmp,2020.1.2,MacIntel,60,,,,,,,,,,,,,,,,,,,,,,,,,,2,5.825095,,0,1,99,249,87,1,stimuli/stim_20210407_power2amp/equal_lnn_AM3.6Hz_24.m4a,,,
,,,,,40685,2021-04-27_18h46.10.192,judgeSpeechMusic_20210407_logNormShiftAmp,2020.1.2,MacIntel,60,,,,,,,,,,,,,,,,,,,,,,,,,,1,5.724475,,0,1,100,250,12,1,stimuli/stim_20210407_power2amp/equal_lnn_AM0.6Hz_86.m4a,,,
,,,,,40685,2021-04-27_18h46.10.192,judgeSpeechMusic_20210407_logNormShiftAmp,2020.1.2,MacIntel,60,,,,,,,,,,,,,,,,,,,,,,,,,,2,5.777195,,0,1,101,251,115,1,stimuli/stim_20210407_power2amp/equal_lnn_AM4.8Hz_58.m4a,,,
,,,,,40685,2021-04-27_18h46.10.192,judgeSpeechMusic_20210407_logNormShiftAmp,2020.1.2,MacIntel,60,,,,,,,,,,,,,,,,,,,,,,,,,,1,5.81037,,0,1,102,252,74,1,stimuli/stim_20210407_power2amp/equal_lnn_AM3Hz_34.m4a,,,
,,,,,40685,2021-04-27_18h46.10.192,judgeSpeechMusic_20210407_logNormShiftAmp,2020.1.2,MacIntel,60,,,,,,,,,,,,,,,,,,,,,,,,,,1,5.627575,,0,1,103,253,76,1,stimuli/stim_20210407_power2amp/equal_lnn_AM3.6Hz_66.m4a,,,
,,,,,40685,2021-04-27_18h46.10.192,judgeSpeechMusic_20210407_logNormShiftAmp,2020.1.2,MacIntel,60,,,,,,,,,,,,,,,,,,,,,,,,,,1,5.758495,,0,1,104,254,27,1,stimuli/stim_20210407_power2amp/equal_lnn_AM1.2Hz_75.m4a,,,
,,,,,40685,2021-04-27_18h46.10.192,judgeSpeechMusic_20210407_logNormShiftAmp,2020.1.2,MacIntel,60,,,,,,,,,,,,,,,,,,,,,,,,,,1,5.69095,,0,1,105,255,37,1,stimuli/stim_20210407_power2amp/equal_lnn_AM1.8Hz_20.m4a,,,
,,,,,40685,2021-04-27_18h46.10.192,judgeSpeechMusic_20210407_logNormShiftAmp,2020.1.2,MacIntel,60,,,,,,,,,,,,,,,,,,,,,,,,,,1,5.70989,,0,1,106,256,73,1,stimuli/stim_20210407_power2amp/equal_lnn_AM3Hz_96.m4a,,,
,,,,,40685,2021-04-27_18h46.10.192,judgeSpeechMusic_20210407_logNormShiftAmp,2020.1.2,MacIntel,60,,,,,,,,,,,,,,,,,,,,,,,,,,2,5.85716,4,1,1,107,257,53,1,stimuli/stim_20210407_power2amp/equal_lnn_AM2.4Hz_1.m4a,0.893475,,
,,,,,40685,2021-04-27_18h46.10.192,judgeSpeechMusic_20210407_logNormShiftAmp,2020.1.2,MacIntel,60,,,,,,,,,,,,,,,,,,,,,,,,,,1,5.943945,,0,1,108,258,1,1,stimuli/stim_20210407_power2amp/equal_lnn_AM0.6Hz_82.m4a,,,
,,,,,40685,2021-04-27_18h46.10.192,judgeSpeechMusic_20210407_logNormShiftAmp,2020.1.2,MacIntel,60,,,,,,,,,,,,,,,,,,,,,,,,,,1,5.724735,,0,1,109,259,31,1,stimuli/stim_20210407_power2amp/equal_lnn_AM1.8Hz_34.m4a,,,
,,,,,40685,2021-04-27_18h46.10.192,judgeSpeechMusic_20210407_logNormShiftAmp,2020.1.2,MacIntel,60,,,,,,,,,,,,,,,,,,,,,,,,,,2,6.89623,,0,1,110,260,62,1,stimuli/stim_20210407_power2amp/equal_lnn_AM3Hz_87.m4a,,,
,,,,,40685,2021-04-27_18h46.10.192,judgeSpeechMusic_20210407_logNormShiftAmp,2020.1.2,MacIntel,60,,,,,,,,,,,,,,,,,,,,,,,,,,1,6.02364,,0,1,111,261,23,1,stimuli/stim_20210407_power2amp/equal_lnn_AM1.2Hz_96.m4a,,,
,,,,,40685,2021-04-27_18h46.10.192,judgeSpeechMusic_20210407_logNormShiftAmp,2020.1.2,MacIntel,60,,,,,,,,,,,,,,,,,,,,,,,,,,2,6.07737,,0,1,112,262,110,1,stimuli/stim_20210407_power2amp/equal_lnn_AM4.8Hz_40.m4a,,,
,,,,,40685,2021-04-27_18h46.10.192,judgeSpeechMusic_20210407_logNormShiftAmp,2020.1.2,MacIntel,60,,,,,,,,,,,,,,,,,,,,,,,,,,2,5.678515,,0,1,113,263,95,1,stimuli/stim_20210407_power2amp/equal_lnn_AM4.2Hz_38.m4a,,,
,,,,,40685,2021-04-27_18h46.10.192,judgeSpeechMusic_20210407_logNormShiftAmp,2020.1.2,MacIntel,60,,,,,,,,,,,,,,,,,,,,,,,,,,2,5.707745,,0,1,114,264,141,1,stimuli/stim_20210407_power2amp/equal_lnn_AM6Hz_87.m4a,,,
,,,,,40685,2021-04-27_18h46.10.192,judgeSpeechMusic_20210407_logNormShiftAmp,2020.1.2,MacIntel,60,,,,,,,,,,,,,,,,,,,,,,,,,,2,5.62657,,0,1,115,265,145,1,stimuli/stim_20210407_power2amp/equal_lnn_AM6Hz_84.m4a,,,
,,,,,40685,2021-04-27_18h46.10.192,judgeSpeechMusic_20210407_logNormShiftAmp,2020.1.2,MacIntel,60,,,,,,,,,,,,,,,,,,,,,,,,,,2,5.62965,,0,1,116,266,134,1,stimuli/stim_20210407_power2amp/equal_lnn_AM5.4Hz_81.m4a,,,
,,,,,40685,2021-04-27_18h46.10.192,judgeSpeechMusic_20210407_logNormShiftAmp,2020.1.2,MacIntel,60,,,,,,,,,,,,,,,,,,,,,,,,,,2,6.12629,,0,1,117,267,84,1,stimuli/stim_20210407_power2amp/equal_lnn_AM3.6Hz_19.m4a,,,
,,,,,40685,2021-04-27_18h46.10.192,judgeSpeechMusic_20210407_logNormShiftAmp,2020.1.2,MacIntel,60,,,,,,,,,,,,,,,,,,,,,,,,,,2,5.62797,,0,1,118,268,100,1,stimuli/stim_20210407_power2amp/equal_lnn_AM4.2Hz_84.m4a,,,
,,,,,40685,2021-04-27_18h46.10.192,judgeSpeechMusic_20210407_logNormShiftAmp,2020.1.2,MacIntel,60,,,,,,,,,,,,,,,,,,,,,,,,,,1,5.827085,,0,1,119,269,46,1,stimuli/stim_20210407_power2amp/equal_lnn_AM2.4Hz_55.m4a,,,
,,,,,40685,2021-04-27_18h46.10.192,judgeSpeechMusic_20210407_logNormShiftAmp,2020.1.2,MacIntel,60,,,,,,,,,,,,,,,,,,,,,,,,,,1,5.87523,,0,1,120,270,64,1,stimuli/stim_20210407_power2amp/equal_lnn_AM3Hz_30.m4a,,,
,,,,,40685,2021-04-27_18h46.10.192,judgeSpeechMusic_20210407_logNormShiftAmp,2020.1.2,MacIntel,60,,,,,,,,,,,,,,,,,,,,,,,,,,1,6.02827,,0,1,121,271,11,1,stimuli/stim_20210407_power2amp/equal_lnn_AM0.6Hz_14.m4a,,,
,,,,,40685,2021-04-27_18h46.10.192,judgeSpeechMusic_20210407_logNormShiftAmp,2020.1.2,MacIntel,60,,,,,,,,,,,,,,,,,,,,,,,,,,2,5.84624,,0,1,122,272,122,1,stimuli/stim_20210407_power2amp/equal_lnn_AM5.4Hz_34.m4a,,,
,,,,,40685,2021-04-27_18h46.10.192,judgeSpeechMusic_20210407_logNormShiftAmp,2020.1.2,MacIntel,60,,,,,,,,,,,,,,,,,,,,,,,,,,2,6.06066,,0,1,123,273,99,1,stimuli/stim_20210407_power2amp/equal_lnn_AM4.2Hz_79.m4a,,,
,,,,,40685,2021-04-27_18h46.10.192,judgeSpeechMusic_20210407_logNormShiftAmp,2020.1.2,MacIntel,60,,,,,,,,,,,,,,,,,,,,,,,,,,2,5.743485,,0,1,124,274,135,1,stimuli/stim_20210407_power2amp/equal_lnn_AM6Hz_67.m4a,,,
,,,,,40685,2021-04-27_18h46.10.192,judgeSpeechMusic_20210407_logNormShiftAmp,2020.1.2,MacIntel,60,,,,,,,,,,,,,,,,,,,,,,,,,,1,5.825245,,0,1,125,275,32,1,stimuli/stim_20210407_power2amp/equal_lnn_AM1.8Hz_47.m4a,,,
,,,,,40685,2021-04-27_18h46.10.192,judgeSpeechMusic_20210407_logNormShiftAmp,2020.1.2,MacIntel,60,,,,,,,,,,,,,,,,,,,,,,,,,,1,6.909665,,0,1,126,276,83,1,stimuli/stim_20210407_power2amp/equal_lnn_AM3.6Hz_57.m4a,,,
,,,,,40685,2021-04-27_18h46.10.192,judgeSpeechMusic_20210407_logNormShiftAmp,2020.1.2,MacIntel,60,,,,,,,,,,,,,,,,,,,,,,,,,,1,6.04342,4,1,1,127,277,93,1,stimuli/stim_20210407_power2amp/equal_lnn_AM4.2Hz_34.m4a,1.043375,,
,,,,,40685,2021-04-27_18h46.10.192,judgeSpeechMusic_20210407_logNormShiftAmp,2020.1.2,MacIntel,60,,,,,,,,,,,,,,,,,,,,,,,,,,1,6.211685,,0,1,128,278,33,1,stimuli/stim_20210407_power2amp/equal_lnn_AM1.8Hz_86.m4a,,,
,,,,,40685,2021-04-27_18h46.10.192,judgeSpeechMusic_20210407_logNormShiftAmp,2020.1.2,MacIntel,60,,,,,,,,,,,,,,,,,,,,,,,,,,2,5.878895,,0,1,129,279,131,1,stimuli/stim_20210407_power2amp/equal_lnn_AM5.4Hz_41.m4a,,,
,,,,,40685,2021-04-27_18h46.10.192,judgeSpeechMusic_20210407_logNormShiftAmp,2020.1.2,MacIntel,60,,,,,,,,,,,,,,,,,,,,,,,,,,2,6.01175,,0,1,130,280,79,1,stimuli/stim_20210407_power2amp/equal_lnn_AM3.6Hz_36.m4a,,,
,,,,,40685,2021-04-27_18h46.10.192,judgeSpeechMusic_20210407_logNormShiftAmp,2020.1.2,MacIntel,60,,,,,,,,,,,,,,,,,,,,,,,,,,1,5.725415,,0,1,131,281,51,1,stimuli/stim_20210407_power2amp/equal_lnn_AM2.4Hz_43.m4a,,,
,,,,,40685,2021-04-27_18h46.10.192,judgeSpeechMusic_20210407_logNormShiftAmp,2020.1.2,MacIntel,60,,,,,,,,,,,,,,,,,,,,,,,,,,1,8.24352,,0,1,132,282,40,1,stimuli/stim_20210407_power2amp/equal_lnn_AM1.8Hz_75.m4a,,,
,,,,,40685,2021-04-27_18h46.10.192,judgeSpeechMusic_20210407_logNormShiftAmp,2020.1.2,MacIntel,60,,,,,,,,,,,,,,,,,,,,,,,,,,2,6.274185,,0,1,133,283,144,1,stimuli/stim_20210407_power2amp/equal_lnn_AM6Hz_93.m4a,,,
,,,,,40685,2021-04-27_18h46.10.192,judgeSpeechMusic_20210407_logNormShiftAmp,2020.1.2,MacIntel,60,,,,,,,,,,,,,,,,,,,,,,,,,,2,5.906705,,0,1,134,284,146,1,stimuli/stim_20210407_power2amp/equal_lnn_AM6Hz_92.m4a,,,
,,,,,40685,2021-04-27_18h46.10.192,judgeSpeechMusic_20210407_logNormShiftAmp,2020.1.2,MacIntel,60,,,,,,,,,,,,,,,,,,,,,,,,,,2,5.760005,,0,1,135,285,149,1,stimuli/stim_20210407_power2amp/equal_lnn_AM6Hz_30.m4a,,,
,,,,,40685,2021-04-27_18h46.10.192,judgeSpeechMusic_20210407_logNormShiftAmp,2020.1.2,MacIntel,60,,,,,,,,,,,,,,,,,,,,,,,,,,2,6.162455,,0,1,136,286,107,1,stimuli/stim_20210407_power2amp/equal_lnn_AM4.8Hz_38.m4a,,,
,,,,,40685,2021-04-27_18h46.10.192,judgeSpeechMusic_20210407_logNormShiftAmp,2020.1.2,MacIntel,60,,,,,,,,,,,,,,,,,,,,,,,,,,2,5.68025,,0,1,137,287,140,1,stimuli/stim_20210407_power2amp/equal_lnn_AM6Hz_59.m4a,,,
,,,,,40685,2021-04-27_18h46.10.192,judgeSpeechMusic_20210407_logNormShiftAmp,2020.1.2,MacIntel,60,,,,,,,,,,,,,,,,,,,,,,,,,,2,5.692085,,0,1,138,288,105,1,stimuli/stim_20210407_power2amp/equal_lnn_AM4.8Hz_97.m4a,,,
,,,,,40685,2021-04-27_18h46.10.192,judgeSpeechMusic_20210407_logNormShiftAmp,2020.1.2,MacIntel,60,,,,,,,,,,,,,,,,,,,,,,,,,,1,6.076765,,0,1,139,289,7,1,stimuli/stim_20210407_power2amp/equal_lnn_AM0.6Hz_18.m4a,,,
,,,,,40685,2021-04-27_18h46.10.192,judgeSpeechMusic_20210407_logNormShiftAmp,2020.1.2,MacIntel,60,,,,,,,,,,,,,,,,,,,,,,,,,,1,5.978435,,0,1,140,290,29,1,stimuli/stim_20210407_power2amp/equal_lnn_AM1.2Hz_4.m4a,,,
,,,,,40685,2021-04-27_18h46.10.192,judgeSpeechMusic_20210407_logNormShiftAmp,2020.1.2,MacIntel,60,,,,,,,,,,,,,,,,,,,,,,,,,,1,5.845255,,0,1,141,291,8,1,stimuli/stim_20210407_power2amp/equal_lnn_AM0.6Hz_25.m4a,,,
,,,,,40685,2021-04-27_18h46.10.192,judgeSpeechMusic_20210407_logNormShiftAmp,2020.1.2,MacIntel,60,,,,,,,,,,,,,,,,,,,,,,,,,,2,5.74513,,0,1,142,292,98,1,stimuli/stim_20210407_power2amp/equal_lnn_AM4.2Hz_28.m4a,,,
,,,,,40685,2021-04-27_18h46.10.192,judgeSpeechMusic_20210407_logNormShiftAmp,2020.1.2,MacIntel,60,,,,,,,,,,,,,,,,,,,,,,,,,,1,6.107325,,0,1,143,293,4,1,stimuli/stim_20210407_power2amp/equal_lnn_AM0.6Hz_8.m4a,,,
,,,,,40685,2021-04-27_18h46.10.192,judgeSpeechMusic_20210407_logNormShiftAmp,2020.1.2,MacIntel,60,,,,,,,,,,,,,,,,,,,,,,,,,,1,5.96073,,0,1,144,294,18,1,stimuli/stim_20210407_power2amp/equal_lnn_AM1.2Hz_24.m4a,,,
,,,,,40685,2021-04-27_18h46.10.192,judgeSpeechMusic_20210407_logNormShiftAmp,2020.1.2,MacIntel,60,,,,,,,,,,,,,,,,,,,,,,,,,,2,6.328495,,0,1,145,295,96,1,stimuli/stim_20210407_power2amp/equal_lnn_AM4.2Hz_58.m4a,,,
,,,,,40685,2021-04-27_18h46.10.192,judgeSpeechMusic_20210407_logNormShiftAmp,2020.1.2,MacIntel,60,,,,,,,,,,,,,,,,,,,,,,,,,,2,5.82759,,0,1,146,296,114,1,stimuli/stim_20210407_power2amp/equal_lnn_AM4.8Hz_89.m4a,,,
,,,,,40685,2021-04-27_18h46.10.192,judgeSpeechMusic_20210407_logNormShiftAmp,2020.1.2,MacIntel,60,,,,,,,,,,,,,,,,,,,,,,,,,,2,5.70998,,0,1,147,297,97,1,stimuli/stim_20210407_power2amp/equal_lnn_AM4.2Hz_6.m4a,,,
,,,,,40685,2021-04-27_18h46.10.192,judgeSpeechMusic_20210407_logNormShiftAmp,2020.1.2,MacIntel,60,,,,,,,,,,,,,,,,,,,,,,,,,,1,5.96122,,0,1,148,298,48,1,stimuli/stim_20210407_power2amp/equal_lnn_AM2.4Hz_24.m4a,,,
,,,,,40685,2021-04-27_18h46.10.192,judgeSpeechMusic_20210407_logNormShiftAmp,2020.1.2,MacIntel,60,,,,,,,,,,,,,,,,,,,,,,,,,,2,6.0909,,0,1,149,299,143,1,stimuli/stim_20210407_power2amp/equal_lnn_AM6Hz_96.m4a,,,
,,,,,40685,2021-04-27_18h46.10.192,judgeSpeechMusic_20210407_logNormShiftAmp,2020.1.2,MacIntel,60,,,,,,,,,,,,,,,,,,,,,,,,,,,,,,,,,,,,,space,4.25078
