volAdjustRep.thisRepN,volAdjustRep.thisTrialN,volAdjustRep.thisN,volAdjustRep.thisIndex,volAdjustRep.ran,participant,date,expName,psychopyVersion,OS,frameRate,headphoneResponse.keys,headphoneResponse.corr,headphoneResponse.rt,headphoneTrial.thisRepN,headphoneTrial.thisTrialN,headphoneTrial.thisN,headphoneTrial.thisIndex,headphoneTrial.ran,headphone_sound1,headphone_sound2,headphone_sound3,corrAns,trainSlider.response,trainSlider.rt,beepTrainResponse.keys,beepTrainResponse.corr,trainingTrials.thisRepN,trainingTrials.thisTrialN,trainingTrials.thisN,trainingTrials.thisIndex,trainingTrials.ran,trainAudioFile,beepTrainResponse.rt,readyReal_resp.keys,readyReal_resp.rt,ratingSlider.response,ratingSlider.rt,beepResp.keys,beepResp.corr,expTrials.thisRepN,expTrials.thisTrialN,expTrials.thisN,expTrials.thisIndex,expTrials.ran,audioFile,beepResp.rt,end_resp.keys,end_resp.rt
0,0,0,0,1,40699,2021-05-09_20h21.09.086,judgeSpeechMusic_20210407_logNormShiftAmp,2020.1.2,MacIntel,60,,,,,,,,,,,,,,,,,,,,,,,,,,,,,,,,,,,,,,
,,,,,40699,2021-05-09_20h21.09.086,judgeSpeechMusic_20210407_logNormShiftAmp,2020.1.2,MacIntel,60,2,1,22.77138,0,0,0,1,1,stimuli/screen_antiphase.wav,stimuli/screen_quiet.wav,stimuli/screen_origin.wav,2,,,,,,,,,,,,,,,,,,,,,,,,,,
,,,,,40699,2021-05-09_20h21.09.086,judgeSpeechMusic_20210407_logNormShiftAmp,2020.1.2,MacIntel,60,2,1,9.106245,0,1,1,3,1,stimuli/screen_origin.wav,stimuli/screen_quiet.wav,stimuli/screen_antiphase.wav,2,,,,,,,,,,,,,,,,,,,,,,,,,,
,,,,,40699,2021-05-09_20h21.09.086,judgeSpeechMusic_20210407_logNormShiftAmp,2020.1.2,MacIntel,60,1,1,2.254355,0,2,2,4,1,stimuli/screen_quiet.wav,stimuli/screen_antiphase.wav,stimuli/screen_origin.wav,1,,,,,,,,,,,,,,,,,,,,,,,,,,
,,,,,40699,2021-05-09_20h21.09.086,judgeSpeechMusic_20210407_logNormShiftAmp,2020.1.2,MacIntel,60,3,0,8.95691,0,3,3,5,1,stimuli/screen_quiet.wav,stimuli/screen_origin.wav,stimuli/screen_antiphase.wav,1,,,,,,,,,,,,,,,,,,,,,,,,,,
,,,,,40699,2021-05-09_20h21.09.086,judgeSpeechMusic_20210407_logNormShiftAmp,2020.1.2,MacIntel,60,3,1,3.20928,0,4,4,2,1,stimuli/screen_origin.wav,stimuli/screen_antiphase.wav,stimuli/screen_quiet.wav,3,,,,,,,,,,,,,,,,,,,,,,,,,,
,,,,,40699,2021-05-09_20h21.09.086,judgeSpeechMusic_20210407_logNormShiftAmp,2020.1.2,MacIntel,60,3,1,1.154495,0,5,5,0,1,stimuli/screen_antiphase.wav,stimuli/screen_origin.wav,stimuli/screen_quiet.wav,3,,,,,,,,,,,,,,,,,,,,,,,,,,
,,,,,40699,2021-05-09_20h21.09.086,judgeSpeechMusic_20210407_logNormShiftAmp,2020.1.2,MacIntel,60,,,,,,,,,,,,,2,43.709875,,0,0,0,0,1,1,stimuli/stim_20210407_power2amp/equal_lnn_AM_training2.7Hz.m4a,,,,,,,,,,,,,,,,
,,,,,40699,2021-05-09_20h21.09.086,judgeSpeechMusic_20210407_logNormShiftAmp,2020.1.2,MacIntel,60,,,,,,,,,,,,,1,11.278955,,0,0,1,1,2,1,stimuli/stim_20210407_power2amp/equal_lnn_AM_training3.9Hz.m4a,,,,,,,,,,,,,,,,
,,,,,40699,2021-05-09_20h21.09.086,judgeSpeechMusic_20210407_logNormShiftAmp,2020.1.2,MacIntel,60,,,,,,,,,,,,,2,7.767105,2,1,0,2,2,0,1,stimuli/stim_20210407_power2amp/equal_lnn_AM_training1.5Hz.m4a,2.39581,,,,,,,,,,,,,,,
,,,,,40699,2021-05-09_20h21.09.086,judgeSpeechMusic_20210407_logNormShiftAmp,2020.1.2,MacIntel,60,,,,,,,,,,,,,1,26.750265,,0,0,3,3,3,1,stimuli/stim_20210407_power2amp/equal_lnn_AM_training5.1Hz.m4a,,,,,,,,,,,,,,,,
,,,,,40699,2021-05-09_20h21.09.086,judgeSpeechMusic_20210407_logNormShiftAmp,2020.1.2,MacIntel,60,,,,,,,,,,,,,,,,,,,,,,,,space,11.46583,1,19.319605,,0,0,0,0,8,1,stimuli/stim_20210407_power2amp/equal_lnn_AM0.6Hz_96.m4a,,,
,,,,,40699,2021-05-09_20h21.09.086,judgeSpeechMusic_20210407_logNormShiftAmp,2020.1.2,MacIntel,60,,,,,,,,,,,,,,,,,,,,,,,,,,1,22.98517,,0,0,1,1,132,1,stimuli/stim_20210407_power2amp/equal_lnn_AM5.4Hz_24.m4a,,,
,,,,,40699,2021-05-09_20h21.09.086,judgeSpeechMusic_20210407_logNormShiftAmp,2020.1.2,MacIntel,60,,,,,,,,,,,,,,,,,,,,,,,,,,2,11.58346,,0,0,2,2,105,1,stimuli/stim_20210407_power2amp/equal_lnn_AM4.8Hz_65.m4a,,,
,,,,,40699,2021-05-09_20h21.09.086,judgeSpeechMusic_20210407_logNormShiftAmp,2020.1.2,MacIntel,60,,,,,,,,,,,,,,,,,,,,,,,,,,1,16.24138,,0,0,3,3,126,1,stimuli/stim_20210407_power2amp/equal_lnn_AM5.4Hz_18.m4a,,,
,,,,,40699,2021-05-09_20h21.09.086,judgeSpeechMusic_20210407_logNormShiftAmp,2020.1.2,MacIntel,60,,,,,,,,,,,,,,,,,,,,,,,,,,2,43.83719,,0,0,4,4,90,1,stimuli/stim_20210407_power2amp/equal_lnn_AM4.2Hz_3.m4a,,,
,,,,,40699,2021-05-09_20h21.09.086,judgeSpeechMusic_20210407_logNormShiftAmp,2020.1.2,MacIntel,60,,,,,,,,,,,,,,,,,,,,,,,,,,2,9.997955,,0,0,5,5,51,1,stimuli/stim_20210407_power2amp/equal_lnn_AM2.4Hz_35.m4a,,,
,,,,,40699,2021-05-09_20h21.09.086,judgeSpeechMusic_20210407_logNormShiftAmp,2020.1.2,MacIntel,60,,,,,,,,,,,,,,,,,,,,,,,,,,1,13.334755,,0,0,6,6,48,1,stimuli/stim_20210407_power2amp/equal_lnn_AM2.4Hz_71.m4a,,,
,,,,,40699,2021-05-09_20h21.09.086,judgeSpeechMusic_20210407_logNormShiftAmp,2020.1.2,MacIntel,60,,,,,,,,,,,,,,,,,,,,,,,,,,2,6.86511,,0,0,7,7,124,1,stimuli/stim_20210407_power2amp/equal_lnn_AM5.4Hz_77.m4a,,,
,,,,,40699,2021-05-09_20h21.09.086,judgeSpeechMusic_20210407_logNormShiftAmp,2020.1.2,MacIntel,60,,,,,,,,,,,,,,,,,,,,,,,,,,1,6.6819,,0,0,8,8,130,1,stimuli/stim_20210407_power2amp/equal_lnn_AM5.4Hz_80.m4a,,,
,,,,,40699,2021-05-09_20h21.09.086,judgeSpeechMusic_20210407_logNormShiftAmp,2020.1.2,MacIntel,60,,,,,,,,,,,,,,,,,,,,,,,,,,1,10.201095,,0,0,9,9,3,1,stimuli/stim_20210407_power2amp/equal_lnn_AM0.6Hz_31.m4a,,,
,,,,,40699,2021-05-09_20h21.09.086,judgeSpeechMusic_20210407_logNormShiftAmp,2020.1.2,MacIntel,60,,,,,,,,,,,,,,,,,,,,,,,,,,2,17.12655,,0,0,10,10,122,1,stimuli/stim_20210407_power2amp/equal_lnn_AM5.4Hz_10.m4a,,,
,,,,,40699,2021-05-09_20h21.09.086,judgeSpeechMusic_20210407_logNormShiftAmp,2020.1.2,MacIntel,60,,,,,,,,,,,,,,,,,,,,,,,,,,2,6.90193,,0,0,11,11,82,1,stimuli/stim_20210407_power2amp/equal_lnn_AM3.6Hz_55.m4a,,,
,,,,,40699,2021-05-09_20h21.09.086,judgeSpeechMusic_20210407_logNormShiftAmp,2020.1.2,MacIntel,60,,,,,,,,,,,,,,,,,,,,,,,,,,2,8.93343,,0,0,12,12,85,1,stimuli/stim_20210407_power2amp/equal_lnn_AM3.6Hz_69.m4a,,,
,,,,,40699,2021-05-09_20h21.09.086,judgeSpeechMusic_20210407_logNormShiftAmp,2020.1.2,MacIntel,60,,,,,,,,,,,,,,,,,,,,,,,,,,1,7.001615,,0,0,13,13,140,1,stimuli/stim_20210407_power2amp/equal_lnn_AM6Hz_70.m4a,,,
,,,,,40699,2021-05-09_20h21.09.086,judgeSpeechMusic_20210407_logNormShiftAmp,2020.1.2,MacIntel,60,,,,,,,,,,,,,,,,,,,,,,,,,,1,5.80788,,0,0,14,14,20,1,stimuli/stim_20210407_power2amp/equal_lnn_AM1.2Hz_86.m4a,,,
,,,,,40699,2021-05-09_20h21.09.086,judgeSpeechMusic_20210407_logNormShiftAmp,2020.1.2,MacIntel,60,,,,,,,,,,,,,,,,,,,,,,,,,,1,13.2397,,0,0,15,15,31,1,stimuli/stim_20210407_power2amp/equal_lnn_AM1.8Hz_57.m4a,,,
,,,,,40699,2021-05-09_20h21.09.086,judgeSpeechMusic_20210407_logNormShiftAmp,2020.1.2,MacIntel,60,,,,,,,,,,,,,,,,,,,,,,,,,,2,14.333365,,0,0,16,16,39,1,stimuli/stim_20210407_power2amp/equal_lnn_AM1.8Hz_96.m4a,,,
,,,,,40699,2021-05-09_20h21.09.086,judgeSpeechMusic_20210407_logNormShiftAmp,2020.1.2,MacIntel,60,,,,,,,,,,,,,,,,,,,,,,,,,,1,6.85549,,0,0,17,17,80,1,stimuli/stim_20210407_power2amp/equal_lnn_AM3.6Hz_56.m4a,,,
,,,,,40699,2021-05-09_20h21.09.086,judgeSpeechMusic_20210407_logNormShiftAmp,2020.1.2,MacIntel,60,,,,,,,,,,,,,,,,,,,,,,,,,,1,7.378005,,0,0,18,18,100,1,stimuli/stim_20210407_power2amp/equal_lnn_AM4.2Hz_19.m4a,,,
,,,,,40699,2021-05-09_20h21.09.086,judgeSpeechMusic_20210407_logNormShiftAmp,2020.1.2,MacIntel,60,,,,,,,,,,,,,,,,,,,,,,,,,,1,6.00536,,0,0,19,19,104,1,stimuli/stim_20210407_power2amp/equal_lnn_AM4.2Hz_17.m4a,,,
,,,,,40699,2021-05-09_20h21.09.086,judgeSpeechMusic_20210407_logNormShiftAmp,2020.1.2,MacIntel,60,,,,,,,,,,,,,,,,,,,,,,,,,,1,8.026185,,0,0,20,20,95,1,stimuli/stim_20210407_power2amp/equal_lnn_AM4.2Hz_7.m4a,,,
,,,,,40699,2021-05-09_20h21.09.086,judgeSpeechMusic_20210407_logNormShiftAmp,2020.1.2,MacIntel,60,,,,,,,,,,,,,,,,,,,,,,,,,,2,6.865325,,0,0,21,21,52,1,stimuli/stim_20210407_power2amp/equal_lnn_AM2.4Hz_100.m4a,,,
,,,,,40699,2021-05-09_20h21.09.086,judgeSpeechMusic_20210407_logNormShiftAmp,2020.1.2,MacIntel,60,,,,,,,,,,,,,,,,,,,,,,,,,,1,8.006215,,0,0,22,22,49,1,stimuli/stim_20210407_power2amp/equal_lnn_AM2.4Hz_73.m4a,,,
,,,,,40699,2021-05-09_20h21.09.086,judgeSpeechMusic_20210407_logNormShiftAmp,2020.1.2,MacIntel,60,,,,,,,,,,,,,,,,,,,,,,,,,,1,6.274785,,0,0,23,23,29,1,stimuli/stim_20210407_power2amp/equal_lnn_AM1.2Hz_42.m4a,,,
,,,,,40699,2021-05-09_20h21.09.086,judgeSpeechMusic_20210407_logNormShiftAmp,2020.1.2,MacIntel,60,,,,,,,,,,,,,,,,,,,,,,,,,,2,9.18004,,0,0,24,24,127,1,stimuli/stim_20210407_power2amp/equal_lnn_AM5.4Hz_5.m4a,,,
,,,,,40699,2021-05-09_20h21.09.086,judgeSpeechMusic_20210407_logNormShiftAmp,2020.1.2,MacIntel,60,,,,,,,,,,,,,,,,,,,,,,,,,,2,8.418115,,0,0,25,25,112,1,stimuli/stim_20210407_power2amp/equal_lnn_AM4.8Hz_12.m4a,,,
,,,,,40699,2021-05-09_20h21.09.086,judgeSpeechMusic_20210407_logNormShiftAmp,2020.1.2,MacIntel,60,,,,,,,,,,,,,,,,,,,,,,,,,,1,6.23222,,0,0,26,26,15,1,stimuli/stim_20210407_power2amp/equal_lnn_AM1.2Hz_12.m4a,,,
,,,,,40699,2021-05-09_20h21.09.086,judgeSpeechMusic_20210407_logNormShiftAmp,2020.1.2,MacIntel,60,,,,,,,,,,,,,,,,,,,,,,,,,,2,8.714825,,0,0,27,27,65,1,stimuli/stim_20210407_power2amp/equal_lnn_AM3Hz_23.m4a,,,
,,,,,40699,2021-05-09_20h21.09.086,judgeSpeechMusic_20210407_logNormShiftAmp,2020.1.2,MacIntel,60,,,,,,,,,,,,,,,,,,,,,,,,,,1,6.180765,,0,0,28,28,58,1,stimuli/stim_20210407_power2amp/equal_lnn_AM2.4Hz_27.m4a,,,
,,,,,40699,2021-05-09_20h21.09.086,judgeSpeechMusic_20210407_logNormShiftAmp,2020.1.2,MacIntel,60,,,,,,,,,,,,,,,,,,,,,,,,,,1,9.346315,,0,0,29,29,73,1,stimuli/stim_20210407_power2amp/equal_lnn_AM3Hz_55.m4a,,,
,,,,,40699,2021-05-09_20h21.09.086,judgeSpeechMusic_20210407_logNormShiftAmp,2020.1.2,MacIntel,60,,,,,,,,,,,,,,,,,,,,,,,,,,1,7.777925,,0,0,30,30,21,1,stimuli/stim_20210407_power2amp/equal_lnn_AM1.2Hz_11.m4a,,,
,,,,,40699,2021-05-09_20h21.09.086,judgeSpeechMusic_20210407_logNormShiftAmp,2020.1.2,MacIntel,60,,,,,,,,,,,,,,,,,,,,,,,,,,1,6.031785,,0,0,31,31,0,1,stimuli/stim_20210407_power2amp/equal_lnn_AM0.6Hz_27.m4a,,,
,,,,,40699,2021-05-09_20h21.09.086,judgeSpeechMusic_20210407_logNormShiftAmp,2020.1.2,MacIntel,60,,,,,,,,,,,,,,,,,,,,,,,,,,1,6.767265,,0,0,32,32,133,1,stimuli/stim_20210407_power2amp/equal_lnn_AM5.4Hz_81.m4a,,,
,,,,,40699,2021-05-09_20h21.09.086,judgeSpeechMusic_20210407_logNormShiftAmp,2020.1.2,MacIntel,60,,,,,,,,,,,,,,,,,,,,,,,,,,2,10.18805,,0,0,33,33,91,1,stimuli/stim_20210407_power2amp/equal_lnn_AM4.2Hz_62.m4a,,,
,,,,,40699,2021-05-09_20h21.09.086,judgeSpeechMusic_20210407_logNormShiftAmp,2020.1.2,MacIntel,60,,,,,,,,,,,,,,,,,,,,,,,,,,1,6.84067,1,1,0,34,34,14,1,stimuli/stim_20210407_power2amp/equal_lnn_AM0.6Hz_97.m4a,1.41141,,
,,,,,40699,2021-05-09_20h21.09.086,judgeSpeechMusic_20210407_logNormShiftAmp,2020.1.2,MacIntel,60,,,,,,,,,,,,,,,,,,,,,,,,,,1,5.757975,,0,0,35,35,7,1,stimuli/stim_20210407_power2amp/equal_lnn_AM0.6Hz_55.m4a,,,
,,,,,40699,2021-05-09_20h21.09.086,judgeSpeechMusic_20210407_logNormShiftAmp,2020.1.2,MacIntel,60,,,,,,,,,,,,,,,,,,,,,,,,,,2,6.831895,,0,0,36,36,61,1,stimuli/stim_20210407_power2amp/equal_lnn_AM3Hz_39.m4a,,,
,,,,,40699,2021-05-09_20h21.09.086,judgeSpeechMusic_20210407_logNormShiftAmp,2020.1.2,MacIntel,60,,,,,,,,,,,,,,,,,,,,,,,,,,2,5.92855,,0,0,37,37,67,1,stimuli/stim_20210407_power2amp/equal_lnn_AM3Hz_64.m4a,,,
,,,,,40699,2021-05-09_20h21.09.086,judgeSpeechMusic_20210407_logNormShiftAmp,2020.1.2,MacIntel,60,,,,,,,,,,,,,,,,,,,,,,,,,,2,5.857355,,0,0,38,38,64,1,stimuli/stim_20210407_power2amp/equal_lnn_AM3Hz_94.m4a,,,
,,,,,40699,2021-05-09_20h21.09.086,judgeSpeechMusic_20210407_logNormShiftAmp,2020.1.2,MacIntel,60,,,,,,,,,,,,,,,,,,,,,,,,,,1,8.01943,,0,0,39,39,72,1,stimuli/stim_20210407_power2amp/equal_lnn_AM3Hz_58.m4a,,,
,,,,,40699,2021-05-09_20h21.09.086,judgeSpeechMusic_20210407_logNormShiftAmp,2020.1.2,MacIntel,60,,,,,,,,,,,,,,,,,,,,,,,,,,1,10.51933,,0,0,40,40,27,1,stimuli/stim_20210407_power2amp/equal_lnn_AM1.2Hz_14.m4a,,,
,,,,,40699,2021-05-09_20h21.09.086,judgeSpeechMusic_20210407_logNormShiftAmp,2020.1.2,MacIntel,60,,,,,,,,,,,,,,,,,,,,,,,,,,2,6.691835,,0,0,41,41,70,1,stimuli/stim_20210407_power2amp/equal_lnn_AM3Hz_54.m4a,,,
,,,,,40699,2021-05-09_20h21.09.086,judgeSpeechMusic_20210407_logNormShiftAmp,2020.1.2,MacIntel,60,,,,,,,,,,,,,,,,,,,,,,,,,,2,7.700005,,0,0,42,42,93,1,stimuli/stim_20210407_power2amp/equal_lnn_AM4.2Hz_86.m4a,,,
,,,,,40699,2021-05-09_20h21.09.086,judgeSpeechMusic_20210407_logNormShiftAmp,2020.1.2,MacIntel,60,,,,,,,,,,,,,,,,,,,,,,,,,,2,7.579875,,0,0,43,43,92,1,stimuli/stim_20210407_power2amp/equal_lnn_AM4.2Hz_45.m4a,,,
,,,,,40699,2021-05-09_20h21.09.086,judgeSpeechMusic_20210407_logNormShiftAmp,2020.1.2,MacIntel,60,,,,,,,,,,,,,,,,,,,,,,,,,,2,9.152355,,0,0,44,44,106,1,stimuli/stim_20210407_power2amp/equal_lnn_AM4.8Hz_34.m4a,,,
,,,,,40699,2021-05-09_20h21.09.086,judgeSpeechMusic_20210407_logNormShiftAmp,2020.1.2,MacIntel,60,,,,,,,,,,,,,,,,,,,,,,,,,,1,7.585765,,0,0,45,45,56,1,stimuli/stim_20210407_power2amp/equal_lnn_AM2.4Hz_94.m4a,,,
,,,,,40699,2021-05-09_20h21.09.086,judgeSpeechMusic_20210407_logNormShiftAmp,2020.1.2,MacIntel,60,,,,,,,,,,,,,,,,,,,,,,,,,,2,5.738555,,0,0,46,46,87,1,stimuli/stim_20210407_power2amp/equal_lnn_AM3.6Hz_74.m4a,,,
,,,,,40699,2021-05-09_20h21.09.086,judgeSpeechMusic_20210407_logNormShiftAmp,2020.1.2,MacIntel,60,,,,,,,,,,,,,,,,,,,,,,,,,,1,8.614535,,0,0,47,47,110,1,stimuli/stim_20210407_power2amp/equal_lnn_AM4.8Hz_97.m4a,,,
,,,,,40699,2021-05-09_20h21.09.086,judgeSpeechMusic_20210407_logNormShiftAmp,2020.1.2,MacIntel,60,,,,,,,,,,,,,,,,,,,,,,,,,,2,6.50029,,0,0,48,48,66,1,stimuli/stim_20210407_power2amp/equal_lnn_AM3Hz_82.m4a,,,
,,,,,40699,2021-05-09_20h21.09.086,judgeSpeechMusic_20210407_logNormShiftAmp,2020.1.2,MacIntel,60,,,,,,,,,,,,,,,,,,,,,,,,,,1,7.981345,,0,0,49,49,44,1,stimuli/stim_20210407_power2amp/equal_lnn_AM1.8Hz_53.m4a,,,
,,,,,40699,2021-05-09_20h21.09.086,judgeSpeechMusic_20210407_logNormShiftAmp,2020.1.2,MacIntel,60,,,,,,,,,,,,,,,,,,,,,,,,,,2,5.748185,,0,0,50,50,33,1,stimuli/stim_20210407_power2amp/equal_lnn_AM1.8Hz_14.m4a,,,
,,,,,40699,2021-05-09_20h21.09.086,judgeSpeechMusic_20210407_logNormShiftAmp,2020.1.2,MacIntel,60,,,,,,,,,,,,,,,,,,,,,,,,,,1,8.78335,,0,0,51,51,40,1,stimuli/stim_20210407_power2amp/equal_lnn_AM1.8Hz_48.m4a,,,
,,,,,40699,2021-05-09_20h21.09.086,judgeSpeechMusic_20210407_logNormShiftAmp,2020.1.2,MacIntel,60,,,,,,,,,,,,,,,,,,,,,,,,,,1,6.033885,,0,0,52,52,54,1,stimuli/stim_20210407_power2amp/equal_lnn_AM2.4Hz_29.m4a,,,
,,,,,40699,2021-05-09_20h21.09.086,judgeSpeechMusic_20210407_logNormShiftAmp,2020.1.2,MacIntel,60,,,,,,,,,,,,,,,,,,,,,,,,,,1,9.615745,,0,0,53,53,12,1,stimuli/stim_20210407_power2amp/equal_lnn_AM0.6Hz_85.m4a,,,
,,,,,40699,2021-05-09_20h21.09.086,judgeSpeechMusic_20210407_logNormShiftAmp,2020.1.2,MacIntel,60,,,,,,,,,,,,,,,,,,,,,,,,,,2,9.383335,,0,0,54,54,107,1,stimuli/stim_20210407_power2amp/equal_lnn_AM4.8Hz_45.m4a,,,
,,,,,40699,2021-05-09_20h21.09.086,judgeSpeechMusic_20210407_logNormShiftAmp,2020.1.2,MacIntel,60,,,,,,,,,,,,,,,,,,,,,,,,,,1,9.31784,,0,0,55,55,62,1,stimuli/stim_20210407_power2amp/equal_lnn_AM3Hz_84.m4a,,,
,,,,,40699,2021-05-09_20h21.09.086,judgeSpeechMusic_20210407_logNormShiftAmp,2020.1.2,MacIntel,60,,,,,,,,,,,,,,,,,,,,,,,,,,1,7.240715,,0,0,56,56,101,1,stimuli/stim_20210407_power2amp/equal_lnn_AM4.2Hz_81.m4a,,,
,,,,,40699,2021-05-09_20h21.09.086,judgeSpeechMusic_20210407_logNormShiftAmp,2020.1.2,MacIntel,60,,,,,,,,,,,,,,,,,,,,,,,,,,1,9.345225,3,1,0,57,57,19,1,stimuli/stim_20210407_power2amp/equal_lnn_AM1.2Hz_68.m4a,1.79677,,
,,,,,40699,2021-05-09_20h21.09.086,judgeSpeechMusic_20210407_logNormShiftAmp,2020.1.2,MacIntel,60,,,,,,,,,,,,,,,,,,,,,,,,,,2,6.141055,,0,0,58,58,94,1,stimuli/stim_20210407_power2amp/equal_lnn_AM4.2Hz_23.m4a,,,
,,,,,40699,2021-05-09_20h21.09.086,judgeSpeechMusic_20210407_logNormShiftAmp,2020.1.2,MacIntel,60,,,,,,,,,,,,,,,,,,,,,,,,,,1,6.865045,,0,0,59,59,26,1,stimuli/stim_20210407_power2amp/equal_lnn_AM1.2Hz_98.m4a,,,
,,,,,40699,2021-05-09_20h21.09.086,judgeSpeechMusic_20210407_logNormShiftAmp,2020.1.2,MacIntel,60,,,,,,,,,,,,,,,,,,,,,,,,,,1,10.517735,,0,0,60,60,23,1,stimuli/stim_20210407_power2amp/equal_lnn_AM1.2Hz_59.m4a,,,
,,,,,40699,2021-05-09_20h21.09.086,judgeSpeechMusic_20210407_logNormShiftAmp,2020.1.2,MacIntel,60,,,,,,,,,,,,,,,,,,,,,,,,,,1,7.497495,,0,0,61,61,45,1,stimuli/stim_20210407_power2amp/equal_lnn_AM2.4Hz_76.m4a,,,
,,,,,40699,2021-05-09_20h21.09.086,judgeSpeechMusic_20210407_logNormShiftAmp,2020.1.2,MacIntel,60,,,,,,,,,,,,,,,,,,,,,,,,,,1,9.613645,,0,0,62,62,2,1,stimuli/stim_20210407_power2amp/equal_lnn_AM0.6Hz_79.m4a,,,
,,,,,40699,2021-05-09_20h21.09.086,judgeSpeechMusic_20210407_logNormShiftAmp,2020.1.2,MacIntel,60,,,,,,,,,,,,,,,,,,,,,,,,,,2,6.41661,,0,0,63,63,47,1,stimuli/stim_20210407_power2amp/equal_lnn_AM2.4Hz_99.m4a,,,
,,,,,40699,2021-05-09_20h21.09.086,judgeSpeechMusic_20210407_logNormShiftAmp,2020.1.2,MacIntel,60,,,,,,,,,,,,,,,,,,,,,,,,,,1,6.877195,,0,0,64,64,117,1,stimuli/stim_20210407_power2amp/equal_lnn_AM4.8Hz_23.m4a,,,
,,,,,40699,2021-05-09_20h21.09.086,judgeSpeechMusic_20210407_logNormShiftAmp,2020.1.2,MacIntel,60,,,,,,,,,,,,,,,,,,,,,,,,,,1,7.2,,0,0,65,65,81,1,stimuli/stim_20210407_power2amp/equal_lnn_AM3.6Hz_39.m4a,,,
,,,,,40699,2021-05-09_20h21.09.086,judgeSpeechMusic_20210407_logNormShiftAmp,2020.1.2,MacIntel,60,,,,,,,,,,,,,,,,,,,,,,,,,,2,8.81434,,0,0,66,66,146,1,stimuli/stim_20210407_power2amp/equal_lnn_AM6Hz_36.m4a,,,
,,,,,40699,2021-05-09_20h21.09.086,judgeSpeechMusic_20210407_logNormShiftAmp,2020.1.2,MacIntel,60,,,,,,,,,,,,,,,,,,,,,,,,,,2,7.80106,,0,0,67,67,149,1,stimuli/stim_20210407_power2amp/equal_lnn_AM6Hz_63.m4a,,,
,,,,,40699,2021-05-09_20h21.09.086,judgeSpeechMusic_20210407_logNormShiftAmp,2020.1.2,MacIntel,60,,,,,,,,,,,,,,,,,,,,,,,,,,1,6.65468,,0,0,68,68,36,1,stimuli/stim_20210407_power2amp/equal_lnn_AM1.8Hz_66.m4a,,,
,,,,,40699,2021-05-09_20h21.09.086,judgeSpeechMusic_20210407_logNormShiftAmp,2020.1.2,MacIntel,60,,,,,,,,,,,,,,,,,,,,,,,,,,1,26.130765,,0,0,69,69,138,1,stimuli/stim_20210407_power2amp/equal_lnn_AM6Hz_3.m4a,,,
,,,,,40699,2021-05-09_20h21.09.086,judgeSpeechMusic_20210407_logNormShiftAmp,2020.1.2,MacIntel,60,,,,,,,,,,,,,,,,,,,,,,,,,,1,7.344655,,0,0,70,70,41,1,stimuli/stim_20210407_power2amp/equal_lnn_AM1.8Hz_71.m4a,,,
,,,,,40699,2021-05-09_20h21.09.086,judgeSpeechMusic_20210407_logNormShiftAmp,2020.1.2,MacIntel,60,,,,,,,,,,,,,,,,,,,,,,,,,,2,6.702085,,0,0,71,71,38,1,stimuli/stim_20210407_power2amp/equal_lnn_AM1.8Hz_44.m4a,,,
,,,,,40699,2021-05-09_20h21.09.086,judgeSpeechMusic_20210407_logNormShiftAmp,2020.1.2,MacIntel,60,,,,,,,,,,,,,,,,,,,,,,,,,,2,9.31549,,0,0,72,72,63,1,stimuli/stim_20210407_power2amp/equal_lnn_AM3Hz_95.m4a,,,
,,,,,40699,2021-05-09_20h21.09.086,judgeSpeechMusic_20210407_logNormShiftAmp,2020.1.2,MacIntel,60,,,,,,,,,,,,,,,,,,,,,,,,,,1,8.24999,,0,0,73,73,10,1,stimuli/stim_20210407_power2amp/equal_lnn_AM0.6Hz_39.m4a,,,
,,,,,40699,2021-05-09_20h21.09.086,judgeSpeechMusic_20210407_logNormShiftAmp,2020.1.2,MacIntel,60,,,,,,,,,,,,,,,,,,,,,,,,,,1,8.033735,,0,0,74,74,17,1,stimuli/stim_20210407_power2amp/equal_lnn_AM1.2Hz_26.m4a,,,
,,,,,40699,2021-05-09_20h21.09.086,judgeSpeechMusic_20210407_logNormShiftAmp,2020.1.2,MacIntel,60,,,,,,,,,,,,,,,,,,,,,,,,,,2,6.624525,,0,0,75,75,1,1,stimuli/stim_20210407_power2amp/equal_lnn_AM0.6Hz_13.m4a,,,
,,,,,40699,2021-05-09_20h21.09.086,judgeSpeechMusic_20210407_logNormShiftAmp,2020.1.2,MacIntel,60,,,,,,,,,,,,,,,,,,,,,,,,,,1,6.119025,,0,0,76,76,147,1,stimuli/stim_20210407_power2amp/equal_lnn_AM6Hz_87.m4a,,,
,,,,,40699,2021-05-09_20h21.09.086,judgeSpeechMusic_20210407_logNormShiftAmp,2020.1.2,MacIntel,60,,,,,,,,,,,,,,,,,,,,,,,,,,1,5.641625,,0,0,77,77,30,1,stimuli/stim_20210407_power2amp/equal_lnn_AM1.8Hz_6.m4a,,,
,,,,,40699,2021-05-09_20h21.09.086,judgeSpeechMusic_20210407_logNormShiftAmp,2020.1.2,MacIntel,60,,,,,,,,,,,,,,,,,,,,,,,,,,2,6.99853,,0,0,78,78,13,1,stimuli/stim_20210407_power2amp/equal_lnn_AM0.6Hz_46.m4a,,,
,,,,,40699,2021-05-09_20h21.09.086,judgeSpeechMusic_20210407_logNormShiftAmp,2020.1.2,MacIntel,60,,,,,,,,,,,,,,,,,,,,,,,,,,2,5.847545,,0,0,79,79,129,1,stimuli/stim_20210407_power2amp/equal_lnn_AM5.4Hz_76.m4a,,,
,,,,,40699,2021-05-09_20h21.09.086,judgeSpeechMusic_20210407_logNormShiftAmp,2020.1.2,MacIntel,60,,,,,,,,,,,,,,,,,,,,,,,,,,1,7.18459,,0,0,80,80,136,1,stimuli/stim_20210407_power2amp/equal_lnn_AM6Hz_86.m4a,,,
,,,,,40699,2021-05-09_20h21.09.086,judgeSpeechMusic_20210407_logNormShiftAmp,2020.1.2,MacIntel,60,,,,,,,,,,,,,,,,,,,,,,,,,,1,10.266335,3,1,0,81,81,97,1,stimuli/stim_20210407_power2amp/equal_lnn_AM4.2Hz_33.m4a,1.178845,,
,,,,,40699,2021-05-09_20h21.09.086,judgeSpeechMusic_20210407_logNormShiftAmp,2020.1.2,MacIntel,60,,,,,,,,,,,,,,,,,,,,,,,,,,2,5.96304,,0,0,82,82,88,1,stimuli/stim_20210407_power2amp/equal_lnn_AM3.6Hz_10.m4a,,,
,,,,,40699,2021-05-09_20h21.09.086,judgeSpeechMusic_20210407_logNormShiftAmp,2020.1.2,MacIntel,60,,,,,,,,,,,,,,,,,,,,,,,,,,2,6.12144,,0,0,83,83,108,1,stimuli/stim_20210407_power2amp/equal_lnn_AM4.8Hz_15.m4a,,,
,,,,,40699,2021-05-09_20h21.09.086,judgeSpeechMusic_20210407_logNormShiftAmp,2020.1.2,MacIntel,60,,,,,,,,,,,,,,,,,,,,,,,,,,1,10.148,,0,0,84,84,115,1,stimuli/stim_20210407_power2amp/equal_lnn_AM4.8Hz_88.m4a,,,
,,,,,40699,2021-05-09_20h21.09.086,judgeSpeechMusic_20210407_logNormShiftAmp,2020.1.2,MacIntel,60,,,,,,,,,,,,,,,,,,,,,,,,,,1,5.69957,,0,0,85,85,109,1,stimuli/stim_20210407_power2amp/equal_lnn_AM4.8Hz_76.m4a,,,
,,,,,40699,2021-05-09_20h21.09.086,judgeSpeechMusic_20210407_logNormShiftAmp,2020.1.2,MacIntel,60,,,,,,,,,,,,,,,,,,,,,,,,,,1,6.66955,,0,0,86,86,11,1,stimuli/stim_20210407_power2amp/equal_lnn_AM0.6Hz_17.m4a,,,
,,,,,40699,2021-05-09_20h21.09.086,judgeSpeechMusic_20210407_logNormShiftAmp,2020.1.2,MacIntel,60,,,,,,,,,,,,,,,,,,,,,,,,,,1,7.123275,,0,0,87,87,139,1,stimuli/stim_20210407_power2amp/equal_lnn_AM6Hz_91.m4a,,,
,,,,,40699,2021-05-09_20h21.09.086,judgeSpeechMusic_20210407_logNormShiftAmp,2020.1.2,MacIntel,60,,,,,,,,,,,,,,,,,,,,,,,,,,1,6.533695,,0,0,88,88,71,1,stimuli/stim_20210407_power2amp/equal_lnn_AM3Hz_48.m4a,,,
,,,,,40699,2021-05-09_20h21.09.086,judgeSpeechMusic_20210407_logNormShiftAmp,2020.1.2,MacIntel,60,,,,,,,,,,,,,,,,,,,,,,,,,,2,5.834485,,0,0,89,89,143,1,stimuli/stim_20210407_power2amp/equal_lnn_AM6Hz_28.m4a,,,
,,,,,40699,2021-05-09_20h21.09.086,judgeSpeechMusic_20210407_logNormShiftAmp,2020.1.2,MacIntel,60,,,,,,,,,,,,,,,,,,,,,,,,,,2,6.018275,,0,0,90,90,113,1,stimuli/stim_20210407_power2amp/equal_lnn_AM4.8Hz_89.m4a,,,
,,,,,40699,2021-05-09_20h21.09.086,judgeSpeechMusic_20210407_logNormShiftAmp,2020.1.2,MacIntel,60,,,,,,,,,,,,,,,,,,,,,,,,,,1,7.353405,,0,0,91,91,131,1,stimuli/stim_20210407_power2amp/equal_lnn_AM5.4Hz_41.m4a,,,
,,,,,40699,2021-05-09_20h21.09.086,judgeSpeechMusic_20210407_logNormShiftAmp,2020.1.2,MacIntel,60,,,,,,,,,,,,,,,,,,,,,,,,,,1,8.470325,,0,0,92,92,118,1,stimuli/stim_20210407_power2amp/equal_lnn_AM4.8Hz_98.m4a,,,
,,,,,40699,2021-05-09_20h21.09.086,judgeSpeechMusic_20210407_logNormShiftAmp,2020.1.2,MacIntel,60,,,,,,,,,,,,,,,,,,,,,,,,,,1,6.80231,,0,0,93,93,5,1,stimuli/stim_20210407_power2amp/equal_lnn_AM0.6Hz_26.m4a,,,
,,,,,40699,2021-05-09_20h21.09.086,judgeSpeechMusic_20210407_logNormShiftAmp,2020.1.2,MacIntel,60,,,,,,,,,,,,,,,,,,,,,,,,,,2,7.474815,,0,0,94,94,98,1,stimuli/stim_20210407_power2amp/equal_lnn_AM4.2Hz_13.m4a,,,
,,,,,40699,2021-05-09_20h21.09.086,judgeSpeechMusic_20210407_logNormShiftAmp,2020.1.2,MacIntel,60,,,,,,,,,,,,,,,,,,,,,,,,,,1,7.915785,,0,0,95,95,125,1,stimuli/stim_20210407_power2amp/equal_lnn_AM5.4Hz_83.m4a,,,
,,,,,40699,2021-05-09_20h21.09.086,judgeSpeechMusic_20210407_logNormShiftAmp,2020.1.2,MacIntel,60,,,,,,,,,,,,,,,,,,,,,,,,,,1,5.61785,,0,0,96,96,6,1,stimuli/stim_20210407_power2amp/equal_lnn_AM0.6Hz_52.m4a,,,
,,,,,40699,2021-05-09_20h21.09.086,judgeSpeechMusic_20210407_logNormShiftAmp,2020.1.2,MacIntel,60,,,,,,,,,,,,,,,,,,,,,,,,,,2,8.56719,,0,0,97,97,34,1,stimuli/stim_20210407_power2amp/equal_lnn_AM1.8Hz_11.m4a,,,
,,,,,40699,2021-05-09_20h21.09.086,judgeSpeechMusic_20210407_logNormShiftAmp,2020.1.2,MacIntel,60,,,,,,,,,,,,,,,,,,,,,,,,,,1,7.240105,,0,0,98,98,53,1,stimuli/stim_20210407_power2amp/equal_lnn_AM2.4Hz_38.m4a,,,
,,,,,40699,2021-05-09_20h21.09.086,judgeSpeechMusic_20210407_logNormShiftAmp,2020.1.2,MacIntel,60,,,,,,,,,,,,,,,,,,,,,,,,,,1,7.50281,,0,0,99,99,37,1,stimuli/stim_20210407_power2amp/equal_lnn_AM1.8Hz_29.m4a,,,
,,,,,40699,2021-05-09_20h21.09.086,judgeSpeechMusic_20210407_logNormShiftAmp,2020.1.2,MacIntel,60,,,,,,,,,,,,,,,,,,,,,,,,,,1,7.29182,,0,0,100,100,43,1,stimuli/stim_20210407_power2amp/equal_lnn_AM1.8Hz_100.m4a,,,
,,,,,40699,2021-05-09_20h21.09.086,judgeSpeechMusic_20210407_logNormShiftAmp,2020.1.2,MacIntel,60,,,,,,,,,,,,,,,,,,,,,,,,,,1,7.18144,4,1,0,101,101,42,1,stimuli/stim_20210407_power2amp/equal_lnn_AM1.8Hz_4.m4a,0.611305,,
,,,,,40699,2021-05-09_20h21.09.086,judgeSpeechMusic_20210407_logNormShiftAmp,2020.1.2,MacIntel,60,,,,,,,,,,,,,,,,,,,,,,,,,,2,6.598035,,0,0,102,102,74,1,stimuli/stim_20210407_power2amp/equal_lnn_AM3Hz_41.m4a,,,
,,,,,40699,2021-05-09_20h21.09.086,judgeSpeechMusic_20210407_logNormShiftAmp,2020.1.2,MacIntel,60,,,,,,,,,,,,,,,,,,,,,,,,,,2,5.784045,,0,0,103,103,89,1,stimuli/stim_20210407_power2amp/equal_lnn_AM3.6Hz_11.m4a,,,
,,,,,40699,2021-05-09_20h21.09.086,judgeSpeechMusic_20210407_logNormShiftAmp,2020.1.2,MacIntel,60,,,,,,,,,,,,,,,,,,,,,,,,,,1,5.87491,,0,0,104,104,103,1,stimuli/stim_20210407_power2amp/equal_lnn_AM4.2Hz_12.m4a,,,
,,,,,40699,2021-05-09_20h21.09.086,judgeSpeechMusic_20210407_logNormShiftAmp,2020.1.2,MacIntel,60,,,,,,,,,,,,,,,,,,,,,,,,,,1,12.73005,,0,0,105,105,46,1,stimuli/stim_20210407_power2amp/equal_lnn_AM2.4Hz_46.m4a,,,
,,,,,40699,2021-05-09_20h21.09.086,judgeSpeechMusic_20210407_logNormShiftAmp,2020.1.2,MacIntel,60,,,,,,,,,,,,,,,,,,,,,,,,,,1,6.920315,,0,0,106,106,111,1,stimuli/stim_20210407_power2amp/equal_lnn_AM4.8Hz_77.m4a,,,
,,,,,40699,2021-05-09_20h21.09.086,judgeSpeechMusic_20210407_logNormShiftAmp,2020.1.2,MacIntel,60,,,,,,,,,,,,,,,,,,,,,,,,,,2,6.620665,,0,0,107,107,69,1,stimuli/stim_20210407_power2amp/equal_lnn_AM3Hz_28.m4a,,,
,,,,,40699,2021-05-09_20h21.09.086,judgeSpeechMusic_20210407_logNormShiftAmp,2020.1.2,MacIntel,60,,,,,,,,,,,,,,,,,,,,,,,,,,1,11.68646,,0,0,108,108,86,1,stimuli/stim_20210407_power2amp/equal_lnn_AM3.6Hz_23.m4a,,,
,,,,,40699,2021-05-09_20h21.09.086,judgeSpeechMusic_20210407_logNormShiftAmp,2020.1.2,MacIntel,60,,,,,,,,,,,,,,,,,,,,,,,,,,2,6.576135,,0,0,109,109,123,1,stimuli/stim_20210407_power2amp/equal_lnn_AM5.4Hz_53.m4a,,,
,,,,,40699,2021-05-09_20h21.09.086,judgeSpeechMusic_20210407_logNormShiftAmp,2020.1.2,MacIntel,60,,,,,,,,,,,,,,,,,,,,,,,,,,1,7.503605,,0,0,110,110,59,1,stimuli/stim_20210407_power2amp/equal_lnn_AM2.4Hz_43.m4a,,,
,,,,,40699,2021-05-09_20h21.09.086,judgeSpeechMusic_20210407_logNormShiftAmp,2020.1.2,MacIntel,60,,,,,,,,,,,,,,,,,,,,,,,,,,1,6.062605,,0,0,111,111,25,1,stimuli/stim_20210407_power2amp/equal_lnn_AM1.2Hz_84.m4a,,,
,,,,,40699,2021-05-09_20h21.09.086,judgeSpeechMusic_20210407_logNormShiftAmp,2020.1.2,MacIntel,60,,,,,,,,,,,,,,,,,,,,,,,,,,1,6.481545,,0,0,112,112,79,1,stimuli/stim_20210407_power2amp/equal_lnn_AM3.6Hz_97.m4a,,,
,,,,,40699,2021-05-09_20h21.09.086,judgeSpeechMusic_20210407_logNormShiftAmp,2020.1.2,MacIntel,60,,,,,,,,,,,,,,,,,,,,,,,,,,2,6.66425,,0,0,113,113,121,1,stimuli/stim_20210407_power2amp/equal_lnn_AM5.4Hz_48.m4a,,,
,,,,,40699,2021-05-09_20h21.09.086,judgeSpeechMusic_20210407_logNormShiftAmp,2020.1.2,MacIntel,60,,,,,,,,,,,,,,,,,,,,,,,,,,1,10.182835,,0,0,114,114,114,1,stimuli/stim_20210407_power2amp/equal_lnn_AM4.8Hz_86.m4a,,,
,,,,,40699,2021-05-09_20h21.09.086,judgeSpeechMusic_20210407_logNormShiftAmp,2020.1.2,MacIntel,60,,,,,,,,,,,,,,,,,,,,,,,,,,2,12.335985,,0,0,115,115,119,1,stimuli/stim_20210407_power2amp/equal_lnn_AM4.8Hz_61.m4a,,,
,,,,,40699,2021-05-09_20h21.09.086,judgeSpeechMusic_20210407_logNormShiftAmp,2020.1.2,MacIntel,60,,,,,,,,,,,,,,,,,,,,,,,,,,1,8.13431,,0,0,116,116,75,1,stimuli/stim_20210407_power2amp/equal_lnn_AM3.6Hz_51.m4a,,,
,,,,,40699,2021-05-09_20h21.09.086,judgeSpeechMusic_20210407_logNormShiftAmp,2020.1.2,MacIntel,60,,,,,,,,,,,,,,,,,,,,,,,,,,2,8.60202,,0,0,117,117,68,1,stimuli/stim_20210407_power2amp/equal_lnn_AM3Hz_60.m4a,,,
,,,,,40699,2021-05-09_20h21.09.086,judgeSpeechMusic_20210407_logNormShiftAmp,2020.1.2,MacIntel,60,,,,,,,,,,,,,,,,,,,,,,,,,,2,5.82345,,0,0,118,118,78,1,stimuli/stim_20210407_power2amp/equal_lnn_AM3.6Hz_85.m4a,,,
,,,,,40699,2021-05-09_20h21.09.086,judgeSpeechMusic_20210407_logNormShiftAmp,2020.1.2,MacIntel,60,,,,,,,,,,,,,,,,,,,,,,,,,,1,6.335065,,0,0,119,119,35,1,stimuli/stim_20210407_power2amp/equal_lnn_AM1.8Hz_86.m4a,,,
,,,,,40699,2021-05-09_20h21.09.086,judgeSpeechMusic_20210407_logNormShiftAmp,2020.1.2,MacIntel,60,,,,,,,,,,,,,,,,,,,,,,,,,,1,5.634715,,0,0,120,120,9,1,stimuli/stim_20210407_power2amp/equal_lnn_AM0.6Hz_91.m4a,,,
,,,,,40699,2021-05-09_20h21.09.086,judgeSpeechMusic_20210407_logNormShiftAmp,2020.1.2,MacIntel,60,,,,,,,,,,,,,,,,,,,,,,,,,,1,5.624915,,0,0,121,121,96,1,stimuli/stim_20210407_power2amp/equal_lnn_AM4.2Hz_64.m4a,,,
,,,,,40699,2021-05-09_20h21.09.086,judgeSpeechMusic_20210407_logNormShiftAmp,2020.1.2,MacIntel,60,,,,,,,,,,,,,,,,,,,,,,,,,,1,5.439085,,0,0,122,122,102,1,stimuli/stim_20210407_power2amp/equal_lnn_AM4.2Hz_98.m4a,,,
,,,,,40699,2021-05-09_20h21.09.086,judgeSpeechMusic_20210407_logNormShiftAmp,2020.1.2,MacIntel,60,,,,,,,,,,,,,,,,,,,,,,,,,,2,6.105535,,0,0,123,123,24,1,stimuli/stim_20210407_power2amp/equal_lnn_AM1.2Hz_87.m4a,,,
,,,,,40699,2021-05-09_20h21.09.086,judgeSpeechMusic_20210407_logNormShiftAmp,2020.1.2,MacIntel,60,,,,,,,,,,,,,,,,,,,,,,,,,,2,5.899315,,0,0,124,124,142,1,stimuli/stim_20210407_power2amp/equal_lnn_AM6Hz_61.m4a,,,
,,,,,40699,2021-05-09_20h21.09.086,judgeSpeechMusic_20210407_logNormShiftAmp,2020.1.2,MacIntel,60,,,,,,,,,,,,,,,,,,,,,,,,,,1,7.33374,3,1,0,125,125,50,1,stimuli/stim_20210407_power2amp/equal_lnn_AM2.4Hz_17.m4a,0.431035,,
,,,,,40699,2021-05-09_20h21.09.086,judgeSpeechMusic_20210407_logNormShiftAmp,2020.1.2,MacIntel,60,,,,,,,,,,,,,,,,,,,,,,,,,,1,9.618565,,0,0,126,126,4,1,stimuli/stim_20210407_power2amp/equal_lnn_AM0.6Hz_32.m4a,,,
,,,,,40699,2021-05-09_20h21.09.086,judgeSpeechMusic_20210407_logNormShiftAmp,2020.1.2,MacIntel,60,,,,,,,,,,,,,,,,,,,,,,,,,,1,8.41272,,0,0,127,127,57,1,stimuli/stim_20210407_power2amp/equal_lnn_AM2.4Hz_68.m4a,,,
,,,,,40699,2021-05-09_20h21.09.086,judgeSpeechMusic_20210407_logNormShiftAmp,2020.1.2,MacIntel,60,,,,,,,,,,,,,,,,,,,,,,,,,,2,6.34123,,0,0,128,128,135,1,stimuli/stim_20210407_power2amp/equal_lnn_AM6Hz_17.m4a,,,
,,,,,40699,2021-05-09_20h21.09.086,judgeSpeechMusic_20210407_logNormShiftAmp,2020.1.2,MacIntel,60,,,,,,,,,,,,,,,,,,,,,,,,,,1,8.78274,,0,0,129,129,22,1,stimuli/stim_20210407_power2amp/equal_lnn_AM1.2Hz_35.m4a,,,
,,,,,40699,2021-05-09_20h21.09.086,judgeSpeechMusic_20210407_logNormShiftAmp,2020.1.2,MacIntel,60,,,,,,,,,,,,,,,,,,,,,,,,,,2,6.87474,,0,0,130,130,28,1,stimuli/stim_20210407_power2amp/equal_lnn_AM1.2Hz_24.m4a,,,
,,,,,40699,2021-05-09_20h21.09.086,judgeSpeechMusic_20210407_logNormShiftAmp,2020.1.2,MacIntel,60,,,,,,,,,,,,,,,,,,,,,,,,,,2,6.40301,,0,0,131,131,134,1,stimuli/stim_20210407_power2amp/equal_lnn_AM5.4Hz_34.m4a,,,
,,,,,40699,2021-05-09_20h21.09.086,judgeSpeechMusic_20210407_logNormShiftAmp,2020.1.2,MacIntel,60,,,,,,,,,,,,,,,,,,,,,,,,,,1,8.51727,,0,0,132,132,99,1,stimuli/stim_20210407_power2amp/equal_lnn_AM4.2Hz_29.m4a,,,
,,,,,40699,2021-05-09_20h21.09.086,judgeSpeechMusic_20210407_logNormShiftAmp,2020.1.2,MacIntel,60,,,,,,,,,,,,,,,,,,,,,,,,,,1,5.657435,,0,0,133,133,145,1,stimuli/stim_20210407_power2amp/equal_lnn_AM6Hz_57.m4a,,,
,,,,,40699,2021-05-09_20h21.09.086,judgeSpeechMusic_20210407_logNormShiftAmp,2020.1.2,MacIntel,60,,,,,,,,,,,,,,,,,,,,,,,,,,2,7.01471,,0,0,134,134,120,1,stimuli/stim_20210407_power2amp/equal_lnn_AM5.4Hz_86.m4a,,,
,,,,,40699,2021-05-09_20h21.09.086,judgeSpeechMusic_20210407_logNormShiftAmp,2020.1.2,MacIntel,60,,,,,,,,,,,,,,,,,,,,,,,,,,1,8.935115,,0,0,135,135,141,1,stimuli/stim_20210407_power2amp/equal_lnn_AM6Hz_21.m4a,,,
,,,,,40699,2021-05-09_20h21.09.086,judgeSpeechMusic_20210407_logNormShiftAmp,2020.1.2,MacIntel,60,,,,,,,,,,,,,,,,,,,,,,,,,,1,7.533305,,0,0,136,136,148,1,stimuli/stim_20210407_power2amp/equal_lnn_AM6Hz_25.m4a,,,
,,,,,40699,2021-05-09_20h21.09.086,judgeSpeechMusic_20210407_logNormShiftAmp,2020.1.2,MacIntel,60,,,,,,,,,,,,,,,,,,,,,,,,,,2,6.22722,,0,0,137,137,32,1,stimuli/stim_20210407_power2amp/equal_lnn_AM1.8Hz_27.m4a,,,
,,,,,40699,2021-05-09_20h21.09.086,judgeSpeechMusic_20210407_logNormShiftAmp,2020.1.2,MacIntel,60,,,,,,,,,,,,,,,,,,,,,,,,,,1,6.848745,,0,0,138,138,60,1,stimuli/stim_20210407_power2amp/equal_lnn_AM3Hz_80.m4a,,,
,,,,,40699,2021-05-09_20h21.09.086,judgeSpeechMusic_20210407_logNormShiftAmp,2020.1.2,MacIntel,60,,,,,,,,,,,,,,,,,,,,,,,,,,2,7.235305,,0,0,139,139,77,1,stimuli/stim_20210407_power2amp/equal_lnn_AM3.6Hz_64.m4a,,,
,,,,,40699,2021-05-09_20h21.09.086,judgeSpeechMusic_20210407_logNormShiftAmp,2020.1.2,MacIntel,60,,,,,,,,,,,,,,,,,,,,,,,,,,1,6.34856,,0,0,140,140,16,1,stimuli/stim_20210407_power2amp/equal_lnn_AM1.2Hz_71.m4a,,,
,,,,,40699,2021-05-09_20h21.09.086,judgeSpeechMusic_20210407_logNormShiftAmp,2020.1.2,MacIntel,60,,,,,,,,,,,,,,,,,,,,,,,,,,1,7.593005,,0,0,141,141,144,1,stimuli/stim_20210407_power2amp/equal_lnn_AM6Hz_58.m4a,,,
,,,,,40699,2021-05-09_20h21.09.086,judgeSpeechMusic_20210407_logNormShiftAmp,2020.1.2,MacIntel,60,,,,,,,,,,,,,,,,,,,,,,,,,,1,5.630285,,0,0,142,142,116,1,stimuli/stim_20210407_power2amp/equal_lnn_AM4.8Hz_42.m4a,,,
,,,,,40699,2021-05-09_20h21.09.086,judgeSpeechMusic_20210407_logNormShiftAmp,2020.1.2,MacIntel,60,,,,,,,,,,,,,,,,,,,,,,,,,,2,6.268915,,0,0,143,143,18,1,stimuli/stim_20210407_power2amp/equal_lnn_AM1.2Hz_34.m4a,,,
,,,,,40699,2021-05-09_20h21.09.086,judgeSpeechMusic_20210407_logNormShiftAmp,2020.1.2,MacIntel,60,,,,,,,,,,,,,,,,,,,,,,,,,,2,5.93042,,0,0,144,144,55,1,stimuli/stim_20210407_power2amp/equal_lnn_AM2.4Hz_78.m4a,,,
,,,,,40699,2021-05-09_20h21.09.086,judgeSpeechMusic_20210407_logNormShiftAmp,2020.1.2,MacIntel,60,,,,,,,,,,,,,,,,,,,,,,,,,,2,7.799785,,0,0,145,145,76,1,stimuli/stim_20210407_power2amp/equal_lnn_AM3.6Hz_94.m4a,,,
,,,,,40699,2021-05-09_20h21.09.086,judgeSpeechMusic_20210407_logNormShiftAmp,2020.1.2,MacIntel,60,,,,,,,,,,,,,,,,,,,,,,,,,,2,6.181805,,0,0,146,146,84,1,stimuli/stim_20210407_power2amp/equal_lnn_AM3.6Hz_66.m4a,,,
,,,,,40699,2021-05-09_20h21.09.086,judgeSpeechMusic_20210407_logNormShiftAmp,2020.1.2,MacIntel,60,,,,,,,,,,,,,,,,,,,,,,,,,,2,5.761165,,0,0,147,147,128,1,stimuli/stim_20210407_power2amp/equal_lnn_AM5.4Hz_88.m4a,,,
,,,,,40699,2021-05-09_20h21.09.086,judgeSpeechMusic_20210407_logNormShiftAmp,2020.1.2,MacIntel,60,,,,,,,,,,,,,,,,,,,,,,,,,,1,6.600975,,0,0,148,148,137,1,stimuli/stim_20210407_power2amp/equal_lnn_AM6Hz_22.m4a,,,
,,,,,40699,2021-05-09_20h21.09.086,judgeSpeechMusic_20210407_logNormShiftAmp,2020.1.2,MacIntel,60,,,,,,,,,,,,,,,,,,,,,,,,,,1,5.808025,1,1,0,149,149,83,1,stimuli/stim_20210407_power2amp/equal_lnn_AM3.6Hz_77.m4a,0.56363,,
,,,,,40699,2021-05-09_20h21.09.086,judgeSpeechMusic_20210407_logNormShiftAmp,2020.1.2,MacIntel,60,,,,,,,,,,,,,,,,,,,,,,,,,,1,5.616315,,0,1,0,150,129,1,stimuli/stim_20210407_power2amp/equal_lnn_AM5.4Hz_76.m4a,,,
,,,,,40699,2021-05-09_20h21.09.086,judgeSpeechMusic_20210407_logNormShiftAmp,2020.1.2,MacIntel,60,,,,,,,,,,,,,,,,,,,,,,,,,,1,7.624765,,0,1,1,151,48,1,stimuli/stim_20210407_power2amp/equal_lnn_AM2.4Hz_71.m4a,,,
,,,,,40699,2021-05-09_20h21.09.086,judgeSpeechMusic_20210407_logNormShiftAmp,2020.1.2,MacIntel,60,,,,,,,,,,,,,,,,,,,,,,,,,,2,6.16738,,0,1,2,152,149,1,stimuli/stim_20210407_power2amp/equal_lnn_AM6Hz_63.m4a,,,
,,,,,40699,2021-05-09_20h21.09.086,judgeSpeechMusic_20210407_logNormShiftAmp,2020.1.2,MacIntel,60,,,,,,,,,,,,,,,,,,,,,,,,,,1,7.099425,,0,1,3,153,83,1,stimuli/stim_20210407_power2amp/equal_lnn_AM3.6Hz_77.m4a,,,
,,,,,40699,2021-05-09_20h21.09.086,judgeSpeechMusic_20210407_logNormShiftAmp,2020.1.2,MacIntel,60,,,,,,,,,,,,,,,,,,,,,,,,,,2,6.490345,,0,1,4,154,97,1,stimuli/stim_20210407_power2amp/equal_lnn_AM4.2Hz_33.m4a,,,
,,,,,40699,2021-05-09_20h21.09.086,judgeSpeechMusic_20210407_logNormShiftAmp,2020.1.2,MacIntel,60,,,,,,,,,,,,,,,,,,,,,,,,,,1,8.08111,,0,1,5,155,123,1,stimuli/stim_20210407_power2amp/equal_lnn_AM5.4Hz_53.m4a,,,
,,,,,40699,2021-05-09_20h21.09.086,judgeSpeechMusic_20210407_logNormShiftAmp,2020.1.2,MacIntel,60,,,,,,,,,,,,,,,,,,,,,,,,,,1,7.20165,,0,1,6,156,6,1,stimuli/stim_20210407_power2amp/equal_lnn_AM0.6Hz_52.m4a,,,
,,,,,40699,2021-05-09_20h21.09.086,judgeSpeechMusic_20210407_logNormShiftAmp,2020.1.2,MacIntel,60,,,,,,,,,,,,,,,,,,,,,,,,,,2,7.182745,,0,1,7,157,143,1,stimuli/stim_20210407_power2amp/equal_lnn_AM6Hz_28.m4a,,,
,,,,,40699,2021-05-09_20h21.09.086,judgeSpeechMusic_20210407_logNormShiftAmp,2020.1.2,MacIntel,60,,,,,,,,,,,,,,,,,,,,,,,,,,1,5.624835,,0,1,8,158,112,1,stimuli/stim_20210407_power2amp/equal_lnn_AM4.8Hz_12.m4a,,,
,,,,,40699,2021-05-09_20h21.09.086,judgeSpeechMusic_20210407_logNormShiftAmp,2020.1.2,MacIntel,60,,,,,,,,,,,,,,,,,,,,,,,,,,1,6.491005,,0,1,9,159,61,1,stimuli/stim_20210407_power2amp/equal_lnn_AM3Hz_39.m4a,,,
,,,,,40699,2021-05-09_20h21.09.086,judgeSpeechMusic_20210407_logNormShiftAmp,2020.1.2,MacIntel,60,,,,,,,,,,,,,,,,,,,,,,,,,,2,8.019345,,0,1,10,160,133,1,stimuli/stim_20210407_power2amp/equal_lnn_AM5.4Hz_81.m4a,,,
,,,,,40699,2021-05-09_20h21.09.086,judgeSpeechMusic_20210407_logNormShiftAmp,2020.1.2,MacIntel,60,,,,,,,,,,,,,,,,,,,,,,,,,,2,7.01639,,0,1,11,161,120,1,stimuli/stim_20210407_power2amp/equal_lnn_AM5.4Hz_86.m4a,,,
,,,,,40699,2021-05-09_20h21.09.086,judgeSpeechMusic_20210407_logNormShiftAmp,2020.1.2,MacIntel,60,,,,,,,,,,,,,,,,,,,,,,,,,,1,7.49162,,0,1,12,162,115,1,stimuli/stim_20210407_power2amp/equal_lnn_AM4.8Hz_88.m4a,,,
,,,,,40699,2021-05-09_20h21.09.086,judgeSpeechMusic_20210407_logNormShiftAmp,2020.1.2,MacIntel,60,,,,,,,,,,,,,,,,,,,,,,,,,,1,6.134045,,0,1,13,163,49,1,stimuli/stim_20210407_power2amp/equal_lnn_AM2.4Hz_73.m4a,,,
,,,,,40699,2021-05-09_20h21.09.086,judgeSpeechMusic_20210407_logNormShiftAmp,2020.1.2,MacIntel,60,,,,,,,,,,,,,,,,,,,,,,,,,,1,5.75052,,0,1,14,164,94,1,stimuli/stim_20210407_power2amp/equal_lnn_AM4.2Hz_23.m4a,,,
,,,,,40699,2021-05-09_20h21.09.086,judgeSpeechMusic_20210407_logNormShiftAmp,2020.1.2,MacIntel,60,,,,,,,,,,,,,,,,,,,,,,,,,,2,11.08145,,0,1,15,165,40,1,stimuli/stim_20210407_power2amp/equal_lnn_AM1.8Hz_48.m4a,,,
,,,,,40699,2021-05-09_20h21.09.086,judgeSpeechMusic_20210407_logNormShiftAmp,2020.1.2,MacIntel,60,,,,,,,,,,,,,,,,,,,,,,,,,,1,7.30061,,0,1,16,166,27,1,stimuli/stim_20210407_power2amp/equal_lnn_AM1.2Hz_14.m4a,,,
,,,,,40699,2021-05-09_20h21.09.086,judgeSpeechMusic_20210407_logNormShiftAmp,2020.1.2,MacIntel,60,,,,,,,,,,,,,,,,,,,,,,,,,,2,9.305515,,0,1,17,167,20,1,stimuli/stim_20210407_power2amp/equal_lnn_AM1.2Hz_86.m4a,,,
,,,,,40699,2021-05-09_20h21.09.086,judgeSpeechMusic_20210407_logNormShiftAmp,2020.1.2,MacIntel,60,,,,,,,,,,,,,,,,,,,,,,,,,,1,7.566435,,0,1,18,168,148,1,stimuli/stim_20210407_power2amp/equal_lnn_AM6Hz_25.m4a,,,
,,,,,40699,2021-05-09_20h21.09.086,judgeSpeechMusic_20210407_logNormShiftAmp,2020.1.2,MacIntel,60,,,,,,,,,,,,,,,,,,,,,,,,,,1,7.6164,,0,1,19,169,82,1,stimuli/stim_20210407_power2amp/equal_lnn_AM3.6Hz_55.m4a,,,
,,,,,40699,2021-05-09_20h21.09.086,judgeSpeechMusic_20210407_logNormShiftAmp,2020.1.2,MacIntel,60,,,,,,,,,,,,,,,,,,,,,,,,,,1,6.39224,,0,1,20,170,24,1,stimuli/stim_20210407_power2amp/equal_lnn_AM1.2Hz_87.m4a,,,
,,,,,40699,2021-05-09_20h21.09.086,judgeSpeechMusic_20210407_logNormShiftAmp,2020.1.2,MacIntel,60,,,,,,,,,,,,,,,,,,,,,,,,,,1,7.453895,,0,1,21,171,33,1,stimuli/stim_20210407_power2amp/equal_lnn_AM1.8Hz_14.m4a,,,
,,,,,40699,2021-05-09_20h21.09.086,judgeSpeechMusic_20210407_logNormShiftAmp,2020.1.2,MacIntel,60,,,,,,,,,,,,,,,,,,,,,,,,,,2,6.7811,,0,1,22,172,51,1,stimuli/stim_20210407_power2amp/equal_lnn_AM2.4Hz_35.m4a,,,
,,,,,40699,2021-05-09_20h21.09.086,judgeSpeechMusic_20210407_logNormShiftAmp,2020.1.2,MacIntel,60,,,,,,,,,,,,,,,,,,,,,,,,,,2,5.59209,,0,1,23,173,38,1,stimuli/stim_20210407_power2amp/equal_lnn_AM1.8Hz_44.m4a,,,
,,,,,40699,2021-05-09_20h21.09.086,judgeSpeechMusic_20210407_logNormShiftAmp,2020.1.2,MacIntel,60,,,,,,,,,,,,,,,,,,,,,,,,,,1,5.58573,4,1,1,24,174,141,1,stimuli/stim_20210407_power2amp/equal_lnn_AM6Hz_21.m4a,0.64351,,
,,,,,40699,2021-05-09_20h21.09.086,judgeSpeechMusic_20210407_logNormShiftAmp,2020.1.2,MacIntel,60,,,,,,,,,,,,,,,,,,,,,,,,,,1,6.448785,,0,1,25,175,107,1,stimuli/stim_20210407_power2amp/equal_lnn_AM4.8Hz_45.m4a,,,
,,,,,40699,2021-05-09_20h21.09.086,judgeSpeechMusic_20210407_logNormShiftAmp,2020.1.2,MacIntel,60,,,,,,,,,,,,,,,,,,,,,,,,,,1,5.409135,,0,1,26,176,99,1,stimuli/stim_20210407_power2amp/equal_lnn_AM4.2Hz_29.m4a,,,
,,,,,40699,2021-05-09_20h21.09.086,judgeSpeechMusic_20210407_logNormShiftAmp,2020.1.2,MacIntel,60,,,,,,,,,,,,,,,,,,,,,,,,,,2,5.732555,,0,1,27,177,132,1,stimuli/stim_20210407_power2amp/equal_lnn_AM5.4Hz_24.m4a,,,
,,,,,40699,2021-05-09_20h21.09.086,judgeSpeechMusic_20210407_logNormShiftAmp,2020.1.2,MacIntel,60,,,,,,,,,,,,,,,,,,,,,,,,,,1,5.960205,,0,1,28,178,37,1,stimuli/stim_20210407_power2amp/equal_lnn_AM1.8Hz_29.m4a,,,
,,,,,40699,2021-05-09_20h21.09.086,judgeSpeechMusic_20210407_logNormShiftAmp,2020.1.2,MacIntel,60,,,,,,,,,,,,,,,,,,,,,,,,,,1,5.933455,,0,1,29,179,41,1,stimuli/stim_20210407_power2amp/equal_lnn_AM1.8Hz_71.m4a,,,
,,,,,40699,2021-05-09_20h21.09.086,judgeSpeechMusic_20210407_logNormShiftAmp,2020.1.2,MacIntel,60,,,,,,,,,,,,,,,,,,,,,,,,,,1,5.65207,,0,1,30,180,22,1,stimuli/stim_20210407_power2amp/equal_lnn_AM1.2Hz_35.m4a,,,
,,,,,40699,2021-05-09_20h21.09.086,judgeSpeechMusic_20210407_logNormShiftAmp,2020.1.2,MacIntel,60,,,,,,,,,,,,,,,,,,,,,,,,,,2,6.525775,,0,1,31,181,53,1,stimuli/stim_20210407_power2amp/equal_lnn_AM2.4Hz_38.m4a,,,
,,,,,40699,2021-05-09_20h21.09.086,judgeSpeechMusic_20210407_logNormShiftAmp,2020.1.2,MacIntel,60,,,,,,,,,,,,,,,,,,,,,,,,,,1,7.05317,,0,1,32,182,34,1,stimuli/stim_20210407_power2amp/equal_lnn_AM1.8Hz_11.m4a,,,
,,,,,40699,2021-05-09_20h21.09.086,judgeSpeechMusic_20210407_logNormShiftAmp,2020.1.2,MacIntel,60,,,,,,,,,,,,,,,,,,,,,,,,,,1,5.768465,,0,1,33,183,25,1,stimuli/stim_20210407_power2amp/equal_lnn_AM1.2Hz_84.m4a,,,
,,,,,40699,2021-05-09_20h21.09.086,judgeSpeechMusic_20210407_logNormShiftAmp,2020.1.2,MacIntel,60,,,,,,,,,,,,,,,,,,,,,,,,,,2,6.33996,,0,1,34,184,74,1,stimuli/stim_20210407_power2amp/equal_lnn_AM3Hz_41.m4a,,,
,,,,,40699,2021-05-09_20h21.09.086,judgeSpeechMusic_20210407_logNormShiftAmp,2020.1.2,MacIntel,60,,,,,,,,,,,,,,,,,,,,,,,,,,1,5.614705,,0,1,35,185,73,1,stimuli/stim_20210407_power2amp/equal_lnn_AM3Hz_55.m4a,,,
,,,,,40699,2021-05-09_20h21.09.086,judgeSpeechMusic_20210407_logNormShiftAmp,2020.1.2,MacIntel,60,,,,,,,,,,,,,,,,,,,,,,,,,,2,7.385025,,0,1,36,186,68,1,stimuli/stim_20210407_power2amp/equal_lnn_AM3Hz_60.m4a,,,
,,,,,40699,2021-05-09_20h21.09.086,judgeSpeechMusic_20210407_logNormShiftAmp,2020.1.2,MacIntel,60,,,,,,,,,,,,,,,,,,,,,,,,,,1,5.57336,,0,1,37,187,75,1,stimuli/stim_20210407_power2amp/equal_lnn_AM3.6Hz_51.m4a,,,
,,,,,40699,2021-05-09_20h21.09.086,judgeSpeechMusic_20210407_logNormShiftAmp,2020.1.2,MacIntel,60,,,,,,,,,,,,,,,,,,,,,,,,,,1,5.6701,,0,1,38,188,16,1,stimuli/stim_20210407_power2amp/equal_lnn_AM1.2Hz_71.m4a,,,
,,,,,40699,2021-05-09_20h21.09.086,judgeSpeechMusic_20210407_logNormShiftAmp,2020.1.2,MacIntel,60,,,,,,,,,,,,,,,,,,,,,,,,,,1,5.490535,,0,1,39,189,124,1,stimuli/stim_20210407_power2amp/equal_lnn_AM5.4Hz_77.m4a,,,
,,,,,40699,2021-05-09_20h21.09.086,judgeSpeechMusic_20210407_logNormShiftAmp,2020.1.2,MacIntel,60,,,,,,,,,,,,,,,,,,,,,,,,,,1,7.34392,,0,1,40,190,58,1,stimuli/stim_20210407_power2amp/equal_lnn_AM2.4Hz_27.m4a,,,
,,,,,40699,2021-05-09_20h21.09.086,judgeSpeechMusic_20210407_logNormShiftAmp,2020.1.2,MacIntel,60,,,,,,,,,,,,,,,,,,,,,,,,,,2,6.417695,,0,1,41,191,96,1,stimuli/stim_20210407_power2amp/equal_lnn_AM4.2Hz_64.m4a,,,
,,,,,40699,2021-05-09_20h21.09.086,judgeSpeechMusic_20210407_logNormShiftAmp,2020.1.2,MacIntel,60,,,,,,,,,,,,,,,,,,,,,,,,,,1,6.650755,,0,1,42,192,62,1,stimuli/stim_20210407_power2amp/equal_lnn_AM3Hz_84.m4a,,,
,,,,,40699,2021-05-09_20h21.09.086,judgeSpeechMusic_20210407_logNormShiftAmp,2020.1.2,MacIntel,60,,,,,,,,,,,,,,,,,,,,,,,,,,2,8.19079,,0,1,43,193,35,1,stimuli/stim_20210407_power2amp/equal_lnn_AM1.8Hz_86.m4a,,,
,,,,,40699,2021-05-09_20h21.09.086,judgeSpeechMusic_20210407_logNormShiftAmp,2020.1.2,MacIntel,60,,,,,,,,,,,,,,,,,,,,,,,,,,2,6.53103,,0,1,44,194,138,1,stimuli/stim_20210407_power2amp/equal_lnn_AM6Hz_3.m4a,,,
,,,,,40699,2021-05-09_20h21.09.086,judgeSpeechMusic_20210407_logNormShiftAmp,2020.1.2,MacIntel,60,,,,,,,,,,,,,,,,,,,,,,,,,,1,8.502165,,0,1,45,195,7,1,stimuli/stim_20210407_power2amp/equal_lnn_AM0.6Hz_55.m4a,,,
,,,,,40699,2021-05-09_20h21.09.086,judgeSpeechMusic_20210407_logNormShiftAmp,2020.1.2,MacIntel,60,,,,,,,,,,,,,,,,,,,,,,,,,,1,10.019775,4,1,1,46,196,145,1,stimuli/stim_20210407_power2amp/equal_lnn_AM6Hz_57.m4a,1.559045,,
,,,,,40699,2021-05-09_20h21.09.086,judgeSpeechMusic_20210407_logNormShiftAmp,2020.1.2,MacIntel,60,,,,,,,,,,,,,,,,,,,,,,,,,,2,6.680595,,0,1,47,197,113,1,stimuli/stim_20210407_power2amp/equal_lnn_AM4.8Hz_89.m4a,,,
,,,,,40699,2021-05-09_20h21.09.086,judgeSpeechMusic_20210407_logNormShiftAmp,2020.1.2,MacIntel,60,,,,,,,,,,,,,,,,,,,,,,,,,,2,35.787535,,0,1,48,198,50,1,stimuli/stim_20210407_power2amp/equal_lnn_AM2.4Hz_17.m4a,,,
,,,,,40699,2021-05-09_20h21.09.086,judgeSpeechMusic_20210407_logNormShiftAmp,2020.1.2,MacIntel,60,,,,,,,,,,,,,,,,,,,,,,,,,,1,6.659445,,0,1,49,199,71,1,stimuli/stim_20210407_power2amp/equal_lnn_AM3Hz_48.m4a,,,
,,,,,40699,2021-05-09_20h21.09.086,judgeSpeechMusic_20210407_logNormShiftAmp,2020.1.2,MacIntel,60,,,,,,,,,,,,,,,,,,,,,,,,,,1,9.01631,,0,1,50,200,13,1,stimuli/stim_20210407_power2amp/equal_lnn_AM0.6Hz_46.m4a,,,
,,,,,40699,2021-05-09_20h21.09.086,judgeSpeechMusic_20210407_logNormShiftAmp,2020.1.2,MacIntel,60,,,,,,,,,,,,,,,,,,,,,,,,,,2,5.636255,,0,1,51,201,131,1,stimuli/stim_20210407_power2amp/equal_lnn_AM5.4Hz_41.m4a,,,
,,,,,40699,2021-05-09_20h21.09.086,judgeSpeechMusic_20210407_logNormShiftAmp,2020.1.2,MacIntel,60,,,,,,,,,,,,,,,,,,,,,,,,,,2,10.436515,,0,1,52,202,15,1,stimuli/stim_20210407_power2amp/equal_lnn_AM1.2Hz_12.m4a,,,
,,,,,40699,2021-05-09_20h21.09.086,judgeSpeechMusic_20210407_logNormShiftAmp,2020.1.2,MacIntel,60,,,,,,,,,,,,,,,,,,,,,,,,,,1,5.97385,,0,1,53,203,59,1,stimuli/stim_20210407_power2amp/equal_lnn_AM2.4Hz_43.m4a,,,
,,,,,40699,2021-05-09_20h21.09.086,judgeSpeechMusic_20210407_logNormShiftAmp,2020.1.2,MacIntel,60,,,,,,,,,,,,,,,,,,,,,,,,,,2,7.198835,,0,1,54,204,110,1,stimuli/stim_20210407_power2amp/equal_lnn_AM4.8Hz_97.m4a,,,
,,,,,40699,2021-05-09_20h21.09.086,judgeSpeechMusic_20210407_logNormShiftAmp,2020.1.2,MacIntel,60,,,,,,,,,,,,,,,,,,,,,,,,,,1,8.349135,,0,1,55,205,69,1,stimuli/stim_20210407_power2amp/equal_lnn_AM3Hz_28.m4a,,,
,,,,,40699,2021-05-09_20h21.09.086,judgeSpeechMusic_20210407_logNormShiftAmp,2020.1.2,MacIntel,60,,,,,,,,,,,,,,,,,,,,,,,,,,1,7.217755,,0,1,56,206,2,1,stimuli/stim_20210407_power2amp/equal_lnn_AM0.6Hz_79.m4a,,,
,,,,,40699,2021-05-09_20h21.09.086,judgeSpeechMusic_20210407_logNormShiftAmp,2020.1.2,MacIntel,60,,,,,,,,,,,,,,,,,,,,,,,,,,1,10.28264,,0,1,57,207,8,1,stimuli/stim_20210407_power2amp/equal_lnn_AM0.6Hz_96.m4a,,,
,,,,,40699,2021-05-09_20h21.09.086,judgeSpeechMusic_20210407_logNormShiftAmp,2020.1.2,MacIntel,60,,,,,,,,,,,,,,,,,,,,,,,,,,2,6.524775,,0,1,58,208,105,1,stimuli/stim_20210407_power2amp/equal_lnn_AM4.8Hz_65.m4a,,,
,,,,,40699,2021-05-09_20h21.09.086,judgeSpeechMusic_20210407_logNormShiftAmp,2020.1.2,MacIntel,60,,,,,,,,,,,,,,,,,,,,,,,,,,1,8.41333,,0,1,59,209,126,1,stimuli/stim_20210407_power2amp/equal_lnn_AM5.4Hz_18.m4a,,,
,,,,,40699,2021-05-09_20h21.09.086,judgeSpeechMusic_20210407_logNormShiftAmp,2020.1.2,MacIntel,60,,,,,,,,,,,,,,,,,,,,,,,,,,2,12.143545,,0,1,60,210,23,1,stimuli/stim_20210407_power2amp/equal_lnn_AM1.2Hz_59.m4a,,,
,,,,,40699,2021-05-09_20h21.09.086,judgeSpeechMusic_20210407_logNormShiftAmp,2020.1.2,MacIntel,60,,,,,,,,,,,,,,,,,,,,,,,,,,2,12.631915,,0,1,61,211,63,1,stimuli/stim_20210407_power2amp/equal_lnn_AM3Hz_95.m4a,,,
,,,,,40699,2021-05-09_20h21.09.086,judgeSpeechMusic_20210407_logNormShiftAmp,2020.1.2,MacIntel,60,,,,,,,,,,,,,,,,,,,,,,,,,,1,6.47256,,0,1,62,212,39,1,stimuli/stim_20210407_power2amp/equal_lnn_AM1.8Hz_96.m4a,,,
,,,,,40699,2021-05-09_20h21.09.086,judgeSpeechMusic_20210407_logNormShiftAmp,2020.1.2,MacIntel,60,,,,,,,,,,,,,,,,,,,,,,,,,,2,10.47978,,0,1,63,213,0,1,stimuli/stim_20210407_power2amp/equal_lnn_AM0.6Hz_27.m4a,,,
,,,,,40699,2021-05-09_20h21.09.086,judgeSpeechMusic_20210407_logNormShiftAmp,2020.1.2,MacIntel,60,,,,,,,,,,,,,,,,,,,,,,,,,,2,7.39086,,0,1,64,214,57,1,stimuli/stim_20210407_power2amp/equal_lnn_AM2.4Hz_68.m4a,,,
,,,,,40699,2021-05-09_20h21.09.086,judgeSpeechMusic_20210407_logNormShiftAmp,2020.1.2,MacIntel,60,,,,,,,,,,,,,,,,,,,,,,,,,,1,10.320375,,0,1,65,215,140,1,stimuli/stim_20210407_power2amp/equal_lnn_AM6Hz_70.m4a,,,
,,,,,40699,2021-05-09_20h21.09.086,judgeSpeechMusic_20210407_logNormShiftAmp,2020.1.2,MacIntel,60,,,,,,,,,,,,,,,,,,,,,,,,,,2,12.451405,,0,1,66,216,136,1,stimuli/stim_20210407_power2amp/equal_lnn_AM6Hz_86.m4a,,,
,,,,,40699,2021-05-09_20h21.09.086,judgeSpeechMusic_20210407_logNormShiftAmp,2020.1.2,MacIntel,60,,,,,,,,,,,,,,,,,,,,,,,,,,2,6.538425,,0,1,67,217,88,1,stimuli/stim_20210407_power2amp/equal_lnn_AM3.6Hz_10.m4a,,,
,,,,,40699,2021-05-09_20h21.09.086,judgeSpeechMusic_20210407_logNormShiftAmp,2020.1.2,MacIntel,60,,,,,,,,,,,,,,,,,,,,,,,,,,1,7.72491,,0,1,68,218,101,1,stimuli/stim_20210407_power2amp/equal_lnn_AM4.2Hz_81.m4a,,,
,,,,,40699,2021-05-09_20h21.09.086,judgeSpeechMusic_20210407_logNormShiftAmp,2020.1.2,MacIntel,60,,,,,,,,,,,,,,,,,,,,,,,,,,2,9.747915,2,1,1,69,219,43,1,stimuli/stim_20210407_power2amp/equal_lnn_AM1.8Hz_100.m4a,1.595275,,
,,,,,40699,2021-05-09_20h21.09.086,judgeSpeechMusic_20210407_logNormShiftAmp,2020.1.2,MacIntel,60,,,,,,,,,,,,,,,,,,,,,,,,,,1,7.82182,,0,1,70,220,21,1,stimuli/stim_20210407_power2amp/equal_lnn_AM1.2Hz_11.m4a,,,
,,,,,40699,2021-05-09_20h21.09.086,judgeSpeechMusic_20210407_logNormShiftAmp,2020.1.2,MacIntel,60,,,,,,,,,,,,,,,,,,,,,,,,,,2,6.18675,,0,1,71,221,76,1,stimuli/stim_20210407_power2amp/equal_lnn_AM3.6Hz_94.m4a,,,
,,,,,40699,2021-05-09_20h21.09.086,judgeSpeechMusic_20210407_logNormShiftAmp,2020.1.2,MacIntel,60,,,,,,,,,,,,,,,,,,,,,,,,,,1,7.01877,,0,1,72,222,26,1,stimuli/stim_20210407_power2amp/equal_lnn_AM1.2Hz_98.m4a,,,
,,,,,40699,2021-05-09_20h21.09.086,judgeSpeechMusic_20210407_logNormShiftAmp,2020.1.2,MacIntel,60,,,,,,,,,,,,,,,,,,,,,,,,,,1,6.127835,,0,1,73,223,10,1,stimuli/stim_20210407_power2amp/equal_lnn_AM0.6Hz_39.m4a,,,
,,,,,40699,2021-05-09_20h21.09.086,judgeSpeechMusic_20210407_logNormShiftAmp,2020.1.2,MacIntel,60,,,,,,,,,,,,,,,,,,,,,,,,,,1,6.0892,,0,1,74,224,46,1,stimuli/stim_20210407_power2amp/equal_lnn_AM2.4Hz_46.m4a,,,
,,,,,40699,2021-05-09_20h21.09.086,judgeSpeechMusic_20210407_logNormShiftAmp,2020.1.2,MacIntel,60,,,,,,,,,,,,,,,,,,,,,,,,,,1,11.478895,,0,1,75,225,42,1,stimuli/stim_20210407_power2amp/equal_lnn_AM1.8Hz_4.m4a,,,
,,,,,40699,2021-05-09_20h21.09.086,judgeSpeechMusic_20210407_logNormShiftAmp,2020.1.2,MacIntel,60,,,,,,,,,,,,,,,,,,,,,,,,,,2,6.934795,,0,1,76,226,118,1,stimuli/stim_20210407_power2amp/equal_lnn_AM4.8Hz_98.m4a,,,
,,,,,40699,2021-05-09_20h21.09.086,judgeSpeechMusic_20210407_logNormShiftAmp,2020.1.2,MacIntel,60,,,,,,,,,,,,,,,,,,,,,,,,,,2,6.5161,,0,1,77,227,116,1,stimuli/stim_20210407_power2amp/equal_lnn_AM4.8Hz_42.m4a,,,
,,,,,40699,2021-05-09_20h21.09.086,judgeSpeechMusic_20210407_logNormShiftAmp,2020.1.2,MacIntel,60,,,,,,,,,,,,,,,,,,,,,,,,,,1,6.541025,,0,1,78,228,29,1,stimuli/stim_20210407_power2amp/equal_lnn_AM1.2Hz_42.m4a,,,
,,,,,40699,2021-05-09_20h21.09.086,judgeSpeechMusic_20210407_logNormShiftAmp,2020.1.2,MacIntel,60,,,,,,,,,,,,,,,,,,,,,,,,,,2,9.631805,,0,1,79,229,77,1,stimuli/stim_20210407_power2amp/equal_lnn_AM3.6Hz_64.m4a,,,
,,,,,40699,2021-05-09_20h21.09.086,judgeSpeechMusic_20210407_logNormShiftAmp,2020.1.2,MacIntel,60,,,,,,,,,,,,,,,,,,,,,,,,,,1,10.21408,,0,1,80,230,54,1,stimuli/stim_20210407_power2amp/equal_lnn_AM2.4Hz_29.m4a,,,
,,,,,40699,2021-05-09_20h21.09.086,judgeSpeechMusic_20210407_logNormShiftAmp,2020.1.2,MacIntel,60,,,,,,,,,,,,,,,,,,,,,,,,,,1,7.153005,,0,1,81,231,31,1,stimuli/stim_20210407_power2amp/equal_lnn_AM1.8Hz_57.m4a,,,
,,,,,40699,2021-05-09_20h21.09.086,judgeSpeechMusic_20210407_logNormShiftAmp,2020.1.2,MacIntel,60,,,,,,,,,,,,,,,,,,,,,,,,,,1,6.267925,,0,1,82,232,19,1,stimuli/stim_20210407_power2amp/equal_lnn_AM1.2Hz_68.m4a,,,
,,,,,40699,2021-05-09_20h21.09.086,judgeSpeechMusic_20210407_logNormShiftAmp,2020.1.2,MacIntel,60,,,,,,,,,,,,,,,,,,,,,,,,,,2,7.748905,,0,1,83,233,128,1,stimuli/stim_20210407_power2amp/equal_lnn_AM5.4Hz_88.m4a,,,
,,,,,40699,2021-05-09_20h21.09.086,judgeSpeechMusic_20210407_logNormShiftAmp,2020.1.2,MacIntel,60,,,,,,,,,,,,,,,,,,,,,,,,,,1,7.24196,,0,1,84,234,36,1,stimuli/stim_20210407_power2amp/equal_lnn_AM1.8Hz_66.m4a,,,
,,,,,40699,2021-05-09_20h21.09.086,judgeSpeechMusic_20210407_logNormShiftAmp,2020.1.2,MacIntel,60,,,,,,,,,,,,,,,,,,,,,,,,,,1,5.951505,,0,1,85,235,14,1,stimuli/stim_20210407_power2amp/equal_lnn_AM0.6Hz_97.m4a,,,
,,,,,40699,2021-05-09_20h21.09.086,judgeSpeechMusic_20210407_logNormShiftAmp,2020.1.2,MacIntel,60,,,,,,,,,,,,,,,,,,,,,,,,,,1,6.54957,,0,1,86,236,114,1,stimuli/stim_20210407_power2amp/equal_lnn_AM4.8Hz_86.m4a,,,
,,,,,40699,2021-05-09_20h21.09.086,judgeSpeechMusic_20210407_logNormShiftAmp,2020.1.2,MacIntel,60,,,,,,,,,,,,,,,,,,,,,,,,,,2,6.60721,,0,1,87,237,103,1,stimuli/stim_20210407_power2amp/equal_lnn_AM4.2Hz_12.m4a,,,
,,,,,40699,2021-05-09_20h21.09.086,judgeSpeechMusic_20210407_logNormShiftAmp,2020.1.2,MacIntel,60,,,,,,,,,,,,,,,,,,,,,,,,,,2,8.936045,,0,1,88,238,70,1,stimuli/stim_20210407_power2amp/equal_lnn_AM3Hz_54.m4a,,,
,,,,,40699,2021-05-09_20h21.09.086,judgeSpeechMusic_20210407_logNormShiftAmp,2020.1.2,MacIntel,60,,,,,,,,,,,,,,,,,,,,,,,,,,1,13.67717,,0,1,89,239,3,1,stimuli/stim_20210407_power2amp/equal_lnn_AM0.6Hz_31.m4a,,,
,,,,,40699,2021-05-09_20h21.09.086,judgeSpeechMusic_20210407_logNormShiftAmp,2020.1.2,MacIntel,60,,,,,,,,,,,,,,,,,,,,,,,,,,1,10.63403,,0,1,90,240,81,1,stimuli/stim_20210407_power2amp/equal_lnn_AM3.6Hz_39.m4a,,,
,,,,,40699,2021-05-09_20h21.09.086,judgeSpeechMusic_20210407_logNormShiftAmp,2020.1.2,MacIntel,60,,,,,,,,,,,,,,,,,,,,,,,,,,1,13.09845,,0,1,91,241,28,1,stimuli/stim_20210407_power2amp/equal_lnn_AM1.2Hz_24.m4a,,,
,,,,,40699,2021-05-09_20h21.09.086,judgeSpeechMusic_20210407_logNormShiftAmp,2020.1.2,MacIntel,60,,,,,,,,,,,,,,,,,,,,,,,,,,2,7.35671,,0,1,92,242,90,1,stimuli/stim_20210407_power2amp/equal_lnn_AM4.2Hz_3.m4a,,,
,,,,,40699,2021-05-09_20h21.09.086,judgeSpeechMusic_20210407_logNormShiftAmp,2020.1.2,MacIntel,60,,,,,,,,,,,,,,,,,,,,,,,,,,1,20.792635,,0,1,93,243,30,1,stimuli/stim_20210407_power2amp/equal_lnn_AM1.8Hz_6.m4a,,,
,,,,,40699,2021-05-09_20h21.09.086,judgeSpeechMusic_20210407_logNormShiftAmp,2020.1.2,MacIntel,60,,,,,,,,,,,,,,,,,,,,,,,,,,2,8.96568,1,1,1,94,244,67,1,stimuli/stim_20210407_power2amp/equal_lnn_AM3Hz_64.m4a,0.82706,,
,,,,,40699,2021-05-09_20h21.09.086,judgeSpeechMusic_20210407_logNormShiftAmp,2020.1.2,MacIntel,60,,,,,,,,,,,,,,,,,,,,,,,,,,1,11.933875,,0,1,95,245,130,1,stimuli/stim_20210407_power2amp/equal_lnn_AM5.4Hz_80.m4a,,,
,,,,,40699,2021-05-09_20h21.09.086,judgeSpeechMusic_20210407_logNormShiftAmp,2020.1.2,MacIntel,60,,,,,,,,,,,,,,,,,,,,,,,,,,2,13.37615,,0,1,96,246,72,1,stimuli/stim_20210407_power2amp/equal_lnn_AM3Hz_58.m4a,,,
,,,,,40699,2021-05-09_20h21.09.086,judgeSpeechMusic_20210407_logNormShiftAmp,2020.1.2,MacIntel,60,,,,,,,,,,,,,,,,,,,,,,,,,,1,9.666805,,0,1,97,247,125,1,stimuli/stim_20210407_power2amp/equal_lnn_AM5.4Hz_83.m4a,,,
,,,,,40699,2021-05-09_20h21.09.086,judgeSpeechMusic_20210407_logNormShiftAmp,2020.1.2,MacIntel,60,,,,,,,,,,,,,,,,,,,,,,,,,,2,5.590975,,0,1,98,248,95,1,stimuli/stim_20210407_power2amp/equal_lnn_AM4.2Hz_7.m4a,,,
,,,,,40699,2021-05-09_20h21.09.086,judgeSpeechMusic_20210407_logNormShiftAmp,2020.1.2,MacIntel,60,,,,,,,,,,,,,,,,,,,,,,,,,,1,9.481665,,0,1,99,249,17,1,stimuli/stim_20210407_power2amp/equal_lnn_AM1.2Hz_26.m4a,,,
,,,,,40699,2021-05-09_20h21.09.086,judgeSpeechMusic_20210407_logNormShiftAmp,2020.1.2,MacIntel,60,,,,,,,,,,,,,,,,,,,,,,,,,,1,11.53686,,0,1,100,250,64,1,stimuli/stim_20210407_power2amp/equal_lnn_AM3Hz_94.m4a,,,
,,,,,40699,2021-05-09_20h21.09.086,judgeSpeechMusic_20210407_logNormShiftAmp,2020.1.2,MacIntel,60,,,,,,,,,,,,,,,,,,,,,,,,,,1,11.615905,,0,1,101,251,80,1,stimuli/stim_20210407_power2amp/equal_lnn_AM3.6Hz_56.m4a,,,
,,,,,40699,2021-05-09_20h21.09.086,judgeSpeechMusic_20210407_logNormShiftAmp,2020.1.2,MacIntel,60,,,,,,,,,,,,,,,,,,,,,,,,,,2,8.11335,,0,1,102,252,91,1,stimuli/stim_20210407_power2amp/equal_lnn_AM4.2Hz_62.m4a,,,
,,,,,40699,2021-05-09_20h21.09.086,judgeSpeechMusic_20210407_logNormShiftAmp,2020.1.2,MacIntel,60,,,,,,,,,,,,,,,,,,,,,,,,,,1,14.614225,,0,1,103,253,111,1,stimuli/stim_20210407_power2amp/equal_lnn_AM4.8Hz_77.m4a,,,
,,,,,40699,2021-05-09_20h21.09.086,judgeSpeechMusic_20210407_logNormShiftAmp,2020.1.2,MacIntel,60,,,,,,,,,,,,,,,,,,,,,,,,,,1,6.268375,,0,1,104,254,78,1,stimuli/stim_20210407_power2amp/equal_lnn_AM3.6Hz_85.m4a,,,
,,,,,40699,2021-05-09_20h21.09.086,judgeSpeechMusic_20210407_logNormShiftAmp,2020.1.2,MacIntel,60,,,,,,,,,,,,,,,,,,,,,,,,,,1,6.21113,,0,1,105,255,87,1,stimuli/stim_20210407_power2amp/equal_lnn_AM3.6Hz_74.m4a,,,
,,,,,40699,2021-05-09_20h21.09.086,judgeSpeechMusic_20210407_logNormShiftAmp,2020.1.2,MacIntel,60,,,,,,,,,,,,,,,,,,,,,,,,,,1,8.33181,,0,1,106,256,44,1,stimuli/stim_20210407_power2amp/equal_lnn_AM1.8Hz_53.m4a,,,
,,,,,40699,2021-05-09_20h21.09.086,judgeSpeechMusic_20210407_logNormShiftAmp,2020.1.2,MacIntel,60,,,,,,,,,,,,,,,,,,,,,,,,,,1,9.332405,,0,1,107,257,117,1,stimuli/stim_20210407_power2amp/equal_lnn_AM4.8Hz_23.m4a,,,
,,,,,40699,2021-05-09_20h21.09.086,judgeSpeechMusic_20210407_logNormShiftAmp,2020.1.2,MacIntel,60,,,,,,,,,,,,,,,,,,,,,,,,,,2,8.568305,,0,1,108,258,93,1,stimuli/stim_20210407_power2amp/equal_lnn_AM4.2Hz_86.m4a,,,
,,,,,40699,2021-05-09_20h21.09.086,judgeSpeechMusic_20210407_logNormShiftAmp,2020.1.2,MacIntel,60,,,,,,,,,,,,,,,,,,,,,,,,,,2,6.41616,,0,1,109,259,135,1,stimuli/stim_20210407_power2amp/equal_lnn_AM6Hz_17.m4a,,,
,,,,,40699,2021-05-09_20h21.09.086,judgeSpeechMusic_20210407_logNormShiftAmp,2020.1.2,MacIntel,60,,,,,,,,,,,,,,,,,,,,,,,,,,2,7.43687,,0,1,110,260,106,1,stimuli/stim_20210407_power2amp/equal_lnn_AM4.8Hz_34.m4a,,,
,,,,,40699,2021-05-09_20h21.09.086,judgeSpeechMusic_20210407_logNormShiftAmp,2020.1.2,MacIntel,60,,,,,,,,,,,,,,,,,,,,,,,,,,2,6.96366,,0,1,111,261,102,1,stimuli/stim_20210407_power2amp/equal_lnn_AM4.2Hz_98.m4a,,,
,,,,,40699,2021-05-09_20h21.09.086,judgeSpeechMusic_20210407_logNormShiftAmp,2020.1.2,MacIntel,60,,,,,,,,,,,,,,,,,,,,,,,,,,2,8.436065,,0,1,112,262,108,1,stimuli/stim_20210407_power2amp/equal_lnn_AM4.8Hz_15.m4a,,,
,,,,,40699,2021-05-09_20h21.09.086,judgeSpeechMusic_20210407_logNormShiftAmp,2020.1.2,MacIntel,60,,,,,,,,,,,,,,,,,,,,,,,,,,1,7.169675,,0,1,113,263,47,1,stimuli/stim_20210407_power2amp/equal_lnn_AM2.4Hz_99.m4a,,,
,,,,,40699,2021-05-09_20h21.09.086,judgeSpeechMusic_20210407_logNormShiftAmp,2020.1.2,MacIntel,60,,,,,,,,,,,,,,,,,,,,,,,,,,1,6.654715,,0,1,114,264,86,1,stimuli/stim_20210407_power2amp/equal_lnn_AM3.6Hz_23.m4a,,,
,,,,,40699,2021-05-09_20h21.09.086,judgeSpeechMusic_20210407_logNormShiftAmp,2020.1.2,MacIntel,60,,,,,,,,,,,,,,,,,,,,,,,,,,1,6.8713,4,1,1,115,265,5,1,stimuli/stim_20210407_power2amp/equal_lnn_AM0.6Hz_26.m4a,0.613125,,
,,,,,40699,2021-05-09_20h21.09.086,judgeSpeechMusic_20210407_logNormShiftAmp,2020.1.2,MacIntel,60,,,,,,,,,,,,,,,,,,,,,,,,,,1,7.025485,,0,1,116,266,119,1,stimuli/stim_20210407_power2amp/equal_lnn_AM4.8Hz_61.m4a,,,
,,,,,40699,2021-05-09_20h21.09.086,judgeSpeechMusic_20210407_logNormShiftAmp,2020.1.2,MacIntel,60,,,,,,,,,,,,,,,,,,,,,,,,,,1,6.168195,,0,1,117,267,92,1,stimuli/stim_20210407_power2amp/equal_lnn_AM4.2Hz_45.m4a,,,
,,,,,40699,2021-05-09_20h21.09.086,judgeSpeechMusic_20210407_logNormShiftAmp,2020.1.2,MacIntel,60,,,,,,,,,,,,,,,,,,,,,,,,,,1,6.634325,,0,1,118,268,52,1,stimuli/stim_20210407_power2amp/equal_lnn_AM2.4Hz_100.m4a,,,
,,,,,40699,2021-05-09_20h21.09.086,judgeSpeechMusic_20210407_logNormShiftAmp,2020.1.2,MacIntel,60,,,,,,,,,,,,,,,,,,,,,,,,,,1,6.9758,,0,1,119,269,84,1,stimuli/stim_20210407_power2amp/equal_lnn_AM3.6Hz_66.m4a,,,
,,,,,40699,2021-05-09_20h21.09.086,judgeSpeechMusic_20210407_logNormShiftAmp,2020.1.2,MacIntel,60,,,,,,,,,,,,,,,,,,,,,,,,,,1,7.18938,,0,1,120,270,45,1,stimuli/stim_20210407_power2amp/equal_lnn_AM2.4Hz_76.m4a,,,
,,,,,40699,2021-05-09_20h21.09.086,judgeSpeechMusic_20210407_logNormShiftAmp,2020.1.2,MacIntel,60,,,,,,,,,,,,,,,,,,,,,,,,,,1,11.600555,,0,1,121,271,66,1,stimuli/stim_20210407_power2amp/equal_lnn_AM3Hz_82.m4a,,,
,,,,,40699,2021-05-09_20h21.09.086,judgeSpeechMusic_20210407_logNormShiftAmp,2020.1.2,MacIntel,60,,,,,,,,,,,,,,,,,,,,,,,,,,2,6.43317,,0,1,122,272,147,1,stimuli/stim_20210407_power2amp/equal_lnn_AM6Hz_87.m4a,,,
,,,,,40699,2021-05-09_20h21.09.086,judgeSpeechMusic_20210407_logNormShiftAmp,2020.1.2,MacIntel,60,,,,,,,,,,,,,,,,,,,,,,,,,,2,6.002635,,0,1,123,273,89,1,stimuli/stim_20210407_power2amp/equal_lnn_AM3.6Hz_11.m4a,,,
,,,,,40699,2021-05-09_20h21.09.086,judgeSpeechMusic_20210407_logNormShiftAmp,2020.1.2,MacIntel,60,,,,,,,,,,,,,,,,,,,,,,,,,,1,29.29754,,0,1,124,274,1,1,stimuli/stim_20210407_power2amp/equal_lnn_AM0.6Hz_13.m4a,,,
,,,,,40699,2021-05-09_20h21.09.086,judgeSpeechMusic_20210407_logNormShiftAmp,2020.1.2,MacIntel,60,,,,,,,,,,,,,,,,,,,,,,,,,,2,8.67303,,0,1,125,275,55,1,stimuli/stim_20210407_power2amp/equal_lnn_AM2.4Hz_78.m4a,,,
,,,,,40699,2021-05-09_20h21.09.086,judgeSpeechMusic_20210407_logNormShiftAmp,2020.1.2,MacIntel,60,,,,,,,,,,,,,,,,,,,,,,,,,,1,5.671085,,0,1,126,276,11,1,stimuli/stim_20210407_power2amp/equal_lnn_AM0.6Hz_17.m4a,,,
,,,,,40699,2021-05-09_20h21.09.086,judgeSpeechMusic_20210407_logNormShiftAmp,2020.1.2,MacIntel,60,,,,,,,,,,,,,,,,,,,,,,,,,,2,5.63405,,0,1,127,277,100,1,stimuli/stim_20210407_power2amp/equal_lnn_AM4.2Hz_19.m4a,,,
,,,,,40699,2021-05-09_20h21.09.086,judgeSpeechMusic_20210407_logNormShiftAmp,2020.1.2,MacIntel,60,,,,,,,,,,,,,,,,,,,,,,,,,,1,7.02747,,0,1,128,278,4,1,stimuli/stim_20210407_power2amp/equal_lnn_AM0.6Hz_32.m4a,,,
,,,,,40699,2021-05-09_20h21.09.086,judgeSpeechMusic_20210407_logNormShiftAmp,2020.1.2,MacIntel,60,,,,,,,,,,,,,,,,,,,,,,,,,,1,9.980845,,0,1,129,279,127,1,stimuli/stim_20210407_power2amp/equal_lnn_AM5.4Hz_5.m4a,,,
,,,,,40699,2021-05-09_20h21.09.086,judgeSpeechMusic_20210407_logNormShiftAmp,2020.1.2,MacIntel,60,,,,,,,,,,,,,,,,,,,,,,,,,,1,12.735965,,0,1,130,280,109,1,stimuli/stim_20210407_power2amp/equal_lnn_AM4.8Hz_76.m4a,,,
,,,,,40699,2021-05-09_20h21.09.086,judgeSpeechMusic_20210407_logNormShiftAmp,2020.1.2,MacIntel,60,,,,,,,,,,,,,,,,,,,,,,,,,,2,11.63242,,0,1,131,281,18,1,stimuli/stim_20210407_power2amp/equal_lnn_AM1.2Hz_34.m4a,,,
,,,,,40699,2021-05-09_20h21.09.086,judgeSpeechMusic_20210407_logNormShiftAmp,2020.1.2,MacIntel,60,,,,,,,,,,,,,,,,,,,,,,,,,,1,6.532945,,0,1,132,282,56,1,stimuli/stim_20210407_power2amp/equal_lnn_AM2.4Hz_94.m4a,,,
,,,,,40699,2021-05-09_20h21.09.086,judgeSpeechMusic_20210407_logNormShiftAmp,2020.1.2,MacIntel,60,,,,,,,,,,,,,,,,,,,,,,,,,,1,5.74149,,0,1,133,283,137,1,stimuli/stim_20210407_power2amp/equal_lnn_AM6Hz_22.m4a,,,
,,,,,40699,2021-05-09_20h21.09.086,judgeSpeechMusic_20210407_logNormShiftAmp,2020.1.2,MacIntel,60,,,,,,,,,,,,,,,,,,,,,,,,,,2,8.73312,,0,1,134,284,60,1,stimuli/stim_20210407_power2amp/equal_lnn_AM3Hz_80.m4a,,,
,,,,,40699,2021-05-09_20h21.09.086,judgeSpeechMusic_20210407_logNormShiftAmp,2020.1.2,MacIntel,60,,,,,,,,,,,,,,,,,,,,,,,,,,2,6.54981,,0,1,135,285,122,1,stimuli/stim_20210407_power2amp/equal_lnn_AM5.4Hz_10.m4a,,,
,,,,,40699,2021-05-09_20h21.09.086,judgeSpeechMusic_20210407_logNormShiftAmp,2020.1.2,MacIntel,60,,,,,,,,,,,,,,,,,,,,,,,,,,1,7.534175,,0,1,136,286,9,1,stimuli/stim_20210407_power2amp/equal_lnn_AM0.6Hz_91.m4a,,,
,,,,,40699,2021-05-09_20h21.09.086,judgeSpeechMusic_20210407_logNormShiftAmp,2020.1.2,MacIntel,60,,,,,,,,,,,,,,,,,,,,,,,,,,2,12.533455,,0,1,137,287,65,1,stimuli/stim_20210407_power2amp/equal_lnn_AM3Hz_23.m4a,,,
,,,,,40699,2021-05-09_20h21.09.086,judgeSpeechMusic_20210407_logNormShiftAmp,2020.1.2,MacIntel,60,,,,,,,,,,,,,,,,,,,,,,,,,,2,5.764305,2,1,1,138,288,144,1,stimuli/stim_20210407_power2amp/equal_lnn_AM6Hz_58.m4a,3.0298,,
,,,,,40699,2021-05-09_20h21.09.086,judgeSpeechMusic_20210407_logNormShiftAmp,2020.1.2,MacIntel,60,,,,,,,,,,,,,,,,,,,,,,,,,,2,6.46289,,0,1,139,289,139,1,stimuli/stim_20210407_power2amp/equal_lnn_AM6Hz_91.m4a,,,
,,,,,40699,2021-05-09_20h21.09.086,judgeSpeechMusic_20210407_logNormShiftAmp,2020.1.2,MacIntel,60,,,,,,,,,,,,,,,,,,,,,,,,,,2,5.79806,,0,1,140,290,121,1,stimuli/stim_20210407_power2amp/equal_lnn_AM5.4Hz_48.m4a,,,
,,,,,40699,2021-05-09_20h21.09.086,judgeSpeechMusic_20210407_logNormShiftAmp,2020.1.2,MacIntel,60,,,,,,,,,,,,,,,,,,,,,,,,,,2,5.770605,,0,1,141,291,142,1,stimuli/stim_20210407_power2amp/equal_lnn_AM6Hz_61.m4a,,,
,,,,,40699,2021-05-09_20h21.09.086,judgeSpeechMusic_20210407_logNormShiftAmp,2020.1.2,MacIntel,60,,,,,,,,,,,,,,,,,,,,,,,,,,2,5.64703,,0,1,142,292,134,1,stimuli/stim_20210407_power2amp/equal_lnn_AM5.4Hz_34.m4a,,,
,,,,,40699,2021-05-09_20h21.09.086,judgeSpeechMusic_20210407_logNormShiftAmp,2020.1.2,MacIntel,60,,,,,,,,,,,,,,,,,,,,,,,,,,1,5.725275,,0,1,143,293,79,1,stimuli/stim_20210407_power2amp/equal_lnn_AM3.6Hz_97.m4a,,,
,,,,,40699,2021-05-09_20h21.09.086,judgeSpeechMusic_20210407_logNormShiftAmp,2020.1.2,MacIntel,60,,,,,,,,,,,,,,,,,,,,,,,,,,1,6.082995,,0,1,144,294,104,1,stimuli/stim_20210407_power2amp/equal_lnn_AM4.2Hz_17.m4a,,,
,,,,,40699,2021-05-09_20h21.09.086,judgeSpeechMusic_20210407_logNormShiftAmp,2020.1.2,MacIntel,60,,,,,,,,,,,,,,,,,,,,,,,,,,1,6.007345,,0,1,145,295,85,1,stimuli/stim_20210407_power2amp/equal_lnn_AM3.6Hz_69.m4a,,,
,,,,,40699,2021-05-09_20h21.09.086,judgeSpeechMusic_20210407_logNormShiftAmp,2020.1.2,MacIntel,60,,,,,,,,,,,,,,,,,,,,,,,,,,2,9.485635,,0,1,146,296,98,1,stimuli/stim_20210407_power2amp/equal_lnn_AM4.2Hz_13.m4a,,,
,,,,,40699,2021-05-09_20h21.09.086,judgeSpeechMusic_20210407_logNormShiftAmp,2020.1.2,MacIntel,60,,,,,,,,,,,,,,,,,,,,,,,,,,2,5.68211,,0,1,147,297,32,1,stimuli/stim_20210407_power2amp/equal_lnn_AM1.8Hz_27.m4a,,,
,,,,,40699,2021-05-09_20h21.09.086,judgeSpeechMusic_20210407_logNormShiftAmp,2020.1.2,MacIntel,60,,,,,,,,,,,,,,,,,,,,,,,,,,1,8.40184,,0,1,148,298,12,1,stimuli/stim_20210407_power2amp/equal_lnn_AM0.6Hz_85.m4a,,,
,,,,,40699,2021-05-09_20h21.09.086,judgeSpeechMusic_20210407_logNormShiftAmp,2020.1.2,MacIntel,60,,,,,,,,,,,,,,,,,,,,,,,,,,2,6.87421,,0,1,149,299,146,1,stimuli/stim_20210407_power2amp/equal_lnn_AM6Hz_36.m4a,,,
,,,,,40699,2021-05-09_20h21.09.086,judgeSpeechMusic_20210407_logNormShiftAmp,2020.1.2,MacIntel,60,,,,,,,,,,,,,,,,,,,,,,,,,,,,,,,,,,,,,space,9.34149
