volAdjustRep.thisRepN,volAdjustRep.thisTrialN,volAdjustRep.thisN,volAdjustRep.thisIndex,volAdjustRep.ran,participant,date,expName,psychopyVersion,OS,frameRate,headphoneResponse.keys,headphoneResponse.corr,headphoneResponse.rt,headphoneTrial.thisRepN,headphoneTrial.thisTrialN,headphoneTrial.thisN,headphoneTrial.thisIndex,headphoneTrial.ran,headphone_sound1,headphone_sound2,headphone_sound3,corrAns,trainSlider.response,trainSlider.rt,beepTrainResponse.keys,beepTrainResponse.corr,trainingTrials.thisRepN,trainingTrials.thisTrialN,trainingTrials.thisN,trainingTrials.thisIndex,trainingTrials.ran,trainAudioFile,beepTrainResponse.rt,readyReal_resp.keys,readyReal_resp.rt,ratingSlider.response,ratingSlider.rt,beepResp.keys,beepResp.corr,expTrials.thisRepN,expTrials.thisTrialN,expTrials.thisN,expTrials.thisIndex,expTrials.ran,audioFile,beepResp.rt,end_resp.keys,end_resp.rt
0,0,0,0,1,40729,2021-04-28_21h18.01.707,judgeSpeechMusic_20210407_logNormShiftAmp,2020.1.2,MacIntel,60,,,,,,,,,,,,,,,,,,,,,,,,,,,,,,,,,,,,,,
,,,,,40729,2021-04-28_21h18.01.707,judgeSpeechMusic_20210407_logNormShiftAmp,2020.1.2,MacIntel,60,2,1,0.582,0,0,0,3,1,stimuli/screen_origin.wav,stimuli/screen_quiet.wav,stimuli/screen_antiphase.wav,2,,,,,,,,,,,,,,,,,,,,,,,,,,
,,,,,40729,2021-04-28_21h18.01.707,judgeSpeechMusic_20210407_logNormShiftAmp,2020.1.2,MacIntel,60,3,1,0.588,0,1,1,2,1,stimuli/screen_origin.wav,stimuli/screen_antiphase.wav,stimuli/screen_quiet.wav,3,,,,,,,,,,,,,,,,,,,,,,,,,,
,,,,,40729,2021-04-28_21h18.01.707,judgeSpeechMusic_20210407_logNormShiftAmp,2020.1.2,MacIntel,60,3,1,0.778,0,2,2,0,1,stimuli/screen_antiphase.wav,stimuli/screen_origin.wav,stimuli/screen_quiet.wav,3,,,,,,,,,,,,,,,,,,,,,,,,,,
,,,,,40729,2021-04-28_21h18.01.707,judgeSpeechMusic_20210407_logNormShiftAmp,2020.1.2,MacIntel,60,2,1,1.207,0,3,3,1,1,stimuli/screen_antiphase.wav,stimuli/screen_quiet.wav,stimuli/screen_origin.wav,2,,,,,,,,,,,,,,,,,,,,,,,,,,
,,,,,40729,2021-04-28_21h18.01.707,judgeSpeechMusic_20210407_logNormShiftAmp,2020.1.2,MacIntel,60,1,1,0.809,0,4,4,5,1,stimuli/screen_quiet.wav,stimuli/screen_origin.wav,stimuli/screen_antiphase.wav,1,,,,,,,,,,,,,,,,,,,,,,,,,,
,,,,,40729,2021-04-28_21h18.01.707,judgeSpeechMusic_20210407_logNormShiftAmp,2020.1.2,MacIntel,60,1,1,0.6,0,5,5,4,1,stimuli/screen_quiet.wav,stimuli/screen_antiphase.wav,stimuli/screen_origin.wav,1,,,,,,,,,,,,,,,,,,,,,,,,,,
,,,,,40729,2021-04-28_21h18.01.707,judgeSpeechMusic_20210407_logNormShiftAmp,2020.1.2,MacIntel,60,,,,,,,,,,,,,2,8.676,,0,0,0,0,1,1,stimuli/stim_20210407_power2amp/equal_lnn_AM_training2.7Hz.m4a,,,,,,,,,,,,,,,,
,,,,,40729,2021-04-28_21h18.01.707,judgeSpeechMusic_20210407_logNormShiftAmp,2020.1.2,MacIntel,60,,,,,,,,,,,,,2,6.856,,0,0,1,1,0,1,stimuli/stim_20210407_power2amp/equal_lnn_AM_training1.5Hz.m4a,,,,,,,,,,,,,,,,
,,,,,40729,2021-04-28_21h18.01.707,judgeSpeechMusic_20210407_logNormShiftAmp,2020.1.2,MacIntel,60,,,,,,,,,,,,,1,6.442,1,1,0,2,2,2,1,stimuli/stim_20210407_power2amp/equal_lnn_AM_training3.9Hz.m4a,0.925,,,,,,,,,,,,,,,
,,,,,40729,2021-04-28_21h18.01.707,judgeSpeechMusic_20210407_logNormShiftAmp,2020.1.2,MacIntel,60,,,,,,,,,,,,,1,5.978,,0,0,3,3,3,1,stimuli/stim_20210407_power2amp/equal_lnn_AM_training5.1Hz.m4a,,,,,,,,,,,,,,,,
,,,,,40729,2021-04-28_21h18.01.707,judgeSpeechMusic_20210407_logNormShiftAmp,2020.1.2,MacIntel,60,,,,,,,,,,,,,,,,,,,,,,,,space,12.542,1,8.405,,0,0,0,0,16,1,stimuli/stim_20210407_power2amp/equal_lnn_AM1.2Hz_55.m4a,,,
,,,,,40729,2021-04-28_21h18.01.707,judgeSpeechMusic_20210407_logNormShiftAmp,2020.1.2,MacIntel,60,,,,,,,,,,,,,,,,,,,,,,,,,,1,5.909,,0,0,1,1,125,1,stimuli/stim_20210407_power2amp/equal_lnn_AM5.4Hz_10.m4a,,,
,,,,,40729,2021-04-28_21h18.01.707,judgeSpeechMusic_20210407_logNormShiftAmp,2020.1.2,MacIntel,60,,,,,,,,,,,,,,,,,,,,,,,,,,2,5.892,,0,0,2,2,49,1,stimuli/stim_20210407_power2amp/equal_lnn_AM2.4Hz_50.m4a,,,
,,,,,40729,2021-04-28_21h18.01.707,judgeSpeechMusic_20210407_logNormShiftAmp,2020.1.2,MacIntel,60,,,,,,,,,,,,,,,,,,,,,,,,,,2,5.962,,0,0,3,3,88,1,stimuli/stim_20210407_power2amp/equal_lnn_AM3.6Hz_52.m4a,,,
,,,,,40729,2021-04-28_21h18.01.707,judgeSpeechMusic_20210407_logNormShiftAmp,2020.1.2,MacIntel,60,,,,,,,,,,,,,,,,,,,,,,,,,,1,7.591,,0,0,4,4,53,1,stimuli/stim_20210407_power2amp/equal_lnn_AM2.4Hz_21.m4a,,,
,,,,,40729,2021-04-28_21h18.01.707,judgeSpeechMusic_20210407_logNormShiftAmp,2020.1.2,MacIntel,60,,,,,,,,,,,,,,,,,,,,,,,,,,1,5.794,,0,0,5,5,146,1,stimuli/stim_20210407_power2amp/equal_lnn_AM6Hz_80.m4a,,,
,,,,,40729,2021-04-28_21h18.01.707,judgeSpeechMusic_20210407_logNormShiftAmp,2020.1.2,MacIntel,60,,,,,,,,,,,,,,,,,,,,,,,,,,1,5.776,,0,0,6,6,116,1,stimuli/stim_20210407_power2amp/equal_lnn_AM4.8Hz_16.m4a,,,
,,,,,40729,2021-04-28_21h18.01.707,judgeSpeechMusic_20210407_logNormShiftAmp,2020.1.2,MacIntel,60,,,,,,,,,,,,,,,,,,,,,,,,,,2,6.674,,0,0,7,7,23,1,stimuli/stim_20210407_power2amp/equal_lnn_AM1.2Hz_41.m4a,,,
,,,,,40729,2021-04-28_21h18.01.707,judgeSpeechMusic_20210407_logNormShiftAmp,2020.1.2,MacIntel,60,,,,,,,,,,,,,,,,,,,,,,,,,,1,7.791,,0,0,8,8,136,1,stimuli/stim_20210407_power2amp/equal_lnn_AM6Hz_40.m4a,,,
,,,,,40729,2021-04-28_21h18.01.707,judgeSpeechMusic_20210407_logNormShiftAmp,2020.1.2,MacIntel,60,,,,,,,,,,,,,,,,,,,,,,,,,,1,7.06,,0,0,9,9,75,1,stimuli/stim_20210407_power2amp/equal_lnn_AM3.6Hz_12.m4a,,,
,,,,,40729,2021-04-28_21h18.01.707,judgeSpeechMusic_20210407_logNormShiftAmp,2020.1.2,MacIntel,60,,,,,,,,,,,,,,,,,,,,,,,,,,1,5.96,,0,0,10,10,145,1,stimuli/stim_20210407_power2amp/equal_lnn_AM6Hz_70.m4a,,,
,,,,,40729,2021-04-28_21h18.01.707,judgeSpeechMusic_20210407_logNormShiftAmp,2020.1.2,MacIntel,60,,,,,,,,,,,,,,,,,,,,,,,,,,1,6.88,,0,0,11,11,79,1,stimuli/stim_20210407_power2amp/equal_lnn_AM3.6Hz_14.m4a,,,
,,,,,40729,2021-04-28_21h18.01.707,judgeSpeechMusic_20210407_logNormShiftAmp,2020.1.2,MacIntel,60,,,,,,,,,,,,,,,,,,,,,,,,,,2,6.775,,0,0,12,12,35,1,stimuli/stim_20210407_power2amp/equal_lnn_AM1.8Hz_37.m4a,,,
,,,,,40729,2021-04-28_21h18.01.707,judgeSpeechMusic_20210407_logNormShiftAmp,2020.1.2,MacIntel,60,,,,,,,,,,,,,,,,,,,,,,,,,,1,6.692,,0,0,13,13,80,1,stimuli/stim_20210407_power2amp/equal_lnn_AM3.6Hz_87.m4a,,,
,,,,,40729,2021-04-28_21h18.01.707,judgeSpeechMusic_20210407_logNormShiftAmp,2020.1.2,MacIntel,60,,,,,,,,,,,,,,,,,,,,,,,,,,1,7.739,,0,0,14,14,1,1,stimuli/stim_20210407_power2amp/equal_lnn_AM0.6Hz_19.m4a,,,
,,,,,40729,2021-04-28_21h18.01.707,judgeSpeechMusic_20210407_logNormShiftAmp,2020.1.2,MacIntel,60,,,,,,,,,,,,,,,,,,,,,,,,,,2,7.908,,0,0,15,15,122,1,stimuli/stim_20210407_power2amp/equal_lnn_AM5.4Hz_46.m4a,,,
,,,,,40729,2021-04-28_21h18.01.707,judgeSpeechMusic_20210407_logNormShiftAmp,2020.1.2,MacIntel,60,,,,,,,,,,,,,,,,,,,,,,,,,,1,7.875,,0,0,16,16,37,1,stimuli/stim_20210407_power2amp/equal_lnn_AM1.8Hz_57.m4a,,,
,,,,,40729,2021-04-28_21h18.01.707,judgeSpeechMusic_20210407_logNormShiftAmp,2020.1.2,MacIntel,60,,,,,,,,,,,,,,,,,,,,,,,,,,2,5.674,,0,0,17,17,69,1,stimuli/stim_20210407_power2amp/equal_lnn_AM3Hz_63.m4a,,,
,,,,,40729,2021-04-28_21h18.01.707,judgeSpeechMusic_20210407_logNormShiftAmp,2020.1.2,MacIntel,60,,,,,,,,,,,,,,,,,,,,,,,,,,2,6.075,,0,0,18,18,45,1,stimuli/stim_20210407_power2amp/equal_lnn_AM2.4Hz_49.m4a,,,
,,,,,40729,2021-04-28_21h18.01.707,judgeSpeechMusic_20210407_logNormShiftAmp,2020.1.2,MacIntel,60,,,,,,,,,,,,,,,,,,,,,,,,,,1,6.373,,0,0,19,19,104,1,stimuli/stim_20210407_power2amp/equal_lnn_AM4.2Hz_91.m4a,,,
,,,,,40729,2021-04-28_21h18.01.707,judgeSpeechMusic_20210407_logNormShiftAmp,2020.1.2,MacIntel,60,,,,,,,,,,,,,,,,,,,,,,,,,,2,6.814,,0,0,20,20,78,1,stimuli/stim_20210407_power2amp/equal_lnn_AM3.6Hz_88.m4a,,,
,,,,,40729,2021-04-28_21h18.01.707,judgeSpeechMusic_20210407_logNormShiftAmp,2020.1.2,MacIntel,60,,,,,,,,,,,,,,,,,,,,,,,,,,1,7.695,,0,0,21,21,43,1,stimuli/stim_20210407_power2amp/equal_lnn_AM1.8Hz_65.m4a,,,
,,,,,40729,2021-04-28_21h18.01.707,judgeSpeechMusic_20210407_logNormShiftAmp,2020.1.2,MacIntel,60,,,,,,,,,,,,,,,,,,,,,,,,,,2,7.877,,0,0,22,22,115,1,stimuli/stim_20210407_power2amp/equal_lnn_AM4.8Hz_1.m4a,,,
,,,,,40729,2021-04-28_21h18.01.707,judgeSpeechMusic_20210407_logNormShiftAmp,2020.1.2,MacIntel,60,,,,,,,,,,,,,,,,,,,,,,,,,,2,6.006,,0,0,23,23,34,1,stimuli/stim_20210407_power2amp/equal_lnn_AM1.8Hz_84.m4a,,,
,,,,,40729,2021-04-28_21h18.01.707,judgeSpeechMusic_20210407_logNormShiftAmp,2020.1.2,MacIntel,60,,,,,,,,,,,,,,,,,,,,,,,,,,1,7.807,,0,0,24,24,40,1,stimuli/stim_20210407_power2amp/equal_lnn_AM1.8Hz_72.m4a,,,
,,,,,40729,2021-04-28_21h18.01.707,judgeSpeechMusic_20210407_logNormShiftAmp,2020.1.2,MacIntel,60,,,,,,,,,,,,,,,,,,,,,,,,,,2,5.689,,0,0,25,25,110,1,stimuli/stim_20210407_power2amp/equal_lnn_AM4.8Hz_71.m4a,,,
,,,,,40729,2021-04-28_21h18.01.707,judgeSpeechMusic_20210407_logNormShiftAmp,2020.1.2,MacIntel,60,,,,,,,,,,,,,,,,,,,,,,,,,,1,5.825,,0,0,26,26,134,1,stimuli/stim_20210407_power2amp/equal_lnn_AM5.4Hz_93.m4a,,,
,,,,,40729,2021-04-28_21h18.01.707,judgeSpeechMusic_20210407_logNormShiftAmp,2020.1.2,MacIntel,60,,,,,,,,,,,,,,,,,,,,,,,,,,1,5.674,,0,0,27,27,142,1,stimuli/stim_20210407_power2amp/equal_lnn_AM6Hz_18.m4a,,,
,,,,,40729,2021-04-28_21h18.01.707,judgeSpeechMusic_20210407_logNormShiftAmp,2020.1.2,MacIntel,60,,,,,,,,,,,,,,,,,,,,,,,,,,2,5.726,,0,0,28,28,42,1,stimuli/stim_20210407_power2amp/equal_lnn_AM1.8Hz_63.m4a,,,
,,,,,40729,2021-04-28_21h18.01.707,judgeSpeechMusic_20210407_logNormShiftAmp,2020.1.2,MacIntel,60,,,,,,,,,,,,,,,,,,,,,,,,,,2,6.141,,0,0,29,29,54,1,stimuli/stim_20210407_power2amp/equal_lnn_AM2.4Hz_20.m4a,,,
,,,,,40729,2021-04-28_21h18.01.707,judgeSpeechMusic_20210407_logNormShiftAmp,2020.1.2,MacIntel,60,,,,,,,,,,,,,,,,,,,,,,,,,,1,6.825,,0,0,30,30,66,1,stimuli/stim_20210407_power2amp/equal_lnn_AM3Hz_28.m4a,,,
,,,,,40729,2021-04-28_21h18.01.707,judgeSpeechMusic_20210407_logNormShiftAmp,2020.1.2,MacIntel,60,,,,,,,,,,,,,,,,,,,,,,,,,,2,7.175,2,1,0,31,31,19,1,stimuli/stim_20210407_power2amp/equal_lnn_AM1.2Hz_20.m4a,0.257,,
,,,,,40729,2021-04-28_21h18.01.707,judgeSpeechMusic_20210407_logNormShiftAmp,2020.1.2,MacIntel,60,,,,,,,,,,,,,,,,,,,,,,,,,,1,6.777,,0,0,32,32,105,1,stimuli/stim_20210407_power2amp/equal_lnn_AM4.8Hz_39.m4a,,,
,,,,,40729,2021-04-28_21h18.01.707,judgeSpeechMusic_20210407_logNormShiftAmp,2020.1.2,MacIntel,60,,,,,,,,,,,,,,,,,,,,,,,,,,1,11.046,,0,0,33,33,94,1,stimuli/stim_20210407_power2amp/equal_lnn_AM4.2Hz_34.m4a,,,
,,,,,40729,2021-04-28_21h18.01.707,judgeSpeechMusic_20210407_logNormShiftAmp,2020.1.2,MacIntel,60,,,,,,,,,,,,,,,,,,,,,,,,,,1,9.73,,0,0,34,34,112,1,stimuli/stim_20210407_power2amp/equal_lnn_AM4.8Hz_36.m4a,,,
,,,,,40729,2021-04-28_21h18.01.707,judgeSpeechMusic_20210407_logNormShiftAmp,2020.1.2,MacIntel,60,,,,,,,,,,,,,,,,,,,,,,,,,,1,7.544,,0,0,35,35,25,1,stimuli/stim_20210407_power2amp/equal_lnn_AM1.2Hz_38.m4a,,,
,,,,,40729,2021-04-28_21h18.01.707,judgeSpeechMusic_20210407_logNormShiftAmp,2020.1.2,MacIntel,60,,,,,,,,,,,,,,,,,,,,,,,,,,1,7.08,,0,0,36,36,124,1,stimuli/stim_20210407_power2amp/equal_lnn_AM5.4Hz_18.m4a,,,
,,,,,40729,2021-04-28_21h18.01.707,judgeSpeechMusic_20210407_logNormShiftAmp,2020.1.2,MacIntel,60,,,,,,,,,,,,,,,,,,,,,,,,,,1,6.608,,0,0,37,37,129,1,stimuli/stim_20210407_power2amp/equal_lnn_AM5.4Hz_11.m4a,,,
,,,,,40729,2021-04-28_21h18.01.707,judgeSpeechMusic_20210407_logNormShiftAmp,2020.1.2,MacIntel,60,,,,,,,,,,,,,,,,,,,,,,,,,,1,7.309,,0,0,38,38,46,1,stimuli/stim_20210407_power2amp/equal_lnn_AM2.4Hz_30.m4a,,,
,,,,,40729,2021-04-28_21h18.01.707,judgeSpeechMusic_20210407_logNormShiftAmp,2020.1.2,MacIntel,60,,,,,,,,,,,,,,,,,,,,,,,,,,1,7.53,,0,0,39,39,64,1,stimuli/stim_20210407_power2amp/equal_lnn_AM3Hz_81.m4a,,,
,,,,,40729,2021-04-28_21h18.01.707,judgeSpeechMusic_20210407_logNormShiftAmp,2020.1.2,MacIntel,60,,,,,,,,,,,,,,,,,,,,,,,,,,2,5.927,,0,0,40,40,32,1,stimuli/stim_20210407_power2amp/equal_lnn_AM1.8Hz_78.m4a,,,
,,,,,40729,2021-04-28_21h18.01.707,judgeSpeechMusic_20210407_logNormShiftAmp,2020.1.2,MacIntel,60,,,,,,,,,,,,,,,,,,,,,,,,,,2,6.609,,0,0,41,41,119,1,stimuli/stim_20210407_power2amp/equal_lnn_AM4.8Hz_29.m4a,,,
,,,,,40729,2021-04-28_21h18.01.707,judgeSpeechMusic_20210407_logNormShiftAmp,2020.1.2,MacIntel,60,,,,,,,,,,,,,,,,,,,,,,,,,,2,6.362,,0,0,42,42,9,1,stimuli/stim_20210407_power2amp/equal_lnn_AM0.6Hz_8.m4a,,,
,,,,,40729,2021-04-28_21h18.01.707,judgeSpeechMusic_20210407_logNormShiftAmp,2020.1.2,MacIntel,60,,,,,,,,,,,,,,,,,,,,,,,,,,1,6.861,,0,0,43,43,36,1,stimuli/stim_20210407_power2amp/equal_lnn_AM1.8Hz_36.m4a,,,
,,,,,40729,2021-04-28_21h18.01.707,judgeSpeechMusic_20210407_logNormShiftAmp,2020.1.2,MacIntel,60,,,,,,,,,,,,,,,,,,,,,,,,,,1,9.775,,0,0,44,44,92,1,stimuli/stim_20210407_power2amp/equal_lnn_AM4.2Hz_88.m4a,,,
,,,,,40729,2021-04-28_21h18.01.707,judgeSpeechMusic_20210407_logNormShiftAmp,2020.1.2,MacIntel,60,,,,,,,,,,,,,,,,,,,,,,,,,,1,7.441,,0,0,45,45,51,1,stimuli/stim_20210407_power2amp/equal_lnn_AM2.4Hz_25.m4a,,,
,,,,,40729,2021-04-28_21h18.01.707,judgeSpeechMusic_20210407_logNormShiftAmp,2020.1.2,MacIntel,60,,,,,,,,,,,,,,,,,,,,,,,,,,1,5.757,,0,0,46,46,135,1,stimuli/stim_20210407_power2amp/equal_lnn_AM6Hz_72.m4a,,,
,,,,,40729,2021-04-28_21h18.01.707,judgeSpeechMusic_20210407_logNormShiftAmp,2020.1.2,MacIntel,60,,,,,,,,,,,,,,,,,,,,,,,,,,1,6.211,,0,0,47,47,98,1,stimuli/stim_20210407_power2amp/equal_lnn_AM4.2Hz_9.m4a,,,
,,,,,40729,2021-04-28_21h18.01.707,judgeSpeechMusic_20210407_logNormShiftAmp,2020.1.2,MacIntel,60,,,,,,,,,,,,,,,,,,,,,,,,,,1,7.229,,0,0,48,48,29,1,stimuli/stim_20210407_power2amp/equal_lnn_AM1.2Hz_88.m4a,,,
,,,,,40729,2021-04-28_21h18.01.707,judgeSpeechMusic_20210407_logNormShiftAmp,2020.1.2,MacIntel,60,,,,,,,,,,,,,,,,,,,,,,,,,,2,6.34,,0,0,49,49,15,1,stimuli/stim_20210407_power2amp/equal_lnn_AM1.2Hz_95.m4a,,,
,,,,,40729,2021-04-28_21h18.01.707,judgeSpeechMusic_20210407_logNormShiftAmp,2020.1.2,MacIntel,60,,,,,,,,,,,,,,,,,,,,,,,,,,1,6.279,,0,0,50,50,111,1,stimuli/stim_20210407_power2amp/equal_lnn_AM4.8Hz_63.m4a,,,
,,,,,40729,2021-04-28_21h18.01.707,judgeSpeechMusic_20210407_logNormShiftAmp,2020.1.2,MacIntel,60,,,,,,,,,,,,,,,,,,,,,,,,,,1,5.979,1,1,0,51,51,5,1,stimuli/stim_20210407_power2amp/equal_lnn_AM0.6Hz_6.m4a,4.299,,
,,,,,40729,2021-04-28_21h18.01.707,judgeSpeechMusic_20210407_logNormShiftAmp,2020.1.2,MacIntel,60,,,,,,,,,,,,,,,,,,,,,,,,,,1,6.864,,0,0,52,52,114,1,stimuli/stim_20210407_power2amp/equal_lnn_AM4.8Hz_37.m4a,,,
,,,,,40729,2021-04-28_21h18.01.707,judgeSpeechMusic_20210407_logNormShiftAmp,2020.1.2,MacIntel,60,,,,,,,,,,,,,,,,,,,,,,,,,,2,6.51,,0,0,53,53,20,1,stimuli/stim_20210407_power2amp/equal_lnn_AM1.2Hz_21.m4a,,,
,,,,,40729,2021-04-28_21h18.01.707,judgeSpeechMusic_20210407_logNormShiftAmp,2020.1.2,MacIntel,60,,,,,,,,,,,,,,,,,,,,,,,,,,2,5.891,,0,0,54,54,96,1,stimuli/stim_20210407_power2amp/equal_lnn_AM4.2Hz_27.m4a,,,
,,,,,40729,2021-04-28_21h18.01.707,judgeSpeechMusic_20210407_logNormShiftAmp,2020.1.2,MacIntel,60,,,,,,,,,,,,,,,,,,,,,,,,,,1,7.797,,0,0,55,55,65,1,stimuli/stim_20210407_power2amp/equal_lnn_AM3Hz_64.m4a,,,
,,,,,40729,2021-04-28_21h18.01.707,judgeSpeechMusic_20210407_logNormShiftAmp,2020.1.2,MacIntel,60,,,,,,,,,,,,,,,,,,,,,,,,,,1,5.894,,0,0,56,56,97,1,stimuli/stim_20210407_power2amp/equal_lnn_AM4.2Hz_13.m4a,,,
,,,,,40729,2021-04-28_21h18.01.707,judgeSpeechMusic_20210407_logNormShiftAmp,2020.1.2,MacIntel,60,,,,,,,,,,,,,,,,,,,,,,,,,,1,6.343,,0,0,57,57,76,1,stimuli/stim_20210407_power2amp/equal_lnn_AM3.6Hz_66.m4a,,,
,,,,,40729,2021-04-28_21h18.01.707,judgeSpeechMusic_20210407_logNormShiftAmp,2020.1.2,MacIntel,60,,,,,,,,,,,,,,,,,,,,,,,,,,2,8.292,,0,0,58,58,89,1,stimuli/stim_20210407_power2amp/equal_lnn_AM3.6Hz_30.m4a,,,
,,,,,40729,2021-04-28_21h18.01.707,judgeSpeechMusic_20210407_logNormShiftAmp,2020.1.2,MacIntel,60,,,,,,,,,,,,,,,,,,,,,,,,,,1,6.941,,0,0,59,59,58,1,stimuli/stim_20210407_power2amp/equal_lnn_AM2.4Hz_48.m4a,,,
,,,,,40729,2021-04-28_21h18.01.707,judgeSpeechMusic_20210407_logNormShiftAmp,2020.1.2,MacIntel,60,,,,,,,,,,,,,,,,,,,,,,,,,,1,5.895,,0,0,60,60,131,1,stimuli/stim_20210407_power2amp/equal_lnn_AM5.4Hz_90.m4a,,,
,,,,,40729,2021-04-28_21h18.01.707,judgeSpeechMusic_20210407_logNormShiftAmp,2020.1.2,MacIntel,60,,,,,,,,,,,,,,,,,,,,,,,,,,2,7.126,,0,0,61,61,68,1,stimuli/stim_20210407_power2amp/equal_lnn_AM3Hz_13.m4a,,,
,,,,,40729,2021-04-28_21h18.01.707,judgeSpeechMusic_20210407_logNormShiftAmp,2020.1.2,MacIntel,60,,,,,,,,,,,,,,,,,,,,,,,,,,1,6.062,,0,0,62,62,132,1,stimuli/stim_20210407_power2amp/equal_lnn_AM5.4Hz_49.m4a,,,
,,,,,40729,2021-04-28_21h18.01.707,judgeSpeechMusic_20210407_logNormShiftAmp,2020.1.2,MacIntel,60,,,,,,,,,,,,,,,,,,,,,,,,,,1,6.173,,0,0,63,63,50,1,stimuli/stim_20210407_power2amp/equal_lnn_AM2.4Hz_38.m4a,,,
,,,,,40729,2021-04-28_21h18.01.707,judgeSpeechMusic_20210407_logNormShiftAmp,2020.1.2,MacIntel,60,,,,,,,,,,,,,,,,,,,,,,,,,,2,9.71,,0,0,64,64,93,1,stimuli/stim_20210407_power2amp/equal_lnn_AM4.2Hz_72.m4a,,,
,,,,,40729,2021-04-28_21h18.01.707,judgeSpeechMusic_20210407_logNormShiftAmp,2020.1.2,MacIntel,60,,,,,,,,,,,,,,,,,,,,,,,,,,1,6.726,,0,0,65,65,11,1,stimuli/stim_20210407_power2amp/equal_lnn_AM0.6Hz_29.m4a,,,
,,,,,40729,2021-04-28_21h18.01.707,judgeSpeechMusic_20210407_logNormShiftAmp,2020.1.2,MacIntel,60,,,,,,,,,,,,,,,,,,,,,,,,,,2,5.694,,0,0,66,66,83,1,stimuli/stim_20210407_power2amp/equal_lnn_AM3.6Hz_69.m4a,,,
,,,,,40729,2021-04-28_21h18.01.707,judgeSpeechMusic_20210407_logNormShiftAmp,2020.1.2,MacIntel,60,,,,,,,,,,,,,,,,,,,,,,,,,,1,9.389,,0,0,67,67,107,1,stimuli/stim_20210407_power2amp/equal_lnn_AM4.8Hz_13.m4a,,,
,,,,,40729,2021-04-28_21h18.01.707,judgeSpeechMusic_20210407_logNormShiftAmp,2020.1.2,MacIntel,60,,,,,,,,,,,,,,,,,,,,,,,,,,1,5.708,,0,0,68,68,60,1,stimuli/stim_20210407_power2amp/equal_lnn_AM3Hz_40.m4a,,,
,,,,,40729,2021-04-28_21h18.01.707,judgeSpeechMusic_20210407_logNormShiftAmp,2020.1.2,MacIntel,60,,,,,,,,,,,,,,,,,,,,,,,,,,2,5.825,,0,0,69,69,24,1,stimuli/stim_20210407_power2amp/equal_lnn_AM1.2Hz_34.m4a,,,
,,,,,40729,2021-04-28_21h18.01.707,judgeSpeechMusic_20210407_logNormShiftAmp,2020.1.2,MacIntel,60,,,,,,,,,,,,,,,,,,,,,,,,,,1,5.694,,0,0,70,70,106,1,stimuli/stim_20210407_power2amp/equal_lnn_AM4.8Hz_31.m4a,,,
,,,,,40729,2021-04-28_21h18.01.707,judgeSpeechMusic_20210407_logNormShiftAmp,2020.1.2,MacIntel,60,,,,,,,,,,,,,,,,,,,,,,,,,,2,7.14,3,1,0,71,71,2,1,stimuli/stim_20210407_power2amp/equal_lnn_AM0.6Hz_7.m4a,0.78,,
,,,,,40729,2021-04-28_21h18.01.707,judgeSpeechMusic_20210407_logNormShiftAmp,2020.1.2,MacIntel,60,,,,,,,,,,,,,,,,,,,,,,,,,,2,6.244,,0,0,72,72,38,1,stimuli/stim_20210407_power2amp/equal_lnn_AM1.8Hz_87.m4a,,,
,,,,,40729,2021-04-28_21h18.01.707,judgeSpeechMusic_20210407_logNormShiftAmp,2020.1.2,MacIntel,60,,,,,,,,,,,,,,,,,,,,,,,,,,1,7.41,,0,0,73,73,123,1,stimuli/stim_20210407_power2amp/equal_lnn_AM5.4Hz_13.m4a,,,
,,,,,40729,2021-04-28_21h18.01.707,judgeSpeechMusic_20210407_logNormShiftAmp,2020.1.2,MacIntel,60,,,,,,,,,,,,,,,,,,,,,,,,,,1,5.777,,0,0,74,74,61,1,stimuli/stim_20210407_power2amp/equal_lnn_AM3Hz_71.m4a,,,
,,,,,40729,2021-04-28_21h18.01.707,judgeSpeechMusic_20210407_logNormShiftAmp,2020.1.2,MacIntel,60,,,,,,,,,,,,,,,,,,,,,,,,,,2,6.293,,0,0,75,75,52,1,stimuli/stim_20210407_power2amp/equal_lnn_AM2.4Hz_39.m4a,,,
,,,,,40729,2021-04-28_21h18.01.707,judgeSpeechMusic_20210407_logNormShiftAmp,2020.1.2,MacIntel,60,,,,,,,,,,,,,,,,,,,,,,,,,,2,5.625,,0,0,76,76,17,1,stimuli/stim_20210407_power2amp/equal_lnn_AM1.2Hz_15.m4a,,,
,,,,,40729,2021-04-28_21h18.01.707,judgeSpeechMusic_20210407_logNormShiftAmp,2020.1.2,MacIntel,60,,,,,,,,,,,,,,,,,,,,,,,,,,1,7.428,,0,0,77,77,100,1,stimuli/stim_20210407_power2amp/equal_lnn_AM4.2Hz_68.m4a,,,
,,,,,40729,2021-04-28_21h18.01.707,judgeSpeechMusic_20210407_logNormShiftAmp,2020.1.2,MacIntel,60,,,,,,,,,,,,,,,,,,,,,,,,,,2,7.208,,0,0,78,78,0,1,stimuli/stim_20210407_power2amp/equal_lnn_AM0.6Hz_45.m4a,,,
,,,,,40729,2021-04-28_21h18.01.707,judgeSpeechMusic_20210407_logNormShiftAmp,2020.1.2,MacIntel,60,,,,,,,,,,,,,,,,,,,,,,,,,,1,6.057,,0,0,79,79,57,1,stimuli/stim_20210407_power2amp/equal_lnn_AM2.4Hz_53.m4a,,,
,,,,,40729,2021-04-28_21h18.01.707,judgeSpeechMusic_20210407_logNormShiftAmp,2020.1.2,MacIntel,60,,,,,,,,,,,,,,,,,,,,,,,,,,1,6.346,,0,0,80,80,56,1,stimuli/stim_20210407_power2amp/equal_lnn_AM2.4Hz_81.m4a,,,
,,,,,40729,2021-04-28_21h18.01.707,judgeSpeechMusic_20210407_logNormShiftAmp,2020.1.2,MacIntel,60,,,,,,,,,,,,,,,,,,,,,,,,,,1,5.978,,0,0,81,81,102,1,stimuli/stim_20210407_power2amp/equal_lnn_AM4.2Hz_81.m4a,,,
,,,,,40729,2021-04-28_21h18.01.707,judgeSpeechMusic_20210407_logNormShiftAmp,2020.1.2,MacIntel,60,,,,,,,,,,,,,,,,,,,,,,,,,,1,5.627,,0,0,82,82,95,1,stimuli/stim_20210407_power2amp/equal_lnn_AM4.2Hz_96.m4a,,,
,,,,,40729,2021-04-28_21h18.01.707,judgeSpeechMusic_20210407_logNormShiftAmp,2020.1.2,MacIntel,60,,,,,,,,,,,,,,,,,,,,,,,,,,2,6.259,,0,0,83,83,117,1,stimuli/stim_20210407_power2amp/equal_lnn_AM4.8Hz_96.m4a,,,
,,,,,40729,2021-04-28_21h18.01.707,judgeSpeechMusic_20210407_logNormShiftAmp,2020.1.2,MacIntel,60,,,,,,,,,,,,,,,,,,,,,,,,,,1,6.277,,0,0,84,84,74,1,stimuli/stim_20210407_power2amp/equal_lnn_AM3Hz_22.m4a,,,
,,,,,40729,2021-04-28_21h18.01.707,judgeSpeechMusic_20210407_logNormShiftAmp,2020.1.2,MacIntel,60,,,,,,,,,,,,,,,,,,,,,,,,,,1,6.043,,0,0,85,85,99,1,stimuli/stim_20210407_power2amp/equal_lnn_AM4.2Hz_80.m4a,,,
,,,,,40729,2021-04-28_21h18.01.707,judgeSpeechMusic_20210407_logNormShiftAmp,2020.1.2,MacIntel,60,,,,,,,,,,,,,,,,,,,,,,,,,,2,6.343,,0,0,86,86,41,1,stimuli/stim_20210407_power2amp/equal_lnn_AM1.8Hz_91.m4a,,,
,,,,,40729,2021-04-28_21h18.01.707,judgeSpeechMusic_20210407_logNormShiftAmp,2020.1.2,MacIntel,60,,,,,,,,,,,,,,,,,,,,,,,,,,1,6.327,,0,0,87,87,109,1,stimuli/stim_20210407_power2amp/equal_lnn_AM4.8Hz_2.m4a,,,
,,,,,40729,2021-04-28_21h18.01.707,judgeSpeechMusic_20210407_logNormShiftAmp,2020.1.2,MacIntel,60,,,,,,,,,,,,,,,,,,,,,,,,,,2,5.924,,0,0,88,88,62,1,stimuli/stim_20210407_power2amp/equal_lnn_AM3Hz_1.m4a,,,
,,,,,40729,2021-04-28_21h18.01.707,judgeSpeechMusic_20210407_logNormShiftAmp,2020.1.2,MacIntel,60,,,,,,,,,,,,,,,,,,,,,,,,,,1,6.491,,0,0,89,89,6,1,stimuli/stim_20210407_power2amp/equal_lnn_AM0.6Hz_84.m4a,,,
,,,,,40729,2021-04-28_21h18.01.707,judgeSpeechMusic_20210407_logNormShiftAmp,2020.1.2,MacIntel,60,,,,,,,,,,,,,,,,,,,,,,,,,,1,6.427,,0,0,90,90,28,1,stimuli/stim_20210407_power2amp/equal_lnn_AM1.2Hz_16.m4a,,,
,,,,,40729,2021-04-28_21h18.01.707,judgeSpeechMusic_20210407_logNormShiftAmp,2020.1.2,MacIntel,60,,,,,,,,,,,,,,,,,,,,,,,,,,2,5.793,,0,0,91,91,63,1,stimuli/stim_20210407_power2amp/equal_lnn_AM3Hz_73.m4a,,,
,,,,,40729,2021-04-28_21h18.01.707,judgeSpeechMusic_20210407_logNormShiftAmp,2020.1.2,MacIntel,60,,,,,,,,,,,,,,,,,,,,,,,,,,1,5.624,,0,0,92,92,144,1,stimuli/stim_20210407_power2amp/equal_lnn_AM6Hz_24.m4a,,,
,,,,,40729,2021-04-28_21h18.01.707,judgeSpeechMusic_20210407_logNormShiftAmp,2020.1.2,MacIntel,60,,,,,,,,,,,,,,,,,,,,,,,,,,1,6.209,,0,0,93,93,101,1,stimuli/stim_20210407_power2amp/equal_lnn_AM4.2Hz_21.m4a,,,
,,,,,40729,2021-04-28_21h18.01.707,judgeSpeechMusic_20210407_logNormShiftAmp,2020.1.2,MacIntel,60,,,,,,,,,,,,,,,,,,,,,,,,,,2,6.625,,0,0,94,94,18,1,stimuli/stim_20210407_power2amp/equal_lnn_AM1.2Hz_62.m4a,,,
,,,,,40729,2021-04-28_21h18.01.707,judgeSpeechMusic_20210407_logNormShiftAmp,2020.1.2,MacIntel,60,,,,,,,,,,,,,,,,,,,,,,,,,,1,6.898,,0,0,95,95,137,1,stimuli/stim_20210407_power2amp/equal_lnn_AM6Hz_20.m4a,,,
,,,,,40729,2021-04-28_21h18.01.707,judgeSpeechMusic_20210407_logNormShiftAmp,2020.1.2,MacIntel,60,,,,,,,,,,,,,,,,,,,,,,,,,,1,6.044,4,1,0,96,96,81,1,stimuli/stim_20210407_power2amp/equal_lnn_AM3.6Hz_5.m4a,1.964,,
,,,,,40729,2021-04-28_21h18.01.707,judgeSpeechMusic_20210407_logNormShiftAmp,2020.1.2,MacIntel,60,,,,,,,,,,,,,,,,,,,,,,,,,,1,8.694,,0,0,97,97,48,1,stimuli/stim_20210407_power2amp/equal_lnn_AM2.4Hz_98.m4a,,,
,,,,,40729,2021-04-28_21h18.01.707,judgeSpeechMusic_20210407_logNormShiftAmp,2020.1.2,MacIntel,60,,,,,,,,,,,,,,,,,,,,,,,,,,1,6.923,,0,0,98,98,71,1,stimuli/stim_20210407_power2amp/equal_lnn_AM3Hz_83.m4a,,,
,,,,,40729,2021-04-28_21h18.01.707,judgeSpeechMusic_20210407_logNormShiftAmp,2020.1.2,MacIntel,60,,,,,,,,,,,,,,,,,,,,,,,,,,1,9.026,,0,0,99,99,127,1,stimuli/stim_20210407_power2amp/equal_lnn_AM5.4Hz_68.m4a,,,
,,,,,40729,2021-04-28_21h18.01.707,judgeSpeechMusic_20210407_logNormShiftAmp,2020.1.2,MacIntel,60,,,,,,,,,,,,,,,,,,,,,,,,,,1,5.875,,0,0,100,100,149,1,stimuli/stim_20210407_power2amp/equal_lnn_AM6Hz_39.m4a,,,
,,,,,40729,2021-04-28_21h18.01.707,judgeSpeechMusic_20210407_logNormShiftAmp,2020.1.2,MacIntel,60,,,,,,,,,,,,,,,,,,,,,,,,,,1,6.057,,0,0,101,101,72,1,stimuli/stim_20210407_power2amp/equal_lnn_AM3Hz_5.m4a,,,
,,,,,40729,2021-04-28_21h18.01.707,judgeSpeechMusic_20210407_logNormShiftAmp,2020.1.2,MacIntel,60,,,,,,,,,,,,,,,,,,,,,,,,,,1,5.742,,0,0,102,102,91,1,stimuli/stim_20210407_power2amp/equal_lnn_AM4.2Hz_51.m4a,,,
,,,,,40729,2021-04-28_21h18.01.707,judgeSpeechMusic_20210407_logNormShiftAmp,2020.1.2,MacIntel,60,,,,,,,,,,,,,,,,,,,,,,,,,,2,7.129,,0,0,103,103,86,1,stimuli/stim_20210407_power2amp/equal_lnn_AM3.6Hz_37.m4a,,,
,,,,,40729,2021-04-28_21h18.01.707,judgeSpeechMusic_20210407_logNormShiftAmp,2020.1.2,MacIntel,60,,,,,,,,,,,,,,,,,,,,,,,,,,2,5.228,,0,0,104,104,13,1,stimuli/stim_20210407_power2amp/equal_lnn_AM0.6Hz_97.m4a,,,
,,,,,40729,2021-04-28_21h18.01.707,judgeSpeechMusic_20210407_logNormShiftAmp,2020.1.2,MacIntel,60,,,,,,,,,,,,,,,,,,,,,,,,,,2,6.209,,0,0,105,105,31,1,stimuli/stim_20210407_power2amp/equal_lnn_AM1.8Hz_69.m4a,,,
,,,,,40729,2021-04-28_21h18.01.707,judgeSpeechMusic_20210407_logNormShiftAmp,2020.1.2,MacIntel,60,,,,,,,,,,,,,,,,,,,,,,,,,,2,7.093,,0,0,106,106,133,1,stimuli/stim_20210407_power2amp/equal_lnn_AM5.4Hz_76.m4a,,,
,,,,,40729,2021-04-28_21h18.01.707,judgeSpeechMusic_20210407_logNormShiftAmp,2020.1.2,MacIntel,60,,,,,,,,,,,,,,,,,,,,,,,,,,1,7.427,,0,0,107,107,73,1,stimuli/stim_20210407_power2amp/equal_lnn_AM3Hz_98.m4a,,,
,,,,,40729,2021-04-28_21h18.01.707,judgeSpeechMusic_20210407_logNormShiftAmp,2020.1.2,MacIntel,60,,,,,,,,,,,,,,,,,,,,,,,,,,2,6.761,,0,0,108,108,130,1,stimuli/stim_20210407_power2amp/equal_lnn_AM5.4Hz_34.m4a,,,
,,,,,40729,2021-04-28_21h18.01.707,judgeSpeechMusic_20210407_logNormShiftAmp,2020.1.2,MacIntel,60,,,,,,,,,,,,,,,,,,,,,,,,,,1,7.095,,0,0,109,109,148,1,stimuli/stim_20210407_power2amp/equal_lnn_AM6Hz_13.m4a,,,
,,,,,40729,2021-04-28_21h18.01.707,judgeSpeechMusic_20210407_logNormShiftAmp,2020.1.2,MacIntel,60,,,,,,,,,,,,,,,,,,,,,,,,,,1,6.03,,0,0,110,110,113,1,stimuli/stim_20210407_power2amp/equal_lnn_AM4.8Hz_76.m4a,,,
,,,,,40729,2021-04-28_21h18.01.707,judgeSpeechMusic_20210407_logNormShiftAmp,2020.1.2,MacIntel,60,,,,,,,,,,,,,,,,,,,,,,,,,,1,6.344,,0,0,111,111,27,1,stimuli/stim_20210407_power2amp/equal_lnn_AM1.2Hz_74.m4a,,,
,,,,,40729,2021-04-28_21h18.01.707,judgeSpeechMusic_20210407_logNormShiftAmp,2020.1.2,MacIntel,60,,,,,,,,,,,,,,,,,,,,,,,,,,2,7.01,,0,0,112,112,26,1,stimuli/stim_20210407_power2amp/equal_lnn_AM1.2Hz_63.m4a,,,
,,,,,40729,2021-04-28_21h18.01.707,judgeSpeechMusic_20210407_logNormShiftAmp,2020.1.2,MacIntel,60,,,,,,,,,,,,,,,,,,,,,,,,,,1,14.342,,0,0,113,113,10,1,stimuli/stim_20210407_power2amp/equal_lnn_AM0.6Hz_100.m4a,,,
,,,,,40729,2021-04-28_21h18.01.707,judgeSpeechMusic_20210407_logNormShiftAmp,2020.1.2,MacIntel,60,,,,,,,,,,,,,,,,,,,,,,,,,,1,8.207,,0,0,114,114,47,1,stimuli/stim_20210407_power2amp/equal_lnn_AM2.4Hz_23.m4a,,,
,,,,,40729,2021-04-28_21h18.01.707,judgeSpeechMusic_20210407_logNormShiftAmp,2020.1.2,MacIntel,60,,,,,,,,,,,,,,,,,,,,,,,,,,2,11.592,,0,0,115,115,55,1,stimuli/stim_20210407_power2amp/equal_lnn_AM2.4Hz_45.m4a,,,
,,,,,40729,2021-04-28_21h18.01.707,judgeSpeechMusic_20210407_logNormShiftAmp,2020.1.2,MacIntel,60,,,,,,,,,,,,,,,,,,,,,,,,,,1,14.475,4,1,0,116,116,30,1,stimuli/stim_20210407_power2amp/equal_lnn_AM1.8Hz_58.m4a,0.796,,
,,,,,40729,2021-04-28_21h18.01.707,judgeSpeechMusic_20210407_logNormShiftAmp,2020.1.2,MacIntel,60,,,,,,,,,,,,,,,,,,,,,,,,,,1,8.393,,0,0,117,117,59,1,stimuli/stim_20210407_power2amp/equal_lnn_AM2.4Hz_88.m4a,,,
,,,,,40729,2021-04-28_21h18.01.707,judgeSpeechMusic_20210407_logNormShiftAmp,2020.1.2,MacIntel,60,,,,,,,,,,,,,,,,,,,,,,,,,,1,5.93,,0,0,118,118,33,1,stimuli/stim_20210407_power2amp/equal_lnn_AM1.8Hz_55.m4a,,,
,,,,,40729,2021-04-28_21h18.01.707,judgeSpeechMusic_20210407_logNormShiftAmp,2020.1.2,MacIntel,60,,,,,,,,,,,,,,,,,,,,,,,,,,2,9.743,,0,0,119,119,147,1,stimuli/stim_20210407_power2amp/equal_lnn_AM6Hz_73.m4a,,,
,,,,,40729,2021-04-28_21h18.01.707,judgeSpeechMusic_20210407_logNormShiftAmp,2020.1.2,MacIntel,60,,,,,,,,,,,,,,,,,,,,,,,,,,1,7.312,,0,0,120,120,3,1,stimuli/stim_20210407_power2amp/equal_lnn_AM0.6Hz_65.m4a,,,
,,,,,40729,2021-04-28_21h18.01.707,judgeSpeechMusic_20210407_logNormShiftAmp,2020.1.2,MacIntel,60,,,,,,,,,,,,,,,,,,,,,,,,,,1,12.843,,0,0,121,121,139,1,stimuli/stim_20210407_power2amp/equal_lnn_AM6Hz_98.m4a,,,
,,,,,40729,2021-04-28_21h18.01.707,judgeSpeechMusic_20210407_logNormShiftAmp,2020.1.2,MacIntel,60,,,,,,,,,,,,,,,,,,,,,,,,,,1,6.257,,0,0,122,122,8,1,stimuli/stim_20210407_power2amp/equal_lnn_AM0.6Hz_24.m4a,,,
,,,,,40729,2021-04-28_21h18.01.707,judgeSpeechMusic_20210407_logNormShiftAmp,2020.1.2,MacIntel,60,,,,,,,,,,,,,,,,,,,,,,,,,,2,6.309,,0,0,123,123,141,1,stimuli/stim_20210407_power2amp/equal_lnn_AM6Hz_32.m4a,,,
,,,,,40729,2021-04-28_21h18.01.707,judgeSpeechMusic_20210407_logNormShiftAmp,2020.1.2,MacIntel,60,,,,,,,,,,,,,,,,,,,,,,,,,,1,6.593,,0,0,124,124,87,1,stimuli/stim_20210407_power2amp/equal_lnn_AM3.6Hz_33.m4a,,,
,,,,,40729,2021-04-28_21h18.01.707,judgeSpeechMusic_20210407_logNormShiftAmp,2020.1.2,MacIntel,60,,,,,,,,,,,,,,,,,,,,,,,,,,2,8.676,,0,0,125,125,121,1,stimuli/stim_20210407_power2amp/equal_lnn_AM5.4Hz_83.m4a,,,
,,,,,40729,2021-04-28_21h18.01.707,judgeSpeechMusic_20210407_logNormShiftAmp,2020.1.2,MacIntel,60,,,,,,,,,,,,,,,,,,,,,,,,,,2,16.892,,0,0,126,126,77,1,stimuli/stim_20210407_power2amp/equal_lnn_AM3.6Hz_1.m4a,,,
,,,,,40729,2021-04-28_21h18.01.707,judgeSpeechMusic_20210407_logNormShiftAmp,2020.1.2,MacIntel,60,,,,,,,,,,,,,,,,,,,,,,,,,,1,6.761,,0,0,127,127,128,1,stimuli/stim_20210407_power2amp/equal_lnn_AM5.4Hz_6.m4a,,,
,,,,,40729,2021-04-28_21h18.01.707,judgeSpeechMusic_20210407_logNormShiftAmp,2020.1.2,MacIntel,60,,,,,,,,,,,,,,,,,,,,,,,,,,2,9.709,,0,0,128,128,21,1,stimuli/stim_20210407_power2amp/equal_lnn_AM1.2Hz_84.m4a,,,
,,,,,40729,2021-04-28_21h18.01.707,judgeSpeechMusic_20210407_logNormShiftAmp,2020.1.2,MacIntel,60,,,,,,,,,,,,,,,,,,,,,,,,,,1,6.578,,0,0,129,129,4,1,stimuli/stim_20210407_power2amp/equal_lnn_AM0.6Hz_56.m4a,,,
,,,,,40729,2021-04-28_21h18.01.707,judgeSpeechMusic_20210407_logNormShiftAmp,2020.1.2,MacIntel,60,,,,,,,,,,,,,,,,,,,,,,,,,,1,6.643,,0,0,130,130,67,1,stimuli/stim_20210407_power2amp/equal_lnn_AM3Hz_86.m4a,,,
,,,,,40729,2021-04-28_21h18.01.707,judgeSpeechMusic_20210407_logNormShiftAmp,2020.1.2,MacIntel,60,,,,,,,,,,,,,,,,,,,,,,,,,,2,12.443,,0,0,131,131,82,1,stimuli/stim_20210407_power2amp/equal_lnn_AM3.6Hz_76.m4a,,,
,,,,,40729,2021-04-28_21h18.01.707,judgeSpeechMusic_20210407_logNormShiftAmp,2020.1.2,MacIntel,60,,,,,,,,,,,,,,,,,,,,,,,,,,1,5.741,,0,0,132,132,14,1,stimuli/stim_20210407_power2amp/equal_lnn_AM0.6Hz_38.m4a,,,
,,,,,40729,2021-04-28_21h18.01.707,judgeSpeechMusic_20210407_logNormShiftAmp,2020.1.2,MacIntel,60,,,,,,,,,,,,,,,,,,,,,,,,,,1,6.129,,0,0,133,133,85,1,stimuli/stim_20210407_power2amp/equal_lnn_AM3.6Hz_68.m4a,,,
,,,,,40729,2021-04-28_21h18.01.707,judgeSpeechMusic_20210407_logNormShiftAmp,2020.1.2,MacIntel,60,,,,,,,,,,,,,,,,,,,,,,,,,,1,6.778,,0,0,134,134,70,1,stimuli/stim_20210407_power2amp/equal_lnn_AM3Hz_56.m4a,,,
,,,,,40729,2021-04-28_21h18.01.707,judgeSpeechMusic_20210407_logNormShiftAmp,2020.1.2,MacIntel,60,,,,,,,,,,,,,,,,,,,,,,,,,,2,25.643,,0,0,135,135,90,1,stimuli/stim_20210407_power2amp/equal_lnn_AM4.2Hz_74.m4a,,,
,,,,,40729,2021-04-28_21h18.01.707,judgeSpeechMusic_20210407_logNormShiftAmp,2020.1.2,MacIntel,60,,,,,,,,,,,,,,,,,,,,,,,,,,1,6.209,,0,0,136,136,120,1,stimuli/stim_20210407_power2amp/equal_lnn_AM5.4Hz_20.m4a,,,
,,,,,40729,2021-04-28_21h18.01.707,judgeSpeechMusic_20210407_logNormShiftAmp,2020.1.2,MacIntel,60,,,,,,,,,,,,,,,,,,,,,,,,,,2,7.841,,0,0,137,137,44,1,stimuli/stim_20210407_power2amp/equal_lnn_AM1.8Hz_81.m4a,,,
,,,,,40729,2021-04-28_21h18.01.707,judgeSpeechMusic_20210407_logNormShiftAmp,2020.1.2,MacIntel,60,,,,,,,,,,,,,,,,,,,,,,,,,,2,7.308,,0,0,138,138,143,1,stimuli/stim_20210407_power2amp/equal_lnn_AM6Hz_77.m4a,,,
,,,,,40729,2021-04-28_21h18.01.707,judgeSpeechMusic_20210407_logNormShiftAmp,2020.1.2,MacIntel,60,,,,,,,,,,,,,,,,,,,,,,,,,,2,8.226,,0,0,139,139,108,1,stimuli/stim_20210407_power2amp/equal_lnn_AM4.8Hz_7.m4a,,,
,,,,,40729,2021-04-28_21h18.01.707,judgeSpeechMusic_20210407_logNormShiftAmp,2020.1.2,MacIntel,60,,,,,,,,,,,,,,,,,,,,,,,,,,2,6.78,2,1,0,140,140,7,1,stimuli/stim_20210407_power2amp/equal_lnn_AM0.6Hz_5.m4a,6.332,,
,,,,,40729,2021-04-28_21h18.01.707,judgeSpeechMusic_20210407_logNormShiftAmp,2020.1.2,MacIntel,60,,,,,,,,,,,,,,,,,,,,,,,,,,2,6.077,,0,0,141,141,39,1,stimuli/stim_20210407_power2amp/equal_lnn_AM1.8Hz_51.m4a,,,
,,,,,40729,2021-04-28_21h18.01.707,judgeSpeechMusic_20210407_logNormShiftAmp,2020.1.2,MacIntel,60,,,,,,,,,,,,,,,,,,,,,,,,,,2,5.726,,0,0,142,142,140,1,stimuli/stim_20210407_power2amp/equal_lnn_AM6Hz_14.m4a,,,
,,,,,40729,2021-04-28_21h18.01.707,judgeSpeechMusic_20210407_logNormShiftAmp,2020.1.2,MacIntel,60,,,,,,,,,,,,,,,,,,,,,,,,,,1,6.928,,0,0,143,143,22,1,stimuli/stim_20210407_power2amp/equal_lnn_AM1.2Hz_93.m4a,,,
,,,,,40729,2021-04-28_21h18.01.707,judgeSpeechMusic_20210407_logNormShiftAmp,2020.1.2,MacIntel,60,,,,,,,,,,,,,,,,,,,,,,,,,,1,10.474,,0,0,144,144,118,1,stimuli/stim_20210407_power2amp/equal_lnn_AM4.8Hz_44.m4a,,,
,,,,,40729,2021-04-28_21h18.01.707,judgeSpeechMusic_20210407_logNormShiftAmp,2020.1.2,MacIntel,60,,,,,,,,,,,,,,,,,,,,,,,,,,2,20.875,,0,0,145,145,126,1,stimuli/stim_20210407_power2amp/equal_lnn_AM5.4Hz_2.m4a,,,
,,,,,40729,2021-04-28_21h18.01.707,judgeSpeechMusic_20210407_logNormShiftAmp,2020.1.2,MacIntel,60,,,,,,,,,,,,,,,,,,,,,,,,,,1,6.242,,0,0,146,146,84,1,stimuli/stim_20210407_power2amp/equal_lnn_AM3.6Hz_94.m4a,,,
,,,,,40729,2021-04-28_21h18.01.707,judgeSpeechMusic_20210407_logNormShiftAmp,2020.1.2,MacIntel,60,,,,,,,,,,,,,,,,,,,,,,,,,,1,7.176,,0,0,147,147,103,1,stimuli/stim_20210407_power2amp/equal_lnn_AM4.2Hz_10.m4a,,,
,,,,,40729,2021-04-28_21h18.01.707,judgeSpeechMusic_20210407_logNormShiftAmp,2020.1.2,MacIntel,60,,,,,,,,,,,,,,,,,,,,,,,,,,1,5.877,,0,0,148,148,138,1,stimuli/stim_20210407_power2amp/equal_lnn_AM6Hz_52.m4a,,,
,,,,,40729,2021-04-28_21h18.01.707,judgeSpeechMusic_20210407_logNormShiftAmp,2020.1.2,MacIntel,60,,,,,,,,,,,,,,,,,,,,,,,,,,1,6.68,,0,0,149,149,12,1,stimuli/stim_20210407_power2amp/equal_lnn_AM0.6Hz_72.m4a,,,
,,,,,40729,2021-04-28_21h18.01.707,judgeSpeechMusic_20210407_logNormShiftAmp,2020.1.2,MacIntel,60,,,,,,,,,,,,,,,,,,,,,,,,,,1,6.94,,0,1,0,150,112,1,stimuli/stim_20210407_power2amp/equal_lnn_AM4.8Hz_36.m4a,,,
,,,,,40729,2021-04-28_21h18.01.707,judgeSpeechMusic_20210407_logNormShiftAmp,2020.1.2,MacIntel,60,,,,,,,,,,,,,,,,,,,,,,,,,,1,9.377,,0,1,1,151,128,1,stimuli/stim_20210407_power2amp/equal_lnn_AM5.4Hz_6.m4a,,,
,,,,,40729,2021-04-28_21h18.01.707,judgeSpeechMusic_20210407_logNormShiftAmp,2020.1.2,MacIntel,60,,,,,,,,,,,,,,,,,,,,,,,,,,1,5.825,,0,1,2,152,51,1,stimuli/stim_20210407_power2amp/equal_lnn_AM2.4Hz_25.m4a,,,
,,,,,40729,2021-04-28_21h18.01.707,judgeSpeechMusic_20210407_logNormShiftAmp,2020.1.2,MacIntel,60,,,,,,,,,,,,,,,,,,,,,,,,,,1,5.893,,0,1,3,153,109,1,stimuli/stim_20210407_power2amp/equal_lnn_AM4.8Hz_2.m4a,,,
,,,,,40729,2021-04-28_21h18.01.707,judgeSpeechMusic_20210407_logNormShiftAmp,2020.1.2,MacIntel,60,,,,,,,,,,,,,,,,,,,,,,,,,,2,6.377,,0,1,4,154,34,1,stimuli/stim_20210407_power2amp/equal_lnn_AM1.8Hz_84.m4a,,,
,,,,,40729,2021-04-28_21h18.01.707,judgeSpeechMusic_20210407_logNormShiftAmp,2020.1.2,MacIntel,60,,,,,,,,,,,,,,,,,,,,,,,,,,1,9.709,,0,1,5,155,71,1,stimuli/stim_20210407_power2amp/equal_lnn_AM3Hz_83.m4a,,,
,,,,,40729,2021-04-28_21h18.01.707,judgeSpeechMusic_20210407_logNormShiftAmp,2020.1.2,MacIntel,60,,,,,,,,,,,,,,,,,,,,,,,,,,2,6.608,,0,1,6,156,110,1,stimuli/stim_20210407_power2amp/equal_lnn_AM4.8Hz_71.m4a,,,
,,,,,40729,2021-04-28_21h18.01.707,judgeSpeechMusic_20210407_logNormShiftAmp,2020.1.2,MacIntel,60,,,,,,,,,,,,,,,,,,,,,,,,,,1,7.909,,0,1,7,157,101,1,stimuli/stim_20210407_power2amp/equal_lnn_AM4.2Hz_21.m4a,,,
,,,,,40729,2021-04-28_21h18.01.707,judgeSpeechMusic_20210407_logNormShiftAmp,2020.1.2,MacIntel,60,,,,,,,,,,,,,,,,,,,,,,,,,,2,6.243,,0,1,8,158,132,1,stimuli/stim_20210407_power2amp/equal_lnn_AM5.4Hz_49.m4a,,,
,,,,,40729,2021-04-28_21h18.01.707,judgeSpeechMusic_20210407_logNormShiftAmp,2020.1.2,MacIntel,60,,,,,,,,,,,,,,,,,,,,,,,,,,2,5.742,,0,1,9,159,149,1,stimuli/stim_20210407_power2amp/equal_lnn_AM6Hz_39.m4a,,,
,,,,,40729,2021-04-28_21h18.01.707,judgeSpeechMusic_20210407_logNormShiftAmp,2020.1.2,MacIntel,60,,,,,,,,,,,,,,,,,,,,,,,,,,1,5.845,4,1,1,10,160,22,1,stimuli/stim_20210407_power2amp/equal_lnn_AM1.2Hz_93.m4a,0.531,,
,,,,,40729,2021-04-28_21h18.01.707,judgeSpeechMusic_20210407_logNormShiftAmp,2020.1.2,MacIntel,60,,,,,,,,,,,,,,,,,,,,,,,,,,1,5.689,,0,1,11,161,31,1,stimuli/stim_20210407_power2amp/equal_lnn_AM1.8Hz_69.m4a,,,
,,,,,40729,2021-04-28_21h18.01.707,judgeSpeechMusic_20210407_logNormShiftAmp,2020.1.2,MacIntel,60,,,,,,,,,,,,,,,,,,,,,,,,,,2,6.809,,0,1,12,162,55,1,stimuli/stim_20210407_power2amp/equal_lnn_AM2.4Hz_45.m4a,,,
,,,,,40729,2021-04-28_21h18.01.707,judgeSpeechMusic_20210407_logNormShiftAmp,2020.1.2,MacIntel,60,,,,,,,,,,,,,,,,,,,,,,,,,,1,5.941,,0,1,13,163,20,1,stimuli/stim_20210407_power2amp/equal_lnn_AM1.2Hz_21.m4a,,,
,,,,,40729,2021-04-28_21h18.01.707,judgeSpeechMusic_20210407_logNormShiftAmp,2020.1.2,MacIntel,60,,,,,,,,,,,,,,,,,,,,,,,,,,2,5.859,,0,1,14,164,108,1,stimuli/stim_20210407_power2amp/equal_lnn_AM4.8Hz_7.m4a,,,
,,,,,40729,2021-04-28_21h18.01.707,judgeSpeechMusic_20210407_logNormShiftAmp,2020.1.2,MacIntel,60,,,,,,,,,,,,,,,,,,,,,,,,,,2,6.209,,0,1,15,165,39,1,stimuli/stim_20210407_power2amp/equal_lnn_AM1.8Hz_51.m4a,,,
,,,,,40729,2021-04-28_21h18.01.707,judgeSpeechMusic_20210407_logNormShiftAmp,2020.1.2,MacIntel,60,,,,,,,,,,,,,,,,,,,,,,,,,,2,8.226,,0,1,16,166,143,1,stimuli/stim_20210407_power2amp/equal_lnn_AM6Hz_77.m4a,,,
,,,,,40729,2021-04-28_21h18.01.707,judgeSpeechMusic_20210407_logNormShiftAmp,2020.1.2,MacIntel,60,,,,,,,,,,,,,,,,,,,,,,,,,,2,7.643,,0,1,17,167,90,1,stimuli/stim_20210407_power2amp/equal_lnn_AM4.2Hz_74.m4a,,,
,,,,,40729,2021-04-28_21h18.01.707,judgeSpeechMusic_20210407_logNormShiftAmp,2020.1.2,MacIntel,60,,,,,,,,,,,,,,,,,,,,,,,,,,1,11.06,,0,1,18,168,47,1,stimuli/stim_20210407_power2amp/equal_lnn_AM2.4Hz_23.m4a,,,
,,,,,40729,2021-04-28_21h18.01.707,judgeSpeechMusic_20210407_logNormShiftAmp,2020.1.2,MacIntel,60,,,,,,,,,,,,,,,,,,,,,,,,,,1,7.46,,0,1,19,169,58,1,stimuli/stim_20210407_power2amp/equal_lnn_AM2.4Hz_48.m4a,,,
,,,,,40729,2021-04-28_21h18.01.707,judgeSpeechMusic_20210407_logNormShiftAmp,2020.1.2,MacIntel,60,,,,,,,,,,,,,,,,,,,,,,,,,,1,7.98,,0,1,20,170,107,1,stimuli/stim_20210407_power2amp/equal_lnn_AM4.8Hz_13.m4a,,,
,,,,,40729,2021-04-28_21h18.01.707,judgeSpeechMusic_20210407_logNormShiftAmp,2020.1.2,MacIntel,60,,,,,,,,,,,,,,,,,,,,,,,,,,1,6.143,,0,1,21,171,72,1,stimuli/stim_20210407_power2amp/equal_lnn_AM3Hz_5.m4a,,,
,,,,,40729,2021-04-28_21h18.01.707,judgeSpeechMusic_20210407_logNormShiftAmp,2020.1.2,MacIntel,60,,,,,,,,,,,,,,,,,,,,,,,,,,1,6.708,,0,1,22,172,30,1,stimuli/stim_20210407_power2amp/equal_lnn_AM1.8Hz_58.m4a,,,
,,,,,40729,2021-04-28_21h18.01.707,judgeSpeechMusic_20210407_logNormShiftAmp,2020.1.2,MacIntel,60,,,,,,,,,,,,,,,,,,,,,,,,,,2,8.963,,0,1,23,173,6,1,stimuli/stim_20210407_power2amp/equal_lnn_AM0.6Hz_84.m4a,,,
,,,,,40729,2021-04-28_21h18.01.707,judgeSpeechMusic_20210407_logNormShiftAmp,2020.1.2,MacIntel,60,,,,,,,,,,,,,,,,,,,,,,,,,,1,6.391,,0,1,24,174,104,1,stimuli/stim_20210407_power2amp/equal_lnn_AM4.2Hz_91.m4a,,,
,,,,,40729,2021-04-28_21h18.01.707,judgeSpeechMusic_20210407_logNormShiftAmp,2020.1.2,MacIntel,60,,,,,,,,,,,,,,,,,,,,,,,,,,2,6.308,,0,1,25,175,28,1,stimuli/stim_20210407_power2amp/equal_lnn_AM1.2Hz_16.m4a,,,
,,,,,40729,2021-04-28_21h18.01.707,judgeSpeechMusic_20210407_logNormShiftAmp,2020.1.2,MacIntel,60,,,,,,,,,,,,,,,,,,,,,,,,,,1,5.842,,0,1,26,176,25,1,stimuli/stim_20210407_power2amp/equal_lnn_AM1.2Hz_38.m4a,,,
,,,,,40729,2021-04-28_21h18.01.707,judgeSpeechMusic_20210407_logNormShiftAmp,2020.1.2,MacIntel,60,,,,,,,,,,,,,,,,,,,,,,,,,,1,7.024,,0,1,27,177,7,1,stimuli/stim_20210407_power2amp/equal_lnn_AM0.6Hz_5.m4a,,,
,,,,,40729,2021-04-28_21h18.01.707,judgeSpeechMusic_20210407_logNormShiftAmp,2020.1.2,MacIntel,60,,,,,,,,,,,,,,,,,,,,,,,,,,1,14.759,,0,1,28,178,15,1,stimuli/stim_20210407_power2amp/equal_lnn_AM1.2Hz_95.m4a,,,
,,,,,40729,2021-04-28_21h18.01.707,judgeSpeechMusic_20210407_logNormShiftAmp,2020.1.2,MacIntel,60,,,,,,,,,,,,,,,,,,,,,,,,,,1,7.293,,0,1,29,179,4,1,stimuli/stim_20210407_power2amp/equal_lnn_AM0.6Hz_56.m4a,,,
,,,,,40729,2021-04-28_21h18.01.707,judgeSpeechMusic_20210407_logNormShiftAmp,2020.1.2,MacIntel,60,,,,,,,,,,,,,,,,,,,,,,,,,,1,6.528,,0,1,30,180,5,1,stimuli/stim_20210407_power2amp/equal_lnn_AM0.6Hz_6.m4a,,,
,,,,,40729,2021-04-28_21h18.01.707,judgeSpeechMusic_20210407_logNormShiftAmp,2020.1.2,MacIntel,60,,,,,,,,,,,,,,,,,,,,,,,,,,1,7.058,,0,1,31,181,17,1,stimuli/stim_20210407_power2amp/equal_lnn_AM1.2Hz_15.m4a,,,
,,,,,40729,2021-04-28_21h18.01.707,judgeSpeechMusic_20210407_logNormShiftAmp,2020.1.2,MacIntel,60,,,,,,,,,,,,,,,,,,,,,,,,,,1,9.808,1,1,1,32,182,26,1,stimuli/stim_20210407_power2amp/equal_lnn_AM1.2Hz_63.m4a,5.015,,
,,,,,40729,2021-04-28_21h18.01.707,judgeSpeechMusic_20210407_logNormShiftAmp,2020.1.2,MacIntel,60,,,,,,,,,,,,,,,,,,,,,,,,,,1,9.962,,0,1,33,183,78,1,stimuli/stim_20210407_power2amp/equal_lnn_AM3.6Hz_88.m4a,,,
,,,,,40729,2021-04-28_21h18.01.707,judgeSpeechMusic_20210407_logNormShiftAmp,2020.1.2,MacIntel,60,,,,,,,,,,,,,,,,,,,,,,,,,,1,5.81,,0,1,34,184,113,1,stimuli/stim_20210407_power2amp/equal_lnn_AM4.8Hz_76.m4a,,,
,,,,,40729,2021-04-28_21h18.01.707,judgeSpeechMusic_20210407_logNormShiftAmp,2020.1.2,MacIntel,60,,,,,,,,,,,,,,,,,,,,,,,,,,2,6.01,,0,1,35,185,139,1,stimuli/stim_20210407_power2amp/equal_lnn_AM6Hz_98.m4a,,,
,,,,,40729,2021-04-28_21h18.01.707,judgeSpeechMusic_20210407_logNormShiftAmp,2020.1.2,MacIntel,60,,,,,,,,,,,,,,,,,,,,,,,,,,2,7.163,,0,1,36,186,35,1,stimuli/stim_20210407_power2amp/equal_lnn_AM1.8Hz_37.m4a,,,
,,,,,40729,2021-04-28_21h18.01.707,judgeSpeechMusic_20210407_logNormShiftAmp,2020.1.2,MacIntel,60,,,,,,,,,,,,,,,,,,,,,,,,,,2,6.209,,0,1,37,187,70,1,stimuli/stim_20210407_power2amp/equal_lnn_AM3Hz_56.m4a,,,
,,,,,40729,2021-04-28_21h18.01.707,judgeSpeechMusic_20210407_logNormShiftAmp,2020.1.2,MacIntel,60,,,,,,,,,,,,,,,,,,,,,,,,,,2,6.396,,0,1,38,188,74,1,stimuli/stim_20210407_power2amp/equal_lnn_AM3Hz_22.m4a,,,
,,,,,40729,2021-04-28_21h18.01.707,judgeSpeechMusic_20210407_logNormShiftAmp,2020.1.2,MacIntel,60,,,,,,,,,,,,,,,,,,,,,,,,,,2,6.326,,0,1,39,189,36,1,stimuli/stim_20210407_power2amp/equal_lnn_AM1.8Hz_36.m4a,,,
,,,,,40729,2021-04-28_21h18.01.707,judgeSpeechMusic_20210407_logNormShiftAmp,2020.1.2,MacIntel,60,,,,,,,,,,,,,,,,,,,,,,,,,,2,7.699,,0,1,40,190,127,1,stimuli/stim_20210407_power2amp/equal_lnn_AM5.4Hz_68.m4a,,,
,,,,,40729,2021-04-28_21h18.01.707,judgeSpeechMusic_20210407_logNormShiftAmp,2020.1.2,MacIntel,60,,,,,,,,,,,,,,,,,,,,,,,,,,2,7.442,,0,1,41,191,77,1,stimuli/stim_20210407_power2amp/equal_lnn_AM3.6Hz_1.m4a,,,
,,,,,40729,2021-04-28_21h18.01.707,judgeSpeechMusic_20210407_logNormShiftAmp,2020.1.2,MacIntel,60,,,,,,,,,,,,,,,,,,,,,,,,,,2,6.994,,0,1,42,192,92,1,stimuli/stim_20210407_power2amp/equal_lnn_AM4.2Hz_88.m4a,,,
,,,,,40729,2021-04-28_21h18.01.707,judgeSpeechMusic_20210407_logNormShiftAmp,2020.1.2,MacIntel,60,,,,,,,,,,,,,,,,,,,,,,,,,,2,6.361,,0,1,43,193,66,1,stimuli/stim_20210407_power2amp/equal_lnn_AM3Hz_28.m4a,,,
,,,,,40729,2021-04-28_21h18.01.707,judgeSpeechMusic_20210407_logNormShiftAmp,2020.1.2,MacIntel,60,,,,,,,,,,,,,,,,,,,,,,,,,,2,7.008,,0,1,44,194,124,1,stimuli/stim_20210407_power2amp/equal_lnn_AM5.4Hz_18.m4a,,,
,,,,,40729,2021-04-28_21h18.01.707,judgeSpeechMusic_20210407_logNormShiftAmp,2020.1.2,MacIntel,60,,,,,,,,,,,,,,,,,,,,,,,,,,2,8.247,,0,1,45,195,86,1,stimuli/stim_20210407_power2amp/equal_lnn_AM3.6Hz_37.m4a,,,
,,,,,40729,2021-04-28_21h18.01.707,judgeSpeechMusic_20210407_logNormShiftAmp,2020.1.2,MacIntel,60,,,,,,,,,,,,,,,,,,,,,,,,,,2,7.162,,0,1,46,196,125,1,stimuli/stim_20210407_power2amp/equal_lnn_AM5.4Hz_10.m4a,,,
,,,,,40729,2021-04-28_21h18.01.707,judgeSpeechMusic_20210407_logNormShiftAmp,2020.1.2,MacIntel,60,,,,,,,,,,,,,,,,,,,,,,,,,,2,5.642,,0,1,47,197,46,1,stimuli/stim_20210407_power2amp/equal_lnn_AM2.4Hz_30.m4a,,,
,,,,,40729,2021-04-28_21h18.01.707,judgeSpeechMusic_20210407_logNormShiftAmp,2020.1.2,MacIntel,60,,,,,,,,,,,,,,,,,,,,,,,,,,1,6.875,,0,1,48,198,88,1,stimuli/stim_20210407_power2amp/equal_lnn_AM3.6Hz_52.m4a,,,
,,,,,40729,2021-04-28_21h18.01.707,judgeSpeechMusic_20210407_logNormShiftAmp,2020.1.2,MacIntel,60,,,,,,,,,,,,,,,,,,,,,,,,,,2,6.409,,0,1,49,199,144,1,stimuli/stim_20210407_power2amp/equal_lnn_AM6Hz_24.m4a,,,
,,,,,40729,2021-04-28_21h18.01.707,judgeSpeechMusic_20210407_logNormShiftAmp,2020.1.2,MacIntel,60,,,,,,,,,,,,,,,,,,,,,,,,,,2,7.344,,0,1,50,200,9,1,stimuli/stim_20210407_power2amp/equal_lnn_AM0.6Hz_8.m4a,,,
,,,,,40729,2021-04-28_21h18.01.707,judgeSpeechMusic_20210407_logNormShiftAmp,2020.1.2,MacIntel,60,,,,,,,,,,,,,,,,,,,,,,,,,,2,6.892,,0,1,51,201,43,1,stimuli/stim_20210407_power2amp/equal_lnn_AM1.8Hz_65.m4a,,,
,,,,,40729,2021-04-28_21h18.01.707,judgeSpeechMusic_20210407_logNormShiftAmp,2020.1.2,MacIntel,60,,,,,,,,,,,,,,,,,,,,,,,,,,1,8.693,4,1,1,52,202,13,1,stimuli/stim_20210407_power2amp/equal_lnn_AM0.6Hz_97.m4a,3.711,,
,,,,,40729,2021-04-28_21h18.01.707,judgeSpeechMusic_20210407_logNormShiftAmp,2020.1.2,MacIntel,60,,,,,,,,,,,,,,,,,,,,,,,,,,2,8.663,,0,1,53,203,118,1,stimuli/stim_20210407_power2amp/equal_lnn_AM4.8Hz_44.m4a,,,
,,,,,40729,2021-04-28_21h18.01.707,judgeSpeechMusic_20210407_logNormShiftAmp,2020.1.2,MacIntel,60,,,,,,,,,,,,,,,,,,,,,,,,,,1,7.326,,0,1,54,204,83,1,stimuli/stim_20210407_power2amp/equal_lnn_AM3.6Hz_69.m4a,,,
,,,,,40729,2021-04-28_21h18.01.707,judgeSpeechMusic_20210407_logNormShiftAmp,2020.1.2,MacIntel,60,,,,,,,,,,,,,,,,,,,,,,,,,,1,6.029,,0,1,55,205,111,1,stimuli/stim_20210407_power2amp/equal_lnn_AM4.8Hz_63.m4a,,,
,,,,,40729,2021-04-28_21h18.01.707,judgeSpeechMusic_20210407_logNormShiftAmp,2020.1.2,MacIntel,60,,,,,,,,,,,,,,,,,,,,,,,,,,2,5.81,,0,1,56,206,57,1,stimuli/stim_20210407_power2amp/equal_lnn_AM2.4Hz_53.m4a,,,
,,,,,40729,2021-04-28_21h18.01.707,judgeSpeechMusic_20210407_logNormShiftAmp,2020.1.2,MacIntel,60,,,,,,,,,,,,,,,,,,,,,,,,,,2,8.01,,0,1,57,207,42,1,stimuli/stim_20210407_power2amp/equal_lnn_AM1.8Hz_63.m4a,,,
,,,,,40729,2021-04-28_21h18.01.707,judgeSpeechMusic_20210407_logNormShiftAmp,2020.1.2,MacIntel,60,,,,,,,,,,,,,,,,,,,,,,,,,,1,6.323,,0,1,58,208,138,1,stimuli/stim_20210407_power2amp/equal_lnn_AM6Hz_52.m4a,,,
,,,,,40729,2021-04-28_21h18.01.707,judgeSpeechMusic_20210407_logNormShiftAmp,2020.1.2,MacIntel,60,,,,,,,,,,,,,,,,,,,,,,,,,,1,6.692,,0,1,59,209,136,1,stimuli/stim_20210407_power2amp/equal_lnn_AM6Hz_40.m4a,,,
,,,,,40729,2021-04-28_21h18.01.707,judgeSpeechMusic_20210407_logNormShiftAmp,2020.1.2,MacIntel,60,,,,,,,,,,,,,,,,,,,,,,,,,,2,8.093,,0,1,60,210,69,1,stimuli/stim_20210407_power2amp/equal_lnn_AM3Hz_63.m4a,,,
,,,,,40729,2021-04-28_21h18.01.707,judgeSpeechMusic_20210407_logNormShiftAmp,2020.1.2,MacIntel,60,,,,,,,,,,,,,,,,,,,,,,,,,,2,7.825,,0,1,61,211,11,1,stimuli/stim_20210407_power2amp/equal_lnn_AM0.6Hz_29.m4a,,,
,,,,,40729,2021-04-28_21h18.01.707,judgeSpeechMusic_20210407_logNormShiftAmp,2020.1.2,MacIntel,60,,,,,,,,,,,,,,,,,,,,,,,,,,2,6.647,,0,1,62,212,145,1,stimuli/stim_20210407_power2amp/equal_lnn_AM6Hz_70.m4a,,,
,,,,,40729,2021-04-28_21h18.01.707,judgeSpeechMusic_20210407_logNormShiftAmp,2020.1.2,MacIntel,60,,,,,,,,,,,,,,,,,,,,,,,,,,1,7.775,,0,1,63,213,147,1,stimuli/stim_20210407_power2amp/equal_lnn_AM6Hz_73.m4a,,,
,,,,,40729,2021-04-28_21h18.01.707,judgeSpeechMusic_20210407_logNormShiftAmp,2020.1.2,MacIntel,60,,,,,,,,,,,,,,,,,,,,,,,,,,1,7.777,,0,1,64,214,10,1,stimuli/stim_20210407_power2amp/equal_lnn_AM0.6Hz_100.m4a,,,
,,,,,40729,2021-04-28_21h18.01.707,judgeSpeechMusic_20210407_logNormShiftAmp,2020.1.2,MacIntel,60,,,,,,,,,,,,,,,,,,,,,,,,,,1,8.664,,0,1,65,215,32,1,stimuli/stim_20210407_power2amp/equal_lnn_AM1.8Hz_78.m4a,,,
,,,,,40729,2021-04-28_21h18.01.707,judgeSpeechMusic_20210407_logNormShiftAmp,2020.1.2,MacIntel,60,,,,,,,,,,,,,,,,,,,,,,,,,,2,7.443,,0,1,66,216,135,1,stimuli/stim_20210407_power2amp/equal_lnn_AM6Hz_72.m4a,,,
,,,,,40729,2021-04-28_21h18.01.707,judgeSpeechMusic_20210407_logNormShiftAmp,2020.1.2,MacIntel,60,,,,,,,,,,,,,,,,,,,,,,,,,,2,7.007,,0,1,67,217,3,1,stimuli/stim_20210407_power2amp/equal_lnn_AM0.6Hz_65.m4a,,,
,,,,,40729,2021-04-28_21h18.01.707,judgeSpeechMusic_20210407_logNormShiftAmp,2020.1.2,MacIntel,60,,,,,,,,,,,,,,,,,,,,,,,,,,2,7.209,,0,1,68,218,98,1,stimuli/stim_20210407_power2amp/equal_lnn_AM4.2Hz_9.m4a,,,
,,,,,40729,2021-04-28_21h18.01.707,judgeSpeechMusic_20210407_logNormShiftAmp,2020.1.2,MacIntel,60,,,,,,,,,,,,,,,,,,,,,,,,,,2,7.441,,0,1,69,219,148,1,stimuli/stim_20210407_power2amp/equal_lnn_AM6Hz_13.m4a,,,
,,,,,40729,2021-04-28_21h18.01.707,judgeSpeechMusic_20210407_logNormShiftAmp,2020.1.2,MacIntel,60,,,,,,,,,,,,,,,,,,,,,,,,,,1,9.395,,0,1,70,220,33,1,stimuli/stim_20210407_power2amp/equal_lnn_AM1.8Hz_55.m4a,,,
,,,,,40729,2021-04-28_21h18.01.707,judgeSpeechMusic_20210407_logNormShiftAmp,2020.1.2,MacIntel,60,,,,,,,,,,,,,,,,,,,,,,,,,,1,8.174,,0,1,71,221,44,1,stimuli/stim_20210407_power2amp/equal_lnn_AM1.8Hz_81.m4a,,,
,,,,,40729,2021-04-28_21h18.01.707,judgeSpeechMusic_20210407_logNormShiftAmp,2020.1.2,MacIntel,60,,,,,,,,,,,,,,,,,,,,,,,,,,2,9.84,,0,1,72,222,52,1,stimuli/stim_20210407_power2amp/equal_lnn_AM2.4Hz_39.m4a,,,
,,,,,40729,2021-04-28_21h18.01.707,judgeSpeechMusic_20210407_logNormShiftAmp,2020.1.2,MacIntel,60,,,,,,,,,,,,,,,,,,,,,,,,,,1,8.257,3,1,1,73,223,75,1,stimuli/stim_20210407_power2amp/equal_lnn_AM3.6Hz_12.m4a,0.579,,
,,,,,40729,2021-04-28_21h18.01.707,judgeSpeechMusic_20210407_logNormShiftAmp,2020.1.2,MacIntel,60,,,,,,,,,,,,,,,,,,,,,,,,,,2,11.196,,0,1,74,224,48,1,stimuli/stim_20210407_power2amp/equal_lnn_AM2.4Hz_98.m4a,,,
,,,,,40729,2021-04-28_21h18.01.707,judgeSpeechMusic_20210407_logNormShiftAmp,2020.1.2,MacIntel,60,,,,,,,,,,,,,,,,,,,,,,,,,,1,6.029,,0,1,75,225,134,1,stimuli/stim_20210407_power2amp/equal_lnn_AM5.4Hz_93.m4a,,,
,,,,,40729,2021-04-28_21h18.01.707,judgeSpeechMusic_20210407_logNormShiftAmp,2020.1.2,MacIntel,60,,,,,,,,,,,,,,,,,,,,,,,,,,1,6.809,,0,1,76,226,99,1,stimuli/stim_20210407_power2amp/equal_lnn_AM4.2Hz_80.m4a,,,
,,,,,40729,2021-04-28_21h18.01.707,judgeSpeechMusic_20210407_logNormShiftAmp,2020.1.2,MacIntel,60,,,,,,,,,,,,,,,,,,,,,,,,,,2,8.229,,0,1,77,227,53,1,stimuli/stim_20210407_power2amp/equal_lnn_AM2.4Hz_21.m4a,,,
,,,,,40729,2021-04-28_21h18.01.707,judgeSpeechMusic_20210407_logNormShiftAmp,2020.1.2,MacIntel,60,,,,,,,,,,,,,,,,,,,,,,,,,,1,8.326,,0,1,78,228,41,1,stimuli/stim_20210407_power2amp/equal_lnn_AM1.8Hz_91.m4a,,,
,,,,,40729,2021-04-28_21h18.01.707,judgeSpeechMusic_20210407_logNormShiftAmp,2020.1.2,MacIntel,60,,,,,,,,,,,,,,,,,,,,,,,,,,1,9.909,,0,1,79,229,89,1,stimuli/stim_20210407_power2amp/equal_lnn_AM3.6Hz_30.m4a,,,
,,,,,40729,2021-04-28_21h18.01.707,judgeSpeechMusic_20210407_logNormShiftAmp,2020.1.2,MacIntel,60,,,,,,,,,,,,,,,,,,,,,,,,,,1,9.577,,0,1,80,230,102,1,stimuli/stim_20210407_power2amp/equal_lnn_AM4.2Hz_81.m4a,,,
,,,,,40729,2021-04-28_21h18.01.707,judgeSpeechMusic_20210407_logNormShiftAmp,2020.1.2,MacIntel,60,,,,,,,,,,,,,,,,,,,,,,,,,,2,8.478,,0,1,81,231,19,1,stimuli/stim_20210407_power2amp/equal_lnn_AM1.2Hz_20.m4a,,,
,,,,,40729,2021-04-28_21h18.01.707,judgeSpeechMusic_20210407_logNormShiftAmp,2020.1.2,MacIntel,60,,,,,,,,,,,,,,,,,,,,,,,,,,2,7.43,,0,1,82,232,120,1,stimuli/stim_20210407_power2amp/equal_lnn_AM5.4Hz_20.m4a,,,
,,,,,40729,2021-04-28_21h18.01.707,judgeSpeechMusic_20210407_logNormShiftAmp,2020.1.2,MacIntel,60,,,,,,,,,,,,,,,,,,,,,,,,,,2,7.108,,0,1,83,233,87,1,stimuli/stim_20210407_power2amp/equal_lnn_AM3.6Hz_33.m4a,,,
,,,,,40729,2021-04-28_21h18.01.707,judgeSpeechMusic_20210407_logNormShiftAmp,2020.1.2,MacIntel,60,,,,,,,,,,,,,,,,,,,,,,,,,,2,9.029,,0,1,84,234,37,1,stimuli/stim_20210407_power2amp/equal_lnn_AM1.8Hz_57.m4a,,,
,,,,,40729,2021-04-28_21h18.01.707,judgeSpeechMusic_20210407_logNormShiftAmp,2020.1.2,MacIntel,60,,,,,,,,,,,,,,,,,,,,,,,,,,2,9.41,,0,1,85,235,40,1,stimuli/stim_20210407_power2amp/equal_lnn_AM1.8Hz_72.m4a,,,
,,,,,40729,2021-04-28_21h18.01.707,judgeSpeechMusic_20210407_logNormShiftAmp,2020.1.2,MacIntel,60,,,,,,,,,,,,,,,,,,,,,,,,,,2,8.256,,0,1,86,236,116,1,stimuli/stim_20210407_power2amp/equal_lnn_AM4.8Hz_16.m4a,,,
,,,,,40729,2021-04-28_21h18.01.707,judgeSpeechMusic_20210407_logNormShiftAmp,2020.1.2,MacIntel,60,,,,,,,,,,,,,,,,,,,,,,,,,,2,7.34,,0,1,87,237,103,1,stimuli/stim_20210407_power2amp/equal_lnn_AM4.2Hz_10.m4a,,,
,,,,,40729,2021-04-28_21h18.01.707,judgeSpeechMusic_20210407_logNormShiftAmp,2020.1.2,MacIntel,60,,,,,,,,,,,,,,,,,,,,,,,,,,2,7.56,,0,1,88,238,79,1,stimuli/stim_20210407_power2amp/equal_lnn_AM3.6Hz_14.m4a,,,
,,,,,40729,2021-04-28_21h18.01.707,judgeSpeechMusic_20210407_logNormShiftAmp,2020.1.2,MacIntel,60,,,,,,,,,,,,,,,,,,,,,,,,,,2,6.591,,0,1,89,239,68,1,stimuli/stim_20210407_power2amp/equal_lnn_AM3Hz_13.m4a,,,
,,,,,40729,2021-04-28_21h18.01.707,judgeSpeechMusic_20210407_logNormShiftAmp,2020.1.2,MacIntel,60,,,,,,,,,,,,,,,,,,,,,,,,,,2,8.413,,0,1,90,240,62,1,stimuli/stim_20210407_power2amp/equal_lnn_AM3Hz_1.m4a,,,
,,,,,40729,2021-04-28_21h18.01.707,judgeSpeechMusic_20210407_logNormShiftAmp,2020.1.2,MacIntel,60,,,,,,,,,,,,,,,,,,,,,,,,,,1,6.059,,0,1,91,241,56,1,stimuli/stim_20210407_power2amp/equal_lnn_AM2.4Hz_81.m4a,,,
,,,,,40729,2021-04-28_21h18.01.707,judgeSpeechMusic_20210407_logNormShiftAmp,2020.1.2,MacIntel,60,,,,,,,,,,,,,,,,,,,,,,,,,,1,6.995,,0,1,92,242,146,1,stimuli/stim_20210407_power2amp/equal_lnn_AM6Hz_80.m4a,,,
,,,,,40729,2021-04-28_21h18.01.707,judgeSpeechMusic_20210407_logNormShiftAmp,2020.1.2,MacIntel,60,,,,,,,,,,,,,,,,,,,,,,,,,,1,10.741,,0,1,93,243,8,1,stimuli/stim_20210407_power2amp/equal_lnn_AM0.6Hz_24.m4a,,,
,,,,,40729,2021-04-28_21h18.01.707,judgeSpeechMusic_20210407_logNormShiftAmp,2020.1.2,MacIntel,60,,,,,,,,,,,,,,,,,,,,,,,,,,2,9.309,,0,1,94,244,93,1,stimuli/stim_20210407_power2amp/equal_lnn_AM4.2Hz_72.m4a,,,
,,,,,40729,2021-04-28_21h18.01.707,judgeSpeechMusic_20210407_logNormShiftAmp,2020.1.2,MacIntel,60,,,,,,,,,,,,,,,,,,,,,,,,,,2,9.93,,0,1,95,245,115,1,stimuli/stim_20210407_power2amp/equal_lnn_AM4.8Hz_1.m4a,,,
,,,,,40729,2021-04-28_21h18.01.707,judgeSpeechMusic_20210407_logNormShiftAmp,2020.1.2,MacIntel,60,,,,,,,,,,,,,,,,,,,,,,,,,,2,13.311,2,1,1,96,246,14,1,stimuli/stim_20210407_power2amp/equal_lnn_AM0.6Hz_38.m4a,5.343,,
,,,,,40729,2021-04-28_21h18.01.707,judgeSpeechMusic_20210407_logNormShiftAmp,2020.1.2,MacIntel,60,,,,,,,,,,,,,,,,,,,,,,,,,,2,12.723,,0,1,97,247,21,1,stimuli/stim_20210407_power2amp/equal_lnn_AM1.2Hz_84.m4a,,,
,,,,,40729,2021-04-28_21h18.01.707,judgeSpeechMusic_20210407_logNormShiftAmp,2020.1.2,MacIntel,60,,,,,,,,,,,,,,,,,,,,,,,,,,2,9.276,,0,1,98,248,119,1,stimuli/stim_20210407_power2amp/equal_lnn_AM4.8Hz_29.m4a,,,
,,,,,40729,2021-04-28_21h18.01.707,judgeSpeechMusic_20210407_logNormShiftAmp,2020.1.2,MacIntel,60,,,,,,,,,,,,,,,,,,,,,,,,,,2,8.911,,0,1,99,249,137,1,stimuli/stim_20210407_power2amp/equal_lnn_AM6Hz_20.m4a,,,
,,,,,40729,2021-04-28_21h18.01.707,judgeSpeechMusic_20210407_logNormShiftAmp,2020.1.2,MacIntel,60,,,,,,,,,,,,,,,,,,,,,,,,,,2,7.648,,0,1,100,250,133,1,stimuli/stim_20210407_power2amp/equal_lnn_AM5.4Hz_76.m4a,,,
,,,,,40729,2021-04-28_21h18.01.707,judgeSpeechMusic_20210407_logNormShiftAmp,2020.1.2,MacIntel,60,,,,,,,,,,,,,,,,,,,,,,,,,,2,9.908,,0,1,101,251,97,1,stimuli/stim_20210407_power2amp/equal_lnn_AM4.2Hz_13.m4a,,,
,,,,,40729,2021-04-28_21h18.01.707,judgeSpeechMusic_20210407_logNormShiftAmp,2020.1.2,MacIntel,60,,,,,,,,,,,,,,,,,,,,,,,,,,2,19.856,,0,1,102,252,76,1,stimuli/stim_20210407_power2amp/equal_lnn_AM3.6Hz_66.m4a,,,
,,,,,40729,2021-04-28_21h18.01.707,judgeSpeechMusic_20210407_logNormShiftAmp,2020.1.2,MacIntel,60,,,,,,,,,,,,,,,,,,,,,,,,,,1,10.508,,0,1,103,253,2,1,stimuli/stim_20210407_power2amp/equal_lnn_AM0.6Hz_7.m4a,,,
,,,,,40729,2021-04-28_21h18.01.707,judgeSpeechMusic_20210407_logNormShiftAmp,2020.1.2,MacIntel,60,,,,,,,,,,,,,,,,,,,,,,,,,,1,7.492,,0,1,104,254,117,1,stimuli/stim_20210407_power2amp/equal_lnn_AM4.8Hz_96.m4a,,,
,,,,,40729,2021-04-28_21h18.01.707,judgeSpeechMusic_20210407_logNormShiftAmp,2020.1.2,MacIntel,60,,,,,,,,,,,,,,,,,,,,,,,,,,2,5.694,,0,1,105,255,114,1,stimuli/stim_20210407_power2amp/equal_lnn_AM4.8Hz_37.m4a,,,
,,,,,40729,2021-04-28_21h18.01.707,judgeSpeechMusic_20210407_logNormShiftAmp,2020.1.2,MacIntel,60,,,,,,,,,,,,,,,,,,,,,,,,,,1,9.11,,0,1,106,256,16,1,stimuli/stim_20210407_power2amp/equal_lnn_AM1.2Hz_55.m4a,,,
,,,,,40729,2021-04-28_21h18.01.707,judgeSpeechMusic_20210407_logNormShiftAmp,2020.1.2,MacIntel,60,,,,,,,,,,,,,,,,,,,,,,,,,,2,6.86,,0,1,107,257,105,1,stimuli/stim_20210407_power2amp/equal_lnn_AM4.8Hz_39.m4a,,,
,,,,,40729,2021-04-28_21h18.01.707,judgeSpeechMusic_20210407_logNormShiftAmp,2020.1.2,MacIntel,60,,,,,,,,,,,,,,,,,,,,,,,,,,2,14.594,,0,1,108,258,81,1,stimuli/stim_20210407_power2amp/equal_lnn_AM3.6Hz_5.m4a,,,
,,,,,40729,2021-04-28_21h18.01.707,judgeSpeechMusic_20210407_logNormShiftAmp,2020.1.2,MacIntel,60,,,,,,,,,,,,,,,,,,,,,,,,,,2,10.11,,0,1,109,259,67,1,stimuli/stim_20210407_power2amp/equal_lnn_AM3Hz_86.m4a,,,
,,,,,40729,2021-04-28_21h18.01.707,judgeSpeechMusic_20210407_logNormShiftAmp,2020.1.2,MacIntel,60,,,,,,,,,,,,,,,,,,,,,,,,,,1,14.164,,0,1,110,260,18,1,stimuli/stim_20210407_power2amp/equal_lnn_AM1.2Hz_62.m4a,,,
,,,,,40729,2021-04-28_21h18.01.707,judgeSpeechMusic_20210407_logNormShiftAmp,2020.1.2,MacIntel,60,,,,,,,,,,,,,,,,,,,,,,,,,,1,6.126,,0,1,111,261,49,1,stimuli/stim_20210407_power2amp/equal_lnn_AM2.4Hz_50.m4a,,,
,,,,,40729,2021-04-28_21h18.01.707,judgeSpeechMusic_20210407_logNormShiftAmp,2020.1.2,MacIntel,60,,,,,,,,,,,,,,,,,,,,,,,,,,1,18.027,,0,1,112,262,94,1,stimuli/stim_20210407_power2amp/equal_lnn_AM4.2Hz_34.m4a,,,
,,,,,40729,2021-04-28_21h18.01.707,judgeSpeechMusic_20210407_logNormShiftAmp,2020.1.2,MacIntel,60,,,,,,,,,,,,,,,,,,,,,,,,,,2,7.777,,0,1,113,263,131,1,stimuli/stim_20210407_power2amp/equal_lnn_AM5.4Hz_90.m4a,,,
,,,,,40729,2021-04-28_21h18.01.707,judgeSpeechMusic_20210407_logNormShiftAmp,2020.1.2,MacIntel,60,,,,,,,,,,,,,,,,,,,,,,,,,,2,11.009,,0,1,114,264,80,1,stimuli/stim_20210407_power2amp/equal_lnn_AM3.6Hz_87.m4a,,,
,,,,,40729,2021-04-28_21h18.01.707,judgeSpeechMusic_20210407_logNormShiftAmp,2020.1.2,MacIntel,60,,,,,,,,,,,,,,,,,,,,,,,,,,2,8.309,,0,1,115,265,50,1,stimuli/stim_20210407_power2amp/equal_lnn_AM2.4Hz_38.m4a,,,
,,,,,40729,2021-04-28_21h18.01.707,judgeSpeechMusic_20210407_logNormShiftAmp,2020.1.2,MacIntel,60,,,,,,,,,,,,,,,,,,,,,,,,,,2,13.262,,0,1,116,266,27,1,stimuli/stim_20210407_power2amp/equal_lnn_AM1.2Hz_74.m4a,,,
,,,,,40729,2021-04-28_21h18.01.707,judgeSpeechMusic_20210407_logNormShiftAmp,2020.1.2,MacIntel,60,,,,,,,,,,,,,,,,,,,,,,,,,,2,9.142,,0,1,117,267,63,1,stimuli/stim_20210407_power2amp/equal_lnn_AM3Hz_73.m4a,,,
,,,,,40729,2021-04-28_21h18.01.707,judgeSpeechMusic_20210407_logNormShiftAmp,2020.1.2,MacIntel,60,,,,,,,,,,,,,,,,,,,,,,,,,,2,18.358,,0,1,118,268,100,1,stimuli/stim_20210407_power2amp/equal_lnn_AM4.2Hz_68.m4a,,,
,,,,,40729,2021-04-28_21h18.01.707,judgeSpeechMusic_20210407_logNormShiftAmp,2020.1.2,MacIntel,60,,,,,,,,,,,,,,,,,,,,,,,,,,2,9.778,,0,1,119,269,73,1,stimuli/stim_20210407_power2amp/equal_lnn_AM3Hz_98.m4a,,,
,,,,,40729,2021-04-28_21h18.01.707,judgeSpeechMusic_20210407_logNormShiftAmp,2020.1.2,MacIntel,60,,,,,,,,,,,,,,,,,,,,,,,,,,1,10.927,,0,1,120,270,122,1,stimuli/stim_20210407_power2amp/equal_lnn_AM5.4Hz_46.m4a,,,
,,,,,40729,2021-04-28_21h18.01.707,judgeSpeechMusic_20210407_logNormShiftAmp,2020.1.2,MacIntel,60,,,,,,,,,,,,,,,,,,,,,,,,,,1,7.86,4,1,1,121,271,95,1,stimuli/stim_20210407_power2amp/equal_lnn_AM4.2Hz_96.m4a,0.613,,
,,,,,40729,2021-04-28_21h18.01.707,judgeSpeechMusic_20210407_logNormShiftAmp,2020.1.2,MacIntel,60,,,,,,,,,,,,,,,,,,,,,,,,,,2,9.044,,0,1,122,272,123,1,stimuli/stim_20210407_power2amp/equal_lnn_AM5.4Hz_13.m4a,,,
,,,,,40729,2021-04-28_21h18.01.707,judgeSpeechMusic_20210407_logNormShiftAmp,2020.1.2,MacIntel,60,,,,,,,,,,,,,,,,,,,,,,,,,,2,8.89,,0,1,123,273,0,1,stimuli/stim_20210407_power2amp/equal_lnn_AM0.6Hz_45.m4a,,,
,,,,,40729,2021-04-28_21h18.01.707,judgeSpeechMusic_20210407_logNormShiftAmp,2020.1.2,MacIntel,60,,,,,,,,,,,,,,,,,,,,,,,,,,2,8.81,,0,1,124,274,61,1,stimuli/stim_20210407_power2amp/equal_lnn_AM3Hz_71.m4a,,,
,,,,,40729,2021-04-28_21h18.01.707,judgeSpeechMusic_20210407_logNormShiftAmp,2020.1.2,MacIntel,60,,,,,,,,,,,,,,,,,,,,,,,,,,2,9.775,,0,1,125,275,126,1,stimuli/stim_20210407_power2amp/equal_lnn_AM5.4Hz_2.m4a,,,
,,,,,40729,2021-04-28_21h18.01.707,judgeSpeechMusic_20210407_logNormShiftAmp,2020.1.2,MacIntel,60,,,,,,,,,,,,,,,,,,,,,,,,,,2,8.775,,0,1,126,276,38,1,stimuli/stim_20210407_power2amp/equal_lnn_AM1.8Hz_87.m4a,,,
,,,,,40729,2021-04-28_21h18.01.707,judgeSpeechMusic_20210407_logNormShiftAmp,2020.1.2,MacIntel,60,,,,,,,,,,,,,,,,,,,,,,,,,,2,10.825,,0,1,127,277,59,1,stimuli/stim_20210407_power2amp/equal_lnn_AM2.4Hz_88.m4a,,,
,,,,,40729,2021-04-28_21h18.01.707,judgeSpeechMusic_20210407_logNormShiftAmp,2020.1.2,MacIntel,60,,,,,,,,,,,,,,,,,,,,,,,,,,1,8.741,,0,1,128,278,91,1,stimuli/stim_20210407_power2amp/equal_lnn_AM4.2Hz_51.m4a,,,
,,,,,40729,2021-04-28_21h18.01.707,judgeSpeechMusic_20210407_logNormShiftAmp,2020.1.2,MacIntel,60,,,,,,,,,,,,,,,,,,,,,,,,,,1,9.008,,0,1,129,279,64,1,stimuli/stim_20210407_power2amp/equal_lnn_AM3Hz_81.m4a,,,
,,,,,40729,2021-04-28_21h18.01.707,judgeSpeechMusic_20210407_logNormShiftAmp,2020.1.2,MacIntel,60,,,,,,,,,,,,,,,,,,,,,,,,,,2,5.699,,0,1,130,280,141,1,stimuli/stim_20210407_power2amp/equal_lnn_AM6Hz_32.m4a,,,
,,,,,40729,2021-04-28_21h18.01.707,judgeSpeechMusic_20210407_logNormShiftAmp,2020.1.2,MacIntel,60,,,,,,,,,,,,,,,,,,,,,,,,,,2,6.276,,0,1,131,281,121,1,stimuli/stim_20210407_power2amp/equal_lnn_AM5.4Hz_83.m4a,,,
,,,,,40729,2021-04-28_21h18.01.707,judgeSpeechMusic_20210407_logNormShiftAmp,2020.1.2,MacIntel,60,,,,,,,,,,,,,,,,,,,,,,,,,,2,11.924,,0,1,132,282,82,1,stimuli/stim_20210407_power2amp/equal_lnn_AM3.6Hz_76.m4a,,,
,,,,,40729,2021-04-28_21h18.01.707,judgeSpeechMusic_20210407_logNormShiftAmp,2020.1.2,MacIntel,60,,,,,,,,,,,,,,,,,,,,,,,,,,2,10.477,,0,1,133,283,140,1,stimuli/stim_20210407_power2amp/equal_lnn_AM6Hz_14.m4a,,,
,,,,,40729,2021-04-28_21h18.01.707,judgeSpeechMusic_20210407_logNormShiftAmp,2020.1.2,MacIntel,60,,,,,,,,,,,,,,,,,,,,,,,,,,2,7.976,,0,1,134,284,96,1,stimuli/stim_20210407_power2amp/equal_lnn_AM4.2Hz_27.m4a,,,
,,,,,40729,2021-04-28_21h18.01.707,judgeSpeechMusic_20210407_logNormShiftAmp,2020.1.2,MacIntel,60,,,,,,,,,,,,,,,,,,,,,,,,,,2,5.36,,0,1,135,285,106,1,stimuli/stim_20210407_power2amp/equal_lnn_AM4.8Hz_31.m4a,,,
,,,,,40729,2021-04-28_21h18.01.707,judgeSpeechMusic_20210407_logNormShiftAmp,2020.1.2,MacIntel,60,,,,,,,,,,,,,,,,,,,,,,,,,,2,6.709,,0,1,136,286,23,1,stimuli/stim_20210407_power2amp/equal_lnn_AM1.2Hz_41.m4a,,,
,,,,,40729,2021-04-28_21h18.01.707,judgeSpeechMusic_20210407_logNormShiftAmp,2020.1.2,MacIntel,60,,,,,,,,,,,,,,,,,,,,,,,,,,2,9.992,,0,1,137,287,129,1,stimuli/stim_20210407_power2amp/equal_lnn_AM5.4Hz_11.m4a,,,
,,,,,40729,2021-04-28_21h18.01.707,judgeSpeechMusic_20210407_logNormShiftAmp,2020.1.2,MacIntel,60,,,,,,,,,,,,,,,,,,,,,,,,,,2,6.327,,0,1,138,288,24,1,stimuli/stim_20210407_power2amp/equal_lnn_AM1.2Hz_34.m4a,,,
,,,,,40729,2021-04-28_21h18.01.707,judgeSpeechMusic_20210407_logNormShiftAmp,2020.1.2,MacIntel,60,,,,,,,,,,,,,,,,,,,,,,,,,,2,5.842,,0,1,139,289,29,1,stimuli/stim_20210407_power2amp/equal_lnn_AM1.2Hz_88.m4a,,,
,,,,,40729,2021-04-28_21h18.01.707,judgeSpeechMusic_20210407_logNormShiftAmp,2020.1.2,MacIntel,60,,,,,,,,,,,,,,,,,,,,,,,,,,2,10.445,,0,1,140,290,1,1,stimuli/stim_20210407_power2amp/equal_lnn_AM0.6Hz_19.m4a,,,
,,,,,40729,2021-04-28_21h18.01.707,judgeSpeechMusic_20210407_logNormShiftAmp,2020.1.2,MacIntel,60,,,,,,,,,,,,,,,,,,,,,,,,,,2,9.644,,0,1,141,291,45,1,stimuli/stim_20210407_power2amp/equal_lnn_AM2.4Hz_49.m4a,,,
,,,,,40729,2021-04-28_21h18.01.707,judgeSpeechMusic_20210407_logNormShiftAmp,2020.1.2,MacIntel,60,,,,,,,,,,,,,,,,,,,,,,,,,,1,7.295,,0,1,142,292,12,1,stimuli/stim_20210407_power2amp/equal_lnn_AM0.6Hz_72.m4a,,,
,,,,,40729,2021-04-28_21h18.01.707,judgeSpeechMusic_20210407_logNormShiftAmp,2020.1.2,MacIntel,60,,,,,,,,,,,,,,,,,,,,,,,,,,2,5.776,,0,1,143,293,60,1,stimuli/stim_20210407_power2amp/equal_lnn_AM3Hz_40.m4a,,,
,,,,,40729,2021-04-28_21h18.01.707,judgeSpeechMusic_20210407_logNormShiftAmp,2020.1.2,MacIntel,60,,,,,,,,,,,,,,,,,,,,,,,,,,2,7.127,,0,1,144,294,130,1,stimuli/stim_20210407_power2amp/equal_lnn_AM5.4Hz_34.m4a,,,
,,,,,40729,2021-04-28_21h18.01.707,judgeSpeechMusic_20210407_logNormShiftAmp,2020.1.2,MacIntel,60,,,,,,,,,,,,,,,,,,,,,,,,,,1,5.709,,0,1,145,295,65,1,stimuli/stim_20210407_power2amp/equal_lnn_AM3Hz_64.m4a,,,
,,,,,40729,2021-04-28_21h18.01.707,judgeSpeechMusic_20210407_logNormShiftAmp,2020.1.2,MacIntel,60,,,,,,,,,,,,,,,,,,,,,,,,,,2,8.059,,0,1,146,296,84,1,stimuli/stim_20210407_power2amp/equal_lnn_AM3.6Hz_94.m4a,,,
,,,,,40729,2021-04-28_21h18.01.707,judgeSpeechMusic_20210407_logNormShiftAmp,2020.1.2,MacIntel,60,,,,,,,,,,,,,,,,,,,,,,,,,,2,9.475,,0,1,147,297,142,1,stimuli/stim_20210407_power2amp/equal_lnn_AM6Hz_18.m4a,,,
,,,,,40729,2021-04-28_21h18.01.707,judgeSpeechMusic_20210407_logNormShiftAmp,2020.1.2,MacIntel,60,,,,,,,,,,,,,,,,,,,,,,,,,,2,9.458,,0,1,148,298,85,1,stimuli/stim_20210407_power2amp/equal_lnn_AM3.6Hz_68.m4a,,,
,,,,,40729,2021-04-28_21h18.01.707,judgeSpeechMusic_20210407_logNormShiftAmp,2020.1.2,MacIntel,60,,,,,,,,,,,,,,,,,,,,,,,,,,2,6.391,,0,1,149,299,54,1,stimuli/stim_20210407_power2amp/equal_lnn_AM2.4Hz_20.m4a,,,
,,,,,40729,2021-04-28_21h18.01.707,judgeSpeechMusic_20210407_logNormShiftAmp,2020.1.2,MacIntel,60,,,,,,,,,,,,,,,,,,,,,,,,,,,,,,,,,,,,,space,2.618
