volAdjustRep.thisRepN,volAdjustRep.thisTrialN,volAdjustRep.thisN,volAdjustRep.thisIndex,volAdjustRep.ran,participant,date,expName,psychopyVersion,OS,frameRate,headphoneResponse.keys,headphoneResponse.corr,headphoneResponse.rt,headphoneTrial.thisRepN,headphoneTrial.thisTrialN,headphoneTrial.thisN,headphoneTrial.thisIndex,headphoneTrial.ran,headphone_sound1,headphone_sound2,headphone_sound3,corrAns,trainSlider.response,trainSlider.rt,beepTrainResponse.keys,beepTrainResponse.corr,trainingTrials.thisRepN,trainingTrials.thisTrialN,trainingTrials.thisN,trainingTrials.thisIndex,trainingTrials.ran,trainAudioFile,beepTrainResponse.rt,readyReal_resp.keys,readyReal_resp.rt,ratingSlider.response,ratingSlider.rt,beepResp.keys,beepResp.corr,expTrials.thisRepN,expTrials.thisTrialN,expTrials.thisN,expTrials.thisIndex,expTrials.ran,audioFile,beepResp.rt,end_resp.keys,end_resp.rt
0,0,0,0,1,40726,2021-05-09_22h58.59.387,judgeSpeechMusic_20210407_logNormShiftAmp,2020.1.2,Win32,60,,,,,,,,,,,,,,,,,,,,,,,,,,,,,,,,,,,,,,
,,,,,40726,2021-05-09_22h58.59.387,judgeSpeechMusic_20210407_logNormShiftAmp,2020.1.2,Win32,60,2,1,0.89568,0,0,0,1,1,stimuli/screen_antiphase.wav,stimuli/screen_quiet.wav,stimuli/screen_origin.wav,2,,,,,,,,,,,,,,,,,,,,,,,,,,
,,,,,40726,2021-05-09_22h58.59.387,judgeSpeechMusic_20210407_logNormShiftAmp,2020.1.2,Win32,60,2,1,0.370915,0,1,1,3,1,stimuli/screen_origin.wav,stimuli/screen_quiet.wav,stimuli/screen_antiphase.wav,2,,,,,,,,,,,,,,,,,,,,,,,,,,
,,,,,40726,2021-05-09_22h58.59.387,judgeSpeechMusic_20210407_logNormShiftAmp,2020.1.2,Win32,60,3,1,0.107475,0,2,2,2,1,stimuli/screen_origin.wav,stimuli/screen_antiphase.wav,stimuli/screen_quiet.wav,3,,,,,,,,,,,,,,,,,,,,,,,,,,
,,,,,40726,2021-05-09_22h58.59.387,judgeSpeechMusic_20210407_logNormShiftAmp,2020.1.2,Win32,60,3,1,0.392615,0,3,3,0,1,stimuli/screen_antiphase.wav,stimuli/screen_origin.wav,stimuli/screen_quiet.wav,3,,,,,,,,,,,,,,,,,,,,,,,,,,
,,,,,40726,2021-05-09_22h58.59.387,judgeSpeechMusic_20210407_logNormShiftAmp,2020.1.2,Win32,60,1,1,0.25161,0,4,4,4,1,stimuli/screen_quiet.wav,stimuli/screen_antiphase.wav,stimuli/screen_origin.wav,1,,,,,,,,,,,,,,,,,,,,,,,,,,
,,,,,40726,2021-05-09_22h58.59.387,judgeSpeechMusic_20210407_logNormShiftAmp,2020.1.2,Win32,60,1,1,0.204375,0,5,5,5,1,stimuli/screen_quiet.wav,stimuli/screen_origin.wav,stimuli/screen_antiphase.wav,1,,,,,,,,,,,,,,,,,,,,,,,,,,
,,,,,40726,2021-05-09_22h58.59.387,judgeSpeechMusic_20210407_logNormShiftAmp,2020.1.2,Win32,60,,,,,,,,,,,,,2,15.64265,,0,0,0,0,0,1,stimuli/stim_20210407_power2amp/equal_lnn_AM_training1.5Hz.m4a,,,,,,,,,,,,,,,,
,,,,,40726,2021-05-09_22h58.59.387,judgeSpeechMusic_20210407_logNormShiftAmp,2020.1.2,Win32,60,,,,,,,,,,,,,2,7.319795,,0,0,1,1,2,1,stimuli/stim_20210407_power2amp/equal_lnn_AM_training3.9Hz.m4a,,,,,,,,,,,,,,,,
,,,,,40726,2021-05-09_22h58.59.387,judgeSpeechMusic_20210407_logNormShiftAmp,2020.1.2,Win32,60,,,,,,,,,,,,,2,6.03025,4,1,0,2,2,3,1,stimuli/stim_20210407_power2amp/equal_lnn_AM_training5.1Hz.m4a,4.40305,,,,,,,,,,,,,,,
,,,,,40726,2021-05-09_22h58.59.387,judgeSpeechMusic_20210407_logNormShiftAmp,2020.1.2,Win32,60,,,,,,,,,,,,,1,6.65021,,0,0,3,3,1,1,stimuli/stim_20210407_power2amp/equal_lnn_AM_training2.7Hz.m4a,,,,,,,,,,,,,,,,
,,,,,40726,2021-05-09_22h58.59.387,judgeSpeechMusic_20210407_logNormShiftAmp,2020.1.2,Win32,60,,,,,,,,,,,,,,,,,,,,,,,,space,2.731175,1,10.930435,,0,0,0,0,88,1,stimuli/stim_20210407_power2amp/equal_lnn_AM3.6Hz_94.m4a,,,
,,,,,40726,2021-05-09_22h58.59.387,judgeSpeechMusic_20210407_logNormShiftAmp,2020.1.2,Win32,60,,,,,,,,,,,,,,,,,,,,,,,,,,2,6.498075,,0,0,1,1,74,1,stimuli/stim_20210407_power2amp/equal_lnn_AM3Hz_40.m4a,,,
,,,,,40726,2021-05-09_22h58.59.387,judgeSpeechMusic_20210407_logNormShiftAmp,2020.1.2,Win32,60,,,,,,,,,,,,,,,,,,,,,,,,,,1,6.16969,,0,0,2,2,27,1,stimuli/stim_20210407_power2amp/equal_lnn_AM1.2Hz_33.m4a,,,
,,,,,40726,2021-05-09_22h58.59.387,judgeSpeechMusic_20210407_logNormShiftAmp,2020.1.2,Win32,60,,,,,,,,,,,,,,,,,,,,,,,,,,1,5.683285,,0,0,3,3,24,1,stimuli/stim_20210407_power2amp/equal_lnn_AM1.2Hz_80.m4a,,,
,,,,,40726,2021-05-09_22h58.59.387,judgeSpeechMusic_20210407_logNormShiftAmp,2020.1.2,Win32,60,,,,,,,,,,,,,,,,,,,,,,,,,,2,5.98674,,0,0,4,4,22,1,stimuli/stim_20210407_power2amp/equal_lnn_AM1.2Hz_38.m4a,,,
,,,,,40726,2021-05-09_22h58.59.387,judgeSpeechMusic_20210407_logNormShiftAmp,2020.1.2,Win32,60,,,,,,,,,,,,,,,,,,,,,,,,,,1,5.97515,,0,0,5,5,146,1,stimuli/stim_20210407_power2amp/equal_lnn_AM6Hz_10.m4a,,,
,,,,,40726,2021-05-09_22h58.59.387,judgeSpeechMusic_20210407_logNormShiftAmp,2020.1.2,Win32,60,,,,,,,,,,,,,,,,,,,,,,,,,,2,6.852,,0,0,6,6,84,1,stimuli/stim_20210407_power2amp/equal_lnn_AM3.6Hz_92.m4a,,,
,,,,,40726,2021-05-09_22h58.59.387,judgeSpeechMusic_20210407_logNormShiftAmp,2020.1.2,Win32,60,,,,,,,,,,,,,,,,,,,,,,,,,,1,7.271635,,0,0,7,7,51,1,stimuli/stim_20210407_power2amp/equal_lnn_AM2.4Hz_38.m4a,,,
,,,,,40726,2021-05-09_22h58.59.387,judgeSpeechMusic_20210407_logNormShiftAmp,2020.1.2,Win32,60,,,,,,,,,,,,,,,,,,,,,,,,,,1,9.22935,,0,0,8,8,90,1,stimuli/stim_20210407_power2amp/equal_lnn_AM4.2Hz_90.m4a,,,
,,,,,40726,2021-05-09_22h58.59.387,judgeSpeechMusic_20210407_logNormShiftAmp,2020.1.2,Win32,60,,,,,,,,,,,,,,,,,,,,,,,,,,1,7.71505,,0,0,9,9,2,1,stimuli/stim_20210407_power2amp/equal_lnn_AM0.6Hz_39.m4a,,,
,,,,,40726,2021-05-09_22h58.59.387,judgeSpeechMusic_20210407_logNormShiftAmp,2020.1.2,Win32,60,,,,,,,,,,,,,,,,,,,,,,,,,,2,7.045965,,0,0,10,10,46,1,stimuli/stim_20210407_power2amp/equal_lnn_AM2.4Hz_72.m4a,,,
,,,,,40726,2021-05-09_22h58.59.387,judgeSpeechMusic_20210407_logNormShiftAmp,2020.1.2,Win32,60,,,,,,,,,,,,,,,,,,,,,,,,,,1,6.576085,,0,0,11,11,3,1,stimuli/stim_20210407_power2amp/equal_lnn_AM0.6Hz_87.m4a,,,
,,,,,40726,2021-05-09_22h58.59.387,judgeSpeechMusic_20210407_logNormShiftAmp,2020.1.2,Win32,60,,,,,,,,,,,,,,,,,,,,,,,,,,1,5.611925,,0,0,12,12,122,1,stimuli/stim_20210407_power2amp/equal_lnn_AM5.4Hz_17.m4a,,,
,,,,,40726,2021-05-09_22h58.59.387,judgeSpeechMusic_20210407_logNormShiftAmp,2020.1.2,Win32,60,,,,,,,,,,,,,,,,,,,,,,,,,,2,8.197495,,0,0,13,13,112,1,stimuli/stim_20210407_power2amp/equal_lnn_AM4.8Hz_14.m4a,,,
,,,,,40726,2021-05-09_22h58.59.387,judgeSpeechMusic_20210407_logNormShiftAmp,2020.1.2,Win32,60,,,,,,,,,,,,,,,,,,,,,,,,,,2,5.69924,,0,0,14,14,79,1,stimuli/stim_20210407_power2amp/equal_lnn_AM3.6Hz_30.m4a,,,
,,,,,40726,2021-05-09_22h58.59.387,judgeSpeechMusic_20210407_logNormShiftAmp,2020.1.2,Win32,60,,,,,,,,,,,,,,,,,,,,,,,,,,2,6.34349,,0,0,15,15,145,1,stimuli/stim_20210407_power2amp/equal_lnn_AM6Hz_46.m4a,,,
,,,,,40726,2021-05-09_22h58.59.387,judgeSpeechMusic_20210407_logNormShiftAmp,2020.1.2,Win32,60,,,,,,,,,,,,,,,,,,,,,,,,,,1,12.739665,,0,0,16,16,58,1,stimuli/stim_20210407_power2amp/equal_lnn_AM2.4Hz_48.m4a,,,
,,,,,40726,2021-05-09_22h58.59.387,judgeSpeechMusic_20210407_logNormShiftAmp,2020.1.2,Win32,60,,,,,,,,,,,,,,,,,,,,,,,,,,1,7.634355,,0,0,17,17,17,1,stimuli/stim_20210407_power2amp/equal_lnn_AM1.2Hz_83.m4a,,,
,,,,,40726,2021-05-09_22h58.59.387,judgeSpeechMusic_20210407_logNormShiftAmp,2020.1.2,Win32,60,,,,,,,,,,,,,,,,,,,,,,,,,,2,7.53286,,0,0,18,18,20,1,stimuli/stim_20210407_power2amp/equal_lnn_AM1.2Hz_12.m4a,,,
,,,,,40726,2021-05-09_22h58.59.387,judgeSpeechMusic_20210407_logNormShiftAmp,2020.1.2,Win32,60,,,,,,,,,,,,,,,,,,,,,,,,,,2,5.76407,,0,0,19,19,124,1,stimuli/stim_20210407_power2amp/equal_lnn_AM5.4Hz_89.m4a,,,
,,,,,40726,2021-05-09_22h58.59.387,judgeSpeechMusic_20210407_logNormShiftAmp,2020.1.2,Win32,60,,,,,,,,,,,,,,,,,,,,,,,,,,2,6.30274,,0,0,20,20,57,1,stimuli/stim_20210407_power2amp/equal_lnn_AM2.4Hz_73.m4a,,,
,,,,,40726,2021-05-09_22h58.59.387,judgeSpeechMusic_20210407_logNormShiftAmp,2020.1.2,Win32,60,,,,,,,,,,,,,,,,,,,,,,,,,,1,5.39176,,0,0,21,21,143,1,stimuli/stim_20210407_power2amp/equal_lnn_AM6Hz_58.m4a,,,
,,,,,40726,2021-05-09_22h58.59.387,judgeSpeechMusic_20210407_logNormShiftAmp,2020.1.2,Win32,60,,,,,,,,,,,,,,,,,,,,,,,,,,1,5.779,,0,0,22,22,53,1,stimuli/stim_20210407_power2amp/equal_lnn_AM2.4Hz_35.m4a,,,
,,,,,40726,2021-05-09_22h58.59.387,judgeSpeechMusic_20210407_logNormShiftAmp,2020.1.2,Win32,60,,,,,,,,,,,,,,,,,,,,,,,,,,1,5.881405,,0,0,23,23,12,1,stimuli/stim_20210407_power2amp/equal_lnn_AM0.6Hz_7.m4a,,,
,,,,,40726,2021-05-09_22h58.59.387,judgeSpeechMusic_20210407_logNormShiftAmp,2020.1.2,Win32,60,,,,,,,,,,,,,,,,,,,,,,,,,,2,7.447645,,0,0,24,24,104,1,stimuli/stim_20210407_power2amp/equal_lnn_AM4.2Hz_45.m4a,,,
,,,,,40726,2021-05-09_22h58.59.387,judgeSpeechMusic_20210407_logNormShiftAmp,2020.1.2,Win32,60,,,,,,,,,,,,,,,,,,,,,,,,,,2,8.483285,,0,0,25,25,110,1,stimuli/stim_20210407_power2amp/equal_lnn_AM4.8Hz_62.m4a,,,
,,,,,40726,2021-05-09_22h58.59.387,judgeSpeechMusic_20210407_logNormShiftAmp,2020.1.2,Win32,60,,,,,,,,,,,,,,,,,,,,,,,,,,1,7.061285,,0,0,26,26,128,1,stimuli/stim_20210407_power2amp/equal_lnn_AM5.4Hz_24.m4a,,,
,,,,,40726,2021-05-09_22h58.59.387,judgeSpeechMusic_20210407_logNormShiftAmp,2020.1.2,Win32,60,,,,,,,,,,,,,,,,,,,,,,,,,,2,8.38261,,0,0,27,27,62,1,stimuli/stim_20210407_power2amp/equal_lnn_AM3Hz_54.m4a,,,
,,,,,40726,2021-05-09_22h58.59.387,judgeSpeechMusic_20210407_logNormShiftAmp,2020.1.2,Win32,60,,,,,,,,,,,,,,,,,,,,,,,,,,1,5.34041,,0,0,28,28,42,1,stimuli/stim_20210407_power2amp/equal_lnn_AM1.8Hz_21.m4a,,,
,,,,,40726,2021-05-09_22h58.59.387,judgeSpeechMusic_20210407_logNormShiftAmp,2020.1.2,Win32,60,,,,,,,,,,,,,,,,,,,,,,,,,,1,5.69777,,0,0,29,29,97,1,stimuli/stim_20210407_power2amp/equal_lnn_AM4.2Hz_83.m4a,,,
,,,,,40726,2021-05-09_22h58.59.387,judgeSpeechMusic_20210407_logNormShiftAmp,2020.1.2,Win32,60,,,,,,,,,,,,,,,,,,,,,,,,,,1,6.510975,,0,0,30,30,114,1,stimuli/stim_20210407_power2amp/equal_lnn_AM4.8Hz_74.m4a,,,
,,,,,40726,2021-05-09_22h58.59.387,judgeSpeechMusic_20210407_logNormShiftAmp,2020.1.2,Win32,60,,,,,,,,,,,,,,,,,,,,,,,,,,1,6.386795,,0,0,31,31,54,1,stimuli/stim_20210407_power2amp/equal_lnn_AM2.4Hz_76.m4a,,,
,,,,,40726,2021-05-09_22h58.59.387,judgeSpeechMusic_20210407_logNormShiftAmp,2020.1.2,Win32,60,,,,,,,,,,,,,,,,,,,,,,,,,,1,6.224995,,0,0,32,32,16,1,stimuli/stim_20210407_power2amp/equal_lnn_AM1.2Hz_46.m4a,,,
,,,,,40726,2021-05-09_22h58.59.387,judgeSpeechMusic_20210407_logNormShiftAmp,2020.1.2,Win32,60,,,,,,,,,,,,,,,,,,,,,,,,,,1,6.496405,,0,0,33,33,60,1,stimuli/stim_20210407_power2amp/equal_lnn_AM3Hz_30.m4a,,,
,,,,,40726,2021-05-09_22h58.59.387,judgeSpeechMusic_20210407_logNormShiftAmp,2020.1.2,Win32,60,,,,,,,,,,,,,,,,,,,,,,,,,,2,7.13462,,0,0,34,34,126,1,stimuli/stim_20210407_power2amp/equal_lnn_AM5.4Hz_62.m4a,,,
,,,,,40726,2021-05-09_22h58.59.387,judgeSpeechMusic_20210407_logNormShiftAmp,2020.1.2,Win32,60,,,,,,,,,,,,,,,,,,,,,,,,,,1,6.910165,,0,0,35,35,7,1,stimuli/stim_20210407_power2amp/equal_lnn_AM0.6Hz_74.m4a,,,
,,,,,40726,2021-05-09_22h58.59.387,judgeSpeechMusic_20210407_logNormShiftAmp,2020.1.2,Win32,60,,,,,,,,,,,,,,,,,,,,,,,,,,2,6.57805,,0,0,36,36,127,1,stimuli/stim_20210407_power2amp/equal_lnn_AM5.4Hz_28.m4a,,,
,,,,,40726,2021-05-09_22h58.59.387,judgeSpeechMusic_20210407_logNormShiftAmp,2020.1.2,Win32,60,,,,,,,,,,,,,,,,,,,,,,,,,,2,6.01485,,0,0,37,37,48,1,stimuli/stim_20210407_power2amp/equal_lnn_AM2.4Hz_71.m4a,,,
,,,,,40726,2021-05-09_22h58.59.387,judgeSpeechMusic_20210407_logNormShiftAmp,2020.1.2,Win32,60,,,,,,,,,,,,,,,,,,,,,,,,,,1,5.8671,2,1,0,38,38,5,1,stimuli/stim_20210407_power2amp/equal_lnn_AM0.6Hz_12.m4a,0.61086,,
,,,,,40726,2021-05-09_22h58.59.387,judgeSpeechMusic_20210407_logNormShiftAmp,2020.1.2,Win32,60,,,,,,,,,,,,,,,,,,,,,,,,,,1,6.349895,,0,0,39,39,18,1,stimuli/stim_20210407_power2amp/equal_lnn_AM1.2Hz_62.m4a,,,
,,,,,40726,2021-05-09_22h58.59.387,judgeSpeechMusic_20210407_logNormShiftAmp,2020.1.2,Win32,60,,,,,,,,,,,,,,,,,,,,,,,,,,2,6.522565,,0,0,40,40,83,1,stimuli/stim_20210407_power2amp/equal_lnn_AM3.6Hz_43.m4a,,,
,,,,,40726,2021-05-09_22h58.59.387,judgeSpeechMusic_20210407_logNormShiftAmp,2020.1.2,Win32,60,,,,,,,,,,,,,,,,,,,,,,,,,,1,6.869865,,0,0,41,41,80,1,stimuli/stim_20210407_power2amp/equal_lnn_AM3.6Hz_93.m4a,,,
,,,,,40726,2021-05-09_22h58.59.387,judgeSpeechMusic_20210407_logNormShiftAmp,2020.1.2,Win32,60,,,,,,,,,,,,,,,,,,,,,,,,,,2,6.562055,,0,0,42,42,85,1,stimuli/stim_20210407_power2amp/equal_lnn_AM3.6Hz_47.m4a,,,
,,,,,40726,2021-05-09_22h58.59.387,judgeSpeechMusic_20210407_logNormShiftAmp,2020.1.2,Win32,60,,,,,,,,,,,,,,,,,,,,,,,,,,1,6.3728,,0,0,43,43,147,1,stimuli/stim_20210407_power2amp/equal_lnn_AM6Hz_11.m4a,,,
,,,,,40726,2021-05-09_22h58.59.387,judgeSpeechMusic_20210407_logNormShiftAmp,2020.1.2,Win32,60,,,,,,,,,,,,,,,,,,,,,,,,,,2,5.567895,,0,0,44,44,108,1,stimuli/stim_20210407_power2amp/equal_lnn_AM4.8Hz_25.m4a,,,
,,,,,40726,2021-05-09_22h58.59.387,judgeSpeechMusic_20210407_logNormShiftAmp,2020.1.2,Win32,60,,,,,,,,,,,,,,,,,,,,,,,,,,1,5.6184,,0,0,45,45,30,1,stimuli/stim_20210407_power2amp/equal_lnn_AM1.8Hz_81.m4a,,,
,,,,,40726,2021-05-09_22h58.59.387,judgeSpeechMusic_20210407_logNormShiftAmp,2020.1.2,Win32,60,,,,,,,,,,,,,,,,,,,,,,,,,,2,9.6201,,0,0,46,46,105,1,stimuli/stim_20210407_power2amp/equal_lnn_AM4.8Hz_94.m4a,,,
,,,,,40726,2021-05-09_22h58.59.387,judgeSpeechMusic_20210407_logNormShiftAmp,2020.1.2,Win32,60,,,,,,,,,,,,,,,,,,,,,,,,,,1,5.267325,,0,0,47,47,138,1,stimuli/stim_20210407_power2amp/equal_lnn_AM6Hz_8.m4a,,,
,,,,,40726,2021-05-09_22h58.59.387,judgeSpeechMusic_20210407_logNormShiftAmp,2020.1.2,Win32,60,,,,,,,,,,,,,,,,,,,,,,,,,,1,6.51834,,0,0,48,48,39,1,stimuli/stim_20210407_power2amp/equal_lnn_AM1.8Hz_5.m4a,,,
,,,,,40726,2021-05-09_22h58.59.387,judgeSpeechMusic_20210407_logNormShiftAmp,2020.1.2,Win32,60,,,,,,,,,,,,,,,,,,,,,,,,,,2,5.900795,,0,0,49,49,87,1,stimuli/stim_20210407_power2amp/equal_lnn_AM3.6Hz_7.m4a,,,
,,,,,40726,2021-05-09_22h58.59.387,judgeSpeechMusic_20210407_logNormShiftAmp,2020.1.2,Win32,60,,,,,,,,,,,,,,,,,,,,,,,,,,1,8.098825,,0,0,50,50,35,1,stimuli/stim_20210407_power2amp/equal_lnn_AM1.8Hz_70.m4a,,,
,,,,,40726,2021-05-09_22h58.59.387,judgeSpeechMusic_20210407_logNormShiftAmp,2020.1.2,Win32,60,,,,,,,,,,,,,,,,,,,,,,,,,,1,6.147955,,0,0,51,51,31,1,stimuli/stim_20210407_power2amp/equal_lnn_AM1.8Hz_4.m4a,,,
,,,,,40726,2021-05-09_22h58.59.387,judgeSpeechMusic_20210407_logNormShiftAmp,2020.1.2,Win32,60,,,,,,,,,,,,,,,,,,,,,,,,,,2,5.265585,,0,0,52,52,133,1,stimuli/stim_20210407_power2amp/equal_lnn_AM5.4Hz_15.m4a,,,
,,,,,40726,2021-05-09_22h58.59.387,judgeSpeechMusic_20210407_logNormShiftAmp,2020.1.2,Win32,60,,,,,,,,,,,,,,,,,,,,,,,,,,2,5.8933,,0,0,53,53,129,1,stimuli/stim_20210407_power2amp/equal_lnn_AM5.4Hz_13.m4a,,,
,,,,,40726,2021-05-09_22h58.59.387,judgeSpeechMusic_20210407_logNormShiftAmp,2020.1.2,Win32,60,,,,,,,,,,,,,,,,,,,,,,,,,,1,5.77231,,0,0,54,54,11,1,stimuli/stim_20210407_power2amp/equal_lnn_AM0.6Hz_75.m4a,,,
,,,,,40726,2021-05-09_22h58.59.387,judgeSpeechMusic_20210407_logNormShiftAmp,2020.1.2,Win32,60,,,,,,,,,,,,,,,,,,,,,,,,,,2,6.405675,,0,0,55,55,115,1,stimuli/stim_20210407_power2amp/equal_lnn_AM4.8Hz_7.m4a,,,
,,,,,40726,2021-05-09_22h58.59.387,judgeSpeechMusic_20210407_logNormShiftAmp,2020.1.2,Win32,60,,,,,,,,,,,,,,,,,,,,,,,,,,2,5.65501,,0,0,56,56,96,1,stimuli/stim_20210407_power2amp/equal_lnn_AM4.2Hz_36.m4a,,,
,,,,,40726,2021-05-09_22h58.59.387,judgeSpeechMusic_20210407_logNormShiftAmp,2020.1.2,Win32,60,,,,,,,,,,,,,,,,,,,,,,,,,,1,5.45766,,0,0,57,57,44,1,stimuli/stim_20210407_power2amp/equal_lnn_AM1.8Hz_83.m4a,,,
,,,,,40726,2021-05-09_22h58.59.387,judgeSpeechMusic_20210407_logNormShiftAmp,2020.1.2,Win32,60,,,,,,,,,,,,,,,,,,,,,,,,,,1,8.19273,1,1,0,58,58,73,1,stimuli/stim_20210407_power2amp/equal_lnn_AM3Hz_22.m4a,0.67503,,
,,,,,40726,2021-05-09_22h58.59.387,judgeSpeechMusic_20210407_logNormShiftAmp,2020.1.2,Win32,60,,,,,,,,,,,,,,,,,,,,,,,,,,2,6.86289,,0,0,59,59,119,1,stimuli/stim_20210407_power2amp/equal_lnn_AM4.8Hz_38.m4a,,,
,,,,,40726,2021-05-09_22h58.59.387,judgeSpeechMusic_20210407_logNormShiftAmp,2020.1.2,Win32,60,,,,,,,,,,,,,,,,,,,,,,,,,,2,7.066865,,0,0,60,60,148,1,stimuli/stim_20210407_power2amp/equal_lnn_AM6Hz_49.m4a,,,
,,,,,40726,2021-05-09_22h58.59.387,judgeSpeechMusic_20210407_logNormShiftAmp,2020.1.2,Win32,60,,,,,,,,,,,,,,,,,,,,,,,,,,2,6.52705,,0,0,61,61,72,1,stimuli/stim_20210407_power2amp/equal_lnn_AM3Hz_3.m4a,,,
,,,,,40726,2021-05-09_22h58.59.387,judgeSpeechMusic_20210407_logNormShiftAmp,2020.1.2,Win32,60,,,,,,,,,,,,,,,,,,,,,,,,,,2,10.714755,,0,0,62,62,43,1,stimuli/stim_20210407_power2amp/equal_lnn_AM1.8Hz_40.m4a,,,
,,,,,40726,2021-05-09_22h58.59.387,judgeSpeechMusic_20210407_logNormShiftAmp,2020.1.2,Win32,60,,,,,,,,,,,,,,,,,,,,,,,,,,1,6.13451,,0,0,63,63,106,1,stimuli/stim_20210407_power2amp/equal_lnn_AM4.8Hz_16.m4a,,,
,,,,,40726,2021-05-09_22h58.59.387,judgeSpeechMusic_20210407_logNormShiftAmp,2020.1.2,Win32,60,,,,,,,,,,,,,,,,,,,,,,,,,,1,7.841305,,0,0,64,64,65,1,stimuli/stim_20210407_power2amp/equal_lnn_AM3Hz_12.m4a,,,
,,,,,40726,2021-05-09_22h58.59.387,judgeSpeechMusic_20210407_logNormShiftAmp,2020.1.2,Win32,60,,,,,,,,,,,,,,,,,,,,,,,,,,1,5.75358,,0,0,65,65,9,1,stimuli/stim_20210407_power2amp/equal_lnn_AM0.6Hz_97.m4a,,,
,,,,,40726,2021-05-09_22h58.59.387,judgeSpeechMusic_20210407_logNormShiftAmp,2020.1.2,Win32,60,,,,,,,,,,,,,,,,,,,,,,,,,,2,7.022605,,0,0,66,66,134,1,stimuli/stim_20210407_power2amp/equal_lnn_AM5.4Hz_26.m4a,,,
,,,,,40726,2021-05-09_22h58.59.387,judgeSpeechMusic_20210407_logNormShiftAmp,2020.1.2,Win32,60,,,,,,,,,,,,,,,,,,,,,,,,,,2,14.51712,,0,0,67,67,89,1,stimuli/stim_20210407_power2amp/equal_lnn_AM3.6Hz_98.m4a,,,
,,,,,40726,2021-05-09_22h58.59.387,judgeSpeechMusic_20210407_logNormShiftAmp,2020.1.2,Win32,60,,,,,,,,,,,,,,,,,,,,,,,,,,1,6.44271,,0,0,68,68,101,1,stimuli/stim_20210407_power2amp/equal_lnn_AM4.2Hz_22.m4a,,,
,,,,,40726,2021-05-09_22h58.59.387,judgeSpeechMusic_20210407_logNormShiftAmp,2020.1.2,Win32,60,,,,,,,,,,,,,,,,,,,,,,,,,,1,5.786745,,0,0,69,69,118,1,stimuli/stim_20210407_power2amp/equal_lnn_AM4.8Hz_88.m4a,,,
,,,,,40726,2021-05-09_22h58.59.387,judgeSpeechMusic_20210407_logNormShiftAmp,2020.1.2,Win32,60,,,,,,,,,,,,,,,,,,,,,,,,,,1,9.048515,,0,0,70,70,130,1,stimuli/stim_20210407_power2amp/equal_lnn_AM5.4Hz_91.m4a,,,
,,,,,40726,2021-05-09_22h58.59.387,judgeSpeechMusic_20210407_logNormShiftAmp,2020.1.2,Win32,60,,,,,,,,,,,,,,,,,,,,,,,,,,1,7.941905,,0,0,71,71,55,1,stimuli/stim_20210407_power2amp/equal_lnn_AM2.4Hz_85.m4a,,,
,,,,,40726,2021-05-09_22h58.59.387,judgeSpeechMusic_20210407_logNormShiftAmp,2020.1.2,Win32,60,,,,,,,,,,,,,,,,,,,,,,,,,,2,6.95718,,0,0,72,72,29,1,stimuli/stim_20210407_power2amp/equal_lnn_AM1.2Hz_36.m4a,,,
,,,,,40726,2021-05-09_22h58.59.387,judgeSpeechMusic_20210407_logNormShiftAmp,2020.1.2,Win32,60,,,,,,,,,,,,,,,,,,,,,,,,,,2,6.86045,,0,0,73,73,56,1,stimuli/stim_20210407_power2amp/equal_lnn_AM2.4Hz_70.m4a,,,
,,,,,40726,2021-05-09_22h58.59.387,judgeSpeechMusic_20210407_logNormShiftAmp,2020.1.2,Win32,60,,,,,,,,,,,,,,,,,,,,,,,,,,2,6.391465,,0,0,74,74,111,1,stimuli/stim_20210407_power2amp/equal_lnn_AM4.8Hz_82.m4a,,,
,,,,,40726,2021-05-09_22h58.59.387,judgeSpeechMusic_20210407_logNormShiftAmp,2020.1.2,Win32,60,,,,,,,,,,,,,,,,,,,,,,,,,,1,5.229275,,0,0,75,75,135,1,stimuli/stim_20210407_power2amp/equal_lnn_AM6Hz_42.m4a,,,
,,,,,40726,2021-05-09_22h58.59.387,judgeSpeechMusic_20210407_logNormShiftAmp,2020.1.2,Win32,60,,,,,,,,,,,,,,,,,,,,,,,,,,1,6.67385,,0,0,76,76,59,1,stimuli/stim_20210407_power2amp/equal_lnn_AM2.4Hz_66.m4a,,,
,,,,,40726,2021-05-09_22h58.59.387,judgeSpeechMusic_20210407_logNormShiftAmp,2020.1.2,Win32,60,,,,,,,,,,,,,,,,,,,,,,,,,,1,6.94225,,0,0,77,77,15,1,stimuli/stim_20210407_power2amp/equal_lnn_AM1.2Hz_6.m4a,,,
,,,,,40726,2021-05-09_22h58.59.387,judgeSpeechMusic_20210407_logNormShiftAmp,2020.1.2,Win32,60,,,,,,,,,,,,,,,,,,,,,,,,,,2,6.86199,,0,0,78,78,121,1,stimuli/stim_20210407_power2amp/equal_lnn_AM5.4Hz_98.m4a,,,
,,,,,40726,2021-05-09_22h58.59.387,judgeSpeechMusic_20210407_logNormShiftAmp,2020.1.2,Win32,60,,,,,,,,,,,,,,,,,,,,,,,,,,1,6.343775,2,1,0,79,79,6,1,stimuli/stim_20210407_power2amp/equal_lnn_AM0.6Hz_40.m4a,0.524085,,
,,,,,40726,2021-05-09_22h58.59.387,judgeSpeechMusic_20210407_logNormShiftAmp,2020.1.2,Win32,60,,,,,,,,,,,,,,,,,,,,,,,,,,1,6.09784,,0,0,80,80,14,1,stimuli/stim_20210407_power2amp/equal_lnn_AM0.6Hz_13.m4a,,,
,,,,,40726,2021-05-09_22h58.59.387,judgeSpeechMusic_20210407_logNormShiftAmp,2020.1.2,Win32,60,,,,,,,,,,,,,,,,,,,,,,,,,,2,6.136985,,0,0,81,81,141,1,stimuli/stim_20210407_power2amp/equal_lnn_AM6Hz_22.m4a,,,
,,,,,40726,2021-05-09_22h58.59.387,judgeSpeechMusic_20210407_logNormShiftAmp,2020.1.2,Win32,60,,,,,,,,,,,,,,,,,,,,,,,,,,1,7.36736,,0,0,82,82,8,1,stimuli/stim_20210407_power2amp/equal_lnn_AM0.6Hz_93.m4a,,,
,,,,,40726,2021-05-09_22h58.59.387,judgeSpeechMusic_20210407_logNormShiftAmp,2020.1.2,Win32,60,,,,,,,,,,,,,,,,,,,,,,,,,,2,6.816935,,0,0,83,83,86,1,stimuli/stim_20210407_power2amp/equal_lnn_AM3.6Hz_5.m4a,,,
,,,,,40726,2021-05-09_22h58.59.387,judgeSpeechMusic_20210407_logNormShiftAmp,2020.1.2,Win32,60,,,,,,,,,,,,,,,,,,,,,,,,,,1,8.28048,,0,0,84,84,4,1,stimuli/stim_20210407_power2amp/equal_lnn_AM0.6Hz_95.m4a,,,
,,,,,40726,2021-05-09_22h58.59.387,judgeSpeechMusic_20210407_logNormShiftAmp,2020.1.2,Win32,60,,,,,,,,,,,,,,,,,,,,,,,,,,2,7.732615,,0,0,85,85,139,1,stimuli/stim_20210407_power2amp/equal_lnn_AM6Hz_48.m4a,,,
,,,,,40726,2021-05-09_22h58.59.387,judgeSpeechMusic_20210407_logNormShiftAmp,2020.1.2,Win32,60,,,,,,,,,,,,,,,,,,,,,,,,,,2,6.78384,,0,0,86,86,137,1,stimuli/stim_20210407_power2amp/equal_lnn_AM6Hz_21.m4a,,,
,,,,,40726,2021-05-09_22h58.59.387,judgeSpeechMusic_20210407_logNormShiftAmp,2020.1.2,Win32,60,,,,,,,,,,,,,,,,,,,,,,,,,,1,5.7286,,0,0,87,87,45,1,stimuli/stim_20210407_power2amp/equal_lnn_AM2.4Hz_22.m4a,,,
,,,,,40726,2021-05-09_22h58.59.387,judgeSpeechMusic_20210407_logNormShiftAmp,2020.1.2,Win32,60,,,,,,,,,,,,,,,,,,,,,,,,,,1,5.73911,,0,0,88,88,113,1,stimuli/stim_20210407_power2amp/equal_lnn_AM4.8Hz_12.m4a,,,
,,,,,40726,2021-05-09_22h58.59.387,judgeSpeechMusic_20210407_logNormShiftAmp,2020.1.2,Win32,60,,,,,,,,,,,,,,,,,,,,,,,,,,1,6.17448,,0,0,89,89,64,1,stimuli/stim_20210407_power2amp/equal_lnn_AM3Hz_34.m4a,,,
,,,,,40726,2021-05-09_22h58.59.387,judgeSpeechMusic_20210407_logNormShiftAmp,2020.1.2,Win32,60,,,,,,,,,,,,,,,,,,,,,,,,,,1,5.553935,,0,0,90,90,120,1,stimuli/stim_20210407_power2amp/equal_lnn_AM5.4Hz_44.m4a,,,
,,,,,40726,2021-05-09_22h58.59.387,judgeSpeechMusic_20210407_logNormShiftAmp,2020.1.2,Win32,60,,,,,,,,,,,,,,,,,,,,,,,,,,2,5.99552,,0,0,91,91,76,1,stimuli/stim_20210407_power2amp/equal_lnn_AM3.6Hz_2.m4a,,,
,,,,,40726,2021-05-09_22h58.59.387,judgeSpeechMusic_20210407_logNormShiftAmp,2020.1.2,Win32,60,,,,,,,,,,,,,,,,,,,,,,,,,,2,5.619225,,0,0,92,92,100,1,stimuli/stim_20210407_power2amp/equal_lnn_AM4.2Hz_47.m4a,,,
,,,,,40726,2021-05-09_22h58.59.387,judgeSpeechMusic_20210407_logNormShiftAmp,2020.1.2,Win32,60,,,,,,,,,,,,,,,,,,,,,,,,,,1,6.1591,,0,0,93,93,52,1,stimuli/stim_20210407_power2amp/equal_lnn_AM2.4Hz_37.m4a,,,
,,,,,40726,2021-05-09_22h58.59.387,judgeSpeechMusic_20210407_logNormShiftAmp,2020.1.2,Win32,60,,,,,,,,,,,,,,,,,,,,,,,,,,1,7.001165,,0,0,94,94,47,1,stimuli/stim_20210407_power2amp/equal_lnn_AM2.4Hz_62.m4a,,,
,,,,,40726,2021-05-09_22h58.59.387,judgeSpeechMusic_20210407_logNormShiftAmp,2020.1.2,Win32,60,,,,,,,,,,,,,,,,,,,,,,,,,,2,6.075175,,0,0,95,95,94,1,stimuli/stim_20210407_power2amp/equal_lnn_AM4.2Hz_86.m4a,,,
,,,,,40726,2021-05-09_22h58.59.387,judgeSpeechMusic_20210407_logNormShiftAmp,2020.1.2,Win32,60,,,,,,,,,,,,,,,,,,,,,,,,,,2,5.892345,,0,0,96,96,109,1,stimuli/stim_20210407_power2amp/equal_lnn_AM4.8Hz_87.m4a,,,
,,,,,40726,2021-05-09_22h58.59.387,judgeSpeechMusic_20210407_logNormShiftAmp,2020.1.2,Win32,60,,,,,,,,,,,,,,,,,,,,,,,,,,1,5.67841,,0,0,97,97,49,1,stimuli/stim_20210407_power2amp/equal_lnn_AM2.4Hz_31.m4a,,,
,,,,,40726,2021-05-09_22h58.59.387,judgeSpeechMusic_20210407_logNormShiftAmp,2020.1.2,Win32,60,,,,,,,,,,,,,,,,,,,,,,,,,,1,6.986445,,0,0,98,98,25,1,stimuli/stim_20210407_power2amp/equal_lnn_AM1.2Hz_76.m4a,,,
,,,,,40726,2021-05-09_22h58.59.387,judgeSpeechMusic_20210407_logNormShiftAmp,2020.1.2,Win32,60,,,,,,,,,,,,,,,,,,,,,,,,,,2,5.348065,,0,0,99,99,98,1,stimuli/stim_20210407_power2amp/equal_lnn_AM4.2Hz_48.m4a,,,
,,,,,40726,2021-05-09_22h58.59.387,judgeSpeechMusic_20210407_logNormShiftAmp,2020.1.2,Win32,60,,,,,,,,,,,,,,,,,,,,,,,,,,1,8.39994,,0,0,100,100,103,1,stimuli/stim_20210407_power2amp/equal_lnn_AM4.2Hz_87.m4a,,,
,,,,,40726,2021-05-09_22h58.59.387,judgeSpeechMusic_20210407_logNormShiftAmp,2020.1.2,Win32,60,,,,,,,,,,,,,,,,,,,,,,,,,,2,6.896465,1,1,0,101,101,77,1,stimuli/stim_20210407_power2amp/equal_lnn_AM3.6Hz_55.m4a,0.37287,,
,,,,,40726,2021-05-09_22h58.59.387,judgeSpeechMusic_20210407_logNormShiftAmp,2020.1.2,Win32,60,,,,,,,,,,,,,,,,,,,,,,,,,,1,8.98684,,0,0,102,102,37,1,stimuli/stim_20210407_power2amp/equal_lnn_AM1.8Hz_54.m4a,,,
,,,,,40726,2021-05-09_22h58.59.387,judgeSpeechMusic_20210407_logNormShiftAmp,2020.1.2,Win32,60,,,,,,,,,,,,,,,,,,,,,,,,,,1,10.27072,,0,0,103,103,33,1,stimuli/stim_20210407_power2amp/equal_lnn_AM1.8Hz_13.m4a,,,
,,,,,40726,2021-05-09_22h58.59.387,judgeSpeechMusic_20210407_logNormShiftAmp,2020.1.2,Win32,60,,,,,,,,,,,,,,,,,,,,,,,,,,2,6.04289,,0,0,104,104,61,1,stimuli/stim_20210407_power2amp/equal_lnn_AM3Hz_80.m4a,,,
,,,,,40726,2021-05-09_22h58.59.387,judgeSpeechMusic_20210407_logNormShiftAmp,2020.1.2,Win32,60,,,,,,,,,,,,,,,,,,,,,,,,,,1,7.77527,,0,0,105,105,117,1,stimuli/stim_20210407_power2amp/equal_lnn_AM4.8Hz_13.m4a,,,
,,,,,40726,2021-05-09_22h58.59.387,judgeSpeechMusic_20210407_logNormShiftAmp,2020.1.2,Win32,60,,,,,,,,,,,,,,,,,,,,,,,,,,2,5.39456,,0,0,106,106,107,1,stimuli/stim_20210407_power2amp/equal_lnn_AM4.8Hz_51.m4a,,,
,,,,,40726,2021-05-09_22h58.59.387,judgeSpeechMusic_20210407_logNormShiftAmp,2020.1.2,Win32,60,,,,,,,,,,,,,,,,,,,,,,,,,,1,6.38206,,0,0,107,107,13,1,stimuli/stim_20210407_power2amp/equal_lnn_AM0.6Hz_64.m4a,,,
,,,,,40726,2021-05-09_22h58.59.387,judgeSpeechMusic_20210407_logNormShiftAmp,2020.1.2,Win32,60,,,,,,,,,,,,,,,,,,,,,,,,,,1,8.081015,,0,0,108,108,21,1,stimuli/stim_20210407_power2amp/equal_lnn_AM1.2Hz_49.m4a,,,
,,,,,40726,2021-05-09_22h58.59.387,judgeSpeechMusic_20210407_logNormShiftAmp,2020.1.2,Win32,60,,,,,,,,,,,,,,,,,,,,,,,,,,2,5.3081,,0,0,109,109,131,1,stimuli/stim_20210407_power2amp/equal_lnn_AM5.4Hz_38.m4a,,,
,,,,,40726,2021-05-09_22h58.59.387,judgeSpeechMusic_20210407_logNormShiftAmp,2020.1.2,Win32,60,,,,,,,,,,,,,,,,,,,,,,,,,,1,6.172065,,0,0,110,110,40,1,stimuli/stim_20210407_power2amp/equal_lnn_AM1.8Hz_75.m4a,,,
,,,,,40726,2021-05-09_22h58.59.387,judgeSpeechMusic_20210407_logNormShiftAmp,2020.1.2,Win32,60,,,,,,,,,,,,,,,,,,,,,,,,,,1,6.298865,,0,0,111,111,140,1,stimuli/stim_20210407_power2amp/equal_lnn_AM6Hz_30.m4a,,,
,,,,,40726,2021-05-09_22h58.59.387,judgeSpeechMusic_20210407_logNormShiftAmp,2020.1.2,Win32,60,,,,,,,,,,,,,,,,,,,,,,,,,,1,5.493765,,0,0,112,112,32,1,stimuli/stim_20210407_power2amp/equal_lnn_AM1.8Hz_90.m4a,,,
,,,,,40726,2021-05-09_22h58.59.387,judgeSpeechMusic_20210407_logNormShiftAmp,2020.1.2,Win32,60,,,,,,,,,,,,,,,,,,,,,,,,,,2,8.738235,,0,0,113,113,142,1,stimuli/stim_20210407_power2amp/equal_lnn_AM6Hz_12.m4a,,,
,,,,,40726,2021-05-09_22h58.59.387,judgeSpeechMusic_20210407_logNormShiftAmp,2020.1.2,Win32,60,,,,,,,,,,,,,,,,,,,,,,,,,,1,7.15045,,0,0,114,114,1,1,stimuli/stim_20210407_power2amp/equal_lnn_AM0.6Hz_41.m4a,,,
,,,,,40726,2021-05-09_22h58.59.387,judgeSpeechMusic_20210407_logNormShiftAmp,2020.1.2,Win32,60,,,,,,,,,,,,,,,,,,,,,,,,,,2,5.64438,,0,0,115,115,69,1,stimuli/stim_20210407_power2amp/equal_lnn_AM3Hz_16.m4a,,,
,,,,,40726,2021-05-09_22h58.59.387,judgeSpeechMusic_20210407_logNormShiftAmp,2020.1.2,Win32,60,,,,,,,,,,,,,,,,,,,,,,,,,,1,5.72863,,0,0,116,116,0,1,stimuli/stim_20210407_power2amp/equal_lnn_AM0.6Hz_45.m4a,,,
,,,,,40726,2021-05-09_22h58.59.387,judgeSpeechMusic_20210407_logNormShiftAmp,2020.1.2,Win32,60,,,,,,,,,,,,,,,,,,,,,,,,,,1,6.76693,,0,0,117,117,66,1,stimuli/stim_20210407_power2amp/equal_lnn_AM3Hz_8.m4a,,,
,,,,,40726,2021-05-09_22h58.59.387,judgeSpeechMusic_20210407_logNormShiftAmp,2020.1.2,Win32,60,,,,,,,,,,,,,,,,,,,,,,,,,,1,7.835525,,0,0,118,118,26,1,stimuli/stim_20210407_power2amp/equal_lnn_AM1.2Hz_85.m4a,,,
,,,,,40726,2021-05-09_22h58.59.387,judgeSpeechMusic_20210407_logNormShiftAmp,2020.1.2,Win32,60,,,,,,,,,,,,,,,,,,,,,,,,,,1,8.263595,,0,0,119,119,19,1,stimuli/stim_20210407_power2amp/equal_lnn_AM1.2Hz_45.m4a,,,
,,,,,40726,2021-05-09_22h58.59.387,judgeSpeechMusic_20210407_logNormShiftAmp,2020.1.2,Win32,60,,,,,,,,,,,,,,,,,,,,,,,,,,1,7.70776,,0,0,120,120,68,1,stimuli/stim_20210407_power2amp/equal_lnn_AM3Hz_35.m4a,,,
,,,,,40726,2021-05-09_22h58.59.387,judgeSpeechMusic_20210407_logNormShiftAmp,2020.1.2,Win32,60,,,,,,,,,,,,,,,,,,,,,,,,,,1,5.55051,,0,0,121,121,38,1,stimuli/stim_20210407_power2amp/equal_lnn_AM1.8Hz_100.m4a,,,
,,,,,40726,2021-05-09_22h58.59.387,judgeSpeechMusic_20210407_logNormShiftAmp,2020.1.2,Win32,60,,,,,,,,,,,,,,,,,,,,,,,,,,2,6.14785,,0,0,122,122,136,1,stimuli/stim_20210407_power2amp/equal_lnn_AM6Hz_32.m4a,,,
,,,,,40726,2021-05-09_22h58.59.387,judgeSpeechMusic_20210407_logNormShiftAmp,2020.1.2,Win32,60,,,,,,,,,,,,,,,,,,,,,,,,,,2,6.60119,,0,0,123,123,34,1,stimuli/stim_20210407_power2amp/equal_lnn_AM1.8Hz_15.m4a,,,
,,,,,40726,2021-05-09_22h58.59.387,judgeSpeechMusic_20210407_logNormShiftAmp,2020.1.2,Win32,60,,,,,,,,,,,,,,,,,,,,,,,,,,2,9.00746,,0,0,124,124,50,1,stimuli/stim_20210407_power2amp/equal_lnn_AM2.4Hz_82.m4a,,,
,,,,,40726,2021-05-09_22h58.59.387,judgeSpeechMusic_20210407_logNormShiftAmp,2020.1.2,Win32,60,,,,,,,,,,,,,,,,,,,,,,,,,,1,8.265425,,0,0,125,125,23,1,stimuli/stim_20210407_power2amp/equal_lnn_AM1.2Hz_19.m4a,,,
,,,,,40726,2021-05-09_22h58.59.387,judgeSpeechMusic_20210407_logNormShiftAmp,2020.1.2,Win32,60,,,,,,,,,,,,,,,,,,,,,,,,,,2,5.352805,1,1,0,126,126,116,1,stimuli/stim_20210407_power2amp/equal_lnn_AM4.8Hz_91.m4a,0.36472,,
,,,,,40726,2021-05-09_22h58.59.387,judgeSpeechMusic_20210407_logNormShiftAmp,2020.1.2,Win32,60,,,,,,,,,,,,,,,,,,,,,,,,,,2,7.822175,,0,0,127,127,149,1,stimuli/stim_20210407_power2amp/equal_lnn_AM6Hz_84.m4a,,,
,,,,,40726,2021-05-09_22h58.59.387,judgeSpeechMusic_20210407_logNormShiftAmp,2020.1.2,Win32,60,,,,,,,,,,,,,,,,,,,,,,,,,,1,5.27409,,0,0,128,128,102,1,stimuli/stim_20210407_power2amp/equal_lnn_AM4.2Hz_54.m4a,,,
,,,,,40726,2021-05-09_22h58.59.387,judgeSpeechMusic_20210407_logNormShiftAmp,2020.1.2,Win32,60,,,,,,,,,,,,,,,,,,,,,,,,,,2,6.83257,,0,0,129,129,132,1,stimuli/stim_20210407_power2amp/equal_lnn_AM5.4Hz_11.m4a,,,
,,,,,40726,2021-05-09_22h58.59.387,judgeSpeechMusic_20210407_logNormShiftAmp,2020.1.2,Win32,60,,,,,,,,,,,,,,,,,,,,,,,,,,2,7.71567,,0,0,130,130,67,1,stimuli/stim_20210407_power2amp/equal_lnn_AM3Hz_95.m4a,,,
,,,,,40726,2021-05-09_22h58.59.387,judgeSpeechMusic_20210407_logNormShiftAmp,2020.1.2,Win32,60,,,,,,,,,,,,,,,,,,,,,,,,,,2,6.694085,,0,0,131,131,81,1,stimuli/stim_20210407_power2amp/equal_lnn_AM3.6Hz_53.m4a,,,
,,,,,40726,2021-05-09_22h58.59.387,judgeSpeechMusic_20210407_logNormShiftAmp,2020.1.2,Win32,60,,,,,,,,,,,,,,,,,,,,,,,,,,1,5.692565,,0,0,132,132,63,1,stimuli/stim_20210407_power2amp/equal_lnn_AM3Hz_10.m4a,,,
,,,,,40726,2021-05-09_22h58.59.387,judgeSpeechMusic_20210407_logNormShiftAmp,2020.1.2,Win32,60,,,,,,,,,,,,,,,,,,,,,,,,,,2,6.19723,,0,0,133,133,70,1,stimuli/stim_20210407_power2amp/equal_lnn_AM3Hz_5.m4a,,,
,,,,,40726,2021-05-09_22h58.59.387,judgeSpeechMusic_20210407_logNormShiftAmp,2020.1.2,Win32,60,,,,,,,,,,,,,,,,,,,,,,,,,,2,6.61645,,0,0,134,134,92,1,stimuli/stim_20210407_power2amp/equal_lnn_AM4.2Hz_38.m4a,,,
,,,,,40726,2021-05-09_22h58.59.387,judgeSpeechMusic_20210407_logNormShiftAmp,2020.1.2,Win32,60,,,,,,,,,,,,,,,,,,,,,,,,,,1,6.042305,,0,0,135,135,93,1,stimuli/stim_20210407_power2amp/equal_lnn_AM4.2Hz_10.m4a,,,
,,,,,40726,2021-05-09_22h58.59.387,judgeSpeechMusic_20210407_logNormShiftAmp,2020.1.2,Win32,60,,,,,,,,,,,,,,,,,,,,,,,,,,2,6.526415,,0,0,136,136,125,1,stimuli/stim_20210407_power2amp/equal_lnn_AM5.4Hz_73.m4a,,,
,,,,,40726,2021-05-09_22h58.59.387,judgeSpeechMusic_20210407_logNormShiftAmp,2020.1.2,Win32,60,,,,,,,,,,,,,,,,,,,,,,,,,,1,6.71563,,0,0,137,137,95,1,stimuli/stim_20210407_power2amp/equal_lnn_AM4.2Hz_2.m4a,,,
,,,,,40726,2021-05-09_22h58.59.387,judgeSpeechMusic_20210407_logNormShiftAmp,2020.1.2,Win32,60,,,,,,,,,,,,,,,,,,,,,,,,,,2,5.774975,,0,0,138,138,78,1,stimuli/stim_20210407_power2amp/equal_lnn_AM3.6Hz_100.m4a,,,
,,,,,40726,2021-05-09_22h58.59.387,judgeSpeechMusic_20210407_logNormShiftAmp,2020.1.2,Win32,60,,,,,,,,,,,,,,,,,,,,,,,,,,2,6.136845,,0,0,139,139,71,1,stimuli/stim_20210407_power2amp/equal_lnn_AM3Hz_19.m4a,,,
,,,,,40726,2021-05-09_22h58.59.387,judgeSpeechMusic_20210407_logNormShiftAmp,2020.1.2,Win32,60,,,,,,,,,,,,,,,,,,,,,,,,,,2,7.605655,,0,0,140,140,91,1,stimuli/stim_20210407_power2amp/equal_lnn_AM4.2Hz_28.m4a,,,
,,,,,40726,2021-05-09_22h58.59.387,judgeSpeechMusic_20210407_logNormShiftAmp,2020.1.2,Win32,60,,,,,,,,,,,,,,,,,,,,,,,,,,1,5.658625,,0,0,141,141,99,1,stimuli/stim_20210407_power2amp/equal_lnn_AM4.2Hz_37.m4a,,,
,,,,,40726,2021-05-09_22h58.59.387,judgeSpeechMusic_20210407_logNormShiftAmp,2020.1.2,Win32,60,,,,,,,,,,,,,,,,,,,,,,,,,,1,6.161105,,0,0,142,142,144,1,stimuli/stim_20210407_power2amp/equal_lnn_AM6Hz_53.m4a,,,
,,,,,40726,2021-05-09_22h58.59.387,judgeSpeechMusic_20210407_logNormShiftAmp,2020.1.2,Win32,60,,,,,,,,,,,,,,,,,,,,,,,,,,1,6.249835,,0,0,143,143,82,1,stimuli/stim_20210407_power2amp/equal_lnn_AM3.6Hz_9.m4a,,,
,,,,,40726,2021-05-09_22h58.59.387,judgeSpeechMusic_20210407_logNormShiftAmp,2020.1.2,Win32,60,,,,,,,,,,,,,,,,,,,,,,,,,,2,5.942865,,0,0,144,144,75,1,stimuli/stim_20210407_power2amp/equal_lnn_AM3.6Hz_90.m4a,,,
,,,,,40726,2021-05-09_22h58.59.387,judgeSpeechMusic_20210407_logNormShiftAmp,2020.1.2,Win32,60,,,,,,,,,,,,,,,,,,,,,,,,,,1,6.40998,,0,0,145,145,10,1,stimuli/stim_20210407_power2amp/equal_lnn_AM0.6Hz_30.m4a,,,
,,,,,40726,2021-05-09_22h58.59.387,judgeSpeechMusic_20210407_logNormShiftAmp,2020.1.2,Win32,60,,,,,,,,,,,,,,,,,,,,,,,,,,1,5.64622,,0,0,146,146,123,1,stimuli/stim_20210407_power2amp/equal_lnn_AM5.4Hz_31.m4a,,,
,,,,,40726,2021-05-09_22h58.59.387,judgeSpeechMusic_20210407_logNormShiftAmp,2020.1.2,Win32,60,,,,,,,,,,,,,,,,,,,,,,,,,,1,6.260405,,0,0,147,147,36,1,stimuli/stim_20210407_power2amp/equal_lnn_AM1.8Hz_55.m4a,,,
,,,,,40726,2021-05-09_22h58.59.387,judgeSpeechMusic_20210407_logNormShiftAmp,2020.1.2,Win32,60,,,,,,,,,,,,,,,,,,,,,,,,,,2,6.07524,,0,0,148,148,28,1,stimuli/stim_20210407_power2amp/equal_lnn_AM1.2Hz_17.m4a,,,
,,,,,40726,2021-05-09_22h58.59.387,judgeSpeechMusic_20210407_logNormShiftAmp,2020.1.2,Win32,60,,,,,,,,,,,,,,,,,,,,,,,,,,2,7.1226,4,1,0,149,149,41,1,stimuli/stim_20210407_power2amp/equal_lnn_AM1.8Hz_31.m4a,2.02853,,
,,,,,40726,2021-05-09_22h58.59.387,judgeSpeechMusic_20210407_logNormShiftAmp,2020.1.2,Win32,60,,,,,,,,,,,,,,,,,,,,,,,,,,2,6.03681,,0,1,0,150,90,1,stimuli/stim_20210407_power2amp/equal_lnn_AM4.2Hz_90.m4a,,,
,,,,,40726,2021-05-09_22h58.59.387,judgeSpeechMusic_20210407_logNormShiftAmp,2020.1.2,Win32,60,,,,,,,,,,,,,,,,,,,,,,,,,,1,5.33746,,0,1,1,151,2,1,stimuli/stim_20210407_power2amp/equal_lnn_AM0.6Hz_39.m4a,,,
,,,,,40726,2021-05-09_22h58.59.387,judgeSpeechMusic_20210407_logNormShiftAmp,2020.1.2,Win32,60,,,,,,,,,,,,,,,,,,,,,,,,,,2,6.64249,,0,1,2,152,63,1,stimuli/stim_20210407_power2amp/equal_lnn_AM3Hz_10.m4a,,,
,,,,,40726,2021-05-09_22h58.59.387,judgeSpeechMusic_20210407_logNormShiftAmp,2020.1.2,Win32,60,,,,,,,,,,,,,,,,,,,,,,,,,,1,6.111115,,0,1,3,153,0,1,stimuli/stim_20210407_power2amp/equal_lnn_AM0.6Hz_45.m4a,,,
,,,,,40726,2021-05-09_22h58.59.387,judgeSpeechMusic_20210407_logNormShiftAmp,2020.1.2,Win32,60,,,,,,,,,,,,,,,,,,,,,,,,,,1,11.268355,,0,1,4,154,23,1,stimuli/stim_20210407_power2amp/equal_lnn_AM1.2Hz_19.m4a,,,
,,,,,40726,2021-05-09_22h58.59.387,judgeSpeechMusic_20210407_logNormShiftAmp,2020.1.2,Win32,60,,,,,,,,,,,,,,,,,,,,,,,,,,2,7.41127,,0,1,5,155,110,1,stimuli/stim_20210407_power2amp/equal_lnn_AM4.8Hz_62.m4a,,,
,,,,,40726,2021-05-09_22h58.59.387,judgeSpeechMusic_20210407_logNormShiftAmp,2020.1.2,Win32,60,,,,,,,,,,,,,,,,,,,,,,,,,,1,8.013455,,0,1,6,156,54,1,stimuli/stim_20210407_power2amp/equal_lnn_AM2.4Hz_76.m4a,,,
,,,,,40726,2021-05-09_22h58.59.387,judgeSpeechMusic_20210407_logNormShiftAmp,2020.1.2,Win32,60,,,,,,,,,,,,,,,,,,,,,,,,,,1,6.095005,,0,1,7,157,149,1,stimuli/stim_20210407_power2amp/equal_lnn_AM6Hz_84.m4a,,,
,,,,,40726,2021-05-09_22h58.59.387,judgeSpeechMusic_20210407_logNormShiftAmp,2020.1.2,Win32,60,,,,,,,,,,,,,,,,,,,,,,,,,,1,5.795755,,0,1,8,158,28,1,stimuli/stim_20210407_power2amp/equal_lnn_AM1.2Hz_17.m4a,,,
,,,,,40726,2021-05-09_22h58.59.387,judgeSpeechMusic_20210407_logNormShiftAmp,2020.1.2,Win32,60,,,,,,,,,,,,,,,,,,,,,,,,,,1,5.73816,,0,1,9,159,18,1,stimuli/stim_20210407_power2amp/equal_lnn_AM1.2Hz_62.m4a,,,
,,,,,40726,2021-05-09_22h58.59.387,judgeSpeechMusic_20210407_logNormShiftAmp,2020.1.2,Win32,60,,,,,,,,,,,,,,,,,,,,,,,,,,2,5.57288,,0,1,10,160,62,1,stimuli/stim_20210407_power2amp/equal_lnn_AM3Hz_54.m4a,,,
,,,,,40726,2021-05-09_22h58.59.387,judgeSpeechMusic_20210407_logNormShiftAmp,2020.1.2,Win32,60,,,,,,,,,,,,,,,,,,,,,,,,,,1,6.111275,,0,1,11,161,148,1,stimuli/stim_20210407_power2amp/equal_lnn_AM6Hz_49.m4a,,,
,,,,,40726,2021-05-09_22h58.59.387,judgeSpeechMusic_20210407_logNormShiftAmp,2020.1.2,Win32,60,,,,,,,,,,,,,,,,,,,,,,,,,,1,5.87675,,0,1,12,162,146,1,stimuli/stim_20210407_power2amp/equal_lnn_AM6Hz_10.m4a,,,
,,,,,40726,2021-05-09_22h58.59.387,judgeSpeechMusic_20210407_logNormShiftAmp,2020.1.2,Win32,60,,,,,,,,,,,,,,,,,,,,,,,,,,1,5.86625,,0,1,13,163,37,1,stimuli/stim_20210407_power2amp/equal_lnn_AM1.8Hz_54.m4a,,,
,,,,,40726,2021-05-09_22h58.59.387,judgeSpeechMusic_20210407_logNormShiftAmp,2020.1.2,Win32,60,,,,,,,,,,,,,,,,,,,,,,,,,,1,8.383835,,0,1,14,164,122,1,stimuli/stim_20210407_power2amp/equal_lnn_AM5.4Hz_17.m4a,,,
,,,,,40726,2021-05-09_22h58.59.387,judgeSpeechMusic_20210407_logNormShiftAmp,2020.1.2,Win32,60,,,,,,,,,,,,,,,,,,,,,,,,,,1,7.744405,,0,1,15,165,13,1,stimuli/stim_20210407_power2amp/equal_lnn_AM0.6Hz_64.m4a,,,
,,,,,40726,2021-05-09_22h58.59.387,judgeSpeechMusic_20210407_logNormShiftAmp,2020.1.2,Win32,60,,,,,,,,,,,,,,,,,,,,,,,,,,2,6.14936,,0,1,16,166,113,1,stimuli/stim_20210407_power2amp/equal_lnn_AM4.8Hz_12.m4a,,,
,,,,,40726,2021-05-09_22h58.59.387,judgeSpeechMusic_20210407_logNormShiftAmp,2020.1.2,Win32,60,,,,,,,,,,,,,,,,,,,,,,,,,,2,6.493775,,0,1,17,167,120,1,stimuli/stim_20210407_power2amp/equal_lnn_AM5.4Hz_44.m4a,,,
,,,,,40726,2021-05-09_22h58.59.387,judgeSpeechMusic_20210407_logNormShiftAmp,2020.1.2,Win32,60,,,,,,,,,,,,,,,,,,,,,,,,,,1,6.962135,,0,1,18,168,80,1,stimuli/stim_20210407_power2amp/equal_lnn_AM3.6Hz_93.m4a,,,
,,,,,40726,2021-05-09_22h58.59.387,judgeSpeechMusic_20210407_logNormShiftAmp,2020.1.2,Win32,60,,,,,,,,,,,,,,,,,,,,,,,,,,2,5.25883,,0,1,19,169,116,1,stimuli/stim_20210407_power2amp/equal_lnn_AM4.8Hz_91.m4a,,,
,,,,,40726,2021-05-09_22h58.59.387,judgeSpeechMusic_20210407_logNormShiftAmp,2020.1.2,Win32,60,,,,,,,,,,,,,,,,,,,,,,,,,,1,5.54682,,0,1,20,170,84,1,stimuli/stim_20210407_power2amp/equal_lnn_AM3.6Hz_92.m4a,,,
,,,,,40726,2021-05-09_22h58.59.387,judgeSpeechMusic_20210407_logNormShiftAmp,2020.1.2,Win32,60,,,,,,,,,,,,,,,,,,,,,,,,,,2,11.70457,,0,1,21,171,129,1,stimuli/stim_20210407_power2amp/equal_lnn_AM5.4Hz_13.m4a,,,
,,,,,40726,2021-05-09_22h58.59.387,judgeSpeechMusic_20210407_logNormShiftAmp,2020.1.2,Win32,60,,,,,,,,,,,,,,,,,,,,,,,,,,2,8.039275,,0,1,22,172,88,1,stimuli/stim_20210407_power2amp/equal_lnn_AM3.6Hz_94.m4a,,,
,,,,,40726,2021-05-09_22h58.59.387,judgeSpeechMusic_20210407_logNormShiftAmp,2020.1.2,Win32,60,,,,,,,,,,,,,,,,,,,,,,,,,,1,5.47311,3,1,1,23,173,22,1,stimuli/stim_20210407_power2amp/equal_lnn_AM1.2Hz_38.m4a,0.31743,,
,,,,,40726,2021-05-09_22h58.59.387,judgeSpeechMusic_20210407_logNormShiftAmp,2020.1.2,Win32,60,,,,,,,,,,,,,,,,,,,,,,,,,,1,6.73859,,0,1,24,174,78,1,stimuli/stim_20210407_power2amp/equal_lnn_AM3.6Hz_100.m4a,,,
,,,,,40726,2021-05-09_22h58.59.387,judgeSpeechMusic_20210407_logNormShiftAmp,2020.1.2,Win32,60,,,,,,,,,,,,,,,,,,,,,,,,,,1,7.45272,,0,1,25,175,128,1,stimuli/stim_20210407_power2amp/equal_lnn_AM5.4Hz_24.m4a,,,
,,,,,40726,2021-05-09_22h58.59.387,judgeSpeechMusic_20210407_logNormShiftAmp,2020.1.2,Win32,60,,,,,,,,,,,,,,,,,,,,,,,,,,2,5.925695,,0,1,26,176,51,1,stimuli/stim_20210407_power2amp/equal_lnn_AM2.4Hz_38.m4a,,,
,,,,,40726,2021-05-09_22h58.59.387,judgeSpeechMusic_20210407_logNormShiftAmp,2020.1.2,Win32,60,,,,,,,,,,,,,,,,,,,,,,,,,,1,7.22702,,0,1,27,177,50,1,stimuli/stim_20210407_power2amp/equal_lnn_AM2.4Hz_82.m4a,,,
,,,,,40726,2021-05-09_22h58.59.387,judgeSpeechMusic_20210407_logNormShiftAmp,2020.1.2,Win32,60,,,,,,,,,,,,,,,,,,,,,,,,,,1,6.2351,,0,1,28,178,32,1,stimuli/stim_20210407_power2amp/equal_lnn_AM1.8Hz_90.m4a,,,
,,,,,40726,2021-05-09_22h58.59.387,judgeSpeechMusic_20210407_logNormShiftAmp,2020.1.2,Win32,60,,,,,,,,,,,,,,,,,,,,,,,,,,1,6.60813,,0,1,29,179,1,1,stimuli/stim_20210407_power2amp/equal_lnn_AM0.6Hz_41.m4a,,,
,,,,,40726,2021-05-09_22h58.59.387,judgeSpeechMusic_20210407_logNormShiftAmp,2020.1.2,Win32,60,,,,,,,,,,,,,,,,,,,,,,,,,,2,6.31805,,0,1,30,180,108,1,stimuli/stim_20210407_power2amp/equal_lnn_AM4.8Hz_25.m4a,,,
,,,,,40726,2021-05-09_22h58.59.387,judgeSpeechMusic_20210407_logNormShiftAmp,2020.1.2,Win32,60,,,,,,,,,,,,,,,,,,,,,,,,,,1,7.930355,,0,1,31,181,15,1,stimuli/stim_20210407_power2amp/equal_lnn_AM1.2Hz_6.m4a,,,
,,,,,40726,2021-05-09_22h58.59.387,judgeSpeechMusic_20210407_logNormShiftAmp,2020.1.2,Win32,60,,,,,,,,,,,,,,,,,,,,,,,,,,2,6.215105,,0,1,32,182,131,1,stimuli/stim_20210407_power2amp/equal_lnn_AM5.4Hz_38.m4a,,,
,,,,,40726,2021-05-09_22h58.59.387,judgeSpeechMusic_20210407_logNormShiftAmp,2020.1.2,Win32,60,,,,,,,,,,,,,,,,,,,,,,,,,,1,6.0262,,0,1,33,183,3,1,stimuli/stim_20210407_power2amp/equal_lnn_AM0.6Hz_87.m4a,,,
,,,,,40726,2021-05-09_22h58.59.387,judgeSpeechMusic_20210407_logNormShiftAmp,2020.1.2,Win32,60,,,,,,,,,,,,,,,,,,,,,,,,,,1,6.279485,,0,1,34,184,4,1,stimuli/stim_20210407_power2amp/equal_lnn_AM0.6Hz_95.m4a,,,
,,,,,40726,2021-05-09_22h58.59.387,judgeSpeechMusic_20210407_logNormShiftAmp,2020.1.2,Win32,60,,,,,,,,,,,,,,,,,,,,,,,,,,2,6.60458,,0,1,35,185,114,1,stimuli/stim_20210407_power2amp/equal_lnn_AM4.8Hz_74.m4a,,,
,,,,,40726,2021-05-09_22h58.59.387,judgeSpeechMusic_20210407_logNormShiftAmp,2020.1.2,Win32,60,,,,,,,,,,,,,,,,,,,,,,,,,,2,6.746255,,0,1,36,186,87,1,stimuli/stim_20210407_power2amp/equal_lnn_AM3.6Hz_7.m4a,,,
,,,,,40726,2021-05-09_22h58.59.387,judgeSpeechMusic_20210407_logNormShiftAmp,2020.1.2,Win32,60,,,,,,,,,,,,,,,,,,,,,,,,,,1,5.244705,,0,1,37,187,35,1,stimuli/stim_20210407_power2amp/equal_lnn_AM1.8Hz_70.m4a,,,
,,,,,40726,2021-05-09_22h58.59.387,judgeSpeechMusic_20210407_logNormShiftAmp,2020.1.2,Win32,60,,,,,,,,,,,,,,,,,,,,,,,,,,1,7.99789,,0,1,38,188,94,1,stimuli/stim_20210407_power2amp/equal_lnn_AM4.2Hz_86.m4a,,,
,,,,,40726,2021-05-09_22h58.59.387,judgeSpeechMusic_20210407_logNormShiftAmp,2020.1.2,Win32,60,,,,,,,,,,,,,,,,,,,,,,,,,,1,6.16269,,0,1,39,189,7,1,stimuli/stim_20210407_power2amp/equal_lnn_AM0.6Hz_74.m4a,,,
,,,,,40726,2021-05-09_22h58.59.387,judgeSpeechMusic_20210407_logNormShiftAmp,2020.1.2,Win32,60,,,,,,,,,,,,,,,,,,,,,,,,,,2,5.679595,,0,1,40,190,42,1,stimuli/stim_20210407_power2amp/equal_lnn_AM1.8Hz_21.m4a,,,
,,,,,40726,2021-05-09_22h58.59.387,judgeSpeechMusic_20210407_logNormShiftAmp,2020.1.2,Win32,60,,,,,,,,,,,,,,,,,,,,,,,,,,2,6.91789,,0,1,41,191,139,1,stimuli/stim_20210407_power2amp/equal_lnn_AM6Hz_48.m4a,,,
,,,,,40726,2021-05-09_22h58.59.387,judgeSpeechMusic_20210407_logNormShiftAmp,2020.1.2,Win32,60,,,,,,,,,,,,,,,,,,,,,,,,,,2,10.24833,,0,1,42,192,39,1,stimuli/stim_20210407_power2amp/equal_lnn_AM1.8Hz_5.m4a,,,
,,,,,40726,2021-05-09_22h58.59.387,judgeSpeechMusic_20210407_logNormShiftAmp,2020.1.2,Win32,60,,,,,,,,,,,,,,,,,,,,,,,,,,1,5.85944,4,1,1,43,193,86,1,stimuli/stim_20210407_power2amp/equal_lnn_AM3.6Hz_5.m4a,2.3743,,
,,,,,40726,2021-05-09_22h58.59.387,judgeSpeechMusic_20210407_logNormShiftAmp,2020.1.2,Win32,60,,,,,,,,,,,,,,,,,,,,,,,,,,2,9.43227,,0,1,44,194,57,1,stimuli/stim_20210407_power2amp/equal_lnn_AM2.4Hz_73.m4a,,,
,,,,,40726,2021-05-09_22h58.59.387,judgeSpeechMusic_20210407_logNormShiftAmp,2020.1.2,Win32,60,,,,,,,,,,,,,,,,,,,,,,,,,,2,9.0045,,0,1,45,195,34,1,stimuli/stim_20210407_power2amp/equal_lnn_AM1.8Hz_15.m4a,,,
,,,,,40726,2021-05-09_22h58.59.387,judgeSpeechMusic_20210407_logNormShiftAmp,2020.1.2,Win32,60,,,,,,,,,,,,,,,,,,,,,,,,,,1,12.46032,,0,1,46,196,79,1,stimuli/stim_20210407_power2amp/equal_lnn_AM3.6Hz_30.m4a,,,
,,,,,40726,2021-05-09_22h58.59.387,judgeSpeechMusic_20210407_logNormShiftAmp,2020.1.2,Win32,60,,,,,,,,,,,,,,,,,,,,,,,,,,2,6.318345,,0,1,47,197,69,1,stimuli/stim_20210407_power2amp/equal_lnn_AM3Hz_16.m4a,,,
,,,,,40726,2021-05-09_22h58.59.387,judgeSpeechMusic_20210407_logNormShiftAmp,2020.1.2,Win32,60,,,,,,,,,,,,,,,,,,,,,,,,,,2,7.52436,,0,1,48,198,132,1,stimuli/stim_20210407_power2amp/equal_lnn_AM5.4Hz_11.m4a,,,
,,,,,40726,2021-05-09_22h58.59.387,judgeSpeechMusic_20210407_logNormShiftAmp,2020.1.2,Win32,60,,,,,,,,,,,,,,,,,,,,,,,,,,1,6.228305,,0,1,49,199,26,1,stimuli/stim_20210407_power2amp/equal_lnn_AM1.2Hz_85.m4a,,,
,,,,,40726,2021-05-09_22h58.59.387,judgeSpeechMusic_20210407_logNormShiftAmp,2020.1.2,Win32,60,,,,,,,,,,,,,,,,,,,,,,,,,,1,6.082345,,0,1,50,200,14,1,stimuli/stim_20210407_power2amp/equal_lnn_AM0.6Hz_13.m4a,,,
,,,,,40726,2021-05-09_22h58.59.387,judgeSpeechMusic_20210407_logNormShiftAmp,2020.1.2,Win32,60,,,,,,,,,,,,,,,,,,,,,,,,,,2,6.19892,,0,1,51,201,109,1,stimuli/stim_20210407_power2amp/equal_lnn_AM4.8Hz_87.m4a,,,
,,,,,40726,2021-05-09_22h58.59.387,judgeSpeechMusic_20210407_logNormShiftAmp,2020.1.2,Win32,60,,,,,,,,,,,,,,,,,,,,,,,,,,2,7.620695,,0,1,52,202,81,1,stimuli/stim_20210407_power2amp/equal_lnn_AM3.6Hz_53.m4a,,,
,,,,,40726,2021-05-09_22h58.59.387,judgeSpeechMusic_20210407_logNormShiftAmp,2020.1.2,Win32,60,,,,,,,,,,,,,,,,,,,,,,,,,,1,5.355555,,0,1,53,203,48,1,stimuli/stim_20210407_power2amp/equal_lnn_AM2.4Hz_71.m4a,,,
,,,,,40726,2021-05-09_22h58.59.387,judgeSpeechMusic_20210407_logNormShiftAmp,2020.1.2,Win32,60,,,,,,,,,,,,,,,,,,,,,,,,,,1,6.3453,,0,1,54,204,10,1,stimuli/stim_20210407_power2amp/equal_lnn_AM0.6Hz_30.m4a,,,
,,,,,40726,2021-05-09_22h58.59.387,judgeSpeechMusic_20210407_logNormShiftAmp,2020.1.2,Win32,60,,,,,,,,,,,,,,,,,,,,,,,,,,2,6.20036,,0,1,55,205,58,1,stimuli/stim_20210407_power2amp/equal_lnn_AM2.4Hz_48.m4a,,,
,,,,,40726,2021-05-09_22h58.59.387,judgeSpeechMusic_20210407_logNormShiftAmp,2020.1.2,Win32,60,,,,,,,,,,,,,,,,,,,,,,,,,,2,6.0924,,0,1,56,206,71,1,stimuli/stim_20210407_power2amp/equal_lnn_AM3Hz_19.m4a,,,
,,,,,40726,2021-05-09_22h58.59.387,judgeSpeechMusic_20210407_logNormShiftAmp,2020.1.2,Win32,60,,,,,,,,,,,,,,,,,,,,,,,,,,1,6.92743,,0,1,57,207,19,1,stimuli/stim_20210407_power2amp/equal_lnn_AM1.2Hz_45.m4a,,,
,,,,,40726,2021-05-09_22h58.59.387,judgeSpeechMusic_20210407_logNormShiftAmp,2020.1.2,Win32,60,,,,,,,,,,,,,,,,,,,,,,,,,,2,6.12793,,0,1,58,208,103,1,stimuli/stim_20210407_power2amp/equal_lnn_AM4.2Hz_87.m4a,,,
,,,,,40726,2021-05-09_22h58.59.387,judgeSpeechMusic_20210407_logNormShiftAmp,2020.1.2,Win32,60,,,,,,,,,,,,,,,,,,,,,,,,,,1,6.1392,,0,1,59,209,36,1,stimuli/stim_20210407_power2amp/equal_lnn_AM1.8Hz_55.m4a,,,
,,,,,40726,2021-05-09_22h58.59.387,judgeSpeechMusic_20210407_logNormShiftAmp,2020.1.2,Win32,60,,,,,,,,,,,,,,,,,,,,,,,,,,2,6.14857,,0,1,60,210,100,1,stimuli/stim_20210407_power2amp/equal_lnn_AM4.2Hz_47.m4a,,,
,,,,,40726,2021-05-09_22h58.59.387,judgeSpeechMusic_20210407_logNormShiftAmp,2020.1.2,Win32,60,,,,,,,,,,,,,,,,,,,,,,,,,,1,6.61139,,0,1,61,211,45,1,stimuli/stim_20210407_power2amp/equal_lnn_AM2.4Hz_22.m4a,,,
,,,,,40726,2021-05-09_22h58.59.387,judgeSpeechMusic_20210407_logNormShiftAmp,2020.1.2,Win32,60,,,,,,,,,,,,,,,,,,,,,,,,,,1,6.232545,,0,1,62,212,143,1,stimuli/stim_20210407_power2amp/equal_lnn_AM6Hz_58.m4a,,,
,,,,,40726,2021-05-09_22h58.59.387,judgeSpeechMusic_20210407_logNormShiftAmp,2020.1.2,Win32,60,,,,,,,,,,,,,,,,,,,,,,,,,,2,9.95781,,0,1,63,213,112,1,stimuli/stim_20210407_power2amp/equal_lnn_AM4.8Hz_14.m4a,,,
,,,,,40726,2021-05-09_22h58.59.387,judgeSpeechMusic_20210407_logNormShiftAmp,2020.1.2,Win32,60,,,,,,,,,,,,,,,,,,,,,,,,,,2,7.19451,,0,1,64,214,111,1,stimuli/stim_20210407_power2amp/equal_lnn_AM4.8Hz_82.m4a,,,
,,,,,40726,2021-05-09_22h58.59.387,judgeSpeechMusic_20210407_logNormShiftAmp,2020.1.2,Win32,60,,,,,,,,,,,,,,,,,,,,,,,,,,1,6.087755,,0,1,65,215,130,1,stimuli/stim_20210407_power2amp/equal_lnn_AM5.4Hz_91.m4a,,,
,,,,,40726,2021-05-09_22h58.59.387,judgeSpeechMusic_20210407_logNormShiftAmp,2020.1.2,Win32,60,,,,,,,,,,,,,,,,,,,,,,,,,,1,6.11066,,0,1,66,216,46,1,stimuli/stim_20210407_power2amp/equal_lnn_AM2.4Hz_72.m4a,,,
,,,,,40726,2021-05-09_22h58.59.387,judgeSpeechMusic_20210407_logNormShiftAmp,2020.1.2,Win32,60,,,,,,,,,,,,,,,,,,,,,,,,,,2,5.82576,,0,1,67,217,66,1,stimuli/stim_20210407_power2amp/equal_lnn_AM3Hz_8.m4a,,,
,,,,,40726,2021-05-09_22h58.59.387,judgeSpeechMusic_20210407_logNormShiftAmp,2020.1.2,Win32,60,,,,,,,,,,,,,,,,,,,,,,,,,,1,5.248085,3,1,1,68,218,17,1,stimuli/stim_20210407_power2amp/equal_lnn_AM1.2Hz_83.m4a,0.297965,,
,,,,,40726,2021-05-09_22h58.59.387,judgeSpeechMusic_20210407_logNormShiftAmp,2020.1.2,Win32,60,,,,,,,,,,,,,,,,,,,,,,,,,,2,5.694785,,0,1,69,219,70,1,stimuli/stim_20210407_power2amp/equal_lnn_AM3Hz_5.m4a,,,
,,,,,40726,2021-05-09_22h58.59.387,judgeSpeechMusic_20210407_logNormShiftAmp,2020.1.2,Win32,60,,,,,,,,,,,,,,,,,,,,,,,,,,1,5.59913,,0,1,70,220,123,1,stimuli/stim_20210407_power2amp/equal_lnn_AM5.4Hz_31.m4a,,,
,,,,,40726,2021-05-09_22h58.59.387,judgeSpeechMusic_20210407_logNormShiftAmp,2020.1.2,Win32,60,,,,,,,,,,,,,,,,,,,,,,,,,,1,7.407875,,0,1,71,221,101,1,stimuli/stim_20210407_power2amp/equal_lnn_AM4.2Hz_22.m4a,,,
,,,,,40726,2021-05-09_22h58.59.387,judgeSpeechMusic_20210407_logNormShiftAmp,2020.1.2,Win32,60,,,,,,,,,,,,,,,,,,,,,,,,,,1,5.59547,,0,1,72,222,31,1,stimuli/stim_20210407_power2amp/equal_lnn_AM1.8Hz_4.m4a,,,
,,,,,40726,2021-05-09_22h58.59.387,judgeSpeechMusic_20210407_logNormShiftAmp,2020.1.2,Win32,60,,,,,,,,,,,,,,,,,,,,,,,,,,2,7.50645,,0,1,73,223,147,1,stimuli/stim_20210407_power2amp/equal_lnn_AM6Hz_11.m4a,,,
,,,,,40726,2021-05-09_22h58.59.387,judgeSpeechMusic_20210407_logNormShiftAmp,2020.1.2,Win32,60,,,,,,,,,,,,,,,,,,,,,,,,,,2,6.47647,,0,1,74,224,121,1,stimuli/stim_20210407_power2amp/equal_lnn_AM5.4Hz_98.m4a,,,
,,,,,40726,2021-05-09_22h58.59.387,judgeSpeechMusic_20210407_logNormShiftAmp,2020.1.2,Win32,60,,,,,,,,,,,,,,,,,,,,,,,,,,2,6.61203,,0,1,75,225,73,1,stimuli/stim_20210407_power2amp/equal_lnn_AM3Hz_22.m4a,,,
,,,,,40726,2021-05-09_22h58.59.387,judgeSpeechMusic_20210407_logNormShiftAmp,2020.1.2,Win32,60,,,,,,,,,,,,,,,,,,,,,,,,,,2,5.777155,,0,1,76,226,83,1,stimuli/stim_20210407_power2amp/equal_lnn_AM3.6Hz_43.m4a,,,
,,,,,40726,2021-05-09_22h58.59.387,judgeSpeechMusic_20210407_logNormShiftAmp,2020.1.2,Win32,60,,,,,,,,,,,,,,,,,,,,,,,,,,2,8.722605,,0,1,77,227,61,1,stimuli/stim_20210407_power2amp/equal_lnn_AM3Hz_80.m4a,,,
,,,,,40726,2021-05-09_22h58.59.387,judgeSpeechMusic_20210407_logNormShiftAmp,2020.1.2,Win32,60,,,,,,,,,,,,,,,,,,,,,,,,,,1,6.874785,,0,1,78,228,59,1,stimuli/stim_20210407_power2amp/equal_lnn_AM2.4Hz_66.m4a,,,
,,,,,40726,2021-05-09_22h58.59.387,judgeSpeechMusic_20210407_logNormShiftAmp,2020.1.2,Win32,60,,,,,,,,,,,,,,,,,,,,,,,,,,2,5.85802,,0,1,79,229,60,1,stimuli/stim_20210407_power2amp/equal_lnn_AM3Hz_30.m4a,,,
,,,,,40726,2021-05-09_22h58.59.387,judgeSpeechMusic_20210407_logNormShiftAmp,2020.1.2,Win32,60,,,,,,,,,,,,,,,,,,,,,,,,,,1,7.07811,,0,1,80,230,133,1,stimuli/stim_20210407_power2amp/equal_lnn_AM5.4Hz_15.m4a,,,
,,,,,40726,2021-05-09_22h58.59.387,judgeSpeechMusic_20210407_logNormShiftAmp,2020.1.2,Win32,60,,,,,,,,,,,,,,,,,,,,,,,,,,1,5.409975,,0,1,81,231,27,1,stimuli/stim_20210407_power2amp/equal_lnn_AM1.2Hz_33.m4a,,,
,,,,,40726,2021-05-09_22h58.59.387,judgeSpeechMusic_20210407_logNormShiftAmp,2020.1.2,Win32,60,,,,,,,,,,,,,,,,,,,,,,,,,,1,5.4653,,0,1,82,232,126,1,stimuli/stim_20210407_power2amp/equal_lnn_AM5.4Hz_62.m4a,,,
,,,,,40726,2021-05-09_22h58.59.387,judgeSpeechMusic_20210407_logNormShiftAmp,2020.1.2,Win32,60,,,,,,,,,,,,,,,,,,,,,,,,,,1,10.984115,,0,1,83,233,72,1,stimuli/stim_20210407_power2amp/equal_lnn_AM3Hz_3.m4a,,,
,,,,,40726,2021-05-09_22h58.59.387,judgeSpeechMusic_20210407_logNormShiftAmp,2020.1.2,Win32,60,,,,,,,,,,,,,,,,,,,,,,,,,,2,5.267205,,0,1,84,234,102,1,stimuli/stim_20210407_power2amp/equal_lnn_AM4.2Hz_54.m4a,,,
,,,,,40726,2021-05-09_22h58.59.387,judgeSpeechMusic_20210407_logNormShiftAmp,2020.1.2,Win32,60,,,,,,,,,,,,,,,,,,,,,,,,,,2,6.795215,,0,1,85,235,82,1,stimuli/stim_20210407_power2amp/equal_lnn_AM3.6Hz_9.m4a,,,
,,,,,40726,2021-05-09_22h58.59.387,judgeSpeechMusic_20210407_logNormShiftAmp,2020.1.2,Win32,60,,,,,,,,,,,,,,,,,,,,,,,,,,1,5.282555,,0,1,86,236,16,1,stimuli/stim_20210407_power2amp/equal_lnn_AM1.2Hz_46.m4a,,,
,,,,,40726,2021-05-09_22h58.59.387,judgeSpeechMusic_20210407_logNormShiftAmp,2020.1.2,Win32,60,,,,,,,,,,,,,,,,,,,,,,,,,,1,10.66698,,0,1,87,237,119,1,stimuli/stim_20210407_power2amp/equal_lnn_AM4.8Hz_38.m4a,,,
,,,,,40726,2021-05-09_22h58.59.387,judgeSpeechMusic_20210407_logNormShiftAmp,2020.1.2,Win32,60,,,,,,,,,,,,,,,,,,,,,,,,,,1,5.353105,,0,1,88,238,20,1,stimuli/stim_20210407_power2amp/equal_lnn_AM1.2Hz_12.m4a,,,
,,,,,40726,2021-05-09_22h58.59.387,judgeSpeechMusic_20210407_logNormShiftAmp,2020.1.2,Win32,60,,,,,,,,,,,,,,,,,,,,,,,,,,2,9.682265,,0,1,89,239,142,1,stimuli/stim_20210407_power2amp/equal_lnn_AM6Hz_12.m4a,,,
,,,,,40726,2021-05-09_22h58.59.387,judgeSpeechMusic_20210407_logNormShiftAmp,2020.1.2,Win32,60,,,,,,,,,,,,,,,,,,,,,,,,,,2,5.358905,,0,1,90,240,99,1,stimuli/stim_20210407_power2amp/equal_lnn_AM4.2Hz_37.m4a,,,
,,,,,40726,2021-05-09_22h58.59.387,judgeSpeechMusic_20210407_logNormShiftAmp,2020.1.2,Win32,60,,,,,,,,,,,,,,,,,,,,,,,,,,1,7.15911,,0,1,91,241,68,1,stimuli/stim_20210407_power2amp/equal_lnn_AM3Hz_35.m4a,,,
,,,,,40726,2021-05-09_22h58.59.387,judgeSpeechMusic_20210407_logNormShiftAmp,2020.1.2,Win32,60,,,,,,,,,,,,,,,,,,,,,,,,,,1,5.243215,4,1,1,92,242,8,1,stimuli/stim_20210407_power2amp/equal_lnn_AM0.6Hz_93.m4a,0.61427,,
,,,,,40726,2021-05-09_22h58.59.387,judgeSpeechMusic_20210407_logNormShiftAmp,2020.1.2,Win32,60,,,,,,,,,,,,,,,,,,,,,,,,,,2,7.66056,,0,1,93,243,30,1,stimuli/stim_20210407_power2amp/equal_lnn_AM1.8Hz_81.m4a,,,
,,,,,40726,2021-05-09_22h58.59.387,judgeSpeechMusic_20210407_logNormShiftAmp,2020.1.2,Win32,60,,,,,,,,,,,,,,,,,,,,,,,,,,2,5.90648,,0,1,94,244,85,1,stimuli/stim_20210407_power2amp/equal_lnn_AM3.6Hz_47.m4a,,,
,,,,,40726,2021-05-09_22h58.59.387,judgeSpeechMusic_20210407_logNormShiftAmp,2020.1.2,Win32,60,,,,,,,,,,,,,,,,,,,,,,,,,,2,11.618325,,0,1,95,245,77,1,stimuli/stim_20210407_power2amp/equal_lnn_AM3.6Hz_55.m4a,,,
,,,,,40726,2021-05-09_22h58.59.387,judgeSpeechMusic_20210407_logNormShiftAmp,2020.1.2,Win32,60,,,,,,,,,,,,,,,,,,,,,,,,,,2,7.514425,,0,1,96,246,47,1,stimuli/stim_20210407_power2amp/equal_lnn_AM2.4Hz_62.m4a,,,
,,,,,40726,2021-05-09_22h58.59.387,judgeSpeechMusic_20210407_logNormShiftAmp,2020.1.2,Win32,60,,,,,,,,,,,,,,,,,,,,,,,,,,1,7.28192,,0,1,97,247,38,1,stimuli/stim_20210407_power2amp/equal_lnn_AM1.8Hz_100.m4a,,,
,,,,,40726,2021-05-09_22h58.59.387,judgeSpeechMusic_20210407_logNormShiftAmp,2020.1.2,Win32,60,,,,,,,,,,,,,,,,,,,,,,,,,,1,5.325955,,0,1,98,248,138,1,stimuli/stim_20210407_power2amp/equal_lnn_AM6Hz_8.m4a,,,
,,,,,40726,2021-05-09_22h58.59.387,judgeSpeechMusic_20210407_logNormShiftAmp,2020.1.2,Win32,60,,,,,,,,,,,,,,,,,,,,,,,,,,1,5.762585,,0,1,99,249,44,1,stimuli/stim_20210407_power2amp/equal_lnn_AM1.8Hz_83.m4a,,,
,,,,,40726,2021-05-09_22h58.59.387,judgeSpeechMusic_20210407_logNormShiftAmp,2020.1.2,Win32,60,,,,,,,,,,,,,,,,,,,,,,,,,,1,6.677695,,0,1,100,250,137,1,stimuli/stim_20210407_power2amp/equal_lnn_AM6Hz_21.m4a,,,
,,,,,40726,2021-05-09_22h58.59.387,judgeSpeechMusic_20210407_logNormShiftAmp,2020.1.2,Win32,60,,,,,,,,,,,,,,,,,,,,,,,,,,2,5.32146,,0,1,101,251,92,1,stimuli/stim_20210407_power2amp/equal_lnn_AM4.2Hz_38.m4a,,,
,,,,,40726,2021-05-09_22h58.59.387,judgeSpeechMusic_20210407_logNormShiftAmp,2020.1.2,Win32,60,,,,,,,,,,,,,,,,,,,,,,,,,,2,6.52688,,0,1,102,252,98,1,stimuli/stim_20210407_power2amp/equal_lnn_AM4.2Hz_48.m4a,,,
,,,,,40726,2021-05-09_22h58.59.387,judgeSpeechMusic_20210407_logNormShiftAmp,2020.1.2,Win32,60,,,,,,,,,,,,,,,,,,,,,,,,,,2,7.1142,,0,1,103,253,65,1,stimuli/stim_20210407_power2amp/equal_lnn_AM3Hz_12.m4a,,,
,,,,,40726,2021-05-09_22h58.59.387,judgeSpeechMusic_20210407_logNormShiftAmp,2020.1.2,Win32,60,,,,,,,,,,,,,,,,,,,,,,,,,,1,5.763445,,0,1,104,254,104,1,stimuli/stim_20210407_power2amp/equal_lnn_AM4.2Hz_45.m4a,,,
,,,,,40726,2021-05-09_22h58.59.387,judgeSpeechMusic_20210407_logNormShiftAmp,2020.1.2,Win32,60,,,,,,,,,,,,,,,,,,,,,,,,,,2,7.815095,,0,1,105,255,93,1,stimuli/stim_20210407_power2amp/equal_lnn_AM4.2Hz_10.m4a,,,
,,,,,40726,2021-05-09_22h58.59.387,judgeSpeechMusic_20210407_logNormShiftAmp,2020.1.2,Win32,60,,,,,,,,,,,,,,,,,,,,,,,,,,1,7.696035,,0,1,106,256,125,1,stimuli/stim_20210407_power2amp/equal_lnn_AM5.4Hz_73.m4a,,,
,,,,,40726,2021-05-09_22h58.59.387,judgeSpeechMusic_20210407_logNormShiftAmp,2020.1.2,Win32,60,,,,,,,,,,,,,,,,,,,,,,,,,,2,7.10215,,0,1,107,257,53,1,stimuli/stim_20210407_power2amp/equal_lnn_AM2.4Hz_35.m4a,,,
,,,,,40726,2021-05-09_22h58.59.387,judgeSpeechMusic_20210407_logNormShiftAmp,2020.1.2,Win32,60,,,,,,,,,,,,,,,,,,,,,,,,,,2,5.8978,,0,1,108,258,75,1,stimuli/stim_20210407_power2amp/equal_lnn_AM3.6Hz_90.m4a,,,
,,,,,40726,2021-05-09_22h58.59.387,judgeSpeechMusic_20210407_logNormShiftAmp,2020.1.2,Win32,60,,,,,,,,,,,,,,,,,,,,,,,,,,1,5.885595,,0,1,109,259,5,1,stimuli/stim_20210407_power2amp/equal_lnn_AM0.6Hz_12.m4a,,,
,,,,,40726,2021-05-09_22h58.59.387,judgeSpeechMusic_20210407_logNormShiftAmp,2020.1.2,Win32,60,,,,,,,,,,,,,,,,,,,,,,,,,,1,5.4123,,0,1,110,260,24,1,stimuli/stim_20210407_power2amp/equal_lnn_AM1.2Hz_80.m4a,,,
,,,,,40726,2021-05-09_22h58.59.387,judgeSpeechMusic_20210407_logNormShiftAmp,2020.1.2,Win32,60,,,,,,,,,,,,,,,,,,,,,,,,,,2,5.77645,,0,1,111,261,118,1,stimuli/stim_20210407_power2amp/equal_lnn_AM4.8Hz_88.m4a,,,
,,,,,40726,2021-05-09_22h58.59.387,judgeSpeechMusic_20210407_logNormShiftAmp,2020.1.2,Win32,60,,,,,,,,,,,,,,,,,,,,,,,,,,1,5.378005,,0,1,112,262,11,1,stimuli/stim_20210407_power2amp/equal_lnn_AM0.6Hz_75.m4a,,,
,,,,,40726,2021-05-09_22h58.59.387,judgeSpeechMusic_20210407_logNormShiftAmp,2020.1.2,Win32,60,,,,,,,,,,,,,,,,,,,,,,,,,,2,6.584655,,0,1,113,263,40,1,stimuli/stim_20210407_power2amp/equal_lnn_AM1.8Hz_75.m4a,,,
,,,,,40726,2021-05-09_22h58.59.387,judgeSpeechMusic_20210407_logNormShiftAmp,2020.1.2,Win32,60,,,,,,,,,,,,,,,,,,,,,,,,,,1,5.84564,,0,1,114,264,41,1,stimuli/stim_20210407_power2amp/equal_lnn_AM1.8Hz_31.m4a,,,
,,,,,40726,2021-05-09_22h58.59.387,judgeSpeechMusic_20210407_logNormShiftAmp,2020.1.2,Win32,60,,,,,,,,,,,,,,,,,,,,,,,,,,2,6.31107,,0,1,115,265,140,1,stimuli/stim_20210407_power2amp/equal_lnn_AM6Hz_30.m4a,,,
,,,,,40726,2021-05-09_22h58.59.387,judgeSpeechMusic_20210407_logNormShiftAmp,2020.1.2,Win32,60,,,,,,,,,,,,,,,,,,,,,,,,,,1,5.293835,,0,1,116,266,9,1,stimuli/stim_20210407_power2amp/equal_lnn_AM0.6Hz_97.m4a,,,
,,,,,40726,2021-05-09_22h58.59.387,judgeSpeechMusic_20210407_logNormShiftAmp,2020.1.2,Win32,60,,,,,,,,,,,,,,,,,,,,,,,,,,1,10.22166,3,1,1,117,267,105,1,stimuli/stim_20210407_power2amp/equal_lnn_AM4.8Hz_94.m4a,0.48974,,
,,,,,40726,2021-05-09_22h58.59.387,judgeSpeechMusic_20210407_logNormShiftAmp,2020.1.2,Win32,60,,,,,,,,,,,,,,,,,,,,,,,,,,2,7.67201,,0,1,118,268,89,1,stimuli/stim_20210407_power2amp/equal_lnn_AM3.6Hz_98.m4a,,,
,,,,,40726,2021-05-09_22h58.59.387,judgeSpeechMusic_20210407_logNormShiftAmp,2020.1.2,Win32,60,,,,,,,,,,,,,,,,,,,,,,,,,,1,8.41522,,0,1,119,269,43,1,stimuli/stim_20210407_power2amp/equal_lnn_AM1.8Hz_40.m4a,,,
,,,,,40726,2021-05-09_22h58.59.387,judgeSpeechMusic_20210407_logNormShiftAmp,2020.1.2,Win32,60,,,,,,,,,,,,,,,,,,,,,,,,,,2,6.79121,,0,1,120,270,95,1,stimuli/stim_20210407_power2amp/equal_lnn_AM4.2Hz_2.m4a,,,
,,,,,40726,2021-05-09_22h58.59.387,judgeSpeechMusic_20210407_logNormShiftAmp,2020.1.2,Win32,60,,,,,,,,,,,,,,,,,,,,,,,,,,2,10.532335,,0,1,121,271,49,1,stimuli/stim_20210407_power2amp/equal_lnn_AM2.4Hz_31.m4a,,,
,,,,,40726,2021-05-09_22h58.59.387,judgeSpeechMusic_20210407_logNormShiftAmp,2020.1.2,Win32,60,,,,,,,,,,,,,,,,,,,,,,,,,,1,5.928055,,0,1,122,272,33,1,stimuli/stim_20210407_power2amp/equal_lnn_AM1.8Hz_13.m4a,,,
,,,,,40726,2021-05-09_22h58.59.387,judgeSpeechMusic_20210407_logNormShiftAmp,2020.1.2,Win32,60,,,,,,,,,,,,,,,,,,,,,,,,,,2,8.266745,,0,1,123,273,127,1,stimuli/stim_20210407_power2amp/equal_lnn_AM5.4Hz_28.m4a,,,
,,,,,40726,2021-05-09_22h58.59.387,judgeSpeechMusic_20210407_logNormShiftAmp,2020.1.2,Win32,60,,,,,,,,,,,,,,,,,,,,,,,,,,2,10.21599,,0,1,124,274,107,1,stimuli/stim_20210407_power2amp/equal_lnn_AM4.8Hz_51.m4a,,,
,,,,,40726,2021-05-09_22h58.59.387,judgeSpeechMusic_20210407_logNormShiftAmp,2020.1.2,Win32,60,,,,,,,,,,,,,,,,,,,,,,,,,,2,10.08775,,0,1,125,275,115,1,stimuli/stim_20210407_power2amp/equal_lnn_AM4.8Hz_7.m4a,,,
,,,,,40726,2021-05-09_22h58.59.387,judgeSpeechMusic_20210407_logNormShiftAmp,2020.1.2,Win32,60,,,,,,,,,,,,,,,,,,,,,,,,,,2,6.653395,,0,1,126,276,96,1,stimuli/stim_20210407_power2amp/equal_lnn_AM4.2Hz_36.m4a,,,
,,,,,40726,2021-05-09_22h58.59.387,judgeSpeechMusic_20210407_logNormShiftAmp,2020.1.2,Win32,60,,,,,,,,,,,,,,,,,,,,,,,,,,2,6.89671,,0,1,127,277,76,1,stimuli/stim_20210407_power2amp/equal_lnn_AM3.6Hz_2.m4a,,,
,,,,,40726,2021-05-09_22h58.59.387,judgeSpeechMusic_20210407_logNormShiftAmp,2020.1.2,Win32,60,,,,,,,,,,,,,,,,,,,,,,,,,,1,5.765765,,0,1,128,278,12,1,stimuli/stim_20210407_power2amp/equal_lnn_AM0.6Hz_7.m4a,,,
,,,,,40726,2021-05-09_22h58.59.387,judgeSpeechMusic_20210407_logNormShiftAmp,2020.1.2,Win32,60,,,,,,,,,,,,,,,,,,,,,,,,,,2,6.38059,,0,1,129,279,124,1,stimuli/stim_20210407_power2amp/equal_lnn_AM5.4Hz_89.m4a,,,
,,,,,40726,2021-05-09_22h58.59.387,judgeSpeechMusic_20210407_logNormShiftAmp,2020.1.2,Win32,60,,,,,,,,,,,,,,,,,,,,,,,,,,1,6.036815,,0,1,130,280,52,1,stimuli/stim_20210407_power2amp/equal_lnn_AM2.4Hz_37.m4a,,,
,,,,,40726,2021-05-09_22h58.59.387,judgeSpeechMusic_20210407_logNormShiftAmp,2020.1.2,Win32,60,,,,,,,,,,,,,,,,,,,,,,,,,,1,5.79738,,0,1,131,281,97,1,stimuli/stim_20210407_power2amp/equal_lnn_AM4.2Hz_83.m4a,,,
,,,,,40726,2021-05-09_22h58.59.387,judgeSpeechMusic_20210407_logNormShiftAmp,2020.1.2,Win32,60,,,,,,,,,,,,,,,,,,,,,,,,,,1,6.844865,,0,1,132,282,144,1,stimuli/stim_20210407_power2amp/equal_lnn_AM6Hz_53.m4a,,,
,,,,,40726,2021-05-09_22h58.59.387,judgeSpeechMusic_20210407_logNormShiftAmp,2020.1.2,Win32,60,,,,,,,,,,,,,,,,,,,,,,,,,,1,5.24744,,0,1,133,283,117,1,stimuli/stim_20210407_power2amp/equal_lnn_AM4.8Hz_13.m4a,,,
,,,,,40726,2021-05-09_22h58.59.387,judgeSpeechMusic_20210407_logNormShiftAmp,2020.1.2,Win32,60,,,,,,,,,,,,,,,,,,,,,,,,,,1,5.905935,,0,1,134,284,25,1,stimuli/stim_20210407_power2amp/equal_lnn_AM1.2Hz_76.m4a,,,
,,,,,40726,2021-05-09_22h58.59.387,judgeSpeechMusic_20210407_logNormShiftAmp,2020.1.2,Win32,60,,,,,,,,,,,,,,,,,,,,,,,,,,2,7.541445,,0,1,135,285,145,1,stimuli/stim_20210407_power2amp/equal_lnn_AM6Hz_46.m4a,,,
,,,,,40726,2021-05-09_22h58.59.387,judgeSpeechMusic_20210407_logNormShiftAmp,2020.1.2,Win32,60,,,,,,,,,,,,,,,,,,,,,,,,,,2,7.296795,,0,1,136,286,141,1,stimuli/stim_20210407_power2amp/equal_lnn_AM6Hz_22.m4a,,,
,,,,,40726,2021-05-09_22h58.59.387,judgeSpeechMusic_20210407_logNormShiftAmp,2020.1.2,Win32,60,,,,,,,,,,,,,,,,,,,,,,,,,,1,5.28112,3,1,1,137,287,74,1,stimuli/stim_20210407_power2amp/equal_lnn_AM3Hz_40.m4a,0.4252,,
,,,,,40726,2021-05-09_22h58.59.387,judgeSpeechMusic_20210407_logNormShiftAmp,2020.1.2,Win32,60,,,,,,,,,,,,,,,,,,,,,,,,,,1,5.68967,,0,1,138,288,6,1,stimuli/stim_20210407_power2amp/equal_lnn_AM0.6Hz_40.m4a,,,
,,,,,40726,2021-05-09_22h58.59.387,judgeSpeechMusic_20210407_logNormShiftAmp,2020.1.2,Win32,60,,,,,,,,,,,,,,,,,,,,,,,,,,1,6.76149,,0,1,139,289,29,1,stimuli/stim_20210407_power2amp/equal_lnn_AM1.2Hz_36.m4a,,,
,,,,,40726,2021-05-09_22h58.59.387,judgeSpeechMusic_20210407_logNormShiftAmp,2020.1.2,Win32,60,,,,,,,,,,,,,,,,,,,,,,,,,,2,6.40641,,0,1,140,290,134,1,stimuli/stim_20210407_power2amp/equal_lnn_AM5.4Hz_26.m4a,,,
,,,,,40726,2021-05-09_22h58.59.387,judgeSpeechMusic_20210407_logNormShiftAmp,2020.1.2,Win32,60,,,,,,,,,,,,,,,,,,,,,,,,,,2,6.56923,,0,1,141,291,91,1,stimuli/stim_20210407_power2amp/equal_lnn_AM4.2Hz_28.m4a,,,
,,,,,40726,2021-05-09_22h58.59.387,judgeSpeechMusic_20210407_logNormShiftAmp,2020.1.2,Win32,60,,,,,,,,,,,,,,,,,,,,,,,,,,2,6.36622,,0,1,142,292,106,1,stimuli/stim_20210407_power2amp/equal_lnn_AM4.8Hz_16.m4a,,,
,,,,,40726,2021-05-09_22h58.59.387,judgeSpeechMusic_20210407_logNormShiftAmp,2020.1.2,Win32,60,,,,,,,,,,,,,,,,,,,,,,,,,,1,5.57815,,0,1,143,293,21,1,stimuli/stim_20210407_power2amp/equal_lnn_AM1.2Hz_49.m4a,,,
,,,,,40726,2021-05-09_22h58.59.387,judgeSpeechMusic_20210407_logNormShiftAmp,2020.1.2,Win32,60,,,,,,,,,,,,,,,,,,,,,,,,,,2,6.74422,,0,1,144,294,56,1,stimuli/stim_20210407_power2amp/equal_lnn_AM2.4Hz_70.m4a,,,
,,,,,40726,2021-05-09_22h58.59.387,judgeSpeechMusic_20210407_logNormShiftAmp,2020.1.2,Win32,60,,,,,,,,,,,,,,,,,,,,,,,,,,1,5.62158,,0,1,145,295,55,1,stimuli/stim_20210407_power2amp/equal_lnn_AM2.4Hz_85.m4a,,,
,,,,,40726,2021-05-09_22h58.59.387,judgeSpeechMusic_20210407_logNormShiftAmp,2020.1.2,Win32,60,,,,,,,,,,,,,,,,,,,,,,,,,,2,6.225685,,0,1,146,296,67,1,stimuli/stim_20210407_power2amp/equal_lnn_AM3Hz_95.m4a,,,
,,,,,40726,2021-05-09_22h58.59.387,judgeSpeechMusic_20210407_logNormShiftAmp,2020.1.2,Win32,60,,,,,,,,,,,,,,,,,,,,,,,,,,1,5.232535,,0,1,147,297,135,1,stimuli/stim_20210407_power2amp/equal_lnn_AM6Hz_42.m4a,,,
,,,,,40726,2021-05-09_22h58.59.387,judgeSpeechMusic_20210407_logNormShiftAmp,2020.1.2,Win32,60,,,,,,,,,,,,,,,,,,,,,,,,,,2,5.883415,,0,1,148,298,136,1,stimuli/stim_20210407_power2amp/equal_lnn_AM6Hz_32.m4a,,,
,,,,,40726,2021-05-09_22h58.59.387,judgeSpeechMusic_20210407_logNormShiftAmp,2020.1.2,Win32,60,,,,,,,,,,,,,,,,,,,,,,,,,,1,8.847395,,0,1,149,299,64,1,stimuli/stim_20210407_power2amp/equal_lnn_AM3Hz_34.m4a,,,
,,,,,40726,2021-05-09_22h58.59.387,judgeSpeechMusic_20210407_logNormShiftAmp,2020.1.2,Win32,60,,,,,,,,,,,,,,,,,,,,,,,,,,,,,,,,,,,,,space,4.30064
