headphoneResponse.keys,headphoneResponse.corr,headphoneResponse.rt,headphoneTrial.thisRepN,headphoneTrial.thisTrialN,headphoneTrial.thisN,headphoneTrial.thisIndex,headphoneTrial.ran,headphone_sound1,headphone_sound2,headphone_sound3,corrAns,participant,date,expName,psychopyVersion,OS,frameRate,trainSlider.response,trainSlider.rt,beepTrainResponse.keys,beepTrainResponse.corr,trainingTrials.thisRepN,trainingTrials.thisTrialN,trainingTrials.thisN,trainingTrials.thisIndex,trainingTrials.ran,trainAudioFile,beepTrainResponse.rt,readyReal_resp.keys,readyReal_resp.rt,ratingSlider.response,ratingSlider.rt,beepResp.keys,beepResp.corr,expTrials.thisRepN,expTrials.thisTrialN,expTrials.thisN,expTrials.thisIndex,expTrials.ran,audioFile,beepResp.rt,end_resp.keys,end_resp.rt
1,1,0.88281,0,0,0,4,1,stimuli/screen_quiet.wav,stimuli/screen_antiphase.wav,stimuli/screen_origin.wav,1,40763,2021-05-10_03h27.06.343,judgeSpeechMusic_20210407_logNormShiftAmp,2020.1.2,Win32,60,,,,,,,,,,,,,,,,,,,,,,,,,,
3,1,1.34788,0,1,1,2,1,stimuli/screen_origin.wav,stimuli/screen_antiphase.wav,stimuli/screen_quiet.wav,3,40763,2021-05-10_03h27.06.343,judgeSpeechMusic_20210407_logNormShiftAmp,2020.1.2,Win32,60,,,,,,,,,,,,,,,,,,,,,,,,,,
3,1,0.533535,0,2,2,0,1,stimuli/screen_antiphase.wav,stimuli/screen_origin.wav,stimuli/screen_quiet.wav,3,40763,2021-05-10_03h27.06.343,judgeSpeechMusic_20210407_logNormShiftAmp,2020.1.2,Win32,60,,,,,,,,,,,,,,,,,,,,,,,,,,
2,1,0.750565,0,3,3,3,1,stimuli/screen_origin.wav,stimuli/screen_quiet.wav,stimuli/screen_antiphase.wav,2,40763,2021-05-10_03h27.06.343,judgeSpeechMusic_20210407_logNormShiftAmp,2020.1.2,Win32,60,,,,,,,,,,,,,,,,,,,,,,,,,,
2,1,0.623835,0,4,4,1,1,stimuli/screen_antiphase.wav,stimuli/screen_quiet.wav,stimuli/screen_origin.wav,2,40763,2021-05-10_03h27.06.343,judgeSpeechMusic_20210407_logNormShiftAmp,2020.1.2,Win32,60,,,,,,,,,,,,,,,,,,,,,,,,,,
2,0,0.63674,0,5,5,5,1,stimuli/screen_quiet.wav,stimuli/screen_origin.wav,stimuli/screen_antiphase.wav,1,40763,2021-05-10_03h27.06.343,judgeSpeechMusic_20210407_logNormShiftAmp,2020.1.2,Win32,60,,,,,,,,,,,,,,,,,,,,,,,,,,
,,,,,,,,,,,,40763,2021-05-10_03h27.06.343,judgeSpeechMusic_20210407_logNormShiftAmp,2020.1.2,Win32,60,1,11.35244,,0,0,0,0,3,1,stimuli/stim_20210407_power2amp/equal_lnn_AM_training5.1Hz.m4a,,,,,,,,,,,,,,,,
,,,,,,,,,,,,40763,2021-05-10_03h27.06.343,judgeSpeechMusic_20210407_logNormShiftAmp,2020.1.2,Win32,60,1,6.908865,,0,0,1,1,2,1,stimuli/stim_20210407_power2amp/equal_lnn_AM_training3.9Hz.m4a,,,,,,,,,,,,,,,,
,,,,,,,,,,,,40763,2021-05-10_03h27.06.343,judgeSpeechMusic_20210407_logNormShiftAmp,2020.1.2,Win32,60,2,6.68853,2,1,0,2,2,1,1,stimuli/stim_20210407_power2amp/equal_lnn_AM_training2.7Hz.m4a,1.72004,,,,,,,,,,,,,,,
,,,,,,,,,,,,40763,2021-05-10_03h27.06.343,judgeSpeechMusic_20210407_logNormShiftAmp,2020.1.2,Win32,60,1,6.05133,,0,0,3,3,0,1,stimuli/stim_20210407_power2amp/equal_lnn_AM_training1.5Hz.m4a,,,,,,,,,,,,,,,,
,,,,,,,,,,,,40763,2021-05-10_03h27.06.343,judgeSpeechMusic_20210407_logNormShiftAmp,2020.1.2,Win32,60,,,,,,,,,,,,space,3.83626,2,5.96613,,0,0,0,0,82,1,stimuli/stim_20210407_power2amp/equal_lnn_AM3.6Hz_66.m4a,,,
,,,,,,,,,,,,40763,2021-05-10_03h27.06.343,judgeSpeechMusic_20210407_logNormShiftAmp,2020.1.2,Win32,60,,,,,,,,,,,,,,1,6.250285,,0,0,1,1,49,1,stimuli/stim_20210407_power2amp/equal_lnn_AM2.4Hz_59.m4a,,,
,,,,,,,,,,,,40763,2021-05-10_03h27.06.343,judgeSpeechMusic_20210407_logNormShiftAmp,2020.1.2,Win32,60,,,,,,,,,,,,,,2,5.802135,,0,0,2,2,111,1,stimuli/stim_20210407_power2amp/equal_lnn_AM4.8Hz_91.m4a,,,
,,,,,,,,,,,,40763,2021-05-10_03h27.06.343,judgeSpeechMusic_20210407_logNormShiftAmp,2020.1.2,Win32,60,,,,,,,,,,,,,,2,5.735315,,0,0,3,3,148,1,stimuli/stim_20210407_power2amp/equal_lnn_AM6Hz_36.m4a,,,
,,,,,,,,,,,,40763,2021-05-10_03h27.06.343,judgeSpeechMusic_20210407_logNormShiftAmp,2020.1.2,Win32,60,,,,,,,,,,,,,,2,6.189665,,0,0,4,4,60,1,stimuli/stim_20210407_power2amp/equal_lnn_AM3Hz_76.m4a,,,
,,,,,,,,,,,,40763,2021-05-10_03h27.06.343,judgeSpeechMusic_20210407_logNormShiftAmp,2020.1.2,Win32,60,,,,,,,,,,,,,,1,5.81842,,0,0,5,5,128,1,stimuli/stim_20210407_power2amp/equal_lnn_AM5.4Hz_56.m4a,,,
,,,,,,,,,,,,40763,2021-05-10_03h27.06.343,judgeSpeechMusic_20210407_logNormShiftAmp,2020.1.2,Win32,60,,,,,,,,,,,,,,1,5.709555,,0,0,6,6,39,1,stimuli/stim_20210407_power2amp/equal_lnn_AM1.8Hz_51.m4a,,,
,,,,,,,,,,,,40763,2021-05-10_03h27.06.343,judgeSpeechMusic_20210407_logNormShiftAmp,2020.1.2,Win32,60,,,,,,,,,,,,,,1,6.210335,,0,0,7,7,135,1,stimuli/stim_20210407_power2amp/equal_lnn_AM6Hz_49.m4a,,,
,,,,,,,,,,,,40763,2021-05-10_03h27.06.343,judgeSpeechMusic_20210407_logNormShiftAmp,2020.1.2,Win32,60,,,,,,,,,,,,,,2,6.926615,,0,0,8,8,7,1,stimuli/stim_20210407_power2amp/equal_lnn_AM0.6Hz_69.m4a,,,
,,,,,,,,,,,,40763,2021-05-10_03h27.06.343,judgeSpeechMusic_20210407_logNormShiftAmp,2020.1.2,Win32,60,,,,,,,,,,,,,,2,5.580645,,0,0,9,9,99,1,stimuli/stim_20210407_power2amp/equal_lnn_AM4.2Hz_80.m4a,,,
,,,,,,,,,,,,40763,2021-05-10_03h27.06.343,judgeSpeechMusic_20210407_logNormShiftAmp,2020.1.2,Win32,60,,,,,,,,,,,,,,1,5.852085,,0,0,10,10,124,1,stimuli/stim_20210407_power2amp/equal_lnn_AM5.4Hz_84.m4a,,,
,,,,,,,,,,,,40763,2021-05-10_03h27.06.343,judgeSpeechMusic_20210407_logNormShiftAmp,2020.1.2,Win32,60,,,,,,,,,,,,,,2,6.91476,,0,0,11,11,17,1,stimuli/stim_20210407_power2amp/equal_lnn_AM1.2Hz_93.m4a,,,
,,,,,,,,,,,,40763,2021-05-10_03h27.06.343,judgeSpeechMusic_20210407_logNormShiftAmp,2020.1.2,Win32,60,,,,,,,,,,,,,,2,5.9077,,0,0,12,12,36,1,stimuli/stim_20210407_power2amp/equal_lnn_AM1.8Hz_40.m4a,,,
,,,,,,,,,,,,40763,2021-05-10_03h27.06.343,judgeSpeechMusic_20210407_logNormShiftAmp,2020.1.2,Win32,60,,,,,,,,,,,,,,1,6.550905,,0,0,13,13,12,1,stimuli/stim_20210407_power2amp/equal_lnn_AM0.6Hz_17.m4a,,,
,,,,,,,,,,,,40763,2021-05-10_03h27.06.343,judgeSpeechMusic_20210407_logNormShiftAmp,2020.1.2,Win32,60,,,,,,,,,,,,,,2,7.736455,,0,0,14,14,24,1,stimuli/stim_20210407_power2amp/equal_lnn_AM1.2Hz_48.m4a,,,
,,,,,,,,,,,,40763,2021-05-10_03h27.06.343,judgeSpeechMusic_20210407_logNormShiftAmp,2020.1.2,Win32,60,,,,,,,,,,,,,,2,6.184695,,0,0,15,15,106,1,stimuli/stim_20210407_power2amp/equal_lnn_AM4.8Hz_39.m4a,,,
,,,,,,,,,,,,40763,2021-05-10_03h27.06.343,judgeSpeechMusic_20210407_logNormShiftAmp,2020.1.2,Win32,60,,,,,,,,,,,,,,2,6.786135,,0,0,16,16,120,1,stimuli/stim_20210407_power2amp/equal_lnn_AM5.4Hz_97.m4a,,,
,,,,,,,,,,,,40763,2021-05-10_03h27.06.343,judgeSpeechMusic_20210407_logNormShiftAmp,2020.1.2,Win32,60,,,,,,,,,,,,,,1,6.539845,,0,0,17,17,118,1,stimuli/stim_20210407_power2amp/equal_lnn_AM4.8Hz_98.m4a,,,
,,,,,,,,,,,,40763,2021-05-10_03h27.06.343,judgeSpeechMusic_20210407_logNormShiftAmp,2020.1.2,Win32,60,,,,,,,,,,,,,,1,6.738385,,0,0,18,18,20,1,stimuli/stim_20210407_power2amp/equal_lnn_AM1.2Hz_62.m4a,,,
,,,,,,,,,,,,40763,2021-05-10_03h27.06.343,judgeSpeechMusic_20210407_logNormShiftAmp,2020.1.2,Win32,60,,,,,,,,,,,,,,2,6.386405,,0,0,19,19,53,1,stimuli/stim_20210407_power2amp/equal_lnn_AM2.4Hz_65.m4a,,,
,,,,,,,,,,,,40763,2021-05-10_03h27.06.343,judgeSpeechMusic_20210407_logNormShiftAmp,2020.1.2,Win32,60,,,,,,,,,,,,,,1,6.079715,,0,0,20,20,11,1,stimuli/stim_20210407_power2amp/equal_lnn_AM0.6Hz_99.m4a,,,
,,,,,,,,,,,,40763,2021-05-10_03h27.06.343,judgeSpeechMusic_20210407_logNormShiftAmp,2020.1.2,Win32,60,,,,,,,,,,,,,,1,8.7517,,0,0,21,21,110,1,stimuli/stim_20210407_power2amp/equal_lnn_AM4.8Hz_29.m4a,,,
,,,,,,,,,,,,40763,2021-05-10_03h27.06.343,judgeSpeechMusic_20210407_logNormShiftAmp,2020.1.2,Win32,60,,,,,,,,,,,,,,2,6.236375,,0,0,22,22,129,1,stimuli/stim_20210407_power2amp/equal_lnn_AM5.4Hz_55.m4a,,,
,,,,,,,,,,,,40763,2021-05-10_03h27.06.343,judgeSpeechMusic_20210407_logNormShiftAmp,2020.1.2,Win32,60,,,,,,,,,,,,,,2,6.551805,,0,0,23,23,23,1,stimuli/stim_20210407_power2amp/equal_lnn_AM1.2Hz_100.m4a,,,
,,,,,,,,,,,,40763,2021-05-10_03h27.06.343,judgeSpeechMusic_20210407_logNormShiftAmp,2020.1.2,Win32,60,,,,,,,,,,,,,,2,5.21565,,0,0,24,24,57,1,stimuli/stim_20210407_power2amp/equal_lnn_AM2.4Hz_66.m4a,,,
,,,,,,,,,,,,40763,2021-05-10_03h27.06.343,judgeSpeechMusic_20210407_logNormShiftAmp,2020.1.2,Win32,60,,,,,,,,,,,,,,1,6.22615,,0,0,25,25,35,1,stimuli/stim_20210407_power2amp/equal_lnn_AM1.8Hz_74.m4a,,,
,,,,,,,,,,,,40763,2021-05-10_03h27.06.343,judgeSpeechMusic_20210407_logNormShiftAmp,2020.1.2,Win32,60,,,,,,,,,,,,,,2,5.82577,,0,0,26,26,33,1,stimuli/stim_20210407_power2amp/equal_lnn_AM1.8Hz_85.m4a,,,
,,,,,,,,,,,,40763,2021-05-10_03h27.06.343,judgeSpeechMusic_20210407_logNormShiftAmp,2020.1.2,Win32,60,,,,,,,,,,,,,,1,5.701345,,0,0,27,27,32,1,stimuli/stim_20210407_power2amp/equal_lnn_AM1.8Hz_16.m4a,,,
,,,,,,,,,,,,40763,2021-05-10_03h27.06.343,judgeSpeechMusic_20210407_logNormShiftAmp,2020.1.2,Win32,60,,,,,,,,,,,,,,1,8.7792,,0,0,28,28,144,1,stimuli/stim_20210407_power2amp/equal_lnn_AM6Hz_77.m4a,,,
,,,,,,,,,,,,40763,2021-05-10_03h27.06.343,judgeSpeechMusic_20210407_logNormShiftAmp,2020.1.2,Win32,60,,,,,,,,,,,,,,2,6.642255,,0,0,29,29,22,1,stimuli/stim_20210407_power2amp/equal_lnn_AM1.2Hz_58.m4a,,,
,,,,,,,,,,,,40763,2021-05-10_03h27.06.343,judgeSpeechMusic_20210407_logNormShiftAmp,2020.1.2,Win32,60,,,,,,,,,,,,,,2,5.925,,0,0,30,30,139,1,stimuli/stim_20210407_power2amp/equal_lnn_AM6Hz_81.m4a,,,
,,,,,,,,,,,,40763,2021-05-10_03h27.06.343,judgeSpeechMusic_20210407_logNormShiftAmp,2020.1.2,Win32,60,,,,,,,,,,,,,,1,6.434925,,0,0,31,31,85,1,stimuli/stim_20210407_power2amp/equal_lnn_AM3.6Hz_19.m4a,,,
,,,,,,,,,,,,40763,2021-05-10_03h27.06.343,judgeSpeechMusic_20210407_logNormShiftAmp,2020.1.2,Win32,60,,,,,,,,,,,,,,2,5.79686,,0,0,32,32,127,1,stimuli/stim_20210407_power2amp/equal_lnn_AM5.4Hz_76.m4a,,,
,,,,,,,,,,,,40763,2021-05-10_03h27.06.343,judgeSpeechMusic_20210407_logNormShiftAmp,2020.1.2,Win32,60,,,,,,,,,,,,,,2,8.59946,,0,0,33,33,56,1,stimuli/stim_20210407_power2amp/equal_lnn_AM2.4Hz_20.m4a,,,
,,,,,,,,,,,,40763,2021-05-10_03h27.06.343,judgeSpeechMusic_20210407_logNormShiftAmp,2020.1.2,Win32,60,,,,,,,,,,,,,,1,6.54721,,0,0,34,34,68,1,stimuli/stim_20210407_power2amp/equal_lnn_AM3Hz_43.m4a,,,
,,,,,,,,,,,,40763,2021-05-10_03h27.06.343,judgeSpeechMusic_20210407_logNormShiftAmp,2020.1.2,Win32,60,,,,,,,,,,,,,,2,8.70142,,0,0,35,35,102,1,stimuli/stim_20210407_power2amp/equal_lnn_AM4.2Hz_85.m4a,,,
,,,,,,,,,,,,40763,2021-05-10_03h27.06.343,judgeSpeechMusic_20210407_logNormShiftAmp,2020.1.2,Win32,60,,,,,,,,,,,,,,2,5.684895,,0,0,36,36,103,1,stimuli/stim_20210407_power2amp/equal_lnn_AM4.2Hz_57.m4a,,,
,,,,,,,,,,,,40763,2021-05-10_03h27.06.343,judgeSpeechMusic_20210407_logNormShiftAmp,2020.1.2,Win32,60,,,,,,,,,,,,,,2,5.291405,,0,0,37,37,62,1,stimuli/stim_20210407_power2amp/equal_lnn_AM3Hz_8.m4a,,,
,,,,,,,,,,,,40763,2021-05-10_03h27.06.343,judgeSpeechMusic_20210407_logNormShiftAmp,2020.1.2,Win32,60,,,,,,,,,,,,,,1,8.958715,,0,0,38,38,55,1,stimuli/stim_20210407_power2amp/equal_lnn_AM2.4Hz_62.m4a,,,
,,,,,,,,,,,,40763,2021-05-10_03h27.06.343,judgeSpeechMusic_20210407_logNormShiftAmp,2020.1.2,Win32,60,,,,,,,,,,,,,,2,7.25428,,0,0,39,39,25,1,stimuli/stim_20210407_power2amp/equal_lnn_AM1.2Hz_2.m4a,,,
,,,,,,,,,,,,40763,2021-05-10_03h27.06.343,judgeSpeechMusic_20210407_logNormShiftAmp,2020.1.2,Win32,60,,,,,,,,,,,,,,2,7.460635,1,1,0,40,40,48,1,stimuli/stim_20210407_power2amp/equal_lnn_AM2.4Hz_31.m4a,6.46404,,
,,,,,,,,,,,,40763,2021-05-10_03h27.06.343,judgeSpeechMusic_20210407_logNormShiftAmp,2020.1.2,Win32,60,,,,,,,,,,,,,,2,6.55263,,0,0,41,41,117,1,stimuli/stim_20210407_power2amp/equal_lnn_AM4.8Hz_82.m4a,,,
,,,,,,,,,,,,40763,2021-05-10_03h27.06.343,judgeSpeechMusic_20210407_logNormShiftAmp,2020.1.2,Win32,60,,,,,,,,,,,,,,1,7.81432,,0,0,42,42,4,1,stimuli/stim_20210407_power2amp/equal_lnn_AM0.6Hz_30.m4a,,,
,,,,,,,,,,,,40763,2021-05-10_03h27.06.343,judgeSpeechMusic_20210407_logNormShiftAmp,2020.1.2,Win32,60,,,,,,,,,,,,,,1,5.585655,,0,0,43,43,114,1,stimuli/stim_20210407_power2amp/equal_lnn_AM4.8Hz_19.m4a,,,
,,,,,,,,,,,,40763,2021-05-10_03h27.06.343,judgeSpeechMusic_20210407_logNormShiftAmp,2020.1.2,Win32,60,,,,,,,,,,,,,,2,6.33538,,0,0,44,44,58,1,stimuli/stim_20210407_power2amp/equal_lnn_AM2.4Hz_36.m4a,,,
,,,,,,,,,,,,40763,2021-05-10_03h27.06.343,judgeSpeechMusic_20210407_logNormShiftAmp,2020.1.2,Win32,60,,,,,,,,,,,,,,2,6.08173,,0,0,45,45,34,1,stimuli/stim_20210407_power2amp/equal_lnn_AM1.8Hz_31.m4a,,,
,,,,,,,,,,,,40763,2021-05-10_03h27.06.343,judgeSpeechMusic_20210407_logNormShiftAmp,2020.1.2,Win32,60,,,,,,,,,,,,,,1,5.78489,,0,0,46,46,97,1,stimuli/stim_20210407_power2amp/equal_lnn_AM4.2Hz_64.m4a,,,
,,,,,,,,,,,,40763,2021-05-10_03h27.06.343,judgeSpeechMusic_20210407_logNormShiftAmp,2020.1.2,Win32,60,,,,,,,,,,,,,,2,7.131765,,0,0,47,47,13,1,stimuli/stim_20210407_power2amp/equal_lnn_AM0.6Hz_39.m4a,,,
,,,,,,,,,,,,40763,2021-05-10_03h27.06.343,judgeSpeechMusic_20210407_logNormShiftAmp,2020.1.2,Win32,60,,,,,,,,,,,,,,2,5.75211,,0,0,48,48,140,1,stimuli/stim_20210407_power2amp/equal_lnn_AM6Hz_89.m4a,,,
,,,,,,,,,,,,40763,2021-05-10_03h27.06.343,judgeSpeechMusic_20210407_logNormShiftAmp,2020.1.2,Win32,60,,,,,,,,,,,,,,2,5.86419,,0,0,49,49,92,1,stimuli/stim_20210407_power2amp/equal_lnn_AM4.2Hz_40.m4a,,,
,,,,,,,,,,,,40763,2021-05-10_03h27.06.343,judgeSpeechMusic_20210407_logNormShiftAmp,2020.1.2,Win32,60,,,,,,,,,,,,,,2,6.208805,,0,0,50,50,132,1,stimuli/stim_20210407_power2amp/equal_lnn_AM5.4Hz_24.m4a,,,
,,,,,,,,,,,,40763,2021-05-10_03h27.06.343,judgeSpeechMusic_20210407_logNormShiftAmp,2020.1.2,Win32,60,,,,,,,,,,,,,,2,5.45808,,0,0,51,51,123,1,stimuli/stim_20210407_power2amp/equal_lnn_AM5.4Hz_90.m4a,,,
,,,,,,,,,,,,40763,2021-05-10_03h27.06.343,judgeSpeechMusic_20210407_logNormShiftAmp,2020.1.2,Win32,60,,,,,,,,,,,,,,2,6.751785,,0,0,52,52,15,1,stimuli/stim_20210407_power2amp/equal_lnn_AM1.2Hz_34.m4a,,,
,,,,,,,,,,,,40763,2021-05-10_03h27.06.343,judgeSpeechMusic_20210407_logNormShiftAmp,2020.1.2,Win32,60,,,,,,,,,,,,,,2,5.56548,,0,0,53,53,134,1,stimuli/stim_20210407_power2amp/equal_lnn_AM5.4Hz_82.m4a,,,
,,,,,,,,,,,,40763,2021-05-10_03h27.06.343,judgeSpeechMusic_20210407_logNormShiftAmp,2020.1.2,Win32,60,,,,,,,,,,,,,,1,6.52749,,0,0,54,54,77,1,stimuli/stim_20210407_power2amp/equal_lnn_AM3.6Hz_61.m4a,,,
,,,,,,,,,,,,40763,2021-05-10_03h27.06.343,judgeSpeechMusic_20210407_logNormShiftAmp,2020.1.2,Win32,60,,,,,,,,,,,,,,1,8.207805,,0,0,55,55,6,1,stimuli/stim_20210407_power2amp/equal_lnn_AM0.6Hz_94.m4a,,,
,,,,,,,,,,,,40763,2021-05-10_03h27.06.343,judgeSpeechMusic_20210407_logNormShiftAmp,2020.1.2,Win32,60,,,,,,,,,,,,,,2,7.340405,,0,0,56,56,95,1,stimuli/stim_20210407_power2amp/equal_lnn_AM4.2Hz_19.m4a,,,
,,,,,,,,,,,,40763,2021-05-10_03h27.06.343,judgeSpeechMusic_20210407_logNormShiftAmp,2020.1.2,Win32,60,,,,,,,,,,,,,,2,6.034445,,0,0,57,57,115,1,stimuli/stim_20210407_power2amp/equal_lnn_AM4.8Hz_43.m4a,,,
,,,,,,,,,,,,40763,2021-05-10_03h27.06.343,judgeSpeechMusic_20210407_logNormShiftAmp,2020.1.2,Win32,60,,,,,,,,,,,,,,2,5.80035,,0,0,58,58,133,1,stimuli/stim_20210407_power2amp/equal_lnn_AM5.4Hz_70.m4a,,,
,,,,,,,,,,,,40763,2021-05-10_03h27.06.343,judgeSpeechMusic_20210407_logNormShiftAmp,2020.1.2,Win32,60,,,,,,,,,,,,,,2,5.685875,,0,0,59,59,21,1,stimuli/stim_20210407_power2amp/equal_lnn_AM1.2Hz_66.m4a,,,
,,,,,,,,,,,,40763,2021-05-10_03h27.06.343,judgeSpeechMusic_20210407_logNormShiftAmp,2020.1.2,Win32,60,,,,,,,,,,,,,,1,5.80902,2,1,0,60,60,61,1,stimuli/stim_20210407_power2amp/equal_lnn_AM3Hz_93.m4a,1.4979,,
,,,,,,,,,,,,40763,2021-05-10_03h27.06.343,judgeSpeechMusic_20210407_logNormShiftAmp,2020.1.2,Win32,60,,,,,,,,,,,,,,2,6.019815,,0,0,61,61,147,1,stimuli/stim_20210407_power2amp/equal_lnn_AM6Hz_82.m4a,,,
,,,,,,,,,,,,40763,2021-05-10_03h27.06.343,judgeSpeechMusic_20210407_logNormShiftAmp,2020.1.2,Win32,60,,,,,,,,,,,,,,2,5.81819,,0,0,62,62,26,1,stimuli/stim_20210407_power2amp/equal_lnn_AM1.2Hz_49.m4a,,,
,,,,,,,,,,,,40763,2021-05-10_03h27.06.343,judgeSpeechMusic_20210407_logNormShiftAmp,2020.1.2,Win32,60,,,,,,,,,,,,,,2,6.415705,,0,0,63,63,93,1,stimuli/stim_20210407_power2amp/equal_lnn_AM4.2Hz_31.m4a,,,
,,,,,,,,,,,,40763,2021-05-10_03h27.06.343,judgeSpeechMusic_20210407_logNormShiftAmp,2020.1.2,Win32,60,,,,,,,,,,,,,,2,5.66365,,0,0,64,64,104,1,stimuli/stim_20210407_power2amp/equal_lnn_AM4.2Hz_62.m4a,,,
,,,,,,,,,,,,40763,2021-05-10_03h27.06.343,judgeSpeechMusic_20210407_logNormShiftAmp,2020.1.2,Win32,60,,,,,,,,,,,,,,1,12.444875,,0,0,65,65,27,1,stimuli/stim_20210407_power2amp/equal_lnn_AM1.2Hz_63.m4a,,,
,,,,,,,,,,,,40763,2021-05-10_03h27.06.343,judgeSpeechMusic_20210407_logNormShiftAmp,2020.1.2,Win32,60,,,,,,,,,,,,,,2,16.255895,,0,0,66,66,18,1,stimuli/stim_20210407_power2amp/equal_lnn_AM1.2Hz_4.m4a,,,
,,,,,,,,,,,,40763,2021-05-10_03h27.06.343,judgeSpeechMusic_20210407_logNormShiftAmp,2020.1.2,Win32,60,,,,,,,,,,,,,,2,40.014605,,0,0,67,67,136,1,stimuli/stim_20210407_power2amp/equal_lnn_AM6Hz_54.m4a,,,
,,,,,,,,,,,,40763,2021-05-10_03h27.06.343,judgeSpeechMusic_20210407_logNormShiftAmp,2020.1.2,Win32,60,,,,,,,,,,,,,,1,8.71835,,0,0,68,68,130,1,stimuli/stim_20210407_power2amp/equal_lnn_AM5.4Hz_22.m4a,,,
,,,,,,,,,,,,40763,2021-05-10_03h27.06.343,judgeSpeechMusic_20210407_logNormShiftAmp,2020.1.2,Win32,60,,,,,,,,,,,,,,2,9.232125,,0,0,69,69,141,1,stimuli/stim_20210407_power2amp/equal_lnn_AM6Hz_30.m4a,,,
,,,,,,,,,,,,40763,2021-05-10_03h27.06.343,judgeSpeechMusic_20210407_logNormShiftAmp,2020.1.2,Win32,60,,,,,,,,,,,,,,2,6.32239,,0,0,70,70,75,1,stimuli/stim_20210407_power2amp/equal_lnn_AM3.6Hz_40.m4a,,,
,,,,,,,,,,,,40763,2021-05-10_03h27.06.343,judgeSpeechMusic_20210407_logNormShiftAmp,2020.1.2,Win32,60,,,,,,,,,,,,,,2,6.93445,,0,0,71,71,59,1,stimuli/stim_20210407_power2amp/equal_lnn_AM2.4Hz_39.m4a,,,
,,,,,,,,,,,,40763,2021-05-10_03h27.06.343,judgeSpeechMusic_20210407_logNormShiftAmp,2020.1.2,Win32,60,,,,,,,,,,,,,,2,7.186315,,0,0,72,72,146,1,stimuli/stim_20210407_power2amp/equal_lnn_AM6Hz_97.m4a,,,
,,,,,,,,,,,,40763,2021-05-10_03h27.06.343,judgeSpeechMusic_20210407_logNormShiftAmp,2020.1.2,Win32,60,,,,,,,,,,,,,,1,9.188905,,0,0,73,73,37,1,stimuli/stim_20210407_power2amp/equal_lnn_AM1.8Hz_52.m4a,,,
,,,,,,,,,,,,40763,2021-05-10_03h27.06.343,judgeSpeechMusic_20210407_logNormShiftAmp,2020.1.2,Win32,60,,,,,,,,,,,,,,1,8.93983,,0,0,74,74,100,1,stimuli/stim_20210407_power2amp/equal_lnn_AM4.2Hz_11.m4a,,,
,,,,,,,,,,,,40763,2021-05-10_03h27.06.343,judgeSpeechMusic_20210407_logNormShiftAmp,2020.1.2,Win32,60,,,,,,,,,,,,,,2,8.52404,,0,0,75,75,8,1,stimuli/stim_20210407_power2amp/equal_lnn_AM0.6Hz_29.m4a,,,
,,,,,,,,,,,,40763,2021-05-10_03h27.06.343,judgeSpeechMusic_20210407_logNormShiftAmp,2020.1.2,Win32,60,,,,,,,,,,,,,,2,8.31996,,0,0,76,76,101,1,stimuli/stim_20210407_power2amp/equal_lnn_AM4.2Hz_78.m4a,,,
,,,,,,,,,,,,40763,2021-05-10_03h27.06.343,judgeSpeechMusic_20210407_logNormShiftAmp,2020.1.2,Win32,60,,,,,,,,,,,,,,2,6.50156,,0,0,77,77,46,1,stimuli/stim_20210407_power2amp/equal_lnn_AM2.4Hz_17.m4a,,,
,,,,,,,,,,,,40763,2021-05-10_03h27.06.343,judgeSpeechMusic_20210407_logNormShiftAmp,2020.1.2,Win32,60,,,,,,,,,,,,,,1,13.134485,,0,0,78,78,0,1,stimuli/stim_20210407_power2amp/equal_lnn_AM0.6Hz_45.m4a,,,
,,,,,,,,,,,,40763,2021-05-10_03h27.06.343,judgeSpeechMusic_20210407_logNormShiftAmp,2020.1.2,Win32,60,,,,,,,,,,,,,,2,16.002365,,0,0,79,79,89,1,stimuli/stim_20210407_power2amp/equal_lnn_AM3.6Hz_44.m4a,,,
,,,,,,,,,,,,40763,2021-05-10_03h27.06.343,judgeSpeechMusic_20210407_logNormShiftAmp,2020.1.2,Win32,60,,,,,,,,,,,,,,2,5.755475,,0,0,80,80,66,1,stimuli/stim_20210407_power2amp/equal_lnn_AM3Hz_68.m4a,,,
,,,,,,,,,,,,40763,2021-05-10_03h27.06.343,judgeSpeechMusic_20210407_logNormShiftAmp,2020.1.2,Win32,60,,,,,,,,,,,,,,2,5.353805,,0,0,81,81,19,1,stimuli/stim_20210407_power2amp/equal_lnn_AM1.2Hz_50.m4a,,,
,,,,,,,,,,,,40763,2021-05-10_03h27.06.343,judgeSpeechMusic_20210407_logNormShiftAmp,2020.1.2,Win32,60,,,,,,,,,,,,,,2,8.579325,1,1,0,82,82,73,1,stimuli/stim_20210407_power2amp/equal_lnn_AM3Hz_60.m4a,1.135415,,
,,,,,,,,,,,,40763,2021-05-10_03h27.06.343,judgeSpeechMusic_20210407_logNormShiftAmp,2020.1.2,Win32,60,,,,,,,,,,,,,,1,5.73201,,0,0,83,83,14,1,stimuli/stim_20210407_power2amp/equal_lnn_AM0.6Hz_60.m4a,,,
,,,,,,,,,,,,40763,2021-05-10_03h27.06.343,judgeSpeechMusic_20210407_logNormShiftAmp,2020.1.2,Win32,60,,,,,,,,,,,,,,1,7.63976,,0,0,84,84,63,1,stimuli/stim_20210407_power2amp/equal_lnn_AM3Hz_35.m4a,,,
,,,,,,,,,,,,40763,2021-05-10_03h27.06.343,judgeSpeechMusic_20210407_logNormShiftAmp,2020.1.2,Win32,60,,,,,,,,,,,,,,1,7.423415,,0,0,85,85,40,1,stimuli/stim_20210407_power2amp/equal_lnn_AM1.8Hz_17.m4a,,,
,,,,,,,,,,,,40763,2021-05-10_03h27.06.343,judgeSpeechMusic_20210407_logNormShiftAmp,2020.1.2,Win32,60,,,,,,,,,,,,,,2,15.56818,,0,0,86,86,74,1,stimuli/stim_20210407_power2amp/equal_lnn_AM3Hz_9.m4a,,,
,,,,,,,,,,,,40763,2021-05-10_03h27.06.343,judgeSpeechMusic_20210407_logNormShiftAmp,2020.1.2,Win32,60,,,,,,,,,,,,,,2,93.406125,,0,0,87,87,50,1,stimuli/stim_20210407_power2amp/equal_lnn_AM2.4Hz_13.m4a,,,
,,,,,,,,,,,,40763,2021-05-10_03h27.06.343,judgeSpeechMusic_20210407_logNormShiftAmp,2020.1.2,Win32,60,,,,,,,,,,,,,,2,8.813485,,0,0,88,88,10,1,stimuli/stim_20210407_power2amp/equal_lnn_AM0.6Hz_31.m4a,,,
,,,,,,,,,,,,40763,2021-05-10_03h27.06.343,judgeSpeechMusic_20210407_logNormShiftAmp,2020.1.2,Win32,60,,,,,,,,,,,,,,1,29.19445,,0,0,89,89,143,1,stimuli/stim_20210407_power2amp/equal_lnn_AM6Hz_76.m4a,,,
,,,,,,,,,,,,40763,2021-05-10_03h27.06.343,judgeSpeechMusic_20210407_logNormShiftAmp,2020.1.2,Win32,60,,,,,,,,,,,,,,2,8.0431,,0,0,90,90,51,1,stimuli/stim_20210407_power2amp/equal_lnn_AM2.4Hz_61.m4a,,,
,,,,,,,,,,,,40763,2021-05-10_03h27.06.343,judgeSpeechMusic_20210407_logNormShiftAmp,2020.1.2,Win32,60,,,,,,,,,,,,,,2,7.64143,,0,0,91,91,5,1,stimuli/stim_20210407_power2amp/equal_lnn_AM0.6Hz_68.m4a,,,
,,,,,,,,,,,,40763,2021-05-10_03h27.06.343,judgeSpeechMusic_20210407_logNormShiftAmp,2020.1.2,Win32,60,,,,,,,,,,,,,,1,6.99704,,0,0,92,92,105,1,stimuli/stim_20210407_power2amp/equal_lnn_AM4.8Hz_67.m4a,,,
,,,,,,,,,,,,40763,2021-05-10_03h27.06.343,judgeSpeechMusic_20210407_logNormShiftAmp,2020.1.2,Win32,60,,,,,,,,,,,,,,2,9.65284,,0,0,93,93,107,1,stimuli/stim_20210407_power2amp/equal_lnn_AM4.8Hz_69.m4a,,,
,,,,,,,,,,,,40763,2021-05-10_03h27.06.343,judgeSpeechMusic_20210407_logNormShiftAmp,2020.1.2,Win32,60,,,,,,,,,,,,,,2,9.007595,,0,0,94,94,69,1,stimuli/stim_20210407_power2amp/equal_lnn_AM3Hz_2.m4a,,,
,,,,,,,,,,,,40763,2021-05-10_03h27.06.343,judgeSpeechMusic_20210407_logNormShiftAmp,2020.1.2,Win32,60,,,,,,,,,,,,,,2,13.25149,,0,0,95,95,98,1,stimuli/stim_20210407_power2amp/equal_lnn_AM4.2Hz_72.m4a,,,
,,,,,,,,,,,,40763,2021-05-10_03h27.06.343,judgeSpeechMusic_20210407_logNormShiftAmp,2020.1.2,Win32,60,,,,,,,,,,,,,,2,9.999615,,0,0,96,96,29,1,stimuli/stim_20210407_power2amp/equal_lnn_AM1.2Hz_12.m4a,,,
,,,,,,,,,,,,40763,2021-05-10_03h27.06.343,judgeSpeechMusic_20210407_logNormShiftAmp,2020.1.2,Win32,60,,,,,,,,,,,,,,1,9.541145,,0,0,97,97,31,1,stimuli/stim_20210407_power2amp/equal_lnn_AM1.8Hz_11.m4a,,,
,,,,,,,,,,,,40763,2021-05-10_03h27.06.343,judgeSpeechMusic_20210407_logNormShiftAmp,2020.1.2,Win32,60,,,,,,,,,,,,,,1,10.314375,,0,0,98,98,42,1,stimuli/stim_20210407_power2amp/equal_lnn_AM1.8Hz_67.m4a,,,
,,,,,,,,,,,,40763,2021-05-10_03h27.06.343,judgeSpeechMusic_20210407_logNormShiftAmp,2020.1.2,Win32,60,,,,,,,,,,,,,,2,10.201525,,0,0,99,99,41,1,stimuli/stim_20210407_power2amp/equal_lnn_AM1.8Hz_46.m4a,,,
,,,,,,,,,,,,40763,2021-05-10_03h27.06.343,judgeSpeechMusic_20210407_logNormShiftAmp,2020.1.2,Win32,60,,,,,,,,,,,,,,1,19.92763,,0,0,100,100,109,1,stimuli/stim_20210407_power2amp/equal_lnn_AM4.8Hz_97.m4a,,,
,,,,,,,,,,,,40763,2021-05-10_03h27.06.343,judgeSpeechMusic_20210407_logNormShiftAmp,2020.1.2,Win32,60,,,,,,,,,,,,,,1,46.420215,,0,0,101,101,78,1,stimuli/stim_20210407_power2amp/equal_lnn_AM3.6Hz_35.m4a,,,
,,,,,,,,,,,,40763,2021-05-10_03h27.06.343,judgeSpeechMusic_20210407_logNormShiftAmp,2020.1.2,Win32,60,,,,,,,,,,,,,,1,6.671175,,0,0,102,102,142,1,stimuli/stim_20210407_power2amp/equal_lnn_AM6Hz_98.m4a,,,
,,,,,,,,,,,,40763,2021-05-10_03h27.06.343,judgeSpeechMusic_20210407_logNormShiftAmp,2020.1.2,Win32,60,,,,,,,,,,,,,,2,7.35508,,0,0,103,103,87,1,stimuli/stim_20210407_power2amp/equal_lnn_AM3.6Hz_96.m4a,,,
,,,,,,,,,,,,40763,2021-05-10_03h27.06.343,judgeSpeechMusic_20210407_logNormShiftAmp,2020.1.2,Win32,60,,,,,,,,,,,,,,2,5.817925,,0,0,104,104,90,1,stimuli/stim_20210407_power2amp/equal_lnn_AM4.2Hz_75.m4a,,,
,,,,,,,,,,,,40763,2021-05-10_03h27.06.343,judgeSpeechMusic_20210407_logNormShiftAmp,2020.1.2,Win32,60,,,,,,,,,,,,,,2,5.931745,,0,0,105,105,121,1,stimuli/stim_20210407_power2amp/equal_lnn_AM5.4Hz_32.m4a,,,
,,,,,,,,,,,,40763,2021-05-10_03h27.06.343,judgeSpeechMusic_20210407_logNormShiftAmp,2020.1.2,Win32,60,,,,,,,,,,,,,,2,29.43496,,0,0,106,106,45,1,stimuli/stim_20210407_power2amp/equal_lnn_AM2.4Hz_87.m4a,,,
,,,,,,,,,,,,40763,2021-05-10_03h27.06.343,judgeSpeechMusic_20210407_logNormShiftAmp,2020.1.2,Win32,60,,,,,,,,,,,,,,2,8.99968,1,1,0,107,107,3,1,stimuli/stim_20210407_power2amp/equal_lnn_AM0.6Hz_28.m4a,1.57184,,
,,,,,,,,,,,,40763,2021-05-10_03h27.06.343,judgeSpeechMusic_20210407_logNormShiftAmp,2020.1.2,Win32,60,,,,,,,,,,,,,,2,10.998835,,0,0,108,108,70,1,stimuli/stim_20210407_power2amp/equal_lnn_AM3Hz_30.m4a,,,
,,,,,,,,,,,,40763,2021-05-10_03h27.06.343,judgeSpeechMusic_20210407_logNormShiftAmp,2020.1.2,Win32,60,,,,,,,,,,,,,,2,7.301955,,0,0,109,109,84,1,stimuli/stim_20210407_power2amp/equal_lnn_AM3.6Hz_48.m4a,,,
,,,,,,,,,,,,40763,2021-05-10_03h27.06.343,judgeSpeechMusic_20210407_logNormShiftAmp,2020.1.2,Win32,60,,,,,,,,,,,,,,2,5.390045,,0,0,110,110,71,1,stimuli/stim_20210407_power2amp/equal_lnn_AM3Hz_5.m4a,,,
,,,,,,,,,,,,40763,2021-05-10_03h27.06.343,judgeSpeechMusic_20210407_logNormShiftAmp,2020.1.2,Win32,60,,,,,,,,,,,,,,2,6.26423,,0,0,111,111,83,1,stimuli/stim_20210407_power2amp/equal_lnn_AM3.6Hz_72.m4a,,,
,,,,,,,,,,,,40763,2021-05-10_03h27.06.343,judgeSpeechMusic_20210407_logNormShiftAmp,2020.1.2,Win32,60,,,,,,,,,,,,,,1,6.414465,,0,0,112,112,126,1,stimuli/stim_20210407_power2amp/equal_lnn_AM5.4Hz_19.m4a,,,
,,,,,,,,,,,,40763,2021-05-10_03h27.06.343,judgeSpeechMusic_20210407_logNormShiftAmp,2020.1.2,Win32,60,,,,,,,,,,,,,,1,19.180615,,0,0,113,113,91,1,stimuli/stim_20210407_power2amp/equal_lnn_AM4.2Hz_86.m4a,,,
,,,,,,,,,,,,40763,2021-05-10_03h27.06.343,judgeSpeechMusic_20210407_logNormShiftAmp,2020.1.2,Win32,60,,,,,,,,,,,,,,2,9.491555,,0,0,114,114,116,1,stimuli/stim_20210407_power2amp/equal_lnn_AM4.8Hz_11.m4a,,,
,,,,,,,,,,,,40763,2021-05-10_03h27.06.343,judgeSpeechMusic_20210407_logNormShiftAmp,2020.1.2,Win32,60,,,,,,,,,,,,,,1,19.41894,,0,0,115,115,28,1,stimuli/stim_20210407_power2amp/equal_lnn_AM1.2Hz_5.m4a,,,
,,,,,,,,,,,,40763,2021-05-10_03h27.06.343,judgeSpeechMusic_20210407_logNormShiftAmp,2020.1.2,Win32,60,,,,,,,,,,,,,,2,8.197825,,0,0,116,116,108,1,stimuli/stim_20210407_power2amp/equal_lnn_AM4.8Hz_44.m4a,,,
,,,,,,,,,,,,40763,2021-05-10_03h27.06.343,judgeSpeechMusic_20210407_logNormShiftAmp,2020.1.2,Win32,60,,,,,,,,,,,,,,2,8.44652,,0,0,117,117,72,1,stimuli/stim_20210407_power2amp/equal_lnn_AM3Hz_38.m4a,,,
,,,,,,,,,,,,40763,2021-05-10_03h27.06.343,judgeSpeechMusic_20210407_logNormShiftAmp,2020.1.2,Win32,60,,,,,,,,,,,,,,2,30.411775,,0,0,118,118,2,1,stimuli/stim_20210407_power2amp/equal_lnn_AM0.6Hz_51.m4a,,,
,,,,,,,,,,,,40763,2021-05-10_03h27.06.343,judgeSpeechMusic_20210407_logNormShiftAmp,2020.1.2,Win32,60,,,,,,,,,,,,,,2,5.834775,,0,0,119,119,81,1,stimuli/stim_20210407_power2amp/equal_lnn_AM3.6Hz_5.m4a,,,
,,,,,,,,,,,,40763,2021-05-10_03h27.06.343,judgeSpeechMusic_20210407_logNormShiftAmp,2020.1.2,Win32,60,,,,,,,,,,,,,,1,5.93489,,0,0,120,120,76,1,stimuli/stim_20210407_power2amp/equal_lnn_AM3.6Hz_33.m4a,,,
,,,,,,,,,,,,40763,2021-05-10_03h27.06.343,judgeSpeechMusic_20210407_logNormShiftAmp,2020.1.2,Win32,60,,,,,,,,,,,,,,1,6.19869,,0,0,121,121,9,1,stimuli/stim_20210407_power2amp/equal_lnn_AM0.6Hz_92.m4a,,,
,,,,,,,,,,,,40763,2021-05-10_03h27.06.343,judgeSpeechMusic_20210407_logNormShiftAmp,2020.1.2,Win32,60,,,,,,,,,,,,,,2,6.074315,,0,0,122,122,94,1,stimuli/stim_20210407_power2amp/equal_lnn_AM4.2Hz_30.m4a,,,
,,,,,,,,,,,,40763,2021-05-10_03h27.06.343,judgeSpeechMusic_20210407_logNormShiftAmp,2020.1.2,Win32,60,,,,,,,,,,,,,,2,7.319115,,0,0,123,123,79,1,stimuli/stim_20210407_power2amp/equal_lnn_AM3.6Hz_9.m4a,,,
,,,,,,,,,,,,40763,2021-05-10_03h27.06.343,judgeSpeechMusic_20210407_logNormShiftAmp,2020.1.2,Win32,60,,,,,,,,,,,,,,2,6.54036,,0,0,124,124,54,1,stimuli/stim_20210407_power2amp/equal_lnn_AM2.4Hz_30.m4a,,,
,,,,,,,,,,,,40763,2021-05-10_03h27.06.343,judgeSpeechMusic_20210407_logNormShiftAmp,2020.1.2,Win32,60,,,,,,,,,,,,,,2,7.21798,,0,0,125,125,138,1,stimuli/stim_20210407_power2amp/equal_lnn_AM6Hz_13.m4a,,,
,,,,,,,,,,,,40763,2021-05-10_03h27.06.343,judgeSpeechMusic_20210407_logNormShiftAmp,2020.1.2,Win32,60,,,,,,,,,,,,,,2,9.850335,,0,0,126,126,67,1,stimuli/stim_20210407_power2amp/equal_lnn_AM3Hz_51.m4a,,,
,,,,,,,,,,,,40763,2021-05-10_03h27.06.343,judgeSpeechMusic_20210407_logNormShiftAmp,2020.1.2,Win32,60,,,,,,,,,,,,,,1,11.344385,,0,0,127,127,125,1,stimuli/stim_20210407_power2amp/equal_lnn_AM5.4Hz_88.m4a,,,
,,,,,,,,,,,,40763,2021-05-10_03h27.06.343,judgeSpeechMusic_20210407_logNormShiftAmp,2020.1.2,Win32,60,,,,,,,,,,,,,,2,7.418465,,0,0,128,128,47,1,stimuli/stim_20210407_power2amp/equal_lnn_AM2.4Hz_35.m4a,,,
,,,,,,,,,,,,40763,2021-05-10_03h27.06.343,judgeSpeechMusic_20210407_logNormShiftAmp,2020.1.2,Win32,60,,,,,,,,,,,,,,2,6.48493,4,1,0,129,129,149,1,stimuli/stim_20210407_power2amp/equal_lnn_AM6Hz_45.m4a,2.34631,,
,,,,,,,,,,,,40763,2021-05-10_03h27.06.343,judgeSpeechMusic_20210407_logNormShiftAmp,2020.1.2,Win32,60,,,,,,,,,,,,,,2,6.709055,,0,0,130,130,65,1,stimuli/stim_20210407_power2amp/equal_lnn_AM3Hz_69.m4a,,,
,,,,,,,,,,,,40763,2021-05-10_03h27.06.343,judgeSpeechMusic_20210407_logNormShiftAmp,2020.1.2,Win32,60,,,,,,,,,,,,,,2,7.9895,,0,0,131,131,112,1,stimuli/stim_20210407_power2amp/equal_lnn_AM4.8Hz_40.m4a,,,
,,,,,,,,,,,,40763,2021-05-10_03h27.06.343,judgeSpeechMusic_20210407_logNormShiftAmp,2020.1.2,Win32,60,,,,,,,,,,,,,,2,8.125395,,0,0,132,132,122,1,stimuli/stim_20210407_power2amp/equal_lnn_AM5.4Hz_31.m4a,,,
,,,,,,,,,,,,40763,2021-05-10_03h27.06.343,judgeSpeechMusic_20210407_logNormShiftAmp,2020.1.2,Win32,60,,,,,,,,,,,,,,1,8.80124,,0,0,133,133,52,1,stimuli/stim_20210407_power2amp/equal_lnn_AM2.4Hz_29.m4a,,,
,,,,,,,,,,,,40763,2021-05-10_03h27.06.343,judgeSpeechMusic_20210407_logNormShiftAmp,2020.1.2,Win32,60,,,,,,,,,,,,,,2,397.73812,,0,0,134,134,64,1,stimuli/stim_20210407_power2amp/equal_lnn_AM3Hz_94.m4a,,,
,,,,,,,,,,,,40763,2021-05-10_03h27.06.343,judgeSpeechMusic_20210407_logNormShiftAmp,2020.1.2,Win32,60,,,,,,,,,,,,,,1,24.218835,,0,0,135,135,44,1,stimuli/stim_20210407_power2amp/equal_lnn_AM1.8Hz_93.m4a,,,
,,,,,,,,,,,,40763,2021-05-10_03h27.06.343,judgeSpeechMusic_20210407_logNormShiftAmp,2020.1.2,Win32,60,,,,,,,,,,,,,,2,10.313505,,0,0,136,136,113,1,stimuli/stim_20210407_power2amp/equal_lnn_AM4.8Hz_79.m4a,,,
,,,,,,,,,,,,40763,2021-05-10_03h27.06.343,judgeSpeechMusic_20210407_logNormShiftAmp,2020.1.2,Win32,60,,,,,,,,,,,,,,2,16.81869,,0,0,137,137,43,1,stimuli/stim_20210407_power2amp/equal_lnn_AM1.8Hz_27.m4a,,,
,,,,,,,,,,,,40763,2021-05-10_03h27.06.343,judgeSpeechMusic_20210407_logNormShiftAmp,2020.1.2,Win32,60,,,,,,,,,,,,,,2,29.67601,,0,0,138,138,86,1,stimuli/stim_20210407_power2amp/equal_lnn_AM3.6Hz_15.m4a,,,
,,,,,,,,,,,,40763,2021-05-10_03h27.06.343,judgeSpeechMusic_20210407_logNormShiftAmp,2020.1.2,Win32,60,,,,,,,,,,,,,,2,7.311925,,0,0,139,139,131,1,stimuli/stim_20210407_power2amp/equal_lnn_AM5.4Hz_64.m4a,,,
,,,,,,,,,,,,40763,2021-05-10_03h27.06.343,judgeSpeechMusic_20210407_logNormShiftAmp,2020.1.2,Win32,60,,,,,,,,,,,,,,2,8.1893,,0,0,140,140,16,1,stimuli/stim_20210407_power2amp/equal_lnn_AM1.2Hz_83.m4a,,,
,,,,,,,,,,,,40763,2021-05-10_03h27.06.343,judgeSpeechMusic_20210407_logNormShiftAmp,2020.1.2,Win32,60,,,,,,,,,,,,,,1,52.23548,,0,0,141,141,137,1,stimuli/stim_20210407_power2amp/equal_lnn_AM6Hz_52.m4a,,,
,,,,,,,,,,,,40763,2021-05-10_03h27.06.343,judgeSpeechMusic_20210407_logNormShiftAmp,2020.1.2,Win32,60,,,,,,,,,,,,,,2,6.775105,,0,0,142,142,88,1,stimuli/stim_20210407_power2amp/equal_lnn_AM3.6Hz_54.m4a,,,
,,,,,,,,,,,,40763,2021-05-10_03h27.06.343,judgeSpeechMusic_20210407_logNormShiftAmp,2020.1.2,Win32,60,,,,,,,,,,,,,,2,7.202705,,0,0,143,143,38,1,stimuli/stim_20210407_power2amp/equal_lnn_AM1.8Hz_29.m4a,,,
,,,,,,,,,,,,40763,2021-05-10_03h27.06.343,judgeSpeechMusic_20210407_logNormShiftAmp,2020.1.2,Win32,60,,,,,,,,,,,,,,2,7.100815,,0,0,144,144,145,1,stimuli/stim_20210407_power2amp/equal_lnn_AM6Hz_37.m4a,,,
,,,,,,,,,,,,40763,2021-05-10_03h27.06.343,judgeSpeechMusic_20210407_logNormShiftAmp,2020.1.2,Win32,60,,,,,,,,,,,,,,2,43.701505,,0,0,145,145,96,1,stimuli/stim_20210407_power2amp/equal_lnn_AM4.2Hz_82.m4a,,,
,,,,,,,,,,,,40763,2021-05-10_03h27.06.343,judgeSpeechMusic_20210407_logNormShiftAmp,2020.1.2,Win32,60,,,,,,,,,,,,,,2,10.72685,,0,0,146,146,1,1,stimuli/stim_20210407_power2amp/equal_lnn_AM0.6Hz_65.m4a,,,
,,,,,,,,,,,,40763,2021-05-10_03h27.06.343,judgeSpeechMusic_20210407_logNormShiftAmp,2020.1.2,Win32,60,,,,,,,,,,,,,,2,351.640035,,0,0,147,147,80,1,stimuli/stim_20210407_power2amp/equal_lnn_AM3.6Hz_68.m4a,,,
,,,,,,,,,,,,40763,2021-05-10_03h27.06.343,judgeSpeechMusic_20210407_logNormShiftAmp,2020.1.2,Win32,60,,,,,,,,,,,,,,1,6.16608,,0,0,148,148,119,1,stimuli/stim_20210407_power2amp/equal_lnn_AM4.8Hz_75.m4a,,,
,,,,,,,,,,,,40763,2021-05-10_03h27.06.343,judgeSpeechMusic_20210407_logNormShiftAmp,2020.1.2,Win32,60,,,,,,,,,,,,,,1,6.43733,,0,0,149,149,30,1,stimuli/stim_20210407_power2amp/equal_lnn_AM1.8Hz_37.m4a,,,
,,,,,,,,,,,,40763,2021-05-10_03h27.06.343,judgeSpeechMusic_20210407_logNormShiftAmp,2020.1.2,Win32,60,,,,,,,,,,,,,,2,6.085335,,0,1,0,150,113,1,stimuli/stim_20210407_power2amp/equal_lnn_AM4.8Hz_79.m4a,,,
,,,,,,,,,,,,40763,2021-05-10_03h27.06.343,judgeSpeechMusic_20210407_logNormShiftAmp,2020.1.2,Win32,60,,,,,,,,,,,,,,2,9.45076,,0,1,1,151,118,1,stimuli/stim_20210407_power2amp/equal_lnn_AM4.8Hz_98.m4a,,,
,,,,,,,,,,,,40763,2021-05-10_03h27.06.343,judgeSpeechMusic_20210407_logNormShiftAmp,2020.1.2,Win32,60,,,,,,,,,,,,,,2,6.46535,2,1,1,2,152,122,1,stimuli/stim_20210407_power2amp/equal_lnn_AM5.4Hz_31.m4a,0.68742,,
,,,,,,,,,,,,40763,2021-05-10_03h27.06.343,judgeSpeechMusic_20210407_logNormShiftAmp,2020.1.2,Win32,60,,,,,,,,,,,,,,2,8.54736,,0,1,3,153,127,1,stimuli/stim_20210407_power2amp/equal_lnn_AM5.4Hz_76.m4a,,,
,,,,,,,,,,,,40763,2021-05-10_03h27.06.343,judgeSpeechMusic_20210407_logNormShiftAmp,2020.1.2,Win32,60,,,,,,,,,,,,,,2,20.22161,,0,1,4,154,67,1,stimuli/stim_20210407_power2amp/equal_lnn_AM3Hz_51.m4a,,,
,,,,,,,,,,,,40763,2021-05-10_03h27.06.343,judgeSpeechMusic_20210407_logNormShiftAmp,2020.1.2,Win32,60,,,,,,,,,,,,,,2,19.758935,,0,1,5,155,40,1,stimuli/stim_20210407_power2amp/equal_lnn_AM1.8Hz_17.m4a,,,
,,,,,,,,,,,,40763,2021-05-10_03h27.06.343,judgeSpeechMusic_20210407_logNormShiftAmp,2020.1.2,Win32,60,,,,,,,,,,,,,,2,5.82647,,0,1,6,156,141,1,stimuli/stim_20210407_power2amp/equal_lnn_AM6Hz_30.m4a,,,
,,,,,,,,,,,,40763,2021-05-10_03h27.06.343,judgeSpeechMusic_20210407_logNormShiftAmp,2020.1.2,Win32,60,,,,,,,,,,,,,,2,6.101955,,0,1,7,157,71,1,stimuli/stim_20210407_power2amp/equal_lnn_AM3Hz_5.m4a,,,
,,,,,,,,,,,,40763,2021-05-10_03h27.06.343,judgeSpeechMusic_20210407_logNormShiftAmp,2020.1.2,Win32,60,,,,,,,,,,,,,,2,5.3073,,0,1,8,158,94,1,stimuli/stim_20210407_power2amp/equal_lnn_AM4.2Hz_30.m4a,,,
,,,,,,,,,,,,40763,2021-05-10_03h27.06.343,judgeSpeechMusic_20210407_logNormShiftAmp,2020.1.2,Win32,60,,,,,,,,,,,,,,2,5.647955,,0,1,9,159,126,1,stimuli/stim_20210407_power2amp/equal_lnn_AM5.4Hz_19.m4a,,,
,,,,,,,,,,,,40763,2021-05-10_03h27.06.343,judgeSpeechMusic_20210407_logNormShiftAmp,2020.1.2,Win32,60,,,,,,,,,,,,,,1,8.80212,,0,1,10,160,36,1,stimuli/stim_20210407_power2amp/equal_lnn_AM1.8Hz_40.m4a,,,
,,,,,,,,,,,,40763,2021-05-10_03h27.06.343,judgeSpeechMusic_20210407_logNormShiftAmp,2020.1.2,Win32,60,,,,,,,,,,,,,,2,6.778425,,0,1,11,161,96,1,stimuli/stim_20210407_power2amp/equal_lnn_AM4.2Hz_82.m4a,,,
,,,,,,,,,,,,40763,2021-05-10_03h27.06.343,judgeSpeechMusic_20210407_logNormShiftAmp,2020.1.2,Win32,60,,,,,,,,,,,,,,2,5.775105,,0,1,12,162,21,1,stimuli/stim_20210407_power2amp/equal_lnn_AM1.2Hz_66.m4a,,,
,,,,,,,,,,,,40763,2021-05-10_03h27.06.343,judgeSpeechMusic_20210407_logNormShiftAmp,2020.1.2,Win32,60,,,,,,,,,,,,,,2,5.70748,,0,1,13,163,63,1,stimuli/stim_20210407_power2amp/equal_lnn_AM3Hz_35.m4a,,,
,,,,,,,,,,,,40763,2021-05-10_03h27.06.343,judgeSpeechMusic_20210407_logNormShiftAmp,2020.1.2,Win32,60,,,,,,,,,,,,,,2,5.39428,,0,1,14,164,70,1,stimuli/stim_20210407_power2amp/equal_lnn_AM3Hz_30.m4a,,,
,,,,,,,,,,,,40763,2021-05-10_03h27.06.343,judgeSpeechMusic_20210407_logNormShiftAmp,2020.1.2,Win32,60,,,,,,,,,,,,,,1,5.65149,,0,1,15,165,9,1,stimuli/stim_20210407_power2amp/equal_lnn_AM0.6Hz_92.m4a,,,
,,,,,,,,,,,,40763,2021-05-10_03h27.06.343,judgeSpeechMusic_20210407_logNormShiftAmp,2020.1.2,Win32,60,,,,,,,,,,,,,,1,8.21025,,0,1,16,166,108,1,stimuli/stim_20210407_power2amp/equal_lnn_AM4.8Hz_44.m4a,,,
,,,,,,,,,,,,40763,2021-05-10_03h27.06.343,judgeSpeechMusic_20210407_logNormShiftAmp,2020.1.2,Win32,60,,,,,,,,,,,,,,1,13.97437,,0,1,17,167,119,1,stimuli/stim_20210407_power2amp/equal_lnn_AM4.8Hz_75.m4a,,,
,,,,,,,,,,,,40763,2021-05-10_03h27.06.343,judgeSpeechMusic_20210407_logNormShiftAmp,2020.1.2,Win32,60,,,,,,,,,,,,,,1,6.601945,,0,1,18,168,76,1,stimuli/stim_20210407_power2amp/equal_lnn_AM3.6Hz_33.m4a,,,
,,,,,,,,,,,,40763,2021-05-10_03h27.06.343,judgeSpeechMusic_20210407_logNormShiftAmp,2020.1.2,Win32,60,,,,,,,,,,,,,,2,6.53395,,0,1,19,169,111,1,stimuli/stim_20210407_power2amp/equal_lnn_AM4.8Hz_91.m4a,,,
,,,,,,,,,,,,40763,2021-05-10_03h27.06.343,judgeSpeechMusic_20210407_logNormShiftAmp,2020.1.2,Win32,60,,,,,,,,,,,,,,1,6.176195,,0,1,20,170,13,1,stimuli/stim_20210407_power2amp/equal_lnn_AM0.6Hz_39.m4a,,,
,,,,,,,,,,,,40763,2021-05-10_03h27.06.343,judgeSpeechMusic_20210407_logNormShiftAmp,2020.1.2,Win32,60,,,,,,,,,,,,,,1,5.519605,,0,1,21,171,24,1,stimuli/stim_20210407_power2amp/equal_lnn_AM1.2Hz_48.m4a,,,
,,,,,,,,,,,,40763,2021-05-10_03h27.06.343,judgeSpeechMusic_20210407_logNormShiftAmp,2020.1.2,Win32,60,,,,,,,,,,,,,,1,8.073535,,0,1,22,172,103,1,stimuli/stim_20210407_power2amp/equal_lnn_AM4.2Hz_57.m4a,,,
,,,,,,,,,,,,40763,2021-05-10_03h27.06.343,judgeSpeechMusic_20210407_logNormShiftAmp,2020.1.2,Win32,60,,,,,,,,,,,,,,2,27.516125,,0,1,23,173,116,1,stimuli/stim_20210407_power2amp/equal_lnn_AM4.8Hz_11.m4a,,,
,,,,,,,,,,,,40763,2021-05-10_03h27.06.343,judgeSpeechMusic_20210407_logNormShiftAmp,2020.1.2,Win32,60,,,,,,,,,,,,,,1,6.85449,,0,1,24,174,65,1,stimuli/stim_20210407_power2amp/equal_lnn_AM3Hz_69.m4a,,,
,,,,,,,,,,,,40763,2021-05-10_03h27.06.343,judgeSpeechMusic_20210407_logNormShiftAmp,2020.1.2,Win32,60,,,,,,,,,,,,,,2,6.001505,,0,1,25,175,146,1,stimuli/stim_20210407_power2amp/equal_lnn_AM6Hz_97.m4a,,,
,,,,,,,,,,,,40763,2021-05-10_03h27.06.343,judgeSpeechMusic_20210407_logNormShiftAmp,2020.1.2,Win32,60,,,,,,,,,,,,,,2,5.836425,,0,1,26,176,81,1,stimuli/stim_20210407_power2amp/equal_lnn_AM3.6Hz_5.m4a,,,
,,,,,,,,,,,,40763,2021-05-10_03h27.06.343,judgeSpeechMusic_20210407_logNormShiftAmp,2020.1.2,Win32,60,,,,,,,,,,,,,,1,5.63729,4,1,1,27,177,14,1,stimuli/stim_20210407_power2amp/equal_lnn_AM0.6Hz_60.m4a,0.92973,,
,,,,,,,,,,,,40763,2021-05-10_03h27.06.343,judgeSpeechMusic_20210407_logNormShiftAmp,2020.1.2,Win32,60,,,,,,,,,,,,,,2,18.17139,,0,1,28,178,109,1,stimuli/stim_20210407_power2amp/equal_lnn_AM4.8Hz_97.m4a,,,
,,,,,,,,,,,,40763,2021-05-10_03h27.06.343,judgeSpeechMusic_20210407_logNormShiftAmp,2020.1.2,Win32,60,,,,,,,,,,,,,,1,7.339485,,0,1,29,179,93,1,stimuli/stim_20210407_power2amp/equal_lnn_AM4.2Hz_31.m4a,,,
,,,,,,,,,,,,40763,2021-05-10_03h27.06.343,judgeSpeechMusic_20210407_logNormShiftAmp,2020.1.2,Win32,60,,,,,,,,,,,,,,2,6.23634,,0,1,30,180,33,1,stimuli/stim_20210407_power2amp/equal_lnn_AM1.8Hz_85.m4a,,,
,,,,,,,,,,,,40763,2021-05-10_03h27.06.343,judgeSpeechMusic_20210407_logNormShiftAmp,2020.1.2,Win32,60,,,,,,,,,,,,,,1,6.814475,,0,1,31,181,42,1,stimuli/stim_20210407_power2amp/equal_lnn_AM1.8Hz_67.m4a,,,
,,,,,,,,,,,,40763,2021-05-10_03h27.06.343,judgeSpeechMusic_20210407_logNormShiftAmp,2020.1.2,Win32,60,,,,,,,,,,,,,,2,6.922025,,0,1,32,182,90,1,stimuli/stim_20210407_power2amp/equal_lnn_AM4.2Hz_75.m4a,,,
,,,,,,,,,,,,40763,2021-05-10_03h27.06.343,judgeSpeechMusic_20210407_logNormShiftAmp,2020.1.2,Win32,60,,,,,,,,,,,,,,1,5.918205,,0,1,33,183,57,1,stimuli/stim_20210407_power2amp/equal_lnn_AM2.4Hz_66.m4a,,,
,,,,,,,,,,,,40763,2021-05-10_03h27.06.343,judgeSpeechMusic_20210407_logNormShiftAmp,2020.1.2,Win32,60,,,,,,,,,,,,,,2,5.77555,,0,1,34,184,129,1,stimuli/stim_20210407_power2amp/equal_lnn_AM5.4Hz_55.m4a,,,
,,,,,,,,,,,,40763,2021-05-10_03h27.06.343,judgeSpeechMusic_20210407_logNormShiftAmp,2020.1.2,Win32,60,,,,,,,,,,,,,,1,5.992895,,0,1,35,185,1,1,stimuli/stim_20210407_power2amp/equal_lnn_AM0.6Hz_65.m4a,,,
,,,,,,,,,,,,40763,2021-05-10_03h27.06.343,judgeSpeechMusic_20210407_logNormShiftAmp,2020.1.2,Win32,60,,,,,,,,,,,,,,2,6.022645,,0,1,36,186,147,1,stimuli/stim_20210407_power2amp/equal_lnn_AM6Hz_82.m4a,,,
,,,,,,,,,,,,40763,2021-05-10_03h27.06.343,judgeSpeechMusic_20210407_logNormShiftAmp,2020.1.2,Win32,60,,,,,,,,,,,,,,2,5.918065,,0,1,37,187,143,1,stimuli/stim_20210407_power2amp/equal_lnn_AM6Hz_76.m4a,,,
,,,,,,,,,,,,40763,2021-05-10_03h27.06.343,judgeSpeechMusic_20210407_logNormShiftAmp,2020.1.2,Win32,60,,,,,,,,,,,,,,2,5.509635,,0,1,38,188,112,1,stimuli/stim_20210407_power2amp/equal_lnn_AM4.8Hz_40.m4a,,,
,,,,,,,,,,,,40763,2021-05-10_03h27.06.343,judgeSpeechMusic_20210407_logNormShiftAmp,2020.1.2,Win32,60,,,,,,,,,,,,,,1,8.31656,,0,1,39,189,86,1,stimuli/stim_20210407_power2amp/equal_lnn_AM3.6Hz_15.m4a,,,
,,,,,,,,,,,,40763,2021-05-10_03h27.06.343,judgeSpeechMusic_20210407_logNormShiftAmp,2020.1.2,Win32,60,,,,,,,,,,,,,,1,5.83739,,0,1,40,190,30,1,stimuli/stim_20210407_power2amp/equal_lnn_AM1.8Hz_37.m4a,,,
,,,,,,,,,,,,40763,2021-05-10_03h27.06.343,judgeSpeechMusic_20210407_logNormShiftAmp,2020.1.2,Win32,60,,,,,,,,,,,,,,2,5.84856,,0,1,41,191,135,1,stimuli/stim_20210407_power2amp/equal_lnn_AM6Hz_49.m4a,,,
,,,,,,,,,,,,40763,2021-05-10_03h27.06.343,judgeSpeechMusic_20210407_logNormShiftAmp,2020.1.2,Win32,60,,,,,,,,,,,,,,1,5.997965,,0,1,42,192,53,1,stimuli/stim_20210407_power2amp/equal_lnn_AM2.4Hz_65.m4a,,,
,,,,,,,,,,,,40763,2021-05-10_03h27.06.343,judgeSpeechMusic_20210407_logNormShiftAmp,2020.1.2,Win32,60,,,,,,,,,,,,,,1,6.86984,,0,1,43,193,12,1,stimuli/stim_20210407_power2amp/equal_lnn_AM0.6Hz_17.m4a,,,
,,,,,,,,,,,,40763,2021-05-10_03h27.06.343,judgeSpeechMusic_20210407_logNormShiftAmp,2020.1.2,Win32,60,,,,,,,,,,,,,,1,6.518675,,0,1,44,194,11,1,stimuli/stim_20210407_power2amp/equal_lnn_AM0.6Hz_99.m4a,,,
,,,,,,,,,,,,40763,2021-05-10_03h27.06.343,judgeSpeechMusic_20210407_logNormShiftAmp,2020.1.2,Win32,60,,,,,,,,,,,,,,2,5.684745,,0,1,45,195,133,1,stimuli/stim_20210407_power2amp/equal_lnn_AM5.4Hz_70.m4a,,,
,,,,,,,,,,,,40763,2021-05-10_03h27.06.343,judgeSpeechMusic_20210407_logNormShiftAmp,2020.1.2,Win32,60,,,,,,,,,,,,,,2,6.378775,,0,1,46,196,99,1,stimuli/stim_20210407_power2amp/equal_lnn_AM4.2Hz_80.m4a,,,
,,,,,,,,,,,,40763,2021-05-10_03h27.06.343,judgeSpeechMusic_20210407_logNormShiftAmp,2020.1.2,Win32,60,,,,,,,,,,,,,,2,6.404585,,0,1,47,197,130,1,stimuli/stim_20210407_power2amp/equal_lnn_AM5.4Hz_22.m4a,,,
,,,,,,,,,,,,40763,2021-05-10_03h27.06.343,judgeSpeechMusic_20210407_logNormShiftAmp,2020.1.2,Win32,60,,,,,,,,,,,,,,2,5.382095,,0,1,48,198,82,1,stimuli/stim_20210407_power2amp/equal_lnn_AM3.6Hz_66.m4a,,,
,,,,,,,,,,,,40763,2021-05-10_03h27.06.343,judgeSpeechMusic_20210407_logNormShiftAmp,2020.1.2,Win32,60,,,,,,,,,,,,,,1,5.63465,,0,1,49,199,105,1,stimuli/stim_20210407_power2amp/equal_lnn_AM4.8Hz_67.m4a,,,
,,,,,,,,,,,,40763,2021-05-10_03h27.06.343,judgeSpeechMusic_20210407_logNormShiftAmp,2020.1.2,Win32,60,,,,,,,,,,,,,,2,6.799785,4,1,1,50,200,102,1,stimuli/stim_20210407_power2amp/equal_lnn_AM4.2Hz_85.m4a,1.54465,,
,,,,,,,,,,,,40763,2021-05-10_03h27.06.343,judgeSpeechMusic_20210407_logNormShiftAmp,2020.1.2,Win32,60,,,,,,,,,,,,,,2,7.15214,,0,1,51,201,15,1,stimuli/stim_20210407_power2amp/equal_lnn_AM1.2Hz_34.m4a,,,
,,,,,,,,,,,,40763,2021-05-10_03h27.06.343,judgeSpeechMusic_20210407_logNormShiftAmp,2020.1.2,Win32,60,,,,,,,,,,,,,,2,7.45654,,0,1,52,202,64,1,stimuli/stim_20210407_power2amp/equal_lnn_AM3Hz_94.m4a,,,
,,,,,,,,,,,,40763,2021-05-10_03h27.06.343,judgeSpeechMusic_20210407_logNormShiftAmp,2020.1.2,Win32,60,,,,,,,,,,,,,,1,6.377235,,0,1,53,203,35,1,stimuli/stim_20210407_power2amp/equal_lnn_AM1.8Hz_74.m4a,,,
,,,,,,,,,,,,40763,2021-05-10_03h27.06.343,judgeSpeechMusic_20210407_logNormShiftAmp,2020.1.2,Win32,60,,,,,,,,,,,,,,2,5.818575,,0,1,54,204,47,1,stimuli/stim_20210407_power2amp/equal_lnn_AM2.4Hz_35.m4a,,,
,,,,,,,,,,,,40763,2021-05-10_03h27.06.343,judgeSpeechMusic_20210407_logNormShiftAmp,2020.1.2,Win32,60,,,,,,,,,,,,,,1,6.51416,,0,1,55,205,20,1,stimuli/stim_20210407_power2amp/equal_lnn_AM1.2Hz_62.m4a,,,
,,,,,,,,,,,,40763,2021-05-10_03h27.06.343,judgeSpeechMusic_20210407_logNormShiftAmp,2020.1.2,Win32,60,,,,,,,,,,,,,,2,6.382215,,0,1,56,206,75,1,stimuli/stim_20210407_power2amp/equal_lnn_AM3.6Hz_40.m4a,,,
,,,,,,,,,,,,40763,2021-05-10_03h27.06.343,judgeSpeechMusic_20210407_logNormShiftAmp,2020.1.2,Win32,60,,,,,,,,,,,,,,2,6.800965,,0,1,57,207,5,1,stimuli/stim_20210407_power2amp/equal_lnn_AM0.6Hz_68.m4a,,,
,,,,,,,,,,,,40763,2021-05-10_03h27.06.343,judgeSpeechMusic_20210407_logNormShiftAmp,2020.1.2,Win32,60,,,,,,,,,,,,,,2,6.36596,,0,1,58,208,27,1,stimuli/stim_20210407_power2amp/equal_lnn_AM1.2Hz_63.m4a,,,
,,,,,,,,,,,,40763,2021-05-10_03h27.06.343,judgeSpeechMusic_20210407_logNormShiftAmp,2020.1.2,Win32,60,,,,,,,,,,,,,,2,6.263455,,0,1,59,209,121,1,stimuli/stim_20210407_power2amp/equal_lnn_AM5.4Hz_32.m4a,,,
,,,,,,,,,,,,40763,2021-05-10_03h27.06.343,judgeSpeechMusic_20210407_logNormShiftAmp,2020.1.2,Win32,60,,,,,,,,,,,,,,2,6.552125,,0,1,60,210,58,1,stimuli/stim_20210407_power2amp/equal_lnn_AM2.4Hz_36.m4a,,,
,,,,,,,,,,,,40763,2021-05-10_03h27.06.343,judgeSpeechMusic_20210407_logNormShiftAmp,2020.1.2,Win32,60,,,,,,,,,,,,,,2,5.855755,,0,1,61,211,137,1,stimuli/stim_20210407_power2amp/equal_lnn_AM6Hz_52.m4a,,,
,,,,,,,,,,,,40763,2021-05-10_03h27.06.343,judgeSpeechMusic_20210407_logNormShiftAmp,2020.1.2,Win32,60,,,,,,,,,,,,,,1,5.834805,,0,1,62,212,117,1,stimuli/stim_20210407_power2amp/equal_lnn_AM4.8Hz_82.m4a,,,
,,,,,,,,,,,,40763,2021-05-10_03h27.06.343,judgeSpeechMusic_20210407_logNormShiftAmp,2020.1.2,Win32,60,,,,,,,,,,,,,,2,6.53977,,0,1,63,213,23,1,stimuli/stim_20210407_power2amp/equal_lnn_AM1.2Hz_100.m4a,,,
,,,,,,,,,,,,40763,2021-05-10_03h27.06.343,judgeSpeechMusic_20210407_logNormShiftAmp,2020.1.2,Win32,60,,,,,,,,,,,,,,2,7.86949,,0,1,64,214,149,1,stimuli/stim_20210407_power2amp/equal_lnn_AM6Hz_45.m4a,,,
,,,,,,,,,,,,40763,2021-05-10_03h27.06.343,judgeSpeechMusic_20210407_logNormShiftAmp,2020.1.2,Win32,60,,,,,,,,,,,,,,1,5.805215,,0,1,65,215,138,1,stimuli/stim_20210407_power2amp/equal_lnn_AM6Hz_13.m4a,,,
,,,,,,,,,,,,40763,2021-05-10_03h27.06.343,judgeSpeechMusic_20210407_logNormShiftAmp,2020.1.2,Win32,60,,,,,,,,,,,,,,2,5.972265,,0,1,66,216,59,1,stimuli/stim_20210407_power2amp/equal_lnn_AM2.4Hz_39.m4a,,,
,,,,,,,,,,,,40763,2021-05-10_03h27.06.343,judgeSpeechMusic_20210407_logNormShiftAmp,2020.1.2,Win32,60,,,,,,,,,,,,,,1,5.65177,,0,1,67,217,17,1,stimuli/stim_20210407_power2amp/equal_lnn_AM1.2Hz_93.m4a,,,
,,,,,,,,,,,,40763,2021-05-10_03h27.06.343,judgeSpeechMusic_20210407_logNormShiftAmp,2020.1.2,Win32,60,,,,,,,,,,,,,,1,5.49882,,0,1,68,218,18,1,stimuli/stim_20210407_power2amp/equal_lnn_AM1.2Hz_4.m4a,,,
,,,,,,,,,,,,40763,2021-05-10_03h27.06.343,judgeSpeechMusic_20210407_logNormShiftAmp,2020.1.2,Win32,60,,,,,,,,,,,,,,2,5.965875,,0,1,69,219,136,1,stimuli/stim_20210407_power2amp/equal_lnn_AM6Hz_54.m4a,,,
,,,,,,,,,,,,40763,2021-05-10_03h27.06.343,judgeSpeechMusic_20210407_logNormShiftAmp,2020.1.2,Win32,60,,,,,,,,,,,,,,2,6.45274,,0,1,70,220,85,1,stimuli/stim_20210407_power2amp/equal_lnn_AM3.6Hz_19.m4a,,,
,,,,,,,,,,,,40763,2021-05-10_03h27.06.343,judgeSpeechMusic_20210407_logNormShiftAmp,2020.1.2,Win32,60,,,,,,,,,,,,,,1,5.809605,,0,1,71,221,100,1,stimuli/stim_20210407_power2amp/equal_lnn_AM4.2Hz_11.m4a,,,
,,,,,,,,,,,,40763,2021-05-10_03h27.06.343,judgeSpeechMusic_20210407_logNormShiftAmp,2020.1.2,Win32,60,,,,,,,,,,,,,,2,12.9345,,0,1,72,222,101,1,stimuli/stim_20210407_power2amp/equal_lnn_AM4.2Hz_78.m4a,,,
,,,,,,,,,,,,40763,2021-05-10_03h27.06.343,judgeSpeechMusic_20210407_logNormShiftAmp,2020.1.2,Win32,60,,,,,,,,,,,,,,1,8.724975,4,1,1,73,223,37,1,stimuli/stim_20210407_power2amp/equal_lnn_AM1.8Hz_52.m4a,1.21993,,
,,,,,,,,,,,,40763,2021-05-10_03h27.06.343,judgeSpeechMusic_20210407_logNormShiftAmp,2020.1.2,Win32,60,,,,,,,,,,,,,,1,7.80466,,0,1,74,224,77,1,stimuli/stim_20210407_power2amp/equal_lnn_AM3.6Hz_61.m4a,,,
,,,,,,,,,,,,40763,2021-05-10_03h27.06.343,judgeSpeechMusic_20210407_logNormShiftAmp,2020.1.2,Win32,60,,,,,,,,,,,,,,2,6.89662,,0,1,75,225,4,1,stimuli/stim_20210407_power2amp/equal_lnn_AM0.6Hz_30.m4a,,,
,,,,,,,,,,,,40763,2021-05-10_03h27.06.343,judgeSpeechMusic_20210407_logNormShiftAmp,2020.1.2,Win32,60,,,,,,,,,,,,,,2,6.190765,,0,1,76,226,80,1,stimuli/stim_20210407_power2amp/equal_lnn_AM3.6Hz_68.m4a,,,
,,,,,,,,,,,,40763,2021-05-10_03h27.06.343,judgeSpeechMusic_20210407_logNormShiftAmp,2020.1.2,Win32,60,,,,,,,,,,,,,,1,6.004995,,0,1,77,227,128,1,stimuli/stim_20210407_power2amp/equal_lnn_AM5.4Hz_56.m4a,,,
,,,,,,,,,,,,40763,2021-05-10_03h27.06.343,judgeSpeechMusic_20210407_logNormShiftAmp,2020.1.2,Win32,60,,,,,,,,,,,,,,2,6.001225,,0,1,78,228,104,1,stimuli/stim_20210407_power2amp/equal_lnn_AM4.2Hz_62.m4a,,,
,,,,,,,,,,,,40763,2021-05-10_03h27.06.343,judgeSpeechMusic_20210407_logNormShiftAmp,2020.1.2,Win32,60,,,,,,,,,,,,,,1,6.634835,,0,1,79,229,72,1,stimuli/stim_20210407_power2amp/equal_lnn_AM3Hz_38.m4a,,,
,,,,,,,,,,,,40763,2021-05-10_03h27.06.343,judgeSpeechMusic_20210407_logNormShiftAmp,2020.1.2,Win32,60,,,,,,,,,,,,,,2,5.692485,,0,1,80,230,26,1,stimuli/stim_20210407_power2amp/equal_lnn_AM1.2Hz_49.m4a,,,
,,,,,,,,,,,,40763,2021-05-10_03h27.06.343,judgeSpeechMusic_20210407_logNormShiftAmp,2020.1.2,Win32,60,,,,,,,,,,,,,,2,8.044915,,0,1,81,231,8,1,stimuli/stim_20210407_power2amp/equal_lnn_AM0.6Hz_29.m4a,,,
,,,,,,,,,,,,40763,2021-05-10_03h27.06.343,judgeSpeechMusic_20210407_logNormShiftAmp,2020.1.2,Win32,60,,,,,,,,,,,,,,2,5.9441,,0,1,82,232,43,1,stimuli/stim_20210407_power2amp/equal_lnn_AM1.8Hz_27.m4a,,,
,,,,,,,,,,,,40763,2021-05-10_03h27.06.343,judgeSpeechMusic_20210407_logNormShiftAmp,2020.1.2,Win32,60,,,,,,,,,,,,,,2,5.41108,,0,1,83,233,78,1,stimuli/stim_20210407_power2amp/equal_lnn_AM3.6Hz_35.m4a,,,
,,,,,,,,,,,,40763,2021-05-10_03h27.06.343,judgeSpeechMusic_20210407_logNormShiftAmp,2020.1.2,Win32,60,,,,,,,,,,,,,,2,5.668345,,0,1,84,234,145,1,stimuli/stim_20210407_power2amp/equal_lnn_AM6Hz_37.m4a,,,
,,,,,,,,,,,,40763,2021-05-10_03h27.06.343,judgeSpeechMusic_20210407_logNormShiftAmp,2020.1.2,Win32,60,,,,,,,,,,,,,,1,6.78331,,0,1,85,235,114,1,stimuli/stim_20210407_power2amp/equal_lnn_AM4.8Hz_19.m4a,,,
,,,,,,,,,,,,40763,2021-05-10_03h27.06.343,judgeSpeechMusic_20210407_logNormShiftAmp,2020.1.2,Win32,60,,,,,,,,,,,,,,1,7.03538,,0,1,86,236,83,1,stimuli/stim_20210407_power2amp/equal_lnn_AM3.6Hz_72.m4a,,,
,,,,,,,,,,,,40763,2021-05-10_03h27.06.343,judgeSpeechMusic_20210407_logNormShiftAmp,2020.1.2,Win32,60,,,,,,,,,,,,,,2,7.460955,,0,1,87,237,44,1,stimuli/stim_20210407_power2amp/equal_lnn_AM1.8Hz_93.m4a,,,
,,,,,,,,,,,,40763,2021-05-10_03h27.06.343,judgeSpeechMusic_20210407_logNormShiftAmp,2020.1.2,Win32,60,,,,,,,,,,,,,,1,6.66792,,0,1,88,238,2,1,stimuli/stim_20210407_power2amp/equal_lnn_AM0.6Hz_51.m4a,,,
,,,,,,,,,,,,40763,2021-05-10_03h27.06.343,judgeSpeechMusic_20210407_logNormShiftAmp,2020.1.2,Win32,60,,,,,,,,,,,,,,2,6.30584,,0,1,89,239,123,1,stimuli/stim_20210407_power2amp/equal_lnn_AM5.4Hz_90.m4a,,,
,,,,,,,,,,,,40763,2021-05-10_03h27.06.343,judgeSpeechMusic_20210407_logNormShiftAmp,2020.1.2,Win32,60,,,,,,,,,,,,,,2,6.03933,,0,1,90,240,38,1,stimuli/stim_20210407_power2amp/equal_lnn_AM1.8Hz_29.m4a,,,
,,,,,,,,,,,,40763,2021-05-10_03h27.06.343,judgeSpeechMusic_20210407_logNormShiftAmp,2020.1.2,Win32,60,,,,,,,,,,,,,,1,6.56026,,0,1,91,241,139,1,stimuli/stim_20210407_power2amp/equal_lnn_AM6Hz_81.m4a,,,
,,,,,,,,,,,,40763,2021-05-10_03h27.06.343,judgeSpeechMusic_20210407_logNormShiftAmp,2020.1.2,Win32,60,,,,,,,,,,,,,,2,8.56861,,0,1,92,242,10,1,stimuli/stim_20210407_power2amp/equal_lnn_AM0.6Hz_31.m4a,,,
,,,,,,,,,,,,40763,2021-05-10_03h27.06.343,judgeSpeechMusic_20210407_logNormShiftAmp,2020.1.2,Win32,60,,,,,,,,,,,,,,1,6.08523,1,1,1,93,243,87,1,stimuli/stim_20210407_power2amp/equal_lnn_AM3.6Hz_96.m4a,1.06675,,
,,,,,,,,,,,,40763,2021-05-10_03h27.06.343,judgeSpeechMusic_20210407_logNormShiftAmp,2020.1.2,Win32,60,,,,,,,,,,,,,,2,5.95916,,0,1,94,244,34,1,stimuli/stim_20210407_power2amp/equal_lnn_AM1.8Hz_31.m4a,,,
,,,,,,,,,,,,40763,2021-05-10_03h27.06.343,judgeSpeechMusic_20210407_logNormShiftAmp,2020.1.2,Win32,60,,,,,,,,,,,,,,1,5.618495,,0,1,95,245,0,1,stimuli/stim_20210407_power2amp/equal_lnn_AM0.6Hz_45.m4a,,,
,,,,,,,,,,,,40763,2021-05-10_03h27.06.343,judgeSpeechMusic_20210407_logNormShiftAmp,2020.1.2,Win32,60,,,,,,,,,,,,,,1,11.16553,,0,1,96,246,39,1,stimuli/stim_20210407_power2amp/equal_lnn_AM1.8Hz_51.m4a,,,
,,,,,,,,,,,,40763,2021-05-10_03h27.06.343,judgeSpeechMusic_20210407_logNormShiftAmp,2020.1.2,Win32,60,,,,,,,,,,,,,,1,5.809825,,0,1,97,247,29,1,stimuli/stim_20210407_power2amp/equal_lnn_AM1.2Hz_12.m4a,,,
,,,,,,,,,,,,40763,2021-05-10_03h27.06.343,judgeSpeechMusic_20210407_logNormShiftAmp,2020.1.2,Win32,60,,,,,,,,,,,,,,2,6.22042,,0,1,98,248,84,1,stimuli/stim_20210407_power2amp/equal_lnn_AM3.6Hz_48.m4a,,,
,,,,,,,,,,,,40763,2021-05-10_03h27.06.343,judgeSpeechMusic_20210407_logNormShiftAmp,2020.1.2,Win32,60,,,,,,,,,,,,,,2,8.424895,,0,1,99,249,92,1,stimuli/stim_20210407_power2amp/equal_lnn_AM4.2Hz_40.m4a,,,
,,,,,,,,,,,,40763,2021-05-10_03h27.06.343,judgeSpeechMusic_20210407_logNormShiftAmp,2020.1.2,Win32,60,,,,,,,,,,,,,,2,7.9014,,0,1,100,250,120,1,stimuli/stim_20210407_power2amp/equal_lnn_AM5.4Hz_97.m4a,,,
,,,,,,,,,,,,40763,2021-05-10_03h27.06.343,judgeSpeechMusic_20210407_logNormShiftAmp,2020.1.2,Win32,60,,,,,,,,,,,,,,2,8.32085,,0,1,101,251,98,1,stimuli/stim_20210407_power2amp/equal_lnn_AM4.2Hz_72.m4a,,,
,,,,,,,,,,,,40763,2021-05-10_03h27.06.343,judgeSpeechMusic_20210407_logNormShiftAmp,2020.1.2,Win32,60,,,,,,,,,,,,,,1,6.145825,,0,1,102,252,7,1,stimuli/stim_20210407_power2amp/equal_lnn_AM0.6Hz_69.m4a,,,
,,,,,,,,,,,,40763,2021-05-10_03h27.06.343,judgeSpeechMusic_20210407_logNormShiftAmp,2020.1.2,Win32,60,,,,,,,,,,,,,,2,6.897915,,0,1,103,253,79,1,stimuli/stim_20210407_power2amp/equal_lnn_AM3.6Hz_9.m4a,,,
,,,,,,,,,,,,40763,2021-05-10_03h27.06.343,judgeSpeechMusic_20210407_logNormShiftAmp,2020.1.2,Win32,60,,,,,,,,,,,,,,2,6.88575,,0,1,104,254,56,1,stimuli/stim_20210407_power2amp/equal_lnn_AM2.4Hz_20.m4a,,,
,,,,,,,,,,,,40763,2021-05-10_03h27.06.343,judgeSpeechMusic_20210407_logNormShiftAmp,2020.1.2,Win32,60,,,,,,,,,,,,,,2,5.401145,,0,1,105,255,124,1,stimuli/stim_20210407_power2amp/equal_lnn_AM5.4Hz_84.m4a,,,
,,,,,,,,,,,,40763,2021-05-10_03h27.06.343,judgeSpeechMusic_20210407_logNormShiftAmp,2020.1.2,Win32,60,,,,,,,,,,,,,,1,6.15675,,0,1,106,256,16,1,stimuli/stim_20210407_power2amp/equal_lnn_AM1.2Hz_83.m4a,,,
,,,,,,,,,,,,40763,2021-05-10_03h27.06.343,judgeSpeechMusic_20210407_logNormShiftAmp,2020.1.2,Win32,60,,,,,,,,,,,,,,2,6.056515,,0,1,107,257,66,1,stimuli/stim_20210407_power2amp/equal_lnn_AM3Hz_68.m4a,,,
,,,,,,,,,,,,40763,2021-05-10_03h27.06.343,judgeSpeechMusic_20210407_logNormShiftAmp,2020.1.2,Win32,60,,,,,,,,,,,,,,2,9.085145,,0,1,108,258,140,1,stimuli/stim_20210407_power2amp/equal_lnn_AM6Hz_89.m4a,,,
,,,,,,,,,,,,40763,2021-05-10_03h27.06.343,judgeSpeechMusic_20210407_logNormShiftAmp,2020.1.2,Win32,60,,,,,,,,,,,,,,1,10.82206,,0,1,109,259,51,1,stimuli/stim_20210407_power2amp/equal_lnn_AM2.4Hz_61.m4a,,,
,,,,,,,,,,,,40763,2021-05-10_03h27.06.343,judgeSpeechMusic_20210407_logNormShiftAmp,2020.1.2,Win32,60,,,,,,,,,,,,,,2,6.476025,,0,1,110,260,148,1,stimuli/stim_20210407_power2amp/equal_lnn_AM6Hz_36.m4a,,,
,,,,,,,,,,,,40763,2021-05-10_03h27.06.343,judgeSpeechMusic_20210407_logNormShiftAmp,2020.1.2,Win32,60,,,,,,,,,,,,,,1,7.64296,,0,1,111,261,49,1,stimuli/stim_20210407_power2amp/equal_lnn_AM2.4Hz_59.m4a,,,
,,,,,,,,,,,,40763,2021-05-10_03h27.06.343,judgeSpeechMusic_20210407_logNormShiftAmp,2020.1.2,Win32,60,,,,,,,,,,,,,,2,6.00141,,0,1,112,262,62,1,stimuli/stim_20210407_power2amp/equal_lnn_AM3Hz_8.m4a,,,
,,,,,,,,,,,,40763,2021-05-10_03h27.06.343,judgeSpeechMusic_20210407_logNormShiftAmp,2020.1.2,Win32,60,,,,,,,,,,,,,,2,7.21928,,0,1,113,263,142,1,stimuli/stim_20210407_power2amp/equal_lnn_AM6Hz_98.m4a,,,
,,,,,,,,,,,,40763,2021-05-10_03h27.06.343,judgeSpeechMusic_20210407_logNormShiftAmp,2020.1.2,Win32,60,,,,,,,,,,,,,,2,9.030875,,0,1,114,264,110,1,stimuli/stim_20210407_power2amp/equal_lnn_AM4.8Hz_29.m4a,,,
,,,,,,,,,,,,40763,2021-05-10_03h27.06.343,judgeSpeechMusic_20210407_logNormShiftAmp,2020.1.2,Win32,60,,,,,,,,,,,,,,2,5.76811,,0,1,115,265,115,1,stimuli/stim_20210407_power2amp/equal_lnn_AM4.8Hz_43.m4a,,,
,,,,,,,,,,,,40763,2021-05-10_03h27.06.343,judgeSpeechMusic_20210407_logNormShiftAmp,2020.1.2,Win32,60,,,,,,,,,,,,,,1,6.120645,,0,1,116,266,88,1,stimuli/stim_20210407_power2amp/equal_lnn_AM3.6Hz_54.m4a,,,
,,,,,,,,,,,,40763,2021-05-10_03h27.06.343,judgeSpeechMusic_20210407_logNormShiftAmp,2020.1.2,Win32,60,,,,,,,,,,,,,,1,5.697925,,0,1,117,267,60,1,stimuli/stim_20210407_power2amp/equal_lnn_AM3Hz_76.m4a,,,
,,,,,,,,,,,,40763,2021-05-10_03h27.06.343,judgeSpeechMusic_20210407_logNormShiftAmp,2020.1.2,Win32,60,,,,,,,,,,,,,,2,5.701295,4,0,1,118,268,134,1,stimuli/stim_20210407_power2amp/equal_lnn_AM5.4Hz_82.m4a,6.416105,,
,,,,,,,,,,,,40763,2021-05-10_03h27.06.343,judgeSpeechMusic_20210407_logNormShiftAmp,2020.1.2,Win32,60,,,,,,,,,,,,,,2,16.63242,,0,1,119,269,6,1,stimuli/stim_20210407_power2amp/equal_lnn_AM0.6Hz_94.m4a,,,
,,,,,,,,,,,,40763,2021-05-10_03h27.06.343,judgeSpeechMusic_20210407_logNormShiftAmp,2020.1.2,Win32,60,,,,,,,,,,,,,,2,7.141895,,0,1,120,270,106,1,stimuli/stim_20210407_power2amp/equal_lnn_AM4.8Hz_39.m4a,,,
,,,,,,,,,,,,40763,2021-05-10_03h27.06.343,judgeSpeechMusic_20210407_logNormShiftAmp,2020.1.2,Win32,60,,,,,,,,,,,,,,2,8.67841,,0,1,121,271,74,1,stimuli/stim_20210407_power2amp/equal_lnn_AM3Hz_9.m4a,,,
,,,,,,,,,,,,40763,2021-05-10_03h27.06.343,judgeSpeechMusic_20210407_logNormShiftAmp,2020.1.2,Win32,60,,,,,,,,,,,,,,1,6.40152,,0,1,122,272,3,1,stimuli/stim_20210407_power2amp/equal_lnn_AM0.6Hz_28.m4a,,,
,,,,,,,,,,,,40763,2021-05-10_03h27.06.343,judgeSpeechMusic_20210407_logNormShiftAmp,2020.1.2,Win32,60,,,,,,,,,,,,,,1,5.736155,,0,1,123,273,22,1,stimuli/stim_20210407_power2amp/equal_lnn_AM1.2Hz_58.m4a,,,
,,,,,,,,,,,,40763,2021-05-10_03h27.06.343,judgeSpeechMusic_20210407_logNormShiftAmp,2020.1.2,Win32,60,,,,,,,,,,,,,,1,6.58509,,0,1,124,274,41,1,stimuli/stim_20210407_power2amp/equal_lnn_AM1.8Hz_46.m4a,,,
,,,,,,,,,,,,40763,2021-05-10_03h27.06.343,judgeSpeechMusic_20210407_logNormShiftAmp,2020.1.2,Win32,60,,,,,,,,,,,,,,2,5.6249,,0,1,125,275,144,1,stimuli/stim_20210407_power2amp/equal_lnn_AM6Hz_77.m4a,,,
,,,,,,,,,,,,40763,2021-05-10_03h27.06.343,judgeSpeechMusic_20210407_logNormShiftAmp,2020.1.2,Win32,60,,,,,,,,,,,,,,1,5.77522,,0,1,126,276,132,1,stimuli/stim_20210407_power2amp/equal_lnn_AM5.4Hz_24.m4a,,,
,,,,,,,,,,,,40763,2021-05-10_03h27.06.343,judgeSpeechMusic_20210407_logNormShiftAmp,2020.1.2,Win32,60,,,,,,,,,,,,,,1,6.81084,,0,1,127,277,54,1,stimuli/stim_20210407_power2amp/equal_lnn_AM2.4Hz_30.m4a,,,
,,,,,,,,,,,,40763,2021-05-10_03h27.06.343,judgeSpeechMusic_20210407_logNormShiftAmp,2020.1.2,Win32,60,,,,,,,,,,,,,,2,6.83482,,0,1,128,278,45,1,stimuli/stim_20210407_power2amp/equal_lnn_AM2.4Hz_87.m4a,,,
,,,,,,,,,,,,40763,2021-05-10_03h27.06.343,judgeSpeechMusic_20210407_logNormShiftAmp,2020.1.2,Win32,60,,,,,,,,,,,,,,2,7.192725,,0,1,129,279,61,1,stimuli/stim_20210407_power2amp/equal_lnn_AM3Hz_93.m4a,,,
,,,,,,,,,,,,40763,2021-05-10_03h27.06.343,judgeSpeechMusic_20210407_logNormShiftAmp,2020.1.2,Win32,60,,,,,,,,,,,,,,1,5.778535,,0,1,130,280,95,1,stimuli/stim_20210407_power2amp/equal_lnn_AM4.2Hz_19.m4a,,,
,,,,,,,,,,,,40763,2021-05-10_03h27.06.343,judgeSpeechMusic_20210407_logNormShiftAmp,2020.1.2,Win32,60,,,,,,,,,,,,,,2,6.69181,,0,1,131,281,46,1,stimuli/stim_20210407_power2amp/equal_lnn_AM2.4Hz_17.m4a,,,
,,,,,,,,,,,,40763,2021-05-10_03h27.06.343,judgeSpeechMusic_20210407_logNormShiftAmp,2020.1.2,Win32,60,,,,,,,,,,,,,,2,7.374615,,0,1,132,282,28,1,stimuli/stim_20210407_power2amp/equal_lnn_AM1.2Hz_5.m4a,,,
,,,,,,,,,,,,40763,2021-05-10_03h27.06.343,judgeSpeechMusic_20210407_logNormShiftAmp,2020.1.2,Win32,60,,,,,,,,,,,,,,2,7.16773,,0,1,133,283,69,1,stimuli/stim_20210407_power2amp/equal_lnn_AM3Hz_2.m4a,,,
,,,,,,,,,,,,40763,2021-05-10_03h27.06.343,judgeSpeechMusic_20210407_logNormShiftAmp,2020.1.2,Win32,60,,,,,,,,,,,,,,2,22.998565,,0,1,134,284,32,1,stimuli/stim_20210407_power2amp/equal_lnn_AM1.8Hz_16.m4a,,,
,,,,,,,,,,,,40763,2021-05-10_03h27.06.343,judgeSpeechMusic_20210407_logNormShiftAmp,2020.1.2,Win32,60,,,,,,,,,,,,,,2,6.617595,,0,1,135,285,73,1,stimuli/stim_20210407_power2amp/equal_lnn_AM3Hz_60.m4a,,,
,,,,,,,,,,,,40763,2021-05-10_03h27.06.343,judgeSpeechMusic_20210407_logNormShiftAmp,2020.1.2,Win32,60,,,,,,,,,,,,,,2,9.44835,,0,1,136,286,89,1,stimuli/stim_20210407_power2amp/equal_lnn_AM3.6Hz_44.m4a,,,
,,,,,,,,,,,,40763,2021-05-10_03h27.06.343,judgeSpeechMusic_20210407_logNormShiftAmp,2020.1.2,Win32,60,,,,,,,,,,,,,,2,6.22838,,0,1,137,287,125,1,stimuli/stim_20210407_power2amp/equal_lnn_AM5.4Hz_88.m4a,,,
,,,,,,,,,,,,40763,2021-05-10_03h27.06.343,judgeSpeechMusic_20210407_logNormShiftAmp,2020.1.2,Win32,60,,,,,,,,,,,,,,1,6.15536,,0,1,138,288,50,1,stimuli/stim_20210407_power2amp/equal_lnn_AM2.4Hz_13.m4a,,,
,,,,,,,,,,,,40763,2021-05-10_03h27.06.343,judgeSpeechMusic_20210407_logNormShiftAmp,2020.1.2,Win32,60,,,,,,,,,,,,,,1,6.15208,,0,1,139,289,97,1,stimuli/stim_20210407_power2amp/equal_lnn_AM4.2Hz_64.m4a,,,
,,,,,,,,,,,,40763,2021-05-10_03h27.06.343,judgeSpeechMusic_20210407_logNormShiftAmp,2020.1.2,Win32,60,,,,,,,,,,,,,,1,7.765825,4,1,1,140,290,55,1,stimuli/stim_20210407_power2amp/equal_lnn_AM2.4Hz_62.m4a,1.2684,,
,,,,,,,,,,,,40763,2021-05-10_03h27.06.343,judgeSpeechMusic_20210407_logNormShiftAmp,2020.1.2,Win32,60,,,,,,,,,,,,,,1,6.610075,,0,1,141,291,19,1,stimuli/stim_20210407_power2amp/equal_lnn_AM1.2Hz_50.m4a,,,
,,,,,,,,,,,,40763,2021-05-10_03h27.06.343,judgeSpeechMusic_20210407_logNormShiftAmp,2020.1.2,Win32,60,,,,,,,,,,,,,,2,6.55607,,0,1,142,292,107,1,stimuli/stim_20210407_power2amp/equal_lnn_AM4.8Hz_69.m4a,,,
,,,,,,,,,,,,40763,2021-05-10_03h27.06.343,judgeSpeechMusic_20210407_logNormShiftAmp,2020.1.2,Win32,60,,,,,,,,,,,,,,2,6.56942,,0,1,143,293,52,1,stimuli/stim_20210407_power2amp/equal_lnn_AM2.4Hz_29.m4a,,,
,,,,,,,,,,,,40763,2021-05-10_03h27.06.343,judgeSpeechMusic_20210407_logNormShiftAmp,2020.1.2,Win32,60,,,,,,,,,,,,,,2,7.48553,,0,1,144,294,131,1,stimuli/stim_20210407_power2amp/equal_lnn_AM5.4Hz_64.m4a,,,
,,,,,,,,,,,,40763,2021-05-10_03h27.06.343,judgeSpeechMusic_20210407_logNormShiftAmp,2020.1.2,Win32,60,,,,,,,,,,,,,,1,7.778075,,0,1,145,295,25,1,stimuli/stim_20210407_power2amp/equal_lnn_AM1.2Hz_2.m4a,,,
,,,,,,,,,,,,40763,2021-05-10_03h27.06.343,judgeSpeechMusic_20210407_logNormShiftAmp,2020.1.2,Win32,60,,,,,,,,,,,,,,2,10.80489,,0,1,146,296,31,1,stimuli/stim_20210407_power2amp/equal_lnn_AM1.8Hz_11.m4a,,,
,,,,,,,,,,,,40763,2021-05-10_03h27.06.343,judgeSpeechMusic_20210407_logNormShiftAmp,2020.1.2,Win32,60,,,,,,,,,,,,,,2,20.913425,,0,1,147,297,91,1,stimuli/stim_20210407_power2amp/equal_lnn_AM4.2Hz_86.m4a,,,
,,,,,,,,,,,,40763,2021-05-10_03h27.06.343,judgeSpeechMusic_20210407_logNormShiftAmp,2020.1.2,Win32,60,,,,,,,,,,,,,,2,7.534745,,0,1,148,298,48,1,stimuli/stim_20210407_power2amp/equal_lnn_AM2.4Hz_31.m4a,,,
,,,,,,,,,,,,40763,2021-05-10_03h27.06.343,judgeSpeechMusic_20210407_logNormShiftAmp,2020.1.2,Win32,60,,,,,,,,,,,,,,1,5.694535,,0,1,149,299,68,1,stimuli/stim_20210407_power2amp/equal_lnn_AM3Hz_43.m4a,,,
,,,,,,,,,,,,40763,2021-05-10_03h27.06.343,judgeSpeechMusic_20210407_logNormShiftAmp,2020.1.2,Win32,60,,,,,,,,,,,,,,,,,,,,,,,,,space,3.344945
