volAdjustRep.thisRepN,volAdjustRep.thisTrialN,volAdjustRep.thisN,volAdjustRep.thisIndex,volAdjustRep.ran,participant,date,expName,psychopyVersion,OS,frameRate,headphoneResponse.keys,headphoneResponse.corr,headphoneResponse.rt,headphoneTrial.thisRepN,headphoneTrial.thisTrialN,headphoneTrial.thisN,headphoneTrial.thisIndex,headphoneTrial.ran,headphone_sound1,headphone_sound2,headphone_sound3,corrAns,trainSlider.response,trainSlider.rt,beepTrainResponse.keys,beepTrainResponse.corr,trainingTrials.thisRepN,trainingTrials.thisTrialN,trainingTrials.thisN,trainingTrials.thisIndex,trainingTrials.ran,trainAudioFile,beepTrainResponse.rt,readyReal_resp.keys,readyReal_resp.rt,ratingSlider.response,ratingSlider.rt,beepResp.keys,beepResp.corr,expTrials.thisRepN,expTrials.thisTrialN,expTrials.thisN,expTrials.thisIndex,expTrials.ran,audioFile,beepResp.rt,end_resp.keys,end_resp.rt
0,0,0,0,1,40868,2021-04-22_18h23.18.969,judgeSpeechMusic_20210407_logNormShiftAmp,2020.1.2,Win32,60,,,,,,,,,,,,,,,,,,,,,,,,,,,,,,,,,,,,,,
,,,,,40868,2021-04-22_18h23.18.969,judgeSpeechMusic_20210407_logNormShiftAmp,2020.1.2,Win32,60,3,1,2.316035,0,0,0,2,1,stimuli/screen_origin.wav,stimuli/screen_antiphase.wav,stimuli/screen_quiet.wav,3,,,,,,,,,,,,,,,,,,,,,,,,,,
,,,,,40868,2021-04-22_18h23.18.969,judgeSpeechMusic_20210407_logNormShiftAmp,2020.1.2,Win32,60,3,1,1.40099,0,1,1,0,1,stimuli/screen_antiphase.wav,stimuli/screen_origin.wav,stimuli/screen_quiet.wav,3,,,,,,,,,,,,,,,,,,,,,,,,,,
,,,,,40868,2021-04-22_18h23.18.969,judgeSpeechMusic_20210407_logNormShiftAmp,2020.1.2,Win32,60,2,1,1.369375,0,2,2,1,1,stimuli/screen_antiphase.wav,stimuli/screen_quiet.wav,stimuli/screen_origin.wav,2,,,,,,,,,,,,,,,,,,,,,,,,,,
,,,,,40868,2021-04-22_18h23.18.969,judgeSpeechMusic_20210407_logNormShiftAmp,2020.1.2,Win32,60,1,1,1.65385,0,3,3,5,1,stimuli/screen_quiet.wav,stimuli/screen_origin.wav,stimuli/screen_antiphase.wav,1,,,,,,,,,,,,,,,,,,,,,,,,,,
,,,,,40868,2021-04-22_18h23.18.969,judgeSpeechMusic_20210407_logNormShiftAmp,2020.1.2,Win32,60,2,1,1.23568,0,4,4,3,1,stimuli/screen_origin.wav,stimuli/screen_quiet.wav,stimuli/screen_antiphase.wav,2,,,,,,,,,,,,,,,,,,,,,,,,,,
,,,,,40868,2021-04-22_18h23.18.969,judgeSpeechMusic_20210407_logNormShiftAmp,2020.1.2,Win32,60,1,1,1.184085,0,5,5,4,1,stimuli/screen_quiet.wav,stimuli/screen_antiphase.wav,stimuli/screen_origin.wav,1,,,,,,,,,,,,,,,,,,,,,,,,,,
,,,,,40868,2021-04-22_18h23.18.969,judgeSpeechMusic_20210407_logNormShiftAmp,2020.1.2,Win32,60,,,,,,,,,,,,,2,18.30982,,0,0,0,0,3,1,stimuli/stim_20210407_power2amp/equal_lnn_AM_training5.1Hz.m4a,,,,,,,,,,,,,,,,
,,,,,40868,2021-04-22_18h23.18.969,judgeSpeechMusic_20210407_logNormShiftAmp,2020.1.2,Win32,60,,,,,,,,,,,,,2,8.50001,,0,0,1,1,2,1,stimuli/stim_20210407_power2amp/equal_lnn_AM_training3.9Hz.m4a,,,,,,,,,,,,,,,,
,,,,,40868,2021-04-22_18h23.18.969,judgeSpeechMusic_20210407_logNormShiftAmp,2020.1.2,Win32,60,,,,,,,,,,,,,1,7.52102,4,1,0,2,2,0,1,stimuli/stim_20210407_power2amp/equal_lnn_AM_training1.5Hz.m4a,2.04428,,,,,,,,,,,,,,,
,,,,,40868,2021-04-22_18h23.18.969,judgeSpeechMusic_20210407_logNormShiftAmp,2020.1.2,Win32,60,,,,,,,,,,,,,2,8.660645,,0,0,3,3,1,1,stimuli/stim_20210407_power2amp/equal_lnn_AM_training2.7Hz.m4a,,,,,,,,,,,,,,,,
,,,,,40868,2021-04-22_18h23.18.969,judgeSpeechMusic_20210407_logNormShiftAmp,2020.1.2,Win32,60,,,,,,,,,,,,,,,,,,,,,,,,space,4.959815,2,8.00923,,0,0,0,0,102,1,stimuli/stim_20210407_power2amp/equal_lnn_AM4.2Hz_9.m4a,,,
,,,,,40868,2021-04-22_18h23.18.969,judgeSpeechMusic_20210407_logNormShiftAmp,2020.1.2,Win32,60,,,,,,,,,,,,,,,,,,,,,,,,,,1,7.44993,,0,0,1,1,8,1,stimuli/stim_20210407_power2amp/equal_lnn_AM0.6Hz_51.m4a,,,
,,,,,40868,2021-04-22_18h23.18.969,judgeSpeechMusic_20210407_logNormShiftAmp,2020.1.2,Win32,60,,,,,,,,,,,,,,,,,,,,,,,,,,1,6.35503,,0,0,2,2,13,1,stimuli/stim_20210407_power2amp/equal_lnn_AM0.6Hz_98.m4a,,,
,,,,,40868,2021-04-22_18h23.18.969,judgeSpeechMusic_20210407_logNormShiftAmp,2020.1.2,Win32,60,,,,,,,,,,,,,,,,,,,,,,,,,,1,6.30466,,0,0,3,3,18,1,stimuli/stim_20210407_power2amp/equal_lnn_AM1.2Hz_5.m4a,,,
,,,,,40868,2021-04-22_18h23.18.969,judgeSpeechMusic_20210407_logNormShiftAmp,2020.1.2,Win32,60,,,,,,,,,,,,,,,,,,,,,,,,,,2,6.64733,,0,0,4,4,68,1,stimuli/stim_20210407_power2amp/equal_lnn_AM3Hz_25.m4a,,,
,,,,,40868,2021-04-22_18h23.18.969,judgeSpeechMusic_20210407_logNormShiftAmp,2020.1.2,Win32,60,,,,,,,,,,,,,,,,,,,,,,,,,,1,7.055405,,0,0,5,5,28,1,stimuli/stim_20210407_power2amp/equal_lnn_AM1.2Hz_55.m4a,,,
,,,,,40868,2021-04-22_18h23.18.969,judgeSpeechMusic_20210407_logNormShiftAmp,2020.1.2,Win32,60,,,,,,,,,,,,,,,,,,,,,,,,,,2,6.506755,,0,0,6,6,62,1,stimuli/stim_20210407_power2amp/equal_lnn_AM3Hz_3.m4a,,,
,,,,,40868,2021-04-22_18h23.18.969,judgeSpeechMusic_20210407_logNormShiftAmp,2020.1.2,Win32,60,,,,,,,,,,,,,,,,,,,,,,,,,,2,6.38008,,0,0,7,7,119,1,stimuli/stim_20210407_power2amp/equal_lnn_AM4.8Hz_58.m4a,,,
,,,,,40868,2021-04-22_18h23.18.969,judgeSpeechMusic_20210407_logNormShiftAmp,2020.1.2,Win32,60,,,,,,,,,,,,,,,,,,,,,,,,,,2,6.159505,,0,0,8,8,80,1,stimuli/stim_20210407_power2amp/equal_lnn_AM3.6Hz_70.m4a,,,
,,,,,40868,2021-04-22_18h23.18.969,judgeSpeechMusic_20210407_logNormShiftAmp,2020.1.2,Win32,60,,,,,,,,,,,,,,,,,,,,,,,,,,1,9.68217,,0,0,9,9,140,1,stimuli/stim_20210407_power2amp/equal_lnn_AM6Hz_76.m4a,,,
,,,,,40868,2021-04-22_18h23.18.969,judgeSpeechMusic_20210407_logNormShiftAmp,2020.1.2,Win32,60,,,,,,,,,,,,,,,,,,,,,,,,,,1,8.40933,,0,0,10,10,136,1,stimuli/stim_20210407_power2amp/equal_lnn_AM6Hz_75.m4a,,,
,,,,,40868,2021-04-22_18h23.18.969,judgeSpeechMusic_20210407_logNormShiftAmp,2020.1.2,Win32,60,,,,,,,,,,,,,,,,,,,,,,,,,,2,7.24594,,0,0,11,11,95,1,stimuli/stim_20210407_power2amp/equal_lnn_AM4.2Hz_86.m4a,,,
,,,,,40868,2021-04-22_18h23.18.969,judgeSpeechMusic_20210407_logNormShiftAmp,2020.1.2,Win32,60,,,,,,,,,,,,,,,,,,,,,,,,,,2,7.53579,,0,0,12,12,99,1,stimuli/stim_20210407_power2amp/equal_lnn_AM4.2Hz_28.m4a,,,
,,,,,40868,2021-04-22_18h23.18.969,judgeSpeechMusic_20210407_logNormShiftAmp,2020.1.2,Win32,60,,,,,,,,,,,,,,,,,,,,,,,,,,2,7.054045,,0,0,13,13,147,1,stimuli/stim_20210407_power2amp/equal_lnn_AM6Hz_44.m4a,,,
,,,,,40868,2021-04-22_18h23.18.969,judgeSpeechMusic_20210407_logNormShiftAmp,2020.1.2,Win32,60,,,,,,,,,,,,,,,,,,,,,,,,,,1,6.079255,,0,0,14,14,12,1,stimuli/stim_20210407_power2amp/equal_lnn_AM0.6Hz_8.m4a,,,
,,,,,40868,2021-04-22_18h23.18.969,judgeSpeechMusic_20210407_logNormShiftAmp,2020.1.2,Win32,60,,,,,,,,,,,,,,,,,,,,,,,,,,1,7.50546,,0,0,15,15,134,1,stimuli/stim_20210407_power2amp/equal_lnn_AM5.4Hz_68.m4a,,,
,,,,,40868,2021-04-22_18h23.18.969,judgeSpeechMusic_20210407_logNormShiftAmp,2020.1.2,Win32,60,,,,,,,,,,,,,,,,,,,,,,,,,,2,6.193845,,0,0,16,16,128,1,stimuli/stim_20210407_power2amp/equal_lnn_AM5.4Hz_82.m4a,,,
,,,,,40868,2021-04-22_18h23.18.969,judgeSpeechMusic_20210407_logNormShiftAmp,2020.1.2,Win32,60,,,,,,,,,,,,,,,,,,,,,,,,,,2,6.554135,,0,0,17,17,61,1,stimuli/stim_20210407_power2amp/equal_lnn_AM3Hz_24.m4a,,,
,,,,,40868,2021-04-22_18h23.18.969,judgeSpeechMusic_20210407_logNormShiftAmp,2020.1.2,Win32,60,,,,,,,,,,,,,,,,,,,,,,,,,,1,5.911685,,0,0,18,18,7,1,stimuli/stim_20210407_power2amp/equal_lnn_AM0.6Hz_3.m4a,,,
,,,,,40868,2021-04-22_18h23.18.969,judgeSpeechMusic_20210407_logNormShiftAmp,2020.1.2,Win32,60,,,,,,,,,,,,,,,,,,,,,,,,,,1,8.576145,,0,0,19,19,137,1,stimuli/stim_20210407_power2amp/equal_lnn_AM6Hz_94.m4a,,,
,,,,,40868,2021-04-22_18h23.18.969,judgeSpeechMusic_20210407_logNormShiftAmp,2020.1.2,Win32,60,,,,,,,,,,,,,,,,,,,,,,,,,,2,8.32091,,0,0,20,20,148,1,stimuli/stim_20210407_power2amp/equal_lnn_AM6Hz_77.m4a,,,
,,,,,40868,2021-04-22_18h23.18.969,judgeSpeechMusic_20210407_logNormShiftAmp,2020.1.2,Win32,60,,,,,,,,,,,,,,,,,,,,,,,,,,1,6.001195,,0,0,21,21,14,1,stimuli/stim_20210407_power2amp/equal_lnn_AM0.6Hz_99.m4a,,,
,,,,,40868,2021-04-22_18h23.18.969,judgeSpeechMusic_20210407_logNormShiftAmp,2020.1.2,Win32,60,,,,,,,,,,,,,,,,,,,,,,,,,,2,7.62385,,0,0,22,22,111,1,stimuli/stim_20210407_power2amp/equal_lnn_AM4.8Hz_42.m4a,,,
,,,,,40868,2021-04-22_18h23.18.969,judgeSpeechMusic_20210407_logNormShiftAmp,2020.1.2,Win32,60,,,,,,,,,,,,,,,,,,,,,,,,,,1,6.881835,,0,0,23,23,15,1,stimuli/stim_20210407_power2amp/equal_lnn_AM1.2Hz_13.m4a,,,
,,,,,40868,2021-04-22_18h23.18.969,judgeSpeechMusic_20210407_logNormShiftAmp,2020.1.2,Win32,60,,,,,,,,,,,,,,,,,,,,,,,,,,2,8.031775,,0,0,24,24,85,1,stimuli/stim_20210407_power2amp/equal_lnn_AM3.6Hz_17.m4a,,,
,,,,,40868,2021-04-22_18h23.18.969,judgeSpeechMusic_20210407_logNormShiftAmp,2020.1.2,Win32,60,,,,,,,,,,,,,,,,,,,,,,,,,,2,7.93817,,0,0,25,25,67,1,stimuli/stim_20210407_power2amp/equal_lnn_AM3Hz_74.m4a,,,
,,,,,40868,2021-04-22_18h23.18.969,judgeSpeechMusic_20210407_logNormShiftAmp,2020.1.2,Win32,60,,,,,,,,,,,,,,,,,,,,,,,,,,2,7.307935,,0,0,26,26,90,1,stimuli/stim_20210407_power2amp/equal_lnn_AM4.2Hz_35.m4a,,,
,,,,,40868,2021-04-22_18h23.18.969,judgeSpeechMusic_20210407_logNormShiftAmp,2020.1.2,Win32,60,,,,,,,,,,,,,,,,,,,,,,,,,,1,8.75762,,0,0,27,27,2,1,stimuli/stim_20210407_power2amp/equal_lnn_AM0.6Hz_1.m4a,,,
,,,,,40868,2021-04-22_18h23.18.969,judgeSpeechMusic_20210407_logNormShiftAmp,2020.1.2,Win32,60,,,,,,,,,,,,,,,,,,,,,,,,,,1,5.872015,,0,0,28,28,3,1,stimuli/stim_20210407_power2amp/equal_lnn_AM0.6Hz_46.m4a,,,
,,,,,40868,2021-04-22_18h23.18.969,judgeSpeechMusic_20210407_logNormShiftAmp,2020.1.2,Win32,60,,,,,,,,,,,,,,,,,,,,,,,,,,1,6.992585,,0,0,29,29,55,1,stimuli/stim_20210407_power2amp/equal_lnn_AM2.4Hz_40.m4a,,,
,,,,,40868,2021-04-22_18h23.18.969,judgeSpeechMusic_20210407_logNormShiftAmp,2020.1.2,Win32,60,,,,,,,,,,,,,,,,,,,,,,,,,,2,6.14381,,0,0,30,30,127,1,stimuli/stim_20210407_power2amp/equal_lnn_AM5.4Hz_40.m4a,,,
,,,,,40868,2021-04-22_18h23.18.969,judgeSpeechMusic_20210407_logNormShiftAmp,2020.1.2,Win32,60,,,,,,,,,,,,,,,,,,,,,,,,,,2,7.174345,,0,0,31,31,49,1,stimuli/stim_20210407_power2amp/equal_lnn_AM2.4Hz_94.m4a,,,
,,,,,40868,2021-04-22_18h23.18.969,judgeSpeechMusic_20210407_logNormShiftAmp,2020.1.2,Win32,60,,,,,,,,,,,,,,,,,,,,,,,,,,2,7.2226,,0,0,32,32,115,1,stimuli/stim_20210407_power2amp/equal_lnn_AM4.8Hz_99.m4a,,,
,,,,,40868,2021-04-22_18h23.18.969,judgeSpeechMusic_20210407_logNormShiftAmp,2020.1.2,Win32,60,,,,,,,,,,,,,,,,,,,,,,,,,,2,6.060245,,0,0,33,33,130,1,stimuli/stim_20210407_power2amp/equal_lnn_AM5.4Hz_19.m4a,,,
,,,,,40868,2021-04-22_18h23.18.969,judgeSpeechMusic_20210407_logNormShiftAmp,2020.1.2,Win32,60,,,,,,,,,,,,,,,,,,,,,,,,,,2,6.89182,,0,0,34,34,65,1,stimuli/stim_20210407_power2amp/equal_lnn_AM3Hz_75.m4a,,,
,,,,,40868,2021-04-22_18h23.18.969,judgeSpeechMusic_20210407_logNormShiftAmp,2020.1.2,Win32,60,,,,,,,,,,,,,,,,,,,,,,,,,,2,6.272415,1,1,0,35,35,89,1,stimuli/stim_20210407_power2amp/equal_lnn_AM3.6Hz_78.m4a,1.605655,,
,,,,,40868,2021-04-22_18h23.18.969,judgeSpeechMusic_20210407_logNormShiftAmp,2020.1.2,Win32,60,,,,,,,,,,,,,,,,,,,,,,,,,,2,8.321725,,0,0,36,36,106,1,stimuli/stim_20210407_power2amp/equal_lnn_AM4.8Hz_4.m4a,,,
,,,,,40868,2021-04-22_18h23.18.969,judgeSpeechMusic_20210407_logNormShiftAmp,2020.1.2,Win32,60,,,,,,,,,,,,,,,,,,,,,,,,,,1,6.171655,,0,0,37,37,36,1,stimuli/stim_20210407_power2amp/equal_lnn_AM1.8Hz_91.m4a,,,
,,,,,40868,2021-04-22_18h23.18.969,judgeSpeechMusic_20210407_logNormShiftAmp,2020.1.2,Win32,60,,,,,,,,,,,,,,,,,,,,,,,,,,1,8.804335,,0,0,38,38,57,1,stimuli/stim_20210407_power2amp/equal_lnn_AM2.4Hz_6.m4a,,,
,,,,,40868,2021-04-22_18h23.18.969,judgeSpeechMusic_20210407_logNormShiftAmp,2020.1.2,Win32,60,,,,,,,,,,,,,,,,,,,,,,,,,,2,6.212275,,0,0,39,39,135,1,stimuli/stim_20210407_power2amp/equal_lnn_AM6Hz_41.m4a,,,
,,,,,40868,2021-04-22_18h23.18.969,judgeSpeechMusic_20210407_logNormShiftAmp,2020.1.2,Win32,60,,,,,,,,,,,,,,,,,,,,,,,,,,1,6.138835,,0,0,40,40,82,1,stimuli/stim_20210407_power2amp/equal_lnn_AM3.6Hz_97.m4a,,,
,,,,,40868,2021-04-22_18h23.18.969,judgeSpeechMusic_20210407_logNormShiftAmp,2020.1.2,Win32,60,,,,,,,,,,,,,,,,,,,,,,,,,,2,10.23053,,0,0,41,41,117,1,stimuli/stim_20210407_power2amp/equal_lnn_AM4.8Hz_53.m4a,,,
,,,,,40868,2021-04-22_18h23.18.969,judgeSpeechMusic_20210407_logNormShiftAmp,2020.1.2,Win32,60,,,,,,,,,,,,,,,,,,,,,,,,,,2,9.614735,,0,0,42,42,107,1,stimuli/stim_20210407_power2amp/equal_lnn_AM4.8Hz_18.m4a,,,
,,,,,40868,2021-04-22_18h23.18.969,judgeSpeechMusic_20210407_logNormShiftAmp,2020.1.2,Win32,60,,,,,,,,,,,,,,,,,,,,,,,,,,2,6.33811,,0,0,43,43,133,1,stimuli/stim_20210407_power2amp/equal_lnn_AM5.4Hz_52.m4a,,,
,,,,,40868,2021-04-22_18h23.18.969,judgeSpeechMusic_20210407_logNormShiftAmp,2020.1.2,Win32,60,,,,,,,,,,,,,,,,,,,,,,,,,,2,8.89595,,0,0,44,44,76,1,stimuli/stim_20210407_power2amp/equal_lnn_AM3.6Hz_53.m4a,,,
,,,,,40868,2021-04-22_18h23.18.969,judgeSpeechMusic_20210407_logNormShiftAmp,2020.1.2,Win32,60,,,,,,,,,,,,,,,,,,,,,,,,,,1,8.41,,0,0,45,45,42,1,stimuli/stim_20210407_power2amp/equal_lnn_AM1.8Hz_67.m4a,,,
,,,,,40868,2021-04-22_18h23.18.969,judgeSpeechMusic_20210407_logNormShiftAmp,2020.1.2,Win32,60,,,,,,,,,,,,,,,,,,,,,,,,,,1,7.00564,,0,0,46,46,56,1,stimuli/stim_20210407_power2amp/equal_lnn_AM2.4Hz_37.m4a,,,
,,,,,40868,2021-04-22_18h23.18.969,judgeSpeechMusic_20210407_logNormShiftAmp,2020.1.2,Win32,60,,,,,,,,,,,,,,,,,,,,,,,,,,1,5.80582,,0,0,47,47,39,1,stimuli/stim_20210407_power2amp/equal_lnn_AM1.8Hz_90.m4a,,,
,,,,,40868,2021-04-22_18h23.18.969,judgeSpeechMusic_20210407_logNormShiftAmp,2020.1.2,Win32,60,,,,,,,,,,,,,,,,,,,,,,,,,,1,6.985935,,0,0,48,48,23,1,stimuli/stim_20210407_power2amp/equal_lnn_AM1.2Hz_76.m4a,,,
,,,,,40868,2021-04-22_18h23.18.969,judgeSpeechMusic_20210407_logNormShiftAmp,2020.1.2,Win32,60,,,,,,,,,,,,,,,,,,,,,,,,,,1,10.136945,,0,0,49,49,93,1,stimuli/stim_20210407_power2amp/equal_lnn_AM4.2Hz_59.m4a,,,
,,,,,40868,2021-04-22_18h23.18.969,judgeSpeechMusic_20210407_logNormShiftAmp,2020.1.2,Win32,60,,,,,,,,,,,,,,,,,,,,,,,,,,1,5.98248,,0,0,50,50,21,1,stimuli/stim_20210407_power2amp/equal_lnn_AM1.2Hz_45.m4a,,,
,,,,,40868,2021-04-22_18h23.18.969,judgeSpeechMusic_20210407_logNormShiftAmp,2020.1.2,Win32,60,,,,,,,,,,,,,,,,,,,,,,,,,,1,5.887765,,0,0,51,51,38,1,stimuli/stim_20210407_power2amp/equal_lnn_AM1.8Hz_21.m4a,,,
,,,,,40868,2021-04-22_18h23.18.969,judgeSpeechMusic_20210407_logNormShiftAmp,2020.1.2,Win32,60,,,,,,,,,,,,,,,,,,,,,,,,,,1,6.79372,,0,0,52,52,48,1,stimuli/stim_20210407_power2amp/equal_lnn_AM2.4Hz_72.m4a,,,
,,,,,40868,2021-04-22_18h23.18.969,judgeSpeechMusic_20210407_logNormShiftAmp,2020.1.2,Win32,60,,,,,,,,,,,,,,,,,,,,,,,,,,2,6.33997,,0,0,53,53,69,1,stimuli/stim_20210407_power2amp/equal_lnn_AM3Hz_57.m4a,,,
,,,,,40868,2021-04-22_18h23.18.969,judgeSpeechMusic_20210407_logNormShiftAmp,2020.1.2,Win32,60,,,,,,,,,,,,,,,,,,,,,,,,,,1,6.072365,,0,0,54,54,72,1,stimuli/stim_20210407_power2amp/equal_lnn_AM3Hz_33.m4a,,,
,,,,,40868,2021-04-22_18h23.18.969,judgeSpeechMusic_20210407_logNormShiftAmp,2020.1.2,Win32,60,,,,,,,,,,,,,,,,,,,,,,,,,,1,6.005125,,0,0,55,55,43,1,stimuli/stim_20210407_power2amp/equal_lnn_AM1.8Hz_78.m4a,,,
,,,,,40868,2021-04-22_18h23.18.969,judgeSpeechMusic_20210407_logNormShiftAmp,2020.1.2,Win32,60,,,,,,,,,,,,,,,,,,,,,,,,,,1,7.80701,,0,0,56,56,24,1,stimuli/stim_20210407_power2amp/equal_lnn_AM1.2Hz_16.m4a,,,
,,,,,40868,2021-04-22_18h23.18.969,judgeSpeechMusic_20210407_logNormShiftAmp,2020.1.2,Win32,60,,,,,,,,,,,,,,,,,,,,,,,,,,1,6.00285,,0,0,57,57,52,1,stimuli/stim_20210407_power2amp/equal_lnn_AM2.4Hz_85.m4a,,,
,,,,,40868,2021-04-22_18h23.18.969,judgeSpeechMusic_20210407_logNormShiftAmp,2020.1.2,Win32,60,,,,,,,,,,,,,,,,,,,,,,,,,,1,6.05608,,0,0,58,58,5,1,stimuli/stim_20210407_power2amp/equal_lnn_AM0.6Hz_38.m4a,,,
,,,,,40868,2021-04-22_18h23.18.969,judgeSpeechMusic_20210407_logNormShiftAmp,2020.1.2,Win32,60,,,,,,,,,,,,,,,,,,,,,,,,,,2,6.111455,2,1,0,59,59,100,1,stimuli/stim_20210407_power2amp/equal_lnn_AM4.2Hz_91.m4a,1.297685,,
,,,,,40868,2021-04-22_18h23.18.969,judgeSpeechMusic_20210407_logNormShiftAmp,2020.1.2,Win32,60,,,,,,,,,,,,,,,,,,,,,,,,,,1,9.03499,,0,0,60,60,45,1,stimuli/stim_20210407_power2amp/equal_lnn_AM2.4Hz_24.m4a,,,
,,,,,40868,2021-04-22_18h23.18.969,judgeSpeechMusic_20210407_logNormShiftAmp,2020.1.2,Win32,60,,,,,,,,,,,,,,,,,,,,,,,,,,1,12.58776,,0,0,61,61,46,1,stimuli/stim_20210407_power2amp/equal_lnn_AM2.4Hz_80.m4a,,,
,,,,,40868,2021-04-22_18h23.18.969,judgeSpeechMusic_20210407_logNormShiftAmp,2020.1.2,Win32,60,,,,,,,,,,,,,,,,,,,,,,,,,,2,7.73858,,0,0,62,62,144,1,stimuli/stim_20210407_power2amp/equal_lnn_AM6Hz_32.m4a,,,
,,,,,40868,2021-04-22_18h23.18.969,judgeSpeechMusic_20210407_logNormShiftAmp,2020.1.2,Win32,60,,,,,,,,,,,,,,,,,,,,,,,,,,2,6.07499,,0,0,63,63,145,1,stimuli/stim_20210407_power2amp/equal_lnn_AM6Hz_40.m4a,,,
,,,,,40868,2021-04-22_18h23.18.969,judgeSpeechMusic_20210407_logNormShiftAmp,2020.1.2,Win32,60,,,,,,,,,,,,,,,,,,,,,,,,,,2,6.84475,,0,0,64,64,83,1,stimuli/stim_20210407_power2amp/equal_lnn_AM3.6Hz_16.m4a,,,
,,,,,40868,2021-04-22_18h23.18.969,judgeSpeechMusic_20210407_logNormShiftAmp,2020.1.2,Win32,60,,,,,,,,,,,,,,,,,,,,,,,,,,1,7.97251,,0,0,65,65,1,1,stimuli/stim_20210407_power2amp/equal_lnn_AM0.6Hz_66.m4a,,,
,,,,,40868,2021-04-22_18h23.18.969,judgeSpeechMusic_20210407_logNormShiftAmp,2020.1.2,Win32,60,,,,,,,,,,,,,,,,,,,,,,,,,,2,7.978855,,0,0,66,66,73,1,stimuli/stim_20210407_power2amp/equal_lnn_AM3Hz_42.m4a,,,
,,,,,40868,2021-04-22_18h23.18.969,judgeSpeechMusic_20210407_logNormShiftAmp,2020.1.2,Win32,60,,,,,,,,,,,,,,,,,,,,,,,,,,2,8.027915,,0,0,67,67,123,1,stimuli/stim_20210407_power2amp/equal_lnn_AM5.4Hz_12.m4a,,,
,,,,,40868,2021-04-22_18h23.18.969,judgeSpeechMusic_20210407_logNormShiftAmp,2020.1.2,Win32,60,,,,,,,,,,,,,,,,,,,,,,,,,,1,7.07748,,0,0,68,68,41,1,stimuli/stim_20210407_power2amp/equal_lnn_AM1.8Hz_74.m4a,,,
,,,,,40868,2021-04-22_18h23.18.969,judgeSpeechMusic_20210407_logNormShiftAmp,2020.1.2,Win32,60,,,,,,,,,,,,,,,,,,,,,,,,,,2,10.404525,,0,0,69,69,51,1,stimuli/stim_20210407_power2amp/equal_lnn_AM2.4Hz_18.m4a,,,
,,,,,40868,2021-04-22_18h23.18.969,judgeSpeechMusic_20210407_logNormShiftAmp,2020.1.2,Win32,60,,,,,,,,,,,,,,,,,,,,,,,,,,1,6.07073,,0,0,70,70,34,1,stimuli/stim_20210407_power2amp/equal_lnn_AM1.8Hz_23.m4a,,,
,,,,,40868,2021-04-22_18h23.18.969,judgeSpeechMusic_20210407_logNormShiftAmp,2020.1.2,Win32,60,,,,,,,,,,,,,,,,,,,,,,,,,,1,5.93578,,0,0,71,71,44,1,stimuli/stim_20210407_power2amp/equal_lnn_AM1.8Hz_92.m4a,,,
,,,,,40868,2021-04-22_18h23.18.969,judgeSpeechMusic_20210407_logNormShiftAmp,2020.1.2,Win32,60,,,,,,,,,,,,,,,,,,,,,,,,,,1,8.62354,,0,0,72,72,17,1,stimuli/stim_20210407_power2amp/equal_lnn_AM1.2Hz_32.m4a,,,
,,,,,40868,2021-04-22_18h23.18.969,judgeSpeechMusic_20210407_logNormShiftAmp,2020.1.2,Win32,60,,,,,,,,,,,,,,,,,,,,,,,,,,1,6.02763,,0,0,73,73,4,1,stimuli/stim_20210407_power2amp/equal_lnn_AM0.6Hz_18.m4a,,,
,,,,,40868,2021-04-22_18h23.18.969,judgeSpeechMusic_20210407_logNormShiftAmp,2020.1.2,Win32,60,,,,,,,,,,,,,,,,,,,,,,,,,,2,6.07111,,0,0,74,74,146,1,stimuli/stim_20210407_power2amp/equal_lnn_AM6Hz_13.m4a,,,
,,,,,40868,2021-04-22_18h23.18.969,judgeSpeechMusic_20210407_logNormShiftAmp,2020.1.2,Win32,60,,,,,,,,,,,,,,,,,,,,,,,,,,2,5.8872,,0,0,75,75,74,1,stimuli/stim_20210407_power2amp/equal_lnn_AM3Hz_9.m4a,,,
,,,,,40868,2021-04-22_18h23.18.969,judgeSpeechMusic_20210407_logNormShiftAmp,2020.1.2,Win32,60,,,,,,,,,,,,,,,,,,,,,,,,,,2,6.885345,,0,0,76,76,104,1,stimuli/stim_20210407_power2amp/equal_lnn_AM4.2Hz_40.m4a,,,
,,,,,40868,2021-04-22_18h23.18.969,judgeSpeechMusic_20210407_logNormShiftAmp,2020.1.2,Win32,60,,,,,,,,,,,,,,,,,,,,,,,,,,2,16.157875,,0,0,77,77,35,1,stimuli/stim_20210407_power2amp/equal_lnn_AM1.8Hz_70.m4a,,,
,,,,,40868,2021-04-22_18h23.18.969,judgeSpeechMusic_20210407_logNormShiftAmp,2020.1.2,Win32,60,,,,,,,,,,,,,,,,,,,,,,,,,,2,7.66049,,0,0,78,78,139,1,stimuli/stim_20210407_power2amp/equal_lnn_AM6Hz_73.m4a,,,
,,,,,40868,2021-04-22_18h23.18.969,judgeSpeechMusic_20210407_logNormShiftAmp,2020.1.2,Win32,60,,,,,,,,,,,,,,,,,,,,,,,,,,1,5.571935,,0,0,79,79,31,1,stimuli/stim_20210407_power2amp/equal_lnn_AM1.8Hz_42.m4a,,,
,,,,,40868,2021-04-22_18h23.18.969,judgeSpeechMusic_20210407_logNormShiftAmp,2020.1.2,Win32,60,,,,,,,,,,,,,,,,,,,,,,,,,,2,6.02519,,0,0,80,80,113,1,stimuli/stim_20210407_power2amp/equal_lnn_AM4.8Hz_66.m4a,,,
,,,,,40868,2021-04-22_18h23.18.969,judgeSpeechMusic_20210407_logNormShiftAmp,2020.1.2,Win32,60,,,,,,,,,,,,,,,,,,,,,,,,,,1,6.09034,,0,0,81,81,54,1,stimuli/stim_20210407_power2amp/equal_lnn_AM2.4Hz_26.m4a,,,
,,,,,40868,2021-04-22_18h23.18.969,judgeSpeechMusic_20210407_logNormShiftAmp,2020.1.2,Win32,60,,,,,,,,,,,,,,,,,,,,,,,,,,2,6.122375,,0,0,82,82,132,1,stimuli/stim_20210407_power2amp/equal_lnn_AM5.4Hz_4.m4a,,,
,,,,,40868,2021-04-22_18h23.18.969,judgeSpeechMusic_20210407_logNormShiftAmp,2020.1.2,Win32,60,,,,,,,,,,,,,,,,,,,,,,,,,,2,6.74269,4,1,0,83,83,109,1,stimuli/stim_20210407_power2amp/equal_lnn_AM4.8Hz_55.m4a,2.86219,,
,,,,,40868,2021-04-22_18h23.18.969,judgeSpeechMusic_20210407_logNormShiftAmp,2020.1.2,Win32,60,,,,,,,,,,,,,,,,,,,,,,,,,,2,7.093775,,0,0,84,84,142,1,stimuli/stim_20210407_power2amp/equal_lnn_AM6Hz_88.m4a,,,
,,,,,40868,2021-04-22_18h23.18.969,judgeSpeechMusic_20210407_logNormShiftAmp,2020.1.2,Win32,60,,,,,,,,,,,,,,,,,,,,,,,,,,2,7.410855,,0,0,85,85,120,1,stimuli/stim_20210407_power2amp/equal_lnn_AM5.4Hz_36.m4a,,,
,,,,,40868,2021-04-22_18h23.18.969,judgeSpeechMusic_20210407_logNormShiftAmp,2020.1.2,Win32,60,,,,,,,,,,,,,,,,,,,,,,,,,,2,9.837965,,0,0,86,86,149,1,stimuli/stim_20210407_power2amp/equal_lnn_AM6Hz_97.m4a,,,
,,,,,40868,2021-04-22_18h23.18.969,judgeSpeechMusic_20210407_logNormShiftAmp,2020.1.2,Win32,60,,,,,,,,,,,,,,,,,,,,,,,,,,1,6.203805,,0,0,87,87,33,1,stimuli/stim_20210407_power2amp/equal_lnn_AM1.8Hz_39.m4a,,,
,,,,,40868,2021-04-22_18h23.18.969,judgeSpeechMusic_20210407_logNormShiftAmp,2020.1.2,Win32,60,,,,,,,,,,,,,,,,,,,,,,,,,,1,7.00818,,0,0,88,88,27,1,stimuli/stim_20210407_power2amp/equal_lnn_AM1.2Hz_77.m4a,,,
,,,,,40868,2021-04-22_18h23.18.969,judgeSpeechMusic_20210407_logNormShiftAmp,2020.1.2,Win32,60,,,,,,,,,,,,,,,,,,,,,,,,,,1,6.1696,,0,0,89,89,101,1,stimuli/stim_20210407_power2amp/equal_lnn_AM4.2Hz_87.m4a,,,
,,,,,40868,2021-04-22_18h23.18.969,judgeSpeechMusic_20210407_logNormShiftAmp,2020.1.2,Win32,60,,,,,,,,,,,,,,,,,,,,,,,,,,2,5.972485,,0,0,90,90,141,1,stimuli/stim_20210407_power2amp/equal_lnn_AM6Hz_60.m4a,,,
,,,,,40868,2021-04-22_18h23.18.969,judgeSpeechMusic_20210407_logNormShiftAmp,2020.1.2,Win32,60,,,,,,,,,,,,,,,,,,,,,,,,,,1,6.060535,,0,0,91,91,32,1,stimuli/stim_20210407_power2amp/equal_lnn_AM1.8Hz_46.m4a,,,
,,,,,40868,2021-04-22_18h23.18.969,judgeSpeechMusic_20210407_logNormShiftAmp,2020.1.2,Win32,60,,,,,,,,,,,,,,,,,,,,,,,,,,1,8.029265,,0,0,92,92,30,1,stimuli/stim_20210407_power2amp/equal_lnn_AM1.8Hz_63.m4a,,,
,,,,,40868,2021-04-22_18h23.18.969,judgeSpeechMusic_20210407_logNormShiftAmp,2020.1.2,Win32,60,,,,,,,,,,,,,,,,,,,,,,,,,,1,5.729075,,0,0,93,93,47,1,stimuli/stim_20210407_power2amp/equal_lnn_AM2.4Hz_16.m4a,,,
,,,,,40868,2021-04-22_18h23.18.969,judgeSpeechMusic_20210407_logNormShiftAmp,2020.1.2,Win32,60,,,,,,,,,,,,,,,,,,,,,,,,,,2,6.938585,,0,0,94,94,84,1,stimuli/stim_20210407_power2amp/equal_lnn_AM3.6Hz_65.m4a,,,
,,,,,40868,2021-04-22_18h23.18.969,judgeSpeechMusic_20210407_logNormShiftAmp,2020.1.2,Win32,60,,,,,,,,,,,,,,,,,,,,,,,,,,1,8.242215,,0,0,95,95,50,1,stimuli/stim_20210407_power2amp/equal_lnn_AM2.4Hz_65.m4a,,,
,,,,,40868,2021-04-22_18h23.18.969,judgeSpeechMusic_20210407_logNormShiftAmp,2020.1.2,Win32,60,,,,,,,,,,,,,,,,,,,,,,,,,,1,8.690055,,0,0,96,96,22,1,stimuli/stim_20210407_power2amp/equal_lnn_AM1.2Hz_18.m4a,,,
,,,,,40868,2021-04-22_18h23.18.969,judgeSpeechMusic_20210407_logNormShiftAmp,2020.1.2,Win32,60,,,,,,,,,,,,,,,,,,,,,,,,,,1,6.76421,,0,0,97,97,66,1,stimuli/stim_20210407_power2amp/equal_lnn_AM3Hz_15.m4a,,,
,,,,,40868,2021-04-22_18h23.18.969,judgeSpeechMusic_20210407_logNormShiftAmp,2020.1.2,Win32,60,,,,,,,,,,,,,,,,,,,,,,,,,,1,5.756965,,0,0,98,98,0,1,stimuli/stim_20210407_power2amp/equal_lnn_AM0.6Hz_96.m4a,,,
,,,,,40868,2021-04-22_18h23.18.969,judgeSpeechMusic_20210407_logNormShiftAmp,2020.1.2,Win32,60,,,,,,,,,,,,,,,,,,,,,,,,,,2,8.573355,,0,0,99,99,112,1,stimuli/stim_20210407_power2amp/equal_lnn_AM4.8Hz_33.m4a,,,
,,,,,40868,2021-04-22_18h23.18.969,judgeSpeechMusic_20210407_logNormShiftAmp,2020.1.2,Win32,60,,,,,,,,,,,,,,,,,,,,,,,,,,1,6.175425,,0,0,100,100,75,1,stimuli/stim_20210407_power2amp/equal_lnn_AM3.6Hz_92.m4a,,,
,,,,,40868,2021-04-22_18h23.18.969,judgeSpeechMusic_20210407_logNormShiftAmp,2020.1.2,Win32,60,,,,,,,,,,,,,,,,,,,,,,,,,,1,6.09771,,0,0,101,101,20,1,stimuli/stim_20210407_power2amp/equal_lnn_AM1.2Hz_79.m4a,,,
,,,,,40868,2021-04-22_18h23.18.969,judgeSpeechMusic_20210407_logNormShiftAmp,2020.1.2,Win32,60,,,,,,,,,,,,,,,,,,,,,,,,,,1,9.84782,,0,0,102,102,11,1,stimuli/stim_20210407_power2amp/equal_lnn_AM0.6Hz_65.m4a,,,
,,,,,40868,2021-04-22_18h23.18.969,judgeSpeechMusic_20210407_logNormShiftAmp,2020.1.2,Win32,60,,,,,,,,,,,,,,,,,,,,,,,,,,1,6.11868,4,1,0,103,103,88,1,stimuli/stim_20210407_power2amp/equal_lnn_AM3.6Hz_79.m4a,1.47035,,
,,,,,40868,2021-04-22_18h23.18.969,judgeSpeechMusic_20210407_logNormShiftAmp,2020.1.2,Win32,60,,,,,,,,,,,,,,,,,,,,,,,,,,2,6.00067,,0,0,104,104,124,1,stimuli/stim_20210407_power2amp/equal_lnn_AM5.4Hz_30.m4a,,,
,,,,,40868,2021-04-22_18h23.18.969,judgeSpeechMusic_20210407_logNormShiftAmp,2020.1.2,Win32,60,,,,,,,,,,,,,,,,,,,,,,,,,,2,7.7223,,0,0,105,105,108,1,stimuli/stim_20210407_power2amp/equal_lnn_AM4.8Hz_35.m4a,,,
,,,,,40868,2021-04-22_18h23.18.969,judgeSpeechMusic_20210407_logNormShiftAmp,2020.1.2,Win32,60,,,,,,,,,,,,,,,,,,,,,,,,,,2,8.425175,,0,0,106,106,81,1,stimuli/stim_20210407_power2amp/equal_lnn_AM3.6Hz_71.m4a,,,
,,,,,40868,2021-04-22_18h23.18.969,judgeSpeechMusic_20210407_logNormShiftAmp,2020.1.2,Win32,60,,,,,,,,,,,,,,,,,,,,,,,,,,2,5.872755,,0,0,107,107,87,1,stimuli/stim_20210407_power2amp/equal_lnn_AM3.6Hz_34.m4a,,,
,,,,,40868,2021-04-22_18h23.18.969,judgeSpeechMusic_20210407_logNormShiftAmp,2020.1.2,Win32,60,,,,,,,,,,,,,,,,,,,,,,,,,,1,11.838245,,0,0,108,108,37,1,stimuli/stim_20210407_power2amp/equal_lnn_AM1.8Hz_1.m4a,,,
,,,,,40868,2021-04-22_18h23.18.969,judgeSpeechMusic_20210407_logNormShiftAmp,2020.1.2,Win32,60,,,,,,,,,,,,,,,,,,,,,,,,,,1,5.988975,,0,0,109,109,16,1,stimuli/stim_20210407_power2amp/equal_lnn_AM1.2Hz_46.m4a,,,
,,,,,40868,2021-04-22_18h23.18.969,judgeSpeechMusic_20210407_logNormShiftAmp,2020.1.2,Win32,60,,,,,,,,,,,,,,,,,,,,,,,,,,2,8.736765,,0,0,110,110,86,1,stimuli/stim_20210407_power2amp/equal_lnn_AM3.6Hz_21.m4a,,,
,,,,,40868,2021-04-22_18h23.18.969,judgeSpeechMusic_20210407_logNormShiftAmp,2020.1.2,Win32,60,,,,,,,,,,,,,,,,,,,,,,,,,,2,7.308815,,0,0,111,111,103,1,stimuli/stim_20210407_power2amp/equal_lnn_AM4.2Hz_2.m4a,,,
,,,,,40868,2021-04-22_18h23.18.969,judgeSpeechMusic_20210407_logNormShiftAmp,2020.1.2,Win32,60,,,,,,,,,,,,,,,,,,,,,,,,,,1,8.80636,,0,0,112,112,9,1,stimuli/stim_20210407_power2amp/equal_lnn_AM0.6Hz_19.m4a,,,
,,,,,40868,2021-04-22_18h23.18.969,judgeSpeechMusic_20210407_logNormShiftAmp,2020.1.2,Win32,60,,,,,,,,,,,,,,,,,,,,,,,,,,1,7.95636,,0,0,113,113,29,1,stimuli/stim_20210407_power2amp/equal_lnn_AM1.2Hz_92.m4a,,,
,,,,,40868,2021-04-22_18h23.18.969,judgeSpeechMusic_20210407_logNormShiftAmp,2020.1.2,Win32,60,,,,,,,,,,,,,,,,,,,,,,,,,,1,7.77202,,0,0,114,114,40,1,stimuli/stim_20210407_power2amp/equal_lnn_AM1.8Hz_100.m4a,,,
,,,,,40868,2021-04-22_18h23.18.969,judgeSpeechMusic_20210407_logNormShiftAmp,2020.1.2,Win32,60,,,,,,,,,,,,,,,,,,,,,,,,,,2,6.97253,,0,0,115,115,118,1,stimuli/stim_20210407_power2amp/equal_lnn_AM4.8Hz_44.m4a,,,
,,,,,40868,2021-04-22_18h23.18.969,judgeSpeechMusic_20210407_logNormShiftAmp,2020.1.2,Win32,60,,,,,,,,,,,,,,,,,,,,,,,,,,2,9.332835,,0,0,116,116,114,1,stimuli/stim_20210407_power2amp/equal_lnn_AM4.8Hz_62.m4a,,,
,,,,,40868,2021-04-22_18h23.18.969,judgeSpeechMusic_20210407_logNormShiftAmp,2020.1.2,Win32,60,,,,,,,,,,,,,,,,,,,,,,,,,,1,10.04186,,0,0,117,117,116,1,stimuli/stim_20210407_power2amp/equal_lnn_AM4.8Hz_67.m4a,,,
,,,,,40868,2021-04-22_18h23.18.969,judgeSpeechMusic_20210407_logNormShiftAmp,2020.1.2,Win32,60,,,,,,,,,,,,,,,,,,,,,,,,,,2,10.954615,,0,0,118,118,138,1,stimuli/stim_20210407_power2amp/equal_lnn_AM6Hz_99.m4a,,,
,,,,,40868,2021-04-22_18h23.18.969,judgeSpeechMusic_20210407_logNormShiftAmp,2020.1.2,Win32,60,,,,,,,,,,,,,,,,,,,,,,,,,,2,6.044735,,0,0,119,119,94,1,stimuli/stim_20210407_power2amp/equal_lnn_AM4.2Hz_11.m4a,,,
,,,,,40868,2021-04-22_18h23.18.969,judgeSpeechMusic_20210407_logNormShiftAmp,2020.1.2,Win32,60,,,,,,,,,,,,,,,,,,,,,,,,,,2,6.389035,,0,0,120,120,131,1,stimuli/stim_20210407_power2amp/equal_lnn_AM5.4Hz_38.m4a,,,
,,,,,40868,2021-04-22_18h23.18.969,judgeSpeechMusic_20210407_logNormShiftAmp,2020.1.2,Win32,60,,,,,,,,,,,,,,,,,,,,,,,,,,2,5.854385,,0,0,121,121,60,1,stimuli/stim_20210407_power2amp/equal_lnn_AM3Hz_69.m4a,,,
,,,,,40868,2021-04-22_18h23.18.969,judgeSpeechMusic_20210407_logNormShiftAmp,2020.1.2,Win32,60,,,,,,,,,,,,,,,,,,,,,,,,,,2,7.23598,,0,0,122,122,71,1,stimuli/stim_20210407_power2amp/equal_lnn_AM3Hz_35.m4a,,,
,,,,,40868,2021-04-22_18h23.18.969,judgeSpeechMusic_20210407_logNormShiftAmp,2020.1.2,Win32,60,,,,,,,,,,,,,,,,,,,,,,,,,,1,6.66311,,0,0,123,123,19,1,stimuli/stim_20210407_power2amp/equal_lnn_AM1.2Hz_68.m4a,,,
,,,,,40868,2021-04-22_18h23.18.969,judgeSpeechMusic_20210407_logNormShiftAmp,2020.1.2,Win32,60,,,,,,,,,,,,,,,,,,,,,,,,,,1,6.00489,,0,0,124,124,59,1,stimuli/stim_20210407_power2amp/equal_lnn_AM2.4Hz_56.m4a,,,
,,,,,40868,2021-04-22_18h23.18.969,judgeSpeechMusic_20210407_logNormShiftAmp,2020.1.2,Win32,60,,,,,,,,,,,,,,,,,,,,,,,,,,1,6.3752,,0,0,125,125,25,1,stimuli/stim_20210407_power2amp/equal_lnn_AM1.2Hz_78.m4a,,,
,,,,,40868,2021-04-22_18h23.18.969,judgeSpeechMusic_20210407_logNormShiftAmp,2020.1.2,Win32,60,,,,,,,,,,,,,,,,,,,,,,,,,,1,7.19651,,0,0,126,126,63,1,stimuli/stim_20210407_power2amp/equal_lnn_AM3Hz_46.m4a,,,
,,,,,40868,2021-04-22_18h23.18.969,judgeSpeechMusic_20210407_logNormShiftAmp,2020.1.2,Win32,60,,,,,,,,,,,,,,,,,,,,,,,,,,2,7.0356,1,1,0,127,127,78,1,stimuli/stim_20210407_power2amp/equal_lnn_AM3.6Hz_83.m4a,1.98885,,
,,,,,40868,2021-04-22_18h23.18.969,judgeSpeechMusic_20210407_logNormShiftAmp,2020.1.2,Win32,60,,,,,,,,,,,,,,,,,,,,,,,,,,1,13.764485,,0,0,128,128,26,1,stimuli/stim_20210407_power2amp/equal_lnn_AM1.2Hz_61.m4a,,,
,,,,,40868,2021-04-22_18h23.18.969,judgeSpeechMusic_20210407_logNormShiftAmp,2020.1.2,Win32,60,,,,,,,,,,,,,,,,,,,,,,,,,,2,6.092935,,0,0,129,129,64,1,stimuli/stim_20210407_power2amp/equal_lnn_AM3Hz_2.m4a,,,
,,,,,40868,2021-04-22_18h23.18.969,judgeSpeechMusic_20210407_logNormShiftAmp,2020.1.2,Win32,60,,,,,,,,,,,,,,,,,,,,,,,,,,2,7.089585,,0,0,130,130,105,1,stimuli/stim_20210407_power2amp/equal_lnn_AM4.8Hz_81.m4a,,,
,,,,,40868,2021-04-22_18h23.18.969,judgeSpeechMusic_20210407_logNormShiftAmp,2020.1.2,Win32,60,,,,,,,,,,,,,,,,,,,,,,,,,,2,5.82251,,0,0,131,131,92,1,stimuli/stim_20210407_power2amp/equal_lnn_AM4.2Hz_69.m4a,,,
,,,,,40868,2021-04-22_18h23.18.969,judgeSpeechMusic_20210407_logNormShiftAmp,2020.1.2,Win32,60,,,,,,,,,,,,,,,,,,,,,,,,,,2,6.987365,,0,0,132,132,143,1,stimuli/stim_20210407_power2amp/equal_lnn_AM6Hz_23.m4a,,,
,,,,,40868,2021-04-22_18h23.18.969,judgeSpeechMusic_20210407_logNormShiftAmp,2020.1.2,Win32,60,,,,,,,,,,,,,,,,,,,,,,,,,,1,5.8707,,0,0,133,133,58,1,stimuli/stim_20210407_power2amp/equal_lnn_AM2.4Hz_17.m4a,,,
,,,,,40868,2021-04-22_18h23.18.969,judgeSpeechMusic_20210407_logNormShiftAmp,2020.1.2,Win32,60,,,,,,,,,,,,,,,,,,,,,,,,,,2,5.863305,,0,0,134,134,122,1,stimuli/stim_20210407_power2amp/equal_lnn_AM5.4Hz_16.m4a,,,
,,,,,40868,2021-04-22_18h23.18.969,judgeSpeechMusic_20210407_logNormShiftAmp,2020.1.2,Win32,60,,,,,,,,,,,,,,,,,,,,,,,,,,2,5.86049,,0,0,135,135,125,1,stimuli/stim_20210407_power2amp/equal_lnn_AM5.4Hz_81.m4a,,,
,,,,,40868,2021-04-22_18h23.18.969,judgeSpeechMusic_20210407_logNormShiftAmp,2020.1.2,Win32,60,,,,,,,,,,,,,,,,,,,,,,,,,,2,16.26153,,0,0,136,136,97,1,stimuli/stim_20210407_power2amp/equal_lnn_AM4.2Hz_49.m4a,,,
,,,,,40868,2021-04-22_18h23.18.969,judgeSpeechMusic_20210407_logNormShiftAmp,2020.1.2,Win32,60,,,,,,,,,,,,,,,,,,,,,,,,,,2,5.98829,,0,0,137,137,110,1,stimuli/stim_20210407_power2amp/equal_lnn_AM4.8Hz_37.m4a,,,
,,,,,40868,2021-04-22_18h23.18.969,judgeSpeechMusic_20210407_logNormShiftAmp,2020.1.2,Win32,60,,,,,,,,,,,,,,,,,,,,,,,,,,2,5.83463,,0,0,138,138,121,1,stimuli/stim_20210407_power2amp/equal_lnn_AM5.4Hz_69.m4a,,,
,,,,,40868,2021-04-22_18h23.18.969,judgeSpeechMusic_20210407_logNormShiftAmp,2020.1.2,Win32,60,,,,,,,,,,,,,,,,,,,,,,,,,,1,10.58986,,0,0,139,139,6,1,stimuli/stim_20210407_power2amp/equal_lnn_AM0.6Hz_43.m4a,,,
,,,,,40868,2021-04-22_18h23.18.969,judgeSpeechMusic_20210407_logNormShiftAmp,2020.1.2,Win32,60,,,,,,,,,,,,,,,,,,,,,,,,,,2,6.15795,,0,0,140,140,91,1,stimuli/stim_20210407_power2amp/equal_lnn_AM4.2Hz_20.m4a,,,
,,,,,40868,2021-04-22_18h23.18.969,judgeSpeechMusic_20210407_logNormShiftAmp,2020.1.2,Win32,60,,,,,,,,,,,,,,,,,,,,,,,,,,2,6.67079,,0,0,141,141,77,1,stimuli/stim_20210407_power2amp/equal_lnn_AM3.6Hz_93.m4a,,,
,,,,,40868,2021-04-22_18h23.18.969,judgeSpeechMusic_20210407_logNormShiftAmp,2020.1.2,Win32,60,,,,,,,,,,,,,,,,,,,,,,,,,,1,6.206055,,0,0,142,142,10,1,stimuli/stim_20210407_power2amp/equal_lnn_AM0.6Hz_87.m4a,,,
,,,,,40868,2021-04-22_18h23.18.969,judgeSpeechMusic_20210407_logNormShiftAmp,2020.1.2,Win32,60,,,,,,,,,,,,,,,,,,,,,,,,,,2,6.21855,,0,0,143,143,70,1,stimuli/stim_20210407_power2amp/equal_lnn_AM3Hz_51.m4a,,,
,,,,,40868,2021-04-22_18h23.18.969,judgeSpeechMusic_20210407_logNormShiftAmp,2020.1.2,Win32,60,,,,,,,,,,,,,,,,,,,,,,,,,,2,6.020565,,0,0,144,144,96,1,stimuli/stim_20210407_power2amp/equal_lnn_AM4.2Hz_65.m4a,,,
,,,,,40868,2021-04-22_18h23.18.969,judgeSpeechMusic_20210407_logNormShiftAmp,2020.1.2,Win32,60,,,,,,,,,,,,,,,,,,,,,,,,,,2,8.48875,,0,0,145,145,79,1,stimuli/stim_20210407_power2amp/equal_lnn_AM3.6Hz_77.m4a,,,
,,,,,40868,2021-04-22_18h23.18.969,judgeSpeechMusic_20210407_logNormShiftAmp,2020.1.2,Win32,60,,,,,,,,,,,,,,,,,,,,,,,,,,2,7.79368,,0,0,146,146,126,1,stimuli/stim_20210407_power2amp/equal_lnn_AM5.4Hz_24.m4a,,,
,,,,,40868,2021-04-22_18h23.18.969,judgeSpeechMusic_20210407_logNormShiftAmp,2020.1.2,Win32,60,,,,,,,,,,,,,,,,,,,,,,,,,,1,14.715095,,0,0,147,147,53,1,stimuli/stim_20210407_power2amp/equal_lnn_AM2.4Hz_76.m4a,,,
,,,,,40868,2021-04-22_18h23.18.969,judgeSpeechMusic_20210407_logNormShiftAmp,2020.1.2,Win32,60,,,,,,,,,,,,,,,,,,,,,,,,,,1,6.25633,2,1,0,148,148,98,1,stimuli/stim_20210407_power2amp/equal_lnn_AM4.2Hz_46.m4a,1.69238,,
,,,,,40868,2021-04-22_18h23.18.969,judgeSpeechMusic_20210407_logNormShiftAmp,2020.1.2,Win32,60,,,,,,,,,,,,,,,,,,,,,,,,,,2,6.6899,,0,0,149,149,129,1,stimuli/stim_20210407_power2amp/equal_lnn_AM5.4Hz_56.m4a,,,
,,,,,40868,2021-04-22_18h23.18.969,judgeSpeechMusic_20210407_logNormShiftAmp,2020.1.2,Win32,60,,,,,,,,,,,,,,,,,,,,,,,,,,2,6.09076,,0,1,0,150,149,1,stimuli/stim_20210407_power2amp/equal_lnn_AM6Hz_97.m4a,,,
,,,,,40868,2021-04-22_18h23.18.969,judgeSpeechMusic_20210407_logNormShiftAmp,2020.1.2,Win32,60,,,,,,,,,,,,,,,,,,,,,,,,,,1,6.10608,,0,1,1,151,54,1,stimuli/stim_20210407_power2amp/equal_lnn_AM2.4Hz_26.m4a,,,
,,,,,40868,2021-04-22_18h23.18.969,judgeSpeechMusic_20210407_logNormShiftAmp,2020.1.2,Win32,60,,,,,,,,,,,,,,,,,,,,,,,,,,2,6.572205,,0,1,2,152,104,1,stimuli/stim_20210407_power2amp/equal_lnn_AM4.2Hz_40.m4a,,,
,,,,,40868,2021-04-22_18h23.18.969,judgeSpeechMusic_20210407_logNormShiftAmp,2020.1.2,Win32,60,,,,,,,,,,,,,,,,,,,,,,,,,,2,6.244095,,0,1,3,153,96,1,stimuli/stim_20210407_power2amp/equal_lnn_AM4.2Hz_65.m4a,,,
,,,,,40868,2021-04-22_18h23.18.969,judgeSpeechMusic_20210407_logNormShiftAmp,2020.1.2,Win32,60,,,,,,,,,,,,,,,,,,,,,,,,,,1,6.901895,,0,1,4,154,20,1,stimuli/stim_20210407_power2amp/equal_lnn_AM1.2Hz_79.m4a,,,
,,,,,40868,2021-04-22_18h23.18.969,judgeSpeechMusic_20210407_logNormShiftAmp,2020.1.2,Win32,60,,,,,,,,,,,,,,,,,,,,,,,,,,2,5.97497,,0,1,5,155,140,1,stimuli/stim_20210407_power2amp/equal_lnn_AM6Hz_76.m4a,,,
,,,,,40868,2021-04-22_18h23.18.969,judgeSpeechMusic_20210407_logNormShiftAmp,2020.1.2,Win32,60,,,,,,,,,,,,,,,,,,,,,,,,,,1,6.00489,,0,1,6,156,36,1,stimuli/stim_20210407_power2amp/equal_lnn_AM1.8Hz_91.m4a,,,
,,,,,40868,2021-04-22_18h23.18.969,judgeSpeechMusic_20210407_logNormShiftAmp,2020.1.2,Win32,60,,,,,,,,,,,,,,,,,,,,,,,,,,1,5.85413,,0,1,7,157,40,1,stimuli/stim_20210407_power2amp/equal_lnn_AM1.8Hz_100.m4a,,,
,,,,,40868,2021-04-22_18h23.18.969,judgeSpeechMusic_20210407_logNormShiftAmp,2020.1.2,Win32,60,,,,,,,,,,,,,,,,,,,,,,,,,,2,6.357215,,0,1,8,158,85,1,stimuli/stim_20210407_power2amp/equal_lnn_AM3.6Hz_17.m4a,,,
,,,,,40868,2021-04-22_18h23.18.969,judgeSpeechMusic_20210407_logNormShiftAmp,2020.1.2,Win32,60,,,,,,,,,,,,,,,,,,,,,,,,,,1,6.356485,,0,1,9,159,22,1,stimuli/stim_20210407_power2amp/equal_lnn_AM1.2Hz_18.m4a,,,
,,,,,40868,2021-04-22_18h23.18.969,judgeSpeechMusic_20210407_logNormShiftAmp,2020.1.2,Win32,60,,,,,,,,,,,,,,,,,,,,,,,,,,2,6.0031,,0,1,10,160,102,1,stimuli/stim_20210407_power2amp/equal_lnn_AM4.2Hz_9.m4a,,,
,,,,,40868,2021-04-22_18h23.18.969,judgeSpeechMusic_20210407_logNormShiftAmp,2020.1.2,Win32,60,,,,,,,,,,,,,,,,,,,,,,,,,,2,9.16955,,0,1,11,161,67,1,stimuli/stim_20210407_power2amp/equal_lnn_AM3Hz_74.m4a,,,
,,,,,40868,2021-04-22_18h23.18.969,judgeSpeechMusic_20210407_logNormShiftAmp,2020.1.2,Win32,60,,,,,,,,,,,,,,,,,,,,,,,,,,1,7.74344,,0,1,12,162,45,1,stimuli/stim_20210407_power2amp/equal_lnn_AM2.4Hz_24.m4a,,,
,,,,,40868,2021-04-22_18h23.18.969,judgeSpeechMusic_20210407_logNormShiftAmp,2020.1.2,Win32,60,,,,,,,,,,,,,,,,,,,,,,,,,,1,6.093595,,0,1,13,163,19,1,stimuli/stim_20210407_power2amp/equal_lnn_AM1.2Hz_68.m4a,,,
,,,,,40868,2021-04-22_18h23.18.969,judgeSpeechMusic_20210407_logNormShiftAmp,2020.1.2,Win32,60,,,,,,,,,,,,,,,,,,,,,,,,,,1,6.59617,,0,1,14,164,32,1,stimuli/stim_20210407_power2amp/equal_lnn_AM1.8Hz_46.m4a,,,
,,,,,40868,2021-04-22_18h23.18.969,judgeSpeechMusic_20210407_logNormShiftAmp,2020.1.2,Win32,60,,,,,,,,,,,,,,,,,,,,,,,,,,1,5.95328,,0,1,15,165,28,1,stimuli/stim_20210407_power2amp/equal_lnn_AM1.2Hz_55.m4a,,,
,,,,,40868,2021-04-22_18h23.18.969,judgeSpeechMusic_20210407_logNormShiftAmp,2020.1.2,Win32,60,,,,,,,,,,,,,,,,,,,,,,,,,,1,9.52665,,0,1,16,166,23,1,stimuli/stim_20210407_power2amp/equal_lnn_AM1.2Hz_76.m4a,,,
,,,,,40868,2021-04-22_18h23.18.969,judgeSpeechMusic_20210407_logNormShiftAmp,2020.1.2,Win32,60,,,,,,,,,,,,,,,,,,,,,,,,,,1,5.695735,,0,1,17,167,3,1,stimuli/stim_20210407_power2amp/equal_lnn_AM0.6Hz_46.m4a,,,
,,,,,40868,2021-04-22_18h23.18.969,judgeSpeechMusic_20210407_logNormShiftAmp,2020.1.2,Win32,60,,,,,,,,,,,,,,,,,,,,,,,,,,1,11.4741,,0,1,18,168,42,1,stimuli/stim_20210407_power2amp/equal_lnn_AM1.8Hz_67.m4a,,,
,,,,,40868,2021-04-22_18h23.18.969,judgeSpeechMusic_20210407_logNormShiftAmp,2020.1.2,Win32,60,,,,,,,,,,,,,,,,,,,,,,,,,,2,10.79278,,0,1,19,169,55,1,stimuli/stim_20210407_power2amp/equal_lnn_AM2.4Hz_40.m4a,,,
,,,,,40868,2021-04-22_18h23.18.969,judgeSpeechMusic_20210407_logNormShiftAmp,2020.1.2,Win32,60,,,,,,,,,,,,,,,,,,,,,,,,,,2,10.810625,4,1,1,20,170,136,1,stimuli/stim_20210407_power2amp/equal_lnn_AM6Hz_75.m4a,3.21074,,
,,,,,40868,2021-04-22_18h23.18.969,judgeSpeechMusic_20210407_logNormShiftAmp,2020.1.2,Win32,60,,,,,,,,,,,,,,,,,,,,,,,,,,2,9.25358,,0,1,21,171,68,1,stimuli/stim_20210407_power2amp/equal_lnn_AM3Hz_25.m4a,,,
,,,,,40868,2021-04-22_18h23.18.969,judgeSpeechMusic_20210407_logNormShiftAmp,2020.1.2,Win32,60,,,,,,,,,,,,,,,,,,,,,,,,,,1,6.041605,,0,1,22,172,64,1,stimuli/stim_20210407_power2amp/equal_lnn_AM3Hz_2.m4a,,,
,,,,,40868,2021-04-22_18h23.18.969,judgeSpeechMusic_20210407_logNormShiftAmp,2020.1.2,Win32,60,,,,,,,,,,,,,,,,,,,,,,,,,,2,10.19101,,0,1,23,173,135,1,stimuli/stim_20210407_power2amp/equal_lnn_AM6Hz_41.m4a,,,
,,,,,40868,2021-04-22_18h23.18.969,judgeSpeechMusic_20210407_logNormShiftAmp,2020.1.2,Win32,60,,,,,,,,,,,,,,,,,,,,,,,,,,1,5.877525,,0,1,24,174,11,1,stimuli/stim_20210407_power2amp/equal_lnn_AM0.6Hz_65.m4a,,,
,,,,,40868,2021-04-22_18h23.18.969,judgeSpeechMusic_20210407_logNormShiftAmp,2020.1.2,Win32,60,,,,,,,,,,,,,,,,,,,,,,,,,,1,5.75872,,0,1,25,175,51,1,stimuli/stim_20210407_power2amp/equal_lnn_AM2.4Hz_18.m4a,,,
,,,,,40868,2021-04-22_18h23.18.969,judgeSpeechMusic_20210407_logNormShiftAmp,2020.1.2,Win32,60,,,,,,,,,,,,,,,,,,,,,,,,,,1,5.79246,,0,1,26,176,27,1,stimuli/stim_20210407_power2amp/equal_lnn_AM1.2Hz_77.m4a,,,
,,,,,40868,2021-04-22_18h23.18.969,judgeSpeechMusic_20210407_logNormShiftAmp,2020.1.2,Win32,60,,,,,,,,,,,,,,,,,,,,,,,,,,1,5.856035,,0,1,27,177,116,1,stimuli/stim_20210407_power2amp/equal_lnn_AM4.8Hz_67.m4a,,,
,,,,,40868,2021-04-22_18h23.18.969,judgeSpeechMusic_20210407_logNormShiftAmp,2020.1.2,Win32,60,,,,,,,,,,,,,,,,,,,,,,,,,,2,6.08716,,0,1,28,178,130,1,stimuli/stim_20210407_power2amp/equal_lnn_AM5.4Hz_19.m4a,,,
,,,,,40868,2021-04-22_18h23.18.969,judgeSpeechMusic_20210407_logNormShiftAmp,2020.1.2,Win32,60,,,,,,,,,,,,,,,,,,,,,,,,,,2,8.455565,,0,1,29,179,133,1,stimuli/stim_20210407_power2amp/equal_lnn_AM5.4Hz_52.m4a,,,
,,,,,40868,2021-04-22_18h23.18.969,judgeSpeechMusic_20210407_logNormShiftAmp,2020.1.2,Win32,60,,,,,,,,,,,,,,,,,,,,,,,,,,2,8.1777,,0,1,30,180,86,1,stimuli/stim_20210407_power2amp/equal_lnn_AM3.6Hz_21.m4a,,,
,,,,,40868,2021-04-22_18h23.18.969,judgeSpeechMusic_20210407_logNormShiftAmp,2020.1.2,Win32,60,,,,,,,,,,,,,,,,,,,,,,,,,,2,12.670225,,0,1,31,181,144,1,stimuli/stim_20210407_power2amp/equal_lnn_AM6Hz_32.m4a,,,
,,,,,40868,2021-04-22_18h23.18.969,judgeSpeechMusic_20210407_logNormShiftAmp,2020.1.2,Win32,60,,,,,,,,,,,,,,,,,,,,,,,,,,2,6.019595,,0,1,32,182,87,1,stimuli/stim_20210407_power2amp/equal_lnn_AM3.6Hz_34.m4a,,,
,,,,,40868,2021-04-22_18h23.18.969,judgeSpeechMusic_20210407_logNormShiftAmp,2020.1.2,Win32,60,,,,,,,,,,,,,,,,,,,,,,,,,,2,6.99588,,0,1,33,183,92,1,stimuli/stim_20210407_power2amp/equal_lnn_AM4.2Hz_69.m4a,,,
,,,,,40868,2021-04-22_18h23.18.969,judgeSpeechMusic_20210407_logNormShiftAmp,2020.1.2,Win32,60,,,,,,,,,,,,,,,,,,,,,,,,,,2,8.74002,,0,1,34,184,84,1,stimuli/stim_20210407_power2amp/equal_lnn_AM3.6Hz_65.m4a,,,
,,,,,40868,2021-04-22_18h23.18.969,judgeSpeechMusic_20210407_logNormShiftAmp,2020.1.2,Win32,60,,,,,,,,,,,,,,,,,,,,,,,,,,1,6.089205,,0,1,35,185,53,1,stimuli/stim_20210407_power2amp/equal_lnn_AM2.4Hz_76.m4a,,,
,,,,,40868,2021-04-22_18h23.18.969,judgeSpeechMusic_20210407_logNormShiftAmp,2020.1.2,Win32,60,,,,,,,,,,,,,,,,,,,,,,,,,,2,6.24063,,0,1,36,186,115,1,stimuli/stim_20210407_power2amp/equal_lnn_AM4.8Hz_99.m4a,,,
,,,,,40868,2021-04-22_18h23.18.969,judgeSpeechMusic_20210407_logNormShiftAmp,2020.1.2,Win32,60,,,,,,,,,,,,,,,,,,,,,,,,,,2,10.01317,,0,1,37,187,124,1,stimuli/stim_20210407_power2amp/equal_lnn_AM5.4Hz_30.m4a,,,
,,,,,40868,2021-04-22_18h23.18.969,judgeSpeechMusic_20210407_logNormShiftAmp,2020.1.2,Win32,60,,,,,,,,,,,,,,,,,,,,,,,,,,2,8.704895,,0,1,38,188,93,1,stimuli/stim_20210407_power2amp/equal_lnn_AM4.2Hz_59.m4a,,,
,,,,,40868,2021-04-22_18h23.18.969,judgeSpeechMusic_20210407_logNormShiftAmp,2020.1.2,Win32,60,,,,,,,,,,,,,,,,,,,,,,,,,,1,5.80658,,0,1,39,189,44,1,stimuli/stim_20210407_power2amp/equal_lnn_AM1.8Hz_92.m4a,,,
,,,,,40868,2021-04-22_18h23.18.969,judgeSpeechMusic_20210407_logNormShiftAmp,2020.1.2,Win32,60,,,,,,,,,,,,,,,,,,,,,,,,,,2,5.77451,,0,1,40,190,49,1,stimuli/stim_20210407_power2amp/equal_lnn_AM2.4Hz_94.m4a,,,
,,,,,40868,2021-04-22_18h23.18.969,judgeSpeechMusic_20210407_logNormShiftAmp,2020.1.2,Win32,60,,,,,,,,,,,,,,,,,,,,,,,,,,2,5.6182,,0,1,41,191,74,1,stimuli/stim_20210407_power2amp/equal_lnn_AM3Hz_9.m4a,,,
,,,,,40868,2021-04-22_18h23.18.969,judgeSpeechMusic_20210407_logNormShiftAmp,2020.1.2,Win32,60,,,,,,,,,,,,,,,,,,,,,,,,,,2,5.7047,,0,1,42,192,139,1,stimuli/stim_20210407_power2amp/equal_lnn_AM6Hz_73.m4a,,,
,,,,,40868,2021-04-22_18h23.18.969,judgeSpeechMusic_20210407_logNormShiftAmp,2020.1.2,Win32,60,,,,,,,,,,,,,,,,,,,,,,,,,,2,5.656815,,0,1,43,193,109,1,stimuli/stim_20210407_power2amp/equal_lnn_AM4.8Hz_55.m4a,,,
,,,,,40868,2021-04-22_18h23.18.969,judgeSpeechMusic_20210407_logNormShiftAmp,2020.1.2,Win32,60,,,,,,,,,,,,,,,,,,,,,,,,,,2,5.605675,1,1,1,44,194,105,1,stimuli/stim_20210407_power2amp/equal_lnn_AM4.8Hz_81.m4a,1.47593,,
,,,,,40868,2021-04-22_18h23.18.969,judgeSpeechMusic_20210407_logNormShiftAmp,2020.1.2,Win32,60,,,,,,,,,,,,,,,,,,,,,,,,,,2,6.189125,,0,1,45,195,61,1,stimuli/stim_20210407_power2amp/equal_lnn_AM3Hz_24.m4a,,,
,,,,,40868,2021-04-22_18h23.18.969,judgeSpeechMusic_20210407_logNormShiftAmp,2020.1.2,Win32,60,,,,,,,,,,,,,,,,,,,,,,,,,,1,6.088215,,0,1,46,196,15,1,stimuli/stim_20210407_power2amp/equal_lnn_AM1.2Hz_13.m4a,,,
,,,,,40868,2021-04-22_18h23.18.969,judgeSpeechMusic_20210407_logNormShiftAmp,2020.1.2,Win32,60,,,,,,,,,,,,,,,,,,,,,,,,,,1,5.728675,,0,1,47,197,75,1,stimuli/stim_20210407_power2amp/equal_lnn_AM3.6Hz_92.m4a,,,
,,,,,40868,2021-04-22_18h23.18.969,judgeSpeechMusic_20210407_logNormShiftAmp,2020.1.2,Win32,60,,,,,,,,,,,,,,,,,,,,,,,,,,1,5.67298,,0,1,48,198,13,1,stimuli/stim_20210407_power2amp/equal_lnn_AM0.6Hz_98.m4a,,,
,,,,,40868,2021-04-22_18h23.18.969,judgeSpeechMusic_20210407_logNormShiftAmp,2020.1.2,Win32,60,,,,,,,,,,,,,,,,,,,,,,,,,,1,5.772485,,0,1,49,199,26,1,stimuli/stim_20210407_power2amp/equal_lnn_AM1.2Hz_61.m4a,,,
,,,,,40868,2021-04-22_18h23.18.969,judgeSpeechMusic_20210407_logNormShiftAmp,2020.1.2,Win32,60,,,,,,,,,,,,,,,,,,,,,,,,,,2,6.264745,,0,1,50,200,113,1,stimuli/stim_20210407_power2amp/equal_lnn_AM4.8Hz_66.m4a,,,
,,,,,40868,2021-04-22_18h23.18.969,judgeSpeechMusic_20210407_logNormShiftAmp,2020.1.2,Win32,60,,,,,,,,,,,,,,,,,,,,,,,,,,2,6.22398,,0,1,51,201,110,1,stimuli/stim_20210407_power2amp/equal_lnn_AM4.8Hz_37.m4a,,,
,,,,,40868,2021-04-22_18h23.18.969,judgeSpeechMusic_20210407_logNormShiftAmp,2020.1.2,Win32,60,,,,,,,,,,,,,,,,,,,,,,,,,,1,5.706145,,0,1,52,202,5,1,stimuli/stim_20210407_power2amp/equal_lnn_AM0.6Hz_38.m4a,,,
,,,,,40868,2021-04-22_18h23.18.969,judgeSpeechMusic_20210407_logNormShiftAmp,2020.1.2,Win32,60,,,,,,,,,,,,,,,,,,,,,,,,,,2,6.077315,,0,1,53,203,97,1,stimuli/stim_20210407_power2amp/equal_lnn_AM4.2Hz_49.m4a,,,
,,,,,40868,2021-04-22_18h23.18.969,judgeSpeechMusic_20210407_logNormShiftAmp,2020.1.2,Win32,60,,,,,,,,,,,,,,,,,,,,,,,,,,1,5.811345,,0,1,54,204,38,1,stimuli/stim_20210407_power2amp/equal_lnn_AM1.8Hz_21.m4a,,,
,,,,,40868,2021-04-22_18h23.18.969,judgeSpeechMusic_20210407_logNormShiftAmp,2020.1.2,Win32,60,,,,,,,,,,,,,,,,,,,,,,,,,,2,6.060935,,0,1,55,205,125,1,stimuli/stim_20210407_power2amp/equal_lnn_AM5.4Hz_81.m4a,,,
,,,,,40868,2021-04-22_18h23.18.969,judgeSpeechMusic_20210407_logNormShiftAmp,2020.1.2,Win32,60,,,,,,,,,,,,,,,,,,,,,,,,,,1,6.171365,,0,1,56,206,73,1,stimuli/stim_20210407_power2amp/equal_lnn_AM3Hz_42.m4a,,,
,,,,,40868,2021-04-22_18h23.18.969,judgeSpeechMusic_20210407_logNormShiftAmp,2020.1.2,Win32,60,,,,,,,,,,,,,,,,,,,,,,,,,,1,5.696435,,0,1,57,207,34,1,stimuli/stim_20210407_power2amp/equal_lnn_AM1.8Hz_23.m4a,,,
,,,,,40868,2021-04-22_18h23.18.969,judgeSpeechMusic_20210407_logNormShiftAmp,2020.1.2,Win32,60,,,,,,,,,,,,,,,,,,,,,,,,,,2,5.679175,,0,1,58,208,77,1,stimuli/stim_20210407_power2amp/equal_lnn_AM3.6Hz_93.m4a,,,
,,,,,40868,2021-04-22_18h23.18.969,judgeSpeechMusic_20210407_logNormShiftAmp,2020.1.2,Win32,60,,,,,,,,,,,,,,,,,,,,,,,,,,2,5.634585,,0,1,59,209,80,1,stimuli/stim_20210407_power2amp/equal_lnn_AM3.6Hz_70.m4a,,,
,,,,,40868,2021-04-22_18h23.18.969,judgeSpeechMusic_20210407_logNormShiftAmp,2020.1.2,Win32,60,,,,,,,,,,,,,,,,,,,,,,,,,,2,5.66352,,0,1,60,210,106,1,stimuli/stim_20210407_power2amp/equal_lnn_AM4.8Hz_4.m4a,,,
,,,,,40868,2021-04-22_18h23.18.969,judgeSpeechMusic_20210407_logNormShiftAmp,2020.1.2,Win32,60,,,,,,,,,,,,,,,,,,,,,,,,,,2,5.62148,,0,1,61,211,65,1,stimuli/stim_20210407_power2amp/equal_lnn_AM3Hz_75.m4a,,,
,,,,,40868,2021-04-22_18h23.18.969,judgeSpeechMusic_20210407_logNormShiftAmp,2020.1.2,Win32,60,,,,,,,,,,,,,,,,,,,,,,,,,,2,5.621785,,0,1,62,212,111,1,stimuli/stim_20210407_power2amp/equal_lnn_AM4.8Hz_42.m4a,,,
,,,,,40868,2021-04-22_18h23.18.969,judgeSpeechMusic_20210407_logNormShiftAmp,2020.1.2,Win32,60,,,,,,,,,,,,,,,,,,,,,,,,,,2,5.71055,,0,1,63,213,100,1,stimuli/stim_20210407_power2amp/equal_lnn_AM4.2Hz_91.m4a,,,
,,,,,40868,2021-04-22_18h23.18.969,judgeSpeechMusic_20210407_logNormShiftAmp,2020.1.2,Win32,60,,,,,,,,,,,,,,,,,,,,,,,,,,2,5.87228,3,1,1,64,214,52,1,stimuli/stim_20210407_power2amp/equal_lnn_AM2.4Hz_85.m4a,1.526315,,
,,,,,40868,2021-04-22_18h23.18.969,judgeSpeechMusic_20210407_logNormShiftAmp,2020.1.2,Win32,60,,,,,,,,,,,,,,,,,,,,,,,,,,2,5.676365,,0,1,65,215,107,1,stimuli/stim_20210407_power2amp/equal_lnn_AM4.8Hz_18.m4a,,,
,,,,,40868,2021-04-22_18h23.18.969,judgeSpeechMusic_20210407_logNormShiftAmp,2020.1.2,Win32,60,,,,,,,,,,,,,,,,,,,,,,,,,,2,5.64051,,0,1,66,216,91,1,stimuli/stim_20210407_power2amp/equal_lnn_AM4.2Hz_20.m4a,,,
,,,,,40868,2021-04-22_18h23.18.969,judgeSpeechMusic_20210407_logNormShiftAmp,2020.1.2,Win32,60,,,,,,,,,,,,,,,,,,,,,,,,,,1,5.692065,,0,1,67,217,7,1,stimuli/stim_20210407_power2amp/equal_lnn_AM0.6Hz_3.m4a,,,
,,,,,40868,2021-04-22_18h23.18.969,judgeSpeechMusic_20210407_logNormShiftAmp,2020.1.2,Win32,60,,,,,,,,,,,,,,,,,,,,,,,,,,2,6.08643,,0,1,68,218,82,1,stimuli/stim_20210407_power2amp/equal_lnn_AM3.6Hz_97.m4a,,,
,,,,,40868,2021-04-22_18h23.18.969,judgeSpeechMusic_20210407_logNormShiftAmp,2020.1.2,Win32,60,,,,,,,,,,,,,,,,,,,,,,,,,,1,5.809735,,0,1,69,219,12,1,stimuli/stim_20210407_power2amp/equal_lnn_AM0.6Hz_8.m4a,,,
,,,,,40868,2021-04-22_18h23.18.969,judgeSpeechMusic_20210407_logNormShiftAmp,2020.1.2,Win32,60,,,,,,,,,,,,,,,,,,,,,,,,,,1,6.10722,,0,1,70,220,24,1,stimuli/stim_20210407_power2amp/equal_lnn_AM1.2Hz_16.m4a,,,
,,,,,40868,2021-04-22_18h23.18.969,judgeSpeechMusic_20210407_logNormShiftAmp,2020.1.2,Win32,60,,,,,,,,,,,,,,,,,,,,,,,,,,2,5.679275,,0,1,71,221,71,1,stimuli/stim_20210407_power2amp/equal_lnn_AM3Hz_35.m4a,,,
,,,,,40868,2021-04-22_18h23.18.969,judgeSpeechMusic_20210407_logNormShiftAmp,2020.1.2,Win32,60,,,,,,,,,,,,,,,,,,,,,,,,,,2,5.77219,,0,1,72,222,59,1,stimuli/stim_20210407_power2amp/equal_lnn_AM2.4Hz_56.m4a,,,
,,,,,40868,2021-04-22_18h23.18.969,judgeSpeechMusic_20210407_logNormShiftAmp,2020.1.2,Win32,60,,,,,,,,,,,,,,,,,,,,,,,,,,2,5.661415,,0,1,73,223,79,1,stimuli/stim_20210407_power2amp/equal_lnn_AM3.6Hz_77.m4a,,,
,,,,,40868,2021-04-22_18h23.18.969,judgeSpeechMusic_20210407_logNormShiftAmp,2020.1.2,Win32,60,,,,,,,,,,,,,,,,,,,,,,,,,,2,5.65582,,0,1,74,224,94,1,stimuli/stim_20210407_power2amp/equal_lnn_AM4.2Hz_11.m4a,,,
,,,,,40868,2021-04-22_18h23.18.969,judgeSpeechMusic_20210407_logNormShiftAmp,2020.1.2,Win32,60,,,,,,,,,,,,,,,,,,,,,,,,,,2,6.38035,,0,1,75,225,148,1,stimuli/stim_20210407_power2amp/equal_lnn_AM6Hz_77.m4a,,,
,,,,,40868,2021-04-22_18h23.18.969,judgeSpeechMusic_20210407_logNormShiftAmp,2020.1.2,Win32,60,,,,,,,,,,,,,,,,,,,,,,,,,,2,7.22173,,0,1,76,226,63,1,stimuli/stim_20210407_power2amp/equal_lnn_AM3Hz_46.m4a,,,
,,,,,40868,2021-04-22_18h23.18.969,judgeSpeechMusic_20210407_logNormShiftAmp,2020.1.2,Win32,60,,,,,,,,,,,,,,,,,,,,,,,,,,1,5.94599,,0,1,77,227,4,1,stimuli/stim_20210407_power2amp/equal_lnn_AM0.6Hz_18.m4a,,,
,,,,,40868,2021-04-22_18h23.18.969,judgeSpeechMusic_20210407_logNormShiftAmp,2020.1.2,Win32,60,,,,,,,,,,,,,,,,,,,,,,,,,,2,5.738895,,0,1,78,228,99,1,stimuli/stim_20210407_power2amp/equal_lnn_AM4.2Hz_28.m4a,,,
,,,,,40868,2021-04-22_18h23.18.969,judgeSpeechMusic_20210407_logNormShiftAmp,2020.1.2,Win32,60,,,,,,,,,,,,,,,,,,,,,,,,,,2,5.694655,,0,1,79,229,132,1,stimuli/stim_20210407_power2amp/equal_lnn_AM5.4Hz_4.m4a,,,
,,,,,40868,2021-04-22_18h23.18.969,judgeSpeechMusic_20210407_logNormShiftAmp,2020.1.2,Win32,60,,,,,,,,,,,,,,,,,,,,,,,,,,1,5.742645,,0,1,80,230,35,1,stimuli/stim_20210407_power2amp/equal_lnn_AM1.8Hz_70.m4a,,,
,,,,,40868,2021-04-22_18h23.18.969,judgeSpeechMusic_20210407_logNormShiftAmp,2020.1.2,Win32,60,,,,,,,,,,,,,,,,,,,,,,,,,,1,5.638985,,0,1,81,231,0,1,stimuli/stim_20210407_power2amp/equal_lnn_AM0.6Hz_96.m4a,,,
,,,,,40868,2021-04-22_18h23.18.969,judgeSpeechMusic_20210407_logNormShiftAmp,2020.1.2,Win32,60,,,,,,,,,,,,,,,,,,,,,,,,,,1,5.52538,,0,1,82,232,29,1,stimuli/stim_20210407_power2amp/equal_lnn_AM1.2Hz_92.m4a,,,
,,,,,40868,2021-04-22_18h23.18.969,judgeSpeechMusic_20210407_logNormShiftAmp,2020.1.2,Win32,60,,,,,,,,,,,,,,,,,,,,,,,,,,2,5.661675,,0,1,83,233,112,1,stimuli/stim_20210407_power2amp/equal_lnn_AM4.8Hz_33.m4a,,,
,,,,,40868,2021-04-22_18h23.18.969,judgeSpeechMusic_20210407_logNormShiftAmp,2020.1.2,Win32,60,,,,,,,,,,,,,,,,,,,,,,,,,,2,5.60564,,0,1,84,234,127,1,stimuli/stim_20210407_power2amp/equal_lnn_AM5.4Hz_40.m4a,,,
,,,,,40868,2021-04-22_18h23.18.969,judgeSpeechMusic_20210407_logNormShiftAmp,2020.1.2,Win32,60,,,,,,,,,,,,,,,,,,,,,,,,,,2,5.555325,,0,1,85,235,134,1,stimuli/stim_20210407_power2amp/equal_lnn_AM5.4Hz_68.m4a,,,
,,,,,40868,2021-04-22_18h23.18.969,judgeSpeechMusic_20210407_logNormShiftAmp,2020.1.2,Win32,60,,,,,,,,,,,,,,,,,,,,,,,,,,2,5.63895,,0,1,86,236,103,1,stimuli/stim_20210407_power2amp/equal_lnn_AM4.2Hz_2.m4a,,,
,,,,,40868,2021-04-22_18h23.18.969,judgeSpeechMusic_20210407_logNormShiftAmp,2020.1.2,Win32,60,,,,,,,,,,,,,,,,,,,,,,,,,,1,6.455865,,0,1,87,237,43,1,stimuli/stim_20210407_power2amp/equal_lnn_AM1.8Hz_78.m4a,,,
,,,,,40868,2021-04-22_18h23.18.969,judgeSpeechMusic_20210407_logNormShiftAmp,2020.1.2,Win32,60,,,,,,,,,,,,,,,,,,,,,,,,,,2,5.93874,,0,1,88,238,122,1,stimuli/stim_20210407_power2amp/equal_lnn_AM5.4Hz_16.m4a,,,
,,,,,40868,2021-04-22_18h23.18.969,judgeSpeechMusic_20210407_logNormShiftAmp,2020.1.2,Win32,60,,,,,,,,,,,,,,,,,,,,,,,,,,1,7.964225,1,1,1,89,239,69,1,stimuli/stim_20210407_power2amp/equal_lnn_AM3Hz_57.m4a,1.376735,,
,,,,,40868,2021-04-22_18h23.18.969,judgeSpeechMusic_20210407_logNormShiftAmp,2020.1.2,Win32,60,,,,,,,,,,,,,,,,,,,,,,,,,,1,5.7888,,0,1,90,240,48,1,stimuli/stim_20210407_power2amp/equal_lnn_AM2.4Hz_72.m4a,,,
,,,,,40868,2021-04-22_18h23.18.969,judgeSpeechMusic_20210407_logNormShiftAmp,2020.1.2,Win32,60,,,,,,,,,,,,,,,,,,,,,,,,,,1,5.672495,,0,1,91,241,14,1,stimuli/stim_20210407_power2amp/equal_lnn_AM0.6Hz_99.m4a,,,
,,,,,40868,2021-04-22_18h23.18.969,judgeSpeechMusic_20210407_logNormShiftAmp,2020.1.2,Win32,60,,,,,,,,,,,,,,,,,,,,,,,,,,2,5.88902,,0,1,92,242,37,1,stimuli/stim_20210407_power2amp/equal_lnn_AM1.8Hz_1.m4a,,,
,,,,,40868,2021-04-22_18h23.18.969,judgeSpeechMusic_20210407_logNormShiftAmp,2020.1.2,Win32,60,,,,,,,,,,,,,,,,,,,,,,,,,,2,5.63086,,0,1,93,243,121,1,stimuli/stim_20210407_power2amp/equal_lnn_AM5.4Hz_69.m4a,,,
,,,,,40868,2021-04-22_18h23.18.969,judgeSpeechMusic_20210407_logNormShiftAmp,2020.1.2,Win32,60,,,,,,,,,,,,,,,,,,,,,,,,,,2,5.78906,,0,1,94,244,142,1,stimuli/stim_20210407_power2amp/equal_lnn_AM6Hz_88.m4a,,,
,,,,,40868,2021-04-22_18h23.18.969,judgeSpeechMusic_20210407_logNormShiftAmp,2020.1.2,Win32,60,,,,,,,,,,,,,,,,,,,,,,,,,,2,5.719685,,0,1,95,245,95,1,stimuli/stim_20210407_power2amp/equal_lnn_AM4.2Hz_86.m4a,,,
,,,,,40868,2021-04-22_18h23.18.969,judgeSpeechMusic_20210407_logNormShiftAmp,2020.1.2,Win32,60,,,,,,,,,,,,,,,,,,,,,,,,,,1,5.74682,,0,1,96,246,6,1,stimuli/stim_20210407_power2amp/equal_lnn_AM0.6Hz_43.m4a,,,
,,,,,40868,2021-04-22_18h23.18.969,judgeSpeechMusic_20210407_logNormShiftAmp,2020.1.2,Win32,60,,,,,,,,,,,,,,,,,,,,,,,,,,1,5.58948,,0,1,97,247,57,1,stimuli/stim_20210407_power2amp/equal_lnn_AM2.4Hz_6.m4a,,,
,,,,,40868,2021-04-22_18h23.18.969,judgeSpeechMusic_20210407_logNormShiftAmp,2020.1.2,Win32,60,,,,,,,,,,,,,,,,,,,,,,,,,,1,5.604485,,0,1,98,248,41,1,stimuli/stim_20210407_power2amp/equal_lnn_AM1.8Hz_74.m4a,,,
,,,,,40868,2021-04-22_18h23.18.969,judgeSpeechMusic_20210407_logNormShiftAmp,2020.1.2,Win32,60,,,,,,,,,,,,,,,,,,,,,,,,,,2,6.08881,,0,1,99,249,126,1,stimuli/stim_20210407_power2amp/equal_lnn_AM5.4Hz_24.m4a,,,
,,,,,40868,2021-04-22_18h23.18.969,judgeSpeechMusic_20210407_logNormShiftAmp,2020.1.2,Win32,60,,,,,,,,,,,,,,,,,,,,,,,,,,1,5.643875,,0,1,100,250,18,1,stimuli/stim_20210407_power2amp/equal_lnn_AM1.2Hz_5.m4a,,,
,,,,,40868,2021-04-22_18h23.18.969,judgeSpeechMusic_20210407_logNormShiftAmp,2020.1.2,Win32,60,,,,,,,,,,,,,,,,,,,,,,,,,,1,5.622585,,0,1,101,251,33,1,stimuli/stim_20210407_power2amp/equal_lnn_AM1.8Hz_39.m4a,,,
,,,,,40868,2021-04-22_18h23.18.969,judgeSpeechMusic_20210407_logNormShiftAmp,2020.1.2,Win32,60,,,,,,,,,,,,,,,,,,,,,,,,,,1,5.580755,,0,1,102,252,10,1,stimuli/stim_20210407_power2amp/equal_lnn_AM0.6Hz_87.m4a,,,
,,,,,40868,2021-04-22_18h23.18.969,judgeSpeechMusic_20210407_logNormShiftAmp,2020.1.2,Win32,60,,,,,,,,,,,,,,,,,,,,,,,,,,2,6.355635,,0,1,103,253,143,1,stimuli/stim_20210407_power2amp/equal_lnn_AM6Hz_23.m4a,,,
,,,,,40868,2021-04-22_18h23.18.969,judgeSpeechMusic_20210407_logNormShiftAmp,2020.1.2,Win32,60,,,,,,,,,,,,,,,,,,,,,,,,,,2,5.687745,,0,1,104,254,138,1,stimuli/stim_20210407_power2amp/equal_lnn_AM6Hz_99.m4a,,,
,,,,,40868,2021-04-22_18h23.18.969,judgeSpeechMusic_20210407_logNormShiftAmp,2020.1.2,Win32,60,,,,,,,,,,,,,,,,,,,,,,,,,,2,6.502895,,0,1,105,255,31,1,stimuli/stim_20210407_power2amp/equal_lnn_AM1.8Hz_42.m4a,,,
,,,,,40868,2021-04-22_18h23.18.969,judgeSpeechMusic_20210407_logNormShiftAmp,2020.1.2,Win32,60,,,,,,,,,,,,,,,,,,,,,,,,,,2,5.67467,,0,1,106,256,89,1,stimuli/stim_20210407_power2amp/equal_lnn_AM3.6Hz_78.m4a,,,
,,,,,40868,2021-04-22_18h23.18.969,judgeSpeechMusic_20210407_logNormShiftAmp,2020.1.2,Win32,60,,,,,,,,,,,,,,,,,,,,,,,,,,2,5.672685,,0,1,107,257,129,1,stimuli/stim_20210407_power2amp/equal_lnn_AM5.4Hz_56.m4a,,,
,,,,,40868,2021-04-22_18h23.18.969,judgeSpeechMusic_20210407_logNormShiftAmp,2020.1.2,Win32,60,,,,,,,,,,,,,,,,,,,,,,,,,,1,6.10805,,0,1,108,258,17,1,stimuli/stim_20210407_power2amp/equal_lnn_AM1.2Hz_32.m4a,,,
,,,,,40868,2021-04-22_18h23.18.969,judgeSpeechMusic_20210407_logNormShiftAmp,2020.1.2,Win32,60,,,,,,,,,,,,,,,,,,,,,,,,,,1,5.6418,,0,1,109,259,8,1,stimuli/stim_20210407_power2amp/equal_lnn_AM0.6Hz_51.m4a,,,
,,,,,40868,2021-04-22_18h23.18.969,judgeSpeechMusic_20210407_logNormShiftAmp,2020.1.2,Win32,60,,,,,,,,,,,,,,,,,,,,,,,,,,2,5.773395,,0,1,110,260,30,1,stimuli/stim_20210407_power2amp/equal_lnn_AM1.8Hz_63.m4a,,,
,,,,,40868,2021-04-22_18h23.18.969,judgeSpeechMusic_20210407_logNormShiftAmp,2020.1.2,Win32,60,,,,,,,,,,,,,,,,,,,,,,,,,,2,6.372475,,0,1,111,261,60,1,stimuli/stim_20210407_power2amp/equal_lnn_AM3Hz_69.m4a,,,
,,,,,40868,2021-04-22_18h23.18.969,judgeSpeechMusic_20210407_logNormShiftAmp,2020.1.2,Win32,60,,,,,,,,,,,,,,,,,,,,,,,,,,1,5.65923,2,1,1,112,262,9,1,stimuli/stim_20210407_power2amp/equal_lnn_AM0.6Hz_19.m4a,1.17564,,
,,,,,40868,2021-04-22_18h23.18.969,judgeSpeechMusic_20210407_logNormShiftAmp,2020.1.2,Win32,60,,,,,,,,,,,,,,,,,,,,,,,,,,2,5.84461,,0,1,113,263,118,1,stimuli/stim_20210407_power2amp/equal_lnn_AM4.8Hz_44.m4a,,,
,,,,,40868,2021-04-22_18h23.18.969,judgeSpeechMusic_20210407_logNormShiftAmp,2020.1.2,Win32,60,,,,,,,,,,,,,,,,,,,,,,,,,,1,5.67752,,0,1,114,264,39,1,stimuli/stim_20210407_power2amp/equal_lnn_AM1.8Hz_90.m4a,,,
,,,,,40868,2021-04-22_18h23.18.969,judgeSpeechMusic_20210407_logNormShiftAmp,2020.1.2,Win32,60,,,,,,,,,,,,,,,,,,,,,,,,,,2,5.688915,,0,1,115,265,147,1,stimuli/stim_20210407_power2amp/equal_lnn_AM6Hz_44.m4a,,,
,,,,,40868,2021-04-22_18h23.18.969,judgeSpeechMusic_20210407_logNormShiftAmp,2020.1.2,Win32,60,,,,,,,,,,,,,,,,,,,,,,,,,,2,6.05605,,0,1,116,266,90,1,stimuli/stim_20210407_power2amp/equal_lnn_AM4.2Hz_35.m4a,,,
,,,,,40868,2021-04-22_18h23.18.969,judgeSpeechMusic_20210407_logNormShiftAmp,2020.1.2,Win32,60,,,,,,,,,,,,,,,,,,,,,,,,,,1,6.13914,,0,1,117,267,66,1,stimuli/stim_20210407_power2amp/equal_lnn_AM3Hz_15.m4a,,,
,,,,,40868,2021-04-22_18h23.18.969,judgeSpeechMusic_20210407_logNormShiftAmp,2020.1.2,Win32,60,,,,,,,,,,,,,,,,,,,,,,,,,,2,5.67608,,0,1,118,268,123,1,stimuli/stim_20210407_power2amp/equal_lnn_AM5.4Hz_12.m4a,,,
,,,,,40868,2021-04-22_18h23.18.969,judgeSpeechMusic_20210407_logNormShiftAmp,2020.1.2,Win32,60,,,,,,,,,,,,,,,,,,,,,,,,,,1,6.146,,0,1,119,269,50,1,stimuli/stim_20210407_power2amp/equal_lnn_AM2.4Hz_65.m4a,,,
,,,,,40868,2021-04-22_18h23.18.969,judgeSpeechMusic_20210407_logNormShiftAmp,2020.1.2,Win32,60,,,,,,,,,,,,,,,,,,,,,,,,,,2,5.862095,,0,1,120,270,128,1,stimuli/stim_20210407_power2amp/equal_lnn_AM5.4Hz_82.m4a,,,
,,,,,40868,2021-04-22_18h23.18.969,judgeSpeechMusic_20210407_logNormShiftAmp,2020.1.2,Win32,60,,,,,,,,,,,,,,,,,,,,,,,,,,1,5.85612,,0,1,121,271,2,1,stimuli/stim_20210407_power2amp/equal_lnn_AM0.6Hz_1.m4a,,,
,,,,,40868,2021-04-22_18h23.18.969,judgeSpeechMusic_20210407_logNormShiftAmp,2020.1.2,Win32,60,,,,,,,,,,,,,,,,,,,,,,,,,,2,5.65734,,0,1,122,272,141,1,stimuli/stim_20210407_power2amp/equal_lnn_AM6Hz_60.m4a,,,
,,,,,40868,2021-04-22_18h23.18.969,judgeSpeechMusic_20210407_logNormShiftAmp,2020.1.2,Win32,60,,,,,,,,,,,,,,,,,,,,,,,,,,2,5.68991,,0,1,123,273,76,1,stimuli/stim_20210407_power2amp/equal_lnn_AM3.6Hz_53.m4a,,,
,,,,,40868,2021-04-22_18h23.18.969,judgeSpeechMusic_20210407_logNormShiftAmp,2020.1.2,Win32,60,,,,,,,,,,,,,,,,,,,,,,,,,,1,5.92261,,0,1,124,274,72,1,stimuli/stim_20210407_power2amp/equal_lnn_AM3Hz_33.m4a,,,
,,,,,40868,2021-04-22_18h23.18.969,judgeSpeechMusic_20210407_logNormShiftAmp,2020.1.2,Win32,60,,,,,,,,,,,,,,,,,,,,,,,,,,2,6.291335,,0,1,125,275,81,1,stimuli/stim_20210407_power2amp/equal_lnn_AM3.6Hz_71.m4a,,,
,,,,,40868,2021-04-22_18h23.18.969,judgeSpeechMusic_20210407_logNormShiftAmp,2020.1.2,Win32,60,,,,,,,,,,,,,,,,,,,,,,,,,,1,6.17931,,0,1,126,276,25,1,stimuli/stim_20210407_power2amp/equal_lnn_AM1.2Hz_78.m4a,,,
,,,,,40868,2021-04-22_18h23.18.969,judgeSpeechMusic_20210407_logNormShiftAmp,2020.1.2,Win32,60,,,,,,,,,,,,,,,,,,,,,,,,,,2,9.039545,,0,1,127,277,145,1,stimuli/stim_20210407_power2amp/equal_lnn_AM6Hz_40.m4a,,,
,,,,,40868,2021-04-22_18h23.18.969,judgeSpeechMusic_20210407_logNormShiftAmp,2020.1.2,Win32,60,,,,,,,,,,,,,,,,,,,,,,,,,,2,8.48794,,0,1,128,278,62,1,stimuli/stim_20210407_power2amp/equal_lnn_AM3Hz_3.m4a,,,
,,,,,40868,2021-04-22_18h23.18.969,judgeSpeechMusic_20210407_logNormShiftAmp,2020.1.2,Win32,60,,,,,,,,,,,,,,,,,,,,,,,,,,2,5.897685,,0,1,129,279,70,1,stimuli/stim_20210407_power2amp/equal_lnn_AM3Hz_51.m4a,,,
,,,,,40868,2021-04-22_18h23.18.969,judgeSpeechMusic_20210407_logNormShiftAmp,2020.1.2,Win32,60,,,,,,,,,,,,,,,,,,,,,,,,,,2,8.941545,,0,1,130,280,119,1,stimuli/stim_20210407_power2amp/equal_lnn_AM4.8Hz_58.m4a,,,
,,,,,40868,2021-04-22_18h23.18.969,judgeSpeechMusic_20210407_logNormShiftAmp,2020.1.2,Win32,60,,,,,,,,,,,,,,,,,,,,,,,,,,2,17.80845,,0,1,131,281,146,1,stimuli/stim_20210407_power2amp/equal_lnn_AM6Hz_13.m4a,,,
,,,,,40868,2021-04-22_18h23.18.969,judgeSpeechMusic_20210407_logNormShiftAmp,2020.1.2,Win32,60,,,,,,,,,,,,,,,,,,,,,,,,,,1,5.70554,,0,1,132,282,46,1,stimuli/stim_20210407_power2amp/equal_lnn_AM2.4Hz_80.m4a,,,
,,,,,40868,2021-04-22_18h23.18.969,judgeSpeechMusic_20210407_logNormShiftAmp,2020.1.2,Win32,60,,,,,,,,,,,,,,,,,,,,,,,,,,1,5.553755,,0,1,133,283,21,1,stimuli/stim_20210407_power2amp/equal_lnn_AM1.2Hz_45.m4a,,,
,,,,,40868,2021-04-22_18h23.18.969,judgeSpeechMusic_20210407_logNormShiftAmp,2020.1.2,Win32,60,,,,,,,,,,,,,,,,,,,,,,,,,,2,8.769625,,0,1,134,284,137,1,stimuli/stim_20210407_power2amp/equal_lnn_AM6Hz_94.m4a,,,
,,,,,40868,2021-04-22_18h23.18.969,judgeSpeechMusic_20210407_logNormShiftAmp,2020.1.2,Win32,60,,,,,,,,,,,,,,,,,,,,,,,,,,2,5.65962,,0,1,135,285,58,1,stimuli/stim_20210407_power2amp/equal_lnn_AM2.4Hz_17.m4a,,,
,,,,,40868,2021-04-22_18h23.18.969,judgeSpeechMusic_20210407_logNormShiftAmp,2020.1.2,Win32,60,,,,,,,,,,,,,,,,,,,,,,,,,,1,6.138785,,0,1,136,286,1,1,stimuli/stim_20210407_power2amp/equal_lnn_AM0.6Hz_66.m4a,,,
,,,,,40868,2021-04-22_18h23.18.969,judgeSpeechMusic_20210407_logNormShiftAmp,2020.1.2,Win32,60,,,,,,,,,,,,,,,,,,,,,,,,,,2,6.16231,3,1,1,137,287,117,1,stimuli/stim_20210407_power2amp/equal_lnn_AM4.8Hz_53.m4a,1.30571,,
,,,,,40868,2021-04-22_18h23.18.969,judgeSpeechMusic_20210407_logNormShiftAmp,2020.1.2,Win32,60,,,,,,,,,,,,,,,,,,,,,,,,,,2,5.9722,,0,1,138,288,120,1,stimuli/stim_20210407_power2amp/equal_lnn_AM5.4Hz_36.m4a,,,
,,,,,40868,2021-04-22_18h23.18.969,judgeSpeechMusic_20210407_logNormShiftAmp,2020.1.2,Win32,60,,,,,,,,,,,,,,,,,,,,,,,,,,2,5.80938,,0,1,139,289,78,1,stimuli/stim_20210407_power2amp/equal_lnn_AM3.6Hz_83.m4a,,,
,,,,,40868,2021-04-22_18h23.18.969,judgeSpeechMusic_20210407_logNormShiftAmp,2020.1.2,Win32,60,,,,,,,,,,,,,,,,,,,,,,,,,,2,6.205525,,0,1,140,290,56,1,stimuli/stim_20210407_power2amp/equal_lnn_AM2.4Hz_37.m4a,,,
,,,,,40868,2021-04-22_18h23.18.969,judgeSpeechMusic_20210407_logNormShiftAmp,2020.1.2,Win32,60,,,,,,,,,,,,,,,,,,,,,,,,,,1,6.85973,,0,1,141,291,98,1,stimuli/stim_20210407_power2amp/equal_lnn_AM4.2Hz_46.m4a,,,
,,,,,40868,2021-04-22_18h23.18.969,judgeSpeechMusic_20210407_logNormShiftAmp,2020.1.2,Win32,60,,,,,,,,,,,,,,,,,,,,,,,,,,2,7.90612,,0,1,142,292,101,1,stimuli/stim_20210407_power2amp/equal_lnn_AM4.2Hz_87.m4a,,,
,,,,,40868,2021-04-22_18h23.18.969,judgeSpeechMusic_20210407_logNormShiftAmp,2020.1.2,Win32,60,,,,,,,,,,,,,,,,,,,,,,,,,,2,9.1058,,0,1,143,293,83,1,stimuli/stim_20210407_power2amp/equal_lnn_AM3.6Hz_16.m4a,,,
,,,,,40868,2021-04-22_18h23.18.969,judgeSpeechMusic_20210407_logNormShiftAmp,2020.1.2,Win32,60,,,,,,,,,,,,,,,,,,,,,,,,,,2,6.75566,,0,1,144,294,108,1,stimuli/stim_20210407_power2amp/equal_lnn_AM4.8Hz_35.m4a,,,
,,,,,40868,2021-04-22_18h23.18.969,judgeSpeechMusic_20210407_logNormShiftAmp,2020.1.2,Win32,60,,,,,,,,,,,,,,,,,,,,,,,,,,1,6.072005,,0,1,145,295,16,1,stimuli/stim_20210407_power2amp/equal_lnn_AM1.2Hz_46.m4a,,,
,,,,,40868,2021-04-22_18h23.18.969,judgeSpeechMusic_20210407_logNormShiftAmp,2020.1.2,Win32,60,,,,,,,,,,,,,,,,,,,,,,,,,,2,7.828125,,0,1,146,296,131,1,stimuli/stim_20210407_power2amp/equal_lnn_AM5.4Hz_38.m4a,,,
,,,,,40868,2021-04-22_18h23.18.969,judgeSpeechMusic_20210407_logNormShiftAmp,2020.1.2,Win32,60,,,,,,,,,,,,,,,,,,,,,,,,,,2,8.94169,,0,1,147,297,88,1,stimuli/stim_20210407_power2amp/equal_lnn_AM3.6Hz_79.m4a,,,
,,,,,40868,2021-04-22_18h23.18.969,judgeSpeechMusic_20210407_logNormShiftAmp,2020.1.2,Win32,60,,,,,,,,,,,,,,,,,,,,,,,,,,2,6.18956,,0,1,148,298,114,1,stimuli/stim_20210407_power2amp/equal_lnn_AM4.8Hz_62.m4a,,,
,,,,,40868,2021-04-22_18h23.18.969,judgeSpeechMusic_20210407_logNormShiftAmp,2020.1.2,Win32,60,,,,,,,,,,,,,,,,,,,,,,,,,,2,7.204305,,0,1,149,299,47,1,stimuli/stim_20210407_power2amp/equal_lnn_AM2.4Hz_16.m4a,,,
,,,,,40868,2021-04-22_18h23.18.969,judgeSpeechMusic_20210407_logNormShiftAmp,2020.1.2,Win32,60,,,,,,,,,,,,,,,,,,,,,,,,,,,,,,,,,,,,,space,10.530455
