headphoneResponse.keys,headphoneResponse.corr,headphoneResponse.rt,headphoneTrial.thisRepN,headphoneTrial.thisTrialN,headphoneTrial.thisN,headphoneTrial.thisIndex,headphoneTrial.ran,headphone_sound1,headphone_sound2,headphone_sound3,corrAns,participant,date,expName,psychopyVersion,OS,frameRate,trainSlider.response,trainSlider.rt,beepTrainResponse.keys,beepTrainResponse.corr,trainingTrials.thisRepN,trainingTrials.thisTrialN,trainingTrials.thisN,trainingTrials.thisIndex,trainingTrials.ran,trainAudioFile,beepTrainResponse.rt,readyReal_resp.keys,readyReal_resp.rt,ratingSlider.response,ratingSlider.rt,beepResp.keys,beepResp.corr,expTrials.thisRepN,expTrials.thisTrialN,expTrials.thisN,expTrials.thisIndex,expTrials.ran,audioFile,beepResp.rt,end_resp.keys,end_resp.rt
3,1,1.09517,0,0,0,0,1,stimuli/screen_antiphase.wav,stimuli/screen_origin.wav,stimuli/screen_quiet.wav,3,40919,2021-05-10_18h22.01.542,judgeSpeechMusic_20210407_logNormShiftAmp,2020.1.2,MacIntel,60,,,,,,,,,,,,,,,,,,,,,,,,,,
3,1,1.100585,0,1,1,2,1,stimuli/screen_origin.wav,stimuli/screen_antiphase.wav,stimuli/screen_quiet.wav,3,40919,2021-05-10_18h22.01.542,judgeSpeechMusic_20210407_logNormShiftAmp,2020.1.2,MacIntel,60,,,,,,,,,,,,,,,,,,,,,,,,,,
2,1,0.53504,0,2,2,3,1,stimuli/screen_origin.wav,stimuli/screen_quiet.wav,stimuli/screen_antiphase.wav,2,40919,2021-05-10_18h22.01.542,judgeSpeechMusic_20210407_logNormShiftAmp,2020.1.2,MacIntel,60,,,,,,,,,,,,,,,,,,,,,,,,,,
1,1,1.316875,0,3,3,5,1,stimuli/screen_quiet.wav,stimuli/screen_origin.wav,stimuli/screen_antiphase.wav,1,40919,2021-05-10_18h22.01.542,judgeSpeechMusic_20210407_logNormShiftAmp,2020.1.2,MacIntel,60,,,,,,,,,,,,,,,,,,,,,,,,,,
2,1,0.58333,0,4,4,1,1,stimuli/screen_antiphase.wav,stimuli/screen_quiet.wav,stimuli/screen_origin.wav,2,40919,2021-05-10_18h22.01.542,judgeSpeechMusic_20210407_logNormShiftAmp,2020.1.2,MacIntel,60,,,,,,,,,,,,,,,,,,,,,,,,,,
1,1,0.50146,0,5,5,4,1,stimuli/screen_quiet.wav,stimuli/screen_antiphase.wav,stimuli/screen_origin.wav,1,40919,2021-05-10_18h22.01.542,judgeSpeechMusic_20210407_logNormShiftAmp,2020.1.2,MacIntel,60,,,,,,,,,,,,,,,,,,,,,,,,,,
,,,,,,,,,,,,40919,2021-05-10_18h22.01.542,judgeSpeechMusic_20210407_logNormShiftAmp,2020.1.2,MacIntel,60,2,14.172415,,0,0,0,0,3,1,stimuli/stim_20210407_power2amp/equal_lnn_AM_training5.1Hz.m4a,,,,,,,,,,,,,,,,
,,,,,,,,,,,,40919,2021-05-10_18h22.01.542,judgeSpeechMusic_20210407_logNormShiftAmp,2020.1.2,MacIntel,60,2,8.22179,,0,0,1,1,1,1,stimuli/stim_20210407_power2amp/equal_lnn_AM_training2.7Hz.m4a,,,,,,,,,,,,,,,,
,,,,,,,,,,,,40919,2021-05-10_18h22.01.542,judgeSpeechMusic_20210407_logNormShiftAmp,2020.1.2,MacIntel,60,2,8.736375,3,1,0,2,2,0,1,stimuli/stim_20210407_power2amp/equal_lnn_AM_training1.5Hz.m4a,2.854915,,,,,,,,,,,,,,,
,,,,,,,,,,,,40919,2021-05-10_18h22.01.542,judgeSpeechMusic_20210407_logNormShiftAmp,2020.1.2,MacIntel,60,2,5.970455,,0,0,3,3,2,1,stimuli/stim_20210407_power2amp/equal_lnn_AM_training3.9Hz.m4a,,,,,,,,,,,,,,,,
,,,,,,,,,,,,40919,2021-05-10_18h22.01.542,judgeSpeechMusic_20210407_logNormShiftAmp,2020.1.2,MacIntel,60,,,,,,,,,,,,space,3.748705,2,6.292295,,0,0,0,0,42,1,stimuli/stim_20210407_power2amp/equal_lnn_AM1.8Hz_36.m4a,,,
,,,,,,,,,,,,40919,2021-05-10_18h22.01.542,judgeSpeechMusic_20210407_logNormShiftAmp,2020.1.2,MacIntel,60,,,,,,,,,,,,,,1,7.35875,,0,0,1,1,4,1,stimuli/stim_20210407_power2amp/equal_lnn_AM0.6Hz_48.m4a,,,
,,,,,,,,,,,,40919,2021-05-10_18h22.01.542,judgeSpeechMusic_20210407_logNormShiftAmp,2020.1.2,MacIntel,60,,,,,,,,,,,,,,2,5.870335,,0,0,2,2,103,1,stimuli/stim_20210407_power2amp/equal_lnn_AM4.2Hz_94.m4a,,,
,,,,,,,,,,,,40919,2021-05-10_18h22.01.542,judgeSpeechMusic_20210407_logNormShiftAmp,2020.1.2,MacIntel,60,,,,,,,,,,,,,,2,6.06133,,0,0,3,3,72,1,stimuli/stim_20210407_power2amp/equal_lnn_AM3Hz_73.m4a,,,
,,,,,,,,,,,,40919,2021-05-10_18h22.01.542,judgeSpeechMusic_20210407_logNormShiftAmp,2020.1.2,MacIntel,60,,,,,,,,,,,,,,2,6.321495,,0,0,4,4,37,1,stimuli/stim_20210407_power2amp/equal_lnn_AM1.8Hz_25.m4a,,,
,,,,,,,,,,,,40919,2021-05-10_18h22.01.542,judgeSpeechMusic_20210407_logNormShiftAmp,2020.1.2,MacIntel,60,,,,,,,,,,,,,,1,6.355955,,0,0,5,5,28,1,stimuli/stim_20210407_power2amp/equal_lnn_AM1.2Hz_58.m4a,,,
,,,,,,,,,,,,40919,2021-05-10_18h22.01.542,judgeSpeechMusic_20210407_logNormShiftAmp,2020.1.2,MacIntel,60,,,,,,,,,,,,,,2,6.099125,,0,0,6,6,147,1,stimuli/stim_20210407_power2amp/equal_lnn_AM6Hz_19.m4a,,,
,,,,,,,,,,,,40919,2021-05-10_18h22.01.542,judgeSpeechMusic_20210407_logNormShiftAmp,2020.1.2,MacIntel,60,,,,,,,,,,,,,,2,5.67162,,0,0,7,7,130,1,stimuli/stim_20210407_power2amp/equal_lnn_AM5.4Hz_60.m4a,,,
,,,,,,,,,,,,40919,2021-05-10_18h22.01.542,judgeSpeechMusic_20210407_logNormShiftAmp,2020.1.2,MacIntel,60,,,,,,,,,,,,,,2,5.637915,,0,0,8,8,126,1,stimuli/stim_20210407_power2amp/equal_lnn_AM5.4Hz_99.m4a,,,
,,,,,,,,,,,,40919,2021-05-10_18h22.01.542,judgeSpeechMusic_20210407_logNormShiftAmp,2020.1.2,MacIntel,60,,,,,,,,,,,,,,2,6.009965,,0,0,9,9,100,1,stimuli/stim_20210407_power2amp/equal_lnn_AM4.2Hz_1.m4a,,,
,,,,,,,,,,,,40919,2021-05-10_18h22.01.542,judgeSpeechMusic_20210407_logNormShiftAmp,2020.1.2,MacIntel,60,,,,,,,,,,,,,,2,5.91217,,0,0,10,10,108,1,stimuli/stim_20210407_power2amp/equal_lnn_AM4.8Hz_34.m4a,,,
,,,,,,,,,,,,40919,2021-05-10_18h22.01.542,judgeSpeechMusic_20210407_logNormShiftAmp,2020.1.2,MacIntel,60,,,,,,,,,,,,,,2,6.97204,,0,0,11,11,96,1,stimuli/stim_20210407_power2amp/equal_lnn_AM4.2Hz_51.m4a,,,
,,,,,,,,,,,,40919,2021-05-10_18h22.01.542,judgeSpeechMusic_20210407_logNormShiftAmp,2020.1.2,MacIntel,60,,,,,,,,,,,,,,2,5.725,,0,0,12,12,104,1,stimuli/stim_20210407_power2amp/equal_lnn_AM4.2Hz_100.m4a,,,
,,,,,,,,,,,,40919,2021-05-10_18h22.01.542,judgeSpeechMusic_20210407_logNormShiftAmp,2020.1.2,MacIntel,60,,,,,,,,,,,,,,2,5.661335,,0,0,13,13,106,1,stimuli/stim_20210407_power2amp/equal_lnn_AM4.8Hz_13.m4a,,,
,,,,,,,,,,,,40919,2021-05-10_18h22.01.542,judgeSpeechMusic_20210407_logNormShiftAmp,2020.1.2,MacIntel,60,,,,,,,,,,,,,,2,5.870125,,0,0,14,14,117,1,stimuli/stim_20210407_power2amp/equal_lnn_AM4.8Hz_47.m4a,,,
,,,,,,,,,,,,40919,2021-05-10_18h22.01.542,judgeSpeechMusic_20210407_logNormShiftAmp,2020.1.2,MacIntel,60,,,,,,,,,,,,,,2,6.036215,,0,0,15,15,57,1,stimuli/stim_20210407_power2amp/equal_lnn_AM2.4Hz_12.m4a,,,
,,,,,,,,,,,,40919,2021-05-10_18h22.01.542,judgeSpeechMusic_20210407_logNormShiftAmp,2020.1.2,MacIntel,60,,,,,,,,,,,,,,2,5.616545,,0,0,16,16,88,1,stimuli/stim_20210407_power2amp/equal_lnn_AM3.6Hz_15.m4a,,,
,,,,,,,,,,,,40919,2021-05-10_18h22.01.542,judgeSpeechMusic_20210407_logNormShiftAmp,2020.1.2,MacIntel,60,,,,,,,,,,,,,,2,5.652165,,0,0,17,17,149,1,stimuli/stim_20210407_power2amp/equal_lnn_AM6Hz_20.m4a,,,
,,,,,,,,,,,,40919,2021-05-10_18h22.01.542,judgeSpeechMusic_20210407_logNormShiftAmp,2020.1.2,MacIntel,60,,,,,,,,,,,,,,2,5.5985,,0,0,18,18,41,1,stimuli/stim_20210407_power2amp/equal_lnn_AM1.8Hz_3.m4a,,,
,,,,,,,,,,,,40919,2021-05-10_18h22.01.542,judgeSpeechMusic_20210407_logNormShiftAmp,2020.1.2,MacIntel,60,,,,,,,,,,,,,,2,5.636455,,0,0,19,19,125,1,stimuli/stim_20210407_power2amp/equal_lnn_AM5.4Hz_6.m4a,,,
,,,,,,,,,,,,40919,2021-05-10_18h22.01.542,judgeSpeechMusic_20210407_logNormShiftAmp,2020.1.2,MacIntel,60,,,,,,,,,,,,,,2,5.702545,,0,0,20,20,113,1,stimuli/stim_20210407_power2amp/equal_lnn_AM4.8Hz_46.m4a,,,
,,,,,,,,,,,,40919,2021-05-10_18h22.01.542,judgeSpeechMusic_20210407_logNormShiftAmp,2020.1.2,MacIntel,60,,,,,,,,,,,,,,2,5.627205,,0,0,21,21,31,1,stimuli/stim_20210407_power2amp/equal_lnn_AM1.8Hz_49.m4a,,,
,,,,,,,,,,,,40919,2021-05-10_18h22.01.542,judgeSpeechMusic_20210407_logNormShiftAmp,2020.1.2,MacIntel,60,,,,,,,,,,,,,,2,7.147255,,0,0,22,22,32,1,stimuli/stim_20210407_power2amp/equal_lnn_AM1.8Hz_47.m4a,,,
,,,,,,,,,,,,40919,2021-05-10_18h22.01.542,judgeSpeechMusic_20210407_logNormShiftAmp,2020.1.2,MacIntel,60,,,,,,,,,,,,,,2,5.602085,,0,0,23,23,110,1,stimuli/stim_20210407_power2amp/equal_lnn_AM4.8Hz_75.m4a,,,
,,,,,,,,,,,,40919,2021-05-10_18h22.01.542,judgeSpeechMusic_20210407_logNormShiftAmp,2020.1.2,MacIntel,60,,,,,,,,,,,,,,2,5.59025,,0,0,24,24,79,1,stimuli/stim_20210407_power2amp/equal_lnn_AM3.6Hz_8.m4a,,,
,,,,,,,,,,,,40919,2021-05-10_18h22.01.542,judgeSpeechMusic_20210407_logNormShiftAmp,2020.1.2,MacIntel,60,,,,,,,,,,,,,,2,6.03425,,0,0,25,25,16,1,stimuli/stim_20210407_power2amp/equal_lnn_AM1.2Hz_30.m4a,,,
,,,,,,,,,,,,40919,2021-05-10_18h22.01.542,judgeSpeechMusic_20210407_logNormShiftAmp,2020.1.2,MacIntel,60,,,,,,,,,,,,,,2,5.75121,,0,0,26,26,63,1,stimuli/stim_20210407_power2amp/equal_lnn_AM3Hz_19.m4a,,,
,,,,,,,,,,,,40919,2021-05-10_18h22.01.542,judgeSpeechMusic_20210407_logNormShiftAmp,2020.1.2,MacIntel,60,,,,,,,,,,,,,,1,6.552835,,0,0,27,27,12,1,stimuli/stim_20210407_power2amp/equal_lnn_AM0.6Hz_53.m4a,,,
,,,,,,,,,,,,40919,2021-05-10_18h22.01.542,judgeSpeechMusic_20210407_logNormShiftAmp,2020.1.2,MacIntel,60,,,,,,,,,,,,,,1,5.60779,,0,0,28,28,44,1,stimuli/stim_20210407_power2amp/equal_lnn_AM1.8Hz_78.m4a,,,
,,,,,,,,,,,,40919,2021-05-10_18h22.01.542,judgeSpeechMusic_20210407_logNormShiftAmp,2020.1.2,MacIntel,60,,,,,,,,,,,,,,1,5.632505,,0,0,29,29,85,1,stimuli/stim_20210407_power2amp/equal_lnn_AM3.6Hz_71.m4a,,,
,,,,,,,,,,,,40919,2021-05-10_18h22.01.542,judgeSpeechMusic_20210407_logNormShiftAmp,2020.1.2,MacIntel,60,,,,,,,,,,,,,,2,5.70429,,0,0,30,30,105,1,stimuli/stim_20210407_power2amp/equal_lnn_AM4.8Hz_57.m4a,,,
,,,,,,,,,,,,40919,2021-05-10_18h22.01.542,judgeSpeechMusic_20210407_logNormShiftAmp,2020.1.2,MacIntel,60,,,,,,,,,,,,,,1,5.70492,,0,0,31,31,99,1,stimuli/stim_20210407_power2amp/equal_lnn_AM4.2Hz_93.m4a,,,
,,,,,,,,,,,,40919,2021-05-10_18h22.01.542,judgeSpeechMusic_20210407_logNormShiftAmp,2020.1.2,MacIntel,60,,,,,,,,,,,,,,2,5.92154,,0,0,32,32,142,1,stimuli/stim_20210407_power2amp/equal_lnn_AM6Hz_31.m4a,,,
,,,,,,,,,,,,40919,2021-05-10_18h22.01.542,judgeSpeechMusic_20210407_logNormShiftAmp,2020.1.2,MacIntel,60,,,,,,,,,,,,,,2,5.359875,,0,0,33,33,140,1,stimuli/stim_20210407_power2amp/equal_lnn_AM6Hz_12.m4a,,,
,,,,,,,,,,,,40919,2021-05-10_18h22.01.542,judgeSpeechMusic_20210407_logNormShiftAmp,2020.1.2,MacIntel,60,,,,,,,,,,,,,,2,5.62279,,0,0,34,34,33,1,stimuli/stim_20210407_power2amp/equal_lnn_AM1.8Hz_7.m4a,,,
,,,,,,,,,,,,40919,2021-05-10_18h22.01.542,judgeSpeechMusic_20210407_logNormShiftAmp,2020.1.2,MacIntel,60,,,,,,,,,,,,,,1,5.605585,,0,0,35,35,7,1,stimuli/stim_20210407_power2amp/equal_lnn_AM0.6Hz_57.m4a,,,
,,,,,,,,,,,,40919,2021-05-10_18h22.01.542,judgeSpeechMusic_20210407_logNormShiftAmp,2020.1.2,MacIntel,60,,,,,,,,,,,,,,1,5.59958,1,1,0,36,36,119,1,stimuli/stim_20210407_power2amp/equal_lnn_AM4.8Hz_74.m4a,1.540045,,
,,,,,,,,,,,,40919,2021-05-10_18h22.01.542,judgeSpeechMusic_20210407_logNormShiftAmp,2020.1.2,MacIntel,60,,,,,,,,,,,,,,1,5.73442,,0,0,37,37,90,1,stimuli/stim_20210407_power2amp/equal_lnn_AM4.2Hz_10.m4a,,,
,,,,,,,,,,,,40919,2021-05-10_18h22.01.542,judgeSpeechMusic_20210407_logNormShiftAmp,2020.1.2,MacIntel,60,,,,,,,,,,,,,,2,5.769,,0,0,38,38,95,1,stimuli/stim_20210407_power2amp/equal_lnn_AM4.2Hz_6.m4a,,,
,,,,,,,,,,,,40919,2021-05-10_18h22.01.542,judgeSpeechMusic_20210407_logNormShiftAmp,2020.1.2,MacIntel,60,,,,,,,,,,,,,,2,6.45696,,0,0,39,39,43,1,stimuli/stim_20210407_power2amp/equal_lnn_AM1.8Hz_73.m4a,,,
,,,,,,,,,,,,40919,2021-05-10_18h22.01.542,judgeSpeechMusic_20210407_logNormShiftAmp,2020.1.2,MacIntel,60,,,,,,,,,,,,,,2,5.998835,,0,0,40,40,67,1,stimuli/stim_20210407_power2amp/equal_lnn_AM3Hz_96.m4a,,,
,,,,,,,,,,,,40919,2021-05-10_18h22.01.542,judgeSpeechMusic_20210407_logNormShiftAmp,2020.1.2,MacIntel,60,,,,,,,,,,,,,,1,5.587045,,0,0,41,41,11,1,stimuli/stim_20210407_power2amp/equal_lnn_AM0.6Hz_60.m4a,,,
,,,,,,,,,,,,40919,2021-05-10_18h22.01.542,judgeSpeechMusic_20210407_logNormShiftAmp,2020.1.2,MacIntel,60,,,,,,,,,,,,,,1,5.6235,,0,0,42,42,101,1,stimuli/stim_20210407_power2amp/equal_lnn_AM4.2Hz_63.m4a,,,
,,,,,,,,,,,,40919,2021-05-10_18h22.01.542,judgeSpeechMusic_20210407_logNormShiftAmp,2020.1.2,MacIntel,60,,,,,,,,,,,,,,1,6.418915,,0,0,43,43,116,1,stimuli/stim_20210407_power2amp/equal_lnn_AM4.8Hz_18.m4a,,,
,,,,,,,,,,,,40919,2021-05-10_18h22.01.542,judgeSpeechMusic_20210407_logNormShiftAmp,2020.1.2,MacIntel,60,,,,,,,,,,,,,,1,6.05404,,0,0,44,44,87,1,stimuli/stim_20210407_power2amp/equal_lnn_AM3.6Hz_16.m4a,,,
,,,,,,,,,,,,40919,2021-05-10_18h22.01.542,judgeSpeechMusic_20210407_logNormShiftAmp,2020.1.2,MacIntel,60,,,,,,,,,,,,,,1,19.14263,,0,0,45,45,82,1,stimuli/stim_20210407_power2amp/equal_lnn_AM3.6Hz_87.m4a,,,
,,,,,,,,,,,,40919,2021-05-10_18h22.01.542,judgeSpeechMusic_20210407_logNormShiftAmp,2020.1.2,MacIntel,60,,,,,,,,,,,,,,1,14.23808,,0,0,46,46,64,1,stimuli/stim_20210407_power2amp/equal_lnn_AM3Hz_83.m4a,,,
,,,,,,,,,,,,40919,2021-05-10_18h22.01.542,judgeSpeechMusic_20210407_logNormShiftAmp,2020.1.2,MacIntel,60,,,,,,,,,,,,,,1,5.634665,,0,0,47,47,69,1,stimuli/stim_20210407_power2amp/equal_lnn_AM3Hz_54.m4a,,,
,,,,,,,,,,,,40919,2021-05-10_18h22.01.542,judgeSpeechMusic_20210407_logNormShiftAmp,2020.1.2,MacIntel,60,,,,,,,,,,,,,,1,5.74229,,0,0,48,48,21,1,stimuli/stim_20210407_power2amp/equal_lnn_AM1.2Hz_97.m4a,,,
,,,,,,,,,,,,40919,2021-05-10_18h22.01.542,judgeSpeechMusic_20210407_logNormShiftAmp,2020.1.2,MacIntel,60,,,,,,,,,,,,,,1,5.71321,,0,0,49,49,122,1,stimuli/stim_20210407_power2amp/equal_lnn_AM5.4Hz_45.m4a,,,
,,,,,,,,,,,,40919,2021-05-10_18h22.01.542,judgeSpeechMusic_20210407_logNormShiftAmp,2020.1.2,MacIntel,60,,,,,,,,,,,,,,2,6.972,,0,0,50,50,6,1,stimuli/stim_20210407_power2amp/equal_lnn_AM0.6Hz_27.m4a,,,
,,,,,,,,,,,,40919,2021-05-10_18h22.01.542,judgeSpeechMusic_20210407_logNormShiftAmp,2020.1.2,MacIntel,60,,,,,,,,,,,,,,1,5.96829,,0,0,51,51,39,1,stimuli/stim_20210407_power2amp/equal_lnn_AM1.8Hz_28.m4a,,,
,,,,,,,,,,,,40919,2021-05-10_18h22.01.542,judgeSpeechMusic_20210407_logNormShiftAmp,2020.1.2,MacIntel,60,,,,,,,,,,,,,,1,5.91079,,0,0,52,52,10,1,stimuli/stim_20210407_power2amp/equal_lnn_AM0.6Hz_23.m4a,,,
,,,,,,,,,,,,40919,2021-05-10_18h22.01.542,judgeSpeechMusic_20210407_logNormShiftAmp,2020.1.2,MacIntel,60,,,,,,,,,,,,,,1,5.710415,,0,0,53,53,5,1,stimuli/stim_20210407_power2amp/equal_lnn_AM0.6Hz_61.m4a,,,
,,,,,,,,,,,,40919,2021-05-10_18h22.01.542,judgeSpeechMusic_20210407_logNormShiftAmp,2020.1.2,MacIntel,60,,,,,,,,,,,,,,1,5.57662,,0,0,54,54,47,1,stimuli/stim_20210407_power2amp/equal_lnn_AM2.4Hz_68.m4a,,,
,,,,,,,,,,,,40919,2021-05-10_18h22.01.542,judgeSpeechMusic_20210407_logNormShiftAmp,2020.1.2,MacIntel,60,,,,,,,,,,,,,,2,6.279085,,0,0,55,55,109,1,stimuli/stim_20210407_power2amp/equal_lnn_AM4.8Hz_85.m4a,,,
,,,,,,,,,,,,40919,2021-05-10_18h22.01.542,judgeSpeechMusic_20210407_logNormShiftAmp,2020.1.2,MacIntel,60,,,,,,,,,,,,,,2,5.572045,,0,0,56,56,97,1,stimuli/stim_20210407_power2amp/equal_lnn_AM4.2Hz_12.m4a,,,
,,,,,,,,,,,,40919,2021-05-10_18h22.01.542,judgeSpeechMusic_20210407_logNormShiftAmp,2020.1.2,MacIntel,60,,,,,,,,,,,,,,1,5.35625,,0,0,57,57,61,1,stimuli/stim_20210407_power2amp/equal_lnn_AM3Hz_30.m4a,,,
,,,,,,,,,,,,40919,2021-05-10_18h22.01.542,judgeSpeechMusic_20210407_logNormShiftAmp,2020.1.2,MacIntel,60,,,,,,,,,,,,,,1,6.02267,,0,0,58,58,8,1,stimuli/stim_20210407_power2amp/equal_lnn_AM0.6Hz_17.m4a,,,
,,,,,,,,,,,,40919,2021-05-10_18h22.01.542,judgeSpeechMusic_20210407_logNormShiftAmp,2020.1.2,MacIntel,60,,,,,,,,,,,,,,2,6.879335,3,1,0,59,59,58,1,stimuli/stim_20210407_power2amp/equal_lnn_AM2.4Hz_34.m4a,1.072875,,
,,,,,,,,,,,,40919,2021-05-10_18h22.01.542,judgeSpeechMusic_20210407_logNormShiftAmp,2020.1.2,MacIntel,60,,,,,,,,,,,,,,2,5.83892,,0,0,60,60,92,1,stimuli/stim_20210407_power2amp/equal_lnn_AM4.2Hz_49.m4a,,,
,,,,,,,,,,,,40919,2021-05-10_18h22.01.542,judgeSpeechMusic_20210407_logNormShiftAmp,2020.1.2,MacIntel,60,,,,,,,,,,,,,,1,5.839205,,0,0,61,61,120,1,stimuli/stim_20210407_power2amp/equal_lnn_AM5.4Hz_36.m4a,,,
,,,,,,,,,,,,40919,2021-05-10_18h22.01.542,judgeSpeechMusic_20210407_logNormShiftAmp,2020.1.2,MacIntel,60,,,,,,,,,,,,,,1,5.68329,,0,0,62,62,123,1,stimuli/stim_20210407_power2amp/equal_lnn_AM5.4Hz_77.m4a,,,
,,,,,,,,,,,,40919,2021-05-10_18h22.01.542,judgeSpeechMusic_20210407_logNormShiftAmp,2020.1.2,MacIntel,60,,,,,,,,,,,,,,2,6.036125,,0,0,63,63,51,1,stimuli/stim_20210407_power2amp/equal_lnn_AM2.4Hz_33.m4a,,,
,,,,,,,,,,,,40919,2021-05-10_18h22.01.542,judgeSpeechMusic_20210407_logNormShiftAmp,2020.1.2,MacIntel,60,,,,,,,,,,,,,,2,5.57262,,0,0,64,64,145,1,stimuli/stim_20210407_power2amp/equal_lnn_AM6Hz_9.m4a,,,
,,,,,,,,,,,,40919,2021-05-10_18h22.01.542,judgeSpeechMusic_20210407_logNormShiftAmp,2020.1.2,MacIntel,60,,,,,,,,,,,,,,2,5.38008,,0,0,65,65,75,1,stimuli/stim_20210407_power2amp/equal_lnn_AM3.6Hz_40.m4a,,,
,,,,,,,,,,,,40919,2021-05-10_18h22.01.542,judgeSpeechMusic_20210407_logNormShiftAmp,2020.1.2,MacIntel,60,,,,,,,,,,,,,,2,8.38725,,0,0,66,66,93,1,stimuli/stim_20210407_power2amp/equal_lnn_AM4.2Hz_38.m4a,,,
,,,,,,,,,,,,40919,2021-05-10_18h22.01.542,judgeSpeechMusic_20210407_logNormShiftAmp,2020.1.2,MacIntel,60,,,,,,,,,,,,,,1,8.43029,,0,0,67,67,49,1,stimuli/stim_20210407_power2amp/equal_lnn_AM2.4Hz_63.m4a,,,
,,,,,,,,,,,,40919,2021-05-10_18h22.01.542,judgeSpeechMusic_20210407_logNormShiftAmp,2020.1.2,MacIntel,60,,,,,,,,,,,,,,1,134.256875,,0,0,68,68,20,1,stimuli/stim_20210407_power2amp/equal_lnn_AM1.2Hz_15.m4a,,,
,,,,,,,,,,,,40919,2021-05-10_18h22.01.542,judgeSpeechMusic_20210407_logNormShiftAmp,2020.1.2,MacIntel,60,,,,,,,,,,,,,,2,5.965665,,0,0,69,69,86,1,stimuli/stim_20210407_power2amp/equal_lnn_AM3.6Hz_29.m4a,,,
,,,,,,,,,,,,40919,2021-05-10_18h22.01.542,judgeSpeechMusic_20210407_logNormShiftAmp,2020.1.2,MacIntel,60,,,,,,,,,,,,,,1,5.726,,0,0,70,70,74,1,stimuli/stim_20210407_power2amp/equal_lnn_AM3Hz_25.m4a,,,
,,,,,,,,,,,,40919,2021-05-10_18h22.01.542,judgeSpeechMusic_20210407_logNormShiftAmp,2020.1.2,MacIntel,60,,,,,,,,,,,,,,1,5.55175,,0,0,71,71,94,1,stimuli/stim_20210407_power2amp/equal_lnn_AM4.2Hz_87.m4a,,,
,,,,,,,,,,,,40919,2021-05-10_18h22.01.542,judgeSpeechMusic_20210407_logNormShiftAmp,2020.1.2,MacIntel,60,,,,,,,,,,,,,,2,5.75596,,0,0,72,72,77,1,stimuli/stim_20210407_power2amp/equal_lnn_AM3.6Hz_55.m4a,,,
,,,,,,,,,,,,40919,2021-05-10_18h22.01.542,judgeSpeechMusic_20210407_logNormShiftAmp,2020.1.2,MacIntel,60,,,,,,,,,,,,,,2,5.571875,,0,0,73,73,84,1,stimuli/stim_20210407_power2amp/equal_lnn_AM3.6Hz_89.m4a,,,
,,,,,,,,,,,,40919,2021-05-10_18h22.01.542,judgeSpeechMusic_20210407_logNormShiftAmp,2020.1.2,MacIntel,60,,,,,,,,,,,,,,2,5.27167,,0,0,74,74,56,1,stimuli/stim_20210407_power2amp/equal_lnn_AM2.4Hz_73.m4a,,,
,,,,,,,,,,,,40919,2021-05-10_18h22.01.542,judgeSpeechMusic_20210407_logNormShiftAmp,2020.1.2,MacIntel,60,,,,,,,,,,,,,,2,5.35904,,0,0,75,75,73,1,stimuli/stim_20210407_power2amp/equal_lnn_AM3Hz_60.m4a,,,
,,,,,,,,,,,,40919,2021-05-10_18h22.01.542,judgeSpeechMusic_20210407_logNormShiftAmp,2020.1.2,MacIntel,60,,,,,,,,,,,,,,2,5.33954,,0,0,76,76,76,1,stimuli/stim_20210407_power2amp/equal_lnn_AM3.6Hz_11.m4a,,,
,,,,,,,,,,,,40919,2021-05-10_18h22.01.542,judgeSpeechMusic_20210407_logNormShiftAmp,2020.1.2,MacIntel,60,,,,,,,,,,,,,,1,5.81658,,0,0,77,77,129,1,stimuli/stim_20210407_power2amp/equal_lnn_AM5.4Hz_33.m4a,,,
,,,,,,,,,,,,40919,2021-05-10_18h22.01.542,judgeSpeechMusic_20210407_logNormShiftAmp,2020.1.2,MacIntel,60,,,,,,,,,,,,,,2,56.877875,,0,0,78,78,81,1,stimuli/stim_20210407_power2amp/equal_lnn_AM3.6Hz_1.m4a,,,
,,,,,,,,,,,,40919,2021-05-10_18h22.01.542,judgeSpeechMusic_20210407_logNormShiftAmp,2020.1.2,MacIntel,60,,,,,,,,,,,,,,2,5.76863,,0,0,79,79,83,1,stimuli/stim_20210407_power2amp/equal_lnn_AM3.6Hz_85.m4a,,,
,,,,,,,,,,,,40919,2021-05-10_18h22.01.542,judgeSpeechMusic_20210407_logNormShiftAmp,2020.1.2,MacIntel,60,,,,,,,,,,,,,,2,5.595045,,0,0,80,80,59,1,stimuli/stim_20210407_power2amp/equal_lnn_AM2.4Hz_75.m4a,,,
,,,,,,,,,,,,40919,2021-05-10_18h22.01.542,judgeSpeechMusic_20210407_logNormShiftAmp,2020.1.2,MacIntel,60,,,,,,,,,,,,,,2,5.34475,4,1,0,81,81,139,1,stimuli/stim_20210407_power2amp/equal_lnn_AM6Hz_29.m4a,2.823335,,
,,,,,,,,,,,,40919,2021-05-10_18h22.01.542,judgeSpeechMusic_20210407_logNormShiftAmp,2020.1.2,MacIntel,60,,,,,,,,,,,,,,2,5.55154,,0,0,82,82,146,1,stimuli/stim_20210407_power2amp/equal_lnn_AM6Hz_96.m4a,,,
,,,,,,,,,,,,40919,2021-05-10_18h22.01.542,judgeSpeechMusic_20210407_logNormShiftAmp,2020.1.2,MacIntel,60,,,,,,,,,,,,,,2,5.586,,0,0,83,83,133,1,stimuli/stim_20210407_power2amp/equal_lnn_AM5.4Hz_27.m4a,,,
,,,,,,,,,,,,40919,2021-05-10_18h22.01.542,judgeSpeechMusic_20210407_logNormShiftAmp,2020.1.2,MacIntel,60,,,,,,,,,,,,,,1,6.2635,,0,0,84,84,14,1,stimuli/stim_20210407_power2amp/equal_lnn_AM0.6Hz_4.m4a,,,
,,,,,,,,,,,,40919,2021-05-10_18h22.01.542,judgeSpeechMusic_20210407_logNormShiftAmp,2020.1.2,MacIntel,60,,,,,,,,,,,,,,1,5.570875,,0,0,85,85,13,1,stimuli/stim_20210407_power2amp/equal_lnn_AM0.6Hz_7.m4a,,,
,,,,,,,,,,,,40919,2021-05-10_18h22.01.542,judgeSpeechMusic_20210407_logNormShiftAmp,2020.1.2,MacIntel,60,,,,,,,,,,,,,,1,5.41925,,0,0,86,86,89,1,stimuli/stim_20210407_power2amp/equal_lnn_AM3.6Hz_73.m4a,,,
,,,,,,,,,,,,40919,2021-05-10_18h22.01.542,judgeSpeechMusic_20210407_logNormShiftAmp,2020.1.2,MacIntel,60,,,,,,,,,,,,,,1,5.303915,,0,0,87,87,48,1,stimuli/stim_20210407_power2amp/equal_lnn_AM2.4Hz_3.m4a,,,
,,,,,,,,,,,,40919,2021-05-10_18h22.01.542,judgeSpeechMusic_20210407_logNormShiftAmp,2020.1.2,MacIntel,60,,,,,,,,,,,,,,1,5.50842,,0,0,88,88,27,1,stimuli/stim_20210407_power2amp/equal_lnn_AM1.2Hz_33.m4a,,,
,,,,,,,,,,,,40919,2021-05-10_18h22.01.542,judgeSpeechMusic_20210407_logNormShiftAmp,2020.1.2,MacIntel,60,,,,,,,,,,,,,,1,5.569415,,0,0,89,89,45,1,stimuli/stim_20210407_power2amp/equal_lnn_AM2.4Hz_69.m4a,,,
,,,,,,,,,,,,40919,2021-05-10_18h22.01.542,judgeSpeechMusic_20210407_logNormShiftAmp,2020.1.2,MacIntel,60,,,,,,,,,,,,,,2,5.411165,,0,0,90,90,112,1,stimuli/stim_20210407_power2amp/equal_lnn_AM4.8Hz_10.m4a,,,
,,,,,,,,,,,,40919,2021-05-10_18h22.01.542,judgeSpeechMusic_20210407_logNormShiftAmp,2020.1.2,MacIntel,60,,,,,,,,,,,,,,2,5.69154,,0,0,91,91,137,1,stimuli/stim_20210407_power2amp/equal_lnn_AM6Hz_94.m4a,,,
,,,,,,,,,,,,40919,2021-05-10_18h22.01.542,judgeSpeechMusic_20210407_logNormShiftAmp,2020.1.2,MacIntel,60,,,,,,,,,,,,,,2,5.66983,,0,0,92,92,102,1,stimuli/stim_20210407_power2amp/equal_lnn_AM4.2Hz_46.m4a,,,
,,,,,,,,,,,,40919,2021-05-10_18h22.01.542,judgeSpeechMusic_20210407_logNormShiftAmp,2020.1.2,MacIntel,60,,,,,,,,,,,,,,2,5.36496,,0,0,93,93,52,1,stimuli/stim_20210407_power2amp/equal_lnn_AM2.4Hz_58.m4a,,,
,,,,,,,,,,,,40919,2021-05-10_18h22.01.542,judgeSpeechMusic_20210407_logNormShiftAmp,2020.1.2,MacIntel,60,,,,,,,,,,,,,,2,6.420875,,0,0,94,94,121,1,stimuli/stim_20210407_power2amp/equal_lnn_AM5.4Hz_94.m4a,,,
,,,,,,,,,,,,40919,2021-05-10_18h22.01.542,judgeSpeechMusic_20210407_logNormShiftAmp,2020.1.2,MacIntel,60,,,,,,,,,,,,,,2,5.518835,,0,0,95,95,17,1,stimuli/stim_20210407_power2amp/equal_lnn_AM1.2Hz_77.m4a,,,
,,,,,,,,,,,,40919,2021-05-10_18h22.01.542,judgeSpeechMusic_20210407_logNormShiftAmp,2020.1.2,MacIntel,60,,,,,,,,,,,,,,2,6.60425,,0,0,96,96,55,1,stimuli/stim_20210407_power2amp/equal_lnn_AM2.4Hz_98.m4a,,,
,,,,,,,,,,,,40919,2021-05-10_18h22.01.542,judgeSpeechMusic_20210407_logNormShiftAmp,2020.1.2,MacIntel,60,,,,,,,,,,,,,,2,5.99617,,0,0,97,97,0,1,stimuli/stim_20210407_power2amp/equal_lnn_AM0.6Hz_91.m4a,,,
,,,,,,,,,,,,40919,2021-05-10_18h22.01.542,judgeSpeechMusic_20210407_logNormShiftAmp,2020.1.2,MacIntel,60,,,,,,,,,,,,,,2,5.797755,,0,0,98,98,53,1,stimuli/stim_20210407_power2amp/equal_lnn_AM2.4Hz_85.m4a,,,
,,,,,,,,,,,,40919,2021-05-10_18h22.01.542,judgeSpeechMusic_20210407_logNormShiftAmp,2020.1.2,MacIntel,60,,,,,,,,,,,,,,2,5.53875,,0,0,99,99,30,1,stimuli/stim_20210407_power2amp/equal_lnn_AM1.8Hz_8.m4a,,,
,,,,,,,,,,,,40919,2021-05-10_18h22.01.542,judgeSpeechMusic_20210407_logNormShiftAmp,2020.1.2,MacIntel,60,,,,,,,,,,,,,,2,5.62692,,0,0,100,100,18,1,stimuli/stim_20210407_power2amp/equal_lnn_AM1.2Hz_9.m4a,,,
,,,,,,,,,,,,40919,2021-05-10_18h22.01.542,judgeSpeechMusic_20210407_logNormShiftAmp,2020.1.2,MacIntel,60,,,,,,,,,,,,,,2,5.46933,,0,0,101,101,131,1,stimuli/stim_20210407_power2amp/equal_lnn_AM5.4Hz_93.m4a,,,
,,,,,,,,,,,,40919,2021-05-10_18h22.01.542,judgeSpeechMusic_20210407_logNormShiftAmp,2020.1.2,MacIntel,60,,,,,,,,,,,,,,2,5.47308,,0,0,102,102,22,1,stimuli/stim_20210407_power2amp/equal_lnn_AM1.2Hz_72.m4a,,,
,,,,,,,,,,,,40919,2021-05-10_18h22.01.542,judgeSpeechMusic_20210407_logNormShiftAmp,2020.1.2,MacIntel,60,,,,,,,,,,,,,,1,5.560665,4,1,0,103,103,9,1,stimuli/stim_20210407_power2amp/equal_lnn_AM0.6Hz_49.m4a,2.9885,,
,,,,,,,,,,,,40919,2021-05-10_18h22.01.542,judgeSpeechMusic_20210407_logNormShiftAmp,2020.1.2,MacIntel,60,,,,,,,,,,,,,,1,5.919585,,0,0,104,104,34,1,stimuli/stim_20210407_power2amp/equal_lnn_AM1.8Hz_94.m4a,,,
,,,,,,,,,,,,40919,2021-05-10_18h22.01.542,judgeSpeechMusic_20210407_logNormShiftAmp,2020.1.2,MacIntel,60,,,,,,,,,,,,,,2,5.37271,,0,0,105,105,115,1,stimuli/stim_20210407_power2amp/equal_lnn_AM4.8Hz_53.m4a,,,
,,,,,,,,,,,,40919,2021-05-10_18h22.01.542,judgeSpeechMusic_20210407_logNormShiftAmp,2020.1.2,MacIntel,60,,,,,,,,,,,,,,2,5.45183,,0,0,106,106,107,1,stimuli/stim_20210407_power2amp/equal_lnn_AM4.8Hz_56.m4a,,,
,,,,,,,,,,,,40919,2021-05-10_18h22.01.542,judgeSpeechMusic_20210407_logNormShiftAmp,2020.1.2,MacIntel,60,,,,,,,,,,,,,,2,5.30508,,0,0,107,107,135,1,stimuli/stim_20210407_power2amp/equal_lnn_AM6Hz_76.m4a,,,
,,,,,,,,,,,,40919,2021-05-10_18h22.01.542,judgeSpeechMusic_20210407_logNormShiftAmp,2020.1.2,MacIntel,60,,,,,,,,,,,,,,2,5.28592,,0,0,108,108,141,1,stimuli/stim_20210407_power2amp/equal_lnn_AM6Hz_84.m4a,,,
,,,,,,,,,,,,40919,2021-05-10_18h22.01.542,judgeSpeechMusic_20210407_logNormShiftAmp,2020.1.2,MacIntel,60,,,,,,,,,,,,,,2,5.442375,,0,0,109,109,118,1,stimuli/stim_20210407_power2amp/equal_lnn_AM4.8Hz_29.m4a,,,
,,,,,,,,,,,,40919,2021-05-10_18h22.01.542,judgeSpeechMusic_20210407_logNormShiftAmp,2020.1.2,MacIntel,60,,,,,,,,,,,,,,2,5.51296,,0,0,110,110,3,1,stimuli/stim_20210407_power2amp/equal_lnn_AM0.6Hz_47.m4a,,,
,,,,,,,,,,,,40919,2021-05-10_18h22.01.542,judgeSpeechMusic_20210407_logNormShiftAmp,2020.1.2,MacIntel,60,,,,,,,,,,,,,,1,5.905505,,0,0,111,111,66,1,stimuli/stim_20210407_power2amp/equal_lnn_AM3Hz_77.m4a,,,
,,,,,,,,,,,,40919,2021-05-10_18h22.01.542,judgeSpeechMusic_20210407_logNormShiftAmp,2020.1.2,MacIntel,60,,,,,,,,,,,,,,1,5.568915,,0,0,112,112,114,1,stimuli/stim_20210407_power2amp/equal_lnn_AM4.8Hz_98.m4a,,,
,,,,,,,,,,,,40919,2021-05-10_18h22.01.542,judgeSpeechMusic_20210407_logNormShiftAmp,2020.1.2,MacIntel,60,,,,,,,,,,,,,,1,5.98646,,0,0,113,113,35,1,stimuli/stim_20210407_power2amp/equal_lnn_AM1.8Hz_41.m4a,,,
,,,,,,,,,,,,40919,2021-05-10_18h22.01.542,judgeSpeechMusic_20210407_logNormShiftAmp,2020.1.2,MacIntel,60,,,,,,,,,,,,,,1,6.61333,,0,0,114,114,148,1,stimuli/stim_20210407_power2amp/equal_lnn_AM6Hz_36.m4a,,,
,,,,,,,,,,,,40919,2021-05-10_18h22.01.542,judgeSpeechMusic_20210407_logNormShiftAmp,2020.1.2,MacIntel,60,,,,,,,,,,,,,,1,17.376835,,0,0,115,115,98,1,stimuli/stim_20210407_power2amp/equal_lnn_AM4.2Hz_58.m4a,,,
,,,,,,,,,,,,40919,2021-05-10_18h22.01.542,judgeSpeechMusic_20210407_logNormShiftAmp,2020.1.2,MacIntel,60,,,,,,,,,,,,,,1,5.47204,,0,0,116,116,54,1,stimuli/stim_20210407_power2amp/equal_lnn_AM2.4Hz_30.m4a,,,
,,,,,,,,,,,,40919,2021-05-10_18h22.01.542,judgeSpeechMusic_20210407_logNormShiftAmp,2020.1.2,MacIntel,60,,,,,,,,,,,,,,1,5.32746,,0,0,117,117,78,1,stimuli/stim_20210407_power2amp/equal_lnn_AM3.6Hz_34.m4a,,,
,,,,,,,,,,,,40919,2021-05-10_18h22.01.542,judgeSpeechMusic_20210407_logNormShiftAmp,2020.1.2,MacIntel,60,,,,,,,,,,,,,,1,5.564705,,0,0,118,118,127,1,stimuli/stim_20210407_power2amp/equal_lnn_AM5.4Hz_12.m4a,,,
,,,,,,,,,,,,40919,2021-05-10_18h22.01.542,judgeSpeechMusic_20210407_logNormShiftAmp,2020.1.2,MacIntel,60,,,,,,,,,,,,,,1,5.851545,,0,0,119,119,38,1,stimuli/stim_20210407_power2amp/equal_lnn_AM1.8Hz_90.m4a,,,
,,,,,,,,,,,,40919,2021-05-10_18h22.01.542,judgeSpeechMusic_20210407_logNormShiftAmp,2020.1.2,MacIntel,60,,,,,,,,,,,,,,2,5.30433,,0,0,120,120,29,1,stimuli/stim_20210407_power2amp/equal_lnn_AM1.2Hz_84.m4a,,,
,,,,,,,,,,,,40919,2021-05-10_18h22.01.542,judgeSpeechMusic_20210407_logNormShiftAmp,2020.1.2,MacIntel,60,,,,,,,,,,,,,,2,5.40563,,0,0,121,121,138,1,stimuli/stim_20210407_power2amp/equal_lnn_AM6Hz_52.m4a,,,
,,,,,,,,,,,,40919,2021-05-10_18h22.01.542,judgeSpeechMusic_20210407_logNormShiftAmp,2020.1.2,MacIntel,60,,,,,,,,,,,,,,2,5.609125,,0,0,122,122,132,1,stimuli/stim_20210407_power2amp/equal_lnn_AM5.4Hz_75.m4a,,,
,,,,,,,,,,,,40919,2021-05-10_18h22.01.542,judgeSpeechMusic_20210407_logNormShiftAmp,2020.1.2,MacIntel,60,,,,,,,,,,,,,,2,5.50429,,0,0,123,123,134,1,stimuli/stim_20210407_power2amp/equal_lnn_AM5.4Hz_88.m4a,,,
,,,,,,,,,,,,40919,2021-05-10_18h22.01.542,judgeSpeechMusic_20210407_logNormShiftAmp,2020.1.2,MacIntel,60,,,,,,,,,,,,,,1,5.99379,,0,0,124,124,15,1,stimuli/stim_20210407_power2amp/equal_lnn_AM1.2Hz_36.m4a,,,
,,,,,,,,,,,,40919,2021-05-10_18h22.01.542,judgeSpeechMusic_20210407_logNormShiftAmp,2020.1.2,MacIntel,60,,,,,,,,,,,,,,2,5.53629,,0,0,125,125,60,1,stimuli/stim_20210407_power2amp/equal_lnn_AM3Hz_24.m4a,,,
,,,,,,,,,,,,40919,2021-05-10_18h22.01.542,judgeSpeechMusic_20210407_logNormShiftAmp,2020.1.2,MacIntel,60,,,,,,,,,,,,,,1,5.729505,,0,0,126,126,40,1,stimuli/stim_20210407_power2amp/equal_lnn_AM1.8Hz_11.m4a,,,
,,,,,,,,,,,,40919,2021-05-10_18h22.01.542,judgeSpeechMusic_20210407_logNormShiftAmp,2020.1.2,MacIntel,60,,,,,,,,,,,,,,1,6.10746,4,1,0,127,127,19,1,stimuli/stim_20210407_power2amp/equal_lnn_AM1.2Hz_26.m4a,1.698085,,
,,,,,,,,,,,,40919,2021-05-10_18h22.01.542,judgeSpeechMusic_20210407_logNormShiftAmp,2020.1.2,MacIntel,60,,,,,,,,,,,,,,2,5.58667,,0,0,128,128,70,1,stimuli/stim_20210407_power2amp/equal_lnn_AM3Hz_49.m4a,,,
,,,,,,,,,,,,40919,2021-05-10_18h22.01.542,judgeSpeechMusic_20210407_logNormShiftAmp,2020.1.2,MacIntel,60,,,,,,,,,,,,,,2,62.30483,,0,0,129,129,71,1,stimuli/stim_20210407_power2amp/equal_lnn_AM3Hz_87.m4a,,,
,,,,,,,,,,,,40919,2021-05-10_18h22.01.542,judgeSpeechMusic_20210407_logNormShiftAmp,2020.1.2,MacIntel,60,,,,,,,,,,,,,,1,5.580915,,0,0,130,130,23,1,stimuli/stim_20210407_power2amp/equal_lnn_AM1.2Hz_47.m4a,,,
,,,,,,,,,,,,40919,2021-05-10_18h22.01.542,judgeSpeechMusic_20210407_logNormShiftAmp,2020.1.2,MacIntel,60,,,,,,,,,,,,,,1,6.45396,,0,0,131,131,136,1,stimuli/stim_20210407_power2amp/equal_lnn_AM6Hz_28.m4a,,,
,,,,,,,,,,,,40919,2021-05-10_18h22.01.542,judgeSpeechMusic_20210407_logNormShiftAmp,2020.1.2,MacIntel,60,,,,,,,,,,,,,,1,12.793535,,0,0,132,132,62,1,stimuli/stim_20210407_power2amp/equal_lnn_AM3Hz_59.m4a,,,
,,,,,,,,,,,,40919,2021-05-10_18h22.01.542,judgeSpeechMusic_20210407_logNormShiftAmp,2020.1.2,MacIntel,60,,,,,,,,,,,,,,2,5.225585,,0,0,133,133,91,1,stimuli/stim_20210407_power2amp/equal_lnn_AM4.2Hz_55.m4a,,,
,,,,,,,,,,,,40919,2021-05-10_18h22.01.542,judgeSpeechMusic_20210407_logNormShiftAmp,2020.1.2,MacIntel,60,,,,,,,,,,,,,,2,5.31158,,0,0,134,134,124,1,stimuli/stim_20210407_power2amp/equal_lnn_AM5.4Hz_67.m4a,,,
,,,,,,,,,,,,40919,2021-05-10_18h22.01.542,judgeSpeechMusic_20210407_logNormShiftAmp,2020.1.2,MacIntel,60,,,,,,,,,,,,,,2,6.025455,,0,0,135,135,24,1,stimuli/stim_20210407_power2amp/equal_lnn_AM1.2Hz_80.m4a,,,
,,,,,,,,,,,,40919,2021-05-10_18h22.01.542,judgeSpeechMusic_20210407_logNormShiftAmp,2020.1.2,MacIntel,60,,,,,,,,,,,,,,2,5.947245,,0,0,136,136,143,1,stimuli/stim_20210407_power2amp/equal_lnn_AM6Hz_90.m4a,,,
,,,,,,,,,,,,40919,2021-05-10_18h22.01.542,judgeSpeechMusic_20210407_logNormShiftAmp,2020.1.2,MacIntel,60,,,,,,,,,,,,,,2,6.85421,,0,0,137,137,68,1,stimuli/stim_20210407_power2amp/equal_lnn_AM3Hz_97.m4a,,,
,,,,,,,,,,,,40919,2021-05-10_18h22.01.542,judgeSpeechMusic_20210407_logNormShiftAmp,2020.1.2,MacIntel,60,,,,,,,,,,,,,,2,7.51179,,0,0,138,138,1,1,stimuli/stim_20210407_power2amp/equal_lnn_AM0.6Hz_81.m4a,,,
,,,,,,,,,,,,40919,2021-05-10_18h22.01.542,judgeSpeechMusic_20210407_logNormShiftAmp,2020.1.2,MacIntel,60,,,,,,,,,,,,,,2,5.84129,,0,0,139,139,144,1,stimuli/stim_20210407_power2amp/equal_lnn_AM6Hz_1.m4a,,,
,,,,,,,,,,,,40919,2021-05-10_18h22.01.542,judgeSpeechMusic_20210407_logNormShiftAmp,2020.1.2,MacIntel,60,,,,,,,,,,,,,,2,5.879085,,0,0,140,140,80,1,stimuli/stim_20210407_power2amp/equal_lnn_AM3.6Hz_44.m4a,,,
,,,,,,,,,,,,40919,2021-05-10_18h22.01.542,judgeSpeechMusic_20210407_logNormShiftAmp,2020.1.2,MacIntel,60,,,,,,,,,,,,,,2,5.92029,,0,0,141,141,65,1,stimuli/stim_20210407_power2amp/equal_lnn_AM3Hz_85.m4a,,,
,,,,,,,,,,,,40919,2021-05-10_18h22.01.542,judgeSpeechMusic_20210407_logNormShiftAmp,2020.1.2,MacIntel,60,,,,,,,,,,,,,,2,5.98588,,0,0,142,142,26,1,stimuli/stim_20210407_power2amp/equal_lnn_AM1.2Hz_86.m4a,,,
,,,,,,,,,,,,40919,2021-05-10_18h22.01.542,judgeSpeechMusic_20210407_logNormShiftAmp,2020.1.2,MacIntel,60,,,,,,,,,,,,,,2,5.343505,,0,0,143,143,50,1,stimuli/stim_20210407_power2amp/equal_lnn_AM2.4Hz_32.m4a,,,
,,,,,,,,,,,,40919,2021-05-10_18h22.01.542,judgeSpeechMusic_20210407_logNormShiftAmp,2020.1.2,MacIntel,60,,,,,,,,,,,,,,2,6.39033,,0,0,144,144,128,1,stimuli/stim_20210407_power2amp/equal_lnn_AM5.4Hz_31.m4a,,,
,,,,,,,,,,,,40919,2021-05-10_18h22.01.542,judgeSpeechMusic_20210407_logNormShiftAmp,2020.1.2,MacIntel,60,,,,,,,,,,,,,,2,6.367415,,0,0,145,145,25,1,stimuli/stim_20210407_power2amp/equal_lnn_AM1.2Hz_42.m4a,,,
,,,,,,,,,,,,40919,2021-05-10_18h22.01.542,judgeSpeechMusic_20210407_logNormShiftAmp,2020.1.2,MacIntel,60,,,,,,,,,,,,,,2,6.21933,,0,0,146,146,111,1,stimuli/stim_20210407_power2amp/equal_lnn_AM4.8Hz_89.m4a,,,
,,,,,,,,,,,,40919,2021-05-10_18h22.01.542,judgeSpeechMusic_20210407_logNormShiftAmp,2020.1.2,MacIntel,60,,,,,,,,,,,,,,2,5.66542,,0,0,147,147,46,1,stimuli/stim_20210407_power2amp/equal_lnn_AM2.4Hz_100.m4a,,,
,,,,,,,,,,,,40919,2021-05-10_18h22.01.542,judgeSpeechMusic_20210407_logNormShiftAmp,2020.1.2,MacIntel,60,,,,,,,,,,,,,,1,5.6975,2,1,0,148,148,2,1,stimuli/stim_20210407_power2amp/equal_lnn_AM0.6Hz_18.m4a,1.213795,,
,,,,,,,,,,,,40919,2021-05-10_18h22.01.542,judgeSpeechMusic_20210407_logNormShiftAmp,2020.1.2,MacIntel,60,,,,,,,,,,,,,,2,5.537125,,0,0,149,149,36,1,stimuli/stim_20210407_power2amp/equal_lnn_AM1.8Hz_100.m4a,,,
,,,,,,,,,,,,40919,2021-05-10_18h22.01.542,judgeSpeechMusic_20210407_logNormShiftAmp,2020.1.2,MacIntel,60,,,,,,,,,,,,,,2,6.23804,,0,1,0,150,62,1,stimuli/stim_20210407_power2amp/equal_lnn_AM3Hz_59.m4a,,,
,,,,,,,,,,,,40919,2021-05-10_18h22.01.542,judgeSpeechMusic_20210407_logNormShiftAmp,2020.1.2,MacIntel,60,,,,,,,,,,,,,,2,6.01383,,0,1,1,151,129,1,stimuli/stim_20210407_power2amp/equal_lnn_AM5.4Hz_33.m4a,,,
,,,,,,,,,,,,40919,2021-05-10_18h22.01.542,judgeSpeechMusic_20210407_logNormShiftAmp,2020.1.2,MacIntel,60,,,,,,,,,,,,,,2,5.845835,,0,1,2,152,32,1,stimuli/stim_20210407_power2amp/equal_lnn_AM1.8Hz_47.m4a,,,
,,,,,,,,,,,,40919,2021-05-10_18h22.01.542,judgeSpeechMusic_20210407_logNormShiftAmp,2020.1.2,MacIntel,60,,,,,,,,,,,,,,2,5.52438,,0,1,3,153,97,1,stimuli/stim_20210407_power2amp/equal_lnn_AM4.2Hz_12.m4a,,,
,,,,,,,,,,,,40919,2021-05-10_18h22.01.542,judgeSpeechMusic_20210407_logNormShiftAmp,2020.1.2,MacIntel,60,,,,,,,,,,,,,,2,6.019915,,0,1,4,154,147,1,stimuli/stim_20210407_power2amp/equal_lnn_AM6Hz_19.m4a,,,
,,,,,,,,,,,,40919,2021-05-10_18h22.01.542,judgeSpeechMusic_20210407_logNormShiftAmp,2020.1.2,MacIntel,60,,,,,,,,,,,,,,1,5.403625,,0,1,5,155,45,1,stimuli/stim_20210407_power2amp/equal_lnn_AM2.4Hz_69.m4a,,,
,,,,,,,,,,,,40919,2021-05-10_18h22.01.542,judgeSpeechMusic_20210407_logNormShiftAmp,2020.1.2,MacIntel,60,,,,,,,,,,,,,,1,5.65679,,0,1,6,156,24,1,stimuli/stim_20210407_power2amp/equal_lnn_AM1.2Hz_80.m4a,,,
,,,,,,,,,,,,40919,2021-05-10_18h22.01.542,judgeSpeechMusic_20210407_logNormShiftAmp,2020.1.2,MacIntel,60,,,,,,,,,,,,,,1,5.882045,,0,1,7,157,114,1,stimuli/stim_20210407_power2amp/equal_lnn_AM4.8Hz_98.m4a,,,
,,,,,,,,,,,,40919,2021-05-10_18h22.01.542,judgeSpeechMusic_20210407_logNormShiftAmp,2020.1.2,MacIntel,60,,,,,,,,,,,,,,1,5.34067,,0,1,8,158,21,1,stimuli/stim_20210407_power2amp/equal_lnn_AM1.2Hz_97.m4a,,,
,,,,,,,,,,,,40919,2021-05-10_18h22.01.542,judgeSpeechMusic_20210407_logNormShiftAmp,2020.1.2,MacIntel,60,,,,,,,,,,,,,,1,5.59063,,0,1,9,159,120,1,stimuli/stim_20210407_power2amp/equal_lnn_AM5.4Hz_36.m4a,,,
,,,,,,,,,,,,40919,2021-05-10_18h22.01.542,judgeSpeechMusic_20210407_logNormShiftAmp,2020.1.2,MacIntel,60,,,,,,,,,,,,,,2,5.839215,,0,1,10,160,113,1,stimuli/stim_20210407_power2amp/equal_lnn_AM4.8Hz_46.m4a,,,
,,,,,,,,,,,,40919,2021-05-10_18h22.01.542,judgeSpeechMusic_20210407_logNormShiftAmp,2020.1.2,MacIntel,60,,,,,,,,,,,,,,2,5.76908,,0,1,11,161,146,1,stimuli/stim_20210407_power2amp/equal_lnn_AM6Hz_96.m4a,,,
,,,,,,,,,,,,40919,2021-05-10_18h22.01.542,judgeSpeechMusic_20210407_logNormShiftAmp,2020.1.2,MacIntel,60,,,,,,,,,,,,,,2,5.979875,,0,1,12,162,57,1,stimuli/stim_20210407_power2amp/equal_lnn_AM2.4Hz_12.m4a,,,
,,,,,,,,,,,,40919,2021-05-10_18h22.01.542,judgeSpeechMusic_20210407_logNormShiftAmp,2020.1.2,MacIntel,60,,,,,,,,,,,,,,2,7.07862,,0,1,13,163,63,1,stimuli/stim_20210407_power2amp/equal_lnn_AM3Hz_19.m4a,,,
,,,,,,,,,,,,40919,2021-05-10_18h22.01.542,judgeSpeechMusic_20210407_logNormShiftAmp,2020.1.2,MacIntel,60,,,,,,,,,,,,,,2,11.082875,,0,1,14,164,28,1,stimuli/stim_20210407_power2amp/equal_lnn_AM1.2Hz_58.m4a,,,
,,,,,,,,,,,,40919,2021-05-10_18h22.01.542,judgeSpeechMusic_20210407_logNormShiftAmp,2020.1.2,MacIntel,60,,,,,,,,,,,,,,2,5.599125,,0,1,15,165,141,1,stimuli/stim_20210407_power2amp/equal_lnn_AM6Hz_84.m4a,,,
,,,,,,,,,,,,40919,2021-05-10_18h22.01.542,judgeSpeechMusic_20210407_logNormShiftAmp,2020.1.2,MacIntel,60,,,,,,,,,,,,,,2,6.62883,,0,1,16,166,139,1,stimuli/stim_20210407_power2amp/equal_lnn_AM6Hz_29.m4a,,,
,,,,,,,,,,,,40919,2021-05-10_18h22.01.542,judgeSpeechMusic_20210407_logNormShiftAmp,2020.1.2,MacIntel,60,,,,,,,,,,,,,,2,7.20504,,0,1,17,167,94,1,stimuli/stim_20210407_power2amp/equal_lnn_AM4.2Hz_87.m4a,,,
,,,,,,,,,,,,40919,2021-05-10_18h22.01.542,judgeSpeechMusic_20210407_logNormShiftAmp,2020.1.2,MacIntel,60,,,,,,,,,,,,,,1,8.409295,,0,1,18,168,47,1,stimuli/stim_20210407_power2amp/equal_lnn_AM2.4Hz_68.m4a,,,
,,,,,,,,,,,,40919,2021-05-10_18h22.01.542,judgeSpeechMusic_20210407_logNormShiftAmp,2020.1.2,MacIntel,60,,,,,,,,,,,,,,1,7.241625,,0,1,19,169,77,1,stimuli/stim_20210407_power2amp/equal_lnn_AM3.6Hz_55.m4a,,,
,,,,,,,,,,,,40919,2021-05-10_18h22.01.542,judgeSpeechMusic_20210407_logNormShiftAmp,2020.1.2,MacIntel,60,,,,,,,,,,,,,,1,5.720045,,0,1,20,170,27,1,stimuli/stim_20210407_power2amp/equal_lnn_AM1.2Hz_33.m4a,,,
,,,,,,,,,,,,40919,2021-05-10_18h22.01.542,judgeSpeechMusic_20210407_logNormShiftAmp,2020.1.2,MacIntel,60,,,,,,,,,,,,,,1,5.55454,,0,1,21,171,20,1,stimuli/stim_20210407_power2amp/equal_lnn_AM1.2Hz_15.m4a,,,
,,,,,,,,,,,,40919,2021-05-10_18h22.01.542,judgeSpeechMusic_20210407_logNormShiftAmp,2020.1.2,MacIntel,60,,,,,,,,,,,,,,1,5.352835,,0,1,22,172,121,1,stimuli/stim_20210407_power2amp/equal_lnn_AM5.4Hz_94.m4a,,,
,,,,,,,,,,,,40919,2021-05-10_18h22.01.542,judgeSpeechMusic_20210407_logNormShiftAmp,2020.1.2,MacIntel,60,,,,,,,,,,,,,,1,5.719165,4,1,1,23,173,34,1,stimuli/stim_20210407_power2amp/equal_lnn_AM1.8Hz_94.m4a,0.67279,,
,,,,,,,,,,,,40919,2021-05-10_18h22.01.542,judgeSpeechMusic_20210407_logNormShiftAmp,2020.1.2,MacIntel,60,,,,,,,,,,,,,,1,5.35487,,0,1,24,174,36,1,stimuli/stim_20210407_power2amp/equal_lnn_AM1.8Hz_100.m4a,,,
,,,,,,,,,,,,40919,2021-05-10_18h22.01.542,judgeSpeechMusic_20210407_logNormShiftAmp,2020.1.2,MacIntel,60,,,,,,,,,,,,,,1,5.43391,,0,1,25,175,65,1,stimuli/stim_20210407_power2amp/equal_lnn_AM3Hz_85.m4a,,,
,,,,,,,,,,,,40919,2021-05-10_18h22.01.542,judgeSpeechMusic_20210407_logNormShiftAmp,2020.1.2,MacIntel,60,,,,,,,,,,,,,,1,5.39446,,0,1,26,176,98,1,stimuli/stim_20210407_power2amp/equal_lnn_AM4.2Hz_58.m4a,,,
,,,,,,,,,,,,40919,2021-05-10_18h22.01.542,judgeSpeechMusic_20210407_logNormShiftAmp,2020.1.2,MacIntel,60,,,,,,,,,,,,,,1,5.2935,,0,1,27,177,59,1,stimuli/stim_20210407_power2amp/equal_lnn_AM2.4Hz_75.m4a,,,
,,,,,,,,,,,,40919,2021-05-10_18h22.01.542,judgeSpeechMusic_20210407_logNormShiftAmp,2020.1.2,MacIntel,60,,,,,,,,,,,,,,1,6.220835,,0,1,28,178,13,1,stimuli/stim_20210407_power2amp/equal_lnn_AM0.6Hz_7.m4a,,,
,,,,,,,,,,,,40919,2021-05-10_18h22.01.542,judgeSpeechMusic_20210407_logNormShiftAmp,2020.1.2,MacIntel,60,,,,,,,,,,,,,,1,9.373915,,0,1,29,179,72,1,stimuli/stim_20210407_power2amp/equal_lnn_AM3Hz_73.m4a,,,
,,,,,,,,,,,,40919,2021-05-10_18h22.01.542,judgeSpeechMusic_20210407_logNormShiftAmp,2020.1.2,MacIntel,60,,,,,,,,,,,,,,1,6.062665,,0,1,30,180,8,1,stimuli/stim_20210407_power2amp/equal_lnn_AM0.6Hz_17.m4a,,,
,,,,,,,,,,,,40919,2021-05-10_18h22.01.542,judgeSpeechMusic_20210407_logNormShiftAmp,2020.1.2,MacIntel,60,,,,,,,,,,,,,,1,6.454375,,0,1,31,181,148,1,stimuli/stim_20210407_power2amp/equal_lnn_AM6Hz_36.m4a,,,
,,,,,,,,,,,,40919,2021-05-10_18h22.01.542,judgeSpeechMusic_20210407_logNormShiftAmp,2020.1.2,MacIntel,60,,,,,,,,,,,,,,1,7.44075,,0,1,32,182,10,1,stimuli/stim_20210407_power2amp/equal_lnn_AM0.6Hz_23.m4a,,,
,,,,,,,,,,,,40919,2021-05-10_18h22.01.542,judgeSpeechMusic_20210407_logNormShiftAmp,2020.1.2,MacIntel,60,,,,,,,,,,,,,,1,5.653835,,0,1,33,183,134,1,stimuli/stim_20210407_power2amp/equal_lnn_AM5.4Hz_88.m4a,,,
,,,,,,,,,,,,40919,2021-05-10_18h22.01.542,judgeSpeechMusic_20210407_logNormShiftAmp,2020.1.2,MacIntel,60,,,,,,,,,,,,,,1,5.87346,,0,1,34,184,55,1,stimuli/stim_20210407_power2amp/equal_lnn_AM2.4Hz_98.m4a,,,
,,,,,,,,,,,,40919,2021-05-10_18h22.01.542,judgeSpeechMusic_20210407_logNormShiftAmp,2020.1.2,MacIntel,60,,,,,,,,,,,,,,1,6.22279,,0,1,35,185,18,1,stimuli/stim_20210407_power2amp/equal_lnn_AM1.2Hz_9.m4a,,,
,,,,,,,,,,,,40919,2021-05-10_18h22.01.542,judgeSpeechMusic_20210407_logNormShiftAmp,2020.1.2,MacIntel,60,,,,,,,,,,,,,,1,6.857755,,0,1,36,186,52,1,stimuli/stim_20210407_power2amp/equal_lnn_AM2.4Hz_58.m4a,,,
,,,,,,,,,,,,40919,2021-05-10_18h22.01.542,judgeSpeechMusic_20210407_logNormShiftAmp,2020.1.2,MacIntel,60,,,,,,,,,,,,,,1,21.69158,,0,1,37,187,83,1,stimuli/stim_20210407_power2amp/equal_lnn_AM3.6Hz_85.m4a,,,
,,,,,,,,,,,,40919,2021-05-10_18h22.01.542,judgeSpeechMusic_20210407_logNormShiftAmp,2020.1.2,MacIntel,60,,,,,,,,,,,,,,1,8.420705,,0,1,38,188,102,1,stimuli/stim_20210407_power2amp/equal_lnn_AM4.2Hz_46.m4a,,,
,,,,,,,,,,,,40919,2021-05-10_18h22.01.542,judgeSpeechMusic_20210407_logNormShiftAmp,2020.1.2,MacIntel,60,,,,,,,,,,,,,,1,5.909125,,0,1,39,189,119,1,stimuli/stim_20210407_power2amp/equal_lnn_AM4.8Hz_74.m4a,,,
,,,,,,,,,,,,40919,2021-05-10_18h22.01.542,judgeSpeechMusic_20210407_logNormShiftAmp,2020.1.2,MacIntel,60,,,,,,,,,,,,,,1,6.355,,0,1,40,190,96,1,stimuli/stim_20210407_power2amp/equal_lnn_AM4.2Hz_51.m4a,,,
,,,,,,,,,,,,40919,2021-05-10_18h22.01.542,judgeSpeechMusic_20210407_logNormShiftAmp,2020.1.2,MacIntel,60,,,,,,,,,,,,,,1,6.638205,,0,1,41,191,86,1,stimuli/stim_20210407_power2amp/equal_lnn_AM3.6Hz_29.m4a,,,
,,,,,,,,,,,,40919,2021-05-10_18h22.01.542,judgeSpeechMusic_20210407_logNormShiftAmp,2020.1.2,MacIntel,60,,,,,,,,,,,,,,1,9.653295,,0,1,42,192,16,1,stimuli/stim_20210407_power2amp/equal_lnn_AM1.2Hz_30.m4a,,,
,,,,,,,,,,,,40919,2021-05-10_18h22.01.542,judgeSpeechMusic_20210407_logNormShiftAmp,2020.1.2,MacIntel,60,,,,,,,,,,,,,,1,7.470795,,0,1,43,193,126,1,stimuli/stim_20210407_power2amp/equal_lnn_AM5.4Hz_99.m4a,,,
,,,,,,,,,,,,40919,2021-05-10_18h22.01.542,judgeSpeechMusic_20210407_logNormShiftAmp,2020.1.2,MacIntel,60,,,,,,,,,,,,,,1,5.78863,3,1,1,44,194,22,1,stimuli/stim_20210407_power2amp/equal_lnn_AM1.2Hz_72.m4a,1.355455,,
,,,,,,,,,,,,40919,2021-05-10_18h22.01.542,judgeSpeechMusic_20210407_logNormShiftAmp,2020.1.2,MacIntel,60,,,,,,,,,,,,,,1,5.570085,,0,1,45,195,42,1,stimuli/stim_20210407_power2amp/equal_lnn_AM1.8Hz_36.m4a,,,
,,,,,,,,,,,,40919,2021-05-10_18h22.01.542,judgeSpeechMusic_20210407_logNormShiftAmp,2020.1.2,MacIntel,60,,,,,,,,,,,,,,1,5.788125,,0,1,46,196,5,1,stimuli/stim_20210407_power2amp/equal_lnn_AM0.6Hz_61.m4a,,,
,,,,,,,,,,,,40919,2021-05-10_18h22.01.542,judgeSpeechMusic_20210407_logNormShiftAmp,2020.1.2,MacIntel,60,,,,,,,,,,,,,,1,6.27025,,0,1,47,197,131,1,stimuli/stim_20210407_power2amp/equal_lnn_AM5.4Hz_93.m4a,,,
,,,,,,,,,,,,40919,2021-05-10_18h22.01.542,judgeSpeechMusic_20210407_logNormShiftAmp,2020.1.2,MacIntel,60,,,,,,,,,,,,,,2,7.439,,0,1,48,198,68,1,stimuli/stim_20210407_power2amp/equal_lnn_AM3Hz_97.m4a,,,
,,,,,,,,,,,,40919,2021-05-10_18h22.01.542,judgeSpeechMusic_20210407_logNormShiftAmp,2020.1.2,MacIntel,60,,,,,,,,,,,,,,2,6.20754,,0,1,49,199,25,1,stimuli/stim_20210407_power2amp/equal_lnn_AM1.2Hz_42.m4a,,,
,,,,,,,,,,,,40919,2021-05-10_18h22.01.542,judgeSpeechMusic_20210407_logNormShiftAmp,2020.1.2,MacIntel,60,,,,,,,,,,,,,,2,5.44683,,0,1,50,200,84,1,stimuli/stim_20210407_power2amp/equal_lnn_AM3.6Hz_89.m4a,,,
,,,,,,,,,,,,40919,2021-05-10_18h22.01.542,judgeSpeechMusic_20210407_logNormShiftAmp,2020.1.2,MacIntel,60,,,,,,,,,,,,,,2,5.77025,,0,1,51,201,40,1,stimuli/stim_20210407_power2amp/equal_lnn_AM1.8Hz_11.m4a,,,
,,,,,,,,,,,,40919,2021-05-10_18h22.01.542,judgeSpeechMusic_20210407_logNormShiftAmp,2020.1.2,MacIntel,60,,,,,,,,,,,,,,2,5.568415,,0,1,52,202,73,1,stimuli/stim_20210407_power2amp/equal_lnn_AM3Hz_60.m4a,,,
,,,,,,,,,,,,40919,2021-05-10_18h22.01.542,judgeSpeechMusic_20210407_logNormShiftAmp,2020.1.2,MacIntel,60,,,,,,,,,,,,,,2,5.995335,,0,1,53,203,93,1,stimuli/stim_20210407_power2amp/equal_lnn_AM4.2Hz_38.m4a,,,
,,,,,,,,,,,,40919,2021-05-10_18h22.01.542,judgeSpeechMusic_20210407_logNormShiftAmp,2020.1.2,MacIntel,60,,,,,,,,,,,,,,2,5.877375,,0,1,54,204,19,1,stimuli/stim_20210407_power2amp/equal_lnn_AM1.2Hz_26.m4a,,,
,,,,,,,,,,,,40919,2021-05-10_18h22.01.542,judgeSpeechMusic_20210407_logNormShiftAmp,2020.1.2,MacIntel,60,,,,,,,,,,,,,,2,5.455995,,0,1,55,205,103,1,stimuli/stim_20210407_power2amp/equal_lnn_AM4.2Hz_94.m4a,,,
,,,,,,,,,,,,40919,2021-05-10_18h22.01.542,judgeSpeechMusic_20210407_logNormShiftAmp,2020.1.2,MacIntel,60,,,,,,,,,,,,,,2,6.019415,,0,1,56,206,1,1,stimuli/stim_20210407_power2amp/equal_lnn_AM0.6Hz_81.m4a,,,
,,,,,,,,,,,,40919,2021-05-10_18h22.01.542,judgeSpeechMusic_20210407_logNormShiftAmp,2020.1.2,MacIntel,60,,,,,,,,,,,,,,2,7.59583,,0,1,57,207,43,1,stimuli/stim_20210407_power2amp/equal_lnn_AM1.8Hz_73.m4a,,,
,,,,,,,,,,,,40919,2021-05-10_18h22.01.542,judgeSpeechMusic_20210407_logNormShiftAmp,2020.1.2,MacIntel,60,,,,,,,,,,,,,,1,6.145415,,0,1,58,208,53,1,stimuli/stim_20210407_power2amp/equal_lnn_AM2.4Hz_85.m4a,,,
,,,,,,,,,,,,40919,2021-05-10_18h22.01.542,judgeSpeechMusic_20210407_logNormShiftAmp,2020.1.2,MacIntel,60,,,,,,,,,,,,,,1,5.68546,,0,1,59,209,6,1,stimuli/stim_20210407_power2amp/equal_lnn_AM0.6Hz_27.m4a,,,
,,,,,,,,,,,,40919,2021-05-10_18h22.01.542,judgeSpeechMusic_20210407_logNormShiftAmp,2020.1.2,MacIntel,60,,,,,,,,,,,,,,1,5.62425,,0,1,60,210,54,1,stimuli/stim_20210407_power2amp/equal_lnn_AM2.4Hz_30.m4a,,,
,,,,,,,,,,,,40919,2021-05-10_18h22.01.542,judgeSpeechMusic_20210407_logNormShiftAmp,2020.1.2,MacIntel,60,,,,,,,,,,,,,,1,6.53021,,0,1,61,211,115,1,stimuli/stim_20210407_power2amp/equal_lnn_AM4.8Hz_53.m4a,,,
,,,,,,,,,,,,40919,2021-05-10_18h22.01.542,judgeSpeechMusic_20210407_logNormShiftAmp,2020.1.2,MacIntel,60,,,,,,,,,,,,,,2,6.39525,,0,1,62,212,76,1,stimuli/stim_20210407_power2amp/equal_lnn_AM3.6Hz_11.m4a,,,
,,,,,,,,,,,,40919,2021-05-10_18h22.01.542,judgeSpeechMusic_20210407_logNormShiftAmp,2020.1.2,MacIntel,60,,,,,,,,,,,,,,2,5.50542,,0,1,63,213,33,1,stimuli/stim_20210407_power2amp/equal_lnn_AM1.8Hz_7.m4a,,,
,,,,,,,,,,,,40919,2021-05-10_18h22.01.542,judgeSpeechMusic_20210407_logNormShiftAmp,2020.1.2,MacIntel,60,,,,,,,,,,,,,,2,7.88879,,0,1,64,214,104,1,stimuli/stim_20210407_power2amp/equal_lnn_AM4.2Hz_100.m4a,,,
,,,,,,,,,,,,40919,2021-05-10_18h22.01.542,judgeSpeechMusic_20210407_logNormShiftAmp,2020.1.2,MacIntel,60,,,,,,,,,,,,,,2,5.62096,1,1,1,65,215,70,1,stimuli/stim_20210407_power2amp/equal_lnn_AM3Hz_49.m4a,0.9725,,
,,,,,,,,,,,,40919,2021-05-10_18h22.01.542,judgeSpeechMusic_20210407_logNormShiftAmp,2020.1.2,MacIntel,60,,,,,,,,,,,,,,1,5.57825,,0,1,66,216,106,1,stimuli/stim_20210407_power2amp/equal_lnn_AM4.8Hz_13.m4a,,,
,,,,,,,,,,,,40919,2021-05-10_18h22.01.542,judgeSpeechMusic_20210407_logNormShiftAmp,2020.1.2,MacIntel,60,,,,,,,,,,,,,,1,6.37017,,0,1,67,217,145,1,stimuli/stim_20210407_power2amp/equal_lnn_AM6Hz_9.m4a,,,
,,,,,,,,,,,,40919,2021-05-10_18h22.01.542,judgeSpeechMusic_20210407_logNormShiftAmp,2020.1.2,MacIntel,60,,,,,,,,,,,,,,1,5.862955,,0,1,68,218,87,1,stimuli/stim_20210407_power2amp/equal_lnn_AM3.6Hz_16.m4a,,,
,,,,,,,,,,,,40919,2021-05-10_18h22.01.542,judgeSpeechMusic_20210407_logNormShiftAmp,2020.1.2,MacIntel,60,,,,,,,,,,,,,,2,6.839585,,0,1,69,219,4,1,stimuli/stim_20210407_power2amp/equal_lnn_AM0.6Hz_48.m4a,,,
,,,,,,,,,,,,40919,2021-05-10_18h22.01.542,judgeSpeechMusic_20210407_logNormShiftAmp,2020.1.2,MacIntel,60,,,,,,,,,,,,,,2,5.955415,,0,1,70,220,124,1,stimuli/stim_20210407_power2amp/equal_lnn_AM5.4Hz_67.m4a,,,
,,,,,,,,,,,,40919,2021-05-10_18h22.01.542,judgeSpeechMusic_20210407_logNormShiftAmp,2020.1.2,MacIntel,60,,,,,,,,,,,,,,2,6.170375,,0,1,71,221,144,1,stimuli/stim_20210407_power2amp/equal_lnn_AM6Hz_1.m4a,,,
,,,,,,,,,,,,40919,2021-05-10_18h22.01.542,judgeSpeechMusic_20210407_logNormShiftAmp,2020.1.2,MacIntel,60,,,,,,,,,,,,,,2,8.426955,,0,1,72,222,11,1,stimuli/stim_20210407_power2amp/equal_lnn_AM0.6Hz_60.m4a,,,
,,,,,,,,,,,,40919,2021-05-10_18h22.01.542,judgeSpeechMusic_20210407_logNormShiftAmp,2020.1.2,MacIntel,60,,,,,,,,,,,,,,1,5.991915,,0,1,73,223,128,1,stimuli/stim_20210407_power2amp/equal_lnn_AM5.4Hz_31.m4a,,,
,,,,,,,,,,,,40919,2021-05-10_18h22.01.542,judgeSpeechMusic_20210407_logNormShiftAmp,2020.1.2,MacIntel,60,,,,,,,,,,,,,,1,5.666755,,0,1,74,224,133,1,stimuli/stim_20210407_power2amp/equal_lnn_AM5.4Hz_27.m4a,,,
,,,,,,,,,,,,40919,2021-05-10_18h22.01.542,judgeSpeechMusic_20210407_logNormShiftAmp,2020.1.2,MacIntel,60,,,,,,,,,,,,,,1,6.227125,,0,1,75,225,48,1,stimuli/stim_20210407_power2amp/equal_lnn_AM2.4Hz_3.m4a,,,
,,,,,,,,,,,,40919,2021-05-10_18h22.01.542,judgeSpeechMusic_20210407_logNormShiftAmp,2020.1.2,MacIntel,60,,,,,,,,,,,,,,1,5.990205,,0,1,76,226,92,1,stimuli/stim_20210407_power2amp/equal_lnn_AM4.2Hz_49.m4a,,,
,,,,,,,,,,,,40919,2021-05-10_18h22.01.542,judgeSpeechMusic_20210407_logNormShiftAmp,2020.1.2,MacIntel,60,,,,,,,,,,,,,,1,11.860295,,0,1,77,227,14,1,stimuli/stim_20210407_power2amp/equal_lnn_AM0.6Hz_4.m4a,,,
,,,,,,,,,,,,40919,2021-05-10_18h22.01.542,judgeSpeechMusic_20210407_logNormShiftAmp,2020.1.2,MacIntel,60,,,,,,,,,,,,,,2,5.948795,,0,1,78,228,117,1,stimuli/stim_20210407_power2amp/equal_lnn_AM4.8Hz_47.m4a,,,
,,,,,,,,,,,,40919,2021-05-10_18h22.01.542,judgeSpeechMusic_20210407_logNormShiftAmp,2020.1.2,MacIntel,60,,,,,,,,,,,,,,2,5.886295,,0,1,79,229,88,1,stimuli/stim_20210407_power2amp/equal_lnn_AM3.6Hz_15.m4a,,,
,,,,,,,,,,,,40919,2021-05-10_18h22.01.542,judgeSpeechMusic_20210407_logNormShiftAmp,2020.1.2,MacIntel,60,,,,,,,,,,,,,,2,5.755955,,0,1,80,230,75,1,stimuli/stim_20210407_power2amp/equal_lnn_AM3.6Hz_40.m4a,,,
,,,,,,,,,,,,40919,2021-05-10_18h22.01.542,judgeSpeechMusic_20210407_logNormShiftAmp,2020.1.2,MacIntel,60,,,,,,,,,,,,,,2,7.87075,,0,1,81,231,101,1,stimuli/stim_20210407_power2amp/equal_lnn_AM4.2Hz_63.m4a,,,
,,,,,,,,,,,,40919,2021-05-10_18h22.01.542,judgeSpeechMusic_20210407_logNormShiftAmp,2020.1.2,MacIntel,60,,,,,,,,,,,,,,2,9.27825,,0,1,82,232,58,1,stimuli/stim_20210407_power2amp/equal_lnn_AM2.4Hz_34.m4a,,,
,,,,,,,,,,,,40919,2021-05-10_18h22.01.542,judgeSpeechMusic_20210407_logNormShiftAmp,2020.1.2,MacIntel,60,,,,,,,,,,,,,,2,5.88575,,0,1,83,233,46,1,stimuli/stim_20210407_power2amp/equal_lnn_AM2.4Hz_100.m4a,,,
,,,,,,,,,,,,40919,2021-05-10_18h22.01.542,judgeSpeechMusic_20210407_logNormShiftAmp,2020.1.2,MacIntel,60,,,,,,,,,,,,,,2,7.69067,,0,1,84,234,37,1,stimuli/stim_20210407_power2amp/equal_lnn_AM1.8Hz_25.m4a,,,
,,,,,,,,,,,,40919,2021-05-10_18h22.01.542,judgeSpeechMusic_20210407_logNormShiftAmp,2020.1.2,MacIntel,60,,,,,,,,,,,,,,2,6.191875,,0,1,85,235,60,1,stimuli/stim_20210407_power2amp/equal_lnn_AM3Hz_24.m4a,,,
,,,,,,,,,,,,40919,2021-05-10_18h22.01.542,judgeSpeechMusic_20210407_logNormShiftAmp,2020.1.2,MacIntel,60,,,,,,,,,,,,,,2,6.61046,2,1,1,86,236,67,1,stimuli/stim_20210407_power2amp/equal_lnn_AM3Hz_96.m4a,1.364795,,
,,,,,,,,,,,,40919,2021-05-10_18h22.01.542,judgeSpeechMusic_20210407_logNormShiftAmp,2020.1.2,MacIntel,60,,,,,,,,,,,,,,2,6.254585,,0,1,87,237,91,1,stimuli/stim_20210407_power2amp/equal_lnn_AM4.2Hz_55.m4a,,,
,,,,,,,,,,,,40919,2021-05-10_18h22.01.542,judgeSpeechMusic_20210407_logNormShiftAmp,2020.1.2,MacIntel,60,,,,,,,,,,,,,,2,5.94421,,0,1,88,238,122,1,stimuli/stim_20210407_power2amp/equal_lnn_AM5.4Hz_45.m4a,,,
,,,,,,,,,,,,40919,2021-05-10_18h22.01.542,judgeSpeechMusic_20210407_logNormShiftAmp,2020.1.2,MacIntel,60,,,,,,,,,,,,,,2,5.572205,,0,1,89,239,15,1,stimuli/stim_20210407_power2amp/equal_lnn_AM1.2Hz_36.m4a,,,
,,,,,,,,,,,,40919,2021-05-10_18h22.01.542,judgeSpeechMusic_20210407_logNormShiftAmp,2020.1.2,MacIntel,60,,,,,,,,,,,,,,2,6.258955,,0,1,90,240,49,1,stimuli/stim_20210407_power2amp/equal_lnn_AM2.4Hz_63.m4a,,,
,,,,,,,,,,,,40919,2021-05-10_18h22.01.542,judgeSpeechMusic_20210407_logNormShiftAmp,2020.1.2,MacIntel,60,,,,,,,,,,,,,,2,6.08546,,0,1,91,241,89,1,stimuli/stim_20210407_power2amp/equal_lnn_AM3.6Hz_73.m4a,,,
,,,,,,,,,,,,40919,2021-05-10_18h22.01.542,judgeSpeechMusic_20210407_logNormShiftAmp,2020.1.2,MacIntel,60,,,,,,,,,,,,,,2,5.51162,,0,1,92,242,116,1,stimuli/stim_20210407_power2amp/equal_lnn_AM4.8Hz_18.m4a,,,
,,,,,,,,,,,,40919,2021-05-10_18h22.01.542,judgeSpeechMusic_20210407_logNormShiftAmp,2020.1.2,MacIntel,60,,,,,,,,,,,,,,2,6.0045,,0,1,93,243,143,1,stimuli/stim_20210407_power2amp/equal_lnn_AM6Hz_90.m4a,,,
,,,,,,,,,,,,40919,2021-05-10_18h22.01.542,judgeSpeechMusic_20210407_logNormShiftAmp,2020.1.2,MacIntel,60,,,,,,,,,,,,,,2,5.891,,0,1,94,244,140,1,stimuli/stim_20210407_power2amp/equal_lnn_AM6Hz_12.m4a,,,
,,,,,,,,,,,,40919,2021-05-10_18h22.01.542,judgeSpeechMusic_20210407_logNormShiftAmp,2020.1.2,MacIntel,60,,,,,,,,,,,,,,2,6.240375,,0,1,95,245,7,1,stimuli/stim_20210407_power2amp/equal_lnn_AM0.6Hz_57.m4a,,,
,,,,,,,,,,,,40919,2021-05-10_18h22.01.542,judgeSpeechMusic_20210407_logNormShiftAmp,2020.1.2,MacIntel,60,,,,,,,,,,,,,,2,5.863165,,0,1,96,246,123,1,stimuli/stim_20210407_power2amp/equal_lnn_AM5.4Hz_77.m4a,,,
,,,,,,,,,,,,40919,2021-05-10_18h22.01.542,judgeSpeechMusic_20210407_logNormShiftAmp,2020.1.2,MacIntel,60,,,,,,,,,,,,,,2,7.65675,,0,1,97,247,69,1,stimuli/stim_20210407_power2amp/equal_lnn_AM3Hz_54.m4a,,,
,,,,,,,,,,,,40919,2021-05-10_18h22.01.542,judgeSpeechMusic_20210407_logNormShiftAmp,2020.1.2,MacIntel,60,,,,,,,,,,,,,,2,6.959255,,0,1,98,248,135,1,stimuli/stim_20210407_power2amp/equal_lnn_AM6Hz_76.m4a,,,
,,,,,,,,,,,,40919,2021-05-10_18h22.01.542,judgeSpeechMusic_20210407_logNormShiftAmp,2020.1.2,MacIntel,60,,,,,,,,,,,,,,2,6.119745,,0,1,99,249,99,1,stimuli/stim_20210407_power2amp/equal_lnn_AM4.2Hz_93.m4a,,,
,,,,,,,,,,,,40919,2021-05-10_18h22.01.542,judgeSpeechMusic_20210407_logNormShiftAmp,2020.1.2,MacIntel,60,,,,,,,,,,,,,,2,6.33954,,0,1,100,250,107,1,stimuli/stim_20210407_power2amp/equal_lnn_AM4.8Hz_56.m4a,,,
,,,,,,,,,,,,40919,2021-05-10_18h22.01.542,judgeSpeechMusic_20210407_logNormShiftAmp,2020.1.2,MacIntel,60,,,,,,,,,,,,,,2,6.40175,,0,1,101,251,9,1,stimuli/stim_20210407_power2amp/equal_lnn_AM0.6Hz_49.m4a,,,
,,,,,,,,,,,,40919,2021-05-10_18h22.01.542,judgeSpeechMusic_20210407_logNormShiftAmp,2020.1.2,MacIntel,60,,,,,,,,,,,,,,2,5.60246,,0,1,102,252,109,1,stimuli/stim_20210407_power2amp/equal_lnn_AM4.8Hz_85.m4a,,,
,,,,,,,,,,,,40919,2021-05-10_18h22.01.542,judgeSpeechMusic_20210407_logNormShiftAmp,2020.1.2,MacIntel,60,,,,,,,,,,,,,,2,5.570125,,0,1,103,253,38,1,stimuli/stim_20210407_power2amp/equal_lnn_AM1.8Hz_90.m4a,,,
,,,,,,,,,,,,40919,2021-05-10_18h22.01.542,judgeSpeechMusic_20210407_logNormShiftAmp,2020.1.2,MacIntel,60,,,,,,,,,,,,,,2,5.79992,,0,1,104,254,95,1,stimuli/stim_20210407_power2amp/equal_lnn_AM4.2Hz_6.m4a,,,
,,,,,,,,,,,,40919,2021-05-10_18h22.01.542,judgeSpeechMusic_20210407_logNormShiftAmp,2020.1.2,MacIntel,60,,,,,,,,,,,,,,2,7.31954,,0,1,105,255,108,1,stimuli/stim_20210407_power2amp/equal_lnn_AM4.8Hz_34.m4a,,,
,,,,,,,,,,,,40919,2021-05-10_18h22.01.542,judgeSpeechMusic_20210407_logNormShiftAmp,2020.1.2,MacIntel,60,,,,,,,,,,,,,,2,7.64233,,0,1,106,256,130,1,stimuli/stim_20210407_power2amp/equal_lnn_AM5.4Hz_60.m4a,,,
,,,,,,,,,,,,40919,2021-05-10_18h22.01.542,judgeSpeechMusic_20210407_logNormShiftAmp,2020.1.2,MacIntel,60,,,,,,,,,,,,,,2,6.604545,4,1,1,107,257,111,1,stimuli/stim_20210407_power2amp/equal_lnn_AM4.8Hz_89.m4a,0.538,,
,,,,,,,,,,,,40919,2021-05-10_18h22.01.542,judgeSpeechMusic_20210407_logNormShiftAmp,2020.1.2,MacIntel,60,,,,,,,,,,,,,,2,7.03083,,0,1,108,258,3,1,stimuli/stim_20210407_power2amp/equal_lnn_AM0.6Hz_47.m4a,,,
,,,,,,,,,,,,40919,2021-05-10_18h22.01.542,judgeSpeechMusic_20210407_logNormShiftAmp,2020.1.2,MacIntel,60,,,,,,,,,,,,,,2,10.463255,,0,1,109,259,112,1,stimuli/stim_20210407_power2amp/equal_lnn_AM4.8Hz_10.m4a,,,
,,,,,,,,,,,,40919,2021-05-10_18h22.01.542,judgeSpeechMusic_20210407_logNormShiftAmp,2020.1.2,MacIntel,60,,,,,,,,,,,,,,1,6.576125,,0,1,110,260,71,1,stimuli/stim_20210407_power2amp/equal_lnn_AM3Hz_87.m4a,,,
,,,,,,,,,,,,40919,2021-05-10_18h22.01.542,judgeSpeechMusic_20210407_logNormShiftAmp,2020.1.2,MacIntel,60,,,,,,,,,,,,,,1,5.67075,,0,1,111,261,44,1,stimuli/stim_20210407_power2amp/equal_lnn_AM1.8Hz_78.m4a,,,
,,,,,,,,,,,,40919,2021-05-10_18h22.01.542,judgeSpeechMusic_20210407_logNormShiftAmp,2020.1.2,MacIntel,60,,,,,,,,,,,,,,1,5.505045,,0,1,112,262,90,1,stimuli/stim_20210407_power2amp/equal_lnn_AM4.2Hz_10.m4a,,,
,,,,,,,,,,,,40919,2021-05-10_18h22.01.542,judgeSpeechMusic_20210407_logNormShiftAmp,2020.1.2,MacIntel,60,,,,,,,,,,,,,,1,5.49146,,0,1,113,263,30,1,stimuli/stim_20210407_power2amp/equal_lnn_AM1.8Hz_8.m4a,,,
,,,,,,,,,,,,40919,2021-05-10_18h22.01.542,judgeSpeechMusic_20210407_logNormShiftAmp,2020.1.2,MacIntel,60,,,,,,,,,,,,,,2,6.622585,,0,1,114,264,50,1,stimuli/stim_20210407_power2amp/equal_lnn_AM2.4Hz_32.m4a,,,
,,,,,,,,,,,,40919,2021-05-10_18h22.01.542,judgeSpeechMusic_20210407_logNormShiftAmp,2020.1.2,MacIntel,60,,,,,,,,,,,,,,2,5.79433,,0,1,115,265,118,1,stimuli/stim_20210407_power2amp/equal_lnn_AM4.8Hz_29.m4a,,,
,,,,,,,,,,,,40919,2021-05-10_18h22.01.542,judgeSpeechMusic_20210407_logNormShiftAmp,2020.1.2,MacIntel,60,,,,,,,,,,,,,,2,9.295795,,0,1,116,266,56,1,stimuli/stim_20210407_power2amp/equal_lnn_AM2.4Hz_73.m4a,,,
,,,,,,,,,,,,40919,2021-05-10_18h22.01.542,judgeSpeechMusic_20210407_logNormShiftAmp,2020.1.2,MacIntel,60,,,,,,,,,,,,,,2,6.096045,,0,1,117,267,100,1,stimuli/stim_20210407_power2amp/equal_lnn_AM4.2Hz_1.m4a,,,
,,,,,,,,,,,,40919,2021-05-10_18h22.01.542,judgeSpeechMusic_20210407_logNormShiftAmp,2020.1.2,MacIntel,60,,,,,,,,,,,,,,2,5.647755,,0,1,118,268,81,1,stimuli/stim_20210407_power2amp/equal_lnn_AM3.6Hz_1.m4a,,,
,,,,,,,,,,,,40919,2021-05-10_18h22.01.542,judgeSpeechMusic_20210407_logNormShiftAmp,2020.1.2,MacIntel,60,,,,,,,,,,,,,,2,6.337625,,0,1,119,269,149,1,stimuli/stim_20210407_power2amp/equal_lnn_AM6Hz_20.m4a,,,
,,,,,,,,,,,,40919,2021-05-10_18h22.01.542,judgeSpeechMusic_20210407_logNormShiftAmp,2020.1.2,MacIntel,60,,,,,,,,,,,,,,2,10.20546,,0,1,120,270,125,1,stimuli/stim_20210407_power2amp/equal_lnn_AM5.4Hz_6.m4a,,,
,,,,,,,,,,,,40919,2021-05-10_18h22.01.542,judgeSpeechMusic_20210407_logNormShiftAmp,2020.1.2,MacIntel,60,,,,,,,,,,,,,,2,7.437,,0,1,121,271,79,1,stimuli/stim_20210407_power2amp/equal_lnn_AM3.6Hz_8.m4a,,,
,,,,,,,,,,,,40919,2021-05-10_18h22.01.542,judgeSpeechMusic_20210407_logNormShiftAmp,2020.1.2,MacIntel,60,,,,,,,,,,,,,,2,6.200125,,0,1,122,272,29,1,stimuli/stim_20210407_power2amp/equal_lnn_AM1.2Hz_84.m4a,,,
,,,,,,,,,,,,40919,2021-05-10_18h22.01.542,judgeSpeechMusic_20210407_logNormShiftAmp,2020.1.2,MacIntel,60,,,,,,,,,,,,,,1,6.294915,,0,1,123,273,2,1,stimuli/stim_20210407_power2amp/equal_lnn_AM0.6Hz_18.m4a,,,
,,,,,,,,,,,,40919,2021-05-10_18h22.01.542,judgeSpeechMusic_20210407_logNormShiftAmp,2020.1.2,MacIntel,60,,,,,,,,,,,,,,1,7.014585,,0,1,124,274,66,1,stimuli/stim_20210407_power2amp/equal_lnn_AM3Hz_77.m4a,,,
,,,,,,,,,,,,40919,2021-05-10_18h22.01.542,judgeSpeechMusic_20210407_logNormShiftAmp,2020.1.2,MacIntel,60,,,,,,,,,,,,,,2,6.232375,,0,1,125,275,127,1,stimuli/stim_20210407_power2amp/equal_lnn_AM5.4Hz_12.m4a,,,
,,,,,,,,,,,,40919,2021-05-10_18h22.01.542,judgeSpeechMusic_20210407_logNormShiftAmp,2020.1.2,MacIntel,60,,,,,,,,,,,,,,2,5.75217,,0,1,126,276,78,1,stimuli/stim_20210407_power2amp/equal_lnn_AM3.6Hz_34.m4a,,,
,,,,,,,,,,,,40919,2021-05-10_18h22.01.542,judgeSpeechMusic_20210407_logNormShiftAmp,2020.1.2,MacIntel,60,,,,,,,,,,,,,,2,5.545585,3,1,1,127,277,82,1,stimuli/stim_20210407_power2amp/equal_lnn_AM3.6Hz_87.m4a,1.37225,,
,,,,,,,,,,,,40919,2021-05-10_18h22.01.542,judgeSpeechMusic_20210407_logNormShiftAmp,2020.1.2,MacIntel,60,,,,,,,,,,,,,,2,5.676165,,0,1,128,278,110,1,stimuli/stim_20210407_power2amp/equal_lnn_AM4.8Hz_75.m4a,,,
,,,,,,,,,,,,40919,2021-05-10_18h22.01.542,judgeSpeechMusic_20210407_logNormShiftAmp,2020.1.2,MacIntel,60,,,,,,,,,,,,,,2,6.50979,,0,1,129,279,64,1,stimuli/stim_20210407_power2amp/equal_lnn_AM3Hz_83.m4a,,,
,,,,,,,,,,,,40919,2021-05-10_18h22.01.542,judgeSpeechMusic_20210407_logNormShiftAmp,2020.1.2,MacIntel,60,,,,,,,,,,,,,,1,5.92092,,0,1,130,280,23,1,stimuli/stim_20210407_power2amp/equal_lnn_AM1.2Hz_47.m4a,,,
,,,,,,,,,,,,40919,2021-05-10_18h22.01.542,judgeSpeechMusic_20210407_logNormShiftAmp,2020.1.2,MacIntel,60,,,,,,,,,,,,,,1,5.696165,,0,1,131,281,51,1,stimuli/stim_20210407_power2amp/equal_lnn_AM2.4Hz_33.m4a,,,
,,,,,,,,,,,,40919,2021-05-10_18h22.01.542,judgeSpeechMusic_20210407_logNormShiftAmp,2020.1.2,MacIntel,60,,,,,,,,,,,,,,1,5.53725,,0,1,132,282,41,1,stimuli/stim_20210407_power2amp/equal_lnn_AM1.8Hz_3.m4a,,,
,,,,,,,,,,,,40919,2021-05-10_18h22.01.542,judgeSpeechMusic_20210407_logNormShiftAmp,2020.1.2,MacIntel,60,,,,,,,,,,,,,,1,5.75758,,0,1,133,283,0,1,stimuli/stim_20210407_power2amp/equal_lnn_AM0.6Hz_91.m4a,,,
,,,,,,,,,,,,40919,2021-05-10_18h22.01.542,judgeSpeechMusic_20210407_logNormShiftAmp,2020.1.2,MacIntel,60,,,,,,,,,,,,,,1,5.73696,,0,1,134,284,35,1,stimuli/stim_20210407_power2amp/equal_lnn_AM1.8Hz_41.m4a,,,
,,,,,,,,,,,,40919,2021-05-10_18h22.01.542,judgeSpeechMusic_20210407_logNormShiftAmp,2020.1.2,MacIntel,60,,,,,,,,,,,,,,1,5.854,,0,1,135,285,105,1,stimuli/stim_20210407_power2amp/equal_lnn_AM4.8Hz_57.m4a,,,
,,,,,,,,,,,,40919,2021-05-10_18h22.01.542,judgeSpeechMusic_20210407_logNormShiftAmp,2020.1.2,MacIntel,60,,,,,,,,,,,,,,1,8.120245,,0,1,136,286,61,1,stimuli/stim_20210407_power2amp/equal_lnn_AM3Hz_30.m4a,,,
,,,,,,,,,,,,40919,2021-05-10_18h22.01.542,judgeSpeechMusic_20210407_logNormShiftAmp,2020.1.2,MacIntel,60,,,,,,,,,,,,,,1,6.69475,,0,1,137,287,136,1,stimuli/stim_20210407_power2amp/equal_lnn_AM6Hz_28.m4a,,,
,,,,,,,,,,,,40919,2021-05-10_18h22.01.542,judgeSpeechMusic_20210407_logNormShiftAmp,2020.1.2,MacIntel,60,,,,,,,,,,,,,,1,8.745125,,0,1,138,288,17,1,stimuli/stim_20210407_power2amp/equal_lnn_AM1.2Hz_77.m4a,,,
,,,,,,,,,,,,40919,2021-05-10_18h22.01.542,judgeSpeechMusic_20210407_logNormShiftAmp,2020.1.2,MacIntel,60,,,,,,,,,,,,,,2,5.560915,,0,1,139,289,142,1,stimuli/stim_20210407_power2amp/equal_lnn_AM6Hz_31.m4a,,,
,,,,,,,,,,,,40919,2021-05-10_18h22.01.542,judgeSpeechMusic_20210407_logNormShiftAmp,2020.1.2,MacIntel,60,,,,,,,,,,,,,,2,5.544665,,0,1,140,290,31,1,stimuli/stim_20210407_power2amp/equal_lnn_AM1.8Hz_49.m4a,,,
,,,,,,,,,,,,40919,2021-05-10_18h22.01.542,judgeSpeechMusic_20210407_logNormShiftAmp,2020.1.2,MacIntel,60,,,,,,,,,,,,,,2,5.62875,,0,1,141,291,137,1,stimuli/stim_20210407_power2amp/equal_lnn_AM6Hz_94.m4a,,,
,,,,,,,,,,,,40919,2021-05-10_18h22.01.542,judgeSpeechMusic_20210407_logNormShiftAmp,2020.1.2,MacIntel,60,,,,,,,,,,,,,,1,5.52725,,0,1,142,292,12,1,stimuli/stim_20210407_power2amp/equal_lnn_AM0.6Hz_53.m4a,,,
,,,,,,,,,,,,40919,2021-05-10_18h22.01.542,judgeSpeechMusic_20210407_logNormShiftAmp,2020.1.2,MacIntel,60,,,,,,,,,,,,,,1,7.652875,,0,1,143,293,74,1,stimuli/stim_20210407_power2amp/equal_lnn_AM3Hz_25.m4a,,,
,,,,,,,,,,,,40919,2021-05-10_18h22.01.542,judgeSpeechMusic_20210407_logNormShiftAmp,2020.1.2,MacIntel,60,,,,,,,,,,,,,,2,7.38754,,0,1,144,294,26,1,stimuli/stim_20210407_power2amp/equal_lnn_AM1.2Hz_86.m4a,,,
,,,,,,,,,,,,40919,2021-05-10_18h22.01.542,judgeSpeechMusic_20210407_logNormShiftAmp,2020.1.2,MacIntel,60,,,,,,,,,,,,,,2,6.320165,,0,1,145,295,138,1,stimuli/stim_20210407_power2amp/equal_lnn_AM6Hz_52.m4a,,,
,,,,,,,,,,,,40919,2021-05-10_18h22.01.542,judgeSpeechMusic_20210407_logNormShiftAmp,2020.1.2,MacIntel,60,,,,,,,,,,,,,,2,6.278255,,0,1,146,296,132,1,stimuli/stim_20210407_power2amp/equal_lnn_AM5.4Hz_75.m4a,,,
,,,,,,,,,,,,40919,2021-05-10_18h22.01.542,judgeSpeechMusic_20210407_logNormShiftAmp,2020.1.2,MacIntel,60,,,,,,,,,,,,,,2,6.054085,,0,1,147,297,80,1,stimuli/stim_20210407_power2amp/equal_lnn_AM3.6Hz_44.m4a,,,
,,,,,,,,,,,,40919,2021-05-10_18h22.01.542,judgeSpeechMusic_20210407_logNormShiftAmp,2020.1.2,MacIntel,60,,,,,,,,,,,,,,1,7.5725,,0,1,148,298,39,1,stimuli/stim_20210407_power2amp/equal_lnn_AM1.8Hz_28.m4a,,,
,,,,,,,,,,,,40919,2021-05-10_18h22.01.542,judgeSpeechMusic_20210407_logNormShiftAmp,2020.1.2,MacIntel,60,,,,,,,,,,,,,,1,7.268245,,0,1,149,299,85,1,stimuli/stim_20210407_power2amp/equal_lnn_AM3.6Hz_71.m4a,,,
,,,,,,,,,,,,40919,2021-05-10_18h22.01.542,judgeSpeechMusic_20210407_logNormShiftAmp,2020.1.2,MacIntel,60,,,,,,,,,,,,,,,,,,,,,,,,,space,7.25979
