volAdjustRep.thisRepN,volAdjustRep.thisTrialN,volAdjustRep.thisN,volAdjustRep.thisIndex,volAdjustRep.ran,participant,date,expName,psychopyVersion,OS,frameRate,headphoneResponse.keys,headphoneResponse.corr,headphoneResponse.rt,headphoneTrial.thisRepN,headphoneTrial.thisTrialN,headphoneTrial.thisN,headphoneTrial.thisIndex,headphoneTrial.ran,headphone_sound1,headphone_sound2,headphone_sound3,corrAns,trainSlider.response,trainSlider.rt,beepTrainResponse.keys,beepTrainResponse.corr,trainingTrials.thisRepN,trainingTrials.thisTrialN,trainingTrials.thisN,trainingTrials.thisIndex,trainingTrials.ran,trainAudioFile,beepTrainResponse.rt,readyReal_resp.keys,readyReal_resp.rt,ratingSlider.response,ratingSlider.rt,beepResp.keys,beepResp.corr,expTrials.thisRepN,expTrials.thisTrialN,expTrials.thisN,expTrials.thisIndex,expTrials.ran,audioFile,beepResp.rt,end_resp.keys,end_resp.rt
0,0,0,0,1,40938,2021-05-05_10h52.23.098,judgeSpeechMusic_20210407_logNormShiftAmp,2020.1.2,MacIntel,60,,,,,,,,,,,,,,,,,,,,,,,,,,,,,,,,,,,,,,
,,,,,40938,2021-05-05_10h52.23.098,judgeSpeechMusic_20210407_logNormShiftAmp,2020.1.2,MacIntel,60,2,1,0.02347,0,0,0,1,1,stimuli/screen_antiphase.wav,stimuli/screen_quiet.wav,stimuli/screen_origin.wav,2,,,,,,,,,,,,,,,,,,,,,,,,,,
,,,,,40938,2021-05-05_10h52.23.098,judgeSpeechMusic_20210407_logNormShiftAmp,2020.1.2,MacIntel,60,1,1,0.44058,0,1,1,5,1,stimuli/screen_quiet.wav,stimuli/screen_origin.wav,stimuli/screen_antiphase.wav,1,,,,,,,,,,,,,,,,,,,,,,,,,,
,,,,,40938,2021-05-05_10h52.23.098,judgeSpeechMusic_20210407_logNormShiftAmp,2020.1.2,MacIntel,60,1,1,0.80382,0,2,2,4,1,stimuli/screen_quiet.wav,stimuli/screen_antiphase.wav,stimuli/screen_origin.wav,1,,,,,,,,,,,,,,,,,,,,,,,,,,
,,,,,40938,2021-05-05_10h52.23.098,judgeSpeechMusic_20210407_logNormShiftAmp,2020.1.2,MacIntel,60,2,1,0.37758,0,3,3,3,1,stimuli/screen_origin.wav,stimuli/screen_quiet.wav,stimuli/screen_antiphase.wav,2,,,,,,,,,,,,,,,,,,,,,,,,,,
,,,,,40938,2021-05-05_10h52.23.098,judgeSpeechMusic_20210407_logNormShiftAmp,2020.1.2,MacIntel,60,3,1,0.28541,0,4,4,0,1,stimuli/screen_antiphase.wav,stimuli/screen_origin.wav,stimuli/screen_quiet.wav,3,,,,,,,,,,,,,,,,,,,,,,,,,,
,,,,,40938,2021-05-05_10h52.23.098,judgeSpeechMusic_20210407_logNormShiftAmp,2020.1.2,MacIntel,60,3,1,0.90727,0,5,5,2,1,stimuli/screen_origin.wav,stimuli/screen_antiphase.wav,stimuli/screen_quiet.wav,3,,,,,,,,,,,,,,,,,,,,,,,,,,
,,,,,40938,2021-05-05_10h52.23.098,judgeSpeechMusic_20210407_logNormShiftAmp,2020.1.2,MacIntel,60,,,,,,,,,,,,,1,15.68514,,0,0,0,0,2,1,stimuli/stim_20210407_power2amp/equal_lnn_AM_training3.9Hz.m4a,,,,,,,,,,,,,,,,
,,,,,40938,2021-05-05_10h52.23.098,judgeSpeechMusic_20210407_logNormShiftAmp,2020.1.2,MacIntel,60,,,,,,,,,,,,,1,9.003185,,0,0,1,1,0,1,stimuli/stim_20210407_power2amp/equal_lnn_AM_training1.5Hz.m4a,,,,,,,,,,,,,,,,
,,,,,40938,2021-05-05_10h52.23.098,judgeSpeechMusic_20210407_logNormShiftAmp,2020.1.2,MacIntel,60,,,,,,,,,,,,,1,6.087035,3,1,0,2,2,1,1,stimuli/stim_20210407_power2amp/equal_lnn_AM_training2.7Hz.m4a,8.621405,,,,,,,,,,,,,,,
,,,,,40938,2021-05-05_10h52.23.098,judgeSpeechMusic_20210407_logNormShiftAmp,2020.1.2,MacIntel,60,,,,,,,,,,,,,1,6.42902,,0,0,3,3,3,1,stimuli/stim_20210407_power2amp/equal_lnn_AM_training5.1Hz.m4a,,,,,,,,,,,,,,,,
,,,,,40938,2021-05-05_10h52.23.098,judgeSpeechMusic_20210407_logNormShiftAmp,2020.1.2,MacIntel,60,,,,,,,,,,,,,,,,,,,,,,,,space,9.08635,2,8.102325,,0,0,0,0,72,1,stimuli/stim_20210407_power2amp/equal_lnn_AM3Hz_61.m4a,,,
,,,,,40938,2021-05-05_10h52.23.098,judgeSpeechMusic_20210407_logNormShiftAmp,2020.1.2,MacIntel,60,,,,,,,,,,,,,,,,,,,,,,,,,,2,6.54718,,0,0,1,1,78,1,stimuli/stim_20210407_power2amp/equal_lnn_AM3.6Hz_72.m4a,,,
,,,,,40938,2021-05-05_10h52.23.098,judgeSpeechMusic_20210407_logNormShiftAmp,2020.1.2,MacIntel,60,,,,,,,,,,,,,,,,,,,,,,,,,,2,5.734365,,0,0,2,2,49,1,stimuli/stim_20210407_power2amp/equal_lnn_AM2.4Hz_12.m4a,,,
,,,,,40938,2021-05-05_10h52.23.098,judgeSpeechMusic_20210407_logNormShiftAmp,2020.1.2,MacIntel,60,,,,,,,,,,,,,,,,,,,,,,,,,,2,5.549445,,0,0,3,3,124,1,stimuli/stim_20210407_power2amp/equal_lnn_AM5.4Hz_75.m4a,,,
,,,,,40938,2021-05-05_10h52.23.098,judgeSpeechMusic_20210407_logNormShiftAmp,2020.1.2,MacIntel,60,,,,,,,,,,,,,,,,,,,,,,,,,,1,5.885055,,0,0,4,4,27,1,stimuli/stim_20210407_power2amp/equal_lnn_AM1.2Hz_65.m4a,,,
,,,,,40938,2021-05-05_10h52.23.098,judgeSpeechMusic_20210407_logNormShiftAmp,2020.1.2,MacIntel,60,,,,,,,,,,,,,,,,,,,,,,,,,,1,5.7718,,0,0,5,5,59,1,stimuli/stim_20210407_power2amp/equal_lnn_AM2.4Hz_69.m4a,,,
,,,,,40938,2021-05-05_10h52.23.098,judgeSpeechMusic_20210407_logNormShiftAmp,2020.1.2,MacIntel,60,,,,,,,,,,,,,,,,,,,,,,,,,,1,5.55339,,0,0,6,6,77,1,stimuli/stim_20210407_power2amp/equal_lnn_AM3.6Hz_63.m4a,,,
,,,,,40938,2021-05-05_10h52.23.098,judgeSpeechMusic_20210407_logNormShiftAmp,2020.1.2,MacIntel,60,,,,,,,,,,,,,,,,,,,,,,,,,,1,5.891925,,0,0,7,7,142,1,stimuli/stim_20210407_power2amp/equal_lnn_AM6Hz_80.m4a,,,
,,,,,40938,2021-05-05_10h52.23.098,judgeSpeechMusic_20210407_logNormShiftAmp,2020.1.2,MacIntel,60,,,,,,,,,,,,,,,,,,,,,,,,,,1,6.283465,,0,0,8,8,29,1,stimuli/stim_20210407_power2amp/equal_lnn_AM1.2Hz_90.m4a,,,
,,,,,40938,2021-05-05_10h52.23.098,judgeSpeechMusic_20210407_logNormShiftAmp,2020.1.2,MacIntel,60,,,,,,,,,,,,,,,,,,,,,,,,,,1,6.186425,,0,0,9,9,65,1,stimuli/stim_20210407_power2amp/equal_lnn_AM3Hz_26.m4a,,,
,,,,,40938,2021-05-05_10h52.23.098,judgeSpeechMusic_20210407_logNormShiftAmp,2020.1.2,MacIntel,60,,,,,,,,,,,,,,,,,,,,,,,,,,2,7.018295,,0,0,10,10,117,1,stimuli/stim_20210407_power2amp/equal_lnn_AM4.8Hz_18.m4a,,,
,,,,,40938,2021-05-05_10h52.23.098,judgeSpeechMusic_20210407_logNormShiftAmp,2020.1.2,MacIntel,60,,,,,,,,,,,,,,,,,,,,,,,,,,1,6.20715,,0,0,11,11,12,1,stimuli/stim_20210407_power2amp/equal_lnn_AM0.6Hz_47.m4a,,,
,,,,,40938,2021-05-05_10h52.23.098,judgeSpeechMusic_20210407_logNormShiftAmp,2020.1.2,MacIntel,60,,,,,,,,,,,,,,,,,,,,,,,,,,1,6.621565,,0,0,12,12,10,1,stimuli/stim_20210407_power2amp/equal_lnn_AM0.6Hz_52.m4a,,,
,,,,,40938,2021-05-05_10h52.23.098,judgeSpeechMusic_20210407_logNormShiftAmp,2020.1.2,MacIntel,60,,,,,,,,,,,,,,,,,,,,,,,,,,1,57.553675,,0,0,13,13,14,1,stimuli/stim_20210407_power2amp/equal_lnn_AM0.6Hz_92.m4a,,,
,,,,,40938,2021-05-05_10h52.23.098,judgeSpeechMusic_20210407_logNormShiftAmp,2020.1.2,MacIntel,60,,,,,,,,,,,,,,,,,,,,,,,,,,2,6.52075,,0,0,14,14,66,1,stimuli/stim_20210407_power2amp/equal_lnn_AM3Hz_6.m4a,,,
,,,,,40938,2021-05-05_10h52.23.098,judgeSpeechMusic_20210407_logNormShiftAmp,2020.1.2,MacIntel,60,,,,,,,,,,,,,,,,,,,,,,,,,,1,6.122855,,0,0,15,15,17,1,stimuli/stim_20210407_power2amp/equal_lnn_AM1.2Hz_60.m4a,,,
,,,,,40938,2021-05-05_10h52.23.098,judgeSpeechMusic_20210407_logNormShiftAmp,2020.1.2,MacIntel,60,,,,,,,,,,,,,,,,,,,,,,,,,,1,7.103485,,0,0,16,16,120,1,stimuli/stim_20210407_power2amp/equal_lnn_AM5.4Hz_31.m4a,,,
,,,,,40938,2021-05-05_10h52.23.098,judgeSpeechMusic_20210407_logNormShiftAmp,2020.1.2,MacIntel,60,,,,,,,,,,,,,,,,,,,,,,,,,,1,6.54377,,0,0,17,17,122,1,stimuli/stim_20210407_power2amp/equal_lnn_AM5.4Hz_4.m4a,,,
,,,,,40938,2021-05-05_10h52.23.098,judgeSpeechMusic_20210407_logNormShiftAmp,2020.1.2,MacIntel,60,,,,,,,,,,,,,,,,,,,,,,,,,,1,6.432105,,0,0,18,18,105,1,stimuli/stim_20210407_power2amp/equal_lnn_AM4.8Hz_68.m4a,,,
,,,,,40938,2021-05-05_10h52.23.098,judgeSpeechMusic_20210407_logNormShiftAmp,2020.1.2,MacIntel,60,,,,,,,,,,,,,,,,,,,,,,,,,,1,6.74896,,0,0,19,19,48,1,stimuli/stim_20210407_power2amp/equal_lnn_AM2.4Hz_57.m4a,,,
,,,,,40938,2021-05-05_10h52.23.098,judgeSpeechMusic_20210407_logNormShiftAmp,2020.1.2,MacIntel,60,,,,,,,,,,,,,,,,,,,,,,,,,,1,5.80233,,0,0,20,20,83,1,stimuli/stim_20210407_power2amp/equal_lnn_AM3.6Hz_25.m4a,,,
,,,,,40938,2021-05-05_10h52.23.098,judgeSpeechMusic_20210407_logNormShiftAmp,2020.1.2,MacIntel,60,,,,,,,,,,,,,,,,,,,,,,,,,,1,7.204295,,0,0,21,21,144,1,stimuli/stim_20210407_power2amp/equal_lnn_AM6Hz_19.m4a,,,
,,,,,40938,2021-05-05_10h52.23.098,judgeSpeechMusic_20210407_logNormShiftAmp,2020.1.2,MacIntel,60,,,,,,,,,,,,,,,,,,,,,,,,,,1,5.93732,,0,0,22,22,67,1,stimuli/stim_20210407_power2amp/equal_lnn_AM3Hz_58.m4a,,,
,,,,,40938,2021-05-05_10h52.23.098,judgeSpeechMusic_20210407_logNormShiftAmp,2020.1.2,MacIntel,60,,,,,,,,,,,,,,,,,,,,,,,,,,1,5.71675,,0,0,23,23,16,1,stimuli/stim_20210407_power2amp/equal_lnn_AM1.2Hz_73.m4a,,,
,,,,,40938,2021-05-05_10h52.23.098,judgeSpeechMusic_20210407_logNormShiftAmp,2020.1.2,MacIntel,60,,,,,,,,,,,,,,,,,,,,,,,,,,1,6.022575,,0,0,24,24,127,1,stimuli/stim_20210407_power2amp/equal_lnn_AM5.4Hz_29.m4a,,,
,,,,,40938,2021-05-05_10h52.23.098,judgeSpeechMusic_20210407_logNormShiftAmp,2020.1.2,MacIntel,60,,,,,,,,,,,,,,,,,,,,,,,,,,1,6.16705,,0,0,25,25,84,1,stimuli/stim_20210407_power2amp/equal_lnn_AM3.6Hz_5.m4a,,,
,,,,,40938,2021-05-05_10h52.23.098,judgeSpeechMusic_20210407_logNormShiftAmp,2020.1.2,MacIntel,60,,,,,,,,,,,,,,,,,,,,,,,,,,1,7.303135,,0,0,26,26,0,1,stimuli/stim_20210407_power2amp/equal_lnn_AM0.6Hz_28.m4a,,,
,,,,,40938,2021-05-05_10h52.23.098,judgeSpeechMusic_20210407_logNormShiftAmp,2020.1.2,MacIntel,60,,,,,,,,,,,,,,,,,,,,,,,,,,1,7.186085,,0,0,27,27,138,1,stimuli/stim_20210407_power2amp/equal_lnn_AM6Hz_31.m4a,,,
,,,,,40938,2021-05-05_10h52.23.098,judgeSpeechMusic_20210407_logNormShiftAmp,2020.1.2,MacIntel,60,,,,,,,,,,,,,,,,,,,,,,,,,,1,6.341765,,0,0,28,28,20,1,stimuli/stim_20210407_power2amp/equal_lnn_AM1.2Hz_79.m4a,,,
,,,,,40938,2021-05-05_10h52.23.098,judgeSpeechMusic_20210407_logNormShiftAmp,2020.1.2,MacIntel,60,,,,,,,,,,,,,,,,,,,,,,,,,,1,6.25749,,0,0,29,29,70,1,stimuli/stim_20210407_power2amp/equal_lnn_AM3Hz_45.m4a,,,
,,,,,40938,2021-05-05_10h52.23.098,judgeSpeechMusic_20210407_logNormShiftAmp,2020.1.2,MacIntel,60,,,,,,,,,,,,,,,,,,,,,,,,,,1,5.459875,,0,0,30,30,118,1,stimuli/stim_20210407_power2amp/equal_lnn_AM4.8Hz_12.m4a,,,
,,,,,40938,2021-05-05_10h52.23.098,judgeSpeechMusic_20210407_logNormShiftAmp,2020.1.2,MacIntel,60,,,,,,,,,,,,,,,,,,,,,,,,,,1,5.49783,,0,0,31,31,51,1,stimuli/stim_20210407_power2amp/equal_lnn_AM2.4Hz_3.m4a,,,
,,,,,40938,2021-05-05_10h52.23.098,judgeSpeechMusic_20210407_logNormShiftAmp,2020.1.2,MacIntel,60,,,,,,,,,,,,,,,,,,,,,,,,,,1,5.62844,,0,0,32,32,47,1,stimuli/stim_20210407_power2amp/equal_lnn_AM2.4Hz_93.m4a,,,
,,,,,40938,2021-05-05_10h52.23.098,judgeSpeechMusic_20210407_logNormShiftAmp,2020.1.2,MacIntel,60,,,,,,,,,,,,,,,,,,,,,,,,,,1,5.68772,,0,0,33,33,28,1,stimuli/stim_20210407_power2amp/equal_lnn_AM1.2Hz_55.m4a,,,
,,,,,40938,2021-05-05_10h52.23.098,judgeSpeechMusic_20210407_logNormShiftAmp,2020.1.2,MacIntel,60,,,,,,,,,,,,,,,,,,,,,,,,,,1,6.20108,4,1,0,34,34,134,1,stimuli/stim_20210407_power2amp/equal_lnn_AM5.4Hz_19.m4a,1.66606,,
,,,,,40938,2021-05-05_10h52.23.098,judgeSpeechMusic_20210407_logNormShiftAmp,2020.1.2,MacIntel,60,,,,,,,,,,,,,,,,,,,,,,,,,,1,5.872665,,0,0,35,35,107,1,stimuli/stim_20210407_power2amp/equal_lnn_AM4.8Hz_99.m4a,,,
,,,,,40938,2021-05-05_10h52.23.098,judgeSpeechMusic_20210407_logNormShiftAmp,2020.1.2,MacIntel,60,,,,,,,,,,,,,,,,,,,,,,,,,,1,5.71615,,0,0,36,36,55,1,stimuli/stim_20210407_power2amp/equal_lnn_AM2.4Hz_63.m4a,,,
,,,,,40938,2021-05-05_10h52.23.098,judgeSpeechMusic_20210407_logNormShiftAmp,2020.1.2,MacIntel,60,,,,,,,,,,,,,,,,,,,,,,,,,,1,5.3376,,0,0,37,37,114,1,stimuli/stim_20210407_power2amp/equal_lnn_AM4.8Hz_100.m4a,,,
,,,,,40938,2021-05-05_10h52.23.098,judgeSpeechMusic_20210407_logNormShiftAmp,2020.1.2,MacIntel,60,,,,,,,,,,,,,,,,,,,,,,,,,,1,5.684725,,0,0,38,38,94,1,stimuli/stim_20210407_power2amp/equal_lnn_AM4.2Hz_76.m4a,,,
,,,,,40938,2021-05-05_10h52.23.098,judgeSpeechMusic_20210407_logNormShiftAmp,2020.1.2,MacIntel,60,,,,,,,,,,,,,,,,,,,,,,,,,,1,7.00157,,0,0,39,39,36,1,stimuli/stim_20210407_power2amp/equal_lnn_AM1.8Hz_74.m4a,,,
,,,,,40938,2021-05-05_10h52.23.098,judgeSpeechMusic_20210407_logNormShiftAmp,2020.1.2,MacIntel,60,,,,,,,,,,,,,,,,,,,,,,,,,,1,6.12274,,0,0,40,40,22,1,stimuli/stim_20210407_power2amp/equal_lnn_AM1.2Hz_100.m4a,,,
,,,,,40938,2021-05-05_10h52.23.098,judgeSpeechMusic_20210407_logNormShiftAmp,2020.1.2,MacIntel,60,,,,,,,,,,,,,,,,,,,,,,,,,,1,5.57601,,0,0,41,41,140,1,stimuli/stim_20210407_power2amp/equal_lnn_AM6Hz_90.m4a,,,
,,,,,40938,2021-05-05_10h52.23.098,judgeSpeechMusic_20210407_logNormShiftAmp,2020.1.2,MacIntel,60,,,,,,,,,,,,,,,,,,,,,,,,,,1,6.119575,,0,0,42,42,37,1,stimuli/stim_20210407_power2amp/equal_lnn_AM1.8Hz_85.m4a,,,
,,,,,40938,2021-05-05_10h52.23.098,judgeSpeechMusic_20210407_logNormShiftAmp,2020.1.2,MacIntel,60,,,,,,,,,,,,,,,,,,,,,,,,,,1,6.18577,,0,0,43,43,96,1,stimuli/stim_20210407_power2amp/equal_lnn_AM4.2Hz_16.m4a,,,
,,,,,40938,2021-05-05_10h52.23.098,judgeSpeechMusic_20210407_logNormShiftAmp,2020.1.2,MacIntel,60,,,,,,,,,,,,,,,,,,,,,,,,,,1,5.632785,,0,0,44,44,91,1,stimuli/stim_20210407_power2amp/equal_lnn_AM4.2Hz_59.m4a,,,
,,,,,40938,2021-05-05_10h52.23.098,judgeSpeechMusic_20210407_logNormShiftAmp,2020.1.2,MacIntel,60,,,,,,,,,,,,,,,,,,,,,,,,,,1,5.91976,,0,0,45,45,53,1,stimuli/stim_20210407_power2amp/equal_lnn_AM2.4Hz_89.m4a,,,
,,,,,40938,2021-05-05_10h52.23.098,judgeSpeechMusic_20210407_logNormShiftAmp,2020.1.2,MacIntel,60,,,,,,,,,,,,,,,,,,,,,,,,,,1,6.12868,,0,0,46,46,137,1,stimuli/stim_20210407_power2amp/equal_lnn_AM6Hz_39.m4a,,,
,,,,,40938,2021-05-05_10h52.23.098,judgeSpeechMusic_20210407_logNormShiftAmp,2020.1.2,MacIntel,60,,,,,,,,,,,,,,,,,,,,,,,,,,1,5.89275,,0,0,47,47,4,1,stimuli/stim_20210407_power2amp/equal_lnn_AM0.6Hz_16.m4a,,,
,,,,,40938,2021-05-05_10h52.23.098,judgeSpeechMusic_20210407_logNormShiftAmp,2020.1.2,MacIntel,60,,,,,,,,,,,,,,,,,,,,,,,,,,1,7.05214,,0,0,48,48,33,1,stimuli/stim_20210407_power2amp/equal_lnn_AM1.8Hz_67.m4a,,,
,,,,,40938,2021-05-05_10h52.23.098,judgeSpeechMusic_20210407_logNormShiftAmp,2020.1.2,MacIntel,60,,,,,,,,,,,,,,,,,,,,,,,,,,1,7.92262,,0,0,49,49,69,1,stimuli/stim_20210407_power2amp/equal_lnn_AM3Hz_71.m4a,,,
,,,,,40938,2021-05-05_10h52.23.098,judgeSpeechMusic_20210407_logNormShiftAmp,2020.1.2,MacIntel,60,,,,,,,,,,,,,,,,,,,,,,,,,,1,6.752765,,0,0,50,50,115,1,stimuli/stim_20210407_power2amp/equal_lnn_AM4.8Hz_17.m4a,,,
,,,,,40938,2021-05-05_10h52.23.098,judgeSpeechMusic_20210407_logNormShiftAmp,2020.1.2,MacIntel,60,,,,,,,,,,,,,,,,,,,,,,,,,,1,5.93542,,0,0,51,51,56,1,stimuli/stim_20210407_power2amp/equal_lnn_AM2.4Hz_80.m4a,,,
,,,,,40938,2021-05-05_10h52.23.098,judgeSpeechMusic_20210407_logNormShiftAmp,2020.1.2,MacIntel,60,,,,,,,,,,,,,,,,,,,,,,,,,,1,5.93622,,0,0,52,52,139,1,stimuli/stim_20210407_power2amp/equal_lnn_AM6Hz_71.m4a,,,
,,,,,40938,2021-05-05_10h52.23.098,judgeSpeechMusic_20210407_logNormShiftAmp,2020.1.2,MacIntel,60,,,,,,,,,,,,,,,,,,,,,,,,,,2,6.187615,,0,0,53,53,126,1,stimuli/stim_20210407_power2amp/equal_lnn_AM5.4Hz_9.m4a,,,
,,,,,40938,2021-05-05_10h52.23.098,judgeSpeechMusic_20210407_logNormShiftAmp,2020.1.2,MacIntel,60,,,,,,,,,,,,,,,,,,,,,,,,,,1,8.47281,,0,0,54,54,11,1,stimuli/stim_20210407_power2amp/equal_lnn_AM0.6Hz_77.m4a,,,
,,,,,40938,2021-05-05_10h52.23.098,judgeSpeechMusic_20210407_logNormShiftAmp,2020.1.2,MacIntel,60,,,,,,,,,,,,,,,,,,,,,,,,,,1,5.90459,,0,0,55,55,21,1,stimuli/stim_20210407_power2amp/equal_lnn_AM1.2Hz_4.m4a,,,
,,,,,40938,2021-05-05_10h52.23.098,judgeSpeechMusic_20210407_logNormShiftAmp,2020.1.2,MacIntel,60,,,,,,,,,,,,,,,,,,,,,,,,,,1,5.83999,4,1,0,56,56,26,1,stimuli/stim_20210407_power2amp/equal_lnn_AM1.2Hz_46.m4a,4.96325,,
,,,,,40938,2021-05-05_10h52.23.098,judgeSpeechMusic_20210407_logNormShiftAmp,2020.1.2,MacIntel,60,,,,,,,,,,,,,,,,,,,,,,,,,,1,8.53816,,0,0,57,57,119,1,stimuli/stim_20210407_power2amp/equal_lnn_AM4.8Hz_8.m4a,,,
,,,,,40938,2021-05-05_10h52.23.098,judgeSpeechMusic_20210407_logNormShiftAmp,2020.1.2,MacIntel,60,,,,,,,,,,,,,,,,,,,,,,,,,,1,6.34318,,0,0,58,58,31,1,stimuli/stim_20210407_power2amp/equal_lnn_AM1.8Hz_65.m4a,,,
,,,,,40938,2021-05-05_10h52.23.098,judgeSpeechMusic_20210407_logNormShiftAmp,2020.1.2,MacIntel,60,,,,,,,,,,,,,,,,,,,,,,,,,,1,6.63585,,0,0,59,59,81,1,stimuli/stim_20210407_power2amp/equal_lnn_AM3.6Hz_83.m4a,,,
,,,,,40938,2021-05-05_10h52.23.098,judgeSpeechMusic_20210407_logNormShiftAmp,2020.1.2,MacIntel,60,,,,,,,,,,,,,,,,,,,,,,,,,,2,5.97205,,0,0,60,60,87,1,stimuli/stim_20210407_power2amp/equal_lnn_AM3.6Hz_21.m4a,,,
,,,,,40938,2021-05-05_10h52.23.098,judgeSpeechMusic_20210407_logNormShiftAmp,2020.1.2,MacIntel,60,,,,,,,,,,,,,,,,,,,,,,,,,,2,5.75558,,0,0,61,61,89,1,stimuli/stim_20210407_power2amp/equal_lnn_AM3.6Hz_45.m4a,,,
,,,,,40938,2021-05-05_10h52.23.098,judgeSpeechMusic_20210407_logNormShiftAmp,2020.1.2,MacIntel,60,,,,,,,,,,,,,,,,,,,,,,,,,,2,5.31877,,0,0,62,62,141,1,stimuli/stim_20210407_power2amp/equal_lnn_AM6Hz_7.m4a,,,
,,,,,40938,2021-05-05_10h52.23.098,judgeSpeechMusic_20210407_logNormShiftAmp,2020.1.2,MacIntel,60,,,,,,,,,,,,,,,,,,,,,,,,,,2,5.90884,,0,0,63,63,95,1,stimuli/stim_20210407_power2amp/equal_lnn_AM4.2Hz_49.m4a,,,
,,,,,40938,2021-05-05_10h52.23.098,judgeSpeechMusic_20210407_logNormShiftAmp,2020.1.2,MacIntel,60,,,,,,,,,,,,,,,,,,,,,,,,,,1,5.545555,,0,0,64,64,3,1,stimuli/stim_20210407_power2amp/equal_lnn_AM0.6Hz_29.m4a,,,
,,,,,40938,2021-05-05_10h52.23.098,judgeSpeechMusic_20210407_logNormShiftAmp,2020.1.2,MacIntel,60,,,,,,,,,,,,,,,,,,,,,,,,,,2,6.297275,,0,0,65,65,146,1,stimuli/stim_20210407_power2amp/equal_lnn_AM6Hz_24.m4a,,,
,,,,,40938,2021-05-05_10h52.23.098,judgeSpeechMusic_20210407_logNormShiftAmp,2020.1.2,MacIntel,60,,,,,,,,,,,,,,,,,,,,,,,,,,2,5.751355,,0,0,66,66,128,1,stimuli/stim_20210407_power2amp/equal_lnn_AM5.4Hz_13.m4a,,,
,,,,,40938,2021-05-05_10h52.23.098,judgeSpeechMusic_20210407_logNormShiftAmp,2020.1.2,MacIntel,60,,,,,,,,,,,,,,,,,,,,,,,,,,2,6.15627,,0,0,67,67,148,1,stimuli/stim_20210407_power2amp/equal_lnn_AM6Hz_89.m4a,,,
,,,,,40938,2021-05-05_10h52.23.098,judgeSpeechMusic_20210407_logNormShiftAmp,2020.1.2,MacIntel,60,,,,,,,,,,,,,,,,,,,,,,,,,,1,6.93828,,0,0,68,68,112,1,stimuli/stim_20210407_power2amp/equal_lnn_AM4.8Hz_64.m4a,,,
,,,,,40938,2021-05-05_10h52.23.098,judgeSpeechMusic_20210407_logNormShiftAmp,2020.1.2,MacIntel,60,,,,,,,,,,,,,,,,,,,,,,,,,,1,5.61849,,0,0,69,69,23,1,stimuli/stim_20210407_power2amp/equal_lnn_AM1.2Hz_19.m4a,,,
,,,,,40938,2021-05-05_10h52.23.098,judgeSpeechMusic_20210407_logNormShiftAmp,2020.1.2,MacIntel,60,,,,,,,,,,,,,,,,,,,,,,,,,,1,6.758055,,0,0,70,70,85,1,stimuli/stim_20210407_power2amp/equal_lnn_AM3.6Hz_28.m4a,,,
,,,,,40938,2021-05-05_10h52.23.098,judgeSpeechMusic_20210407_logNormShiftAmp,2020.1.2,MacIntel,60,,,,,,,,,,,,,,,,,,,,,,,,,,1,8.513125,,0,0,71,71,42,1,stimuli/stim_20210407_power2amp/equal_lnn_AM1.8Hz_63.m4a,,,
,,,,,40938,2021-05-05_10h52.23.098,judgeSpeechMusic_20210407_logNormShiftAmp,2020.1.2,MacIntel,60,,,,,,,,,,,,,,,,,,,,,,,,,,1,5.983845,,0,0,72,72,43,1,stimuli/stim_20210407_power2amp/equal_lnn_AM1.8Hz_26.m4a,,,
,,,,,40938,2021-05-05_10h52.23.098,judgeSpeechMusic_20210407_logNormShiftAmp,2020.1.2,MacIntel,60,,,,,,,,,,,,,,,,,,,,,,,,,,1,5.994145,,0,0,73,73,58,1,stimuli/stim_20210407_power2amp/equal_lnn_AM2.4Hz_47.m4a,,,
,,,,,40938,2021-05-05_10h52.23.098,judgeSpeechMusic_20210407_logNormShiftAmp,2020.1.2,MacIntel,60,,,,,,,,,,,,,,,,,,,,,,,,,,2,5.393435,,0,0,74,74,92,1,stimuli/stim_20210407_power2amp/equal_lnn_AM4.2Hz_55.m4a,,,
,,,,,40938,2021-05-05_10h52.23.098,judgeSpeechMusic_20210407_logNormShiftAmp,2020.1.2,MacIntel,60,,,,,,,,,,,,,,,,,,,,,,,,,,2,5.83654,,0,0,75,75,6,1,stimuli/stim_20210407_power2amp/equal_lnn_AM0.6Hz_94.m4a,,,
,,,,,40938,2021-05-05_10h52.23.098,judgeSpeechMusic_20210407_logNormShiftAmp,2020.1.2,MacIntel,60,,,,,,,,,,,,,,,,,,,,,,,,,,2,5.603375,,0,0,76,76,45,1,stimuli/stim_20210407_power2amp/equal_lnn_AM2.4Hz_34.m4a,,,
,,,,,40938,2021-05-05_10h52.23.098,judgeSpeechMusic_20210407_logNormShiftAmp,2020.1.2,MacIntel,60,,,,,,,,,,,,,,,,,,,,,,,,,,1,5.26994,,0,0,77,77,38,1,stimuli/stim_20210407_power2amp/equal_lnn_AM1.8Hz_12.m4a,,,
,,,,,40938,2021-05-05_10h52.23.098,judgeSpeechMusic_20210407_logNormShiftAmp,2020.1.2,MacIntel,60,,,,,,,,,,,,,,,,,,,,,,,,,,2,6.267005,,0,0,78,78,75,1,stimuli/stim_20210407_power2amp/equal_lnn_AM3.6Hz_22.m4a,,,
,,,,,40938,2021-05-05_10h52.23.098,judgeSpeechMusic_20210407_logNormShiftAmp,2020.1.2,MacIntel,60,,,,,,,,,,,,,,,,,,,,,,,,,,2,6.42033,4,1,0,79,79,80,1,stimuli/stim_20210407_power2amp/equal_lnn_AM3.6Hz_53.m4a,5.0293,,
,,,,,40938,2021-05-05_10h52.23.098,judgeSpeechMusic_20210407_logNormShiftAmp,2020.1.2,MacIntel,60,,,,,,,,,,,,,,,,,,,,,,,,,,1,6.96059,,0,0,80,80,101,1,stimuli/stim_20210407_power2amp/equal_lnn_AM4.2Hz_83.m4a,,,
,,,,,40938,2021-05-05_10h52.23.098,judgeSpeechMusic_20210407_logNormShiftAmp,2020.1.2,MacIntel,60,,,,,,,,,,,,,,,,,,,,,,,,,,1,6.650065,,0,0,81,81,98,1,stimuli/stim_20210407_power2amp/equal_lnn_AM4.2Hz_69.m4a,,,
,,,,,40938,2021-05-05_10h52.23.098,judgeSpeechMusic_20210407_logNormShiftAmp,2020.1.2,MacIntel,60,,,,,,,,,,,,,,,,,,,,,,,,,,1,10.588865,,0,0,82,82,88,1,stimuli/stim_20210407_power2amp/equal_lnn_AM3.6Hz_65.m4a,,,
,,,,,40938,2021-05-05_10h52.23.098,judgeSpeechMusic_20210407_logNormShiftAmp,2020.1.2,MacIntel,60,,,,,,,,,,,,,,,,,,,,,,,,,,1,5.855445,,0,0,83,83,130,1,stimuli/stim_20210407_power2amp/equal_lnn_AM5.4Hz_43.m4a,,,
,,,,,40938,2021-05-05_10h52.23.098,judgeSpeechMusic_20210407_logNormShiftAmp,2020.1.2,MacIntel,60,,,,,,,,,,,,,,,,,,,,,,,,,,1,5.92354,,0,0,84,84,145,1,stimuli/stim_20210407_power2amp/equal_lnn_AM6Hz_56.m4a,,,
,,,,,40938,2021-05-05_10h52.23.098,judgeSpeechMusic_20210407_logNormShiftAmp,2020.1.2,MacIntel,60,,,,,,,,,,,,,,,,,,,,,,,,,,1,5.61776,,0,0,85,85,121,1,stimuli/stim_20210407_power2amp/equal_lnn_AM5.4Hz_12.m4a,,,
,,,,,40938,2021-05-05_10h52.23.098,judgeSpeechMusic_20210407_logNormShiftAmp,2020.1.2,MacIntel,60,,,,,,,,,,,,,,,,,,,,,,,,,,1,5.23348,,0,0,86,86,111,1,stimuli/stim_20210407_power2amp/equal_lnn_AM4.8Hz_96.m4a,,,
,,,,,40938,2021-05-05_10h52.23.098,judgeSpeechMusic_20210407_logNormShiftAmp,2020.1.2,MacIntel,60,,,,,,,,,,,,,,,,,,,,,,,,,,1,6.217305,,0,0,87,87,32,1,stimuli/stim_20210407_power2amp/equal_lnn_AM1.8Hz_95.m4a,,,
,,,,,40938,2021-05-05_10h52.23.098,judgeSpeechMusic_20210407_logNormShiftAmp,2020.1.2,MacIntel,60,,,,,,,,,,,,,,,,,,,,,,,,,,1,5.21787,,0,0,88,88,143,1,stimuli/stim_20210407_power2amp/equal_lnn_AM6Hz_3.m4a,,,
,,,,,40938,2021-05-05_10h52.23.098,judgeSpeechMusic_20210407_logNormShiftAmp,2020.1.2,MacIntel,60,,,,,,,,,,,,,,,,,,,,,,,,,,1,5.61065,,0,0,89,89,44,1,stimuli/stim_20210407_power2amp/equal_lnn_AM1.8Hz_75.m4a,,,
,,,,,40938,2021-05-05_10h52.23.098,judgeSpeechMusic_20210407_logNormShiftAmp,2020.1.2,MacIntel,60,,,,,,,,,,,,,,,,,,,,,,,,,,1,9.158005,,0,0,90,90,132,1,stimuli/stim_20210407_power2amp/equal_lnn_AM5.4Hz_47.m4a,,,
,,,,,40938,2021-05-05_10h52.23.098,judgeSpeechMusic_20210407_logNormShiftAmp,2020.1.2,MacIntel,60,,,,,,,,,,,,,,,,,,,,,,,,,,1,5.685225,,0,0,91,91,93,1,stimuli/stim_20210407_power2amp/equal_lnn_AM4.2Hz_21.m4a,,,
,,,,,40938,2021-05-05_10h52.23.098,judgeSpeechMusic_20210407_logNormShiftAmp,2020.1.2,MacIntel,60,,,,,,,,,,,,,,,,,,,,,,,,,,1,6.501505,,0,0,92,92,125,1,stimuli/stim_20210407_power2amp/equal_lnn_AM5.4Hz_18.m4a,,,
,,,,,40938,2021-05-05_10h52.23.098,judgeSpeechMusic_20210407_logNormShiftAmp,2020.1.2,MacIntel,60,,,,,,,,,,,,,,,,,,,,,,,,,,1,16.017815,,0,0,93,93,18,1,stimuli/stim_20210407_power2amp/equal_lnn_AM1.2Hz_75.m4a,,,
,,,,,40938,2021-05-05_10h52.23.098,judgeSpeechMusic_20210407_logNormShiftAmp,2020.1.2,MacIntel,60,,,,,,,,,,,,,,,,,,,,,,,,,,1,6.82345,,0,0,94,94,46,1,stimuli/stim_20210407_power2amp/equal_lnn_AM2.4Hz_10.m4a,,,
,,,,,40938,2021-05-05_10h52.23.098,judgeSpeechMusic_20210407_logNormShiftAmp,2020.1.2,MacIntel,60,,,,,,,,,,,,,,,,,,,,,,,,,,1,6.12035,,0,0,95,95,110,1,stimuli/stim_20210407_power2amp/equal_lnn_AM4.8Hz_57.m4a,,,
,,,,,40938,2021-05-05_10h52.23.098,judgeSpeechMusic_20210407_logNormShiftAmp,2020.1.2,MacIntel,60,,,,,,,,,,,,,,,,,,,,,,,,,,1,5.65321,,0,0,96,96,97,1,stimuli/stim_20210407_power2amp/equal_lnn_AM4.2Hz_23.m4a,,,
,,,,,40938,2021-05-05_10h52.23.098,judgeSpeechMusic_20210407_logNormShiftAmp,2020.1.2,MacIntel,60,,,,,,,,,,,,,,,,,,,,,,,,,,1,6.209265,,0,0,97,97,61,1,stimuli/stim_20210407_power2amp/equal_lnn_AM3Hz_75.m4a,,,
,,,,,40938,2021-05-05_10h52.23.098,judgeSpeechMusic_20210407_logNormShiftAmp,2020.1.2,MacIntel,60,,,,,,,,,,,,,,,,,,,,,,,,,,1,5.62319,,0,0,98,98,135,1,stimuli/stim_20210407_power2amp/equal_lnn_AM6Hz_40.m4a,,,
,,,,,40938,2021-05-05_10h52.23.098,judgeSpeechMusic_20210407_logNormShiftAmp,2020.1.2,MacIntel,60,,,,,,,,,,,,,,,,,,,,,,,,,,2,6.61824,,0,0,99,99,30,1,stimuli/stim_20210407_power2amp/equal_lnn_AM1.8Hz_39.m4a,,,
,,,,,40938,2021-05-05_10h52.23.098,judgeSpeechMusic_20210407_logNormShiftAmp,2020.1.2,MacIntel,60,,,,,,,,,,,,,,,,,,,,,,,,,,1,6.93513,4,1,0,100,100,103,1,stimuli/stim_20210407_power2amp/equal_lnn_AM4.2Hz_52.m4a,4.96976,,
,,,,,40938,2021-05-05_10h52.23.098,judgeSpeechMusic_20210407_logNormShiftAmp,2020.1.2,MacIntel,60,,,,,,,,,,,,,,,,,,,,,,,,,,2,5.8857,,0,0,101,101,109,1,stimuli/stim_20210407_power2amp/equal_lnn_AM4.8Hz_87.m4a,,,
,,,,,40938,2021-05-05_10h52.23.098,judgeSpeechMusic_20210407_logNormShiftAmp,2020.1.2,MacIntel,60,,,,,,,,,,,,,,,,,,,,,,,,,,1,6.53848,,0,0,102,102,15,1,stimuli/stim_20210407_power2amp/equal_lnn_AM1.2Hz_41.m4a,,,
,,,,,40938,2021-05-05_10h52.23.098,judgeSpeechMusic_20210407_logNormShiftAmp,2020.1.2,MacIntel,60,,,,,,,,,,,,,,,,,,,,,,,,,,1,9.10638,,0,0,103,103,5,1,stimuli/stim_20210407_power2amp/equal_lnn_AM0.6Hz_74.m4a,,,
,,,,,40938,2021-05-05_10h52.23.098,judgeSpeechMusic_20210407_logNormShiftAmp,2020.1.2,MacIntel,60,,,,,,,,,,,,,,,,,,,,,,,,,,1,6.2059,,0,0,104,104,86,1,stimuli/stim_20210407_power2amp/equal_lnn_AM3.6Hz_56.m4a,,,
,,,,,40938,2021-05-05_10h52.23.098,judgeSpeechMusic_20210407_logNormShiftAmp,2020.1.2,MacIntel,60,,,,,,,,,,,,,,,,,,,,,,,,,,2,6.1716,,0,0,105,105,100,1,stimuli/stim_20210407_power2amp/equal_lnn_AM4.2Hz_75.m4a,,,
,,,,,40938,2021-05-05_10h52.23.098,judgeSpeechMusic_20210407_logNormShiftAmp,2020.1.2,MacIntel,60,,,,,,,,,,,,,,,,,,,,,,,,,,2,5.883615,,0,0,106,106,54,1,stimuli/stim_20210407_power2amp/equal_lnn_AM2.4Hz_49.m4a,,,
,,,,,40938,2021-05-05_10h52.23.098,judgeSpeechMusic_20210407_logNormShiftAmp,2020.1.2,MacIntel,60,,,,,,,,,,,,,,,,,,,,,,,,,,2,6.47171,,0,0,107,107,7,1,stimuli/stim_20210407_power2amp/equal_lnn_AM0.6Hz_4.m4a,,,
,,,,,40938,2021-05-05_10h52.23.098,judgeSpeechMusic_20210407_logNormShiftAmp,2020.1.2,MacIntel,60,,,,,,,,,,,,,,,,,,,,,,,,,,2,5.6508,,0,0,108,108,79,1,stimuli/stim_20210407_power2amp/equal_lnn_AM3.6Hz_90.m4a,,,
,,,,,40938,2021-05-05_10h52.23.098,judgeSpeechMusic_20210407_logNormShiftAmp,2020.1.2,MacIntel,60,,,,,,,,,,,,,,,,,,,,,,,,,,2,5.853885,,0,0,109,109,71,1,stimuli/stim_20210407_power2amp/equal_lnn_AM3Hz_17.m4a,,,
,,,,,40938,2021-05-05_10h52.23.098,judgeSpeechMusic_20210407_logNormShiftAmp,2020.1.2,MacIntel,60,,,,,,,,,,,,,,,,,,,,,,,,,,2,5.639245,,0,0,110,110,113,1,stimuli/stim_20210407_power2amp/equal_lnn_AM4.8Hz_25.m4a,,,
,,,,,40938,2021-05-05_10h52.23.098,judgeSpeechMusic_20210407_logNormShiftAmp,2020.1.2,MacIntel,60,,,,,,,,,,,,,,,,,,,,,,,,,,2,6.10488,,0,0,111,111,149,1,stimuli/stim_20210407_power2amp/equal_lnn_AM6Hz_78.m4a,,,
,,,,,40938,2021-05-05_10h52.23.098,judgeSpeechMusic_20210407_logNormShiftAmp,2020.1.2,MacIntel,60,,,,,,,,,,,,,,,,,,,,,,,,,,2,6.2867,,0,0,112,112,13,1,stimuli/stim_20210407_power2amp/equal_lnn_AM0.6Hz_6.m4a,,,
,,,,,40938,2021-05-05_10h52.23.098,judgeSpeechMusic_20210407_logNormShiftAmp,2020.1.2,MacIntel,60,,,,,,,,,,,,,,,,,,,,,,,,,,2,6.370135,,0,0,113,113,25,1,stimuli/stim_20210407_power2amp/equal_lnn_AM1.2Hz_86.m4a,,,
,,,,,40938,2021-05-05_10h52.23.098,judgeSpeechMusic_20210407_logNormShiftAmp,2020.1.2,MacIntel,60,,,,,,,,,,,,,,,,,,,,,,,,,,2,6.936815,,0,0,114,114,52,1,stimuli/stim_20210407_power2amp/equal_lnn_AM2.4Hz_33.m4a,,,
,,,,,40938,2021-05-05_10h52.23.098,judgeSpeechMusic_20210407_logNormShiftAmp,2020.1.2,MacIntel,60,,,,,,,,,,,,,,,,,,,,,,,,,,2,5.927755,,0,0,115,115,133,1,stimuli/stim_20210407_power2amp/equal_lnn_AM5.4Hz_49.m4a,,,
,,,,,40938,2021-05-05_10h52.23.098,judgeSpeechMusic_20210407_logNormShiftAmp,2020.1.2,MacIntel,60,,,,,,,,,,,,,,,,,,,,,,,,,,2,5.52031,,0,0,116,116,123,1,stimuli/stim_20210407_power2amp/equal_lnn_AM5.4Hz_87.m4a,,,
,,,,,40938,2021-05-05_10h52.23.098,judgeSpeechMusic_20210407_logNormShiftAmp,2020.1.2,MacIntel,60,,,,,,,,,,,,,,,,,,,,,,,,,,2,5.85279,,0,0,117,117,39,1,stimuli/stim_20210407_power2amp/equal_lnn_AM1.8Hz_8.m4a,,,
,,,,,40938,2021-05-05_10h52.23.098,judgeSpeechMusic_20210407_logNormShiftAmp,2020.1.2,MacIntel,60,,,,,,,,,,,,,,,,,,,,,,,,,,1,5.234875,,0,0,118,118,2,1,stimuli/stim_20210407_power2amp/equal_lnn_AM0.6Hz_60.m4a,,,
,,,,,40938,2021-05-05_10h52.23.098,judgeSpeechMusic_20210407_logNormShiftAmp,2020.1.2,MacIntel,60,,,,,,,,,,,,,,,,,,,,,,,,,,1,5.577185,,0,0,119,119,60,1,stimuli/stim_20210407_power2amp/equal_lnn_AM3Hz_23.m4a,,,
,,,,,40938,2021-05-05_10h52.23.098,judgeSpeechMusic_20210407_logNormShiftAmp,2020.1.2,MacIntel,60,,,,,,,,,,,,,,,,,,,,,,,,,,1,5.53495,,0,0,120,120,9,1,stimuli/stim_20210407_power2amp/equal_lnn_AM0.6Hz_57.m4a,,,
,,,,,40938,2021-05-05_10h52.23.098,judgeSpeechMusic_20210407_logNormShiftAmp,2020.1.2,MacIntel,60,,,,,,,,,,,,,,,,,,,,,,,,,,1,5.551355,,0,0,121,121,76,1,stimuli/stim_20210407_power2amp/equal_lnn_AM3.6Hz_18.m4a,,,
,,,,,40938,2021-05-05_10h52.23.098,judgeSpeechMusic_20210407_logNormShiftAmp,2020.1.2,MacIntel,60,,,,,,,,,,,,,,,,,,,,,,,,,,1,5.875915,,0,0,122,122,8,1,stimuli/stim_20210407_power2amp/equal_lnn_AM0.6Hz_34.m4a,,,
,,,,,40938,2021-05-05_10h52.23.098,judgeSpeechMusic_20210407_logNormShiftAmp,2020.1.2,MacIntel,60,,,,,,,,,,,,,,,,,,,,,,,,,,1,5.809745,,0,0,123,123,35,1,stimuli/stim_20210407_power2amp/equal_lnn_AM1.8Hz_59.m4a,,,
,,,,,40938,2021-05-05_10h52.23.098,judgeSpeechMusic_20210407_logNormShiftAmp,2020.1.2,MacIntel,60,,,,,,,,,,,,,,,,,,,,,,,,,,1,10.387945,3,1,0,124,124,104,1,stimuli/stim_20210407_power2amp/equal_lnn_AM4.2Hz_82.m4a,5.97414,,
,,,,,40938,2021-05-05_10h52.23.098,judgeSpeechMusic_20210407_logNormShiftAmp,2020.1.2,MacIntel,60,,,,,,,,,,,,,,,,,,,,,,,,,,1,6.89921,,0,0,125,125,64,1,stimuli/stim_20210407_power2amp/equal_lnn_AM3Hz_87.m4a,,,
,,,,,40938,2021-05-05_10h52.23.098,judgeSpeechMusic_20210407_logNormShiftAmp,2020.1.2,MacIntel,60,,,,,,,,,,,,,,,,,,,,,,,,,,1,7.70238,,0,0,126,126,147,1,stimuli/stim_20210407_power2amp/equal_lnn_AM6Hz_23.m4a,,,
,,,,,40938,2021-05-05_10h52.23.098,judgeSpeechMusic_20210407_logNormShiftAmp,2020.1.2,MacIntel,60,,,,,,,,,,,,,,,,,,,,,,,,,,1,8.3943,,0,0,127,127,62,1,stimuli/stim_20210407_power2amp/equal_lnn_AM3Hz_82.m4a,,,
,,,,,40938,2021-05-05_10h52.23.098,judgeSpeechMusic_20210407_logNormShiftAmp,2020.1.2,MacIntel,60,,,,,,,,,,,,,,,,,,,,,,,,,,1,10.99002,,0,0,128,128,106,1,stimuli/stim_20210407_power2amp/equal_lnn_AM4.8Hz_76.m4a,,,
,,,,,40938,2021-05-05_10h52.23.098,judgeSpeechMusic_20210407_logNormShiftAmp,2020.1.2,MacIntel,60,,,,,,,,,,,,,,,,,,,,,,,,,,1,5.736675,,0,0,129,129,99,1,stimuli/stim_20210407_power2amp/equal_lnn_AM4.2Hz_34.m4a,,,
,,,,,40938,2021-05-05_10h52.23.098,judgeSpeechMusic_20210407_logNormShiftAmp,2020.1.2,MacIntel,60,,,,,,,,,,,,,,,,,,,,,,,,,,1,6.46086,,0,0,130,130,68,1,stimuli/stim_20210407_power2amp/equal_lnn_AM3Hz_30.m4a,,,
,,,,,40938,2021-05-05_10h52.23.098,judgeSpeechMusic_20210407_logNormShiftAmp,2020.1.2,MacIntel,60,,,,,,,,,,,,,,,,,,,,,,,,,,1,11.101195,,0,0,131,131,108,1,stimuli/stim_20210407_power2amp/equal_lnn_AM4.8Hz_35.m4a,,,
,,,,,40938,2021-05-05_10h52.23.098,judgeSpeechMusic_20210407_logNormShiftAmp,2020.1.2,MacIntel,60,,,,,,,,,,,,,,,,,,,,,,,,,,1,8.0524,,0,0,132,132,73,1,stimuli/stim_20210407_power2amp/equal_lnn_AM3Hz_100.m4a,,,
,,,,,40938,2021-05-05_10h52.23.098,judgeSpeechMusic_20210407_logNormShiftAmp,2020.1.2,MacIntel,60,,,,,,,,,,,,,,,,,,,,,,,,,,1,7.03964,,0,0,133,133,34,1,stimuli/stim_20210407_power2amp/equal_lnn_AM1.8Hz_4.m4a,,,
,,,,,40938,2021-05-05_10h52.23.098,judgeSpeechMusic_20210407_logNormShiftAmp,2020.1.2,MacIntel,60,,,,,,,,,,,,,,,,,,,,,,,,,,1,5.869905,,0,0,134,134,82,1,stimuli/stim_20210407_power2amp/equal_lnn_AM3.6Hz_26.m4a,,,
,,,,,40938,2021-05-05_10h52.23.098,judgeSpeechMusic_20210407_logNormShiftAmp,2020.1.2,MacIntel,60,,,,,,,,,,,,,,,,,,,,,,,,,,1,5.8172,,0,0,135,135,131,1,stimuli/stim_20210407_power2amp/equal_lnn_AM5.4Hz_88.m4a,,,
,,,,,40938,2021-05-05_10h52.23.098,judgeSpeechMusic_20210407_logNormShiftAmp,2020.1.2,MacIntel,60,,,,,,,,,,,,,,,,,,,,,,,,,,1,6.104095,,0,0,136,136,63,1,stimuli/stim_20210407_power2amp/equal_lnn_AM3Hz_41.m4a,,,
,,,,,40938,2021-05-05_10h52.23.098,judgeSpeechMusic_20210407_logNormShiftAmp,2020.1.2,MacIntel,60,,,,,,,,,,,,,,,,,,,,,,,,,,1,5.65829,,0,0,137,137,1,1,stimuli/stim_20210407_power2amp/equal_lnn_AM0.6Hz_87.m4a,,,
,,,,,40938,2021-05-05_10h52.23.098,judgeSpeechMusic_20210407_logNormShiftAmp,2020.1.2,MacIntel,60,,,,,,,,,,,,,,,,,,,,,,,,,,1,6.117005,,0,0,138,138,116,1,stimuli/stim_20210407_power2amp/equal_lnn_AM4.8Hz_13.m4a,,,
,,,,,40938,2021-05-05_10h52.23.098,judgeSpeechMusic_20210407_logNormShiftAmp,2020.1.2,MacIntel,60,,,,,,,,,,,,,,,,,,,,,,,,,,1,8.00786,,0,0,139,139,129,1,stimuli/stim_20210407_power2amp/equal_lnn_AM5.4Hz_22.m4a,,,
,,,,,40938,2021-05-05_10h52.23.098,judgeSpeechMusic_20210407_logNormShiftAmp,2020.1.2,MacIntel,60,,,,,,,,,,,,,,,,,,,,,,,,,,1,9.58726,,0,0,140,140,40,1,stimuli/stim_20210407_power2amp/equal_lnn_AM1.8Hz_44.m4a,,,
,,,,,40938,2021-05-05_10h52.23.098,judgeSpeechMusic_20210407_logNormShiftAmp,2020.1.2,MacIntel,60,,,,,,,,,,,,,,,,,,,,,,,,,,1,12.139595,,0,0,141,141,74,1,stimuli/stim_20210407_power2amp/equal_lnn_AM3Hz_79.m4a,,,
,,,,,40938,2021-05-05_10h52.23.098,judgeSpeechMusic_20210407_logNormShiftAmp,2020.1.2,MacIntel,60,,,,,,,,,,,,,,,,,,,,,,,,,,1,6.991755,,0,0,142,142,24,1,stimuli/stim_20210407_power2amp/equal_lnn_AM1.2Hz_87.m4a,,,
,,,,,40938,2021-05-05_10h52.23.098,judgeSpeechMusic_20210407_logNormShiftAmp,2020.1.2,MacIntel,60,,,,,,,,,,,,,,,,,,,,,,,,,,1,19.003575,,0,0,143,143,102,1,stimuli/stim_20210407_power2amp/equal_lnn_AM4.2Hz_89.m4a,,,
,,,,,40938,2021-05-05_10h52.23.098,judgeSpeechMusic_20210407_logNormShiftAmp,2020.1.2,MacIntel,60,,,,,,,,,,,,,,,,,,,,,,,,,,1,7.40131,,0,0,144,144,41,1,stimuli/stim_20210407_power2amp/equal_lnn_AM1.8Hz_6.m4a,,,
,,,,,40938,2021-05-05_10h52.23.098,judgeSpeechMusic_20210407_logNormShiftAmp,2020.1.2,MacIntel,60,,,,,,,,,,,,,,,,,,,,,,,,,,1,5.84151,,0,0,145,145,57,1,stimuli/stim_20210407_power2amp/equal_lnn_AM2.4Hz_76.m4a,,,
,,,,,40938,2021-05-05_10h52.23.098,judgeSpeechMusic_20210407_logNormShiftAmp,2020.1.2,MacIntel,60,,,,,,,,,,,,,,,,,,,,,,,,,,1,9.85528,,0,0,146,146,136,1,stimuli/stim_20210407_power2amp/equal_lnn_AM6Hz_73.m4a,,,
,,,,,40938,2021-05-05_10h52.23.098,judgeSpeechMusic_20210407_logNormShiftAmp,2020.1.2,MacIntel,60,,,,,,,,,,,,,,,,,,,,,,,,,,1,10.17062,4,1,0,147,147,19,1,stimuli/stim_20210407_power2amp/equal_lnn_AM1.2Hz_9.m4a,2.749275,,
,,,,,40938,2021-05-05_10h52.23.098,judgeSpeechMusic_20210407_logNormShiftAmp,2020.1.2,MacIntel,60,,,,,,,,,,,,,,,,,,,,,,,,,,1,11.3666,,0,0,148,148,90,1,stimuli/stim_20210407_power2amp/equal_lnn_AM4.2Hz_68.m4a,,,
,,,,,40938,2021-05-05_10h52.23.098,judgeSpeechMusic_20210407_logNormShiftAmp,2020.1.2,MacIntel,60,,,,,,,,,,,,,,,,,,,,,,,,,,1,9.69039,,0,0,149,149,50,1,stimuli/stim_20210407_power2amp/equal_lnn_AM2.4Hz_74.m4a,,,
,,,,,40938,2021-05-05_10h52.23.098,judgeSpeechMusic_20210407_logNormShiftAmp,2020.1.2,MacIntel,60,,,,,,,,,,,,,,,,,,,,,,,,,,1,11.594265,,0,1,0,150,108,1,stimuli/stim_20210407_power2amp/equal_lnn_AM4.8Hz_35.m4a,,,
,,,,,40938,2021-05-05_10h52.23.098,judgeSpeechMusic_20210407_logNormShiftAmp,2020.1.2,MacIntel,60,,,,,,,,,,,,,,,,,,,,,,,,,,1,9.43535,,0,1,1,151,28,1,stimuli/stim_20210407_power2amp/equal_lnn_AM1.2Hz_55.m4a,,,
,,,,,40938,2021-05-05_10h52.23.098,judgeSpeechMusic_20210407_logNormShiftAmp,2020.1.2,MacIntel,60,,,,,,,,,,,,,,,,,,,,,,,,,,1,6.977475,,0,1,2,152,76,1,stimuli/stim_20210407_power2amp/equal_lnn_AM3.6Hz_18.m4a,,,
,,,,,40938,2021-05-05_10h52.23.098,judgeSpeechMusic_20210407_logNormShiftAmp,2020.1.2,MacIntel,60,,,,,,,,,,,,,,,,,,,,,,,,,,1,5.791045,,0,1,3,153,85,1,stimuli/stim_20210407_power2amp/equal_lnn_AM3.6Hz_28.m4a,,,
,,,,,40938,2021-05-05_10h52.23.098,judgeSpeechMusic_20210407_logNormShiftAmp,2020.1.2,MacIntel,60,,,,,,,,,,,,,,,,,,,,,,,,,,1,6.06581,,0,1,4,154,102,1,stimuli/stim_20210407_power2amp/equal_lnn_AM4.2Hz_89.m4a,,,
,,,,,40938,2021-05-05_10h52.23.098,judgeSpeechMusic_20210407_logNormShiftAmp,2020.1.2,MacIntel,60,,,,,,,,,,,,,,,,,,,,,,,,,,1,5.81861,,0,1,5,155,145,1,stimuli/stim_20210407_power2amp/equal_lnn_AM6Hz_56.m4a,,,
,,,,,40938,2021-05-05_10h52.23.098,judgeSpeechMusic_20210407_logNormShiftAmp,2020.1.2,MacIntel,60,,,,,,,,,,,,,,,,,,,,,,,,,,1,6.852285,,0,1,6,156,74,1,stimuli/stim_20210407_power2amp/equal_lnn_AM3Hz_79.m4a,,,
,,,,,40938,2021-05-05_10h52.23.098,judgeSpeechMusic_20210407_logNormShiftAmp,2020.1.2,MacIntel,60,,,,,,,,,,,,,,,,,,,,,,,,,,1,5.3413,,0,1,7,157,48,1,stimuli/stim_20210407_power2amp/equal_lnn_AM2.4Hz_57.m4a,,,
,,,,,40938,2021-05-05_10h52.23.098,judgeSpeechMusic_20210407_logNormShiftAmp,2020.1.2,MacIntel,60,,,,,,,,,,,,,,,,,,,,,,,,,,1,5.969275,,0,1,8,158,69,1,stimuli/stim_20210407_power2amp/equal_lnn_AM3Hz_71.m4a,,,
,,,,,40938,2021-05-05_10h52.23.098,judgeSpeechMusic_20210407_logNormShiftAmp,2020.1.2,MacIntel,60,,,,,,,,,,,,,,,,,,,,,,,,,,1,5.978125,,0,1,9,159,51,1,stimuli/stim_20210407_power2amp/equal_lnn_AM2.4Hz_3.m4a,,,
,,,,,40938,2021-05-05_10h52.23.098,judgeSpeechMusic_20210407_logNormShiftAmp,2020.1.2,MacIntel,60,,,,,,,,,,,,,,,,,,,,,,,,,,1,8.005805,,0,1,10,160,49,1,stimuli/stim_20210407_power2amp/equal_lnn_AM2.4Hz_12.m4a,,,
,,,,,40938,2021-05-05_10h52.23.098,judgeSpeechMusic_20210407_logNormShiftAmp,2020.1.2,MacIntel,60,,,,,,,,,,,,,,,,,,,,,,,,,,1,19.460655,,0,1,11,161,129,1,stimuli/stim_20210407_power2amp/equal_lnn_AM5.4Hz_22.m4a,,,
,,,,,40938,2021-05-05_10h52.23.098,judgeSpeechMusic_20210407_logNormShiftAmp,2020.1.2,MacIntel,60,,,,,,,,,,,,,,,,,,,,,,,,,,1,19.11413,,0,1,12,162,114,1,stimuli/stim_20210407_power2amp/equal_lnn_AM4.8Hz_100.m4a,,,
,,,,,40938,2021-05-05_10h52.23.098,judgeSpeechMusic_20210407_logNormShiftAmp,2020.1.2,MacIntel,60,,,,,,,,,,,,,,,,,,,,,,,,,,1,12.27375,,0,1,13,163,45,1,stimuli/stim_20210407_power2amp/equal_lnn_AM2.4Hz_34.m4a,,,
,,,,,40938,2021-05-05_10h52.23.098,judgeSpeechMusic_20210407_logNormShiftAmp,2020.1.2,MacIntel,60,,,,,,,,,,,,,,,,,,,,,,,,,,1,9.826475,,0,1,14,164,111,1,stimuli/stim_20210407_power2amp/equal_lnn_AM4.8Hz_96.m4a,,,
,,,,,40938,2021-05-05_10h52.23.098,judgeSpeechMusic_20210407_logNormShiftAmp,2020.1.2,MacIntel,60,,,,,,,,,,,,,,,,,,,,,,,,,,1,5.96502,,0,1,15,165,147,1,stimuli/stim_20210407_power2amp/equal_lnn_AM6Hz_23.m4a,,,
,,,,,40938,2021-05-05_10h52.23.098,judgeSpeechMusic_20210407_logNormShiftAmp,2020.1.2,MacIntel,60,,,,,,,,,,,,,,,,,,,,,,,,,,1,15.52498,,0,1,16,166,84,1,stimuli/stim_20210407_power2amp/equal_lnn_AM3.6Hz_5.m4a,,,
,,,,,40938,2021-05-05_10h52.23.098,judgeSpeechMusic_20210407_logNormShiftAmp,2020.1.2,MacIntel,60,,,,,,,,,,,,,,,,,,,,,,,,,,1,5.746125,2,1,1,17,167,41,1,stimuli/stim_20210407_power2amp/equal_lnn_AM1.8Hz_6.m4a,1.35394,,
,,,,,40938,2021-05-05_10h52.23.098,judgeSpeechMusic_20210407_logNormShiftAmp,2020.1.2,MacIntel,60,,,,,,,,,,,,,,,,,,,,,,,,,,1,7.162545,,0,1,18,168,83,1,stimuli/stim_20210407_power2amp/equal_lnn_AM3.6Hz_25.m4a,,,
,,,,,40938,2021-05-05_10h52.23.098,judgeSpeechMusic_20210407_logNormShiftAmp,2020.1.2,MacIntel,60,,,,,,,,,,,,,,,,,,,,,,,,,,1,5.657635,,0,1,19,169,12,1,stimuli/stim_20210407_power2amp/equal_lnn_AM0.6Hz_47.m4a,,,
,,,,,40938,2021-05-05_10h52.23.098,judgeSpeechMusic_20210407_logNormShiftAmp,2020.1.2,MacIntel,60,,,,,,,,,,,,,,,,,,,,,,,,,,1,6.150485,,0,1,20,170,98,1,stimuli/stim_20210407_power2amp/equal_lnn_AM4.2Hz_69.m4a,,,
,,,,,40938,2021-05-05_10h52.23.098,judgeSpeechMusic_20210407_logNormShiftAmp,2020.1.2,MacIntel,60,,,,,,,,,,,,,,,,,,,,,,,,,,1,6.118725,,0,1,21,171,39,1,stimuli/stim_20210407_power2amp/equal_lnn_AM1.8Hz_8.m4a,,,
,,,,,40938,2021-05-05_10h52.23.098,judgeSpeechMusic_20210407_logNormShiftAmp,2020.1.2,MacIntel,60,,,,,,,,,,,,,,,,,,,,,,,,,,1,6.317805,,0,1,22,172,144,1,stimuli/stim_20210407_power2amp/equal_lnn_AM6Hz_19.m4a,,,
,,,,,40938,2021-05-05_10h52.23.098,judgeSpeechMusic_20210407_logNormShiftAmp,2020.1.2,MacIntel,60,,,,,,,,,,,,,,,,,,,,,,,,,,1,5.83535,,0,1,23,173,95,1,stimuli/stim_20210407_power2amp/equal_lnn_AM4.2Hz_49.m4a,,,
,,,,,40938,2021-05-05_10h52.23.098,judgeSpeechMusic_20210407_logNormShiftAmp,2020.1.2,MacIntel,60,,,,,,,,,,,,,,,,,,,,,,,,,,1,6.24162,,0,1,24,174,59,1,stimuli/stim_20210407_power2amp/equal_lnn_AM2.4Hz_69.m4a,,,
,,,,,40938,2021-05-05_10h52.23.098,judgeSpeechMusic_20210407_logNormShiftAmp,2020.1.2,MacIntel,60,,,,,,,,,,,,,,,,,,,,,,,,,,1,7.300385,,0,1,25,175,134,1,stimuli/stim_20210407_power2amp/equal_lnn_AM5.4Hz_19.m4a,,,
,,,,,40938,2021-05-05_10h52.23.098,judgeSpeechMusic_20210407_logNormShiftAmp,2020.1.2,MacIntel,60,,,,,,,,,,,,,,,,,,,,,,,,,,1,5.69955,,0,1,26,176,3,1,stimuli/stim_20210407_power2amp/equal_lnn_AM0.6Hz_29.m4a,,,
,,,,,40938,2021-05-05_10h52.23.098,judgeSpeechMusic_20210407_logNormShiftAmp,2020.1.2,MacIntel,60,,,,,,,,,,,,,,,,,,,,,,,,,,1,7.07631,,0,1,27,177,14,1,stimuli/stim_20210407_power2amp/equal_lnn_AM0.6Hz_92.m4a,,,
,,,,,40938,2021-05-05_10h52.23.098,judgeSpeechMusic_20210407_logNormShiftAmp,2020.1.2,MacIntel,60,,,,,,,,,,,,,,,,,,,,,,,,,,1,6.422155,,0,1,28,178,92,1,stimuli/stim_20210407_power2amp/equal_lnn_AM4.2Hz_55.m4a,,,
,,,,,40938,2021-05-05_10h52.23.098,judgeSpeechMusic_20210407_logNormShiftAmp,2020.1.2,MacIntel,60,,,,,,,,,,,,,,,,,,,,,,,,,,1,5.788295,,0,1,29,179,72,1,stimuli/stim_20210407_power2amp/equal_lnn_AM3Hz_61.m4a,,,
,,,,,40938,2021-05-05_10h52.23.098,judgeSpeechMusic_20210407_logNormShiftAmp,2020.1.2,MacIntel,60,,,,,,,,,,,,,,,,,,,,,,,,,,1,5.80994,,0,1,30,180,130,1,stimuli/stim_20210407_power2amp/equal_lnn_AM5.4Hz_43.m4a,,,
,,,,,40938,2021-05-05_10h52.23.098,judgeSpeechMusic_20210407_logNormShiftAmp,2020.1.2,MacIntel,60,,,,,,,,,,,,,,,,,,,,,,,,,,1,6.38816,,0,1,31,181,31,1,stimuli/stim_20210407_power2amp/equal_lnn_AM1.8Hz_65.m4a,,,
,,,,,40938,2021-05-05_10h52.23.098,judgeSpeechMusic_20210407_logNormShiftAmp,2020.1.2,MacIntel,60,,,,,,,,,,,,,,,,,,,,,,,,,,1,6.16648,,0,1,32,182,1,1,stimuli/stim_20210407_power2amp/equal_lnn_AM0.6Hz_87.m4a,,,
,,,,,40938,2021-05-05_10h52.23.098,judgeSpeechMusic_20210407_logNormShiftAmp,2020.1.2,MacIntel,60,,,,,,,,,,,,,,,,,,,,,,,,,,1,5.72387,,0,1,33,183,132,1,stimuli/stim_20210407_power2amp/equal_lnn_AM5.4Hz_47.m4a,,,
,,,,,40938,2021-05-05_10h52.23.098,judgeSpeechMusic_20210407_logNormShiftAmp,2020.1.2,MacIntel,60,,,,,,,,,,,,,,,,,,,,,,,,,,1,6.934495,,0,1,34,184,105,1,stimuli/stim_20210407_power2amp/equal_lnn_AM4.8Hz_68.m4a,,,
,,,,,40938,2021-05-05_10h52.23.098,judgeSpeechMusic_20210407_logNormShiftAmp,2020.1.2,MacIntel,60,,,,,,,,,,,,,,,,,,,,,,,,,,1,6.01842,,0,1,35,185,89,1,stimuli/stim_20210407_power2amp/equal_lnn_AM3.6Hz_45.m4a,,,
,,,,,40938,2021-05-05_10h52.23.098,judgeSpeechMusic_20210407_logNormShiftAmp,2020.1.2,MacIntel,60,,,,,,,,,,,,,,,,,,,,,,,,,,1,7.517125,,0,1,36,186,141,1,stimuli/stim_20210407_power2amp/equal_lnn_AM6Hz_7.m4a,,,
,,,,,40938,2021-05-05_10h52.23.098,judgeSpeechMusic_20210407_logNormShiftAmp,2020.1.2,MacIntel,60,,,,,,,,,,,,,,,,,,,,,,,,,,1,5.775415,,0,1,37,187,88,1,stimuli/stim_20210407_power2amp/equal_lnn_AM3.6Hz_65.m4a,,,
,,,,,40938,2021-05-05_10h52.23.098,judgeSpeechMusic_20210407_logNormShiftAmp,2020.1.2,MacIntel,60,,,,,,,,,,,,,,,,,,,,,,,,,,1,5.787435,,0,1,38,188,19,1,stimuli/stim_20210407_power2amp/equal_lnn_AM1.2Hz_9.m4a,,,
,,,,,40938,2021-05-05_10h52.23.098,judgeSpeechMusic_20210407_logNormShiftAmp,2020.1.2,MacIntel,60,,,,,,,,,,,,,,,,,,,,,,,,,,1,5.72187,,0,1,39,189,117,1,stimuli/stim_20210407_power2amp/equal_lnn_AM4.8Hz_18.m4a,,,
,,,,,40938,2021-05-05_10h52.23.098,judgeSpeechMusic_20210407_logNormShiftAmp,2020.1.2,MacIntel,60,,,,,,,,,,,,,,,,,,,,,,,,,,1,5.784865,,0,1,40,190,64,1,stimuli/stim_20210407_power2amp/equal_lnn_AM3Hz_87.m4a,,,
,,,,,40938,2021-05-05_10h52.23.098,judgeSpeechMusic_20210407_logNormShiftAmp,2020.1.2,MacIntel,60,,,,,,,,,,,,,,,,,,,,,,,,,,1,5.72365,,0,1,41,191,52,1,stimuli/stim_20210407_power2amp/equal_lnn_AM2.4Hz_33.m4a,,,
,,,,,40938,2021-05-05_10h52.23.098,judgeSpeechMusic_20210407_logNormShiftAmp,2020.1.2,MacIntel,60,,,,,,,,,,,,,,,,,,,,,,,,,,1,6.690335,1,1,1,42,192,16,1,stimuli/stim_20210407_power2amp/equal_lnn_AM1.2Hz_73.m4a,1.0441,,
,,,,,40938,2021-05-05_10h52.23.098,judgeSpeechMusic_20210407_logNormShiftAmp,2020.1.2,MacIntel,60,,,,,,,,,,,,,,,,,,,,,,,,,,1,5.646945,,0,1,43,193,135,1,stimuli/stim_20210407_power2amp/equal_lnn_AM6Hz_40.m4a,,,
,,,,,40938,2021-05-05_10h52.23.098,judgeSpeechMusic_20210407_logNormShiftAmp,2020.1.2,MacIntel,60,,,,,,,,,,,,,,,,,,,,,,,,,,1,5.855345,,0,1,44,194,8,1,stimuli/stim_20210407_power2amp/equal_lnn_AM0.6Hz_34.m4a,,,
,,,,,40938,2021-05-05_10h52.23.098,judgeSpeechMusic_20210407_logNormShiftAmp,2020.1.2,MacIntel,60,,,,,,,,,,,,,,,,,,,,,,,,,,1,5.965965,,0,1,45,195,71,1,stimuli/stim_20210407_power2amp/equal_lnn_AM3Hz_17.m4a,,,
,,,,,40938,2021-05-05_10h52.23.098,judgeSpeechMusic_20210407_logNormShiftAmp,2020.1.2,MacIntel,60,,,,,,,,,,,,,,,,,,,,,,,,,,1,5.951725,,0,1,46,196,56,1,stimuli/stim_20210407_power2amp/equal_lnn_AM2.4Hz_80.m4a,,,
,,,,,40938,2021-05-05_10h52.23.098,judgeSpeechMusic_20210407_logNormShiftAmp,2020.1.2,MacIntel,60,,,,,,,,,,,,,,,,,,,,,,,,,,1,6.62367,,0,1,47,197,43,1,stimuli/stim_20210407_power2amp/equal_lnn_AM1.8Hz_26.m4a,,,
,,,,,40938,2021-05-05_10h52.23.098,judgeSpeechMusic_20210407_logNormShiftAmp,2020.1.2,MacIntel,60,,,,,,,,,,,,,,,,,,,,,,,,,,1,5.99973,,0,1,48,198,90,1,stimuli/stim_20210407_power2amp/equal_lnn_AM4.2Hz_68.m4a,,,
,,,,,40938,2021-05-05_10h52.23.098,judgeSpeechMusic_20210407_logNormShiftAmp,2020.1.2,MacIntel,60,,,,,,,,,,,,,,,,,,,,,,,,,,1,6.13548,,0,1,49,199,65,1,stimuli/stim_20210407_power2amp/equal_lnn_AM3Hz_26.m4a,,,
,,,,,40938,2021-05-05_10h52.23.098,judgeSpeechMusic_20210407_logNormShiftAmp,2020.1.2,MacIntel,60,,,,,,,,,,,,,,,,,,,,,,,,,,1,6.156105,,0,1,50,200,94,1,stimuli/stim_20210407_power2amp/equal_lnn_AM4.2Hz_76.m4a,,,
,,,,,40938,2021-05-05_10h52.23.098,judgeSpeechMusic_20210407_logNormShiftAmp,2020.1.2,MacIntel,60,,,,,,,,,,,,,,,,,,,,,,,,,,1,8.88666,,0,1,51,201,44,1,stimuli/stim_20210407_power2amp/equal_lnn_AM1.8Hz_75.m4a,,,
,,,,,40938,2021-05-05_10h52.23.098,judgeSpeechMusic_20210407_logNormShiftAmp,2020.1.2,MacIntel,60,,,,,,,,,,,,,,,,,,,,,,,,,,1,5.55413,,0,1,52,202,0,1,stimuli/stim_20210407_power2amp/equal_lnn_AM0.6Hz_28.m4a,,,
,,,,,40938,2021-05-05_10h52.23.098,judgeSpeechMusic_20210407_logNormShiftAmp,2020.1.2,MacIntel,60,,,,,,,,,,,,,,,,,,,,,,,,,,1,6.81954,,0,1,53,203,5,1,stimuli/stim_20210407_power2amp/equal_lnn_AM0.6Hz_74.m4a,,,
,,,,,40938,2021-05-05_10h52.23.098,judgeSpeechMusic_20210407_logNormShiftAmp,2020.1.2,MacIntel,60,,,,,,,,,,,,,,,,,,,,,,,,,,1,5.842775,,0,1,54,204,35,1,stimuli/stim_20210407_power2amp/equal_lnn_AM1.8Hz_59.m4a,,,
,,,,,40938,2021-05-05_10h52.23.098,judgeSpeechMusic_20210407_logNormShiftAmp,2020.1.2,MacIntel,60,,,,,,,,,,,,,,,,,,,,,,,,,,1,6.105405,,0,1,55,205,37,1,stimuli/stim_20210407_power2amp/equal_lnn_AM1.8Hz_85.m4a,,,
,,,,,40938,2021-05-05_10h52.23.098,judgeSpeechMusic_20210407_logNormShiftAmp,2020.1.2,MacIntel,60,,,,,,,,,,,,,,,,,,,,,,,,,,1,6.902135,,0,1,56,206,107,1,stimuli/stim_20210407_power2amp/equal_lnn_AM4.8Hz_99.m4a,,,
,,,,,40938,2021-05-05_10h52.23.098,judgeSpeechMusic_20210407_logNormShiftAmp,2020.1.2,MacIntel,60,,,,,,,,,,,,,,,,,,,,,,,,,,1,6.706865,,0,1,57,207,77,1,stimuli/stim_20210407_power2amp/equal_lnn_AM3.6Hz_63.m4a,,,
,,,,,40938,2021-05-05_10h52.23.098,judgeSpeechMusic_20210407_logNormShiftAmp,2020.1.2,MacIntel,60,,,,,,,,,,,,,,,,,,,,,,,,,,1,5.77298,,0,1,58,208,93,1,stimuli/stim_20210407_power2amp/equal_lnn_AM4.2Hz_21.m4a,,,
,,,,,40938,2021-05-05_10h52.23.098,judgeSpeechMusic_20210407_logNormShiftAmp,2020.1.2,MacIntel,60,,,,,,,,,,,,,,,,,,,,,,,,,,1,6.20072,,0,1,59,209,119,1,stimuli/stim_20210407_power2amp/equal_lnn_AM4.8Hz_8.m4a,,,
,,,,,40938,2021-05-05_10h52.23.098,judgeSpeechMusic_20210407_logNormShiftAmp,2020.1.2,MacIntel,60,,,,,,,,,,,,,,,,,,,,,,,,,,2,8.65342,,0,1,60,210,54,1,stimuli/stim_20210407_power2amp/equal_lnn_AM2.4Hz_49.m4a,,,
,,,,,40938,2021-05-05_10h52.23.098,judgeSpeechMusic_20210407_logNormShiftAmp,2020.1.2,MacIntel,60,,,,,,,,,,,,,,,,,,,,,,,,,,2,6.654565,,0,1,61,211,61,1,stimuli/stim_20210407_power2amp/equal_lnn_AM3Hz_75.m4a,,,
,,,,,40938,2021-05-05_10h52.23.098,judgeSpeechMusic_20210407_logNormShiftAmp,2020.1.2,MacIntel,60,,,,,,,,,,,,,,,,,,,,,,,,,,2,6.984915,,0,1,62,212,124,1,stimuli/stim_20210407_power2amp/equal_lnn_AM5.4Hz_75.m4a,,,
,,,,,40938,2021-05-05_10h52.23.098,judgeSpeechMusic_20210407_logNormShiftAmp,2020.1.2,MacIntel,60,,,,,,,,,,,,,,,,,,,,,,,,,,2,8.60296,1,1,1,63,213,17,1,stimuli/stim_20210407_power2amp/equal_lnn_AM1.2Hz_60.m4a,0.97873,,
,,,,,40938,2021-05-05_10h52.23.098,judgeSpeechMusic_20210407_logNormShiftAmp,2020.1.2,MacIntel,60,,,,,,,,,,,,,,,,,,,,,,,,,,2,7.76535,,0,1,64,214,96,1,stimuli/stim_20210407_power2amp/equal_lnn_AM4.2Hz_16.m4a,,,
,,,,,40938,2021-05-05_10h52.23.098,judgeSpeechMusic_20210407_logNormShiftAmp,2020.1.2,MacIntel,60,,,,,,,,,,,,,,,,,,,,,,,,,,2,6.56873,,0,1,65,215,103,1,stimuli/stim_20210407_power2amp/equal_lnn_AM4.2Hz_52.m4a,,,
,,,,,40938,2021-05-05_10h52.23.098,judgeSpeechMusic_20210407_logNormShiftAmp,2020.1.2,MacIntel,60,,,,,,,,,,,,,,,,,,,,,,,,,,2,8.53737,,0,1,66,216,7,1,stimuli/stim_20210407_power2amp/equal_lnn_AM0.6Hz_4.m4a,,,
,,,,,40938,2021-05-05_10h52.23.098,judgeSpeechMusic_20210407_logNormShiftAmp,2020.1.2,MacIntel,60,,,,,,,,,,,,,,,,,,,,,,,,,,2,6.451595,,0,1,67,217,26,1,stimuli/stim_20210407_power2amp/equal_lnn_AM1.2Hz_46.m4a,,,
,,,,,40938,2021-05-05_10h52.23.098,judgeSpeechMusic_20210407_logNormShiftAmp,2020.1.2,MacIntel,60,,,,,,,,,,,,,,,,,,,,,,,,,,2,5.793865,,0,1,68,218,121,1,stimuli/stim_20210407_power2amp/equal_lnn_AM5.4Hz_12.m4a,,,
,,,,,40938,2021-05-05_10h52.23.098,judgeSpeechMusic_20210407_logNormShiftAmp,2020.1.2,MacIntel,60,,,,,,,,,,,,,,,,,,,,,,,,,,2,5.816395,,0,1,69,219,6,1,stimuli/stim_20210407_power2amp/equal_lnn_AM0.6Hz_94.m4a,,,
,,,,,40938,2021-05-05_10h52.23.098,judgeSpeechMusic_20210407_logNormShiftAmp,2020.1.2,MacIntel,60,,,,,,,,,,,,,,,,,,,,,,,,,,2,6.22707,,0,1,70,220,133,1,stimuli/stim_20210407_power2amp/equal_lnn_AM5.4Hz_49.m4a,,,
,,,,,40938,2021-05-05_10h52.23.098,judgeSpeechMusic_20210407_logNormShiftAmp,2020.1.2,MacIntel,60,,,,,,,,,,,,,,,,,,,,,,,,,,1,5.92295,,0,1,71,221,47,1,stimuli/stim_20210407_power2amp/equal_lnn_AM2.4Hz_93.m4a,,,
,,,,,40938,2021-05-05_10h52.23.098,judgeSpeechMusic_20210407_logNormShiftAmp,2020.1.2,MacIntel,60,,,,,,,,,,,,,,,,,,,,,,,,,,1,5.633485,,0,1,72,222,86,1,stimuli/stim_20210407_power2amp/equal_lnn_AM3.6Hz_56.m4a,,,
,,,,,40938,2021-05-05_10h52.23.098,judgeSpeechMusic_20210407_logNormShiftAmp,2020.1.2,MacIntel,60,,,,,,,,,,,,,,,,,,,,,,,,,,1,6.436345,,0,1,73,223,131,1,stimuli/stim_20210407_power2amp/equal_lnn_AM5.4Hz_88.m4a,,,
,,,,,40938,2021-05-05_10h52.23.098,judgeSpeechMusic_20210407_logNormShiftAmp,2020.1.2,MacIntel,60,,,,,,,,,,,,,,,,,,,,,,,,,,1,5.82186,,0,1,74,224,67,1,stimuli/stim_20210407_power2amp/equal_lnn_AM3Hz_58.m4a,,,
,,,,,40938,2021-05-05_10h52.23.098,judgeSpeechMusic_20210407_logNormShiftAmp,2020.1.2,MacIntel,60,,,,,,,,,,,,,,,,,,,,,,,,,,1,6.30625,,0,1,75,225,142,1,stimuli/stim_20210407_power2amp/equal_lnn_AM6Hz_80.m4a,,,
,,,,,40938,2021-05-05_10h52.23.098,judgeSpeechMusic_20210407_logNormShiftAmp,2020.1.2,MacIntel,60,,,,,,,,,,,,,,,,,,,,,,,,,,1,5.98551,,0,1,76,226,55,1,stimuli/stim_20210407_power2amp/equal_lnn_AM2.4Hz_63.m4a,,,
,,,,,40938,2021-05-05_10h52.23.098,judgeSpeechMusic_20210407_logNormShiftAmp,2020.1.2,MacIntel,60,,,,,,,,,,,,,,,,,,,,,,,,,,1,5.674765,,0,1,77,227,15,1,stimuli/stim_20210407_power2amp/equal_lnn_AM1.2Hz_41.m4a,,,
,,,,,40938,2021-05-05_10h52.23.098,judgeSpeechMusic_20210407_logNormShiftAmp,2020.1.2,MacIntel,60,,,,,,,,,,,,,,,,,,,,,,,,,,1,6.177375,,0,1,78,228,57,1,stimuli/stim_20210407_power2amp/equal_lnn_AM2.4Hz_76.m4a,,,
,,,,,40938,2021-05-05_10h52.23.098,judgeSpeechMusic_20210407_logNormShiftAmp,2020.1.2,MacIntel,60,,,,,,,,,,,,,,,,,,,,,,,,,,1,5.83364,,0,1,79,229,97,1,stimuli/stim_20210407_power2amp/equal_lnn_AM4.2Hz_23.m4a,,,
,,,,,40938,2021-05-05_10h52.23.098,judgeSpeechMusic_20210407_logNormShiftAmp,2020.1.2,MacIntel,60,,,,,,,,,,,,,,,,,,,,,,,,,,1,7.420705,,0,1,80,230,63,1,stimuli/stim_20210407_power2amp/equal_lnn_AM3Hz_41.m4a,,,
,,,,,40938,2021-05-05_10h52.23.098,judgeSpeechMusic_20210407_logNormShiftAmp,2020.1.2,MacIntel,60,,,,,,,,,,,,,,,,,,,,,,,,,,1,8.65871,,0,1,81,231,128,1,stimuli/stim_20210407_power2amp/equal_lnn_AM5.4Hz_13.m4a,,,
,,,,,40938,2021-05-05_10h52.23.098,judgeSpeechMusic_20210407_logNormShiftAmp,2020.1.2,MacIntel,60,,,,,,,,,,,,,,,,,,,,,,,,,,1,7.294325,,0,1,82,232,9,1,stimuli/stim_20210407_power2amp/equal_lnn_AM0.6Hz_57.m4a,,,
,,,,,40938,2021-05-05_10h52.23.098,judgeSpeechMusic_20210407_logNormShiftAmp,2020.1.2,MacIntel,60,,,,,,,,,,,,,,,,,,,,,,,,,,1,6.155505,,0,1,83,233,2,1,stimuli/stim_20210407_power2amp/equal_lnn_AM0.6Hz_60.m4a,,,
,,,,,40938,2021-05-05_10h52.23.098,judgeSpeechMusic_20210407_logNormShiftAmp,2020.1.2,MacIntel,60,,,,,,,,,,,,,,,,,,,,,,,,,,1,5.73478,,0,1,84,234,75,1,stimuli/stim_20210407_power2amp/equal_lnn_AM3.6Hz_22.m4a,,,
,,,,,40938,2021-05-05_10h52.23.098,judgeSpeechMusic_20210407_logNormShiftAmp,2020.1.2,MacIntel,60,,,,,,,,,,,,,,,,,,,,,,,,,,1,5.534555,,0,1,85,235,109,1,stimuli/stim_20210407_power2amp/equal_lnn_AM4.8Hz_87.m4a,,,
,,,,,40938,2021-05-05_10h52.23.098,judgeSpeechMusic_20210407_logNormShiftAmp,2020.1.2,MacIntel,60,,,,,,,,,,,,,,,,,,,,,,,,,,1,6.40312,,0,1,86,236,42,1,stimuli/stim_20210407_power2amp/equal_lnn_AM1.8Hz_63.m4a,,,
,,,,,40938,2021-05-05_10h52.23.098,judgeSpeechMusic_20210407_logNormShiftAmp,2020.1.2,MacIntel,60,,,,,,,,,,,,,,,,,,,,,,,,,,1,6.49367,4,1,1,87,237,125,1,stimuli/stim_20210407_power2amp/equal_lnn_AM5.4Hz_18.m4a,2.12365,,
,,,,,40938,2021-05-05_10h52.23.098,judgeSpeechMusic_20210407_logNormShiftAmp,2020.1.2,MacIntel,60,,,,,,,,,,,,,,,,,,,,,,,,,,1,5.220605,,0,1,88,238,30,1,stimuli/stim_20210407_power2amp/equal_lnn_AM1.8Hz_39.m4a,,,
,,,,,40938,2021-05-05_10h52.23.098,judgeSpeechMusic_20210407_logNormShiftAmp,2020.1.2,MacIntel,60,,,,,,,,,,,,,,,,,,,,,,,,,,1,5.287325,,0,1,89,239,22,1,stimuli/stim_20210407_power2amp/equal_lnn_AM1.2Hz_100.m4a,,,
,,,,,40938,2021-05-05_10h52.23.098,judgeSpeechMusic_20210407_logNormShiftAmp,2020.1.2,MacIntel,60,,,,,,,,,,,,,,,,,,,,,,,,,,1,5.875615,,0,1,90,240,140,1,stimuli/stim_20210407_power2amp/equal_lnn_AM6Hz_90.m4a,,,
,,,,,40938,2021-05-05_10h52.23.098,judgeSpeechMusic_20210407_logNormShiftAmp,2020.1.2,MacIntel,60,,,,,,,,,,,,,,,,,,,,,,,,,,1,6.14188,,0,1,91,241,25,1,stimuli/stim_20210407_power2amp/equal_lnn_AM1.2Hz_86.m4a,,,
,,,,,40938,2021-05-05_10h52.23.098,judgeSpeechMusic_20210407_logNormShiftAmp,2020.1.2,MacIntel,60,,,,,,,,,,,,,,,,,,,,,,,,,,1,6.14316,,0,1,92,242,32,1,stimuli/stim_20210407_power2amp/equal_lnn_AM1.8Hz_95.m4a,,,
,,,,,40938,2021-05-05_10h52.23.098,judgeSpeechMusic_20210407_logNormShiftAmp,2020.1.2,MacIntel,60,,,,,,,,,,,,,,,,,,,,,,,,,,1,5.60166,,0,1,93,243,80,1,stimuli/stim_20210407_power2amp/equal_lnn_AM3.6Hz_53.m4a,,,
,,,,,40938,2021-05-05_10h52.23.098,judgeSpeechMusic_20210407_logNormShiftAmp,2020.1.2,MacIntel,60,,,,,,,,,,,,,,,,,,,,,,,,,,1,5.72213,,0,1,94,244,149,1,stimuli/stim_20210407_power2amp/equal_lnn_AM6Hz_78.m4a,,,
,,,,,40938,2021-05-05_10h52.23.098,judgeSpeechMusic_20210407_logNormShiftAmp,2020.1.2,MacIntel,60,,,,,,,,,,,,,,,,,,,,,,,,,,1,5.246255,,0,1,95,245,46,1,stimuli/stim_20210407_power2amp/equal_lnn_AM2.4Hz_10.m4a,,,
,,,,,40938,2021-05-05_10h52.23.098,judgeSpeechMusic_20210407_logNormShiftAmp,2020.1.2,MacIntel,60,,,,,,,,,,,,,,,,,,,,,,,,,,1,5.58336,,0,1,96,246,13,1,stimuli/stim_20210407_power2amp/equal_lnn_AM0.6Hz_6.m4a,,,
,,,,,40938,2021-05-05_10h52.23.098,judgeSpeechMusic_20210407_logNormShiftAmp,2020.1.2,MacIntel,60,,,,,,,,,,,,,,,,,,,,,,,,,,2,5.96847,,0,1,97,247,58,1,stimuli/stim_20210407_power2amp/equal_lnn_AM2.4Hz_47.m4a,,,
,,,,,40938,2021-05-05_10h52.23.098,judgeSpeechMusic_20210407_logNormShiftAmp,2020.1.2,MacIntel,60,,,,,,,,,,,,,,,,,,,,,,,,,,2,7.667985,,0,1,98,248,112,1,stimuli/stim_20210407_power2amp/equal_lnn_AM4.8Hz_64.m4a,,,
,,,,,40938,2021-05-05_10h52.23.098,judgeSpeechMusic_20210407_logNormShiftAmp,2020.1.2,MacIntel,60,,,,,,,,,,,,,,,,,,,,,,,,,,2,5.89148,,0,1,99,249,99,1,stimuli/stim_20210407_power2amp/equal_lnn_AM4.2Hz_34.m4a,,,
,,,,,40938,2021-05-05_10h52.23.098,judgeSpeechMusic_20210407_logNormShiftAmp,2020.1.2,MacIntel,60,,,,,,,,,,,,,,,,,,,,,,,,,,1,6.28715,,0,1,100,250,106,1,stimuli/stim_20210407_power2amp/equal_lnn_AM4.8Hz_76.m4a,,,
,,,,,40938,2021-05-05_10h52.23.098,judgeSpeechMusic_20210407_logNormShiftAmp,2020.1.2,MacIntel,60,,,,,,,,,,,,,,,,,,,,,,,,,,2,6.694605,,0,1,101,251,78,1,stimuli/stim_20210407_power2amp/equal_lnn_AM3.6Hz_72.m4a,,,
,,,,,40938,2021-05-05_10h52.23.098,judgeSpeechMusic_20210407_logNormShiftAmp,2020.1.2,MacIntel,60,,,,,,,,,,,,,,,,,,,,,,,,,,2,5.908055,,0,1,102,252,104,1,stimuli/stim_20210407_power2amp/equal_lnn_AM4.2Hz_82.m4a,,,
,,,,,40938,2021-05-05_10h52.23.098,judgeSpeechMusic_20210407_logNormShiftAmp,2020.1.2,MacIntel,60,,,,,,,,,,,,,,,,,,,,,,,,,,2,5.80187,,0,1,103,253,23,1,stimuli/stim_20210407_power2amp/equal_lnn_AM1.2Hz_19.m4a,,,
,,,,,40938,2021-05-05_10h52.23.098,judgeSpeechMusic_20210407_logNormShiftAmp,2020.1.2,MacIntel,60,,,,,,,,,,,,,,,,,,,,,,,,,,2,6.168285,,0,1,104,254,34,1,stimuli/stim_20210407_power2amp/equal_lnn_AM1.8Hz_4.m4a,,,
,,,,,40938,2021-05-05_10h52.23.098,judgeSpeechMusic_20210407_logNormShiftAmp,2020.1.2,MacIntel,60,,,,,,,,,,,,,,,,,,,,,,,,,,2,9.602045,,0,1,105,255,27,1,stimuli/stim_20210407_power2amp/equal_lnn_AM1.2Hz_65.m4a,,,
,,,,,40938,2021-05-05_10h52.23.098,judgeSpeechMusic_20210407_logNormShiftAmp,2020.1.2,MacIntel,60,,,,,,,,,,,,,,,,,,,,,,,,,,2,6.790505,,0,1,106,256,126,1,stimuli/stim_20210407_power2amp/equal_lnn_AM5.4Hz_9.m4a,,,
,,,,,40938,2021-05-05_10h52.23.098,judgeSpeechMusic_20210407_logNormShiftAmp,2020.1.2,MacIntel,60,,,,,,,,,,,,,,,,,,,,,,,,,,2,5.807605,,0,1,107,257,66,1,stimuli/stim_20210407_power2amp/equal_lnn_AM3Hz_6.m4a,,,
,,,,,40938,2021-05-05_10h52.23.098,judgeSpeechMusic_20210407_logNormShiftAmp,2020.1.2,MacIntel,60,,,,,,,,,,,,,,,,,,,,,,,,,,1,5.64831,,0,1,108,258,38,1,stimuli/stim_20210407_power2amp/equal_lnn_AM1.8Hz_12.m4a,,,
,,,,,40938,2021-05-05_10h52.23.098,judgeSpeechMusic_20210407_logNormShiftAmp,2020.1.2,MacIntel,60,,,,,,,,,,,,,,,,,,,,,,,,,,1,5.624565,,0,1,109,259,143,1,stimuli/stim_20210407_power2amp/equal_lnn_AM6Hz_3.m4a,,,
,,,,,40938,2021-05-05_10h52.23.098,judgeSpeechMusic_20210407_logNormShiftAmp,2020.1.2,MacIntel,60,,,,,,,,,,,,,,,,,,,,,,,,,,1,5.489435,,0,1,110,260,24,1,stimuli/stim_20210407_power2amp/equal_lnn_AM1.2Hz_87.m4a,,,
,,,,,40938,2021-05-05_10h52.23.098,judgeSpeechMusic_20210407_logNormShiftAmp,2020.1.2,MacIntel,60,,,,,,,,,,,,,,,,,,,,,,,,,,1,5.62033,,0,1,111,261,120,1,stimuli/stim_20210407_power2amp/equal_lnn_AM5.4Hz_31.m4a,,,
,,,,,40938,2021-05-05_10h52.23.098,judgeSpeechMusic_20210407_logNormShiftAmp,2020.1.2,MacIntel,60,,,,,,,,,,,,,,,,,,,,,,,,,,1,5.75515,2,1,1,112,262,91,1,stimuli/stim_20210407_power2amp/equal_lnn_AM4.2Hz_59.m4a,0.57786,,
,,,,,40938,2021-05-05_10h52.23.098,judgeSpeechMusic_20210407_logNormShiftAmp,2020.1.2,MacIntel,60,,,,,,,,,,,,,,,,,,,,,,,,,,1,9.93427,,0,1,113,263,4,1,stimuli/stim_20210407_power2amp/equal_lnn_AM0.6Hz_16.m4a,,,
,,,,,40938,2021-05-05_10h52.23.098,judgeSpeechMusic_20210407_logNormShiftAmp,2020.1.2,MacIntel,60,,,,,,,,,,,,,,,,,,,,,,,,,,1,6.52485,,0,1,114,264,146,1,stimuli/stim_20210407_power2amp/equal_lnn_AM6Hz_24.m4a,,,
,,,,,40938,2021-05-05_10h52.23.098,judgeSpeechMusic_20210407_logNormShiftAmp,2020.1.2,MacIntel,60,,,,,,,,,,,,,,,,,,,,,,,,,,1,5.77727,,0,1,115,265,50,1,stimuli/stim_20210407_power2amp/equal_lnn_AM2.4Hz_74.m4a,,,
,,,,,40938,2021-05-05_10h52.23.098,judgeSpeechMusic_20210407_logNormShiftAmp,2020.1.2,MacIntel,60,,,,,,,,,,,,,,,,,,,,,,,,,,1,5.6858,,0,1,116,266,101,1,stimuli/stim_20210407_power2amp/equal_lnn_AM4.2Hz_83.m4a,,,
,,,,,40938,2021-05-05_10h52.23.098,judgeSpeechMusic_20210407_logNormShiftAmp,2020.1.2,MacIntel,60,,,,,,,,,,,,,,,,,,,,,,,,,,1,5.700505,,0,1,117,267,79,1,stimuli/stim_20210407_power2amp/equal_lnn_AM3.6Hz_90.m4a,,,
,,,,,40938,2021-05-05_10h52.23.098,judgeSpeechMusic_20210407_logNormShiftAmp,2020.1.2,MacIntel,60,,,,,,,,,,,,,,,,,,,,,,,,,,1,6.067865,,0,1,118,268,73,1,stimuli/stim_20210407_power2amp/equal_lnn_AM3Hz_100.m4a,,,
,,,,,40938,2021-05-05_10h52.23.098,judgeSpeechMusic_20210407_logNormShiftAmp,2020.1.2,MacIntel,60,,,,,,,,,,,,,,,,,,,,,,,,,,1,6.85688,,0,1,119,269,127,1,stimuli/stim_20210407_power2amp/equal_lnn_AM5.4Hz_29.m4a,,,
,,,,,40938,2021-05-05_10h52.23.098,judgeSpeechMusic_20210407_logNormShiftAmp,2020.1.2,MacIntel,60,,,,,,,,,,,,,,,,,,,,,,,,,,2,6.69503,,0,1,120,270,113,1,stimuli/stim_20210407_power2amp/equal_lnn_AM4.8Hz_25.m4a,,,
,,,,,40938,2021-05-05_10h52.23.098,judgeSpeechMusic_20210407_logNormShiftAmp,2020.1.2,MacIntel,60,,,,,,,,,,,,,,,,,,,,,,,,,,2,6.2709,,0,1,121,271,110,1,stimuli/stim_20210407_power2amp/equal_lnn_AM4.8Hz_57.m4a,,,
,,,,,40938,2021-05-05_10h52.23.098,judgeSpeechMusic_20210407_logNormShiftAmp,2020.1.2,MacIntel,60,,,,,,,,,,,,,,,,,,,,,,,,,,2,11.439635,,0,1,122,272,118,1,stimuli/stim_20210407_power2amp/equal_lnn_AM4.8Hz_12.m4a,,,
,,,,,40938,2021-05-05_10h52.23.098,judgeSpeechMusic_20210407_logNormShiftAmp,2020.1.2,MacIntel,60,,,,,,,,,,,,,,,,,,,,,,,,,,2,14.2678,,0,1,123,273,10,1,stimuli/stim_20210407_power2amp/equal_lnn_AM0.6Hz_52.m4a,,,
,,,,,40938,2021-05-05_10h52.23.098,judgeSpeechMusic_20210407_logNormShiftAmp,2020.1.2,MacIntel,60,,,,,,,,,,,,,,,,,,,,,,,,,,2,15.372125,,0,1,124,274,68,1,stimuli/stim_20210407_power2amp/equal_lnn_AM3Hz_30.m4a,,,
,,,,,40938,2021-05-05_10h52.23.098,judgeSpeechMusic_20210407_logNormShiftAmp,2020.1.2,MacIntel,60,,,,,,,,,,,,,,,,,,,,,,,,,,2,9.25012,,0,1,125,275,33,1,stimuli/stim_20210407_power2amp/equal_lnn_AM1.8Hz_67.m4a,,,
,,,,,40938,2021-05-05_10h52.23.098,judgeSpeechMusic_20210407_logNormShiftAmp,2020.1.2,MacIntel,60,,,,,,,,,,,,,,,,,,,,,,,,,,2,5.633365,,0,1,126,276,87,1,stimuli/stim_20210407_power2amp/equal_lnn_AM3.6Hz_21.m4a,,,
,,,,,40938,2021-05-05_10h52.23.098,judgeSpeechMusic_20210407_logNormShiftAmp,2020.1.2,MacIntel,60,,,,,,,,,,,,,,,,,,,,,,,,,,2,5.31632,,0,1,127,277,60,1,stimuli/stim_20210407_power2amp/equal_lnn_AM3Hz_23.m4a,,,
,,,,,40938,2021-05-05_10h52.23.098,judgeSpeechMusic_20210407_logNormShiftAmp,2020.1.2,MacIntel,60,,,,,,,,,,,,,,,,,,,,,,,,,,2,6.406605,,0,1,128,278,81,1,stimuli/stim_20210407_power2amp/equal_lnn_AM3.6Hz_83.m4a,,,
,,,,,40938,2021-05-05_10h52.23.098,judgeSpeechMusic_20210407_logNormShiftAmp,2020.1.2,MacIntel,60,,,,,,,,,,,,,,,,,,,,,,,,,,2,5.632005,,0,1,129,279,62,1,stimuli/stim_20210407_power2amp/equal_lnn_AM3Hz_82.m4a,,,
,,,,,40938,2021-05-05_10h52.23.098,judgeSpeechMusic_20210407_logNormShiftAmp,2020.1.2,MacIntel,60,,,,,,,,,,,,,,,,,,,,,,,,,,2,5.77216,,0,1,130,280,116,1,stimuli/stim_20210407_power2amp/equal_lnn_AM4.8Hz_13.m4a,,,
,,,,,40938,2021-05-05_10h52.23.098,judgeSpeechMusic_20210407_logNormShiftAmp,2020.1.2,MacIntel,60,,,,,,,,,,,,,,,,,,,,,,,,,,2,6.037965,,0,1,131,281,100,1,stimuli/stim_20210407_power2amp/equal_lnn_AM4.2Hz_75.m4a,,,
,,,,,40938,2021-05-05_10h52.23.098,judgeSpeechMusic_20210407_logNormShiftAmp,2020.1.2,MacIntel,60,,,,,,,,,,,,,,,,,,,,,,,,,,2,5.28852,,0,1,132,282,82,1,stimuli/stim_20210407_power2amp/equal_lnn_AM3.6Hz_26.m4a,,,
,,,,,40938,2021-05-05_10h52.23.098,judgeSpeechMusic_20210407_logNormShiftAmp,2020.1.2,MacIntel,60,,,,,,,,,,,,,,,,,,,,,,,,,,2,5.435985,1,1,1,133,283,70,1,stimuli/stim_20210407_power2amp/equal_lnn_AM3Hz_45.m4a,1.29754,,
,,,,,40938,2021-05-05_10h52.23.098,judgeSpeechMusic_20210407_logNormShiftAmp,2020.1.2,MacIntel,60,,,,,,,,,,,,,,,,,,,,,,,,,,1,6.585475,,0,1,134,284,40,1,stimuli/stim_20210407_power2amp/equal_lnn_AM1.8Hz_44.m4a,,,
,,,,,40938,2021-05-05_10h52.23.098,judgeSpeechMusic_20210407_logNormShiftAmp,2020.1.2,MacIntel,60,,,,,,,,,,,,,,,,,,,,,,,,,,1,6.1476,,0,1,135,285,139,1,stimuli/stim_20210407_power2amp/equal_lnn_AM6Hz_71.m4a,,,
,,,,,40938,2021-05-05_10h52.23.098,judgeSpeechMusic_20210407_logNormShiftAmp,2020.1.2,MacIntel,60,,,,,,,,,,,,,,,,,,,,,,,,,,2,6.9588,,0,1,136,286,115,1,stimuli/stim_20210407_power2amp/equal_lnn_AM4.8Hz_17.m4a,,,
,,,,,40938,2021-05-05_10h52.23.098,judgeSpeechMusic_20210407_logNormShiftAmp,2020.1.2,MacIntel,60,,,,,,,,,,,,,,,,,,,,,,,,,,2,6.13833,,0,1,137,287,53,1,stimuli/stim_20210407_power2amp/equal_lnn_AM2.4Hz_89.m4a,,,
,,,,,40938,2021-05-05_10h52.23.098,judgeSpeechMusic_20210407_logNormShiftAmp,2020.1.2,MacIntel,60,,,,,,,,,,,,,,,,,,,,,,,,,,1,5.598485,,0,1,138,288,20,1,stimuli/stim_20210407_power2amp/equal_lnn_AM1.2Hz_79.m4a,,,
,,,,,40938,2021-05-05_10h52.23.098,judgeSpeechMusic_20210407_logNormShiftAmp,2020.1.2,MacIntel,60,,,,,,,,,,,,,,,,,,,,,,,,,,1,5.37481,,0,1,139,289,36,1,stimuli/stim_20210407_power2amp/equal_lnn_AM1.8Hz_74.m4a,,,
,,,,,40938,2021-05-05_10h52.23.098,judgeSpeechMusic_20210407_logNormShiftAmp,2020.1.2,MacIntel,60,,,,,,,,,,,,,,,,,,,,,,,,,,1,5.770875,,0,1,140,290,11,1,stimuli/stim_20210407_power2amp/equal_lnn_AM0.6Hz_77.m4a,,,
,,,,,40938,2021-05-05_10h52.23.098,judgeSpeechMusic_20210407_logNormShiftAmp,2020.1.2,MacIntel,60,,,,,,,,,,,,,,,,,,,,,,,,,,1,5.584875,,0,1,141,291,21,1,stimuli/stim_20210407_power2amp/equal_lnn_AM1.2Hz_4.m4a,,,
,,,,,40938,2021-05-05_10h52.23.098,judgeSpeechMusic_20210407_logNormShiftAmp,2020.1.2,MacIntel,60,,,,,,,,,,,,,,,,,,,,,,,,,,1,5.66549,,0,1,142,292,136,1,stimuli/stim_20210407_power2amp/equal_lnn_AM6Hz_73.m4a,,,
,,,,,40938,2021-05-05_10h52.23.098,judgeSpeechMusic_20210407_logNormShiftAmp,2020.1.2,MacIntel,60,,,,,,,,,,,,,,,,,,,,,,,,,,1,5.636425,,0,1,143,293,138,1,stimuli/stim_20210407_power2amp/equal_lnn_AM6Hz_31.m4a,,,
,,,,,40938,2021-05-05_10h52.23.098,judgeSpeechMusic_20210407_logNormShiftAmp,2020.1.2,MacIntel,60,,,,,,,,,,,,,,,,,,,,,,,,,,1,5.62552,,0,1,144,294,148,1,stimuli/stim_20210407_power2amp/equal_lnn_AM6Hz_89.m4a,,,
,,,,,40938,2021-05-05_10h52.23.098,judgeSpeechMusic_20210407_logNormShiftAmp,2020.1.2,MacIntel,60,,,,,,,,,,,,,,,,,,,,,,,,,,1,5.90657,,0,1,145,295,18,1,stimuli/stim_20210407_power2amp/equal_lnn_AM1.2Hz_75.m4a,,,
,,,,,40938,2021-05-05_10h52.23.098,judgeSpeechMusic_20210407_logNormShiftAmp,2020.1.2,MacIntel,60,,,,,,,,,,,,,,,,,,,,,,,,,,1,5.960155,,0,1,146,296,137,1,stimuli/stim_20210407_power2amp/equal_lnn_AM6Hz_39.m4a,,,
,,,,,40938,2021-05-05_10h52.23.098,judgeSpeechMusic_20210407_logNormShiftAmp,2020.1.2,MacIntel,60,,,,,,,,,,,,,,,,,,,,,,,,,,1,5.801745,,0,1,147,297,123,1,stimuli/stim_20210407_power2amp/equal_lnn_AM5.4Hz_87.m4a,,,
,,,,,40938,2021-05-05_10h52.23.098,judgeSpeechMusic_20210407_logNormShiftAmp,2020.1.2,MacIntel,60,,,,,,,,,,,,,,,,,,,,,,,,,,1,5.851365,,0,1,148,298,29,1,stimuli/stim_20210407_power2amp/equal_lnn_AM1.2Hz_90.m4a,,,
,,,,,40938,2021-05-05_10h52.23.098,judgeSpeechMusic_20210407_logNormShiftAmp,2020.1.2,MacIntel,60,,,,,,,,,,,,,,,,,,,,,,,,,,1,5.669315,,0,1,149,299,122,1,stimuli/stim_20210407_power2amp/equal_lnn_AM5.4Hz_4.m4a,,,
,,,,,40938,2021-05-05_10h52.23.098,judgeSpeechMusic_20210407_logNormShiftAmp,2020.1.2,MacIntel,60,,,,,,,,,,,,,,,,,,,,,,,,,,,,,,,,,,,,,space,6.624115
