headphoneResponse.keys,headphoneResponse.corr,headphoneResponse.rt,headphoneTrial.thisRepN,headphoneTrial.thisTrialN,headphoneTrial.thisN,headphoneTrial.thisIndex,headphoneTrial.ran,headphone_sound1,headphone_sound2,headphone_sound3,corrAns,participant,date,expName,psychopyVersion,OS,frameRate,trainSlider.response,trainSlider.rt,beepTrainResponse.keys,beepTrainResponse.corr,trainingTrials.thisRepN,trainingTrials.thisTrialN,trainingTrials.thisN,trainingTrials.thisIndex,trainingTrials.ran,trainAudioFile,beepTrainResponse.rt,readyReal_resp.keys,readyReal_resp.rt,ratingSlider.response,ratingSlider.rt,beepResp.keys,beepResp.corr,expTrials.thisRepN,expTrials.thisTrialN,expTrials.thisN,expTrials.thisIndex,expTrials.ran,audioFile,beepResp.rt,end_resp.keys,end_resp.rt
2,1,1.7653,0,0,0,1,1,stimuli/screen_antiphase.wav,stimuli/screen_quiet.wav,stimuli/screen_origin.wav,2,40948,2021-05-02_20h39.28.419,judgeSpeechMusic_20210407_logNormShiftAmp,2020.1.2,Win32,60,,,,,,,,,,,,,,,,,,,,,,,,,,
3,1,0.7448,0,1,1,0,1,stimuli/screen_antiphase.wav,stimuli/screen_origin.wav,stimuli/screen_quiet.wav,3,40948,2021-05-02_20h39.28.419,judgeSpeechMusic_20210407_logNormShiftAmp,2020.1.2,Win32,60,,,,,,,,,,,,,,,,,,,,,,,,,,
3,0,0.943775,0,2,2,5,1,stimuli/screen_quiet.wav,stimuli/screen_origin.wav,stimuli/screen_antiphase.wav,1,40948,2021-05-02_20h39.28.419,judgeSpeechMusic_20210407_logNormShiftAmp,2020.1.2,Win32,60,,,,,,,,,,,,,,,,,,,,,,,,,,
3,1,1.90354,0,3,3,2,1,stimuli/screen_origin.wav,stimuli/screen_antiphase.wav,stimuli/screen_quiet.wav,3,40948,2021-05-02_20h39.28.419,judgeSpeechMusic_20210407_logNormShiftAmp,2020.1.2,Win32,60,,,,,,,,,,,,,,,,,,,,,,,,,,
1,1,0.717375,0,4,4,4,1,stimuli/screen_quiet.wav,stimuli/screen_antiphase.wav,stimuli/screen_origin.wav,1,40948,2021-05-02_20h39.28.419,judgeSpeechMusic_20210407_logNormShiftAmp,2020.1.2,Win32,60,,,,,,,,,,,,,,,,,,,,,,,,,,
2,1,0.41008,0,5,5,3,1,stimuli/screen_origin.wav,stimuli/screen_quiet.wav,stimuli/screen_antiphase.wav,2,40948,2021-05-02_20h39.28.419,judgeSpeechMusic_20210407_logNormShiftAmp,2020.1.2,Win32,60,,,,,,,,,,,,,,,,,,,,,,,,,,
,,,,,,,,,,,,40948,2021-05-02_20h39.28.419,judgeSpeechMusic_20210407_logNormShiftAmp,2020.1.2,Win32,60,2,32.58811,,0,0,0,0,3,1,stimuli/stim_20210407_power2amp/equal_lnn_AM_training5.1Hz.m4a,,,,,,,,,,,,,,,,
,,,,,,,,,,,,40948,2021-05-02_20h39.28.419,judgeSpeechMusic_20210407_logNormShiftAmp,2020.1.2,Win32,60,2,7.404785,,0,0,1,1,2,1,stimuli/stim_20210407_power2amp/equal_lnn_AM_training3.9Hz.m4a,,,,,,,,,,,,,,,,
,,,,,,,,,,,,40948,2021-05-02_20h39.28.419,judgeSpeechMusic_20210407_logNormShiftAmp,2020.1.2,Win32,60,1,6.461515,2,1,0,2,2,0,1,stimuli/stim_20210407_power2amp/equal_lnn_AM_training1.5Hz.m4a,1.997755,,,,,,,,,,,,,,,
,,,,,,,,,,,,40948,2021-05-02_20h39.28.419,judgeSpeechMusic_20210407_logNormShiftAmp,2020.1.2,Win32,60,2,7.31733,,0,0,3,3,1,1,stimuli/stim_20210407_power2amp/equal_lnn_AM_training2.7Hz.m4a,,,,,,,,,,,,,,,,
,,,,,,,,,,,,40948,2021-05-02_20h39.28.419,judgeSpeechMusic_20210407_logNormShiftAmp,2020.1.2,Win32,60,,,,,,,,,,,,space,6.22315,2,6.723745,,0,0,0,0,65,1,stimuli/stim_20210407_power2amp/equal_lnn_AM3Hz_18.m4a,,,
,,,,,,,,,,,,40948,2021-05-02_20h39.28.419,judgeSpeechMusic_20210407_logNormShiftAmp,2020.1.2,Win32,60,,,,,,,,,,,,,,2,5.590925,,0,0,1,1,97,1,stimuli/stim_20210407_power2amp/equal_lnn_AM4.2Hz_51.m4a,,,
,,,,,,,,,,,,40948,2021-05-02_20h39.28.419,judgeSpeechMusic_20210407_logNormShiftAmp,2020.1.2,Win32,60,,,,,,,,,,,,,,2,7.051385,,0,0,2,2,54,1,stimuli/stim_20210407_power2amp/equal_lnn_AM2.4Hz_79.m4a,,,
,,,,,,,,,,,,40948,2021-05-02_20h39.28.419,judgeSpeechMusic_20210407_logNormShiftAmp,2020.1.2,Win32,60,,,,,,,,,,,,,,1,6.27267,,0,0,3,3,16,1,stimuli/stim_20210407_power2amp/equal_lnn_AM1.2Hz_38.m4a,,,
,,,,,,,,,,,,40948,2021-05-02_20h39.28.419,judgeSpeechMusic_20210407_logNormShiftAmp,2020.1.2,Win32,60,,,,,,,,,,,,,,1,6.04365,,0,0,4,4,73,1,stimuli/stim_20210407_power2amp/equal_lnn_AM3Hz_48.m4a,,,
,,,,,,,,,,,,40948,2021-05-02_20h39.28.419,judgeSpeechMusic_20210407_logNormShiftAmp,2020.1.2,Win32,60,,,,,,,,,,,,,,1,5.50961,,0,0,5,5,77,1,stimuli/stim_20210407_power2amp/equal_lnn_AM3.6Hz_10.m4a,,,
,,,,,,,,,,,,40948,2021-05-02_20h39.28.419,judgeSpeechMusic_20210407_logNormShiftAmp,2020.1.2,Win32,60,,,,,,,,,,,,,,1,5.698095,,0,0,6,6,109,1,stimuli/stim_20210407_power2amp/equal_lnn_AM4.8Hz_40.m4a,,,
,,,,,,,,,,,,40948,2021-05-02_20h39.28.419,judgeSpeechMusic_20210407_logNormShiftAmp,2020.1.2,Win32,60,,,,,,,,,,,,,,1,7.3082,,0,0,7,7,12,1,stimuli/stim_20210407_power2amp/equal_lnn_AM0.6Hz_4.m4a,,,
,,,,,,,,,,,,40948,2021-05-02_20h39.28.419,judgeSpeechMusic_20210407_logNormShiftAmp,2020.1.2,Win32,60,,,,,,,,,,,,,,2,5.5345,,0,0,8,8,82,1,stimuli/stim_20210407_power2amp/equal_lnn_AM3.6Hz_39.m4a,,,
,,,,,,,,,,,,40948,2021-05-02_20h39.28.419,judgeSpeechMusic_20210407_logNormShiftAmp,2020.1.2,Win32,60,,,,,,,,,,,,,,1,6.29006,,0,0,9,9,79,1,stimuli/stim_20210407_power2amp/equal_lnn_AM3.6Hz_56.m4a,,,
,,,,,,,,,,,,40948,2021-05-02_20h39.28.419,judgeSpeechMusic_20210407_logNormShiftAmp,2020.1.2,Win32,60,,,,,,,,,,,,,,2,6.436855,,0,0,10,10,58,1,stimuli/stim_20210407_power2amp/equal_lnn_AM2.4Hz_19.m4a,,,
,,,,,,,,,,,,40948,2021-05-02_20h39.28.419,judgeSpeechMusic_20210407_logNormShiftAmp,2020.1.2,Win32,60,,,,,,,,,,,,,,1,7.067915,,0,0,11,11,100,1,stimuli/stim_20210407_power2amp/equal_lnn_AM4.2Hz_77.m4a,,,
,,,,,,,,,,,,40948,2021-05-02_20h39.28.419,judgeSpeechMusic_20210407_logNormShiftAmp,2020.1.2,Win32,60,,,,,,,,,,,,,,2,5.58997,,0,0,12,12,111,1,stimuli/stim_20210407_power2amp/equal_lnn_AM4.8Hz_10.m4a,,,
,,,,,,,,,,,,40948,2021-05-02_20h39.28.419,judgeSpeechMusic_20210407_logNormShiftAmp,2020.1.2,Win32,60,,,,,,,,,,,,,,2,6.698715,,0,0,13,13,86,1,stimuli/stim_20210407_power2amp/equal_lnn_AM3.6Hz_43.m4a,,,
,,,,,,,,,,,,40948,2021-05-02_20h39.28.419,judgeSpeechMusic_20210407_logNormShiftAmp,2020.1.2,Win32,60,,,,,,,,,,,,,,2,6.096615,,0,0,14,14,80,1,stimuli/stim_20210407_power2amp/equal_lnn_AM3.6Hz_29.m4a,,,
,,,,,,,,,,,,40948,2021-05-02_20h39.28.419,judgeSpeechMusic_20210407_logNormShiftAmp,2020.1.2,Win32,60,,,,,,,,,,,,,,1,5.880185,,0,0,15,15,10,1,stimuli/stim_20210407_power2amp/equal_lnn_AM0.6Hz_5.m4a,,,
,,,,,,,,,,,,40948,2021-05-02_20h39.28.419,judgeSpeechMusic_20210407_logNormShiftAmp,2020.1.2,Win32,60,,,,,,,,,,,,,,2,6.320165,,0,0,16,16,83,1,stimuli/stim_20210407_power2amp/equal_lnn_AM3.6Hz_48.m4a,,,
,,,,,,,,,,,,40948,2021-05-02_20h39.28.419,judgeSpeechMusic_20210407_logNormShiftAmp,2020.1.2,Win32,60,,,,,,,,,,,,,,1,5.60147,,0,0,17,17,6,1,stimuli/stim_20210407_power2amp/equal_lnn_AM0.6Hz_37.m4a,,,
,,,,,,,,,,,,40948,2021-05-02_20h39.28.419,judgeSpeechMusic_20210407_logNormShiftAmp,2020.1.2,Win32,60,,,,,,,,,,,,,,1,5.65081,,0,0,18,18,22,1,stimuli/stim_20210407_power2amp/equal_lnn_AM1.2Hz_6.m4a,,,
,,,,,,,,,,,,40948,2021-05-02_20h39.28.419,judgeSpeechMusic_20210407_logNormShiftAmp,2020.1.2,Win32,60,,,,,,,,,,,,,,1,5.65975,,0,0,19,19,136,1,stimuli/stim_20210407_power2amp/equal_lnn_AM6Hz_18.m4a,,,
,,,,,,,,,,,,40948,2021-05-02_20h39.28.419,judgeSpeechMusic_20210407_logNormShiftAmp,2020.1.2,Win32,60,,,,,,,,,,,,,,2,5.80957,,0,0,20,20,72,1,stimuli/stim_20210407_power2amp/equal_lnn_AM3Hz_47.m4a,,,
,,,,,,,,,,,,40948,2021-05-02_20h39.28.419,judgeSpeechMusic_20210407_logNormShiftAmp,2020.1.2,Win32,60,,,,,,,,,,,,,,2,8.33903,,0,0,21,21,52,1,stimuli/stim_20210407_power2amp/equal_lnn_AM2.4Hz_16.m4a,,,
,,,,,,,,,,,,40948,2021-05-02_20h39.28.419,judgeSpeechMusic_20210407_logNormShiftAmp,2020.1.2,Win32,60,,,,,,,,,,,,,,1,5.68899,,0,0,22,22,107,1,stimuli/stim_20210407_power2amp/equal_lnn_AM4.8Hz_66.m4a,,,
,,,,,,,,,,,,40948,2021-05-02_20h39.28.419,judgeSpeechMusic_20210407_logNormShiftAmp,2020.1.2,Win32,60,,,,,,,,,,,,,,2,5.809635,,0,0,23,23,95,1,stimuli/stim_20210407_power2amp/equal_lnn_AM4.2Hz_10.m4a,,,
,,,,,,,,,,,,40948,2021-05-02_20h39.28.419,judgeSpeechMusic_20210407_logNormShiftAmp,2020.1.2,Win32,60,,,,,,,,,,,,,,1,5.639775,,0,0,24,24,45,1,stimuli/stim_20210407_power2amp/equal_lnn_AM2.4Hz_28.m4a,,,
,,,,,,,,,,,,40948,2021-05-02_20h39.28.419,judgeSpeechMusic_20210407_logNormShiftAmp,2020.1.2,Win32,60,,,,,,,,,,,,,,2,5.74336,,0,0,25,25,69,1,stimuli/stim_20210407_power2amp/equal_lnn_AM3Hz_77.m4a,,,
,,,,,,,,,,,,40948,2021-05-02_20h39.28.419,judgeSpeechMusic_20210407_logNormShiftAmp,2020.1.2,Win32,60,,,,,,,,,,,,,,2,6.364025,,0,0,26,26,53,1,stimuli/stim_20210407_power2amp/equal_lnn_AM2.4Hz_72.m4a,,,
,,,,,,,,,,,,40948,2021-05-02_20h39.28.419,judgeSpeechMusic_20210407_logNormShiftAmp,2020.1.2,Win32,60,,,,,,,,,,,,,,2,5.55446,,0,0,27,27,59,1,stimuli/stim_20210407_power2amp/equal_lnn_AM2.4Hz_1.m4a,,,
,,,,,,,,,,,,40948,2021-05-02_20h39.28.419,judgeSpeechMusic_20210407_logNormShiftAmp,2020.1.2,Win32,60,,,,,,,,,,,,,,1,5.69496,,0,0,28,28,67,1,stimuli/stim_20210407_power2amp/equal_lnn_AM3Hz_91.m4a,,,
,,,,,,,,,,,,40948,2021-05-02_20h39.28.419,judgeSpeechMusic_20210407_logNormShiftAmp,2020.1.2,Win32,60,,,,,,,,,,,,,,1,5.503205,,0,0,29,29,123,1,stimuli/stim_20210407_power2amp/equal_lnn_AM5.4Hz_78.m4a,,,
,,,,,,,,,,,,40948,2021-05-02_20h39.28.419,judgeSpeechMusic_20210407_logNormShiftAmp,2020.1.2,Win32,60,,,,,,,,,,,,,,2,5.70387,,0,0,30,30,117,1,stimuli/stim_20210407_power2amp/equal_lnn_AM4.8Hz_78.m4a,,,
,,,,,,,,,,,,40948,2021-05-02_20h39.28.419,judgeSpeechMusic_20210407_logNormShiftAmp,2020.1.2,Win32,60,,,,,,,,,,,,,,1,7.5846,,0,0,31,31,146,1,stimuli/stim_20210407_power2amp/equal_lnn_AM6Hz_74.m4a,,,
,,,,,,,,,,,,40948,2021-05-02_20h39.28.419,judgeSpeechMusic_20210407_logNormShiftAmp,2020.1.2,Win32,60,,,,,,,,,,,,,,2,6.189835,,0,0,32,32,42,1,stimuli/stim_20210407_power2amp/equal_lnn_AM1.8Hz_1.m4a,,,
,,,,,,,,,,,,40948,2021-05-02_20h39.28.419,judgeSpeechMusic_20210407_logNormShiftAmp,2020.1.2,Win32,60,,,,,,,,,,,,,,1,5.651075,,0,0,33,33,4,1,stimuli/stim_20210407_power2amp/equal_lnn_AM0.6Hz_90.m4a,,,
,,,,,,,,,,,,40948,2021-05-02_20h39.28.419,judgeSpeechMusic_20210407_logNormShiftAmp,2020.1.2,Win32,60,,,,,,,,,,,,,,1,5.59785,,0,0,34,34,104,1,stimuli/stim_20210407_power2amp/equal_lnn_AM4.2Hz_30.m4a,,,
,,,,,,,,,,,,40948,2021-05-02_20h39.28.419,judgeSpeechMusic_20210407_logNormShiftAmp,2020.1.2,Win32,60,,,,,,,,,,,,,,1,5.59882,,0,0,35,35,20,1,stimuli/stim_20210407_power2amp/equal_lnn_AM1.2Hz_92.m4a,,,
,,,,,,,,,,,,40948,2021-05-02_20h39.28.419,judgeSpeechMusic_20210407_logNormShiftAmp,2020.1.2,Win32,60,,,,,,,,,,,,,,2,5.65426,,0,0,36,36,75,1,stimuli/stim_20210407_power2amp/equal_lnn_AM3.6Hz_74.m4a,,,
,,,,,,,,,,,,40948,2021-05-02_20h39.28.419,judgeSpeechMusic_20210407_logNormShiftAmp,2020.1.2,Win32,60,,,,,,,,,,,,,,1,5.884885,,0,0,37,37,61,1,stimuli/stim_20210407_power2amp/equal_lnn_AM3Hz_59.m4a,,,
,,,,,,,,,,,,40948,2021-05-02_20h39.28.419,judgeSpeechMusic_20210407_logNormShiftAmp,2020.1.2,Win32,60,,,,,,,,,,,,,,1,5.510865,,0,0,38,38,39,1,stimuli/stim_20210407_power2amp/equal_lnn_AM1.8Hz_87.m4a,,,
,,,,,,,,,,,,40948,2021-05-02_20h39.28.419,judgeSpeechMusic_20210407_logNormShiftAmp,2020.1.2,Win32,60,,,,,,,,,,,,,,2,5.7183,,0,0,39,39,71,1,stimuli/stim_20210407_power2amp/equal_lnn_AM3Hz_99.m4a,,,
,,,,,,,,,,,,40948,2021-05-02_20h39.28.419,judgeSpeechMusic_20210407_logNormShiftAmp,2020.1.2,Win32,60,,,,,,,,,,,,,,2,5.70961,2,1,0,40,40,93,1,stimuli/stim_20210407_power2amp/equal_lnn_AM4.2Hz_13.m4a,0.83164,,
,,,,,,,,,,,,40948,2021-05-02_20h39.28.419,judgeSpeechMusic_20210407_logNormShiftAmp,2020.1.2,Win32,60,,,,,,,,,,,,,,2,6.063025,,0,0,41,41,70,1,stimuli/stim_20210407_power2amp/equal_lnn_AM3Hz_43.m4a,,,
,,,,,,,,,,,,40948,2021-05-02_20h39.28.419,judgeSpeechMusic_20210407_logNormShiftAmp,2020.1.2,Win32,60,,,,,,,,,,,,,,1,5.692885,,0,0,42,42,147,1,stimuli/stim_20210407_power2amp/equal_lnn_AM6Hz_80.m4a,,,
,,,,,,,,,,,,40948,2021-05-02_20h39.28.419,judgeSpeechMusic_20210407_logNormShiftAmp,2020.1.2,Win32,60,,,,,,,,,,,,,,1,5.687345,,0,0,43,43,31,1,stimuli/stim_20210407_power2amp/equal_lnn_AM1.8Hz_75.m4a,,,
,,,,,,,,,,,,40948,2021-05-02_20h39.28.419,judgeSpeechMusic_20210407_logNormShiftAmp,2020.1.2,Win32,60,,,,,,,,,,,,,,1,6.12773,,0,0,44,44,2,1,stimuli/stim_20210407_power2amp/equal_lnn_AM0.6Hz_27.m4a,,,
,,,,,,,,,,,,40948,2021-05-02_20h39.28.419,judgeSpeechMusic_20210407_logNormShiftAmp,2020.1.2,Win32,60,,,,,,,,,,,,,,2,5.638805,,0,0,45,45,78,1,stimuli/stim_20210407_power2amp/equal_lnn_AM3.6Hz_83.m4a,,,
,,,,,,,,,,,,40948,2021-05-02_20h39.28.419,judgeSpeechMusic_20210407_logNormShiftAmp,2020.1.2,Win32,60,,,,,,,,,,,,,,1,5.626175,,0,0,46,46,122,1,stimuli/stim_20210407_power2amp/equal_lnn_AM5.4Hz_22.m4a,,,
,,,,,,,,,,,,40948,2021-05-02_20h39.28.419,judgeSpeechMusic_20210407_logNormShiftAmp,2020.1.2,Win32,60,,,,,,,,,,,,,,1,5.831935,,0,0,47,47,142,1,stimuli/stim_20210407_power2amp/equal_lnn_AM6Hz_97.m4a,,,
,,,,,,,,,,,,40948,2021-05-02_20h39.28.419,judgeSpeechMusic_20210407_logNormShiftAmp,2020.1.2,Win32,60,,,,,,,,,,,,,,2,5.71921,,0,0,48,48,127,1,stimuli/stim_20210407_power2amp/equal_lnn_AM5.4Hz_25.m4a,,,
,,,,,,,,,,,,40948,2021-05-02_20h39.28.419,judgeSpeechMusic_20210407_logNormShiftAmp,2020.1.2,Win32,60,,,,,,,,,,,,,,2,5.58622,,0,0,49,49,87,1,stimuli/stim_20210407_power2amp/equal_lnn_AM3.6Hz_2.m4a,,,
,,,,,,,,,,,,40948,2021-05-02_20h39.28.419,judgeSpeechMusic_20210407_logNormShiftAmp,2020.1.2,Win32,60,,,,,,,,,,,,,,2,5.655305,,0,0,50,50,49,1,stimuli/stim_20210407_power2amp/equal_lnn_AM2.4Hz_81.m4a,,,
,,,,,,,,,,,,40948,2021-05-02_20h39.28.419,judgeSpeechMusic_20210407_logNormShiftAmp,2020.1.2,Win32,60,,,,,,,,,,,,,,1,5.803425,,0,0,51,51,7,1,stimuli/stim_20210407_power2amp/equal_lnn_AM0.6Hz_93.m4a,,,
,,,,,,,,,,,,40948,2021-05-02_20h39.28.419,judgeSpeechMusic_20210407_logNormShiftAmp,2020.1.2,Win32,60,,,,,,,,,,,,,,2,5.659595,,0,0,52,52,112,1,stimuli/stim_20210407_power2amp/equal_lnn_AM4.8Hz_44.m4a,,,
,,,,,,,,,,,,40948,2021-05-02_20h39.28.419,judgeSpeechMusic_20210407_logNormShiftAmp,2020.1.2,Win32,60,,,,,,,,,,,,,,1,5.701245,,0,0,53,53,120,1,stimuli/stim_20210407_power2amp/equal_lnn_AM5.4Hz_20.m4a,,,
,,,,,,,,,,,,40948,2021-05-02_20h39.28.419,judgeSpeechMusic_20210407_logNormShiftAmp,2020.1.2,Win32,60,,,,,,,,,,,,,,1,6.648415,,0,0,54,54,3,1,stimuli/stim_20210407_power2amp/equal_lnn_AM0.6Hz_47.m4a,,,
,,,,,,,,,,,,40948,2021-05-02_20h39.28.419,judgeSpeechMusic_20210407_logNormShiftAmp,2020.1.2,Win32,60,,,,,,,,,,,,,,1,8.73212,,0,0,55,55,94,1,stimuli/stim_20210407_power2amp/equal_lnn_AM4.2Hz_5.m4a,,,
,,,,,,,,,,,,40948,2021-05-02_20h39.28.419,judgeSpeechMusic_20210407_logNormShiftAmp,2020.1.2,Win32,60,,,,,,,,,,,,,,1,6.006405,,0,0,56,56,41,1,stimuli/stim_20210407_power2amp/equal_lnn_AM1.8Hz_78.m4a,,,
,,,,,,,,,,,,40948,2021-05-02_20h39.28.419,judgeSpeechMusic_20210407_logNormShiftAmp,2020.1.2,Win32,60,,,,,,,,,,,,,,1,5.50639,,0,0,57,57,135,1,stimuli/stim_20210407_power2amp/equal_lnn_AM6Hz_41.m4a,,,
,,,,,,,,,,,,40948,2021-05-02_20h39.28.419,judgeSpeechMusic_20210407_logNormShiftAmp,2020.1.2,Win32,60,,,,,,,,,,,,,,1,6.07339,,0,0,58,58,29,1,stimuli/stim_20210407_power2amp/equal_lnn_AM1.2Hz_56.m4a,,,
,,,,,,,,,,,,40948,2021-05-02_20h39.28.419,judgeSpeechMusic_20210407_logNormShiftAmp,2020.1.2,Win32,60,,,,,,,,,,,,,,1,5.707995,,0,0,59,59,121,1,stimuli/stim_20210407_power2amp/equal_lnn_AM5.4Hz_5.m4a,,,
,,,,,,,,,,,,40948,2021-05-02_20h39.28.419,judgeSpeechMusic_20210407_logNormShiftAmp,2020.1.2,Win32,60,,,,,,,,,,,,,,2,5.69405,,0,0,60,60,132,1,stimuli/stim_20210407_power2amp/equal_lnn_AM5.4Hz_51.m4a,,,
,,,,,,,,,,,,40948,2021-05-02_20h39.28.419,judgeSpeechMusic_20210407_logNormShiftAmp,2020.1.2,Win32,60,,,,,,,,,,,,,,2,23.42351,,0,0,61,61,108,1,stimuli/stim_20210407_power2amp/equal_lnn_AM4.8Hz_76.m4a,,,
,,,,,,,,,,,,40948,2021-05-02_20h39.28.419,judgeSpeechMusic_20210407_logNormShiftAmp,2020.1.2,Win32,60,,,,,,,,,,,,,,2,6.23816,3,1,0,62,62,92,1,stimuli/stim_20210407_power2amp/equal_lnn_AM4.2Hz_85.m4a,3.574215,,
,,,,,,,,,,,,40948,2021-05-02_20h39.28.419,judgeSpeechMusic_20210407_logNormShiftAmp,2020.1.2,Win32,60,,,,,,,,,,,,,,1,8.894005,,0,0,63,63,38,1,stimuli/stim_20210407_power2amp/equal_lnn_AM1.8Hz_81.m4a,,,
,,,,,,,,,,,,40948,2021-05-02_20h39.28.419,judgeSpeechMusic_20210407_logNormShiftAmp,2020.1.2,Win32,60,,,,,,,,,,,,,,1,11.00099,,0,0,64,64,9,1,stimuli/stim_20210407_power2amp/equal_lnn_AM0.6Hz_10.m4a,,,
,,,,,,,,,,,,40948,2021-05-02_20h39.28.419,judgeSpeechMusic_20210407_logNormShiftAmp,2020.1.2,Win32,60,,,,,,,,,,,,,,1,5.738505,,0,0,65,65,55,1,stimuli/stim_20210407_power2amp/equal_lnn_AM2.4Hz_27.m4a,,,
,,,,,,,,,,,,40948,2021-05-02_20h39.28.419,judgeSpeechMusic_20210407_logNormShiftAmp,2020.1.2,Win32,60,,,,,,,,,,,,,,2,5.759975,,0,0,66,66,149,1,stimuli/stim_20210407_power2amp/equal_lnn_AM6Hz_26.m4a,,,
,,,,,,,,,,,,40948,2021-05-02_20h39.28.419,judgeSpeechMusic_20210407_logNormShiftAmp,2020.1.2,Win32,60,,,,,,,,,,,,,,2,10.0444,,0,0,67,67,129,1,stimuli/stim_20210407_power2amp/equal_lnn_AM5.4Hz_40.m4a,,,
,,,,,,,,,,,,40948,2021-05-02_20h39.28.419,judgeSpeechMusic_20210407_logNormShiftAmp,2020.1.2,Win32,60,,,,,,,,,,,,,,1,5.7265,,0,0,68,68,26,1,stimuli/stim_20210407_power2amp/equal_lnn_AM1.2Hz_49.m4a,,,
,,,,,,,,,,,,40948,2021-05-02_20h39.28.419,judgeSpeechMusic_20210407_logNormShiftAmp,2020.1.2,Win32,60,,,,,,,,,,,,,,1,5.65093,,0,0,69,69,66,1,stimuli/stim_20210407_power2amp/equal_lnn_AM3Hz_81.m4a,,,
,,,,,,,,,,,,40948,2021-05-02_20h39.28.419,judgeSpeechMusic_20210407_logNormShiftAmp,2020.1.2,Win32,60,,,,,,,,,,,,,,2,9.735165,,0,0,70,70,138,1,stimuli/stim_20210407_power2amp/equal_lnn_AM6Hz_12.m4a,,,
,,,,,,,,,,,,40948,2021-05-02_20h39.28.419,judgeSpeechMusic_20210407_logNormShiftAmp,2020.1.2,Win32,60,,,,,,,,,,,,,,2,6.989295,,0,0,71,71,60,1,stimuli/stim_20210407_power2amp/equal_lnn_AM3Hz_53.m4a,,,
,,,,,,,,,,,,40948,2021-05-02_20h39.28.419,judgeSpeechMusic_20210407_logNormShiftAmp,2020.1.2,Win32,60,,,,,,,,,,,,,,1,6.004255,,0,0,72,72,0,1,stimuli/stim_20210407_power2amp/equal_lnn_AM0.6Hz_39.m4a,,,
,,,,,,,,,,,,40948,2021-05-02_20h39.28.419,judgeSpeechMusic_20210407_logNormShiftAmp,2020.1.2,Win32,60,,,,,,,,,,,,,,1,6.36975,,0,0,73,73,19,1,stimuli/stim_20210407_power2amp/equal_lnn_AM1.2Hz_70.m4a,,,
,,,,,,,,,,,,40948,2021-05-02_20h39.28.419,judgeSpeechMusic_20210407_logNormShiftAmp,2020.1.2,Win32,60,,,,,,,,,,,,,,2,7.14825,,0,0,74,74,81,1,stimuli/stim_20210407_power2amp/equal_lnn_AM3.6Hz_4.m4a,,,
,,,,,,,,,,,,40948,2021-05-02_20h39.28.419,judgeSpeechMusic_20210407_logNormShiftAmp,2020.1.2,Win32,60,,,,,,,,,,,,,,1,10.05125,,0,0,75,75,114,1,stimuli/stim_20210407_power2amp/equal_lnn_AM4.8Hz_62.m4a,,,
,,,,,,,,,,,,40948,2021-05-02_20h39.28.419,judgeSpeechMusic_20210407_logNormShiftAmp,2020.1.2,Win32,60,,,,,,,,,,,,,,1,7.784895,,0,0,76,76,68,1,stimuli/stim_20210407_power2amp/equal_lnn_AM3Hz_46.m4a,,,
,,,,,,,,,,,,40948,2021-05-02_20h39.28.419,judgeSpeechMusic_20210407_logNormShiftAmp,2020.1.2,Win32,60,,,,,,,,,,,,,,1,7.441515,,0,0,77,77,116,1,stimuli/stim_20210407_power2amp/equal_lnn_AM4.8Hz_43.m4a,,,
,,,,,,,,,,,,40948,2021-05-02_20h39.28.419,judgeSpeechMusic_20210407_logNormShiftAmp,2020.1.2,Win32,60,,,,,,,,,,,,,,1,5.696775,,0,0,78,78,50,1,stimuli/stim_20210407_power2amp/equal_lnn_AM2.4Hz_13.m4a,,,
,,,,,,,,,,,,40948,2021-05-02_20h39.28.419,judgeSpeechMusic_20210407_logNormShiftAmp,2020.1.2,Win32,60,,,,,,,,,,,,,,2,6.99476,,0,0,79,79,126,1,stimuli/stim_20210407_power2amp/equal_lnn_AM5.4Hz_17.m4a,,,
,,,,,,,,,,,,40948,2021-05-02_20h39.28.419,judgeSpeechMusic_20210407_logNormShiftAmp,2020.1.2,Win32,60,,,,,,,,,,,,,,2,6.54211,,0,0,80,80,139,1,stimuli/stim_20210407_power2amp/equal_lnn_AM6Hz_46.m4a,,,
,,,,,,,,,,,,40948,2021-05-02_20h39.28.419,judgeSpeechMusic_20210407_logNormShiftAmp,2020.1.2,Win32,60,,,,,,,,,,,,,,1,6.399085,,0,0,81,81,8,1,stimuli/stim_20210407_power2amp/equal_lnn_AM0.6Hz_41.m4a,,,
,,,,,,,,,,,,40948,2021-05-02_20h39.28.419,judgeSpeechMusic_20210407_logNormShiftAmp,2020.1.2,Win32,60,,,,,,,,,,,,,,1,5.61056,,0,0,82,82,27,1,stimuli/stim_20210407_power2amp/equal_lnn_AM1.2Hz_97.m4a,,,
,,,,,,,,,,,,40948,2021-05-02_20h39.28.419,judgeSpeechMusic_20210407_logNormShiftAmp,2020.1.2,Win32,60,,,,,,,,,,,,,,1,8.56554,,0,0,83,83,47,1,stimuli/stim_20210407_power2amp/equal_lnn_AM2.4Hz_61.m4a,,,
,,,,,,,,,,,,40948,2021-05-02_20h39.28.419,judgeSpeechMusic_20210407_logNormShiftAmp,2020.1.2,Win32,60,,,,,,,,,,,,,,2,8.48374,,0,0,84,84,124,1,stimuli/stim_20210407_power2amp/equal_lnn_AM5.4Hz_53.m4a,,,
,,,,,,,,,,,,40948,2021-05-02_20h39.28.419,judgeSpeechMusic_20210407_logNormShiftAmp,2020.1.2,Win32,60,,,,,,,,,,,,,,1,7.36069,,0,0,85,85,34,1,stimuli/stim_20210407_power2amp/equal_lnn_AM1.8Hz_37.m4a,,,
,,,,,,,,,,,,40948,2021-05-02_20h39.28.419,judgeSpeechMusic_20210407_logNormShiftAmp,2020.1.2,Win32,60,,,,,,,,,,,,,,2,9.58074,,0,0,86,86,28,1,stimuli/stim_20210407_power2amp/equal_lnn_AM1.2Hz_90.m4a,,,
,,,,,,,,,,,,40948,2021-05-02_20h39.28.419,judgeSpeechMusic_20210407_logNormShiftAmp,2020.1.2,Win32,60,,,,,,,,,,,,,,1,7.02669,4,1,0,87,87,91,1,stimuli/stim_20210407_power2amp/equal_lnn_AM4.2Hz_58.m4a,1.56581,,
,,,,,,,,,,,,40948,2021-05-02_20h39.28.419,judgeSpeechMusic_20210407_logNormShiftAmp,2020.1.2,Win32,60,,,,,,,,,,,,,,1,5.69796,,0,0,88,88,44,1,stimuli/stim_20210407_power2amp/equal_lnn_AM1.8Hz_19.m4a,,,
,,,,,,,,,,,,40948,2021-05-02_20h39.28.419,judgeSpeechMusic_20210407_logNormShiftAmp,2020.1.2,Win32,60,,,,,,,,,,,,,,2,9.76378,,0,0,89,89,13,1,stimuli/stim_20210407_power2amp/equal_lnn_AM0.6Hz_11.m4a,,,
,,,,,,,,,,,,40948,2021-05-02_20h39.28.419,judgeSpeechMusic_20210407_logNormShiftAmp,2020.1.2,Win32,60,,,,,,,,,,,,,,2,7.277055,,0,0,90,90,15,1,stimuli/stim_20210407_power2amp/equal_lnn_AM1.2Hz_89.m4a,,,
,,,,,,,,,,,,40948,2021-05-02_20h39.28.419,judgeSpeechMusic_20210407_logNormShiftAmp,2020.1.2,Win32,60,,,,,,,,,,,,,,2,5.63476,,0,0,91,91,103,1,stimuli/stim_20210407_power2amp/equal_lnn_AM4.2Hz_1.m4a,,,
,,,,,,,,,,,,40948,2021-05-02_20h39.28.419,judgeSpeechMusic_20210407_logNormShiftAmp,2020.1.2,Win32,60,,,,,,,,,,,,,,1,5.759875,,0,0,92,92,64,1,stimuli/stim_20210407_power2amp/equal_lnn_AM3Hz_44.m4a,,,
,,,,,,,,,,,,40948,2021-05-02_20h39.28.419,judgeSpeechMusic_20210407_logNormShiftAmp,2020.1.2,Win32,60,,,,,,,,,,,,,,2,9.32611,,0,0,93,93,32,1,stimuli/stim_20210407_power2amp/equal_lnn_AM1.8Hz_32.m4a,,,
,,,,,,,,,,,,40948,2021-05-02_20h39.28.419,judgeSpeechMusic_20210407_logNormShiftAmp,2020.1.2,Win32,60,,,,,,,,,,,,,,2,6.307045,,0,0,94,94,118,1,stimuli/stim_20210407_power2amp/equal_lnn_AM4.8Hz_59.m4a,,,
,,,,,,,,,,,,40948,2021-05-02_20h39.28.419,judgeSpeechMusic_20210407_logNormShiftAmp,2020.1.2,Win32,60,,,,,,,,,,,,,,2,5.99238,,0,0,95,95,125,1,stimuli/stim_20210407_power2amp/equal_lnn_AM5.4Hz_70.m4a,,,
,,,,,,,,,,,,40948,2021-05-02_20h39.28.419,judgeSpeechMusic_20210407_logNormShiftAmp,2020.1.2,Win32,60,,,,,,,,,,,,,,1,5.694765,,0,0,96,96,17,1,stimuli/stim_20210407_power2amp/equal_lnn_AM1.2Hz_21.m4a,,,
,,,,,,,,,,,,40948,2021-05-02_20h39.28.419,judgeSpeechMusic_20210407_logNormShiftAmp,2020.1.2,Win32,60,,,,,,,,,,,,,,2,7.28441,,0,0,97,97,30,1,stimuli/stim_20210407_power2amp/equal_lnn_AM1.8Hz_6.m4a,,,
,,,,,,,,,,,,40948,2021-05-02_20h39.28.419,judgeSpeechMusic_20210407_logNormShiftAmp,2020.1.2,Win32,60,,,,,,,,,,,,,,2,10.34287,,0,0,98,98,101,1,stimuli/stim_20210407_power2amp/equal_lnn_AM4.2Hz_78.m4a,,,
,,,,,,,,,,,,40948,2021-05-02_20h39.28.419,judgeSpeechMusic_20210407_logNormShiftAmp,2020.1.2,Win32,60,,,,,,,,,,,,,,1,7.352865,,0,0,99,99,35,1,stimuli/stim_20210407_power2amp/equal_lnn_AM1.8Hz_66.m4a,,,
,,,,,,,,,,,,40948,2021-05-02_20h39.28.419,judgeSpeechMusic_20210407_logNormShiftAmp,2020.1.2,Win32,60,,,,,,,,,,,,,,1,6.61994,,0,0,100,100,130,1,stimuli/stim_20210407_power2amp/equal_lnn_AM5.4Hz_84.m4a,,,
,,,,,,,,,,,,40948,2021-05-02_20h39.28.419,judgeSpeechMusic_20210407_logNormShiftAmp,2020.1.2,Win32,60,,,,,,,,,,,,,,1,5.64293,,0,0,101,101,148,1,stimuli/stim_20210407_power2amp/equal_lnn_AM6Hz_43.m4a,,,
,,,,,,,,,,,,40948,2021-05-02_20h39.28.419,judgeSpeechMusic_20210407_logNormShiftAmp,2020.1.2,Win32,60,,,,,,,,,,,,,,1,5.60777,,0,0,102,102,33,1,stimuli/stim_20210407_power2amp/equal_lnn_AM1.8Hz_97.m4a,,,
,,,,,,,,,,,,40948,2021-05-02_20h39.28.419,judgeSpeechMusic_20210407_logNormShiftAmp,2020.1.2,Win32,60,,,,,,,,,,,,,,2,7.52651,,0,0,103,103,145,1,stimuli/stim_20210407_power2amp/equal_lnn_AM6Hz_11.m4a,,,
,,,,,,,,,,,,40948,2021-05-02_20h39.28.419,judgeSpeechMusic_20210407_logNormShiftAmp,2020.1.2,Win32,60,,,,,,,,,,,,,,1,8.16108,,0,0,104,104,1,1,stimuli/stim_20210407_power2amp/equal_lnn_AM0.6Hz_28.m4a,,,
,,,,,,,,,,,,40948,2021-05-02_20h39.28.419,judgeSpeechMusic_20210407_logNormShiftAmp,2020.1.2,Win32,60,,,,,,,,,,,,,,1,8.765505,,0,0,105,105,113,1,stimuli/stim_20210407_power2amp/equal_lnn_AM4.8Hz_18.m4a,,,
,,,,,,,,,,,,40948,2021-05-02_20h39.28.419,judgeSpeechMusic_20210407_logNormShiftAmp,2020.1.2,Win32,60,,,,,,,,,,,,,,2,5.912045,,0,0,106,106,140,1,stimuli/stim_20210407_power2amp/equal_lnn_AM6Hz_7.m4a,,,
,,,,,,,,,,,,40948,2021-05-02_20h39.28.419,judgeSpeechMusic_20210407_logNormShiftAmp,2020.1.2,Win32,60,,,,,,,,,,,,,,1,9.19014,,0,0,107,107,63,1,stimuli/stim_20210407_power2amp/equal_lnn_AM3Hz_35.m4a,,,
,,,,,,,,,,,,40948,2021-05-02_20h39.28.419,judgeSpeechMusic_20210407_logNormShiftAmp,2020.1.2,Win32,60,,,,,,,,,,,,,,2,7.884195,2,1,0,108,108,99,1,stimuli/stim_20210407_power2amp/equal_lnn_AM4.2Hz_64.m4a,0.738085,,
,,,,,,,,,,,,40948,2021-05-02_20h39.28.419,judgeSpeechMusic_20210407_logNormShiftAmp,2020.1.2,Win32,60,,,,,,,,,,,,,,1,9.38435,,0,0,109,109,14,1,stimuli/stim_20210407_power2amp/equal_lnn_AM0.6Hz_79.m4a,,,
,,,,,,,,,,,,40948,2021-05-02_20h39.28.419,judgeSpeechMusic_20210407_logNormShiftAmp,2020.1.2,Win32,60,,,,,,,,,,,,,,2,11.31856,,0,0,110,110,133,1,stimuli/stim_20210407_power2amp/equal_lnn_AM5.4Hz_76.m4a,,,
,,,,,,,,,,,,40948,2021-05-02_20h39.28.419,judgeSpeechMusic_20210407_logNormShiftAmp,2020.1.2,Win32,60,,,,,,,,,,,,,,2,19.848935,,0,0,111,111,98,1,stimuli/stim_20210407_power2amp/equal_lnn_AM4.2Hz_35.m4a,,,
,,,,,,,,,,,,40948,2021-05-02_20h39.28.419,judgeSpeechMusic_20210407_logNormShiftAmp,2020.1.2,Win32,60,,,,,,,,,,,,,,1,9.709125,,0,0,112,112,141,1,stimuli/stim_20210407_power2amp/equal_lnn_AM6Hz_79.m4a,,,
,,,,,,,,,,,,40948,2021-05-02_20h39.28.419,judgeSpeechMusic_20210407_logNormShiftAmp,2020.1.2,Win32,60,,,,,,,,,,,,,,2,6.378975,,0,0,113,113,143,1,stimuli/stim_20210407_power2amp/equal_lnn_AM6Hz_17.m4a,,,
,,,,,,,,,,,,40948,2021-05-02_20h39.28.419,judgeSpeechMusic_20210407_logNormShiftAmp,2020.1.2,Win32,60,,,,,,,,,,,,,,2,5.55932,,0,0,114,114,74,1,stimuli/stim_20210407_power2amp/equal_lnn_AM3Hz_27.m4a,,,
,,,,,,,,,,,,40948,2021-05-02_20h39.28.419,judgeSpeechMusic_20210407_logNormShiftAmp,2020.1.2,Win32,60,,,,,,,,,,,,,,1,10.971515,,0,0,115,115,137,1,stimuli/stim_20210407_power2amp/equal_lnn_AM6Hz_29.m4a,,,
,,,,,,,,,,,,40948,2021-05-02_20h39.28.419,judgeSpeechMusic_20210407_logNormShiftAmp,2020.1.2,Win32,60,,,,,,,,,,,,,,2,8.85159,,0,0,116,116,56,1,stimuli/stim_20210407_power2amp/equal_lnn_AM2.4Hz_26.m4a,,,
,,,,,,,,,,,,40948,2021-05-02_20h39.28.419,judgeSpeechMusic_20210407_logNormShiftAmp,2020.1.2,Win32,60,,,,,,,,,,,,,,2,17.06801,,0,0,117,117,90,1,stimuli/stim_20210407_power2amp/equal_lnn_AM4.2Hz_29.m4a,,,
,,,,,,,,,,,,40948,2021-05-02_20h39.28.419,judgeSpeechMusic_20210407_logNormShiftAmp,2020.1.2,Win32,60,,,,,,,,,,,,,,1,9.05501,,0,0,118,118,11,1,stimuli/stim_20210407_power2amp/equal_lnn_AM0.6Hz_52.m4a,,,
,,,,,,,,,,,,40948,2021-05-02_20h39.28.419,judgeSpeechMusic_20210407_logNormShiftAmp,2020.1.2,Win32,60,,,,,,,,,,,,,,2,10.95105,,0,0,119,119,48,1,stimuli/stim_20210407_power2amp/equal_lnn_AM2.4Hz_57.m4a,,,
,,,,,,,,,,,,40948,2021-05-02_20h39.28.419,judgeSpeechMusic_20210407_logNormShiftAmp,2020.1.2,Win32,60,,,,,,,,,,,,,,2,13.19614,,0,0,120,120,134,1,stimuli/stim_20210407_power2amp/equal_lnn_AM5.4Hz_57.m4a,,,
,,,,,,,,,,,,40948,2021-05-02_20h39.28.419,judgeSpeechMusic_20210407_logNormShiftAmp,2020.1.2,Win32,60,,,,,,,,,,,,,,1,5.681275,,0,0,121,121,24,1,stimuli/stim_20210407_power2amp/equal_lnn_AM1.2Hz_60.m4a,,,
,,,,,,,,,,,,40948,2021-05-02_20h39.28.419,judgeSpeechMusic_20210407_logNormShiftAmp,2020.1.2,Win32,60,,,,,,,,,,,,,,1,5.671315,,0,0,122,122,119,1,stimuli/stim_20210407_power2amp/equal_lnn_AM4.8Hz_83.m4a,,,
,,,,,,,,,,,,40948,2021-05-02_20h39.28.419,judgeSpeechMusic_20210407_logNormShiftAmp,2020.1.2,Win32,60,,,,,,,,,,,,,,2,5.59516,,0,0,123,123,131,1,stimuli/stim_20210407_power2amp/equal_lnn_AM5.4Hz_4.m4a,,,
,,,,,,,,,,,,40948,2021-05-02_20h39.28.419,judgeSpeechMusic_20210407_logNormShiftAmp,2020.1.2,Win32,60,,,,,,,,,,,,,,2,6.520875,,0,0,124,124,76,1,stimuli/stim_20210407_power2amp/equal_lnn_AM3.6Hz_61.m4a,,,
,,,,,,,,,,,,40948,2021-05-02_20h39.28.419,judgeSpeechMusic_20210407_logNormShiftAmp,2020.1.2,Win32,60,,,,,,,,,,,,,,1,5.584565,,0,0,125,125,18,1,stimuli/stim_20210407_power2amp/equal_lnn_AM1.2Hz_82.m4a,,,
,,,,,,,,,,,,40948,2021-05-02_20h39.28.419,judgeSpeechMusic_20210407_logNormShiftAmp,2020.1.2,Win32,60,,,,,,,,,,,,,,2,8.43113,,0,0,126,126,85,1,stimuli/stim_20210407_power2amp/equal_lnn_AM3.6Hz_69.m4a,,,
,,,,,,,,,,,,40948,2021-05-02_20h39.28.419,judgeSpeechMusic_20210407_logNormShiftAmp,2020.1.2,Win32,60,,,,,,,,,,,,,,2,6.872935,,0,0,127,127,115,1,stimuli/stim_20210407_power2amp/equal_lnn_AM4.8Hz_56.m4a,,,
,,,,,,,,,,,,40948,2021-05-02_20h39.28.419,judgeSpeechMusic_20210407_logNormShiftAmp,2020.1.2,Win32,60,,,,,,,,,,,,,,1,8.90314,,0,0,128,128,36,1,stimuli/stim_20210407_power2amp/equal_lnn_AM1.8Hz_3.m4a,,,
,,,,,,,,,,,,40948,2021-05-02_20h39.28.419,judgeSpeechMusic_20210407_logNormShiftAmp,2020.1.2,Win32,60,,,,,,,,,,,,,,2,9.80593,,0,0,129,129,106,1,stimuli/stim_20210407_power2amp/equal_lnn_AM4.8Hz_29.m4a,,,
,,,,,,,,,,,,40948,2021-05-02_20h39.28.419,judgeSpeechMusic_20210407_logNormShiftAmp,2020.1.2,Win32,60,,,,,,,,,,,,,,2,11.920735,,0,0,130,130,57,1,stimuli/stim_20210407_power2amp/equal_lnn_AM2.4Hz_48.m4a,,,
,,,,,,,,,,,,40948,2021-05-02_20h39.28.419,judgeSpeechMusic_20210407_logNormShiftAmp,2020.1.2,Win32,60,,,,,,,,,,,,,,1,6.26781,4,1,0,131,131,21,1,stimuli/stim_20210407_power2amp/equal_lnn_AM1.2Hz_61.m4a,9.316935,,
,,,,,,,,,,,,40948,2021-05-02_20h39.28.419,judgeSpeechMusic_20210407_logNormShiftAmp,2020.1.2,Win32,60,,,,,,,,,,,,,,2,7.75303,,0,0,132,132,37,1,stimuli/stim_20210407_power2amp/equal_lnn_AM1.8Hz_50.m4a,,,
,,,,,,,,,,,,40948,2021-05-02_20h39.28.419,judgeSpeechMusic_20210407_logNormShiftAmp,2020.1.2,Win32,60,,,,,,,,,,,,,,2,8.61794,,0,0,133,133,23,1,stimuli/stim_20210407_power2amp/equal_lnn_AM1.2Hz_93.m4a,,,
,,,,,,,,,,,,40948,2021-05-02_20h39.28.419,judgeSpeechMusic_20210407_logNormShiftAmp,2020.1.2,Win32,60,,,,,,,,,,,,,,2,5.677495,,0,0,134,134,46,1,stimuli/stim_20210407_power2amp/equal_lnn_AM2.4Hz_51.m4a,,,
,,,,,,,,,,,,40948,2021-05-02_20h39.28.419,judgeSpeechMusic_20210407_logNormShiftAmp,2020.1.2,Win32,60,,,,,,,,,,,,,,1,7.93822,,0,0,135,135,88,1,stimuli/stim_20210407_power2amp/equal_lnn_AM3.6Hz_54.m4a,,,
,,,,,,,,,,,,40948,2021-05-02_20h39.28.419,judgeSpeechMusic_20210407_logNormShiftAmp,2020.1.2,Win32,60,,,,,,,,,,,,,,2,5.984445,,0,0,136,136,51,1,stimuli/stim_20210407_power2amp/equal_lnn_AM2.4Hz_60.m4a,,,
,,,,,,,,,,,,40948,2021-05-02_20h39.28.419,judgeSpeechMusic_20210407_logNormShiftAmp,2020.1.2,Win32,60,,,,,,,,,,,,,,1,5.85331,,0,0,137,137,25,1,stimuli/stim_20210407_power2amp/equal_lnn_AM1.2Hz_88.m4a,,,
,,,,,,,,,,,,40948,2021-05-02_20h39.28.419,judgeSpeechMusic_20210407_logNormShiftAmp,2020.1.2,Win32,60,,,,,,,,,,,,,,2,6.597565,,0,0,138,138,110,1,stimuli/stim_20210407_power2amp/equal_lnn_AM4.8Hz_60.m4a,,,
,,,,,,,,,,,,40948,2021-05-02_20h39.28.419,judgeSpeechMusic_20210407_logNormShiftAmp,2020.1.2,Win32,60,,,,,,,,,,,,,,2,8.295615,,0,0,139,139,105,1,stimuli/stim_20210407_power2amp/equal_lnn_AM4.8Hz_12.m4a,,,
,,,,,,,,,,,,40948,2021-05-02_20h39.28.419,judgeSpeechMusic_20210407_logNormShiftAmp,2020.1.2,Win32,60,,,,,,,,,,,,,,1,6.609595,,0,0,140,140,5,1,stimuli/stim_20210407_power2amp/equal_lnn_AM0.6Hz_7.m4a,,,
,,,,,,,,,,,,40948,2021-05-02_20h39.28.419,judgeSpeechMusic_20210407_logNormShiftAmp,2020.1.2,Win32,60,,,,,,,,,,,,,,2,8.229135,,0,0,141,141,62,1,stimuli/stim_20210407_power2amp/equal_lnn_AM3Hz_58.m4a,,,
,,,,,,,,,,,,40948,2021-05-02_20h39.28.419,judgeSpeechMusic_20210407_logNormShiftAmp,2020.1.2,Win32,60,,,,,,,,,,,,,,2,14.62632,,0,0,142,142,40,1,stimuli/stim_20210407_power2amp/equal_lnn_AM1.8Hz_34.m4a,,,
,,,,,,,,,,,,40948,2021-05-02_20h39.28.419,judgeSpeechMusic_20210407_logNormShiftAmp,2020.1.2,Win32,60,,,,,,,,,,,,,,2,5.931705,,0,0,143,143,144,1,stimuli/stim_20210407_power2amp/equal_lnn_AM6Hz_77.m4a,,,
,,,,,,,,,,,,40948,2021-05-02_20h39.28.419,judgeSpeechMusic_20210407_logNormShiftAmp,2020.1.2,Win32,60,,,,,,,,,,,,,,2,8.45634,,0,0,144,144,128,1,stimuli/stim_20210407_power2amp/equal_lnn_AM5.4Hz_98.m4a,,,
,,,,,,,,,,,,40948,2021-05-02_20h39.28.419,judgeSpeechMusic_20210407_logNormShiftAmp,2020.1.2,Win32,60,,,,,,,,,,,,,,1,6.885175,,0,0,145,145,96,1,stimuli/stim_20210407_power2amp/equal_lnn_AM4.2Hz_97.m4a,,,
,,,,,,,,,,,,40948,2021-05-02_20h39.28.419,judgeSpeechMusic_20210407_logNormShiftAmp,2020.1.2,Win32,60,,,,,,,,,,,,,,1,8.49329,,0,0,146,146,89,1,stimuli/stim_20210407_power2amp/equal_lnn_AM3.6Hz_12.m4a,,,
,,,,,,,,,,,,40948,2021-05-02_20h39.28.419,judgeSpeechMusic_20210407_logNormShiftAmp,2020.1.2,Win32,60,,,,,,,,,,,,,,2,10.959235,,0,0,147,147,102,1,stimuli/stim_20210407_power2amp/equal_lnn_AM4.2Hz_88.m4a,,,
,,,,,,,,,,,,40948,2021-05-02_20h39.28.419,judgeSpeechMusic_20210407_logNormShiftAmp,2020.1.2,Win32,60,,,,,,,,,,,,,,2,8.375915,,0,0,148,148,43,1,stimuli/stim_20210407_power2amp/equal_lnn_AM1.8Hz_77.m4a,,,
,,,,,,,,,,,,40948,2021-05-02_20h39.28.419,judgeSpeechMusic_20210407_logNormShiftAmp,2020.1.2,Win32,60,,,,,,,,,,,,,,1,5.5984,,0,0,149,149,84,1,stimuli/stim_20210407_power2amp/equal_lnn_AM3.6Hz_75.m4a,,,
,,,,,,,,,,,,40948,2021-05-02_20h39.28.419,judgeSpeechMusic_20210407_logNormShiftAmp,2020.1.2,Win32,60,,,,,,,,,,,,,,2,7.02691,,0,1,0,150,74,1,stimuli/stim_20210407_power2amp/equal_lnn_AM3Hz_27.m4a,,,
,,,,,,,,,,,,40948,2021-05-02_20h39.28.419,judgeSpeechMusic_20210407_logNormShiftAmp,2020.1.2,Win32,60,,,,,,,,,,,,,,2,5.56973,1,1,1,1,151,109,1,stimuli/stim_20210407_power2amp/equal_lnn_AM4.8Hz_40.m4a,2.228,,
,,,,,,,,,,,,40948,2021-05-02_20h39.28.419,judgeSpeechMusic_20210407_logNormShiftAmp,2020.1.2,Win32,60,,,,,,,,,,,,,,2,57.550745,,0,1,2,152,20,1,stimuli/stim_20210407_power2amp/equal_lnn_AM1.2Hz_92.m4a,,,
,,,,,,,,,,,,40948,2021-05-02_20h39.28.419,judgeSpeechMusic_20210407_logNormShiftAmp,2020.1.2,Win32,60,,,,,,,,,,,,,,2,6.00229,,0,1,3,153,30,1,stimuli/stim_20210407_power2amp/equal_lnn_AM1.8Hz_6.m4a,,,
,,,,,,,,,,,,40948,2021-05-02_20h39.28.419,judgeSpeechMusic_20210407_logNormShiftAmp,2020.1.2,Win32,60,,,,,,,,,,,,,,1,6.07623,,0,1,4,154,89,1,stimuli/stim_20210407_power2amp/equal_lnn_AM3.6Hz_12.m4a,,,
,,,,,,,,,,,,40948,2021-05-02_20h39.28.419,judgeSpeechMusic_20210407_logNormShiftAmp,2020.1.2,Win32,60,,,,,,,,,,,,,,2,6.245185,,0,1,5,155,68,1,stimuli/stim_20210407_power2amp/equal_lnn_AM3Hz_46.m4a,,,
,,,,,,,,,,,,40948,2021-05-02_20h39.28.419,judgeSpeechMusic_20210407_logNormShiftAmp,2020.1.2,Win32,60,,,,,,,,,,,,,,1,8.22066,,0,1,6,156,65,1,stimuli/stim_20210407_power2amp/equal_lnn_AM3Hz_18.m4a,,,
,,,,,,,,,,,,40948,2021-05-02_20h39.28.419,judgeSpeechMusic_20210407_logNormShiftAmp,2020.1.2,Win32,60,,,,,,,,,,,,,,2,8.79406,,0,1,7,157,36,1,stimuli/stim_20210407_power2amp/equal_lnn_AM1.8Hz_3.m4a,,,
,,,,,,,,,,,,40948,2021-05-02_20h39.28.419,judgeSpeechMusic_20210407_logNormShiftAmp,2020.1.2,Win32,60,,,,,,,,,,,,,,2,6.737065,,0,1,8,158,116,1,stimuli/stim_20210407_power2amp/equal_lnn_AM4.8Hz_43.m4a,,,
,,,,,,,,,,,,40948,2021-05-02_20h39.28.419,judgeSpeechMusic_20210407_logNormShiftAmp,2020.1.2,Win32,60,,,,,,,,,,,,,,2,8.60077,,0,1,9,159,146,1,stimuli/stim_20210407_power2amp/equal_lnn_AM6Hz_74.m4a,,,
,,,,,,,,,,,,40948,2021-05-02_20h39.28.419,judgeSpeechMusic_20210407_logNormShiftAmp,2020.1.2,Win32,60,,,,,,,,,,,,,,2,7.824325,,0,1,10,160,143,1,stimuli/stim_20210407_power2amp/equal_lnn_AM6Hz_17.m4a,,,
,,,,,,,,,,,,40948,2021-05-02_20h39.28.419,judgeSpeechMusic_20210407_logNormShiftAmp,2020.1.2,Win32,60,,,,,,,,,,,,,,2,11.16447,,0,1,11,161,144,1,stimuli/stim_20210407_power2amp/equal_lnn_AM6Hz_77.m4a,,,
,,,,,,,,,,,,40948,2021-05-02_20h39.28.419,judgeSpeechMusic_20210407_logNormShiftAmp,2020.1.2,Win32,60,,,,,,,,,,,,,,1,5.678635,,0,1,12,162,13,1,stimuli/stim_20210407_power2amp/equal_lnn_AM0.6Hz_11.m4a,,,
,,,,,,,,,,,,40948,2021-05-02_20h39.28.419,judgeSpeechMusic_20210407_logNormShiftAmp,2020.1.2,Win32,60,,,,,,,,,,,,,,1,5.90306,,0,1,13,163,51,1,stimuli/stim_20210407_power2amp/equal_lnn_AM2.4Hz_60.m4a,,,
,,,,,,,,,,,,40948,2021-05-02_20h39.28.419,judgeSpeechMusic_20210407_logNormShiftAmp,2020.1.2,Win32,60,,,,,,,,,,,,,,1,6.450105,,0,1,14,164,35,1,stimuli/stim_20210407_power2amp/equal_lnn_AM1.8Hz_66.m4a,,,
,,,,,,,,,,,,40948,2021-05-02_20h39.28.419,judgeSpeechMusic_20210407_logNormShiftAmp,2020.1.2,Win32,60,,,,,,,,,,,,,,1,8.448745,,0,1,15,165,48,1,stimuli/stim_20210407_power2amp/equal_lnn_AM2.4Hz_57.m4a,,,
,,,,,,,,,,,,40948,2021-05-02_20h39.28.419,judgeSpeechMusic_20210407_logNormShiftAmp,2020.1.2,Win32,60,,,,,,,,,,,,,,2,6.302005,,0,1,16,166,138,1,stimuli/stim_20210407_power2amp/equal_lnn_AM6Hz_12.m4a,,,
,,,,,,,,,,,,40948,2021-05-02_20h39.28.419,judgeSpeechMusic_20210407_logNormShiftAmp,2020.1.2,Win32,60,,,,,,,,,,,,,,2,6.47844,,0,1,17,167,77,1,stimuli/stim_20210407_power2amp/equal_lnn_AM3.6Hz_10.m4a,,,
,,,,,,,,,,,,40948,2021-05-02_20h39.28.419,judgeSpeechMusic_20210407_logNormShiftAmp,2020.1.2,Win32,60,,,,,,,,,,,,,,1,10.53191,,0,1,18,168,80,1,stimuli/stim_20210407_power2amp/equal_lnn_AM3.6Hz_29.m4a,,,
,,,,,,,,,,,,40948,2021-05-02_20h39.28.419,judgeSpeechMusic_20210407_logNormShiftAmp,2020.1.2,Win32,60,,,,,,,,,,,,,,2,6.809185,,0,1,19,169,70,1,stimuli/stim_20210407_power2amp/equal_lnn_AM3Hz_43.m4a,,,
,,,,,,,,,,,,40948,2021-05-02_20h39.28.419,judgeSpeechMusic_20210407_logNormShiftAmp,2020.1.2,Win32,60,,,,,,,,,,,,,,1,8.09447,,0,1,20,170,38,1,stimuli/stim_20210407_power2amp/equal_lnn_AM1.8Hz_81.m4a,,,
,,,,,,,,,,,,40948,2021-05-02_20h39.28.419,judgeSpeechMusic_20210407_logNormShiftAmp,2020.1.2,Win32,60,,,,,,,,,,,,,,2,6.1509,,0,1,21,171,100,1,stimuli/stim_20210407_power2amp/equal_lnn_AM4.2Hz_77.m4a,,,
,,,,,,,,,,,,40948,2021-05-02_20h39.28.419,judgeSpeechMusic_20210407_logNormShiftAmp,2020.1.2,Win32,60,,,,,,,,,,,,,,2,6.548535,,0,1,22,172,87,1,stimuli/stim_20210407_power2amp/equal_lnn_AM3.6Hz_2.m4a,,,
,,,,,,,,,,,,40948,2021-05-02_20h39.28.419,judgeSpeechMusic_20210407_logNormShiftAmp,2020.1.2,Win32,60,,,,,,,,,,,,,,1,6.46948,2,1,1,23,173,57,1,stimuli/stim_20210407_power2amp/equal_lnn_AM2.4Hz_48.m4a,1.68545,,
,,,,,,,,,,,,40948,2021-05-02_20h39.28.419,judgeSpeechMusic_20210407_logNormShiftAmp,2020.1.2,Win32,60,,,,,,,,,,,,,,1,6.69435,,0,1,24,174,11,1,stimuli/stim_20210407_power2amp/equal_lnn_AM0.6Hz_52.m4a,,,
,,,,,,,,,,,,40948,2021-05-02_20h39.28.419,judgeSpeechMusic_20210407_logNormShiftAmp,2020.1.2,Win32,60,,,,,,,,,,,,,,1,5.6377,,0,1,25,175,133,1,stimuli/stim_20210407_power2amp/equal_lnn_AM5.4Hz_76.m4a,,,
,,,,,,,,,,,,40948,2021-05-02_20h39.28.419,judgeSpeechMusic_20210407_logNormShiftAmp,2020.1.2,Win32,60,,,,,,,,,,,,,,1,5.604965,,0,1,26,176,22,1,stimuli/stim_20210407_power2amp/equal_lnn_AM1.2Hz_6.m4a,,,
,,,,,,,,,,,,40948,2021-05-02_20h39.28.419,judgeSpeechMusic_20210407_logNormShiftAmp,2020.1.2,Win32,60,,,,,,,,,,,,,,2,7.826185,,0,1,27,177,44,1,stimuli/stim_20210407_power2amp/equal_lnn_AM1.8Hz_19.m4a,,,
,,,,,,,,,,,,40948,2021-05-02_20h39.28.419,judgeSpeechMusic_20210407_logNormShiftAmp,2020.1.2,Win32,60,,,,,,,,,,,,,,2,5.7602,,0,1,28,178,128,1,stimuli/stim_20210407_power2amp/equal_lnn_AM5.4Hz_98.m4a,,,
,,,,,,,,,,,,40948,2021-05-02_20h39.28.419,judgeSpeechMusic_20210407_logNormShiftAmp,2020.1.2,Win32,60,,,,,,,,,,,,,,2,10.16149,,0,1,29,179,64,1,stimuli/stim_20210407_power2amp/equal_lnn_AM3Hz_44.m4a,,,
,,,,,,,,,,,,40948,2021-05-02_20h39.28.419,judgeSpeechMusic_20210407_logNormShiftAmp,2020.1.2,Win32,60,,,,,,,,,,,,,,2,9.22681,,0,1,30,180,82,1,stimuli/stim_20210407_power2amp/equal_lnn_AM3.6Hz_39.m4a,,,
,,,,,,,,,,,,40948,2021-05-02_20h39.28.419,judgeSpeechMusic_20210407_logNormShiftAmp,2020.1.2,Win32,60,,,,,,,,,,,,,,2,10.30172,,0,1,31,181,31,1,stimuli/stim_20210407_power2amp/equal_lnn_AM1.8Hz_75.m4a,,,
,,,,,,,,,,,,40948,2021-05-02_20h39.28.419,judgeSpeechMusic_20210407_logNormShiftAmp,2020.1.2,Win32,60,,,,,,,,,,,,,,1,5.854165,,0,1,32,182,16,1,stimuli/stim_20210407_power2amp/equal_lnn_AM1.2Hz_38.m4a,,,
,,,,,,,,,,,,40948,2021-05-02_20h39.28.419,judgeSpeechMusic_20210407_logNormShiftAmp,2020.1.2,Win32,60,,,,,,,,,,,,,,2,7.88655,,0,1,33,183,149,1,stimuli/stim_20210407_power2amp/equal_lnn_AM6Hz_26.m4a,,,
,,,,,,,,,,,,40948,2021-05-02_20h39.28.419,judgeSpeechMusic_20210407_logNormShiftAmp,2020.1.2,Win32,60,,,,,,,,,,,,,,2,59.27743,,0,1,34,184,104,1,stimuli/stim_20210407_power2amp/equal_lnn_AM4.2Hz_30.m4a,,,
,,,,,,,,,,,,40948,2021-05-02_20h39.28.419,judgeSpeechMusic_20210407_logNormShiftAmp,2020.1.2,Win32,60,,,,,,,,,,,,,,2,5.676335,,0,1,35,185,122,1,stimuli/stim_20210407_power2amp/equal_lnn_AM5.4Hz_22.m4a,,,
,,,,,,,,,,,,40948,2021-05-02_20h39.28.419,judgeSpeechMusic_20210407_logNormShiftAmp,2020.1.2,Win32,60,,,,,,,,,,,,,,1,7.828415,,0,1,36,186,93,1,stimuli/stim_20210407_power2amp/equal_lnn_AM4.2Hz_13.m4a,,,
,,,,,,,,,,,,40948,2021-05-02_20h39.28.419,judgeSpeechMusic_20210407_logNormShiftAmp,2020.1.2,Win32,60,,,,,,,,,,,,,,1,7.39008,,0,1,37,187,33,1,stimuli/stim_20210407_power2amp/equal_lnn_AM1.8Hz_97.m4a,,,
,,,,,,,,,,,,40948,2021-05-02_20h39.28.419,judgeSpeechMusic_20210407_logNormShiftAmp,2020.1.2,Win32,60,,,,,,,,,,,,,,2,6.58522,,0,1,38,188,106,1,stimuli/stim_20210407_power2amp/equal_lnn_AM4.8Hz_29.m4a,,,
,,,,,,,,,,,,40948,2021-05-02_20h39.28.419,judgeSpeechMusic_20210407_logNormShiftAmp,2020.1.2,Win32,60,,,,,,,,,,,,,,2,5.927595,,0,1,39,189,125,1,stimuli/stim_20210407_power2amp/equal_lnn_AM5.4Hz_70.m4a,,,
,,,,,,,,,,,,40948,2021-05-02_20h39.28.419,judgeSpeechMusic_20210407_logNormShiftAmp,2020.1.2,Win32,60,,,,,,,,,,,,,,2,6.292915,,0,1,40,190,90,1,stimuli/stim_20210407_power2amp/equal_lnn_AM4.2Hz_29.m4a,,,
,,,,,,,,,,,,40948,2021-05-02_20h39.28.419,judgeSpeechMusic_20210407_logNormShiftAmp,2020.1.2,Win32,60,,,,,,,,,,,,,,2,6.63004,,0,1,41,191,58,1,stimuli/stim_20210407_power2amp/equal_lnn_AM2.4Hz_19.m4a,,,
,,,,,,,,,,,,40948,2021-05-02_20h39.28.419,judgeSpeechMusic_20210407_logNormShiftAmp,2020.1.2,Win32,60,,,,,,,,,,,,,,1,8.084485,,0,1,42,192,25,1,stimuli/stim_20210407_power2amp/equal_lnn_AM1.2Hz_88.m4a,,,
,,,,,,,,,,,,40948,2021-05-02_20h39.28.419,judgeSpeechMusic_20210407_logNormShiftAmp,2020.1.2,Win32,60,,,,,,,,,,,,,,2,6.371865,,0,1,43,193,110,1,stimuli/stim_20210407_power2amp/equal_lnn_AM4.8Hz_60.m4a,,,
,,,,,,,,,,,,40948,2021-05-02_20h39.28.419,judgeSpeechMusic_20210407_logNormShiftAmp,2020.1.2,Win32,60,,,,,,,,,,,,,,1,5.81515,2,1,1,44,194,88,1,stimuli/stim_20210407_power2amp/equal_lnn_AM3.6Hz_54.m4a,1.19753,,
,,,,,,,,,,,,40948,2021-05-02_20h39.28.419,judgeSpeechMusic_20210407_logNormShiftAmp,2020.1.2,Win32,60,,,,,,,,,,,,,,1,6.417795,,0,1,45,195,141,1,stimuli/stim_20210407_power2amp/equal_lnn_AM6Hz_79.m4a,,,
,,,,,,,,,,,,40948,2021-05-02_20h39.28.419,judgeSpeechMusic_20210407_logNormShiftAmp,2020.1.2,Win32,60,,,,,,,,,,,,,,1,12.56997,,0,1,46,196,52,1,stimuli/stim_20210407_power2amp/equal_lnn_AM2.4Hz_16.m4a,,,
,,,,,,,,,,,,40948,2021-05-02_20h39.28.419,judgeSpeechMusic_20210407_logNormShiftAmp,2020.1.2,Win32,60,,,,,,,,,,,,,,2,51.21964,,0,1,47,197,91,1,stimuli/stim_20210407_power2amp/equal_lnn_AM4.2Hz_58.m4a,,,
,,,,,,,,,,,,40948,2021-05-02_20h39.28.419,judgeSpeechMusic_20210407_logNormShiftAmp,2020.1.2,Win32,60,,,,,,,,,,,,,,2,8.005625,,0,1,48,198,120,1,stimuli/stim_20210407_power2amp/equal_lnn_AM5.4Hz_20.m4a,,,
,,,,,,,,,,,,40948,2021-05-02_20h39.28.419,judgeSpeechMusic_20210407_logNormShiftAmp,2020.1.2,Win32,60,,,,,,,,,,,,,,1,7.546875,,0,1,49,199,124,1,stimuli/stim_20210407_power2amp/equal_lnn_AM5.4Hz_53.m4a,,,
,,,,,,,,,,,,40948,2021-05-02_20h39.28.419,judgeSpeechMusic_20210407_logNormShiftAmp,2020.1.2,Win32,60,,,,,,,,,,,,,,2,5.561835,,0,1,50,200,108,1,stimuli/stim_20210407_power2amp/equal_lnn_AM4.8Hz_76.m4a,,,
,,,,,,,,,,,,40948,2021-05-02_20h39.28.419,judgeSpeechMusic_20210407_logNormShiftAmp,2020.1.2,Win32,60,,,,,,,,,,,,,,1,7.471275,,0,1,51,201,72,1,stimuli/stim_20210407_power2amp/equal_lnn_AM3Hz_47.m4a,,,
,,,,,,,,,,,,40948,2021-05-02_20h39.28.419,judgeSpeechMusic_20210407_logNormShiftAmp,2020.1.2,Win32,60,,,,,,,,,,,,,,1,6.076495,,0,1,52,202,62,1,stimuli/stim_20210407_power2amp/equal_lnn_AM3Hz_58.m4a,,,
,,,,,,,,,,,,40948,2021-05-02_20h39.28.419,judgeSpeechMusic_20210407_logNormShiftAmp,2020.1.2,Win32,60,,,,,,,,,,,,,,2,5.668695,,0,1,53,203,113,1,stimuli/stim_20210407_power2amp/equal_lnn_AM4.8Hz_18.m4a,,,
,,,,,,,,,,,,40948,2021-05-02_20h39.28.419,judgeSpeechMusic_20210407_logNormShiftAmp,2020.1.2,Win32,60,,,,,,,,,,,,,,1,6.398645,,0,1,54,204,0,1,stimuli/stim_20210407_power2amp/equal_lnn_AM0.6Hz_39.m4a,,,
,,,,,,,,,,,,40948,2021-05-02_20h39.28.419,judgeSpeechMusic_20210407_logNormShiftAmp,2020.1.2,Win32,60,,,,,,,,,,,,,,2,8.484485,,0,1,55,205,96,1,stimuli/stim_20210407_power2amp/equal_lnn_AM4.2Hz_97.m4a,,,
,,,,,,,,,,,,40948,2021-05-02_20h39.28.419,judgeSpeechMusic_20210407_logNormShiftAmp,2020.1.2,Win32,60,,,,,,,,,,,,,,2,6.626535,,0,1,56,206,78,1,stimuli/stim_20210407_power2amp/equal_lnn_AM3.6Hz_83.m4a,,,
,,,,,,,,,,,,40948,2021-05-02_20h39.28.419,judgeSpeechMusic_20210407_logNormShiftAmp,2020.1.2,Win32,60,,,,,,,,,,,,,,2,11.135515,,0,1,57,207,45,1,stimuli/stim_20210407_power2amp/equal_lnn_AM2.4Hz_28.m4a,,,
,,,,,,,,,,,,40948,2021-05-02_20h39.28.419,judgeSpeechMusic_20210407_logNormShiftAmp,2020.1.2,Win32,60,,,,,,,,,,,,,,1,9.16814,,0,1,58,208,9,1,stimuli/stim_20210407_power2amp/equal_lnn_AM0.6Hz_10.m4a,,,
,,,,,,,,,,,,40948,2021-05-02_20h39.28.419,judgeSpeechMusic_20210407_logNormShiftAmp,2020.1.2,Win32,60,,,,,,,,,,,,,,2,9.3888,,0,1,59,209,55,1,stimuli/stim_20210407_power2amp/equal_lnn_AM2.4Hz_27.m4a,,,
,,,,,,,,,,,,40948,2021-05-02_20h39.28.419,judgeSpeechMusic_20210407_logNormShiftAmp,2020.1.2,Win32,60,,,,,,,,,,,,,,2,8.632345,,0,1,60,210,101,1,stimuli/stim_20210407_power2amp/equal_lnn_AM4.2Hz_78.m4a,,,
,,,,,,,,,,,,40948,2021-05-02_20h39.28.419,judgeSpeechMusic_20210407_logNormShiftAmp,2020.1.2,Win32,60,,,,,,,,,,,,,,2,5.72058,,0,1,61,211,132,1,stimuli/stim_20210407_power2amp/equal_lnn_AM5.4Hz_51.m4a,,,
,,,,,,,,,,,,40948,2021-05-02_20h39.28.419,judgeSpeechMusic_20210407_logNormShiftAmp,2020.1.2,Win32,60,,,,,,,,,,,,,,2,6.47981,,0,1,62,212,98,1,stimuli/stim_20210407_power2amp/equal_lnn_AM4.2Hz_35.m4a,,,
,,,,,,,,,,,,40948,2021-05-02_20h39.28.419,judgeSpeechMusic_20210407_logNormShiftAmp,2020.1.2,Win32,60,,,,,,,,,,,,,,1,6.005295,,0,1,63,213,15,1,stimuli/stim_20210407_power2amp/equal_lnn_AM1.2Hz_89.m4a,,,
,,,,,,,,,,,,40948,2021-05-02_20h39.28.419,judgeSpeechMusic_20210407_logNormShiftAmp,2020.1.2,Win32,60,,,,,,,,,,,,,,2,6.12213,,0,1,64,214,148,1,stimuli/stim_20210407_power2amp/equal_lnn_AM6Hz_43.m4a,,,
,,,,,,,,,,,,40948,2021-05-02_20h39.28.419,judgeSpeechMusic_20210407_logNormShiftAmp,2020.1.2,Win32,60,,,,,,,,,,,,,,2,8.292865,,0,1,65,215,63,1,stimuli/stim_20210407_power2amp/equal_lnn_AM3Hz_35.m4a,,,
,,,,,,,,,,,,40948,2021-05-02_20h39.28.419,judgeSpeechMusic_20210407_logNormShiftAmp,2020.1.2,Win32,60,,,,,,,,,,,,,,1,7.68488,,0,1,66,216,50,1,stimuli/stim_20210407_power2amp/equal_lnn_AM2.4Hz_13.m4a,,,
,,,,,,,,,,,,40948,2021-05-02_20h39.28.419,judgeSpeechMusic_20210407_logNormShiftAmp,2020.1.2,Win32,60,,,,,,,,,,,,,,2,8.467635,,0,1,67,217,136,1,stimuli/stim_20210407_power2amp/equal_lnn_AM6Hz_18.m4a,,,
,,,,,,,,,,,,40948,2021-05-02_20h39.28.419,judgeSpeechMusic_20210407_logNormShiftAmp,2020.1.2,Win32,60,,,,,,,,,,,,,,2,9.86378,,0,1,68,218,145,1,stimuli/stim_20210407_power2amp/equal_lnn_AM6Hz_11.m4a,,,
,,,,,,,,,,,,40948,2021-05-02_20h39.28.419,judgeSpeechMusic_20210407_logNormShiftAmp,2020.1.2,Win32,60,,,,,,,,,,,,,,1,6.920445,4,1,1,69,219,32,1,stimuli/stim_20210407_power2amp/equal_lnn_AM1.8Hz_32.m4a,5.645435,,
,,,,,,,,,,,,40948,2021-05-02_20h39.28.419,judgeSpeechMusic_20210407_logNormShiftAmp,2020.1.2,Win32,60,,,,,,,,,,,,,,2,9.01272,,0,1,70,220,60,1,stimuli/stim_20210407_power2amp/equal_lnn_AM3Hz_53.m4a,,,
,,,,,,,,,,,,40948,2021-05-02_20h39.28.419,judgeSpeechMusic_20210407_logNormShiftAmp,2020.1.2,Win32,60,,,,,,,,,,,,,,2,6.676655,,0,1,71,221,49,1,stimuli/stim_20210407_power2amp/equal_lnn_AM2.4Hz_81.m4a,,,
,,,,,,,,,,,,40948,2021-05-02_20h39.28.419,judgeSpeechMusic_20210407_logNormShiftAmp,2020.1.2,Win32,60,,,,,,,,,,,,,,1,13.35163,,0,1,72,222,29,1,stimuli/stim_20210407_power2amp/equal_lnn_AM1.2Hz_56.m4a,,,
,,,,,,,,,,,,40948,2021-05-02_20h39.28.419,judgeSpeechMusic_20210407_logNormShiftAmp,2020.1.2,Win32,60,,,,,,,,,,,,,,2,8.51001,,0,1,73,223,97,1,stimuli/stim_20210407_power2amp/equal_lnn_AM4.2Hz_51.m4a,,,
,,,,,,,,,,,,40948,2021-05-02_20h39.28.419,judgeSpeechMusic_20210407_logNormShiftAmp,2020.1.2,Win32,60,,,,,,,,,,,,,,2,9.692975,,0,1,74,224,142,1,stimuli/stim_20210407_power2amp/equal_lnn_AM6Hz_97.m4a,,,
,,,,,,,,,,,,40948,2021-05-02_20h39.28.419,judgeSpeechMusic_20210407_logNormShiftAmp,2020.1.2,Win32,60,,,,,,,,,,,,,,2,8.769105,,0,1,75,225,103,1,stimuli/stim_20210407_power2amp/equal_lnn_AM4.2Hz_1.m4a,,,
,,,,,,,,,,,,40948,2021-05-02_20h39.28.419,judgeSpeechMusic_20210407_logNormShiftAmp,2020.1.2,Win32,60,,,,,,,,,,,,,,1,7.46839,,0,1,76,226,39,1,stimuli/stim_20210407_power2amp/equal_lnn_AM1.8Hz_87.m4a,,,
,,,,,,,,,,,,40948,2021-05-02_20h39.28.419,judgeSpeechMusic_20210407_logNormShiftAmp,2020.1.2,Win32,60,,,,,,,,,,,,,,2,8.250945,,0,1,77,227,61,1,stimuli/stim_20210407_power2amp/equal_lnn_AM3Hz_59.m4a,,,
,,,,,,,,,,,,40948,2021-05-02_20h39.28.419,judgeSpeechMusic_20210407_logNormShiftAmp,2020.1.2,Win32,60,,,,,,,,,,,,,,2,6.8941,,0,1,78,228,102,1,stimuli/stim_20210407_power2amp/equal_lnn_AM4.2Hz_88.m4a,,,
,,,,,,,,,,,,40948,2021-05-02_20h39.28.419,judgeSpeechMusic_20210407_logNormShiftAmp,2020.1.2,Win32,60,,,,,,,,,,,,,,1,5.597655,,0,1,79,229,73,1,stimuli/stim_20210407_power2amp/equal_lnn_AM3Hz_48.m4a,,,
,,,,,,,,,,,,40948,2021-05-02_20h39.28.419,judgeSpeechMusic_20210407_logNormShiftAmp,2020.1.2,Win32,60,,,,,,,,,,,,,,2,5.849205,,0,1,80,230,99,1,stimuli/stim_20210407_power2amp/equal_lnn_AM4.2Hz_64.m4a,,,
,,,,,,,,,,,,40948,2021-05-02_20h39.28.419,judgeSpeechMusic_20210407_logNormShiftAmp,2020.1.2,Win32,60,,,,,,,,,,,,,,1,6.433865,,0,1,81,231,41,1,stimuli/stim_20210407_power2amp/equal_lnn_AM1.8Hz_78.m4a,,,
,,,,,,,,,,,,40948,2021-05-02_20h39.28.419,judgeSpeechMusic_20210407_logNormShiftAmp,2020.1.2,Win32,60,,,,,,,,,,,,,,1,7.685375,,0,1,82,232,26,1,stimuli/stim_20210407_power2amp/equal_lnn_AM1.2Hz_49.m4a,,,
,,,,,,,,,,,,40948,2021-05-02_20h39.28.419,judgeSpeechMusic_20210407_logNormShiftAmp,2020.1.2,Win32,60,,,,,,,,,,,,,,2,8.002905,,0,1,83,233,17,1,stimuli/stim_20210407_power2amp/equal_lnn_AM1.2Hz_21.m4a,,,
,,,,,,,,,,,,40948,2021-05-02_20h39.28.419,judgeSpeechMusic_20210407_logNormShiftAmp,2020.1.2,Win32,60,,,,,,,,,,,,,,1,6.66282,,0,1,84,234,40,1,stimuli/stim_20210407_power2amp/equal_lnn_AM1.8Hz_34.m4a,,,
,,,,,,,,,,,,40948,2021-05-02_20h39.28.419,judgeSpeechMusic_20210407_logNormShiftAmp,2020.1.2,Win32,60,,,,,,,,,,,,,,2,7.838815,,0,1,85,235,140,1,stimuli/stim_20210407_power2amp/equal_lnn_AM6Hz_7.m4a,,,
,,,,,,,,,,,,40948,2021-05-02_20h39.28.419,judgeSpeechMusic_20210407_logNormShiftAmp,2020.1.2,Win32,60,,,,,,,,,,,,,,1,7.67167,,0,1,86,236,12,1,stimuli/stim_20210407_power2amp/equal_lnn_AM0.6Hz_4.m4a,,,
,,,,,,,,,,,,40948,2021-05-02_20h39.28.419,judgeSpeechMusic_20210407_logNormShiftAmp,2020.1.2,Win32,60,,,,,,,,,,,,,,2,5.84581,,0,1,87,237,43,1,stimuli/stim_20210407_power2amp/equal_lnn_AM1.8Hz_77.m4a,,,
,,,,,,,,,,,,40948,2021-05-02_20h39.28.419,judgeSpeechMusic_20210407_logNormShiftAmp,2020.1.2,Win32,60,,,,,,,,,,,,,,1,5.60152,,0,1,88,238,3,1,stimuli/stim_20210407_power2amp/equal_lnn_AM0.6Hz_47.m4a,,,
,,,,,,,,,,,,40948,2021-05-02_20h39.28.419,judgeSpeechMusic_20210407_logNormShiftAmp,2020.1.2,Win32,60,,,,,,,,,,,,,,1,5.647935,,0,1,89,239,56,1,stimuli/stim_20210407_power2amp/equal_lnn_AM2.4Hz_26.m4a,,,
,,,,,,,,,,,,40948,2021-05-02_20h39.28.419,judgeSpeechMusic_20210407_logNormShiftAmp,2020.1.2,Win32,60,,,,,,,,,,,,,,2,6.235225,,0,1,90,240,147,1,stimuli/stim_20210407_power2amp/equal_lnn_AM6Hz_80.m4a,,,
,,,,,,,,,,,,40948,2021-05-02_20h39.28.419,judgeSpeechMusic_20210407_logNormShiftAmp,2020.1.2,Win32,60,,,,,,,,,,,,,,1,6.393255,,0,1,91,241,23,1,stimuli/stim_20210407_power2amp/equal_lnn_AM1.2Hz_93.m4a,,,
,,,,,,,,,,,,40948,2021-05-02_20h39.28.419,judgeSpeechMusic_20210407_logNormShiftAmp,2020.1.2,Win32,60,,,,,,,,,,,,,,1,5.680225,,0,1,92,242,94,1,stimuli/stim_20210407_power2amp/equal_lnn_AM4.2Hz_5.m4a,,,
,,,,,,,,,,,,40948,2021-05-02_20h39.28.419,judgeSpeechMusic_20210407_logNormShiftAmp,2020.1.2,Win32,60,,,,,,,,,,,,,,2,5.98715,,0,1,93,243,86,1,stimuli/stim_20210407_power2amp/equal_lnn_AM3.6Hz_43.m4a,,,
,,,,,,,,,,,,40948,2021-05-02_20h39.28.419,judgeSpeechMusic_20210407_logNormShiftAmp,2020.1.2,Win32,60,,,,,,,,,,,,,,2,6.033105,4,1,1,94,244,28,1,stimuli/stim_20210407_power2amp/equal_lnn_AM1.2Hz_90.m4a,5.52717,,
,,,,,,,,,,,,40948,2021-05-02_20h39.28.419,judgeSpeechMusic_20210407_logNormShiftAmp,2020.1.2,Win32,60,,,,,,,,,,,,,,2,6.768515,,0,1,95,245,66,1,stimuli/stim_20210407_power2amp/equal_lnn_AM3Hz_81.m4a,,,
,,,,,,,,,,,,40948,2021-05-02_20h39.28.419,judgeSpeechMusic_20210407_logNormShiftAmp,2020.1.2,Win32,60,,,,,,,,,,,,,,2,7.772755,,0,1,96,246,47,1,stimuli/stim_20210407_power2amp/equal_lnn_AM2.4Hz_61.m4a,,,
,,,,,,,,,,,,40948,2021-05-02_20h39.28.419,judgeSpeechMusic_20210407_logNormShiftAmp,2020.1.2,Win32,60,,,,,,,,,,,,,,2,12.28219,,0,1,97,247,10,1,stimuli/stim_20210407_power2amp/equal_lnn_AM0.6Hz_5.m4a,,,
,,,,,,,,,,,,40948,2021-05-02_20h39.28.419,judgeSpeechMusic_20210407_logNormShiftAmp,2020.1.2,Win32,60,,,,,,,,,,,,,,1,10.07941,,0,1,98,248,14,1,stimuli/stim_20210407_power2amp/equal_lnn_AM0.6Hz_79.m4a,,,
,,,,,,,,,,,,40948,2021-05-02_20h39.28.419,judgeSpeechMusic_20210407_logNormShiftAmp,2020.1.2,Win32,60,,,,,,,,,,,,,,1,14.8393,,0,1,99,249,6,1,stimuli/stim_20210407_power2amp/equal_lnn_AM0.6Hz_37.m4a,,,
,,,,,,,,,,,,40948,2021-05-02_20h39.28.419,judgeSpeechMusic_20210407_logNormShiftAmp,2020.1.2,Win32,60,,,,,,,,,,,,,,2,7.0686,,0,1,100,250,123,1,stimuli/stim_20210407_power2amp/equal_lnn_AM5.4Hz_78.m4a,,,
,,,,,,,,,,,,40948,2021-05-02_20h39.28.419,judgeSpeechMusic_20210407_logNormShiftAmp,2020.1.2,Win32,60,,,,,,,,,,,,,,2,5.606635,,0,1,101,251,129,1,stimuli/stim_20210407_power2amp/equal_lnn_AM5.4Hz_40.m4a,,,
,,,,,,,,,,,,40948,2021-05-02_20h39.28.419,judgeSpeechMusic_20210407_logNormShiftAmp,2020.1.2,Win32,60,,,,,,,,,,,,,,2,5.85991,,0,1,102,252,117,1,stimuli/stim_20210407_power2amp/equal_lnn_AM4.8Hz_78.m4a,,,
,,,,,,,,,,,,40948,2021-05-02_20h39.28.419,judgeSpeechMusic_20210407_logNormShiftAmp,2020.1.2,Win32,60,,,,,,,,,,,,,,2,6.984485,,0,1,103,253,54,1,stimuli/stim_20210407_power2amp/equal_lnn_AM2.4Hz_79.m4a,,,
,,,,,,,,,,,,40948,2021-05-02_20h39.28.419,judgeSpeechMusic_20210407_logNormShiftAmp,2020.1.2,Win32,60,,,,,,,,,,,,,,2,6.048515,,0,1,104,254,105,1,stimuli/stim_20210407_power2amp/equal_lnn_AM4.8Hz_12.m4a,,,
,,,,,,,,,,,,40948,2021-05-02_20h39.28.419,judgeSpeechMusic_20210407_logNormShiftAmp,2020.1.2,Win32,60,,,,,,,,,,,,,,1,5.82317,,0,1,105,255,92,1,stimuli/stim_20210407_power2amp/equal_lnn_AM4.2Hz_85.m4a,,,
,,,,,,,,,,,,40948,2021-05-02_20h39.28.419,judgeSpeechMusic_20210407_logNormShiftAmp,2020.1.2,Win32,60,,,,,,,,,,,,,,1,6.26445,,0,1,106,256,5,1,stimuli/stim_20210407_power2amp/equal_lnn_AM0.6Hz_7.m4a,,,
,,,,,,,,,,,,40948,2021-05-02_20h39.28.419,judgeSpeechMusic_20210407_logNormShiftAmp,2020.1.2,Win32,60,,,,,,,,,,,,,,1,11.913165,,0,1,107,257,69,1,stimuli/stim_20210407_power2amp/equal_lnn_AM3Hz_77.m4a,,,
,,,,,,,,,,,,40948,2021-05-02_20h39.28.419,judgeSpeechMusic_20210407_logNormShiftAmp,2020.1.2,Win32,60,,,,,,,,,,,,,,2,6.83221,,0,1,108,258,111,1,stimuli/stim_20210407_power2amp/equal_lnn_AM4.8Hz_10.m4a,,,
,,,,,,,,,,,,40948,2021-05-02_20h39.28.419,judgeSpeechMusic_20210407_logNormShiftAmp,2020.1.2,Win32,60,,,,,,,,,,,,,,1,5.7343,,0,1,109,259,84,1,stimuli/stim_20210407_power2amp/equal_lnn_AM3.6Hz_75.m4a,,,
,,,,,,,,,,,,40948,2021-05-02_20h39.28.419,judgeSpeechMusic_20210407_logNormShiftAmp,2020.1.2,Win32,60,,,,,,,,,,,,,,1,5.602045,,0,1,110,260,8,1,stimuli/stim_20210407_power2amp/equal_lnn_AM0.6Hz_41.m4a,,,
,,,,,,,,,,,,40948,2021-05-02_20h39.28.419,judgeSpeechMusic_20210407_logNormShiftAmp,2020.1.2,Win32,60,,,,,,,,,,,,,,1,6.95128,,0,1,111,261,7,1,stimuli/stim_20210407_power2amp/equal_lnn_AM0.6Hz_93.m4a,,,
,,,,,,,,,,,,40948,2021-05-02_20h39.28.419,judgeSpeechMusic_20210407_logNormShiftAmp,2020.1.2,Win32,60,,,,,,,,,,,,,,2,5.76088,,0,1,112,262,112,1,stimuli/stim_20210407_power2amp/equal_lnn_AM4.8Hz_44.m4a,,,
,,,,,,,,,,,,40948,2021-05-02_20h39.28.419,judgeSpeechMusic_20210407_logNormShiftAmp,2020.1.2,Win32,60,,,,,,,,,,,,,,2,6.43529,,0,1,113,263,42,1,stimuli/stim_20210407_power2amp/equal_lnn_AM1.8Hz_1.m4a,,,
,,,,,,,,,,,,40948,2021-05-02_20h39.28.419,judgeSpeechMusic_20210407_logNormShiftAmp,2020.1.2,Win32,60,,,,,,,,,,,,,,2,5.98547,,0,1,114,264,126,1,stimuli/stim_20210407_power2amp/equal_lnn_AM5.4Hz_17.m4a,,,
,,,,,,,,,,,,40948,2021-05-02_20h39.28.419,judgeSpeechMusic_20210407_logNormShiftAmp,2020.1.2,Win32,60,,,,,,,,,,,,,,2,85.409725,,0,1,115,265,59,1,stimuli/stim_20210407_power2amp/equal_lnn_AM2.4Hz_1.m4a,,,
,,,,,,,,,,,,40948,2021-05-02_20h39.28.419,judgeSpeechMusic_20210407_logNormShiftAmp,2020.1.2,Win32,60,,,,,,,,,,,,,,2,5.546985,2,1,1,116,266,85,1,stimuli/stim_20210407_power2amp/equal_lnn_AM3.6Hz_69.m4a,0.64182,,
,,,,,,,,,,,,40948,2021-05-02_20h39.28.419,judgeSpeechMusic_20210407_logNormShiftAmp,2020.1.2,Win32,60,,,,,,,,,,,,,,2,5.616935,,0,1,117,267,75,1,stimuli/stim_20210407_power2amp/equal_lnn_AM3.6Hz_74.m4a,,,
,,,,,,,,,,,,40948,2021-05-02_20h39.28.419,judgeSpeechMusic_20210407_logNormShiftAmp,2020.1.2,Win32,60,,,,,,,,,,,,,,1,5.65043,,0,1,118,268,34,1,stimuli/stim_20210407_power2amp/equal_lnn_AM1.8Hz_37.m4a,,,
,,,,,,,,,,,,40948,2021-05-02_20h39.28.419,judgeSpeechMusic_20210407_logNormShiftAmp,2020.1.2,Win32,60,,,,,,,,,,,,,,1,5.53651,,0,1,119,269,27,1,stimuli/stim_20210407_power2amp/equal_lnn_AM1.2Hz_97.m4a,,,
,,,,,,,,,,,,40948,2021-05-02_20h39.28.419,judgeSpeechMusic_20210407_logNormShiftAmp,2020.1.2,Win32,60,,,,,,,,,,,,,,2,6.335355,,0,1,120,270,67,1,stimuli/stim_20210407_power2amp/equal_lnn_AM3Hz_91.m4a,,,
,,,,,,,,,,,,40948,2021-05-02_20h39.28.419,judgeSpeechMusic_20210407_logNormShiftAmp,2020.1.2,Win32,60,,,,,,,,,,,,,,2,6.452375,,0,1,121,271,79,1,stimuli/stim_20210407_power2amp/equal_lnn_AM3.6Hz_56.m4a,,,
,,,,,,,,,,,,40948,2021-05-02_20h39.28.419,judgeSpeechMusic_20210407_logNormShiftAmp,2020.1.2,Win32,60,,,,,,,,,,,,,,1,6.370195,,0,1,122,272,53,1,stimuli/stim_20210407_power2amp/equal_lnn_AM2.4Hz_72.m4a,,,
,,,,,,,,,,,,40948,2021-05-02_20h39.28.419,judgeSpeechMusic_20210407_logNormShiftAmp,2020.1.2,Win32,60,,,,,,,,,,,,,,2,6.740405,,0,1,123,273,81,1,stimuli/stim_20210407_power2amp/equal_lnn_AM3.6Hz_4.m4a,,,
,,,,,,,,,,,,40948,2021-05-02_20h39.28.419,judgeSpeechMusic_20210407_logNormShiftAmp,2020.1.2,Win32,60,,,,,,,,,,,,,,1,10.41723,,0,1,124,274,1,1,stimuli/stim_20210407_power2amp/equal_lnn_AM0.6Hz_28.m4a,,,
,,,,,,,,,,,,40948,2021-05-02_20h39.28.419,judgeSpeechMusic_20210407_logNormShiftAmp,2020.1.2,Win32,60,,,,,,,,,,,,,,2,5.779235,,0,1,125,275,118,1,stimuli/stim_20210407_power2amp/equal_lnn_AM4.8Hz_59.m4a,,,
,,,,,,,,,,,,40948,2021-05-02_20h39.28.419,judgeSpeechMusic_20210407_logNormShiftAmp,2020.1.2,Win32,60,,,,,,,,,,,,,,1,5.947145,,0,1,126,276,21,1,stimuli/stim_20210407_power2amp/equal_lnn_AM1.2Hz_61.m4a,,,
,,,,,,,,,,,,40948,2021-05-02_20h39.28.419,judgeSpeechMusic_20210407_logNormShiftAmp,2020.1.2,Win32,60,,,,,,,,,,,,,,2,5.59272,,0,1,127,277,107,1,stimuli/stim_20210407_power2amp/equal_lnn_AM4.8Hz_66.m4a,,,
,,,,,,,,,,,,40948,2021-05-02_20h39.28.419,judgeSpeechMusic_20210407_logNormShiftAmp,2020.1.2,Win32,60,,,,,,,,,,,,,,2,7.300135,,0,1,128,278,18,1,stimuli/stim_20210407_power2amp/equal_lnn_AM1.2Hz_82.m4a,,,
,,,,,,,,,,,,40948,2021-05-02_20h39.28.419,judgeSpeechMusic_20210407_logNormShiftAmp,2020.1.2,Win32,60,,,,,,,,,,,,,,2,6.65072,,0,1,129,279,71,1,stimuli/stim_20210407_power2amp/equal_lnn_AM3Hz_99.m4a,,,
,,,,,,,,,,,,40948,2021-05-02_20h39.28.419,judgeSpeechMusic_20210407_logNormShiftAmp,2020.1.2,Win32,60,,,,,,,,,,,,,,2,5.65649,,0,1,130,280,19,1,stimuli/stim_20210407_power2amp/equal_lnn_AM1.2Hz_70.m4a,,,
,,,,,,,,,,,,40948,2021-05-02_20h39.28.419,judgeSpeechMusic_20210407_logNormShiftAmp,2020.1.2,Win32,60,,,,,,,,,,,,,,2,5.59294,,0,1,131,281,139,1,stimuli/stim_20210407_power2amp/equal_lnn_AM6Hz_46.m4a,,,
,,,,,,,,,,,,40948,2021-05-02_20h39.28.419,judgeSpeechMusic_20210407_logNormShiftAmp,2020.1.2,Win32,60,,,,,,,,,,,,,,1,5.89385,,0,1,132,282,83,1,stimuli/stim_20210407_power2amp/equal_lnn_AM3.6Hz_48.m4a,,,
,,,,,,,,,,,,40948,2021-05-02_20h39.28.419,judgeSpeechMusic_20210407_logNormShiftAmp,2020.1.2,Win32,60,,,,,,,,,,,,,,2,10.49333,,0,1,133,283,46,1,stimuli/stim_20210407_power2amp/equal_lnn_AM2.4Hz_51.m4a,,,
,,,,,,,,,,,,40948,2021-05-02_20h39.28.419,judgeSpeechMusic_20210407_logNormShiftAmp,2020.1.2,Win32,60,,,,,,,,,,,,,,2,9.21784,,0,1,134,284,137,1,stimuli/stim_20210407_power2amp/equal_lnn_AM6Hz_29.m4a,,,
,,,,,,,,,,,,40948,2021-05-02_20h39.28.419,judgeSpeechMusic_20210407_logNormShiftAmp,2020.1.2,Win32,60,,,,,,,,,,,,,,2,13.888605,,0,1,135,285,130,1,stimuli/stim_20210407_power2amp/equal_lnn_AM5.4Hz_84.m4a,,,
,,,,,,,,,,,,40948,2021-05-02_20h39.28.419,judgeSpeechMusic_20210407_logNormShiftAmp,2020.1.2,Win32,60,,,,,,,,,,,,,,2,6.960945,,0,1,136,286,76,1,stimuli/stim_20210407_power2amp/equal_lnn_AM3.6Hz_61.m4a,,,
,,,,,,,,,,,,40948,2021-05-02_20h39.28.419,judgeSpeechMusic_20210407_logNormShiftAmp,2020.1.2,Win32,60,,,,,,,,,,,,,,2,9.67948,,0,1,137,287,95,1,stimuli/stim_20210407_power2amp/equal_lnn_AM4.2Hz_10.m4a,,,
,,,,,,,,,,,,40948,2021-05-02_20h39.28.419,judgeSpeechMusic_20210407_logNormShiftAmp,2020.1.2,Win32,60,,,,,,,,,,,,,,1,8.1849,,0,1,138,288,4,1,stimuli/stim_20210407_power2amp/equal_lnn_AM0.6Hz_90.m4a,,,
,,,,,,,,,,,,40948,2021-05-02_20h39.28.419,judgeSpeechMusic_20210407_logNormShiftAmp,2020.1.2,Win32,60,,,,,,,,,,,,,,1,6.743165,,0,1,139,289,121,1,stimuli/stim_20210407_power2amp/equal_lnn_AM5.4Hz_5.m4a,,,
,,,,,,,,,,,,40948,2021-05-02_20h39.28.419,judgeSpeechMusic_20210407_logNormShiftAmp,2020.1.2,Win32,60,,,,,,,,,,,,,,2,6.909735,,0,1,140,290,119,1,stimuli/stim_20210407_power2amp/equal_lnn_AM4.8Hz_83.m4a,,,
,,,,,,,,,,,,40948,2021-05-02_20h39.28.419,judgeSpeechMusic_20210407_logNormShiftAmp,2020.1.2,Win32,60,,,,,,,,,,,,,,1,7.65405,1,1,1,141,291,131,1,stimuli/stim_20210407_power2amp/equal_lnn_AM5.4Hz_4.m4a,0.902295,,
,,,,,,,,,,,,40948,2021-05-02_20h39.28.419,judgeSpeechMusic_20210407_logNormShiftAmp,2020.1.2,Win32,60,,,,,,,,,,,,,,2,9.181585,,0,1,142,292,114,1,stimuli/stim_20210407_power2amp/equal_lnn_AM4.8Hz_62.m4a,,,
,,,,,,,,,,,,40948,2021-05-02_20h39.28.419,judgeSpeechMusic_20210407_logNormShiftAmp,2020.1.2,Win32,60,,,,,,,,,,,,,,2,11.509255,,0,1,143,293,134,1,stimuli/stim_20210407_power2amp/equal_lnn_AM5.4Hz_57.m4a,,,
,,,,,,,,,,,,40948,2021-05-02_20h39.28.419,judgeSpeechMusic_20210407_logNormShiftAmp,2020.1.2,Win32,60,,,,,,,,,,,,,,2,5.592935,,0,1,144,294,127,1,stimuli/stim_20210407_power2amp/equal_lnn_AM5.4Hz_25.m4a,,,
,,,,,,,,,,,,40948,2021-05-02_20h39.28.419,judgeSpeechMusic_20210407_logNormShiftAmp,2020.1.2,Win32,60,,,,,,,,,,,,,,2,8.51716,,0,1,145,295,115,1,stimuli/stim_20210407_power2amp/equal_lnn_AM4.8Hz_56.m4a,,,
,,,,,,,,,,,,40948,2021-05-02_20h39.28.419,judgeSpeechMusic_20210407_logNormShiftAmp,2020.1.2,Win32,60,,,,,,,,,,,,,,2,6.50349,,0,1,146,296,135,1,stimuli/stim_20210407_power2amp/equal_lnn_AM6Hz_41.m4a,,,
,,,,,,,,,,,,40948,2021-05-02_20h39.28.419,judgeSpeechMusic_20210407_logNormShiftAmp,2020.1.2,Win32,60,,,,,,,,,,,,,,1,5.651525,,0,1,147,297,24,1,stimuli/stim_20210407_power2amp/equal_lnn_AM1.2Hz_60.m4a,,,
,,,,,,,,,,,,40948,2021-05-02_20h39.28.419,judgeSpeechMusic_20210407_logNormShiftAmp,2020.1.2,Win32,60,,,,,,,,,,,,,,1,6.209715,,0,1,148,298,2,1,stimuli/stim_20210407_power2amp/equal_lnn_AM0.6Hz_27.m4a,,,
,,,,,,,,,,,,40948,2021-05-02_20h39.28.419,judgeSpeechMusic_20210407_logNormShiftAmp,2020.1.2,Win32,60,,,,,,,,,,,,,,1,5.59618,,0,1,149,299,37,1,stimuli/stim_20210407_power2amp/equal_lnn_AM1.8Hz_50.m4a,,,
,,,,,,,,,,,,40948,2021-05-02_20h39.28.419,judgeSpeechMusic_20210407_logNormShiftAmp,2020.1.2,Win32,60,,,,,,,,,,,,,,,,,,,,,,,,,space,3.9691
