headphoneResponse.keys,headphoneResponse.corr,headphoneResponse.rt,headphoneTrial.thisRepN,headphoneTrial.thisTrialN,headphoneTrial.thisN,headphoneTrial.thisIndex,headphoneTrial.ran,headphone_sound1,headphone_sound2,headphone_sound3,corrAns,participant,date,expName,psychopyVersion,OS,frameRate,trainSlider.response,trainSlider.rt,beepTrainResponse.keys,beepTrainResponse.corr,trainingTrials.thisRepN,trainingTrials.thisTrialN,trainingTrials.thisN,trainingTrials.thisIndex,trainingTrials.ran,trainAudioFile,beepTrainResponse.rt,readyReal_resp.keys,readyReal_resp.rt,ratingSlider.response,ratingSlider.rt,beepResp.keys,beepResp.corr,expTrials.thisRepN,expTrials.thisTrialN,expTrials.thisN,expTrials.thisIndex,expTrials.ran,audioFile,beepResp.rt,end_resp.keys,end_resp.rt
1,1,1.93826,0,0,0,4,1,stimuli/screen_quiet.wav,stimuli/screen_antiphase.wav,stimuli/screen_origin.wav,1,40943,2021-05-03_21h16.35.251,judgeSpeechMusic_20210407_logNormShiftAmp,2020.1.2,Win32,60,,,,,,,,,,,,,,,,,,,,,,,,,,
3,1,0.319855,0,1,1,0,1,stimuli/screen_antiphase.wav,stimuli/screen_origin.wav,stimuli/screen_quiet.wav,3,40943,2021-05-03_21h16.35.251,judgeSpeechMusic_20210407_logNormShiftAmp,2020.1.2,Win32,60,,,,,,,,,,,,,,,,,,,,,,,,,,
2,1,0.472985,0,2,2,1,1,stimuli/screen_antiphase.wav,stimuli/screen_quiet.wav,stimuli/screen_origin.wav,2,40943,2021-05-03_21h16.35.251,judgeSpeechMusic_20210407_logNormShiftAmp,2020.1.2,Win32,60,,,,,,,,,,,,,,,,,,,,,,,,,,
1,1,0.400205,0,3,3,5,1,stimuli/screen_quiet.wav,stimuli/screen_origin.wav,stimuli/screen_antiphase.wav,1,40943,2021-05-03_21h16.35.251,judgeSpeechMusic_20210407_logNormShiftAmp,2020.1.2,Win32,60,,,,,,,,,,,,,,,,,,,,,,,,,,
3,1,0.317095,0,4,4,2,1,stimuli/screen_origin.wav,stimuli/screen_antiphase.wav,stimuli/screen_quiet.wav,3,40943,2021-05-03_21h16.35.251,judgeSpeechMusic_20210407_logNormShiftAmp,2020.1.2,Win32,60,,,,,,,,,,,,,,,,,,,,,,,,,,
2,1,0.60126,0,5,5,3,1,stimuli/screen_origin.wav,stimuli/screen_quiet.wav,stimuli/screen_antiphase.wav,2,40943,2021-05-03_21h16.35.251,judgeSpeechMusic_20210407_logNormShiftAmp,2020.1.2,Win32,60,,,,,,,,,,,,,,,,,,,,,,,,,,
,,,,,,,,,,,,40943,2021-05-03_21h16.35.251,judgeSpeechMusic_20210407_logNormShiftAmp,2020.1.2,Win32,60,2,9.714105,,0,0,0,0,1,1,stimuli/stim_20210407_power2amp/equal_lnn_AM_training2.7Hz.m4a,,,,,,,,,,,,,,,,
,,,,,,,,,,,,40943,2021-05-03_21h16.35.251,judgeSpeechMusic_20210407_logNormShiftAmp,2020.1.2,Win32,60,1,6.2493,,0,0,1,1,3,1,stimuli/stim_20210407_power2amp/equal_lnn_AM_training5.1Hz.m4a,,,,,,,,,,,,,,,,
,,,,,,,,,,,,40943,2021-05-03_21h16.35.251,judgeSpeechMusic_20210407_logNormShiftAmp,2020.1.2,Win32,60,1,8.03507,1,1,0,2,2,0,1,stimuli/stim_20210407_power2amp/equal_lnn_AM_training1.5Hz.m4a,2.020115,,,,,,,,,,,,,,,
,,,,,,,,,,,,40943,2021-05-03_21h16.35.251,judgeSpeechMusic_20210407_logNormShiftAmp,2020.1.2,Win32,60,1,5.953285,,0,0,3,3,2,1,stimuli/stim_20210407_power2amp/equal_lnn_AM_training3.9Hz.m4a,,,,,,,,,,,,,,,,
,,,,,,,,,,,,40943,2021-05-03_21h16.35.251,judgeSpeechMusic_20210407_logNormShiftAmp,2020.1.2,Win32,60,,,,,,,,,,,,space,4.63317,1,5.86535,,0,0,0,0,136,1,stimuli/stim_20210407_power2amp/equal_lnn_AM6Hz_34.m4a,,,
,,,,,,,,,,,,40943,2021-05-03_21h16.35.251,judgeSpeechMusic_20210407_logNormShiftAmp,2020.1.2,Win32,60,,,,,,,,,,,,,,1,5.97111,,0,0,1,1,105,1,stimuli/stim_20210407_power2amp/equal_lnn_AM4.8Hz_72.m4a,,,
,,,,,,,,,,,,40943,2021-05-03_21h16.35.251,judgeSpeechMusic_20210407_logNormShiftAmp,2020.1.2,Win32,60,,,,,,,,,,,,,,1,10.683725,,0,0,2,2,8,1,stimuli/stim_20210407_power2amp/equal_lnn_AM0.6Hz_4.m4a,,,
,,,,,,,,,,,,40943,2021-05-03_21h16.35.251,judgeSpeechMusic_20210407_logNormShiftAmp,2020.1.2,Win32,60,,,,,,,,,,,,,,1,5.97452,,0,0,3,3,124,1,stimuli/stim_20210407_power2amp/equal_lnn_AM5.4Hz_70.m4a,,,
,,,,,,,,,,,,40943,2021-05-03_21h16.35.251,judgeSpeechMusic_20210407_logNormShiftAmp,2020.1.2,Win32,60,,,,,,,,,,,,,,1,6.35761,,0,0,4,4,84,1,stimuli/stim_20210407_power2amp/equal_lnn_AM3.6Hz_82.m4a,,,
,,,,,,,,,,,,40943,2021-05-03_21h16.35.251,judgeSpeechMusic_20210407_logNormShiftAmp,2020.1.2,Win32,60,,,,,,,,,,,,,,1,6.08425,,0,0,5,5,32,1,stimuli/stim_20210407_power2amp/equal_lnn_AM1.8Hz_97.m4a,,,
,,,,,,,,,,,,40943,2021-05-03_21h16.35.251,judgeSpeechMusic_20210407_logNormShiftAmp,2020.1.2,Win32,60,,,,,,,,,,,,,,1,5.868715,,0,0,6,6,108,1,stimuli/stim_20210407_power2amp/equal_lnn_AM4.8Hz_34.m4a,,,
,,,,,,,,,,,,40943,2021-05-03_21h16.35.251,judgeSpeechMusic_20210407_logNormShiftAmp,2020.1.2,Win32,60,,,,,,,,,,,,,,2,6.068225,,0,0,7,7,20,1,stimuli/stim_20210407_power2amp/equal_lnn_AM1.2Hz_39.m4a,,,
,,,,,,,,,,,,40943,2021-05-03_21h16.35.251,judgeSpeechMusic_20210407_logNormShiftAmp,2020.1.2,Win32,60,,,,,,,,,,,,,,1,5.786675,,0,0,8,8,65,1,stimuli/stim_20210407_power2amp/equal_lnn_AM3Hz_64.m4a,,,
,,,,,,,,,,,,40943,2021-05-03_21h16.35.251,judgeSpeechMusic_20210407_logNormShiftAmp,2020.1.2,Win32,60,,,,,,,,,,,,,,2,5.81766,,0,0,9,9,81,1,stimuli/stim_20210407_power2amp/equal_lnn_AM3.6Hz_62.m4a,,,
,,,,,,,,,,,,40943,2021-05-03_21h16.35.251,judgeSpeechMusic_20210407_logNormShiftAmp,2020.1.2,Win32,60,,,,,,,,,,,,,,2,5.69992,,0,0,10,10,86,1,stimuli/stim_20210407_power2amp/equal_lnn_AM3.6Hz_50.m4a,,,
,,,,,,,,,,,,40943,2021-05-03_21h16.35.251,judgeSpeechMusic_20210407_logNormShiftAmp,2020.1.2,Win32,60,,,,,,,,,,,,,,1,5.66023,,0,0,11,11,6,1,stimuli/stim_20210407_power2amp/equal_lnn_AM0.6Hz_44.m4a,,,
,,,,,,,,,,,,40943,2021-05-03_21h16.35.251,judgeSpeechMusic_20210407_logNormShiftAmp,2020.1.2,Win32,60,,,,,,,,,,,,,,1,6.187475,,0,0,12,12,130,1,stimuli/stim_20210407_power2amp/equal_lnn_AM5.4Hz_47.m4a,,,
,,,,,,,,,,,,40943,2021-05-03_21h16.35.251,judgeSpeechMusic_20210407_logNormShiftAmp,2020.1.2,Win32,60,,,,,,,,,,,,,,2,5.72152,,0,0,13,13,63,1,stimuli/stim_20210407_power2amp/equal_lnn_AM3Hz_10.m4a,,,
,,,,,,,,,,,,40943,2021-05-03_21h16.35.251,judgeSpeechMusic_20210407_logNormShiftAmp,2020.1.2,Win32,60,,,,,,,,,,,,,,2,6.35164,,0,0,14,14,117,1,stimuli/stim_20210407_power2amp/equal_lnn_AM4.8Hz_4.m4a,,,
,,,,,,,,,,,,40943,2021-05-03_21h16.35.251,judgeSpeechMusic_20210407_logNormShiftAmp,2020.1.2,Win32,60,,,,,,,,,,,,,,2,6.020255,,0,0,15,15,50,1,stimuli/stim_20210407_power2amp/equal_lnn_AM2.4Hz_52.m4a,,,
,,,,,,,,,,,,40943,2021-05-03_21h16.35.251,judgeSpeechMusic_20210407_logNormShiftAmp,2020.1.2,Win32,60,,,,,,,,,,,,,,2,6.0378,,0,0,16,16,113,1,stimuli/stim_20210407_power2amp/equal_lnn_AM4.8Hz_77.m4a,,,
,,,,,,,,,,,,40943,2021-05-03_21h16.35.251,judgeSpeechMusic_20210407_logNormShiftAmp,2020.1.2,Win32,60,,,,,,,,,,,,,,2,6.36796,,0,0,17,17,74,1,stimuli/stim_20210407_power2amp/equal_lnn_AM3Hz_92.m4a,,,
,,,,,,,,,,,,40943,2021-05-03_21h16.35.251,judgeSpeechMusic_20210407_logNormShiftAmp,2020.1.2,Win32,60,,,,,,,,,,,,,,2,5.775315,,0,0,18,18,116,1,stimuli/stim_20210407_power2amp/equal_lnn_AM4.8Hz_75.m4a,,,
,,,,,,,,,,,,40943,2021-05-03_21h16.35.251,judgeSpeechMusic_20210407_logNormShiftAmp,2020.1.2,Win32,60,,,,,,,,,,,,,,2,6.2901,,0,0,19,19,109,1,stimuli/stim_20210407_power2amp/equal_lnn_AM4.8Hz_85.m4a,,,
,,,,,,,,,,,,40943,2021-05-03_21h16.35.251,judgeSpeechMusic_20210407_logNormShiftAmp,2020.1.2,Win32,60,,,,,,,,,,,,,,2,5.90758,,0,0,20,20,96,1,stimuli/stim_20210407_power2amp/equal_lnn_AM4.2Hz_77.m4a,,,
,,,,,,,,,,,,40943,2021-05-03_21h16.35.251,judgeSpeechMusic_20210407_logNormShiftAmp,2020.1.2,Win32,60,,,,,,,,,,,,,,2,6.60122,,0,0,21,21,53,1,stimuli/stim_20210407_power2amp/equal_lnn_AM2.4Hz_77.m4a,,,
,,,,,,,,,,,,40943,2021-05-03_21h16.35.251,judgeSpeechMusic_20210407_logNormShiftAmp,2020.1.2,Win32,60,,,,,,,,,,,,,,2,6.33096,,0,0,22,22,46,1,stimuli/stim_20210407_power2amp/equal_lnn_AM2.4Hz_14.m4a,,,
,,,,,,,,,,,,40943,2021-05-03_21h16.35.251,judgeSpeechMusic_20210407_logNormShiftAmp,2020.1.2,Win32,60,,,,,,,,,,,,,,2,6.38932,,0,0,23,23,88,1,stimuli/stim_20210407_power2amp/equal_lnn_AM3.6Hz_39.m4a,,,
,,,,,,,,,,,,40943,2021-05-03_21h16.35.251,judgeSpeechMusic_20210407_logNormShiftAmp,2020.1.2,Win32,60,,,,,,,,,,,,,,2,5.97152,,0,0,24,24,52,1,stimuli/stim_20210407_power2amp/equal_lnn_AM2.4Hz_62.m4a,,,
,,,,,,,,,,,,40943,2021-05-03_21h16.35.251,judgeSpeechMusic_20210407_logNormShiftAmp,2020.1.2,Win32,60,,,,,,,,,,,,,,2,6.097795,,0,0,25,25,129,1,stimuli/stim_20210407_power2amp/equal_lnn_AM5.4Hz_18.m4a,,,
,,,,,,,,,,,,40943,2021-05-03_21h16.35.251,judgeSpeechMusic_20210407_logNormShiftAmp,2020.1.2,Win32,60,,,,,,,,,,,,,,1,5.655425,,0,0,26,26,17,1,stimuli/stim_20210407_power2amp/equal_lnn_AM1.2Hz_53.m4a,,,
,,,,,,,,,,,,40943,2021-05-03_21h16.35.251,judgeSpeechMusic_20210407_logNormShiftAmp,2020.1.2,Win32,60,,,,,,,,,,,,,,1,6.23933,,0,0,27,27,125,1,stimuli/stim_20210407_power2amp/equal_lnn_AM5.4Hz_11.m4a,,,
,,,,,,,,,,,,40943,2021-05-03_21h16.35.251,judgeSpeechMusic_20210407_logNormShiftAmp,2020.1.2,Win32,60,,,,,,,,,,,,,,2,6.479955,,0,0,28,28,143,1,stimuli/stim_20210407_power2amp/equal_lnn_AM6Hz_65.m4a,,,
,,,,,,,,,,,,40943,2021-05-03_21h16.35.251,judgeSpeechMusic_20210407_logNormShiftAmp,2020.1.2,Win32,60,,,,,,,,,,,,,,2,5.8073,,0,0,29,29,38,1,stimuli/stim_20210407_power2amp/equal_lnn_AM1.8Hz_1.m4a,,,
,,,,,,,,,,,,40943,2021-05-03_21h16.35.251,judgeSpeechMusic_20210407_logNormShiftAmp,2020.1.2,Win32,60,,,,,,,,,,,,,,2,9.35111,,0,0,30,30,128,1,stimuli/stim_20210407_power2amp/equal_lnn_AM5.4Hz_20.m4a,,,
,,,,,,,,,,,,40943,2021-05-03_21h16.35.251,judgeSpeechMusic_20210407_logNormShiftAmp,2020.1.2,Win32,60,,,,,,,,,,,,,,2,7.32019,3,1,0,31,31,62,1,stimuli/stim_20210407_power2amp/equal_lnn_AM3Hz_3.m4a,3.06028,,
,,,,,,,,,,,,40943,2021-05-03_21h16.35.251,judgeSpeechMusic_20210407_logNormShiftAmp,2020.1.2,Win32,60,,,,,,,,,,,,,,2,5.78439,,0,0,32,32,146,1,stimuli/stim_20210407_power2amp/equal_lnn_AM6Hz_83.m4a,,,
,,,,,,,,,,,,40943,2021-05-03_21h16.35.251,judgeSpeechMusic_20210407_logNormShiftAmp,2020.1.2,Win32,60,,,,,,,,,,,,,,2,6.22951,,0,0,33,33,102,1,stimuli/stim_20210407_power2amp/equal_lnn_AM4.2Hz_53.m4a,,,
,,,,,,,,,,,,40943,2021-05-03_21h16.35.251,judgeSpeechMusic_20210407_logNormShiftAmp,2020.1.2,Win32,60,,,,,,,,,,,,,,2,7.49672,,0,0,34,34,35,1,stimuli/stim_20210407_power2amp/equal_lnn_AM1.8Hz_59.m4a,,,
,,,,,,,,,,,,40943,2021-05-03_21h16.35.251,judgeSpeechMusic_20210407_logNormShiftAmp,2020.1.2,Win32,60,,,,,,,,,,,,,,2,5.801305,,0,0,35,35,67,1,stimuli/stim_20210407_power2amp/equal_lnn_AM3Hz_88.m4a,,,
,,,,,,,,,,,,40943,2021-05-03_21h16.35.251,judgeSpeechMusic_20210407_logNormShiftAmp,2020.1.2,Win32,60,,,,,,,,,,,,,,2,5.653995,,0,0,36,36,120,1,stimuli/stim_20210407_power2amp/equal_lnn_AM5.4Hz_73.m4a,,,
,,,,,,,,,,,,40943,2021-05-03_21h16.35.251,judgeSpeechMusic_20210407_logNormShiftAmp,2020.1.2,Win32,60,,,,,,,,,,,,,,2,5.954265,,0,0,37,37,121,1,stimuli/stim_20210407_power2amp/equal_lnn_AM5.4Hz_8.m4a,,,
,,,,,,,,,,,,40943,2021-05-03_21h16.35.251,judgeSpeechMusic_20210407_logNormShiftAmp,2020.1.2,Win32,60,,,,,,,,,,,,,,1,5.844115,,0,0,38,38,43,1,stimuli/stim_20210407_power2amp/equal_lnn_AM1.8Hz_84.m4a,,,
,,,,,,,,,,,,40943,2021-05-03_21h16.35.251,judgeSpeechMusic_20210407_logNormShiftAmp,2020.1.2,Win32,60,,,,,,,,,,,,,,1,6.094795,,0,0,39,39,4,1,stimuli/stim_20210407_power2amp/equal_lnn_AM0.6Hz_65.m4a,,,
,,,,,,,,,,,,40943,2021-05-03_21h16.35.251,judgeSpeechMusic_20210407_logNormShiftAmp,2020.1.2,Win32,60,,,,,,,,,,,,,,2,6.63064,,0,0,40,40,23,1,stimuli/stim_20210407_power2amp/equal_lnn_AM1.2Hz_14.m4a,,,
,,,,,,,,,,,,40943,2021-05-03_21h16.35.251,judgeSpeechMusic_20210407_logNormShiftAmp,2020.1.2,Win32,60,,,,,,,,,,,,,,1,5.626095,,0,0,41,41,12,1,stimuli/stim_20210407_power2amp/equal_lnn_AM0.6Hz_12.m4a,,,
,,,,,,,,,,,,40943,2021-05-03_21h16.35.251,judgeSpeechMusic_20210407_logNormShiftAmp,2020.1.2,Win32,60,,,,,,,,,,,,,,1,5.762255,,0,0,42,42,58,1,stimuli/stim_20210407_power2amp/equal_lnn_AM2.4Hz_78.m4a,,,
,,,,,,,,,,,,40943,2021-05-03_21h16.35.251,judgeSpeechMusic_20210407_logNormShiftAmp,2020.1.2,Win32,60,,,,,,,,,,,,,,1,5.98507,,0,0,43,43,0,1,stimuli/stim_20210407_power2amp/equal_lnn_AM0.6Hz_28.m4a,,,
,,,,,,,,,,,,40943,2021-05-03_21h16.35.251,judgeSpeechMusic_20210407_logNormShiftAmp,2020.1.2,Win32,60,,,,,,,,,,,,,,2,6.826325,,0,0,44,44,112,1,stimuli/stim_20210407_power2amp/equal_lnn_AM4.8Hz_9.m4a,,,
,,,,,,,,,,,,40943,2021-05-03_21h16.35.251,judgeSpeechMusic_20210407_logNormShiftAmp,2020.1.2,Win32,60,,,,,,,,,,,,,,2,6.15232,,0,0,45,45,85,1,stimuli/stim_20210407_power2amp/equal_lnn_AM3.6Hz_9.m4a,,,
,,,,,,,,,,,,40943,2021-05-03_21h16.35.251,judgeSpeechMusic_20210407_logNormShiftAmp,2020.1.2,Win32,60,,,,,,,,,,,,,,1,6.421595,,0,0,46,46,147,1,stimuli/stim_20210407_power2amp/equal_lnn_AM6Hz_95.m4a,,,
,,,,,,,,,,,,40943,2021-05-03_21h16.35.251,judgeSpeechMusic_20210407_logNormShiftAmp,2020.1.2,Win32,60,,,,,,,,,,,,,,1,6.1387,,0,0,47,47,28,1,stimuli/stim_20210407_power2amp/equal_lnn_AM1.2Hz_25.m4a,,,
,,,,,,,,,,,,40943,2021-05-03_21h16.35.251,judgeSpeechMusic_20210407_logNormShiftAmp,2020.1.2,Win32,60,,,,,,,,,,,,,,2,8.342545,,0,0,48,48,72,1,stimuli/stim_20210407_power2amp/equal_lnn_AM3Hz_47.m4a,,,
,,,,,,,,,,,,40943,2021-05-03_21h16.35.251,judgeSpeechMusic_20210407_logNormShiftAmp,2020.1.2,Win32,60,,,,,,,,,,,,,,2,5.63504,,0,0,49,49,10,1,stimuli/stim_20210407_power2amp/equal_lnn_AM0.6Hz_48.m4a,,,
,,,,,,,,,,,,40943,2021-05-03_21h16.35.251,judgeSpeechMusic_20210407_logNormShiftAmp,2020.1.2,Win32,60,,,,,,,,,,,,,,2,5.751575,,0,0,50,50,16,1,stimuli/stim_20210407_power2amp/equal_lnn_AM1.2Hz_13.m4a,,,
,,,,,,,,,,,,40943,2021-05-03_21h16.35.251,judgeSpeechMusic_20210407_logNormShiftAmp,2020.1.2,Win32,60,,,,,,,,,,,,,,2,5.970445,,0,0,51,51,14,1,stimuli/stim_20210407_power2amp/equal_lnn_AM0.6Hz_87.m4a,,,
,,,,,,,,,,,,40943,2021-05-03_21h16.35.251,judgeSpeechMusic_20210407_logNormShiftAmp,2020.1.2,Win32,60,,,,,,,,,,,,,,2,5.655385,2,1,0,52,52,91,1,stimuli/stim_20210407_power2amp/equal_lnn_AM4.2Hz_41.m4a,1.065185,,
,,,,,,,,,,,,40943,2021-05-03_21h16.35.251,judgeSpeechMusic_20210407_logNormShiftAmp,2020.1.2,Win32,60,,,,,,,,,,,,,,2,6.016515,,0,0,53,53,37,1,stimuli/stim_20210407_power2amp/equal_lnn_AM1.8Hz_47.m4a,,,
,,,,,,,,,,,,40943,2021-05-03_21h16.35.251,judgeSpeechMusic_20210407_logNormShiftAmp,2020.1.2,Win32,60,,,,,,,,,,,,,,2,6.43925,,0,0,54,54,59,1,stimuli/stim_20210407_power2amp/equal_lnn_AM2.4Hz_70.m4a,,,
,,,,,,,,,,,,40943,2021-05-03_21h16.35.251,judgeSpeechMusic_20210407_logNormShiftAmp,2020.1.2,Win32,60,,,,,,,,,,,,,,2,5.79207,,0,0,55,55,98,1,stimuli/stim_20210407_power2amp/equal_lnn_AM4.2Hz_11.m4a,,,
,,,,,,,,,,,,40943,2021-05-03_21h16.35.251,judgeSpeechMusic_20210407_logNormShiftAmp,2020.1.2,Win32,60,,,,,,,,,,,,,,2,7.301855,,0,0,56,56,21,1,stimuli/stim_20210407_power2amp/equal_lnn_AM1.2Hz_18.m4a,,,
,,,,,,,,,,,,40943,2021-05-03_21h16.35.251,judgeSpeechMusic_20210407_logNormShiftAmp,2020.1.2,Win32,60,,,,,,,,,,,,,,1,5.735975,,0,0,57,57,34,1,stimuli/stim_20210407_power2amp/equal_lnn_AM1.8Hz_99.m4a,,,
,,,,,,,,,,,,40943,2021-05-03_21h16.35.251,judgeSpeechMusic_20210407_logNormShiftAmp,2020.1.2,Win32,60,,,,,,,,,,,,,,1,5.74244,,0,0,58,58,82,1,stimuli/stim_20210407_power2amp/equal_lnn_AM3.6Hz_19.m4a,,,
,,,,,,,,,,,,40943,2021-05-03_21h16.35.251,judgeSpeechMusic_20210407_logNormShiftAmp,2020.1.2,Win32,60,,,,,,,,,,,,,,1,6.361805,,0,0,59,59,75,1,stimuli/stim_20210407_power2amp/equal_lnn_AM3.6Hz_84.m4a,,,
,,,,,,,,,,,,40943,2021-05-03_21h16.35.251,judgeSpeechMusic_20210407_logNormShiftAmp,2020.1.2,Win32,60,,,,,,,,,,,,,,2,6.00724,,0,0,60,60,48,1,stimuli/stim_20210407_power2amp/equal_lnn_AM2.4Hz_49.m4a,,,
,,,,,,,,,,,,40943,2021-05-03_21h16.35.251,judgeSpeechMusic_20210407_logNormShiftAmp,2020.1.2,Win32,60,,,,,,,,,,,,,,2,6.05527,,0,0,61,61,47,1,stimuli/stim_20210407_power2amp/equal_lnn_AM2.4Hz_31.m4a,,,
,,,,,,,,,,,,40943,2021-05-03_21h16.35.251,judgeSpeechMusic_20210407_logNormShiftAmp,2020.1.2,Win32,60,,,,,,,,,,,,,,2,5.871485,,0,0,62,62,100,1,stimuli/stim_20210407_power2amp/equal_lnn_AM4.2Hz_78.m4a,,,
,,,,,,,,,,,,40943,2021-05-03_21h16.35.251,judgeSpeechMusic_20210407_logNormShiftAmp,2020.1.2,Win32,60,,,,,,,,,,,,,,1,5.620255,,0,0,63,63,26,1,stimuli/stim_20210407_power2amp/equal_lnn_AM1.2Hz_10.m4a,,,
,,,,,,,,,,,,40943,2021-05-03_21h16.35.251,judgeSpeechMusic_20210407_logNormShiftAmp,2020.1.2,Win32,60,,,,,,,,,,,,,,2,5.786225,,0,0,64,64,115,1,stimuli/stim_20210407_power2amp/equal_lnn_AM4.8Hz_40.m4a,,,
,,,,,,,,,,,,40943,2021-05-03_21h16.35.251,judgeSpeechMusic_20210407_logNormShiftAmp,2020.1.2,Win32,60,,,,,,,,,,,,,,1,5.73453,,0,0,65,65,54,1,stimuli/stim_20210407_power2amp/equal_lnn_AM2.4Hz_74.m4a,,,
,,,,,,,,,,,,40943,2021-05-03_21h16.35.251,judgeSpeechMusic_20210407_logNormShiftAmp,2020.1.2,Win32,60,,,,,,,,,,,,,,2,5.91736,,0,0,66,66,118,1,stimuli/stim_20210407_power2amp/equal_lnn_AM4.8Hz_91.m4a,,,
,,,,,,,,,,,,40943,2021-05-03_21h16.35.251,judgeSpeechMusic_20210407_logNormShiftAmp,2020.1.2,Win32,60,,,,,,,,,,,,,,1,7.7277,,0,0,67,67,3,1,stimuli/stim_20210407_power2amp/equal_lnn_AM0.6Hz_23.m4a,,,
,,,,,,,,,,,,40943,2021-05-03_21h16.35.251,judgeSpeechMusic_20210407_logNormShiftAmp,2020.1.2,Win32,60,,,,,,,,,,,,,,2,6.20315,,0,0,68,68,123,1,stimuli/stim_20210407_power2amp/equal_lnn_AM5.4Hz_38.m4a,,,
,,,,,,,,,,,,40943,2021-05-03_21h16.35.251,judgeSpeechMusic_20210407_logNormShiftAmp,2020.1.2,Win32,60,,,,,,,,,,,,,,2,6.1833,,0,0,69,69,140,1,stimuli/stim_20210407_power2amp/equal_lnn_AM6Hz_41.m4a,,,
,,,,,,,,,,,,40943,2021-05-03_21h16.35.251,judgeSpeechMusic_20210407_logNormShiftAmp,2020.1.2,Win32,60,,,,,,,,,,,,,,1,5.79432,,0,0,70,70,13,1,stimuli/stim_20210407_power2amp/equal_lnn_AM0.6Hz_37.m4a,,,
,,,,,,,,,,,,40943,2021-05-03_21h16.35.251,judgeSpeechMusic_20210407_logNormShiftAmp,2020.1.2,Win32,60,,,,,,,,,,,,,,2,5.7461,,0,0,71,71,131,1,stimuli/stim_20210407_power2amp/equal_lnn_AM5.4Hz_51.m4a,,,
,,,,,,,,,,,,40943,2021-05-03_21h16.35.251,judgeSpeechMusic_20210407_logNormShiftAmp,2020.1.2,Win32,60,,,,,,,,,,,,,,1,5.81213,,0,0,72,72,19,1,stimuli/stim_20210407_power2amp/equal_lnn_AM1.2Hz_86.m4a,,,
,,,,,,,,,,,,40943,2021-05-03_21h16.35.251,judgeSpeechMusic_20210407_logNormShiftAmp,2020.1.2,Win32,60,,,,,,,,,,,,,,1,5.960485,,0,0,73,73,5,1,stimuli/stim_20210407_power2amp/equal_lnn_AM0.6Hz_50.m4a,,,
,,,,,,,,,,,,40943,2021-05-03_21h16.35.251,judgeSpeechMusic_20210407_logNormShiftAmp,2020.1.2,Win32,60,,,,,,,,,,,,,,2,5.571545,,0,0,74,74,138,1,stimuli/stim_20210407_power2amp/equal_lnn_AM6Hz_13.m4a,,,
,,,,,,,,,,,,40943,2021-05-03_21h16.35.251,judgeSpeechMusic_20210407_logNormShiftAmp,2020.1.2,Win32,60,,,,,,,,,,,,,,2,6.141735,,0,0,75,75,90,1,stimuli/stim_20210407_power2amp/equal_lnn_AM4.2Hz_61.m4a,,,
,,,,,,,,,,,,40943,2021-05-03_21h16.35.251,judgeSpeechMusic_20210407_logNormShiftAmp,2020.1.2,Win32,60,,,,,,,,,,,,,,2,5.8412,3,1,0,76,76,44,1,stimuli/stim_20210407_power2amp/equal_lnn_AM1.8Hz_57.m4a,1.572795,,
,,,,,,,,,,,,40943,2021-05-03_21h16.35.251,judgeSpeechMusic_20210407_logNormShiftAmp,2020.1.2,Win32,60,,,,,,,,,,,,,,2,6.00739,,0,0,77,77,135,1,stimuli/stim_20210407_power2amp/equal_lnn_AM6Hz_86.m4a,,,
,,,,,,,,,,,,40943,2021-05-03_21h16.35.251,judgeSpeechMusic_20210407_logNormShiftAmp,2020.1.2,Win32,60,,,,,,,,,,,,,,1,6.243305,,0,0,78,78,18,1,stimuli/stim_20210407_power2amp/equal_lnn_AM1.2Hz_37.m4a,,,
,,,,,,,,,,,,40943,2021-05-03_21h16.35.251,judgeSpeechMusic_20210407_logNormShiftAmp,2020.1.2,Win32,60,,,,,,,,,,,,,,1,6.536455,,0,0,79,79,64,1,stimuli/stim_20210407_power2amp/equal_lnn_AM3Hz_58.m4a,,,
,,,,,,,,,,,,40943,2021-05-03_21h16.35.251,judgeSpeechMusic_20210407_logNormShiftAmp,2020.1.2,Win32,60,,,,,,,,,,,,,,2,5.746795,,0,0,80,80,76,1,stimuli/stim_20210407_power2amp/equal_lnn_AM3.6Hz_23.m4a,,,
,,,,,,,,,,,,40943,2021-05-03_21h16.35.251,judgeSpeechMusic_20210407_logNormShiftAmp,2020.1.2,Win32,60,,,,,,,,,,,,,,2,5.364595,,0,0,81,81,132,1,stimuli/stim_20210407_power2amp/equal_lnn_AM5.4Hz_87.m4a,,,
,,,,,,,,,,,,40943,2021-05-03_21h16.35.251,judgeSpeechMusic_20210407_logNormShiftAmp,2020.1.2,Win32,60,,,,,,,,,,,,,,1,5.52866,,0,0,82,82,29,1,stimuli/stim_20210407_power2amp/equal_lnn_AM1.2Hz_34.m4a,,,
,,,,,,,,,,,,40943,2021-05-03_21h16.35.251,judgeSpeechMusic_20210407_logNormShiftAmp,2020.1.2,Win32,60,,,,,,,,,,,,,,2,5.889935,,0,0,83,83,145,1,stimuli/stim_20210407_power2amp/equal_lnn_AM6Hz_8.m4a,,,
,,,,,,,,,,,,40943,2021-05-03_21h16.35.251,judgeSpeechMusic_20210407_logNormShiftAmp,2020.1.2,Win32,60,,,,,,,,,,,,,,2,7.301375,,0,0,84,84,92,1,stimuli/stim_20210407_power2amp/equal_lnn_AM4.2Hz_32.m4a,,,
,,,,,,,,,,,,40943,2021-05-03_21h16.35.251,judgeSpeechMusic_20210407_logNormShiftAmp,2020.1.2,Win32,60,,,,,,,,,,,,,,2,6.28499,,0,0,85,85,36,1,stimuli/stim_20210407_power2amp/equal_lnn_AM1.8Hz_98.m4a,,,
,,,,,,,,,,,,40943,2021-05-03_21h16.35.251,judgeSpeechMusic_20210407_logNormShiftAmp,2020.1.2,Win32,60,,,,,,,,,,,,,,2,6.188215,,0,0,86,86,126,1,stimuli/stim_20210407_power2amp/equal_lnn_AM5.4Hz_42.m4a,,,
,,,,,,,,,,,,40943,2021-05-03_21h16.35.251,judgeSpeechMusic_20210407_logNormShiftAmp,2020.1.2,Win32,60,,,,,,,,,,,,,,1,5.753955,,0,0,87,87,77,1,stimuli/stim_20210407_power2amp/equal_lnn_AM3.6Hz_27.m4a,,,
,,,,,,,,,,,,40943,2021-05-03_21h16.35.251,judgeSpeechMusic_20210407_logNormShiftAmp,2020.1.2,Win32,60,,,,,,,,,,,,,,2,6.284685,,0,0,88,88,149,1,stimuli/stim_20210407_power2amp/equal_lnn_AM6Hz_38.m4a,,,
,,,,,,,,,,,,40943,2021-05-03_21h16.35.251,judgeSpeechMusic_20210407_logNormShiftAmp,2020.1.2,Win32,60,,,,,,,,,,,,,,2,6.027545,,0,0,89,89,60,1,stimuli/stim_20210407_power2amp/equal_lnn_AM3Hz_44.m4a,,,
,,,,,,,,,,,,40943,2021-05-03_21h16.35.251,judgeSpeechMusic_20210407_logNormShiftAmp,2020.1.2,Win32,60,,,,,,,,,,,,,,2,5.659695,,0,0,90,90,70,1,stimuli/stim_20210407_power2amp/equal_lnn_AM3Hz_12.m4a,,,
,,,,,,,,,,,,40943,2021-05-03_21h16.35.251,judgeSpeechMusic_20210407_logNormShiftAmp,2020.1.2,Win32,60,,,,,,,,,,,,,,2,6.346075,,0,0,91,91,148,1,stimuli/stim_20210407_power2amp/equal_lnn_AM6Hz_87.m4a,,,
,,,,,,,,,,,,40943,2021-05-03_21h16.35.251,judgeSpeechMusic_20210407_logNormShiftAmp,2020.1.2,Win32,60,,,,,,,,,,,,,,2,7.158845,,0,0,92,92,15,1,stimuli/stim_20210407_power2amp/equal_lnn_AM1.2Hz_33.m4a,,,
,,,,,,,,,,,,40943,2021-05-03_21h16.35.251,judgeSpeechMusic_20210407_logNormShiftAmp,2020.1.2,Win32,60,,,,,,,,,,,,,,2,5.74238,,0,0,93,93,55,1,stimuli/stim_20210407_power2amp/equal_lnn_AM2.4Hz_82.m4a,,,
,,,,,,,,,,,,40943,2021-05-03_21h16.35.251,judgeSpeechMusic_20210407_logNormShiftAmp,2020.1.2,Win32,60,,,,,,,,,,,,,,2,10.813075,,0,0,94,94,42,1,stimuli/stim_20210407_power2amp/equal_lnn_AM1.8Hz_9.m4a,,,
,,,,,,,,,,,,40943,2021-05-03_21h16.35.251,judgeSpeechMusic_20210407_logNormShiftAmp,2020.1.2,Win32,60,,,,,,,,,,,,,,1,6.06206,,0,0,95,95,11,1,stimuli/stim_20210407_power2amp/equal_lnn_AM0.6Hz_11.m4a,,,
,,,,,,,,,,,,40943,2021-05-03_21h16.35.251,judgeSpeechMusic_20210407_logNormShiftAmp,2020.1.2,Win32,60,,,,,,,,,,,,,,2,5.65736,,0,0,96,96,51,1,stimuli/stim_20210407_power2amp/equal_lnn_AM2.4Hz_66.m4a,,,
,,,,,,,,,,,,40943,2021-05-03_21h16.35.251,judgeSpeechMusic_20210407_logNormShiftAmp,2020.1.2,Win32,60,,,,,,,,,,,,,,2,6.267905,3,1,0,97,97,93,1,stimuli/stim_20210407_power2amp/equal_lnn_AM4.2Hz_27.m4a,1.12114,,
,,,,,,,,,,,,40943,2021-05-03_21h16.35.251,judgeSpeechMusic_20210407_logNormShiftAmp,2020.1.2,Win32,60,,,,,,,,,,,,,,2,6.376955,,0,0,98,98,39,1,stimuli/stim_20210407_power2amp/equal_lnn_AM1.8Hz_8.m4a,,,
,,,,,,,,,,,,40943,2021-05-03_21h16.35.251,judgeSpeechMusic_20210407_logNormShiftAmp,2020.1.2,Win32,60,,,,,,,,,,,,,,2,6.753895,,0,0,99,99,103,1,stimuli/stim_20210407_power2amp/equal_lnn_AM4.2Hz_43.m4a,,,
,,,,,,,,,,,,40943,2021-05-03_21h16.35.251,judgeSpeechMusic_20210407_logNormShiftAmp,2020.1.2,Win32,60,,,,,,,,,,,,,,2,5.955505,,0,0,100,100,27,1,stimuli/stim_20210407_power2amp/equal_lnn_AM1.2Hz_42.m4a,,,
,,,,,,,,,,,,40943,2021-05-03_21h16.35.251,judgeSpeechMusic_20210407_logNormShiftAmp,2020.1.2,Win32,60,,,,,,,,,,,,,,2,5.724335,,0,0,101,101,106,1,stimuli/stim_20210407_power2amp/equal_lnn_AM4.8Hz_12.m4a,,,
,,,,,,,,,,,,40943,2021-05-03_21h16.35.251,judgeSpeechMusic_20210407_logNormShiftAmp,2020.1.2,Win32,60,,,,,,,,,,,,,,2,6.46181,,0,0,102,102,57,1,stimuli/stim_20210407_power2amp/equal_lnn_AM2.4Hz_46.m4a,,,
,,,,,,,,,,,,40943,2021-05-03_21h16.35.251,judgeSpeechMusic_20210407_logNormShiftAmp,2020.1.2,Win32,60,,,,,,,,,,,,,,2,6.41129,,0,0,103,103,97,1,stimuli/stim_20210407_power2amp/equal_lnn_AM4.2Hz_74.m4a,,,
,,,,,,,,,,,,40943,2021-05-03_21h16.35.251,judgeSpeechMusic_20210407_logNormShiftAmp,2020.1.2,Win32,60,,,,,,,,,,,,,,2,5.74663,,0,0,104,104,139,1,stimuli/stim_20210407_power2amp/equal_lnn_AM6Hz_51.m4a,,,
,,,,,,,,,,,,40943,2021-05-03_21h16.35.251,judgeSpeechMusic_20210407_logNormShiftAmp,2020.1.2,Win32,60,,,,,,,,,,,,,,1,5.70644,,0,0,105,105,7,1,stimuli/stim_20210407_power2amp/equal_lnn_AM0.6Hz_40.m4a,,,
,,,,,,,,,,,,40943,2021-05-03_21h16.35.251,judgeSpeechMusic_20210407_logNormShiftAmp,2020.1.2,Win32,60,,,,,,,,,,,,,,2,5.90119,,0,0,106,106,79,1,stimuli/stim_20210407_power2amp/equal_lnn_AM3.6Hz_28.m4a,,,
,,,,,,,,,,,,40943,2021-05-03_21h16.35.251,judgeSpeechMusic_20210407_logNormShiftAmp,2020.1.2,Win32,60,,,,,,,,,,,,,,2,5.96939,,0,0,107,107,40,1,stimuli/stim_20210407_power2amp/equal_lnn_AM1.8Hz_62.m4a,,,
,,,,,,,,,,,,40943,2021-05-03_21h16.35.251,judgeSpeechMusic_20210407_logNormShiftAmp,2020.1.2,Win32,60,,,,,,,,,,,,,,2,6.094915,,0,0,108,108,33,1,stimuli/stim_20210407_power2amp/equal_lnn_AM1.8Hz_24.m4a,,,
,,,,,,,,,,,,40943,2021-05-03_21h16.35.251,judgeSpeechMusic_20210407_logNormShiftAmp,2020.1.2,Win32,60,,,,,,,,,,,,,,2,7.32144,,0,0,109,109,31,1,stimuli/stim_20210407_power2amp/equal_lnn_AM1.8Hz_95.m4a,,,
,,,,,,,,,,,,40943,2021-05-03_21h16.35.251,judgeSpeechMusic_20210407_logNormShiftAmp,2020.1.2,Win32,60,,,,,,,,,,,,,,2,5.688995,,0,0,110,110,78,1,stimuli/stim_20210407_power2amp/equal_lnn_AM3.6Hz_37.m4a,,,
,,,,,,,,,,,,40943,2021-05-03_21h16.35.251,judgeSpeechMusic_20210407_logNormShiftAmp,2020.1.2,Win32,60,,,,,,,,,,,,,,2,5.695985,,0,0,111,111,137,1,stimuli/stim_20210407_power2amp/equal_lnn_AM6Hz_81.m4a,,,
,,,,,,,,,,,,40943,2021-05-03_21h16.35.251,judgeSpeechMusic_20210407_logNormShiftAmp,2020.1.2,Win32,60,,,,,,,,,,,,,,2,5.61097,,0,0,112,112,114,1,stimuli/stim_20210407_power2amp/equal_lnn_AM4.8Hz_17.m4a,,,
,,,,,,,,,,,,40943,2021-05-03_21h16.35.251,judgeSpeechMusic_20210407_logNormShiftAmp,2020.1.2,Win32,60,,,,,,,,,,,,,,2,5.7215,,0,0,113,113,141,1,stimuli/stim_20210407_power2amp/equal_lnn_AM6Hz_61.m4a,,,
,,,,,,,,,,,,40943,2021-05-03_21h16.35.251,judgeSpeechMusic_20210407_logNormShiftAmp,2020.1.2,Win32,60,,,,,,,,,,,,,,1,5.92833,,0,0,114,114,94,1,stimuli/stim_20210407_power2amp/equal_lnn_AM4.2Hz_69.m4a,,,
,,,,,,,,,,,,40943,2021-05-03_21h16.35.251,judgeSpeechMusic_20210407_logNormShiftAmp,2020.1.2,Win32,60,,,,,,,,,,,,,,2,5.668055,,0,0,115,115,89,1,stimuli/stim_20210407_power2amp/equal_lnn_AM3.6Hz_83.m4a,,,
,,,,,,,,,,,,40943,2021-05-03_21h16.35.251,judgeSpeechMusic_20210407_logNormShiftAmp,2020.1.2,Win32,60,,,,,,,,,,,,,,2,5.89234,,0,0,116,116,127,1,stimuli/stim_20210407_power2amp/equal_lnn_AM5.4Hz_83.m4a,,,
,,,,,,,,,,,,40943,2021-05-03_21h16.35.251,judgeSpeechMusic_20210407_logNormShiftAmp,2020.1.2,Win32,60,,,,,,,,,,,,,,2,19.677135,,0,0,117,117,80,1,stimuli/stim_20210407_power2amp/equal_lnn_AM3.6Hz_12.m4a,,,
,,,,,,,,,,,,40943,2021-05-03_21h16.35.251,judgeSpeechMusic_20210407_logNormShiftAmp,2020.1.2,Win32,60,,,,,,,,,,,,,,2,6.05798,,0,0,118,118,83,1,stimuli/stim_20210407_power2amp/equal_lnn_AM3.6Hz_18.m4a,,,
,,,,,,,,,,,,40943,2021-05-03_21h16.35.251,judgeSpeechMusic_20210407_logNormShiftAmp,2020.1.2,Win32,60,,,,,,,,,,,,,,2,6.200645,,0,0,119,119,119,1,stimuli/stim_20210407_power2amp/equal_lnn_AM4.8Hz_97.m4a,,,
,,,,,,,,,,,,40943,2021-05-03_21h16.35.251,judgeSpeechMusic_20210407_logNormShiftAmp,2020.1.2,Win32,60,,,,,,,,,,,,,,2,6.194275,,0,0,120,120,24,1,stimuli/stim_20210407_power2amp/equal_lnn_AM1.2Hz_43.m4a,,,
,,,,,,,,,,,,40943,2021-05-03_21h16.35.251,judgeSpeechMusic_20210407_logNormShiftAmp,2020.1.2,Win32,60,,,,,,,,,,,,,,1,5.934095,4,1,0,121,121,22,1,stimuli/stim_20210407_power2amp/equal_lnn_AM1.2Hz_63.m4a,0.555375,,
,,,,,,,,,,,,40943,2021-05-03_21h16.35.251,judgeSpeechMusic_20210407_logNormShiftAmp,2020.1.2,Win32,60,,,,,,,,,,,,,,2,6.106685,,0,0,122,122,71,1,stimuli/stim_20210407_power2amp/equal_lnn_AM3Hz_31.m4a,,,
,,,,,,,,,,,,40943,2021-05-03_21h16.35.251,judgeSpeechMusic_20210407_logNormShiftAmp,2020.1.2,Win32,60,,,,,,,,,,,,,,2,6.3041,,0,0,123,123,99,1,stimuli/stim_20210407_power2amp/equal_lnn_AM4.2Hz_57.m4a,,,
,,,,,,,,,,,,40943,2021-05-03_21h16.35.251,judgeSpeechMusic_20210407_logNormShiftAmp,2020.1.2,Win32,60,,,,,,,,,,,,,,2,36.072175,,0,0,124,124,68,1,stimuli/stim_20210407_power2amp/equal_lnn_AM3Hz_95.m4a,,,
,,,,,,,,,,,,40943,2021-05-03_21h16.35.251,judgeSpeechMusic_20210407_logNormShiftAmp,2020.1.2,Win32,60,,,,,,,,,,,,,,2,9.91804,,0,0,125,125,104,1,stimuli/stim_20210407_power2amp/equal_lnn_AM4.2Hz_90.m4a,,,
,,,,,,,,,,,,40943,2021-05-03_21h16.35.251,judgeSpeechMusic_20210407_logNormShiftAmp,2020.1.2,Win32,60,,,,,,,,,,,,,,2,6.023425,,0,0,126,126,56,1,stimuli/stim_20210407_power2amp/equal_lnn_AM2.4Hz_61.m4a,,,
,,,,,,,,,,,,40943,2021-05-03_21h16.35.251,judgeSpeechMusic_20210407_logNormShiftAmp,2020.1.2,Win32,60,,,,,,,,,,,,,,1,5.772725,,0,0,127,127,61,1,stimuli/stim_20210407_power2amp/equal_lnn_AM3Hz_71.m4a,,,
,,,,,,,,,,,,40943,2021-05-03_21h16.35.251,judgeSpeechMusic_20210407_logNormShiftAmp,2020.1.2,Win32,60,,,,,,,,,,,,,,2,6.47754,,0,0,128,128,87,1,stimuli/stim_20210407_power2amp/equal_lnn_AM3.6Hz_22.m4a,,,
,,,,,,,,,,,,40943,2021-05-03_21h16.35.251,judgeSpeechMusic_20210407_logNormShiftAmp,2020.1.2,Win32,60,,,,,,,,,,,,,,1,5.67255,,0,0,129,129,101,1,stimuli/stim_20210407_power2amp/equal_lnn_AM4.2Hz_59.m4a,,,
,,,,,,,,,,,,40943,2021-05-03_21h16.35.251,judgeSpeechMusic_20210407_logNormShiftAmp,2020.1.2,Win32,60,,,,,,,,,,,,,,2,6.19319,,0,0,130,130,144,1,stimuli/stim_20210407_power2amp/equal_lnn_AM6Hz_14.m4a,,,
,,,,,,,,,,,,40943,2021-05-03_21h16.35.251,judgeSpeechMusic_20210407_logNormShiftAmp,2020.1.2,Win32,60,,,,,,,,,,,,,,2,5.84196,,0,0,131,131,69,1,stimuli/stim_20210407_power2amp/equal_lnn_AM3Hz_75.m4a,,,
,,,,,,,,,,,,40943,2021-05-03_21h16.35.251,judgeSpeechMusic_20210407_logNormShiftAmp,2020.1.2,Win32,60,,,,,,,,,,,,,,1,5.5876,,0,0,132,132,41,1,stimuli/stim_20210407_power2amp/equal_lnn_AM1.8Hz_81.m4a,,,
,,,,,,,,,,,,40943,2021-05-03_21h16.35.251,judgeSpeechMusic_20210407_logNormShiftAmp,2020.1.2,Win32,60,,,,,,,,,,,,,,1,5.634805,,0,0,133,133,25,1,stimuli/stim_20210407_power2amp/equal_lnn_AM1.2Hz_56.m4a,,,
,,,,,,,,,,,,40943,2021-05-03_21h16.35.251,judgeSpeechMusic_20210407_logNormShiftAmp,2020.1.2,Win32,60,,,,,,,,,,,,,,2,18.184165,,0,0,134,134,111,1,stimuli/stim_20210407_power2amp/equal_lnn_AM4.8Hz_30.m4a,,,
,,,,,,,,,,,,40943,2021-05-03_21h16.35.251,judgeSpeechMusic_20210407_logNormShiftAmp,2020.1.2,Win32,60,,,,,,,,,,,,,,1,6.618195,,0,0,135,135,73,1,stimuli/stim_20210407_power2amp/equal_lnn_AM3Hz_32.m4a,,,
,,,,,,,,,,,,40943,2021-05-03_21h16.35.251,judgeSpeechMusic_20210407_logNormShiftAmp,2020.1.2,Win32,60,,,,,,,,,,,,,,2,6.578555,,0,0,136,136,45,1,stimuli/stim_20210407_power2amp/equal_lnn_AM2.4Hz_43.m4a,,,
,,,,,,,,,,,,40943,2021-05-03_21h16.35.251,judgeSpeechMusic_20210407_logNormShiftAmp,2020.1.2,Win32,60,,,,,,,,,,,,,,2,15.075015,,0,0,137,137,142,1,stimuli/stim_20210407_power2amp/equal_lnn_AM6Hz_9.m4a,,,
,,,,,,,,,,,,40943,2021-05-03_21h16.35.251,judgeSpeechMusic_20210407_logNormShiftAmp,2020.1.2,Win32,60,,,,,,,,,,,,,,2,8.16838,,0,0,138,138,134,1,stimuli/stim_20210407_power2amp/equal_lnn_AM5.4Hz_58.m4a,,,
,,,,,,,,,,,,40943,2021-05-03_21h16.35.251,judgeSpeechMusic_20210407_logNormShiftAmp,2020.1.2,Win32,60,,,,,,,,,,,,,,2,6.806775,,0,0,139,139,133,1,stimuli/stim_20210407_power2amp/equal_lnn_AM5.4Hz_41.m4a,,,
,,,,,,,,,,,,40943,2021-05-03_21h16.35.251,judgeSpeechMusic_20210407_logNormShiftAmp,2020.1.2,Win32,60,,,,,,,,,,,,,,2,5.788975,,0,0,140,140,122,1,stimuli/stim_20210407_power2amp/equal_lnn_AM5.4Hz_91.m4a,,,
,,,,,,,,,,,,40943,2021-05-03_21h16.35.251,judgeSpeechMusic_20210407_logNormShiftAmp,2020.1.2,Win32,60,,,,,,,,,,,,,,2,5.785215,,0,0,141,141,95,1,stimuli/stim_20210407_power2amp/equal_lnn_AM4.2Hz_15.m4a,,,
,,,,,,,,,,,,40943,2021-05-03_21h16.35.251,judgeSpeechMusic_20210407_logNormShiftAmp,2020.1.2,Win32,60,,,,,,,,,,,,,,2,5.91139,,0,0,142,142,1,1,stimuli/stim_20210407_power2amp/equal_lnn_AM0.6Hz_31.m4a,,,
,,,,,,,,,,,,40943,2021-05-03_21h16.35.251,judgeSpeechMusic_20210407_logNormShiftAmp,2020.1.2,Win32,60,,,,,,,,,,,,,,2,5.973745,3,1,0,143,143,110,1,stimuli/stim_20210407_power2amp/equal_lnn_AM4.8Hz_42.m4a,1.203495,,
,,,,,,,,,,,,40943,2021-05-03_21h16.35.251,judgeSpeechMusic_20210407_logNormShiftAmp,2020.1.2,Win32,60,,,,,,,,,,,,,,1,5.869225,,0,0,144,144,49,1,stimuli/stim_20210407_power2amp/equal_lnn_AM2.4Hz_91.m4a,,,
,,,,,,,,,,,,40943,2021-05-03_21h16.35.251,judgeSpeechMusic_20210407_logNormShiftAmp,2020.1.2,Win32,60,,,,,,,,,,,,,,1,5.69487,,0,0,145,145,30,1,stimuli/stim_20210407_power2amp/equal_lnn_AM1.8Hz_79.m4a,,,
,,,,,,,,,,,,40943,2021-05-03_21h16.35.251,judgeSpeechMusic_20210407_logNormShiftAmp,2020.1.2,Win32,60,,,,,,,,,,,,,,2,5.792975,,0,0,146,146,107,1,stimuli/stim_20210407_power2amp/equal_lnn_AM4.8Hz_6.m4a,,,
,,,,,,,,,,,,40943,2021-05-03_21h16.35.251,judgeSpeechMusic_20210407_logNormShiftAmp,2020.1.2,Win32,60,,,,,,,,,,,,,,1,5.79147,,0,0,147,147,9,1,stimuli/stim_20210407_power2amp/equal_lnn_AM0.6Hz_76.m4a,,,
,,,,,,,,,,,,40943,2021-05-03_21h16.35.251,judgeSpeechMusic_20210407_logNormShiftAmp,2020.1.2,Win32,60,,,,,,,,,,,,,,1,5.784715,,0,0,148,148,2,1,stimuli/stim_20210407_power2amp/equal_lnn_AM0.6Hz_73.m4a,,,
,,,,,,,,,,,,40943,2021-05-03_21h16.35.251,judgeSpeechMusic_20210407_logNormShiftAmp,2020.1.2,Win32,60,,,,,,,,,,,,,,2,5.586075,,0,0,149,149,66,1,stimuli/stim_20210407_power2amp/equal_lnn_AM3Hz_14.m4a,,,
,,,,,,,,,,,,40943,2021-05-03_21h16.35.251,judgeSpeechMusic_20210407_logNormShiftAmp,2020.1.2,Win32,60,,,,,,,,,,,,,,2,5.55674,,0,1,0,150,132,1,stimuli/stim_20210407_power2amp/equal_lnn_AM5.4Hz_87.m4a,,,
,,,,,,,,,,,,40943,2021-05-03_21h16.35.251,judgeSpeechMusic_20210407_logNormShiftAmp,2020.1.2,Win32,60,,,,,,,,,,,,,,2,5.73433,,0,1,1,151,96,1,stimuli/stim_20210407_power2amp/equal_lnn_AM4.2Hz_77.m4a,,,
,,,,,,,,,,,,40943,2021-05-03_21h16.35.251,judgeSpeechMusic_20210407_logNormShiftAmp,2020.1.2,Win32,60,,,,,,,,,,,,,,2,5.78934,,0,1,2,152,124,1,stimuli/stim_20210407_power2amp/equal_lnn_AM5.4Hz_70.m4a,,,
,,,,,,,,,,,,40943,2021-05-03_21h16.35.251,judgeSpeechMusic_20210407_logNormShiftAmp,2020.1.2,Win32,60,,,,,,,,,,,,,,2,5.82865,,0,1,3,153,148,1,stimuli/stim_20210407_power2amp/equal_lnn_AM6Hz_87.m4a,,,
,,,,,,,,,,,,40943,2021-05-03_21h16.35.251,judgeSpeechMusic_20210407_logNormShiftAmp,2020.1.2,Win32,60,,,,,,,,,,,,,,2,5.70167,,0,1,4,154,62,1,stimuli/stim_20210407_power2amp/equal_lnn_AM3Hz_3.m4a,,,
,,,,,,,,,,,,40943,2021-05-03_21h16.35.251,judgeSpeechMusic_20210407_logNormShiftAmp,2020.1.2,Win32,60,,,,,,,,,,,,,,2,6.36195,,0,1,5,155,86,1,stimuli/stim_20210407_power2amp/equal_lnn_AM3.6Hz_50.m4a,,,
,,,,,,,,,,,,40943,2021-05-03_21h16.35.251,judgeSpeechMusic_20210407_logNormShiftAmp,2020.1.2,Win32,60,,,,,,,,,,,,,,2,6.60947,,0,1,6,156,131,1,stimuli/stim_20210407_power2amp/equal_lnn_AM5.4Hz_51.m4a,,,
,,,,,,,,,,,,40943,2021-05-03_21h16.35.251,judgeSpeechMusic_20210407_logNormShiftAmp,2020.1.2,Win32,60,,,,,,,,,,,,,,1,7.660235,,0,1,7,157,29,1,stimuli/stim_20210407_power2amp/equal_lnn_AM1.2Hz_34.m4a,,,
,,,,,,,,,,,,40943,2021-05-03_21h16.35.251,judgeSpeechMusic_20210407_logNormShiftAmp,2020.1.2,Win32,60,,,,,,,,,,,,,,1,5.891085,,0,1,8,158,20,1,stimuli/stim_20210407_power2amp/equal_lnn_AM1.2Hz_39.m4a,,,
,,,,,,,,,,,,40943,2021-05-03_21h16.35.251,judgeSpeechMusic_20210407_logNormShiftAmp,2020.1.2,Win32,60,,,,,,,,,,,,,,2,6.214235,,0,1,9,159,37,1,stimuli/stim_20210407_power2amp/equal_lnn_AM1.8Hz_47.m4a,,,
,,,,,,,,,,,,40943,2021-05-03_21h16.35.251,judgeSpeechMusic_20210407_logNormShiftAmp,2020.1.2,Win32,60,,,,,,,,,,,,,,2,6.79564,,0,1,10,160,97,1,stimuli/stim_20210407_power2amp/equal_lnn_AM4.2Hz_74.m4a,,,
,,,,,,,,,,,,40943,2021-05-03_21h16.35.251,judgeSpeechMusic_20210407_logNormShiftAmp,2020.1.2,Win32,60,,,,,,,,,,,,,,2,6.826305,,0,1,11,161,107,1,stimuli/stim_20210407_power2amp/equal_lnn_AM4.8Hz_6.m4a,,,
,,,,,,,,,,,,40943,2021-05-03_21h16.35.251,judgeSpeechMusic_20210407_logNormShiftAmp,2020.1.2,Win32,60,,,,,,,,,,,,,,1,5.784775,,0,1,12,162,12,1,stimuli/stim_20210407_power2amp/equal_lnn_AM0.6Hz_12.m4a,,,
,,,,,,,,,,,,40943,2021-05-03_21h16.35.251,judgeSpeechMusic_20210407_logNormShiftAmp,2020.1.2,Win32,60,,,,,,,,,,,,,,2,5.879,,0,1,13,163,135,1,stimuli/stim_20210407_power2amp/equal_lnn_AM6Hz_86.m4a,,,
,,,,,,,,,,,,40943,2021-05-03_21h16.35.251,judgeSpeechMusic_20210407_logNormShiftAmp,2020.1.2,Win32,60,,,,,,,,,,,,,,2,8.77964,,0,1,14,164,100,1,stimuli/stim_20210407_power2amp/equal_lnn_AM4.2Hz_78.m4a,,,
,,,,,,,,,,,,40943,2021-05-03_21h16.35.251,judgeSpeechMusic_20210407_logNormShiftAmp,2020.1.2,Win32,60,,,,,,,,,,,,,,2,6.31774,,0,1,15,165,65,1,stimuli/stim_20210407_power2amp/equal_lnn_AM3Hz_64.m4a,,,
,,,,,,,,,,,,40943,2021-05-03_21h16.35.251,judgeSpeechMusic_20210407_logNormShiftAmp,2020.1.2,Win32,60,,,,,,,,,,,,,,2,7.157965,,0,1,16,166,105,1,stimuli/stim_20210407_power2amp/equal_lnn_AM4.8Hz_72.m4a,,,
,,,,,,,,,,,,40943,2021-05-03_21h16.35.251,judgeSpeechMusic_20210407_logNormShiftAmp,2020.1.2,Win32,60,,,,,,,,,,,,,,2,6.95151,2,1,1,17,167,60,1,stimuli/stim_20210407_power2amp/equal_lnn_AM3Hz_44.m4a,1.064205,,
,,,,,,,,,,,,40943,2021-05-03_21h16.35.251,judgeSpeechMusic_20210407_logNormShiftAmp,2020.1.2,Win32,60,,,,,,,,,,,,,,2,5.721045,,0,1,18,168,119,1,stimuli/stim_20210407_power2amp/equal_lnn_AM4.8Hz_97.m4a,,,
,,,,,,,,,,,,40943,2021-05-03_21h16.35.251,judgeSpeechMusic_20210407_logNormShiftAmp,2020.1.2,Win32,60,,,,,,,,,,,,,,1,5.74055,,0,1,19,169,39,1,stimuli/stim_20210407_power2amp/equal_lnn_AM1.8Hz_8.m4a,,,
,,,,,,,,,,,,40943,2021-05-03_21h16.35.251,judgeSpeechMusic_20210407_logNormShiftAmp,2020.1.2,Win32,60,,,,,,,,,,,,,,2,5.95482,,0,1,20,170,137,1,stimuli/stim_20210407_power2amp/equal_lnn_AM6Hz_81.m4a,,,
,,,,,,,,,,,,40943,2021-05-03_21h16.35.251,judgeSpeechMusic_20210407_logNormShiftAmp,2020.1.2,Win32,60,,,,,,,,,,,,,,2,7.51267,,0,1,21,171,54,1,stimuli/stim_20210407_power2amp/equal_lnn_AM2.4Hz_74.m4a,,,
,,,,,,,,,,,,40943,2021-05-03_21h16.35.251,judgeSpeechMusic_20210407_logNormShiftAmp,2020.1.2,Win32,60,,,,,,,,,,,,,,2,14.62938,,0,1,22,172,109,1,stimuli/stim_20210407_power2amp/equal_lnn_AM4.8Hz_85.m4a,,,
,,,,,,,,,,,,40943,2021-05-03_21h16.35.251,judgeSpeechMusic_20210407_logNormShiftAmp,2020.1.2,Win32,60,,,,,,,,,,,,,,2,5.57,,0,1,23,173,30,1,stimuli/stim_20210407_power2amp/equal_lnn_AM1.8Hz_79.m4a,,,
,,,,,,,,,,,,40943,2021-05-03_21h16.35.251,judgeSpeechMusic_20210407_logNormShiftAmp,2020.1.2,Win32,60,,,,,,,,,,,,,,1,6.12602,,0,1,24,174,2,1,stimuli/stim_20210407_power2amp/equal_lnn_AM0.6Hz_73.m4a,,,
,,,,,,,,,,,,40943,2021-05-03_21h16.35.251,judgeSpeechMusic_20210407_logNormShiftAmp,2020.1.2,Win32,60,,,,,,,,,,,,,,1,5.704375,,0,1,25,175,0,1,stimuli/stim_20210407_power2amp/equal_lnn_AM0.6Hz_28.m4a,,,
,,,,,,,,,,,,40943,2021-05-03_21h16.35.251,judgeSpeechMusic_20210407_logNormShiftAmp,2020.1.2,Win32,60,,,,,,,,,,,,,,2,6.81796,,0,1,26,176,83,1,stimuli/stim_20210407_power2amp/equal_lnn_AM3.6Hz_18.m4a,,,
,,,,,,,,,,,,40943,2021-05-03_21h16.35.251,judgeSpeechMusic_20210407_logNormShiftAmp,2020.1.2,Win32,60,,,,,,,,,,,,,,2,6.23518,,0,1,27,177,11,1,stimuli/stim_20210407_power2amp/equal_lnn_AM0.6Hz_11.m4a,,,
,,,,,,,,,,,,40943,2021-05-03_21h16.35.251,judgeSpeechMusic_20210407_logNormShiftAmp,2020.1.2,Win32,60,,,,,,,,,,,,,,2,6.353975,,0,1,28,178,138,1,stimuli/stim_20210407_power2amp/equal_lnn_AM6Hz_13.m4a,,,
,,,,,,,,,,,,40943,2021-05-03_21h16.35.251,judgeSpeechMusic_20210407_logNormShiftAmp,2020.1.2,Win32,60,,,,,,,,,,,,,,2,10.818665,,0,1,29,179,82,1,stimuli/stim_20210407_power2amp/equal_lnn_AM3.6Hz_19.m4a,,,
,,,,,,,,,,,,40943,2021-05-03_21h16.35.251,judgeSpeechMusic_20210407_logNormShiftAmp,2020.1.2,Win32,60,,,,,,,,,,,,,,2,5.81184,,0,1,30,180,52,1,stimuli/stim_20210407_power2amp/equal_lnn_AM2.4Hz_62.m4a,,,
,,,,,,,,,,,,40943,2021-05-03_21h16.35.251,judgeSpeechMusic_20210407_logNormShiftAmp,2020.1.2,Win32,60,,,,,,,,,,,,,,2,13.00398,,0,1,31,181,113,1,stimuli/stim_20210407_power2amp/equal_lnn_AM4.8Hz_77.m4a,,,
,,,,,,,,,,,,40943,2021-05-03_21h16.35.251,judgeSpeechMusic_20210407_logNormShiftAmp,2020.1.2,Win32,60,,,,,,,,,,,,,,1,5.751765,,0,1,32,182,84,1,stimuli/stim_20210407_power2amp/equal_lnn_AM3.6Hz_82.m4a,,,
,,,,,,,,,,,,40943,2021-05-03_21h16.35.251,judgeSpeechMusic_20210407_logNormShiftAmp,2020.1.2,Win32,60,,,,,,,,,,,,,,2,6.19335,,0,1,33,183,102,1,stimuli/stim_20210407_power2amp/equal_lnn_AM4.2Hz_53.m4a,,,
,,,,,,,,,,,,40943,2021-05-03_21h16.35.251,judgeSpeechMusic_20210407_logNormShiftAmp,2020.1.2,Win32,60,,,,,,,,,,,,,,2,6.08466,,0,1,34,184,44,1,stimuli/stim_20210407_power2amp/equal_lnn_AM1.8Hz_57.m4a,,,
,,,,,,,,,,,,40943,2021-05-03_21h16.35.251,judgeSpeechMusic_20210407_logNormShiftAmp,2020.1.2,Win32,60,,,,,,,,,,,,,,2,6.174565,,0,1,35,185,123,1,stimuli/stim_20210407_power2amp/equal_lnn_AM5.4Hz_38.m4a,,,
,,,,,,,,,,,,40943,2021-05-03_21h16.35.251,judgeSpeechMusic_20210407_logNormShiftAmp,2020.1.2,Win32,60,,,,,,,,,,,,,,1,6.770695,,0,1,36,186,8,1,stimuli/stim_20210407_power2amp/equal_lnn_AM0.6Hz_4.m4a,,,
,,,,,,,,,,,,40943,2021-05-03_21h16.35.251,judgeSpeechMusic_20210407_logNormShiftAmp,2020.1.2,Win32,60,,,,,,,,,,,,,,1,6.001075,,0,1,37,187,4,1,stimuli/stim_20210407_power2amp/equal_lnn_AM0.6Hz_65.m4a,,,
,,,,,,,,,,,,40943,2021-05-03_21h16.35.251,judgeSpeechMusic_20210407_logNormShiftAmp,2020.1.2,Win32,60,,,,,,,,,,,,,,2,8.517595,,0,1,38,188,116,1,stimuli/stim_20210407_power2amp/equal_lnn_AM4.8Hz_75.m4a,,,
,,,,,,,,,,,,40943,2021-05-03_21h16.35.251,judgeSpeechMusic_20210407_logNormShiftAmp,2020.1.2,Win32,60,,,,,,,,,,,,,,2,6.456085,,0,1,39,189,9,1,stimuli/stim_20210407_power2amp/equal_lnn_AM0.6Hz_76.m4a,,,
,,,,,,,,,,,,40943,2021-05-03_21h16.35.251,judgeSpeechMusic_20210407_logNormShiftAmp,2020.1.2,Win32,60,,,,,,,,,,,,,,2,12.353025,,0,1,40,190,15,1,stimuli/stim_20210407_power2amp/equal_lnn_AM1.2Hz_33.m4a,,,
,,,,,,,,,,,,40943,2021-05-03_21h16.35.251,judgeSpeechMusic_20210407_logNormShiftAmp,2020.1.2,Win32,60,,,,,,,,,,,,,,2,5.984485,2,1,1,41,191,19,1,stimuli/stim_20210407_power2amp/equal_lnn_AM1.2Hz_86.m4a,0.82117,,
,,,,,,,,,,,,40943,2021-05-03_21h16.35.251,judgeSpeechMusic_20210407_logNormShiftAmp,2020.1.2,Win32,60,,,,,,,,,,,,,,2,6.8534,,0,1,42,192,127,1,stimuli/stim_20210407_power2amp/equal_lnn_AM5.4Hz_83.m4a,,,
,,,,,,,,,,,,40943,2021-05-03_21h16.35.251,judgeSpeechMusic_20210407_logNormShiftAmp,2020.1.2,Win32,60,,,,,,,,,,,,,,1,6.235115,,0,1,43,193,22,1,stimuli/stim_20210407_power2amp/equal_lnn_AM1.2Hz_63.m4a,,,
,,,,,,,,,,,,40943,2021-05-03_21h16.35.251,judgeSpeechMusic_20210407_logNormShiftAmp,2020.1.2,Win32,60,,,,,,,,,,,,,,1,6.22771,,0,1,44,194,7,1,stimuli/stim_20210407_power2amp/equal_lnn_AM0.6Hz_40.m4a,,,
,,,,,,,,,,,,40943,2021-05-03_21h16.35.251,judgeSpeechMusic_20210407_logNormShiftAmp,2020.1.2,Win32,60,,,,,,,,,,,,,,1,6.184565,,0,1,45,195,5,1,stimuli/stim_20210407_power2amp/equal_lnn_AM0.6Hz_50.m4a,,,
,,,,,,,,,,,,40943,2021-05-03_21h16.35.251,judgeSpeechMusic_20210407_logNormShiftAmp,2020.1.2,Win32,60,,,,,,,,,,,,,,1,7.585805,,0,1,46,196,33,1,stimuli/stim_20210407_power2amp/equal_lnn_AM1.8Hz_24.m4a,,,
,,,,,,,,,,,,40943,2021-05-03_21h16.35.251,judgeSpeechMusic_20210407_logNormShiftAmp,2020.1.2,Win32,60,,,,,,,,,,,,,,2,6.60796,,0,1,47,197,32,1,stimuli/stim_20210407_power2amp/equal_lnn_AM1.8Hz_97.m4a,,,
,,,,,,,,,,,,40943,2021-05-03_21h16.35.251,judgeSpeechMusic_20210407_logNormShiftAmp,2020.1.2,Win32,60,,,,,,,,,,,,,,1,6.69681,,0,1,48,198,13,1,stimuli/stim_20210407_power2amp/equal_lnn_AM0.6Hz_37.m4a,,,
,,,,,,,,,,,,40943,2021-05-03_21h16.35.251,judgeSpeechMusic_20210407_logNormShiftAmp,2020.1.2,Win32,60,,,,,,,,,,,,,,2,7.346615,,0,1,49,199,149,1,stimuli/stim_20210407_power2amp/equal_lnn_AM6Hz_38.m4a,,,
,,,,,,,,,,,,40943,2021-05-03_21h16.35.251,judgeSpeechMusic_20210407_logNormShiftAmp,2020.1.2,Win32,60,,,,,,,,,,,,,,2,6.18916,,0,1,50,200,93,1,stimuli/stim_20210407_power2amp/equal_lnn_AM4.2Hz_27.m4a,,,
,,,,,,,,,,,,40943,2021-05-03_21h16.35.251,judgeSpeechMusic_20210407_logNormShiftAmp,2020.1.2,Win32,60,,,,,,,,,,,,,,2,5.68492,,0,1,51,201,130,1,stimuli/stim_20210407_power2amp/equal_lnn_AM5.4Hz_47.m4a,,,
,,,,,,,,,,,,40943,2021-05-03_21h16.35.251,judgeSpeechMusic_20210407_logNormShiftAmp,2020.1.2,Win32,60,,,,,,,,,,,,,,2,5.54267,,0,1,52,202,73,1,stimuli/stim_20210407_power2amp/equal_lnn_AM3Hz_32.m4a,,,
,,,,,,,,,,,,40943,2021-05-03_21h16.35.251,judgeSpeechMusic_20210407_logNormShiftAmp,2020.1.2,Win32,60,,,,,,,,,,,,,,2,5.608645,,0,1,53,203,98,1,stimuli/stim_20210407_power2amp/equal_lnn_AM4.2Hz_11.m4a,,,
,,,,,,,,,,,,40943,2021-05-03_21h16.35.251,judgeSpeechMusic_20210407_logNormShiftAmp,2020.1.2,Win32,60,,,,,,,,,,,,,,2,6.514,,0,1,54,204,108,1,stimuli/stim_20210407_power2amp/equal_lnn_AM4.8Hz_34.m4a,,,
,,,,,,,,,,,,40943,2021-05-03_21h16.35.251,judgeSpeechMusic_20210407_logNormShiftAmp,2020.1.2,Win32,60,,,,,,,,,,,,,,2,5.62035,,0,1,55,205,104,1,stimuli/stim_20210407_power2amp/equal_lnn_AM4.2Hz_90.m4a,,,
,,,,,,,,,,,,40943,2021-05-03_21h16.35.251,judgeSpeechMusic_20210407_logNormShiftAmp,2020.1.2,Win32,60,,,,,,,,,,,,,,2,9.117555,,0,1,56,206,50,1,stimuli/stim_20210407_power2amp/equal_lnn_AM2.4Hz_52.m4a,,,
,,,,,,,,,,,,40943,2021-05-03_21h16.35.251,judgeSpeechMusic_20210407_logNormShiftAmp,2020.1.2,Win32,60,,,,,,,,,,,,,,1,5.951825,,0,1,57,207,14,1,stimuli/stim_20210407_power2amp/equal_lnn_AM0.6Hz_87.m4a,,,
,,,,,,,,,,,,40943,2021-05-03_21h16.35.251,judgeSpeechMusic_20210407_logNormShiftAmp,2020.1.2,Win32,60,,,,,,,,,,,,,,2,14.554285,,0,1,58,208,136,1,stimuli/stim_20210407_power2amp/equal_lnn_AM6Hz_34.m4a,,,
,,,,,,,,,,,,40943,2021-05-03_21h16.35.251,judgeSpeechMusic_20210407_logNormShiftAmp,2020.1.2,Win32,60,,,,,,,,,,,,,,2,6.354465,,0,1,59,209,21,1,stimuli/stim_20210407_power2amp/equal_lnn_AM1.2Hz_18.m4a,,,
,,,,,,,,,,,,40943,2021-05-03_21h16.35.251,judgeSpeechMusic_20210407_logNormShiftAmp,2020.1.2,Win32,60,,,,,,,,,,,,,,2,7.218275,,0,1,60,210,31,1,stimuli/stim_20210407_power2amp/equal_lnn_AM1.8Hz_95.m4a,,,
,,,,,,,,,,,,40943,2021-05-03_21h16.35.251,judgeSpeechMusic_20210407_logNormShiftAmp,2020.1.2,Win32,60,,,,,,,,,,,,,,2,7.367945,,0,1,61,211,1,1,stimuli/stim_20210407_power2amp/equal_lnn_AM0.6Hz_31.m4a,,,
,,,,,,,,,,,,40943,2021-05-03_21h16.35.251,judgeSpeechMusic_20210407_logNormShiftAmp,2020.1.2,Win32,60,,,,,,,,,,,,,,2,6.809285,,0,1,62,212,47,1,stimuli/stim_20210407_power2amp/equal_lnn_AM2.4Hz_31.m4a,,,
,,,,,,,,,,,,40943,2021-05-03_21h16.35.251,judgeSpeechMusic_20210407_logNormShiftAmp,2020.1.2,Win32,60,,,,,,,,,,,,,,2,7.767365,,0,1,63,213,74,1,stimuli/stim_20210407_power2amp/equal_lnn_AM3Hz_92.m4a,,,
,,,,,,,,,,,,40943,2021-05-03_21h16.35.251,judgeSpeechMusic_20210407_logNormShiftAmp,2020.1.2,Win32,60,,,,,,,,,,,,,,2,7.9133,,0,1,64,214,69,1,stimuli/stim_20210407_power2amp/equal_lnn_AM3Hz_75.m4a,,,
,,,,,,,,,,,,40943,2021-05-03_21h16.35.251,judgeSpeechMusic_20210407_logNormShiftAmp,2020.1.2,Win32,60,,,,,,,,,,,,,,2,13.934365,3,1,1,65,215,103,1,stimuli/stim_20210407_power2amp/equal_lnn_AM4.2Hz_43.m4a,0.912465,,
,,,,,,,,,,,,40943,2021-05-03_21h16.35.251,judgeSpeechMusic_20210407_logNormShiftAmp,2020.1.2,Win32,60,,,,,,,,,,,,,,2,6.267465,,0,1,66,216,27,1,stimuli/stim_20210407_power2amp/equal_lnn_AM1.2Hz_42.m4a,,,
,,,,,,,,,,,,40943,2021-05-03_21h16.35.251,judgeSpeechMusic_20210407_logNormShiftAmp,2020.1.2,Win32,60,,,,,,,,,,,,,,2,6.67107,,0,1,67,217,79,1,stimuli/stim_20210407_power2amp/equal_lnn_AM3.6Hz_28.m4a,,,
,,,,,,,,,,,,40943,2021-05-03_21h16.35.251,judgeSpeechMusic_20210407_logNormShiftAmp,2020.1.2,Win32,60,,,,,,,,,,,,,,2,6.243265,,0,1,68,218,145,1,stimuli/stim_20210407_power2amp/equal_lnn_AM6Hz_8.m4a,,,
,,,,,,,,,,,,40943,2021-05-03_21h16.35.251,judgeSpeechMusic_20210407_logNormShiftAmp,2020.1.2,Win32,60,,,,,,,,,,,,,,2,6.046235,,0,1,69,219,91,1,stimuli/stim_20210407_power2amp/equal_lnn_AM4.2Hz_41.m4a,,,
,,,,,,,,,,,,40943,2021-05-03_21h16.35.251,judgeSpeechMusic_20210407_logNormShiftAmp,2020.1.2,Win32,60,,,,,,,,,,,,,,2,6.58476,,0,1,70,220,110,1,stimuli/stim_20210407_power2amp/equal_lnn_AM4.8Hz_42.m4a,,,
,,,,,,,,,,,,40943,2021-05-03_21h16.35.251,judgeSpeechMusic_20210407_logNormShiftAmp,2020.1.2,Win32,60,,,,,,,,,,,,,,2,5.995925,,0,1,71,221,129,1,stimuli/stim_20210407_power2amp/equal_lnn_AM5.4Hz_18.m4a,,,
,,,,,,,,,,,,40943,2021-05-03_21h16.35.251,judgeSpeechMusic_20210407_logNormShiftAmp,2020.1.2,Win32,60,,,,,,,,,,,,,,2,6.2682,,0,1,72,222,90,1,stimuli/stim_20210407_power2amp/equal_lnn_AM4.2Hz_61.m4a,,,
,,,,,,,,,,,,40943,2021-05-03_21h16.35.251,judgeSpeechMusic_20210407_logNormShiftAmp,2020.1.2,Win32,60,,,,,,,,,,,,,,2,6.99012,,0,1,73,223,58,1,stimuli/stim_20210407_power2amp/equal_lnn_AM2.4Hz_78.m4a,,,
,,,,,,,,,,,,40943,2021-05-03_21h16.35.251,judgeSpeechMusic_20210407_logNormShiftAmp,2020.1.2,Win32,60,,,,,,,,,,,,,,2,6.20154,,0,1,74,224,78,1,stimuli/stim_20210407_power2amp/equal_lnn_AM3.6Hz_37.m4a,,,
,,,,,,,,,,,,40943,2021-05-03_21h16.35.251,judgeSpeechMusic_20210407_logNormShiftAmp,2020.1.2,Win32,60,,,,,,,,,,,,,,2,7.022115,,0,1,75,225,106,1,stimuli/stim_20210407_power2amp/equal_lnn_AM4.8Hz_12.m4a,,,
,,,,,,,,,,,,40943,2021-05-03_21h16.35.251,judgeSpeechMusic_20210407_logNormShiftAmp,2020.1.2,Win32,60,,,,,,,,,,,,,,2,7.21796,,0,1,76,226,146,1,stimuli/stim_20210407_power2amp/equal_lnn_AM6Hz_83.m4a,,,
,,,,,,,,,,,,40943,2021-05-03_21h16.35.251,judgeSpeechMusic_20210407_logNormShiftAmp,2020.1.2,Win32,60,,,,,,,,,,,,,,1,5.63458,,0,1,77,227,40,1,stimuli/stim_20210407_power2amp/equal_lnn_AM1.8Hz_62.m4a,,,
,,,,,,,,,,,,40943,2021-05-03_21h16.35.251,judgeSpeechMusic_20210407_logNormShiftAmp,2020.1.2,Win32,60,,,,,,,,,,,,,,1,6.139275,,0,1,78,228,24,1,stimuli/stim_20210407_power2amp/equal_lnn_AM1.2Hz_43.m4a,,,
,,,,,,,,,,,,40943,2021-05-03_21h16.35.251,judgeSpeechMusic_20210407_logNormShiftAmp,2020.1.2,Win32,60,,,,,,,,,,,,,,2,10.54077,,0,1,79,229,85,1,stimuli/stim_20210407_power2amp/equal_lnn_AM3.6Hz_9.m4a,,,
,,,,,,,,,,,,40943,2021-05-03_21h16.35.251,judgeSpeechMusic_20210407_logNormShiftAmp,2020.1.2,Win32,60,,,,,,,,,,,,,,2,7.093975,,0,1,80,230,92,1,stimuli/stim_20210407_power2amp/equal_lnn_AM4.2Hz_32.m4a,,,
,,,,,,,,,,,,40943,2021-05-03_21h16.35.251,judgeSpeechMusic_20210407_logNormShiftAmp,2020.1.2,Win32,60,,,,,,,,,,,,,,2,5.803795,,0,1,81,231,23,1,stimuli/stim_20210407_power2amp/equal_lnn_AM1.2Hz_14.m4a,,,
,,,,,,,,,,,,40943,2021-05-03_21h16.35.251,judgeSpeechMusic_20210407_logNormShiftAmp,2020.1.2,Win32,60,,,,,,,,,,,,,,2,6.14982,,0,1,82,232,94,1,stimuli/stim_20210407_power2amp/equal_lnn_AM4.2Hz_69.m4a,,,
,,,,,,,,,,,,40943,2021-05-03_21h16.35.251,judgeSpeechMusic_20210407_logNormShiftAmp,2020.1.2,Win32,60,,,,,,,,,,,,,,2,8.125075,,0,1,83,233,66,1,stimuli/stim_20210407_power2amp/equal_lnn_AM3Hz_14.m4a,,,
,,,,,,,,,,,,40943,2021-05-03_21h16.35.251,judgeSpeechMusic_20210407_logNormShiftAmp,2020.1.2,Win32,60,,,,,,,,,,,,,,2,6.568,,0,1,84,234,59,1,stimuli/stim_20210407_power2amp/equal_lnn_AM2.4Hz_70.m4a,,,
,,,,,,,,,,,,40943,2021-05-03_21h16.35.251,judgeSpeechMusic_20210407_logNormShiftAmp,2020.1.2,Win32,60,,,,,,,,,,,,,,2,5.960755,,0,1,85,235,140,1,stimuli/stim_20210407_power2amp/equal_lnn_AM6Hz_41.m4a,,,
,,,,,,,,,,,,40943,2021-05-03_21h16.35.251,judgeSpeechMusic_20210407_logNormShiftAmp,2020.1.2,Win32,60,,,,,,,,,,,,,,2,6.10362,,0,1,86,236,118,1,stimuli/stim_20210407_power2amp/equal_lnn_AM4.8Hz_91.m4a,,,
,,,,,,,,,,,,40943,2021-05-03_21h16.35.251,judgeSpeechMusic_20210407_logNormShiftAmp,2020.1.2,Win32,60,,,,,,,,,,,,,,2,5.80789,,0,1,87,237,114,1,stimuli/stim_20210407_power2amp/equal_lnn_AM4.8Hz_17.m4a,,,
,,,,,,,,,,,,40943,2021-05-03_21h16.35.251,judgeSpeechMusic_20210407_logNormShiftAmp,2020.1.2,Win32,60,,,,,,,,,,,,,,2,7.428275,2,1,1,88,238,128,1,stimuli/stim_20210407_power2amp/equal_lnn_AM5.4Hz_20.m4a,0.670485,,
,,,,,,,,,,,,40943,2021-05-03_21h16.35.251,judgeSpeechMusic_20210407_logNormShiftAmp,2020.1.2,Win32,60,,,,,,,,,,,,,,2,16.95785,,0,1,89,239,112,1,stimuli/stim_20210407_power2amp/equal_lnn_AM4.8Hz_9.m4a,,,
,,,,,,,,,,,,40943,2021-05-03_21h16.35.251,judgeSpeechMusic_20210407_logNormShiftAmp,2020.1.2,Win32,60,,,,,,,,,,,,,,1,5.81817,,0,1,90,240,17,1,stimuli/stim_20210407_power2amp/equal_lnn_AM1.2Hz_53.m4a,,,
,,,,,,,,,,,,40943,2021-05-03_21h16.35.251,judgeSpeechMusic_20210407_logNormShiftAmp,2020.1.2,Win32,60,,,,,,,,,,,,,,2,8.24654,,0,1,91,241,80,1,stimuli/stim_20210407_power2amp/equal_lnn_AM3.6Hz_12.m4a,,,
,,,,,,,,,,,,40943,2021-05-03_21h16.35.251,judgeSpeechMusic_20210407_logNormShiftAmp,2020.1.2,Win32,60,,,,,,,,,,,,,,2,6.62904,,0,1,92,242,122,1,stimuli/stim_20210407_power2amp/equal_lnn_AM5.4Hz_91.m4a,,,
,,,,,,,,,,,,40943,2021-05-03_21h16.35.251,judgeSpeechMusic_20210407_logNormShiftAmp,2020.1.2,Win32,60,,,,,,,,,,,,,,2,8.90731,,0,1,93,243,144,1,stimuli/stim_20210407_power2amp/equal_lnn_AM6Hz_14.m4a,,,
,,,,,,,,,,,,40943,2021-05-03_21h16.35.251,judgeSpeechMusic_20210407_logNormShiftAmp,2020.1.2,Win32,60,,,,,,,,,,,,,,2,6.085085,,0,1,94,244,120,1,stimuli/stim_20210407_power2amp/equal_lnn_AM5.4Hz_73.m4a,,,
,,,,,,,,,,,,40943,2021-05-03_21h16.35.251,judgeSpeechMusic_20210407_logNormShiftAmp,2020.1.2,Win32,60,,,,,,,,,,,,,,1,6.25455,,0,1,95,245,28,1,stimuli/stim_20210407_power2amp/equal_lnn_AM1.2Hz_25.m4a,,,
,,,,,,,,,,,,40943,2021-05-03_21h16.35.251,judgeSpeechMusic_20210407_logNormShiftAmp,2020.1.2,Win32,60,,,,,,,,,,,,,,2,7.48653,,0,1,96,246,55,1,stimuli/stim_20210407_power2amp/equal_lnn_AM2.4Hz_82.m4a,,,
,,,,,,,,,,,,40943,2021-05-03_21h16.35.251,judgeSpeechMusic_20210407_logNormShiftAmp,2020.1.2,Win32,60,,,,,,,,,,,,,,1,6.417605,,0,1,97,247,26,1,stimuli/stim_20210407_power2amp/equal_lnn_AM1.2Hz_10.m4a,,,
,,,,,,,,,,,,40943,2021-05-03_21h16.35.251,judgeSpeechMusic_20210407_logNormShiftAmp,2020.1.2,Win32,60,,,,,,,,,,,,,,2,6.451225,,0,1,98,248,111,1,stimuli/stim_20210407_power2amp/equal_lnn_AM4.8Hz_30.m4a,,,
,,,,,,,,,,,,40943,2021-05-03_21h16.35.251,judgeSpeechMusic_20210407_logNormShiftAmp,2020.1.2,Win32,60,,,,,,,,,,,,,,2,6.384325,,0,1,99,249,53,1,stimuli/stim_20210407_power2amp/equal_lnn_AM2.4Hz_77.m4a,,,
,,,,,,,,,,,,40943,2021-05-03_21h16.35.251,judgeSpeechMusic_20210407_logNormShiftAmp,2020.1.2,Win32,60,,,,,,,,,,,,,,2,6.88347,,0,1,100,250,57,1,stimuli/stim_20210407_power2amp/equal_lnn_AM2.4Hz_46.m4a,,,
,,,,,,,,,,,,40943,2021-05-03_21h16.35.251,judgeSpeechMusic_20210407_logNormShiftAmp,2020.1.2,Win32,60,,,,,,,,,,,,,,2,6.52756,,0,1,101,251,3,1,stimuli/stim_20210407_power2amp/equal_lnn_AM0.6Hz_23.m4a,,,
,,,,,,,,,,,,40943,2021-05-03_21h16.35.251,judgeSpeechMusic_20210407_logNormShiftAmp,2020.1.2,Win32,60,,,,,,,,,,,,,,2,6.289075,,0,1,102,252,75,1,stimuli/stim_20210407_power2amp/equal_lnn_AM3.6Hz_84.m4a,,,
,,,,,,,,,,,,40943,2021-05-03_21h16.35.251,judgeSpeechMusic_20210407_logNormShiftAmp,2020.1.2,Win32,60,,,,,,,,,,,,,,1,5.70151,,0,1,103,253,10,1,stimuli/stim_20210407_power2amp/equal_lnn_AM0.6Hz_48.m4a,,,
,,,,,,,,,,,,40943,2021-05-03_21h16.35.251,judgeSpeechMusic_20210407_logNormShiftAmp,2020.1.2,Win32,60,,,,,,,,,,,,,,2,13.287885,,0,1,104,254,126,1,stimuli/stim_20210407_power2amp/equal_lnn_AM5.4Hz_42.m4a,,,
,,,,,,,,,,,,40943,2021-05-03_21h16.35.251,judgeSpeechMusic_20210407_logNormShiftAmp,2020.1.2,Win32,60,,,,,,,,,,,,,,2,5.864015,,0,1,105,255,147,1,stimuli/stim_20210407_power2amp/equal_lnn_AM6Hz_95.m4a,,,
,,,,,,,,,,,,40943,2021-05-03_21h16.35.251,judgeSpeechMusic_20210407_logNormShiftAmp,2020.1.2,Win32,60,,,,,,,,,,,,,,2,5.685085,,0,1,106,256,77,1,stimuli/stim_20210407_power2amp/equal_lnn_AM3.6Hz_27.m4a,,,
,,,,,,,,,,,,40943,2021-05-03_21h16.35.251,judgeSpeechMusic_20210407_logNormShiftAmp,2020.1.2,Win32,60,,,,,,,,,,,,,,2,5.82478,,0,1,107,257,143,1,stimuli/stim_20210407_power2amp/equal_lnn_AM6Hz_65.m4a,,,
,,,,,,,,,,,,40943,2021-05-03_21h16.35.251,judgeSpeechMusic_20210407_logNormShiftAmp,2020.1.2,Win32,60,,,,,,,,,,,,,,2,5.97083,,0,1,108,258,67,1,stimuli/stim_20210407_power2amp/equal_lnn_AM3Hz_88.m4a,,,
,,,,,,,,,,,,40943,2021-05-03_21h16.35.251,judgeSpeechMusic_20210407_logNormShiftAmp,2020.1.2,Win32,60,,,,,,,,,,,,,,2,5.651615,,0,1,109,259,142,1,stimuli/stim_20210407_power2amp/equal_lnn_AM6Hz_9.m4a,,,
,,,,,,,,,,,,40943,2021-05-03_21h16.35.251,judgeSpeechMusic_20210407_logNormShiftAmp,2020.1.2,Win32,60,,,,,,,,,,,,,,2,6.37941,,0,1,110,260,41,1,stimuli/stim_20210407_power2amp/equal_lnn_AM1.8Hz_81.m4a,,,
,,,,,,,,,,,,40943,2021-05-03_21h16.35.251,judgeSpeechMusic_20210407_logNormShiftAmp,2020.1.2,Win32,60,,,,,,,,,,,,,,2,5.75981,,0,1,111,261,49,1,stimuli/stim_20210407_power2amp/equal_lnn_AM2.4Hz_91.m4a,,,
,,,,,,,,,,,,40943,2021-05-03_21h16.35.251,judgeSpeechMusic_20210407_logNormShiftAmp,2020.1.2,Win32,60,,,,,,,,,,,,,,2,5.679785,,0,1,112,262,125,1,stimuli/stim_20210407_power2amp/equal_lnn_AM5.4Hz_11.m4a,,,
,,,,,,,,,,,,40943,2021-05-03_21h16.35.251,judgeSpeechMusic_20210407_logNormShiftAmp,2020.1.2,Win32,60,,,,,,,,,,,,,,1,5.897405,2,1,1,113,263,34,1,stimuli/stim_20210407_power2amp/equal_lnn_AM1.8Hz_99.m4a,0.824255,,
,,,,,,,,,,,,40943,2021-05-03_21h16.35.251,judgeSpeechMusic_20210407_logNormShiftAmp,2020.1.2,Win32,60,,,,,,,,,,,,,,1,5.76776,,0,1,114,264,18,1,stimuli/stim_20210407_power2amp/equal_lnn_AM1.2Hz_37.m4a,,,
,,,,,,,,,,,,40943,2021-05-03_21h16.35.251,judgeSpeechMusic_20210407_logNormShiftAmp,2020.1.2,Win32,60,,,,,,,,,,,,,,1,5.635785,,0,1,115,265,16,1,stimuli/stim_20210407_power2amp/equal_lnn_AM1.2Hz_13.m4a,,,
,,,,,,,,,,,,40943,2021-05-03_21h16.35.251,judgeSpeechMusic_20210407_logNormShiftAmp,2020.1.2,Win32,60,,,,,,,,,,,,,,1,6.09308,,0,1,116,266,35,1,stimuli/stim_20210407_power2amp/equal_lnn_AM1.8Hz_59.m4a,,,
,,,,,,,,,,,,40943,2021-05-03_21h16.35.251,judgeSpeechMusic_20210407_logNormShiftAmp,2020.1.2,Win32,60,,,,,,,,,,,,,,2,5.693355,,0,1,117,267,43,1,stimuli/stim_20210407_power2amp/equal_lnn_AM1.8Hz_84.m4a,,,
,,,,,,,,,,,,40943,2021-05-03_21h16.35.251,judgeSpeechMusic_20210407_logNormShiftAmp,2020.1.2,Win32,60,,,,,,,,,,,,,,2,5.69501,,0,1,118,268,42,1,stimuli/stim_20210407_power2amp/equal_lnn_AM1.8Hz_9.m4a,,,
,,,,,,,,,,,,40943,2021-05-03_21h16.35.251,judgeSpeechMusic_20210407_logNormShiftAmp,2020.1.2,Win32,60,,,,,,,,,,,,,,2,5.757845,,0,1,119,269,48,1,stimuli/stim_20210407_power2amp/equal_lnn_AM2.4Hz_49.m4a,,,
,,,,,,,,,,,,40943,2021-05-03_21h16.35.251,judgeSpeechMusic_20210407_logNormShiftAmp,2020.1.2,Win32,60,,,,,,,,,,,,,,2,5.96952,,0,1,120,270,46,1,stimuli/stim_20210407_power2amp/equal_lnn_AM2.4Hz_14.m4a,,,
,,,,,,,,,,,,40943,2021-05-03_21h16.35.251,judgeSpeechMusic_20210407_logNormShiftAmp,2020.1.2,Win32,60,,,,,,,,,,,,,,2,7.151405,,0,1,121,271,68,1,stimuli/stim_20210407_power2amp/equal_lnn_AM3Hz_95.m4a,,,
,,,,,,,,,,,,40943,2021-05-03_21h16.35.251,judgeSpeechMusic_20210407_logNormShiftAmp,2020.1.2,Win32,60,,,,,,,,,,,,,,2,6.20144,,0,1,122,272,70,1,stimuli/stim_20210407_power2amp/equal_lnn_AM3Hz_12.m4a,,,
,,,,,,,,,,,,40943,2021-05-03_21h16.35.251,judgeSpeechMusic_20210407_logNormShiftAmp,2020.1.2,Win32,60,,,,,,,,,,,,,,2,8.206115,,0,1,123,273,87,1,stimuli/stim_20210407_power2amp/equal_lnn_AM3.6Hz_22.m4a,,,
,,,,,,,,,,,,40943,2021-05-03_21h16.35.251,judgeSpeechMusic_20210407_logNormShiftAmp,2020.1.2,Win32,60,,,,,,,,,,,,,,2,11.62997,,0,1,124,274,61,1,stimuli/stim_20210407_power2amp/equal_lnn_AM3Hz_71.m4a,,,
,,,,,,,,,,,,40943,2021-05-03_21h16.35.251,judgeSpeechMusic_20210407_logNormShiftAmp,2020.1.2,Win32,60,,,,,,,,,,,,,,2,7.20195,,0,1,125,275,72,1,stimuli/stim_20210407_power2amp/equal_lnn_AM3Hz_47.m4a,,,
,,,,,,,,,,,,40943,2021-05-03_21h16.35.251,judgeSpeechMusic_20210407_logNormShiftAmp,2020.1.2,Win32,60,,,,,,,,,,,,,,2,5.71883,,0,1,126,276,115,1,stimuli/stim_20210407_power2amp/equal_lnn_AM4.8Hz_40.m4a,,,
,,,,,,,,,,,,40943,2021-05-03_21h16.35.251,judgeSpeechMusic_20210407_logNormShiftAmp,2020.1.2,Win32,60,,,,,,,,,,,,,,2,5.672965,,0,1,127,277,56,1,stimuli/stim_20210407_power2amp/equal_lnn_AM2.4Hz_61.m4a,,,
,,,,,,,,,,,,40943,2021-05-03_21h16.35.251,judgeSpeechMusic_20210407_logNormShiftAmp,2020.1.2,Win32,60,,,,,,,,,,,,,,2,5.80904,,0,1,128,278,76,1,stimuli/stim_20210407_power2amp/equal_lnn_AM3.6Hz_23.m4a,,,
,,,,,,,,,,,,40943,2021-05-03_21h16.35.251,judgeSpeechMusic_20210407_logNormShiftAmp,2020.1.2,Win32,60,,,,,,,,,,,,,,2,5.97308,,0,1,129,279,121,1,stimuli/stim_20210407_power2amp/equal_lnn_AM5.4Hz_8.m4a,,,
,,,,,,,,,,,,40943,2021-05-03_21h16.35.251,judgeSpeechMusic_20210407_logNormShiftAmp,2020.1.2,Win32,60,,,,,,,,,,,,,,2,6.109355,,0,1,130,280,71,1,stimuli/stim_20210407_power2amp/equal_lnn_AM3Hz_31.m4a,,,
,,,,,,,,,,,,40943,2021-05-03_21h16.35.251,judgeSpeechMusic_20210407_logNormShiftAmp,2020.1.2,Win32,60,,,,,,,,,,,,,,2,6.46762,,0,1,131,281,64,1,stimuli/stim_20210407_power2amp/equal_lnn_AM3Hz_58.m4a,,,
,,,,,,,,,,,,40943,2021-05-03_21h16.35.251,judgeSpeechMusic_20210407_logNormShiftAmp,2020.1.2,Win32,60,,,,,,,,,,,,,,2,6.06831,,0,1,132,282,89,1,stimuli/stim_20210407_power2amp/equal_lnn_AM3.6Hz_83.m4a,,,
,,,,,,,,,,,,40943,2021-05-03_21h16.35.251,judgeSpeechMusic_20210407_logNormShiftAmp,2020.1.2,Win32,60,,,,,,,,,,,,,,2,5.789735,,0,1,133,283,63,1,stimuli/stim_20210407_power2amp/equal_lnn_AM3Hz_10.m4a,,,
,,,,,,,,,,,,40943,2021-05-03_21h16.35.251,judgeSpeechMusic_20210407_logNormShiftAmp,2020.1.2,Win32,60,,,,,,,,,,,,,,2,6.143895,,0,1,134,284,38,1,stimuli/stim_20210407_power2amp/equal_lnn_AM1.8Hz_1.m4a,,,
,,,,,,,,,,,,40943,2021-05-03_21h16.35.251,judgeSpeechMusic_20210407_logNormShiftAmp,2020.1.2,Win32,60,,,,,,,,,,,,,,1,10.590315,,0,1,135,285,6,1,stimuli/stim_20210407_power2amp/equal_lnn_AM0.6Hz_44.m4a,,,
,,,,,,,,,,,,40943,2021-05-03_21h16.35.251,judgeSpeechMusic_20210407_logNormShiftAmp,2020.1.2,Win32,60,,,,,,,,,,,,,,2,6.12402,,0,1,136,286,134,1,stimuli/stim_20210407_power2amp/equal_lnn_AM5.4Hz_58.m4a,,,
,,,,,,,,,,,,40943,2021-05-03_21h16.35.251,judgeSpeechMusic_20210407_logNormShiftAmp,2020.1.2,Win32,60,,,,,,,,,,,,,,2,5.94276,2,1,1,137,287,36,1,stimuli/stim_20210407_power2amp/equal_lnn_AM1.8Hz_98.m4a,0.769935,,
,,,,,,,,,,,,40943,2021-05-03_21h16.35.251,judgeSpeechMusic_20210407_logNormShiftAmp,2020.1.2,Win32,60,,,,,,,,,,,,,,2,8.69025,,0,1,138,288,139,1,stimuli/stim_20210407_power2amp/equal_lnn_AM6Hz_51.m4a,,,
,,,,,,,,,,,,40943,2021-05-03_21h16.35.251,judgeSpeechMusic_20210407_logNormShiftAmp,2020.1.2,Win32,60,,,,,,,,,,,,,,2,6.99103,,0,1,139,289,81,1,stimuli/stim_20210407_power2amp/equal_lnn_AM3.6Hz_62.m4a,,,
,,,,,,,,,,,,40943,2021-05-03_21h16.35.251,judgeSpeechMusic_20210407_logNormShiftAmp,2020.1.2,Win32,60,,,,,,,,,,,,,,2,6.002825,,0,1,140,290,133,1,stimuli/stim_20210407_power2amp/equal_lnn_AM5.4Hz_41.m4a,,,
,,,,,,,,,,,,40943,2021-05-03_21h16.35.251,judgeSpeechMusic_20210407_logNormShiftAmp,2020.1.2,Win32,60,,,,,,,,,,,,,,2,13.161195,,0,1,141,291,95,1,stimuli/stim_20210407_power2amp/equal_lnn_AM4.2Hz_15.m4a,,,
,,,,,,,,,,,,40943,2021-05-03_21h16.35.251,judgeSpeechMusic_20210407_logNormShiftAmp,2020.1.2,Win32,60,,,,,,,,,,,,,,1,6.755575,,0,1,142,292,25,1,stimuli/stim_20210407_power2amp/equal_lnn_AM1.2Hz_56.m4a,,,
,,,,,,,,,,,,40943,2021-05-03_21h16.35.251,judgeSpeechMusic_20210407_logNormShiftAmp,2020.1.2,Win32,60,,,,,,,,,,,,,,2,6.219875,,0,1,143,293,99,1,stimuli/stim_20210407_power2amp/equal_lnn_AM4.2Hz_57.m4a,,,
,,,,,,,,,,,,40943,2021-05-03_21h16.35.251,judgeSpeechMusic_20210407_logNormShiftAmp,2020.1.2,Win32,60,,,,,,,,,,,,,,2,5.82256,,0,1,144,294,88,1,stimuli/stim_20210407_power2amp/equal_lnn_AM3.6Hz_39.m4a,,,
,,,,,,,,,,,,40943,2021-05-03_21h16.35.251,judgeSpeechMusic_20210407_logNormShiftAmp,2020.1.2,Win32,60,,,,,,,,,,,,,,2,6.946015,,0,1,145,295,117,1,stimuli/stim_20210407_power2amp/equal_lnn_AM4.8Hz_4.m4a,,,
,,,,,,,,,,,,40943,2021-05-03_21h16.35.251,judgeSpeechMusic_20210407_logNormShiftAmp,2020.1.2,Win32,60,,,,,,,,,,,,,,2,5.868405,,0,1,146,296,45,1,stimuli/stim_20210407_power2amp/equal_lnn_AM2.4Hz_43.m4a,,,
,,,,,,,,,,,,40943,2021-05-03_21h16.35.251,judgeSpeechMusic_20210407_logNormShiftAmp,2020.1.2,Win32,60,,,,,,,,,,,,,,2,6.24238,,0,1,147,297,141,1,stimuli/stim_20210407_power2amp/equal_lnn_AM6Hz_61.m4a,,,
,,,,,,,,,,,,40943,2021-05-03_21h16.35.251,judgeSpeechMusic_20210407_logNormShiftAmp,2020.1.2,Win32,60,,,,,,,,,,,,,,2,6.0766,,0,1,148,298,101,1,stimuli/stim_20210407_power2amp/equal_lnn_AM4.2Hz_59.m4a,,,
,,,,,,,,,,,,40943,2021-05-03_21h16.35.251,judgeSpeechMusic_20210407_logNormShiftAmp,2020.1.2,Win32,60,,,,,,,,,,,,,,2,6.478735,,0,1,149,299,51,1,stimuli/stim_20210407_power2amp/equal_lnn_AM2.4Hz_66.m4a,,,
,,,,,,,,,,,,40943,2021-05-03_21h16.35.251,judgeSpeechMusic_20210407_logNormShiftAmp,2020.1.2,Win32,60,,,,,,,,,,,,,,,,,,,,,,,,,space,7.659285
