volAdjustRep.thisRepN,volAdjustRep.thisTrialN,volAdjustRep.thisN,volAdjustRep.thisIndex,volAdjustRep.ran,participant,date,expName,psychopyVersion,OS,frameRate,headphoneResponse.keys,headphoneResponse.corr,headphoneResponse.rt,headphoneTrial.thisRepN,headphoneTrial.thisTrialN,headphoneTrial.thisN,headphoneTrial.thisIndex,headphoneTrial.ran,headphone_sound1,headphone_sound2,headphone_sound3,corrAns,trainSlider.response,trainSlider.rt,beepTrainResponse.keys,beepTrainResponse.corr,trainingTrials.thisRepN,trainingTrials.thisTrialN,trainingTrials.thisN,trainingTrials.thisIndex,trainingTrials.ran,trainAudioFile,beepTrainResponse.rt,readyReal_resp.keys,readyReal_resp.rt,ratingSlider.response,ratingSlider.rt,beepResp.keys,beepResp.corr,expTrials.thisRepN,expTrials.thisTrialN,expTrials.thisN,expTrials.thisIndex,expTrials.ran,audioFile,beepResp.rt,end_resp.keys,end_resp.rt
0,0,0,0,1,41001,2021-05-02_15h36.48.248,judgeSpeechMusic_20210407_logNormShiftAmp,2020.1.2,Linux x86_64,60,,,,,,,,,,,,,,,,,,,,,,,,,,,,,,,,,,,,,,
,,,,,41001,2021-05-02_15h36.48.248,judgeSpeechMusic_20210407_logNormShiftAmp,2020.1.2,Linux x86_64,60,1,1,0.969905,0,0,0,4,1,stimuli/screen_quiet.wav,stimuli/screen_antiphase.wav,stimuli/screen_origin.wav,1,,,,,,,,,,,,,,,,,,,,,,,,,,
,,,,,41001,2021-05-02_15h36.48.248,judgeSpeechMusic_20210407_logNormShiftAmp,2020.1.2,Linux x86_64,60,2,1,0.69174,0,1,1,1,1,stimuli/screen_antiphase.wav,stimuli/screen_quiet.wav,stimuli/screen_origin.wav,2,,,,,,,,,,,,,,,,,,,,,,,,,,
,,,,,41001,2021-05-02_15h36.48.248,judgeSpeechMusic_20210407_logNormShiftAmp,2020.1.2,Linux x86_64,60,3,1,0.454025,0,2,2,0,1,stimuli/screen_antiphase.wav,stimuli/screen_origin.wav,stimuli/screen_quiet.wav,3,,,,,,,,,,,,,,,,,,,,,,,,,,
,,,,,41001,2021-05-02_15h36.48.248,judgeSpeechMusic_20210407_logNormShiftAmp,2020.1.2,Linux x86_64,60,3,1,0.53942,0,3,3,2,1,stimuli/screen_origin.wav,stimuli/screen_antiphase.wav,stimuli/screen_quiet.wav,3,,,,,,,,,,,,,,,,,,,,,,,,,,
,,,,,41001,2021-05-02_15h36.48.248,judgeSpeechMusic_20210407_logNormShiftAmp,2020.1.2,Linux x86_64,60,1,1,0.66842,0,4,4,5,1,stimuli/screen_quiet.wav,stimuli/screen_origin.wav,stimuli/screen_antiphase.wav,1,,,,,,,,,,,,,,,,,,,,,,,,,,
,,,,,41001,2021-05-02_15h36.48.248,judgeSpeechMusic_20210407_logNormShiftAmp,2020.1.2,Linux x86_64,60,2,1,0.536385,0,5,5,3,1,stimuli/screen_origin.wav,stimuli/screen_quiet.wav,stimuli/screen_antiphase.wav,2,,,,,,,,,,,,,,,,,,,,,,,,,,
,,,,,41001,2021-05-02_15h36.48.248,judgeSpeechMusic_20210407_logNormShiftAmp,2020.1.2,Linux x86_64,60,,,,,,,,,,,,,2,13.033295,,0,0,0,0,0,1,stimuli/stim_20210407_power2amp/equal_lnn_AM_training1.5Hz.m4a,,,,,,,,,,,,,,,,
,,,,,41001,2021-05-02_15h36.48.248,judgeSpeechMusic_20210407_logNormShiftAmp,2020.1.2,Linux x86_64,60,,,,,,,,,,,,,2,7.31712,,0,0,1,1,1,1,stimuli/stim_20210407_power2amp/equal_lnn_AM_training2.7Hz.m4a,,,,,,,,,,,,,,,,
,,,,,41001,2021-05-02_15h36.48.248,judgeSpeechMusic_20210407_logNormShiftAmp,2020.1.2,Linux x86_64,60,,,,,,,,,,,,,2,7.348565,2,1,0,2,2,2,1,stimuli/stim_20210407_power2amp/equal_lnn_AM_training3.9Hz.m4a,1.831885,,,,,,,,,,,,,,,
,,,,,41001,2021-05-02_15h36.48.248,judgeSpeechMusic_20210407_logNormShiftAmp,2020.1.2,Linux x86_64,60,,,,,,,,,,,,,2,13.70918,,0,0,3,3,3,1,stimuli/stim_20210407_power2amp/equal_lnn_AM_training5.1Hz.m4a,,,,,,,,,,,,,,,,
,,,,,41001,2021-05-02_15h36.48.248,judgeSpeechMusic_20210407_logNormShiftAmp,2020.1.2,Linux x86_64,60,,,,,,,,,,,,,1,8.85851,,0,1,0,4,2,1,stimuli/stim_20210407_power2amp/equal_lnn_AM_training3.9Hz.m4a,,,,,,,,,,,,,,,,
,,,,,41001,2021-05-02_15h36.48.248,judgeSpeechMusic_20210407_logNormShiftAmp,2020.1.2,Linux x86_64,60,,,,,,,,,,,,,1,7.58697,,0,1,1,5,0,1,stimuli/stim_20210407_power2amp/equal_lnn_AM_training1.5Hz.m4a,,,,,,,,,,,,,,,,
,,,,,41001,2021-05-02_15h36.48.248,judgeSpeechMusic_20210407_logNormShiftAmp,2020.1.2,Linux x86_64,60,,,,,,,,,,,,,1,5.90932,3,1,1,2,6,1,1,stimuli/stim_20210407_power2amp/equal_lnn_AM_training2.7Hz.m4a,1.29936,,,,,,,,,,,,,,,
,,,,,41001,2021-05-02_15h36.48.248,judgeSpeechMusic_20210407_logNormShiftAmp,2020.1.2,Linux x86_64,60,,,,,,,,,,,,,2,9.387265,,0,1,3,7,3,1,stimuli/stim_20210407_power2amp/equal_lnn_AM_training5.1Hz.m4a,,,,,,,,,,,,,,,,
,,,,,41001,2021-05-02_15h36.48.248,judgeSpeechMusic_20210407_logNormShiftAmp,2020.1.2,Linux x86_64,60,,,,,,,,,,,,,,,,,,,,,,,,space,3.804395,1,10.98642,,0,0,0,0,141,1,stimuli/stim_20210407_power2amp/equal_lnn_AM6Hz_79.m4a,,,
,,,,,41001,2021-05-02_15h36.48.248,judgeSpeechMusic_20210407_logNormShiftAmp,2020.1.2,Linux x86_64,60,,,,,,,,,,,,,,,,,,,,,,,,,,1,6.3242,,0,0,1,1,128,1,stimuli/stim_20210407_power2amp/equal_lnn_AM5.4Hz_90.m4a,,,
,,,,,41001,2021-05-02_15h36.48.248,judgeSpeechMusic_20210407_logNormShiftAmp,2020.1.2,Linux x86_64,60,,,,,,,,,,,,,,,,,,,,,,,,,,1,7.90308,,0,0,2,2,31,1,stimuli/stim_20210407_power2amp/equal_lnn_AM1.8Hz_33.m4a,,,
,,,,,41001,2021-05-02_15h36.48.248,judgeSpeechMusic_20210407_logNormShiftAmp,2020.1.2,Linux x86_64,60,,,,,,,,,,,,,,,,,,,,,,,,,,2,5.80216,,0,0,3,3,91,1,stimuli/stim_20210407_power2amp/equal_lnn_AM4.2Hz_55.m4a,,,
,,,,,41001,2021-05-02_15h36.48.248,judgeSpeechMusic_20210407_logNormShiftAmp,2020.1.2,Linux x86_64,60,,,,,,,,,,,,,,,,,,,,,,,,,,2,5.72136,,0,0,4,4,99,1,stimuli/stim_20210407_power2amp/equal_lnn_AM4.2Hz_99.m4a,,,
,,,,,41001,2021-05-02_15h36.48.248,judgeSpeechMusic_20210407_logNormShiftAmp,2020.1.2,Linux x86_64,60,,,,,,,,,,,,,,,,,,,,,,,,,,1,5.805865,,0,0,5,5,9,1,stimuli/stim_20210407_power2amp/equal_lnn_AM0.6Hz_14.m4a,,,
,,,,,41001,2021-05-02_15h36.48.248,judgeSpeechMusic_20210407_logNormShiftAmp,2020.1.2,Linux x86_64,60,,,,,,,,,,,,,,,,,,,,,,,,,,1,6.58614,,0,0,6,6,46,1,stimuli/stim_20210407_power2amp/equal_lnn_AM2.4Hz_82.m4a,,,
,,,,,41001,2021-05-02_15h36.48.248,judgeSpeechMusic_20210407_logNormShiftAmp,2020.1.2,Linux x86_64,60,,,,,,,,,,,,,,,,,,,,,,,,,,1,6.54915,,0,0,7,7,12,1,stimuli/stim_20210407_power2amp/equal_lnn_AM0.6Hz_7.m4a,,,
,,,,,41001,2021-05-02_15h36.48.248,judgeSpeechMusic_20210407_logNormShiftAmp,2020.1.2,Linux x86_64,60,,,,,,,,,,,,,,,,,,,,,,,,,,1,6.196455,,0,0,8,8,4,1,stimuli/stim_20210407_power2amp/equal_lnn_AM0.6Hz_50.m4a,,,
,,,,,41001,2021-05-02_15h36.48.248,judgeSpeechMusic_20210407_logNormShiftAmp,2020.1.2,Linux x86_64,60,,,,,,,,,,,,,,,,,,,,,,,,,,2,9.22984,,0,0,9,9,132,1,stimuli/stim_20210407_power2amp/equal_lnn_AM5.4Hz_73.m4a,,,
,,,,,41001,2021-05-02_15h36.48.248,judgeSpeechMusic_20210407_logNormShiftAmp,2020.1.2,Linux x86_64,60,,,,,,,,,,,,,,,,,,,,,,,,,,2,5.724205,,0,0,10,10,63,1,stimuli/stim_20210407_power2amp/equal_lnn_AM3Hz_63.m4a,,,
,,,,,41001,2021-05-02_15h36.48.248,judgeSpeechMusic_20210407_logNormShiftAmp,2020.1.2,Linux x86_64,60,,,,,,,,,,,,,,,,,,,,,,,,,,2,5.599285,,0,0,11,11,65,1,stimuli/stim_20210407_power2amp/equal_lnn_AM3Hz_79.m4a,,,
,,,,,41001,2021-05-02_15h36.48.248,judgeSpeechMusic_20210407_logNormShiftAmp,2020.1.2,Linux x86_64,60,,,,,,,,,,,,,,,,,,,,,,,,,,1,6.264325,,0,0,12,12,15,1,stimuli/stim_20210407_power2amp/equal_lnn_AM1.2Hz_60.m4a,,,
,,,,,41001,2021-05-02_15h36.48.248,judgeSpeechMusic_20210407_logNormShiftAmp,2020.1.2,Linux x86_64,60,,,,,,,,,,,,,,,,,,,,,,,,,,1,6.00862,,0,0,13,13,44,1,stimuli/stim_20210407_power2amp/equal_lnn_AM1.8Hz_91.m4a,,,
,,,,,41001,2021-05-02_15h36.48.248,judgeSpeechMusic_20210407_logNormShiftAmp,2020.1.2,Linux x86_64,60,,,,,,,,,,,,,,,,,,,,,,,,,,1,6.94261,,0,0,14,14,85,1,stimuli/stim_20210407_power2amp/equal_lnn_AM3.6Hz_69.m4a,,,
,,,,,41001,2021-05-02_15h36.48.248,judgeSpeechMusic_20210407_logNormShiftAmp,2020.1.2,Linux x86_64,60,,,,,,,,,,,,,,,,,,,,,,,,,,1,5.809545,,0,0,15,15,34,1,stimuli/stim_20210407_power2amp/equal_lnn_AM1.8Hz_17.m4a,,,
,,,,,41001,2021-05-02_15h36.48.248,judgeSpeechMusic_20210407_logNormShiftAmp,2020.1.2,Linux x86_64,60,,,,,,,,,,,,,,,,,,,,,,,,,,1,5.975775,,0,0,16,16,97,1,stimuli/stim_20210407_power2amp/equal_lnn_AM4.2Hz_95.m4a,,,
,,,,,41001,2021-05-02_15h36.48.248,judgeSpeechMusic_20210407_logNormShiftAmp,2020.1.2,Linux x86_64,60,,,,,,,,,,,,,,,,,,,,,,,,,,1,6.107985,,0,0,17,17,23,1,stimuli/stim_20210407_power2amp/equal_lnn_AM1.2Hz_41.m4a,,,
,,,,,41001,2021-05-02_15h36.48.248,judgeSpeechMusic_20210407_logNormShiftAmp,2020.1.2,Linux x86_64,60,,,,,,,,,,,,,,,,,,,,,,,,,,1,5.732555,,0,0,18,18,144,1,stimuli/stim_20210407_power2amp/equal_lnn_AM6Hz_89.m4a,,,
,,,,,41001,2021-05-02_15h36.48.248,judgeSpeechMusic_20210407_logNormShiftAmp,2020.1.2,Linux x86_64,60,,,,,,,,,,,,,,,,,,,,,,,,,,1,5.80878,,0,0,19,19,140,1,stimuli/stim_20210407_power2amp/equal_lnn_AM6Hz_100.m4a,,,
,,,,,41001,2021-05-02_15h36.48.248,judgeSpeechMusic_20210407_logNormShiftAmp,2020.1.2,Linux x86_64,60,,,,,,,,,,,,,,,,,,,,,,,,,,1,5.741265,,0,0,20,20,56,1,stimuli/stim_20210407_power2amp/equal_lnn_AM2.4Hz_51.m4a,,,
,,,,,41001,2021-05-02_15h36.48.248,judgeSpeechMusic_20210407_logNormShiftAmp,2020.1.2,Linux x86_64,60,,,,,,,,,,,,,,,,,,,,,,,,,,1,6.72481,,0,0,21,21,75,1,stimuli/stim_20210407_power2amp/equal_lnn_AM3.6Hz_82.m4a,,,
,,,,,41001,2021-05-02_15h36.48.248,judgeSpeechMusic_20210407_logNormShiftAmp,2020.1.2,Linux x86_64,60,,,,,,,,,,,,,,,,,,,,,,,,,,1,5.795125,,0,0,22,22,120,1,stimuli/stim_20210407_power2amp/equal_lnn_AM5.4Hz_86.m4a,,,
,,,,,41001,2021-05-02_15h36.48.248,judgeSpeechMusic_20210407_logNormShiftAmp,2020.1.2,Linux x86_64,60,,,,,,,,,,,,,,,,,,,,,,,,,,2,11.59633,,0,0,23,23,27,1,stimuli/stim_20210407_power2amp/equal_lnn_AM1.2Hz_43.m4a,,,
,,,,,41001,2021-05-02_15h36.48.248,judgeSpeechMusic_20210407_logNormShiftAmp,2020.1.2,Linux x86_64,60,,,,,,,,,,,,,,,,,,,,,,,,,,1,6.62378,,0,0,24,24,121,1,stimuli/stim_20210407_power2amp/equal_lnn_AM5.4Hz_66.m4a,,,
,,,,,41001,2021-05-02_15h36.48.248,judgeSpeechMusic_20210407_logNormShiftAmp,2020.1.2,Linux x86_64,60,,,,,,,,,,,,,,,,,,,,,,,,,,1,7.540415,,0,0,25,25,145,1,stimuli/stim_20210407_power2amp/equal_lnn_AM6Hz_61.m4a,,,
,,,,,41001,2021-05-02_15h36.48.248,judgeSpeechMusic_20210407_logNormShiftAmp,2020.1.2,Linux x86_64,60,,,,,,,,,,,,,,,,,,,,,,,,,,2,5.695045,,0,0,26,26,67,1,stimuli/stim_20210407_power2amp/equal_lnn_AM3Hz_35.m4a,,,
,,,,,41001,2021-05-02_15h36.48.248,judgeSpeechMusic_20210407_logNormShiftAmp,2020.1.2,Linux x86_64,60,,,,,,,,,,,,,,,,,,,,,,,,,,2,10.630615,,0,0,27,27,118,1,stimuli/stim_20210407_power2amp/equal_lnn_AM4.8Hz_44.m4a,,,
,,,,,41001,2021-05-02_15h36.48.248,judgeSpeechMusic_20210407_logNormShiftAmp,2020.1.2,Linux x86_64,60,,,,,,,,,,,,,,,,,,,,,,,,,,1,10.64743,,0,0,28,28,45,1,stimuli/stim_20210407_power2amp/equal_lnn_AM2.4Hz_20.m4a,,,
,,,,,41001,2021-05-02_15h36.48.248,judgeSpeechMusic_20210407_logNormShiftAmp,2020.1.2,Linux x86_64,60,,,,,,,,,,,,,,,,,,,,,,,,,,1,7.55594,,0,0,29,29,130,1,stimuli/stim_20210407_power2amp/equal_lnn_AM5.4Hz_78.m4a,,,
,,,,,41001,2021-05-02_15h36.48.248,judgeSpeechMusic_20210407_logNormShiftAmp,2020.1.2,Linux x86_64,60,,,,,,,,,,,,,,,,,,,,,,,,,,2,10.20603,,0,0,30,30,29,1,stimuli/stim_20210407_power2amp/equal_lnn_AM1.2Hz_97.m4a,,,
,,,,,41001,2021-05-02_15h36.48.248,judgeSpeechMusic_20210407_logNormShiftAmp,2020.1.2,Linux x86_64,60,,,,,,,,,,,,,,,,,,,,,,,,,,1,5.73921,,0,0,31,31,115,1,stimuli/stim_20210407_power2amp/equal_lnn_AM4.8Hz_61.m4a,,,
,,,,,41001,2021-05-02_15h36.48.248,judgeSpeechMusic_20210407_logNormShiftAmp,2020.1.2,Linux x86_64,60,,,,,,,,,,,,,,,,,,,,,,,,,,1,7.00459,,0,0,32,32,10,1,stimuli/stim_20210407_power2amp/equal_lnn_AM0.6Hz_49.m4a,,,
,,,,,41001,2021-05-02_15h36.48.248,judgeSpeechMusic_20210407_logNormShiftAmp,2020.1.2,Linux x86_64,60,,,,,,,,,,,,,,,,,,,,,,,,,,2,5.7589,,0,0,33,33,66,1,stimuli/stim_20210407_power2amp/equal_lnn_AM3Hz_54.m4a,,,
,,,,,41001,2021-05-02_15h36.48.248,judgeSpeechMusic_20210407_logNormShiftAmp,2020.1.2,Linux x86_64,60,,,,,,,,,,,,,,,,,,,,,,,,,,1,6.076215,,0,0,34,34,122,1,stimuli/stim_20210407_power2amp/equal_lnn_AM5.4Hz_23.m4a,,,
,,,,,41001,2021-05-02_15h36.48.248,judgeSpeechMusic_20210407_logNormShiftAmp,2020.1.2,Linux x86_64,60,,,,,,,,,,,,,,,,,,,,,,,,,,1,6.010855,,0,0,35,35,137,1,stimuli/stim_20210407_power2amp/equal_lnn_AM6Hz_43.m4a,,,
,,,,,41001,2021-05-02_15h36.48.248,judgeSpeechMusic_20210407_logNormShiftAmp,2020.1.2,Linux x86_64,60,,,,,,,,,,,,,,,,,,,,,,,,,,2,5.99802,,0,0,36,36,33,1,stimuli/stim_20210407_power2amp/equal_lnn_AM1.8Hz_23.m4a,,,
,,,,,41001,2021-05-02_15h36.48.248,judgeSpeechMusic_20210407_logNormShiftAmp,2020.1.2,Linux x86_64,60,,,,,,,,,,,,,,,,,,,,,,,,,,2,8.89144,,0,0,37,37,58,1,stimuli/stim_20210407_power2amp/equal_lnn_AM2.4Hz_53.m4a,,,
,,,,,41001,2021-05-02_15h36.48.248,judgeSpeechMusic_20210407_logNormShiftAmp,2020.1.2,Linux x86_64,60,,,,,,,,,,,,,,,,,,,,,,,,,,2,8.03448,,0,0,38,38,18,1,stimuli/stim_20210407_power2amp/equal_lnn_AM1.2Hz_33.m4a,,,
,,,,,41001,2021-05-02_15h36.48.248,judgeSpeechMusic_20210407_logNormShiftAmp,2020.1.2,Linux x86_64,60,,,,,,,,,,,,,,,,,,,,,,,,,,2,9.100235,,0,0,39,39,38,1,stimuli/stim_20210407_power2amp/equal_lnn_AM1.8Hz_40.m4a,,,
,,,,,41001,2021-05-02_15h36.48.248,judgeSpeechMusic_20210407_logNormShiftAmp,2020.1.2,Linux x86_64,60,,,,,,,,,,,,,,,,,,,,,,,,,,2,7.633745,3,1,0,40,40,42,1,stimuli/stim_20210407_power2amp/equal_lnn_AM1.8Hz_75.m4a,1.7839,,
,,,,,41001,2021-05-02_15h36.48.248,judgeSpeechMusic_20210407_logNormShiftAmp,2020.1.2,Linux x86_64,60,,,,,,,,,,,,,,,,,,,,,,,,,,2,10.701675,,0,0,41,41,3,1,stimuli/stim_20210407_power2amp/equal_lnn_AM0.6Hz_11.m4a,,,
,,,,,41001,2021-05-02_15h36.48.248,judgeSpeechMusic_20210407_logNormShiftAmp,2020.1.2,Linux x86_64,60,,,,,,,,,,,,,,,,,,,,,,,,,,1,5.98406,,0,0,42,42,92,1,stimuli/stim_20210407_power2amp/equal_lnn_AM4.2Hz_81.m4a,,,
,,,,,41001,2021-05-02_15h36.48.248,judgeSpeechMusic_20210407_logNormShiftAmp,2020.1.2,Linux x86_64,60,,,,,,,,,,,,,,,,,,,,,,,,,,1,6.48335,,0,0,43,43,109,1,stimuli/stim_20210407_power2amp/equal_lnn_AM4.8Hz_65.m4a,,,
,,,,,41001,2021-05-02_15h36.48.248,judgeSpeechMusic_20210407_logNormShiftAmp,2020.1.2,Linux x86_64,60,,,,,,,,,,,,,,,,,,,,,,,,,,1,7.388835,,0,0,44,44,37,1,stimuli/stim_20210407_power2amp/equal_lnn_AM1.8Hz_52.m4a,,,
,,,,,41001,2021-05-02_15h36.48.248,judgeSpeechMusic_20210407_logNormShiftAmp,2020.1.2,Linux x86_64,60,,,,,,,,,,,,,,,,,,,,,,,,,,1,6.066915,,0,0,45,45,113,1,stimuli/stim_20210407_power2amp/equal_lnn_AM4.8Hz_70.m4a,,,
,,,,,41001,2021-05-02_15h36.48.248,judgeSpeechMusic_20210407_logNormShiftAmp,2020.1.2,Linux x86_64,60,,,,,,,,,,,,,,,,,,,,,,,,,,1,6.398645,,0,0,46,46,28,1,stimuli/stim_20210407_power2amp/equal_lnn_AM1.2Hz_74.m4a,,,
,,,,,41001,2021-05-02_15h36.48.248,judgeSpeechMusic_20210407_logNormShiftAmp,2020.1.2,Linux x86_64,60,,,,,,,,,,,,,,,,,,,,,,,,,,2,6.51486,,0,0,47,47,26,1,stimuli/stim_20210407_power2amp/equal_lnn_AM1.2Hz_85.m4a,,,
,,,,,41001,2021-05-02_15h36.48.248,judgeSpeechMusic_20210407_logNormShiftAmp,2020.1.2,Linux x86_64,60,,,,,,,,,,,,,,,,,,,,,,,,,,1,5.735245,,0,0,48,48,125,1,stimuli/stim_20210407_power2amp/equal_lnn_AM5.4Hz_37.m4a,,,
,,,,,41001,2021-05-02_15h36.48.248,judgeSpeechMusic_20210407_logNormShiftAmp,2020.1.2,Linux x86_64,60,,,,,,,,,,,,,,,,,,,,,,,,,,1,6.19066,,0,0,49,49,124,1,stimuli/stim_20210407_power2amp/equal_lnn_AM5.4Hz_72.m4a,,,
,,,,,41001,2021-05-02_15h36.48.248,judgeSpeechMusic_20210407_logNormShiftAmp,2020.1.2,Linux x86_64,60,,,,,,,,,,,,,,,,,,,,,,,,,,2,5.73761,,0,0,50,50,50,1,stimuli/stim_20210407_power2amp/equal_lnn_AM2.4Hz_35.m4a,,,
,,,,,41001,2021-05-02_15h36.48.248,judgeSpeechMusic_20210407_logNormShiftAmp,2020.1.2,Linux x86_64,60,,,,,,,,,,,,,,,,,,,,,,,,,,1,6.61237,,0,0,51,51,110,1,stimuli/stim_20210407_power2amp/equal_lnn_AM4.8Hz_13.m4a,,,
,,,,,41001,2021-05-02_15h36.48.248,judgeSpeechMusic_20210407_logNormShiftAmp,2020.1.2,Linux x86_64,60,,,,,,,,,,,,,,,,,,,,,,,,,,1,6.65962,,0,0,52,52,102,1,stimuli/stim_20210407_power2amp/equal_lnn_AM4.2Hz_45.m4a,,,
,,,,,41001,2021-05-02_15h36.48.248,judgeSpeechMusic_20210407_logNormShiftAmp,2020.1.2,Linux x86_64,60,,,,,,,,,,,,,,,,,,,,,,,,,,2,6.28039,,0,0,53,53,59,1,stimuli/stim_20210407_power2amp/equal_lnn_AM2.4Hz_74.m4a,,,
,,,,,41001,2021-05-02_15h36.48.248,judgeSpeechMusic_20210407_logNormShiftAmp,2020.1.2,Linux x86_64,60,,,,,,,,,,,,,,,,,,,,,,,,,,2,5.73254,,0,0,54,54,74,1,stimuli/stim_20210407_power2amp/equal_lnn_AM3Hz_61.m4a,,,
,,,,,41001,2021-05-02_15h36.48.248,judgeSpeechMusic_20210407_logNormShiftAmp,2020.1.2,Linux x86_64,60,,,,,,,,,,,,,,,,,,,,,,,,,,1,5.76281,,0,0,55,55,72,1,stimuli/stim_20210407_power2amp/equal_lnn_AM3Hz_13.m4a,,,
,,,,,41001,2021-05-02_15h36.48.248,judgeSpeechMusic_20210407_logNormShiftAmp,2020.1.2,Linux x86_64,60,,,,,,,,,,,,,,,,,,,,,,,,,,1,5.864405,,0,0,56,56,88,1,stimuli/stim_20210407_power2amp/equal_lnn_AM3.6Hz_43.m4a,,,
,,,,,41001,2021-05-02_15h36.48.248,judgeSpeechMusic_20210407_logNormShiftAmp,2020.1.2,Linux x86_64,60,,,,,,,,,,,,,,,,,,,,,,,,,,1,7.463075,,0,0,57,57,147,1,stimuli/stim_20210407_power2amp/equal_lnn_AM6Hz_27.m4a,,,
,,,,,41001,2021-05-02_15h36.48.248,judgeSpeechMusic_20210407_logNormShiftAmp,2020.1.2,Linux x86_64,60,,,,,,,,,,,,,,,,,,,,,,,,,,1,6.41387,,0,0,58,58,83,1,stimuli/stim_20210407_power2amp/equal_lnn_AM3.6Hz_95.m4a,,,
,,,,,41001,2021-05-02_15h36.48.248,judgeSpeechMusic_20210407_logNormShiftAmp,2020.1.2,Linux x86_64,60,,,,,,,,,,,,,,,,,,,,,,,,,,1,5.981375,,0,0,59,59,57,1,stimuli/stim_20210407_power2amp/equal_lnn_AM2.4Hz_63.m4a,,,
,,,,,41001,2021-05-02_15h36.48.248,judgeSpeechMusic_20210407_logNormShiftAmp,2020.1.2,Linux x86_64,60,,,,,,,,,,,,,,,,,,,,,,,,,,1,10.53665,4,1,0,60,60,104,1,stimuli/stim_20210407_power2amp/equal_lnn_AM4.2Hz_83.m4a,2.944865,,
,,,,,41001,2021-05-02_15h36.48.248,judgeSpeechMusic_20210407_logNormShiftAmp,2020.1.2,Linux x86_64,60,,,,,,,,,,,,,,,,,,,,,,,,,,1,6.552345,,0,0,61,61,98,1,stimuli/stim_20210407_power2amp/equal_lnn_AM4.2Hz_22.m4a,,,
,,,,,41001,2021-05-02_15h36.48.248,judgeSpeechMusic_20210407_logNormShiftAmp,2020.1.2,Linux x86_64,60,,,,,,,,,,,,,,,,,,,,,,,,,,2,6.05321,,0,0,62,62,51,1,stimuli/stim_20210407_power2amp/equal_lnn_AM2.4Hz_64.m4a,,,
,,,,,41001,2021-05-02_15h36.48.248,judgeSpeechMusic_20210407_logNormShiftAmp,2020.1.2,Linux x86_64,60,,,,,,,,,,,,,,,,,,,,,,,,,,1,5.700605,,0,0,63,63,90,1,stimuli/stim_20210407_power2amp/equal_lnn_AM4.2Hz_32.m4a,,,
,,,,,41001,2021-05-02_15h36.48.248,judgeSpeechMusic_20210407_logNormShiftAmp,2020.1.2,Linux x86_64,60,,,,,,,,,,,,,,,,,,,,,,,,,,1,6.51186,,0,0,64,64,36,1,stimuli/stim_20210407_power2amp/equal_lnn_AM1.8Hz_89.m4a,,,
,,,,,41001,2021-05-02_15h36.48.248,judgeSpeechMusic_20210407_logNormShiftAmp,2020.1.2,Linux x86_64,60,,,,,,,,,,,,,,,,,,,,,,,,,,1,6.112415,,0,0,65,65,138,1,stimuli/stim_20210407_power2amp/equal_lnn_AM6Hz_90.m4a,,,
,,,,,41001,2021-05-02_15h36.48.248,judgeSpeechMusic_20210407_logNormShiftAmp,2020.1.2,Linux x86_64,60,,,,,,,,,,,,,,,,,,,,,,,,,,1,5.814775,,0,0,66,66,131,1,stimuli/stim_20210407_power2amp/equal_lnn_AM5.4Hz_71.m4a,,,
,,,,,41001,2021-05-02_15h36.48.248,judgeSpeechMusic_20210407_logNormShiftAmp,2020.1.2,Linux x86_64,60,,,,,,,,,,,,,,,,,,,,,,,,,,1,5.665465,,0,0,67,67,49,1,stimuli/stim_20210407_power2amp/equal_lnn_AM2.4Hz_46.m4a,,,
,,,,,41001,2021-05-02_15h36.48.248,judgeSpeechMusic_20210407_logNormShiftAmp,2020.1.2,Linux x86_64,60,,,,,,,,,,,,,,,,,,,,,,,,,,1,7.393435,,0,0,68,68,114,1,stimuli/stim_20210407_power2amp/equal_lnn_AM4.8Hz_96.m4a,,,
,,,,,41001,2021-05-02_15h36.48.248,judgeSpeechMusic_20210407_logNormShiftAmp,2020.1.2,Linux x86_64,60,,,,,,,,,,,,,,,,,,,,,,,,,,1,5.96471,,0,0,69,69,53,1,stimuli/stim_20210407_power2amp/equal_lnn_AM2.4Hz_66.m4a,,,
,,,,,41001,2021-05-02_15h36.48.248,judgeSpeechMusic_20210407_logNormShiftAmp,2020.1.2,Linux x86_64,60,,,,,,,,,,,,,,,,,,,,,,,,,,1,6.085775,,0,0,70,70,70,1,stimuli/stim_20210407_power2amp/equal_lnn_AM3Hz_9.m4a,,,
,,,,,41001,2021-05-02_15h36.48.248,judgeSpeechMusic_20210407_logNormShiftAmp,2020.1.2,Linux x86_64,60,,,,,,,,,,,,,,,,,,,,,,,,,,1,6.348795,,0,0,71,71,134,1,stimuli/stim_20210407_power2amp/equal_lnn_AM5.4Hz_38.m4a,,,
,,,,,41001,2021-05-02_15h36.48.248,judgeSpeechMusic_20210407_logNormShiftAmp,2020.1.2,Linux x86_64,60,,,,,,,,,,,,,,,,,,,,,,,,,,2,6.104995,,0,0,72,72,11,1,stimuli/stim_20210407_power2amp/equal_lnn_AM0.6Hz_84.m4a,,,
,,,,,41001,2021-05-02_15h36.48.248,judgeSpeechMusic_20210407_logNormShiftAmp,2020.1.2,Linux x86_64,60,,,,,,,,,,,,,,,,,,,,,,,,,,1,7.16158,,0,0,73,73,16,1,stimuli/stim_20210407_power2amp/equal_lnn_AM1.2Hz_57.m4a,,,
,,,,,41001,2021-05-02_15h36.48.248,judgeSpeechMusic_20210407_logNormShiftAmp,2020.1.2,Linux x86_64,60,,,,,,,,,,,,,,,,,,,,,,,,,,1,5.808955,,0,0,74,74,136,1,stimuli/stim_20210407_power2amp/equal_lnn_AM6Hz_11.m4a,,,
,,,,,41001,2021-05-02_15h36.48.248,judgeSpeechMusic_20210407_logNormShiftAmp,2020.1.2,Linux x86_64,60,,,,,,,,,,,,,,,,,,,,,,,,,,1,6.001645,,0,0,75,75,146,1,stimuli/stim_20210407_power2amp/equal_lnn_AM6Hz_2.m4a,,,
,,,,,41001,2021-05-02_15h36.48.248,judgeSpeechMusic_20210407_logNormShiftAmp,2020.1.2,Linux x86_64,60,,,,,,,,,,,,,,,,,,,,,,,,,,1,6.083045,,0,0,76,76,40,1,stimuli/stim_20210407_power2amp/equal_lnn_AM1.8Hz_43.m4a,,,
,,,,,41001,2021-05-02_15h36.48.248,judgeSpeechMusic_20210407_logNormShiftAmp,2020.1.2,Linux x86_64,60,,,,,,,,,,,,,,,,,,,,,,,,,,2,5.814055,,0,0,77,77,94,1,stimuli/stim_20210407_power2amp/equal_lnn_AM4.2Hz_59.m4a,,,
,,,,,41001,2021-05-02_15h36.48.248,judgeSpeechMusic_20210407_logNormShiftAmp,2020.1.2,Linux x86_64,60,,,,,,,,,,,,,,,,,,,,,,,,,,1,6.827575,,0,0,78,78,86,1,stimuli/stim_20210407_power2amp/equal_lnn_AM3.6Hz_41.m4a,,,
,,,,,41001,2021-05-02_15h36.48.248,judgeSpeechMusic_20210407_logNormShiftAmp,2020.1.2,Linux x86_64,60,,,,,,,,,,,,,,,,,,,,,,,,,,1,7.039185,,0,0,79,79,8,1,stimuli/stim_20210407_power2amp/equal_lnn_AM0.6Hz_61.m4a,,,
,,,,,41001,2021-05-02_15h36.48.248,judgeSpeechMusic_20210407_logNormShiftAmp,2020.1.2,Linux x86_64,60,,,,,,,,,,,,,,,,,,,,,,,,,,1,6.195855,,0,0,80,80,129,1,stimuli/stim_20210407_power2amp/equal_lnn_AM5.4Hz_3.m4a,,,
,,,,,41001,2021-05-02_15h36.48.248,judgeSpeechMusic_20210407_logNormShiftAmp,2020.1.2,Linux x86_64,60,,,,,,,,,,,,,,,,,,,,,,,,,,1,6.051765,,0,0,81,81,47,1,stimuli/stim_20210407_power2amp/equal_lnn_AM2.4Hz_6.m4a,,,
,,,,,41001,2021-05-02_15h36.48.248,judgeSpeechMusic_20210407_logNormShiftAmp,2020.1.2,Linux x86_64,60,,,,,,,,,,,,,,,,,,,,,,,,,,1,6.554955,,0,0,82,82,2,1,stimuli/stim_20210407_power2amp/equal_lnn_AM0.6Hz_5.m4a,,,
,,,,,41001,2021-05-02_15h36.48.248,judgeSpeechMusic_20210407_logNormShiftAmp,2020.1.2,Linux x86_64,60,,,,,,,,,,,,,,,,,,,,,,,,,,1,6.259945,,0,0,83,83,25,1,stimuli/stim_20210407_power2amp/equal_lnn_AM1.2Hz_4.m4a,,,
,,,,,41001,2021-05-02_15h36.48.248,judgeSpeechMusic_20210407_logNormShiftAmp,2020.1.2,Linux x86_64,60,,,,,,,,,,,,,,,,,,,,,,,,,,1,6.61504,,0,0,84,84,89,1,stimuli/stim_20210407_power2amp/equal_lnn_AM3.6Hz_60.m4a,,,
,,,,,41001,2021-05-02_15h36.48.248,judgeSpeechMusic_20210407_logNormShiftAmp,2020.1.2,Linux x86_64,60,,,,,,,,,,,,,,,,,,,,,,,,,,1,5.82941,2,1,0,85,85,82,1,stimuli/stim_20210407_power2amp/equal_lnn_AM3.6Hz_67.m4a,1.5087,,
,,,,,41001,2021-05-02_15h36.48.248,judgeSpeechMusic_20210407_logNormShiftAmp,2020.1.2,Linux x86_64,60,,,,,,,,,,,,,,,,,,,,,,,,,,1,7.395575,,0,0,86,86,1,1,stimuli/stim_20210407_power2amp/equal_lnn_AM0.6Hz_34.m4a,,,
,,,,,41001,2021-05-02_15h36.48.248,judgeSpeechMusic_20210407_logNormShiftAmp,2020.1.2,Linux x86_64,60,,,,,,,,,,,,,,,,,,,,,,,,,,1,6.49811,,0,0,87,87,142,1,stimuli/stim_20210407_power2amp/equal_lnn_AM6Hz_82.m4a,,,
,,,,,41001,2021-05-02_15h36.48.248,judgeSpeechMusic_20210407_logNormShiftAmp,2020.1.2,Linux x86_64,60,,,,,,,,,,,,,,,,,,,,,,,,,,2,5.703075,,0,0,88,88,73,1,stimuli/stim_20210407_power2amp/equal_lnn_AM3Hz_58.m4a,,,
,,,,,41001,2021-05-02_15h36.48.248,judgeSpeechMusic_20210407_logNormShiftAmp,2020.1.2,Linux x86_64,60,,,,,,,,,,,,,,,,,,,,,,,,,,1,7.899535,,0,0,89,89,7,1,stimuli/stim_20210407_power2amp/equal_lnn_AM0.6Hz_68.m4a,,,
,,,,,41001,2021-05-02_15h36.48.248,judgeSpeechMusic_20210407_logNormShiftAmp,2020.1.2,Linux x86_64,60,,,,,,,,,,,,,,,,,,,,,,,,,,1,5.868575,,0,0,90,90,106,1,stimuli/stim_20210407_power2amp/equal_lnn_AM4.8Hz_35.m4a,,,
,,,,,41001,2021-05-02_15h36.48.248,judgeSpeechMusic_20210407_logNormShiftAmp,2020.1.2,Linux x86_64,60,,,,,,,,,,,,,,,,,,,,,,,,,,1,7.695845,,0,0,91,91,55,1,stimuli/stim_20210407_power2amp/equal_lnn_AM2.4Hz_69.m4a,,,
,,,,,41001,2021-05-02_15h36.48.248,judgeSpeechMusic_20210407_logNormShiftAmp,2020.1.2,Linux x86_64,60,,,,,,,,,,,,,,,,,,,,,,,,,,1,5.87194,,0,0,92,92,43,1,stimuli/stim_20210407_power2amp/equal_lnn_AM1.8Hz_2.m4a,,,
,,,,,41001,2021-05-02_15h36.48.248,judgeSpeechMusic_20210407_logNormShiftAmp,2020.1.2,Linux x86_64,60,,,,,,,,,,,,,,,,,,,,,,,,,,1,6.53837,,0,0,93,93,6,1,stimuli/stim_20210407_power2amp/equal_lnn_AM0.6Hz_15.m4a,,,
,,,,,41001,2021-05-02_15h36.48.248,judgeSpeechMusic_20210407_logNormShiftAmp,2020.1.2,Linux x86_64,60,,,,,,,,,,,,,,,,,,,,,,,,,,1,5.948255,,0,0,94,94,96,1,stimuli/stim_20210407_power2amp/equal_lnn_AM4.2Hz_38.m4a,,,
,,,,,41001,2021-05-02_15h36.48.248,judgeSpeechMusic_20210407_logNormShiftAmp,2020.1.2,Linux x86_64,60,,,,,,,,,,,,,,,,,,,,,,,,,,1,6.755635,,0,0,95,95,24,1,stimuli/stim_20210407_power2amp/equal_lnn_AM1.2Hz_21.m4a,,,
,,,,,41001,2021-05-02_15h36.48.248,judgeSpeechMusic_20210407_logNormShiftAmp,2020.1.2,Linux x86_64,60,,,,,,,,,,,,,,,,,,,,,,,,,,1,6.58682,,0,0,96,96,100,1,stimuli/stim_20210407_power2amp/equal_lnn_AM4.2Hz_69.m4a,,,
,,,,,41001,2021-05-02_15h36.48.248,judgeSpeechMusic_20210407_logNormShiftAmp,2020.1.2,Linux x86_64,60,,,,,,,,,,,,,,,,,,,,,,,,,,1,6.231075,,0,0,97,97,126,1,stimuli/stim_20210407_power2amp/equal_lnn_AM5.4Hz_68.m4a,,,
,,,,,41001,2021-05-02_15h36.48.248,judgeSpeechMusic_20210407_logNormShiftAmp,2020.1.2,Linux x86_64,60,,,,,,,,,,,,,,,,,,,,,,,,,,1,5.993385,,0,0,98,98,105,1,stimuli/stim_20210407_power2amp/equal_lnn_AM4.8Hz_15.m4a,,,
,,,,,41001,2021-05-02_15h36.48.248,judgeSpeechMusic_20210407_logNormShiftAmp,2020.1.2,Linux x86_64,60,,,,,,,,,,,,,,,,,,,,,,,,,,2,6.6477,,0,0,99,99,95,1,stimuli/stim_20210407_power2amp/equal_lnn_AM4.2Hz_15.m4a,,,
,,,,,41001,2021-05-02_15h36.48.248,judgeSpeechMusic_20210407_logNormShiftAmp,2020.1.2,Linux x86_64,60,,,,,,,,,,,,,,,,,,,,,,,,,,2,5.89323,,0,0,100,100,81,1,stimuli/stim_20210407_power2amp/equal_lnn_AM3.6Hz_76.m4a,,,
,,,,,41001,2021-05-02_15h36.48.248,judgeSpeechMusic_20210407_logNormShiftAmp,2020.1.2,Linux x86_64,60,,,,,,,,,,,,,,,,,,,,,,,,,,2,5.702435,,0,0,101,101,68,1,stimuli/stim_20210407_power2amp/equal_lnn_AM3Hz_1.m4a,,,
,,,,,41001,2021-05-02_15h36.48.248,judgeSpeechMusic_20210407_logNormShiftAmp,2020.1.2,Linux x86_64,60,,,,,,,,,,,,,,,,,,,,,,,,,,1,5.98541,,0,0,102,102,135,1,stimuli/stim_20210407_power2amp/equal_lnn_AM6Hz_53.m4a,,,
,,,,,41001,2021-05-02_15h36.48.248,judgeSpeechMusic_20210407_logNormShiftAmp,2020.1.2,Linux x86_64,60,,,,,,,,,,,,,,,,,,,,,,,,,,1,7.545325,,0,0,103,103,127,1,stimuli/stim_20210407_power2amp/equal_lnn_AM5.4Hz_55.m4a,,,
,,,,,41001,2021-05-02_15h36.48.248,judgeSpeechMusic_20210407_logNormShiftAmp,2020.1.2,Linux x86_64,60,,,,,,,,,,,,,,,,,,,,,,,,,,1,5.81527,,0,0,104,104,149,1,stimuli/stim_20210407_power2amp/equal_lnn_AM6Hz_65.m4a,,,
,,,,,41001,2021-05-02_15h36.48.248,judgeSpeechMusic_20210407_logNormShiftAmp,2020.1.2,Linux x86_64,60,,,,,,,,,,,,,,,,,,,,,,,,,,1,9.229415,,0,0,105,105,143,1,stimuli/stim_20210407_power2amp/equal_lnn_AM6Hz_95.m4a,,,
,,,,,41001,2021-05-02_15h36.48.248,judgeSpeechMusic_20210407_logNormShiftAmp,2020.1.2,Linux x86_64,60,,,,,,,,,,,,,,,,,,,,,,,,,,1,5.860455,,0,0,106,106,0,1,stimuli/stim_20210407_power2amp/equal_lnn_AM0.6Hz_21.m4a,,,
,,,,,41001,2021-05-02_15h36.48.248,judgeSpeechMusic_20210407_logNormShiftAmp,2020.1.2,Linux x86_64,60,,,,,,,,,,,,,,,,,,,,,,,,,,1,5.667475,4,1,0,107,107,61,1,stimuli/stim_20210407_power2amp/equal_lnn_AM3Hz_80.m4a,1.447345,,
,,,,,41001,2021-05-02_15h36.48.248,judgeSpeechMusic_20210407_logNormShiftAmp,2020.1.2,Linux x86_64,60,,,,,,,,,,,,,,,,,,,,,,,,,,1,5.840595,,0,0,108,108,48,1,stimuli/stim_20210407_power2amp/equal_lnn_AM2.4Hz_12.m4a,,,
,,,,,41001,2021-05-02_15h36.48.248,judgeSpeechMusic_20210407_logNormShiftAmp,2020.1.2,Linux x86_64,60,,,,,,,,,,,,,,,,,,,,,,,,,,2,6.291595,,0,0,109,109,103,1,stimuli/stim_20210407_power2amp/equal_lnn_AM4.2Hz_27.m4a,,,
,,,,,41001,2021-05-02_15h36.48.248,judgeSpeechMusic_20210407_logNormShiftAmp,2020.1.2,Linux x86_64,60,,,,,,,,,,,,,,,,,,,,,,,,,,1,8.160555,,0,0,110,110,32,1,stimuli/stim_20210407_power2amp/equal_lnn_AM1.8Hz_10.m4a,,,
,,,,,41001,2021-05-02_15h36.48.248,judgeSpeechMusic_20210407_logNormShiftAmp,2020.1.2,Linux x86_64,60,,,,,,,,,,,,,,,,,,,,,,,,,,1,6.084545,,0,0,111,111,139,1,stimuli/stim_20210407_power2amp/equal_lnn_AM6Hz_20.m4a,,,
,,,,,41001,2021-05-02_15h36.48.248,judgeSpeechMusic_20210407_logNormShiftAmp,2020.1.2,Linux x86_64,60,,,,,,,,,,,,,,,,,,,,,,,,,,2,5.93068,,0,0,112,112,79,1,stimuli/stim_20210407_power2amp/equal_lnn_AM3.6Hz_22.m4a,,,
,,,,,41001,2021-05-02_15h36.48.248,judgeSpeechMusic_20210407_logNormShiftAmp,2020.1.2,Linux x86_64,60,,,,,,,,,,,,,,,,,,,,,,,,,,1,5.764225,,0,0,113,113,133,1,stimuli/stim_20210407_power2amp/equal_lnn_AM5.4Hz_15.m4a,,,
,,,,,41001,2021-05-02_15h36.48.248,judgeSpeechMusic_20210407_logNormShiftAmp,2020.1.2,Linux x86_64,60,,,,,,,,,,,,,,,,,,,,,,,,,,1,6.234015,,0,0,114,114,148,1,stimuli/stim_20210407_power2amp/equal_lnn_AM6Hz_23.m4a,,,
,,,,,41001,2021-05-02_15h36.48.248,judgeSpeechMusic_20210407_logNormShiftAmp,2020.1.2,Linux x86_64,60,,,,,,,,,,,,,,,,,,,,,,,,,,1,6.300245,,0,0,115,115,5,1,stimuli/stim_20210407_power2amp/equal_lnn_AM0.6Hz_40.m4a,,,
,,,,,41001,2021-05-02_15h36.48.248,judgeSpeechMusic_20210407_logNormShiftAmp,2020.1.2,Linux x86_64,60,,,,,,,,,,,,,,,,,,,,,,,,,,1,5.628,,0,0,116,116,22,1,stimuli/stim_20210407_power2amp/equal_lnn_AM1.2Hz_77.m4a,,,
,,,,,41001,2021-05-02_15h36.48.248,judgeSpeechMusic_20210407_logNormShiftAmp,2020.1.2,Linux x86_64,60,,,,,,,,,,,,,,,,,,,,,,,,,,1,6.716545,,0,0,117,117,76,1,stimuli/stim_20210407_power2amp/equal_lnn_AM3.6Hz_50.m4a,,,
,,,,,41001,2021-05-02_15h36.48.248,judgeSpeechMusic_20210407_logNormShiftAmp,2020.1.2,Linux x86_64,60,,,,,,,,,,,,,,,,,,,,,,,,,,2,5.778545,,0,0,118,118,64,1,stimuli/stim_20210407_power2amp/equal_lnn_AM3Hz_32.m4a,,,
,,,,,41001,2021-05-02_15h36.48.248,judgeSpeechMusic_20210407_logNormShiftAmp,2020.1.2,Linux x86_64,60,,,,,,,,,,,,,,,,,,,,,,,,,,1,5.731005,,0,0,119,119,52,1,stimuli/stim_20210407_power2amp/equal_lnn_AM2.4Hz_61.m4a,,,
,,,,,41001,2021-05-02_15h36.48.248,judgeSpeechMusic_20210407_logNormShiftAmp,2020.1.2,Linux x86_64,60,,,,,,,,,,,,,,,,,,,,,,,,,,2,10.064115,,0,0,120,120,108,1,stimuli/stim_20210407_power2amp/equal_lnn_AM4.8Hz_68.m4a,,,
,,,,,41001,2021-05-02_15h36.48.248,judgeSpeechMusic_20210407_logNormShiftAmp,2020.1.2,Linux x86_64,60,,,,,,,,,,,,,,,,,,,,,,,,,,1,8.45471,,0,0,121,121,21,1,stimuli/stim_20210407_power2amp/equal_lnn_AM1.2Hz_94.m4a,,,
,,,,,41001,2021-05-02_15h36.48.248,judgeSpeechMusic_20210407_logNormShiftAmp,2020.1.2,Linux x86_64,60,,,,,,,,,,,,,,,,,,,,,,,,,,1,6.183295,,0,0,122,122,17,1,stimuli/stim_20210407_power2amp/equal_lnn_AM1.2Hz_95.m4a,,,
,,,,,41001,2021-05-02_15h36.48.248,judgeSpeechMusic_20210407_logNormShiftAmp,2020.1.2,Linux x86_64,60,,,,,,,,,,,,,,,,,,,,,,,,,,1,6.079565,,0,0,123,123,123,1,stimuli/stim_20210407_power2amp/equal_lnn_AM5.4Hz_1.m4a,,,
,,,,,41001,2021-05-02_15h36.48.248,judgeSpeechMusic_20210407_logNormShiftAmp,2020.1.2,Linux x86_64,60,,,,,,,,,,,,,,,,,,,,,,,,,,1,5.630005,,0,0,124,124,119,1,stimuli/stim_20210407_power2amp/equal_lnn_AM4.8Hz_57.m4a,,,
,,,,,41001,2021-05-02_15h36.48.248,judgeSpeechMusic_20210407_logNormShiftAmp,2020.1.2,Linux x86_64,60,,,,,,,,,,,,,,,,,,,,,,,,,,1,6.0961,,0,0,125,125,20,1,stimuli/stim_20210407_power2amp/equal_lnn_AM1.2Hz_42.m4a,,,
,,,,,41001,2021-05-02_15h36.48.248,judgeSpeechMusic_20210407_logNormShiftAmp,2020.1.2,Linux x86_64,60,,,,,,,,,,,,,,,,,,,,,,,,,,1,6.84563,,0,0,126,126,78,1,stimuli/stim_20210407_power2amp/equal_lnn_AM3.6Hz_36.m4a,,,
,,,,,41001,2021-05-02_15h36.48.248,judgeSpeechMusic_20210407_logNormShiftAmp,2020.1.2,Linux x86_64,60,,,,,,,,,,,,,,,,,,,,,,,,,,1,5.551725,,0,0,127,127,71,1,stimuli/stim_20210407_power2amp/equal_lnn_AM3Hz_2.m4a,,,
,,,,,41001,2021-05-02_15h36.48.248,judgeSpeechMusic_20210407_logNormShiftAmp,2020.1.2,Linux x86_64,60,,,,,,,,,,,,,,,,,,,,,,,,,,2,7.22895,,0,0,128,128,41,1,stimuli/stim_20210407_power2amp/equal_lnn_AM1.8Hz_3.m4a,,,
,,,,,41001,2021-05-02_15h36.48.248,judgeSpeechMusic_20210407_logNormShiftAmp,2020.1.2,Linux x86_64,60,,,,,,,,,,,,,,,,,,,,,,,,,,1,7.57898,,0,0,129,129,13,1,stimuli/stim_20210407_power2amp/equal_lnn_AM0.6Hz_65.m4a,,,
,,,,,41001,2021-05-02_15h36.48.248,judgeSpeechMusic_20210407_logNormShiftAmp,2020.1.2,Linux x86_64,60,,,,,,,,,,,,,,,,,,,,,,,,,,1,6.211995,,0,0,130,130,117,1,stimuli/stim_20210407_power2amp/equal_lnn_AM4.8Hz_25.m4a,,,
,,,,,41001,2021-05-02_15h36.48.248,judgeSpeechMusic_20210407_logNormShiftAmp,2020.1.2,Linux x86_64,60,,,,,,,,,,,,,,,,,,,,,,,,,,2,6.98762,,0,0,131,131,77,1,stimuli/stim_20210407_power2amp/equal_lnn_AM3.6Hz_99.m4a,,,
,,,,,41001,2021-05-02_15h36.48.248,judgeSpeechMusic_20210407_logNormShiftAmp,2020.1.2,Linux x86_64,60,,,,,,,,,,,,,,,,,,,,,,,,,,1,6.46345,1,1,0,132,132,54,1,stimuli/stim_20210407_power2amp/equal_lnn_AM2.4Hz_7.m4a,2.172765,,
,,,,,41001,2021-05-02_15h36.48.248,judgeSpeechMusic_20210407_logNormShiftAmp,2020.1.2,Linux x86_64,60,,,,,,,,,,,,,,,,,,,,,,,,,,1,6.470535,,0,0,133,133,60,1,stimuli/stim_20210407_power2amp/equal_lnn_AM3Hz_24.m4a,,,
,,,,,41001,2021-05-02_15h36.48.248,judgeSpeechMusic_20210407_logNormShiftAmp,2020.1.2,Linux x86_64,60,,,,,,,,,,,,,,,,,,,,,,,,,,1,6.253795,,0,0,134,134,107,1,stimuli/stim_20210407_power2amp/equal_lnn_AM4.8Hz_1.m4a,,,
,,,,,41001,2021-05-02_15h36.48.248,judgeSpeechMusic_20210407_logNormShiftAmp,2020.1.2,Linux x86_64,60,,,,,,,,,,,,,,,,,,,,,,,,,,1,5.753085,,0,0,135,135,35,1,stimuli/stim_20210407_power2amp/equal_lnn_AM1.8Hz_82.m4a,,,
,,,,,41001,2021-05-02_15h36.48.248,judgeSpeechMusic_20210407_logNormShiftAmp,2020.1.2,Linux x86_64,60,,,,,,,,,,,,,,,,,,,,,,,,,,1,6.461535,,0,0,136,136,112,1,stimuli/stim_20210407_power2amp/equal_lnn_AM4.8Hz_7.m4a,,,
,,,,,41001,2021-05-02_15h36.48.248,judgeSpeechMusic_20210407_logNormShiftAmp,2020.1.2,Linux x86_64,60,,,,,,,,,,,,,,,,,,,,,,,,,,1,6.199415,,0,0,137,137,101,1,stimuli/stim_20210407_power2amp/equal_lnn_AM4.2Hz_31.m4a,,,
,,,,,41001,2021-05-02_15h36.48.248,judgeSpeechMusic_20210407_logNormShiftAmp,2020.1.2,Linux x86_64,60,,,,,,,,,,,,,,,,,,,,,,,,,,1,6.38943,,0,0,138,138,116,1,stimuli/stim_20210407_power2amp/equal_lnn_AM4.8Hz_86.m4a,,,
,,,,,41001,2021-05-02_15h36.48.248,judgeSpeechMusic_20210407_logNormShiftAmp,2020.1.2,Linux x86_64,60,,,,,,,,,,,,,,,,,,,,,,,,,,1,6.935485,,0,0,139,139,69,1,stimuli/stim_20210407_power2amp/equal_lnn_AM3Hz_59.m4a,,,
,,,,,41001,2021-05-02_15h36.48.248,judgeSpeechMusic_20210407_logNormShiftAmp,2020.1.2,Linux x86_64,60,,,,,,,,,,,,,,,,,,,,,,,,,,2,6.83004,,0,0,140,140,87,1,stimuli/stim_20210407_power2amp/equal_lnn_AM3.6Hz_7.m4a,,,
,,,,,41001,2021-05-02_15h36.48.248,judgeSpeechMusic_20210407_logNormShiftAmp,2020.1.2,Linux x86_64,60,,,,,,,,,,,,,,,,,,,,,,,,,,1,5.822875,,0,0,141,141,19,1,stimuli/stim_20210407_power2amp/equal_lnn_AM1.2Hz_48.m4a,,,
,,,,,41001,2021-05-02_15h36.48.248,judgeSpeechMusic_20210407_logNormShiftAmp,2020.1.2,Linux x86_64,60,,,,,,,,,,,,,,,,,,,,,,,,,,1,6.023705,,0,0,142,142,14,1,stimuli/stim_20210407_power2amp/equal_lnn_AM0.6Hz_22.m4a,,,
,,,,,41001,2021-05-02_15h36.48.248,judgeSpeechMusic_20210407_logNormShiftAmp,2020.1.2,Linux x86_64,60,,,,,,,,,,,,,,,,,,,,,,,,,,1,5.77942,,0,0,143,143,62,1,stimuli/stim_20210407_power2amp/equal_lnn_AM3Hz_57.m4a,,,
,,,,,41001,2021-05-02_15h36.48.248,judgeSpeechMusic_20210407_logNormShiftAmp,2020.1.2,Linux x86_64,60,,,,,,,,,,,,,,,,,,,,,,,,,,1,7.690135,,0,0,144,144,93,1,stimuli/stim_20210407_power2amp/equal_lnn_AM4.2Hz_11.m4a,,,
,,,,,41001,2021-05-02_15h36.48.248,judgeSpeechMusic_20210407_logNormShiftAmp,2020.1.2,Linux x86_64,60,,,,,,,,,,,,,,,,,,,,,,,,,,1,6.51742,,0,0,145,145,39,1,stimuli/stim_20210407_power2amp/equal_lnn_AM1.8Hz_68.m4a,,,
,,,,,41001,2021-05-02_15h36.48.248,judgeSpeechMusic_20210407_logNormShiftAmp,2020.1.2,Linux x86_64,60,,,,,,,,,,,,,,,,,,,,,,,,,,1,5.76396,,0,0,146,146,111,1,stimuli/stim_20210407_power2amp/equal_lnn_AM4.8Hz_3.m4a,,,
,,,,,41001,2021-05-02_15h36.48.248,judgeSpeechMusic_20210407_logNormShiftAmp,2020.1.2,Linux x86_64,60,,,,,,,,,,,,,,,,,,,,,,,,,,1,6.947815,,0,0,147,147,84,1,stimuli/stim_20210407_power2amp/equal_lnn_AM3.6Hz_75.m4a,,,
,,,,,41001,2021-05-02_15h36.48.248,judgeSpeechMusic_20210407_logNormShiftAmp,2020.1.2,Linux x86_64,60,,,,,,,,,,,,,,,,,,,,,,,,,,1,5.81702,,0,0,148,148,30,1,stimuli/stim_20210407_power2amp/equal_lnn_AM1.8Hz_63.m4a,,,
,,,,,41001,2021-05-02_15h36.48.248,judgeSpeechMusic_20210407_logNormShiftAmp,2020.1.2,Linux x86_64,60,,,,,,,,,,,,,,,,,,,,,,,,,,1,8.428785,,0,0,149,149,80,1,stimuli/stim_20210407_power2amp/equal_lnn_AM3.6Hz_5.m4a,,,
,,,,,41001,2021-05-02_15h36.48.248,judgeSpeechMusic_20210407_logNormShiftAmp,2020.1.2,Linux x86_64,60,,,,,,,,,,,,,,,,,,,,,,,,,,1,6.20652,,0,1,0,150,53,1,stimuli/stim_20210407_power2amp/equal_lnn_AM2.4Hz_66.m4a,,,
,,,,,41001,2021-05-02_15h36.48.248,judgeSpeechMusic_20210407_logNormShiftAmp,2020.1.2,Linux x86_64,60,,,,,,,,,,,,,,,,,,,,,,,,,,1,8.27379,,0,1,1,151,46,1,stimuli/stim_20210407_power2amp/equal_lnn_AM2.4Hz_82.m4a,,,
,,,,,41001,2021-05-02_15h36.48.248,judgeSpeechMusic_20210407_logNormShiftAmp,2020.1.2,Linux x86_64,60,,,,,,,,,,,,,,,,,,,,,,,,,,1,5.902285,,0,1,2,152,90,1,stimuli/stim_20210407_power2amp/equal_lnn_AM4.2Hz_32.m4a,,,
,,,,,41001,2021-05-02_15h36.48.248,judgeSpeechMusic_20210407_logNormShiftAmp,2020.1.2,Linux x86_64,60,,,,,,,,,,,,,,,,,,,,,,,,,,2,9.34471,,0,1,3,153,115,1,stimuli/stim_20210407_power2amp/equal_lnn_AM4.8Hz_61.m4a,,,
,,,,,41001,2021-05-02_15h36.48.248,judgeSpeechMusic_20210407_logNormShiftAmp,2020.1.2,Linux x86_64,60,,,,,,,,,,,,,,,,,,,,,,,,,,1,6.313265,3,1,1,4,154,14,1,stimuli/stim_20210407_power2amp/equal_lnn_AM0.6Hz_22.m4a,2.018805,,
,,,,,41001,2021-05-02_15h36.48.248,judgeSpeechMusic_20210407_logNormShiftAmp,2020.1.2,Linux x86_64,60,,,,,,,,,,,,,,,,,,,,,,,,,,1,5.76635,,0,1,5,155,148,1,stimuli/stim_20210407_power2amp/equal_lnn_AM6Hz_23.m4a,,,
,,,,,41001,2021-05-02_15h36.48.248,judgeSpeechMusic_20210407_logNormShiftAmp,2020.1.2,Linux x86_64,60,,,,,,,,,,,,,,,,,,,,,,,,,,1,6.48562,,0,1,6,156,9,1,stimuli/stim_20210407_power2amp/equal_lnn_AM0.6Hz_14.m4a,,,
,,,,,41001,2021-05-02_15h36.48.248,judgeSpeechMusic_20210407_logNormShiftAmp,2020.1.2,Linux x86_64,60,,,,,,,,,,,,,,,,,,,,,,,,,,1,8.33401,,0,1,7,157,141,1,stimuli/stim_20210407_power2amp/equal_lnn_AM6Hz_79.m4a,,,
,,,,,41001,2021-05-02_15h36.48.248,judgeSpeechMusic_20210407_logNormShiftAmp,2020.1.2,Linux x86_64,60,,,,,,,,,,,,,,,,,,,,,,,,,,1,8.895615,,0,1,8,158,114,1,stimuli/stim_20210407_power2amp/equal_lnn_AM4.8Hz_96.m4a,,,
,,,,,41001,2021-05-02_15h36.48.248,judgeSpeechMusic_20210407_logNormShiftAmp,2020.1.2,Linux x86_64,60,,,,,,,,,,,,,,,,,,,,,,,,,,1,12.6512,,0,1,9,159,126,1,stimuli/stim_20210407_power2amp/equal_lnn_AM5.4Hz_68.m4a,,,
,,,,,41001,2021-05-02_15h36.48.248,judgeSpeechMusic_20210407_logNormShiftAmp,2020.1.2,Linux x86_64,60,,,,,,,,,,,,,,,,,,,,,,,,,,2,5.803225,,0,1,10,160,60,1,stimuli/stim_20210407_power2amp/equal_lnn_AM3Hz_24.m4a,,,
,,,,,41001,2021-05-02_15h36.48.248,judgeSpeechMusic_20210407_logNormShiftAmp,2020.1.2,Linux x86_64,60,,,,,,,,,,,,,,,,,,,,,,,,,,1,7.431865,,0,1,11,161,142,1,stimuli/stim_20210407_power2amp/equal_lnn_AM6Hz_82.m4a,,,
,,,,,41001,2021-05-02_15h36.48.248,judgeSpeechMusic_20210407_logNormShiftAmp,2020.1.2,Linux x86_64,60,,,,,,,,,,,,,,,,,,,,,,,,,,1,5.805365,,0,1,12,162,25,1,stimuli/stim_20210407_power2amp/equal_lnn_AM1.2Hz_4.m4a,,,
,,,,,41001,2021-05-02_15h36.48.248,judgeSpeechMusic_20210407_logNormShiftAmp,2020.1.2,Linux x86_64,60,,,,,,,,,,,,,,,,,,,,,,,,,,1,5.733795,,0,1,13,163,41,1,stimuli/stim_20210407_power2amp/equal_lnn_AM1.8Hz_3.m4a,,,
,,,,,41001,2021-05-02_15h36.48.248,judgeSpeechMusic_20210407_logNormShiftAmp,2020.1.2,Linux x86_64,60,,,,,,,,,,,,,,,,,,,,,,,,,,1,5.719365,,0,1,14,164,116,1,stimuli/stim_20210407_power2amp/equal_lnn_AM4.8Hz_86.m4a,,,
,,,,,41001,2021-05-02_15h36.48.248,judgeSpeechMusic_20210407_logNormShiftAmp,2020.1.2,Linux x86_64,60,,,,,,,,,,,,,,,,,,,,,,,,,,1,6.560305,,0,1,15,165,134,1,stimuli/stim_20210407_power2amp/equal_lnn_AM5.4Hz_38.m4a,,,
,,,,,41001,2021-05-02_15h36.48.248,judgeSpeechMusic_20210407_logNormShiftAmp,2020.1.2,Linux x86_64,60,,,,,,,,,,,,,,,,,,,,,,,,,,1,7.589125,,0,1,16,166,94,1,stimuli/stim_20210407_power2amp/equal_lnn_AM4.2Hz_59.m4a,,,
,,,,,41001,2021-05-02_15h36.48.248,judgeSpeechMusic_20210407_logNormShiftAmp,2020.1.2,Linux x86_64,60,,,,,,,,,,,,,,,,,,,,,,,,,,1,5.92287,,0,1,17,167,145,1,stimuli/stim_20210407_power2amp/equal_lnn_AM6Hz_61.m4a,,,
,,,,,41001,2021-05-02_15h36.48.248,judgeSpeechMusic_20210407_logNormShiftAmp,2020.1.2,Linux x86_64,60,,,,,,,,,,,,,,,,,,,,,,,,,,1,7.579835,,0,1,18,168,26,1,stimuli/stim_20210407_power2amp/equal_lnn_AM1.2Hz_85.m4a,,,
,,,,,41001,2021-05-02_15h36.48.248,judgeSpeechMusic_20210407_logNormShiftAmp,2020.1.2,Linux x86_64,60,,,,,,,,,,,,,,,,,,,,,,,,,,1,6.17636,,0,1,19,169,105,1,stimuli/stim_20210407_power2amp/equal_lnn_AM4.8Hz_15.m4a,,,
,,,,,41001,2021-05-02_15h36.48.248,judgeSpeechMusic_20210407_logNormShiftAmp,2020.1.2,Linux x86_64,60,,,,,,,,,,,,,,,,,,,,,,,,,,1,6.54862,,0,1,20,170,32,1,stimuli/stim_20210407_power2amp/equal_lnn_AM1.8Hz_10.m4a,,,
,,,,,41001,2021-05-02_15h36.48.248,judgeSpeechMusic_20210407_logNormShiftAmp,2020.1.2,Linux x86_64,60,,,,,,,,,,,,,,,,,,,,,,,,,,1,6.91347,,0,1,21,171,78,1,stimuli/stim_20210407_power2amp/equal_lnn_AM3.6Hz_36.m4a,,,
,,,,,41001,2021-05-02_15h36.48.248,judgeSpeechMusic_20210407_logNormShiftAmp,2020.1.2,Linux x86_64,60,,,,,,,,,,,,,,,,,,,,,,,,,,1,6.78316,,0,1,22,172,139,1,stimuli/stim_20210407_power2amp/equal_lnn_AM6Hz_20.m4a,,,
,,,,,41001,2021-05-02_15h36.48.248,judgeSpeechMusic_20210407_logNormShiftAmp,2020.1.2,Linux x86_64,60,,,,,,,,,,,,,,,,,,,,,,,,,,2,8.038815,,0,1,23,173,6,1,stimuli/stim_20210407_power2amp/equal_lnn_AM0.6Hz_15.m4a,,,
,,,,,41001,2021-05-02_15h36.48.248,judgeSpeechMusic_20210407_logNormShiftAmp,2020.1.2,Linux x86_64,60,,,,,,,,,,,,,,,,,,,,,,,,,,1,6.381005,,0,1,24,174,135,1,stimuli/stim_20210407_power2amp/equal_lnn_AM6Hz_53.m4a,,,
,,,,,41001,2021-05-02_15h36.48.248,judgeSpeechMusic_20210407_logNormShiftAmp,2020.1.2,Linux x86_64,60,,,,,,,,,,,,,,,,,,,,,,,,,,1,6.309365,,0,1,25,175,77,1,stimuli/stim_20210407_power2amp/equal_lnn_AM3.6Hz_99.m4a,,,
,,,,,41001,2021-05-02_15h36.48.248,judgeSpeechMusic_20210407_logNormShiftAmp,2020.1.2,Linux x86_64,60,,,,,,,,,,,,,,,,,,,,,,,,,,1,5.66054,,0,1,26,176,92,1,stimuli/stim_20210407_power2amp/equal_lnn_AM4.2Hz_81.m4a,,,
,,,,,41001,2021-05-02_15h36.48.248,judgeSpeechMusic_20210407_logNormShiftAmp,2020.1.2,Linux x86_64,60,,,,,,,,,,,,,,,,,,,,,,,,,,1,5.98943,2,1,1,27,177,83,1,stimuli/stim_20210407_power2amp/equal_lnn_AM3.6Hz_95.m4a,1.989695,,
,,,,,41001,2021-05-02_15h36.48.248,judgeSpeechMusic_20210407_logNormShiftAmp,2020.1.2,Linux x86_64,60,,,,,,,,,,,,,,,,,,,,,,,,,,1,6.425085,,0,1,28,178,58,1,stimuli/stim_20210407_power2amp/equal_lnn_AM2.4Hz_53.m4a,,,
,,,,,41001,2021-05-02_15h36.48.248,judgeSpeechMusic_20210407_logNormShiftAmp,2020.1.2,Linux x86_64,60,,,,,,,,,,,,,,,,,,,,,,,,,,1,5.56379,,0,1,29,179,61,1,stimuli/stim_20210407_power2amp/equal_lnn_AM3Hz_80.m4a,,,
,,,,,41001,2021-05-02_15h36.48.248,judgeSpeechMusic_20210407_logNormShiftAmp,2020.1.2,Linux x86_64,60,,,,,,,,,,,,,,,,,,,,,,,,,,1,6.038755,,0,1,30,180,102,1,stimuli/stim_20210407_power2amp/equal_lnn_AM4.2Hz_45.m4a,,,
,,,,,41001,2021-05-02_15h36.48.248,judgeSpeechMusic_20210407_logNormShiftAmp,2020.1.2,Linux x86_64,60,,,,,,,,,,,,,,,,,,,,,,,,,,1,5.919765,,0,1,31,181,28,1,stimuli/stim_20210407_power2amp/equal_lnn_AM1.2Hz_74.m4a,,,
,,,,,41001,2021-05-02_15h36.48.248,judgeSpeechMusic_20210407_logNormShiftAmp,2020.1.2,Linux x86_64,60,,,,,,,,,,,,,,,,,,,,,,,,,,1,6.28372,,0,1,32,182,87,1,stimuli/stim_20210407_power2amp/equal_lnn_AM3.6Hz_7.m4a,,,
,,,,,41001,2021-05-02_15h36.48.248,judgeSpeechMusic_20210407_logNormShiftAmp,2020.1.2,Linux x86_64,60,,,,,,,,,,,,,,,,,,,,,,,,,,2,6.02652,,0,1,33,183,73,1,stimuli/stim_20210407_power2amp/equal_lnn_AM3Hz_58.m4a,,,
,,,,,41001,2021-05-02_15h36.48.248,judgeSpeechMusic_20210407_logNormShiftAmp,2020.1.2,Linux x86_64,60,,,,,,,,,,,,,,,,,,,,,,,,,,2,5.69685,,0,1,34,184,47,1,stimuli/stim_20210407_power2amp/equal_lnn_AM2.4Hz_6.m4a,,,
,,,,,41001,2021-05-02_15h36.48.248,judgeSpeechMusic_20210407_logNormShiftAmp,2020.1.2,Linux x86_64,60,,,,,,,,,,,,,,,,,,,,,,,,,,1,5.892645,,0,1,35,185,136,1,stimuli/stim_20210407_power2amp/equal_lnn_AM6Hz_11.m4a,,,
,,,,,41001,2021-05-02_15h36.48.248,judgeSpeechMusic_20210407_logNormShiftAmp,2020.1.2,Linux x86_64,60,,,,,,,,,,,,,,,,,,,,,,,,,,1,5.90873,,0,1,36,186,30,1,stimuli/stim_20210407_power2amp/equal_lnn_AM1.8Hz_63.m4a,,,
,,,,,41001,2021-05-02_15h36.48.248,judgeSpeechMusic_20210407_logNormShiftAmp,2020.1.2,Linux x86_64,60,,,,,,,,,,,,,,,,,,,,,,,,,,1,6.35948,,0,1,37,187,85,1,stimuli/stim_20210407_power2amp/equal_lnn_AM3.6Hz_69.m4a,,,
,,,,,41001,2021-05-02_15h36.48.248,judgeSpeechMusic_20210407_logNormShiftAmp,2020.1.2,Linux x86_64,60,,,,,,,,,,,,,,,,,,,,,,,,,,1,6.440955,,0,1,38,188,33,1,stimuli/stim_20210407_power2amp/equal_lnn_AM1.8Hz_23.m4a,,,
,,,,,41001,2021-05-02_15h36.48.248,judgeSpeechMusic_20210407_logNormShiftAmp,2020.1.2,Linux x86_64,60,,,,,,,,,,,,,,,,,,,,,,,,,,1,6.92642,,0,1,39,189,108,1,stimuli/stim_20210407_power2amp/equal_lnn_AM4.8Hz_68.m4a,,,
,,,,,41001,2021-05-02_15h36.48.248,judgeSpeechMusic_20210407_logNormShiftAmp,2020.1.2,Linux x86_64,60,,,,,,,,,,,,,,,,,,,,,,,,,,1,7.36663,,0,1,40,190,27,1,stimuli/stim_20210407_power2amp/equal_lnn_AM1.2Hz_43.m4a,,,
,,,,,41001,2021-05-02_15h36.48.248,judgeSpeechMusic_20210407_logNormShiftAmp,2020.1.2,Linux x86_64,60,,,,,,,,,,,,,,,,,,,,,,,,,,1,5.750265,,0,1,41,191,16,1,stimuli/stim_20210407_power2amp/equal_lnn_AM1.2Hz_57.m4a,,,
,,,,,41001,2021-05-02_15h36.48.248,judgeSpeechMusic_20210407_logNormShiftAmp,2020.1.2,Linux x86_64,60,,,,,,,,,,,,,,,,,,,,,,,,,,1,5.921695,,0,1,42,192,113,1,stimuli/stim_20210407_power2amp/equal_lnn_AM4.8Hz_70.m4a,,,
,,,,,41001,2021-05-02_15h36.48.248,judgeSpeechMusic_20210407_logNormShiftAmp,2020.1.2,Linux x86_64,60,,,,,,,,,,,,,,,,,,,,,,,,,,1,6.45206,,0,1,43,193,8,1,stimuli/stim_20210407_power2amp/equal_lnn_AM0.6Hz_61.m4a,,,
,,,,,41001,2021-05-02_15h36.48.248,judgeSpeechMusic_20210407_logNormShiftAmp,2020.1.2,Linux x86_64,60,,,,,,,,,,,,,,,,,,,,,,,,,,1,6.061535,,0,1,44,194,130,1,stimuli/stim_20210407_power2amp/equal_lnn_AM5.4Hz_78.m4a,,,
,,,,,41001,2021-05-02_15h36.48.248,judgeSpeechMusic_20210407_logNormShiftAmp,2020.1.2,Linux x86_64,60,,,,,,,,,,,,,,,,,,,,,,,,,,1,6.956015,,0,1,45,195,66,1,stimuli/stim_20210407_power2amp/equal_lnn_AM3Hz_54.m4a,,,
,,,,,41001,2021-05-02_15h36.48.248,judgeSpeechMusic_20210407_logNormShiftAmp,2020.1.2,Linux x86_64,60,,,,,,,,,,,,,,,,,,,,,,,,,,1,6.34578,,0,1,46,196,143,1,stimuli/stim_20210407_power2amp/equal_lnn_AM6Hz_95.m4a,,,
,,,,,41001,2021-05-02_15h36.48.248,judgeSpeechMusic_20210407_logNormShiftAmp,2020.1.2,Linux x86_64,60,,,,,,,,,,,,,,,,,,,,,,,,,,1,8.28839,,0,1,47,197,45,1,stimuli/stim_20210407_power2amp/equal_lnn_AM2.4Hz_20.m4a,,,
,,,,,41001,2021-05-02_15h36.48.248,judgeSpeechMusic_20210407_logNormShiftAmp,2020.1.2,Linux x86_64,60,,,,,,,,,,,,,,,,,,,,,,,,,,1,6.863805,,0,1,48,198,84,1,stimuli/stim_20210407_power2amp/equal_lnn_AM3.6Hz_75.m4a,,,
,,,,,41001,2021-05-02_15h36.48.248,judgeSpeechMusic_20210407_logNormShiftAmp,2020.1.2,Linux x86_64,60,,,,,,,,,,,,,,,,,,,,,,,,,,1,5.787255,,0,1,49,199,149,1,stimuli/stim_20210407_power2amp/equal_lnn_AM6Hz_65.m4a,,,
,,,,,41001,2021-05-02_15h36.48.248,judgeSpeechMusic_20210407_logNormShiftAmp,2020.1.2,Linux x86_64,60,,,,,,,,,,,,,,,,,,,,,,,,,,1,8.10576,,0,1,50,200,107,1,stimuli/stim_20210407_power2amp/equal_lnn_AM4.8Hz_1.m4a,,,
,,,,,41001,2021-05-02_15h36.48.248,judgeSpeechMusic_20210407_logNormShiftAmp,2020.1.2,Linux x86_64,60,,,,,,,,,,,,,,,,,,,,,,,,,,1,6.839135,4,1,1,51,201,88,1,stimuli/stim_20210407_power2amp/equal_lnn_AM3.6Hz_43.m4a,0.85752,,
,,,,,41001,2021-05-02_15h36.48.248,judgeSpeechMusic_20210407_logNormShiftAmp,2020.1.2,Linux x86_64,60,,,,,,,,,,,,,,,,,,,,,,,,,,1,5.992415,,0,1,52,202,131,1,stimuli/stim_20210407_power2amp/equal_lnn_AM5.4Hz_71.m4a,,,
,,,,,41001,2021-05-02_15h36.48.248,judgeSpeechMusic_20210407_logNormShiftAmp,2020.1.2,Linux x86_64,60,,,,,,,,,,,,,,,,,,,,,,,,,,1,5.826275,,0,1,53,203,144,1,stimuli/stim_20210407_power2amp/equal_lnn_AM6Hz_89.m4a,,,
,,,,,41001,2021-05-02_15h36.48.248,judgeSpeechMusic_20210407_logNormShiftAmp,2020.1.2,Linux x86_64,60,,,,,,,,,,,,,,,,,,,,,,,,,,1,5.849035,,0,1,54,204,31,1,stimuli/stim_20210407_power2amp/equal_lnn_AM1.8Hz_33.m4a,,,
,,,,,41001,2021-05-02_15h36.48.248,judgeSpeechMusic_20210407_logNormShiftAmp,2020.1.2,Linux x86_64,60,,,,,,,,,,,,,,,,,,,,,,,,,,1,5.98853,,0,1,55,205,111,1,stimuli/stim_20210407_power2amp/equal_lnn_AM4.8Hz_3.m4a,,,
,,,,,41001,2021-05-02_15h36.48.248,judgeSpeechMusic_20210407_logNormShiftAmp,2020.1.2,Linux x86_64,60,,,,,,,,,,,,,,,,,,,,,,,,,,1,6.53844,,0,1,56,206,121,1,stimuli/stim_20210407_power2amp/equal_lnn_AM5.4Hz_66.m4a,,,
,,,,,41001,2021-05-02_15h36.48.248,judgeSpeechMusic_20210407_logNormShiftAmp,2020.1.2,Linux x86_64,60,,,,,,,,,,,,,,,,,,,,,,,,,,1,5.7548,,0,1,57,207,35,1,stimuli/stim_20210407_power2amp/equal_lnn_AM1.8Hz_82.m4a,,,
,,,,,41001,2021-05-02_15h36.48.248,judgeSpeechMusic_20210407_logNormShiftAmp,2020.1.2,Linux x86_64,60,,,,,,,,,,,,,,,,,,,,,,,,,,1,5.92184,,0,1,58,208,24,1,stimuli/stim_20210407_power2amp/equal_lnn_AM1.2Hz_21.m4a,,,
,,,,,41001,2021-05-02_15h36.48.248,judgeSpeechMusic_20210407_logNormShiftAmp,2020.1.2,Linux x86_64,60,,,,,,,,,,,,,,,,,,,,,,,,,,1,5.612175,,0,1,59,209,2,1,stimuli/stim_20210407_power2amp/equal_lnn_AM0.6Hz_5.m4a,,,
,,,,,41001,2021-05-02_15h36.48.248,judgeSpeechMusic_20210407_logNormShiftAmp,2020.1.2,Linux x86_64,60,,,,,,,,,,,,,,,,,,,,,,,,,,1,7.81976,,0,1,60,210,79,1,stimuli/stim_20210407_power2amp/equal_lnn_AM3.6Hz_22.m4a,,,
,,,,,41001,2021-05-02_15h36.48.248,judgeSpeechMusic_20210407_logNormShiftAmp,2020.1.2,Linux x86_64,60,,,,,,,,,,,,,,,,,,,,,,,,,,1,6.831875,,0,1,61,211,100,1,stimuli/stim_20210407_power2amp/equal_lnn_AM4.2Hz_69.m4a,,,
,,,,,41001,2021-05-02_15h36.48.248,judgeSpeechMusic_20210407_logNormShiftAmp,2020.1.2,Linux x86_64,60,,,,,,,,,,,,,,,,,,,,,,,,,,2,6.643445,,0,1,62,212,146,1,stimuli/stim_20210407_power2amp/equal_lnn_AM6Hz_2.m4a,,,
,,,,,41001,2021-05-02_15h36.48.248,judgeSpeechMusic_20210407_logNormShiftAmp,2020.1.2,Linux x86_64,60,,,,,,,,,,,,,,,,,,,,,,,,,,2,7.967605,,0,1,63,213,147,1,stimuli/stim_20210407_power2amp/equal_lnn_AM6Hz_27.m4a,,,
,,,,,41001,2021-05-02_15h36.48.248,judgeSpeechMusic_20210407_logNormShiftAmp,2020.1.2,Linux x86_64,60,,,,,,,,,,,,,,,,,,,,,,,,,,1,5.6806,,0,1,64,214,49,1,stimuli/stim_20210407_power2amp/equal_lnn_AM2.4Hz_46.m4a,,,
,,,,,41001,2021-05-02_15h36.48.248,judgeSpeechMusic_20210407_logNormShiftAmp,2020.1.2,Linux x86_64,60,,,,,,,,,,,,,,,,,,,,,,,,,,1,5.554695,,0,1,65,215,109,1,stimuli/stim_20210407_power2amp/equal_lnn_AM4.8Hz_65.m4a,,,
,,,,,41001,2021-05-02_15h36.48.248,judgeSpeechMusic_20210407_logNormShiftAmp,2020.1.2,Linux x86_64,60,,,,,,,,,,,,,,,,,,,,,,,,,,1,5.566275,,0,1,66,216,57,1,stimuli/stim_20210407_power2amp/equal_lnn_AM2.4Hz_63.m4a,,,
,,,,,41001,2021-05-02_15h36.48.248,judgeSpeechMusic_20210407_logNormShiftAmp,2020.1.2,Linux x86_64,60,,,,,,,,,,,,,,,,,,,,,,,,,,1,6.28087,,0,1,67,217,59,1,stimuli/stim_20210407_power2amp/equal_lnn_AM2.4Hz_74.m4a,,,
,,,,,41001,2021-05-02_15h36.48.248,judgeSpeechMusic_20210407_logNormShiftAmp,2020.1.2,Linux x86_64,60,,,,,,,,,,,,,,,,,,,,,,,,,,1,5.85429,,0,1,68,218,12,1,stimuli/stim_20210407_power2amp/equal_lnn_AM0.6Hz_7.m4a,,,
,,,,,41001,2021-05-02_15h36.48.248,judgeSpeechMusic_20210407_logNormShiftAmp,2020.1.2,Linux x86_64,60,,,,,,,,,,,,,,,,,,,,,,,,,,1,5.5636,,0,1,69,219,56,1,stimuli/stim_20210407_power2amp/equal_lnn_AM2.4Hz_51.m4a,,,
,,,,,41001,2021-05-02_15h36.48.248,judgeSpeechMusic_20210407_logNormShiftAmp,2020.1.2,Linux x86_64,60,,,,,,,,,,,,,,,,,,,,,,,,,,1,6.67391,,0,1,70,220,10,1,stimuli/stim_20210407_power2amp/equal_lnn_AM0.6Hz_49.m4a,,,
,,,,,41001,2021-05-02_15h36.48.248,judgeSpeechMusic_20210407_logNormShiftAmp,2020.1.2,Linux x86_64,60,,,,,,,,,,,,,,,,,,,,,,,,,,1,8.186525,,0,1,71,221,76,1,stimuli/stim_20210407_power2amp/equal_lnn_AM3.6Hz_50.m4a,,,
,,,,,41001,2021-05-02_15h36.48.248,judgeSpeechMusic_20210407_logNormShiftAmp,2020.1.2,Linux x86_64,60,,,,,,,,,,,,,,,,,,,,,,,,,,1,5.98465,3,1,1,72,222,20,1,stimuli/stim_20210407_power2amp/equal_lnn_AM1.2Hz_42.m4a,1.57884,,
,,,,,41001,2021-05-02_15h36.48.248,judgeSpeechMusic_20210407_logNormShiftAmp,2020.1.2,Linux x86_64,60,,,,,,,,,,,,,,,,,,,,,,,,,,1,7.60619,,0,1,73,223,69,1,stimuli/stim_20210407_power2amp/equal_lnn_AM3Hz_59.m4a,,,
,,,,,41001,2021-05-02_15h36.48.248,judgeSpeechMusic_20210407_logNormShiftAmp,2020.1.2,Linux x86_64,60,,,,,,,,,,,,,,,,,,,,,,,,,,1,5.905475,,0,1,74,224,91,1,stimuli/stim_20210407_power2amp/equal_lnn_AM4.2Hz_55.m4a,,,
,,,,,41001,2021-05-02_15h36.48.248,judgeSpeechMusic_20210407_logNormShiftAmp,2020.1.2,Linux x86_64,60,,,,,,,,,,,,,,,,,,,,,,,,,,1,6.079355,,0,1,75,225,122,1,stimuli/stim_20210407_power2amp/equal_lnn_AM5.4Hz_23.m4a,,,
,,,,,41001,2021-05-02_15h36.48.248,judgeSpeechMusic_20210407_logNormShiftAmp,2020.1.2,Linux x86_64,60,,,,,,,,,,,,,,,,,,,,,,,,,,1,5.98903,,0,1,76,226,138,1,stimuli/stim_20210407_power2amp/equal_lnn_AM6Hz_90.m4a,,,
,,,,,41001,2021-05-02_15h36.48.248,judgeSpeechMusic_20210407_logNormShiftAmp,2020.1.2,Linux x86_64,60,,,,,,,,,,,,,,,,,,,,,,,,,,1,5.603785,,0,1,77,227,71,1,stimuli/stim_20210407_power2amp/equal_lnn_AM3Hz_2.m4a,,,
,,,,,41001,2021-05-02_15h36.48.248,judgeSpeechMusic_20210407_logNormShiftAmp,2020.1.2,Linux x86_64,60,,,,,,,,,,,,,,,,,,,,,,,,,,1,5.725205,,0,1,78,228,1,1,stimuli/stim_20210407_power2amp/equal_lnn_AM0.6Hz_34.m4a,,,
,,,,,41001,2021-05-02_15h36.48.248,judgeSpeechMusic_20210407_logNormShiftAmp,2020.1.2,Linux x86_64,60,,,,,,,,,,,,,,,,,,,,,,,,,,1,5.617355,,0,1,79,229,72,1,stimuli/stim_20210407_power2amp/equal_lnn_AM3Hz_13.m4a,,,
,,,,,41001,2021-05-02_15h36.48.248,judgeSpeechMusic_20210407_logNormShiftAmp,2020.1.2,Linux x86_64,60,,,,,,,,,,,,,,,,,,,,,,,,,,2,5.800995,,0,1,80,230,70,1,stimuli/stim_20210407_power2amp/equal_lnn_AM3Hz_9.m4a,,,
,,,,,41001,2021-05-02_15h36.48.248,judgeSpeechMusic_20210407_logNormShiftAmp,2020.1.2,Linux x86_64,60,,,,,,,,,,,,,,,,,,,,,,,,,,1,5.808645,,0,1,81,231,129,1,stimuli/stim_20210407_power2amp/equal_lnn_AM5.4Hz_3.m4a,,,
,,,,,41001,2021-05-02_15h36.48.248,judgeSpeechMusic_20210407_logNormShiftAmp,2020.1.2,Linux x86_64,60,,,,,,,,,,,,,,,,,,,,,,,,,,1,5.7079,,0,1,82,232,123,1,stimuli/stim_20210407_power2amp/equal_lnn_AM5.4Hz_1.m4a,,,
,,,,,41001,2021-05-02_15h36.48.248,judgeSpeechMusic_20210407_logNormShiftAmp,2020.1.2,Linux x86_64,60,,,,,,,,,,,,,,,,,,,,,,,,,,1,5.55357,,0,1,83,233,34,1,stimuli/stim_20210407_power2amp/equal_lnn_AM1.8Hz_17.m4a,,,
,,,,,41001,2021-05-02_15h36.48.248,judgeSpeechMusic_20210407_logNormShiftAmp,2020.1.2,Linux x86_64,60,,,,,,,,,,,,,,,,,,,,,,,,,,1,5.564665,,0,1,84,234,44,1,stimuli/stim_20210407_power2amp/equal_lnn_AM1.8Hz_91.m4a,,,
,,,,,41001,2021-05-02_15h36.48.248,judgeSpeechMusic_20210407_logNormShiftAmp,2020.1.2,Linux x86_64,60,,,,,,,,,,,,,,,,,,,,,,,,,,1,5.975575,,0,1,85,235,48,1,stimuli/stim_20210407_power2amp/equal_lnn_AM2.4Hz_12.m4a,,,
,,,,,41001,2021-05-02_15h36.48.248,judgeSpeechMusic_20210407_logNormShiftAmp,2020.1.2,Linux x86_64,60,,,,,,,,,,,,,,,,,,,,,,,,,,1,5.536055,,0,1,86,236,18,1,stimuli/stim_20210407_power2amp/equal_lnn_AM1.2Hz_33.m4a,,,
,,,,,41001,2021-05-02_15h36.48.248,judgeSpeechMusic_20210407_logNormShiftAmp,2020.1.2,Linux x86_64,60,,,,,,,,,,,,,,,,,,,,,,,,,,1,5.592885,,0,1,87,237,52,1,stimuli/stim_20210407_power2amp/equal_lnn_AM2.4Hz_61.m4a,,,
,,,,,41001,2021-05-02_15h36.48.248,judgeSpeechMusic_20210407_logNormShiftAmp,2020.1.2,Linux x86_64,60,,,,,,,,,,,,,,,,,,,,,,,,,,1,6.76833,,0,1,88,238,5,1,stimuli/stim_20210407_power2amp/equal_lnn_AM0.6Hz_40.m4a,,,
,,,,,41001,2021-05-02_15h36.48.248,judgeSpeechMusic_20210407_logNormShiftAmp,2020.1.2,Linux x86_64,60,,,,,,,,,,,,,,,,,,,,,,,,,,1,6.14683,,0,1,89,239,97,1,stimuli/stim_20210407_power2amp/equal_lnn_AM4.2Hz_95.m4a,,,
,,,,,41001,2021-05-02_15h36.48.248,judgeSpeechMusic_20210407_logNormShiftAmp,2020.1.2,Linux x86_64,60,,,,,,,,,,,,,,,,,,,,,,,,,,1,6.011655,,0,1,90,240,140,1,stimuli/stim_20210407_power2amp/equal_lnn_AM6Hz_100.m4a,,,
,,,,,41001,2021-05-02_15h36.48.248,judgeSpeechMusic_20210407_logNormShiftAmp,2020.1.2,Linux x86_64,60,,,,,,,,,,,,,,,,,,,,,,,,,,1,7.857745,,0,1,91,241,95,1,stimuli/stim_20210407_power2amp/equal_lnn_AM4.2Hz_15.m4a,,,
,,,,,41001,2021-05-02_15h36.48.248,judgeSpeechMusic_20210407_logNormShiftAmp,2020.1.2,Linux x86_64,60,,,,,,,,,,,,,,,,,,,,,,,,,,1,6.13857,,0,1,92,242,4,1,stimuli/stim_20210407_power2amp/equal_lnn_AM0.6Hz_50.m4a,,,
,,,,,41001,2021-05-02_15h36.48.248,judgeSpeechMusic_20210407_logNormShiftAmp,2020.1.2,Linux x86_64,60,,,,,,,,,,,,,,,,,,,,,,,,,,1,6.32055,,0,1,93,243,124,1,stimuli/stim_20210407_power2amp/equal_lnn_AM5.4Hz_72.m4a,,,
,,,,,41001,2021-05-02_15h36.48.248,judgeSpeechMusic_20210407_logNormShiftAmp,2020.1.2,Linux x86_64,60,,,,,,,,,,,,,,,,,,,,,,,,,,1,6.08659,,0,1,94,244,11,1,stimuli/stim_20210407_power2amp/equal_lnn_AM0.6Hz_84.m4a,,,
,,,,,41001,2021-05-02_15h36.48.248,judgeSpeechMusic_20210407_logNormShiftAmp,2020.1.2,Linux x86_64,60,,,,,,,,,,,,,,,,,,,,,,,,,,2,6.696945,,0,1,95,245,99,1,stimuli/stim_20210407_power2amp/equal_lnn_AM4.2Hz_99.m4a,,,
,,,,,41001,2021-05-02_15h36.48.248,judgeSpeechMusic_20210407_logNormShiftAmp,2020.1.2,Linux x86_64,60,,,,,,,,,,,,,,,,,,,,,,,,,,2,8.774825,,0,1,96,246,81,1,stimuli/stim_20210407_power2amp/equal_lnn_AM3.6Hz_76.m4a,,,
,,,,,41001,2021-05-02_15h36.48.248,judgeSpeechMusic_20210407_logNormShiftAmp,2020.1.2,Linux x86_64,60,,,,,,,,,,,,,,,,,,,,,,,,,,1,5.67752,3,1,1,97,247,98,1,stimuli/stim_20210407_power2amp/equal_lnn_AM4.2Hz_22.m4a,1.454415,,
,,,,,41001,2021-05-02_15h36.48.248,judgeSpeechMusic_20210407_logNormShiftAmp,2020.1.2,Linux x86_64,60,,,,,,,,,,,,,,,,,,,,,,,,,,1,5.830985,,0,1,98,248,13,1,stimuli/stim_20210407_power2amp/equal_lnn_AM0.6Hz_65.m4a,,,
,,,,,41001,2021-05-02_15h36.48.248,judgeSpeechMusic_20210407_logNormShiftAmp,2020.1.2,Linux x86_64,60,,,,,,,,,,,,,,,,,,,,,,,,,,1,5.673595,,0,1,99,249,54,1,stimuli/stim_20210407_power2amp/equal_lnn_AM2.4Hz_7.m4a,,,
,,,,,41001,2021-05-02_15h36.48.248,judgeSpeechMusic_20210407_logNormShiftAmp,2020.1.2,Linux x86_64,60,,,,,,,,,,,,,,,,,,,,,,,,,,1,8.40728,,0,1,100,250,19,1,stimuli/stim_20210407_power2amp/equal_lnn_AM1.2Hz_48.m4a,,,
,,,,,41001,2021-05-02_15h36.48.248,judgeSpeechMusic_20210407_logNormShiftAmp,2020.1.2,Linux x86_64,60,,,,,,,,,,,,,,,,,,,,,,,,,,1,5.52972,,0,1,101,251,75,1,stimuli/stim_20210407_power2amp/equal_lnn_AM3.6Hz_82.m4a,,,
,,,,,41001,2021-05-02_15h36.48.248,judgeSpeechMusic_20210407_logNormShiftAmp,2020.1.2,Linux x86_64,60,,,,,,,,,,,,,,,,,,,,,,,,,,1,6.463565,,0,1,102,252,128,1,stimuli/stim_20210407_power2amp/equal_lnn_AM5.4Hz_90.m4a,,,
,,,,,41001,2021-05-02_15h36.48.248,judgeSpeechMusic_20210407_logNormShiftAmp,2020.1.2,Linux x86_64,60,,,,,,,,,,,,,,,,,,,,,,,,,,2,6.577095,,0,1,103,253,51,1,stimuli/stim_20210407_power2amp/equal_lnn_AM2.4Hz_64.m4a,,,
,,,,,41001,2021-05-02_15h36.48.248,judgeSpeechMusic_20210407_logNormShiftAmp,2020.1.2,Linux x86_64,60,,,,,,,,,,,,,,,,,,,,,,,,,,1,6.712625,,0,1,104,254,112,1,stimuli/stim_20210407_power2amp/equal_lnn_AM4.8Hz_7.m4a,,,
,,,,,41001,2021-05-02_15h36.48.248,judgeSpeechMusic_20210407_logNormShiftAmp,2020.1.2,Linux x86_64,60,,,,,,,,,,,,,,,,,,,,,,,,,,1,6.73551,,0,1,105,255,21,1,stimuli/stim_20210407_power2amp/equal_lnn_AM1.2Hz_94.m4a,,,
,,,,,41001,2021-05-02_15h36.48.248,judgeSpeechMusic_20210407_logNormShiftAmp,2020.1.2,Linux x86_64,60,,,,,,,,,,,,,,,,,,,,,,,,,,1,5.80699,,0,1,106,256,36,1,stimuli/stim_20210407_power2amp/equal_lnn_AM1.8Hz_89.m4a,,,
,,,,,41001,2021-05-02_15h36.48.248,judgeSpeechMusic_20210407_logNormShiftAmp,2020.1.2,Linux x86_64,60,,,,,,,,,,,,,,,,,,,,,,,,,,1,8.676205,,0,1,107,257,43,1,stimuli/stim_20210407_power2amp/equal_lnn_AM1.8Hz_2.m4a,,,
,,,,,41001,2021-05-02_15h36.48.248,judgeSpeechMusic_20210407_logNormShiftAmp,2020.1.2,Linux x86_64,60,,,,,,,,,,,,,,,,,,,,,,,,,,1,6.638595,,0,1,108,258,40,1,stimuli/stim_20210407_power2amp/equal_lnn_AM1.8Hz_43.m4a,,,
,,,,,41001,2021-05-02_15h36.48.248,judgeSpeechMusic_20210407_logNormShiftAmp,2020.1.2,Linux x86_64,60,,,,,,,,,,,,,,,,,,,,,,,,,,1,6.6429,,0,1,109,259,68,1,stimuli/stim_20210407_power2amp/equal_lnn_AM3Hz_1.m4a,,,
,,,,,41001,2021-05-02_15h36.48.248,judgeSpeechMusic_20210407_logNormShiftAmp,2020.1.2,Linux x86_64,60,,,,,,,,,,,,,,,,,,,,,,,,,,1,6.78586,,0,1,110,260,132,1,stimuli/stim_20210407_power2amp/equal_lnn_AM5.4Hz_73.m4a,,,
,,,,,41001,2021-05-02_15h36.48.248,judgeSpeechMusic_20210407_logNormShiftAmp,2020.1.2,Linux x86_64,60,,,,,,,,,,,,,,,,,,,,,,,,,,1,8.476945,,0,1,111,261,29,1,stimuli/stim_20210407_power2amp/equal_lnn_AM1.2Hz_97.m4a,,,
,,,,,41001,2021-05-02_15h36.48.248,judgeSpeechMusic_20210407_logNormShiftAmp,2020.1.2,Linux x86_64,60,,,,,,,,,,,,,,,,,,,,,,,,,,1,5.58178,,0,1,112,262,50,1,stimuli/stim_20210407_power2amp/equal_lnn_AM2.4Hz_35.m4a,,,
,,,,,41001,2021-05-02_15h36.48.248,judgeSpeechMusic_20210407_logNormShiftAmp,2020.1.2,Linux x86_64,60,,,,,,,,,,,,,,,,,,,,,,,,,,2,5.987245,,0,1,113,263,104,1,stimuli/stim_20210407_power2amp/equal_lnn_AM4.2Hz_83.m4a,,,
,,,,,41001,2021-05-02_15h36.48.248,judgeSpeechMusic_20210407_logNormShiftAmp,2020.1.2,Linux x86_64,60,,,,,,,,,,,,,,,,,,,,,,,,,,2,5.720385,,0,1,114,264,96,1,stimuli/stim_20210407_power2amp/equal_lnn_AM4.2Hz_38.m4a,,,
,,,,,41001,2021-05-02_15h36.48.248,judgeSpeechMusic_20210407_logNormShiftAmp,2020.1.2,Linux x86_64,60,,,,,,,,,,,,,,,,,,,,,,,,,,1,5.860735,,0,1,115,265,55,1,stimuli/stim_20210407_power2amp/equal_lnn_AM2.4Hz_69.m4a,,,
,,,,,41001,2021-05-02_15h36.48.248,judgeSpeechMusic_20210407_logNormShiftAmp,2020.1.2,Linux x86_64,60,,,,,,,,,,,,,,,,,,,,,,,,,,1,5.97214,,0,1,116,266,125,1,stimuli/stim_20210407_power2amp/equal_lnn_AM5.4Hz_37.m4a,,,
,,,,,41001,2021-05-02_15h36.48.248,judgeSpeechMusic_20210407_logNormShiftAmp,2020.1.2,Linux x86_64,60,,,,,,,,,,,,,,,,,,,,,,,,,,1,6.146115,2,1,1,117,267,117,1,stimuli/stim_20210407_power2amp/equal_lnn_AM4.8Hz_25.m4a,1.52602,,
,,,,,41001,2021-05-02_15h36.48.248,judgeSpeechMusic_20210407_logNormShiftAmp,2020.1.2,Linux x86_64,60,,,,,,,,,,,,,,,,,,,,,,,,,,1,6.295585,,0,1,118,268,118,1,stimuli/stim_20210407_power2amp/equal_lnn_AM4.8Hz_44.m4a,,,
,,,,,41001,2021-05-02_15h36.48.248,judgeSpeechMusic_20210407_logNormShiftAmp,2020.1.2,Linux x86_64,60,,,,,,,,,,,,,,,,,,,,,,,,,,1,5.864365,,0,1,119,269,17,1,stimuli/stim_20210407_power2amp/equal_lnn_AM1.2Hz_95.m4a,,,
,,,,,41001,2021-05-02_15h36.48.248,judgeSpeechMusic_20210407_logNormShiftAmp,2020.1.2,Linux x86_64,60,,,,,,,,,,,,,,,,,,,,,,,,,,1,6.82367,,0,1,120,270,7,1,stimuli/stim_20210407_power2amp/equal_lnn_AM0.6Hz_68.m4a,,,
,,,,,41001,2021-05-02_15h36.48.248,judgeSpeechMusic_20210407_logNormShiftAmp,2020.1.2,Linux x86_64,60,,,,,,,,,,,,,,,,,,,,,,,,,,1,6.56367,,0,1,121,271,3,1,stimuli/stim_20210407_power2amp/equal_lnn_AM0.6Hz_11.m4a,,,
,,,,,41001,2021-05-02_15h36.48.248,judgeSpeechMusic_20210407_logNormShiftAmp,2020.1.2,Linux x86_64,60,,,,,,,,,,,,,,,,,,,,,,,,,,1,6.014695,,0,1,122,272,86,1,stimuli/stim_20210407_power2amp/equal_lnn_AM3.6Hz_41.m4a,,,
,,,,,41001,2021-05-02_15h36.48.248,judgeSpeechMusic_20210407_logNormShiftAmp,2020.1.2,Linux x86_64,60,,,,,,,,,,,,,,,,,,,,,,,,,,1,5.85609,,0,1,123,273,0,1,stimuli/stim_20210407_power2amp/equal_lnn_AM0.6Hz_21.m4a,,,
,,,,,41001,2021-05-02_15h36.48.248,judgeSpeechMusic_20210407_logNormShiftAmp,2020.1.2,Linux x86_64,60,,,,,,,,,,,,,,,,,,,,,,,,,,2,6.211415,,0,1,124,274,64,1,stimuli/stim_20210407_power2amp/equal_lnn_AM3Hz_32.m4a,,,
,,,,,41001,2021-05-02_15h36.48.248,judgeSpeechMusic_20210407_logNormShiftAmp,2020.1.2,Linux x86_64,60,,,,,,,,,,,,,,,,,,,,,,,,,,2,7.812425,,0,1,125,275,22,1,stimuli/stim_20210407_power2amp/equal_lnn_AM1.2Hz_77.m4a,,,
,,,,,41001,2021-05-02_15h36.48.248,judgeSpeechMusic_20210407_logNormShiftAmp,2020.1.2,Linux x86_64,60,,,,,,,,,,,,,,,,,,,,,,,,,,1,6.33576,,0,1,126,276,39,1,stimuli/stim_20210407_power2amp/equal_lnn_AM1.8Hz_68.m4a,,,
,,,,,41001,2021-05-02_15h36.48.248,judgeSpeechMusic_20210407_logNormShiftAmp,2020.1.2,Linux x86_64,60,,,,,,,,,,,,,,,,,,,,,,,,,,1,5.602205,,0,1,127,277,74,1,stimuli/stim_20210407_power2amp/equal_lnn_AM3Hz_61.m4a,,,
,,,,,41001,2021-05-02_15h36.48.248,judgeSpeechMusic_20210407_logNormShiftAmp,2020.1.2,Linux x86_64,60,,,,,,,,,,,,,,,,,,,,,,,,,,1,5.78106,,0,1,128,278,101,1,stimuli/stim_20210407_power2amp/equal_lnn_AM4.2Hz_31.m4a,,,
,,,,,41001,2021-05-02_15h36.48.248,judgeSpeechMusic_20210407_logNormShiftAmp,2020.1.2,Linux x86_64,60,,,,,,,,,,,,,,,,,,,,,,,,,,1,6.23416,,0,1,129,279,42,1,stimuli/stim_20210407_power2amp/equal_lnn_AM1.8Hz_75.m4a,,,
,,,,,41001,2021-05-02_15h36.48.248,judgeSpeechMusic_20210407_logNormShiftAmp,2020.1.2,Linux x86_64,60,,,,,,,,,,,,,,,,,,,,,,,,,,1,6.37002,,0,1,130,280,65,1,stimuli/stim_20210407_power2amp/equal_lnn_AM3Hz_79.m4a,,,
,,,,,41001,2021-05-02_15h36.48.248,judgeSpeechMusic_20210407_logNormShiftAmp,2020.1.2,Linux x86_64,60,,,,,,,,,,,,,,,,,,,,,,,,,,1,6.380455,,0,1,131,281,37,1,stimuli/stim_20210407_power2amp/equal_lnn_AM1.8Hz_52.m4a,,,
,,,,,41001,2021-05-02_15h36.48.248,judgeSpeechMusic_20210407_logNormShiftAmp,2020.1.2,Linux x86_64,60,,,,,,,,,,,,,,,,,,,,,,,,,,2,6.266,,0,1,132,282,38,1,stimuli/stim_20210407_power2amp/equal_lnn_AM1.8Hz_40.m4a,,,
,,,,,41001,2021-05-02_15h36.48.248,judgeSpeechMusic_20210407_logNormShiftAmp,2020.1.2,Linux x86_64,60,,,,,,,,,,,,,,,,,,,,,,,,,,2,5.872465,,0,1,133,283,82,1,stimuli/stim_20210407_power2amp/equal_lnn_AM3.6Hz_67.m4a,,,
,,,,,41001,2021-05-02_15h36.48.248,judgeSpeechMusic_20210407_logNormShiftAmp,2020.1.2,Linux x86_64,60,,,,,,,,,,,,,,,,,,,,,,,,,,2,5.606105,,0,1,134,284,63,1,stimuli/stim_20210407_power2amp/equal_lnn_AM3Hz_63.m4a,,,
,,,,,41001,2021-05-02_15h36.48.248,judgeSpeechMusic_20210407_logNormShiftAmp,2020.1.2,Linux x86_64,60,,,,,,,,,,,,,,,,,,,,,,,,,,2,6.035035,,0,1,135,285,89,1,stimuli/stim_20210407_power2amp/equal_lnn_AM3.6Hz_60.m4a,,,
,,,,,41001,2021-05-02_15h36.48.248,judgeSpeechMusic_20210407_logNormShiftAmp,2020.1.2,Linux x86_64,60,,,,,,,,,,,,,,,,,,,,,,,,,,1,6.014275,,0,1,136,286,15,1,stimuli/stim_20210407_power2amp/equal_lnn_AM1.2Hz_60.m4a,,,
,,,,,41001,2021-05-02_15h36.48.248,judgeSpeechMusic_20210407_logNormShiftAmp,2020.1.2,Linux x86_64,60,,,,,,,,,,,,,,,,,,,,,,,,,,1,5.830165,,0,1,137,287,127,1,stimuli/stim_20210407_power2amp/equal_lnn_AM5.4Hz_55.m4a,,,
,,,,,41001,2021-05-02_15h36.48.248,judgeSpeechMusic_20210407_logNormShiftAmp,2020.1.2,Linux x86_64,60,,,,,,,,,,,,,,,,,,,,,,,,,,1,6.181835,,0,1,138,288,67,1,stimuli/stim_20210407_power2amp/equal_lnn_AM3Hz_35.m4a,,,
,,,,,41001,2021-05-02_15h36.48.248,judgeSpeechMusic_20210407_logNormShiftAmp,2020.1.2,Linux x86_64,60,,,,,,,,,,,,,,,,,,,,,,,,,,1,5.69711,,0,1,139,289,62,1,stimuli/stim_20210407_power2amp/equal_lnn_AM3Hz_57.m4a,,,
,,,,,41001,2021-05-02_15h36.48.248,judgeSpeechMusic_20210407_logNormShiftAmp,2020.1.2,Linux x86_64,60,,,,,,,,,,,,,,,,,,,,,,,,,,1,8.033705,4,1,1,140,290,110,1,stimuli/stim_20210407_power2amp/equal_lnn_AM4.8Hz_13.m4a,3.134055,,
,,,,,41001,2021-05-02_15h36.48.248,judgeSpeechMusic_20210407_logNormShiftAmp,2020.1.2,Linux x86_64,60,,,,,,,,,,,,,,,,,,,,,,,,,,1,5.939535,,0,1,141,291,137,1,stimuli/stim_20210407_power2amp/equal_lnn_AM6Hz_43.m4a,,,
,,,,,41001,2021-05-02_15h36.48.248,judgeSpeechMusic_20210407_logNormShiftAmp,2020.1.2,Linux x86_64,60,,,,,,,,,,,,,,,,,,,,,,,,,,1,5.69981,,0,1,142,292,119,1,stimuli/stim_20210407_power2amp/equal_lnn_AM4.8Hz_57.m4a,,,
,,,,,41001,2021-05-02_15h36.48.248,judgeSpeechMusic_20210407_logNormShiftAmp,2020.1.2,Linux x86_64,60,,,,,,,,,,,,,,,,,,,,,,,,,,1,5.644675,,0,1,143,293,93,1,stimuli/stim_20210407_power2amp/equal_lnn_AM4.2Hz_11.m4a,,,
,,,,,41001,2021-05-02_15h36.48.248,judgeSpeechMusic_20210407_logNormShiftAmp,2020.1.2,Linux x86_64,60,,,,,,,,,,,,,,,,,,,,,,,,,,1,6.067505,,0,1,144,294,133,1,stimuli/stim_20210407_power2amp/equal_lnn_AM5.4Hz_15.m4a,,,
,,,,,41001,2021-05-02_15h36.48.248,judgeSpeechMusic_20210407_logNormShiftAmp,2020.1.2,Linux x86_64,60,,,,,,,,,,,,,,,,,,,,,,,,,,1,5.99093,,0,1,145,295,120,1,stimuli/stim_20210407_power2amp/equal_lnn_AM5.4Hz_86.m4a,,,
,,,,,41001,2021-05-02_15h36.48.248,judgeSpeechMusic_20210407_logNormShiftAmp,2020.1.2,Linux x86_64,60,,,,,,,,,,,,,,,,,,,,,,,,,,1,5.81309,,0,1,146,296,80,1,stimuli/stim_20210407_power2amp/equal_lnn_AM3.6Hz_5.m4a,,,
,,,,,41001,2021-05-02_15h36.48.248,judgeSpeechMusic_20210407_logNormShiftAmp,2020.1.2,Linux x86_64,60,,,,,,,,,,,,,,,,,,,,,,,,,,2,6.60244,,0,1,147,297,103,1,stimuli/stim_20210407_power2amp/equal_lnn_AM4.2Hz_27.m4a,,,
,,,,,41001,2021-05-02_15h36.48.248,judgeSpeechMusic_20210407_logNormShiftAmp,2020.1.2,Linux x86_64,60,,,,,,,,,,,,,,,,,,,,,,,,,,1,5.621675,,0,1,148,298,106,1,stimuli/stim_20210407_power2amp/equal_lnn_AM4.8Hz_35.m4a,,,
,,,,,41001,2021-05-02_15h36.48.248,judgeSpeechMusic_20210407_logNormShiftAmp,2020.1.2,Linux x86_64,60,,,,,,,,,,,,,,,,,,,,,,,,,,1,6.31026,,0,1,149,299,23,1,stimuli/stim_20210407_power2amp/equal_lnn_AM1.2Hz_41.m4a,,,
,,,,,41001,2021-05-02_15h36.48.248,judgeSpeechMusic_20210407_logNormShiftAmp,2020.1.2,Linux x86_64,60,,,,,,,,,,,,,,,,,,,,,,,,,,,,,,,,,,,,,space,6.058465
