headphoneResponse.keys,headphoneResponse.corr,headphoneResponse.rt,headphoneTrial.thisRepN,headphoneTrial.thisTrialN,headphoneTrial.thisN,headphoneTrial.thisIndex,headphoneTrial.ran,headphone_sound1,headphone_sound2,headphone_sound3,corrAns,participant,date,expName,psychopyVersion,OS,frameRate,trainSlider.response,trainSlider.rt,beepTrainResponse.keys,beepTrainResponse.corr,trainingTrials.thisRepN,trainingTrials.thisTrialN,trainingTrials.thisN,trainingTrials.thisIndex,trainingTrials.ran,trainAudioFile,beepTrainResponse.rt,readyReal_resp.keys,readyReal_resp.rt,ratingSlider.response,ratingSlider.rt,beepResp.keys,beepResp.corr,expTrials.thisRepN,expTrials.thisTrialN,expTrials.thisN,expTrials.thisIndex,expTrials.ran,audioFile,beepResp.rt,end_resp.keys,end_resp.rt
3,1,0.26329,0,0,0,0,1,stimuli/screen_antiphase.wav,stimuli/screen_origin.wav,stimuli/screen_quiet.wav,3,41023,2021-04-22_18h35.49.120,judgeSpeechMusic_20210407_logNormShiftAmp,2020.1.2,MacIntel,60,,,,,,,,,,,,,,,,,,,,,,,,,,
1,1,0.27068,0,1,1,4,1,stimuli/screen_quiet.wav,stimuli/screen_antiphase.wav,stimuli/screen_origin.wav,1,41023,2021-04-22_18h35.49.120,judgeSpeechMusic_20210407_logNormShiftAmp,2020.1.2,MacIntel,60,,,,,,,,,,,,,,,,,,,,,,,,,,
3,1,0.146115,0,2,2,2,1,stimuli/screen_origin.wav,stimuli/screen_antiphase.wav,stimuli/screen_quiet.wav,3,41023,2021-04-22_18h35.49.120,judgeSpeechMusic_20210407_logNormShiftAmp,2020.1.2,MacIntel,60,,,,,,,,,,,,,,,,,,,,,,,,,,
2,1,0.18404,0,3,3,1,1,stimuli/screen_antiphase.wav,stimuli/screen_quiet.wav,stimuli/screen_origin.wav,2,41023,2021-04-22_18h35.49.120,judgeSpeechMusic_20210407_logNormShiftAmp,2020.1.2,MacIntel,60,,,,,,,,,,,,,,,,,,,,,,,,,,
1,1,0.228585,0,4,4,5,1,stimuli/screen_quiet.wav,stimuli/screen_origin.wav,stimuli/screen_antiphase.wav,1,41023,2021-04-22_18h35.49.120,judgeSpeechMusic_20210407_logNormShiftAmp,2020.1.2,MacIntel,60,,,,,,,,,,,,,,,,,,,,,,,,,,
2,1,0.120005,0,5,5,3,1,stimuli/screen_origin.wav,stimuli/screen_quiet.wav,stimuli/screen_antiphase.wav,2,41023,2021-04-22_18h35.49.120,judgeSpeechMusic_20210407_logNormShiftAmp,2020.1.2,MacIntel,60,,,,,,,,,,,,,,,,,,,,,,,,,,
,,,,,,,,,,,,41023,2021-04-22_18h35.49.120,judgeSpeechMusic_20210407_logNormShiftAmp,2020.1.2,MacIntel,60,2,6.626725,,0,0,0,0,0,1,stimuli/stim_20210407_power2amp/equal_lnn_AM_training1.5Hz.m4a,,,,,,,,,,,,,,,,
,,,,,,,,,,,,41023,2021-04-22_18h35.49.120,judgeSpeechMusic_20210407_logNormShiftAmp,2020.1.2,MacIntel,60,1,6.22754,,0,0,1,1,1,1,stimuli/stim_20210407_power2amp/equal_lnn_AM_training2.7Hz.m4a,,,,,,,,,,,,,,,,
,,,,,,,,,,,,41023,2021-04-22_18h35.49.120,judgeSpeechMusic_20210407_logNormShiftAmp,2020.1.2,MacIntel,60,1,5.9967,1,1,0,2,2,2,1,stimuli/stim_20210407_power2amp/equal_lnn_AM_training3.9Hz.m4a,1.764755,,,,,,,,,,,,,,,
,,,,,,,,,,,,41023,2021-04-22_18h35.49.120,judgeSpeechMusic_20210407_logNormShiftAmp,2020.1.2,MacIntel,60,1,5.89436,,0,0,3,3,3,1,stimuli/stim_20210407_power2amp/equal_lnn_AM_training5.1Hz.m4a,,,,,,,,,,,,,,,,
,,,,,,,,,,,,41023,2021-04-22_18h35.49.120,judgeSpeechMusic_20210407_logNormShiftAmp,2020.1.2,MacIntel,60,,,,,,,,,,,,space,1.001695,2,6.372125,,0,0,0,0,11,1,stimuli/stim_20210407_power2amp/equal_lnn_AM0.6Hz_9.m4a,,,
,,,,,,,,,,,,41023,2021-04-22_18h35.49.120,judgeSpeechMusic_20210407_logNormShiftAmp,2020.1.2,MacIntel,60,,,,,,,,,,,,,,2,6.0569,,0,0,1,1,72,1,stimuli/stim_20210407_power2amp/equal_lnn_AM3Hz_72.m4a,,,
,,,,,,,,,,,,41023,2021-04-22_18h35.49.120,judgeSpeechMusic_20210407_logNormShiftAmp,2020.1.2,MacIntel,60,,,,,,,,,,,,,,1,5.79213,,0,0,2,2,13,1,stimuli/stim_20210407_power2amp/equal_lnn_AM0.6Hz_65.m4a,,,
,,,,,,,,,,,,41023,2021-04-22_18h35.49.120,judgeSpeechMusic_20210407_logNormShiftAmp,2020.1.2,MacIntel,60,,,,,,,,,,,,,,1,5.972095,,0,0,3,3,75,1,stimuli/stim_20210407_power2amp/equal_lnn_AM3.6Hz_20.m4a,,,
,,,,,,,,,,,,41023,2021-04-22_18h35.49.120,judgeSpeechMusic_20210407_logNormShiftAmp,2020.1.2,MacIntel,60,,,,,,,,,,,,,,2,6.594505,,0,0,4,4,1,1,stimuli/stim_20210407_power2amp/equal_lnn_AM0.6Hz_90.m4a,,,
,,,,,,,,,,,,41023,2021-04-22_18h35.49.120,judgeSpeechMusic_20210407_logNormShiftAmp,2020.1.2,MacIntel,60,,,,,,,,,,,,,,1,5.576315,,0,0,5,5,96,1,stimuli/stim_20210407_power2amp/equal_lnn_AM4.2Hz_8.m4a,,,
,,,,,,,,,,,,41023,2021-04-22_18h35.49.120,judgeSpeechMusic_20210407_logNormShiftAmp,2020.1.2,MacIntel,60,,,,,,,,,,,,,,1,6.47296,,0,0,6,6,57,1,stimuli/stim_20210407_power2amp/equal_lnn_AM2.4Hz_24.m4a,,,
,,,,,,,,,,,,41023,2021-04-22_18h35.49.120,judgeSpeechMusic_20210407_logNormShiftAmp,2020.1.2,MacIntel,60,,,,,,,,,,,,,,1,5.809985,,0,0,7,7,143,1,stimuli/stim_20210407_power2amp/equal_lnn_AM6Hz_98.m4a,,,
,,,,,,,,,,,,41023,2021-04-22_18h35.49.120,judgeSpeechMusic_20210407_logNormShiftAmp,2020.1.2,MacIntel,60,,,,,,,,,,,,,,2,5.723625,,0,0,8,8,120,1,stimuli/stim_20210407_power2amp/equal_lnn_AM5.4Hz_64.m4a,,,
,,,,,,,,,,,,41023,2021-04-22_18h35.49.120,judgeSpeechMusic_20210407_logNormShiftAmp,2020.1.2,MacIntel,60,,,,,,,,,,,,,,1,5.8585,,0,0,9,9,67,1,stimuli/stim_20210407_power2amp/equal_lnn_AM3Hz_89.m4a,,,
,,,,,,,,,,,,41023,2021-04-22_18h35.49.120,judgeSpeechMusic_20210407_logNormShiftAmp,2020.1.2,MacIntel,60,,,,,,,,,,,,,,1,5.964895,,0,0,10,10,0,1,stimuli/stim_20210407_power2amp/equal_lnn_AM0.6Hz_55.m4a,,,
,,,,,,,,,,,,41023,2021-04-22_18h35.49.120,judgeSpeechMusic_20210407_logNormShiftAmp,2020.1.2,MacIntel,60,,,,,,,,,,,,,,2,5.467095,,0,0,11,11,101,1,stimuli/stim_20210407_power2amp/equal_lnn_AM4.2Hz_9.m4a,,,
,,,,,,,,,,,,41023,2021-04-22_18h35.49.120,judgeSpeechMusic_20210407_logNormShiftAmp,2020.1.2,MacIntel,60,,,,,,,,,,,,,,2,5.88364,,0,0,12,12,124,1,stimuli/stim_20210407_power2amp/equal_lnn_AM5.4Hz_49.m4a,,,
,,,,,,,,,,,,41023,2021-04-22_18h35.49.120,judgeSpeechMusic_20210407_logNormShiftAmp,2020.1.2,MacIntel,60,,,,,,,,,,,,,,1,5.60543,,0,0,13,13,110,1,stimuli/stim_20210407_power2amp/equal_lnn_AM4.8Hz_59.m4a,,,
,,,,,,,,,,,,41023,2021-04-22_18h35.49.120,judgeSpeechMusic_20210407_logNormShiftAmp,2020.1.2,MacIntel,60,,,,,,,,,,,,,,1,5.572045,,0,0,14,14,102,1,stimuli/stim_20210407_power2amp/equal_lnn_AM4.2Hz_81.m4a,,,
,,,,,,,,,,,,41023,2021-04-22_18h35.49.120,judgeSpeechMusic_20210407_logNormShiftAmp,2020.1.2,MacIntel,60,,,,,,,,,,,,,,2,6.16054,,0,0,15,15,141,1,stimuli/stim_20210407_power2amp/equal_lnn_AM6Hz_11.m4a,,,
,,,,,,,,,,,,41023,2021-04-22_18h35.49.120,judgeSpeechMusic_20210407_logNormShiftAmp,2020.1.2,MacIntel,60,,,,,,,,,,,,,,1,6.27681,,0,0,16,16,99,1,stimuli/stim_20210407_power2amp/equal_lnn_AM4.2Hz_2.m4a,,,
,,,,,,,,,,,,41023,2021-04-22_18h35.49.120,judgeSpeechMusic_20210407_logNormShiftAmp,2020.1.2,MacIntel,60,,,,,,,,,,,,,,2,5.62354,,0,0,17,17,71,1,stimuli/stim_20210407_power2amp/equal_lnn_AM3Hz_60.m4a,,,
,,,,,,,,,,,,41023,2021-04-22_18h35.49.120,judgeSpeechMusic_20210407_logNormShiftAmp,2020.1.2,MacIntel,60,,,,,,,,,,,,,,1,6.57202,,0,0,18,18,142,1,stimuli/stim_20210407_power2amp/equal_lnn_AM6Hz_86.m4a,,,
,,,,,,,,,,,,41023,2021-04-22_18h35.49.120,judgeSpeechMusic_20210407_logNormShiftAmp,2020.1.2,MacIntel,60,,,,,,,,,,,,,,2,6.12893,,0,0,19,19,3,1,stimuli/stim_20210407_power2amp/equal_lnn_AM0.6Hz_75.m4a,,,
,,,,,,,,,,,,41023,2021-04-22_18h35.49.120,judgeSpeechMusic_20210407_logNormShiftAmp,2020.1.2,MacIntel,60,,,,,,,,,,,,,,1,6.213845,,0,0,20,20,81,1,stimuli/stim_20210407_power2amp/equal_lnn_AM3.6Hz_74.m4a,,,
,,,,,,,,,,,,41023,2021-04-22_18h35.49.120,judgeSpeechMusic_20210407_logNormShiftAmp,2020.1.2,MacIntel,60,,,,,,,,,,,,,,1,5.591945,,0,0,21,21,125,1,stimuli/stim_20210407_power2amp/equal_lnn_AM5.4Hz_53.m4a,,,
,,,,,,,,,,,,41023,2021-04-22_18h35.49.120,judgeSpeechMusic_20210407_logNormShiftAmp,2020.1.2,MacIntel,60,,,,,,,,,,,,,,1,5.661595,,0,0,22,22,97,1,stimuli/stim_20210407_power2amp/equal_lnn_AM4.2Hz_94.m4a,,,
,,,,,,,,,,,,41023,2021-04-22_18h35.49.120,judgeSpeechMusic_20210407_logNormShiftAmp,2020.1.2,MacIntel,60,,,,,,,,,,,,,,2,5.763985,,0,0,23,23,24,1,stimuli/stim_20210407_power2amp/equal_lnn_AM1.2Hz_36.m4a,,,
,,,,,,,,,,,,41023,2021-04-22_18h35.49.120,judgeSpeechMusic_20210407_logNormShiftAmp,2020.1.2,MacIntel,60,,,,,,,,,,,,,,1,5.507215,,0,0,24,24,88,1,stimuli/stim_20210407_power2amp/equal_lnn_AM3.6Hz_1.m4a,,,
,,,,,,,,,,,,41023,2021-04-22_18h35.49.120,judgeSpeechMusic_20210407_logNormShiftAmp,2020.1.2,MacIntel,60,,,,,,,,,,,,,,2,5.561665,,0,0,25,25,46,1,stimuli/stim_20210407_power2amp/equal_lnn_AM2.4Hz_28.m4a,,,
,,,,,,,,,,,,41023,2021-04-22_18h35.49.120,judgeSpeechMusic_20210407_logNormShiftAmp,2020.1.2,MacIntel,60,,,,,,,,,,,,,,1,5.595465,,0,0,26,26,129,1,stimuli/stim_20210407_power2amp/equal_lnn_AM5.4Hz_59.m4a,,,
,,,,,,,,,,,,41023,2021-04-22_18h35.49.120,judgeSpeechMusic_20210407_logNormShiftAmp,2020.1.2,MacIntel,60,,,,,,,,,,,,,,1,7.09169,,0,0,27,27,138,1,stimuli/stim_20210407_power2amp/equal_lnn_AM6Hz_100.m4a,,,
,,,,,,,,,,,,41023,2021-04-22_18h35.49.120,judgeSpeechMusic_20210407_logNormShiftAmp,2020.1.2,MacIntel,60,,,,,,,,,,,,,,2,6.161925,,0,0,28,28,112,1,stimuli/stim_20210407_power2amp/equal_lnn_AM4.8Hz_11.m4a,,,
,,,,,,,,,,,,41023,2021-04-22_18h35.49.120,judgeSpeechMusic_20210407_logNormShiftAmp,2020.1.2,MacIntel,60,,,,,,,,,,,,,,2,5.89593,,0,0,29,29,42,1,stimuli/stim_20210407_power2amp/equal_lnn_AM1.8Hz_72.m4a,,,
,,,,,,,,,,,,41023,2021-04-22_18h35.49.120,judgeSpeechMusic_20210407_logNormShiftAmp,2020.1.2,MacIntel,60,,,,,,,,,,,,,,2,5.94992,,0,0,30,30,22,1,stimuli/stim_20210407_power2amp/equal_lnn_AM1.2Hz_67.m4a,,,
,,,,,,,,,,,,41023,2021-04-22_18h35.49.120,judgeSpeechMusic_20210407_logNormShiftAmp,2020.1.2,MacIntel,60,,,,,,,,,,,,,,1,5.74556,,0,0,31,31,62,1,stimuli/stim_20210407_power2amp/equal_lnn_AM3Hz_66.m4a,,,
,,,,,,,,,,,,41023,2021-04-22_18h35.49.120,judgeSpeechMusic_20210407_logNormShiftAmp,2020.1.2,MacIntel,60,,,,,,,,,,,,,,1,5.478475,,0,0,32,32,60,1,stimuli/stim_20210407_power2amp/equal_lnn_AM3Hz_80.m4a,,,
,,,,,,,,,,,,41023,2021-04-22_18h35.49.120,judgeSpeechMusic_20210407_logNormShiftAmp,2020.1.2,MacIntel,60,,,,,,,,,,,,,,2,6.29381,,0,0,33,33,117,1,stimuli/stim_20210407_power2amp/equal_lnn_AM4.8Hz_95.m4a,,,
,,,,,,,,,,,,41023,2021-04-22_18h35.49.120,judgeSpeechMusic_20210407_logNormShiftAmp,2020.1.2,MacIntel,60,,,,,,,,,,,,,,2,5.992355,,0,0,34,34,34,1,stimuli/stim_20210407_power2amp/equal_lnn_AM1.8Hz_51.m4a,,,
,,,,,,,,,,,,41023,2021-04-22_18h35.49.120,judgeSpeechMusic_20210407_logNormShiftAmp,2020.1.2,MacIntel,60,,,,,,,,,,,,,,1,5.762055,3,1,0,35,35,76,1,stimuli/stim_20210407_power2amp/equal_lnn_AM3.6Hz_48.m4a,1.313445,,
,,,,,,,,,,,,41023,2021-04-22_18h35.49.120,judgeSpeechMusic_20210407_logNormShiftAmp,2020.1.2,MacIntel,60,,,,,,,,,,,,,,1,5.97604,,0,0,36,36,136,1,stimuli/stim_20210407_power2amp/equal_lnn_AM6Hz_2.m4a,,,
,,,,,,,,,,,,41023,2021-04-22_18h35.49.120,judgeSpeechMusic_20210407_logNormShiftAmp,2020.1.2,MacIntel,60,,,,,,,,,,,,,,1,5.764585,,0,0,37,37,132,1,stimuli/stim_20210407_power2amp/equal_lnn_AM5.4Hz_39.m4a,,,
,,,,,,,,,,,,41023,2021-04-22_18h35.49.120,judgeSpeechMusic_20210407_logNormShiftAmp,2020.1.2,MacIntel,60,,,,,,,,,,,,,,2,6.16339,,0,0,38,38,50,1,stimuli/stim_20210407_power2amp/equal_lnn_AM2.4Hz_45.m4a,,,
,,,,,,,,,,,,41023,2021-04-22_18h35.49.120,judgeSpeechMusic_20210407_logNormShiftAmp,2020.1.2,MacIntel,60,,,,,,,,,,,,,,2,5.6752,,0,0,39,39,126,1,stimuli/stim_20210407_power2amp/equal_lnn_AM5.4Hz_69.m4a,,,
,,,,,,,,,,,,41023,2021-04-22_18h35.49.120,judgeSpeechMusic_20210407_logNormShiftAmp,2020.1.2,MacIntel,60,,,,,,,,,,,,,,1,5.764075,,0,0,40,40,144,1,stimuli/stim_20210407_power2amp/equal_lnn_AM6Hz_60.m4a,,,
,,,,,,,,,,,,41023,2021-04-22_18h35.49.120,judgeSpeechMusic_20210407_logNormShiftAmp,2020.1.2,MacIntel,60,,,,,,,,,,,,,,1,13.971165,,0,0,41,41,44,1,stimuli/stim_20210407_power2amp/equal_lnn_AM1.8Hz_6.m4a,,,
,,,,,,,,,,,,41023,2021-04-22_18h35.49.120,judgeSpeechMusic_20210407_logNormShiftAmp,2020.1.2,MacIntel,60,,,,,,,,,,,,,,2,5.661895,,0,0,42,42,17,1,stimuli/stim_20210407_power2amp/equal_lnn_AM1.2Hz_93.m4a,,,
,,,,,,,,,,,,41023,2021-04-22_18h35.49.120,judgeSpeechMusic_20210407_logNormShiftAmp,2020.1.2,MacIntel,60,,,,,,,,,,,,,,1,6.65984,,0,0,43,43,139,1,stimuli/stim_20210407_power2amp/equal_lnn_AM6Hz_73.m4a,,,
,,,,,,,,,,,,41023,2021-04-22_18h35.49.120,judgeSpeechMusic_20210407_logNormShiftAmp,2020.1.2,MacIntel,60,,,,,,,,,,,,,,2,6.193495,,0,0,44,44,35,1,stimuli/stim_20210407_power2amp/equal_lnn_AM1.8Hz_5.m4a,,,
,,,,,,,,,,,,41023,2021-04-22_18h35.49.120,judgeSpeechMusic_20210407_logNormShiftAmp,2020.1.2,MacIntel,60,,,,,,,,,,,,,,1,5.54521,,0,0,45,45,104,1,stimuli/stim_20210407_power2amp/equal_lnn_AM4.2Hz_3.m4a,,,
,,,,,,,,,,,,41023,2021-04-22_18h35.49.120,judgeSpeechMusic_20210407_logNormShiftAmp,2020.1.2,MacIntel,60,,,,,,,,,,,,,,2,5.57446,,0,0,46,46,59,1,stimuli/stim_20210407_power2amp/equal_lnn_AM2.4Hz_57.m4a,,,
,,,,,,,,,,,,41023,2021-04-22_18h35.49.120,judgeSpeechMusic_20210407_logNormShiftAmp,2020.1.2,MacIntel,60,,,,,,,,,,,,,,2,5.782065,,0,0,47,47,36,1,stimuli/stim_20210407_power2amp/equal_lnn_AM1.8Hz_53.m4a,,,
,,,,,,,,,,,,41023,2021-04-22_18h35.49.120,judgeSpeechMusic_20210407_logNormShiftAmp,2020.1.2,MacIntel,60,,,,,,,,,,,,,,1,5.83738,,0,0,48,48,63,1,stimuli/stim_20210407_power2amp/equal_lnn_AM3Hz_70.m4a,,,
,,,,,,,,,,,,41023,2021-04-22_18h35.49.120,judgeSpeechMusic_20210407_logNormShiftAmp,2020.1.2,MacIntel,60,,,,,,,,,,,,,,1,5.63128,,0,0,49,49,149,1,stimuli/stim_20210407_power2amp/equal_lnn_AM6Hz_35.m4a,,,
,,,,,,,,,,,,41023,2021-04-22_18h35.49.120,judgeSpeechMusic_20210407_logNormShiftAmp,2020.1.2,MacIntel,60,,,,,,,,,,,,,,1,5.76264,,0,0,50,50,43,1,stimuli/stim_20210407_power2amp/equal_lnn_AM1.8Hz_68.m4a,,,
,,,,,,,,,,,,41023,2021-04-22_18h35.49.120,judgeSpeechMusic_20210407_logNormShiftAmp,2020.1.2,MacIntel,60,,,,,,,,,,,,,,2,6.479505,,0,0,51,51,121,1,stimuli/stim_20210407_power2amp/equal_lnn_AM5.4Hz_99.m4a,,,
,,,,,,,,,,,,41023,2021-04-22_18h35.49.120,judgeSpeechMusic_20210407_logNormShiftAmp,2020.1.2,MacIntel,60,,,,,,,,,,,,,,1,7.66157,,0,0,52,52,105,1,stimuli/stim_20210407_power2amp/equal_lnn_AM4.8Hz_15.m4a,,,
,,,,,,,,,,,,41023,2021-04-22_18h35.49.120,judgeSpeechMusic_20210407_logNormShiftAmp,2020.1.2,MacIntel,60,,,,,,,,,,,,,,1,7.46379,,0,0,53,53,86,1,stimuli/stim_20210407_power2amp/equal_lnn_AM3.6Hz_43.m4a,,,
,,,,,,,,,,,,41023,2021-04-22_18h35.49.120,judgeSpeechMusic_20210407_logNormShiftAmp,2020.1.2,MacIntel,60,,,,,,,,,,,,,,2,6.485015,,0,0,54,54,19,1,stimuli/stim_20210407_power2amp/equal_lnn_AM1.2Hz_2.m4a,,,
,,,,,,,,,,,,41023,2021-04-22_18h35.49.120,judgeSpeechMusic_20210407_logNormShiftAmp,2020.1.2,MacIntel,60,,,,,,,,,,,,,,1,5.744595,,0,0,55,55,145,1,stimuli/stim_20210407_power2amp/equal_lnn_AM6Hz_5.m4a,,,
,,,,,,,,,,,,41023,2021-04-22_18h35.49.120,judgeSpeechMusic_20210407_logNormShiftAmp,2020.1.2,MacIntel,60,,,,,,,,,,,,,,1,5.546585,,0,0,56,56,91,1,stimuli/stim_20210407_power2amp/equal_lnn_AM4.2Hz_68.m4a,,,
,,,,,,,,,,,,41023,2021-04-22_18h35.49.120,judgeSpeechMusic_20210407_logNormShiftAmp,2020.1.2,MacIntel,60,,,,,,,,,,,,,,2,5.820925,,0,0,57,57,28,1,stimuli/stim_20210407_power2amp/equal_lnn_AM1.2Hz_77.m4a,,,
,,,,,,,,,,,,41023,2021-04-22_18h35.49.120,judgeSpeechMusic_20210407_logNormShiftAmp,2020.1.2,MacIntel,60,,,,,,,,,,,,,,2,7.333645,4,1,0,58,58,12,1,stimuli/stim_20210407_power2amp/equal_lnn_AM0.6Hz_79.m4a,1.107085,,
,,,,,,,,,,,,41023,2021-04-22_18h35.49.120,judgeSpeechMusic_20210407_logNormShiftAmp,2020.1.2,MacIntel,60,,,,,,,,,,,,,,1,5.53852,,0,0,59,59,134,1,stimuli/stim_20210407_power2amp/equal_lnn_AM5.4Hz_70.m4a,,,
,,,,,,,,,,,,41023,2021-04-22_18h35.49.120,judgeSpeechMusic_20210407_logNormShiftAmp,2020.1.2,MacIntel,60,,,,,,,,,,,,,,1,6.01334,,0,0,60,60,58,1,stimuli/stim_20210407_power2amp/equal_lnn_AM2.4Hz_55.m4a,,,
,,,,,,,,,,,,41023,2021-04-22_18h35.49.120,judgeSpeechMusic_20210407_logNormShiftAmp,2020.1.2,MacIntel,60,,,,,,,,,,,,,,2,6.076585,,0,0,61,61,53,1,stimuli/stim_20210407_power2amp/equal_lnn_AM2.4Hz_76.m4a,,,
,,,,,,,,,,,,41023,2021-04-22_18h35.49.120,judgeSpeechMusic_20210407_logNormShiftAmp,2020.1.2,MacIntel,60,,,,,,,,,,,,,,1,5.61434,,0,0,62,62,128,1,stimuli/stim_20210407_power2amp/equal_lnn_AM5.4Hz_4.m4a,,,
,,,,,,,,,,,,41023,2021-04-22_18h35.49.120,judgeSpeechMusic_20210407_logNormShiftAmp,2020.1.2,MacIntel,60,,,,,,,,,,,,,,2,5.84726,,0,0,63,63,65,1,stimuli/stim_20210407_power2amp/equal_lnn_AM3Hz_28.m4a,,,
,,,,,,,,,,,,41023,2021-04-22_18h35.49.120,judgeSpeechMusic_20210407_logNormShiftAmp,2020.1.2,MacIntel,60,,,,,,,,,,,,,,2,5.55704,,0,0,64,64,20,1,stimuli/stim_20210407_power2amp/equal_lnn_AM1.2Hz_97.m4a,,,
,,,,,,,,,,,,41023,2021-04-22_18h35.49.120,judgeSpeechMusic_20210407_logNormShiftAmp,2020.1.2,MacIntel,60,,,,,,,,,,,,,,2,13.796595,,0,0,65,65,39,1,stimuli/stim_20210407_power2amp/equal_lnn_AM1.8Hz_24.m4a,,,
,,,,,,,,,,,,41023,2021-04-22_18h35.49.120,judgeSpeechMusic_20210407_logNormShiftAmp,2020.1.2,MacIntel,60,,,,,,,,,,,,,,1,6.18631,,0,0,66,66,37,1,stimuli/stim_20210407_power2amp/equal_lnn_AM1.8Hz_92.m4a,,,
,,,,,,,,,,,,41023,2021-04-22_18h35.49.120,judgeSpeechMusic_20210407_logNormShiftAmp,2020.1.2,MacIntel,60,,,,,,,,,,,,,,2,6.457725,,0,0,67,67,118,1,stimuli/stim_20210407_power2amp/equal_lnn_AM4.8Hz_83.m4a,,,
,,,,,,,,,,,,41023,2021-04-22_18h35.49.120,judgeSpeechMusic_20210407_logNormShiftAmp,2020.1.2,MacIntel,60,,,,,,,,,,,,,,1,6.66251,,0,0,68,68,131,1,stimuli/stim_20210407_power2amp/equal_lnn_AM5.4Hz_10.m4a,,,
,,,,,,,,,,,,41023,2021-04-22_18h35.49.120,judgeSpeechMusic_20210407_logNormShiftAmp,2020.1.2,MacIntel,60,,,,,,,,,,,,,,2,5.86894,,0,0,69,69,51,1,stimuli/stim_20210407_power2amp/equal_lnn_AM2.4Hz_19.m4a,,,
,,,,,,,,,,,,41023,2021-04-22_18h35.49.120,judgeSpeechMusic_20210407_logNormShiftAmp,2020.1.2,MacIntel,60,,,,,,,,,,,,,,1,6.230595,,0,0,70,70,38,1,stimuli/stim_20210407_power2amp/equal_lnn_AM1.8Hz_82.m4a,,,
,,,,,,,,,,,,41023,2021-04-22_18h35.49.120,judgeSpeechMusic_20210407_logNormShiftAmp,2020.1.2,MacIntel,60,,,,,,,,,,,,,,2,5.377045,,0,0,71,71,47,1,stimuli/stim_20210407_power2amp/equal_lnn_AM2.4Hz_21.m4a,,,
,,,,,,,,,,,,41023,2021-04-22_18h35.49.120,judgeSpeechMusic_20210407_logNormShiftAmp,2020.1.2,MacIntel,60,,,,,,,,,,,,,,2,6.711135,,0,0,72,72,103,1,stimuli/stim_20210407_power2amp/equal_lnn_AM4.2Hz_96.m4a,,,
,,,,,,,,,,,,41023,2021-04-22_18h35.49.120,judgeSpeechMusic_20210407_logNormShiftAmp,2020.1.2,MacIntel,60,,,,,,,,,,,,,,2,6.327915,,0,0,73,73,84,1,stimuli/stim_20210407_power2amp/equal_lnn_AM3.6Hz_95.m4a,,,
,,,,,,,,,,,,41023,2021-04-22_18h35.49.120,judgeSpeechMusic_20210407_logNormShiftAmp,2020.1.2,MacIntel,60,,,,,,,,,,,,,,2,6.12842,,0,0,74,74,41,1,stimuli/stim_20210407_power2amp/equal_lnn_AM1.8Hz_31.m4a,,,
,,,,,,,,,,,,41023,2021-04-22_18h35.49.120,judgeSpeechMusic_20210407_logNormShiftAmp,2020.1.2,MacIntel,60,,,,,,,,,,,,,,1,6.72771,,0,0,75,75,93,1,stimuli/stim_20210407_power2amp/equal_lnn_AM4.2Hz_80.m4a,,,
,,,,,,,,,,,,41023,2021-04-22_18h35.49.120,judgeSpeechMusic_20210407_logNormShiftAmp,2020.1.2,MacIntel,60,,,,,,,,,,,,,,1,6.14114,,0,0,76,76,119,1,stimuli/stim_20210407_power2amp/equal_lnn_AM4.8Hz_54.m4a,,,
,,,,,,,,,,,,41023,2021-04-22_18h35.49.120,judgeSpeechMusic_20210407_logNormShiftAmp,2020.1.2,MacIntel,60,,,,,,,,,,,,,,2,5.561195,,0,0,77,77,69,1,stimuli/stim_20210407_power2amp/equal_lnn_AM3Hz_44.m4a,,,
,,,,,,,,,,,,41023,2021-04-22_18h35.49.120,judgeSpeechMusic_20210407_logNormShiftAmp,2020.1.2,MacIntel,60,,,,,,,,,,,,,,1,5.792205,3,1,0,78,78,100,1,stimuli/stim_20210407_power2amp/equal_lnn_AM4.2Hz_28.m4a,0.9487,,
,,,,,,,,,,,,41023,2021-04-22_18h35.49.120,judgeSpeechMusic_20210407_logNormShiftAmp,2020.1.2,MacIntel,60,,,,,,,,,,,,,,2,5.876515,,0,0,79,79,85,1,stimuli/stim_20210407_power2amp/equal_lnn_AM3.6Hz_88.m4a,,,
,,,,,,,,,,,,41023,2021-04-22_18h35.49.120,judgeSpeechMusic_20210407_logNormShiftAmp,2020.1.2,MacIntel,60,,,,,,,,,,,,,,2,5.52991,,0,0,80,80,77,1,stimuli/stim_20210407_power2amp/equal_lnn_AM3.6Hz_22.m4a,,,
,,,,,,,,,,,,41023,2021-04-22_18h35.49.120,judgeSpeechMusic_20210407_logNormShiftAmp,2020.1.2,MacIntel,60,,,,,,,,,,,,,,1,6.94498,,0,0,81,81,4,1,stimuli/stim_20210407_power2amp/equal_lnn_AM0.6Hz_4.m4a,,,
,,,,,,,,,,,,41023,2021-04-22_18h35.49.120,judgeSpeechMusic_20210407_logNormShiftAmp,2020.1.2,MacIntel,60,,,,,,,,,,,,,,2,6.09487,,0,0,82,82,25,1,stimuli/stim_20210407_power2amp/equal_lnn_AM1.2Hz_25.m4a,,,
,,,,,,,,,,,,41023,2021-04-22_18h35.49.120,judgeSpeechMusic_20210407_logNormShiftAmp,2020.1.2,MacIntel,60,,,,,,,,,,,,,,1,5.877915,,0,0,83,83,23,1,stimuli/stim_20210407_power2amp/equal_lnn_AM1.2Hz_68.m4a,,,
,,,,,,,,,,,,41023,2021-04-22_18h35.49.120,judgeSpeechMusic_20210407_logNormShiftAmp,2020.1.2,MacIntel,60,,,,,,,,,,,,,,1,6.64593,,0,0,84,84,2,1,stimuli/stim_20210407_power2amp/equal_lnn_AM0.6Hz_96.m4a,,,
,,,,,,,,,,,,41023,2021-04-22_18h35.49.120,judgeSpeechMusic_20210407_logNormShiftAmp,2020.1.2,MacIntel,60,,,,,,,,,,,,,,1,8.056785,,0,0,85,85,54,1,stimuli/stim_20210407_power2amp/equal_lnn_AM2.4Hz_10.m4a,,,
,,,,,,,,,,,,41023,2021-04-22_18h35.49.120,judgeSpeechMusic_20210407_logNormShiftAmp,2020.1.2,MacIntel,60,,,,,,,,,,,,,,1,6.792485,,0,0,86,86,9,1,stimuli/stim_20210407_power2amp/equal_lnn_AM0.6Hz_50.m4a,,,
,,,,,,,,,,,,41023,2021-04-22_18h35.49.120,judgeSpeechMusic_20210407_logNormShiftAmp,2020.1.2,MacIntel,60,,,,,,,,,,,,,,2,7.147105,,0,0,87,87,114,1,stimuli/stim_20210407_power2amp/equal_lnn_AM4.8Hz_39.m4a,,,
,,,,,,,,,,,,41023,2021-04-22_18h35.49.120,judgeSpeechMusic_20210407_logNormShiftAmp,2020.1.2,MacIntel,60,,,,,,,,,,,,,,2,6.89231,,0,0,88,88,10,1,stimuli/stim_20210407_power2amp/equal_lnn_AM0.6Hz_40.m4a,,,
,,,,,,,,,,,,41023,2021-04-22_18h35.49.120,judgeSpeechMusic_20210407_logNormShiftAmp,2020.1.2,MacIntel,60,,,,,,,,,,,,,,1,5.746335,,0,0,89,89,137,1,stimuli/stim_20210407_power2amp/equal_lnn_AM6Hz_48.m4a,,,
,,,,,,,,,,,,41023,2021-04-22_18h35.49.120,judgeSpeechMusic_20210407_logNormShiftAmp,2020.1.2,MacIntel,60,,,,,,,,,,,,,,1,6.2728,,0,0,90,90,113,1,stimuli/stim_20210407_power2amp/equal_lnn_AM4.8Hz_52.m4a,,,
,,,,,,,,,,,,41023,2021-04-22_18h35.49.120,judgeSpeechMusic_20210407_logNormShiftAmp,2020.1.2,MacIntel,60,,,,,,,,,,,,,,2,6.341865,,0,0,91,91,140,1,stimuli/stim_20210407_power2amp/equal_lnn_AM6Hz_23.m4a,,,
,,,,,,,,,,,,41023,2021-04-22_18h35.49.120,judgeSpeechMusic_20210407_logNormShiftAmp,2020.1.2,MacIntel,60,,,,,,,,,,,,,,2,6.94521,,0,0,92,92,49,1,stimuli/stim_20210407_power2amp/equal_lnn_AM2.4Hz_27.m4a,,,
,,,,,,,,,,,,41023,2021-04-22_18h35.49.120,judgeSpeechMusic_20210407_logNormShiftAmp,2020.1.2,MacIntel,60,,,,,,,,,,,,,,1,6.336935,,0,0,93,93,40,1,stimuli/stim_20210407_power2amp/equal_lnn_AM1.8Hz_77.m4a,,,
,,,,,,,,,,,,41023,2021-04-22_18h35.49.120,judgeSpeechMusic_20210407_logNormShiftAmp,2020.1.2,MacIntel,60,,,,,,,,,,,,,,2,6.891935,,0,0,94,94,29,1,stimuli/stim_20210407_power2amp/equal_lnn_AM1.2Hz_48.m4a,,,
,,,,,,,,,,,,41023,2021-04-22_18h35.49.120,judgeSpeechMusic_20210407_logNormShiftAmp,2020.1.2,MacIntel,60,,,,,,,,,,,,,,1,5.80502,,0,0,95,95,123,1,stimuli/stim_20210407_power2amp/equal_lnn_AM5.4Hz_51.m4a,,,
,,,,,,,,,,,,41023,2021-04-22_18h35.49.120,judgeSpeechMusic_20210407_logNormShiftAmp,2020.1.2,MacIntel,60,,,,,,,,,,,,,,2,6.84417,,0,0,96,96,5,1,stimuli/stim_20210407_power2amp/equal_lnn_AM0.6Hz_67.m4a,,,
,,,,,,,,,,,,41023,2021-04-22_18h35.49.120,judgeSpeechMusic_20210407_logNormShiftAmp,2020.1.2,MacIntel,60,,,,,,,,,,,,,,1,9.220405,,0,0,97,97,78,1,stimuli/stim_20210407_power2amp/equal_lnn_AM3.6Hz_25.m4a,,,
,,,,,,,,,,,,41023,2021-04-22_18h35.49.120,judgeSpeechMusic_20210407_logNormShiftAmp,2020.1.2,MacIntel,60,,,,,,,,,,,,,,2,7.074665,,0,0,98,98,26,1,stimuli/stim_20210407_power2amp/equal_lnn_AM1.2Hz_14.m4a,,,
,,,,,,,,,,,,41023,2021-04-22_18h35.49.120,judgeSpeechMusic_20210407_logNormShiftAmp,2020.1.2,MacIntel,60,,,,,,,,,,,,,,1,7.062935,4,1,0,99,99,16,1,stimuli/stim_20210407_power2amp/equal_lnn_AM1.2Hz_53.m4a,1.810615,,
,,,,,,,,,,,,41023,2021-04-22_18h35.49.120,judgeSpeechMusic_20210407_logNormShiftAmp,2020.1.2,MacIntel,60,,,,,,,,,,,,,,1,6.115,,0,0,100,100,61,1,stimuli/stim_20210407_power2amp/equal_lnn_AM3Hz_21.m4a,,,
,,,,,,,,,,,,41023,2021-04-22_18h35.49.120,judgeSpeechMusic_20210407_logNormShiftAmp,2020.1.2,MacIntel,60,,,,,,,,,,,,,,2,6.29414,,0,0,101,101,30,1,stimuli/stim_20210407_power2amp/equal_lnn_AM1.8Hz_70.m4a,,,
,,,,,,,,,,,,41023,2021-04-22_18h35.49.120,judgeSpeechMusic_20210407_logNormShiftAmp,2020.1.2,MacIntel,60,,,,,,,,,,,,,,2,6.2285,,0,0,102,102,108,1,stimuli/stim_20210407_power2amp/equal_lnn_AM4.8Hz_57.m4a,,,
,,,,,,,,,,,,41023,2021-04-22_18h35.49.120,judgeSpeechMusic_20210407_logNormShiftAmp,2020.1.2,MacIntel,60,,,,,,,,,,,,,,1,5.83665,,0,0,103,103,66,1,stimuli/stim_20210407_power2amp/equal_lnn_AM3Hz_52.m4a,,,
,,,,,,,,,,,,41023,2021-04-22_18h35.49.120,judgeSpeechMusic_20210407_logNormShiftAmp,2020.1.2,MacIntel,60,,,,,,,,,,,,,,2,5.49063,,0,0,104,104,70,1,stimuli/stim_20210407_power2amp/equal_lnn_AM3Hz_69.m4a,,,
,,,,,,,,,,,,41023,2021-04-22_18h35.49.120,judgeSpeechMusic_20210407_logNormShiftAmp,2020.1.2,MacIntel,60,,,,,,,,,,,,,,1,6.321635,,0,0,105,105,55,1,stimuli/stim_20210407_power2amp/equal_lnn_AM2.4Hz_56.m4a,,,
,,,,,,,,,,,,41023,2021-04-22_18h35.49.120,judgeSpeechMusic_20210407_logNormShiftAmp,2020.1.2,MacIntel,60,,,,,,,,,,,,,,1,6.22776,,0,0,106,106,8,1,stimuli/stim_20210407_power2amp/equal_lnn_AM0.6Hz_2.m4a,,,
,,,,,,,,,,,,41023,2021-04-22_18h35.49.120,judgeSpeechMusic_20210407_logNormShiftAmp,2020.1.2,MacIntel,60,,,,,,,,,,,,,,1,5.699735,,0,0,107,107,148,1,stimuli/stim_20210407_power2amp/equal_lnn_AM6Hz_19.m4a,,,
,,,,,,,,,,,,41023,2021-04-22_18h35.49.120,judgeSpeechMusic_20210407_logNormShiftAmp,2020.1.2,MacIntel,60,,,,,,,,,,,,,,2,7.57495,,0,0,108,108,94,1,stimuli/stim_20210407_power2amp/equal_lnn_AM4.2Hz_1.m4a,,,
,,,,,,,,,,,,41023,2021-04-22_18h35.49.120,judgeSpeechMusic_20210407_logNormShiftAmp,2020.1.2,MacIntel,60,,,,,,,,,,,,,,2,6.14198,,0,0,109,109,31,1,stimuli/stim_20210407_power2amp/equal_lnn_AM1.8Hz_41.m4a,,,
,,,,,,,,,,,,41023,2021-04-22_18h35.49.120,judgeSpeechMusic_20210407_logNormShiftAmp,2020.1.2,MacIntel,60,,,,,,,,,,,,,,1,6.147415,,0,0,110,110,107,1,stimuli/stim_20210407_power2amp/equal_lnn_AM4.8Hz_92.m4a,,,
,,,,,,,,,,,,41023,2021-04-22_18h35.49.120,judgeSpeechMusic_20210407_logNormShiftAmp,2020.1.2,MacIntel,60,,,,,,,,,,,,,,2,6.054875,,0,0,111,111,87,1,stimuli/stim_20210407_power2amp/equal_lnn_AM3.6Hz_23.m4a,,,
,,,,,,,,,,,,41023,2021-04-22_18h35.49.120,judgeSpeechMusic_20210407_logNormShiftAmp,2020.1.2,MacIntel,60,,,,,,,,,,,,,,1,6.24317,,0,0,112,112,14,1,stimuli/stim_20210407_power2amp/equal_lnn_AM0.6Hz_44.m4a,,,
,,,,,,,,,,,,41023,2021-04-22_18h35.49.120,judgeSpeechMusic_20210407_logNormShiftAmp,2020.1.2,MacIntel,60,,,,,,,,,,,,,,2,7.72764,,0,0,113,113,92,1,stimuli/stim_20210407_power2amp/equal_lnn_AM4.2Hz_71.m4a,,,
,,,,,,,,,,,,41023,2021-04-22_18h35.49.120,judgeSpeechMusic_20210407_logNormShiftAmp,2020.1.2,MacIntel,60,,,,,,,,,,,,,,1,6.356005,,0,0,114,114,48,1,stimuli/stim_20210407_power2amp/equal_lnn_AM2.4Hz_26.m4a,,,
,,,,,,,,,,,,41023,2021-04-22_18h35.49.120,judgeSpeechMusic_20210407_logNormShiftAmp,2020.1.2,MacIntel,60,,,,,,,,,,,,,,2,6.22678,,0,0,115,115,56,1,stimuli/stim_20210407_power2amp/equal_lnn_AM2.4Hz_30.m4a,,,
,,,,,,,,,,,,41023,2021-04-22_18h35.49.120,judgeSpeechMusic_20210407_logNormShiftAmp,2020.1.2,MacIntel,60,,,,,,,,,,,,,,1,5.931165,,0,0,116,116,33,1,stimuli/stim_20210407_power2amp/equal_lnn_AM1.8Hz_99.m4a,,,
,,,,,,,,,,,,41023,2021-04-22_18h35.49.120,judgeSpeechMusic_20210407_logNormShiftAmp,2020.1.2,MacIntel,60,,,,,,,,,,,,,,2,6.515185,,0,0,117,117,127,1,stimuli/stim_20210407_power2amp/equal_lnn_AM5.4Hz_61.m4a,,,
,,,,,,,,,,,,41023,2021-04-22_18h35.49.120,judgeSpeechMusic_20210407_logNormShiftAmp,2020.1.2,MacIntel,60,,,,,,,,,,,,,,2,6.57377,,0,0,118,118,64,1,stimuli/stim_20210407_power2amp/equal_lnn_AM3Hz_48.m4a,,,
,,,,,,,,,,,,41023,2021-04-22_18h35.49.120,judgeSpeechMusic_20210407_logNormShiftAmp,2020.1.2,MacIntel,60,,,,,,,,,,,,,,1,6.520585,,0,0,119,119,73,1,stimuli/stim_20210407_power2amp/equal_lnn_AM3Hz_37.m4a,,,
,,,,,,,,,,,,41023,2021-04-22_18h35.49.120,judgeSpeechMusic_20210407_logNormShiftAmp,2020.1.2,MacIntel,60,,,,,,,,,,,,,,1,5.793375,2,1,0,120,120,18,1,stimuli/stim_20210407_power2amp/equal_lnn_AM1.2Hz_34.m4a,0.78226,,
,,,,,,,,,,,,41023,2021-04-22_18h35.49.120,judgeSpeechMusic_20210407_logNormShiftAmp,2020.1.2,MacIntel,60,,,,,,,,,,,,,,2,5.97745,,0,0,121,121,135,1,stimuli/stim_20210407_power2amp/equal_lnn_AM6Hz_12.m4a,,,
,,,,,,,,,,,,41023,2021-04-22_18h35.49.120,judgeSpeechMusic_20210407_logNormShiftAmp,2020.1.2,MacIntel,60,,,,,,,,,,,,,,2,6.094145,,0,0,122,122,106,1,stimuli/stim_20210407_power2amp/equal_lnn_AM4.8Hz_65.m4a,,,
,,,,,,,,,,,,41023,2021-04-22_18h35.49.120,judgeSpeechMusic_20210407_logNormShiftAmp,2020.1.2,MacIntel,60,,,,,,,,,,,,,,2,6.21199,,0,0,123,123,89,1,stimuli/stim_20210407_power2amp/equal_lnn_AM3.6Hz_3.m4a,,,
,,,,,,,,,,,,41023,2021-04-22_18h35.49.120,judgeSpeechMusic_20210407_logNormShiftAmp,2020.1.2,MacIntel,60,,,,,,,,,,,,,,1,5.578825,,0,0,124,124,45,1,stimuli/stim_20210407_power2amp/equal_lnn_AM2.4Hz_36.m4a,,,
,,,,,,,,,,,,41023,2021-04-22_18h35.49.120,judgeSpeechMusic_20210407_logNormShiftAmp,2020.1.2,MacIntel,60,,,,,,,,,,,,,,2,5.976575,,0,0,125,125,82,1,stimuli/stim_20210407_power2amp/equal_lnn_AM3.6Hz_38.m4a,,,
,,,,,,,,,,,,41023,2021-04-22_18h35.49.120,judgeSpeechMusic_20210407_logNormShiftAmp,2020.1.2,MacIntel,60,,,,,,,,,,,,,,2,5.539115,,0,0,126,126,90,1,stimuli/stim_20210407_power2amp/equal_lnn_AM4.2Hz_82.m4a,,,
,,,,,,,,,,,,41023,2021-04-22_18h35.49.120,judgeSpeechMusic_20210407_logNormShiftAmp,2020.1.2,MacIntel,60,,,,,,,,,,,,,,1,5.850195,,0,0,127,127,147,1,stimuli/stim_20210407_power2amp/equal_lnn_AM6Hz_6.m4a,,,
,,,,,,,,,,,,41023,2021-04-22_18h35.49.120,judgeSpeechMusic_20210407_logNormShiftAmp,2020.1.2,MacIntel,60,,,,,,,,,,,,,,2,5.555245,,0,0,128,128,80,1,stimuli/stim_20210407_power2amp/equal_lnn_AM3.6Hz_79.m4a,,,
,,,,,,,,,,,,41023,2021-04-22_18h35.49.120,judgeSpeechMusic_20210407_logNormShiftAmp,2020.1.2,MacIntel,60,,,,,,,,,,,,,,2,5.6616,,0,0,129,129,74,1,stimuli/stim_20210407_power2amp/equal_lnn_AM3Hz_22.m4a,,,
,,,,,,,,,,,,41023,2021-04-22_18h35.49.120,judgeSpeechMusic_20210407_logNormShiftAmp,2020.1.2,MacIntel,60,,,,,,,,,,,,,,1,6.406855,,0,0,130,130,95,1,stimuli/stim_20210407_power2amp/equal_lnn_AM4.2Hz_30.m4a,,,
,,,,,,,,,,,,41023,2021-04-22_18h35.49.120,judgeSpeechMusic_20210407_logNormShiftAmp,2020.1.2,MacIntel,60,,,,,,,,,,,,,,2,6.923595,,0,0,131,131,116,1,stimuli/stim_20210407_power2amp/equal_lnn_AM4.8Hz_75.m4a,,,
,,,,,,,,,,,,41023,2021-04-22_18h35.49.120,judgeSpeechMusic_20210407_logNormShiftAmp,2020.1.2,MacIntel,60,,,,,,,,,,,,,,2,6.182655,,0,0,132,132,27,1,stimuli/stim_20210407_power2amp/equal_lnn_AM1.2Hz_46.m4a,,,
,,,,,,,,,,,,41023,2021-04-22_18h35.49.120,judgeSpeechMusic_20210407_logNormShiftAmp,2020.1.2,MacIntel,60,,,,,,,,,,,,,,1,6.059805,,0,0,133,133,6,1,stimuli/stim_20210407_power2amp/equal_lnn_AM0.6Hz_74.m4a,,,
,,,,,,,,,,,,41023,2021-04-22_18h35.49.120,judgeSpeechMusic_20210407_logNormShiftAmp,2020.1.2,MacIntel,60,,,,,,,,,,,,,,2,6.694615,,0,0,134,134,79,1,stimuli/stim_20210407_power2amp/equal_lnn_AM3.6Hz_75.m4a,,,
,,,,,,,,,,,,41023,2021-04-22_18h35.49.120,judgeSpeechMusic_20210407_logNormShiftAmp,2020.1.2,MacIntel,60,,,,,,,,,,,,,,2,6.143875,,0,0,135,135,68,1,stimuli/stim_20210407_power2amp/equal_lnn_AM3Hz_11.m4a,,,
,,,,,,,,,,,,41023,2021-04-22_18h35.49.120,judgeSpeechMusic_20210407_logNormShiftAmp,2020.1.2,MacIntel,60,,,,,,,,,,,,,,1,6.25896,,0,0,136,136,111,1,stimuli/stim_20210407_power2amp/equal_lnn_AM4.8Hz_19.m4a,,,
,,,,,,,,,,,,41023,2021-04-22_18h35.49.120,judgeSpeechMusic_20210407_logNormShiftAmp,2020.1.2,MacIntel,60,,,,,,,,,,,,,,1,5.661985,,0,0,137,137,32,1,stimuli/stim_20210407_power2amp/equal_lnn_AM1.8Hz_80.m4a,,,
,,,,,,,,,,,,41023,2021-04-22_18h35.49.120,judgeSpeechMusic_20210407_logNormShiftAmp,2020.1.2,MacIntel,60,,,,,,,,,,,,,,1,6.945215,,0,0,138,138,83,1,stimuli/stim_20210407_power2amp/equal_lnn_AM3.6Hz_45.m4a,,,
,,,,,,,,,,,,41023,2021-04-22_18h35.49.120,judgeSpeechMusic_20210407_logNormShiftAmp,2020.1.2,MacIntel,60,,,,,,,,,,,,,,2,6.11092,,0,0,139,139,15,1,stimuli/stim_20210407_power2amp/equal_lnn_AM1.2Hz_18.m4a,,,
,,,,,,,,,,,,41023,2021-04-22_18h35.49.120,judgeSpeechMusic_20210407_logNormShiftAmp,2020.1.2,MacIntel,60,,,,,,,,,,,,,,2,6.895525,,0,0,140,140,98,1,stimuli/stim_20210407_power2amp/equal_lnn_AM4.2Hz_49.m4a,,,
,,,,,,,,,,,,41023,2021-04-22_18h35.49.120,judgeSpeechMusic_20210407_logNormShiftAmp,2020.1.2,MacIntel,60,,,,,,,,,,,,,,1,6.14522,,0,0,141,141,21,1,stimuli/stim_20210407_power2amp/equal_lnn_AM1.2Hz_33.m4a,,,
,,,,,,,,,,,,41023,2021-04-22_18h35.49.120,judgeSpeechMusic_20210407_logNormShiftAmp,2020.1.2,MacIntel,60,,,,,,,,,,,,,,1,5.538985,,0,0,142,142,133,1,stimuli/stim_20210407_power2amp/equal_lnn_AM5.4Hz_78.m4a,,,
,,,,,,,,,,,,41023,2021-04-22_18h35.49.120,judgeSpeechMusic_20210407_logNormShiftAmp,2020.1.2,MacIntel,60,,,,,,,,,,,,,,2,6.84389,,0,0,143,143,146,1,stimuli/stim_20210407_power2amp/equal_lnn_AM6Hz_78.m4a,,,
,,,,,,,,,,,,41023,2021-04-22_18h35.49.120,judgeSpeechMusic_20210407_logNormShiftAmp,2020.1.2,MacIntel,60,,,,,,,,,,,,,,1,5.64334,,0,0,144,144,7,1,stimuli/stim_20210407_power2amp/equal_lnn_AM0.6Hz_30.m4a,,,
,,,,,,,,,,,,41023,2021-04-22_18h35.49.120,judgeSpeechMusic_20210407_logNormShiftAmp,2020.1.2,MacIntel,60,,,,,,,,,,,,,,2,6.527525,2,1,0,145,145,115,1,stimuli/stim_20210407_power2amp/equal_lnn_AM4.8Hz_72.m4a,1.26403,,
,,,,,,,,,,,,41023,2021-04-22_18h35.49.120,judgeSpeechMusic_20210407_logNormShiftAmp,2020.1.2,MacIntel,60,,,,,,,,,,,,,,2,6.19565,,0,0,146,146,52,1,stimuli/stim_20210407_power2amp/equal_lnn_AM2.4Hz_73.m4a,,,
,,,,,,,,,,,,41023,2021-04-22_18h35.49.120,judgeSpeechMusic_20210407_logNormShiftAmp,2020.1.2,MacIntel,60,,,,,,,,,,,,,,2,5.78105,,0,0,147,147,122,1,stimuli/stim_20210407_power2amp/equal_lnn_AM5.4Hz_24.m4a,,,
,,,,,,,,,,,,41023,2021-04-22_18h35.49.120,judgeSpeechMusic_20210407_logNormShiftAmp,2020.1.2,MacIntel,60,,,,,,,,,,,,,,1,6.293755,,0,0,148,148,109,1,stimuli/stim_20210407_power2amp/equal_lnn_AM4.8Hz_37.m4a,,,
,,,,,,,,,,,,41023,2021-04-22_18h35.49.120,judgeSpeechMusic_20210407_logNormShiftAmp,2020.1.2,MacIntel,60,,,,,,,,,,,,,,2,7.226915,,0,0,149,149,130,1,stimuli/stim_20210407_power2amp/equal_lnn_AM5.4Hz_50.m4a,,,
,,,,,,,,,,,,41023,2021-04-22_18h35.49.120,judgeSpeechMusic_20210407_logNormShiftAmp,2020.1.2,MacIntel,60,,,,,,,,,,,,,,1,5.59691,,0,1,0,150,9,1,stimuli/stim_20210407_power2amp/equal_lnn_AM0.6Hz_50.m4a,,,
,,,,,,,,,,,,41023,2021-04-22_18h35.49.120,judgeSpeechMusic_20210407_logNormShiftAmp,2020.1.2,MacIntel,60,,,,,,,,,,,,,,2,6.924555,,0,1,1,151,47,1,stimuli/stim_20210407_power2amp/equal_lnn_AM2.4Hz_21.m4a,,,
,,,,,,,,,,,,41023,2021-04-22_18h35.49.120,judgeSpeechMusic_20210407_logNormShiftAmp,2020.1.2,MacIntel,60,,,,,,,,,,,,,,1,5.61108,,0,1,2,152,117,1,stimuli/stim_20210407_power2amp/equal_lnn_AM4.8Hz_95.m4a,,,
,,,,,,,,,,,,41023,2021-04-22_18h35.49.120,judgeSpeechMusic_20210407_logNormShiftAmp,2020.1.2,MacIntel,60,,,,,,,,,,,,,,1,6.03031,,0,1,3,153,87,1,stimuli/stim_20210407_power2amp/equal_lnn_AM3.6Hz_23.m4a,,,
,,,,,,,,,,,,41023,2021-04-22_18h35.49.120,judgeSpeechMusic_20210407_logNormShiftAmp,2020.1.2,MacIntel,60,,,,,,,,,,,,,,2,6.09545,,0,1,4,154,115,1,stimuli/stim_20210407_power2amp/equal_lnn_AM4.8Hz_72.m4a,,,
,,,,,,,,,,,,41023,2021-04-22_18h35.49.120,judgeSpeechMusic_20210407_logNormShiftAmp,2020.1.2,MacIntel,60,,,,,,,,,,,,,,2,6.59544,,0,1,5,155,21,1,stimuli/stim_20210407_power2amp/equal_lnn_AM1.2Hz_33.m4a,,,
,,,,,,,,,,,,41023,2021-04-22_18h35.49.120,judgeSpeechMusic_20210407_logNormShiftAmp,2020.1.2,MacIntel,60,,,,,,,,,,,,,,1,5.77126,,0,1,6,156,92,1,stimuli/stim_20210407_power2amp/equal_lnn_AM4.2Hz_71.m4a,,,
,,,,,,,,,,,,41023,2021-04-22_18h35.49.120,judgeSpeechMusic_20210407_logNormShiftAmp,2020.1.2,MacIntel,60,,,,,,,,,,,,,,2,6.014355,,0,1,7,157,31,1,stimuli/stim_20210407_power2amp/equal_lnn_AM1.8Hz_41.m4a,,,
,,,,,,,,,,,,41023,2021-04-22_18h35.49.120,judgeSpeechMusic_20210407_logNormShiftAmp,2020.1.2,MacIntel,60,,,,,,,,,,,,,,1,6.171795,,0,1,8,158,111,1,stimuli/stim_20210407_power2amp/equal_lnn_AM4.8Hz_19.m4a,,,
,,,,,,,,,,,,41023,2021-04-22_18h35.49.120,judgeSpeechMusic_20210407_logNormShiftAmp,2020.1.2,MacIntel,60,,,,,,,,,,,,,,2,10.29625,,0,1,9,159,4,1,stimuli/stim_20210407_power2amp/equal_lnn_AM0.6Hz_4.m4a,,,
,,,,,,,,,,,,41023,2021-04-22_18h35.49.120,judgeSpeechMusic_20210407_logNormShiftAmp,2020.1.2,MacIntel,60,,,,,,,,,,,,,,2,6.25717,,0,1,10,160,94,1,stimuli/stim_20210407_power2amp/equal_lnn_AM4.2Hz_1.m4a,,,
,,,,,,,,,,,,41023,2021-04-22_18h35.49.120,judgeSpeechMusic_20210407_logNormShiftAmp,2020.1.2,MacIntel,60,,,,,,,,,,,,,,1,6.53037,,0,1,11,161,95,1,stimuli/stim_20210407_power2amp/equal_lnn_AM4.2Hz_30.m4a,,,
,,,,,,,,,,,,41023,2021-04-22_18h35.49.120,judgeSpeechMusic_20210407_logNormShiftAmp,2020.1.2,MacIntel,60,,,,,,,,,,,,,,2,7.459115,,0,1,12,162,2,1,stimuli/stim_20210407_power2amp/equal_lnn_AM0.6Hz_96.m4a,,,
,,,,,,,,,,,,41023,2021-04-22_18h35.49.120,judgeSpeechMusic_20210407_logNormShiftAmp,2020.1.2,MacIntel,60,,,,,,,,,,,,,,2,10.61201,,0,1,13,163,24,1,stimuli/stim_20210407_power2amp/equal_lnn_AM1.2Hz_36.m4a,,,
,,,,,,,,,,,,41023,2021-04-22_18h35.49.120,judgeSpeechMusic_20210407_logNormShiftAmp,2020.1.2,MacIntel,60,,,,,,,,,,,,,,1,8.18778,,0,1,14,164,34,1,stimuli/stim_20210407_power2amp/equal_lnn_AM1.8Hz_51.m4a,,,
,,,,,,,,,,,,41023,2021-04-22_18h35.49.120,judgeSpeechMusic_20210407_logNormShiftAmp,2020.1.2,MacIntel,60,,,,,,,,,,,,,,2,6.261875,,0,1,15,165,140,1,stimuli/stim_20210407_power2amp/equal_lnn_AM6Hz_23.m4a,,,
,,,,,,,,,,,,41023,2021-04-22_18h35.49.120,judgeSpeechMusic_20210407_logNormShiftAmp,2020.1.2,MacIntel,60,,,,,,,,,,,,,,2,6.18106,,0,1,16,166,12,1,stimuli/stim_20210407_power2amp/equal_lnn_AM0.6Hz_79.m4a,,,
,,,,,,,,,,,,41023,2021-04-22_18h35.49.120,judgeSpeechMusic_20210407_logNormShiftAmp,2020.1.2,MacIntel,60,,,,,,,,,,,,,,2,7.37492,,0,1,17,167,98,1,stimuli/stim_20210407_power2amp/equal_lnn_AM4.2Hz_49.m4a,,,
,,,,,,,,,,,,41023,2021-04-22_18h35.49.120,judgeSpeechMusic_20210407_logNormShiftAmp,2020.1.2,MacIntel,60,,,,,,,,,,,,,,2,6.458225,,0,1,18,168,102,1,stimuli/stim_20210407_power2amp/equal_lnn_AM4.2Hz_81.m4a,,,
,,,,,,,,,,,,41023,2021-04-22_18h35.49.120,judgeSpeechMusic_20210407_logNormShiftAmp,2020.1.2,MacIntel,60,,,,,,,,,,,,,,1,6.360145,,0,1,19,169,14,1,stimuli/stim_20210407_power2amp/equal_lnn_AM0.6Hz_44.m4a,,,
,,,,,,,,,,,,41023,2021-04-22_18h35.49.120,judgeSpeechMusic_20210407_logNormShiftAmp,2020.1.2,MacIntel,60,,,,,,,,,,,,,,2,6.330075,2,1,1,20,170,112,1,stimuli/stim_20210407_power2amp/equal_lnn_AM4.8Hz_11.m4a,0.33043,,
,,,,,,,,,,,,41023,2021-04-22_18h35.49.120,judgeSpeechMusic_20210407_logNormShiftAmp,2020.1.2,MacIntel,60,,,,,,,,,,,,,,2,6.83043,,0,1,21,171,113,1,stimuli/stim_20210407_power2amp/equal_lnn_AM4.8Hz_52.m4a,,,
,,,,,,,,,,,,41023,2021-04-22_18h35.49.120,judgeSpeechMusic_20210407_logNormShiftAmp,2020.1.2,MacIntel,60,,,,,,,,,,,,,,1,6.42699,,0,1,22,172,73,1,stimuli/stim_20210407_power2amp/equal_lnn_AM3Hz_37.m4a,,,
,,,,,,,,,,,,41023,2021-04-22_18h35.49.120,judgeSpeechMusic_20210407_logNormShiftAmp,2020.1.2,MacIntel,60,,,,,,,,,,,,,,2,6.114925,,0,1,23,173,32,1,stimuli/stim_20210407_power2amp/equal_lnn_AM1.8Hz_80.m4a,,,
,,,,,,,,,,,,41023,2021-04-22_18h35.49.120,judgeSpeechMusic_20210407_logNormShiftAmp,2020.1.2,MacIntel,60,,,,,,,,,,,,,,2,5.661195,,0,1,24,174,118,1,stimuli/stim_20210407_power2amp/equal_lnn_AM4.8Hz_83.m4a,,,
,,,,,,,,,,,,41023,2021-04-22_18h35.49.120,judgeSpeechMusic_20210407_logNormShiftAmp,2020.1.2,MacIntel,60,,,,,,,,,,,,,,1,5.427405,,0,1,25,175,0,1,stimuli/stim_20210407_power2amp/equal_lnn_AM0.6Hz_55.m4a,,,
,,,,,,,,,,,,41023,2021-04-22_18h35.49.120,judgeSpeechMusic_20210407_logNormShiftAmp,2020.1.2,MacIntel,60,,,,,,,,,,,,,,2,5.83049,,0,1,26,176,130,1,stimuli/stim_20210407_power2amp/equal_lnn_AM5.4Hz_50.m4a,,,
,,,,,,,,,,,,41023,2021-04-22_18h35.49.120,judgeSpeechMusic_20210407_logNormShiftAmp,2020.1.2,MacIntel,60,,,,,,,,,,,,,,1,5.70581,,0,1,27,177,62,1,stimuli/stim_20210407_power2amp/equal_lnn_AM3Hz_66.m4a,,,
,,,,,,,,,,,,41023,2021-04-22_18h35.49.120,judgeSpeechMusic_20210407_logNormShiftAmp,2020.1.2,MacIntel,60,,,,,,,,,,,,,,2,8.07924,,0,1,28,178,57,1,stimuli/stim_20210407_power2amp/equal_lnn_AM2.4Hz_24.m4a,,,
,,,,,,,,,,,,41023,2021-04-22_18h35.49.120,judgeSpeechMusic_20210407_logNormShiftAmp,2020.1.2,MacIntel,60,,,,,,,,,,,,,,1,6.387575,,0,1,29,179,144,1,stimuli/stim_20210407_power2amp/equal_lnn_AM6Hz_60.m4a,,,
,,,,,,,,,,,,41023,2021-04-22_18h35.49.120,judgeSpeechMusic_20210407_logNormShiftAmp,2020.1.2,MacIntel,60,,,,,,,,,,,,,,1,5.330945,,0,1,30,180,96,1,stimuli/stim_20210407_power2amp/equal_lnn_AM4.2Hz_8.m4a,,,
,,,,,,,,,,,,41023,2021-04-22_18h35.49.120,judgeSpeechMusic_20210407_logNormShiftAmp,2020.1.2,MacIntel,60,,,,,,,,,,,,,,2,6.62683,,0,1,31,181,11,1,stimuli/stim_20210407_power2amp/equal_lnn_AM0.6Hz_9.m4a,,,
,,,,,,,,,,,,41023,2021-04-22_18h35.49.120,judgeSpeechMusic_20210407_logNormShiftAmp,2020.1.2,MacIntel,60,,,,,,,,,,,,,,1,7.846355,,0,1,32,182,60,1,stimuli/stim_20210407_power2amp/equal_lnn_AM3Hz_80.m4a,,,
,,,,,,,,,,,,41023,2021-04-22_18h35.49.120,judgeSpeechMusic_20210407_logNormShiftAmp,2020.1.2,MacIntel,60,,,,,,,,,,,,,,2,6.50819,,0,1,33,183,8,1,stimuli/stim_20210407_power2amp/equal_lnn_AM0.6Hz_2.m4a,,,
,,,,,,,,,,,,41023,2021-04-22_18h35.49.120,judgeSpeechMusic_20210407_logNormShiftAmp,2020.1.2,MacIntel,60,,,,,,,,,,,,,,1,6.676685,,0,1,34,184,72,1,stimuli/stim_20210407_power2amp/equal_lnn_AM3Hz_72.m4a,,,
,,,,,,,,,,,,41023,2021-04-22_18h35.49.120,judgeSpeechMusic_20210407_logNormShiftAmp,2020.1.2,MacIntel,60,,,,,,,,,,,,,,2,11.34696,,0,1,35,185,10,1,stimuli/stim_20210407_power2amp/equal_lnn_AM0.6Hz_40.m4a,,,
,,,,,,,,,,,,41023,2021-04-22_18h35.49.120,judgeSpeechMusic_20210407_logNormShiftAmp,2020.1.2,MacIntel,60,,,,,,,,,,,,,,1,8.20636,,0,1,36,186,49,1,stimuli/stim_20210407_power2amp/equal_lnn_AM2.4Hz_27.m4a,,,
,,,,,,,,,,,,41023,2021-04-22_18h35.49.120,judgeSpeechMusic_20210407_logNormShiftAmp,2020.1.2,MacIntel,60,,,,,,,,,,,,,,2,5.793665,,0,1,37,187,35,1,stimuli/stim_20210407_power2amp/equal_lnn_AM1.8Hz_5.m4a,,,
,,,,,,,,,,,,41023,2021-04-22_18h35.49.120,judgeSpeechMusic_20210407_logNormShiftAmp,2020.1.2,MacIntel,60,,,,,,,,,,,,,,2,6.10951,,0,1,38,188,19,1,stimuli/stim_20210407_power2amp/equal_lnn_AM1.2Hz_2.m4a,,,
,,,,,,,,,,,,41023,2021-04-22_18h35.49.120,judgeSpeechMusic_20210407_logNormShiftAmp,2020.1.2,MacIntel,60,,,,,,,,,,,,,,1,6.280035,,0,1,39,189,50,1,stimuli/stim_20210407_power2amp/equal_lnn_AM2.4Hz_45.m4a,,,
,,,,,,,,,,,,41023,2021-04-22_18h35.49.120,judgeSpeechMusic_20210407_logNormShiftAmp,2020.1.2,MacIntel,60,,,,,,,,,,,,,,1,7.212175,,0,1,40,190,132,1,stimuli/stim_20210407_power2amp/equal_lnn_AM5.4Hz_39.m4a,,,
,,,,,,,,,,,,41023,2021-04-22_18h35.49.120,judgeSpeechMusic_20210407_logNormShiftAmp,2020.1.2,MacIntel,60,,,,,,,,,,,,,,1,6.210665,,0,1,41,191,18,1,stimuli/stim_20210407_power2amp/equal_lnn_AM1.2Hz_34.m4a,,,
,,,,,,,,,,,,41023,2021-04-22_18h35.49.120,judgeSpeechMusic_20210407_logNormShiftAmp,2020.1.2,MacIntel,60,,,,,,,,,,,,,,2,6.28006,4,1,1,42,192,105,1,stimuli/stim_20210407_power2amp/equal_lnn_AM4.8Hz_15.m4a,0.532995,,
,,,,,,,,,,,,41023,2021-04-22_18h35.49.120,judgeSpeechMusic_20210407_logNormShiftAmp,2020.1.2,MacIntel,60,,,,,,,,,,,,,,2,6.83127,,0,1,43,193,109,1,stimuli/stim_20210407_power2amp/equal_lnn_AM4.8Hz_37.m4a,,,
,,,,,,,,,,,,41023,2021-04-22_18h35.49.120,judgeSpeechMusic_20210407_logNormShiftAmp,2020.1.2,MacIntel,60,,,,,,,,,,,,,,1,7.107315,,0,1,44,194,13,1,stimuli/stim_20210407_power2amp/equal_lnn_AM0.6Hz_65.m4a,,,
,,,,,,,,,,,,41023,2021-04-22_18h35.49.120,judgeSpeechMusic_20210407_logNormShiftAmp,2020.1.2,MacIntel,60,,,,,,,,,,,,,,2,6.30905,,0,1,45,195,61,1,stimuli/stim_20210407_power2amp/equal_lnn_AM3Hz_21.m4a,,,
,,,,,,,,,,,,41023,2021-04-22_18h35.49.120,judgeSpeechMusic_20210407_logNormShiftAmp,2020.1.2,MacIntel,60,,,,,,,,,,,,,,2,5.994545,,0,1,46,196,55,1,stimuli/stim_20210407_power2amp/equal_lnn_AM2.4Hz_56.m4a,,,
,,,,,,,,,,,,41023,2021-04-22_18h35.49.120,judgeSpeechMusic_20210407_logNormShiftAmp,2020.1.2,MacIntel,60,,,,,,,,,,,,,,1,6.34368,,0,1,47,197,136,1,stimuli/stim_20210407_power2amp/equal_lnn_AM6Hz_2.m4a,,,
,,,,,,,,,,,,41023,2021-04-22_18h35.49.120,judgeSpeechMusic_20210407_logNormShiftAmp,2020.1.2,MacIntel,60,,,,,,,,,,,,,,1,5.474985,,0,1,48,198,100,1,stimuli/stim_20210407_power2amp/equal_lnn_AM4.2Hz_28.m4a,,,
,,,,,,,,,,,,41023,2021-04-22_18h35.49.120,judgeSpeechMusic_20210407_logNormShiftAmp,2020.1.2,MacIntel,60,,,,,,,,,,,,,,1,6.759335,,0,1,49,199,48,1,stimuli/stim_20210407_power2amp/equal_lnn_AM2.4Hz_26.m4a,,,
,,,,,,,,,,,,41023,2021-04-22_18h35.49.120,judgeSpeechMusic_20210407_logNormShiftAmp,2020.1.2,MacIntel,60,,,,,,,,,,,,,,2,5.76695,,0,1,50,200,145,1,stimuli/stim_20210407_power2amp/equal_lnn_AM6Hz_5.m4a,,,
,,,,,,,,,,,,41023,2021-04-22_18h35.49.120,judgeSpeechMusic_20210407_logNormShiftAmp,2020.1.2,MacIntel,60,,,,,,,,,,,,,,2,6.060115,,0,1,51,201,78,1,stimuli/stim_20210407_power2amp/equal_lnn_AM3.6Hz_25.m4a,,,
,,,,,,,,,,,,41023,2021-04-22_18h35.49.120,judgeSpeechMusic_20210407_logNormShiftAmp,2020.1.2,MacIntel,60,,,,,,,,,,,,,,2,5.41415,,0,1,52,202,93,1,stimuli/stim_20210407_power2amp/equal_lnn_AM4.2Hz_80.m4a,,,
,,,,,,,,,,,,41023,2021-04-22_18h35.49.120,judgeSpeechMusic_20210407_logNormShiftAmp,2020.1.2,MacIntel,60,,,,,,,,,,,,,,2,5.80357,,0,1,53,203,52,1,stimuli/stim_20210407_power2amp/equal_lnn_AM2.4Hz_73.m4a,,,
,,,,,,,,,,,,41023,2021-04-22_18h35.49.120,judgeSpeechMusic_20210407_logNormShiftAmp,2020.1.2,MacIntel,60,,,,,,,,,,,,,,1,5.41319,,0,1,54,204,137,1,stimuli/stim_20210407_power2amp/equal_lnn_AM6Hz_48.m4a,,,
,,,,,,,,,,,,41023,2021-04-22_18h35.49.120,judgeSpeechMusic_20210407_logNormShiftAmp,2020.1.2,MacIntel,60,,,,,,,,,,,,,,2,5.92654,,0,1,55,205,66,1,stimuli/stim_20210407_power2amp/equal_lnn_AM3Hz_52.m4a,,,
,,,,,,,,,,,,41023,2021-04-22_18h35.49.120,judgeSpeechMusic_20210407_logNormShiftAmp,2020.1.2,MacIntel,60,,,,,,,,,,,,,,2,6.90555,,0,1,56,206,33,1,stimuli/stim_20210407_power2amp/equal_lnn_AM1.8Hz_99.m4a,,,
,,,,,,,,,,,,41023,2021-04-22_18h35.49.120,judgeSpeechMusic_20210407_logNormShiftAmp,2020.1.2,MacIntel,60,,,,,,,,,,,,,,1,5.612545,,0,1,57,207,129,1,stimuli/stim_20210407_power2amp/equal_lnn_AM5.4Hz_59.m4a,,,
,,,,,,,,,,,,41023,2021-04-22_18h35.49.120,judgeSpeechMusic_20210407_logNormShiftAmp,2020.1.2,MacIntel,60,,,,,,,,,,,,,,2,5.45654,,0,1,58,208,131,1,stimuli/stim_20210407_power2amp/equal_lnn_AM5.4Hz_10.m4a,,,
,,,,,,,,,,,,41023,2021-04-22_18h35.49.120,judgeSpeechMusic_20210407_logNormShiftAmp,2020.1.2,MacIntel,60,,,,,,,,,,,,,,1,6.42706,,0,1,59,209,106,1,stimuli/stim_20210407_power2amp/equal_lnn_AM4.8Hz_65.m4a,,,
,,,,,,,,,,,,41023,2021-04-22_18h35.49.120,judgeSpeechMusic_20210407_logNormShiftAmp,2020.1.2,MacIntel,60,,,,,,,,,,,,,,2,9.206695,,0,1,60,210,88,1,stimuli/stim_20210407_power2amp/equal_lnn_AM3.6Hz_1.m4a,,,
,,,,,,,,,,,,41023,2021-04-22_18h35.49.120,judgeSpeechMusic_20210407_logNormShiftAmp,2020.1.2,MacIntel,60,,,,,,,,,,,,,,1,6.765565,,0,1,61,211,125,1,stimuli/stim_20210407_power2amp/equal_lnn_AM5.4Hz_53.m4a,,,
,,,,,,,,,,,,41023,2021-04-22_18h35.49.120,judgeSpeechMusic_20210407_logNormShiftAmp,2020.1.2,MacIntel,60,,,,,,,,,,,,,,2,6.854575,,0,1,62,212,53,1,stimuli/stim_20210407_power2amp/equal_lnn_AM2.4Hz_76.m4a,,,
,,,,,,,,,,,,41023,2021-04-22_18h35.49.120,judgeSpeechMusic_20210407_logNormShiftAmp,2020.1.2,MacIntel,60,,,,,,,,,,,,,,1,6.543755,,0,1,63,213,121,1,stimuli/stim_20210407_power2amp/equal_lnn_AM5.4Hz_99.m4a,,,
,,,,,,,,,,,,41023,2021-04-22_18h35.49.120,judgeSpeechMusic_20210407_logNormShiftAmp,2020.1.2,MacIntel,60,,,,,,,,,,,,,,2,6.64417,2,1,1,64,214,58,1,stimuli/stim_20210407_power2amp/equal_lnn_AM2.4Hz_55.m4a,0.665065,,
,,,,,,,,,,,,41023,2021-04-22_18h35.49.120,judgeSpeechMusic_20210407_logNormShiftAmp,2020.1.2,MacIntel,60,,,,,,,,,,,,,,1,6.89517,,0,1,65,215,143,1,stimuli/stim_20210407_power2amp/equal_lnn_AM6Hz_98.m4a,,,
,,,,,,,,,,,,41023,2021-04-22_18h35.49.120,judgeSpeechMusic_20210407_logNormShiftAmp,2020.1.2,MacIntel,60,,,,,,,,,,,,,,2,5.788665,,0,1,66,216,124,1,stimuli/stim_20210407_power2amp/equal_lnn_AM5.4Hz_49.m4a,,,
,,,,,,,,,,,,41023,2021-04-22_18h35.49.120,judgeSpeechMusic_20210407_logNormShiftAmp,2020.1.2,MacIntel,60,,,,,,,,,,,,,,2,6.93052,,0,1,67,217,101,1,stimuli/stim_20210407_power2amp/equal_lnn_AM4.2Hz_9.m4a,,,
,,,,,,,,,,,,41023,2021-04-22_18h35.49.120,judgeSpeechMusic_20210407_logNormShiftAmp,2020.1.2,MacIntel,60,,,,,,,,,,,,,,1,6.527045,,0,1,68,218,65,1,stimuli/stim_20210407_power2amp/equal_lnn_AM3Hz_28.m4a,,,
,,,,,,,,,,,,41023,2021-04-22_18h35.49.120,judgeSpeechMusic_20210407_logNormShiftAmp,2020.1.2,MacIntel,60,,,,,,,,,,,,,,2,6.34566,,0,1,69,219,89,1,stimuli/stim_20210407_power2amp/equal_lnn_AM3.6Hz_3.m4a,,,
,,,,,,,,,,,,41023,2021-04-22_18h35.49.120,judgeSpeechMusic_20210407_logNormShiftAmp,2020.1.2,MacIntel,60,,,,,,,,,,,,,,1,5.611655,,0,1,70,220,67,1,stimuli/stim_20210407_power2amp/equal_lnn_AM3Hz_89.m4a,,,
,,,,,,,,,,,,41023,2021-04-22_18h35.49.120,judgeSpeechMusic_20210407_logNormShiftAmp,2020.1.2,MacIntel,60,,,,,,,,,,,,,,1,5.7297,,0,1,71,221,54,1,stimuli/stim_20210407_power2amp/equal_lnn_AM2.4Hz_10.m4a,,,
,,,,,,,,,,,,41023,2021-04-22_18h35.49.120,judgeSpeechMusic_20210407_logNormShiftAmp,2020.1.2,MacIntel,60,,,,,,,,,,,,,,1,6.38304,,0,1,72,222,126,1,stimuli/stim_20210407_power2amp/equal_lnn_AM5.4Hz_69.m4a,,,
,,,,,,,,,,,,41023,2021-04-22_18h35.49.120,judgeSpeechMusic_20210407_logNormShiftAmp,2020.1.2,MacIntel,60,,,,,,,,,,,,,,2,7.023625,,0,1,73,223,44,1,stimuli/stim_20210407_power2amp/equal_lnn_AM1.8Hz_6.m4a,,,
,,,,,,,,,,,,41023,2021-04-22_18h35.49.120,judgeSpeechMusic_20210407_logNormShiftAmp,2020.1.2,MacIntel,60,,,,,,,,,,,,,,2,7.43814,,0,1,74,224,41,1,stimuli/stim_20210407_power2amp/equal_lnn_AM1.8Hz_31.m4a,,,
,,,,,,,,,,,,41023,2021-04-22_18h35.49.120,judgeSpeechMusic_20210407_logNormShiftAmp,2020.1.2,MacIntel,60,,,,,,,,,,,,,,2,5.809535,,0,1,75,225,77,1,stimuli/stim_20210407_power2amp/equal_lnn_AM3.6Hz_22.m4a,,,
,,,,,,,,,,,,41023,2021-04-22_18h35.49.120,judgeSpeechMusic_20210407_logNormShiftAmp,2020.1.2,MacIntel,60,,,,,,,,,,,,,,1,6.79118,,0,1,76,226,128,1,stimuli/stim_20210407_power2amp/equal_lnn_AM5.4Hz_4.m4a,,,
,,,,,,,,,,,,41023,2021-04-22_18h35.49.120,judgeSpeechMusic_20210407_logNormShiftAmp,2020.1.2,MacIntel,60,,,,,,,,,,,,,,2,5.79155,,0,1,77,227,139,1,stimuli/stim_20210407_power2amp/equal_lnn_AM6Hz_73.m4a,,,
,,,,,,,,,,,,41023,2021-04-22_18h35.49.120,judgeSpeechMusic_20210407_logNormShiftAmp,2020.1.2,MacIntel,60,,,,,,,,,,,,,,2,5.429375,,0,1,78,228,108,1,stimuli/stim_20210407_power2amp/equal_lnn_AM4.8Hz_57.m4a,,,
,,,,,,,,,,,,41023,2021-04-22_18h35.49.120,judgeSpeechMusic_20210407_logNormShiftAmp,2020.1.2,MacIntel,60,,,,,,,,,,,,,,1,5.87051,,0,1,79,229,76,1,stimuli/stim_20210407_power2amp/equal_lnn_AM3.6Hz_48.m4a,,,
,,,,,,,,,,,,41023,2021-04-22_18h35.49.120,judgeSpeechMusic_20210407_logNormShiftAmp,2020.1.2,MacIntel,60,,,,,,,,,,,,,,1,5.72545,,0,1,80,230,70,1,stimuli/stim_20210407_power2amp/equal_lnn_AM3Hz_69.m4a,,,
,,,,,,,,,,,,41023,2021-04-22_18h35.49.120,judgeSpeechMusic_20210407_logNormShiftAmp,2020.1.2,MacIntel,60,,,,,,,,,,,,,,1,5.91682,,0,1,81,231,122,1,stimuli/stim_20210407_power2amp/equal_lnn_AM5.4Hz_24.m4a,,,
,,,,,,,,,,,,41023,2021-04-22_18h35.49.120,judgeSpeechMusic_20210407_logNormShiftAmp,2020.1.2,MacIntel,60,,,,,,,,,,,,,,2,6.403165,,0,1,82,232,84,1,stimuli/stim_20210407_power2amp/equal_lnn_AM3.6Hz_95.m4a,,,
,,,,,,,,,,,,41023,2021-04-22_18h35.49.120,judgeSpeechMusic_20210407_logNormShiftAmp,2020.1.2,MacIntel,60,,,,,,,,,,,,,,1,5.87753,,0,1,83,233,22,1,stimuli/stim_20210407_power2amp/equal_lnn_AM1.2Hz_67.m4a,,,
,,,,,,,,,,,,41023,2021-04-22_18h35.49.120,judgeSpeechMusic_20210407_logNormShiftAmp,2020.1.2,MacIntel,60,,,,,,,,,,,,,,1,5.97677,,0,1,84,234,42,1,stimuli/stim_20210407_power2amp/equal_lnn_AM1.8Hz_72.m4a,,,
,,,,,,,,,,,,41023,2021-04-22_18h35.49.120,judgeSpeechMusic_20210407_logNormShiftAmp,2020.1.2,MacIntel,60,,,,,,,,,,,,,,2,5.493715,,0,1,85,235,133,1,stimuli/stim_20210407_power2amp/equal_lnn_AM5.4Hz_78.m4a,,,
,,,,,,,,,,,,41023,2021-04-22_18h35.49.120,judgeSpeechMusic_20210407_logNormShiftAmp,2020.1.2,MacIntel,60,,,,,,,,,,,,,,2,6.159025,,0,1,86,236,30,1,stimuli/stim_20210407_power2amp/equal_lnn_AM1.8Hz_70.m4a,,,
,,,,,,,,,,,,41023,2021-04-22_18h35.49.120,judgeSpeechMusic_20210407_logNormShiftAmp,2020.1.2,MacIntel,60,,,,,,,,,,,,,,1,5.87061,1,1,1,87,237,17,1,stimuli/stim_20210407_power2amp/equal_lnn_AM1.2Hz_93.m4a,0.84819,,
,,,,,,,,,,,,41023,2021-04-22_18h35.49.120,judgeSpeechMusic_20210407_logNormShiftAmp,2020.1.2,MacIntel,60,,,,,,,,,,,,,,1,6.65958,,0,1,88,238,69,1,stimuli/stim_20210407_power2amp/equal_lnn_AM3Hz_44.m4a,,,
,,,,,,,,,,,,41023,2021-04-22_18h35.49.120,judgeSpeechMusic_20210407_logNormShiftAmp,2020.1.2,MacIntel,60,,,,,,,,,,,,,,1,6.411605,,0,1,89,239,90,1,stimuli/stim_20210407_power2amp/equal_lnn_AM4.2Hz_82.m4a,,,
,,,,,,,,,,,,41023,2021-04-22_18h35.49.120,judgeSpeechMusic_20210407_logNormShiftAmp,2020.1.2,MacIntel,60,,,,,,,,,,,,,,2,6.41318,,0,1,90,240,83,1,stimuli/stim_20210407_power2amp/equal_lnn_AM3.6Hz_45.m4a,,,
,,,,,,,,,,,,41023,2021-04-22_18h35.49.120,judgeSpeechMusic_20210407_logNormShiftAmp,2020.1.2,MacIntel,60,,,,,,,,,,,,,,1,5.89323,,0,1,91,241,110,1,stimuli/stim_20210407_power2amp/equal_lnn_AM4.8Hz_59.m4a,,,
,,,,,,,,,,,,41023,2021-04-22_18h35.49.120,judgeSpeechMusic_20210407_logNormShiftAmp,2020.1.2,MacIntel,60,,,,,,,,,,,,,,1,6.34441,,0,1,92,242,82,1,stimuli/stim_20210407_power2amp/equal_lnn_AM3.6Hz_38.m4a,,,
,,,,,,,,,,,,41023,2021-04-22_18h35.49.120,judgeSpeechMusic_20210407_logNormShiftAmp,2020.1.2,MacIntel,60,,,,,,,,,,,,,,1,5.578495,,0,1,93,243,27,1,stimuli/stim_20210407_power2amp/equal_lnn_AM1.2Hz_46.m4a,,,
,,,,,,,,,,,,41023,2021-04-22_18h35.49.120,judgeSpeechMusic_20210407_logNormShiftAmp,2020.1.2,MacIntel,60,,,,,,,,,,,,,,2,5.642625,,0,1,94,244,97,1,stimuli/stim_20210407_power2amp/equal_lnn_AM4.2Hz_94.m4a,,,
,,,,,,,,,,,,41023,2021-04-22_18h35.49.120,judgeSpeechMusic_20210407_logNormShiftAmp,2020.1.2,MacIntel,60,,,,,,,,,,,,,,2,6.13261,,0,1,95,245,40,1,stimuli/stim_20210407_power2amp/equal_lnn_AM1.8Hz_77.m4a,,,
,,,,,,,,,,,,41023,2021-04-22_18h35.49.120,judgeSpeechMusic_20210407_logNormShiftAmp,2020.1.2,MacIntel,60,,,,,,,,,,,,,,1,5.55783,,0,1,96,246,146,1,stimuli/stim_20210407_power2amp/equal_lnn_AM6Hz_78.m4a,,,
,,,,,,,,,,,,41023,2021-04-22_18h35.49.120,judgeSpeechMusic_20210407_logNormShiftAmp,2020.1.2,MacIntel,60,,,,,,,,,,,,,,2,5.480885,,0,1,97,247,104,1,stimuli/stim_20210407_power2amp/equal_lnn_AM4.2Hz_3.m4a,,,
,,,,,,,,,,,,41023,2021-04-22_18h35.49.120,judgeSpeechMusic_20210407_logNormShiftAmp,2020.1.2,MacIntel,60,,,,,,,,,,,,,,1,6.274025,,0,1,98,248,64,1,stimuli/stim_20210407_power2amp/equal_lnn_AM3Hz_48.m4a,,,
,,,,,,,,,,,,41023,2021-04-22_18h35.49.120,judgeSpeechMusic_20210407_logNormShiftAmp,2020.1.2,MacIntel,60,,,,,,,,,,,,,,2,6.42724,,0,1,99,249,120,1,stimuli/stim_20210407_power2amp/equal_lnn_AM5.4Hz_64.m4a,,,
,,,,,,,,,,,,41023,2021-04-22_18h35.49.120,judgeSpeechMusic_20210407_logNormShiftAmp,2020.1.2,MacIntel,60,,,,,,,,,,,,,,2,5.78048,,0,1,100,250,39,1,stimuli/stim_20210407_power2amp/equal_lnn_AM1.8Hz_24.m4a,,,
,,,,,,,,,,,,41023,2021-04-22_18h35.49.120,judgeSpeechMusic_20210407_logNormShiftAmp,2020.1.2,MacIntel,60,,,,,,,,,,,,,,2,5.59834,,0,1,101,251,38,1,stimuli/stim_20210407_power2amp/equal_lnn_AM1.8Hz_82.m4a,,,
,,,,,,,,,,,,41023,2021-04-22_18h35.49.120,judgeSpeechMusic_20210407_logNormShiftAmp,2020.1.2,MacIntel,60,,,,,,,,,,,,,,1,6.51196,,0,1,102,252,149,1,stimuli/stim_20210407_power2amp/equal_lnn_AM6Hz_35.m4a,,,
,,,,,,,,,,,,41023,2021-04-22_18h35.49.120,judgeSpeechMusic_20210407_logNormShiftAmp,2020.1.2,MacIntel,60,,,,,,,,,,,,,,1,6.20874,,0,1,103,253,3,1,stimuli/stim_20210407_power2amp/equal_lnn_AM0.6Hz_75.m4a,,,
,,,,,,,,,,,,41023,2021-04-22_18h35.49.120,judgeSpeechMusic_20210407_logNormShiftAmp,2020.1.2,MacIntel,60,,,,,,,,,,,,,,1,6.242625,,0,1,104,254,23,1,stimuli/stim_20210407_power2amp/equal_lnn_AM1.2Hz_68.m4a,,,
,,,,,,,,,,,,41023,2021-04-22_18h35.49.120,judgeSpeechMusic_20210407_logNormShiftAmp,2020.1.2,MacIntel,60,,,,,,,,,,,,,,2,5.42566,,0,1,105,255,75,1,stimuli/stim_20210407_power2amp/equal_lnn_AM3.6Hz_20.m4a,,,
,,,,,,,,,,,,41023,2021-04-22_18h35.49.120,judgeSpeechMusic_20210407_logNormShiftAmp,2020.1.2,MacIntel,60,,,,,,,,,,,,,,1,5.59297,,0,1,106,256,15,1,stimuli/stim_20210407_power2amp/equal_lnn_AM1.2Hz_18.m4a,,,
,,,,,,,,,,,,41023,2021-04-22_18h35.49.120,judgeSpeechMusic_20210407_logNormShiftAmp,2020.1.2,MacIntel,60,,,,,,,,,,,,,,2,6.281855,2,1,1,107,257,74,1,stimuli/stim_20210407_power2amp/equal_lnn_AM3Hz_22.m4a,0.919545,,
,,,,,,,,,,,,41023,2021-04-22_18h35.49.120,judgeSpeechMusic_20210407_logNormShiftAmp,2020.1.2,MacIntel,60,,,,,,,,,,,,,,1,6.20842,,0,1,108,258,29,1,stimuli/stim_20210407_power2amp/equal_lnn_AM1.2Hz_48.m4a,,,
,,,,,,,,,,,,41023,2021-04-22_18h35.49.120,judgeSpeechMusic_20210407_logNormShiftAmp,2020.1.2,MacIntel,60,,,,,,,,,,,,,,2,6.30913,,0,1,109,259,46,1,stimuli/stim_20210407_power2amp/equal_lnn_AM2.4Hz_28.m4a,,,
,,,,,,,,,,,,41023,2021-04-22_18h35.49.120,judgeSpeechMusic_20210407_logNormShiftAmp,2020.1.2,MacIntel,60,,,,,,,,,,,,,,2,6.00795,,0,1,110,260,99,1,stimuli/stim_20210407_power2amp/equal_lnn_AM4.2Hz_2.m4a,,,
,,,,,,,,,,,,41023,2021-04-22_18h35.49.120,judgeSpeechMusic_20210407_logNormShiftAmp,2020.1.2,MacIntel,60,,,,,,,,,,,,,,2,5.61193,,0,1,111,261,103,1,stimuli/stim_20210407_power2amp/equal_lnn_AM4.2Hz_96.m4a,,,
,,,,,,,,,,,,41023,2021-04-22_18h35.49.120,judgeSpeechMusic_20210407_logNormShiftAmp,2020.1.2,MacIntel,60,,,,,,,,,,,,,,1,6.460065,,0,1,112,262,127,1,stimuli/stim_20210407_power2amp/equal_lnn_AM5.4Hz_61.m4a,,,
,,,,,,,,,,,,41023,2021-04-22_18h35.49.120,judgeSpeechMusic_20210407_logNormShiftAmp,2020.1.2,MacIntel,60,,,,,,,,,,,,,,1,5.61223,,0,1,113,263,56,1,stimuli/stim_20210407_power2amp/equal_lnn_AM2.4Hz_30.m4a,,,
,,,,,,,,,,,,41023,2021-04-22_18h35.49.120,judgeSpeechMusic_20210407_logNormShiftAmp,2020.1.2,MacIntel,60,,,,,,,,,,,,,,1,5.51189,,0,1,114,264,147,1,stimuli/stim_20210407_power2amp/equal_lnn_AM6Hz_6.m4a,,,
,,,,,,,,,,,,41023,2021-04-22_18h35.49.120,judgeSpeechMusic_20210407_logNormShiftAmp,2020.1.2,MacIntel,60,,,,,,,,,,,,,,1,6.32901,,0,1,115,265,20,1,stimuli/stim_20210407_power2amp/equal_lnn_AM1.2Hz_97.m4a,,,
,,,,,,,,,,,,41023,2021-04-22_18h35.49.120,judgeSpeechMusic_20210407_logNormShiftAmp,2020.1.2,MacIntel,60,,,,,,,,,,,,,,1,5.459505,,0,1,116,266,1,1,stimuli/stim_20210407_power2amp/equal_lnn_AM0.6Hz_90.m4a,,,
,,,,,,,,,,,,41023,2021-04-22_18h35.49.120,judgeSpeechMusic_20210407_logNormShiftAmp,2020.1.2,MacIntel,60,,,,,,,,,,,,,,2,6.21065,,0,1,117,267,86,1,stimuli/stim_20210407_power2amp/equal_lnn_AM3.6Hz_43.m4a,,,
,,,,,,,,,,,,41023,2021-04-22_18h35.49.120,judgeSpeechMusic_20210407_logNormShiftAmp,2020.1.2,MacIntel,60,,,,,,,,,,,,,,1,5.694215,,0,1,118,268,134,1,stimuli/stim_20210407_power2amp/equal_lnn_AM5.4Hz_70.m4a,,,
,,,,,,,,,,,,41023,2021-04-22_18h35.49.120,judgeSpeechMusic_20210407_logNormShiftAmp,2020.1.2,MacIntel,60,,,,,,,,,,,,,,2,5.579175,,0,1,119,269,63,1,stimuli/stim_20210407_power2amp/equal_lnn_AM3Hz_70.m4a,,,
,,,,,,,,,,,,41023,2021-04-22_18h35.49.120,judgeSpeechMusic_20210407_logNormShiftAmp,2020.1.2,MacIntel,60,,,,,,,,,,,,,,1,6.3663,,0,1,120,270,51,1,stimuli/stim_20210407_power2amp/equal_lnn_AM2.4Hz_19.m4a,,,
,,,,,,,,,,,,41023,2021-04-22_18h35.49.120,judgeSpeechMusic_20210407_logNormShiftAmp,2020.1.2,MacIntel,60,,,,,,,,,,,,,,1,6.095295,,0,1,121,271,71,1,stimuli/stim_20210407_power2amp/equal_lnn_AM3Hz_60.m4a,,,
,,,,,,,,,,,,41023,2021-04-22_18h35.49.120,judgeSpeechMusic_20210407_logNormShiftAmp,2020.1.2,MacIntel,60,,,,,,,,,,,,,,2,5.54323,,0,1,122,272,148,1,stimuli/stim_20210407_power2amp/equal_lnn_AM6Hz_19.m4a,,,
,,,,,,,,,,,,41023,2021-04-22_18h35.49.120,judgeSpeechMusic_20210407_logNormShiftAmp,2020.1.2,MacIntel,60,,,,,,,,,,,,,,1,7.2606,,0,1,123,273,26,1,stimuli/stim_20210407_power2amp/equal_lnn_AM1.2Hz_14.m4a,,,
,,,,,,,,,,,,41023,2021-04-22_18h35.49.120,judgeSpeechMusic_20210407_logNormShiftAmp,2020.1.2,MacIntel,60,,,,,,,,,,,,,,2,5.43294,,0,1,124,274,81,1,stimuli/stim_20210407_power2amp/equal_lnn_AM3.6Hz_74.m4a,,,
,,,,,,,,,,,,41023,2021-04-22_18h35.49.120,judgeSpeechMusic_20210407_logNormShiftAmp,2020.1.2,MacIntel,60,,,,,,,,,,,,,,1,5.834665,,0,1,125,275,43,1,stimuli/stim_20210407_power2amp/equal_lnn_AM1.8Hz_68.m4a,,,
,,,,,,,,,,,,41023,2021-04-22_18h35.49.120,judgeSpeechMusic_20210407_logNormShiftAmp,2020.1.2,MacIntel,60,,,,,,,,,,,,,,2,5.54444,,0,1,126,276,85,1,stimuli/stim_20210407_power2amp/equal_lnn_AM3.6Hz_88.m4a,,,
,,,,,,,,,,,,41023,2021-04-22_18h35.49.120,judgeSpeechMusic_20210407_logNormShiftAmp,2020.1.2,MacIntel,60,,,,,,,,,,,,,,1,5.855955,2,1,1,127,277,45,1,stimuli/stim_20210407_power2amp/equal_lnn_AM2.4Hz_36.m4a,2.47573,,
,,,,,,,,,,,,41023,2021-04-22_18h35.49.120,judgeSpeechMusic_20210407_logNormShiftAmp,2020.1.2,MacIntel,60,,,,,,,,,,,,,,2,6.20757,,0,1,128,278,68,1,stimuli/stim_20210407_power2amp/equal_lnn_AM3Hz_11.m4a,,,
,,,,,,,,,,,,41023,2021-04-22_18h35.49.120,judgeSpeechMusic_20210407_logNormShiftAmp,2020.1.2,MacIntel,60,,,,,,,,,,,,,,2,6.19394,,0,1,129,279,36,1,stimuli/stim_20210407_power2amp/equal_lnn_AM1.8Hz_53.m4a,,,
,,,,,,,,,,,,41023,2021-04-22_18h35.49.120,judgeSpeechMusic_20210407_logNormShiftAmp,2020.1.2,MacIntel,60,,,,,,,,,,,,,,2,7.205785,,0,1,130,280,5,1,stimuli/stim_20210407_power2amp/equal_lnn_AM0.6Hz_67.m4a,,,
,,,,,,,,,,,,41023,2021-04-22_18h35.49.120,judgeSpeechMusic_20210407_logNormShiftAmp,2020.1.2,MacIntel,60,,,,,,,,,,,,,,1,6.3394,,0,1,131,281,141,1,stimuli/stim_20210407_power2amp/equal_lnn_AM6Hz_11.m4a,,,
,,,,,,,,,,,,41023,2021-04-22_18h35.49.120,judgeSpeechMusic_20210407_logNormShiftAmp,2020.1.2,MacIntel,60,,,,,,,,,,,,,,2,7.01175,,0,1,132,282,7,1,stimuli/stim_20210407_power2amp/equal_lnn_AM0.6Hz_30.m4a,,,
,,,,,,,,,,,,41023,2021-04-22_18h35.49.120,judgeSpeechMusic_20210407_logNormShiftAmp,2020.1.2,MacIntel,60,,,,,,,,,,,,,,2,5.908555,,0,1,133,283,59,1,stimuli/stim_20210407_power2amp/equal_lnn_AM2.4Hz_57.m4a,,,
,,,,,,,,,,,,41023,2021-04-22_18h35.49.120,judgeSpeechMusic_20210407_logNormShiftAmp,2020.1.2,MacIntel,60,,,,,,,,,,,,,,2,6.05762,,0,1,134,284,80,1,stimuli/stim_20210407_power2amp/equal_lnn_AM3.6Hz_79.m4a,,,
,,,,,,,,,,,,41023,2021-04-22_18h35.49.120,judgeSpeechMusic_20210407_logNormShiftAmp,2020.1.2,MacIntel,60,,,,,,,,,,,,,,2,9.45764,,0,1,135,285,25,1,stimuli/stim_20210407_power2amp/equal_lnn_AM1.2Hz_25.m4a,,,
,,,,,,,,,,,,41023,2021-04-22_18h35.49.120,judgeSpeechMusic_20210407_logNormShiftAmp,2020.1.2,MacIntel,60,,,,,,,,,,,,,,2,8.86332,,0,1,136,286,114,1,stimuli/stim_20210407_power2amp/equal_lnn_AM4.8Hz_39.m4a,,,
,,,,,,,,,,,,41023,2021-04-22_18h35.49.120,judgeSpeechMusic_20210407_logNormShiftAmp,2020.1.2,MacIntel,60,,,,,,,,,,,,,,1,6.413535,,0,1,137,287,142,1,stimuli/stim_20210407_power2amp/equal_lnn_AM6Hz_86.m4a,,,
,,,,,,,,,,,,41023,2021-04-22_18h35.49.120,judgeSpeechMusic_20210407_logNormShiftAmp,2020.1.2,MacIntel,60,,,,,,,,,,,,,,2,6.312375,,0,1,138,288,91,1,stimuli/stim_20210407_power2amp/equal_lnn_AM4.2Hz_68.m4a,,,
,,,,,,,,,,,,41023,2021-04-22_18h35.49.120,judgeSpeechMusic_20210407_logNormShiftAmp,2020.1.2,MacIntel,60,,,,,,,,,,,,,,2,5.448405,,0,1,139,289,138,1,stimuli/stim_20210407_power2amp/equal_lnn_AM6Hz_100.m4a,,,
,,,,,,,,,,,,41023,2021-04-22_18h35.49.120,judgeSpeechMusic_20210407_logNormShiftAmp,2020.1.2,MacIntel,60,,,,,,,,,,,,,,2,5.827315,,0,1,140,290,28,1,stimuli/stim_20210407_power2amp/equal_lnn_AM1.2Hz_77.m4a,,,
,,,,,,,,,,,,41023,2021-04-22_18h35.49.120,judgeSpeechMusic_20210407_logNormShiftAmp,2020.1.2,MacIntel,60,,,,,,,,,,,,,,2,6.043005,,0,1,141,291,123,1,stimuli/stim_20210407_power2amp/equal_lnn_AM5.4Hz_51.m4a,,,
,,,,,,,,,,,,41023,2021-04-22_18h35.49.120,judgeSpeechMusic_20210407_logNormShiftAmp,2020.1.2,MacIntel,60,,,,,,,,,,,,,,1,5.47086,,0,1,142,292,6,1,stimuli/stim_20210407_power2amp/equal_lnn_AM0.6Hz_74.m4a,,,
,,,,,,,,,,,,41023,2021-04-22_18h35.49.120,judgeSpeechMusic_20210407_logNormShiftAmp,2020.1.2,MacIntel,60,,,,,,,,,,,,,,2,5.57604,,0,1,143,293,37,1,stimuli/stim_20210407_power2amp/equal_lnn_AM1.8Hz_92.m4a,,,
,,,,,,,,,,,,41023,2021-04-22_18h35.49.120,judgeSpeechMusic_20210407_logNormShiftAmp,2020.1.2,MacIntel,60,,,,,,,,,,,,,,1,6.17969,,0,1,144,294,16,1,stimuli/stim_20210407_power2amp/equal_lnn_AM1.2Hz_53.m4a,,,
,,,,,,,,,,,,41023,2021-04-22_18h35.49.120,judgeSpeechMusic_20210407_logNormShiftAmp,2020.1.2,MacIntel,60,,,,,,,,,,,,,,1,5.638145,,0,1,145,295,135,1,stimuli/stim_20210407_power2amp/equal_lnn_AM6Hz_12.m4a,,,
,,,,,,,,,,,,41023,2021-04-22_18h35.49.120,judgeSpeechMusic_20210407_logNormShiftAmp,2020.1.2,MacIntel,60,,,,,,,,,,,,,,2,5.494285,,0,1,146,296,116,1,stimuli/stim_20210407_power2amp/equal_lnn_AM4.8Hz_75.m4a,,,
,,,,,,,,,,,,41023,2021-04-22_18h35.49.120,judgeSpeechMusic_20210407_logNormShiftAmp,2020.1.2,MacIntel,60,,,,,,,,,,,,,,2,6.405575,,0,1,147,297,79,1,stimuli/stim_20210407_power2amp/equal_lnn_AM3.6Hz_75.m4a,,,
,,,,,,,,,,,,41023,2021-04-22_18h35.49.120,judgeSpeechMusic_20210407_logNormShiftAmp,2020.1.2,MacIntel,60,,,,,,,,,,,,,,1,6.07719,,0,1,148,298,119,1,stimuli/stim_20210407_power2amp/equal_lnn_AM4.8Hz_54.m4a,,,
,,,,,,,,,,,,41023,2021-04-22_18h35.49.120,judgeSpeechMusic_20210407_logNormShiftAmp,2020.1.2,MacIntel,60,,,,,,,,,,,,,,1,5.69453,,0,1,149,299,107,1,stimuli/stim_20210407_power2amp/equal_lnn_AM4.8Hz_92.m4a,,,
,,,,,,,,,,,,41023,2021-04-22_18h35.49.120,judgeSpeechMusic_20210407_logNormShiftAmp,2020.1.2,MacIntel,60,,,,,,,,,,,,,,,,,,,,,,,,,space,4.77724
