headphoneResponse.keys,headphoneResponse.corr,headphoneResponse.rt,headphoneTrial.thisRepN,headphoneTrial.thisTrialN,headphoneTrial.thisN,headphoneTrial.thisIndex,headphoneTrial.ran,headphone_sound1,headphone_sound2,headphone_sound3,corrAns,participant,date,expName,psychopyVersion,OS,frameRate,trainSlider.response,trainSlider.rt,beepTrainResponse.keys,beepTrainResponse.corr,trainingTrials.thisRepN,trainingTrials.thisTrialN,trainingTrials.thisN,trainingTrials.thisIndex,trainingTrials.ran,trainAudioFile,beepTrainResponse.rt,readyReal_resp.keys,readyReal_resp.rt,ratingSlider.response,ratingSlider.rt,beepResp.keys,beepResp.corr,expTrials.thisRepN,expTrials.thisTrialN,expTrials.thisN,expTrials.thisIndex,expTrials.ran,audioFile,beepResp.rt,end_resp.keys,end_resp.rt
3,0,0.581895,0,0,0,4,1,stimuli/screen_quiet.wav,stimuli/screen_antiphase.wav,stimuli/screen_origin.wav,1,41053,2021-05-08_21h12.55.202,judgeSpeechMusic_20210407_logNormShiftAmp,2020.1.2,MacIntel,60,,,,,,,,,,,,,,,,,,,,,,,,,,
2,1,0.46702,0,1,1,1,1,stimuli/screen_antiphase.wav,stimuli/screen_quiet.wav,stimuli/screen_origin.wav,2,41053,2021-05-08_21h12.55.202,judgeSpeechMusic_20210407_logNormShiftAmp,2020.1.2,MacIntel,60,,,,,,,,,,,,,,,,,,,,,,,,,,
2,1,0.42044,0,2,2,3,1,stimuli/screen_origin.wav,stimuli/screen_quiet.wav,stimuli/screen_antiphase.wav,2,41053,2021-05-08_21h12.55.202,judgeSpeechMusic_20210407_logNormShiftAmp,2020.1.2,MacIntel,60,,,,,,,,,,,,,,,,,,,,,,,,,,
1,1,0.466555,0,3,3,5,1,stimuli/screen_quiet.wav,stimuli/screen_origin.wav,stimuli/screen_antiphase.wav,1,41053,2021-05-08_21h12.55.202,judgeSpeechMusic_20210407_logNormShiftAmp,2020.1.2,MacIntel,60,,,,,,,,,,,,,,,,,,,,,,,,,,
3,1,1.168375,0,4,4,0,1,stimuli/screen_antiphase.wav,stimuli/screen_origin.wav,stimuli/screen_quiet.wav,3,41053,2021-05-08_21h12.55.202,judgeSpeechMusic_20210407_logNormShiftAmp,2020.1.2,MacIntel,60,,,,,,,,,,,,,,,,,,,,,,,,,,
3,1,0.56702,0,5,5,2,1,stimuli/screen_origin.wav,stimuli/screen_antiphase.wav,stimuli/screen_quiet.wav,3,41053,2021-05-08_21h12.55.202,judgeSpeechMusic_20210407_logNormShiftAmp,2020.1.2,MacIntel,60,,,,,,,,,,,,,,,,,,,,,,,,,,
,,,,,,,,,,,,41053,2021-05-08_21h12.55.202,judgeSpeechMusic_20210407_logNormShiftAmp,2020.1.2,MacIntel,60,2,24.69402,,0,0,0,0,1,1,stimuli/stim_20210407_power2amp/equal_lnn_AM_training2.7Hz.m4a,,,,,,,,,,,,,,,,
,,,,,,,,,,,,41053,2021-05-08_21h12.55.202,judgeSpeechMusic_20210407_logNormShiftAmp,2020.1.2,MacIntel,60,1,7.793425,,0,0,1,1,2,1,stimuli/stim_20210407_power2amp/equal_lnn_AM_training3.9Hz.m4a,,,,,,,,,,,,,,,,
,,,,,,,,,,,,41053,2021-05-08_21h12.55.202,judgeSpeechMusic_20210407_logNormShiftAmp,2020.1.2,MacIntel,60,1,8.903745,3,1,0,2,2,3,1,stimuli/stim_20210407_power2amp/equal_lnn_AM_training5.1Hz.m4a,1.7903,,,,,,,,,,,,,,,
,,,,,,,,,,,,41053,2021-05-08_21h12.55.202,judgeSpeechMusic_20210407_logNormShiftAmp,2020.1.2,MacIntel,60,2,6.576805,,0,0,3,3,0,1,stimuli/stim_20210407_power2amp/equal_lnn_AM_training1.5Hz.m4a,,,,,,,,,,,,,,,,
,,,,,,,,,,,,41053,2021-05-08_21h12.55.202,judgeSpeechMusic_20210407_logNormShiftAmp,2020.1.2,MacIntel,60,,,,,,,,,,,,space,6.496305,1,6.786305,,0,0,0,0,121,1,stimuli/stim_20210407_power2amp/equal_lnn_AM5.4Hz_94.m4a,,,
,,,,,,,,,,,,41053,2021-05-08_21h12.55.202,judgeSpeechMusic_20210407_logNormShiftAmp,2020.1.2,MacIntel,60,,,,,,,,,,,,,,2,6.34143,,0,0,1,1,66,1,stimuli/stim_20210407_power2amp/equal_lnn_AM3Hz_4.m4a,,,
,,,,,,,,,,,,41053,2021-05-08_21h12.55.202,judgeSpeechMusic_20210407_logNormShiftAmp,2020.1.2,MacIntel,60,,,,,,,,,,,,,,1,7.226095,,0,0,2,2,88,1,stimuli/stim_20210407_power2amp/equal_lnn_AM3.6Hz_4.m4a,,,
,,,,,,,,,,,,41053,2021-05-08_21h12.55.202,judgeSpeechMusic_20210407_logNormShiftAmp,2020.1.2,MacIntel,60,,,,,,,,,,,,,,2,8.6086,,0,0,3,3,97,1,stimuli/stim_20210407_power2amp/equal_lnn_AM4.2Hz_85.m4a,,,
,,,,,,,,,,,,41053,2021-05-08_21h12.55.202,judgeSpeechMusic_20210407_logNormShiftAmp,2020.1.2,MacIntel,60,,,,,,,,,,,,,,1,12.361865,,0,0,4,4,26,1,stimuli/stim_20210407_power2amp/equal_lnn_AM1.2Hz_18.m4a,,,
,,,,,,,,,,,,41053,2021-05-08_21h12.55.202,judgeSpeechMusic_20210407_logNormShiftAmp,2020.1.2,MacIntel,60,,,,,,,,,,,,,,2,16.473865,,0,0,5,5,16,1,stimuli/stim_20210407_power2amp/equal_lnn_AM1.2Hz_53.m4a,,,
,,,,,,,,,,,,41053,2021-05-08_21h12.55.202,judgeSpeechMusic_20210407_logNormShiftAmp,2020.1.2,MacIntel,60,,,,,,,,,,,,,,1,32.978545,,0,0,6,6,140,1,stimuli/stim_20210407_power2amp/equal_lnn_AM6Hz_41.m4a,,,
,,,,,,,,,,,,41053,2021-05-08_21h12.55.202,judgeSpeechMusic_20210407_logNormShiftAmp,2020.1.2,MacIntel,60,,,,,,,,,,,,,,2,5.876895,,0,0,7,7,83,1,stimuli/stim_20210407_power2amp/equal_lnn_AM3.6Hz_18.m4a,,,
,,,,,,,,,,,,41053,2021-05-08_21h12.55.202,judgeSpeechMusic_20210407_logNormShiftAmp,2020.1.2,MacIntel,60,,,,,,,,,,,,,,1,8.209625,,0,0,8,8,129,1,stimuli/stim_20210407_power2amp/equal_lnn_AM5.4Hz_27.m4a,,,
,,,,,,,,,,,,41053,2021-05-08_21h12.55.202,judgeSpeechMusic_20210407_logNormShiftAmp,2020.1.2,MacIntel,60,,,,,,,,,,,,,,2,6.21098,,0,0,9,9,138,1,stimuli/stim_20210407_power2amp/equal_lnn_AM6Hz_33.m4a,,,
,,,,,,,,,,,,41053,2021-05-08_21h12.55.202,judgeSpeechMusic_20210407_logNormShiftAmp,2020.1.2,MacIntel,60,,,,,,,,,,,,,,1,6.14303,,0,0,10,10,124,1,stimuli/stim_20210407_power2amp/equal_lnn_AM5.4Hz_62.m4a,,,
,,,,,,,,,,,,41053,2021-05-08_21h12.55.202,judgeSpeechMusic_20210407_logNormShiftAmp,2020.1.2,MacIntel,60,,,,,,,,,,,,,,1,5.77701,,0,0,11,11,132,1,stimuli/stim_20210407_power2amp/equal_lnn_AM5.4Hz_81.m4a,,,
,,,,,,,,,,,,41053,2021-05-08_21h12.55.202,judgeSpeechMusic_20210407_logNormShiftAmp,2020.1.2,MacIntel,60,,,,,,,,,,,,,,1,8.240895,,0,0,12,12,118,1,stimuli/stim_20210407_power2amp/equal_lnn_AM4.8Hz_71.m4a,,,
,,,,,,,,,,,,41053,2021-05-08_21h12.55.202,judgeSpeechMusic_20210407_logNormShiftAmp,2020.1.2,MacIntel,60,,,,,,,,,,,,,,2,6.10836,,0,0,13,13,14,1,stimuli/stim_20210407_power2amp/equal_lnn_AM0.6Hz_93.m4a,,,
,,,,,,,,,,,,41053,2021-05-08_21h12.55.202,judgeSpeechMusic_20210407_logNormShiftAmp,2020.1.2,MacIntel,60,,,,,,,,,,,,,,2,6.895155,,0,0,14,14,48,1,stimuli/stim_20210407_power2amp/equal_lnn_AM2.4Hz_65.m4a,,,
,,,,,,,,,,,,41053,2021-05-08_21h12.55.202,judgeSpeechMusic_20210407_logNormShiftAmp,2020.1.2,MacIntel,60,,,,,,,,,,,,,,2,6.54525,,0,0,15,15,87,1,stimuli/stim_20210407_power2amp/equal_lnn_AM3.6Hz_42.m4a,,,
,,,,,,,,,,,,41053,2021-05-08_21h12.55.202,judgeSpeechMusic_20210407_logNormShiftAmp,2020.1.2,MacIntel,60,,,,,,,,,,,,,,2,6.643295,,0,0,16,16,53,1,stimuli/stim_20210407_power2amp/equal_lnn_AM2.4Hz_33.m4a,,,
,,,,,,,,,,,,41053,2021-05-08_21h12.55.202,judgeSpeechMusic_20210407_logNormShiftAmp,2020.1.2,MacIntel,60,,,,,,,,,,,,,,1,6.989595,,0,0,17,17,1,1,stimuli/stim_20210407_power2amp/equal_lnn_AM0.6Hz_28.m4a,,,
,,,,,,,,,,,,41053,2021-05-08_21h12.55.202,judgeSpeechMusic_20210407_logNormShiftAmp,2020.1.2,MacIntel,60,,,,,,,,,,,,,,2,5.925925,,0,0,18,18,49,1,stimuli/stim_20210407_power2amp/equal_lnn_AM2.4Hz_3.m4a,,,
,,,,,,,,,,,,41053,2021-05-08_21h12.55.202,judgeSpeechMusic_20210407_logNormShiftAmp,2020.1.2,MacIntel,60,,,,,,,,,,,,,,2,5.893805,,0,0,19,19,73,1,stimuli/stim_20210407_power2amp/equal_lnn_AM3Hz_66.m4a,,,
,,,,,,,,,,,,41053,2021-05-08_21h12.55.202,judgeSpeechMusic_20210407_logNormShiftAmp,2020.1.2,MacIntel,60,,,,,,,,,,,,,,2,11.51036,,0,0,20,20,11,1,stimuli/stim_20210407_power2amp/equal_lnn_AM0.6Hz_3.m4a,,,
,,,,,,,,,,,,41053,2021-05-08_21h12.55.202,judgeSpeechMusic_20210407_logNormShiftAmp,2020.1.2,MacIntel,60,,,,,,,,,,,,,,1,6.176415,,0,0,21,21,99,1,stimuli/stim_20210407_power2amp/equal_lnn_AM4.2Hz_66.m4a,,,
,,,,,,,,,,,,41053,2021-05-08_21h12.55.202,judgeSpeechMusic_20210407_logNormShiftAmp,2020.1.2,MacIntel,60,,,,,,,,,,,,,,1,6.361815,,0,0,22,22,52,1,stimuli/stim_20210407_power2amp/equal_lnn_AM2.4Hz_30.m4a,,,
,,,,,,,,,,,,41053,2021-05-08_21h12.55.202,judgeSpeechMusic_20210407_logNormShiftAmp,2020.1.2,MacIntel,60,,,,,,,,,,,,,,2,7.26318,,0,0,23,23,84,1,stimuli/stim_20210407_power2amp/equal_lnn_AM3.6Hz_79.m4a,,,
,,,,,,,,,,,,41053,2021-05-08_21h12.55.202,judgeSpeechMusic_20210407_logNormShiftAmp,2020.1.2,MacIntel,60,,,,,,,,,,,,,,2,23.28628,,0,0,24,24,17,1,stimuli/stim_20210407_power2amp/equal_lnn_AM1.2Hz_99.m4a,,,
,,,,,,,,,,,,41053,2021-05-08_21h12.55.202,judgeSpeechMusic_20210407_logNormShiftAmp,2020.1.2,MacIntel,60,,,,,,,,,,,,,,2,21.82616,,0,0,25,25,7,1,stimuli/stim_20210407_power2amp/equal_lnn_AM0.6Hz_16.m4a,,,
,,,,,,,,,,,,41053,2021-05-08_21h12.55.202,judgeSpeechMusic_20210407_logNormShiftAmp,2020.1.2,MacIntel,60,,,,,,,,,,,,,,1,78.726535,,0,0,26,26,76,1,stimuli/stim_20210407_power2amp/equal_lnn_AM3.6Hz_55.m4a,,,
,,,,,,,,,,,,41053,2021-05-08_21h12.55.202,judgeSpeechMusic_20210407_logNormShiftAmp,2020.1.2,MacIntel,60,,,,,,,,,,,,,,2,6.928705,,0,0,27,27,69,1,stimuli/stim_20210407_power2amp/equal_lnn_AM3Hz_64.m4a,,,
,,,,,,,,,,,,41053,2021-05-08_21h12.55.202,judgeSpeechMusic_20210407_logNormShiftAmp,2020.1.2,MacIntel,60,,,,,,,,,,,,,,1,5.607455,,0,0,28,28,114,1,stimuli/stim_20210407_power2amp/equal_lnn_AM4.8Hz_91.m4a,,,
,,,,,,,,,,,,41053,2021-05-08_21h12.55.202,judgeSpeechMusic_20210407_logNormShiftAmp,2020.1.2,MacIntel,60,,,,,,,,,,,,,,2,5.876815,,0,0,29,29,98,1,stimuli/stim_20210407_power2amp/equal_lnn_AM4.2Hz_6.m4a,,,
,,,,,,,,,,,,41053,2021-05-08_21h12.55.202,judgeSpeechMusic_20210407_logNormShiftAmp,2020.1.2,MacIntel,60,,,,,,,,,,,,,,1,7.397745,,0,0,30,30,137,1,stimuli/stim_20210407_power2amp/equal_lnn_AM6Hz_64.m4a,,,
,,,,,,,,,,,,41053,2021-05-08_21h12.55.202,judgeSpeechMusic_20210407_logNormShiftAmp,2020.1.2,MacIntel,60,,,,,,,,,,,,,,2,42.05737,,0,0,31,31,128,1,stimuli/stim_20210407_power2amp/equal_lnn_AM5.4Hz_53.m4a,,,
,,,,,,,,,,,,41053,2021-05-08_21h12.55.202,judgeSpeechMusic_20210407_logNormShiftAmp,2020.1.2,MacIntel,60,,,,,,,,,,,,,,2,5.86102,2,1,0,32,32,35,1,stimuli/stim_20210407_power2amp/equal_lnn_AM1.8Hz_9.m4a,1.491115,,
,,,,,,,,,,,,41053,2021-05-08_21h12.55.202,judgeSpeechMusic_20210407_logNormShiftAmp,2020.1.2,MacIntel,60,,,,,,,,,,,,,,1,6.72242,,0,0,33,33,96,1,stimuli/stim_20210407_power2amp/equal_lnn_AM4.2Hz_78.m4a,,,
,,,,,,,,,,,,41053,2021-05-08_21h12.55.202,judgeSpeechMusic_20210407_logNormShiftAmp,2020.1.2,MacIntel,60,,,,,,,,,,,,,,2,5.923725,,0,0,34,34,10,1,stimuli/stim_20210407_power2amp/equal_lnn_AM0.6Hz_100.m4a,,,
,,,,,,,,,,,,41053,2021-05-08_21h12.55.202,judgeSpeechMusic_20210407_logNormShiftAmp,2020.1.2,MacIntel,60,,,,,,,,,,,,,,2,6.8948,,0,0,35,35,80,1,stimuli/stim_20210407_power2amp/equal_lnn_AM3.6Hz_13.m4a,,,
,,,,,,,,,,,,41053,2021-05-08_21h12.55.202,judgeSpeechMusic_20210407_logNormShiftAmp,2020.1.2,MacIntel,60,,,,,,,,,,,,,,2,7.284035,,0,0,36,36,107,1,stimuli/stim_20210407_power2amp/equal_lnn_AM4.8Hz_23.m4a,,,
,,,,,,,,,,,,41053,2021-05-08_21h12.55.202,judgeSpeechMusic_20210407_logNormShiftAmp,2020.1.2,MacIntel,60,,,,,,,,,,,,,,1,7.93731,,0,0,37,37,22,1,stimuli/stim_20210407_power2amp/equal_lnn_AM1.2Hz_58.m4a,,,
,,,,,,,,,,,,41053,2021-05-08_21h12.55.202,judgeSpeechMusic_20210407_logNormShiftAmp,2020.1.2,MacIntel,60,,,,,,,,,,,,,,1,16.54615,,0,0,38,38,13,1,stimuli/stim_20210407_power2amp/equal_lnn_AM0.6Hz_4.m4a,,,
,,,,,,,,,,,,41053,2021-05-08_21h12.55.202,judgeSpeechMusic_20210407_logNormShiftAmp,2020.1.2,MacIntel,60,,,,,,,,,,,,,,2,6.58929,,0,0,39,39,111,1,stimuli/stim_20210407_power2amp/equal_lnn_AM4.8Hz_44.m4a,,,
,,,,,,,,,,,,41053,2021-05-08_21h12.55.202,judgeSpeechMusic_20210407_logNormShiftAmp,2020.1.2,MacIntel,60,,,,,,,,,,,,,,2,6.84534,,0,0,40,40,8,1,stimuli/stim_20210407_power2amp/equal_lnn_AM0.6Hz_25.m4a,,,
,,,,,,,,,,,,41053,2021-05-08_21h12.55.202,judgeSpeechMusic_20210407_logNormShiftAmp,2020.1.2,MacIntel,60,,,,,,,,,,,,,,1,5.91159,,0,0,41,41,147,1,stimuli/stim_20210407_power2amp/equal_lnn_AM6Hz_98.m4a,,,
,,,,,,,,,,,,41053,2021-05-08_21h12.55.202,judgeSpeechMusic_20210407_logNormShiftAmp,2020.1.2,MacIntel,60,,,,,,,,,,,,,,1,5.891045,,0,0,42,42,3,1,stimuli/stim_20210407_power2amp/equal_lnn_AM0.6Hz_83.m4a,,,
,,,,,,,,,,,,41053,2021-05-08_21h12.55.202,judgeSpeechMusic_20210407_logNormShiftAmp,2020.1.2,MacIntel,60,,,,,,,,,,,,,,1,6.64182,,0,0,43,43,33,1,stimuli/stim_20210407_power2amp/equal_lnn_AM1.8Hz_42.m4a,,,
,,,,,,,,,,,,41053,2021-05-08_21h12.55.202,judgeSpeechMusic_20210407_logNormShiftAmp,2020.1.2,MacIntel,60,,,,,,,,,,,,,,1,5.959425,,0,0,44,44,123,1,stimuli/stim_20210407_power2amp/equal_lnn_AM5.4Hz_89.m4a,,,
,,,,,,,,,,,,41053,2021-05-08_21h12.55.202,judgeSpeechMusic_20210407_logNormShiftAmp,2020.1.2,MacIntel,60,,,,,,,,,,,,,,1,6.694155,,0,0,45,45,51,1,stimuli/stim_20210407_power2amp/equal_lnn_AM2.4Hz_45.m4a,,,
,,,,,,,,,,,,41053,2021-05-08_21h12.55.202,judgeSpeechMusic_20210407_logNormShiftAmp,2020.1.2,MacIntel,60,,,,,,,,,,,,,,1,5.824005,,0,0,46,46,89,1,stimuli/stim_20210407_power2amp/equal_lnn_AM3.6Hz_84.m4a,,,
,,,,,,,,,,,,41053,2021-05-08_21h12.55.202,judgeSpeechMusic_20210407_logNormShiftAmp,2020.1.2,MacIntel,60,,,,,,,,,,,,,,1,5.8798,,0,0,47,47,135,1,stimuli/stim_20210407_power2amp/equal_lnn_AM6Hz_75.m4a,,,
,,,,,,,,,,,,41053,2021-05-08_21h12.55.202,judgeSpeechMusic_20210407_logNormShiftAmp,2020.1.2,MacIntel,60,,,,,,,,,,,,,,2,6.538285,,0,0,48,48,59,1,stimuli/stim_20210407_power2amp/equal_lnn_AM2.4Hz_20.m4a,,,
,,,,,,,,,,,,41053,2021-05-08_21h12.55.202,judgeSpeechMusic_20210407_logNormShiftAmp,2020.1.2,MacIntel,60,,,,,,,,,,,,,,2,6.15956,,0,0,49,49,67,1,stimuli/stim_20210407_power2amp/equal_lnn_AM3Hz_87.m4a,,,
,,,,,,,,,,,,41053,2021-05-08_21h12.55.202,judgeSpeechMusic_20210407_logNormShiftAmp,2020.1.2,MacIntel,60,,,,,,,,,,,,,,1,6.42471,,0,0,50,50,142,1,stimuli/stim_20210407_power2amp/equal_lnn_AM6Hz_84.m4a,,,
,,,,,,,,,,,,41053,2021-05-08_21h12.55.202,judgeSpeechMusic_20210407_logNormShiftAmp,2020.1.2,MacIntel,60,,,,,,,,,,,,,,2,5.77722,,0,0,51,51,29,1,stimuli/stim_20210407_power2amp/equal_lnn_AM1.2Hz_63.m4a,,,
,,,,,,,,,,,,41053,2021-05-08_21h12.55.202,judgeSpeechMusic_20210407_logNormShiftAmp,2020.1.2,MacIntel,60,,,,,,,,,,,,,,2,5.728825,,0,0,52,52,116,1,stimuli/stim_20210407_power2amp/equal_lnn_AM4.8Hz_95.m4a,,,
,,,,,,,,,,,,41053,2021-05-08_21h12.55.202,judgeSpeechMusic_20210407_logNormShiftAmp,2020.1.2,MacIntel,60,,,,,,,,,,,,,,2,5.624575,,0,0,53,53,44,1,stimuli/stim_20210407_power2amp/equal_lnn_AM1.8Hz_89.m4a,,,
,,,,,,,,,,,,41053,2021-05-08_21h12.55.202,judgeSpeechMusic_20210407_logNormShiftAmp,2020.1.2,MacIntel,60,,,,,,,,,,,,,,2,5.682905,,0,0,54,54,79,1,stimuli/stim_20210407_power2amp/equal_lnn_AM3.6Hz_82.m4a,,,
,,,,,,,,,,,,41053,2021-05-08_21h12.55.202,judgeSpeechMusic_20210407_logNormShiftAmp,2020.1.2,MacIntel,60,,,,,,,,,,,,,,2,5.603205,,0,0,55,55,45,1,stimuli/stim_20210407_power2amp/equal_lnn_AM2.4Hz_24.m4a,,,
,,,,,,,,,,,,41053,2021-05-08_21h12.55.202,judgeSpeechMusic_20210407_logNormShiftAmp,2020.1.2,MacIntel,60,,,,,,,,,,,,,,1,6.22449,,0,0,56,56,46,1,stimuli/stim_20210407_power2amp/equal_lnn_AM2.4Hz_1.m4a,,,
,,,,,,,,,,,,41053,2021-05-08_21h12.55.202,judgeSpeechMusic_20210407_logNormShiftAmp,2020.1.2,MacIntel,60,,,,,,,,,,,,,,1,6.12611,1,1,0,57,57,12,1,stimuli/stim_20210407_power2amp/equal_lnn_AM0.6Hz_17.m4a,1.476185,,
,,,,,,,,,,,,41053,2021-05-08_21h12.55.202,judgeSpeechMusic_20210407_logNormShiftAmp,2020.1.2,MacIntel,60,,,,,,,,,,,,,,1,6.75845,,0,0,58,58,143,1,stimuli/stim_20210407_power2amp/equal_lnn_AM6Hz_1.m4a,,,
,,,,,,,,,,,,41053,2021-05-08_21h12.55.202,judgeSpeechMusic_20210407_logNormShiftAmp,2020.1.2,MacIntel,60,,,,,,,,,,,,,,1,10.20883,,0,0,59,59,39,1,stimuli/stim_20210407_power2amp/equal_lnn_AM1.8Hz_75.m4a,,,
,,,,,,,,,,,,41053,2021-05-08_21h12.55.202,judgeSpeechMusic_20210407_logNormShiftAmp,2020.1.2,MacIntel,60,,,,,,,,,,,,,,2,12.77619,,0,0,60,60,55,1,stimuli/stim_20210407_power2amp/equal_lnn_AM2.4Hz_13.m4a,,,
,,,,,,,,,,,,41053,2021-05-08_21h12.55.202,judgeSpeechMusic_20210407_logNormShiftAmp,2020.1.2,MacIntel,60,,,,,,,,,,,,,,2,12.90831,,0,0,61,61,104,1,stimuli/stim_20210407_power2amp/equal_lnn_AM4.2Hz_28.m4a,,,
,,,,,,,,,,,,41053,2021-05-08_21h12.55.202,judgeSpeechMusic_20210407_logNormShiftAmp,2020.1.2,MacIntel,60,,,,,,,,,,,,,,1,6.79175,,0,0,62,62,21,1,stimuli/stim_20210407_power2amp/equal_lnn_AM1.2Hz_77.m4a,,,
,,,,,,,,,,,,41053,2021-05-08_21h12.55.202,judgeSpeechMusic_20210407_logNormShiftAmp,2020.1.2,MacIntel,60,,,,,,,,,,,,,,1,6.75884,,0,0,63,63,61,1,stimuli/stim_20210407_power2amp/equal_lnn_AM3Hz_49.m4a,,,
,,,,,,,,,,,,41053,2021-05-08_21h12.55.202,judgeSpeechMusic_20210407_logNormShiftAmp,2020.1.2,MacIntel,60,,,,,,,,,,,,,,2,5.859635,,0,0,64,64,38,1,stimuli/stim_20210407_power2amp/equal_lnn_AM1.8Hz_91.m4a,,,
,,,,,,,,,,,,41053,2021-05-08_21h12.55.202,judgeSpeechMusic_20210407_logNormShiftAmp,2020.1.2,MacIntel,60,,,,,,,,,,,,,,2,5.97027,,0,0,65,65,65,1,stimuli/stim_20210407_power2amp/equal_lnn_AM3Hz_96.m4a,,,
,,,,,,,,,,,,41053,2021-05-08_21h12.55.202,judgeSpeechMusic_20210407_logNormShiftAmp,2020.1.2,MacIntel,60,,,,,,,,,,,,,,1,5.920385,,0,0,66,66,31,1,stimuli/stim_20210407_power2amp/equal_lnn_AM1.8Hz_35.m4a,,,
,,,,,,,,,,,,41053,2021-05-08_21h12.55.202,judgeSpeechMusic_20210407_logNormShiftAmp,2020.1.2,MacIntel,60,,,,,,,,,,,,,,2,6.51243,,0,0,67,67,70,1,stimuli/stim_20210407_power2amp/equal_lnn_AM3Hz_29.m4a,,,
,,,,,,,,,,,,41053,2021-05-08_21h12.55.202,judgeSpeechMusic_20210407_logNormShiftAmp,2020.1.2,MacIntel,60,,,,,,,,,,,,,,1,6.926275,,0,0,68,68,125,1,stimuli/stim_20210407_power2amp/equal_lnn_AM5.4Hz_91.m4a,,,
,,,,,,,,,,,,41053,2021-05-08_21h12.55.202,judgeSpeechMusic_20210407_logNormShiftAmp,2020.1.2,MacIntel,60,,,,,,,,,,,,,,1,5.54357,,0,0,69,69,110,1,stimuli/stim_20210407_power2amp/equal_lnn_AM4.8Hz_90.m4a,,,
,,,,,,,,,,,,41053,2021-05-08_21h12.55.202,judgeSpeechMusic_20210407_logNormShiftAmp,2020.1.2,MacIntel,60,,,,,,,,,,,,,,1,6.511055,,0,0,70,70,68,1,stimuli/stim_20210407_power2amp/equal_lnn_AM3Hz_83.m4a,,,
,,,,,,,,,,,,41053,2021-05-08_21h12.55.202,judgeSpeechMusic_20210407_logNormShiftAmp,2020.1.2,MacIntel,60,,,,,,,,,,,,,,1,12.58417,,0,0,71,71,18,1,stimuli/stim_20210407_power2amp/equal_lnn_AM1.2Hz_22.m4a,,,
,,,,,,,,,,,,41053,2021-05-08_21h12.55.202,judgeSpeechMusic_20210407_logNormShiftAmp,2020.1.2,MacIntel,60,,,,,,,,,,,,,,2,7.221205,,0,0,72,72,72,1,stimuli/stim_20210407_power2amp/equal_lnn_AM3Hz_58.m4a,,,
,,,,,,,,,,,,41053,2021-05-08_21h12.55.202,judgeSpeechMusic_20210407_logNormShiftAmp,2020.1.2,MacIntel,60,,,,,,,,,,,,,,2,5.64187,,0,0,73,73,81,1,stimuli/stim_20210407_power2amp/equal_lnn_AM3.6Hz_25.m4a,,,
,,,,,,,,,,,,41053,2021-05-08_21h12.55.202,judgeSpeechMusic_20210407_logNormShiftAmp,2020.1.2,MacIntel,60,,,,,,,,,,,,,,2,8.34325,,0,0,74,74,106,1,stimuli/stim_20210407_power2amp/equal_lnn_AM4.8Hz_78.m4a,,,
,,,,,,,,,,,,41053,2021-05-08_21h12.55.202,judgeSpeechMusic_20210407_logNormShiftAmp,2020.1.2,MacIntel,60,,,,,,,,,,,,,,2,7.65739,,0,0,75,75,141,1,stimuli/stim_20210407_power2amp/equal_lnn_AM6Hz_92.m4a,,,
,,,,,,,,,,,,41053,2021-05-08_21h12.55.202,judgeSpeechMusic_20210407_logNormShiftAmp,2020.1.2,MacIntel,60,,,,,,,,,,,,,,1,5.890525,,0,0,76,76,94,1,stimuli/stim_20210407_power2amp/equal_lnn_AM4.2Hz_1.m4a,,,
,,,,,,,,,,,,41053,2021-05-08_21h12.55.202,judgeSpeechMusic_20210407_logNormShiftAmp,2020.1.2,MacIntel,60,,,,,,,,,,,,,,2,10.94272,,0,0,77,77,71,1,stimuli/stim_20210407_power2amp/equal_lnn_AM3Hz_3.m4a,,,
,,,,,,,,,,,,41053,2021-05-08_21h12.55.202,judgeSpeechMusic_20210407_logNormShiftAmp,2020.1.2,MacIntel,60,,,,,,,,,,,,,,1,7.026495,,0,0,78,78,90,1,stimuli/stim_20210407_power2amp/equal_lnn_AM4.2Hz_61.m4a,,,
,,,,,,,,,,,,41053,2021-05-08_21h12.55.202,judgeSpeechMusic_20210407_logNormShiftAmp,2020.1.2,MacIntel,60,,,,,,,,,,,,,,1,10.342955,,0,0,79,79,15,1,stimuli/stim_20210407_power2amp/equal_lnn_AM1.2Hz_9.m4a,,,
,,,,,,,,,,,,41053,2021-05-08_21h12.55.202,judgeSpeechMusic_20210407_logNormShiftAmp,2020.1.2,MacIntel,60,,,,,,,,,,,,,,1,5.79043,4,1,0,80,80,133,1,stimuli/stim_20210407_power2amp/equal_lnn_AM5.4Hz_70.m4a,1.34353,,
,,,,,,,,,,,,41053,2021-05-08_21h12.55.202,judgeSpeechMusic_20210407_logNormShiftAmp,2020.1.2,MacIntel,60,,,,,,,,,,,,,,2,5.639865,,0,0,81,81,40,1,stimuli/stim_20210407_power2amp/equal_lnn_AM1.8Hz_90.m4a,,,
,,,,,,,,,,,,41053,2021-05-08_21h12.55.202,judgeSpeechMusic_20210407_logNormShiftAmp,2020.1.2,MacIntel,60,,,,,,,,,,,,,,1,6.148155,,0,0,82,82,112,1,stimuli/stim_20210407_power2amp/equal_lnn_AM4.8Hz_70.m4a,,,
,,,,,,,,,,,,41053,2021-05-08_21h12.55.202,judgeSpeechMusic_20210407_logNormShiftAmp,2020.1.2,MacIntel,60,,,,,,,,,,,,,,2,6.486775,,0,0,83,83,92,1,stimuli/stim_20210407_power2amp/equal_lnn_AM4.2Hz_57.m4a,,,
,,,,,,,,,,,,41053,2021-05-08_21h12.55.202,judgeSpeechMusic_20210407_logNormShiftAmp,2020.1.2,MacIntel,60,,,,,,,,,,,,,,1,16.694295,,0,0,84,84,103,1,stimuli/stim_20210407_power2amp/equal_lnn_AM4.2Hz_43.m4a,,,
,,,,,,,,,,,,41053,2021-05-08_21h12.55.202,judgeSpeechMusic_20210407_logNormShiftAmp,2020.1.2,MacIntel,60,,,,,,,,,,,,,,1,10.79008,,0,0,85,85,117,1,stimuli/stim_20210407_power2amp/equal_lnn_AM4.8Hz_98.m4a,,,
,,,,,,,,,,,,41053,2021-05-08_21h12.55.202,judgeSpeechMusic_20210407_logNormShiftAmp,2020.1.2,MacIntel,60,,,,,,,,,,,,,,1,18.223525,,0,0,86,86,57,1,stimuli/stim_20210407_power2amp/equal_lnn_AM2.4Hz_37.m4a,,,
,,,,,,,,,,,,41053,2021-05-08_21h12.55.202,judgeSpeechMusic_20210407_logNormShiftAmp,2020.1.2,MacIntel,60,,,,,,,,,,,,,,2,19.11097,,0,0,87,87,85,1,stimuli/stim_20210407_power2amp/equal_lnn_AM3.6Hz_52.m4a,,,
,,,,,,,,,,,,41053,2021-05-08_21h12.55.202,judgeSpeechMusic_20210407_logNormShiftAmp,2020.1.2,MacIntel,60,,,,,,,,,,,,,,2,8.2446,,0,0,88,88,109,1,stimuli/stim_20210407_power2amp/equal_lnn_AM4.8Hz_57.m4a,,,
,,,,,,,,,,,,41053,2021-05-08_21h12.55.202,judgeSpeechMusic_20210407_logNormShiftAmp,2020.1.2,MacIntel,60,,,,,,,,,,,,,,2,5.556485,,0,0,89,89,77,1,stimuli/stim_20210407_power2amp/equal_lnn_AM3.6Hz_35.m4a,,,
,,,,,,,,,,,,41053,2021-05-08_21h12.55.202,judgeSpeechMusic_20210407_logNormShiftAmp,2020.1.2,MacIntel,60,,,,,,,,,,,,,,2,7.22565,,0,0,90,90,139,1,stimuli/stim_20210407_power2amp/equal_lnn_AM6Hz_15.m4a,,,
,,,,,,,,,,,,41053,2021-05-08_21h12.55.202,judgeSpeechMusic_20210407_logNormShiftAmp,2020.1.2,MacIntel,60,,,,,,,,,,,,,,2,5.64356,,0,0,91,91,58,1,stimuli/stim_20210407_power2amp/equal_lnn_AM2.4Hz_29.m4a,,,
,,,,,,,,,,,,41053,2021-05-08_21h12.55.202,judgeSpeechMusic_20210407_logNormShiftAmp,2020.1.2,MacIntel,60,,,,,,,,,,,,,,1,5.575035,,0,0,92,92,6,1,stimuli/stim_20210407_power2amp/equal_lnn_AM0.6Hz_14.m4a,,,
,,,,,,,,,,,,41053,2021-05-08_21h12.55.202,judgeSpeechMusic_20210407_logNormShiftAmp,2020.1.2,MacIntel,60,,,,,,,,,,,,,,1,5.49384,,0,0,93,93,134,1,stimuli/stim_20210407_power2amp/equal_lnn_AM5.4Hz_3.m4a,,,
,,,,,,,,,,,,41053,2021-05-08_21h12.55.202,judgeSpeechMusic_20210407_logNormShiftAmp,2020.1.2,MacIntel,60,,,,,,,,,,,,,,1,5.57546,,0,0,94,94,145,1,stimuli/stim_20210407_power2amp/equal_lnn_AM6Hz_25.m4a,,,
,,,,,,,,,,,,41053,2021-05-08_21h12.55.202,judgeSpeechMusic_20210407_logNormShiftAmp,2020.1.2,MacIntel,60,,,,,,,,,,,,,,1,5.637595,,0,0,95,95,30,1,stimuli/stim_20210407_power2amp/equal_lnn_AM1.8Hz_64.m4a,,,
,,,,,,,,,,,,41053,2021-05-08_21h12.55.202,judgeSpeechMusic_20210407_logNormShiftAmp,2020.1.2,MacIntel,60,,,,,,,,,,,,,,1,5.524155,,0,0,96,96,146,1,stimuli/stim_20210407_power2amp/equal_lnn_AM6Hz_85.m4a,,,
,,,,,,,,,,,,41053,2021-05-08_21h12.55.202,judgeSpeechMusic_20210407_logNormShiftAmp,2020.1.2,MacIntel,60,,,,,,,,,,,,,,1,5.571085,,0,0,97,97,95,1,stimuli/stim_20210407_power2amp/equal_lnn_AM4.2Hz_2.m4a,,,
,,,,,,,,,,,,41053,2021-05-08_21h12.55.202,judgeSpeechMusic_20210407_logNormShiftAmp,2020.1.2,MacIntel,60,,,,,,,,,,,,,,2,6.106995,,0,0,98,98,24,1,stimuli/stim_20210407_power2amp/equal_lnn_AM1.2Hz_3.m4a,,,
,,,,,,,,,,,,41053,2021-05-08_21h12.55.202,judgeSpeechMusic_20210407_logNormShiftAmp,2020.1.2,MacIntel,60,,,,,,,,,,,,,,1,6.113585,,0,0,99,99,63,1,stimuli/stim_20210407_power2amp/equal_lnn_AM3Hz_5.m4a,,,
,,,,,,,,,,,,41053,2021-05-08_21h12.55.202,judgeSpeechMusic_20210407_logNormShiftAmp,2020.1.2,MacIntel,60,,,,,,,,,,,,,,2,5.94717,,0,0,100,100,43,1,stimuli/stim_20210407_power2amp/equal_lnn_AM1.8Hz_27.m4a,,,
,,,,,,,,,,,,41053,2021-05-08_21h12.55.202,judgeSpeechMusic_20210407_logNormShiftAmp,2020.1.2,MacIntel,60,,,,,,,,,,,,,,2,5.5919,,0,0,101,101,82,1,stimuli/stim_20210407_power2amp/equal_lnn_AM3.6Hz_87.m4a,,,
,,,,,,,,,,,,41053,2021-05-08_21h12.55.202,judgeSpeechMusic_20210407_logNormShiftAmp,2020.1.2,MacIntel,60,,,,,,,,,,,,,,2,6.04488,,0,0,102,102,32,1,stimuli/stim_20210407_power2amp/equal_lnn_AM1.8Hz_46.m4a,,,
,,,,,,,,,,,,41053,2021-05-08_21h12.55.202,judgeSpeechMusic_20210407_logNormShiftAmp,2020.1.2,MacIntel,60,,,,,,,,,,,,,,1,6.504175,2,1,0,103,103,115,1,stimuli/stim_20210407_power2amp/equal_lnn_AM4.8Hz_68.m4a,0.768745,,
,,,,,,,,,,,,41053,2021-05-08_21h12.55.202,judgeSpeechMusic_20210407_logNormShiftAmp,2020.1.2,MacIntel,60,,,,,,,,,,,,,,1,8.54072,,0,0,104,104,0,1,stimuli/stim_20210407_power2amp/equal_lnn_AM0.6Hz_2.m4a,,,
,,,,,,,,,,,,41053,2021-05-08_21h12.55.202,judgeSpeechMusic_20210407_logNormShiftAmp,2020.1.2,MacIntel,60,,,,,,,,,,,,,,1,5.75957,,0,0,105,105,75,1,stimuli/stim_20210407_power2amp/equal_lnn_AM3.6Hz_54.m4a,,,
,,,,,,,,,,,,41053,2021-05-08_21h12.55.202,judgeSpeechMusic_20210407_logNormShiftAmp,2020.1.2,MacIntel,60,,,,,,,,,,,,,,1,6.10874,,0,0,106,106,144,1,stimuli/stim_20210407_power2amp/equal_lnn_AM6Hz_83.m4a,,,
,,,,,,,,,,,,41053,2021-05-08_21h12.55.202,judgeSpeechMusic_20210407_logNormShiftAmp,2020.1.2,MacIntel,60,,,,,,,,,,,,,,2,6.07877,,0,0,107,107,62,1,stimuli/stim_20210407_power2amp/equal_lnn_AM3Hz_6.m4a,,,
,,,,,,,,,,,,41053,2021-05-08_21h12.55.202,judgeSpeechMusic_20210407_logNormShiftAmp,2020.1.2,MacIntel,60,,,,,,,,,,,,,,2,6.12443,,0,0,108,108,36,1,stimuli/stim_20210407_power2amp/equal_lnn_AM1.8Hz_59.m4a,,,
,,,,,,,,,,,,41053,2021-05-08_21h12.55.202,judgeSpeechMusic_20210407_logNormShiftAmp,2020.1.2,MacIntel,60,,,,,,,,,,,,,,2,5.608785,,0,0,109,109,78,1,stimuli/stim_20210407_power2amp/equal_lnn_AM3.6Hz_74.m4a,,,
,,,,,,,,,,,,41053,2021-05-08_21h12.55.202,judgeSpeechMusic_20210407_logNormShiftAmp,2020.1.2,MacIntel,60,,,,,,,,,,,,,,2,6.72872,,0,0,110,110,54,1,stimuli/stim_20210407_power2amp/equal_lnn_AM2.4Hz_97.m4a,,,
,,,,,,,,,,,,41053,2021-05-08_21h12.55.202,judgeSpeechMusic_20210407_logNormShiftAmp,2020.1.2,MacIntel,60,,,,,,,,,,,,,,2,5.794535,,0,0,111,111,105,1,stimuli/stim_20210407_power2amp/equal_lnn_AM4.8Hz_9.m4a,,,
,,,,,,,,,,,,41053,2021-05-08_21h12.55.202,judgeSpeechMusic_20210407_logNormShiftAmp,2020.1.2,MacIntel,60,,,,,,,,,,,,,,2,5.53928,,0,0,112,112,56,1,stimuli/stim_20210407_power2amp/equal_lnn_AM2.4Hz_67.m4a,,,
,,,,,,,,,,,,41053,2021-05-08_21h12.55.202,judgeSpeechMusic_20210407_logNormShiftAmp,2020.1.2,MacIntel,60,,,,,,,,,,,,,,2,7.911905,,0,0,113,113,5,1,stimuli/stim_20210407_power2amp/equal_lnn_AM0.6Hz_53.m4a,,,
,,,,,,,,,,,,41053,2021-05-08_21h12.55.202,judgeSpeechMusic_20210407_logNormShiftAmp,2020.1.2,MacIntel,60,,,,,,,,,,,,,,1,6.32425,,0,0,114,114,136,1,stimuli/stim_20210407_power2amp/equal_lnn_AM6Hz_29.m4a,,,
,,,,,,,,,,,,41053,2021-05-08_21h12.55.202,judgeSpeechMusic_20210407_logNormShiftAmp,2020.1.2,MacIntel,60,,,,,,,,,,,,,,1,5.91543,,0,0,115,115,60,1,stimuli/stim_20210407_power2amp/equal_lnn_AM3Hz_50.m4a,,,
,,,,,,,,,,,,41053,2021-05-08_21h12.55.202,judgeSpeechMusic_20210407_logNormShiftAmp,2020.1.2,MacIntel,60,,,,,,,,,,,,,,2,6.34073,,0,0,116,116,27,1,stimuli/stim_20210407_power2amp/equal_lnn_AM1.2Hz_92.m4a,,,
,,,,,,,,,,,,41053,2021-05-08_21h12.55.202,judgeSpeechMusic_20210407_logNormShiftAmp,2020.1.2,MacIntel,60,,,,,,,,,,,,,,2,5.578635,,0,0,117,117,101,1,stimuli/stim_20210407_power2amp/equal_lnn_AM4.2Hz_3.m4a,,,
,,,,,,,,,,,,41053,2021-05-08_21h12.55.202,judgeSpeechMusic_20210407_logNormShiftAmp,2020.1.2,MacIntel,60,,,,,,,,,,,,,,2,5.59261,,0,0,118,118,131,1,stimuli/stim_20210407_power2amp/equal_lnn_AM5.4Hz_31.m4a,,,
,,,,,,,,,,,,41053,2021-05-08_21h12.55.202,judgeSpeechMusic_20210407_logNormShiftAmp,2020.1.2,MacIntel,60,,,,,,,,,,,,,,2,5.574525,,0,0,119,119,86,1,stimuli/stim_20210407_power2amp/equal_lnn_AM3.6Hz_93.m4a,,,
,,,,,,,,,,,,41053,2021-05-08_21h12.55.202,judgeSpeechMusic_20210407_logNormShiftAmp,2020.1.2,MacIntel,60,,,,,,,,,,,,,,1,5.961,,0,0,120,120,108,1,stimuli/stim_20210407_power2amp/equal_lnn_AM4.8Hz_31.m4a,,,
,,,,,,,,,,,,41053,2021-05-08_21h12.55.202,judgeSpeechMusic_20210407_logNormShiftAmp,2020.1.2,MacIntel,60,,,,,,,,,,,,,,2,5.67501,,0,0,121,121,41,1,stimuli/stim_20210407_power2amp/equal_lnn_AM1.8Hz_53.m4a,,,
,,,,,,,,,,,,41053,2021-05-08_21h12.55.202,judgeSpeechMusic_20210407_logNormShiftAmp,2020.1.2,MacIntel,60,,,,,,,,,,,,,,2,5.74532,,0,0,122,122,120,1,stimuli/stim_20210407_power2amp/equal_lnn_AM5.4Hz_61.m4a,,,
,,,,,,,,,,,,41053,2021-05-08_21h12.55.202,judgeSpeechMusic_20210407_logNormShiftAmp,2020.1.2,MacIntel,60,,,,,,,,,,,,,,1,5.639595,,0,0,123,123,130,1,stimuli/stim_20210407_power2amp/equal_lnn_AM5.4Hz_93.m4a,,,
,,,,,,,,,,,,41053,2021-05-08_21h12.55.202,judgeSpeechMusic_20210407_logNormShiftAmp,2020.1.2,MacIntel,60,,,,,,,,,,,,,,1,5.90865,,0,0,124,124,127,1,stimuli/stim_20210407_power2amp/equal_lnn_AM5.4Hz_54.m4a,,,
,,,,,,,,,,,,41053,2021-05-08_21h12.55.202,judgeSpeechMusic_20210407_logNormShiftAmp,2020.1.2,MacIntel,60,,,,,,,,,,,,,,1,5.576495,,0,0,125,125,64,1,stimuli/stim_20210407_power2amp/equal_lnn_AM3Hz_13.m4a,,,
,,,,,,,,,,,,41053,2021-05-08_21h12.55.202,judgeSpeechMusic_20210407_logNormShiftAmp,2020.1.2,MacIntel,60,,,,,,,,,,,,,,2,12.01062,2,1,0,126,126,2,1,stimuli/stim_20210407_power2amp/equal_lnn_AM0.6Hz_11.m4a,1.12929,,
,,,,,,,,,,,,41053,2021-05-08_21h12.55.202,judgeSpeechMusic_20210407_logNormShiftAmp,2020.1.2,MacIntel,60,,,,,,,,,,,,,,2,5.67777,,0,0,127,127,20,1,stimuli/stim_20210407_power2amp/equal_lnn_AM1.2Hz_83.m4a,,,
,,,,,,,,,,,,41053,2021-05-08_21h12.55.202,judgeSpeechMusic_20210407_logNormShiftAmp,2020.1.2,MacIntel,60,,,,,,,,,,,,,,2,5.56247,,0,0,128,128,47,1,stimuli/stim_20210407_power2amp/equal_lnn_AM2.4Hz_57.m4a,,,
,,,,,,,,,,,,41053,2021-05-08_21h12.55.202,judgeSpeechMusic_20210407_logNormShiftAmp,2020.1.2,MacIntel,60,,,,,,,,,,,,,,2,5.57084,,0,0,129,129,91,1,stimuli/stim_20210407_power2amp/equal_lnn_AM4.2Hz_58.m4a,,,
,,,,,,,,,,,,41053,2021-05-08_21h12.55.202,judgeSpeechMusic_20210407_logNormShiftAmp,2020.1.2,MacIntel,60,,,,,,,,,,,,,,2,5.47887,,0,0,130,130,113,1,stimuli/stim_20210407_power2amp/equal_lnn_AM4.8Hz_39.m4a,,,
,,,,,,,,,,,,41053,2021-05-08_21h12.55.202,judgeSpeechMusic_20210407_logNormShiftAmp,2020.1.2,MacIntel,60,,,,,,,,,,,,,,2,5.62686,,0,0,131,131,25,1,stimuli/stim_20210407_power2amp/equal_lnn_AM1.2Hz_30.m4a,,,
,,,,,,,,,,,,41053,2021-05-08_21h12.55.202,judgeSpeechMusic_20210407_logNormShiftAmp,2020.1.2,MacIntel,60,,,,,,,,,,,,,,2,5.657005,,0,0,132,132,100,1,stimuli/stim_20210407_power2amp/equal_lnn_AM4.2Hz_27.m4a,,,
,,,,,,,,,,,,41053,2021-05-08_21h12.55.202,judgeSpeechMusic_20210407_logNormShiftAmp,2020.1.2,MacIntel,60,,,,,,,,,,,,,,1,5.70715,,0,0,133,133,122,1,stimuli/stim_20210407_power2amp/equal_lnn_AM5.4Hz_85.m4a,,,
,,,,,,,,,,,,41053,2021-05-08_21h12.55.202,judgeSpeechMusic_20210407_logNormShiftAmp,2020.1.2,MacIntel,60,,,,,,,,,,,,,,1,6.359425,,0,0,134,134,74,1,stimuli/stim_20210407_power2amp/equal_lnn_AM3Hz_84.m4a,,,
,,,,,,,,,,,,41053,2021-05-08_21h12.55.202,judgeSpeechMusic_20210407_logNormShiftAmp,2020.1.2,MacIntel,60,,,,,,,,,,,,,,2,6.11007,,0,0,135,135,37,1,stimuli/stim_20210407_power2amp/equal_lnn_AM1.8Hz_73.m4a,,,
,,,,,,,,,,,,41053,2021-05-08_21h12.55.202,judgeSpeechMusic_20210407_logNormShiftAmp,2020.1.2,MacIntel,60,,,,,,,,,,,,,,2,6.25883,,0,0,136,136,19,1,stimuli/stim_20210407_power2amp/equal_lnn_AM1.2Hz_27.m4a,,,
,,,,,,,,,,,,41053,2021-05-08_21h12.55.202,judgeSpeechMusic_20210407_logNormShiftAmp,2020.1.2,MacIntel,60,,,,,,,,,,,,,,1,6.70949,,0,0,137,137,148,1,stimuli/stim_20210407_power2amp/equal_lnn_AM6Hz_24.m4a,,,
,,,,,,,,,,,,41053,2021-05-08_21h12.55.202,judgeSpeechMusic_20210407_logNormShiftAmp,2020.1.2,MacIntel,60,,,,,,,,,,,,,,2,6.04365,,0,0,138,138,4,1,stimuli/stim_20210407_power2amp/equal_lnn_AM0.6Hz_57.m4a,,,
,,,,,,,,,,,,41053,2021-05-08_21h12.55.202,judgeSpeechMusic_20210407_logNormShiftAmp,2020.1.2,MacIntel,60,,,,,,,,,,,,,,2,5.59599,,0,0,139,139,34,1,stimuli/stim_20210407_power2amp/equal_lnn_AM1.8Hz_56.m4a,,,
,,,,,,,,,,,,41053,2021-05-08_21h12.55.202,judgeSpeechMusic_20210407_logNormShiftAmp,2020.1.2,MacIntel,60,,,,,,,,,,,,,,1,6.458215,,0,0,140,140,149,1,stimuli/stim_20210407_power2amp/equal_lnn_AM6Hz_55.m4a,,,
,,,,,,,,,,,,41053,2021-05-08_21h12.55.202,judgeSpeechMusic_20210407_logNormShiftAmp,2020.1.2,MacIntel,60,,,,,,,,,,,,,,1,5.59332,,0,0,141,141,23,1,stimuli/stim_20210407_power2amp/equal_lnn_AM1.2Hz_65.m4a,,,
,,,,,,,,,,,,41053,2021-05-08_21h12.55.202,judgeSpeechMusic_20210407_logNormShiftAmp,2020.1.2,MacIntel,60,,,,,,,,,,,,,,2,5.545315,,0,0,142,142,50,1,stimuli/stim_20210407_power2amp/equal_lnn_AM2.4Hz_90.m4a,,,
,,,,,,,,,,,,41053,2021-05-08_21h12.55.202,judgeSpeechMusic_20210407_logNormShiftAmp,2020.1.2,MacIntel,60,,,,,,,,,,,,,,1,5.905475,,0,0,143,143,9,1,stimuli/stim_20210407_power2amp/equal_lnn_AM0.6Hz_48.m4a,,,
,,,,,,,,,,,,41053,2021-05-08_21h12.55.202,judgeSpeechMusic_20210407_logNormShiftAmp,2020.1.2,MacIntel,60,,,,,,,,,,,,,,2,6.608295,,0,0,144,144,28,1,stimuli/stim_20210407_power2amp/equal_lnn_AM1.2Hz_62.m4a,,,
,,,,,,,,,,,,41053,2021-05-08_21h12.55.202,judgeSpeechMusic_20210407_logNormShiftAmp,2020.1.2,MacIntel,60,,,,,,,,,,,,,,1,5.774875,,0,0,145,145,126,1,stimuli/stim_20210407_power2amp/equal_lnn_AM5.4Hz_74.m4a,,,
,,,,,,,,,,,,41053,2021-05-08_21h12.55.202,judgeSpeechMusic_20210407_logNormShiftAmp,2020.1.2,MacIntel,60,,,,,,,,,,,,,,2,5.959095,,0,0,146,146,102,1,stimuli/stim_20210407_power2amp/equal_lnn_AM4.2Hz_33.m4a,,,
,,,,,,,,,,,,41053,2021-05-08_21h12.55.202,judgeSpeechMusic_20210407_logNormShiftAmp,2020.1.2,MacIntel,60,,,,,,,,,,,,,,2,5.809385,,0,0,147,147,42,1,stimuli/stim_20210407_power2amp/equal_lnn_AM1.8Hz_61.m4a,,,
,,,,,,,,,,,,41053,2021-05-08_21h12.55.202,judgeSpeechMusic_20210407_logNormShiftAmp,2020.1.2,MacIntel,60,,,,,,,,,,,,,,1,5.84114,,0,0,148,148,93,1,stimuli/stim_20210407_power2amp/equal_lnn_AM4.2Hz_4.m4a,,,
,,,,,,,,,,,,41053,2021-05-08_21h12.55.202,judgeSpeechMusic_20210407_logNormShiftAmp,2020.1.2,MacIntel,60,,,,,,,,,,,,,,2,6.442055,,0,0,149,149,119,1,stimuli/stim_20210407_power2amp/equal_lnn_AM4.8Hz_13.m4a,,,
,,,,,,,,,,,,41053,2021-05-08_21h12.55.202,judgeSpeechMusic_20210407_logNormShiftAmp,2020.1.2,MacIntel,60,,,,,,,,,,,,,,1,6.579055,,0,1,0,150,94,1,stimuli/stim_20210407_power2amp/equal_lnn_AM4.2Hz_1.m4a,,,
,,,,,,,,,,,,41053,2021-05-08_21h12.55.202,judgeSpeechMusic_20210407_logNormShiftAmp,2020.1.2,MacIntel,60,,,,,,,,,,,,,,2,5.925715,2,1,1,1,151,142,1,stimuli/stim_20210407_power2amp/equal_lnn_AM6Hz_84.m4a,0.46324,,
,,,,,,,,,,,,41053,2021-05-08_21h12.55.202,judgeSpeechMusic_20210407_logNormShiftAmp,2020.1.2,MacIntel,60,,,,,,,,,,,,,,2,5.594845,,0,1,2,152,8,1,stimuli/stim_20210407_power2amp/equal_lnn_AM0.6Hz_25.m4a,,,
,,,,,,,,,,,,41053,2021-05-08_21h12.55.202,judgeSpeechMusic_20210407_logNormShiftAmp,2020.1.2,MacIntel,60,,,,,,,,,,,,,,1,5.905645,,0,1,3,153,87,1,stimuli/stim_20210407_power2amp/equal_lnn_AM3.6Hz_42.m4a,,,
,,,,,,,,,,,,41053,2021-05-08_21h12.55.202,judgeSpeechMusic_20210407_logNormShiftAmp,2020.1.2,MacIntel,60,,,,,,,,,,,,,,2,6.27572,,0,1,4,154,22,1,stimuli/stim_20210407_power2amp/equal_lnn_AM1.2Hz_58.m4a,,,
,,,,,,,,,,,,41053,2021-05-08_21h12.55.202,judgeSpeechMusic_20210407_logNormShiftAmp,2020.1.2,MacIntel,60,,,,,,,,,,,,,,2,7.27834,,0,1,5,155,36,1,stimuli/stim_20210407_power2amp/equal_lnn_AM1.8Hz_59.m4a,,,
,,,,,,,,,,,,41053,2021-05-08_21h12.55.202,judgeSpeechMusic_20210407_logNormShiftAmp,2020.1.2,MacIntel,60,,,,,,,,,,,,,,2,7.009725,,0,1,6,156,48,1,stimuli/stim_20210407_power2amp/equal_lnn_AM2.4Hz_65.m4a,,,
,,,,,,,,,,,,41053,2021-05-08_21h12.55.202,judgeSpeechMusic_20210407_logNormShiftAmp,2020.1.2,MacIntel,60,,,,,,,,,,,,,,2,6.346185,,0,1,7,157,64,1,stimuli/stim_20210407_power2amp/equal_lnn_AM3Hz_13.m4a,,,
,,,,,,,,,,,,41053,2021-05-08_21h12.55.202,judgeSpeechMusic_20210407_logNormShiftAmp,2020.1.2,MacIntel,60,,,,,,,,,,,,,,2,6.077785,,0,1,8,158,33,1,stimuli/stim_20210407_power2amp/equal_lnn_AM1.8Hz_42.m4a,,,
,,,,,,,,,,,,41053,2021-05-08_21h12.55.202,judgeSpeechMusic_20210407_logNormShiftAmp,2020.1.2,MacIntel,60,,,,,,,,,,,,,,2,5.79628,,0,1,9,159,32,1,stimuli/stim_20210407_power2amp/equal_lnn_AM1.8Hz_46.m4a,,,
,,,,,,,,,,,,41053,2021-05-08_21h12.55.202,judgeSpeechMusic_20210407_logNormShiftAmp,2020.1.2,MacIntel,60,,,,,,,,,,,,,,2,6.11291,,0,1,10,160,53,1,stimuli/stim_20210407_power2amp/equal_lnn_AM2.4Hz_33.m4a,,,
,,,,,,,,,,,,41053,2021-05-08_21h12.55.202,judgeSpeechMusic_20210407_logNormShiftAmp,2020.1.2,MacIntel,60,,,,,,,,,,,,,,1,6.293925,,0,1,11,161,84,1,stimuli/stim_20210407_power2amp/equal_lnn_AM3.6Hz_79.m4a,,,
,,,,,,,,,,,,41053,2021-05-08_21h12.55.202,judgeSpeechMusic_20210407_logNormShiftAmp,2020.1.2,MacIntel,60,,,,,,,,,,,,,,2,6.44678,,0,1,12,162,51,1,stimuli/stim_20210407_power2amp/equal_lnn_AM2.4Hz_45.m4a,,,
,,,,,,,,,,,,41053,2021-05-08_21h12.55.202,judgeSpeechMusic_20210407_logNormShiftAmp,2020.1.2,MacIntel,60,,,,,,,,,,,,,,2,6.426225,,0,1,13,163,78,1,stimuli/stim_20210407_power2amp/equal_lnn_AM3.6Hz_74.m4a,,,
,,,,,,,,,,,,41053,2021-05-08_21h12.55.202,judgeSpeechMusic_20210407_logNormShiftAmp,2020.1.2,MacIntel,60,,,,,,,,,,,,,,2,7.57415,,0,1,14,164,35,1,stimuli/stim_20210407_power2amp/equal_lnn_AM1.8Hz_9.m4a,,,
,,,,,,,,,,,,41053,2021-05-08_21h12.55.202,judgeSpeechMusic_20210407_logNormShiftAmp,2020.1.2,MacIntel,60,,,,,,,,,,,,,,2,7.441965,,0,1,15,165,139,1,stimuli/stim_20210407_power2amp/equal_lnn_AM6Hz_15.m4a,,,
,,,,,,,,,,,,41053,2021-05-08_21h12.55.202,judgeSpeechMusic_20210407_logNormShiftAmp,2020.1.2,MacIntel,60,,,,,,,,,,,,,,1,6.394505,,0,1,16,166,41,1,stimuli/stim_20210407_power2amp/equal_lnn_AM1.8Hz_53.m4a,,,
,,,,,,,,,,,,41053,2021-05-08_21h12.55.202,judgeSpeechMusic_20210407_logNormShiftAmp,2020.1.2,MacIntel,60,,,,,,,,,,,,,,1,5.474545,,0,1,17,167,125,1,stimuli/stim_20210407_power2amp/equal_lnn_AM5.4Hz_91.m4a,,,
,,,,,,,,,,,,41053,2021-05-08_21h12.55.202,judgeSpeechMusic_20210407_logNormShiftAmp,2020.1.2,MacIntel,60,,,,,,,,,,,,,,1,5.530915,,0,1,18,168,13,1,stimuli/stim_20210407_power2amp/equal_lnn_AM0.6Hz_4.m4a,,,
,,,,,,,,,,,,41053,2021-05-08_21h12.55.202,judgeSpeechMusic_20210407_logNormShiftAmp,2020.1.2,MacIntel,60,,,,,,,,,,,,,,1,5.606405,,0,1,19,169,107,1,stimuli/stim_20210407_power2amp/equal_lnn_AM4.8Hz_23.m4a,,,
,,,,,,,,,,,,41053,2021-05-08_21h12.55.202,judgeSpeechMusic_20210407_logNormShiftAmp,2020.1.2,MacIntel,60,,,,,,,,,,,,,,2,6.0268,,0,1,20,170,75,1,stimuli/stim_20210407_power2amp/equal_lnn_AM3.6Hz_54.m4a,,,
,,,,,,,,,,,,41053,2021-05-08_21h12.55.202,judgeSpeechMusic_20210407_logNormShiftAmp,2020.1.2,MacIntel,60,,,,,,,,,,,,,,2,5.624795,,0,1,21,171,44,1,stimuli/stim_20210407_power2amp/equal_lnn_AM1.8Hz_89.m4a,,,
,,,,,,,,,,,,41053,2021-05-08_21h12.55.202,judgeSpeechMusic_20210407_logNormShiftAmp,2020.1.2,MacIntel,60,,,,,,,,,,,,,,2,5.62675,,0,1,22,172,17,1,stimuli/stim_20210407_power2amp/equal_lnn_AM1.2Hz_99.m4a,,,
,,,,,,,,,,,,41053,2021-05-08_21h12.55.202,judgeSpeechMusic_20210407_logNormShiftAmp,2020.1.2,MacIntel,60,,,,,,,,,,,,,,2,6.011955,,0,1,23,173,54,1,stimuli/stim_20210407_power2amp/equal_lnn_AM2.4Hz_97.m4a,,,
,,,,,,,,,,,,41053,2021-05-08_21h12.55.202,judgeSpeechMusic_20210407_logNormShiftAmp,2020.1.2,MacIntel,60,,,,,,,,,,,,,,1,6.02861,1,1,1,24,174,97,1,stimuli/stim_20210407_power2amp/equal_lnn_AM4.2Hz_85.m4a,0.38013,,
,,,,,,,,,,,,41053,2021-05-08_21h12.55.202,judgeSpeechMusic_20210407_logNormShiftAmp,2020.1.2,MacIntel,60,,,,,,,,,,,,,,2,6.159825,,0,1,25,175,101,1,stimuli/stim_20210407_power2amp/equal_lnn_AM4.2Hz_3.m4a,,,
,,,,,,,,,,,,41053,2021-05-08_21h12.55.202,judgeSpeechMusic_20210407_logNormShiftAmp,2020.1.2,MacIntel,60,,,,,,,,,,,,,,2,5.64267,,0,1,26,176,59,1,stimuli/stim_20210407_power2amp/equal_lnn_AM2.4Hz_20.m4a,,,
,,,,,,,,,,,,41053,2021-05-08_21h12.55.202,judgeSpeechMusic_20210407_logNormShiftAmp,2020.1.2,MacIntel,60,,,,,,,,,,,,,,2,5.578745,,0,1,27,177,28,1,stimuli/stim_20210407_power2amp/equal_lnn_AM1.2Hz_62.m4a,,,
,,,,,,,,,,,,41053,2021-05-08_21h12.55.202,judgeSpeechMusic_20210407_logNormShiftAmp,2020.1.2,MacIntel,60,,,,,,,,,,,,,,1,5.52505,,0,1,28,178,122,1,stimuli/stim_20210407_power2amp/equal_lnn_AM5.4Hz_85.m4a,,,
,,,,,,,,,,,,41053,2021-05-08_21h12.55.202,judgeSpeechMusic_20210407_logNormShiftAmp,2020.1.2,MacIntel,60,,,,,,,,,,,,,,1,5.291305,,0,1,29,179,89,1,stimuli/stim_20210407_power2amp/equal_lnn_AM3.6Hz_84.m4a,,,
,,,,,,,,,,,,41053,2021-05-08_21h12.55.202,judgeSpeechMusic_20210407_logNormShiftAmp,2020.1.2,MacIntel,60,,,,,,,,,,,,,,2,5.545595,,0,1,30,180,46,1,stimuli/stim_20210407_power2amp/equal_lnn_AM2.4Hz_1.m4a,,,
,,,,,,,,,,,,41053,2021-05-08_21h12.55.202,judgeSpeechMusic_20210407_logNormShiftAmp,2020.1.2,MacIntel,60,,,,,,,,,,,,,,2,6.024025,,0,1,31,181,4,1,stimuli/stim_20210407_power2amp/equal_lnn_AM0.6Hz_57.m4a,,,
,,,,,,,,,,,,41053,2021-05-08_21h12.55.202,judgeSpeechMusic_20210407_logNormShiftAmp,2020.1.2,MacIntel,60,,,,,,,,,,,,,,1,5.891845,,0,1,32,182,116,1,stimuli/stim_20210407_power2amp/equal_lnn_AM4.8Hz_95.m4a,,,
,,,,,,,,,,,,41053,2021-05-08_21h12.55.202,judgeSpeechMusic_20210407_logNormShiftAmp,2020.1.2,MacIntel,60,,,,,,,,,,,,,,2,6.09076,,0,1,33,183,118,1,stimuli/stim_20210407_power2amp/equal_lnn_AM4.8Hz_71.m4a,,,
,,,,,,,,,,,,41053,2021-05-08_21h12.55.202,judgeSpeechMusic_20210407_logNormShiftAmp,2020.1.2,MacIntel,60,,,,,,,,,,,,,,2,5.777135,,0,1,34,184,1,1,stimuli/stim_20210407_power2amp/equal_lnn_AM0.6Hz_28.m4a,,,
,,,,,,,,,,,,41053,2021-05-08_21h12.55.202,judgeSpeechMusic_20210407_logNormShiftAmp,2020.1.2,MacIntel,60,,,,,,,,,,,,,,1,5.589955,,0,1,35,185,126,1,stimuli/stim_20210407_power2amp/equal_lnn_AM5.4Hz_74.m4a,,,
,,,,,,,,,,,,41053,2021-05-08_21h12.55.202,judgeSpeechMusic_20210407_logNormShiftAmp,2020.1.2,MacIntel,60,,,,,,,,,,,,,,2,5.85758,,0,1,36,186,47,1,stimuli/stim_20210407_power2amp/equal_lnn_AM2.4Hz_57.m4a,,,
,,,,,,,,,,,,41053,2021-05-08_21h12.55.202,judgeSpeechMusic_20210407_logNormShiftAmp,2020.1.2,MacIntel,60,,,,,,,,,,,,,,1,6.25893,,0,1,37,187,43,1,stimuli/stim_20210407_power2amp/equal_lnn_AM1.8Hz_27.m4a,,,
,,,,,,,,,,,,41053,2021-05-08_21h12.55.202,judgeSpeechMusic_20210407_logNormShiftAmp,2020.1.2,MacIntel,60,,,,,,,,,,,,,,2,5.82607,,0,1,38,188,106,1,stimuli/stim_20210407_power2amp/equal_lnn_AM4.8Hz_78.m4a,,,
,,,,,,,,,,,,41053,2021-05-08_21h12.55.202,judgeSpeechMusic_20210407_logNormShiftAmp,2020.1.2,MacIntel,60,,,,,,,,,,,,,,2,5.772975,,0,1,39,189,111,1,stimuli/stim_20210407_power2amp/equal_lnn_AM4.8Hz_44.m4a,,,
,,,,,,,,,,,,41053,2021-05-08_21h12.55.202,judgeSpeechMusic_20210407_logNormShiftAmp,2020.1.2,MacIntel,60,,,,,,,,,,,,,,1,10.692705,,0,1,40,190,56,1,stimuli/stim_20210407_power2amp/equal_lnn_AM2.4Hz_67.m4a,,,
,,,,,,,,,,,,41053,2021-05-08_21h12.55.202,judgeSpeechMusic_20210407_logNormShiftAmp,2020.1.2,MacIntel,60,,,,,,,,,,,,,,2,5.84138,,0,1,41,191,105,1,stimuli/stim_20210407_power2amp/equal_lnn_AM4.8Hz_9.m4a,,,
,,,,,,,,,,,,41053,2021-05-08_21h12.55.202,judgeSpeechMusic_20210407_logNormShiftAmp,2020.1.2,MacIntel,60,,,,,,,,,,,,,,1,5.891765,,0,1,42,192,121,1,stimuli/stim_20210407_power2amp/equal_lnn_AM5.4Hz_94.m4a,,,
,,,,,,,,,,,,41053,2021-05-08_21h12.55.202,judgeSpeechMusic_20210407_logNormShiftAmp,2020.1.2,MacIntel,60,,,,,,,,,,,,,,1,6.20835,,0,1,43,193,147,1,stimuli/stim_20210407_power2amp/equal_lnn_AM6Hz_98.m4a,,,
,,,,,,,,,,,,41053,2021-05-08_21h12.55.202,judgeSpeechMusic_20210407_logNormShiftAmp,2020.1.2,MacIntel,60,,,,,,,,,,,,,,2,5.74191,,0,1,44,194,86,1,stimuli/stim_20210407_power2amp/equal_lnn_AM3.6Hz_93.m4a,,,
,,,,,,,,,,,,41053,2021-05-08_21h12.55.202,judgeSpeechMusic_20210407_logNormShiftAmp,2020.1.2,MacIntel,60,,,,,,,,,,,,,,2,5.95815,,0,1,45,195,9,1,stimuli/stim_20210407_power2amp/equal_lnn_AM0.6Hz_48.m4a,,,
,,,,,,,,,,,,41053,2021-05-08_21h12.55.202,judgeSpeechMusic_20210407_logNormShiftAmp,2020.1.2,MacIntel,60,,,,,,,,,,,,,,2,5.6241,,0,1,46,196,14,1,stimuli/stim_20210407_power2amp/equal_lnn_AM0.6Hz_93.m4a,,,
,,,,,,,,,,,,41053,2021-05-08_21h12.55.202,judgeSpeechMusic_20210407_logNormShiftAmp,2020.1.2,MacIntel,60,,,,,,,,,,,,,,1,5.74351,,0,1,47,197,108,1,stimuli/stim_20210407_power2amp/equal_lnn_AM4.8Hz_31.m4a,,,
,,,,,,,,,,,,41053,2021-05-08_21h12.55.202,judgeSpeechMusic_20210407_logNormShiftAmp,2020.1.2,MacIntel,60,,,,,,,,,,,,,,1,5.72532,,0,1,48,198,133,1,stimuli/stim_20210407_power2amp/equal_lnn_AM5.4Hz_70.m4a,,,
,,,,,,,,,,,,41053,2021-05-08_21h12.55.202,judgeSpeechMusic_20210407_logNormShiftAmp,2020.1.2,MacIntel,60,,,,,,,,,,,,,,2,6.194605,1,1,1,49,199,131,1,stimuli/stim_20210407_power2amp/equal_lnn_AM5.4Hz_31.m4a,1.01256,,
,,,,,,,,,,,,41053,2021-05-08_21h12.55.202,judgeSpeechMusic_20210407_logNormShiftAmp,2020.1.2,MacIntel,60,,,,,,,,,,,,,,1,5.62853,,0,1,50,200,5,1,stimuli/stim_20210407_power2amp/equal_lnn_AM0.6Hz_53.m4a,,,
,,,,,,,,,,,,41053,2021-05-08_21h12.55.202,judgeSpeechMusic_20210407_logNormShiftAmp,2020.1.2,MacIntel,60,,,,,,,,,,,,,,2,5.59318,,0,1,51,201,138,1,stimuli/stim_20210407_power2amp/equal_lnn_AM6Hz_33.m4a,,,
,,,,,,,,,,,,41053,2021-05-08_21h12.55.202,judgeSpeechMusic_20210407_logNormShiftAmp,2020.1.2,MacIntel,60,,,,,,,,,,,,,,2,5.66281,,0,1,52,202,12,1,stimuli/stim_20210407_power2amp/equal_lnn_AM0.6Hz_17.m4a,,,
,,,,,,,,,,,,41053,2021-05-08_21h12.55.202,judgeSpeechMusic_20210407_logNormShiftAmp,2020.1.2,MacIntel,60,,,,,,,,,,,,,,2,6.85902,,0,1,53,203,114,1,stimuli/stim_20210407_power2amp/equal_lnn_AM4.8Hz_91.m4a,,,
,,,,,,,,,,,,41053,2021-05-08_21h12.55.202,judgeSpeechMusic_20210407_logNormShiftAmp,2020.1.2,MacIntel,60,,,,,,,,,,,,,,2,7.510305,,0,1,54,204,112,1,stimuli/stim_20210407_power2amp/equal_lnn_AM4.8Hz_70.m4a,,,
,,,,,,,,,,,,41053,2021-05-08_21h12.55.202,judgeSpeechMusic_20210407_logNormShiftAmp,2020.1.2,MacIntel,60,,,,,,,,,,,,,,2,14.67292,,0,1,55,205,26,1,stimuli/stim_20210407_power2amp/equal_lnn_AM1.2Hz_18.m4a,,,
,,,,,,,,,,,,41053,2021-05-08_21h12.55.202,judgeSpeechMusic_20210407_logNormShiftAmp,2020.1.2,MacIntel,60,,,,,,,,,,,,,,1,11.59215,,0,1,56,206,24,1,stimuli/stim_20210407_power2amp/equal_lnn_AM1.2Hz_3.m4a,,,
,,,,,,,,,,,,41053,2021-05-08_21h12.55.202,judgeSpeechMusic_20210407_logNormShiftAmp,2020.1.2,MacIntel,60,,,,,,,,,,,,,,1,7.87641,,0,1,57,207,77,1,stimuli/stim_20210407_power2amp/equal_lnn_AM3.6Hz_35.m4a,,,
,,,,,,,,,,,,41053,2021-05-08_21h12.55.202,judgeSpeechMusic_20210407_logNormShiftAmp,2020.1.2,MacIntel,60,,,,,,,,,,,,,,2,6.41147,,0,1,58,208,38,1,stimuli/stim_20210407_power2amp/equal_lnn_AM1.8Hz_91.m4a,,,
,,,,,,,,,,,,41053,2021-05-08_21h12.55.202,judgeSpeechMusic_20210407_logNormShiftAmp,2020.1.2,MacIntel,60,,,,,,,,,,,,,,1,6.223275,,0,1,59,209,92,1,stimuli/stim_20210407_power2amp/equal_lnn_AM4.2Hz_57.m4a,,,
,,,,,,,,,,,,41053,2021-05-08_21h12.55.202,judgeSpeechMusic_20210407_logNormShiftAmp,2020.1.2,MacIntel,60,,,,,,,,,,,,,,2,6.410145,,0,1,60,210,11,1,stimuli/stim_20210407_power2amp/equal_lnn_AM0.6Hz_3.m4a,,,
,,,,,,,,,,,,41053,2021-05-08_21h12.55.202,judgeSpeechMusic_20210407_logNormShiftAmp,2020.1.2,MacIntel,60,,,,,,,,,,,,,,2,5.9781,,0,1,61,211,3,1,stimuli/stim_20210407_power2amp/equal_lnn_AM0.6Hz_83.m4a,,,
,,,,,,,,,,,,41053,2021-05-08_21h12.55.202,judgeSpeechMusic_20210407_logNormShiftAmp,2020.1.2,MacIntel,60,,,,,,,,,,,,,,1,5.560965,,0,1,62,212,120,1,stimuli/stim_20210407_power2amp/equal_lnn_AM5.4Hz_61.m4a,,,
,,,,,,,,,,,,41053,2021-05-08_21h12.55.202,judgeSpeechMusic_20210407_logNormShiftAmp,2020.1.2,MacIntel,60,,,,,,,,,,,,,,1,5.608515,,0,1,63,213,128,1,stimuli/stim_20210407_power2amp/equal_lnn_AM5.4Hz_53.m4a,,,
,,,,,,,,,,,,41053,2021-05-08_21h12.55.202,judgeSpeechMusic_20210407_logNormShiftAmp,2020.1.2,MacIntel,60,,,,,,,,,,,,,,1,5.531325,,0,1,64,214,98,1,stimuli/stim_20210407_power2amp/equal_lnn_AM4.2Hz_6.m4a,,,
,,,,,,,,,,,,41053,2021-05-08_21h12.55.202,judgeSpeechMusic_20210407_logNormShiftAmp,2020.1.2,MacIntel,60,,,,,,,,,,,,,,2,5.69461,,0,1,65,215,10,1,stimuli/stim_20210407_power2amp/equal_lnn_AM0.6Hz_100.m4a,,,
,,,,,,,,,,,,41053,2021-05-08_21h12.55.202,judgeSpeechMusic_20210407_logNormShiftAmp,2020.1.2,MacIntel,60,,,,,,,,,,,,,,1,5.45733,,0,1,66,216,148,1,stimuli/stim_20210407_power2amp/equal_lnn_AM6Hz_24.m4a,,,
,,,,,,,,,,,,41053,2021-05-08_21h12.55.202,judgeSpeechMusic_20210407_logNormShiftAmp,2020.1.2,MacIntel,60,,,,,,,,,,,,,,2,6.39471,,0,1,67,217,37,1,stimuli/stim_20210407_power2amp/equal_lnn_AM1.8Hz_73.m4a,,,
,,,,,,,,,,,,41053,2021-05-08_21h12.55.202,judgeSpeechMusic_20210407_logNormShiftAmp,2020.1.2,MacIntel,60,,,,,,,,,,,,,,2,5.513685,,0,1,68,218,15,1,stimuli/stim_20210407_power2amp/equal_lnn_AM1.2Hz_9.m4a,,,
,,,,,,,,,,,,41053,2021-05-08_21h12.55.202,judgeSpeechMusic_20210407_logNormShiftAmp,2020.1.2,MacIntel,60,,,,,,,,,,,,,,1,5.890915,,0,1,69,219,52,1,stimuli/stim_20210407_power2amp/equal_lnn_AM2.4Hz_30.m4a,,,
,,,,,,,,,,,,41053,2021-05-08_21h12.55.202,judgeSpeechMusic_20210407_logNormShiftAmp,2020.1.2,MacIntel,60,,,,,,,,,,,,,,2,6.179965,,0,1,70,220,81,1,stimuli/stim_20210407_power2amp/equal_lnn_AM3.6Hz_25.m4a,,,
,,,,,,,,,,,,41053,2021-05-08_21h12.55.202,judgeSpeechMusic_20210407_logNormShiftAmp,2020.1.2,MacIntel,60,,,,,,,,,,,,,,2,5.50728,,0,1,71,221,66,1,stimuli/stim_20210407_power2amp/equal_lnn_AM3Hz_4.m4a,,,
,,,,,,,,,,,,41053,2021-05-08_21h12.55.202,judgeSpeechMusic_20210407_logNormShiftAmp,2020.1.2,MacIntel,60,,,,,,,,,,,,,,2,5.474505,3,1,1,72,222,73,1,stimuli/stim_20210407_power2amp/equal_lnn_AM3Hz_66.m4a,1.19624,,
,,,,,,,,,,,,41053,2021-05-08_21h12.55.202,judgeSpeechMusic_20210407_logNormShiftAmp,2020.1.2,MacIntel,60,,,,,,,,,,,,,,2,5.44648,,0,1,73,223,83,1,stimuli/stim_20210407_power2amp/equal_lnn_AM3.6Hz_18.m4a,,,
,,,,,,,,,,,,41053,2021-05-08_21h12.55.202,judgeSpeechMusic_20210407_logNormShiftAmp,2020.1.2,MacIntel,60,,,,,,,,,,,,,,2,5.46476,,0,1,74,224,2,1,stimuli/stim_20210407_power2amp/equal_lnn_AM0.6Hz_11.m4a,,,
,,,,,,,,,,,,41053,2021-05-08_21h12.55.202,judgeSpeechMusic_20210407_logNormShiftAmp,2020.1.2,MacIntel,60,,,,,,,,,,,,,,1,5.737985,,0,1,75,225,110,1,stimuli/stim_20210407_power2amp/equal_lnn_AM4.8Hz_90.m4a,,,
,,,,,,,,,,,,41053,2021-05-08_21h12.55.202,judgeSpeechMusic_20210407_logNormShiftAmp,2020.1.2,MacIntel,60,,,,,,,,,,,,,,1,6.161545,,0,1,76,226,71,1,stimuli/stim_20210407_power2amp/equal_lnn_AM3Hz_3.m4a,,,
,,,,,,,,,,,,41053,2021-05-08_21h12.55.202,judgeSpeechMusic_20210407_logNormShiftAmp,2020.1.2,MacIntel,60,,,,,,,,,,,,,,2,6.707295,,0,1,77,227,7,1,stimuli/stim_20210407_power2amp/equal_lnn_AM0.6Hz_16.m4a,,,
,,,,,,,,,,,,41053,2021-05-08_21h12.55.202,judgeSpeechMusic_20210407_logNormShiftAmp,2020.1.2,MacIntel,60,,,,,,,,,,,,,,1,6.52712,,0,1,78,228,146,1,stimuli/stim_20210407_power2amp/equal_lnn_AM6Hz_85.m4a,,,
,,,,,,,,,,,,41053,2021-05-08_21h12.55.202,judgeSpeechMusic_20210407_logNormShiftAmp,2020.1.2,MacIntel,60,,,,,,,,,,,,,,1,5.544275,,0,1,79,229,145,1,stimuli/stim_20210407_power2amp/equal_lnn_AM6Hz_25.m4a,,,
,,,,,,,,,,,,41053,2021-05-08_21h12.55.202,judgeSpeechMusic_20210407_logNormShiftAmp,2020.1.2,MacIntel,60,,,,,,,,,,,,,,1,5.560895,,0,1,80,230,129,1,stimuli/stim_20210407_power2amp/equal_lnn_AM5.4Hz_27.m4a,,,
,,,,,,,,,,,,41053,2021-05-08_21h12.55.202,judgeSpeechMusic_20210407_logNormShiftAmp,2020.1.2,MacIntel,60,,,,,,,,,,,,,,1,5.676685,,0,1,81,231,95,1,stimuli/stim_20210407_power2amp/equal_lnn_AM4.2Hz_2.m4a,,,
,,,,,,,,,,,,41053,2021-05-08_21h12.55.202,judgeSpeechMusic_20210407_logNormShiftAmp,2020.1.2,MacIntel,60,,,,,,,,,,,,,,1,5.606165,,0,1,82,232,67,1,stimuli/stim_20210407_power2amp/equal_lnn_AM3Hz_87.m4a,,,
,,,,,,,,,,,,41053,2021-05-08_21h12.55.202,judgeSpeechMusic_20210407_logNormShiftAmp,2020.1.2,MacIntel,60,,,,,,,,,,,,,,2,5.911115,,0,1,83,233,21,1,stimuli/stim_20210407_power2amp/equal_lnn_AM1.2Hz_77.m4a,,,
,,,,,,,,,,,,41053,2021-05-08_21h12.55.202,judgeSpeechMusic_20210407_logNormShiftAmp,2020.1.2,MacIntel,60,,,,,,,,,,,,,,2,5.610195,,0,1,84,234,18,1,stimuli/stim_20210407_power2amp/equal_lnn_AM1.2Hz_22.m4a,,,
,,,,,,,,,,,,41053,2021-05-08_21h12.55.202,judgeSpeechMusic_20210407_logNormShiftAmp,2020.1.2,MacIntel,60,,,,,,,,,,,,,,1,6.106045,,0,1,85,235,132,1,stimuli/stim_20210407_power2amp/equal_lnn_AM5.4Hz_81.m4a,,,
,,,,,,,,,,,,41053,2021-05-08_21h12.55.202,judgeSpeechMusic_20210407_logNormShiftAmp,2020.1.2,MacIntel,60,,,,,,,,,,,,,,1,5.611295,,0,1,86,236,88,1,stimuli/stim_20210407_power2amp/equal_lnn_AM3.6Hz_4.m4a,,,
,,,,,,,,,,,,41053,2021-05-08_21h12.55.202,judgeSpeechMusic_20210407_logNormShiftAmp,2020.1.2,MacIntel,60,,,,,,,,,,,,,,2,5.62532,,0,1,87,237,27,1,stimuli/stim_20210407_power2amp/equal_lnn_AM1.2Hz_92.m4a,,,
,,,,,,,,,,,,41053,2021-05-08_21h12.55.202,judgeSpeechMusic_20210407_logNormShiftAmp,2020.1.2,MacIntel,60,,,,,,,,,,,,,,1,5.364005,,0,1,88,238,62,1,stimuli/stim_20210407_power2amp/equal_lnn_AM3Hz_6.m4a,,,
,,,,,,,,,,,,41053,2021-05-08_21h12.55.202,judgeSpeechMusic_20210407_logNormShiftAmp,2020.1.2,MacIntel,60,,,,,,,,,,,,,,1,5.45766,,0,1,89,239,109,1,stimuli/stim_20210407_power2amp/equal_lnn_AM4.8Hz_57.m4a,,,
,,,,,,,,,,,,41053,2021-05-08_21h12.55.202,judgeSpeechMusic_20210407_logNormShiftAmp,2020.1.2,MacIntel,60,,,,,,,,,,,,,,1,8.00804,,0,1,90,240,34,1,stimuli/stim_20210407_power2amp/equal_lnn_AM1.8Hz_56.m4a,,,
,,,,,,,,,,,,41053,2021-05-08_21h12.55.202,judgeSpeechMusic_20210407_logNormShiftAmp,2020.1.2,MacIntel,60,,,,,,,,,,,,,,2,9.591055,,0,1,91,241,65,1,stimuli/stim_20210407_power2amp/equal_lnn_AM3Hz_96.m4a,,,
,,,,,,,,,,,,41053,2021-05-08_21h12.55.202,judgeSpeechMusic_20210407_logNormShiftAmp,2020.1.2,MacIntel,60,,,,,,,,,,,,,,2,7.840855,3,1,1,92,242,23,1,stimuli/stim_20210407_power2amp/equal_lnn_AM1.2Hz_65.m4a,1.24461,,
,,,,,,,,,,,,41053,2021-05-08_21h12.55.202,judgeSpeechMusic_20210407_logNormShiftAmp,2020.1.2,MacIntel,60,,,,,,,,,,,,,,2,5.600995,,0,1,93,243,57,1,stimuli/stim_20210407_power2amp/equal_lnn_AM2.4Hz_37.m4a,,,
,,,,,,,,,,,,41053,2021-05-08_21h12.55.202,judgeSpeechMusic_20210407_logNormShiftAmp,2020.1.2,MacIntel,60,,,,,,,,,,,,,,1,5.9184,,0,1,94,244,76,1,stimuli/stim_20210407_power2amp/equal_lnn_AM3.6Hz_55.m4a,,,
,,,,,,,,,,,,41053,2021-05-08_21h12.55.202,judgeSpeechMusic_20210407_logNormShiftAmp,2020.1.2,MacIntel,60,,,,,,,,,,,,,,2,6.37622,,0,1,95,245,119,1,stimuli/stim_20210407_power2amp/equal_lnn_AM4.8Hz_13.m4a,,,
,,,,,,,,,,,,41053,2021-05-08_21h12.55.202,judgeSpeechMusic_20210407_logNormShiftAmp,2020.1.2,MacIntel,60,,,,,,,,,,,,,,1,5.82548,,0,1,96,246,124,1,stimuli/stim_20210407_power2amp/equal_lnn_AM5.4Hz_62.m4a,,,
,,,,,,,,,,,,41053,2021-05-08_21h12.55.202,judgeSpeechMusic_20210407_logNormShiftAmp,2020.1.2,MacIntel,60,,,,,,,,,,,,,,2,5.473315,,0,1,97,247,50,1,stimuli/stim_20210407_power2amp/equal_lnn_AM2.4Hz_90.m4a,,,
,,,,,,,,,,,,41053,2021-05-08_21h12.55.202,judgeSpeechMusic_20210407_logNormShiftAmp,2020.1.2,MacIntel,60,,,,,,,,,,,,,,2,5.793175,,0,1,98,248,6,1,stimuli/stim_20210407_power2amp/equal_lnn_AM0.6Hz_14.m4a,,,
,,,,,,,,,,,,41053,2021-05-08_21h12.55.202,judgeSpeechMusic_20210407_logNormShiftAmp,2020.1.2,MacIntel,60,,,,,,,,,,,,,,1,5.477755,,0,1,99,249,96,1,stimuli/stim_20210407_power2amp/equal_lnn_AM4.2Hz_78.m4a,,,
,,,,,,,,,,,,41053,2021-05-08_21h12.55.202,judgeSpeechMusic_20210407_logNormShiftAmp,2020.1.2,MacIntel,60,,,,,,,,,,,,,,2,5.82639,,0,1,100,250,61,1,stimuli/stim_20210407_power2amp/equal_lnn_AM3Hz_49.m4a,,,
,,,,,,,,,,,,41053,2021-05-08_21h12.55.202,judgeSpeechMusic_20210407_logNormShiftAmp,2020.1.2,MacIntel,60,,,,,,,,,,,,,,2,5.49372,,0,1,101,251,113,1,stimuli/stim_20210407_power2amp/equal_lnn_AM4.8Hz_39.m4a,,,
,,,,,,,,,,,,41053,2021-05-08_21h12.55.202,judgeSpeechMusic_20210407_logNormShiftAmp,2020.1.2,MacIntel,60,,,,,,,,,,,,,,2,5.525615,,0,1,102,252,29,1,stimuli/stim_20210407_power2amp/equal_lnn_AM1.2Hz_63.m4a,,,
,,,,,,,,,,,,41053,2021-05-08_21h12.55.202,judgeSpeechMusic_20210407_logNormShiftAmp,2020.1.2,MacIntel,60,,,,,,,,,,,,,,2,5.75489,,0,1,103,253,63,1,stimuli/stim_20210407_power2amp/equal_lnn_AM3Hz_5.m4a,,,
,,,,,,,,,,,,41053,2021-05-08_21h12.55.202,judgeSpeechMusic_20210407_logNormShiftAmp,2020.1.2,MacIntel,60,,,,,,,,,,,,,,2,5.727495,,0,1,104,254,115,1,stimuli/stim_20210407_power2amp/equal_lnn_AM4.8Hz_68.m4a,,,
,,,,,,,,,,,,41053,2021-05-08_21h12.55.202,judgeSpeechMusic_20210407_logNormShiftAmp,2020.1.2,MacIntel,60,,,,,,,,,,,,,,1,5.46896,,0,1,105,255,93,1,stimuli/stim_20210407_power2amp/equal_lnn_AM4.2Hz_4.m4a,,,
,,,,,,,,,,,,41053,2021-05-08_21h12.55.202,judgeSpeechMusic_20210407_logNormShiftAmp,2020.1.2,MacIntel,60,,,,,,,,,,,,,,1,5.905775,,0,1,106,256,79,1,stimuli/stim_20210407_power2amp/equal_lnn_AM3.6Hz_82.m4a,,,
,,,,,,,,,,,,41053,2021-05-08_21h12.55.202,judgeSpeechMusic_20210407_logNormShiftAmp,2020.1.2,MacIntel,60,,,,,,,,,,,,,,1,5.57636,,0,1,107,257,91,1,stimuli/stim_20210407_power2amp/equal_lnn_AM4.2Hz_58.m4a,,,
,,,,,,,,,,,,41053,2021-05-08_21h12.55.202,judgeSpeechMusic_20210407_logNormShiftAmp,2020.1.2,MacIntel,60,,,,,,,,,,,,,,1,5.44321,,0,1,108,258,60,1,stimuli/stim_20210407_power2amp/equal_lnn_AM3Hz_50.m4a,,,
,,,,,,,,,,,,41053,2021-05-08_21h12.55.202,judgeSpeechMusic_20210407_logNormShiftAmp,2020.1.2,MacIntel,60,,,,,,,,,,,,,,1,5.692495,,0,1,109,259,90,1,stimuli/stim_20210407_power2amp/equal_lnn_AM4.2Hz_61.m4a,,,
,,,,,,,,,,,,41053,2021-05-08_21h12.55.202,judgeSpeechMusic_20210407_logNormShiftAmp,2020.1.2,MacIntel,60,,,,,,,,,,,,,,1,5.55993,,0,1,110,260,58,1,stimuli/stim_20210407_power2amp/equal_lnn_AM2.4Hz_29.m4a,,,
,,,,,,,,,,,,41053,2021-05-08_21h12.55.202,judgeSpeechMusic_20210407_logNormShiftAmp,2020.1.2,MacIntel,60,,,,,,,,,,,,,,1,5.34555,,0,1,111,261,103,1,stimuli/stim_20210407_power2amp/equal_lnn_AM4.2Hz_43.m4a,,,
,,,,,,,,,,,,41053,2021-05-08_21h12.55.202,judgeSpeechMusic_20210407_logNormShiftAmp,2020.1.2,MacIntel,60,,,,,,,,,,,,,,2,5.80551,,0,1,112,262,99,1,stimuli/stim_20210407_power2amp/equal_lnn_AM4.2Hz_66.m4a,,,
,,,,,,,,,,,,41053,2021-05-08_21h12.55.202,judgeSpeechMusic_20210407_logNormShiftAmp,2020.1.2,MacIntel,60,,,,,,,,,,,,,,2,5.41572,,0,1,113,263,80,1,stimuli/stim_20210407_power2amp/equal_lnn_AM3.6Hz_13.m4a,,,
,,,,,,,,,,,,41053,2021-05-08_21h12.55.202,judgeSpeechMusic_20210407_logNormShiftAmp,2020.1.2,MacIntel,60,,,,,,,,,,,,,,2,5.29455,,0,1,114,264,49,1,stimuli/stim_20210407_power2amp/equal_lnn_AM2.4Hz_3.m4a,,,
,,,,,,,,,,,,41053,2021-05-08_21h12.55.202,judgeSpeechMusic_20210407_logNormShiftAmp,2020.1.2,MacIntel,60,,,,,,,,,,,,,,2,5.87422,,0,1,115,265,70,1,stimuli/stim_20210407_power2amp/equal_lnn_AM3Hz_29.m4a,,,
,,,,,,,,,,,,41053,2021-05-08_21h12.55.202,judgeSpeechMusic_20210407_logNormShiftAmp,2020.1.2,MacIntel,60,,,,,,,,,,,,,,1,5.559185,4,1,1,116,266,140,1,stimuli/stim_20210407_power2amp/equal_lnn_AM6Hz_41.m4a,0.54914,,
,,,,,,,,,,,,41053,2021-05-08_21h12.55.202,judgeSpeechMusic_20210407_logNormShiftAmp,2020.1.2,MacIntel,60,,,,,,,,,,,,,,1,5.74318,,0,1,117,267,144,1,stimuli/stim_20210407_power2amp/equal_lnn_AM6Hz_83.m4a,,,
,,,,,,,,,,,,41053,2021-05-08_21h12.55.202,judgeSpeechMusic_20210407_logNormShiftAmp,2020.1.2,MacIntel,60,,,,,,,,,,,,,,2,5.89351,,0,1,118,268,72,1,stimuli/stim_20210407_power2amp/equal_lnn_AM3Hz_58.m4a,,,
,,,,,,,,,,,,41053,2021-05-08_21h12.55.202,judgeSpeechMusic_20210407_logNormShiftAmp,2020.1.2,MacIntel,60,,,,,,,,,,,,,,1,5.576295,,0,1,119,269,130,1,stimuli/stim_20210407_power2amp/equal_lnn_AM5.4Hz_93.m4a,,,
,,,,,,,,,,,,41053,2021-05-08_21h12.55.202,judgeSpeechMusic_20210407_logNormShiftAmp,2020.1.2,MacIntel,60,,,,,,,,,,,,,,2,5.776005,,0,1,120,270,149,1,stimuli/stim_20210407_power2amp/equal_lnn_AM6Hz_55.m4a,,,
,,,,,,,,,,,,41053,2021-05-08_21h12.55.202,judgeSpeechMusic_20210407_logNormShiftAmp,2020.1.2,MacIntel,60,,,,,,,,,,,,,,1,5.595605,,0,1,121,271,134,1,stimuli/stim_20210407_power2amp/equal_lnn_AM5.4Hz_3.m4a,,,
,,,,,,,,,,,,41053,2021-05-08_21h12.55.202,judgeSpeechMusic_20210407_logNormShiftAmp,2020.1.2,MacIntel,60,,,,,,,,,,,,,,2,6.325825,,0,1,122,272,42,1,stimuli/stim_20210407_power2amp/equal_lnn_AM1.8Hz_61.m4a,,,
,,,,,,,,,,,,41053,2021-05-08_21h12.55.202,judgeSpeechMusic_20210407_logNormShiftAmp,2020.1.2,MacIntel,60,,,,,,,,,,,,,,2,6.99357,,0,1,123,273,74,1,stimuli/stim_20210407_power2amp/equal_lnn_AM3Hz_84.m4a,,,
,,,,,,,,,,,,41053,2021-05-08_21h12.55.202,judgeSpeechMusic_20210407_logNormShiftAmp,2020.1.2,MacIntel,60,,,,,,,,,,,,,,1,5.37742,,0,1,124,274,136,1,stimuli/stim_20210407_power2amp/equal_lnn_AM6Hz_29.m4a,,,
,,,,,,,,,,,,41053,2021-05-08_21h12.55.202,judgeSpeechMusic_20210407_logNormShiftAmp,2020.1.2,MacIntel,60,,,,,,,,,,,,,,2,5.46113,,0,1,125,275,68,1,stimuli/stim_20210407_power2amp/equal_lnn_AM3Hz_83.m4a,,,
,,,,,,,,,,,,41053,2021-05-08_21h12.55.202,judgeSpeechMusic_20210407_logNormShiftAmp,2020.1.2,MacIntel,60,,,,,,,,,,,,,,2,6.344545,,0,1,126,276,0,1,stimuli/stim_20210407_power2amp/equal_lnn_AM0.6Hz_2.m4a,,,
,,,,,,,,,,,,41053,2021-05-08_21h12.55.202,judgeSpeechMusic_20210407_logNormShiftAmp,2020.1.2,MacIntel,60,,,,,,,,,,,,,,2,5.52382,,0,1,127,277,30,1,stimuli/stim_20210407_power2amp/equal_lnn_AM1.8Hz_64.m4a,,,
,,,,,,,,,,,,41053,2021-05-08_21h12.55.202,judgeSpeechMusic_20210407_logNormShiftAmp,2020.1.2,MacIntel,60,,,,,,,,,,,,,,2,5.429705,,0,1,128,278,102,1,stimuli/stim_20210407_power2amp/equal_lnn_AM4.2Hz_33.m4a,,,
,,,,,,,,,,,,41053,2021-05-08_21h12.55.202,judgeSpeechMusic_20210407_logNormShiftAmp,2020.1.2,MacIntel,60,,,,,,,,,,,,,,1,5.377905,,0,1,129,279,135,1,stimuli/stim_20210407_power2amp/equal_lnn_AM6Hz_75.m4a,,,
,,,,,,,,,,,,41053,2021-05-08_21h12.55.202,judgeSpeechMusic_20210407_logNormShiftAmp,2020.1.2,MacIntel,60,,,,,,,,,,,,,,2,5.626375,,0,1,130,280,82,1,stimuli/stim_20210407_power2amp/equal_lnn_AM3.6Hz_87.m4a,,,
,,,,,,,,,,,,41053,2021-05-08_21h12.55.202,judgeSpeechMusic_20210407_logNormShiftAmp,2020.1.2,MacIntel,60,,,,,,,,,,,,,,2,5.322355,,0,1,131,281,141,1,stimuli/stim_20210407_power2amp/equal_lnn_AM6Hz_92.m4a,,,
,,,,,,,,,,,,41053,2021-05-08_21h12.55.202,judgeSpeechMusic_20210407_logNormShiftAmp,2020.1.2,MacIntel,60,,,,,,,,,,,,,,2,5.54325,,0,1,132,282,39,1,stimuli/stim_20210407_power2amp/equal_lnn_AM1.8Hz_75.m4a,,,
,,,,,,,,,,,,41053,2021-05-08_21h12.55.202,judgeSpeechMusic_20210407_logNormShiftAmp,2020.1.2,MacIntel,60,,,,,,,,,,,,,,2,5.475085,,0,1,133,283,85,1,stimuli/stim_20210407_power2amp/equal_lnn_AM3.6Hz_52.m4a,,,
,,,,,,,,,,,,41053,2021-05-08_21h12.55.202,judgeSpeechMusic_20210407_logNormShiftAmp,2020.1.2,MacIntel,60,,,,,,,,,,,,,,1,6.09358,,0,1,134,284,25,1,stimuli/stim_20210407_power2amp/equal_lnn_AM1.2Hz_30.m4a,,,
,,,,,,,,,,,,41053,2021-05-08_21h12.55.202,judgeSpeechMusic_20210407_logNormShiftAmp,2020.1.2,MacIntel,60,,,,,,,,,,,,,,1,5.691465,,0,1,135,285,104,1,stimuli/stim_20210407_power2amp/equal_lnn_AM4.2Hz_28.m4a,,,
,,,,,,,,,,,,41053,2021-05-08_21h12.55.202,judgeSpeechMusic_20210407_logNormShiftAmp,2020.1.2,MacIntel,60,,,,,,,,,,,,,,2,5.99008,,0,1,136,286,19,1,stimuli/stim_20210407_power2amp/equal_lnn_AM1.2Hz_27.m4a,,,
,,,,,,,,,,,,41053,2021-05-08_21h12.55.202,judgeSpeechMusic_20210407_logNormShiftAmp,2020.1.2,MacIntel,60,,,,,,,,,,,,,,2,5.551355,,0,1,137,287,69,1,stimuli/stim_20210407_power2amp/equal_lnn_AM3Hz_64.m4a,,,
,,,,,,,,,,,,41053,2021-05-08_21h12.55.202,judgeSpeechMusic_20210407_logNormShiftAmp,2020.1.2,MacIntel,60,,,,,,,,,,,,,,2,5.32102,,0,1,138,288,117,1,stimuli/stim_20210407_power2amp/equal_lnn_AM4.8Hz_98.m4a,,,
,,,,,,,,,,,,41053,2021-05-08_21h12.55.202,judgeSpeechMusic_20210407_logNormShiftAmp,2020.1.2,MacIntel,60,,,,,,,,,,,,,,2,5.4409,,0,1,139,289,100,1,stimuli/stim_20210407_power2amp/equal_lnn_AM4.2Hz_27.m4a,,,
,,,,,,,,,,,,41053,2021-05-08_21h12.55.202,judgeSpeechMusic_20210407_logNormShiftAmp,2020.1.2,MacIntel,60,,,,,,,,,,,,,,1,6.024115,,0,1,140,290,123,1,stimuli/stim_20210407_power2amp/equal_lnn_AM5.4Hz_89.m4a,,,
,,,,,,,,,,,,41053,2021-05-08_21h12.55.202,judgeSpeechMusic_20210407_logNormShiftAmp,2020.1.2,MacIntel,60,,,,,,,,,,,,,,2,5.57435,4,1,1,141,291,40,1,stimuli/stim_20210407_power2amp/equal_lnn_AM1.8Hz_90.m4a,0.37632,,
,,,,,,,,,,,,41053,2021-05-08_21h12.55.202,judgeSpeechMusic_20210407_logNormShiftAmp,2020.1.2,MacIntel,60,,,,,,,,,,,,,,2,5.52537,,0,1,142,292,45,1,stimuli/stim_20210407_power2amp/equal_lnn_AM2.4Hz_24.m4a,,,
,,,,,,,,,,,,41053,2021-05-08_21h12.55.202,judgeSpeechMusic_20210407_logNormShiftAmp,2020.1.2,MacIntel,60,,,,,,,,,,,,,,1,5.69357,,0,1,143,293,16,1,stimuli/stim_20210407_power2amp/equal_lnn_AM1.2Hz_53.m4a,,,
,,,,,,,,,,,,41053,2021-05-08_21h12.55.202,judgeSpeechMusic_20210407_logNormShiftAmp,2020.1.2,MacIntel,60,,,,,,,,,,,,,,1,5.479815,,0,1,144,294,137,1,stimuli/stim_20210407_power2amp/equal_lnn_AM6Hz_64.m4a,,,
,,,,,,,,,,,,41053,2021-05-08_21h12.55.202,judgeSpeechMusic_20210407_logNormShiftAmp,2020.1.2,MacIntel,60,,,,,,,,,,,,,,2,5.474125,,0,1,145,295,55,1,stimuli/stim_20210407_power2amp/equal_lnn_AM2.4Hz_13.m4a,,,
,,,,,,,,,,,,41053,2021-05-08_21h12.55.202,judgeSpeechMusic_20210407_logNormShiftAmp,2020.1.2,MacIntel,60,,,,,,,,,,,,,,2,5.525205,,0,1,146,296,143,1,stimuli/stim_20210407_power2amp/equal_lnn_AM6Hz_1.m4a,,,
,,,,,,,,,,,,41053,2021-05-08_21h12.55.202,judgeSpeechMusic_20210407_logNormShiftAmp,2020.1.2,MacIntel,60,,,,,,,,,,,,,,2,5.6107,,0,1,147,297,20,1,stimuli/stim_20210407_power2amp/equal_lnn_AM1.2Hz_83.m4a,,,
,,,,,,,,,,,,41053,2021-05-08_21h12.55.202,judgeSpeechMusic_20210407_logNormShiftAmp,2020.1.2,MacIntel,60,,,,,,,,,,,,,,1,5.723565,,0,1,148,298,127,1,stimuli/stim_20210407_power2amp/equal_lnn_AM5.4Hz_54.m4a,,,
,,,,,,,,,,,,41053,2021-05-08_21h12.55.202,judgeSpeechMusic_20210407_logNormShiftAmp,2020.1.2,MacIntel,60,,,,,,,,,,,,,,2,5.560165,,0,1,149,299,31,1,stimuli/stim_20210407_power2amp/equal_lnn_AM1.8Hz_35.m4a,,,
,,,,,,,,,,,,41053,2021-05-08_21h12.55.202,judgeSpeechMusic_20210407_logNormShiftAmp,2020.1.2,MacIntel,60,,,,,,,,,,,,,,,,,,,,,,,,,space,8.38936
