headphoneResponse.keys,headphoneResponse.corr,headphoneResponse.rt,headphoneTrial.thisRepN,headphoneTrial.thisTrialN,headphoneTrial.thisN,headphoneTrial.thisIndex,headphoneTrial.ran,headphone_sound1,headphone_sound2,headphone_sound3,corrAns,participant,date,expName,psychopyVersion,OS,frameRate,trainSlider.response,trainSlider.rt,beepTrainResponse.keys,beepTrainResponse.corr,trainingTrials.thisRepN,trainingTrials.thisTrialN,trainingTrials.thisN,trainingTrials.thisIndex,trainingTrials.ran,trainAudioFile,beepTrainResponse.rt,readyReal_resp.keys,readyReal_resp.rt,ratingSlider.response,ratingSlider.rt,beepResp.keys,beepResp.corr,expTrials.thisRepN,expTrials.thisTrialN,expTrials.thisN,expTrials.thisIndex,expTrials.ran,audioFile,beepResp.rt,end_resp.keys,end_resp.rt
2,1,1.74233,0,0,0,1,1,stimuli/screen_antiphase.wav,stimuli/screen_quiet.wav,stimuli/screen_origin.wav,2,41060,2021-04-28_10h32.12.234,judgeSpeechMusic_20210407_logNormShiftAmp,2020.1.2,MacIntel,60,,,,,,,,,,,,,,,,,,,,,,,,,,
2,1,1.18523,0,1,1,3,1,stimuli/screen_origin.wav,stimuli/screen_quiet.wav,stimuli/screen_antiphase.wav,2,41060,2021-04-28_10h32.12.234,judgeSpeechMusic_20210407_logNormShiftAmp,2020.1.2,MacIntel,60,,,,,,,,,,,,,,,,,,,,,,,,,,
3,1,0.59152,0,2,2,2,1,stimuli/screen_origin.wav,stimuli/screen_antiphase.wav,stimuli/screen_quiet.wav,3,41060,2021-04-28_10h32.12.234,judgeSpeechMusic_20210407_logNormShiftAmp,2020.1.2,MacIntel,60,,,,,,,,,,,,,,,,,,,,,,,,,,
1,1,0.51863,0,3,3,5,1,stimuli/screen_quiet.wav,stimuli/screen_origin.wav,stimuli/screen_antiphase.wav,1,41060,2021-04-28_10h32.12.234,judgeSpeechMusic_20210407_logNormShiftAmp,2020.1.2,MacIntel,60,,,,,,,,,,,,,,,,,,,,,,,,,,
3,1,0.436305,0,4,4,0,1,stimuli/screen_antiphase.wav,stimuli/screen_origin.wav,stimuli/screen_quiet.wav,3,41060,2021-04-28_10h32.12.234,judgeSpeechMusic_20210407_logNormShiftAmp,2020.1.2,MacIntel,60,,,,,,,,,,,,,,,,,,,,,,,,,,
1,1,0.52199,0,5,5,4,1,stimuli/screen_quiet.wav,stimuli/screen_antiphase.wav,stimuli/screen_origin.wav,1,41060,2021-04-28_10h32.12.234,judgeSpeechMusic_20210407_logNormShiftAmp,2020.1.2,MacIntel,60,,,,,,,,,,,,,,,,,,,,,,,,,,
,,,,,,,,,,,,41060,2021-04-28_10h32.12.234,judgeSpeechMusic_20210407_logNormShiftAmp,2020.1.2,MacIntel,60,2,17.40547,,0,0,0,0,3,1,stimuli/stim_20210407_power2amp/equal_lnn_AM_training5.1Hz.m4a,,,,,,,,,,,,,,,,
,,,,,,,,,,,,41060,2021-04-28_10h32.12.234,judgeSpeechMusic_20210407_logNormShiftAmp,2020.1.2,MacIntel,60,2,8.226875,,0,0,1,1,1,1,stimuli/stim_20210407_power2amp/equal_lnn_AM_training2.7Hz.m4a,,,,,,,,,,,,,,,,
,,,,,,,,,,,,41060,2021-04-28_10h32.12.234,judgeSpeechMusic_20210407_logNormShiftAmp,2020.1.2,MacIntel,60,2,7.34114,4,1,0,2,2,0,1,stimuli/stim_20210407_power2amp/equal_lnn_AM_training1.5Hz.m4a,2.480205,,,,,,,,,,,,,,,
,,,,,,,,,,,,41060,2021-04-28_10h32.12.234,judgeSpeechMusic_20210407_logNormShiftAmp,2020.1.2,MacIntel,60,2,6.390655,,0,0,3,3,2,1,stimuli/stim_20210407_power2amp/equal_lnn_AM_training3.9Hz.m4a,,,,,,,,,,,,,,,,
,,,,,,,,,,,,41060,2021-04-28_10h32.12.234,judgeSpeechMusic_20210407_logNormShiftAmp,2020.1.2,MacIntel,60,,,,,,,,,,,,space,8.42719,2,7.52534,,0,0,0,0,97,1,stimuli/stim_20210407_power2amp/equal_lnn_AM4.2Hz_89.m4a,,,
,,,,,,,,,,,,41060,2021-04-28_10h32.12.234,judgeSpeechMusic_20210407_logNormShiftAmp,2020.1.2,MacIntel,60,,,,,,,,,,,,,,2,6.7859,,0,0,1,1,96,1,stimuli/stim_20210407_power2amp/equal_lnn_AM4.2Hz_27.m4a,,,
,,,,,,,,,,,,41060,2021-04-28_10h32.12.234,judgeSpeechMusic_20210407_logNormShiftAmp,2020.1.2,MacIntel,60,,,,,,,,,,,,,,2,7.01317,,0,0,2,2,39,1,stimuli/stim_20210407_power2amp/equal_lnn_AM1.8Hz_11.m4a,,,
,,,,,,,,,,,,41060,2021-04-28_10h32.12.234,judgeSpeechMusic_20210407_logNormShiftAmp,2020.1.2,MacIntel,60,,,,,,,,,,,,,,2,7.355985,,0,0,3,3,68,1,stimuli/stim_20210407_power2amp/equal_lnn_AM3Hz_89.m4a,,,
,,,,,,,,,,,,41060,2021-04-28_10h32.12.234,judgeSpeechMusic_20210407_logNormShiftAmp,2020.1.2,MacIntel,60,,,,,,,,,,,,,,2,6.674975,,0,0,4,4,113,1,stimuli/stim_20210407_power2amp/equal_lnn_AM4.8Hz_91.m4a,,,
,,,,,,,,,,,,41060,2021-04-28_10h32.12.234,judgeSpeechMusic_20210407_logNormShiftAmp,2020.1.2,MacIntel,60,,,,,,,,,,,,,,2,5.941105,,0,0,5,5,7,1,stimuli/stim_20210407_power2amp/equal_lnn_AM0.6Hz_72.m4a,,,
,,,,,,,,,,,,41060,2021-04-28_10h32.12.234,judgeSpeechMusic_20210407_logNormShiftAmp,2020.1.2,MacIntel,60,,,,,,,,,,,,,,2,5.99074,,0,0,6,6,56,1,stimuli/stim_20210407_power2amp/equal_lnn_AM2.4Hz_48.m4a,,,
,,,,,,,,,,,,41060,2021-04-28_10h32.12.234,judgeSpeechMusic_20210407_logNormShiftAmp,2020.1.2,MacIntel,60,,,,,,,,,,,,,,2,9.34021,,0,0,7,7,75,1,stimuli/stim_20210407_power2amp/equal_lnn_AM3.6Hz_40.m4a,,,
,,,,,,,,,,,,41060,2021-04-28_10h32.12.234,judgeSpeechMusic_20210407_logNormShiftAmp,2020.1.2,MacIntel,60,,,,,,,,,,,,,,2,5.90684,,0,0,8,8,112,1,stimuli/stim_20210407_power2amp/equal_lnn_AM4.8Hz_37.m4a,,,
,,,,,,,,,,,,41060,2021-04-28_10h32.12.234,judgeSpeechMusic_20210407_logNormShiftAmp,2020.1.2,MacIntel,60,,,,,,,,,,,,,,2,6.010555,,0,0,9,9,64,1,stimuli/stim_20210407_power2amp/equal_lnn_AM3Hz_29.m4a,,,
,,,,,,,,,,,,41060,2021-04-28_10h32.12.234,judgeSpeechMusic_20210407_logNormShiftAmp,2020.1.2,MacIntel,60,,,,,,,,,,,,,,2,8.612605,,0,0,10,10,127,1,stimuli/stim_20210407_power2amp/equal_lnn_AM5.4Hz_21.m4a,,,
,,,,,,,,,,,,41060,2021-04-28_10h32.12.234,judgeSpeechMusic_20210407_logNormShiftAmp,2020.1.2,MacIntel,60,,,,,,,,,,,,,,2,6.173685,,0,0,11,11,50,1,stimuli/stim_20210407_power2amp/equal_lnn_AM2.4Hz_55.m4a,,,
,,,,,,,,,,,,41060,2021-04-28_10h32.12.234,judgeSpeechMusic_20210407_logNormShiftAmp,2020.1.2,MacIntel,60,,,,,,,,,,,,,,1,6.778205,,0,0,12,12,8,1,stimuli/stim_20210407_power2amp/equal_lnn_AM0.6Hz_76.m4a,,,
,,,,,,,,,,,,41060,2021-04-28_10h32.12.234,judgeSpeechMusic_20210407_logNormShiftAmp,2020.1.2,MacIntel,60,,,,,,,,,,,,,,2,6.424115,,0,0,13,13,46,1,stimuli/stim_20210407_power2amp/equal_lnn_AM2.4Hz_14.m4a,,,
,,,,,,,,,,,,41060,2021-04-28_10h32.12.234,judgeSpeechMusic_20210407_logNormShiftAmp,2020.1.2,MacIntel,60,,,,,,,,,,,,,,2,5.8629,,0,0,14,14,62,1,stimuli/stim_20210407_power2amp/equal_lnn_AM3Hz_60.m4a,,,
,,,,,,,,,,,,41060,2021-04-28_10h32.12.234,judgeSpeechMusic_20210407_logNormShiftAmp,2020.1.2,MacIntel,60,,,,,,,,,,,,,,2,5.808105,,0,0,15,15,93,1,stimuli/stim_20210407_power2amp/equal_lnn_AM4.2Hz_94.m4a,,,
,,,,,,,,,,,,41060,2021-04-28_10h32.12.234,judgeSpeechMusic_20210407_logNormShiftAmp,2020.1.2,MacIntel,60,,,,,,,,,,,,,,1,6.54021,,0,0,16,16,35,1,stimuli/stim_20210407_power2amp/equal_lnn_AM1.8Hz_34.m4a,,,
,,,,,,,,,,,,41060,2021-04-28_10h32.12.234,judgeSpeechMusic_20210407_logNormShiftAmp,2020.1.2,MacIntel,60,,,,,,,,,,,,,,2,6.210855,,0,0,17,17,23,1,stimuli/stim_20210407_power2amp/equal_lnn_AM1.2Hz_72.m4a,,,
,,,,,,,,,,,,41060,2021-04-28_10h32.12.234,judgeSpeechMusic_20210407_logNormShiftAmp,2020.1.2,MacIntel,60,,,,,,,,,,,,,,2,6.605435,,0,0,18,18,67,1,stimuli/stim_20210407_power2amp/equal_lnn_AM3Hz_76.m4a,,,
,,,,,,,,,,,,41060,2021-04-28_10h32.12.234,judgeSpeechMusic_20210407_logNormShiftAmp,2020.1.2,MacIntel,60,,,,,,,,,,,,,,1,5.877705,,0,0,19,19,69,1,stimuli/stim_20210407_power2amp/equal_lnn_AM3Hz_87.m4a,,,
,,,,,,,,,,,,41060,2021-04-28_10h32.12.234,judgeSpeechMusic_20210407_logNormShiftAmp,2020.1.2,MacIntel,60,,,,,,,,,,,,,,2,6.440645,,0,0,20,20,19,1,stimuli/stim_20210407_power2amp/equal_lnn_AM1.2Hz_9.m4a,,,
,,,,,,,,,,,,41060,2021-04-28_10h32.12.234,judgeSpeechMusic_20210407_logNormShiftAmp,2020.1.2,MacIntel,60,,,,,,,,,,,,,,1,5.973655,,0,0,21,21,136,1,stimuli/stim_20210407_power2amp/equal_lnn_AM6Hz_61.m4a,,,
,,,,,,,,,,,,41060,2021-04-28_10h32.12.234,judgeSpeechMusic_20210407_logNormShiftAmp,2020.1.2,MacIntel,60,,,,,,,,,,,,,,2,6.426875,,0,0,22,22,72,1,stimuli/stim_20210407_power2amp/equal_lnn_AM3Hz_55.m4a,,,
,,,,,,,,,,,,41060,2021-04-28_10h32.12.234,judgeSpeechMusic_20210407_logNormShiftAmp,2020.1.2,MacIntel,60,,,,,,,,,,,,,,1,5.99263,,0,0,23,23,133,1,stimuli/stim_20210407_power2amp/equal_lnn_AM5.4Hz_36.m4a,,,
,,,,,,,,,,,,41060,2021-04-28_10h32.12.234,judgeSpeechMusic_20210407_logNormShiftAmp,2020.1.2,MacIntel,60,,,,,,,,,,,,,,1,5.790485,,0,0,24,24,83,1,stimuli/stim_20210407_power2amp/equal_lnn_AM3.6Hz_93.m4a,,,
,,,,,,,,,,,,41060,2021-04-28_10h32.12.234,judgeSpeechMusic_20210407_logNormShiftAmp,2020.1.2,MacIntel,60,,,,,,,,,,,,,,2,6.04007,,0,0,25,25,100,1,stimuli/stim_20210407_power2amp/equal_lnn_AM4.2Hz_38.m4a,,,
,,,,,,,,,,,,41060,2021-04-28_10h32.12.234,judgeSpeechMusic_20210407_logNormShiftAmp,2020.1.2,MacIntel,60,,,,,,,,,,,,,,2,5.79239,,0,0,26,26,130,1,stimuli/stim_20210407_power2amp/equal_lnn_AM5.4Hz_85.m4a,,,
,,,,,,,,,,,,41060,2021-04-28_10h32.12.234,judgeSpeechMusic_20210407_logNormShiftAmp,2020.1.2,MacIntel,60,,,,,,,,,,,,,,1,7.35868,,0,0,27,27,149,1,stimuli/stim_20210407_power2amp/equal_lnn_AM6Hz_13.m4a,,,
,,,,,,,,,,,,41060,2021-04-28_10h32.12.234,judgeSpeechMusic_20210407_logNormShiftAmp,2020.1.2,MacIntel,60,,,,,,,,,,,,,,2,6.17374,,0,0,28,28,140,1,stimuli/stim_20210407_power2amp/equal_lnn_AM6Hz_49.m4a,,,
,,,,,,,,,,,,41060,2021-04-28_10h32.12.234,judgeSpeechMusic_20210407_logNormShiftAmp,2020.1.2,MacIntel,60,,,,,,,,,,,,,,2,5.92866,,0,0,29,29,94,1,stimuli/stim_20210407_power2amp/equal_lnn_AM4.2Hz_29.m4a,,,
,,,,,,,,,,,,41060,2021-04-28_10h32.12.234,judgeSpeechMusic_20210407_logNormShiftAmp,2020.1.2,MacIntel,60,,,,,,,,,,,,,,1,6.224435,,0,0,30,30,6,1,stimuli/stim_20210407_power2amp/equal_lnn_AM0.6Hz_48.m4a,,,
,,,,,,,,,,,,41060,2021-04-28_10h32.12.234,judgeSpeechMusic_20210407_logNormShiftAmp,2020.1.2,MacIntel,60,,,,,,,,,,,,,,2,5.95703,,0,0,31,31,58,1,stimuli/stim_20210407_power2amp/equal_lnn_AM2.4Hz_8.m4a,,,
,,,,,,,,,,,,41060,2021-04-28_10h32.12.234,judgeSpeechMusic_20210407_logNormShiftAmp,2020.1.2,MacIntel,60,,,,,,,,,,,,,,1,6.19412,,0,0,32,32,120,1,stimuli/stim_20210407_power2amp/equal_lnn_AM5.4Hz_74.m4a,,,
,,,,,,,,,,,,41060,2021-04-28_10h32.12.234,judgeSpeechMusic_20210407_logNormShiftAmp,2020.1.2,MacIntel,60,,,,,,,,,,,,,,1,5.678235,,0,0,33,33,54,1,stimuli/stim_20210407_power2amp/equal_lnn_AM2.4Hz_74.m4a,,,
,,,,,,,,,,,,41060,2021-04-28_10h32.12.234,judgeSpeechMusic_20210407_logNormShiftAmp,2020.1.2,MacIntel,60,,,,,,,,,,,,,,2,6.144215,,0,0,34,34,98,1,stimuli/stim_20210407_power2amp/equal_lnn_AM4.2Hz_81.m4a,,,
,,,,,,,,,,,,41060,2021-04-28_10h32.12.234,judgeSpeechMusic_20210407_logNormShiftAmp,2020.1.2,MacIntel,60,,,,,,,,,,,,,,2,6.7733,,0,0,35,35,148,1,stimuli/stim_20210407_power2amp/equal_lnn_AM6Hz_63.m4a,,,
,,,,,,,,,,,,41060,2021-04-28_10h32.12.234,judgeSpeechMusic_20210407_logNormShiftAmp,2020.1.2,MacIntel,60,,,,,,,,,,,,,,2,5.706475,1,1,0,36,36,77,1,stimuli/stim_20210407_power2amp/equal_lnn_AM3.6Hz_2.m4a,3.489865,,
,,,,,,,,,,,,41060,2021-04-28_10h32.12.234,judgeSpeechMusic_20210407_logNormShiftAmp,2020.1.2,MacIntel,60,,,,,,,,,,,,,,2,5.991405,,0,0,37,37,141,1,stimuli/stim_20210407_power2amp/equal_lnn_AM6Hz_15.m4a,,,
,,,,,,,,,,,,41060,2021-04-28_10h32.12.234,judgeSpeechMusic_20210407_logNormShiftAmp,2020.1.2,MacIntel,60,,,,,,,,,,,,,,1,5.90952,,0,0,38,38,48,1,stimuli/stim_20210407_power2amp/equal_lnn_AM2.4Hz_4.m4a,,,
,,,,,,,,,,,,41060,2021-04-28_10h32.12.234,judgeSpeechMusic_20210407_logNormShiftAmp,2020.1.2,MacIntel,60,,,,,,,,,,,,,,2,6.013125,,0,0,39,39,73,1,stimuli/stim_20210407_power2amp/equal_lnn_AM3Hz_72.m4a,,,
,,,,,,,,,,,,41060,2021-04-28_10h32.12.234,judgeSpeechMusic_20210407_logNormShiftAmp,2020.1.2,MacIntel,60,,,,,,,,,,,,,,1,6.057295,,0,0,40,40,21,1,stimuli/stim_20210407_power2amp/equal_lnn_AM1.2Hz_53.m4a,,,
,,,,,,,,,,,,41060,2021-04-28_10h32.12.234,judgeSpeechMusic_20210407_logNormShiftAmp,2020.1.2,MacIntel,60,,,,,,,,,,,,,,1,5.80906,,0,0,41,41,43,1,stimuli/stim_20210407_power2amp/equal_lnn_AM1.8Hz_24.m4a,,,
,,,,,,,,,,,,41060,2021-04-28_10h32.12.234,judgeSpeechMusic_20210407_logNormShiftAmp,2020.1.2,MacIntel,60,,,,,,,,,,,,,,2,6.480745,,0,0,42,42,131,1,stimuli/stim_20210407_power2amp/equal_lnn_AM5.4Hz_94.m4a,,,
,,,,,,,,,,,,41060,2021-04-28_10h32.12.234,judgeSpeechMusic_20210407_logNormShiftAmp,2020.1.2,MacIntel,60,,,,,,,,,,,,,,2,6.021845,,0,0,43,43,76,1,stimuli/stim_20210407_power2amp/equal_lnn_AM3.6Hz_77.m4a,,,
,,,,,,,,,,,,41060,2021-04-28_10h32.12.234,judgeSpeechMusic_20210407_logNormShiftAmp,2020.1.2,MacIntel,60,,,,,,,,,,,,,,2,6.373895,,0,0,44,44,49,1,stimuli/stim_20210407_power2amp/equal_lnn_AM2.4Hz_36.m4a,,,
,,,,,,,,,,,,41060,2021-04-28_10h32.12.234,judgeSpeechMusic_20210407_logNormShiftAmp,2020.1.2,MacIntel,60,,,,,,,,,,,,,,2,5.79132,,0,0,45,45,31,1,stimuli/stim_20210407_power2amp/equal_lnn_AM1.8Hz_46.m4a,,,
,,,,,,,,,,,,41060,2021-04-28_10h32.12.234,judgeSpeechMusic_20210407_logNormShiftAmp,2020.1.2,MacIntel,60,,,,,,,,,,,,,,1,6.02391,,0,0,46,46,30,1,stimuli/stim_20210407_power2amp/equal_lnn_AM1.8Hz_35.m4a,,,
,,,,,,,,,,,,41060,2021-04-28_10h32.12.234,judgeSpeechMusic_20210407_logNormShiftAmp,2020.1.2,MacIntel,60,,,,,,,,,,,,,,2,6.23998,,0,0,47,47,144,1,stimuli/stim_20210407_power2amp/equal_lnn_AM6Hz_98.m4a,,,
,,,,,,,,,,,,41060,2021-04-28_10h32.12.234,judgeSpeechMusic_20210407_logNormShiftAmp,2020.1.2,MacIntel,60,,,,,,,,,,,,,,2,5.62612,,0,0,48,48,128,1,stimuli/stim_20210407_power2amp/equal_lnn_AM5.4Hz_34.m4a,,,
,,,,,,,,,,,,41060,2021-04-28_10h32.12.234,judgeSpeechMusic_20210407_logNormShiftAmp,2020.1.2,MacIntel,60,,,,,,,,,,,,,,1,5.65481,,0,0,49,49,137,1,stimuli/stim_20210407_power2amp/equal_lnn_AM6Hz_19.m4a,,,
,,,,,,,,,,,,41060,2021-04-28_10h32.12.234,judgeSpeechMusic_20210407_logNormShiftAmp,2020.1.2,MacIntel,60,,,,,,,,,,,,,,1,5.890315,,0,0,50,50,55,1,stimuli/stim_20210407_power2amp/equal_lnn_AM2.4Hz_89.m4a,,,
,,,,,,,,,,,,41060,2021-04-28_10h32.12.234,judgeSpeechMusic_20210407_logNormShiftAmp,2020.1.2,MacIntel,60,,,,,,,,,,,,,,1,6.427095,,0,0,51,51,44,1,stimuli/stim_20210407_power2amp/equal_lnn_AM1.8Hz_12.m4a,,,
,,,,,,,,,,,,41060,2021-04-28_10h32.12.234,judgeSpeechMusic_20210407_logNormShiftAmp,2020.1.2,MacIntel,60,,,,,,,,,,,,,,2,6.911235,,0,0,52,52,108,1,stimuli/stim_20210407_power2amp/equal_lnn_AM4.8Hz_47.m4a,,,
,,,,,,,,,,,,41060,2021-04-28_10h32.12.234,judgeSpeechMusic_20210407_logNormShiftAmp,2020.1.2,MacIntel,60,,,,,,,,,,,,,,1,5.96079,,0,0,53,53,61,1,stimuli/stim_20210407_power2amp/equal_lnn_AM3Hz_92.m4a,,,
,,,,,,,,,,,,41060,2021-04-28_10h32.12.234,judgeSpeechMusic_20210407_logNormShiftAmp,2020.1.2,MacIntel,60,,,,,,,,,,,,,,2,5.98996,,0,0,54,54,57,1,stimuli/stim_20210407_power2amp/equal_lnn_AM2.4Hz_44.m4a,,,
,,,,,,,,,,,,41060,2021-04-28_10h32.12.234,judgeSpeechMusic_20210407_logNormShiftAmp,2020.1.2,MacIntel,60,,,,,,,,,,,,,,1,5.973705,,0,0,55,55,27,1,stimuli/stim_20210407_power2amp/equal_lnn_AM1.2Hz_30.m4a,,,
,,,,,,,,,,,,41060,2021-04-28_10h32.12.234,judgeSpeechMusic_20210407_logNormShiftAmp,2020.1.2,MacIntel,60,,,,,,,,,,,,,,1,5.72413,3,1,0,56,56,2,1,stimuli/stim_20210407_power2amp/equal_lnn_AM0.6Hz_37.m4a,3.327475,,
,,,,,,,,,,,,41060,2021-04-28_10h32.12.234,judgeSpeechMusic_20210407_logNormShiftAmp,2020.1.2,MacIntel,60,,,,,,,,,,,,,,2,6.638195,,0,0,57,57,101,1,stimuli/stim_20210407_power2amp/equal_lnn_AM4.2Hz_68.m4a,,,
,,,,,,,,,,,,41060,2021-04-28_10h32.12.234,judgeSpeechMusic_20210407_logNormShiftAmp,2020.1.2,MacIntel,60,,,,,,,,,,,,,,2,5.679315,,0,0,58,58,71,1,stimuli/stim_20210407_power2amp/equal_lnn_AM3Hz_74.m4a,,,
,,,,,,,,,,,,41060,2021-04-28_10h32.12.234,judgeSpeechMusic_20210407_logNormShiftAmp,2020.1.2,MacIntel,60,,,,,,,,,,,,,,1,5.80779,,0,0,59,59,3,1,stimuli/stim_20210407_power2amp/equal_lnn_AM0.6Hz_11.m4a,,,
,,,,,,,,,,,,41060,2021-04-28_10h32.12.234,judgeSpeechMusic_20210407_logNormShiftAmp,2020.1.2,MacIntel,60,,,,,,,,,,,,,,2,7.00793,,0,0,60,60,81,1,stimuli/stim_20210407_power2amp/equal_lnn_AM3.6Hz_94.m4a,,,
,,,,,,,,,,,,41060,2021-04-28_10h32.12.234,judgeSpeechMusic_20210407_logNormShiftAmp,2020.1.2,MacIntel,60,,,,,,,,,,,,,,1,5.70781,,0,0,61,61,15,1,stimuli/stim_20210407_power2amp/equal_lnn_AM1.2Hz_76.m4a,,,
,,,,,,,,,,,,41060,2021-04-28_10h32.12.234,judgeSpeechMusic_20210407_logNormShiftAmp,2020.1.2,MacIntel,60,,,,,,,,,,,,,,1,5.88174,,0,0,62,62,138,1,stimuli/stim_20210407_power2amp/equal_lnn_AM6Hz_35.m4a,,,
,,,,,,,,,,,,41060,2021-04-28_10h32.12.234,judgeSpeechMusic_20210407_logNormShiftAmp,2020.1.2,MacIntel,60,,,,,,,,,,,,,,1,5.654595,,0,0,63,63,102,1,stimuli/stim_20210407_power2amp/equal_lnn_AM4.2Hz_47.m4a,,,
,,,,,,,,,,,,41060,2021-04-28_10h32.12.234,judgeSpeechMusic_20210407_logNormShiftAmp,2020.1.2,MacIntel,60,,,,,,,,,,,,,,1,5.729675,,0,0,64,64,132,1,stimuli/stim_20210407_power2amp/equal_lnn_AM5.4Hz_68.m4a,,,
,,,,,,,,,,,,41060,2021-04-28_10h32.12.234,judgeSpeechMusic_20210407_logNormShiftAmp,2020.1.2,MacIntel,60,,,,,,,,,,,,,,1,5.62231,,0,0,65,65,32,1,stimuli/stim_20210407_power2amp/equal_lnn_AM1.8Hz_86.m4a,,,
,,,,,,,,,,,,41060,2021-04-28_10h32.12.234,judgeSpeechMusic_20210407_logNormShiftAmp,2020.1.2,MacIntel,60,,,,,,,,,,,,,,2,6.027945,,0,0,66,66,20,1,stimuli/stim_20210407_power2amp/equal_lnn_AM1.2Hz_27.m4a,,,
,,,,,,,,,,,,41060,2021-04-28_10h32.12.234,judgeSpeechMusic_20210407_logNormShiftAmp,2020.1.2,MacIntel,60,,,,,,,,,,,,,,2,5.72193,,0,0,67,67,24,1,stimuli/stim_20210407_power2amp/equal_lnn_AM1.2Hz_49.m4a,,,
,,,,,,,,,,,,41060,2021-04-28_10h32.12.234,judgeSpeechMusic_20210407_logNormShiftAmp,2020.1.2,MacIntel,60,,,,,,,,,,,,,,2,6.07363,,0,0,68,68,86,1,stimuli/stim_20210407_power2amp/equal_lnn_AM3.6Hz_7.m4a,,,
,,,,,,,,,,,,41060,2021-04-28_10h32.12.234,judgeSpeechMusic_20210407_logNormShiftAmp,2020.1.2,MacIntel,60,,,,,,,,,,,,,,2,5.727655,,0,0,69,69,103,1,stimuli/stim_20210407_power2amp/equal_lnn_AM4.2Hz_58.m4a,,,
,,,,,,,,,,,,41060,2021-04-28_10h32.12.234,judgeSpeechMusic_20210407_logNormShiftAmp,2020.1.2,MacIntel,60,,,,,,,,,,,,,,1,5.876835,,0,0,70,70,134,1,stimuli/stim_20210407_power2amp/equal_lnn_AM5.4Hz_86.m4a,,,
,,,,,,,,,,,,41060,2021-04-28_10h32.12.234,judgeSpeechMusic_20210407_logNormShiftAmp,2020.1.2,MacIntel,60,,,,,,,,,,,,,,2,5.78911,,0,0,71,71,41,1,stimuli/stim_20210407_power2amp/equal_lnn_AM1.8Hz_67.m4a,,,
,,,,,,,,,,,,41060,2021-04-28_10h32.12.234,judgeSpeechMusic_20210407_logNormShiftAmp,2020.1.2,MacIntel,60,,,,,,,,,,,,,,2,7.289975,,0,0,72,72,99,1,stimuli/stim_20210407_power2amp/equal_lnn_AM4.2Hz_82.m4a,,,
,,,,,,,,,,,,41060,2021-04-28_10h32.12.234,judgeSpeechMusic_20210407_logNormShiftAmp,2020.1.2,MacIntel,60,,,,,,,,,,,,,,2,6.80721,,0,0,73,73,142,1,stimuli/stim_20210407_power2amp/equal_lnn_AM6Hz_89.m4a,,,
,,,,,,,,,,,,41060,2021-04-28_10h32.12.234,judgeSpeechMusic_20210407_logNormShiftAmp,2020.1.2,MacIntel,60,,,,,,,,,,,,,,1,5.79028,,0,0,74,74,118,1,stimuli/stim_20210407_power2amp/equal_lnn_AM4.8Hz_99.m4a,,,
,,,,,,,,,,,,41060,2021-04-28_10h32.12.234,judgeSpeechMusic_20210407_logNormShiftAmp,2020.1.2,MacIntel,60,,,,,,,,,,,,,,1,5.70624,,0,0,75,75,109,1,stimuli/stim_20210407_power2amp/equal_lnn_AM4.8Hz_82.m4a,,,
,,,,,,,,,,,,41060,2021-04-28_10h32.12.234,judgeSpeechMusic_20210407_logNormShiftAmp,2020.1.2,MacIntel,60,,,,,,,,,,,,,,2,6.0943,4,1,0,76,76,4,1,stimuli/stim_20210407_power2amp/equal_lnn_AM0.6Hz_5.m4a,2.77477,,
,,,,,,,,,,,,41060,2021-04-28_10h32.12.234,judgeSpeechMusic_20210407_logNormShiftAmp,2020.1.2,MacIntel,60,,,,,,,,,,,,,,2,6.271615,,0,0,77,77,10,1,stimuli/stim_20210407_power2amp/equal_lnn_AM0.6Hz_62.m4a,,,
,,,,,,,,,,,,41060,2021-04-28_10h32.12.234,judgeSpeechMusic_20210407_logNormShiftAmp,2020.1.2,MacIntel,60,,,,,,,,,,,,,,2,5.695035,,0,0,78,78,119,1,stimuli/stim_20210407_power2amp/equal_lnn_AM4.8Hz_30.m4a,,,
,,,,,,,,,,,,41060,2021-04-28_10h32.12.234,judgeSpeechMusic_20210407_logNormShiftAmp,2020.1.2,MacIntel,60,,,,,,,,,,,,,,2,6.70892,,0,0,79,79,53,1,stimuli/stim_20210407_power2amp/equal_lnn_AM2.4Hz_39.m4a,,,
,,,,,,,,,,,,41060,2021-04-28_10h32.12.234,judgeSpeechMusic_20210407_logNormShiftAmp,2020.1.2,MacIntel,60,,,,,,,,,,,,,,2,6.59142,,0,0,80,80,117,1,stimuli/stim_20210407_power2amp/equal_lnn_AM4.8Hz_14.m4a,,,
,,,,,,,,,,,,41060,2021-04-28_10h32.12.234,judgeSpeechMusic_20210407_logNormShiftAmp,2020.1.2,MacIntel,60,,,,,,,,,,,,,,2,5.806675,,0,0,81,81,36,1,stimuli/stim_20210407_power2amp/equal_lnn_AM1.8Hz_53.m4a,,,
,,,,,,,,,,,,41060,2021-04-28_10h32.12.234,judgeSpeechMusic_20210407_logNormShiftAmp,2020.1.2,MacIntel,60,,,,,,,,,,,,,,1,6.461345,,0,0,82,82,80,1,stimuli/stim_20210407_power2amp/equal_lnn_AM3.6Hz_8.m4a,,,
,,,,,,,,,,,,41060,2021-04-28_10h32.12.234,judgeSpeechMusic_20210407_logNormShiftAmp,2020.1.2,MacIntel,60,,,,,,,,,,,,,,2,6.077545,,0,0,83,83,63,1,stimuli/stim_20210407_power2amp/equal_lnn_AM3Hz_28.m4a,,,
,,,,,,,,,,,,41060,2021-04-28_10h32.12.234,judgeSpeechMusic_20210407_logNormShiftAmp,2020.1.2,MacIntel,60,,,,,,,,,,,,,,1,6.139445,,0,0,84,84,12,1,stimuli/stim_20210407_power2amp/equal_lnn_AM0.6Hz_7.m4a,,,
,,,,,,,,,,,,41060,2021-04-28_10h32.12.234,judgeSpeechMusic_20210407_logNormShiftAmp,2020.1.2,MacIntel,60,,,,,,,,,,,,,,2,6.179195,,0,0,85,85,135,1,stimuli/stim_20210407_power2amp/equal_lnn_AM6Hz_82.m4a,,,
,,,,,,,,,,,,41060,2021-04-28_10h32.12.234,judgeSpeechMusic_20210407_logNormShiftAmp,2020.1.2,MacIntel,60,,,,,,,,,,,,,,1,6.856095,,0,0,86,86,9,1,stimuli/stim_20210407_power2amp/equal_lnn_AM0.6Hz_100.m4a,,,
,,,,,,,,,,,,41060,2021-04-28_10h32.12.234,judgeSpeechMusic_20210407_logNormShiftAmp,2020.1.2,MacIntel,60,,,,,,,,,,,,,,2,6.06049,,0,0,87,87,14,1,stimuli/stim_20210407_power2amp/equal_lnn_AM0.6Hz_3.m4a,,,
,,,,,,,,,,,,41060,2021-04-28_10h32.12.234,judgeSpeechMusic_20210407_logNormShiftAmp,2020.1.2,MacIntel,60,,,,,,,,,,,,,,1,5.99319,,0,0,88,88,26,1,stimuli/stim_20210407_power2amp/equal_lnn_AM1.2Hz_96.m4a,,,
,,,,,,,,,,,,41060,2021-04-28_10h32.12.234,judgeSpeechMusic_20210407_logNormShiftAmp,2020.1.2,MacIntel,60,,,,,,,,,,,,,,1,5.662405,,0,0,89,89,111,1,stimuli/stim_20210407_power2amp/equal_lnn_AM4.8Hz_80.m4a,,,
,,,,,,,,,,,,41060,2021-04-28_10h32.12.234,judgeSpeechMusic_20210407_logNormShiftAmp,2020.1.2,MacIntel,60,,,,,,,,,,,,,,2,5.70703,,0,0,90,90,124,1,stimuli/stim_20210407_power2amp/equal_lnn_AM5.4Hz_99.m4a,,,
,,,,,,,,,,,,41060,2021-04-28_10h32.12.234,judgeSpeechMusic_20210407_logNormShiftAmp,2020.1.2,MacIntel,60,,,,,,,,,,,,,,1,5.857695,,0,0,91,91,114,1,stimuli/stim_20210407_power2amp/equal_lnn_AM4.8Hz_34.m4a,,,
,,,,,,,,,,,,41060,2021-04-28_10h32.12.234,judgeSpeechMusic_20210407_logNormShiftAmp,2020.1.2,MacIntel,60,,,,,,,,,,,,,,2,5.857685,,0,0,92,92,25,1,stimuli/stim_20210407_power2amp/equal_lnn_AM1.2Hz_56.m4a,,,
,,,,,,,,,,,,41060,2021-04-28_10h32.12.234,judgeSpeechMusic_20210407_logNormShiftAmp,2020.1.2,MacIntel,60,,,,,,,,,,,,,,1,5.974815,,0,0,93,93,88,1,stimuli/stim_20210407_power2amp/equal_lnn_AM3.6Hz_19.m4a,,,
,,,,,,,,,,,,41060,2021-04-28_10h32.12.234,judgeSpeechMusic_20210407_logNormShiftAmp,2020.1.2,MacIntel,60,,,,,,,,,,,,,,1,5.674475,,0,0,94,94,59,1,stimuli/stim_20210407_power2amp/equal_lnn_AM2.4Hz_85.m4a,,,
,,,,,,,,,,,,41060,2021-04-28_10h32.12.234,judgeSpeechMusic_20210407_logNormShiftAmp,2020.1.2,MacIntel,60,,,,,,,,,,,,,,2,5.974345,,0,0,95,95,129,1,stimuli/stim_20210407_power2amp/equal_lnn_AM5.4Hz_92.m4a,,,
,,,,,,,,,,,,41060,2021-04-28_10h32.12.234,judgeSpeechMusic_20210407_logNormShiftAmp,2020.1.2,MacIntel,60,,,,,,,,,,,,,,2,5.660595,,0,0,96,96,17,1,stimuli/stim_20210407_power2amp/equal_lnn_AM1.2Hz_16.m4a,,,
,,,,,,,,,,,,41060,2021-04-28_10h32.12.234,judgeSpeechMusic_20210407_logNormShiftAmp,2020.1.2,MacIntel,60,,,,,,,,,,,,,,2,5.877735,,0,0,97,97,74,1,stimuli/stim_20210407_power2amp/equal_lnn_AM3Hz_48.m4a,,,
,,,,,,,,,,,,41060,2021-04-28_10h32.12.234,judgeSpeechMusic_20210407_logNormShiftAmp,2020.1.2,MacIntel,60,,,,,,,,,,,,,,2,5.6581,,0,0,98,98,95,1,stimuli/stim_20210407_power2amp/equal_lnn_AM4.2Hz_54.m4a,,,
,,,,,,,,,,,,41060,2021-04-28_10h32.12.234,judgeSpeechMusic_20210407_logNormShiftAmp,2020.1.2,MacIntel,60,,,,,,,,,,,,,,2,5.894095,,0,0,99,99,33,1,stimuli/stim_20210407_power2amp/equal_lnn_AM1.8Hz_17.m4a,,,
,,,,,,,,,,,,41060,2021-04-28_10h32.12.234,judgeSpeechMusic_20210407_logNormShiftAmp,2020.1.2,MacIntel,60,,,,,,,,,,,,,,2,5.893845,1,1,0,100,100,145,1,stimuli/stim_20210407_power2amp/equal_lnn_AM6Hz_12.m4a,1.796185,,
,,,,,,,,,,,,41060,2021-04-28_10h32.12.234,judgeSpeechMusic_20210407_logNormShiftAmp,2020.1.2,MacIntel,60,,,,,,,,,,,,,,2,5.962105,,0,0,101,101,143,1,stimuli/stim_20210407_power2amp/equal_lnn_AM6Hz_91.m4a,,,
,,,,,,,,,,,,41060,2021-04-28_10h32.12.234,judgeSpeechMusic_20210407_logNormShiftAmp,2020.1.2,MacIntel,60,,,,,,,,,,,,,,1,5.942805,,0,0,102,102,28,1,stimuli/stim_20210407_power2amp/equal_lnn_AM1.2Hz_81.m4a,,,
,,,,,,,,,,,,41060,2021-04-28_10h32.12.234,judgeSpeechMusic_20210407_logNormShiftAmp,2020.1.2,MacIntel,60,,,,,,,,,,,,,,2,5.807135,,0,0,103,103,91,1,stimuli/stim_20210407_power2amp/equal_lnn_AM4.2Hz_45.m4a,,,
,,,,,,,,,,,,41060,2021-04-28_10h32.12.234,judgeSpeechMusic_20210407_logNormShiftAmp,2020.1.2,MacIntel,60,,,,,,,,,,,,,,2,6.574975,,0,0,104,104,92,1,stimuli/stim_20210407_power2amp/equal_lnn_AM4.2Hz_39.m4a,,,
,,,,,,,,,,,,41060,2021-04-28_10h32.12.234,judgeSpeechMusic_20210407_logNormShiftAmp,2020.1.2,MacIntel,60,,,,,,,,,,,,,,1,6.10654,,0,0,105,105,1,1,stimuli/stim_20210407_power2amp/equal_lnn_AM0.6Hz_25.m4a,,,
,,,,,,,,,,,,41060,2021-04-28_10h32.12.234,judgeSpeechMusic_20210407_logNormShiftAmp,2020.1.2,MacIntel,60,,,,,,,,,,,,,,1,5.822945,,0,0,106,106,38,1,stimuli/stim_20210407_power2amp/equal_lnn_AM1.8Hz_61.m4a,,,
,,,,,,,,,,,,41060,2021-04-28_10h32.12.234,judgeSpeechMusic_20210407_logNormShiftAmp,2020.1.2,MacIntel,60,,,,,,,,,,,,,,2,6.527355,,0,0,107,107,45,1,stimuli/stim_20210407_power2amp/equal_lnn_AM2.4Hz_31.m4a,,,
,,,,,,,,,,,,41060,2021-04-28_10h32.12.234,judgeSpeechMusic_20210407_logNormShiftAmp,2020.1.2,MacIntel,60,,,,,,,,,,,,,,2,5.791715,,0,0,108,108,110,1,stimuli/stim_20210407_power2amp/equal_lnn_AM4.8Hz_4.m4a,,,
,,,,,,,,,,,,41060,2021-04-28_10h32.12.234,judgeSpeechMusic_20210407_logNormShiftAmp,2020.1.2,MacIntel,60,,,,,,,,,,,,,,2,5.70685,,0,0,109,109,126,1,stimuli/stim_20210407_power2amp/equal_lnn_AM5.4Hz_62.m4a,,,
,,,,,,,,,,,,41060,2021-04-28_10h32.12.234,judgeSpeechMusic_20210407_logNormShiftAmp,2020.1.2,MacIntel,60,,,,,,,,,,,,,,2,5.790435,,0,0,110,110,65,1,stimuli/stim_20210407_power2amp/equal_lnn_AM3Hz_31.m4a,,,
,,,,,,,,,,,,41060,2021-04-28_10h32.12.234,judgeSpeechMusic_20210407_logNormShiftAmp,2020.1.2,MacIntel,60,,,,,,,,,,,,,,2,5.938055,,0,0,111,111,105,1,stimuli/stim_20210407_power2amp/equal_lnn_AM4.8Hz_22.m4a,,,
,,,,,,,,,,,,41060,2021-04-28_10h32.12.234,judgeSpeechMusic_20210407_logNormShiftAmp,2020.1.2,MacIntel,60,,,,,,,,,,,,,,2,5.808535,,0,0,112,112,60,1,stimuli/stim_20210407_power2amp/equal_lnn_AM3Hz_1.m4a,,,
,,,,,,,,,,,,41060,2021-04-28_10h32.12.234,judgeSpeechMusic_20210407_logNormShiftAmp,2020.1.2,MacIntel,60,,,,,,,,,,,,,,1,6.40637,,0,0,113,113,34,1,stimuli/stim_20210407_power2amp/equal_lnn_AM1.8Hz_78.m4a,,,
,,,,,,,,,,,,41060,2021-04-28_10h32.12.234,judgeSpeechMusic_20210407_logNormShiftAmp,2020.1.2,MacIntel,60,,,,,,,,,,,,,,1,5.70768,,0,0,114,114,16,1,stimuli/stim_20210407_power2amp/equal_lnn_AM1.2Hz_95.m4a,,,
,,,,,,,,,,,,41060,2021-04-28_10h32.12.234,judgeSpeechMusic_20210407_logNormShiftAmp,2020.1.2,MacIntel,60,,,,,,,,,,,,,,1,6.35881,,0,0,115,115,29,1,stimuli/stim_20210407_power2amp/equal_lnn_AM1.2Hz_47.m4a,,,
,,,,,,,,,,,,41060,2021-04-28_10h32.12.234,judgeSpeechMusic_20210407_logNormShiftAmp,2020.1.2,MacIntel,60,,,,,,,,,,,,,,1,5.690165,,0,0,116,116,42,1,stimuli/stim_20210407_power2amp/equal_lnn_AM1.8Hz_82.m4a,,,
,,,,,,,,,,,,41060,2021-04-28_10h32.12.234,judgeSpeechMusic_20210407_logNormShiftAmp,2020.1.2,MacIntel,60,,,,,,,,,,,,,,2,6.059675,,0,0,117,117,107,1,stimuli/stim_20210407_power2amp/equal_lnn_AM4.8Hz_63.m4a,,,
,,,,,,,,,,,,41060,2021-04-28_10h32.12.234,judgeSpeechMusic_20210407_logNormShiftAmp,2020.1.2,MacIntel,60,,,,,,,,,,,,,,2,5.84031,,0,0,118,118,52,1,stimuli/stim_20210407_power2amp/equal_lnn_AM2.4Hz_25.m4a,,,
,,,,,,,,,,,,41060,2021-04-28_10h32.12.234,judgeSpeechMusic_20210407_logNormShiftAmp,2020.1.2,MacIntel,60,,,,,,,,,,,,,,2,6.007105,,0,0,119,119,116,1,stimuli/stim_20210407_power2amp/equal_lnn_AM4.8Hz_23.m4a,,,
,,,,,,,,,,,,41060,2021-04-28_10h32.12.234,judgeSpeechMusic_20210407_logNormShiftAmp,2020.1.2,MacIntel,60,,,,,,,,,,,,,,1,5.875615,,0,0,120,120,0,1,stimuli/stim_20210407_power2amp/equal_lnn_AM0.6Hz_79.m4a,,,
,,,,,,,,,,,,41060,2021-04-28_10h32.12.234,judgeSpeechMusic_20210407_logNormShiftAmp,2020.1.2,MacIntel,60,,,,,,,,,,,,,,2,5.86261,3,1,0,121,121,121,1,stimuli/stim_20210407_power2amp/equal_lnn_AM5.4Hz_14.m4a,2.165235,,
,,,,,,,,,,,,41060,2021-04-28_10h32.12.234,judgeSpeechMusic_20210407_logNormShiftAmp,2020.1.2,MacIntel,60,,,,,,,,,,,,,,1,8.41079,,0,0,122,122,37,1,stimuli/stim_20210407_power2amp/equal_lnn_AM1.8Hz_51.m4a,,,
,,,,,,,,,,,,41060,2021-04-28_10h32.12.234,judgeSpeechMusic_20210407_logNormShiftAmp,2020.1.2,MacIntel,60,,,,,,,,,,,,,,2,5.84457,,0,0,123,123,87,1,stimuli/stim_20210407_power2amp/equal_lnn_AM3.6Hz_21.m4a,,,
,,,,,,,,,,,,41060,2021-04-28_10h32.12.234,judgeSpeechMusic_20210407_logNormShiftAmp,2020.1.2,MacIntel,60,,,,,,,,,,,,,,2,5.690435,,0,0,124,124,47,1,stimuli/stim_20210407_power2amp/equal_lnn_AM2.4Hz_70.m4a,,,
,,,,,,,,,,,,41060,2021-04-28_10h32.12.234,judgeSpeechMusic_20210407_logNormShiftAmp,2020.1.2,MacIntel,60,,,,,,,,,,,,,,2,5.74559,,0,0,125,125,51,1,stimuli/stim_20210407_power2amp/equal_lnn_AM2.4Hz_35.m4a,,,
,,,,,,,,,,,,41060,2021-04-28_10h32.12.234,judgeSpeechMusic_20210407_logNormShiftAmp,2020.1.2,MacIntel,60,,,,,,,,,,,,,,2,5.538545,,0,0,126,126,104,1,stimuli/stim_20210407_power2amp/equal_lnn_AM4.2Hz_28.m4a,,,
,,,,,,,,,,,,41060,2021-04-28_10h32.12.234,judgeSpeechMusic_20210407_logNormShiftAmp,2020.1.2,MacIntel,60,,,,,,,,,,,,,,2,5.874305,,0,0,127,127,122,1,stimuli/stim_20210407_power2amp/equal_lnn_AM5.4Hz_7.m4a,,,
,,,,,,,,,,,,41060,2021-04-28_10h32.12.234,judgeSpeechMusic_20210407_logNormShiftAmp,2020.1.2,MacIntel,60,,,,,,,,,,,,,,1,6.530605,,0,0,128,128,22,1,stimuli/stim_20210407_power2amp/equal_lnn_AM1.2Hz_14.m4a,,,
,,,,,,,,,,,,41060,2021-04-28_10h32.12.234,judgeSpeechMusic_20210407_logNormShiftAmp,2020.1.2,MacIntel,60,,,,,,,,,,,,,,1,6.477635,,0,0,129,129,40,1,stimuli/stim_20210407_power2amp/equal_lnn_AM1.8Hz_41.m4a,,,
,,,,,,,,,,,,41060,2021-04-28_10h32.12.234,judgeSpeechMusic_20210407_logNormShiftAmp,2020.1.2,MacIntel,60,,,,,,,,,,,,,,2,5.807595,,0,0,130,130,82,1,stimuli/stim_20210407_power2amp/equal_lnn_AM3.6Hz_5.m4a,,,
,,,,,,,,,,,,41060,2021-04-28_10h32.12.234,judgeSpeechMusic_20210407_logNormShiftAmp,2020.1.2,MacIntel,60,,,,,,,,,,,,,,1,5.65749,,0,0,131,131,5,1,stimuli/stim_20210407_power2amp/equal_lnn_AM0.6Hz_86.m4a,,,
,,,,,,,,,,,,41060,2021-04-28_10h32.12.234,judgeSpeechMusic_20210407_logNormShiftAmp,2020.1.2,MacIntel,60,,,,,,,,,,,,,,2,5.691655,,0,0,132,132,123,1,stimuli/stim_20210407_power2amp/equal_lnn_AM5.4Hz_32.m4a,,,
,,,,,,,,,,,,41060,2021-04-28_10h32.12.234,judgeSpeechMusic_20210407_logNormShiftAmp,2020.1.2,MacIntel,60,,,,,,,,,,,,,,1,5.75976,,0,0,133,133,139,1,stimuli/stim_20210407_power2amp/equal_lnn_AM6Hz_37.m4a,,,
,,,,,,,,,,,,41060,2021-04-28_10h32.12.234,judgeSpeechMusic_20210407_logNormShiftAmp,2020.1.2,MacIntel,60,,,,,,,,,,,,,,1,6.323345,,0,0,134,134,90,1,stimuli/stim_20210407_power2amp/equal_lnn_AM4.2Hz_2.m4a,,,
,,,,,,,,,,,,41060,2021-04-28_10h32.12.234,judgeSpeechMusic_20210407_logNormShiftAmp,2020.1.2,MacIntel,60,,,,,,,,,,,,,,1,5.72486,,0,0,135,135,115,1,stimuli/stim_20210407_power2amp/equal_lnn_AM4.8Hz_3.m4a,,,
,,,,,,,,,,,,41060,2021-04-28_10h32.12.234,judgeSpeechMusic_20210407_logNormShiftAmp,2020.1.2,MacIntel,60,,,,,,,,,,,,,,2,5.69512,,0,0,136,136,89,1,stimuli/stim_20210407_power2amp/equal_lnn_AM3.6Hz_92.m4a,,,
,,,,,,,,,,,,41060,2021-04-28_10h32.12.234,judgeSpeechMusic_20210407_logNormShiftAmp,2020.1.2,MacIntel,60,,,,,,,,,,,,,,1,6.43976,,0,0,137,137,147,1,stimuli/stim_20210407_power2amp/equal_lnn_AM6Hz_92.m4a,,,
,,,,,,,,,,,,41060,2021-04-28_10h32.12.234,judgeSpeechMusic_20210407_logNormShiftAmp,2020.1.2,MacIntel,60,,,,,,,,,,,,,,2,11.84135,,0,0,138,138,125,1,stimuli/stim_20210407_power2amp/equal_lnn_AM5.4Hz_15.m4a,,,
,,,,,,,,,,,,41060,2021-04-28_10h32.12.234,judgeSpeechMusic_20210407_logNormShiftAmp,2020.1.2,MacIntel,60,,,,,,,,,,,,,,2,6.22307,,0,0,139,139,106,1,stimuli/stim_20210407_power2amp/equal_lnn_AM4.8Hz_73.m4a,,,
,,,,,,,,,,,,41060,2021-04-28_10h32.12.234,judgeSpeechMusic_20210407_logNormShiftAmp,2020.1.2,MacIntel,60,,,,,,,,,,,,,,2,6.19117,,0,0,140,140,18,1,stimuli/stim_20210407_power2amp/equal_lnn_AM1.2Hz_77.m4a,,,
,,,,,,,,,,,,41060,2021-04-28_10h32.12.234,judgeSpeechMusic_20210407_logNormShiftAmp,2020.1.2,MacIntel,60,,,,,,,,,,,,,,1,9.644225,,0,0,141,141,146,1,stimuli/stim_20210407_power2amp/equal_lnn_AM6Hz_54.m4a,,,
,,,,,,,,,,,,41060,2021-04-28_10h32.12.234,judgeSpeechMusic_20210407_logNormShiftAmp,2020.1.2,MacIntel,60,,,,,,,,,,,,,,1,6.024565,,0,0,142,142,13,1,stimuli/stim_20210407_power2amp/equal_lnn_AM0.6Hz_80.m4a,,,
,,,,,,,,,,,,41060,2021-04-28_10h32.12.234,judgeSpeechMusic_20210407_logNormShiftAmp,2020.1.2,MacIntel,60,,,,,,,,,,,,,,1,9.12426,,0,0,143,143,85,1,stimuli/stim_20210407_power2amp/equal_lnn_AM3.6Hz_85.m4a,,,
,,,,,,,,,,,,41060,2021-04-28_10h32.12.234,judgeSpeechMusic_20210407_logNormShiftAmp,2020.1.2,MacIntel,60,,,,,,,,,,,,,,1,6.877,,0,0,144,144,84,1,stimuli/stim_20210407_power2amp/equal_lnn_AM3.6Hz_25.m4a,,,
,,,,,,,,,,,,41060,2021-04-28_10h32.12.234,judgeSpeechMusic_20210407_logNormShiftAmp,2020.1.2,MacIntel,60,,,,,,,,,,,,,,1,5.872875,3,1,0,145,145,66,1,stimuli/stim_20210407_power2amp/equal_lnn_AM3Hz_26.m4a,2.478,,
,,,,,,,,,,,,41060,2021-04-28_10h32.12.234,judgeSpeechMusic_20210407_logNormShiftAmp,2020.1.2,MacIntel,60,,,,,,,,,,,,,,1,6.18071,,0,0,146,146,70,1,stimuli/stim_20210407_power2amp/equal_lnn_AM3Hz_70.m4a,,,
,,,,,,,,,,,,41060,2021-04-28_10h32.12.234,judgeSpeechMusic_20210407_logNormShiftAmp,2020.1.2,MacIntel,60,,,,,,,,,,,,,,1,5.92502,,0,0,147,147,11,1,stimuli/stim_20210407_power2amp/equal_lnn_AM0.6Hz_73.m4a,,,
,,,,,,,,,,,,41060,2021-04-28_10h32.12.234,judgeSpeechMusic_20210407_logNormShiftAmp,2020.1.2,MacIntel,60,,,,,,,,,,,,,,1,5.807245,,0,0,148,148,79,1,stimuli/stim_20210407_power2amp/equal_lnn_AM3.6Hz_64.m4a,,,
,,,,,,,,,,,,41060,2021-04-28_10h32.12.234,judgeSpeechMusic_20210407_logNormShiftAmp,2020.1.2,MacIntel,60,,,,,,,,,,,,,,1,5.825165,,0,0,149,149,78,1,stimuli/stim_20210407_power2amp/equal_lnn_AM3.6Hz_53.m4a,,,
,,,,,,,,,,,,41060,2021-04-28_10h32.12.234,judgeSpeechMusic_20210407_logNormShiftAmp,2020.1.2,MacIntel,60,,,,,,,,,,,,,,1,5.824105,,0,1,0,150,2,1,stimuli/stim_20210407_power2amp/equal_lnn_AM0.6Hz_37.m4a,,,
,,,,,,,,,,,,41060,2021-04-28_10h32.12.234,judgeSpeechMusic_20210407_logNormShiftAmp,2020.1.2,MacIntel,60,,,,,,,,,,,,,,1,6.475385,,0,1,1,151,32,1,stimuli/stim_20210407_power2amp/equal_lnn_AM1.8Hz_86.m4a,,,
,,,,,,,,,,,,41060,2021-04-28_10h32.12.234,judgeSpeechMusic_20210407_logNormShiftAmp,2020.1.2,MacIntel,60,,,,,,,,,,,,,,1,7.342235,,0,1,2,152,51,1,stimuli/stim_20210407_power2amp/equal_lnn_AM2.4Hz_35.m4a,,,
,,,,,,,,,,,,41060,2021-04-28_10h32.12.234,judgeSpeechMusic_20210407_logNormShiftAmp,2020.1.2,MacIntel,60,,,,,,,,,,,,,,1,6.15756,,0,1,3,153,89,1,stimuli/stim_20210407_power2amp/equal_lnn_AM3.6Hz_92.m4a,,,
,,,,,,,,,,,,41060,2021-04-28_10h32.12.234,judgeSpeechMusic_20210407_logNormShiftAmp,2020.1.2,MacIntel,60,,,,,,,,,,,,,,1,6.024015,,0,1,4,154,34,1,stimuli/stim_20210407_power2amp/equal_lnn_AM1.8Hz_78.m4a,,,
,,,,,,,,,,,,41060,2021-04-28_10h32.12.234,judgeSpeechMusic_20210407_logNormShiftAmp,2020.1.2,MacIntel,60,,,,,,,,,,,,,,1,5.763585,,0,1,5,155,117,1,stimuli/stim_20210407_power2amp/equal_lnn_AM4.8Hz_14.m4a,,,
,,,,,,,,,,,,41060,2021-04-28_10h32.12.234,judgeSpeechMusic_20210407_logNormShiftAmp,2020.1.2,MacIntel,60,,,,,,,,,,,,,,1,5.589675,,0,1,6,156,66,1,stimuli/stim_20210407_power2amp/equal_lnn_AM3Hz_26.m4a,,,
,,,,,,,,,,,,41060,2021-04-28_10h32.12.234,judgeSpeechMusic_20210407_logNormShiftAmp,2020.1.2,MacIntel,60,,,,,,,,,,,,,,1,5.607205,,0,1,7,157,123,1,stimuli/stim_20210407_power2amp/equal_lnn_AM5.4Hz_32.m4a,,,
,,,,,,,,,,,,41060,2021-04-28_10h32.12.234,judgeSpeechMusic_20210407_logNormShiftAmp,2020.1.2,MacIntel,60,,,,,,,,,,,,,,1,5.594395,,0,1,8,158,50,1,stimuli/stim_20210407_power2amp/equal_lnn_AM2.4Hz_55.m4a,,,
,,,,,,,,,,,,41060,2021-04-28_10h32.12.234,judgeSpeechMusic_20210407_logNormShiftAmp,2020.1.2,MacIntel,60,,,,,,,,,,,,,,1,5.639875,,0,1,9,159,0,1,stimuli/stim_20210407_power2amp/equal_lnn_AM0.6Hz_79.m4a,,,
,,,,,,,,,,,,41060,2021-04-28_10h32.12.234,judgeSpeechMusic_20210407_logNormShiftAmp,2020.1.2,MacIntel,60,,,,,,,,,,,,,,1,5.757525,,0,1,10,160,58,1,stimuli/stim_20210407_power2amp/equal_lnn_AM2.4Hz_8.m4a,,,
,,,,,,,,,,,,41060,2021-04-28_10h32.12.234,judgeSpeechMusic_20210407_logNormShiftAmp,2020.1.2,MacIntel,60,,,,,,,,,,,,,,1,5.67621,,0,1,11,161,52,1,stimuli/stim_20210407_power2amp/equal_lnn_AM2.4Hz_25.m4a,,,
,,,,,,,,,,,,41060,2021-04-28_10h32.12.234,judgeSpeechMusic_20210407_logNormShiftAmp,2020.1.2,MacIntel,60,,,,,,,,,,,,,,1,5.524775,,0,1,12,162,129,1,stimuli/stim_20210407_power2amp/equal_lnn_AM5.4Hz_92.m4a,,,
,,,,,,,,,,,,41060,2021-04-28_10h32.12.234,judgeSpeechMusic_20210407_logNormShiftAmp,2020.1.2,MacIntel,60,,,,,,,,,,,,,,1,5.627295,,0,1,13,163,22,1,stimuli/stim_20210407_power2amp/equal_lnn_AM1.2Hz_14.m4a,,,
,,,,,,,,,,,,41060,2021-04-28_10h32.12.234,judgeSpeechMusic_20210407_logNormShiftAmp,2020.1.2,MacIntel,60,,,,,,,,,,,,,,1,5.824775,,0,1,14,164,97,1,stimuli/stim_20210407_power2amp/equal_lnn_AM4.2Hz_89.m4a,,,
,,,,,,,,,,,,41060,2021-04-28_10h32.12.234,judgeSpeechMusic_20210407_logNormShiftAmp,2020.1.2,MacIntel,60,,,,,,,,,,,,,,1,7.98915,,0,1,15,165,16,1,stimuli/stim_20210407_power2amp/equal_lnn_AM1.2Hz_95.m4a,,,
,,,,,,,,,,,,41060,2021-04-28_10h32.12.234,judgeSpeechMusic_20210407_logNormShiftAmp,2020.1.2,MacIntel,60,,,,,,,,,,,,,,1,6.22501,,0,1,16,166,61,1,stimuli/stim_20210407_power2amp/equal_lnn_AM3Hz_92.m4a,,,
,,,,,,,,,,,,41060,2021-04-28_10h32.12.234,judgeSpeechMusic_20210407_logNormShiftAmp,2020.1.2,MacIntel,60,,,,,,,,,,,,,,2,8.293885,1,1,1,17,167,56,1,stimuli/stim_20210407_power2amp/equal_lnn_AM2.4Hz_48.m4a,2.57559,,
,,,,,,,,,,,,41060,2021-04-28_10h32.12.234,judgeSpeechMusic_20210407_logNormShiftAmp,2020.1.2,MacIntel,60,,,,,,,,,,,,,,2,7.291675,,0,1,18,168,111,1,stimuli/stim_20210407_power2amp/equal_lnn_AM4.8Hz_80.m4a,,,
,,,,,,,,,,,,41060,2021-04-28_10h32.12.234,judgeSpeechMusic_20210407_logNormShiftAmp,2020.1.2,MacIntel,60,,,,,,,,,,,,,,2,6.922565,,0,1,19,169,121,1,stimuli/stim_20210407_power2amp/equal_lnn_AM5.4Hz_14.m4a,,,
,,,,,,,,,,,,41060,2021-04-28_10h32.12.234,judgeSpeechMusic_20210407_logNormShiftAmp,2020.1.2,MacIntel,60,,,,,,,,,,,,,,2,6.05697,,0,1,20,170,127,1,stimuli/stim_20210407_power2amp/equal_lnn_AM5.4Hz_21.m4a,,,
,,,,,,,,,,,,41060,2021-04-28_10h32.12.234,judgeSpeechMusic_20210407_logNormShiftAmp,2020.1.2,MacIntel,60,,,,,,,,,,,,,,1,12.172355,,0,1,21,171,48,1,stimuli/stim_20210407_power2amp/equal_lnn_AM2.4Hz_4.m4a,,,
,,,,,,,,,,,,41060,2021-04-28_10h32.12.234,judgeSpeechMusic_20210407_logNormShiftAmp,2020.1.2,MacIntel,60,,,,,,,,,,,,,,1,6.37305,,0,1,22,172,17,1,stimuli/stim_20210407_power2amp/equal_lnn_AM1.2Hz_16.m4a,,,
,,,,,,,,,,,,41060,2021-04-28_10h32.12.234,judgeSpeechMusic_20210407_logNormShiftAmp,2020.1.2,MacIntel,60,,,,,,,,,,,,,,2,6.27514,,0,1,23,173,116,1,stimuli/stim_20210407_power2amp/equal_lnn_AM4.8Hz_23.m4a,,,
,,,,,,,,,,,,41060,2021-04-28_10h32.12.234,judgeSpeechMusic_20210407_logNormShiftAmp,2020.1.2,MacIntel,60,,,,,,,,,,,,,,1,6.84686,,0,1,24,174,44,1,stimuli/stim_20210407_power2amp/equal_lnn_AM1.8Hz_12.m4a,,,
,,,,,,,,,,,,41060,2021-04-28_10h32.12.234,judgeSpeechMusic_20210407_logNormShiftAmp,2020.1.2,MacIntel,60,,,,,,,,,,,,,,2,5.660705,,0,1,25,175,134,1,stimuli/stim_20210407_power2amp/equal_lnn_AM5.4Hz_86.m4a,,,
,,,,,,,,,,,,41060,2021-04-28_10h32.12.234,judgeSpeechMusic_20210407_logNormShiftAmp,2020.1.2,MacIntel,60,,,,,,,,,,,,,,1,5.762035,,0,1,26,176,30,1,stimuli/stim_20210407_power2amp/equal_lnn_AM1.8Hz_35.m4a,,,
,,,,,,,,,,,,41060,2021-04-28_10h32.12.234,judgeSpeechMusic_20210407_logNormShiftAmp,2020.1.2,MacIntel,60,,,,,,,,,,,,,,1,6.45813,,0,1,27,177,15,1,stimuli/stim_20210407_power2amp/equal_lnn_AM1.2Hz_76.m4a,,,
,,,,,,,,,,,,41060,2021-04-28_10h32.12.234,judgeSpeechMusic_20210407_logNormShiftAmp,2020.1.2,MacIntel,60,,,,,,,,,,,,,,2,5.778005,,0,1,28,178,63,1,stimuli/stim_20210407_power2amp/equal_lnn_AM3Hz_28.m4a,,,
,,,,,,,,,,,,41060,2021-04-28_10h32.12.234,judgeSpeechMusic_20210407_logNormShiftAmp,2020.1.2,MacIntel,60,,,,,,,,,,,,,,2,5.622475,,0,1,29,179,105,1,stimuli/stim_20210407_power2amp/equal_lnn_AM4.8Hz_22.m4a,,,
,,,,,,,,,,,,41060,2021-04-28_10h32.12.234,judgeSpeechMusic_20210407_logNormShiftAmp,2020.1.2,MacIntel,60,,,,,,,,,,,,,,1,6.023205,,0,1,30,180,99,1,stimuli/stim_20210407_power2amp/equal_lnn_AM4.2Hz_82.m4a,,,
,,,,,,,,,,,,41060,2021-04-28_10h32.12.234,judgeSpeechMusic_20210407_logNormShiftAmp,2020.1.2,MacIntel,60,,,,,,,,,,,,,,1,5.644765,,0,1,31,181,137,1,stimuli/stim_20210407_power2amp/equal_lnn_AM6Hz_19.m4a,,,
,,,,,,,,,,,,41060,2021-04-28_10h32.12.234,judgeSpeechMusic_20210407_logNormShiftAmp,2020.1.2,MacIntel,60,,,,,,,,,,,,,,1,5.674665,,0,1,32,182,125,1,stimuli/stim_20210407_power2amp/equal_lnn_AM5.4Hz_15.m4a,,,
,,,,,,,,,,,,41060,2021-04-28_10h32.12.234,judgeSpeechMusic_20210407_logNormShiftAmp,2020.1.2,MacIntel,60,,,,,,,,,,,,,,2,5.805175,,0,1,33,183,59,1,stimuli/stim_20210407_power2amp/equal_lnn_AM2.4Hz_85.m4a,,,
,,,,,,,,,,,,41060,2021-04-28_10h32.12.234,judgeSpeechMusic_20210407_logNormShiftAmp,2020.1.2,MacIntel,60,,,,,,,,,,,,,,1,5.85813,,0,1,34,184,54,1,stimuli/stim_20210407_power2amp/equal_lnn_AM2.4Hz_74.m4a,,,
,,,,,,,,,,,,41060,2021-04-28_10h32.12.234,judgeSpeechMusic_20210407_logNormShiftAmp,2020.1.2,MacIntel,60,,,,,,,,,,,,,,1,5.639645,,0,1,35,185,11,1,stimuli/stim_20210407_power2amp/equal_lnn_AM0.6Hz_73.m4a,,,
,,,,,,,,,,,,41060,2021-04-28_10h32.12.234,judgeSpeechMusic_20210407_logNormShiftAmp,2020.1.2,MacIntel,60,,,,,,,,,,,,,,2,5.63922,,0,1,36,186,95,1,stimuli/stim_20210407_power2amp/equal_lnn_AM4.2Hz_54.m4a,,,
,,,,,,,,,,,,41060,2021-04-28_10h32.12.234,judgeSpeechMusic_20210407_logNormShiftAmp,2020.1.2,MacIntel,60,,,,,,,,,,,,,,1,6.62465,,0,1,37,187,29,1,stimuli/stim_20210407_power2amp/equal_lnn_AM1.2Hz_47.m4a,,,
,,,,,,,,,,,,41060,2021-04-28_10h32.12.234,judgeSpeechMusic_20210407_logNormShiftAmp,2020.1.2,MacIntel,60,,,,,,,,,,,,,,2,6.37376,4,1,1,38,188,118,1,stimuli/stim_20210407_power2amp/equal_lnn_AM4.8Hz_99.m4a,1.41265,,
,,,,,,,,,,,,41060,2021-04-28_10h32.12.234,judgeSpeechMusic_20210407_logNormShiftAmp,2020.1.2,MacIntel,60,,,,,,,,,,,,,,1,6.143765,,0,1,39,189,74,1,stimuli/stim_20210407_power2amp/equal_lnn_AM3Hz_48.m4a,,,
,,,,,,,,,,,,41060,2021-04-28_10h32.12.234,judgeSpeechMusic_20210407_logNormShiftAmp,2020.1.2,MacIntel,60,,,,,,,,,,,,,,2,5.874955,,0,1,40,190,86,1,stimuli/stim_20210407_power2amp/equal_lnn_AM3.6Hz_7.m4a,,,
,,,,,,,,,,,,41060,2021-04-28_10h32.12.234,judgeSpeechMusic_20210407_logNormShiftAmp,2020.1.2,MacIntel,60,,,,,,,,,,,,,,2,5.643385,,0,1,41,191,75,1,stimuli/stim_20210407_power2amp/equal_lnn_AM3.6Hz_40.m4a,,,
,,,,,,,,,,,,41060,2021-04-28_10h32.12.234,judgeSpeechMusic_20210407_logNormShiftAmp,2020.1.2,MacIntel,60,,,,,,,,,,,,,,2,5.607865,,0,1,42,192,108,1,stimuli/stim_20210407_power2amp/equal_lnn_AM4.8Hz_47.m4a,,,
,,,,,,,,,,,,41060,2021-04-28_10h32.12.234,judgeSpeechMusic_20210407_logNormShiftAmp,2020.1.2,MacIntel,60,,,,,,,,,,,,,,1,5.69497,,0,1,43,193,142,1,stimuli/stim_20210407_power2amp/equal_lnn_AM6Hz_89.m4a,,,
,,,,,,,,,,,,41060,2021-04-28_10h32.12.234,judgeSpeechMusic_20210407_logNormShiftAmp,2020.1.2,MacIntel,60,,,,,,,,,,,,,,1,5.697285,,0,1,44,194,139,1,stimuli/stim_20210407_power2amp/equal_lnn_AM6Hz_37.m4a,,,
,,,,,,,,,,,,41060,2021-04-28_10h32.12.234,judgeSpeechMusic_20210407_logNormShiftAmp,2020.1.2,MacIntel,60,,,,,,,,,,,,,,2,5.841325,,0,1,45,195,124,1,stimuli/stim_20210407_power2amp/equal_lnn_AM5.4Hz_99.m4a,,,
,,,,,,,,,,,,41060,2021-04-28_10h32.12.234,judgeSpeechMusic_20210407_logNormShiftAmp,2020.1.2,MacIntel,60,,,,,,,,,,,,,,2,8.57413,,0,1,46,196,36,1,stimuli/stim_20210407_power2amp/equal_lnn_AM1.8Hz_53.m4a,,,
,,,,,,,,,,,,41060,2021-04-28_10h32.12.234,judgeSpeechMusic_20210407_logNormShiftAmp,2020.1.2,MacIntel,60,,,,,,,,,,,,,,1,5.65729,,0,1,47,197,23,1,stimuli/stim_20210407_power2amp/equal_lnn_AM1.2Hz_72.m4a,,,
,,,,,,,,,,,,41060,2021-04-28_10h32.12.234,judgeSpeechMusic_20210407_logNormShiftAmp,2020.1.2,MacIntel,60,,,,,,,,,,,,,,2,5.775035,,0,1,48,198,144,1,stimuli/stim_20210407_power2amp/equal_lnn_AM6Hz_98.m4a,,,
,,,,,,,,,,,,41060,2021-04-28_10h32.12.234,judgeSpeechMusic_20210407_logNormShiftAmp,2020.1.2,MacIntel,60,,,,,,,,,,,,,,1,5.678085,,0,1,49,199,5,1,stimuli/stim_20210407_power2amp/equal_lnn_AM0.6Hz_86.m4a,,,
,,,,,,,,,,,,41060,2021-04-28_10h32.12.234,judgeSpeechMusic_20210407_logNormShiftAmp,2020.1.2,MacIntel,60,,,,,,,,,,,,,,2,6.01321,,0,1,50,200,126,1,stimuli/stim_20210407_power2amp/equal_lnn_AM5.4Hz_62.m4a,,,
,,,,,,,,,,,,41060,2021-04-28_10h32.12.234,judgeSpeechMusic_20210407_logNormShiftAmp,2020.1.2,MacIntel,60,,,,,,,,,,,,,,1,5.780225,,0,1,51,201,6,1,stimuli/stim_20210407_power2amp/equal_lnn_AM0.6Hz_48.m4a,,,
,,,,,,,,,,,,41060,2021-04-28_10h32.12.234,judgeSpeechMusic_20210407_logNormShiftAmp,2020.1.2,MacIntel,60,,,,,,,,,,,,,,2,5.988285,,0,1,52,202,88,1,stimuli/stim_20210407_power2amp/equal_lnn_AM3.6Hz_19.m4a,,,
,,,,,,,,,,,,41060,2021-04-28_10h32.12.234,judgeSpeechMusic_20210407_logNormShiftAmp,2020.1.2,MacIntel,60,,,,,,,,,,,,,,1,5.906645,,0,1,53,203,131,1,stimuli/stim_20210407_power2amp/equal_lnn_AM5.4Hz_94.m4a,,,
,,,,,,,,,,,,41060,2021-04-28_10h32.12.234,judgeSpeechMusic_20210407_logNormShiftAmp,2020.1.2,MacIntel,60,,,,,,,,,,,,,,2,5.79086,,0,1,54,204,101,1,stimuli/stim_20210407_power2amp/equal_lnn_AM4.2Hz_68.m4a,,,
,,,,,,,,,,,,41060,2021-04-28_10h32.12.234,judgeSpeechMusic_20210407_logNormShiftAmp,2020.1.2,MacIntel,60,,,,,,,,,,,,,,2,5.79536,,0,1,55,205,135,1,stimuli/stim_20210407_power2amp/equal_lnn_AM6Hz_82.m4a,,,
,,,,,,,,,,,,41060,2021-04-28_10h32.12.234,judgeSpeechMusic_20210407_logNormShiftAmp,2020.1.2,MacIntel,60,,,,,,,,,,,,,,2,6.656995,,0,1,56,206,148,1,stimuli/stim_20210407_power2amp/equal_lnn_AM6Hz_63.m4a,,,
,,,,,,,,,,,,41060,2021-04-28_10h32.12.234,judgeSpeechMusic_20210407_logNormShiftAmp,2020.1.2,MacIntel,60,,,,,,,,,,,,,,2,5.658895,,0,1,57,207,114,1,stimuli/stim_20210407_power2amp/equal_lnn_AM4.8Hz_34.m4a,,,
,,,,,,,,,,,,41060,2021-04-28_10h32.12.234,judgeSpeechMusic_20210407_logNormShiftAmp,2020.1.2,MacIntel,60,,,,,,,,,,,,,,1,5.894635,,0,1,58,208,106,1,stimuli/stim_20210407_power2amp/equal_lnn_AM4.8Hz_73.m4a,,,
,,,,,,,,,,,,41060,2021-04-28_10h32.12.234,judgeSpeechMusic_20210407_logNormShiftAmp,2020.1.2,MacIntel,60,,,,,,,,,,,,,,1,5.824495,,0,1,59,209,19,1,stimuli/stim_20210407_power2amp/equal_lnn_AM1.2Hz_9.m4a,,,
,,,,,,,,,,,,41060,2021-04-28_10h32.12.234,judgeSpeechMusic_20210407_logNormShiftAmp,2020.1.2,MacIntel,60,,,,,,,,,,,,,,2,5.90811,,0,1,60,210,92,1,stimuli/stim_20210407_power2amp/equal_lnn_AM4.2Hz_39.m4a,,,
,,,,,,,,,,,,41060,2021-04-28_10h32.12.234,judgeSpeechMusic_20210407_logNormShiftAmp,2020.1.2,MacIntel,60,,,,,,,,,,,,,,1,5.840565,4,1,1,61,211,13,1,stimuli/stim_20210407_power2amp/equal_lnn_AM0.6Hz_80.m4a,2.379815,,
,,,,,,,,,,,,41060,2021-04-28_10h32.12.234,judgeSpeechMusic_20210407_logNormShiftAmp,2020.1.2,MacIntel,60,,,,,,,,,,,,,,2,5.992755,,0,1,62,212,84,1,stimuli/stim_20210407_power2amp/equal_lnn_AM3.6Hz_25.m4a,,,
,,,,,,,,,,,,41060,2021-04-28_10h32.12.234,judgeSpeechMusic_20210407_logNormShiftAmp,2020.1.2,MacIntel,60,,,,,,,,,,,,,,2,5.79051,,0,1,63,213,119,1,stimuli/stim_20210407_power2amp/equal_lnn_AM4.8Hz_30.m4a,,,
,,,,,,,,,,,,41060,2021-04-28_10h32.12.234,judgeSpeechMusic_20210407_logNormShiftAmp,2020.1.2,MacIntel,60,,,,,,,,,,,,,,1,5.776625,,0,1,64,214,7,1,stimuli/stim_20210407_power2amp/equal_lnn_AM0.6Hz_72.m4a,,,
,,,,,,,,,,,,41060,2021-04-28_10h32.12.234,judgeSpeechMusic_20210407_logNormShiftAmp,2020.1.2,MacIntel,60,,,,,,,,,,,,,,2,5.85849,,0,1,65,215,60,1,stimuli/stim_20210407_power2amp/equal_lnn_AM3Hz_1.m4a,,,
,,,,,,,,,,,,41060,2021-04-28_10h32.12.234,judgeSpeechMusic_20210407_logNormShiftAmp,2020.1.2,MacIntel,60,,,,,,,,,,,,,,2,6.093745,,0,1,66,216,40,1,stimuli/stim_20210407_power2amp/equal_lnn_AM1.8Hz_41.m4a,,,
,,,,,,,,,,,,41060,2021-04-28_10h32.12.234,judgeSpeechMusic_20210407_logNormShiftAmp,2020.1.2,MacIntel,60,,,,,,,,,,,,,,1,5.87496,,0,1,67,217,141,1,stimuli/stim_20210407_power2amp/equal_lnn_AM6Hz_15.m4a,,,
,,,,,,,,,,,,41060,2021-04-28_10h32.12.234,judgeSpeechMusic_20210407_logNormShiftAmp,2020.1.2,MacIntel,60,,,,,,,,,,,,,,2,5.77453,,0,1,68,218,47,1,stimuli/stim_20210407_power2amp/equal_lnn_AM2.4Hz_70.m4a,,,
,,,,,,,,,,,,41060,2021-04-28_10h32.12.234,judgeSpeechMusic_20210407_logNormShiftAmp,2020.1.2,MacIntel,60,,,,,,,,,,,,,,1,5.991595,,0,1,69,219,14,1,stimuli/stim_20210407_power2amp/equal_lnn_AM0.6Hz_3.m4a,,,
,,,,,,,,,,,,41060,2021-04-28_10h32.12.234,judgeSpeechMusic_20210407_logNormShiftAmp,2020.1.2,MacIntel,60,,,,,,,,,,,,,,2,6.161545,,0,1,70,220,81,1,stimuli/stim_20210407_power2amp/equal_lnn_AM3.6Hz_94.m4a,,,
,,,,,,,,,,,,41060,2021-04-28_10h32.12.234,judgeSpeechMusic_20210407_logNormShiftAmp,2020.1.2,MacIntel,60,,,,,,,,,,,,,,2,5.98998,,0,1,71,221,133,1,stimuli/stim_20210407_power2amp/equal_lnn_AM5.4Hz_36.m4a,,,
,,,,,,,,,,,,41060,2021-04-28_10h32.12.234,judgeSpeechMusic_20210407_logNormShiftAmp,2020.1.2,MacIntel,60,,,,,,,,,,,,,,2,6.80794,,0,1,72,222,67,1,stimuli/stim_20210407_power2amp/equal_lnn_AM3Hz_76.m4a,,,
,,,,,,,,,,,,41060,2021-04-28_10h32.12.234,judgeSpeechMusic_20210407_logNormShiftAmp,2020.1.2,MacIntel,60,,,,,,,,,,,,,,1,5.774255,,0,1,73,223,145,1,stimuli/stim_20210407_power2amp/equal_lnn_AM6Hz_12.m4a,,,
,,,,,,,,,,,,41060,2021-04-28_10h32.12.234,judgeSpeechMusic_20210407_logNormShiftAmp,2020.1.2,MacIntel,60,,,,,,,,,,,,,,2,6.55685,,0,1,74,224,73,1,stimuli/stim_20210407_power2amp/equal_lnn_AM3Hz_72.m4a,,,
,,,,,,,,,,,,41060,2021-04-28_10h32.12.234,judgeSpeechMusic_20210407_logNormShiftAmp,2020.1.2,MacIntel,60,,,,,,,,,,,,,,2,5.843745,,0,1,75,225,76,1,stimuli/stim_20210407_power2amp/equal_lnn_AM3.6Hz_77.m4a,,,
,,,,,,,,,,,,41060,2021-04-28_10h32.12.234,judgeSpeechMusic_20210407_logNormShiftAmp,2020.1.2,MacIntel,60,,,,,,,,,,,,,,1,5.791295,,0,1,76,226,45,1,stimuli/stim_20210407_power2amp/equal_lnn_AM2.4Hz_31.m4a,,,
,,,,,,,,,,,,41060,2021-04-28_10h32.12.234,judgeSpeechMusic_20210407_logNormShiftAmp,2020.1.2,MacIntel,60,,,,,,,,,,,,,,1,5.96051,,0,1,77,227,98,1,stimuli/stim_20210407_power2amp/equal_lnn_AM4.2Hz_81.m4a,,,
,,,,,,,,,,,,41060,2021-04-28_10h32.12.234,judgeSpeechMusic_20210407_logNormShiftAmp,2020.1.2,MacIntel,60,,,,,,,,,,,,,,1,5.824755,,0,1,78,228,1,1,stimuli/stim_20210407_power2amp/equal_lnn_AM0.6Hz_25.m4a,,,
,,,,,,,,,,,,41060,2021-04-28_10h32.12.234,judgeSpeechMusic_20210407_logNormShiftAmp,2020.1.2,MacIntel,60,,,,,,,,,,,,,,2,6.02075,,0,1,79,229,104,1,stimuli/stim_20210407_power2amp/equal_lnn_AM4.2Hz_28.m4a,,,
,,,,,,,,,,,,41060,2021-04-28_10h32.12.234,judgeSpeechMusic_20210407_logNormShiftAmp,2020.1.2,MacIntel,60,,,,,,,,,,,,,,1,5.941855,,0,1,80,230,33,1,stimuli/stim_20210407_power2amp/equal_lnn_AM1.8Hz_17.m4a,,,
,,,,,,,,,,,,41060,2021-04-28_10h32.12.234,judgeSpeechMusic_20210407_logNormShiftAmp,2020.1.2,MacIntel,60,,,,,,,,,,,,,,2,6.14139,,0,1,81,231,80,1,stimuli/stim_20210407_power2amp/equal_lnn_AM3.6Hz_8.m4a,,,
,,,,,,,,,,,,41060,2021-04-28_10h32.12.234,judgeSpeechMusic_20210407_logNormShiftAmp,2020.1.2,MacIntel,60,,,,,,,,,,,,,,1,5.742105,,0,1,82,232,10,1,stimuli/stim_20210407_power2amp/equal_lnn_AM0.6Hz_62.m4a,,,
,,,,,,,,,,,,41060,2021-04-28_10h32.12.234,judgeSpeechMusic_20210407_logNormShiftAmp,2020.1.2,MacIntel,60,,,,,,,,,,,,,,1,5.722385,3,1,1,83,233,149,1,stimuli/stim_20210407_power2amp/equal_lnn_AM6Hz_13.m4a,2.709615,,
,,,,,,,,,,,,41060,2021-04-28_10h32.12.234,judgeSpeechMusic_20210407_logNormShiftAmp,2020.1.2,MacIntel,60,,,,,,,,,,,,,,2,7.624905,,0,1,84,234,128,1,stimuli/stim_20210407_power2amp/equal_lnn_AM5.4Hz_34.m4a,,,
,,,,,,,,,,,,41060,2021-04-28_10h32.12.234,judgeSpeechMusic_20210407_logNormShiftAmp,2020.1.2,MacIntel,60,,,,,,,,,,,,,,2,6.678535,,0,1,85,235,113,1,stimuli/stim_20210407_power2amp/equal_lnn_AM4.8Hz_91.m4a,,,
,,,,,,,,,,,,41060,2021-04-28_10h32.12.234,judgeSpeechMusic_20210407_logNormShiftAmp,2020.1.2,MacIntel,60,,,,,,,,,,,,,,2,5.85615,,0,1,86,236,49,1,stimuli/stim_20210407_power2amp/equal_lnn_AM2.4Hz_36.m4a,,,
,,,,,,,,,,,,41060,2021-04-28_10h32.12.234,judgeSpeechMusic_20210407_logNormShiftAmp,2020.1.2,MacIntel,60,,,,,,,,,,,,,,1,5.80774,,0,1,87,237,27,1,stimuli/stim_20210407_power2amp/equal_lnn_AM1.2Hz_30.m4a,,,
,,,,,,,,,,,,41060,2021-04-28_10h32.12.234,judgeSpeechMusic_20210407_logNormShiftAmp,2020.1.2,MacIntel,60,,,,,,,,,,,,,,1,5.693745,,0,1,88,238,24,1,stimuli/stim_20210407_power2amp/equal_lnn_AM1.2Hz_49.m4a,,,
,,,,,,,,,,,,41060,2021-04-28_10h32.12.234,judgeSpeechMusic_20210407_logNormShiftAmp,2020.1.2,MacIntel,60,,,,,,,,,,,,,,1,5.878715,,0,1,89,239,130,1,stimuli/stim_20210407_power2amp/equal_lnn_AM5.4Hz_85.m4a,,,
,,,,,,,,,,,,41060,2021-04-28_10h32.12.234,judgeSpeechMusic_20210407_logNormShiftAmp,2020.1.2,MacIntel,60,,,,,,,,,,,,,,2,6.276465,,0,1,90,240,53,1,stimuli/stim_20210407_power2amp/equal_lnn_AM2.4Hz_39.m4a,,,
,,,,,,,,,,,,41060,2021-04-28_10h32.12.234,judgeSpeechMusic_20210407_logNormShiftAmp,2020.1.2,MacIntel,60,,,,,,,,,,,,,,1,5.87181,,0,1,91,241,8,1,stimuli/stim_20210407_power2amp/equal_lnn_AM0.6Hz_76.m4a,,,
,,,,,,,,,,,,41060,2021-04-28_10h32.12.234,judgeSpeechMusic_20210407_logNormShiftAmp,2020.1.2,MacIntel,60,,,,,,,,,,,,,,2,5.781425,,0,1,92,242,120,1,stimuli/stim_20210407_power2amp/equal_lnn_AM5.4Hz_74.m4a,,,
,,,,,,,,,,,,41060,2021-04-28_10h32.12.234,judgeSpeechMusic_20210407_logNormShiftAmp,2020.1.2,MacIntel,60,,,,,,,,,,,,,,1,6.30724,,0,1,93,243,42,1,stimuli/stim_20210407_power2amp/equal_lnn_AM1.8Hz_82.m4a,,,
,,,,,,,,,,,,41060,2021-04-28_10h32.12.234,judgeSpeechMusic_20210407_logNormShiftAmp,2020.1.2,MacIntel,60,,,,,,,,,,,,,,2,6.15687,,0,1,94,244,37,1,stimuli/stim_20210407_power2amp/equal_lnn_AM1.8Hz_51.m4a,,,
,,,,,,,,,,,,41060,2021-04-28_10h32.12.234,judgeSpeechMusic_20210407_logNormShiftAmp,2020.1.2,MacIntel,60,,,,,,,,,,,,,,2,5.674005,,0,1,95,245,109,1,stimuli/stim_20210407_power2amp/equal_lnn_AM4.8Hz_82.m4a,,,
,,,,,,,,,,,,41060,2021-04-28_10h32.12.234,judgeSpeechMusic_20210407_logNormShiftAmp,2020.1.2,MacIntel,60,,,,,,,,,,,,,,2,6.10499,,0,1,96,246,39,1,stimuli/stim_20210407_power2amp/equal_lnn_AM1.8Hz_11.m4a,,,
,,,,,,,,,,,,41060,2021-04-28_10h32.12.234,judgeSpeechMusic_20210407_logNormShiftAmp,2020.1.2,MacIntel,60,,,,,,,,,,,,,,2,5.689875,,0,1,97,247,25,1,stimuli/stim_20210407_power2amp/equal_lnn_AM1.2Hz_56.m4a,,,
,,,,,,,,,,,,41060,2021-04-28_10h32.12.234,judgeSpeechMusic_20210407_logNormShiftAmp,2020.1.2,MacIntel,60,,,,,,,,,,,,,,1,5.741305,,0,1,98,248,110,1,stimuli/stim_20210407_power2amp/equal_lnn_AM4.8Hz_4.m4a,,,
,,,,,,,,,,,,41060,2021-04-28_10h32.12.234,judgeSpeechMusic_20210407_logNormShiftAmp,2020.1.2,MacIntel,60,,,,,,,,,,,,,,1,5.673905,,0,1,99,249,136,1,stimuli/stim_20210407_power2amp/equal_lnn_AM6Hz_61.m4a,,,
,,,,,,,,,,,,41060,2021-04-28_10h32.12.234,judgeSpeechMusic_20210407_logNormShiftAmp,2020.1.2,MacIntel,60,,,,,,,,,,,,,,2,6.2236,,0,1,100,250,46,1,stimuli/stim_20210407_power2amp/equal_lnn_AM2.4Hz_14.m4a,,,
,,,,,,,,,,,,41060,2021-04-28_10h32.12.234,judgeSpeechMusic_20210407_logNormShiftAmp,2020.1.2,MacIntel,60,,,,,,,,,,,,,,2,5.92674,,0,1,101,251,90,1,stimuli/stim_20210407_power2amp/equal_lnn_AM4.2Hz_2.m4a,,,
,,,,,,,,,,,,41060,2021-04-28_10h32.12.234,judgeSpeechMusic_20210407_logNormShiftAmp,2020.1.2,MacIntel,60,,,,,,,,,,,,,,2,6.407655,,0,1,102,252,140,1,stimuli/stim_20210407_power2amp/equal_lnn_AM6Hz_49.m4a,,,
,,,,,,,,,,,,41060,2021-04-28_10h32.12.234,judgeSpeechMusic_20210407_logNormShiftAmp,2020.1.2,MacIntel,60,,,,,,,,,,,,,,1,7.290845,,0,1,103,253,3,1,stimuli/stim_20210407_power2amp/equal_lnn_AM0.6Hz_11.m4a,,,
,,,,,,,,,,,,41060,2021-04-28_10h32.12.234,judgeSpeechMusic_20210407_logNormShiftAmp,2020.1.2,MacIntel,60,,,,,,,,,,,,,,1,6.23938,,0,1,104,254,12,1,stimuli/stim_20210407_power2amp/equal_lnn_AM0.6Hz_7.m4a,,,
,,,,,,,,,,,,41060,2021-04-28_10h32.12.234,judgeSpeechMusic_20210407_logNormShiftAmp,2020.1.2,MacIntel,60,,,,,,,,,,,,,,2,6.24015,,0,1,105,255,69,1,stimuli/stim_20210407_power2amp/equal_lnn_AM3Hz_87.m4a,,,
,,,,,,,,,,,,41060,2021-04-28_10h32.12.234,judgeSpeechMusic_20210407_logNormShiftAmp,2020.1.2,MacIntel,60,,,,,,,,,,,,,,1,6.308855,,0,1,106,256,43,1,stimuli/stim_20210407_power2amp/equal_lnn_AM1.8Hz_24.m4a,,,
,,,,,,,,,,,,41060,2021-04-28_10h32.12.234,judgeSpeechMusic_20210407_logNormShiftAmp,2020.1.2,MacIntel,60,,,,,,,,,,,,,,2,7.107945,,0,1,107,257,41,1,stimuli/stim_20210407_power2amp/equal_lnn_AM1.8Hz_67.m4a,,,
,,,,,,,,,,,,41060,2021-04-28_10h32.12.234,judgeSpeechMusic_20210407_logNormShiftAmp,2020.1.2,MacIntel,60,,,,,,,,,,,,,,2,7.127235,3,1,1,108,258,103,1,stimuli/stim_20210407_power2amp/equal_lnn_AM4.2Hz_58.m4a,1.983525,,
,,,,,,,,,,,,41060,2021-04-28_10h32.12.234,judgeSpeechMusic_20210407_logNormShiftAmp,2020.1.2,MacIntel,60,,,,,,,,,,,,,,2,6.023675,,0,1,109,259,102,1,stimuli/stim_20210407_power2amp/equal_lnn_AM4.2Hz_47.m4a,,,
,,,,,,,,,,,,41060,2021-04-28_10h32.12.234,judgeSpeechMusic_20210407_logNormShiftAmp,2020.1.2,MacIntel,60,,,,,,,,,,,,,,2,10.89096,,0,1,110,260,100,1,stimuli/stim_20210407_power2amp/equal_lnn_AM4.2Hz_38.m4a,,,
,,,,,,,,,,,,41060,2021-04-28_10h32.12.234,judgeSpeechMusic_20210407_logNormShiftAmp,2020.1.2,MacIntel,60,,,,,,,,,,,,,,2,7.64225,,0,1,111,261,68,1,stimuli/stim_20210407_power2amp/equal_lnn_AM3Hz_89.m4a,,,
,,,,,,,,,,,,41060,2021-04-28_10h32.12.234,judgeSpeechMusic_20210407_logNormShiftAmp,2020.1.2,MacIntel,60,,,,,,,,,,,,,,2,6.3395,,0,1,112,262,72,1,stimuli/stim_20210407_power2amp/equal_lnn_AM3Hz_55.m4a,,,
,,,,,,,,,,,,41060,2021-04-28_10h32.12.234,judgeSpeechMusic_20210407_logNormShiftAmp,2020.1.2,MacIntel,60,,,,,,,,,,,,,,2,5.739745,,0,1,113,263,146,1,stimuli/stim_20210407_power2amp/equal_lnn_AM6Hz_54.m4a,,,
,,,,,,,,,,,,41060,2021-04-28_10h32.12.234,judgeSpeechMusic_20210407_logNormShiftAmp,2020.1.2,MacIntel,60,,,,,,,,,,,,,,1,6.55694,,0,1,114,264,70,1,stimuli/stim_20210407_power2amp/equal_lnn_AM3Hz_70.m4a,,,
,,,,,,,,,,,,41060,2021-04-28_10h32.12.234,judgeSpeechMusic_20210407_logNormShiftAmp,2020.1.2,MacIntel,60,,,,,,,,,,,,,,1,5.676165,,0,1,115,265,26,1,stimuli/stim_20210407_power2amp/equal_lnn_AM1.2Hz_96.m4a,,,
,,,,,,,,,,,,41060,2021-04-28_10h32.12.234,judgeSpeechMusic_20210407_logNormShiftAmp,2020.1.2,MacIntel,60,,,,,,,,,,,,,,2,6.00551,,0,1,116,266,78,1,stimuli/stim_20210407_power2amp/equal_lnn_AM3.6Hz_53.m4a,,,
,,,,,,,,,,,,41060,2021-04-28_10h32.12.234,judgeSpeechMusic_20210407_logNormShiftAmp,2020.1.2,MacIntel,60,,,,,,,,,,,,,,2,7.229975,,0,1,117,267,18,1,stimuli/stim_20210407_power2amp/equal_lnn_AM1.2Hz_77.m4a,,,
,,,,,,,,,,,,41060,2021-04-28_10h32.12.234,judgeSpeechMusic_20210407_logNormShiftAmp,2020.1.2,MacIntel,60,,,,,,,,,,,,,,2,6.694045,,0,1,118,268,132,1,stimuli/stim_20210407_power2amp/equal_lnn_AM5.4Hz_68.m4a,,,
,,,,,,,,,,,,41060,2021-04-28_10h32.12.234,judgeSpeechMusic_20210407_logNormShiftAmp,2020.1.2,MacIntel,60,,,,,,,,,,,,,,1,6.423755,,0,1,119,269,4,1,stimuli/stim_20210407_power2amp/equal_lnn_AM0.6Hz_5.m4a,,,
,,,,,,,,,,,,41060,2021-04-28_10h32.12.234,judgeSpeechMusic_20210407_logNormShiftAmp,2020.1.2,MacIntel,60,,,,,,,,,,,,,,2,6.179525,,0,1,120,270,79,1,stimuli/stim_20210407_power2amp/equal_lnn_AM3.6Hz_64.m4a,,,
,,,,,,,,,,,,41060,2021-04-28_10h32.12.234,judgeSpeechMusic_20210407_logNormShiftAmp,2020.1.2,MacIntel,60,,,,,,,,,,,,,,2,5.98951,,0,1,121,271,122,1,stimuli/stim_20210407_power2amp/equal_lnn_AM5.4Hz_7.m4a,,,
,,,,,,,,,,,,41060,2021-04-28_10h32.12.234,judgeSpeechMusic_20210407_logNormShiftAmp,2020.1.2,MacIntel,60,,,,,,,,,,,,,,1,6.023205,,0,1,122,272,38,1,stimuli/stim_20210407_power2amp/equal_lnn_AM1.8Hz_61.m4a,,,
,,,,,,,,,,,,41060,2021-04-28_10h32.12.234,judgeSpeechMusic_20210407_logNormShiftAmp,2020.1.2,MacIntel,60,,,,,,,,,,,,,,2,6.640385,,0,1,123,273,147,1,stimuli/stim_20210407_power2amp/equal_lnn_AM6Hz_92.m4a,,,
,,,,,,,,,,,,41060,2021-04-28_10h32.12.234,judgeSpeechMusic_20210407_logNormShiftAmp,2020.1.2,MacIntel,60,,,,,,,,,,,,,,2,5.79315,,0,1,124,274,83,1,stimuli/stim_20210407_power2amp/equal_lnn_AM3.6Hz_93.m4a,,,
,,,,,,,,,,,,41060,2021-04-28_10h32.12.234,judgeSpeechMusic_20210407_logNormShiftAmp,2020.1.2,MacIntel,60,,,,,,,,,,,,,,1,5.837855,,0,1,125,275,91,1,stimuli/stim_20210407_power2amp/equal_lnn_AM4.2Hz_45.m4a,,,
,,,,,,,,,,,,41060,2021-04-28_10h32.12.234,judgeSpeechMusic_20210407_logNormShiftAmp,2020.1.2,MacIntel,60,,,,,,,,,,,,,,2,8.104705,,0,1,126,276,87,1,stimuli/stim_20210407_power2amp/equal_lnn_AM3.6Hz_21.m4a,,,
,,,,,,,,,,,,41060,2021-04-28_10h32.12.234,judgeSpeechMusic_20210407_logNormShiftAmp,2020.1.2,MacIntel,60,,,,,,,,,,,,,,2,7.223745,,0,1,127,277,55,1,stimuli/stim_20210407_power2amp/equal_lnn_AM2.4Hz_89.m4a,,,
,,,,,,,,,,,,41060,2021-04-28_10h32.12.234,judgeSpeechMusic_20210407_logNormShiftAmp,2020.1.2,MacIntel,60,,,,,,,,,,,,,,2,6.11026,2,1,1,128,278,115,1,stimuli/stim_20210407_power2amp/equal_lnn_AM4.8Hz_3.m4a,2.52637,,
,,,,,,,,,,,,41060,2021-04-28_10h32.12.234,judgeSpeechMusic_20210407_logNormShiftAmp,2020.1.2,MacIntel,60,,,,,,,,,,,,,,2,6.12249,,0,1,129,279,57,1,stimuli/stim_20210407_power2amp/equal_lnn_AM2.4Hz_44.m4a,,,
,,,,,,,,,,,,41060,2021-04-28_10h32.12.234,judgeSpeechMusic_20210407_logNormShiftAmp,2020.1.2,MacIntel,60,,,,,,,,,,,,,,2,5.996985,,0,1,130,280,94,1,stimuli/stim_20210407_power2amp/equal_lnn_AM4.2Hz_29.m4a,,,
,,,,,,,,,,,,41060,2021-04-28_10h32.12.234,judgeSpeechMusic_20210407_logNormShiftAmp,2020.1.2,MacIntel,60,,,,,,,,,,,,,,2,5.92397,,0,1,131,281,35,1,stimuli/stim_20210407_power2amp/equal_lnn_AM1.8Hz_34.m4a,,,
,,,,,,,,,,,,41060,2021-04-28_10h32.12.234,judgeSpeechMusic_20210407_logNormShiftAmp,2020.1.2,MacIntel,60,,,,,,,,,,,,,,2,5.64704,,0,1,132,282,82,1,stimuli/stim_20210407_power2amp/equal_lnn_AM3.6Hz_5.m4a,,,
,,,,,,,,,,,,41060,2021-04-28_10h32.12.234,judgeSpeechMusic_20210407_logNormShiftAmp,2020.1.2,MacIntel,60,,,,,,,,,,,,,,1,5.80337,,0,1,133,283,138,1,stimuli/stim_20210407_power2amp/equal_lnn_AM6Hz_35.m4a,,,
,,,,,,,,,,,,41060,2021-04-28_10h32.12.234,judgeSpeechMusic_20210407_logNormShiftAmp,2020.1.2,MacIntel,60,,,,,,,,,,,,,,2,6.060685,,0,1,134,284,77,1,stimuli/stim_20210407_power2amp/equal_lnn_AM3.6Hz_2.m4a,,,
,,,,,,,,,,,,41060,2021-04-28_10h32.12.234,judgeSpeechMusic_20210407_logNormShiftAmp,2020.1.2,MacIntel,60,,,,,,,,,,,,,,1,5.706345,,0,1,135,285,31,1,stimuli/stim_20210407_power2amp/equal_lnn_AM1.8Hz_46.m4a,,,
,,,,,,,,,,,,41060,2021-04-28_10h32.12.234,judgeSpeechMusic_20210407_logNormShiftAmp,2020.1.2,MacIntel,60,,,,,,,,,,,,,,2,5.807455,,0,1,136,286,65,1,stimuli/stim_20210407_power2amp/equal_lnn_AM3Hz_31.m4a,,,
,,,,,,,,,,,,41060,2021-04-28_10h32.12.234,judgeSpeechMusic_20210407_logNormShiftAmp,2020.1.2,MacIntel,60,,,,,,,,,,,,,,2,8.330535,,0,1,137,287,143,1,stimuli/stim_20210407_power2amp/equal_lnn_AM6Hz_91.m4a,,,
,,,,,,,,,,,,41060,2021-04-28_10h32.12.234,judgeSpeechMusic_20210407_logNormShiftAmp,2020.1.2,MacIntel,60,,,,,,,,,,,,,,1,6.02642,,0,1,138,288,20,1,stimuli/stim_20210407_power2amp/equal_lnn_AM1.2Hz_27.m4a,,,
,,,,,,,,,,,,41060,2021-04-28_10h32.12.234,judgeSpeechMusic_20210407_logNormShiftAmp,2020.1.2,MacIntel,60,,,,,,,,,,,,,,2,7.19018,,0,1,139,289,71,1,stimuli/stim_20210407_power2amp/equal_lnn_AM3Hz_74.m4a,,,
,,,,,,,,,,,,41060,2021-04-28_10h32.12.234,judgeSpeechMusic_20210407_logNormShiftAmp,2020.1.2,MacIntel,60,,,,,,,,,,,,,,1,5.77519,,0,1,140,290,107,1,stimuli/stim_20210407_power2amp/equal_lnn_AM4.8Hz_63.m4a,,,
,,,,,,,,,,,,41060,2021-04-28_10h32.12.234,judgeSpeechMusic_20210407_logNormShiftAmp,2020.1.2,MacIntel,60,,,,,,,,,,,,,,1,5.74006,,0,1,141,291,21,1,stimuli/stim_20210407_power2amp/equal_lnn_AM1.2Hz_53.m4a,,,
,,,,,,,,,,,,41060,2021-04-28_10h32.12.234,judgeSpeechMusic_20210407_logNormShiftAmp,2020.1.2,MacIntel,60,,,,,,,,,,,,,,2,6.50655,,0,1,142,292,62,1,stimuli/stim_20210407_power2amp/equal_lnn_AM3Hz_60.m4a,,,
,,,,,,,,,,,,41060,2021-04-28_10h32.12.234,judgeSpeechMusic_20210407_logNormShiftAmp,2020.1.2,MacIntel,60,,,,,,,,,,,,,,1,5.7793,,0,1,143,293,28,1,stimuli/stim_20210407_power2amp/equal_lnn_AM1.2Hz_81.m4a,,,
,,,,,,,,,,,,41060,2021-04-28_10h32.12.234,judgeSpeechMusic_20210407_logNormShiftAmp,2020.1.2,MacIntel,60,,,,,,,,,,,,,,1,5.7108,,0,1,144,294,9,1,stimuli/stim_20210407_power2amp/equal_lnn_AM0.6Hz_100.m4a,,,
,,,,,,,,,,,,41060,2021-04-28_10h32.12.234,judgeSpeechMusic_20210407_logNormShiftAmp,2020.1.2,MacIntel,60,,,,,,,,,,,,,,2,5.664315,,0,1,145,295,64,1,stimuli/stim_20210407_power2amp/equal_lnn_AM3Hz_29.m4a,,,
,,,,,,,,,,,,41060,2021-04-28_10h32.12.234,judgeSpeechMusic_20210407_logNormShiftAmp,2020.1.2,MacIntel,60,,,,,,,,,,,,,,2,5.60366,,0,1,146,296,96,1,stimuli/stim_20210407_power2amp/equal_lnn_AM4.2Hz_27.m4a,,,
,,,,,,,,,,,,41060,2021-04-28_10h32.12.234,judgeSpeechMusic_20210407_logNormShiftAmp,2020.1.2,MacIntel,60,,,,,,,,,,,,,,1,5.823645,,0,1,147,297,93,1,stimuli/stim_20210407_power2amp/equal_lnn_AM4.2Hz_94.m4a,,,
,,,,,,,,,,,,41060,2021-04-28_10h32.12.234,judgeSpeechMusic_20210407_logNormShiftAmp,2020.1.2,MacIntel,60,,,,,,,,,,,,,,2,6.340125,,0,1,148,298,112,1,stimuli/stim_20210407_power2amp/equal_lnn_AM4.8Hz_37.m4a,,,
,,,,,,,,,,,,41060,2021-04-28_10h32.12.234,judgeSpeechMusic_20210407_logNormShiftAmp,2020.1.2,MacIntel,60,,,,,,,,,,,,,,2,5.75651,,0,1,149,299,85,1,stimuli/stim_20210407_power2amp/equal_lnn_AM3.6Hz_85.m4a,,,
,,,,,,,,,,,,41060,2021-04-28_10h32.12.234,judgeSpeechMusic_20210407_logNormShiftAmp,2020.1.2,MacIntel,60,,,,,,,,,,,,,,,,,,,,,,,,,space,8.53116
