headphoneResponse.keys,headphoneResponse.corr,headphoneResponse.rt,headphoneTrial.thisRepN,headphoneTrial.thisTrialN,headphoneTrial.thisN,headphoneTrial.thisIndex,headphoneTrial.ran,headphone_sound1,headphone_sound2,headphone_sound3,corrAns,participant,date,expName,psychopyVersion,OS,frameRate,trainSlider.response,trainSlider.rt,beepTrainResponse.keys,beepTrainResponse.corr,trainingTrials.thisRepN,trainingTrials.thisTrialN,trainingTrials.thisN,trainingTrials.thisIndex,trainingTrials.ran,trainAudioFile,beepTrainResponse.rt,readyReal_resp.keys,readyReal_resp.rt,ratingSlider.response,ratingSlider.rt,beepResp.keys,beepResp.corr,expTrials.thisRepN,expTrials.thisTrialN,expTrials.thisN,expTrials.thisIndex,expTrials.ran,audioFile,beepResp.rt,end_resp.keys,end_resp.rt
2,1,0.424175,0,0,0,1,1,stimuli/screen_antiphase.wav,stimuli/screen_quiet.wav,stimuli/screen_origin.wav,2,41104,2021-04-23_23h31.42.882,judgeSpeechMusic_20210407_logNormShiftAmp,2020.1.2,MacIntel,60,,,,,,,,,,,,,,,,,,,,,,,,,,
3,1,1.00622,0,1,1,0,1,stimuli/screen_antiphase.wav,stimuli/screen_origin.wav,stimuli/screen_quiet.wav,3,41104,2021-04-23_23h31.42.882,judgeSpeechMusic_20210407_logNormShiftAmp,2020.1.2,MacIntel,60,,,,,,,,,,,,,,,,,,,,,,,,,,
2,1,0.354415,0,2,2,3,1,stimuli/screen_origin.wav,stimuli/screen_quiet.wav,stimuli/screen_antiphase.wav,2,41104,2021-04-23_23h31.42.882,judgeSpeechMusic_20210407_logNormShiftAmp,2020.1.2,MacIntel,60,,,,,,,,,,,,,,,,,,,,,,,,,,
3,1,0.33484,0,3,3,2,1,stimuli/screen_origin.wav,stimuli/screen_antiphase.wav,stimuli/screen_quiet.wav,3,41104,2021-04-23_23h31.42.882,judgeSpeechMusic_20210407_logNormShiftAmp,2020.1.2,MacIntel,60,,,,,,,,,,,,,,,,,,,,,,,,,,
1,1,0.486805,0,4,4,5,1,stimuli/screen_quiet.wav,stimuli/screen_origin.wav,stimuli/screen_antiphase.wav,1,41104,2021-04-23_23h31.42.882,judgeSpeechMusic_20210407_logNormShiftAmp,2020.1.2,MacIntel,60,,,,,,,,,,,,,,,,,,,,,,,,,,
1,1,0.36689,0,5,5,4,1,stimuli/screen_quiet.wav,stimuli/screen_antiphase.wav,stimuli/screen_origin.wav,1,41104,2021-04-23_23h31.42.882,judgeSpeechMusic_20210407_logNormShiftAmp,2020.1.2,MacIntel,60,,,,,,,,,,,,,,,,,,,,,,,,,,
,,,,,,,,,,,,41104,2021-04-23_23h31.42.882,judgeSpeechMusic_20210407_logNormShiftAmp,2020.1.2,MacIntel,60,2,16.142655,,0,0,0,0,3,1,stimuli/stim_20210407_power2amp/equal_lnn_AM_training5.1Hz.m4a,,,,,,,,,,,,,,,,
,,,,,,,,,,,,41104,2021-04-23_23h31.42.882,judgeSpeechMusic_20210407_logNormShiftAmp,2020.1.2,MacIntel,60,2,6.66055,,0,0,1,1,1,1,stimuli/stim_20210407_power2amp/equal_lnn_AM_training2.7Hz.m4a,,,,,,,,,,,,,,,,
,,,,,,,,,,,,41104,2021-04-23_23h31.42.882,judgeSpeechMusic_20210407_logNormShiftAmp,2020.1.2,MacIntel,60,2,7.444875,2,1,0,2,2,2,1,stimuli/stim_20210407_power2amp/equal_lnn_AM_training3.9Hz.m4a,2.54412,,,,,,,,,,,,,,,
,,,,,,,,,,,,41104,2021-04-23_23h31.42.882,judgeSpeechMusic_20210407_logNormShiftAmp,2020.1.2,MacIntel,60,2,7.02645,,0,0,3,3,0,1,stimuli/stim_20210407_power2amp/equal_lnn_AM_training1.5Hz.m4a,,,,,,,,,,,,,,,,
,,,,,,,,,,,,41104,2021-04-23_23h31.42.882,judgeSpeechMusic_20210407_logNormShiftAmp,2020.1.2,MacIntel,60,,,,,,,,,,,,space,1.516585,2,7.06798,,0,0,0,0,17,1,stimuli/stim_20210407_power2amp/equal_lnn_AM1.2Hz_76.m4a,,,
,,,,,,,,,,,,41104,2021-04-23_23h31.42.882,judgeSpeechMusic_20210407_logNormShiftAmp,2020.1.2,MacIntel,60,,,,,,,,,,,,,,1,6.376485,,0,0,1,1,141,1,stimuli/stim_20210407_power2amp/equal_lnn_AM6Hz_98.m4a,,,
,,,,,,,,,,,,41104,2021-04-23_23h31.42.882,judgeSpeechMusic_20210407_logNormShiftAmp,2020.1.2,MacIntel,60,,,,,,,,,,,,,,2,7.09749,,0,0,2,2,89,1,stimuli/stim_20210407_power2amp/equal_lnn_AM3.6Hz_54.m4a,,,
,,,,,,,,,,,,41104,2021-04-23_23h31.42.882,judgeSpeechMusic_20210407_logNormShiftAmp,2020.1.2,MacIntel,60,,,,,,,,,,,,,,2,5.820455,,0,0,3,3,85,1,stimuli/stim_20210407_power2amp/equal_lnn_AM3.6Hz_65.m4a,,,
,,,,,,,,,,,,41104,2021-04-23_23h31.42.882,judgeSpeechMusic_20210407_logNormShiftAmp,2020.1.2,MacIntel,60,,,,,,,,,,,,,,2,6.82517,,0,0,4,4,93,1,stimuli/stim_20210407_power2amp/equal_lnn_AM4.2Hz_31.m4a,,,
,,,,,,,,,,,,41104,2021-04-23_23h31.42.882,judgeSpeechMusic_20210407_logNormShiftAmp,2020.1.2,MacIntel,60,,,,,,,,,,,,,,2,6.026685,,0,0,5,5,78,1,stimuli/stim_20210407_power2amp/equal_lnn_AM3.6Hz_82.m4a,,,
,,,,,,,,,,,,41104,2021-04-23_23h31.42.882,judgeSpeechMusic_20210407_logNormShiftAmp,2020.1.2,MacIntel,60,,,,,,,,,,,,,,1,6.175015,,0,0,6,6,103,1,stimuli/stim_20210407_power2amp/equal_lnn_AM4.2Hz_49.m4a,,,
,,,,,,,,,,,,41104,2021-04-23_23h31.42.882,judgeSpeechMusic_20210407_logNormShiftAmp,2020.1.2,MacIntel,60,,,,,,,,,,,,,,1,5.79396,,0,0,7,7,127,1,stimuli/stim_20210407_power2amp/equal_lnn_AM5.4Hz_70.m4a,,,
,,,,,,,,,,,,41104,2021-04-23_23h31.42.882,judgeSpeechMusic_20210407_logNormShiftAmp,2020.1.2,MacIntel,60,,,,,,,,,,,,,,1,7.953995,,0,0,8,8,112,1,stimuli/stim_20210407_power2amp/equal_lnn_AM4.8Hz_70.m4a,,,
,,,,,,,,,,,,41104,2021-04-23_23h31.42.882,judgeSpeechMusic_20210407_logNormShiftAmp,2020.1.2,MacIntel,60,,,,,,,,,,,,,,1,6.81007,,0,0,9,9,68,1,stimuli/stim_20210407_power2amp/equal_lnn_AM3Hz_17.m4a,,,
,,,,,,,,,,,,41104,2021-04-23_23h31.42.882,judgeSpeechMusic_20210407_logNormShiftAmp,2020.1.2,MacIntel,60,,,,,,,,,,,,,,2,8.67653,,0,0,10,10,98,1,stimuli/stim_20210407_power2amp/equal_lnn_AM4.2Hz_66.m4a,,,
,,,,,,,,,,,,41104,2021-04-23_23h31.42.882,judgeSpeechMusic_20210407_logNormShiftAmp,2020.1.2,MacIntel,60,,,,,,,,,,,,,,2,5.94215,,0,0,11,11,106,1,stimuli/stim_20210407_power2amp/equal_lnn_AM4.8Hz_47.m4a,,,
,,,,,,,,,,,,41104,2021-04-23_23h31.42.882,judgeSpeechMusic_20210407_logNormShiftAmp,2020.1.2,MacIntel,60,,,,,,,,,,,,,,1,6.10928,,0,0,12,12,4,1,stimuli/stim_20210407_power2amp/equal_lnn_AM0.6Hz_77.m4a,,,
,,,,,,,,,,,,41104,2021-04-23_23h31.42.882,judgeSpeechMusic_20210407_logNormShiftAmp,2020.1.2,MacIntel,60,,,,,,,,,,,,,,2,6.84191,,0,0,13,13,87,1,stimuli/stim_20210407_power2amp/equal_lnn_AM3.6Hz_93.m4a,,,
,,,,,,,,,,,,41104,2021-04-23_23h31.42.882,judgeSpeechMusic_20210407_logNormShiftAmp,2020.1.2,MacIntel,60,,,,,,,,,,,,,,2,5.89243,,0,0,14,14,57,1,stimuli/stim_20210407_power2amp/equal_lnn_AM2.4Hz_10.m4a,,,
,,,,,,,,,,,,41104,2021-04-23_23h31.42.882,judgeSpeechMusic_20210407_logNormShiftAmp,2020.1.2,MacIntel,60,,,,,,,,,,,,,,2,6.625515,,0,0,15,15,13,1,stimuli/stim_20210407_power2amp/equal_lnn_AM0.6Hz_19.m4a,,,
,,,,,,,,,,,,41104,2021-04-23_23h31.42.882,judgeSpeechMusic_20210407_logNormShiftAmp,2020.1.2,MacIntel,60,,,,,,,,,,,,,,1,6.92629,,0,0,16,16,50,1,stimuli/stim_20210407_power2amp/equal_lnn_AM2.4Hz_1.m4a,,,
,,,,,,,,,,,,41104,2021-04-23_23h31.42.882,judgeSpeechMusic_20210407_logNormShiftAmp,2020.1.2,MacIntel,60,,,,,,,,,,,,,,1,5.92685,,0,0,17,17,144,1,stimuli/stim_20210407_power2amp/equal_lnn_AM6Hz_42.m4a,,,
,,,,,,,,,,,,41104,2021-04-23_23h31.42.882,judgeSpeechMusic_20210407_logNormShiftAmp,2020.1.2,MacIntel,60,,,,,,,,,,,,,,2,17.944625,,0,0,18,18,101,1,stimuli/stim_20210407_power2amp/equal_lnn_AM4.2Hz_96.m4a,,,
,,,,,,,,,,,,41104,2021-04-23_23h31.42.882,judgeSpeechMusic_20210407_logNormShiftAmp,2020.1.2,MacIntel,60,,,,,,,,,,,,,,2,45.59101,,0,0,19,19,107,1,stimuli/stim_20210407_power2amp/equal_lnn_AM4.8Hz_58.m4a,,,
,,,,,,,,,,,,41104,2021-04-23_23h31.42.882,judgeSpeechMusic_20210407_logNormShiftAmp,2020.1.2,MacIntel,60,,,,,,,,,,,,,,2,7.4444,,0,0,20,20,6,1,stimuli/stim_20210407_power2amp/equal_lnn_AM0.6Hz_48.m4a,,,
,,,,,,,,,,,,41104,2021-04-23_23h31.42.882,judgeSpeechMusic_20210407_logNormShiftAmp,2020.1.2,MacIntel,60,,,,,,,,,,,,,,2,7.71058,,0,0,21,21,62,1,stimuli/stim_20210407_power2amp/equal_lnn_AM3Hz_79.m4a,,,
,,,,,,,,,,,,41104,2021-04-23_23h31.42.882,judgeSpeechMusic_20210407_logNormShiftAmp,2020.1.2,MacIntel,60,,,,,,,,,,,,,,1,6.35956,,0,0,22,22,14,1,stimuli/stim_20210407_power2amp/equal_lnn_AM0.6Hz_59.m4a,,,
,,,,,,,,,,,,41104,2021-04-23_23h31.42.882,judgeSpeechMusic_20210407_logNormShiftAmp,2020.1.2,MacIntel,60,,,,,,,,,,,,,,2,6.20885,,0,0,23,23,1,1,stimuli/stim_20210407_power2amp/equal_lnn_AM0.6Hz_10.m4a,,,
,,,,,,,,,,,,41104,2021-04-23_23h31.42.882,judgeSpeechMusic_20210407_logNormShiftAmp,2020.1.2,MacIntel,60,,,,,,,,,,,,,,1,6.391545,,0,0,24,24,48,1,stimuli/stim_20210407_power2amp/equal_lnn_AM2.4Hz_79.m4a,,,
,,,,,,,,,,,,41104,2021-04-23_23h31.42.882,judgeSpeechMusic_20210407_logNormShiftAmp,2020.1.2,MacIntel,60,,,,,,,,,,,,,,2,5.95969,,0,0,25,25,29,1,stimuli/stim_20210407_power2amp/equal_lnn_AM1.2Hz_49.m4a,,,
,,,,,,,,,,,,41104,2021-04-23_23h31.42.882,judgeSpeechMusic_20210407_logNormShiftAmp,2020.1.2,MacIntel,60,,,,,,,,,,,,,,2,6.85962,,0,0,26,26,83,1,stimuli/stim_20210407_power2amp/equal_lnn_AM3.6Hz_89.m4a,,,
,,,,,,,,,,,,41104,2021-04-23_23h31.42.882,judgeSpeechMusic_20210407_logNormShiftAmp,2020.1.2,MacIntel,60,,,,,,,,,,,,,,2,6.72547,,0,0,27,27,28,1,stimuli/stim_20210407_power2amp/equal_lnn_AM1.2Hz_52.m4a,,,
,,,,,,,,,,,,41104,2021-04-23_23h31.42.882,judgeSpeechMusic_20210407_logNormShiftAmp,2020.1.2,MacIntel,60,,,,,,,,,,,,,,2,11.32591,,0,0,28,28,143,1,stimuli/stim_20210407_power2amp/equal_lnn_AM6Hz_87.m4a,,,
,,,,,,,,,,,,41104,2021-04-23_23h31.42.882,judgeSpeechMusic_20210407_logNormShiftAmp,2020.1.2,MacIntel,60,,,,,,,,,,,,,,1,21.423255,,0,0,29,29,21,1,stimuli/stim_20210407_power2amp/equal_lnn_AM1.2Hz_13.m4a,,,
,,,,,,,,,,,,41104,2021-04-23_23h31.42.882,judgeSpeechMusic_20210407_logNormShiftAmp,2020.1.2,MacIntel,60,,,,,,,,,,,,,,2,6.40726,,0,0,30,30,84,1,stimuli/stim_20210407_power2amp/equal_lnn_AM3.6Hz_100.m4a,,,
,,,,,,,,,,,,41104,2021-04-23_23h31.42.882,judgeSpeechMusic_20210407_logNormShiftAmp,2020.1.2,MacIntel,60,,,,,,,,,,,,,,2,7.65894,,0,0,31,31,11,1,stimuli/stim_20210407_power2amp/equal_lnn_AM0.6Hz_94.m4a,,,
,,,,,,,,,,,,41104,2021-04-23_23h31.42.882,judgeSpeechMusic_20210407_logNormShiftAmp,2020.1.2,MacIntel,60,,,,,,,,,,,,,,2,6.638795,,0,0,32,32,96,1,stimuli/stim_20210407_power2amp/equal_lnn_AM4.2Hz_63.m4a,,,
,,,,,,,,,,,,41104,2021-04-23_23h31.42.882,judgeSpeechMusic_20210407_logNormShiftAmp,2020.1.2,MacIntel,60,,,,,,,,,,,,,,2,7.109475,,0,0,33,33,119,1,stimuli/stim_20210407_power2amp/equal_lnn_AM4.8Hz_76.m4a,,,
,,,,,,,,,,,,41104,2021-04-23_23h31.42.882,judgeSpeechMusic_20210407_logNormShiftAmp,2020.1.2,MacIntel,60,,,,,,,,,,,,,,2,6.395215,,0,0,34,34,147,1,stimuli/stim_20210407_power2amp/equal_lnn_AM6Hz_83.m4a,,,
,,,,,,,,,,,,41104,2021-04-23_23h31.42.882,judgeSpeechMusic_20210407_logNormShiftAmp,2020.1.2,MacIntel,60,,,,,,,,,,,,,,1,6.675245,,0,0,35,35,121,1,stimuli/stim_20210407_power2amp/equal_lnn_AM5.4Hz_55.m4a,,,
,,,,,,,,,,,,41104,2021-04-23_23h31.42.882,judgeSpeechMusic_20210407_logNormShiftAmp,2020.1.2,MacIntel,60,,,,,,,,,,,,,,2,8.49265,2,1,0,36,36,8,1,stimuli/stim_20210407_power2amp/equal_lnn_AM0.6Hz_12.m4a,1.32872,,
,,,,,,,,,,,,41104,2021-04-23_23h31.42.882,judgeSpeechMusic_20210407_logNormShiftAmp,2020.1.2,MacIntel,60,,,,,,,,,,,,,,2,5.86208,,0,0,37,37,39,1,stimuli/stim_20210407_power2amp/equal_lnn_AM1.8Hz_65.m4a,,,
,,,,,,,,,,,,41104,2021-04-23_23h31.42.882,judgeSpeechMusic_20210407_logNormShiftAmp,2020.1.2,MacIntel,60,,,,,,,,,,,,,,2,19.143,,0,0,38,38,148,1,stimuli/stim_20210407_power2amp/equal_lnn_AM6Hz_63.m4a,,,
,,,,,,,,,,,,41104,2021-04-23_23h31.42.882,judgeSpeechMusic_20210407_logNormShiftAmp,2020.1.2,MacIntel,60,,,,,,,,,,,,,,2,6.789525,,0,0,39,39,111,1,stimuli/stim_20210407_power2amp/equal_lnn_AM4.8Hz_54.m4a,,,
,,,,,,,,,,,,41104,2021-04-23_23h31.42.882,judgeSpeechMusic_20210407_logNormShiftAmp,2020.1.2,MacIntel,60,,,,,,,,,,,,,,2,19.52634,,0,0,40,40,59,1,stimuli/stim_20210407_power2amp/equal_lnn_AM2.4Hz_58.m4a,,,
,,,,,,,,,,,,41104,2021-04-23_23h31.42.882,judgeSpeechMusic_20210407_logNormShiftAmp,2020.1.2,MacIntel,60,,,,,,,,,,,,,,2,19.791255,,0,0,41,41,149,1,stimuli/stim_20210407_power2amp/equal_lnn_AM6Hz_62.m4a,,,
,,,,,,,,,,,,41104,2021-04-23_23h31.42.882,judgeSpeechMusic_20210407_logNormShiftAmp,2020.1.2,MacIntel,60,,,,,,,,,,,,,,2,6.21388,,0,0,42,42,88,1,stimuli/stim_20210407_power2amp/equal_lnn_AM3.6Hz_49.m4a,,,
,,,,,,,,,,,,41104,2021-04-23_23h31.42.882,judgeSpeechMusic_20210407_logNormShiftAmp,2020.1.2,MacIntel,60,,,,,,,,,,,,,,2,6.075755,,0,0,43,43,46,1,stimuli/stim_20210407_power2amp/equal_lnn_AM2.4Hz_60.m4a,,,
,,,,,,,,,,,,41104,2021-04-23_23h31.42.882,judgeSpeechMusic_20210407_logNormShiftAmp,2020.1.2,MacIntel,60,,,,,,,,,,,,,,2,6.875415,,0,0,44,44,140,1,stimuli/stim_20210407_power2amp/equal_lnn_AM6Hz_55.m4a,,,
,,,,,,,,,,,,41104,2021-04-23_23h31.42.882,judgeSpeechMusic_20210407_logNormShiftAmp,2020.1.2,MacIntel,60,,,,,,,,,,,,,,2,6.464065,,0,0,45,45,91,1,stimuli/stim_20210407_power2amp/equal_lnn_AM4.2Hz_20.m4a,,,
,,,,,,,,,,,,41104,2021-04-23_23h31.42.882,judgeSpeechMusic_20210407_logNormShiftAmp,2020.1.2,MacIntel,60,,,,,,,,,,,,,,1,6.346215,,0,0,46,46,9,1,stimuli/stim_20210407_power2amp/equal_lnn_AM0.6Hz_82.m4a,,,
,,,,,,,,,,,,41104,2021-04-23_23h31.42.882,judgeSpeechMusic_20210407_logNormShiftAmp,2020.1.2,MacIntel,60,,,,,,,,,,,,,,2,5.908745,,0,0,47,47,82,1,stimuli/stim_20210407_power2amp/equal_lnn_AM3.6Hz_20.m4a,,,
,,,,,,,,,,,,41104,2021-04-23_23h31.42.882,judgeSpeechMusic_20210407_logNormShiftAmp,2020.1.2,MacIntel,60,,,,,,,,,,,,,,1,6.560215,,0,0,48,48,35,1,stimuli/stim_20210407_power2amp/equal_lnn_AM1.8Hz_38.m4a,,,
,,,,,,,,,,,,41104,2021-04-23_23h31.42.882,judgeSpeechMusic_20210407_logNormShiftAmp,2020.1.2,MacIntel,60,,,,,,,,,,,,,,2,6.310525,,0,0,49,49,86,1,stimuli/stim_20210407_power2amp/equal_lnn_AM3.6Hz_99.m4a,,,
,,,,,,,,,,,,41104,2021-04-23_23h31.42.882,judgeSpeechMusic_20210407_logNormShiftAmp,2020.1.2,MacIntel,60,,,,,,,,,,,,,,2,7.472435,,0,0,50,50,95,1,stimuli/stim_20210407_power2amp/equal_lnn_AM4.2Hz_15.m4a,,,
,,,,,,,,,,,,41104,2021-04-23_23h31.42.882,judgeSpeechMusic_20210407_logNormShiftAmp,2020.1.2,MacIntel,60,,,,,,,,,,,,,,1,7.655355,,0,0,51,51,97,1,stimuli/stim_20210407_power2amp/equal_lnn_AM4.2Hz_38.m4a,,,
,,,,,,,,,,,,41104,2021-04-23_23h31.42.882,judgeSpeechMusic_20210407_logNormShiftAmp,2020.1.2,MacIntel,60,,,,,,,,,,,,,,2,16.595155,,0,0,52,52,118,1,stimuli/stim_20210407_power2amp/equal_lnn_AM4.8Hz_91.m4a,,,
,,,,,,,,,,,,41104,2021-04-23_23h31.42.882,judgeSpeechMusic_20210407_logNormShiftAmp,2020.1.2,MacIntel,60,,,,,,,,,,,,,,2,7.05984,,0,0,53,53,53,1,stimuli/stim_20210407_power2amp/equal_lnn_AM2.4Hz_94.m4a,,,
,,,,,,,,,,,,41104,2021-04-23_23h31.42.882,judgeSpeechMusic_20210407_logNormShiftAmp,2020.1.2,MacIntel,60,,,,,,,,,,,,,,1,7.143955,,0,0,54,54,34,1,stimuli/stim_20210407_power2amp/equal_lnn_AM1.8Hz_43.m4a,,,
,,,,,,,,,,,,41104,2021-04-23_23h31.42.882,judgeSpeechMusic_20210407_logNormShiftAmp,2020.1.2,MacIntel,60,,,,,,,,,,,,,,2,6.47325,,0,0,55,55,90,1,stimuli/stim_20210407_power2amp/equal_lnn_AM4.2Hz_53.m4a,,,
,,,,,,,,,,,,41104,2021-04-23_23h31.42.882,judgeSpeechMusic_20210407_logNormShiftAmp,2020.1.2,MacIntel,60,,,,,,,,,,,,,,1,6.13922,,0,0,56,56,74,1,stimuli/stim_20210407_power2amp/equal_lnn_AM3Hz_82.m4a,,,
,,,,,,,,,,,,41104,2021-04-23_23h31.42.882,judgeSpeechMusic_20210407_logNormShiftAmp,2020.1.2,MacIntel,60,,,,,,,,,,,,,,2,11.058285,,0,0,57,57,79,1,stimuli/stim_20210407_power2amp/equal_lnn_AM3.6Hz_53.m4a,,,
,,,,,,,,,,,,41104,2021-04-23_23h31.42.882,judgeSpeechMusic_20210407_logNormShiftAmp,2020.1.2,MacIntel,60,,,,,,,,,,,,,,2,6.82354,,0,0,58,58,142,1,stimuli/stim_20210407_power2amp/equal_lnn_AM6Hz_11.m4a,,,
,,,,,,,,,,,,41104,2021-04-23_23h31.42.882,judgeSpeechMusic_20210407_logNormShiftAmp,2020.1.2,MacIntel,60,,,,,,,,,,,,,,2,6.2873,,0,0,59,59,37,1,stimuli/stim_20210407_power2amp/equal_lnn_AM1.8Hz_66.m4a,,,
,,,,,,,,,,,,41104,2021-04-23_23h31.42.882,judgeSpeechMusic_20210407_logNormShiftAmp,2020.1.2,MacIntel,60,,,,,,,,,,,,,,2,6.160735,4,1,0,60,60,129,1,stimuli/stim_20210407_power2amp/equal_lnn_AM5.4Hz_50.m4a,1.39722,,
,,,,,,,,,,,,41104,2021-04-23_23h31.42.882,judgeSpeechMusic_20210407_logNormShiftAmp,2020.1.2,MacIntel,60,,,,,,,,,,,,,,2,6.79379,,0,0,61,61,77,1,stimuli/stim_20210407_power2amp/equal_lnn_AM3.6Hz_4.m4a,,,
,,,,,,,,,,,,41104,2021-04-23_23h31.42.882,judgeSpeechMusic_20210407_logNormShiftAmp,2020.1.2,MacIntel,60,,,,,,,,,,,,,,1,5.708565,,0,0,62,62,2,1,stimuli/stim_20210407_power2amp/equal_lnn_AM0.6Hz_45.m4a,,,
,,,,,,,,,,,,41104,2021-04-23_23h31.42.882,judgeSpeechMusic_20210407_logNormShiftAmp,2020.1.2,MacIntel,60,,,,,,,,,,,,,,2,10.30784,,0,0,63,63,40,1,stimuli/stim_20210407_power2amp/equal_lnn_AM1.8Hz_4.m4a,,,
,,,,,,,,,,,,41104,2021-04-23_23h31.42.882,judgeSpeechMusic_20210407_logNormShiftAmp,2020.1.2,MacIntel,60,,,,,,,,,,,,,,1,7.77473,,0,0,64,64,27,1,stimuli/stim_20210407_power2amp/equal_lnn_AM1.2Hz_65.m4a,,,
,,,,,,,,,,,,41104,2021-04-23_23h31.42.882,judgeSpeechMusic_20210407_logNormShiftAmp,2020.1.2,MacIntel,60,,,,,,,,,,,,,,2,5.94376,,0,0,65,65,136,1,stimuli/stim_20210407_power2amp/equal_lnn_AM6Hz_57.m4a,,,
,,,,,,,,,,,,41104,2021-04-23_23h31.42.882,judgeSpeechMusic_20210407_logNormShiftAmp,2020.1.2,MacIntel,60,,,,,,,,,,,,,,2,7.10714,,0,0,66,66,54,1,stimuli/stim_20210407_power2amp/equal_lnn_AM2.4Hz_66.m4a,,,
,,,,,,,,,,,,41104,2021-04-23_23h31.42.882,judgeSpeechMusic_20210407_logNormShiftAmp,2020.1.2,MacIntel,60,,,,,,,,,,,,,,2,6.33884,,0,0,67,67,124,1,stimuli/stim_20210407_power2amp/equal_lnn_AM5.4Hz_61.m4a,,,
,,,,,,,,,,,,41104,2021-04-23_23h31.42.882,judgeSpeechMusic_20210407_logNormShiftAmp,2020.1.2,MacIntel,60,,,,,,,,,,,,,,1,6.92809,,0,0,68,68,131,1,stimuli/stim_20210407_power2amp/equal_lnn_AM5.4Hz_79.m4a,,,
,,,,,,,,,,,,41104,2021-04-23_23h31.42.882,judgeSpeechMusic_20210407_logNormShiftAmp,2020.1.2,MacIntel,60,,,,,,,,,,,,,,2,8.34416,,0,0,69,69,123,1,stimuli/stim_20210407_power2amp/equal_lnn_AM5.4Hz_36.m4a,,,
,,,,,,,,,,,,41104,2021-04-23_23h31.42.882,judgeSpeechMusic_20210407_logNormShiftAmp,2020.1.2,MacIntel,60,,,,,,,,,,,,,,2,7.97338,,0,0,70,70,65,1,stimuli/stim_20210407_power2amp/equal_lnn_AM3Hz_38.m4a,,,
,,,,,,,,,,,,41104,2021-04-23_23h31.42.882,judgeSpeechMusic_20210407_logNormShiftAmp,2020.1.2,MacIntel,60,,,,,,,,,,,,,,2,6.221615,,0,0,71,71,30,1,stimuli/stim_20210407_power2amp/equal_lnn_AM1.8Hz_82.m4a,,,
,,,,,,,,,,,,41104,2021-04-23_23h31.42.882,judgeSpeechMusic_20210407_logNormShiftAmp,2020.1.2,MacIntel,60,,,,,,,,,,,,,,2,6.742435,,0,0,72,72,132,1,stimuli/stim_20210407_power2amp/equal_lnn_AM5.4Hz_80.m4a,,,
,,,,,,,,,,,,41104,2021-04-23_23h31.42.882,judgeSpeechMusic_20210407_logNormShiftAmp,2020.1.2,MacIntel,60,,,,,,,,,,,,,,2,6.64341,,0,0,73,73,42,1,stimuli/stim_20210407_power2amp/equal_lnn_AM1.8Hz_13.m4a,,,
,,,,,,,,,,,,41104,2021-04-23_23h31.42.882,judgeSpeechMusic_20210407_logNormShiftAmp,2020.1.2,MacIntel,60,,,,,,,,,,,,,,2,12.378815,,0,0,74,74,61,1,stimuli/stim_20210407_power2amp/equal_lnn_AM3Hz_50.m4a,,,
,,,,,,,,,,,,41104,2021-04-23_23h31.42.882,judgeSpeechMusic_20210407_logNormShiftAmp,2020.1.2,MacIntel,60,,,,,,,,,,,,,,2,12.10503,,0,0,75,75,58,1,stimuli/stim_20210407_power2amp/equal_lnn_AM2.4Hz_54.m4a,,,
,,,,,,,,,,,,41104,2021-04-23_23h31.42.882,judgeSpeechMusic_20210407_logNormShiftAmp,2020.1.2,MacIntel,60,,,,,,,,,,,,,,2,5.72301,,0,0,76,76,73,1,stimuli/stim_20210407_power2amp/equal_lnn_AM3Hz_32.m4a,,,
,,,,,,,,,,,,41104,2021-04-23_23h31.42.882,judgeSpeechMusic_20210407_logNormShiftAmp,2020.1.2,MacIntel,60,,,,,,,,,,,,,,2,5.82726,,0,0,77,77,125,1,stimuli/stim_20210407_power2amp/equal_lnn_AM5.4Hz_23.m4a,,,
,,,,,,,,,,,,41104,2021-04-23_23h31.42.882,judgeSpeechMusic_20210407_logNormShiftAmp,2020.1.2,MacIntel,60,,,,,,,,,,,,,,2,6.826075,,0,0,78,78,16,1,stimuli/stim_20210407_power2amp/equal_lnn_AM1.2Hz_14.m4a,,,
,,,,,,,,,,,,41104,2021-04-23_23h31.42.882,judgeSpeechMusic_20210407_logNormShiftAmp,2020.1.2,MacIntel,60,,,,,,,,,,,,,,2,6.99065,,0,0,79,79,94,1,stimuli/stim_20210407_power2amp/equal_lnn_AM4.2Hz_71.m4a,,,
,,,,,,,,,,,,41104,2021-04-23_23h31.42.882,judgeSpeechMusic_20210407_logNormShiftAmp,2020.1.2,MacIntel,60,,,,,,,,,,,,,,2,8.8448,,0,0,80,80,44,1,stimuli/stim_20210407_power2amp/equal_lnn_AM1.8Hz_53.m4a,,,
,,,,,,,,,,,,41104,2021-04-23_23h31.42.882,judgeSpeechMusic_20210407_logNormShiftAmp,2020.1.2,MacIntel,60,,,,,,,,,,,,,,2,10.11259,,0,0,81,81,110,1,stimuli/stim_20210407_power2amp/equal_lnn_AM4.8Hz_18.m4a,,,
,,,,,,,,,,,,41104,2021-04-23_23h31.42.882,judgeSpeechMusic_20210407_logNormShiftAmp,2020.1.2,MacIntel,60,,,,,,,,,,,,,,2,9.50772,,0,0,82,82,5,1,stimuli/stim_20210407_power2amp/equal_lnn_AM0.6Hz_11.m4a,,,
,,,,,,,,,,,,41104,2021-04-23_23h31.42.882,judgeSpeechMusic_20210407_logNormShiftAmp,2020.1.2,MacIntel,60,,,,,,,,,,,,,,2,15.043175,2,1,0,83,83,19,1,stimuli/stim_20210407_power2amp/equal_lnn_AM1.2Hz_44.m4a,1.181185,,
,,,,,,,,,,,,41104,2021-04-23_23h31.42.882,judgeSpeechMusic_20210407_logNormShiftAmp,2020.1.2,MacIntel,60,,,,,,,,,,,,,,1,5.79387,,0,0,84,84,15,1,stimuli/stim_20210407_power2amp/equal_lnn_AM1.2Hz_75.m4a,,,
,,,,,,,,,,,,41104,2021-04-23_23h31.42.882,judgeSpeechMusic_20210407_logNormShiftAmp,2020.1.2,MacIntel,60,,,,,,,,,,,,,,2,7.060295,,0,0,85,85,55,1,stimuli/stim_20210407_power2amp/equal_lnn_AM2.4Hz_46.m4a,,,
,,,,,,,,,,,,41104,2021-04-23_23h31.42.882,judgeSpeechMusic_20210407_logNormShiftAmp,2020.1.2,MacIntel,60,,,,,,,,,,,,,,2,6.28067,,0,0,86,86,126,1,stimuli/stim_20210407_power2amp/equal_lnn_AM5.4Hz_34.m4a,,,
,,,,,,,,,,,,41104,2021-04-23_23h31.42.882,judgeSpeechMusic_20210407_logNormShiftAmp,2020.1.2,MacIntel,60,,,,,,,,,,,,,,2,7.82001,,0,0,87,87,92,1,stimuli/stim_20210407_power2amp/equal_lnn_AM4.2Hz_54.m4a,,,
,,,,,,,,,,,,41104,2021-04-23_23h31.42.882,judgeSpeechMusic_20210407_logNormShiftAmp,2020.1.2,MacIntel,60,,,,,,,,,,,,,,2,7.092675,,0,0,88,88,51,1,stimuli/stim_20210407_power2amp/equal_lnn_AM2.4Hz_67.m4a,,,
,,,,,,,,,,,,41104,2021-04-23_23h31.42.882,judgeSpeechMusic_20210407_logNormShiftAmp,2020.1.2,MacIntel,60,,,,,,,,,,,,,,2,29.024625,,0,0,89,89,72,1,stimuli/stim_20210407_power2amp/equal_lnn_AM3Hz_58.m4a,,,
,,,,,,,,,,,,41104,2021-04-23_23h31.42.882,judgeSpeechMusic_20210407_logNormShiftAmp,2020.1.2,MacIntel,60,,,,,,,,,,,,,,2,22.7306,,0,0,90,90,25,1,stimuli/stim_20210407_power2amp/equal_lnn_AM1.2Hz_90.m4a,,,
,,,,,,,,,,,,41104,2021-04-23_23h31.42.882,judgeSpeechMusic_20210407_logNormShiftAmp,2020.1.2,MacIntel,60,,,,,,,,,,,,,,2,9.47488,,0,0,91,91,18,1,stimuli/stim_20210407_power2amp/equal_lnn_AM1.2Hz_11.m4a,,,
,,,,,,,,,,,,41104,2021-04-23_23h31.42.882,judgeSpeechMusic_20210407_logNormShiftAmp,2020.1.2,MacIntel,60,,,,,,,,,,,,,,2,5.94494,,0,0,92,92,137,1,stimuli/stim_20210407_power2amp/equal_lnn_AM6Hz_30.m4a,,,
,,,,,,,,,,,,41104,2021-04-23_23h31.42.882,judgeSpeechMusic_20210407_logNormShiftAmp,2020.1.2,MacIntel,60,,,,,,,,,,,,,,2,11.35876,,0,0,93,93,81,1,stimuli/stim_20210407_power2amp/equal_lnn_AM3.6Hz_19.m4a,,,
,,,,,,,,,,,,41104,2021-04-23_23h31.42.882,judgeSpeechMusic_20210407_logNormShiftAmp,2020.1.2,MacIntel,60,,,,,,,,,,,,,,2,5.843085,,0,0,94,94,146,1,stimuli/stim_20210407_power2amp/equal_lnn_AM6Hz_36.m4a,,,
,,,,,,,,,,,,41104,2021-04-23_23h31.42.882,judgeSpeechMusic_20210407_logNormShiftAmp,2020.1.2,MacIntel,60,,,,,,,,,,,,,,1,6.112865,,0,0,95,95,24,1,stimuli/stim_20210407_power2amp/equal_lnn_AM1.2Hz_68.m4a,,,
,,,,,,,,,,,,41104,2021-04-23_23h31.42.882,judgeSpeechMusic_20210407_logNormShiftAmp,2020.1.2,MacIntel,60,,,,,,,,,,,,,,2,22.58977,,0,0,96,96,20,1,stimuli/stim_20210407_power2amp/equal_lnn_AM1.2Hz_26.m4a,,,
,,,,,,,,,,,,41104,2021-04-23_23h31.42.882,judgeSpeechMusic_20210407_logNormShiftAmp,2020.1.2,MacIntel,60,,,,,,,,,,,,,,1,8.64381,,0,0,97,97,3,1,stimuli/stim_20210407_power2amp/equal_lnn_AM0.6Hz_84.m4a,,,
,,,,,,,,,,,,41104,2021-04-23_23h31.42.882,judgeSpeechMusic_20210407_logNormShiftAmp,2020.1.2,MacIntel,60,,,,,,,,,,,,,,2,12.011895,,0,0,98,98,41,1,stimuli/stim_20210407_power2amp/equal_lnn_AM1.8Hz_99.m4a,,,
,,,,,,,,,,,,41104,2021-04-23_23h31.42.882,judgeSpeechMusic_20210407_logNormShiftAmp,2020.1.2,MacIntel,60,,,,,,,,,,,,,,2,26.84128,,0,0,99,99,10,1,stimuli/stim_20210407_power2amp/equal_lnn_AM0.6Hz_66.m4a,,,
,,,,,,,,,,,,41104,2021-04-23_23h31.42.882,judgeSpeechMusic_20210407_logNormShiftAmp,2020.1.2,MacIntel,60,,,,,,,,,,,,,,2,6.84306,,0,0,100,100,69,1,stimuli/stim_20210407_power2amp/equal_lnn_AM3Hz_24.m4a,,,
,,,,,,,,,,,,41104,2021-04-23_23h31.42.882,judgeSpeechMusic_20210407_logNormShiftAmp,2020.1.2,MacIntel,60,,,,,,,,,,,,,,2,6.28956,,0,0,101,101,45,1,stimuli/stim_20210407_power2amp/equal_lnn_AM2.4Hz_91.m4a,,,
,,,,,,,,,,,,41104,2021-04-23_23h31.42.882,judgeSpeechMusic_20210407_logNormShiftAmp,2020.1.2,MacIntel,60,,,,,,,,,,,,,,2,6.143285,,0,0,102,102,109,1,stimuli/stim_20210407_power2amp/equal_lnn_AM4.8Hz_39.m4a,,,
,,,,,,,,,,,,41104,2021-04-23_23h31.42.882,judgeSpeechMusic_20210407_logNormShiftAmp,2020.1.2,MacIntel,60,,,,,,,,,,,,,,2,8.875615,,0,0,103,103,139,1,stimuli/stim_20210407_power2amp/equal_lnn_AM6Hz_9.m4a,,,
,,,,,,,,,,,,41104,2021-04-23_23h31.42.882,judgeSpeechMusic_20210407_logNormShiftAmp,2020.1.2,MacIntel,60,,,,,,,,,,,,,,2,5.94397,,0,0,104,104,43,1,stimuli/stim_20210407_power2amp/equal_lnn_AM1.8Hz_62.m4a,,,
,,,,,,,,,,,,41104,2021-04-23_23h31.42.882,judgeSpeechMusic_20210407_logNormShiftAmp,2020.1.2,MacIntel,60,,,,,,,,,,,,,,2,6.97248,,0,0,105,105,23,1,stimuli/stim_20210407_power2amp/equal_lnn_AM1.2Hz_69.m4a,,,
,,,,,,,,,,,,41104,2021-04-23_23h31.42.882,judgeSpeechMusic_20210407_logNormShiftAmp,2020.1.2,MacIntel,60,,,,,,,,,,,,,,2,6.37441,2,1,0,106,106,76,1,stimuli/stim_20210407_power2amp/equal_lnn_AM3.6Hz_11.m4a,0.46163,,
,,,,,,,,,,,,41104,2021-04-23_23h31.42.882,judgeSpeechMusic_20210407_logNormShiftAmp,2020.1.2,MacIntel,60,,,,,,,,,,,,,,1,6.290215,,0,0,107,107,130,1,stimuli/stim_20210407_power2amp/equal_lnn_AM5.4Hz_44.m4a,,,
,,,,,,,,,,,,41104,2021-04-23_23h31.42.882,judgeSpeechMusic_20210407_logNormShiftAmp,2020.1.2,MacIntel,60,,,,,,,,,,,,,,1,6.972045,,0,0,108,108,145,1,stimuli/stim_20210407_power2amp/equal_lnn_AM6Hz_79.m4a,,,
,,,,,,,,,,,,41104,2021-04-23_23h31.42.882,judgeSpeechMusic_20210407_logNormShiftAmp,2020.1.2,MacIntel,60,,,,,,,,,,,,,,2,6.528085,,0,0,109,109,99,1,stimuli/stim_20210407_power2amp/equal_lnn_AM4.2Hz_42.m4a,,,
,,,,,,,,,,,,41104,2021-04-23_23h31.42.882,judgeSpeechMusic_20210407_logNormShiftAmp,2020.1.2,MacIntel,60,,,,,,,,,,,,,,2,6.24387,,0,0,110,110,108,1,stimuli/stim_20210407_power2amp/equal_lnn_AM4.8Hz_24.m4a,,,
,,,,,,,,,,,,41104,2021-04-23_23h31.42.882,judgeSpeechMusic_20210407_logNormShiftAmp,2020.1.2,MacIntel,60,,,,,,,,,,,,,,2,7.65931,,0,0,111,111,38,1,stimuli/stim_20210407_power2amp/equal_lnn_AM1.8Hz_57.m4a,,,
,,,,,,,,,,,,41104,2021-04-23_23h31.42.882,judgeSpeechMusic_20210407_logNormShiftAmp,2020.1.2,MacIntel,60,,,,,,,,,,,,,,2,5.96001,,0,0,112,112,128,1,stimuli/stim_20210407_power2amp/equal_lnn_AM5.4Hz_76.m4a,,,
,,,,,,,,,,,,41104,2021-04-23_23h31.42.882,judgeSpeechMusic_20210407_logNormShiftAmp,2020.1.2,MacIntel,60,,,,,,,,,,,,,,2,5.94336,,0,0,113,113,75,1,stimuli/stim_20210407_power2amp/equal_lnn_AM3.6Hz_90.m4a,,,
,,,,,,,,,,,,41104,2021-04-23_23h31.42.882,judgeSpeechMusic_20210407_logNormShiftAmp,2020.1.2,MacIntel,60,,,,,,,,,,,,,,2,6.80696,,0,0,114,114,133,1,stimuli/stim_20210407_power2amp/equal_lnn_AM5.4Hz_6.m4a,,,
,,,,,,,,,,,,41104,2021-04-23_23h31.42.882,judgeSpeechMusic_20210407_logNormShiftAmp,2020.1.2,MacIntel,60,,,,,,,,,,,,,,1,6.4749,,0,0,115,115,138,1,stimuli/stim_20210407_power2amp/equal_lnn_AM6Hz_85.m4a,,,
,,,,,,,,,,,,41104,2021-04-23_23h31.42.882,judgeSpeechMusic_20210407_logNormShiftAmp,2020.1.2,MacIntel,60,,,,,,,,,,,,,,2,6.66008,,0,0,116,116,135,1,stimuli/stim_20210407_power2amp/equal_lnn_AM6Hz_58.m4a,,,
,,,,,,,,,,,,41104,2021-04-23_23h31.42.882,judgeSpeechMusic_20210407_logNormShiftAmp,2020.1.2,MacIntel,60,,,,,,,,,,,,,,2,6.593505,,0,0,117,117,116,1,stimuli/stim_20210407_power2amp/equal_lnn_AM4.8Hz_3.m4a,,,
,,,,,,,,,,,,41104,2021-04-23_23h31.42.882,judgeSpeechMusic_20210407_logNormShiftAmp,2020.1.2,MacIntel,60,,,,,,,,,,,,,,2,8.892815,,0,0,118,118,71,1,stimuli/stim_20210407_power2amp/equal_lnn_AM3Hz_5.m4a,,,
,,,,,,,,,,,,41104,2021-04-23_23h31.42.882,judgeSpeechMusic_20210407_logNormShiftAmp,2020.1.2,MacIntel,60,,,,,,,,,,,,,,1,5.82764,,0,0,119,119,49,1,stimuli/stim_20210407_power2amp/equal_lnn_AM2.4Hz_49.m4a,,,
,,,,,,,,,,,,41104,2021-04-23_23h31.42.882,judgeSpeechMusic_20210407_logNormShiftAmp,2020.1.2,MacIntel,60,,,,,,,,,,,,,,2,6.091755,,0,0,120,120,63,1,stimuli/stim_20210407_power2amp/equal_lnn_AM3Hz_90.m4a,,,
,,,,,,,,,,,,41104,2021-04-23_23h31.42.882,judgeSpeechMusic_20210407_logNormShiftAmp,2020.1.2,MacIntel,60,,,,,,,,,,,,,,2,7.22638,,0,0,121,121,64,1,stimuli/stim_20210407_power2amp/equal_lnn_AM3Hz_88.m4a,,,
,,,,,,,,,,,,41104,2021-04-23_23h31.42.882,judgeSpeechMusic_20210407_logNormShiftAmp,2020.1.2,MacIntel,60,,,,,,,,,,,,,,2,6.74197,,0,0,122,122,22,1,stimuli/stim_20210407_power2amp/equal_lnn_AM1.2Hz_58.m4a,,,
,,,,,,,,,,,,41104,2021-04-23_23h31.42.882,judgeSpeechMusic_20210407_logNormShiftAmp,2020.1.2,MacIntel,60,,,,,,,,,,,,,,2,6.109265,,0,0,123,123,47,1,stimuli/stim_20210407_power2amp/equal_lnn_AM2.4Hz_32.m4a,,,
,,,,,,,,,,,,41104,2021-04-23_23h31.42.882,judgeSpeechMusic_20210407_logNormShiftAmp,2020.1.2,MacIntel,60,,,,,,,,,,,,,,1,5.64346,,0,0,124,124,120,1,stimuli/stim_20210407_power2amp/equal_lnn_AM5.4Hz_31.m4a,,,
,,,,,,,,,,,,41104,2021-04-23_23h31.42.882,judgeSpeechMusic_20210407_logNormShiftAmp,2020.1.2,MacIntel,60,,,,,,,,,,,,,,2,13.64551,,0,0,125,125,32,1,stimuli/stim_20210407_power2amp/equal_lnn_AM1.8Hz_77.m4a,,,
,,,,,,,,,,,,41104,2021-04-23_23h31.42.882,judgeSpeechMusic_20210407_logNormShiftAmp,2020.1.2,MacIntel,60,,,,,,,,,,,,,,2,7.681855,2,1,0,126,126,105,1,stimuli/stim_20210407_power2amp/equal_lnn_AM4.8Hz_36.m4a,1.175495,,
,,,,,,,,,,,,41104,2021-04-23_23h31.42.882,judgeSpeechMusic_20210407_logNormShiftAmp,2020.1.2,MacIntel,60,,,,,,,,,,,,,,2,6.512255,,0,0,127,127,7,1,stimuli/stim_20210407_power2amp/equal_lnn_AM0.6Hz_28.m4a,,,
,,,,,,,,,,,,41104,2021-04-23_23h31.42.882,judgeSpeechMusic_20210407_logNormShiftAmp,2020.1.2,MacIntel,60,,,,,,,,,,,,,,2,7.322365,,0,0,128,128,114,1,stimuli/stim_20210407_power2amp/equal_lnn_AM4.8Hz_79.m4a,,,
,,,,,,,,,,,,41104,2021-04-23_23h31.42.882,judgeSpeechMusic_20210407_logNormShiftAmp,2020.1.2,MacIntel,60,,,,,,,,,,,,,,2,6.01177,,0,0,129,129,60,1,stimuli/stim_20210407_power2amp/equal_lnn_AM3Hz_47.m4a,,,
,,,,,,,,,,,,41104,2021-04-23_23h31.42.882,judgeSpeechMusic_20210407_logNormShiftAmp,2020.1.2,MacIntel,60,,,,,,,,,,,,,,2,7.542945,,0,0,130,130,102,1,stimuli/stim_20210407_power2amp/equal_lnn_AM4.2Hz_11.m4a,,,
,,,,,,,,,,,,41104,2021-04-23_23h31.42.882,judgeSpeechMusic_20210407_logNormShiftAmp,2020.1.2,MacIntel,60,,,,,,,,,,,,,,2,9.2268,,0,0,131,131,113,1,stimuli/stim_20210407_power2amp/equal_lnn_AM4.8Hz_65.m4a,,,
,,,,,,,,,,,,41104,2021-04-23_23h31.42.882,judgeSpeechMusic_20210407_logNormShiftAmp,2020.1.2,MacIntel,60,,,,,,,,,,,,,,2,9.660965,,0,0,132,132,115,1,stimuli/stim_20210407_power2amp/equal_lnn_AM4.8Hz_74.m4a,,,
,,,,,,,,,,,,41104,2021-04-23_23h31.42.882,judgeSpeechMusic_20210407_logNormShiftAmp,2020.1.2,MacIntel,60,,,,,,,,,,,,,,2,6.278345,,0,0,133,133,31,1,stimuli/stim_20210407_power2amp/equal_lnn_AM1.8Hz_58.m4a,,,
,,,,,,,,,,,,41104,2021-04-23_23h31.42.882,judgeSpeechMusic_20210407_logNormShiftAmp,2020.1.2,MacIntel,60,,,,,,,,,,,,,,1,6.0127,,0,0,134,134,0,1,stimuli/stim_20210407_power2amp/equal_lnn_AM0.6Hz_34.m4a,,,
,,,,,,,,,,,,41104,2021-04-23_23h31.42.882,judgeSpeechMusic_20210407_logNormShiftAmp,2020.1.2,MacIntel,60,,,,,,,,,,,,,,2,7.3428,,0,0,135,135,36,1,stimuli/stim_20210407_power2amp/equal_lnn_AM1.8Hz_14.m4a,,,
,,,,,,,,,,,,41104,2021-04-23_23h31.42.882,judgeSpeechMusic_20210407_logNormShiftAmp,2020.1.2,MacIntel,60,,,,,,,,,,,,,,2,7.07926,,0,0,136,136,26,1,stimuli/stim_20210407_power2amp/equal_lnn_AM1.2Hz_71.m4a,,,
,,,,,,,,,,,,41104,2021-04-23_23h31.42.882,judgeSpeechMusic_20210407_logNormShiftAmp,2020.1.2,MacIntel,60,,,,,,,,,,,,,,2,6.3616,,0,0,137,137,122,1,stimuli/stim_20210407_power2amp/equal_lnn_AM5.4Hz_56.m4a,,,
,,,,,,,,,,,,41104,2021-04-23_23h31.42.882,judgeSpeechMusic_20210407_logNormShiftAmp,2020.1.2,MacIntel,60,,,,,,,,,,,,,,2,14.842455,,0,0,138,138,134,1,stimuli/stim_20210407_power2amp/equal_lnn_AM5.4Hz_35.m4a,,,
,,,,,,,,,,,,41104,2021-04-23_23h31.42.882,judgeSpeechMusic_20210407_logNormShiftAmp,2020.1.2,MacIntel,60,,,,,,,,,,,,,,2,8.677,,0,0,139,139,104,1,stimuli/stim_20210407_power2amp/equal_lnn_AM4.2Hz_16.m4a,,,
,,,,,,,,,,,,41104,2021-04-23_23h31.42.882,judgeSpeechMusic_20210407_logNormShiftAmp,2020.1.2,MacIntel,60,,,,,,,,,,,,,,2,7.922585,,0,0,140,140,100,1,stimuli/stim_20210407_power2amp/equal_lnn_AM4.2Hz_58.m4a,,,
,,,,,,,,,,,,41104,2021-04-23_23h31.42.882,judgeSpeechMusic_20210407_logNormShiftAmp,2020.1.2,MacIntel,60,,,,,,,,,,,,,,2,7.278395,,0,0,141,141,33,1,stimuli/stim_20210407_power2amp/equal_lnn_AM1.8Hz_44.m4a,,,
,,,,,,,,,,,,41104,2021-04-23_23h31.42.882,judgeSpeechMusic_20210407_logNormShiftAmp,2020.1.2,MacIntel,60,,,,,,,,,,,,,,2,7.52662,,0,0,142,142,56,1,stimuli/stim_20210407_power2amp/equal_lnn_AM2.4Hz_41.m4a,,,
,,,,,,,,,,,,41104,2021-04-23_23h31.42.882,judgeSpeechMusic_20210407_logNormShiftAmp,2020.1.2,MacIntel,60,,,,,,,,,,,,,,2,10.523925,,0,0,143,143,67,1,stimuli/stim_20210407_power2amp/equal_lnn_AM3Hz_8.m4a,,,
,,,,,,,,,,,,41104,2021-04-23_23h31.42.882,judgeSpeechMusic_20210407_logNormShiftAmp,2020.1.2,MacIntel,60,,,,,,,,,,,,,,2,6.87658,,0,0,144,144,80,1,stimuli/stim_20210407_power2amp/equal_lnn_AM3.6Hz_27.m4a,,,
,,,,,,,,,,,,41104,2021-04-23_23h31.42.882,judgeSpeechMusic_20210407_logNormShiftAmp,2020.1.2,MacIntel,60,,,,,,,,,,,,,,2,7.280105,,0,0,145,145,52,1,stimuli/stim_20210407_power2amp/equal_lnn_AM2.4Hz_85.m4a,,,
,,,,,,,,,,,,41104,2021-04-23_23h31.42.882,judgeSpeechMusic_20210407_logNormShiftAmp,2020.1.2,MacIntel,60,,,,,,,,,,,,,,2,10.524465,3,1,0,146,146,12,1,stimuli/stim_20210407_power2amp/equal_lnn_AM0.6Hz_14.m4a,1.87995,,
,,,,,,,,,,,,41104,2021-04-23_23h31.42.882,judgeSpeechMusic_20210407_logNormShiftAmp,2020.1.2,MacIntel,60,,,,,,,,,,,,,,1,6.51006,,0,0,147,147,66,1,stimuli/stim_20210407_power2amp/equal_lnn_AM3Hz_9.m4a,,,
,,,,,,,,,,,,41104,2021-04-23_23h31.42.882,judgeSpeechMusic_20210407_logNormShiftAmp,2020.1.2,MacIntel,60,,,,,,,,,,,,,,2,6.693005,,0,0,148,148,117,1,stimuli/stim_20210407_power2amp/equal_lnn_AM4.8Hz_78.m4a,,,
,,,,,,,,,,,,41104,2021-04-23_23h31.42.882,judgeSpeechMusic_20210407_logNormShiftAmp,2020.1.2,MacIntel,60,,,,,,,,,,,,,,2,6.09333,,0,0,149,149,70,1,stimuli/stim_20210407_power2amp/equal_lnn_AM3Hz_62.m4a,,,
,,,,,,,,,,,,41104,2021-04-23_23h31.42.882,judgeSpeechMusic_20210407_logNormShiftAmp,2020.1.2,MacIntel,60,,,,,,,,,,,,,,2,6.12487,,0,1,0,150,8,1,stimuli/stim_20210407_power2amp/equal_lnn_AM0.6Hz_12.m4a,,,
,,,,,,,,,,,,41104,2021-04-23_23h31.42.882,judgeSpeechMusic_20210407_logNormShiftAmp,2020.1.2,MacIntel,60,,,,,,,,,,,,,,2,7.09178,,0,1,1,151,59,1,stimuli/stim_20210407_power2amp/equal_lnn_AM2.4Hz_58.m4a,,,
,,,,,,,,,,,,41104,2021-04-23_23h31.42.882,judgeSpeechMusic_20210407_logNormShiftAmp,2020.1.2,MacIntel,60,,,,,,,,,,,,,,2,6.822525,,0,1,2,152,65,1,stimuli/stim_20210407_power2amp/equal_lnn_AM3Hz_38.m4a,,,
,,,,,,,,,,,,41104,2021-04-23_23h31.42.882,judgeSpeechMusic_20210407_logNormShiftAmp,2020.1.2,MacIntel,60,,,,,,,,,,,,,,1,7.17888,,0,1,3,153,137,1,stimuli/stim_20210407_power2amp/equal_lnn_AM6Hz_30.m4a,,,
,,,,,,,,,,,,41104,2021-04-23_23h31.42.882,judgeSpeechMusic_20210407_logNormShiftAmp,2020.1.2,MacIntel,60,,,,,,,,,,,,,,1,5.44287,,0,1,4,154,44,1,stimuli/stim_20210407_power2amp/equal_lnn_AM1.8Hz_53.m4a,,,
,,,,,,,,,,,,41104,2021-04-23_23h31.42.882,judgeSpeechMusic_20210407_logNormShiftAmp,2020.1.2,MacIntel,60,,,,,,,,,,,,,,1,5.943445,,0,1,5,155,81,1,stimuli/stim_20210407_power2amp/equal_lnn_AM3.6Hz_19.m4a,,,
,,,,,,,,,,,,41104,2021-04-23_23h31.42.882,judgeSpeechMusic_20210407_logNormShiftAmp,2020.1.2,MacIntel,60,,,,,,,,,,,,,,1,5.98916,,0,1,6,156,93,1,stimuli/stim_20210407_power2amp/equal_lnn_AM4.2Hz_31.m4a,,,
,,,,,,,,,,,,41104,2021-04-23_23h31.42.882,judgeSpeechMusic_20210407_logNormShiftAmp,2020.1.2,MacIntel,60,,,,,,,,,,,,,,2,8.080425,,0,1,7,157,66,1,stimuli/stim_20210407_power2amp/equal_lnn_AM3Hz_9.m4a,,,
,,,,,,,,,,,,41104,2021-04-23_23h31.42.882,judgeSpeechMusic_20210407_logNormShiftAmp,2020.1.2,MacIntel,60,,,,,,,,,,,,,,2,6.24217,,0,1,8,158,84,1,stimuli/stim_20210407_power2amp/equal_lnn_AM3.6Hz_100.m4a,,,
,,,,,,,,,,,,41104,2021-04-23_23h31.42.882,judgeSpeechMusic_20210407_logNormShiftAmp,2020.1.2,MacIntel,60,,,,,,,,,,,,,,2,9.62898,,0,1,9,159,45,1,stimuli/stim_20210407_power2amp/equal_lnn_AM2.4Hz_91.m4a,,,
,,,,,,,,,,,,41104,2021-04-23_23h31.42.882,judgeSpeechMusic_20210407_logNormShiftAmp,2020.1.2,MacIntel,60,,,,,,,,,,,,,,2,7.677135,,0,1,10,160,47,1,stimuli/stim_20210407_power2amp/equal_lnn_AM2.4Hz_32.m4a,,,
,,,,,,,,,,,,41104,2021-04-23_23h31.42.882,judgeSpeechMusic_20210407_logNormShiftAmp,2020.1.2,MacIntel,60,,,,,,,,,,,,,,2,6.40496,,0,1,11,161,125,1,stimuli/stim_20210407_power2amp/equal_lnn_AM5.4Hz_23.m4a,,,
,,,,,,,,,,,,41104,2021-04-23_23h31.42.882,judgeSpeechMusic_20210407_logNormShiftAmp,2020.1.2,MacIntel,60,,,,,,,,,,,,,,2,15.24219,,0,1,12,162,94,1,stimuli/stim_20210407_power2amp/equal_lnn_AM4.2Hz_71.m4a,,,
,,,,,,,,,,,,41104,2021-04-23_23h31.42.882,judgeSpeechMusic_20210407_logNormShiftAmp,2020.1.2,MacIntel,60,,,,,,,,,,,,,,2,32.125265,,0,1,13,163,148,1,stimuli/stim_20210407_power2amp/equal_lnn_AM6Hz_63.m4a,,,
,,,,,,,,,,,,41104,2021-04-23_23h31.42.882,judgeSpeechMusic_20210407_logNormShiftAmp,2020.1.2,MacIntel,60,,,,,,,,,,,,,,2,6.49196,,0,1,14,164,63,1,stimuli/stim_20210407_power2amp/equal_lnn_AM3Hz_90.m4a,,,
,,,,,,,,,,,,41104,2021-04-23_23h31.42.882,judgeSpeechMusic_20210407_logNormShiftAmp,2020.1.2,MacIntel,60,,,,,,,,,,,,,,2,8.65982,,0,1,15,165,24,1,stimuli/stim_20210407_power2amp/equal_lnn_AM1.2Hz_68.m4a,,,
,,,,,,,,,,,,41104,2021-04-23_23h31.42.882,judgeSpeechMusic_20210407_logNormShiftAmp,2020.1.2,MacIntel,60,,,,,,,,,,,,,,2,6.72579,,0,1,16,166,117,1,stimuli/stim_20210407_power2amp/equal_lnn_AM4.8Hz_78.m4a,,,
,,,,,,,,,,,,41104,2021-04-23_23h31.42.882,judgeSpeechMusic_20210407_logNormShiftAmp,2020.1.2,MacIntel,60,,,,,,,,,,,,,,2,5.793845,,0,1,17,167,129,1,stimuli/stim_20210407_power2amp/equal_lnn_AM5.4Hz_50.m4a,,,
,,,,,,,,,,,,41104,2021-04-23_23h31.42.882,judgeSpeechMusic_20210407_logNormShiftAmp,2020.1.2,MacIntel,60,,,,,,,,,,,,,,2,6.27875,,0,1,18,168,116,1,stimuli/stim_20210407_power2amp/equal_lnn_AM4.8Hz_3.m4a,,,
,,,,,,,,,,,,41104,2021-04-23_23h31.42.882,judgeSpeechMusic_20210407_logNormShiftAmp,2020.1.2,MacIntel,60,,,,,,,,,,,,,,2,16.638235,,0,1,19,169,52,1,stimuli/stim_20210407_power2amp/equal_lnn_AM2.4Hz_85.m4a,,,
,,,,,,,,,,,,41104,2021-04-23_23h31.42.882,judgeSpeechMusic_20210407_logNormShiftAmp,2020.1.2,MacIntel,60,,,,,,,,,,,,,,2,21.859325,1,1,1,20,170,21,1,stimuli/stim_20210407_power2amp/equal_lnn_AM1.2Hz_13.m4a,2.648985,,
,,,,,,,,,,,,41104,2021-04-23_23h31.42.882,judgeSpeechMusic_20210407_logNormShiftAmp,2020.1.2,MacIntel,60,,,,,,,,,,,,,,2,12.031435,,0,1,21,171,16,1,stimuli/stim_20210407_power2amp/equal_lnn_AM1.2Hz_14.m4a,,,
,,,,,,,,,,,,41104,2021-04-23_23h31.42.882,judgeSpeechMusic_20210407_logNormShiftAmp,2020.1.2,MacIntel,60,,,,,,,,,,,,,,2,7.024385,,0,1,22,172,38,1,stimuli/stim_20210407_power2amp/equal_lnn_AM1.8Hz_57.m4a,,,
,,,,,,,,,,,,41104,2021-04-23_23h31.42.882,judgeSpeechMusic_20210407_logNormShiftAmp,2020.1.2,MacIntel,60,,,,,,,,,,,,,,2,6.725725,,0,1,23,173,136,1,stimuli/stim_20210407_power2amp/equal_lnn_AM6Hz_57.m4a,,,
,,,,,,,,,,,,41104,2021-04-23_23h31.42.882,judgeSpeechMusic_20210407_logNormShiftAmp,2020.1.2,MacIntel,60,,,,,,,,,,,,,,2,10.2244,,0,1,24,174,80,1,stimuli/stim_20210407_power2amp/equal_lnn_AM3.6Hz_27.m4a,,,
,,,,,,,,,,,,41104,2021-04-23_23h31.42.882,judgeSpeechMusic_20210407_logNormShiftAmp,2020.1.2,MacIntel,60,,,,,,,,,,,,,,2,6.39256,,0,1,25,175,88,1,stimuli/stim_20210407_power2amp/equal_lnn_AM3.6Hz_49.m4a,,,
,,,,,,,,,,,,41104,2021-04-23_23h31.42.882,judgeSpeechMusic_20210407_logNormShiftAmp,2020.1.2,MacIntel,60,,,,,,,,,,,,,,2,6.27807,,0,1,26,176,13,1,stimuli/stim_20210407_power2amp/equal_lnn_AM0.6Hz_19.m4a,,,
,,,,,,,,,,,,41104,2021-04-23_23h31.42.882,judgeSpeechMusic_20210407_logNormShiftAmp,2020.1.2,MacIntel,60,,,,,,,,,,,,,,2,6.9109,,0,1,27,177,71,1,stimuli/stim_20210407_power2amp/equal_lnn_AM3Hz_5.m4a,,,
,,,,,,,,,,,,41104,2021-04-23_23h31.42.882,judgeSpeechMusic_20210407_logNormShiftAmp,2020.1.2,MacIntel,60,,,,,,,,,,,,,,2,8.90886,,0,1,28,178,10,1,stimuli/stim_20210407_power2amp/equal_lnn_AM0.6Hz_66.m4a,,,
,,,,,,,,,,,,41104,2021-04-23_23h31.42.882,judgeSpeechMusic_20210407_logNormShiftAmp,2020.1.2,MacIntel,60,,,,,,,,,,,,,,1,6.409975,,0,1,29,179,70,1,stimuli/stim_20210407_power2amp/equal_lnn_AM3Hz_62.m4a,,,
,,,,,,,,,,,,41104,2021-04-23_23h31.42.882,judgeSpeechMusic_20210407_logNormShiftAmp,2020.1.2,MacIntel,60,,,,,,,,,,,,,,1,6.712535,,0,1,30,180,131,1,stimuli/stim_20210407_power2amp/equal_lnn_AM5.4Hz_79.m4a,,,
,,,,,,,,,,,,41104,2021-04-23_23h31.42.882,judgeSpeechMusic_20210407_logNormShiftAmp,2020.1.2,MacIntel,60,,,,,,,,,,,,,,1,11.622075,,0,1,31,181,91,1,stimuli/stim_20210407_power2amp/equal_lnn_AM4.2Hz_20.m4a,,,
,,,,,,,,,,,,41104,2021-04-23_23h31.42.882,judgeSpeechMusic_20210407_logNormShiftAmp,2020.1.2,MacIntel,60,,,,,,,,,,,,,,2,6.45879,,0,1,32,182,79,1,stimuli/stim_20210407_power2amp/equal_lnn_AM3.6Hz_53.m4a,,,
,,,,,,,,,,,,41104,2021-04-23_23h31.42.882,judgeSpeechMusic_20210407_logNormShiftAmp,2020.1.2,MacIntel,60,,,,,,,,,,,,,,2,6.24411,,0,1,33,183,107,1,stimuli/stim_20210407_power2amp/equal_lnn_AM4.8Hz_58.m4a,,,
,,,,,,,,,,,,41104,2021-04-23_23h31.42.882,judgeSpeechMusic_20210407_logNormShiftAmp,2020.1.2,MacIntel,60,,,,,,,,,,,,,,2,6.17797,,0,1,34,184,20,1,stimuli/stim_20210407_power2amp/equal_lnn_AM1.2Hz_26.m4a,,,
,,,,,,,,,,,,41104,2021-04-23_23h31.42.882,judgeSpeechMusic_20210407_logNormShiftAmp,2020.1.2,MacIntel,60,,,,,,,,,,,,,,2,7.29441,,0,1,35,185,32,1,stimuli/stim_20210407_power2amp/equal_lnn_AM1.8Hz_77.m4a,,,
,,,,,,,,,,,,41104,2021-04-23_23h31.42.882,judgeSpeechMusic_20210407_logNormShiftAmp,2020.1.2,MacIntel,60,,,,,,,,,,,,,,2,9.47579,,0,1,36,186,17,1,stimuli/stim_20210407_power2amp/equal_lnn_AM1.2Hz_76.m4a,,,
,,,,,,,,,,,,41104,2021-04-23_23h31.42.882,judgeSpeechMusic_20210407_logNormShiftAmp,2020.1.2,MacIntel,60,,,,,,,,,,,,,,2,8.326065,,0,1,37,187,118,1,stimuli/stim_20210407_power2amp/equal_lnn_AM4.8Hz_91.m4a,,,
,,,,,,,,,,,,41104,2021-04-23_23h31.42.882,judgeSpeechMusic_20210407_logNormShiftAmp,2020.1.2,MacIntel,60,,,,,,,,,,,,,,2,6.52511,,0,1,38,188,54,1,stimuli/stim_20210407_power2amp/equal_lnn_AM2.4Hz_66.m4a,,,
,,,,,,,,,,,,41104,2021-04-23_23h31.42.882,judgeSpeechMusic_20210407_logNormShiftAmp,2020.1.2,MacIntel,60,,,,,,,,,,,,,,2,6.45948,,0,1,39,189,133,1,stimuli/stim_20210407_power2amp/equal_lnn_AM5.4Hz_6.m4a,,,
,,,,,,,,,,,,41104,2021-04-23_23h31.42.882,judgeSpeechMusic_20210407_logNormShiftAmp,2020.1.2,MacIntel,60,,,,,,,,,,,,,,2,7.026365,,0,1,40,190,111,1,stimuli/stim_20210407_power2amp/equal_lnn_AM4.8Hz_54.m4a,,,
,,,,,,,,,,,,41104,2021-04-23_23h31.42.882,judgeSpeechMusic_20210407_logNormShiftAmp,2020.1.2,MacIntel,60,,,,,,,,,,,,,,2,5.85891,,0,1,41,191,87,1,stimuli/stim_20210407_power2amp/equal_lnn_AM3.6Hz_93.m4a,,,
,,,,,,,,,,,,41104,2021-04-23_23h31.42.882,judgeSpeechMusic_20210407_logNormShiftAmp,2020.1.2,MacIntel,60,,,,,,,,,,,,,,2,6.35992,2,1,1,42,192,76,1,stimuli/stim_20210407_power2amp/equal_lnn_AM3.6Hz_11.m4a,1.478675,,
,,,,,,,,,,,,41104,2021-04-23_23h31.42.882,judgeSpeechMusic_20210407_logNormShiftAmp,2020.1.2,MacIntel,60,,,,,,,,,,,,,,2,11.629685,,0,1,43,193,127,1,stimuli/stim_20210407_power2amp/equal_lnn_AM5.4Hz_70.m4a,,,
,,,,,,,,,,,,41104,2021-04-23_23h31.42.882,judgeSpeechMusic_20210407_logNormShiftAmp,2020.1.2,MacIntel,60,,,,,,,,,,,,,,2,6.427535,,0,1,44,194,36,1,stimuli/stim_20210407_power2amp/equal_lnn_AM1.8Hz_14.m4a,,,
,,,,,,,,,,,,41104,2021-04-23_23h31.42.882,judgeSpeechMusic_20210407_logNormShiftAmp,2020.1.2,MacIntel,60,,,,,,,,,,,,,,2,5.80817,,0,1,45,195,28,1,stimuli/stim_20210407_power2amp/equal_lnn_AM1.2Hz_52.m4a,,,
,,,,,,,,,,,,41104,2021-04-23_23h31.42.882,judgeSpeechMusic_20210407_logNormShiftAmp,2020.1.2,MacIntel,60,,,,,,,,,,,,,,2,7.31265,,0,1,46,196,1,1,stimuli/stim_20210407_power2amp/equal_lnn_AM0.6Hz_10.m4a,,,
,,,,,,,,,,,,41104,2021-04-23_23h31.42.882,judgeSpeechMusic_20210407_logNormShiftAmp,2020.1.2,MacIntel,60,,,,,,,,,,,,,,2,6.1103,,0,1,47,197,72,1,stimuli/stim_20210407_power2amp/equal_lnn_AM3Hz_58.m4a,,,
,,,,,,,,,,,,41104,2021-04-23_23h31.42.882,judgeSpeechMusic_20210407_logNormShiftAmp,2020.1.2,MacIntel,60,,,,,,,,,,,,,,2,7.927175,,0,1,48,198,135,1,stimuli/stim_20210407_power2amp/equal_lnn_AM6Hz_58.m4a,,,
,,,,,,,,,,,,41104,2021-04-23_23h31.42.882,judgeSpeechMusic_20210407_logNormShiftAmp,2020.1.2,MacIntel,60,,,,,,,,,,,,,,2,9.14611,,0,1,49,199,48,1,stimuli/stim_20210407_power2amp/equal_lnn_AM2.4Hz_79.m4a,,,
,,,,,,,,,,,,41104,2021-04-23_23h31.42.882,judgeSpeechMusic_20210407_logNormShiftAmp,2020.1.2,MacIntel,60,,,,,,,,,,,,,,2,11.310255,,0,1,50,200,134,1,stimuli/stim_20210407_power2amp/equal_lnn_AM5.4Hz_35.m4a,,,
,,,,,,,,,,,,41104,2021-04-23_23h31.42.882,judgeSpeechMusic_20210407_logNormShiftAmp,2020.1.2,MacIntel,60,,,,,,,,,,,,,,1,31.44666,,0,1,51,201,95,1,stimuli/stim_20210407_power2amp/equal_lnn_AM4.2Hz_15.m4a,,,
,,,,,,,,,,,,41104,2021-04-23_23h31.42.882,judgeSpeechMusic_20210407_logNormShiftAmp,2020.1.2,MacIntel,60,,,,,,,,,,,,,,2,9.492535,,0,1,52,202,49,1,stimuli/stim_20210407_power2amp/equal_lnn_AM2.4Hz_49.m4a,,,
,,,,,,,,,,,,41104,2021-04-23_23h31.42.882,judgeSpeechMusic_20210407_logNormShiftAmp,2020.1.2,MacIntel,60,,,,,,,,,,,,,,2,11.628145,,0,1,53,203,68,1,stimuli/stim_20210407_power2amp/equal_lnn_AM3Hz_17.m4a,,,
,,,,,,,,,,,,41104,2021-04-23_23h31.42.882,judgeSpeechMusic_20210407_logNormShiftAmp,2020.1.2,MacIntel,60,,,,,,,,,,,,,,2,14.22539,,0,1,54,204,39,1,stimuli/stim_20210407_power2amp/equal_lnn_AM1.8Hz_65.m4a,,,
,,,,,,,,,,,,41104,2021-04-23_23h31.42.882,judgeSpeechMusic_20210407_logNormShiftAmp,2020.1.2,MacIntel,60,,,,,,,,,,,,,,2,24.024845,,0,1,55,205,83,1,stimuli/stim_20210407_power2amp/equal_lnn_AM3.6Hz_89.m4a,,,
,,,,,,,,,,,,41104,2021-04-23_23h31.42.882,judgeSpeechMusic_20210407_logNormShiftAmp,2020.1.2,MacIntel,60,,,,,,,,,,,,,,2,11.554725,,0,1,56,206,35,1,stimuli/stim_20210407_power2amp/equal_lnn_AM1.8Hz_38.m4a,,,
,,,,,,,,,,,,41104,2021-04-23_23h31.42.882,judgeSpeechMusic_20210407_logNormShiftAmp,2020.1.2,MacIntel,60,,,,,,,,,,,,,,2,35.742895,,0,1,57,207,92,1,stimuli/stim_20210407_power2amp/equal_lnn_AM4.2Hz_54.m4a,,,
,,,,,,,,,,,,41104,2021-04-23_23h31.42.882,judgeSpeechMusic_20210407_logNormShiftAmp,2020.1.2,MacIntel,60,,,,,,,,,,,,,,2,32.924205,,0,1,58,208,109,1,stimuli/stim_20210407_power2amp/equal_lnn_AM4.8Hz_39.m4a,,,
,,,,,,,,,,,,41104,2021-04-23_23h31.42.882,judgeSpeechMusic_20210407_logNormShiftAmp,2020.1.2,MacIntel,60,,,,,,,,,,,,,,2,6.776005,,0,1,59,209,56,1,stimuli/stim_20210407_power2amp/equal_lnn_AM2.4Hz_41.m4a,,,
,,,,,,,,,,,,41104,2021-04-23_23h31.42.882,judgeSpeechMusic_20210407_logNormShiftAmp,2020.1.2,MacIntel,60,,,,,,,,,,,,,,2,6.56181,,0,1,60,210,123,1,stimuli/stim_20210407_power2amp/equal_lnn_AM5.4Hz_36.m4a,,,
,,,,,,,,,,,,41104,2021-04-23_23h31.42.882,judgeSpeechMusic_20210407_logNormShiftAmp,2020.1.2,MacIntel,60,,,,,,,,,,,,,,2,7.99326,,0,1,61,211,120,1,stimuli/stim_20210407_power2amp/equal_lnn_AM5.4Hz_31.m4a,,,
,,,,,,,,,,,,41104,2021-04-23_23h31.42.882,judgeSpeechMusic_20210407_logNormShiftAmp,2020.1.2,MacIntel,60,,,,,,,,,,,,,,2,10.294565,,0,1,62,212,103,1,stimuli/stim_20210407_power2amp/equal_lnn_AM4.2Hz_49.m4a,,,
,,,,,,,,,,,,41104,2021-04-23_23h31.42.882,judgeSpeechMusic_20210407_logNormShiftAmp,2020.1.2,MacIntel,60,,,,,,,,,,,,,,2,8.20881,,0,1,63,213,53,1,stimuli/stim_20210407_power2amp/equal_lnn_AM2.4Hz_94.m4a,,,
,,,,,,,,,,,,41104,2021-04-23_23h31.42.882,judgeSpeechMusic_20210407_logNormShiftAmp,2020.1.2,MacIntel,60,,,,,,,,,,,,,,2,7.74405,1,1,1,64,214,138,1,stimuli/stim_20210407_power2amp/equal_lnn_AM6Hz_85.m4a,0.84638,,
,,,,,,,,,,,,41104,2021-04-23_23h31.42.882,judgeSpeechMusic_20210407_logNormShiftAmp,2020.1.2,MacIntel,60,,,,,,,,,,,,,,2,6.06154,,0,1,65,215,99,1,stimuli/stim_20210407_power2amp/equal_lnn_AM4.2Hz_42.m4a,,,
,,,,,,,,,,,,41104,2021-04-23_23h31.42.882,judgeSpeechMusic_20210407_logNormShiftAmp,2020.1.2,MacIntel,60,,,,,,,,,,,,,,2,16.22769,,0,1,66,216,27,1,stimuli/stim_20210407_power2amp/equal_lnn_AM1.2Hz_65.m4a,,,
,,,,,,,,,,,,41104,2021-04-23_23h31.42.882,judgeSpeechMusic_20210407_logNormShiftAmp,2020.1.2,MacIntel,60,,,,,,,,,,,,,,2,18.94566,,0,1,67,217,3,1,stimuli/stim_20210407_power2amp/equal_lnn_AM0.6Hz_84.m4a,,,
,,,,,,,,,,,,41104,2021-04-23_23h31.42.882,judgeSpeechMusic_20210407_logNormShiftAmp,2020.1.2,MacIntel,60,,,,,,,,,,,,,,2,11.27412,,0,1,68,218,104,1,stimuli/stim_20210407_power2amp/equal_lnn_AM4.2Hz_16.m4a,,,
,,,,,,,,,,,,41104,2021-04-23_23h31.42.882,judgeSpeechMusic_20210407_logNormShiftAmp,2020.1.2,MacIntel,60,,,,,,,,,,,,,,2,17.925085,,0,1,69,219,119,1,stimuli/stim_20210407_power2amp/equal_lnn_AM4.8Hz_76.m4a,,,
,,,,,,,,,,,,41104,2021-04-23_23h31.42.882,judgeSpeechMusic_20210407_logNormShiftAmp,2020.1.2,MacIntel,60,,,,,,,,,,,,,,2,8.360715,,0,1,70,220,23,1,stimuli/stim_20210407_power2amp/equal_lnn_AM1.2Hz_69.m4a,,,
,,,,,,,,,,,,41104,2021-04-23_23h31.42.882,judgeSpeechMusic_20210407_logNormShiftAmp,2020.1.2,MacIntel,60,,,,,,,,,,,,,,2,6.02343,,0,1,71,221,113,1,stimuli/stim_20210407_power2amp/equal_lnn_AM4.8Hz_65.m4a,,,
,,,,,,,,,,,,41104,2021-04-23_23h31.42.882,judgeSpeechMusic_20210407_logNormShiftAmp,2020.1.2,MacIntel,60,,,,,,,,,,,,,,2,6.358415,,0,1,72,222,102,1,stimuli/stim_20210407_power2amp/equal_lnn_AM4.2Hz_11.m4a,,,
,,,,,,,,,,,,41104,2021-04-23_23h31.42.882,judgeSpeechMusic_20210407_logNormShiftAmp,2020.1.2,MacIntel,60,,,,,,,,,,,,,,2,7.69468,,0,1,73,223,25,1,stimuli/stim_20210407_power2amp/equal_lnn_AM1.2Hz_90.m4a,,,
,,,,,,,,,,,,41104,2021-04-23_23h31.42.882,judgeSpeechMusic_20210407_logNormShiftAmp,2020.1.2,MacIntel,60,,,,,,,,,,,,,,2,13.913355,,0,1,74,224,108,1,stimuli/stim_20210407_power2amp/equal_lnn_AM4.8Hz_24.m4a,,,
,,,,,,,,,,,,41104,2021-04-23_23h31.42.882,judgeSpeechMusic_20210407_logNormShiftAmp,2020.1.2,MacIntel,60,,,,,,,,,,,,,,2,9.57758,,0,1,75,225,2,1,stimuli/stim_20210407_power2amp/equal_lnn_AM0.6Hz_45.m4a,,,
,,,,,,,,,,,,41104,2021-04-23_23h31.42.882,judgeSpeechMusic_20210407_logNormShiftAmp,2020.1.2,MacIntel,60,,,,,,,,,,,,,,2,9.927865,,0,1,76,226,58,1,stimuli/stim_20210407_power2amp/equal_lnn_AM2.4Hz_54.m4a,,,
,,,,,,,,,,,,41104,2021-04-23_23h31.42.882,judgeSpeechMusic_20210407_logNormShiftAmp,2020.1.2,MacIntel,60,,,,,,,,,,,,,,2,17.89467,,0,1,77,227,11,1,stimuli/stim_20210407_power2amp/equal_lnn_AM0.6Hz_94.m4a,,,
,,,,,,,,,,,,41104,2021-04-23_23h31.42.882,judgeSpeechMusic_20210407_logNormShiftAmp,2020.1.2,MacIntel,60,,,,,,,,,,,,,,2,7.290275,,0,1,78,228,98,1,stimuli/stim_20210407_power2amp/equal_lnn_AM4.2Hz_66.m4a,,,
,,,,,,,,,,,,41104,2021-04-23_23h31.42.882,judgeSpeechMusic_20210407_logNormShiftAmp,2020.1.2,MacIntel,60,,,,,,,,,,,,,,2,7.92749,,0,1,79,229,124,1,stimuli/stim_20210407_power2amp/equal_lnn_AM5.4Hz_61.m4a,,,
,,,,,,,,,,,,41104,2021-04-23_23h31.42.882,judgeSpeechMusic_20210407_logNormShiftAmp,2020.1.2,MacIntel,60,,,,,,,,,,,,,,2,34.70979,,0,1,80,230,139,1,stimuli/stim_20210407_power2amp/equal_lnn_AM6Hz_9.m4a,,,
,,,,,,,,,,,,41104,2021-04-23_23h31.42.882,judgeSpeechMusic_20210407_logNormShiftAmp,2020.1.2,MacIntel,60,,,,,,,,,,,,,,2,6.74817,,0,1,81,231,130,1,stimuli/stim_20210407_power2amp/equal_lnn_AM5.4Hz_44.m4a,,,
,,,,,,,,,,,,41104,2021-04-23_23h31.42.882,judgeSpeechMusic_20210407_logNormShiftAmp,2020.1.2,MacIntel,60,,,,,,,,,,,,,,2,7.643845,,0,1,82,232,110,1,stimuli/stim_20210407_power2amp/equal_lnn_AM4.8Hz_18.m4a,,,
,,,,,,,,,,,,41104,2021-04-23_23h31.42.882,judgeSpeechMusic_20210407_logNormShiftAmp,2020.1.2,MacIntel,60,,,,,,,,,,,,,,2,7.510035,,0,1,83,233,126,1,stimuli/stim_20210407_power2amp/equal_lnn_AM5.4Hz_34.m4a,,,
,,,,,,,,,,,,41104,2021-04-23_23h31.42.882,judgeSpeechMusic_20210407_logNormShiftAmp,2020.1.2,MacIntel,60,,,,,,,,,,,,,,2,12.377535,,0,1,84,234,55,1,stimuli/stim_20210407_power2amp/equal_lnn_AM2.4Hz_46.m4a,,,
,,,,,,,,,,,,41104,2021-04-23_23h31.42.882,judgeSpeechMusic_20210407_logNormShiftAmp,2020.1.2,MacIntel,60,,,,,,,,,,,,,,2,22.624885,,0,1,85,235,12,1,stimuli/stim_20210407_power2amp/equal_lnn_AM0.6Hz_14.m4a,,,
,,,,,,,,,,,,41104,2021-04-23_23h31.42.882,judgeSpeechMusic_20210407_logNormShiftAmp,2020.1.2,MacIntel,60,,,,,,,,,,,,,,2,31.09355,,0,1,86,236,112,1,stimuli/stim_20210407_power2amp/equal_lnn_AM4.8Hz_70.m4a,,,
,,,,,,,,,,,,41104,2021-04-23_23h31.42.882,judgeSpeechMusic_20210407_logNormShiftAmp,2020.1.2,MacIntel,60,,,,,,,,,,,,,,2,16.192335,,0,1,87,237,101,1,stimuli/stim_20210407_power2amp/equal_lnn_AM4.2Hz_96.m4a,,,
,,,,,,,,,,,,41104,2021-04-23_23h31.42.882,judgeSpeechMusic_20210407_logNormShiftAmp,2020.1.2,MacIntel,60,,,,,,,,,,,,,,2,23.874905,,0,1,88,238,64,1,stimuli/stim_20210407_power2amp/equal_lnn_AM3Hz_88.m4a,,,
,,,,,,,,,,,,41104,2021-04-23_23h31.42.882,judgeSpeechMusic_20210407_logNormShiftAmp,2020.1.2,MacIntel,60,,,,,,,,,,,,,,1,6.779125,3,1,1,89,239,5,1,stimuli/stim_20210407_power2amp/equal_lnn_AM0.6Hz_11.m4a,2.3454,,
,,,,,,,,,,,,41104,2021-04-23_23h31.42.882,judgeSpeechMusic_20210407_logNormShiftAmp,2020.1.2,MacIntel,60,,,,,,,,,,,,,,1,6.931165,,0,1,90,240,46,1,stimuli/stim_20210407_power2amp/equal_lnn_AM2.4Hz_60.m4a,,,
,,,,,,,,,,,,41104,2021-04-23_23h31.42.882,judgeSpeechMusic_20210407_logNormShiftAmp,2020.1.2,MacIntel,60,,,,,,,,,,,,,,1,5.67237,,0,1,91,241,142,1,stimuli/stim_20210407_power2amp/equal_lnn_AM6Hz_11.m4a,,,
,,,,,,,,,,,,41104,2021-04-23_23h31.42.882,judgeSpeechMusic_20210407_logNormShiftAmp,2020.1.2,MacIntel,60,,,,,,,,,,,,,,2,8.42322,,0,1,92,242,67,1,stimuli/stim_20210407_power2amp/equal_lnn_AM3Hz_8.m4a,,,
,,,,,,,,,,,,41104,2021-04-23_23h31.42.882,judgeSpeechMusic_20210407_logNormShiftAmp,2020.1.2,MacIntel,60,,,,,,,,,,,,,,2,10.86058,,0,1,93,243,26,1,stimuli/stim_20210407_power2amp/equal_lnn_AM1.2Hz_71.m4a,,,
,,,,,,,,,,,,41104,2021-04-23_23h31.42.882,judgeSpeechMusic_20210407_logNormShiftAmp,2020.1.2,MacIntel,60,,,,,,,,,,,,,,2,15.512795,,0,1,94,244,22,1,stimuli/stim_20210407_power2amp/equal_lnn_AM1.2Hz_58.m4a,,,
,,,,,,,,,,,,41104,2021-04-23_23h31.42.882,judgeSpeechMusic_20210407_logNormShiftAmp,2020.1.2,MacIntel,60,,,,,,,,,,,,,,2,33.324415,,0,1,95,245,143,1,stimuli/stim_20210407_power2amp/equal_lnn_AM6Hz_87.m4a,,,
,,,,,,,,,,,,41104,2021-04-23_23h31.42.882,judgeSpeechMusic_20210407_logNormShiftAmp,2020.1.2,MacIntel,60,,,,,,,,,,,,,,2,7.65977,,0,1,96,246,43,1,stimuli/stim_20210407_power2amp/equal_lnn_AM1.8Hz_62.m4a,,,
,,,,,,,,,,,,41104,2021-04-23_23h31.42.882,judgeSpeechMusic_20210407_logNormShiftAmp,2020.1.2,MacIntel,60,,,,,,,,,,,,,,2,38.11087,,0,1,97,247,51,1,stimuli/stim_20210407_power2amp/equal_lnn_AM2.4Hz_67.m4a,,,
,,,,,,,,,,,,41104,2021-04-23_23h31.42.882,judgeSpeechMusic_20210407_logNormShiftAmp,2020.1.2,MacIntel,60,,,,,,,,,,,,,,2,9.830245,,0,1,98,248,128,1,stimuli/stim_20210407_power2amp/equal_lnn_AM5.4Hz_76.m4a,,,
,,,,,,,,,,,,41104,2021-04-23_23h31.42.882,judgeSpeechMusic_20210407_logNormShiftAmp,2020.1.2,MacIntel,60,,,,,,,,,,,,,,2,7.143345,,0,1,99,249,0,1,stimuli/stim_20210407_power2amp/equal_lnn_AM0.6Hz_34.m4a,,,
,,,,,,,,,,,,41104,2021-04-23_23h31.42.882,judgeSpeechMusic_20210407_logNormShiftAmp,2020.1.2,MacIntel,60,,,,,,,,,,,,,,2,8.848875,,0,1,100,250,15,1,stimuli/stim_20210407_power2amp/equal_lnn_AM1.2Hz_75.m4a,,,
,,,,,,,,,,,,41104,2021-04-23_23h31.42.882,judgeSpeechMusic_20210407_logNormShiftAmp,2020.1.2,MacIntel,60,,,,,,,,,,,,,,2,7.6056,,0,1,101,251,121,1,stimuli/stim_20210407_power2amp/equal_lnn_AM5.4Hz_55.m4a,,,
,,,,,,,,,,,,41104,2021-04-23_23h31.42.882,judgeSpeechMusic_20210407_logNormShiftAmp,2020.1.2,MacIntel,60,,,,,,,,,,,,,,2,6.077545,,0,1,102,252,62,1,stimuli/stim_20210407_power2amp/equal_lnn_AM3Hz_79.m4a,,,
,,,,,,,,,,,,41104,2021-04-23_23h31.42.882,judgeSpeechMusic_20210407_logNormShiftAmp,2020.1.2,MacIntel,60,,,,,,,,,,,,,,2,5.640425,,0,1,103,253,140,1,stimuli/stim_20210407_power2amp/equal_lnn_AM6Hz_55.m4a,,,
,,,,,,,,,,,,41104,2021-04-23_23h31.42.882,judgeSpeechMusic_20210407_logNormShiftAmp,2020.1.2,MacIntel,60,,,,,,,,,,,,,,2,7.02885,,0,1,104,254,82,1,stimuli/stim_20210407_power2amp/equal_lnn_AM3.6Hz_20.m4a,,,
,,,,,,,,,,,,41104,2021-04-23_23h31.42.882,judgeSpeechMusic_20210407_logNormShiftAmp,2020.1.2,MacIntel,60,,,,,,,,,,,,,,2,8.31047,,0,1,105,255,29,1,stimuli/stim_20210407_power2amp/equal_lnn_AM1.2Hz_49.m4a,,,
,,,,,,,,,,,,41104,2021-04-23_23h31.42.882,judgeSpeechMusic_20210407_logNormShiftAmp,2020.1.2,MacIntel,60,,,,,,,,,,,,,,2,13.30741,,0,1,106,256,73,1,stimuli/stim_20210407_power2amp/equal_lnn_AM3Hz_32.m4a,,,
,,,,,,,,,,,,41104,2021-04-23_23h31.42.882,judgeSpeechMusic_20210407_logNormShiftAmp,2020.1.2,MacIntel,60,,,,,,,,,,,,,,2,6.80915,,0,1,107,257,60,1,stimuli/stim_20210407_power2amp/equal_lnn_AM3Hz_47.m4a,,,
,,,,,,,,,,,,41104,2021-04-23_23h31.42.882,judgeSpeechMusic_20210407_logNormShiftAmp,2020.1.2,MacIntel,60,,,,,,,,,,,,,,2,6.214475,,0,1,108,258,40,1,stimuli/stim_20210407_power2amp/equal_lnn_AM1.8Hz_4.m4a,,,
,,,,,,,,,,,,41104,2021-04-23_23h31.42.882,judgeSpeechMusic_20210407_logNormShiftAmp,2020.1.2,MacIntel,60,,,,,,,,,,,,,,2,9.79249,3,1,1,109,259,7,1,stimuli/stim_20210407_power2amp/equal_lnn_AM0.6Hz_28.m4a,1.346465,,
,,,,,,,,,,,,41104,2021-04-23_23h31.42.882,judgeSpeechMusic_20210407_logNormShiftAmp,2020.1.2,MacIntel,60,,,,,,,,,,,,,,2,6.68844,,0,1,110,260,9,1,stimuli/stim_20210407_power2amp/equal_lnn_AM0.6Hz_82.m4a,,,
,,,,,,,,,,,,41104,2021-04-23_23h31.42.882,judgeSpeechMusic_20210407_logNormShiftAmp,2020.1.2,MacIntel,60,,,,,,,,,,,,,,2,6.640435,,0,1,111,261,77,1,stimuli/stim_20210407_power2amp/equal_lnn_AM3.6Hz_4.m4a,,,
,,,,,,,,,,,,41104,2021-04-23_23h31.42.882,judgeSpeechMusic_20210407_logNormShiftAmp,2020.1.2,MacIntel,60,,,,,,,,,,,,,,2,7.32748,,0,1,112,262,4,1,stimuli/stim_20210407_power2amp/equal_lnn_AM0.6Hz_77.m4a,,,
,,,,,,,,,,,,41104,2021-04-23_23h31.42.882,judgeSpeechMusic_20210407_logNormShiftAmp,2020.1.2,MacIntel,60,,,,,,,,,,,,,,2,7.67784,,0,1,113,263,100,1,stimuli/stim_20210407_power2amp/equal_lnn_AM4.2Hz_58.m4a,,,
,,,,,,,,,,,,41104,2021-04-23_23h31.42.882,judgeSpeechMusic_20210407_logNormShiftAmp,2020.1.2,MacIntel,60,,,,,,,,,,,,,,2,6.66342,,0,1,114,264,105,1,stimuli/stim_20210407_power2amp/equal_lnn_AM4.8Hz_36.m4a,,,
,,,,,,,,,,,,41104,2021-04-23_23h31.42.882,judgeSpeechMusic_20210407_logNormShiftAmp,2020.1.2,MacIntel,60,,,,,,,,,,,,,,2,6.23987,,0,1,115,265,74,1,stimuli/stim_20210407_power2amp/equal_lnn_AM3Hz_82.m4a,,,
,,,,,,,,,,,,41104,2021-04-23_23h31.42.882,judgeSpeechMusic_20210407_logNormShiftAmp,2020.1.2,MacIntel,60,,,,,,,,,,,,,,2,6.14221,,0,1,116,266,96,1,stimuli/stim_20210407_power2amp/equal_lnn_AM4.2Hz_63.m4a,,,
,,,,,,,,,,,,41104,2021-04-23_23h31.42.882,judgeSpeechMusic_20210407_logNormShiftAmp,2020.1.2,MacIntel,60,,,,,,,,,,,,,,2,7.25573,,0,1,117,267,114,1,stimuli/stim_20210407_power2amp/equal_lnn_AM4.8Hz_79.m4a,,,
,,,,,,,,,,,,41104,2021-04-23_23h31.42.882,judgeSpeechMusic_20210407_logNormShiftAmp,2020.1.2,MacIntel,60,,,,,,,,,,,,,,2,5.676755,,0,1,118,268,78,1,stimuli/stim_20210407_power2amp/equal_lnn_AM3.6Hz_82.m4a,,,
,,,,,,,,,,,,41104,2021-04-23_23h31.42.882,judgeSpeechMusic_20210407_logNormShiftAmp,2020.1.2,MacIntel,60,,,,,,,,,,,,,,2,6.493095,,0,1,119,269,14,1,stimuli/stim_20210407_power2amp/equal_lnn_AM0.6Hz_59.m4a,,,
,,,,,,,,,,,,41104,2021-04-23_23h31.42.882,judgeSpeechMusic_20210407_logNormShiftAmp,2020.1.2,MacIntel,60,,,,,,,,,,,,,,2,5.694685,,0,1,120,270,6,1,stimuli/stim_20210407_power2amp/equal_lnn_AM0.6Hz_48.m4a,,,
,,,,,,,,,,,,41104,2021-04-23_23h31.42.882,judgeSpeechMusic_20210407_logNormShiftAmp,2020.1.2,MacIntel,60,,,,,,,,,,,,,,2,6.34105,,0,1,121,271,33,1,stimuli/stim_20210407_power2amp/equal_lnn_AM1.8Hz_44.m4a,,,
,,,,,,,,,,,,41104,2021-04-23_23h31.42.882,judgeSpeechMusic_20210407_logNormShiftAmp,2020.1.2,MacIntel,60,,,,,,,,,,,,,,2,6.83115,,0,1,122,272,69,1,stimuli/stim_20210407_power2amp/equal_lnn_AM3Hz_24.m4a,,,
,,,,,,,,,,,,41104,2021-04-23_23h31.42.882,judgeSpeechMusic_20210407_logNormShiftAmp,2020.1.2,MacIntel,60,,,,,,,,,,,,,,2,7.87481,,0,1,123,273,145,1,stimuli/stim_20210407_power2amp/equal_lnn_AM6Hz_79.m4a,,,
,,,,,,,,,,,,41104,2021-04-23_23h31.42.882,judgeSpeechMusic_20210407_logNormShiftAmp,2020.1.2,MacIntel,60,,,,,,,,,,,,,,1,10.37644,,0,1,124,274,37,1,stimuli/stim_20210407_power2amp/equal_lnn_AM1.8Hz_66.m4a,,,
,,,,,,,,,,,,41104,2021-04-23_23h31.42.882,judgeSpeechMusic_20210407_logNormShiftAmp,2020.1.2,MacIntel,60,,,,,,,,,,,,,,1,5.655105,,0,1,125,275,57,1,stimuli/stim_20210407_power2amp/equal_lnn_AM2.4Hz_10.m4a,,,
,,,,,,,,,,,,41104,2021-04-23_23h31.42.882,judgeSpeechMusic_20210407_logNormShiftAmp,2020.1.2,MacIntel,60,,,,,,,,,,,,,,1,5.97661,,0,1,126,276,149,1,stimuli/stim_20210407_power2amp/equal_lnn_AM6Hz_62.m4a,,,
,,,,,,,,,,,,41104,2021-04-23_23h31.42.882,judgeSpeechMusic_20210407_logNormShiftAmp,2020.1.2,MacIntel,60,,,,,,,,,,,,,,1,6.1571,,0,1,127,277,50,1,stimuli/stim_20210407_power2amp/equal_lnn_AM2.4Hz_1.m4a,,,
,,,,,,,,,,,,41104,2021-04-23_23h31.42.882,judgeSpeechMusic_20210407_logNormShiftAmp,2020.1.2,MacIntel,60,,,,,,,,,,,,,,1,6.521915,,0,1,128,278,42,1,stimuli/stim_20210407_power2amp/equal_lnn_AM1.8Hz_13.m4a,,,
,,,,,,,,,,,,41104,2021-04-23_23h31.42.882,judgeSpeechMusic_20210407_logNormShiftAmp,2020.1.2,MacIntel,60,,,,,,,,,,,,,,2,6.726135,,0,1,129,279,19,1,stimuli/stim_20210407_power2amp/equal_lnn_AM1.2Hz_44.m4a,,,
,,,,,,,,,,,,41104,2021-04-23_23h31.42.882,judgeSpeechMusic_20210407_logNormShiftAmp,2020.1.2,MacIntel,60,,,,,,,,,,,,,,2,6.692935,2,1,1,130,280,31,1,stimuli/stim_20210407_power2amp/equal_lnn_AM1.8Hz_58.m4a,0.994405,,
,,,,,,,,,,,,41104,2021-04-23_23h31.42.882,judgeSpeechMusic_20210407_logNormShiftAmp,2020.1.2,MacIntel,60,,,,,,,,,,,,,,2,5.61334,,0,1,131,281,106,1,stimuli/stim_20210407_power2amp/equal_lnn_AM4.8Hz_47.m4a,,,
,,,,,,,,,,,,41104,2021-04-23_23h31.42.882,judgeSpeechMusic_20210407_logNormShiftAmp,2020.1.2,MacIntel,60,,,,,,,,,,,,,,2,6.289265,,0,1,132,282,85,1,stimuli/stim_20210407_power2amp/equal_lnn_AM3.6Hz_65.m4a,,,
,,,,,,,,,,,,41104,2021-04-23_23h31.42.882,judgeSpeechMusic_20210407_logNormShiftAmp,2020.1.2,MacIntel,60,,,,,,,,,,,,,,2,8.3588,,0,1,133,283,147,1,stimuli/stim_20210407_power2amp/equal_lnn_AM6Hz_83.m4a,,,
,,,,,,,,,,,,41104,2021-04-23_23h31.42.882,judgeSpeechMusic_20210407_logNormShiftAmp,2020.1.2,MacIntel,60,,,,,,,,,,,,,,2,6.963925,,0,1,134,284,90,1,stimuli/stim_20210407_power2amp/equal_lnn_AM4.2Hz_53.m4a,,,
,,,,,,,,,,,,41104,2021-04-23_23h31.42.882,judgeSpeechMusic_20210407_logNormShiftAmp,2020.1.2,MacIntel,60,,,,,,,,,,,,,,2,7.17814,,0,1,135,285,18,1,stimuli/stim_20210407_power2amp/equal_lnn_AM1.2Hz_11.m4a,,,
,,,,,,,,,,,,41104,2021-04-23_23h31.42.882,judgeSpeechMusic_20210407_logNormShiftAmp,2020.1.2,MacIntel,60,,,,,,,,,,,,,,2,9.691175,,0,1,136,286,144,1,stimuli/stim_20210407_power2amp/equal_lnn_AM6Hz_42.m4a,,,
,,,,,,,,,,,,41104,2021-04-23_23h31.42.882,judgeSpeechMusic_20210407_logNormShiftAmp,2020.1.2,MacIntel,60,,,,,,,,,,,,,,2,7.124845,,0,1,137,287,132,1,stimuli/stim_20210407_power2amp/equal_lnn_AM5.4Hz_80.m4a,,,
,,,,,,,,,,,,41104,2021-04-23_23h31.42.882,judgeSpeechMusic_20210407_logNormShiftAmp,2020.1.2,MacIntel,60,,,,,,,,,,,,,,2,7.709735,,0,1,138,288,122,1,stimuli/stim_20210407_power2amp/equal_lnn_AM5.4Hz_56.m4a,,,
,,,,,,,,,,,,41104,2021-04-23_23h31.42.882,judgeSpeechMusic_20210407_logNormShiftAmp,2020.1.2,MacIntel,60,,,,,,,,,,,,,,2,7.84302,,0,1,139,289,115,1,stimuli/stim_20210407_power2amp/equal_lnn_AM4.8Hz_74.m4a,,,
,,,,,,,,,,,,41104,2021-04-23_23h31.42.882,judgeSpeechMusic_20210407_logNormShiftAmp,2020.1.2,MacIntel,60,,,,,,,,,,,,,,2,6.40874,,0,1,140,290,41,1,stimuli/stim_20210407_power2amp/equal_lnn_AM1.8Hz_99.m4a,,,
,,,,,,,,,,,,41104,2021-04-23_23h31.42.882,judgeSpeechMusic_20210407_logNormShiftAmp,2020.1.2,MacIntel,60,,,,,,,,,,,,,,2,5.875395,,0,1,141,291,34,1,stimuli/stim_20210407_power2amp/equal_lnn_AM1.8Hz_43.m4a,,,
,,,,,,,,,,,,41104,2021-04-23_23h31.42.882,judgeSpeechMusic_20210407_logNormShiftAmp,2020.1.2,MacIntel,60,,,,,,,,,,,,,,2,5.789725,,0,1,142,292,97,1,stimuli/stim_20210407_power2amp/equal_lnn_AM4.2Hz_38.m4a,,,
,,,,,,,,,,,,41104,2021-04-23_23h31.42.882,judgeSpeechMusic_20210407_logNormShiftAmp,2020.1.2,MacIntel,60,,,,,,,,,,,,,,2,6.44709,,0,1,143,293,141,1,stimuli/stim_20210407_power2amp/equal_lnn_AM6Hz_98.m4a,,,
,,,,,,,,,,,,41104,2021-04-23_23h31.42.882,judgeSpeechMusic_20210407_logNormShiftAmp,2020.1.2,MacIntel,60,,,,,,,,,,,,,,2,8.228755,,0,1,144,294,86,1,stimuli/stim_20210407_power2amp/equal_lnn_AM3.6Hz_99.m4a,,,
,,,,,,,,,,,,41104,2021-04-23_23h31.42.882,judgeSpeechMusic_20210407_logNormShiftAmp,2020.1.2,MacIntel,60,,,,,,,,,,,,,,2,7.93943,,0,1,145,295,146,1,stimuli/stim_20210407_power2amp/equal_lnn_AM6Hz_36.m4a,,,
,,,,,,,,,,,,41104,2021-04-23_23h31.42.882,judgeSpeechMusic_20210407_logNormShiftAmp,2020.1.2,MacIntel,60,,,,,,,,,,,,,,2,7.958475,,0,1,146,296,89,1,stimuli/stim_20210407_power2amp/equal_lnn_AM3.6Hz_54.m4a,,,
,,,,,,,,,,,,41104,2021-04-23_23h31.42.882,judgeSpeechMusic_20210407_logNormShiftAmp,2020.1.2,MacIntel,60,,,,,,,,,,,,,,1,7.495035,,0,1,147,297,30,1,stimuli/stim_20210407_power2amp/equal_lnn_AM1.8Hz_82.m4a,,,
,,,,,,,,,,,,41104,2021-04-23_23h31.42.882,judgeSpeechMusic_20210407_logNormShiftAmp,2020.1.2,MacIntel,60,,,,,,,,,,,,,,2,7.546535,,0,1,148,298,75,1,stimuli/stim_20210407_power2amp/equal_lnn_AM3.6Hz_90.m4a,,,
,,,,,,,,,,,,41104,2021-04-23_23h31.42.882,judgeSpeechMusic_20210407_logNormShiftAmp,2020.1.2,MacIntel,60,,,,,,,,,,,,,,2,6.19184,,0,1,149,299,61,1,stimuli/stim_20210407_power2amp/equal_lnn_AM3Hz_50.m4a,,,
,,,,,,,,,,,,41104,2021-04-23_23h31.42.882,judgeSpeechMusic_20210407_logNormShiftAmp,2020.1.2,MacIntel,60,,,,,,,,,,,,,,,,,,,,,,,,,space,6.940195
