headphoneResponse.keys,headphoneResponse.corr,headphoneResponse.rt,headphoneTrial.thisRepN,headphoneTrial.thisTrialN,headphoneTrial.thisN,headphoneTrial.thisIndex,headphoneTrial.ran,headphone_sound1,headphone_sound2,headphone_sound3,corrAns,participant,date,expName,psychopyVersion,OS,frameRate,trainSlider.response,trainSlider.rt,beepTrainResponse.keys,beepTrainResponse.corr,trainingTrials.thisRepN,trainingTrials.thisTrialN,trainingTrials.thisN,trainingTrials.thisIndex,trainingTrials.ran,trainAudioFile,beepTrainResponse.rt,readyReal_resp.keys,readyReal_resp.rt,ratingSlider.response,ratingSlider.rt,beepResp.keys,beepResp.corr,expTrials.thisRepN,expTrials.thisTrialN,expTrials.thisN,expTrials.thisIndex,expTrials.ran,audioFile,beepResp.rt,end_resp.keys,end_resp.rt
1,1,2.118675,0,0,0,4,1,stimuli/screen_quiet.wav,stimuli/screen_antiphase.wav,stimuli/screen_origin.wav,1,41117,2021-04-26_11h29.17.976,judgeSpeechMusic_20210407_logNormShiftAmp,2020.1.2,Win32,60,,,,,,,,,,,,,,,,,,,,,,,,,,
3,1,0.807265,0,1,1,2,1,stimuli/screen_origin.wav,stimuli/screen_antiphase.wav,stimuli/screen_quiet.wav,3,41117,2021-04-26_11h29.17.976,judgeSpeechMusic_20210407_logNormShiftAmp,2020.1.2,Win32,60,,,,,,,,,,,,,,,,,,,,,,,,,,
2,1,0.425495,0,2,2,3,1,stimuli/screen_origin.wav,stimuli/screen_quiet.wav,stimuli/screen_antiphase.wav,2,41117,2021-04-26_11h29.17.976,judgeSpeechMusic_20210407_logNormShiftAmp,2020.1.2,Win32,60,,,,,,,,,,,,,,,,,,,,,,,,,,
1,1,0.36409,0,3,3,5,1,stimuli/screen_quiet.wav,stimuli/screen_origin.wav,stimuli/screen_antiphase.wav,1,41117,2021-04-26_11h29.17.976,judgeSpeechMusic_20210407_logNormShiftAmp,2020.1.2,Win32,60,,,,,,,,,,,,,,,,,,,,,,,,,,
2,1,0.568245,0,4,4,1,1,stimuli/screen_antiphase.wav,stimuli/screen_quiet.wav,stimuli/screen_origin.wav,2,41117,2021-04-26_11h29.17.976,judgeSpeechMusic_20210407_logNormShiftAmp,2020.1.2,Win32,60,,,,,,,,,,,,,,,,,,,,,,,,,,
3,1,0.41429,0,5,5,0,1,stimuli/screen_antiphase.wav,stimuli/screen_origin.wav,stimuli/screen_quiet.wav,3,41117,2021-04-26_11h29.17.976,judgeSpeechMusic_20210407_logNormShiftAmp,2020.1.2,Win32,60,,,,,,,,,,,,,,,,,,,,,,,,,,
,,,,,,,,,,,,41117,2021-04-26_11h29.17.976,judgeSpeechMusic_20210407_logNormShiftAmp,2020.1.2,Win32,60,2,14.13056,,0,0,0,0,1,1,stimuli/stim_20210407_power2amp/equal_lnn_AM_training2.7Hz.m4a,,,,,,,,,,,,,,,,
,,,,,,,,,,,,41117,2021-04-26_11h29.17.976,judgeSpeechMusic_20210407_logNormShiftAmp,2020.1.2,Win32,60,1,11.298955,,0,0,1,1,2,1,stimuli/stim_20210407_power2amp/equal_lnn_AM_training3.9Hz.m4a,,,,,,,,,,,,,,,,
,,,,,,,,,,,,41117,2021-04-26_11h29.17.976,judgeSpeechMusic_20210407_logNormShiftAmp,2020.1.2,Win32,60,1,17.57604,1,1,0,2,2,3,1,stimuli/stim_20210407_power2amp/equal_lnn_AM_training5.1Hz.m4a,2.365095,,,,,,,,,,,,,,,
,,,,,,,,,,,,41117,2021-04-26_11h29.17.976,judgeSpeechMusic_20210407_logNormShiftAmp,2020.1.2,Win32,60,1,9.28414,,0,0,3,3,0,1,stimuli/stim_20210407_power2amp/equal_lnn_AM_training1.5Hz.m4a,,,,,,,,,,,,,,,,
,,,,,,,,,,,,41117,2021-04-26_11h29.17.976,judgeSpeechMusic_20210407_logNormShiftAmp,2020.1.2,Win32,60,,,,,,,,,,,,space,5.1352,1,11.533945,,0,0,0,0,18,1,stimuli/stim_20210407_power2amp/equal_lnn_AM1.2Hz_1.m4a,,,
,,,,,,,,,,,,41117,2021-04-26_11h29.17.976,judgeSpeechMusic_20210407_logNormShiftAmp,2020.1.2,Win32,60,,,,,,,,,,,,,,1,5.770515,,0,0,1,1,16,1,stimuli/stim_20210407_power2amp/equal_lnn_AM1.2Hz_2.m4a,,,
,,,,,,,,,,,,41117,2021-04-26_11h29.17.976,judgeSpeechMusic_20210407_logNormShiftAmp,2020.1.2,Win32,60,,,,,,,,,,,,,,2,6.90284,,0,0,2,2,116,1,stimuli/stim_20210407_power2amp/equal_lnn_AM4.8Hz_7.m4a,,,
,,,,,,,,,,,,41117,2021-04-26_11h29.17.976,judgeSpeechMusic_20210407_logNormShiftAmp,2020.1.2,Win32,60,,,,,,,,,,,,,,1,9.11964,,0,0,3,3,36,1,stimuli/stim_20210407_power2amp/equal_lnn_AM1.8Hz_71.m4a,,,
,,,,,,,,,,,,41117,2021-04-26_11h29.17.976,judgeSpeechMusic_20210407_logNormShiftAmp,2020.1.2,Win32,60,,,,,,,,,,,,,,2,6.202225,,0,0,4,4,113,1,stimuli/stim_20210407_power2amp/equal_lnn_AM4.8Hz_82.m4a,,,
,,,,,,,,,,,,41117,2021-04-26_11h29.17.976,judgeSpeechMusic_20210407_logNormShiftAmp,2020.1.2,Win32,60,,,,,,,,,,,,,,2,5.74363,,0,0,5,5,127,1,stimuli/stim_20210407_power2amp/equal_lnn_AM5.4Hz_65.m4a,,,
,,,,,,,,,,,,41117,2021-04-26_11h29.17.976,judgeSpeechMusic_20210407_logNormShiftAmp,2020.1.2,Win32,60,,,,,,,,,,,,,,2,5.80677,,0,0,6,6,119,1,stimuli/stim_20210407_power2amp/equal_lnn_AM4.8Hz_59.m4a,,,
,,,,,,,,,,,,41117,2021-04-26_11h29.17.976,judgeSpeechMusic_20210407_logNormShiftAmp,2020.1.2,Win32,60,,,,,,,,,,,,,,2,6.801865,,0,0,7,7,146,1,stimuli/stim_20210407_power2amp/equal_lnn_AM6Hz_79.m4a,,,
,,,,,,,,,,,,41117,2021-04-26_11h29.17.976,judgeSpeechMusic_20210407_logNormShiftAmp,2020.1.2,Win32,60,,,,,,,,,,,,,,1,5.73553,,0,0,8,8,30,1,stimuli/stim_20210407_power2amp/equal_lnn_AM1.8Hz_2.m4a,,,
,,,,,,,,,,,,41117,2021-04-26_11h29.17.976,judgeSpeechMusic_20210407_logNormShiftAmp,2020.1.2,Win32,60,,,,,,,,,,,,,,1,12.30781,,0,0,9,9,63,1,stimuli/stim_20210407_power2amp/equal_lnn_AM3Hz_80.m4a,,,
,,,,,,,,,,,,41117,2021-04-26_11h29.17.976,judgeSpeechMusic_20210407_logNormShiftAmp,2020.1.2,Win32,60,,,,,,,,,,,,,,2,5.71991,,0,0,10,10,131,1,stimuli/stim_20210407_power2amp/equal_lnn_AM5.4Hz_93.m4a,,,
,,,,,,,,,,,,41117,2021-04-26_11h29.17.976,judgeSpeechMusic_20210407_logNormShiftAmp,2020.1.2,Win32,60,,,,,,,,,,,,,,1,5.601135,,0,0,11,11,6,1,stimuli/stim_20210407_power2amp/equal_lnn_AM0.6Hz_73.m4a,,,
,,,,,,,,,,,,41117,2021-04-26_11h29.17.976,judgeSpeechMusic_20210407_logNormShiftAmp,2020.1.2,Win32,60,,,,,,,,,,,,,,1,7.08541,,0,0,12,12,123,1,stimuli/stim_20210407_power2amp/equal_lnn_AM5.4Hz_76.m4a,,,
,,,,,,,,,,,,41117,2021-04-26_11h29.17.976,judgeSpeechMusic_20210407_logNormShiftAmp,2020.1.2,Win32,60,,,,,,,,,,,,,,1,7.34343,,0,0,13,13,70,1,stimuli/stim_20210407_power2amp/equal_lnn_AM3Hz_76.m4a,,,
,,,,,,,,,,,,41117,2021-04-26_11h29.17.976,judgeSpeechMusic_20210407_logNormShiftAmp,2020.1.2,Win32,60,,,,,,,,,,,,,,1,6.47226,,0,0,14,14,4,1,stimuli/stim_20210407_power2amp/equal_lnn_AM0.6Hz_65.m4a,,,
,,,,,,,,,,,,41117,2021-04-26_11h29.17.976,judgeSpeechMusic_20210407_logNormShiftAmp,2020.1.2,Win32,60,,,,,,,,,,,,,,2,6.519545,,0,0,15,15,129,1,stimuli/stim_20210407_power2amp/equal_lnn_AM5.4Hz_6.m4a,,,
,,,,,,,,,,,,41117,2021-04-26_11h29.17.976,judgeSpeechMusic_20210407_logNormShiftAmp,2020.1.2,Win32,60,,,,,,,,,,,,,,2,8.600745,,0,0,16,16,64,1,stimuli/stim_20210407_power2amp/equal_lnn_AM3Hz_1.m4a,,,
,,,,,,,,,,,,41117,2021-04-26_11h29.17.976,judgeSpeechMusic_20210407_logNormShiftAmp,2020.1.2,Win32,60,,,,,,,,,,,,,,1,6.062405,,0,0,17,17,35,1,stimuli/stim_20210407_power2amp/equal_lnn_AM1.8Hz_49.m4a,,,
,,,,,,,,,,,,41117,2021-04-26_11h29.17.976,judgeSpeechMusic_20210407_logNormShiftAmp,2020.1.2,Win32,60,,,,,,,,,,,,,,1,9.540595,,0,0,18,18,59,1,stimuli/stim_20210407_power2amp/equal_lnn_AM2.4Hz_17.m4a,,,
,,,,,,,,,,,,41117,2021-04-26_11h29.17.976,judgeSpeechMusic_20210407_logNormShiftAmp,2020.1.2,Win32,60,,,,,,,,,,,,,,1,5.684325,,0,0,19,19,29,1,stimuli/stim_20210407_power2amp/equal_lnn_AM1.2Hz_20.m4a,,,
,,,,,,,,,,,,41117,2021-04-26_11h29.17.976,judgeSpeechMusic_20210407_logNormShiftAmp,2020.1.2,Win32,60,,,,,,,,,,,,,,2,6.71302,,0,0,20,20,104,1,stimuli/stim_20210407_power2amp/equal_lnn_AM4.2Hz_75.m4a,,,
,,,,,,,,,,,,41117,2021-04-26_11h29.17.976,judgeSpeechMusic_20210407_logNormShiftAmp,2020.1.2,Win32,60,,,,,,,,,,,,,,2,5.940735,,0,0,21,21,84,1,stimuli/stim_20210407_power2amp/equal_lnn_AM3.6Hz_8.m4a,,,
,,,,,,,,,,,,41117,2021-04-26_11h29.17.976,judgeSpeechMusic_20210407_logNormShiftAmp,2020.1.2,Win32,60,,,,,,,,,,,,,,1,5.80159,,0,0,22,22,61,1,stimuli/stim_20210407_power2amp/equal_lnn_AM3Hz_2.m4a,,,
,,,,,,,,,,,,41117,2021-04-26_11h29.17.976,judgeSpeechMusic_20210407_logNormShiftAmp,2020.1.2,Win32,60,,,,,,,,,,,,,,1,5.536415,,0,0,23,23,23,1,stimuli/stim_20210407_power2amp/equal_lnn_AM1.2Hz_3.m4a,,,
,,,,,,,,,,,,41117,2021-04-26_11h29.17.976,judgeSpeechMusic_20210407_logNormShiftAmp,2020.1.2,Win32,60,,,,,,,,,,,,,,1,5.939845,,0,0,24,24,44,1,stimuli/stim_20210407_power2amp/equal_lnn_AM1.8Hz_17.m4a,,,
,,,,,,,,,,,,41117,2021-04-26_11h29.17.976,judgeSpeechMusic_20210407_logNormShiftAmp,2020.1.2,Win32,60,,,,,,,,,,,,,,1,5.70098,,0,0,25,25,52,1,stimuli/stim_20210407_power2amp/equal_lnn_AM2.4Hz_23.m4a,,,
,,,,,,,,,,,,41117,2021-04-26_11h29.17.976,judgeSpeechMusic_20210407_logNormShiftAmp,2020.1.2,Win32,60,,,,,,,,,,,,,,1,5.64083,,0,0,26,26,14,1,stimuli/stim_20210407_power2amp/equal_lnn_AM0.6Hz_3.m4a,,,
,,,,,,,,,,,,41117,2021-04-26_11h29.17.976,judgeSpeechMusic_20210407_logNormShiftAmp,2020.1.2,Win32,60,,,,,,,,,,,,,,2,7.392175,,0,0,27,27,149,1,stimuli/stim_20210407_power2amp/equal_lnn_AM6Hz_71.m4a,,,
,,,,,,,,,,,,41117,2021-04-26_11h29.17.976,judgeSpeechMusic_20210407_logNormShiftAmp,2020.1.2,Win32,60,,,,,,,,,,,,,,2,9.15388,,0,0,28,28,147,1,stimuli/stim_20210407_power2amp/equal_lnn_AM6Hz_80.m4a,,,
,,,,,,,,,,,,41117,2021-04-26_11h29.17.976,judgeSpeechMusic_20210407_logNormShiftAmp,2020.1.2,Win32,60,,,,,,,,,,,,,,1,5.950725,,0,0,29,29,26,1,stimuli/stim_20210407_power2amp/equal_lnn_AM1.2Hz_88.m4a,,,
,,,,,,,,,,,,41117,2021-04-26_11h29.17.976,judgeSpeechMusic_20210407_logNormShiftAmp,2020.1.2,Win32,60,,,,,,,,,,,,,,1,5.689965,,0,0,30,30,15,1,stimuli/stim_20210407_power2amp/equal_lnn_AM1.2Hz_56.m4a,,,
,,,,,,,,,,,,41117,2021-04-26_11h29.17.976,judgeSpeechMusic_20210407_logNormShiftAmp,2020.1.2,Win32,60,,,,,,,,,,,,,,2,7.34871,,0,0,31,31,79,1,stimuli/stim_20210407_power2amp/equal_lnn_AM3.6Hz_21.m4a,,,
,,,,,,,,,,,,41117,2021-04-26_11h29.17.976,judgeSpeechMusic_20210407_logNormShiftAmp,2020.1.2,Win32,60,,,,,,,,,,,,,,1,9.943015,3,1,0,32,32,39,1,stimuli/stim_20210407_power2amp/equal_lnn_AM1.8Hz_47.m4a,1.787205,,
,,,,,,,,,,,,41117,2021-04-26_11h29.17.976,judgeSpeechMusic_20210407_logNormShiftAmp,2020.1.2,Win32,60,,,,,,,,,,,,,,1,6.720095,,0,0,33,33,2,1,stimuli/stim_20210407_power2amp/equal_lnn_AM0.6Hz_15.m4a,,,
,,,,,,,,,,,,41117,2021-04-26_11h29.17.976,judgeSpeechMusic_20210407_logNormShiftAmp,2020.1.2,Win32,60,,,,,,,,,,,,,,1,8.67022,,0,0,34,34,32,1,stimuli/stim_20210407_power2amp/equal_lnn_AM1.8Hz_14.m4a,,,
,,,,,,,,,,,,41117,2021-04-26_11h29.17.976,judgeSpeechMusic_20210407_logNormShiftAmp,2020.1.2,Win32,60,,,,,,,,,,,,,,1,6.219265,,0,0,35,35,68,1,stimuli/stim_20210407_power2amp/equal_lnn_AM3Hz_30.m4a,,,
,,,,,,,,,,,,41117,2021-04-26_11h29.17.976,judgeSpeechMusic_20210407_logNormShiftAmp,2020.1.2,Win32,60,,,,,,,,,,,,,,2,6.07702,,0,0,36,36,108,1,stimuli/stim_20210407_power2amp/equal_lnn_AM4.8Hz_42.m4a,,,
,,,,,,,,,,,,41117,2021-04-26_11h29.17.976,judgeSpeechMusic_20210407_logNormShiftAmp,2020.1.2,Win32,60,,,,,,,,,,,,,,2,5.80677,,0,0,37,37,103,1,stimuli/stim_20210407_power2amp/equal_lnn_AM4.2Hz_40.m4a,,,
,,,,,,,,,,,,41117,2021-04-26_11h29.17.976,judgeSpeechMusic_20210407_logNormShiftAmp,2020.1.2,Win32,60,,,,,,,,,,,,,,1,6.26896,,0,0,38,38,10,1,stimuli/stim_20210407_power2amp/equal_lnn_AM0.6Hz_86.m4a,,,
,,,,,,,,,,,,41117,2021-04-26_11h29.17.976,judgeSpeechMusic_20210407_logNormShiftAmp,2020.1.2,Win32,60,,,,,,,,,,,,,,2,8.85331,,0,0,39,39,56,1,stimuli/stim_20210407_power2amp/equal_lnn_AM2.4Hz_100.m4a,,,
,,,,,,,,,,,,41117,2021-04-26_11h29.17.976,judgeSpeechMusic_20210407_logNormShiftAmp,2020.1.2,Win32,60,,,,,,,,,,,,,,2,6.010775,,0,0,40,40,75,1,stimuli/stim_20210407_power2amp/equal_lnn_AM3.6Hz_83.m4a,,,
,,,,,,,,,,,,41117,2021-04-26_11h29.17.976,judgeSpeechMusic_20210407_logNormShiftAmp,2020.1.2,Win32,60,,,,,,,,,,,,,,2,6.624275,,0,0,41,41,49,1,stimuli/stim_20210407_power2amp/equal_lnn_AM2.4Hz_87.m4a,,,
,,,,,,,,,,,,41117,2021-04-26_11h29.17.976,judgeSpeechMusic_20210407_logNormShiftAmp,2020.1.2,Win32,60,,,,,,,,,,,,,,2,5.65128,,0,0,42,42,81,1,stimuli/stim_20210407_power2amp/equal_lnn_AM3.6Hz_11.m4a,,,
,,,,,,,,,,,,41117,2021-04-26_11h29.17.976,judgeSpeechMusic_20210407_logNormShiftAmp,2020.1.2,Win32,60,,,,,,,,,,,,,,2,6.752535,,0,0,43,43,99,1,stimuli/stim_20210407_power2amp/equal_lnn_AM4.2Hz_60.m4a,,,
,,,,,,,,,,,,41117,2021-04-26_11h29.17.976,judgeSpeechMusic_20210407_logNormShiftAmp,2020.1.2,Win32,60,,,,,,,,,,,,,,2,7.069365,,0,0,44,44,107,1,stimuli/stim_20210407_power2amp/equal_lnn_AM4.8Hz_52.m4a,,,
,,,,,,,,,,,,41117,2021-04-26_11h29.17.976,judgeSpeechMusic_20210407_logNormShiftAmp,2020.1.2,Win32,60,,,,,,,,,,,,,,2,8.22,,0,0,45,45,57,1,stimuli/stim_20210407_power2amp/equal_lnn_AM2.4Hz_92.m4a,,,
,,,,,,,,,,,,41117,2021-04-26_11h29.17.976,judgeSpeechMusic_20210407_logNormShiftAmp,2020.1.2,Win32,60,,,,,,,,,,,,,,2,5.51844,,0,0,46,46,135,1,stimuli/stim_20210407_power2amp/equal_lnn_AM6Hz_60.m4a,,,
,,,,,,,,,,,,41117,2021-04-26_11h29.17.976,judgeSpeechMusic_20210407_logNormShiftAmp,2020.1.2,Win32,60,,,,,,,,,,,,,,2,5.617595,,0,0,47,47,143,1,stimuli/stim_20210407_power2amp/equal_lnn_AM6Hz_99.m4a,,,
,,,,,,,,,,,,41117,2021-04-26_11h29.17.976,judgeSpeechMusic_20210407_logNormShiftAmp,2020.1.2,Win32,60,,,,,,,,,,,,,,2,6.118455,,0,0,48,48,101,1,stimuli/stim_20210407_power2amp/equal_lnn_AM4.2Hz_45.m4a,,,
,,,,,,,,,,,,41117,2021-04-26_11h29.17.976,judgeSpeechMusic_20210407_logNormShiftAmp,2020.1.2,Win32,60,,,,,,,,,,,,,,1,6.73777,,0,0,49,49,109,1,stimuli/stim_20210407_power2amp/equal_lnn_AM4.8Hz_80.m4a,,,
,,,,,,,,,,,,41117,2021-04-26_11h29.17.976,judgeSpeechMusic_20210407_logNormShiftAmp,2020.1.2,Win32,60,,,,,,,,,,,,,,1,6.057305,,0,0,50,50,21,1,stimuli/stim_20210407_power2amp/equal_lnn_AM1.2Hz_85.m4a,,,
,,,,,,,,,,,,41117,2021-04-26_11h29.17.976,judgeSpeechMusic_20210407_logNormShiftAmp,2020.1.2,Win32,60,,,,,,,,,,,,,,1,7.83633,,0,0,51,51,60,1,stimuli/stim_20210407_power2amp/equal_lnn_AM3Hz_68.m4a,,,
,,,,,,,,,,,,41117,2021-04-26_11h29.17.976,judgeSpeechMusic_20210407_logNormShiftAmp,2020.1.2,Win32,60,,,,,,,,,,,,,,1,6.028835,,0,0,52,52,33,1,stimuli/stim_20210407_power2amp/equal_lnn_AM1.8Hz_87.m4a,,,
,,,,,,,,,,,,41117,2021-04-26_11h29.17.976,judgeSpeechMusic_20210407_logNormShiftAmp,2020.1.2,Win32,60,,,,,,,,,,,,,,2,5.86156,,0,0,53,53,117,1,stimuli/stim_20210407_power2amp/equal_lnn_AM4.8Hz_12.m4a,,,
,,,,,,,,,,,,41117,2021-04-26_11h29.17.976,judgeSpeechMusic_20210407_logNormShiftAmp,2020.1.2,Win32,60,,,,,,,,,,,,,,1,5.943965,,0,0,54,54,3,1,stimuli/stim_20210407_power2amp/equal_lnn_AM0.6Hz_48.m4a,,,
,,,,,,,,,,,,41117,2021-04-26_11h29.17.976,judgeSpeechMusic_20210407_logNormShiftAmp,2020.1.2,Win32,60,,,,,,,,,,,,,,1,5.785575,,0,0,55,55,48,1,stimuli/stim_20210407_power2amp/equal_lnn_AM2.4Hz_63.m4a,,,
,,,,,,,,,,,,41117,2021-04-26_11h29.17.976,judgeSpeechMusic_20210407_logNormShiftAmp,2020.1.2,Win32,60,,,,,,,,,,,,,,1,5.98829,3,1,0,56,56,41,1,stimuli/stim_20210407_power2amp/equal_lnn_AM1.8Hz_57.m4a,1.571215,,
,,,,,,,,,,,,41117,2021-04-26_11h29.17.976,judgeSpeechMusic_20210407_logNormShiftAmp,2020.1.2,Win32,60,,,,,,,,,,,,,,2,5.75203,,0,0,57,57,137,1,stimuli/stim_20210407_power2amp/equal_lnn_AM6Hz_4.m4a,,,
,,,,,,,,,,,,41117,2021-04-26_11h29.17.976,judgeSpeechMusic_20210407_logNormShiftAmp,2020.1.2,Win32,60,,,,,,,,,,,,,,1,5.85224,,0,0,58,58,7,1,stimuli/stim_20210407_power2amp/equal_lnn_AM0.6Hz_52.m4a,,,
,,,,,,,,,,,,41117,2021-04-26_11h29.17.976,judgeSpeechMusic_20210407_logNormShiftAmp,2020.1.2,Win32,60,,,,,,,,,,,,,,2,5.651905,,0,0,59,59,138,1,stimuli/stim_20210407_power2amp/equal_lnn_AM6Hz_8.m4a,,,
,,,,,,,,,,,,41117,2021-04-26_11h29.17.976,judgeSpeechMusic_20210407_logNormShiftAmp,2020.1.2,Win32,60,,,,,,,,,,,,,,2,5.722965,,0,0,60,60,66,1,stimuli/stim_20210407_power2amp/equal_lnn_AM3Hz_89.m4a,,,
,,,,,,,,,,,,41117,2021-04-26_11h29.17.976,judgeSpeechMusic_20210407_logNormShiftAmp,2020.1.2,Win32,60,,,,,,,,,,,,,,1,7.41508,,0,0,61,61,13,1,stimuli/stim_20210407_power2amp/equal_lnn_AM0.6Hz_91.m4a,,,
,,,,,,,,,,,,41117,2021-04-26_11h29.17.976,judgeSpeechMusic_20210407_logNormShiftAmp,2020.1.2,Win32,60,,,,,,,,,,,,,,2,6.739565,,0,0,62,62,90,1,stimuli/stim_20210407_power2amp/equal_lnn_AM4.2Hz_56.m4a,,,
,,,,,,,,,,,,41117,2021-04-26_11h29.17.976,judgeSpeechMusic_20210407_logNormShiftAmp,2020.1.2,Win32,60,,,,,,,,,,,,,,2,5.521995,,0,0,63,63,144,1,stimuli/stim_20210407_power2amp/equal_lnn_AM6Hz_28.m4a,,,
,,,,,,,,,,,,41117,2021-04-26_11h29.17.976,judgeSpeechMusic_20210407_logNormShiftAmp,2020.1.2,Win32,60,,,,,,,,,,,,,,1,8.9948,,0,0,64,64,51,1,stimuli/stim_20210407_power2amp/equal_lnn_AM2.4Hz_48.m4a,,,
,,,,,,,,,,,,41117,2021-04-26_11h29.17.976,judgeSpeechMusic_20210407_logNormShiftAmp,2020.1.2,Win32,60,,,,,,,,,,,,,,1,10.11,,0,0,65,65,38,1,stimuli/stim_20210407_power2amp/equal_lnn_AM1.8Hz_79.m4a,,,
,,,,,,,,,,,,41117,2021-04-26_11h29.17.976,judgeSpeechMusic_20210407_logNormShiftAmp,2020.1.2,Win32,60,,,,,,,,,,,,,,1,12.28139,,0,0,66,66,72,1,stimuli/stim_20210407_power2amp/equal_lnn_AM3Hz_75.m4a,,,
,,,,,,,,,,,,41117,2021-04-26_11h29.17.976,judgeSpeechMusic_20210407_logNormShiftAmp,2020.1.2,Win32,60,,,,,,,,,,,,,,1,6.34061,,0,0,67,67,27,1,stimuli/stim_20210407_power2amp/equal_lnn_AM1.2Hz_41.m4a,,,
,,,,,,,,,,,,41117,2021-04-26_11h29.17.976,judgeSpeechMusic_20210407_logNormShiftAmp,2020.1.2,Win32,60,,,,,,,,,,,,,,1,5.65083,,0,0,68,68,9,1,stimuli/stim_20210407_power2amp/equal_lnn_AM0.6Hz_81.m4a,,,
,,,,,,,,,,,,41117,2021-04-26_11h29.17.976,judgeSpeechMusic_20210407_logNormShiftAmp,2020.1.2,Win32,60,,,,,,,,,,,,,,2,5.701555,,0,0,69,69,93,1,stimuli/stim_20210407_power2amp/equal_lnn_AM4.2Hz_44.m4a,,,
,,,,,,,,,,,,41117,2021-04-26_11h29.17.976,judgeSpeechMusic_20210407_logNormShiftAmp,2020.1.2,Win32,60,,,,,,,,,,,,,,2,6.774145,,0,0,70,70,82,1,stimuli/stim_20210407_power2amp/equal_lnn_AM3.6Hz_51.m4a,,,
,,,,,,,,,,,,41117,2021-04-26_11h29.17.976,judgeSpeechMusic_20210407_logNormShiftAmp,2020.1.2,Win32,60,,,,,,,,,,,,,,2,8.03656,,0,0,71,71,118,1,stimuli/stim_20210407_power2amp/equal_lnn_AM4.8Hz_31.m4a,,,
,,,,,,,,,,,,41117,2021-04-26_11h29.17.976,judgeSpeechMusic_20210407_logNormShiftAmp,2020.1.2,Win32,60,,,,,,,,,,,,,,2,6.986625,,0,0,72,72,133,1,stimuli/stim_20210407_power2amp/equal_lnn_AM5.4Hz_95.m4a,,,
,,,,,,,,,,,,41117,2021-04-26_11h29.17.976,judgeSpeechMusic_20210407_logNormShiftAmp,2020.1.2,Win32,60,,,,,,,,,,,,,,1,6.662545,,0,0,73,73,45,1,stimuli/stim_20210407_power2amp/equal_lnn_AM2.4Hz_32.m4a,,,
,,,,,,,,,,,,41117,2021-04-26_11h29.17.976,judgeSpeechMusic_20210407_logNormShiftAmp,2020.1.2,Win32,60,,,,,,,,,,,,,,2,5.739755,,0,0,74,74,110,1,stimuli/stim_20210407_power2amp/equal_lnn_AM4.8Hz_17.m4a,,,
,,,,,,,,,,,,41117,2021-04-26_11h29.17.976,judgeSpeechMusic_20210407_logNormShiftAmp,2020.1.2,Win32,60,,,,,,,,,,,,,,1,6.38613,,0,0,75,75,34,1,stimuli/stim_20210407_power2amp/equal_lnn_AM1.8Hz_13.m4a,,,
,,,,,,,,,,,,41117,2021-04-26_11h29.17.976,judgeSpeechMusic_20210407_logNormShiftAmp,2020.1.2,Win32,60,,,,,,,,,,,,,,1,6.13438,,0,0,76,76,58,1,stimuli/stim_20210407_power2amp/equal_lnn_AM2.4Hz_13.m4a,,,
,,,,,,,,,,,,41117,2021-04-26_11h29.17.976,judgeSpeechMusic_20210407_logNormShiftAmp,2020.1.2,Win32,60,,,,,,,,,,,,,,1,5.47341,,0,0,77,77,50,1,stimuli/stim_20210407_power2amp/equal_lnn_AM2.4Hz_95.m4a,,,
,,,,,,,,,,,,41117,2021-04-26_11h29.17.976,judgeSpeechMusic_20210407_logNormShiftAmp,2020.1.2,Win32,60,,,,,,,,,,,,,,2,6.25707,,0,0,78,78,114,1,stimuli/stim_20210407_power2amp/equal_lnn_AM4.8Hz_75.m4a,,,
,,,,,,,,,,,,41117,2021-04-26_11h29.17.976,judgeSpeechMusic_20210407_logNormShiftAmp,2020.1.2,Win32,60,,,,,,,,,,,,,,2,6.084745,,0,0,79,79,136,1,stimuli/stim_20210407_power2amp/equal_lnn_AM6Hz_76.m4a,,,
,,,,,,,,,,,,41117,2021-04-26_11h29.17.976,judgeSpeechMusic_20210407_logNormShiftAmp,2020.1.2,Win32,60,,,,,,,,,,,,,,1,6.056685,,0,0,80,80,42,1,stimuli/stim_20210407_power2amp/equal_lnn_AM1.8Hz_78.m4a,,,
,,,,,,,,,,,,41117,2021-04-26_11h29.17.976,judgeSpeechMusic_20210407_logNormShiftAmp,2020.1.2,Win32,60,,,,,,,,,,,,,,2,5.73544,3,1,0,81,81,95,1,stimuli/stim_20210407_power2amp/equal_lnn_AM4.2Hz_15.m4a,1.06766,,
,,,,,,,,,,,,41117,2021-04-26_11h29.17.976,judgeSpeechMusic_20210407_logNormShiftAmp,2020.1.2,Win32,60,,,,,,,,,,,,,,2,5.86915,,0,0,82,82,128,1,stimuli/stim_20210407_power2amp/equal_lnn_AM5.4Hz_7.m4a,,,
,,,,,,,,,,,,41117,2021-04-26_11h29.17.976,judgeSpeechMusic_20210407_logNormShiftAmp,2020.1.2,Win32,60,,,,,,,,,,,,,,2,5.56336,,0,0,83,83,111,1,stimuli/stim_20210407_power2amp/equal_lnn_AM4.8Hz_92.m4a,,,
,,,,,,,,,,,,41117,2021-04-26_11h29.17.976,judgeSpeechMusic_20210407_logNormShiftAmp,2020.1.2,Win32,60,,,,,,,,,,,,,,1,6.290955,,0,0,84,84,20,1,stimuli/stim_20210407_power2amp/equal_lnn_AM1.2Hz_97.m4a,,,
,,,,,,,,,,,,41117,2021-04-26_11h29.17.976,judgeSpeechMusic_20210407_logNormShiftAmp,2020.1.2,Win32,60,,,,,,,,,,,,,,1,5.617855,,0,0,85,85,46,1,stimuli/stim_20210407_power2amp/equal_lnn_AM2.4Hz_4.m4a,,,
,,,,,,,,,,,,41117,2021-04-26_11h29.17.976,judgeSpeechMusic_20210407_logNormShiftAmp,2020.1.2,Win32,60,,,,,,,,,,,,,,2,6.1685,,0,0,86,86,148,1,stimuli/stim_20210407_power2amp/equal_lnn_AM6Hz_19.m4a,,,
,,,,,,,,,,,,41117,2021-04-26_11h29.17.976,judgeSpeechMusic_20210407_logNormShiftAmp,2020.1.2,Win32,60,,,,,,,,,,,,,,1,6.53542,,0,0,87,87,31,1,stimuli/stim_20210407_power2amp/equal_lnn_AM1.8Hz_85.m4a,,,
,,,,,,,,,,,,41117,2021-04-26_11h29.17.976,judgeSpeechMusic_20210407_logNormShiftAmp,2020.1.2,Win32,60,,,,,,,,,,,,,,2,6.04244,,0,0,88,88,102,1,stimuli/stim_20210407_power2amp/equal_lnn_AM4.2Hz_51.m4a,,,
,,,,,,,,,,,,41117,2021-04-26_11h29.17.976,judgeSpeechMusic_20210407_logNormShiftAmp,2020.1.2,Win32,60,,,,,,,,,,,,,,1,5.756845,,0,0,89,89,25,1,stimuli/stim_20210407_power2amp/equal_lnn_AM1.2Hz_33.m4a,,,
,,,,,,,,,,,,41117,2021-04-26_11h29.17.976,judgeSpeechMusic_20210407_logNormShiftAmp,2020.1.2,Win32,60,,,,,,,,,,,,,,1,6.51808,,0,0,90,90,96,1,stimuli/stim_20210407_power2amp/equal_lnn_AM4.2Hz_98.m4a,,,
,,,,,,,,,,,,41117,2021-04-26_11h29.17.976,judgeSpeechMusic_20210407_logNormShiftAmp,2020.1.2,Win32,60,,,,,,,,,,,,,,2,5.907065,,0,0,91,91,98,1,stimuli/stim_20210407_power2amp/equal_lnn_AM4.2Hz_36.m4a,,,
,,,,,,,,,,,,41117,2021-04-26_11h29.17.976,judgeSpeechMusic_20210407_logNormShiftAmp,2020.1.2,Win32,60,,,,,,,,,,,,,,2,8.15335,,0,0,92,92,94,1,stimuli/stim_20210407_power2amp/equal_lnn_AM4.2Hz_76.m4a,,,
,,,,,,,,,,,,41117,2021-04-26_11h29.17.976,judgeSpeechMusic_20210407_logNormShiftAmp,2020.1.2,Win32,60,,,,,,,,,,,,,,1,5.735525,,0,0,93,93,1,1,stimuli/stim_20210407_power2amp/equal_lnn_AM0.6Hz_8.m4a,,,
,,,,,,,,,,,,41117,2021-04-26_11h29.17.976,judgeSpeechMusic_20210407_logNormShiftAmp,2020.1.2,Win32,60,,,,,,,,,,,,,,1,5.602185,,0,0,94,94,19,1,stimuli/stim_20210407_power2amp/equal_lnn_AM1.2Hz_53.m4a,,,
,,,,,,,,,,,,41117,2021-04-26_11h29.17.976,judgeSpeechMusic_20210407_logNormShiftAmp,2020.1.2,Win32,60,,,,,,,,,,,,,,1,5.60684,,0,0,95,95,24,1,stimuli/stim_20210407_power2amp/equal_lnn_AM1.2Hz_93.m4a,,,
,,,,,,,,,,,,41117,2021-04-26_11h29.17.976,judgeSpeechMusic_20210407_logNormShiftAmp,2020.1.2,Win32,60,,,,,,,,,,,,,,1,5.72339,,0,0,96,96,88,1,stimuli/stim_20210407_power2amp/equal_lnn_AM3.6Hz_68.m4a,,,
,,,,,,,,,,,,41117,2021-04-26_11h29.17.976,judgeSpeechMusic_20210407_logNormShiftAmp,2020.1.2,Win32,60,,,,,,,,,,,,,,1,5.55746,,0,0,97,97,53,1,stimuli/stim_20210407_power2amp/equal_lnn_AM2.4Hz_1.m4a,,,
,,,,,,,,,,,,41117,2021-04-26_11h29.17.976,judgeSpeechMusic_20210407_logNormShiftAmp,2020.1.2,Win32,60,,,,,,,,,,,,,,1,5.88756,,0,0,98,98,17,1,stimuli/stim_20210407_power2amp/equal_lnn_AM1.2Hz_76.m4a,,,
,,,,,,,,,,,,41117,2021-04-26_11h29.17.976,judgeSpeechMusic_20210407_logNormShiftAmp,2020.1.2,Win32,60,,,,,,,,,,,,,,2,5.96041,,0,0,99,99,89,1,stimuli/stim_20210407_power2amp/equal_lnn_AM3.6Hz_62.m4a,,,
,,,,,,,,,,,,41117,2021-04-26_11h29.17.976,judgeSpeechMusic_20210407_logNormShiftAmp,2020.1.2,Win32,60,,,,,,,,,,,,,,1,5.72355,,0,0,100,100,5,1,stimuli/stim_20210407_power2amp/equal_lnn_AM0.6Hz_31.m4a,,,
,,,,,,,,,,,,41117,2021-04-26_11h29.17.976,judgeSpeechMusic_20210407_logNormShiftAmp,2020.1.2,Win32,60,,,,,,,,,,,,,,2,5.851405,3,1,0,101,101,140,1,stimuli/stim_20210407_power2amp/equal_lnn_AM6Hz_38.m4a,0.420425,,
,,,,,,,,,,,,41117,2021-04-26_11h29.17.976,judgeSpeechMusic_20210407_logNormShiftAmp,2020.1.2,Win32,60,,,,,,,,,,,,,,1,6.266175,,0,0,102,102,97,1,stimuli/stim_20210407_power2amp/equal_lnn_AM4.2Hz_66.m4a,,,
,,,,,,,,,,,,41117,2021-04-26_11h29.17.976,judgeSpeechMusic_20210407_logNormShiftAmp,2020.1.2,Win32,60,,,,,,,,,,,,,,2,5.77222,,0,0,103,103,100,1,stimuli/stim_20210407_power2amp/equal_lnn_AM4.2Hz_68.m4a,,,
,,,,,,,,,,,,41117,2021-04-26_11h29.17.976,judgeSpeechMusic_20210407_logNormShiftAmp,2020.1.2,Win32,60,,,,,,,,,,,,,,2,5.56239,,0,0,104,104,130,1,stimuli/stim_20210407_power2amp/equal_lnn_AM5.4Hz_1.m4a,,,
,,,,,,,,,,,,41117,2021-04-26_11h29.17.976,judgeSpeechMusic_20210407_logNormShiftAmp,2020.1.2,Win32,60,,,,,,,,,,,,,,2,7.20762,,0,0,105,105,74,1,stimuli/stim_20210407_power2amp/equal_lnn_AM3Hz_70.m4a,,,
,,,,,,,,,,,,41117,2021-04-26_11h29.17.976,judgeSpeechMusic_20210407_logNormShiftAmp,2020.1.2,Win32,60,,,,,,,,,,,,,,1,5.652395,,0,0,106,106,0,1,stimuli/stim_20210407_power2amp/equal_lnn_AM0.6Hz_34.m4a,,,
,,,,,,,,,,,,41117,2021-04-26_11h29.17.976,judgeSpeechMusic_20210407_logNormShiftAmp,2020.1.2,Win32,60,,,,,,,,,,,,,,1,6.05179,,0,0,107,107,40,1,stimuli/stim_20210407_power2amp/equal_lnn_AM1.8Hz_34.m4a,,,
,,,,,,,,,,,,41117,2021-04-26_11h29.17.976,judgeSpeechMusic_20210407_logNormShiftAmp,2020.1.2,Win32,60,,,,,,,,,,,,,,2,7.252275,,0,0,108,108,85,1,stimuli/stim_20210407_power2amp/equal_lnn_AM3.6Hz_65.m4a,,,
,,,,,,,,,,,,41117,2021-04-26_11h29.17.976,judgeSpeechMusic_20210407_logNormShiftAmp,2020.1.2,Win32,60,,,,,,,,,,,,,,2,5.551405,,0,0,109,109,91,1,stimuli/stim_20210407_power2amp/equal_lnn_AM4.2Hz_17.m4a,,,
,,,,,,,,,,,,41117,2021-04-26_11h29.17.976,judgeSpeechMusic_20210407_logNormShiftAmp,2020.1.2,Win32,60,,,,,,,,,,,,,,2,5.957335,,0,0,110,110,120,1,stimuli/stim_20210407_power2amp/equal_lnn_AM5.4Hz_13.m4a,,,
,,,,,,,,,,,,41117,2021-04-26_11h29.17.976,judgeSpeechMusic_20210407_logNormShiftAmp,2020.1.2,Win32,60,,,,,,,,,,,,,,1,5.706055,,0,0,111,111,37,1,stimuli/stim_20210407_power2amp/equal_lnn_AM1.8Hz_25.m4a,,,
,,,,,,,,,,,,41117,2021-04-26_11h29.17.976,judgeSpeechMusic_20210407_logNormShiftAmp,2020.1.2,Win32,60,,,,,,,,,,,,,,1,5.669425,,0,0,112,112,76,1,stimuli/stim_20210407_power2amp/equal_lnn_AM3.6Hz_29.m4a,,,
,,,,,,,,,,,,41117,2021-04-26_11h29.17.976,judgeSpeechMusic_20210407_logNormShiftAmp,2020.1.2,Win32,60,,,,,,,,,,,,,,2,5.70132,,0,0,113,113,134,1,stimuli/stim_20210407_power2amp/equal_lnn_AM5.4Hz_50.m4a,,,
,,,,,,,,,,,,41117,2021-04-26_11h29.17.976,judgeSpeechMusic_20210407_logNormShiftAmp,2020.1.2,Win32,60,,,,,,,,,,,,,,2,5.64199,,0,0,114,114,83,1,stimuli/stim_20210407_power2amp/equal_lnn_AM3.6Hz_96.m4a,,,
,,,,,,,,,,,,41117,2021-04-26_11h29.17.976,judgeSpeechMusic_20210407_logNormShiftAmp,2020.1.2,Win32,60,,,,,,,,,,,,,,2,6.27371,,0,0,115,115,87,1,stimuli/stim_20210407_power2amp/equal_lnn_AM3.6Hz_45.m4a,,,
,,,,,,,,,,,,41117,2021-04-26_11h29.17.976,judgeSpeechMusic_20210407_logNormShiftAmp,2020.1.2,Win32,60,,,,,,,,,,,,,,1,7.48051,,0,0,116,116,55,1,stimuli/stim_20210407_power2amp/equal_lnn_AM2.4Hz_18.m4a,,,
,,,,,,,,,,,,41117,2021-04-26_11h29.17.976,judgeSpeechMusic_20210407_logNormShiftAmp,2020.1.2,Win32,60,,,,,,,,,,,,,,2,6.355975,,0,0,117,117,65,1,stimuli/stim_20210407_power2amp/equal_lnn_AM3Hz_46.m4a,,,
,,,,,,,,,,,,41117,2021-04-26_11h29.17.976,judgeSpeechMusic_20210407_logNormShiftAmp,2020.1.2,Win32,60,,,,,,,,,,,,,,1,5.699245,,0,0,118,118,43,1,stimuli/stim_20210407_power2amp/equal_lnn_AM1.8Hz_39.m4a,,,
,,,,,,,,,,,,41117,2021-04-26_11h29.17.976,judgeSpeechMusic_20210407_logNormShiftAmp,2020.1.2,Win32,60,,,,,,,,,,,,,,2,5.63453,,0,0,119,119,112,1,stimuli/stim_20210407_power2amp/equal_lnn_AM4.8Hz_89.m4a,,,
,,,,,,,,,,,,41117,2021-04-26_11h29.17.976,judgeSpeechMusic_20210407_logNormShiftAmp,2020.1.2,Win32,60,,,,,,,,,,,,,,1,5.93812,,0,0,120,120,54,1,stimuli/stim_20210407_power2amp/equal_lnn_AM2.4Hz_51.m4a,,,
,,,,,,,,,,,,41117,2021-04-26_11h29.17.976,judgeSpeechMusic_20210407_logNormShiftAmp,2020.1.2,Win32,60,,,,,,,,,,,,,,2,5.73909,,0,0,121,121,105,1,stimuli/stim_20210407_power2amp/equal_lnn_AM4.8Hz_2.m4a,,,
,,,,,,,,,,,,41117,2021-04-26_11h29.17.976,judgeSpeechMusic_20210407_logNormShiftAmp,2020.1.2,Win32,60,,,,,,,,,,,,,,1,6.03904,,0,0,122,122,62,1,stimuli/stim_20210407_power2amp/equal_lnn_AM3Hz_12.m4a,,,
,,,,,,,,,,,,41117,2021-04-26_11h29.17.976,judgeSpeechMusic_20210407_logNormShiftAmp,2020.1.2,Win32,60,,,,,,,,,,,,,,2,6.81904,,0,0,123,123,73,1,stimuli/stim_20210407_power2amp/equal_lnn_AM3Hz_27.m4a,,,
,,,,,,,,,,,,41117,2021-04-26_11h29.17.976,judgeSpeechMusic_20210407_logNormShiftAmp,2020.1.2,Win32,60,,,,,,,,,,,,,,2,7.422225,,0,0,124,124,67,1,stimuli/stim_20210407_power2amp/equal_lnn_AM3Hz_87.m4a,,,
,,,,,,,,,,,,41117,2021-04-26_11h29.17.976,judgeSpeechMusic_20210407_logNormShiftAmp,2020.1.2,Win32,60,,,,,,,,,,,,,,2,7.536455,3,1,0,125,125,86,1,stimuli/stim_20210407_power2amp/equal_lnn_AM3.6Hz_94.m4a,2.033445,,
,,,,,,,,,,,,41117,2021-04-26_11h29.17.976,judgeSpeechMusic_20210407_logNormShiftAmp,2020.1.2,Win32,60,,,,,,,,,,,,,,2,6.39958,,0,0,126,126,145,1,stimuli/stim_20210407_power2amp/equal_lnn_AM6Hz_14.m4a,,,
,,,,,,,,,,,,41117,2021-04-26_11h29.17.976,judgeSpeechMusic_20210407_logNormShiftAmp,2020.1.2,Win32,60,,,,,,,,,,,,,,2,7.95561,,0,0,127,127,141,1,stimuli/stim_20210407_power2amp/equal_lnn_AM6Hz_27.m4a,,,
,,,,,,,,,,,,41117,2021-04-26_11h29.17.976,judgeSpeechMusic_20210407_logNormShiftAmp,2020.1.2,Win32,60,,,,,,,,,,,,,,2,6.00505,,0,0,128,128,139,1,stimuli/stim_20210407_power2amp/equal_lnn_AM6Hz_37.m4a,,,
,,,,,,,,,,,,41117,2021-04-26_11h29.17.976,judgeSpeechMusic_20210407_logNormShiftAmp,2020.1.2,Win32,60,,,,,,,,,,,,,,2,5.97344,,0,0,129,129,124,1,stimuli/stim_20210407_power2amp/equal_lnn_AM5.4Hz_70.m4a,,,
,,,,,,,,,,,,41117,2021-04-26_11h29.17.976,judgeSpeechMusic_20210407_logNormShiftAmp,2020.1.2,Win32,60,,,,,,,,,,,,,,1,8.292095,,0,0,130,130,47,1,stimuli/stim_20210407_power2amp/equal_lnn_AM2.4Hz_57.m4a,,,
,,,,,,,,,,,,41117,2021-04-26_11h29.17.976,judgeSpeechMusic_20210407_logNormShiftAmp,2020.1.2,Win32,60,,,,,,,,,,,,,,2,5.851755,,0,0,131,131,71,1,stimuli/stim_20210407_power2amp/equal_lnn_AM3Hz_24.m4a,,,
,,,,,,,,,,,,41117,2021-04-26_11h29.17.976,judgeSpeechMusic_20210407_logNormShiftAmp,2020.1.2,Win32,60,,,,,,,,,,,,,,2,9.788805,,0,0,132,132,115,1,stimuli/stim_20210407_power2amp/equal_lnn_AM4.8Hz_40.m4a,,,
,,,,,,,,,,,,41117,2021-04-26_11h29.17.976,judgeSpeechMusic_20210407_logNormShiftAmp,2020.1.2,Win32,60,,,,,,,,,,,,,,2,15.14169,,0,0,133,133,125,1,stimuli/stim_20210407_power2amp/equal_lnn_AM5.4Hz_11.m4a,,,
,,,,,,,,,,,,41117,2021-04-26_11h29.17.976,judgeSpeechMusic_20210407_logNormShiftAmp,2020.1.2,Win32,60,,,,,,,,,,,,,,2,5.923125,,0,0,134,134,77,1,stimuli/stim_20210407_power2amp/equal_lnn_AM3.6Hz_39.m4a,,,
,,,,,,,,,,,,41117,2021-04-26_11h29.17.976,judgeSpeechMusic_20210407_logNormShiftAmp,2020.1.2,Win32,60,,,,,,,,,,,,,,1,5.8078,,0,0,135,135,80,1,stimuli/stim_20210407_power2amp/equal_lnn_AM3.6Hz_12.m4a,,,
,,,,,,,,,,,,41117,2021-04-26_11h29.17.976,judgeSpeechMusic_20210407_logNormShiftAmp,2020.1.2,Win32,60,,,,,,,,,,,,,,1,5.855785,,0,0,136,136,132,1,stimuli/stim_20210407_power2amp/equal_lnn_AM5.4Hz_60.m4a,,,
,,,,,,,,,,,,41117,2021-04-26_11h29.17.976,judgeSpeechMusic_20210407_logNormShiftAmp,2020.1.2,Win32,60,,,,,,,,,,,,,,1,7.47461,,0,0,137,137,8,1,stimuli/stim_20210407_power2amp/equal_lnn_AM0.6Hz_23.m4a,,,
,,,,,,,,,,,,41117,2021-04-26_11h29.17.976,judgeSpeechMusic_20210407_logNormShiftAmp,2020.1.2,Win32,60,,,,,,,,,,,,,,2,6.483785,,0,0,138,138,121,1,stimuli/stim_20210407_power2amp/equal_lnn_AM5.4Hz_17.m4a,,,
,,,,,,,,,,,,41117,2021-04-26_11h29.17.976,judgeSpeechMusic_20210407_logNormShiftAmp,2020.1.2,Win32,60,,,,,,,,,,,,,,2,6.507175,,0,0,139,139,142,1,stimuli/stim_20210407_power2amp/equal_lnn_AM6Hz_82.m4a,,,
,,,,,,,,,,,,41117,2021-04-26_11h29.17.976,judgeSpeechMusic_20210407_logNormShiftAmp,2020.1.2,Win32,60,,,,,,,,,,,,,,2,5.53482,,0,0,140,140,126,1,stimuli/stim_20210407_power2amp/equal_lnn_AM5.4Hz_8.m4a,,,
,,,,,,,,,,,,41117,2021-04-26_11h29.17.976,judgeSpeechMusic_20210407_logNormShiftAmp,2020.1.2,Win32,60,,,,,,,,,,,,,,2,5.750985,,0,0,141,141,106,1,stimuli/stim_20210407_power2amp/equal_lnn_AM4.8Hz_98.m4a,,,
,,,,,,,,,,,,41117,2021-04-26_11h29.17.976,judgeSpeechMusic_20210407_logNormShiftAmp,2020.1.2,Win32,60,,,,,,,,,,,,,,1,5.718245,,0,0,142,142,11,1,stimuli/stim_20210407_power2amp/equal_lnn_AM0.6Hz_26.m4a,,,
,,,,,,,,,,,,41117,2021-04-26_11h29.17.976,judgeSpeechMusic_20210407_logNormShiftAmp,2020.1.2,Win32,60,,,,,,,,,,,,,,1,6.552425,,0,0,143,143,22,1,stimuli/stim_20210407_power2amp/equal_lnn_AM1.2Hz_31.m4a,,,
,,,,,,,,,,,,41117,2021-04-26_11h29.17.976,judgeSpeechMusic_20210407_logNormShiftAmp,2020.1.2,Win32,60,,,,,,,,,,,,,,1,6.152475,,0,0,144,144,28,1,stimuli/stim_20210407_power2amp/equal_lnn_AM1.2Hz_9.m4a,,,
,,,,,,,,,,,,41117,2021-04-26_11h29.17.976,judgeSpeechMusic_20210407_logNormShiftAmp,2020.1.2,Win32,60,,,,,,,,,,,,,,2,5.701275,,0,0,145,145,92,1,stimuli/stim_20210407_power2amp/equal_lnn_AM4.2Hz_63.m4a,,,
,,,,,,,,,,,,41117,2021-04-26_11h29.17.976,judgeSpeechMusic_20210407_logNormShiftAmp,2020.1.2,Win32,60,,,,,,,,,,,,,,2,7.54048,,0,0,146,146,69,1,stimuli/stim_20210407_power2amp/equal_lnn_AM3Hz_14.m4a,,,
,,,,,,,,,,,,41117,2021-04-26_11h29.17.976,judgeSpeechMusic_20210407_logNormShiftAmp,2020.1.2,Win32,60,,,,,,,,,,,,,,2,5.77346,2,1,0,147,147,122,1,stimuli/stim_20210407_power2amp/equal_lnn_AM5.4Hz_27.m4a,0.925235,,
,,,,,,,,,,,,41117,2021-04-26_11h29.17.976,judgeSpeechMusic_20210407_logNormShiftAmp,2020.1.2,Win32,60,,,,,,,,,,,,,,2,6.669095,,0,0,148,148,78,1,stimuli/stim_20210407_power2amp/equal_lnn_AM3.6Hz_15.m4a,,,
,,,,,,,,,,,,41117,2021-04-26_11h29.17.976,judgeSpeechMusic_20210407_logNormShiftAmp,2020.1.2,Win32,60,,,,,,,,,,,,,,1,9.754895,,0,0,149,149,12,1,stimuli/stim_20210407_power2amp/equal_lnn_AM0.6Hz_56.m4a,,,
,,,,,,,,,,,,41117,2021-04-26_11h29.17.976,judgeSpeechMusic_20210407_logNormShiftAmp,2020.1.2,Win32,60,,,,,,,,,,,,,,2,6.202635,,0,1,0,150,100,1,stimuli/stim_20210407_power2amp/equal_lnn_AM4.2Hz_68.m4a,,,
,,,,,,,,,,,,41117,2021-04-26_11h29.17.976,judgeSpeechMusic_20210407_logNormShiftAmp,2020.1.2,Win32,60,,,,,,,,,,,,,,2,6.359315,,0,1,1,151,88,1,stimuli/stim_20210407_power2amp/equal_lnn_AM3.6Hz_68.m4a,,,
,,,,,,,,,,,,41117,2021-04-26_11h29.17.976,judgeSpeechMusic_20210407_logNormShiftAmp,2020.1.2,Win32,60,,,,,,,,,,,,,,2,5.86752,,0,1,2,152,149,1,stimuli/stim_20210407_power2amp/equal_lnn_AM6Hz_71.m4a,,,
,,,,,,,,,,,,41117,2021-04-26_11h29.17.976,judgeSpeechMusic_20210407_logNormShiftAmp,2020.1.2,Win32,60,,,,,,,,,,,,,,2,5.66295,,0,1,3,153,127,1,stimuli/stim_20210407_power2amp/equal_lnn_AM5.4Hz_65.m4a,,,
,,,,,,,,,,,,41117,2021-04-26_11h29.17.976,judgeSpeechMusic_20210407_logNormShiftAmp,2020.1.2,Win32,60,,,,,,,,,,,,,,1,7.65224,,0,1,4,154,102,1,stimuli/stim_20210407_power2amp/equal_lnn_AM4.2Hz_51.m4a,,,
,,,,,,,,,,,,41117,2021-04-26_11h29.17.976,judgeSpeechMusic_20210407_logNormShiftAmp,2020.1.2,Win32,60,,,,,,,,,,,,,,1,5.758655,,0,1,5,155,1,1,stimuli/stim_20210407_power2amp/equal_lnn_AM0.6Hz_8.m4a,,,
,,,,,,,,,,,,41117,2021-04-26_11h29.17.976,judgeSpeechMusic_20210407_logNormShiftAmp,2020.1.2,Win32,60,,,,,,,,,,,,,,1,5.903025,,0,1,6,156,58,1,stimuli/stim_20210407_power2amp/equal_lnn_AM2.4Hz_13.m4a,,,
,,,,,,,,,,,,41117,2021-04-26_11h29.17.976,judgeSpeechMusic_20210407_logNormShiftAmp,2020.1.2,Win32,60,,,,,,,,,,,,,,1,6.30896,,0,1,7,157,50,1,stimuli/stim_20210407_power2amp/equal_lnn_AM2.4Hz_95.m4a,,,
,,,,,,,,,,,,41117,2021-04-26_11h29.17.976,judgeSpeechMusic_20210407_logNormShiftAmp,2020.1.2,Win32,60,,,,,,,,,,,,,,1,6.084505,,0,1,8,158,37,1,stimuli/stim_20210407_power2amp/equal_lnn_AM1.8Hz_25.m4a,,,
,,,,,,,,,,,,41117,2021-04-26_11h29.17.976,judgeSpeechMusic_20210407_logNormShiftAmp,2020.1.2,Win32,60,,,,,,,,,,,,,,1,6.965085,,0,1,9,159,81,1,stimuli/stim_20210407_power2amp/equal_lnn_AM3.6Hz_11.m4a,,,
,,,,,,,,,,,,41117,2021-04-26_11h29.17.976,judgeSpeechMusic_20210407_logNormShiftAmp,2020.1.2,Win32,60,,,,,,,,,,,,,,1,6.20738,,0,1,10,160,6,1,stimuli/stim_20210407_power2amp/equal_lnn_AM0.6Hz_73.m4a,,,
,,,,,,,,,,,,41117,2021-04-26_11h29.17.976,judgeSpeechMusic_20210407_logNormShiftAmp,2020.1.2,Win32,60,,,,,,,,,,,,,,1,6.85249,,0,1,11,161,32,1,stimuli/stim_20210407_power2amp/equal_lnn_AM1.8Hz_14.m4a,,,
,,,,,,,,,,,,41117,2021-04-26_11h29.17.976,judgeSpeechMusic_20210407_logNormShiftAmp,2020.1.2,Win32,60,,,,,,,,,,,,,,1,11.264625,,0,1,12,162,74,1,stimuli/stim_20210407_power2amp/equal_lnn_AM3Hz_70.m4a,,,
,,,,,,,,,,,,41117,2021-04-26_11h29.17.976,judgeSpeechMusic_20210407_logNormShiftAmp,2020.1.2,Win32,60,,,,,,,,,,,,,,1,7.21087,,0,1,13,163,44,1,stimuli/stim_20210407_power2amp/equal_lnn_AM1.8Hz_17.m4a,,,
,,,,,,,,,,,,41117,2021-04-26_11h29.17.976,judgeSpeechMusic_20210407_logNormShiftAmp,2020.1.2,Win32,60,,,,,,,,,,,,,,1,6.42936,,0,1,14,164,28,1,stimuli/stim_20210407_power2amp/equal_lnn_AM1.2Hz_9.m4a,,,
,,,,,,,,,,,,41117,2021-04-26_11h29.17.976,judgeSpeechMusic_20210407_logNormShiftAmp,2020.1.2,Win32,60,,,,,,,,,,,,,,2,5.59396,,0,1,15,165,78,1,stimuli/stim_20210407_power2amp/equal_lnn_AM3.6Hz_15.m4a,,,
,,,,,,,,,,,,41117,2021-04-26_11h29.17.976,judgeSpeechMusic_20210407_logNormShiftAmp,2020.1.2,Win32,60,,,,,,,,,,,,,,2,5.629845,,0,1,16,166,121,1,stimuli/stim_20210407_power2amp/equal_lnn_AM5.4Hz_17.m4a,,,
,,,,,,,,,,,,41117,2021-04-26_11h29.17.976,judgeSpeechMusic_20210407_logNormShiftAmp,2020.1.2,Win32,60,,,,,,,,,,,,,,2,5.891745,,0,1,17,167,104,1,stimuli/stim_20210407_power2amp/equal_lnn_AM4.2Hz_75.m4a,,,
,,,,,,,,,,,,41117,2021-04-26_11h29.17.976,judgeSpeechMusic_20210407_logNormShiftAmp,2020.1.2,Win32,60,,,,,,,,,,,,,,1,6.933105,2,1,1,18,168,57,1,stimuli/stim_20210407_power2amp/equal_lnn_AM2.4Hz_92.m4a,1.357775,,
,,,,,,,,,,,,41117,2021-04-26_11h29.17.976,judgeSpeechMusic_20210407_logNormShiftAmp,2020.1.2,Win32,60,,,,,,,,,,,,,,1,5.922125,,0,1,19,169,8,1,stimuli/stim_20210407_power2amp/equal_lnn_AM0.6Hz_23.m4a,,,
,,,,,,,,,,,,41117,2021-04-26_11h29.17.976,judgeSpeechMusic_20210407_logNormShiftAmp,2020.1.2,Win32,60,,,,,,,,,,,,,,2,6.0233,,0,1,20,170,90,1,stimuli/stim_20210407_power2amp/equal_lnn_AM4.2Hz_56.m4a,,,
,,,,,,,,,,,,41117,2021-04-26_11h29.17.976,judgeSpeechMusic_20210407_logNormShiftAmp,2020.1.2,Win32,60,,,,,,,,,,,,,,1,6.54105,,0,1,21,171,36,1,stimuli/stim_20210407_power2amp/equal_lnn_AM1.8Hz_71.m4a,,,
,,,,,,,,,,,,41117,2021-04-26_11h29.17.976,judgeSpeechMusic_20210407_logNormShiftAmp,2020.1.2,Win32,60,,,,,,,,,,,,,,2,6.707745,,0,1,22,172,112,1,stimuli/stim_20210407_power2amp/equal_lnn_AM4.8Hz_89.m4a,,,
,,,,,,,,,,,,41117,2021-04-26_11h29.17.976,judgeSpeechMusic_20210407_logNormShiftAmp,2020.1.2,Win32,60,,,,,,,,,,,,,,1,11.97281,,0,1,23,173,20,1,stimuli/stim_20210407_power2amp/equal_lnn_AM1.2Hz_97.m4a,,,
,,,,,,,,,,,,41117,2021-04-26_11h29.17.976,judgeSpeechMusic_20210407_logNormShiftAmp,2020.1.2,Win32,60,,,,,,,,,,,,,,2,6.47434,,0,1,24,174,116,1,stimuli/stim_20210407_power2amp/equal_lnn_AM4.8Hz_7.m4a,,,
,,,,,,,,,,,,41117,2021-04-26_11h29.17.976,judgeSpeechMusic_20210407_logNormShiftAmp,2020.1.2,Win32,60,,,,,,,,,,,,,,1,10.17784,,0,1,25,175,144,1,stimuli/stim_20210407_power2amp/equal_lnn_AM6Hz_28.m4a,,,
,,,,,,,,,,,,41117,2021-04-26_11h29.17.976,judgeSpeechMusic_20210407_logNormShiftAmp,2020.1.2,Win32,60,,,,,,,,,,,,,,1,10.410615,,0,1,26,176,83,1,stimuli/stim_20210407_power2amp/equal_lnn_AM3.6Hz_96.m4a,,,
,,,,,,,,,,,,41117,2021-04-26_11h29.17.976,judgeSpeechMusic_20210407_logNormShiftAmp,2020.1.2,Win32,60,,,,,,,,,,,,,,2,10.004185,,0,1,27,177,138,1,stimuli/stim_20210407_power2amp/equal_lnn_AM6Hz_8.m4a,,,
,,,,,,,,,,,,41117,2021-04-26_11h29.17.976,judgeSpeechMusic_20210407_logNormShiftAmp,2020.1.2,Win32,60,,,,,,,,,,,,,,2,6.65465,,0,1,28,178,137,1,stimuli/stim_20210407_power2amp/equal_lnn_AM6Hz_4.m4a,,,
,,,,,,,,,,,,41117,2021-04-26_11h29.17.976,judgeSpeechMusic_20210407_logNormShiftAmp,2020.1.2,Win32,60,,,,,,,,,,,,,,1,5.9999,,0,1,29,179,0,1,stimuli/stim_20210407_power2amp/equal_lnn_AM0.6Hz_34.m4a,,,
,,,,,,,,,,,,41117,2021-04-26_11h29.17.976,judgeSpeechMusic_20210407_logNormShiftAmp,2020.1.2,Win32,60,,,,,,,,,,,,,,1,5.969775,,0,1,30,180,2,1,stimuli/stim_20210407_power2amp/equal_lnn_AM0.6Hz_15.m4a,,,
,,,,,,,,,,,,41117,2021-04-26_11h29.17.976,judgeSpeechMusic_20210407_logNormShiftAmp,2020.1.2,Win32,60,,,,,,,,,,,,,,1,5.867995,,0,1,31,181,16,1,stimuli/stim_20210407_power2amp/equal_lnn_AM1.2Hz_2.m4a,,,
,,,,,,,,,,,,41117,2021-04-26_11h29.17.976,judgeSpeechMusic_20210407_logNormShiftAmp,2020.1.2,Win32,60,,,,,,,,,,,,,,1,5.734915,,0,1,32,182,21,1,stimuli/stim_20210407_power2amp/equal_lnn_AM1.2Hz_85.m4a,,,
,,,,,,,,,,,,41117,2021-04-26_11h29.17.976,judgeSpeechMusic_20210407_logNormShiftAmp,2020.1.2,Win32,60,,,,,,,,,,,,,,2,10.11116,,0,1,33,183,122,1,stimuli/stim_20210407_power2amp/equal_lnn_AM5.4Hz_27.m4a,,,
,,,,,,,,,,,,41117,2021-04-26_11h29.17.976,judgeSpeechMusic_20210407_logNormShiftAmp,2020.1.2,Win32,60,,,,,,,,,,,,,,1,5.90726,,0,1,34,184,29,1,stimuli/stim_20210407_power2amp/equal_lnn_AM1.2Hz_20.m4a,,,
,,,,,,,,,,,,41117,2021-04-26_11h29.17.976,judgeSpeechMusic_20210407_logNormShiftAmp,2020.1.2,Win32,60,,,,,,,,,,,,,,2,6.190415,,0,1,35,185,85,1,stimuli/stim_20210407_power2amp/equal_lnn_AM3.6Hz_65.m4a,,,
,,,,,,,,,,,,41117,2021-04-26_11h29.17.976,judgeSpeechMusic_20210407_logNormShiftAmp,2020.1.2,Win32,60,,,,,,,,,,,,,,1,10.081355,,0,1,36,186,39,1,stimuli/stim_20210407_power2amp/equal_lnn_AM1.8Hz_47.m4a,,,
,,,,,,,,,,,,41117,2021-04-26_11h29.17.976,judgeSpeechMusic_20210407_logNormShiftAmp,2020.1.2,Win32,60,,,,,,,,,,,,,,1,5.85805,,0,1,37,187,27,1,stimuli/stim_20210407_power2amp/equal_lnn_AM1.2Hz_41.m4a,,,
,,,,,,,,,,,,41117,2021-04-26_11h29.17.976,judgeSpeechMusic_20210407_logNormShiftAmp,2020.1.2,Win32,60,,,,,,,,,,,,,,2,5.830885,,0,1,38,188,142,1,stimuli/stim_20210407_power2amp/equal_lnn_AM6Hz_82.m4a,,,
,,,,,,,,,,,,41117,2021-04-26_11h29.17.976,judgeSpeechMusic_20210407_logNormShiftAmp,2020.1.2,Win32,60,,,,,,,,,,,,,,2,7.275695,,0,1,39,189,114,1,stimuli/stim_20210407_power2amp/equal_lnn_AM4.8Hz_75.m4a,,,
,,,,,,,,,,,,41117,2021-04-26_11h29.17.976,judgeSpeechMusic_20210407_logNormShiftAmp,2020.1.2,Win32,60,,,,,,,,,,,,,,1,9.817615,,0,1,40,190,33,1,stimuli/stim_20210407_power2amp/equal_lnn_AM1.8Hz_87.m4a,,,
,,,,,,,,,,,,41117,2021-04-26_11h29.17.976,judgeSpeechMusic_20210407_logNormShiftAmp,2020.1.2,Win32,60,,,,,,,,,,,,,,1,7.65028,,0,1,41,191,26,1,stimuli/stim_20210407_power2amp/equal_lnn_AM1.2Hz_88.m4a,,,
,,,,,,,,,,,,41117,2021-04-26_11h29.17.976,judgeSpeechMusic_20210407_logNormShiftAmp,2020.1.2,Win32,60,,,,,,,,,,,,,,2,5.827195,,0,1,42,192,77,1,stimuli/stim_20210407_power2amp/equal_lnn_AM3.6Hz_39.m4a,,,
,,,,,,,,,,,,41117,2021-04-26_11h29.17.976,judgeSpeechMusic_20210407_logNormShiftAmp,2020.1.2,Win32,60,,,,,,,,,,,,,,2,6.94398,2,1,1,43,193,139,1,stimuli/stim_20210407_power2amp/equal_lnn_AM6Hz_37.m4a,1.69245,,
,,,,,,,,,,,,41117,2021-04-26_11h29.17.976,judgeSpeechMusic_20210407_logNormShiftAmp,2020.1.2,Win32,60,,,,,,,,,,,,,,2,6.887755,,0,1,44,194,65,1,stimuli/stim_20210407_power2amp/equal_lnn_AM3Hz_46.m4a,,,
,,,,,,,,,,,,41117,2021-04-26_11h29.17.976,judgeSpeechMusic_20210407_logNormShiftAmp,2020.1.2,Win32,60,,,,,,,,,,,,,,1,8.322345,,0,1,45,195,7,1,stimuli/stim_20210407_power2amp/equal_lnn_AM0.6Hz_52.m4a,,,
,,,,,,,,,,,,41117,2021-04-26_11h29.17.976,judgeSpeechMusic_20210407_logNormShiftAmp,2020.1.2,Win32,60,,,,,,,,,,,,,,2,12.31932,,0,1,46,196,119,1,stimuli/stim_20210407_power2amp/equal_lnn_AM4.8Hz_59.m4a,,,
,,,,,,,,,,,,41117,2021-04-26_11h29.17.976,judgeSpeechMusic_20210407_logNormShiftAmp,2020.1.2,Win32,60,,,,,,,,,,,,,,2,6.75912,,0,1,47,197,61,1,stimuli/stim_20210407_power2amp/equal_lnn_AM3Hz_2.m4a,,,
,,,,,,,,,,,,41117,2021-04-26_11h29.17.976,judgeSpeechMusic_20210407_logNormShiftAmp,2020.1.2,Win32,60,,,,,,,,,,,,,,1,6.46993,,0,1,48,198,17,1,stimuli/stim_20210407_power2amp/equal_lnn_AM1.2Hz_76.m4a,,,
,,,,,,,,,,,,41117,2021-04-26_11h29.17.976,judgeSpeechMusic_20210407_logNormShiftAmp,2020.1.2,Win32,60,,,,,,,,,,,,,,2,6.183365,,0,1,49,199,66,1,stimuli/stim_20210407_power2amp/equal_lnn_AM3Hz_89.m4a,,,
,,,,,,,,,,,,41117,2021-04-26_11h29.17.976,judgeSpeechMusic_20210407_logNormShiftAmp,2020.1.2,Win32,60,,,,,,,,,,,,,,2,5.5973,,0,1,50,200,96,1,stimuli/stim_20210407_power2amp/equal_lnn_AM4.2Hz_98.m4a,,,
,,,,,,,,,,,,41117,2021-04-26_11h29.17.976,judgeSpeechMusic_20210407_logNormShiftAmp,2020.1.2,Win32,60,,,,,,,,,,,,,,1,5.93006,,0,1,51,201,23,1,stimuli/stim_20210407_power2amp/equal_lnn_AM1.2Hz_3.m4a,,,
,,,,,,,,,,,,41117,2021-04-26_11h29.17.976,judgeSpeechMusic_20210407_logNormShiftAmp,2020.1.2,Win32,60,,,,,,,,,,,,,,1,6.21314,,0,1,52,202,38,1,stimuli/stim_20210407_power2amp/equal_lnn_AM1.8Hz_79.m4a,,,
,,,,,,,,,,,,41117,2021-04-26_11h29.17.976,judgeSpeechMusic_20210407_logNormShiftAmp,2020.1.2,Win32,60,,,,,,,,,,,,,,1,6.100375,,0,1,53,203,19,1,stimuli/stim_20210407_power2amp/equal_lnn_AM1.2Hz_53.m4a,,,
,,,,,,,,,,,,41117,2021-04-26_11h29.17.976,judgeSpeechMusic_20210407_logNormShiftAmp,2020.1.2,Win32,60,,,,,,,,,,,,,,1,7.003875,,0,1,54,204,22,1,stimuli/stim_20210407_power2amp/equal_lnn_AM1.2Hz_31.m4a,,,
,,,,,,,,,,,,41117,2021-04-26_11h29.17.976,judgeSpeechMusic_20210407_logNormShiftAmp,2020.1.2,Win32,60,,,,,,,,,,,,,,1,9.79858,,0,1,55,205,9,1,stimuli/stim_20210407_power2amp/equal_lnn_AM0.6Hz_81.m4a,,,
,,,,,,,,,,,,41117,2021-04-26_11h29.17.976,judgeSpeechMusic_20210407_logNormShiftAmp,2020.1.2,Win32,60,,,,,,,,,,,,,,2,7.558095,,0,1,56,206,134,1,stimuli/stim_20210407_power2amp/equal_lnn_AM5.4Hz_50.m4a,,,
,,,,,,,,,,,,41117,2021-04-26_11h29.17.976,judgeSpeechMusic_20210407_logNormShiftAmp,2020.1.2,Win32,60,,,,,,,,,,,,,,2,9.25275,,0,1,57,207,60,1,stimuli/stim_20210407_power2amp/equal_lnn_AM3Hz_68.m4a,,,
,,,,,,,,,,,,41117,2021-04-26_11h29.17.976,judgeSpeechMusic_20210407_logNormShiftAmp,2020.1.2,Win32,60,,,,,,,,,,,,,,1,6.34547,,0,1,58,208,3,1,stimuli/stim_20210407_power2amp/equal_lnn_AM0.6Hz_48.m4a,,,
,,,,,,,,,,,,41117,2021-04-26_11h29.17.976,judgeSpeechMusic_20210407_logNormShiftAmp,2020.1.2,Win32,60,,,,,,,,,,,,,,2,7.646935,,0,1,59,209,133,1,stimuli/stim_20210407_power2amp/equal_lnn_AM5.4Hz_95.m4a,,,
,,,,,,,,,,,,41117,2021-04-26_11h29.17.976,judgeSpeechMusic_20210407_logNormShiftAmp,2020.1.2,Win32,60,,,,,,,,,,,,,,2,5.620575,,0,1,60,210,124,1,stimuli/stim_20210407_power2amp/equal_lnn_AM5.4Hz_70.m4a,,,
,,,,,,,,,,,,41117,2021-04-26_11h29.17.976,judgeSpeechMusic_20210407_logNormShiftAmp,2020.1.2,Win32,60,,,,,,,,,,,,,,1,6.322535,,0,1,61,211,59,1,stimuli/stim_20210407_power2amp/equal_lnn_AM2.4Hz_17.m4a,,,
,,,,,,,,,,,,41117,2021-04-26_11h29.17.976,judgeSpeechMusic_20210407_logNormShiftAmp,2020.1.2,Win32,60,,,,,,,,,,,,,,2,7.808975,,0,1,62,212,75,1,stimuli/stim_20210407_power2amp/equal_lnn_AM3.6Hz_83.m4a,,,
,,,,,,,,,,,,41117,2021-04-26_11h29.17.976,judgeSpeechMusic_20210407_logNormShiftAmp,2020.1.2,Win32,60,,,,,,,,,,,,,,2,7.063565,,0,1,63,213,89,1,stimuli/stim_20210407_power2amp/equal_lnn_AM3.6Hz_62.m4a,,,
,,,,,,,,,,,,41117,2021-04-26_11h29.17.976,judgeSpeechMusic_20210407_logNormShiftAmp,2020.1.2,Win32,60,,,,,,,,,,,,,,2,6.06837,,0,1,64,214,146,1,stimuli/stim_20210407_power2amp/equal_lnn_AM6Hz_79.m4a,,,
,,,,,,,,,,,,41117,2021-04-26_11h29.17.976,judgeSpeechMusic_20210407_logNormShiftAmp,2020.1.2,Win32,60,,,,,,,,,,,,,,2,8.616115,,0,1,65,215,84,1,stimuli/stim_20210407_power2amp/equal_lnn_AM3.6Hz_8.m4a,,,
,,,,,,,,,,,,41117,2021-04-26_11h29.17.976,judgeSpeechMusic_20210407_logNormShiftAmp,2020.1.2,Win32,60,,,,,,,,,,,,,,2,13.02115,,0,1,66,216,99,1,stimuli/stim_20210407_power2amp/equal_lnn_AM4.2Hz_60.m4a,,,
,,,,,,,,,,,,41117,2021-04-26_11h29.17.976,judgeSpeechMusic_20210407_logNormShiftAmp,2020.1.2,Win32,60,,,,,,,,,,,,,,2,7.199755,3,1,1,67,217,120,1,stimuli/stim_20210407_power2amp/equal_lnn_AM5.4Hz_13.m4a,1.77774,,
,,,,,,,,,,,,41117,2021-04-26_11h29.17.976,judgeSpeechMusic_20210407_logNormShiftAmp,2020.1.2,Win32,60,,,,,,,,,,,,,,2,7.225145,,0,1,68,218,91,1,stimuli/stim_20210407_power2amp/equal_lnn_AM4.2Hz_17.m4a,,,
,,,,,,,,,,,,41117,2021-04-26_11h29.17.976,judgeSpeechMusic_20210407_logNormShiftAmp,2020.1.2,Win32,60,,,,,,,,,,,,,,2,9.432115,,0,1,69,219,49,1,stimuli/stim_20210407_power2amp/equal_lnn_AM2.4Hz_87.m4a,,,
,,,,,,,,,,,,41117,2021-04-26_11h29.17.976,judgeSpeechMusic_20210407_logNormShiftAmp,2020.1.2,Win32,60,,,,,,,,,,,,,,2,6.97527,,0,1,70,220,56,1,stimuli/stim_20210407_power2amp/equal_lnn_AM2.4Hz_100.m4a,,,
,,,,,,,,,,,,41117,2021-04-26_11h29.17.976,judgeSpeechMusic_20210407_logNormShiftAmp,2020.1.2,Win32,60,,,,,,,,,,,,,,2,6.994095,,0,1,71,221,72,1,stimuli/stim_20210407_power2amp/equal_lnn_AM3Hz_75.m4a,,,
,,,,,,,,,,,,41117,2021-04-26_11h29.17.976,judgeSpeechMusic_20210407_logNormShiftAmp,2020.1.2,Win32,60,,,,,,,,,,,,,,2,8.011875,,0,1,72,222,118,1,stimuli/stim_20210407_power2amp/equal_lnn_AM4.8Hz_31.m4a,,,
,,,,,,,,,,,,41117,2021-04-26_11h29.17.976,judgeSpeechMusic_20210407_logNormShiftAmp,2020.1.2,Win32,60,,,,,,,,,,,,,,1,5.79778,,0,1,73,223,15,1,stimuli/stim_20210407_power2amp/equal_lnn_AM1.2Hz_56.m4a,,,
,,,,,,,,,,,,41117,2021-04-26_11h29.17.976,judgeSpeechMusic_20210407_logNormShiftAmp,2020.1.2,Win32,60,,,,,,,,,,,,,,2,7.560485,,0,1,74,224,136,1,stimuli/stim_20210407_power2amp/equal_lnn_AM6Hz_76.m4a,,,
,,,,,,,,,,,,41117,2021-04-26_11h29.17.976,judgeSpeechMusic_20210407_logNormShiftAmp,2020.1.2,Win32,60,,,,,,,,,,,,,,1,6.545465,,0,1,75,225,4,1,stimuli/stim_20210407_power2amp/equal_lnn_AM0.6Hz_65.m4a,,,
,,,,,,,,,,,,41117,2021-04-26_11h29.17.976,judgeSpeechMusic_20210407_logNormShiftAmp,2020.1.2,Win32,60,,,,,,,,,,,,,,2,6.755295,,0,1,76,226,123,1,stimuli/stim_20210407_power2amp/equal_lnn_AM5.4Hz_76.m4a,,,
,,,,,,,,,,,,41117,2021-04-26_11h29.17.976,judgeSpeechMusic_20210407_logNormShiftAmp,2020.1.2,Win32,60,,,,,,,,,,,,,,1,5.67155,,0,1,77,227,5,1,stimuli/stim_20210407_power2amp/equal_lnn_AM0.6Hz_31.m4a,,,
,,,,,,,,,,,,41117,2021-04-26_11h29.17.976,judgeSpeechMusic_20210407_logNormShiftAmp,2020.1.2,Win32,60,,,,,,,,,,,,,,2,6.9386,,0,1,78,228,113,1,stimuli/stim_20210407_power2amp/equal_lnn_AM4.8Hz_82.m4a,,,
,,,,,,,,,,,,41117,2021-04-26_11h29.17.976,judgeSpeechMusic_20210407_logNormShiftAmp,2020.1.2,Win32,60,,,,,,,,,,,,,,2,10.195845,,0,1,79,229,70,1,stimuli/stim_20210407_power2amp/equal_lnn_AM3Hz_76.m4a,,,
,,,,,,,,,,,,41117,2021-04-26_11h29.17.976,judgeSpeechMusic_20210407_logNormShiftAmp,2020.1.2,Win32,60,,,,,,,,,,,,,,2,5.662695,,0,1,80,230,125,1,stimuli/stim_20210407_power2amp/equal_lnn_AM5.4Hz_11.m4a,,,
,,,,,,,,,,,,41117,2021-04-26_11h29.17.976,judgeSpeechMusic_20210407_logNormShiftAmp,2020.1.2,Win32,60,,,,,,,,,,,,,,2,5.7239,,0,1,81,231,82,1,stimuli/stim_20210407_power2amp/equal_lnn_AM3.6Hz_51.m4a,,,
,,,,,,,,,,,,41117,2021-04-26_11h29.17.976,judgeSpeechMusic_20210407_logNormShiftAmp,2020.1.2,Win32,60,,,,,,,,,,,,,,1,6.10652,,0,1,82,232,129,1,stimuli/stim_20210407_power2amp/equal_lnn_AM5.4Hz_6.m4a,,,
,,,,,,,,,,,,41117,2021-04-26_11h29.17.976,judgeSpeechMusic_20210407_logNormShiftAmp,2020.1.2,Win32,60,,,,,,,,,,,,,,2,5.715295,,0,1,83,233,115,1,stimuli/stim_20210407_power2amp/equal_lnn_AM4.8Hz_40.m4a,,,
,,,,,,,,,,,,41117,2021-04-26_11h29.17.976,judgeSpeechMusic_20210407_logNormShiftAmp,2020.1.2,Win32,60,,,,,,,,,,,,,,1,5.54157,,0,1,84,234,34,1,stimuli/stim_20210407_power2amp/equal_lnn_AM1.8Hz_13.m4a,,,
,,,,,,,,,,,,41117,2021-04-26_11h29.17.976,judgeSpeechMusic_20210407_logNormShiftAmp,2020.1.2,Win32,60,,,,,,,,,,,,,,2,5.517475,,0,1,85,235,143,1,stimuli/stim_20210407_power2amp/equal_lnn_AM6Hz_99.m4a,,,
,,,,,,,,,,,,41117,2021-04-26_11h29.17.976,judgeSpeechMusic_20210407_logNormShiftAmp,2020.1.2,Win32,60,,,,,,,,,,,,,,1,5.73501,,0,1,86,236,105,1,stimuli/stim_20210407_power2amp/equal_lnn_AM4.8Hz_2.m4a,,,
,,,,,,,,,,,,41117,2021-04-26_11h29.17.976,judgeSpeechMusic_20210407_logNormShiftAmp,2020.1.2,Win32,60,,,,,,,,,,,,,,1,5.70166,,0,1,87,237,48,1,stimuli/stim_20210407_power2amp/equal_lnn_AM2.4Hz_63.m4a,,,
,,,,,,,,,,,,41117,2021-04-26_11h29.17.976,judgeSpeechMusic_20210407_logNormShiftAmp,2020.1.2,Win32,60,,,,,,,,,,,,,,1,5.594025,,0,1,88,238,109,1,stimuli/stim_20210407_power2amp/equal_lnn_AM4.8Hz_80.m4a,,,
,,,,,,,,,,,,41117,2021-04-26_11h29.17.976,judgeSpeechMusic_20210407_logNormShiftAmp,2020.1.2,Win32,60,,,,,,,,,,,,,,1,5.678455,,0,1,89,239,13,1,stimuli/stim_20210407_power2amp/equal_lnn_AM0.6Hz_91.m4a,,,
,,,,,,,,,,,,41117,2021-04-26_11h29.17.976,judgeSpeechMusic_20210407_logNormShiftAmp,2020.1.2,Win32,60,,,,,,,,,,,,,,2,5.90703,3,1,1,90,240,73,1,stimuli/stim_20210407_power2amp/equal_lnn_AM3Hz_27.m4a,4.12467,,
,,,,,,,,,,,,41117,2021-04-26_11h29.17.976,judgeSpeechMusic_20210407_logNormShiftAmp,2020.1.2,Win32,60,,,,,,,,,,,,,,2,5.64088,,0,1,91,241,76,1,stimuli/stim_20210407_power2amp/equal_lnn_AM3.6Hz_29.m4a,,,
,,,,,,,,,,,,41117,2021-04-26_11h29.17.976,judgeSpeechMusic_20210407_logNormShiftAmp,2020.1.2,Win32,60,,,,,,,,,,,,,,1,5.56108,,0,1,92,242,46,1,stimuli/stim_20210407_power2amp/equal_lnn_AM2.4Hz_4.m4a,,,
,,,,,,,,,,,,41117,2021-04-26_11h29.17.976,judgeSpeechMusic_20210407_logNormShiftAmp,2020.1.2,Win32,60,,,,,,,,,,,,,,1,5.540965,,0,1,93,243,86,1,stimuli/stim_20210407_power2amp/equal_lnn_AM3.6Hz_94.m4a,,,
,,,,,,,,,,,,41117,2021-04-26_11h29.17.976,judgeSpeechMusic_20210407_logNormShiftAmp,2020.1.2,Win32,60,,,,,,,,,,,,,,1,5.900075,,0,1,94,244,63,1,stimuli/stim_20210407_power2amp/equal_lnn_AM3Hz_80.m4a,,,
,,,,,,,,,,,,41117,2021-04-26_11h29.17.976,judgeSpeechMusic_20210407_logNormShiftAmp,2020.1.2,Win32,60,,,,,,,,,,,,,,2,5.612645,,0,1,95,245,107,1,stimuli/stim_20210407_power2amp/equal_lnn_AM4.8Hz_52.m4a,,,
,,,,,,,,,,,,41117,2021-04-26_11h29.17.976,judgeSpeechMusic_20210407_logNormShiftAmp,2020.1.2,Win32,60,,,,,,,,,,,,,,2,5.49207,,0,1,96,246,148,1,stimuli/stim_20210407_power2amp/equal_lnn_AM6Hz_19.m4a,,,
,,,,,,,,,,,,41117,2021-04-26_11h29.17.976,judgeSpeechMusic_20210407_logNormShiftAmp,2020.1.2,Win32,60,,,,,,,,,,,,,,2,5.441235,,0,1,97,247,141,1,stimuli/stim_20210407_power2amp/equal_lnn_AM6Hz_27.m4a,,,
,,,,,,,,,,,,41117,2021-04-26_11h29.17.976,judgeSpeechMusic_20210407_logNormShiftAmp,2020.1.2,Win32,60,,,,,,,,,,,,,,1,5.790645,,0,1,98,248,42,1,stimuli/stim_20210407_power2amp/equal_lnn_AM1.8Hz_78.m4a,,,
,,,,,,,,,,,,41117,2021-04-26_11h29.17.976,judgeSpeechMusic_20210407_logNormShiftAmp,2020.1.2,Win32,60,,,,,,,,,,,,,,2,5.70056,,0,1,99,249,128,1,stimuli/stim_20210407_power2amp/equal_lnn_AM5.4Hz_7.m4a,,,
,,,,,,,,,,,,41117,2021-04-26_11h29.17.976,judgeSpeechMusic_20210407_logNormShiftAmp,2020.1.2,Win32,60,,,,,,,,,,,,,,1,5.77986,,0,1,100,250,54,1,stimuli/stim_20210407_power2amp/equal_lnn_AM2.4Hz_51.m4a,,,
,,,,,,,,,,,,41117,2021-04-26_11h29.17.976,judgeSpeechMusic_20210407_logNormShiftAmp,2020.1.2,Win32,60,,,,,,,,,,,,,,1,5.45108,,0,1,101,251,30,1,stimuli/stim_20210407_power2amp/equal_lnn_AM1.8Hz_2.m4a,,,
,,,,,,,,,,,,41117,2021-04-26_11h29.17.976,judgeSpeechMusic_20210407_logNormShiftAmp,2020.1.2,Win32,60,,,,,,,,,,,,,,2,5.607205,,0,1,102,252,87,1,stimuli/stim_20210407_power2amp/equal_lnn_AM3.6Hz_45.m4a,,,
,,,,,,,,,,,,41117,2021-04-26_11h29.17.976,judgeSpeechMusic_20210407_logNormShiftAmp,2020.1.2,Win32,60,,,,,,,,,,,,,,1,5.719515,,0,1,103,253,80,1,stimuli/stim_20210407_power2amp/equal_lnn_AM3.6Hz_12.m4a,,,
,,,,,,,,,,,,41117,2021-04-26_11h29.17.976,judgeSpeechMusic_20210407_logNormShiftAmp,2020.1.2,Win32,60,,,,,,,,,,,,,,1,5.644435,,0,1,104,254,12,1,stimuli/stim_20210407_power2amp/equal_lnn_AM0.6Hz_56.m4a,,,
,,,,,,,,,,,,41117,2021-04-26_11h29.17.976,judgeSpeechMusic_20210407_logNormShiftAmp,2020.1.2,Win32,60,,,,,,,,,,,,,,2,5.740345,,0,1,105,255,140,1,stimuli/stim_20210407_power2amp/equal_lnn_AM6Hz_38.m4a,,,
,,,,,,,,,,,,41117,2021-04-26_11h29.17.976,judgeSpeechMusic_20210407_logNormShiftAmp,2020.1.2,Win32,60,,,,,,,,,,,,,,2,5.451925,,0,1,106,256,103,1,stimuli/stim_20210407_power2amp/equal_lnn_AM4.2Hz_40.m4a,,,
,,,,,,,,,,,,41117,2021-04-26_11h29.17.976,judgeSpeechMusic_20210407_logNormShiftAmp,2020.1.2,Win32,60,,,,,,,,,,,,,,1,5.375845,,0,1,107,257,55,1,stimuli/stim_20210407_power2amp/equal_lnn_AM2.4Hz_18.m4a,,,
,,,,,,,,,,,,41117,2021-04-26_11h29.17.976,judgeSpeechMusic_20210407_logNormShiftAmp,2020.1.2,Win32,60,,,,,,,,,,,,,,1,5.523875,,0,1,108,258,10,1,stimuli/stim_20210407_power2amp/equal_lnn_AM0.6Hz_86.m4a,,,
,,,,,,,,,,,,41117,2021-04-26_11h29.17.976,judgeSpeechMusic_20210407_logNormShiftAmp,2020.1.2,Win32,60,,,,,,,,,,,,,,1,6.09669,,0,1,109,259,97,1,stimuli/stim_20210407_power2amp/equal_lnn_AM4.2Hz_66.m4a,,,
,,,,,,,,,,,,41117,2021-04-26_11h29.17.976,judgeSpeechMusic_20210407_logNormShiftAmp,2020.1.2,Win32,60,,,,,,,,,,,,,,2,5.794675,,0,1,110,260,94,1,stimuli/stim_20210407_power2amp/equal_lnn_AM4.2Hz_76.m4a,,,
,,,,,,,,,,,,41117,2021-04-26_11h29.17.976,judgeSpeechMusic_20210407_logNormShiftAmp,2020.1.2,Win32,60,,,,,,,,,,,,,,1,5.54812,,0,1,111,261,68,1,stimuli/stim_20210407_power2amp/equal_lnn_AM3Hz_30.m4a,,,
,,,,,,,,,,,,41117,2021-04-26_11h29.17.976,judgeSpeechMusic_20210407_logNormShiftAmp,2020.1.2,Win32,60,,,,,,,,,,,,,,1,5.57604,,0,1,112,262,53,1,stimuli/stim_20210407_power2amp/equal_lnn_AM2.4Hz_1.m4a,,,
,,,,,,,,,,,,41117,2021-04-26_11h29.17.976,judgeSpeechMusic_20210407_logNormShiftAmp,2020.1.2,Win32,60,,,,,,,,,,,,,,2,5.811905,,0,1,113,263,92,1,stimuli/stim_20210407_power2amp/equal_lnn_AM4.2Hz_63.m4a,,,
,,,,,,,,,,,,41117,2021-04-26_11h29.17.976,judgeSpeechMusic_20210407_logNormShiftAmp,2020.1.2,Win32,60,,,,,,,,,,,,,,1,5.76666,,0,1,114,264,43,1,stimuli/stim_20210407_power2amp/equal_lnn_AM1.8Hz_39.m4a,,,
,,,,,,,,,,,,41117,2021-04-26_11h29.17.976,judgeSpeechMusic_20210407_logNormShiftAmp,2020.1.2,Win32,60,,,,,,,,,,,,,,2,5.64112,2,1,1,115,265,64,1,stimuli/stim_20210407_power2amp/equal_lnn_AM3Hz_1.m4a,1.08955,,
,,,,,,,,,,,,41117,2021-04-26_11h29.17.976,judgeSpeechMusic_20210407_logNormShiftAmp,2020.1.2,Win32,60,,,,,,,,,,,,,,1,6.07605,,0,1,116,266,45,1,stimuli/stim_20210407_power2amp/equal_lnn_AM2.4Hz_32.m4a,,,
,,,,,,,,,,,,41117,2021-04-26_11h29.17.976,judgeSpeechMusic_20210407_logNormShiftAmp,2020.1.2,Win32,60,,,,,,,,,,,,,,2,5.757345,,0,1,117,267,51,1,stimuli/stim_20210407_power2amp/equal_lnn_AM2.4Hz_48.m4a,,,
,,,,,,,,,,,,41117,2021-04-26_11h29.17.976,judgeSpeechMusic_20210407_logNormShiftAmp,2020.1.2,Win32,60,,,,,,,,,,,,,,2,6.96434,,0,1,118,268,130,1,stimuli/stim_20210407_power2amp/equal_lnn_AM5.4Hz_1.m4a,,,
,,,,,,,,,,,,41117,2021-04-26_11h29.17.976,judgeSpeechMusic_20210407_logNormShiftAmp,2020.1.2,Win32,60,,,,,,,,,,,,,,1,7.11237,,0,1,119,269,41,1,stimuli/stim_20210407_power2amp/equal_lnn_AM1.8Hz_57.m4a,,,
,,,,,,,,,,,,41117,2021-04-26_11h29.17.976,judgeSpeechMusic_20210407_logNormShiftAmp,2020.1.2,Win32,60,,,,,,,,,,,,,,1,6.368855,,0,1,120,270,52,1,stimuli/stim_20210407_power2amp/equal_lnn_AM2.4Hz_23.m4a,,,
,,,,,,,,,,,,41117,2021-04-26_11h29.17.976,judgeSpeechMusic_20210407_logNormShiftAmp,2020.1.2,Win32,60,,,,,,,,,,,,,,1,6.258725,,0,1,121,271,25,1,stimuli/stim_20210407_power2amp/equal_lnn_AM1.2Hz_33.m4a,,,
,,,,,,,,,,,,41117,2021-04-26_11h29.17.976,judgeSpeechMusic_20210407_logNormShiftAmp,2020.1.2,Win32,60,,,,,,,,,,,,,,1,7.027055,,0,1,122,272,101,1,stimuli/stim_20210407_power2amp/equal_lnn_AM4.2Hz_45.m4a,,,
,,,,,,,,,,,,41117,2021-04-26_11h29.17.976,judgeSpeechMusic_20210407_logNormShiftAmp,2020.1.2,Win32,60,,,,,,,,,,,,,,2,7.10105,,0,1,123,273,35,1,stimuli/stim_20210407_power2amp/equal_lnn_AM1.8Hz_49.m4a,,,
,,,,,,,,,,,,41117,2021-04-26_11h29.17.976,judgeSpeechMusic_20210407_logNormShiftAmp,2020.1.2,Win32,60,,,,,,,,,,,,,,2,9.411885,,0,1,124,274,40,1,stimuli/stim_20210407_power2amp/equal_lnn_AM1.8Hz_34.m4a,,,
,,,,,,,,,,,,41117,2021-04-26_11h29.17.976,judgeSpeechMusic_20210407_logNormShiftAmp,2020.1.2,Win32,60,,,,,,,,,,,,,,2,8.94322,,0,1,125,275,106,1,stimuli/stim_20210407_power2amp/equal_lnn_AM4.8Hz_98.m4a,,,
,,,,,,,,,,,,41117,2021-04-26_11h29.17.976,judgeSpeechMusic_20210407_logNormShiftAmp,2020.1.2,Win32,60,,,,,,,,,,,,,,2,6.71711,,0,1,126,276,117,1,stimuli/stim_20210407_power2amp/equal_lnn_AM4.8Hz_12.m4a,,,
,,,,,,,,,,,,41117,2021-04-26_11h29.17.976,judgeSpeechMusic_20210407_logNormShiftAmp,2020.1.2,Win32,60,,,,,,,,,,,,,,2,7.43554,,0,1,127,277,147,1,stimuli/stim_20210407_power2amp/equal_lnn_AM6Hz_80.m4a,,,
,,,,,,,,,,,,41117,2021-04-26_11h29.17.976,judgeSpeechMusic_20210407_logNormShiftAmp,2020.1.2,Win32,60,,,,,,,,,,,,,,2,10.46554,,0,1,128,278,98,1,stimuli/stim_20210407_power2amp/equal_lnn_AM4.2Hz_36.m4a,,,
,,,,,,,,,,,,41117,2021-04-26_11h29.17.976,judgeSpeechMusic_20210407_logNormShiftAmp,2020.1.2,Win32,60,,,,,,,,,,,,,,2,5.510375,,0,1,129,279,108,1,stimuli/stim_20210407_power2amp/equal_lnn_AM4.8Hz_42.m4a,,,
,,,,,,,,,,,,41117,2021-04-26_11h29.17.976,judgeSpeechMusic_20210407_logNormShiftAmp,2020.1.2,Win32,60,,,,,,,,,,,,,,2,5.842535,,0,1,130,280,111,1,stimuli/stim_20210407_power2amp/equal_lnn_AM4.8Hz_92.m4a,,,
,,,,,,,,,,,,41117,2021-04-26_11h29.17.976,judgeSpeechMusic_20210407_logNormShiftAmp,2020.1.2,Win32,60,,,,,,,,,,,,,,2,5.840865,,0,1,131,281,145,1,stimuli/stim_20210407_power2amp/equal_lnn_AM6Hz_14.m4a,,,
,,,,,,,,,,,,41117,2021-04-26_11h29.17.976,judgeSpeechMusic_20210407_logNormShiftAmp,2020.1.2,Win32,60,,,,,,,,,,,,,,2,5.71166,,0,1,132,282,71,1,stimuli/stim_20210407_power2amp/equal_lnn_AM3Hz_24.m4a,,,
,,,,,,,,,,,,41117,2021-04-26_11h29.17.976,judgeSpeechMusic_20210407_logNormShiftAmp,2020.1.2,Win32,60,,,,,,,,,,,,,,2,6.40879,,0,1,133,283,135,1,stimuli/stim_20210407_power2amp/equal_lnn_AM6Hz_60.m4a,,,
,,,,,,,,,,,,41117,2021-04-26_11h29.17.976,judgeSpeechMusic_20210407_logNormShiftAmp,2020.1.2,Win32,60,,,,,,,,,,,,,,1,5.60709,,0,1,134,284,31,1,stimuli/stim_20210407_power2amp/equal_lnn_AM1.8Hz_85.m4a,,,
,,,,,,,,,,,,41117,2021-04-26_11h29.17.976,judgeSpeechMusic_20210407_logNormShiftAmp,2020.1.2,Win32,60,,,,,,,,,,,,,,1,5.716685,4,1,1,135,285,79,1,stimuli/stim_20210407_power2amp/equal_lnn_AM3.6Hz_21.m4a,0.405685,,
,,,,,,,,,,,,41117,2021-04-26_11h29.17.976,judgeSpeechMusic_20210407_logNormShiftAmp,2020.1.2,Win32,60,,,,,,,,,,,,,,1,5.628395,,0,1,136,286,132,1,stimuli/stim_20210407_power2amp/equal_lnn_AM5.4Hz_60.m4a,,,
,,,,,,,,,,,,41117,2021-04-26_11h29.17.976,judgeSpeechMusic_20210407_logNormShiftAmp,2020.1.2,Win32,60,,,,,,,,,,,,,,2,5.64111,,0,1,137,287,110,1,stimuli/stim_20210407_power2amp/equal_lnn_AM4.8Hz_17.m4a,,,
,,,,,,,,,,,,41117,2021-04-26_11h29.17.976,judgeSpeechMusic_20210407_logNormShiftAmp,2020.1.2,Win32,60,,,,,,,,,,,,,,1,5.897945,,0,1,138,288,14,1,stimuli/stim_20210407_power2amp/equal_lnn_AM0.6Hz_3.m4a,,,
,,,,,,,,,,,,41117,2021-04-26_11h29.17.976,judgeSpeechMusic_20210407_logNormShiftAmp,2020.1.2,Win32,60,,,,,,,,,,,,,,1,5.75747,,0,1,139,289,69,1,stimuli/stim_20210407_power2amp/equal_lnn_AM3Hz_14.m4a,,,
,,,,,,,,,,,,41117,2021-04-26_11h29.17.976,judgeSpeechMusic_20210407_logNormShiftAmp,2020.1.2,Win32,60,,,,,,,,,,,,,,1,5.623535,,0,1,140,290,62,1,stimuli/stim_20210407_power2amp/equal_lnn_AM3Hz_12.m4a,,,
,,,,,,,,,,,,41117,2021-04-26_11h29.17.976,judgeSpeechMusic_20210407_logNormShiftAmp,2020.1.2,Win32,60,,,,,,,,,,,,,,1,6.041495,,0,1,141,291,11,1,stimuli/stim_20210407_power2amp/equal_lnn_AM0.6Hz_26.m4a,,,
,,,,,,,,,,,,41117,2021-04-26_11h29.17.976,judgeSpeechMusic_20210407_logNormShiftAmp,2020.1.2,Win32,60,,,,,,,,,,,,,,1,7.041295,,0,1,142,292,47,1,stimuli/stim_20210407_power2amp/equal_lnn_AM2.4Hz_57.m4a,,,
,,,,,,,,,,,,41117,2021-04-26_11h29.17.976,judgeSpeechMusic_20210407_logNormShiftAmp,2020.1.2,Win32,60,,,,,,,,,,,,,,1,6.43455,,0,1,143,293,18,1,stimuli/stim_20210407_power2amp/equal_lnn_AM1.2Hz_1.m4a,,,
,,,,,,,,,,,,41117,2021-04-26_11h29.17.976,judgeSpeechMusic_20210407_logNormShiftAmp,2020.1.2,Win32,60,,,,,,,,,,,,,,2,5.58106,,0,1,144,294,131,1,stimuli/stim_20210407_power2amp/equal_lnn_AM5.4Hz_93.m4a,,,
,,,,,,,,,,,,41117,2021-04-26_11h29.17.976,judgeSpeechMusic_20210407_logNormShiftAmp,2020.1.2,Win32,60,,,,,,,,,,,,,,2,6.335375,,0,1,145,295,126,1,stimuli/stim_20210407_power2amp/equal_lnn_AM5.4Hz_8.m4a,,,
,,,,,,,,,,,,41117,2021-04-26_11h29.17.976,judgeSpeechMusic_20210407_logNormShiftAmp,2020.1.2,Win32,60,,,,,,,,,,,,,,2,10.85494,,0,1,146,296,95,1,stimuli/stim_20210407_power2amp/equal_lnn_AM4.2Hz_15.m4a,,,
,,,,,,,,,,,,41117,2021-04-26_11h29.17.976,judgeSpeechMusic_20210407_logNormShiftAmp,2020.1.2,Win32,60,,,,,,,,,,,,,,1,6.240085,,0,1,147,297,24,1,stimuli/stim_20210407_power2amp/equal_lnn_AM1.2Hz_93.m4a,,,
,,,,,,,,,,,,41117,2021-04-26_11h29.17.976,judgeSpeechMusic_20210407_logNormShiftAmp,2020.1.2,Win32,60,,,,,,,,,,,,,,1,7.242845,,0,1,148,298,67,1,stimuli/stim_20210407_power2amp/equal_lnn_AM3Hz_87.m4a,,,
,,,,,,,,,,,,41117,2021-04-26_11h29.17.976,judgeSpeechMusic_20210407_logNormShiftAmp,2020.1.2,Win32,60,,,,,,,,,,,,,,2,8.17676,,0,1,149,299,93,1,stimuli/stim_20210407_power2amp/equal_lnn_AM4.2Hz_44.m4a,,,
,,,,,,,,,,,,41117,2021-04-26_11h29.17.976,judgeSpeechMusic_20210407_logNormShiftAmp,2020.1.2,Win32,60,,,,,,,,,,,,,,,,,,,,,,,,,space,5.25652
