headphoneResponse.keys,headphoneResponse.corr,headphoneResponse.rt,headphoneTrial.thisRepN,headphoneTrial.thisTrialN,headphoneTrial.thisN,headphoneTrial.thisIndex,headphoneTrial.ran,headphone_sound1,headphone_sound2,headphone_sound3,corrAns,participant,date,expName,psychopyVersion,OS,frameRate,trainSlider.response,trainSlider.rt,beepTrainResponse.keys,beepTrainResponse.corr,trainingTrials.thisRepN,trainingTrials.thisTrialN,trainingTrials.thisN,trainingTrials.thisIndex,trainingTrials.ran,trainAudioFile,beepTrainResponse.rt,readyReal_resp.keys,readyReal_resp.rt,ratingSlider.response,ratingSlider.rt,beepResp.keys,beepResp.corr,expTrials.thisRepN,expTrials.thisTrialN,expTrials.thisN,expTrials.thisIndex,expTrials.ran,audioFile,beepResp.rt,end_resp.keys,end_resp.rt
2,1,2.34996,0,0,0,1,1,stimuli/screen_antiphase.wav,stimuli/screen_quiet.wav,stimuli/screen_origin.wav,2,41110,2021-05-04_20h00.40.572,judgeSpeechMusic_20210407_logNormShiftAmp,2020.1.2,MacIntel,60,,,,,,,,,,,,,,,,,,,,,,,,,,
3,1,0.501405,0,1,1,2,1,stimuli/screen_origin.wav,stimuli/screen_antiphase.wav,stimuli/screen_quiet.wav,3,41110,2021-05-04_20h00.40.572,judgeSpeechMusic_20210407_logNormShiftAmp,2020.1.2,MacIntel,60,,,,,,,,,,,,,,,,,,,,,,,,,,
1,1,0.41831,0,2,2,4,1,stimuli/screen_quiet.wav,stimuli/screen_antiphase.wav,stimuli/screen_origin.wav,1,41110,2021-05-04_20h00.40.572,judgeSpeechMusic_20210407_logNormShiftAmp,2020.1.2,MacIntel,60,,,,,,,,,,,,,,,,,,,,,,,,,,
1,1,0.41764,0,3,3,5,1,stimuli/screen_quiet.wav,stimuli/screen_origin.wav,stimuli/screen_antiphase.wav,1,41110,2021-05-04_20h00.40.572,judgeSpeechMusic_20210407_logNormShiftAmp,2020.1.2,MacIntel,60,,,,,,,,,,,,,,,,,,,,,,,,,,
3,1,0.3577,0,4,4,0,1,stimuli/screen_antiphase.wav,stimuli/screen_origin.wav,stimuli/screen_quiet.wav,3,41110,2021-05-04_20h00.40.572,judgeSpeechMusic_20210407_logNormShiftAmp,2020.1.2,MacIntel,60,,,,,,,,,,,,,,,,,,,,,,,,,,
2,1,0.35107,0,5,5,3,1,stimuli/screen_origin.wav,stimuli/screen_quiet.wav,stimuli/screen_antiphase.wav,2,41110,2021-05-04_20h00.40.572,judgeSpeechMusic_20210407_logNormShiftAmp,2020.1.2,MacIntel,60,,,,,,,,,,,,,,,,,,,,,,,,,,
,,,,,,,,,,,,41110,2021-05-04_20h00.40.572,judgeSpeechMusic_20210407_logNormShiftAmp,2020.1.2,MacIntel,60,1,10.949895,,0,0,0,0,2,1,stimuli/stim_20210407_power2amp/equal_lnn_AM_training3.9Hz.m4a,,,,,,,,,,,,,,,,
,,,,,,,,,,,,41110,2021-05-04_20h00.40.572,judgeSpeechMusic_20210407_logNormShiftAmp,2020.1.2,MacIntel,60,2,8.87837,,0,0,1,1,3,1,stimuli/stim_20210407_power2amp/equal_lnn_AM_training5.1Hz.m4a,,,,,,,,,,,,,,,,
,,,,,,,,,,,,41110,2021-05-04_20h00.40.572,judgeSpeechMusic_20210407_logNormShiftAmp,2020.1.2,MacIntel,60,2,7.19526,1,1,0,2,2,0,1,stimuli/stim_20210407_power2amp/equal_lnn_AM_training1.5Hz.m4a,0.624815,,,,,,,,,,,,,,,
,,,,,,,,,,,,41110,2021-05-04_20h00.40.572,judgeSpeechMusic_20210407_logNormShiftAmp,2020.1.2,MacIntel,60,1,6.596405,,0,0,3,3,1,1,stimuli/stim_20210407_power2amp/equal_lnn_AM_training2.7Hz.m4a,,,,,,,,,,,,,,,,
,,,,,,,,,,,,41110,2021-05-04_20h00.40.572,judgeSpeechMusic_20210407_logNormShiftAmp,2020.1.2,MacIntel,60,,,,,,,,,,,,space,4.430685,2,6.536245,,0,0,0,0,122,1,stimuli/stim_20210407_power2amp/equal_lnn_AM5.4Hz_44.m4a,,,
,,,,,,,,,,,,41110,2021-05-04_20h00.40.572,judgeSpeechMusic_20210407_logNormShiftAmp,2020.1.2,MacIntel,60,,,,,,,,,,,,,,1,8.22953,,0,0,1,1,44,1,stimuli/stim_20210407_power2amp/equal_lnn_AM1.8Hz_39.m4a,,,
,,,,,,,,,,,,41110,2021-05-04_20h00.40.572,judgeSpeechMusic_20210407_logNormShiftAmp,2020.1.2,MacIntel,60,,,,,,,,,,,,,,1,6.06566,,0,0,2,2,26,1,stimuli/stim_20210407_power2amp/equal_lnn_AM1.2Hz_55.m4a,,,
,,,,,,,,,,,,41110,2021-05-04_20h00.40.572,judgeSpeechMusic_20210407_logNormShiftAmp,2020.1.2,MacIntel,60,,,,,,,,,,,,,,2,7.29786,,0,0,3,3,25,1,stimuli/stim_20210407_power2amp/equal_lnn_AM1.2Hz_54.m4a,,,
,,,,,,,,,,,,41110,2021-05-04_20h00.40.572,judgeSpeechMusic_20210407_logNormShiftAmp,2020.1.2,MacIntel,60,,,,,,,,,,,,,,1,6.33293,,0,0,4,4,34,1,stimuli/stim_20210407_power2amp/equal_lnn_AM1.8Hz_17.m4a,,,
,,,,,,,,,,,,41110,2021-05-04_20h00.40.572,judgeSpeechMusic_20210407_logNormShiftAmp,2020.1.2,MacIntel,60,,,,,,,,,,,,,,2,6.351105,,0,0,5,5,121,1,stimuli/stim_20210407_power2amp/equal_lnn_AM5.4Hz_39.m4a,,,
,,,,,,,,,,,,41110,2021-05-04_20h00.40.572,judgeSpeechMusic_20210407_logNormShiftAmp,2020.1.2,MacIntel,60,,,,,,,,,,,,,,2,6.396685,,0,0,6,6,115,1,stimuli/stim_20210407_power2amp/equal_lnn_AM4.8Hz_53.m4a,,,
,,,,,,,,,,,,41110,2021-05-04_20h00.40.572,judgeSpeechMusic_20210407_logNormShiftAmp,2020.1.2,MacIntel,60,,,,,,,,,,,,,,1,5.846365,,0,0,7,7,75,1,stimuli/stim_20210407_power2amp/equal_lnn_AM3.6Hz_19.m4a,,,
,,,,,,,,,,,,41110,2021-05-04_20h00.40.572,judgeSpeechMusic_20210407_logNormShiftAmp,2020.1.2,MacIntel,60,,,,,,,,,,,,,,1,6.07861,,0,0,8,8,52,1,stimuli/stim_20210407_power2amp/equal_lnn_AM2.4Hz_22.m4a,,,
,,,,,,,,,,,,41110,2021-05-04_20h00.40.572,judgeSpeechMusic_20210407_logNormShiftAmp,2020.1.2,MacIntel,60,,,,,,,,,,,,,,1,5.82954,,0,0,9,9,91,1,stimuli/stim_20210407_power2amp/equal_lnn_AM4.2Hz_24.m4a,,,
,,,,,,,,,,,,41110,2021-05-04_20h00.40.572,judgeSpeechMusic_20210407_logNormShiftAmp,2020.1.2,MacIntel,60,,,,,,,,,,,,,,2,6.682055,,0,0,10,10,1,1,stimuli/stim_20210407_power2amp/equal_lnn_AM0.6Hz_91.m4a,,,
,,,,,,,,,,,,41110,2021-05-04_20h00.40.572,judgeSpeechMusic_20210407_logNormShiftAmp,2020.1.2,MacIntel,60,,,,,,,,,,,,,,1,6.72846,,0,0,11,11,4,1,stimuli/stim_20210407_power2amp/equal_lnn_AM0.6Hz_19.m4a,,,
,,,,,,,,,,,,41110,2021-05-04_20h00.40.572,judgeSpeechMusic_20210407_logNormShiftAmp,2020.1.2,MacIntel,60,,,,,,,,,,,,,,1,5.6962,,0,0,12,12,57,1,stimuli/stim_20210407_power2amp/equal_lnn_AM2.4Hz_47.m4a,,,
,,,,,,,,,,,,41110,2021-05-04_20h00.40.572,judgeSpeechMusic_20210407_logNormShiftAmp,2020.1.2,MacIntel,60,,,,,,,,,,,,,,2,6.347075,,0,0,13,13,42,1,stimuli/stim_20210407_power2amp/equal_lnn_AM1.8Hz_95.m4a,,,
,,,,,,,,,,,,41110,2021-05-04_20h00.40.572,judgeSpeechMusic_20210407_logNormShiftAmp,2020.1.2,MacIntel,60,,,,,,,,,,,,,,2,5.861405,,0,0,14,14,149,1,stimuli/stim_20210407_power2amp/equal_lnn_AM6Hz_6.m4a,,,
,,,,,,,,,,,,41110,2021-05-04_20h00.40.572,judgeSpeechMusic_20210407_logNormShiftAmp,2020.1.2,MacIntel,60,,,,,,,,,,,,,,1,6.96867,,0,0,15,15,20,1,stimuli/stim_20210407_power2amp/equal_lnn_AM1.2Hz_25.m4a,,,
,,,,,,,,,,,,41110,2021-05-04_20h00.40.572,judgeSpeechMusic_20210407_logNormShiftAmp,2020.1.2,MacIntel,60,,,,,,,,,,,,,,2,7.244845,,0,0,16,16,21,1,stimuli/stim_20210407_power2amp/equal_lnn_AM1.2Hz_46.m4a,,,
,,,,,,,,,,,,41110,2021-05-04_20h00.40.572,judgeSpeechMusic_20210407_logNormShiftAmp,2020.1.2,MacIntel,60,,,,,,,,,,,,,,1,5.892275,,0,0,17,17,106,1,stimuli/stim_20210407_power2amp/equal_lnn_AM4.8Hz_31.m4a,,,
,,,,,,,,,,,,41110,2021-05-04_20h00.40.572,judgeSpeechMusic_20210407_logNormShiftAmp,2020.1.2,MacIntel,60,,,,,,,,,,,,,,1,5.86004,,0,0,18,18,18,1,stimuli/stim_20210407_power2amp/equal_lnn_AM1.2Hz_81.m4a,,,
,,,,,,,,,,,,41110,2021-05-04_20h00.40.572,judgeSpeechMusic_20210407_logNormShiftAmp,2020.1.2,MacIntel,60,,,,,,,,,,,,,,2,6.592195,,0,0,19,19,28,1,stimuli/stim_20210407_power2amp/equal_lnn_AM1.2Hz_7.m4a,,,
,,,,,,,,,,,,41110,2021-05-04_20h00.40.572,judgeSpeechMusic_20210407_logNormShiftAmp,2020.1.2,MacIntel,60,,,,,,,,,,,,,,1,5.726955,,0,0,20,20,116,1,stimuli/stim_20210407_power2amp/equal_lnn_AM4.8Hz_16.m4a,,,
,,,,,,,,,,,,41110,2021-05-04_20h00.40.572,judgeSpeechMusic_20210407_logNormShiftAmp,2020.1.2,MacIntel,60,,,,,,,,,,,,,,1,5.841875,,0,0,21,21,56,1,stimuli/stim_20210407_power2amp/equal_lnn_AM2.4Hz_24.m4a,,,
,,,,,,,,,,,,41110,2021-05-04_20h00.40.572,judgeSpeechMusic_20210407_logNormShiftAmp,2020.1.2,MacIntel,60,,,,,,,,,,,,,,2,6.31981,,0,0,22,22,54,1,stimuli/stim_20210407_power2amp/equal_lnn_AM2.4Hz_15.m4a,,,
,,,,,,,,,,,,41110,2021-05-04_20h00.40.572,judgeSpeechMusic_20210407_logNormShiftAmp,2020.1.2,MacIntel,60,,,,,,,,,,,,,,2,8.544395,,0,0,23,23,53,1,stimuli/stim_20210407_power2amp/equal_lnn_AM2.4Hz_57.m4a,,,
,,,,,,,,,,,,41110,2021-05-04_20h00.40.572,judgeSpeechMusic_20210407_logNormShiftAmp,2020.1.2,MacIntel,60,,,,,,,,,,,,,,1,5.748565,,0,0,24,24,145,1,stimuli/stim_20210407_power2amp/equal_lnn_AM6Hz_85.m4a,,,
,,,,,,,,,,,,41110,2021-05-04_20h00.40.572,judgeSpeechMusic_20210407_logNormShiftAmp,2020.1.2,MacIntel,60,,,,,,,,,,,,,,1,6.258715,,0,0,25,25,82,1,stimuli/stim_20210407_power2amp/equal_lnn_AM3.6Hz_20.m4a,,,
,,,,,,,,,,,,41110,2021-05-04_20h00.40.572,judgeSpeechMusic_20210407_logNormShiftAmp,2020.1.2,MacIntel,60,,,,,,,,,,,,,,2,6.92949,,0,0,26,26,125,1,stimuli/stim_20210407_power2amp/equal_lnn_AM5.4Hz_76.m4a,,,
,,,,,,,,,,,,41110,2021-05-04_20h00.40.572,judgeSpeechMusic_20210407_logNormShiftAmp,2020.1.2,MacIntel,60,,,,,,,,,,,,,,1,5.942305,,0,0,27,27,68,1,stimuli/stim_20210407_power2amp/equal_lnn_AM3Hz_88.m4a,,,
,,,,,,,,,,,,41110,2021-05-04_20h00.40.572,judgeSpeechMusic_20210407_logNormShiftAmp,2020.1.2,MacIntel,60,,,,,,,,,,,,,,1,6.242405,,0,0,28,28,61,1,stimuli/stim_20210407_power2amp/equal_lnn_AM3Hz_40.m4a,,,
,,,,,,,,,,,,41110,2021-05-04_20h00.40.572,judgeSpeechMusic_20210407_logNormShiftAmp,2020.1.2,MacIntel,60,,,,,,,,,,,,,,1,5.807785,,0,0,29,29,90,1,stimuli/stim_20210407_power2amp/equal_lnn_AM4.2Hz_95.m4a,,,
,,,,,,,,,,,,41110,2021-05-04_20h00.40.572,judgeSpeechMusic_20210407_logNormShiftAmp,2020.1.2,MacIntel,60,,,,,,,,,,,,,,1,7.727945,,0,0,30,30,124,1,stimuli/stim_20210407_power2amp/equal_lnn_AM5.4Hz_26.m4a,,,
,,,,,,,,,,,,41110,2021-05-04_20h00.40.572,judgeSpeechMusic_20210407_logNormShiftAmp,2020.1.2,MacIntel,60,,,,,,,,,,,,,,2,5.94656,,0,0,31,31,45,1,stimuli/stim_20210407_power2amp/equal_lnn_AM2.4Hz_91.m4a,,,
,,,,,,,,,,,,41110,2021-05-04_20h00.40.572,judgeSpeechMusic_20210407_logNormShiftAmp,2020.1.2,MacIntel,60,,,,,,,,,,,,,,2,5.663515,,0,0,32,32,105,1,stimuli/stim_20210407_power2amp/equal_lnn_AM4.8Hz_12.m4a,,,
,,,,,,,,,,,,41110,2021-05-04_20h00.40.572,judgeSpeechMusic_20210407_logNormShiftAmp,2020.1.2,MacIntel,60,,,,,,,,,,,,,,1,5.941845,,0,0,33,33,70,1,stimuli/stim_20210407_power2amp/equal_lnn_AM3Hz_59.m4a,,,
,,,,,,,,,,,,41110,2021-05-04_20h00.40.572,judgeSpeechMusic_20210407_logNormShiftAmp,2020.1.2,MacIntel,60,,,,,,,,,,,,,,1,5.49993,,0,0,34,34,127,1,stimuli/stim_20210407_power2amp/equal_lnn_AM5.4Hz_47.m4a,,,
,,,,,,,,,,,,41110,2021-05-04_20h00.40.572,judgeSpeechMusic_20210407_logNormShiftAmp,2020.1.2,MacIntel,60,,,,,,,,,,,,,,2,6.15912,,0,0,35,35,76,1,stimuli/stim_20210407_power2amp/equal_lnn_AM3.6Hz_64.m4a,,,
,,,,,,,,,,,,41110,2021-05-04_20h00.40.572,judgeSpeechMusic_20210407_logNormShiftAmp,2020.1.2,MacIntel,60,,,,,,,,,,,,,,1,5.894465,,0,0,36,36,6,1,stimuli/stim_20210407_power2amp/equal_lnn_AM0.6Hz_66.m4a,,,
,,,,,,,,,,,,41110,2021-05-04_20h00.40.572,judgeSpeechMusic_20210407_logNormShiftAmp,2020.1.2,MacIntel,60,,,,,,,,,,,,,,1,6.02627,,0,0,37,37,118,1,stimuli/stim_20210407_power2amp/equal_lnn_AM4.8Hz_18.m4a,,,
,,,,,,,,,,,,41110,2021-05-04_20h00.40.572,judgeSpeechMusic_20210407_logNormShiftAmp,2020.1.2,MacIntel,60,,,,,,,,,,,,,,1,5.913605,,0,0,38,38,65,1,stimuli/stim_20210407_power2amp/equal_lnn_AM3Hz_81.m4a,,,
,,,,,,,,,,,,41110,2021-05-04_20h00.40.572,judgeSpeechMusic_20210407_logNormShiftAmp,2020.1.2,MacIntel,60,,,,,,,,,,,,,,2,6.029475,1,1,0,39,39,110,1,stimuli/stim_20210407_power2amp/equal_lnn_AM4.8Hz_7.m4a,1.255295,,
,,,,,,,,,,,,41110,2021-05-04_20h00.40.572,judgeSpeechMusic_20210407_logNormShiftAmp,2020.1.2,MacIntel,60,,,,,,,,,,,,,,2,6.46003,,0,0,40,40,83,1,stimuli/stim_20210407_power2amp/equal_lnn_AM3.6Hz_72.m4a,,,
,,,,,,,,,,,,41110,2021-05-04_20h00.40.572,judgeSpeechMusic_20210407_logNormShiftAmp,2020.1.2,MacIntel,60,,,,,,,,,,,,,,1,6.492745,,0,0,41,41,109,1,stimuli/stim_20210407_power2amp/equal_lnn_AM4.8Hz_97.m4a,,,
,,,,,,,,,,,,41110,2021-05-04_20h00.40.572,judgeSpeechMusic_20210407_logNormShiftAmp,2020.1.2,MacIntel,60,,,,,,,,,,,,,,1,5.848915,,0,0,42,42,13,1,stimuli/stim_20210407_power2amp/equal_lnn_AM0.6Hz_98.m4a,,,
,,,,,,,,,,,,41110,2021-05-04_20h00.40.572,judgeSpeechMusic_20210407_logNormShiftAmp,2020.1.2,MacIntel,60,,,,,,,,,,,,,,1,5.61749,,0,0,43,43,12,1,stimuli/stim_20210407_power2amp/equal_lnn_AM0.6Hz_1.m4a,,,
,,,,,,,,,,,,41110,2021-05-04_20h00.40.572,judgeSpeechMusic_20210407_logNormShiftAmp,2020.1.2,MacIntel,60,,,,,,,,,,,,,,1,5.73445,,0,0,44,44,141,1,stimuli/stim_20210407_power2amp/equal_lnn_AM6Hz_60.m4a,,,
,,,,,,,,,,,,41110,2021-05-04_20h00.40.572,judgeSpeechMusic_20210407_logNormShiftAmp,2020.1.2,MacIntel,60,,,,,,,,,,,,,,1,5.624245,,0,0,45,45,47,1,stimuli/stim_20210407_power2amp/equal_lnn_AM2.4Hz_41.m4a,,,
,,,,,,,,,,,,41110,2021-05-04_20h00.40.572,judgeSpeechMusic_20210407_logNormShiftAmp,2020.1.2,MacIntel,60,,,,,,,,,,,,,,1,5.93384,,0,0,46,46,17,1,stimuli/stim_20210407_power2amp/equal_lnn_AM1.2Hz_48.m4a,,,
,,,,,,,,,,,,41110,2021-05-04_20h00.40.572,judgeSpeechMusic_20210407_logNormShiftAmp,2020.1.2,MacIntel,60,,,,,,,,,,,,,,1,5.592345,,0,0,47,47,2,1,stimuli/stim_20210407_power2amp/equal_lnn_AM0.6Hz_60.m4a,,,
,,,,,,,,,,,,41110,2021-05-04_20h00.40.572,judgeSpeechMusic_20210407_logNormShiftAmp,2020.1.2,MacIntel,60,,,,,,,,,,,,,,2,5.732365,,0,0,48,48,67,1,stimuli/stim_20210407_power2amp/equal_lnn_AM3Hz_28.m4a,,,
,,,,,,,,,,,,41110,2021-05-04_20h00.40.572,judgeSpeechMusic_20210407_logNormShiftAmp,2020.1.2,MacIntel,60,,,,,,,,,,,,,,1,6.39482,,0,0,49,49,137,1,stimuli/stim_20210407_power2amp/equal_lnn_AM6Hz_89.m4a,,,
,,,,,,,,,,,,41110,2021-05-04_20h00.40.572,judgeSpeechMusic_20210407_logNormShiftAmp,2020.1.2,MacIntel,60,,,,,,,,,,,,,,2,6.999815,,0,0,50,50,16,1,stimuli/stim_20210407_power2amp/equal_lnn_AM1.2Hz_58.m4a,,,
,,,,,,,,,,,,41110,2021-05-04_20h00.40.572,judgeSpeechMusic_20210407_logNormShiftAmp,2020.1.2,MacIntel,60,,,,,,,,,,,,,,1,5.95739,,0,0,51,51,10,1,stimuli/stim_20210407_power2amp/equal_lnn_AM0.6Hz_20.m4a,,,
,,,,,,,,,,,,41110,2021-05-04_20h00.40.572,judgeSpeechMusic_20210407_logNormShiftAmp,2020.1.2,MacIntel,60,,,,,,,,,,,,,,2,5.657935,,0,0,52,52,94,1,stimuli/stim_20210407_power2amp/equal_lnn_AM4.2Hz_60.m4a,,,
,,,,,,,,,,,,41110,2021-05-04_20h00.40.572,judgeSpeechMusic_20210407_logNormShiftAmp,2020.1.2,MacIntel,60,,,,,,,,,,,,,,2,5.742745,,0,0,53,53,138,1,stimuli/stim_20210407_power2amp/equal_lnn_AM6Hz_96.m4a,,,
,,,,,,,,,,,,41110,2021-05-04_20h00.40.572,judgeSpeechMusic_20210407_logNormShiftAmp,2020.1.2,MacIntel,60,,,,,,,,,,,,,,2,5.535115,,0,0,54,54,143,1,stimuli/stim_20210407_power2amp/equal_lnn_AM6Hz_79.m4a,,,
,,,,,,,,,,,,41110,2021-05-04_20h00.40.572,judgeSpeechMusic_20210407_logNormShiftAmp,2020.1.2,MacIntel,60,,,,,,,,,,,,,,1,6.43399,,0,0,55,55,78,1,stimuli/stim_20210407_power2amp/equal_lnn_AM3.6Hz_2.m4a,,,
,,,,,,,,,,,,41110,2021-05-04_20h00.40.572,judgeSpeechMusic_20210407_logNormShiftAmp,2020.1.2,MacIntel,60,,,,,,,,,,,,,,1,5.6914,,0,0,56,56,50,1,stimuli/stim_20210407_power2amp/equal_lnn_AM2.4Hz_62.m4a,,,
,,,,,,,,,,,,41110,2021-05-04_20h00.40.572,judgeSpeechMusic_20210407_logNormShiftAmp,2020.1.2,MacIntel,60,,,,,,,,,,,,,,2,6.15904,,0,0,57,57,140,1,stimuli/stim_20210407_power2amp/equal_lnn_AM6Hz_40.m4a,,,
,,,,,,,,,,,,41110,2021-05-04_20h00.40.572,judgeSpeechMusic_20210407_logNormShiftAmp,2020.1.2,MacIntel,60,,,,,,,,,,,,,,1,8.009675,,0,0,58,58,63,1,stimuli/stim_20210407_power2amp/equal_lnn_AM3Hz_36.m4a,,,
,,,,,,,,,,,,41110,2021-05-04_20h00.40.572,judgeSpeechMusic_20210407_logNormShiftAmp,2020.1.2,MacIntel,60,,,,,,,,,,,,,,2,6.725555,,0,0,59,59,114,1,stimuli/stim_20210407_power2amp/equal_lnn_AM4.8Hz_43.m4a,,,
,,,,,,,,,,,,41110,2021-05-04_20h00.40.572,judgeSpeechMusic_20210407_logNormShiftAmp,2020.1.2,MacIntel,60,,,,,,,,,,,,,,2,6.02618,,0,0,60,60,100,1,stimuli/stim_20210407_power2amp/equal_lnn_AM4.2Hz_5.m4a,,,
,,,,,,,,,,,,41110,2021-05-04_20h00.40.572,judgeSpeechMusic_20210407_logNormShiftAmp,2020.1.2,MacIntel,60,,,,,,,,,,,,,,1,6.41073,,0,0,61,61,5,1,stimuli/stim_20210407_power2amp/equal_lnn_AM0.6Hz_56.m4a,,,
,,,,,,,,,,,,41110,2021-05-04_20h00.40.572,judgeSpeechMusic_20210407_logNormShiftAmp,2020.1.2,MacIntel,60,,,,,,,,,,,,,,2,7.51489,,0,0,62,62,19,1,stimuli/stim_20210407_power2amp/equal_lnn_AM1.2Hz_87.m4a,,,
,,,,,,,,,,,,41110,2021-05-04_20h00.40.572,judgeSpeechMusic_20210407_logNormShiftAmp,2020.1.2,MacIntel,60,,,,,,,,,,,,,,1,7.620205,,0,0,63,63,80,1,stimuli/stim_20210407_power2amp/equal_lnn_AM3.6Hz_6.m4a,,,
,,,,,,,,,,,,41110,2021-05-04_20h00.40.572,judgeSpeechMusic_20210407_logNormShiftAmp,2020.1.2,MacIntel,60,,,,,,,,,,,,,,1,7.64644,4,1,0,64,64,22,1,stimuli/stim_20210407_power2amp/equal_lnn_AM1.2Hz_43.m4a,0.894585,,
,,,,,,,,,,,,41110,2021-05-04_20h00.40.572,judgeSpeechMusic_20210407_logNormShiftAmp,2020.1.2,MacIntel,60,,,,,,,,,,,,,,1,6.765845,,0,0,65,65,7,1,stimuli/stim_20210407_power2amp/equal_lnn_AM0.6Hz_17.m4a,,,
,,,,,,,,,,,,41110,2021-05-04_20h00.40.572,judgeSpeechMusic_20210407_logNormShiftAmp,2020.1.2,MacIntel,60,,,,,,,,,,,,,,1,5.833115,,0,0,66,66,136,1,stimuli/stim_20210407_power2amp/equal_lnn_AM6Hz_38.m4a,,,
,,,,,,,,,,,,41110,2021-05-04_20h00.40.572,judgeSpeechMusic_20210407_logNormShiftAmp,2020.1.2,MacIntel,60,,,,,,,,,,,,,,1,6.94276,,0,0,67,67,49,1,stimuli/stim_20210407_power2amp/equal_lnn_AM2.4Hz_78.m4a,,,
,,,,,,,,,,,,41110,2021-05-04_20h00.40.572,judgeSpeechMusic_20210407_logNormShiftAmp,2020.1.2,MacIntel,60,,,,,,,,,,,,,,2,6.28158,,0,0,68,68,41,1,stimuli/stim_20210407_power2amp/equal_lnn_AM1.8Hz_4.m4a,,,
,,,,,,,,,,,,41110,2021-05-04_20h00.40.572,judgeSpeechMusic_20210407_logNormShiftAmp,2020.1.2,MacIntel,60,,,,,,,,,,,,,,2,6.75842,,0,0,69,69,74,1,stimuli/stim_20210407_power2amp/equal_lnn_AM3Hz_32.m4a,,,
,,,,,,,,,,,,41110,2021-05-04_20h00.40.572,judgeSpeechMusic_20210407_logNormShiftAmp,2020.1.2,MacIntel,60,,,,,,,,,,,,,,2,5.87651,,0,0,70,70,107,1,stimuli/stim_20210407_power2amp/equal_lnn_AM4.8Hz_74.m4a,,,
,,,,,,,,,,,,41110,2021-05-04_20h00.40.572,judgeSpeechMusic_20210407_logNormShiftAmp,2020.1.2,MacIntel,60,,,,,,,,,,,,,,2,6.115475,,0,0,71,71,71,1,stimuli/stim_20210407_power2amp/equal_lnn_AM3Hz_43.m4a,,,
,,,,,,,,,,,,41110,2021-05-04_20h00.40.572,judgeSpeechMusic_20210407_logNormShiftAmp,2020.1.2,MacIntel,60,,,,,,,,,,,,,,1,5.958135,,0,0,72,72,79,1,stimuli/stim_20210407_power2amp/equal_lnn_AM3.6Hz_80.m4a,,,
,,,,,,,,,,,,41110,2021-05-04_20h00.40.572,judgeSpeechMusic_20210407_logNormShiftAmp,2020.1.2,MacIntel,60,,,,,,,,,,,,,,1,5.63091,,0,0,73,73,30,1,stimuli/stim_20210407_power2amp/equal_lnn_AM1.8Hz_21.m4a,,,
,,,,,,,,,,,,41110,2021-05-04_20h00.40.572,judgeSpeechMusic_20210407_logNormShiftAmp,2020.1.2,MacIntel,60,,,,,,,,,,,,,,2,5.93504,,0,0,74,74,120,1,stimuli/stim_20210407_power2amp/equal_lnn_AM5.4Hz_21.m4a,,,
,,,,,,,,,,,,41110,2021-05-04_20h00.40.572,judgeSpeechMusic_20210407_logNormShiftAmp,2020.1.2,MacIntel,60,,,,,,,,,,,,,,1,6.20921,,0,0,75,75,60,1,stimuli/stim_20210407_power2amp/equal_lnn_AM3Hz_9.m4a,,,
,,,,,,,,,,,,41110,2021-05-04_20h00.40.572,judgeSpeechMusic_20210407_logNormShiftAmp,2020.1.2,MacIntel,60,,,,,,,,,,,,,,2,5.560105,,0,0,76,76,104,1,stimuli/stim_20210407_power2amp/equal_lnn_AM4.2Hz_73.m4a,,,
,,,,,,,,,,,,41110,2021-05-04_20h00.40.572,judgeSpeechMusic_20210407_logNormShiftAmp,2020.1.2,MacIntel,60,,,,,,,,,,,,,,2,5.52795,,0,0,77,77,133,1,stimuli/stim_20210407_power2amp/equal_lnn_AM5.4Hz_79.m4a,,,
,,,,,,,,,,,,41110,2021-05-04_20h00.40.572,judgeSpeechMusic_20210407_logNormShiftAmp,2020.1.2,MacIntel,60,,,,,,,,,,,,,,2,6.37629,,0,0,78,78,87,1,stimuli/stim_20210407_power2amp/equal_lnn_AM3.6Hz_63.m4a,,,
,,,,,,,,,,,,41110,2021-05-04_20h00.40.572,judgeSpeechMusic_20210407_logNormShiftAmp,2020.1.2,MacIntel,60,,,,,,,,,,,,,,1,5.74182,,0,0,79,79,64,1,stimuli/stim_20210407_power2amp/equal_lnn_AM3Hz_64.m4a,,,
,,,,,,,,,,,,41110,2021-05-04_20h00.40.572,judgeSpeechMusic_20210407_logNormShiftAmp,2020.1.2,MacIntel,60,,,,,,,,,,,,,,2,6.14451,,0,0,80,80,97,1,stimuli/stim_20210407_power2amp/equal_lnn_AM4.2Hz_3.m4a,,,
,,,,,,,,,,,,41110,2021-05-04_20h00.40.572,judgeSpeechMusic_20210407_logNormShiftAmp,2020.1.2,MacIntel,60,,,,,,,,,,,,,,2,5.577115,,0,0,81,81,66,1,stimuli/stim_20210407_power2amp/equal_lnn_AM3Hz_38.m4a,,,
,,,,,,,,,,,,41110,2021-05-04_20h00.40.572,judgeSpeechMusic_20210407_logNormShiftAmp,2020.1.2,MacIntel,60,,,,,,,,,,,,,,1,8.02699,,0,0,82,82,95,1,stimuli/stim_20210407_power2amp/equal_lnn_AM4.2Hz_17.m4a,,,
,,,,,,,,,,,,41110,2021-05-04_20h00.40.572,judgeSpeechMusic_20210407_logNormShiftAmp,2020.1.2,MacIntel,60,,,,,,,,,,,,,,1,5.664405,,0,0,83,83,11,1,stimuli/stim_20210407_power2amp/equal_lnn_AM0.6Hz_45.m4a,,,
,,,,,,,,,,,,41110,2021-05-04_20h00.40.572,judgeSpeechMusic_20210407_logNormShiftAmp,2020.1.2,MacIntel,60,,,,,,,,,,,,,,2,6.291505,,0,0,84,84,43,1,stimuli/stim_20210407_power2amp/equal_lnn_AM1.8Hz_18.m4a,,,
,,,,,,,,,,,,41110,2021-05-04_20h00.40.572,judgeSpeechMusic_20210407_logNormShiftAmp,2020.1.2,MacIntel,60,,,,,,,,,,,,,,2,6.52709,,0,0,85,85,48,1,stimuli/stim_20210407_power2amp/equal_lnn_AM2.4Hz_88.m4a,,,
,,,,,,,,,,,,41110,2021-05-04_20h00.40.572,judgeSpeechMusic_20210407_logNormShiftAmp,2020.1.2,MacIntel,60,,,,,,,,,,,,,,1,7.25341,,0,0,86,86,85,1,stimuli/stim_20210407_power2amp/equal_lnn_AM3.6Hz_25.m4a,,,
,,,,,,,,,,,,41110,2021-05-04_20h00.40.572,judgeSpeechMusic_20210407_logNormShiftAmp,2020.1.2,MacIntel,60,,,,,,,,,,,,,,1,6.5662,2,1,0,87,87,14,1,stimuli/stim_20210407_power2amp/equal_lnn_AM0.6Hz_2.m4a,0.571005,,
,,,,,,,,,,,,41110,2021-05-04_20h00.40.572,judgeSpeechMusic_20210407_logNormShiftAmp,2020.1.2,MacIntel,60,,,,,,,,,,,,,,1,6.34463,,0,0,88,88,40,1,stimuli/stim_20210407_power2amp/equal_lnn_AM1.8Hz_50.m4a,,,
,,,,,,,,,,,,41110,2021-05-04_20h00.40.572,judgeSpeechMusic_20210407_logNormShiftAmp,2020.1.2,MacIntel,60,,,,,,,,,,,,,,1,5.525965,,0,0,89,89,148,1,stimuli/stim_20210407_power2amp/equal_lnn_AM6Hz_43.m4a,,,
,,,,,,,,,,,,41110,2021-05-04_20h00.40.572,judgeSpeechMusic_20210407_logNormShiftAmp,2020.1.2,MacIntel,60,,,,,,,,,,,,,,2,6.066735,,0,0,90,90,119,1,stimuli/stim_20210407_power2amp/equal_lnn_AM4.8Hz_4.m4a,,,
,,,,,,,,,,,,41110,2021-05-04_20h00.40.572,judgeSpeechMusic_20210407_logNormShiftAmp,2020.1.2,MacIntel,60,,,,,,,,,,,,,,1,6.06016,,0,0,91,91,29,1,stimuli/stim_20210407_power2amp/equal_lnn_AM1.2Hz_66.m4a,,,
,,,,,,,,,,,,41110,2021-05-04_20h00.40.572,judgeSpeechMusic_20210407_logNormShiftAmp,2020.1.2,MacIntel,60,,,,,,,,,,,,,,1,5.858865,,0,0,92,92,113,1,stimuli/stim_20210407_power2amp/equal_lnn_AM4.8Hz_70.m4a,,,
,,,,,,,,,,,,41110,2021-05-04_20h00.40.572,judgeSpeechMusic_20210407_logNormShiftAmp,2020.1.2,MacIntel,60,,,,,,,,,,,,,,2,5.98405,,0,0,93,93,112,1,stimuli/stim_20210407_power2amp/equal_lnn_AM4.8Hz_50.m4a,,,
,,,,,,,,,,,,41110,2021-05-04_20h00.40.572,judgeSpeechMusic_20210407_logNormShiftAmp,2020.1.2,MacIntel,60,,,,,,,,,,,,,,1,5.85875,,0,0,94,94,36,1,stimuli/stim_20210407_power2amp/equal_lnn_AM1.8Hz_93.m4a,,,
,,,,,,,,,,,,41110,2021-05-04_20h00.40.572,judgeSpeechMusic_20210407_logNormShiftAmp,2020.1.2,MacIntel,60,,,,,,,,,,,,,,1,6.679735,,0,0,95,95,93,1,stimuli/stim_20210407_power2amp/equal_lnn_AM4.2Hz_41.m4a,,,
,,,,,,,,,,,,41110,2021-05-04_20h00.40.572,judgeSpeechMusic_20210407_logNormShiftAmp,2020.1.2,MacIntel,60,,,,,,,,,,,,,,1,5.649855,,0,0,96,96,9,1,stimuli/stim_20210407_power2amp/equal_lnn_AM0.6Hz_82.m4a,,,
,,,,,,,,,,,,41110,2021-05-04_20h00.40.572,judgeSpeechMusic_20210407_logNormShiftAmp,2020.1.2,MacIntel,60,,,,,,,,,,,,,,1,5.676015,,0,0,97,97,84,1,stimuli/stim_20210407_power2amp/equal_lnn_AM3.6Hz_76.m4a,,,
,,,,,,,,,,,,41110,2021-05-04_20h00.40.572,judgeSpeechMusic_20210407_logNormShiftAmp,2020.1.2,MacIntel,60,,,,,,,,,,,,,,2,5.760085,,0,0,98,98,98,1,stimuli/stim_20210407_power2amp/equal_lnn_AM4.2Hz_6.m4a,,,
,,,,,,,,,,,,41110,2021-05-04_20h00.40.572,judgeSpeechMusic_20210407_logNormShiftAmp,2020.1.2,MacIntel,60,,,,,,,,,,,,,,2,5.57882,,0,0,99,99,130,1,stimuli/stim_20210407_power2amp/equal_lnn_AM5.4Hz_38.m4a,,,
,,,,,,,,,,,,41110,2021-05-04_20h00.40.572,judgeSpeechMusic_20210407_logNormShiftAmp,2020.1.2,MacIntel,60,,,,,,,,,,,,,,1,7.65048,,0,0,100,100,32,1,stimuli/stim_20210407_power2amp/equal_lnn_AM1.8Hz_65.m4a,,,
,,,,,,,,,,,,41110,2021-05-04_20h00.40.572,judgeSpeechMusic_20210407_logNormShiftAmp,2020.1.2,MacIntel,60,,,,,,,,,,,,,,2,5.764405,,0,0,101,101,134,1,stimuli/stim_20210407_power2amp/equal_lnn_AM5.4Hz_95.m4a,,,
,,,,,,,,,,,,41110,2021-05-04_20h00.40.572,judgeSpeechMusic_20210407_logNormShiftAmp,2020.1.2,MacIntel,60,,,,,,,,,,,,,,2,5.62463,,0,0,102,102,144,1,stimuli/stim_20210407_power2amp/equal_lnn_AM6Hz_56.m4a,,,
,,,,,,,,,,,,41110,2021-05-04_20h00.40.572,judgeSpeechMusic_20210407_logNormShiftAmp,2020.1.2,MacIntel,60,,,,,,,,,,,,,,1,5.825965,,0,0,103,103,146,1,stimuli/stim_20210407_power2amp/equal_lnn_AM6Hz_49.m4a,,,
,,,,,,,,,,,,41110,2021-05-04_20h00.40.572,judgeSpeechMusic_20210407_logNormShiftAmp,2020.1.2,MacIntel,60,,,,,,,,,,,,,,1,5.60683,,0,0,104,104,38,1,stimuli/stim_20210407_power2amp/equal_lnn_AM1.8Hz_16.m4a,,,
,,,,,,,,,,,,41110,2021-05-04_20h00.40.572,judgeSpeechMusic_20210407_logNormShiftAmp,2020.1.2,MacIntel,60,,,,,,,,,,,,,,1,5.61071,,0,0,105,105,101,1,stimuli/stim_20210407_power2amp/equal_lnn_AM4.2Hz_43.m4a,,,
,,,,,,,,,,,,41110,2021-05-04_20h00.40.572,judgeSpeechMusic_20210407_logNormShiftAmp,2020.1.2,MacIntel,60,,,,,,,,,,,,,,1,5.681295,,0,0,106,106,37,1,stimuli/stim_20210407_power2amp/equal_lnn_AM1.8Hz_56.m4a,,,
,,,,,,,,,,,,41110,2021-05-04_20h00.40.572,judgeSpeechMusic_20210407_logNormShiftAmp,2020.1.2,MacIntel,60,,,,,,,,,,,,,,1,5.539955,,0,0,107,107,39,1,stimuli/stim_20210407_power2amp/equal_lnn_AM1.8Hz_68.m4a,,,
,,,,,,,,,,,,41110,2021-05-04_20h00.40.572,judgeSpeechMusic_20210407_logNormShiftAmp,2020.1.2,MacIntel,60,,,,,,,,,,,,,,2,6.176905,,0,0,108,108,31,1,stimuli/stim_20210407_power2amp/equal_lnn_AM1.8Hz_6.m4a,,,
,,,,,,,,,,,,41110,2021-05-04_20h00.40.572,judgeSpeechMusic_20210407_logNormShiftAmp,2020.1.2,MacIntel,60,,,,,,,,,,,,,,1,5.95769,,0,0,109,109,135,1,stimuli/stim_20210407_power2amp/equal_lnn_AM6Hz_14.m4a,,,
,,,,,,,,,,,,41110,2021-05-04_20h00.40.572,judgeSpeechMusic_20210407_logNormShiftAmp,2020.1.2,MacIntel,60,,,,,,,,,,,,,,1,5.809265,3,1,0,110,110,51,1,stimuli/stim_20210407_power2amp/equal_lnn_AM2.4Hz_68.m4a,1.422895,,
,,,,,,,,,,,,41110,2021-05-04_20h00.40.572,judgeSpeechMusic_20210407_logNormShiftAmp,2020.1.2,MacIntel,60,,,,,,,,,,,,,,2,6.063875,,0,0,111,111,108,1,stimuli/stim_20210407_power2amp/equal_lnn_AM4.8Hz_66.m4a,,,
,,,,,,,,,,,,41110,2021-05-04_20h00.40.572,judgeSpeechMusic_20210407_logNormShiftAmp,2020.1.2,MacIntel,60,,,,,,,,,,,,,,1,5.614825,,0,0,112,112,73,1,stimuli/stim_20210407_power2amp/equal_lnn_AM3Hz_68.m4a,,,
,,,,,,,,,,,,41110,2021-05-04_20h00.40.572,judgeSpeechMusic_20210407_logNormShiftAmp,2020.1.2,MacIntel,60,,,,,,,,,,,,,,2,5.57392,,0,0,113,113,126,1,stimuli/stim_20210407_power2amp/equal_lnn_AM5.4Hz_33.m4a,,,
,,,,,,,,,,,,41110,2021-05-04_20h00.40.572,judgeSpeechMusic_20210407_logNormShiftAmp,2020.1.2,MacIntel,60,,,,,,,,,,,,,,1,5.791465,,0,0,114,114,3,1,stimuli/stim_20210407_power2amp/equal_lnn_AM0.6Hz_44.m4a,,,
,,,,,,,,,,,,41110,2021-05-04_20h00.40.572,judgeSpeechMusic_20210407_logNormShiftAmp,2020.1.2,MacIntel,60,,,,,,,,,,,,,,2,6.909715,,0,0,115,115,72,1,stimuli/stim_20210407_power2amp/equal_lnn_AM3Hz_18.m4a,,,
,,,,,,,,,,,,41110,2021-05-04_20h00.40.572,judgeSpeechMusic_20210407_logNormShiftAmp,2020.1.2,MacIntel,60,,,,,,,,,,,,,,1,5.876955,,0,0,116,116,92,1,stimuli/stim_20210407_power2amp/equal_lnn_AM4.2Hz_21.m4a,,,
,,,,,,,,,,,,41110,2021-05-04_20h00.40.572,judgeSpeechMusic_20210407_logNormShiftAmp,2020.1.2,MacIntel,60,,,,,,,,,,,,,,2,5.67611,,0,0,117,117,129,1,stimuli/stim_20210407_power2amp/equal_lnn_AM5.4Hz_93.m4a,,,
,,,,,,,,,,,,41110,2021-05-04_20h00.40.572,judgeSpeechMusic_20210407_logNormShiftAmp,2020.1.2,MacIntel,60,,,,,,,,,,,,,,2,6.34289,,0,0,118,118,55,1,stimuli/stim_20210407_power2amp/equal_lnn_AM2.4Hz_61.m4a,,,
,,,,,,,,,,,,41110,2021-05-04_20h00.40.572,judgeSpeechMusic_20210407_logNormShiftAmp,2020.1.2,MacIntel,60,,,,,,,,,,,,,,1,8.409765,,0,0,119,119,139,1,stimuli/stim_20210407_power2amp/equal_lnn_AM6Hz_11.m4a,,,
,,,,,,,,,,,,41110,2021-05-04_20h00.40.572,judgeSpeechMusic_20210407_logNormShiftAmp,2020.1.2,MacIntel,60,,,,,,,,,,,,,,2,5.59949,,0,0,120,120,131,1,stimuli/stim_20210407_power2amp/equal_lnn_AM5.4Hz_28.m4a,,,
,,,,,,,,,,,,41110,2021-05-04_20h00.40.572,judgeSpeechMusic_20210407_logNormShiftAmp,2020.1.2,MacIntel,60,,,,,,,,,,,,,,2,5.531015,,0,0,121,121,123,1,stimuli/stim_20210407_power2amp/equal_lnn_AM5.4Hz_94.m4a,,,
,,,,,,,,,,,,41110,2021-05-04_20h00.40.572,judgeSpeechMusic_20210407_logNormShiftAmp,2020.1.2,MacIntel,60,,,,,,,,,,,,,,2,5.52607,,0,0,122,122,147,1,stimuli/stim_20210407_power2amp/equal_lnn_AM6Hz_25.m4a,,,
,,,,,,,,,,,,41110,2021-05-04_20h00.40.572,judgeSpeechMusic_20210407_logNormShiftAmp,2020.1.2,MacIntel,60,,,,,,,,,,,,,,1,5.78392,,0,0,123,123,24,1,stimuli/stim_20210407_power2amp/equal_lnn_AM1.2Hz_6.m4a,,,
,,,,,,,,,,,,41110,2021-05-04_20h00.40.572,judgeSpeechMusic_20210407_logNormShiftAmp,2020.1.2,MacIntel,60,,,,,,,,,,,,,,1,5.82523,,0,0,124,124,15,1,stimuli/stim_20210407_power2amp/equal_lnn_AM1.2Hz_85.m4a,,,
,,,,,,,,,,,,41110,2021-05-04_20h00.40.572,judgeSpeechMusic_20210407_logNormShiftAmp,2020.1.2,MacIntel,60,,,,,,,,,,,,,,2,5.967935,,0,0,125,125,69,1,stimuli/stim_20210407_power2amp/equal_lnn_AM3Hz_94.m4a,,,
,,,,,,,,,,,,41110,2021-05-04_20h00.40.572,judgeSpeechMusic_20210407_logNormShiftAmp,2020.1.2,MacIntel,60,,,,,,,,,,,,,,1,6.74253,,0,0,126,126,8,1,stimuli/stim_20210407_power2amp/equal_lnn_AM0.6Hz_50.m4a,,,
,,,,,,,,,,,,41110,2021-05-04_20h00.40.572,judgeSpeechMusic_20210407_logNormShiftAmp,2020.1.2,MacIntel,60,,,,,,,,,,,,,,1,5.776655,,0,0,127,127,62,1,stimuli/stim_20210407_power2amp/equal_lnn_AM3Hz_22.m4a,,,
,,,,,,,,,,,,41110,2021-05-04_20h00.40.572,judgeSpeechMusic_20210407_logNormShiftAmp,2020.1.2,MacIntel,60,,,,,,,,,,,,,,2,5.691155,,0,0,128,128,89,1,stimuli/stim_20210407_power2amp/equal_lnn_AM3.6Hz_17.m4a,,,
,,,,,,,,,,,,41110,2021-05-04_20h00.40.572,judgeSpeechMusic_20210407_logNormShiftAmp,2020.1.2,MacIntel,60,,,,,,,,,,,,,,2,6.07611,,0,0,129,129,111,1,stimuli/stim_20210407_power2amp/equal_lnn_AM4.8Hz_29.m4a,,,
,,,,,,,,,,,,41110,2021-05-04_20h00.40.572,judgeSpeechMusic_20210407_logNormShiftAmp,2020.1.2,MacIntel,60,,,,,,,,,,,,,,1,9.394675,,0,0,130,130,0,1,stimuli/stim_20210407_power2amp/equal_lnn_AM0.6Hz_54.m4a,,,
,,,,,,,,,,,,41110,2021-05-04_20h00.40.572,judgeSpeechMusic_20210407_logNormShiftAmp,2020.1.2,MacIntel,60,,,,,,,,,,,,,,1,8.397865,,0,0,131,131,23,1,stimuli/stim_20210407_power2amp/equal_lnn_AM1.2Hz_17.m4a,,,
,,,,,,,,,,,,41110,2021-05-04_20h00.40.572,judgeSpeechMusic_20210407_logNormShiftAmp,2020.1.2,MacIntel,60,,,,,,,,,,,,,,1,5.75196,4,1,0,132,132,99,1,stimuli/stim_20210407_power2amp/equal_lnn_AM4.2Hz_64.m4a,2.559105,,
,,,,,,,,,,,,41110,2021-05-04_20h00.40.572,judgeSpeechMusic_20210407_logNormShiftAmp,2020.1.2,MacIntel,60,,,,,,,,,,,,,,2,6.893535,,0,0,133,133,88,1,stimuli/stim_20210407_power2amp/equal_lnn_AM3.6Hz_91.m4a,,,
,,,,,,,,,,,,41110,2021-05-04_20h00.40.572,judgeSpeechMusic_20210407_logNormShiftAmp,2020.1.2,MacIntel,60,,,,,,,,,,,,,,1,6.92834,,0,0,134,134,58,1,stimuli/stim_20210407_power2amp/equal_lnn_AM2.4Hz_59.m4a,,,
,,,,,,,,,,,,41110,2021-05-04_20h00.40.572,judgeSpeechMusic_20210407_logNormShiftAmp,2020.1.2,MacIntel,60,,,,,,,,,,,,,,2,6.210775,,0,0,135,135,81,1,stimuli/stim_20210407_power2amp/equal_lnn_AM3.6Hz_100.m4a,,,
,,,,,,,,,,,,41110,2021-05-04_20h00.40.572,judgeSpeechMusic_20210407_logNormShiftAmp,2020.1.2,MacIntel,60,,,,,,,,,,,,,,2,5.71119,,0,0,136,136,117,1,stimuli/stim_20210407_power2amp/equal_lnn_AM4.8Hz_80.m4a,,,
,,,,,,,,,,,,41110,2021-05-04_20h00.40.572,judgeSpeechMusic_20210407_logNormShiftAmp,2020.1.2,MacIntel,60,,,,,,,,,,,,,,2,5.59077,,0,0,137,137,96,1,stimuli/stim_20210407_power2amp/equal_lnn_AM4.2Hz_49.m4a,,,
,,,,,,,,,,,,41110,2021-05-04_20h00.40.572,judgeSpeechMusic_20210407_logNormShiftAmp,2020.1.2,MacIntel,60,,,,,,,,,,,,,,1,6.993855,,0,0,138,138,33,1,stimuli/stim_20210407_power2amp/equal_lnn_AM1.8Hz_14.m4a,,,
,,,,,,,,,,,,41110,2021-05-04_20h00.40.572,judgeSpeechMusic_20210407_logNormShiftAmp,2020.1.2,MacIntel,60,,,,,,,,,,,,,,2,8.016735,,0,0,139,139,128,1,stimuli/stim_20210407_power2amp/equal_lnn_AM5.4Hz_82.m4a,,,
,,,,,,,,,,,,41110,2021-05-04_20h00.40.572,judgeSpeechMusic_20210407_logNormShiftAmp,2020.1.2,MacIntel,60,,,,,,,,,,,,,,2,7.23851,,0,0,140,140,77,1,stimuli/stim_20210407_power2amp/equal_lnn_AM3.6Hz_85.m4a,,,
,,,,,,,,,,,,41110,2021-05-04_20h00.40.572,judgeSpeechMusic_20210407_logNormShiftAmp,2020.1.2,MacIntel,60,,,,,,,,,,,,,,2,5.756515,,0,0,141,141,132,1,stimuli/stim_20210407_power2amp/equal_lnn_AM5.4Hz_57.m4a,,,
,,,,,,,,,,,,41110,2021-05-04_20h00.40.572,judgeSpeechMusic_20210407_logNormShiftAmp,2020.1.2,MacIntel,60,,,,,,,,,,,,,,1,6.191535,,0,0,142,142,27,1,stimuli/stim_20210407_power2amp/equal_lnn_AM1.2Hz_10.m4a,,,
,,,,,,,,,,,,41110,2021-05-04_20h00.40.572,judgeSpeechMusic_20210407_logNormShiftAmp,2020.1.2,MacIntel,60,,,,,,,,,,,,,,2,6.49345,,0,0,143,143,102,1,stimuli/stim_20210407_power2amp/equal_lnn_AM4.2Hz_44.m4a,,,
,,,,,,,,,,,,41110,2021-05-04_20h00.40.572,judgeSpeechMusic_20210407_logNormShiftAmp,2020.1.2,MacIntel,60,,,,,,,,,,,,,,1,6.04209,,0,0,144,144,46,1,stimuli/stim_20210407_power2amp/equal_lnn_AM2.4Hz_71.m4a,,,
,,,,,,,,,,,,41110,2021-05-04_20h00.40.572,judgeSpeechMusic_20210407_logNormShiftAmp,2020.1.2,MacIntel,60,,,,,,,,,,,,,,1,5.634755,,0,0,145,145,103,1,stimuli/stim_20210407_power2amp/equal_lnn_AM4.2Hz_88.m4a,,,
,,,,,,,,,,,,41110,2021-05-04_20h00.40.572,judgeSpeechMusic_20210407_logNormShiftAmp,2020.1.2,MacIntel,60,,,,,,,,,,,,,,1,6.37525,,0,0,146,146,142,1,stimuli/stim_20210407_power2amp/equal_lnn_AM6Hz_76.m4a,,,
,,,,,,,,,,,,41110,2021-05-04_20h00.40.572,judgeSpeechMusic_20210407_logNormShiftAmp,2020.1.2,MacIntel,60,,,,,,,,,,,,,,1,5.668095,,0,0,147,147,35,1,stimuli/stim_20210407_power2amp/equal_lnn_AM1.8Hz_52.m4a,,,
,,,,,,,,,,,,41110,2021-05-04_20h00.40.572,judgeSpeechMusic_20210407_logNormShiftAmp,2020.1.2,MacIntel,60,,,,,,,,,,,,,,2,5.61134,,0,0,148,148,59,1,stimuli/stim_20210407_power2amp/equal_lnn_AM2.4Hz_96.m4a,,,
,,,,,,,,,,,,41110,2021-05-04_20h00.40.572,judgeSpeechMusic_20210407_logNormShiftAmp,2020.1.2,MacIntel,60,,,,,,,,,,,,,,2,6.32642,,0,0,149,149,86,1,stimuli/stim_20210407_power2amp/equal_lnn_AM3.6Hz_69.m4a,,,
,,,,,,,,,,,,41110,2021-05-04_20h00.40.572,judgeSpeechMusic_20210407_logNormShiftAmp,2020.1.2,MacIntel,60,,,,,,,,,,,,,,1,5.748425,,0,1,0,150,18,1,stimuli/stim_20210407_power2amp/equal_lnn_AM1.2Hz_81.m4a,,,
,,,,,,,,,,,,41110,2021-05-04_20h00.40.572,judgeSpeechMusic_20210407_logNormShiftAmp,2020.1.2,MacIntel,60,,,,,,,,,,,,,,1,6.112295,,0,1,1,151,14,1,stimuli/stim_20210407_power2amp/equal_lnn_AM0.6Hz_2.m4a,,,
,,,,,,,,,,,,41110,2021-05-04_20h00.40.572,judgeSpeechMusic_20210407_logNormShiftAmp,2020.1.2,MacIntel,60,,,,,,,,,,,,,,2,5.760115,,0,1,2,152,56,1,stimuli/stim_20210407_power2amp/equal_lnn_AM2.4Hz_24.m4a,,,
,,,,,,,,,,,,41110,2021-05-04_20h00.40.572,judgeSpeechMusic_20210407_logNormShiftAmp,2020.1.2,MacIntel,60,,,,,,,,,,,,,,2,6.180025,2,1,1,3,153,114,1,stimuli/stim_20210407_power2amp/equal_lnn_AM4.8Hz_43.m4a,0.956335,,
,,,,,,,,,,,,41110,2021-05-04_20h00.40.572,judgeSpeechMusic_20210407_logNormShiftAmp,2020.1.2,MacIntel,60,,,,,,,,,,,,,,2,6.81375,,0,1,4,154,9,1,stimuli/stim_20210407_power2amp/equal_lnn_AM0.6Hz_82.m4a,,,
,,,,,,,,,,,,41110,2021-05-04_20h00.40.572,judgeSpeechMusic_20210407_logNormShiftAmp,2020.1.2,MacIntel,60,,,,,,,,,,,,,,1,5.727955,,0,1,5,155,129,1,stimuli/stim_20210407_power2amp/equal_lnn_AM5.4Hz_93.m4a,,,
,,,,,,,,,,,,41110,2021-05-04_20h00.40.572,judgeSpeechMusic_20210407_logNormShiftAmp,2020.1.2,MacIntel,60,,,,,,,,,,,,,,2,5.59083,,0,1,6,156,55,1,stimuli/stim_20210407_power2amp/equal_lnn_AM2.4Hz_61.m4a,,,
,,,,,,,,,,,,41110,2021-05-04_20h00.40.572,judgeSpeechMusic_20210407_logNormShiftAmp,2020.1.2,MacIntel,60,,,,,,,,,,,,,,2,5.55934,,0,1,7,157,123,1,stimuli/stim_20210407_power2amp/equal_lnn_AM5.4Hz_94.m4a,,,
,,,,,,,,,,,,41110,2021-05-04_20h00.40.572,judgeSpeechMusic_20210407_logNormShiftAmp,2020.1.2,MacIntel,60,,,,,,,,,,,,,,1,5.765755,,0,1,8,158,148,1,stimuli/stim_20210407_power2amp/equal_lnn_AM6Hz_43.m4a,,,
,,,,,,,,,,,,41110,2021-05-04_20h00.40.572,judgeSpeechMusic_20210407_logNormShiftAmp,2020.1.2,MacIntel,60,,,,,,,,,,,,,,2,7.47618,,0,1,9,159,147,1,stimuli/stim_20210407_power2amp/equal_lnn_AM6Hz_25.m4a,,,
,,,,,,,,,,,,41110,2021-05-04_20h00.40.572,judgeSpeechMusic_20210407_logNormShiftAmp,2020.1.2,MacIntel,60,,,,,,,,,,,,,,1,7.834915,,0,1,10,160,48,1,stimuli/stim_20210407_power2amp/equal_lnn_AM2.4Hz_88.m4a,,,
,,,,,,,,,,,,41110,2021-05-04_20h00.40.572,judgeSpeechMusic_20210407_logNormShiftAmp,2020.1.2,MacIntel,60,,,,,,,,,,,,,,2,6.411875,,0,1,11,161,124,1,stimuli/stim_20210407_power2amp/equal_lnn_AM5.4Hz_26.m4a,,,
,,,,,,,,,,,,41110,2021-05-04_20h00.40.572,judgeSpeechMusic_20210407_logNormShiftAmp,2020.1.2,MacIntel,60,,,,,,,,,,,,,,2,6.00845,,0,1,12,162,130,1,stimuli/stim_20210407_power2amp/equal_lnn_AM5.4Hz_38.m4a,,,
,,,,,,,,,,,,41110,2021-05-04_20h00.40.572,judgeSpeechMusic_20210407_logNormShiftAmp,2020.1.2,MacIntel,60,,,,,,,,,,,,,,1,5.710115,,0,1,13,163,15,1,stimuli/stim_20210407_power2amp/equal_lnn_AM1.2Hz_85.m4a,,,
,,,,,,,,,,,,41110,2021-05-04_20h00.40.572,judgeSpeechMusic_20210407_logNormShiftAmp,2020.1.2,MacIntel,60,,,,,,,,,,,,,,1,6.040945,,0,1,14,164,100,1,stimuli/stim_20210407_power2amp/equal_lnn_AM4.2Hz_5.m4a,,,
,,,,,,,,,,,,41110,2021-05-04_20h00.40.572,judgeSpeechMusic_20210407_logNormShiftAmp,2020.1.2,MacIntel,60,,,,,,,,,,,,,,2,5.591675,,0,1,15,165,93,1,stimuli/stim_20210407_power2amp/equal_lnn_AM4.2Hz_41.m4a,,,
,,,,,,,,,,,,41110,2021-05-04_20h00.40.572,judgeSpeechMusic_20210407_logNormShiftAmp,2020.1.2,MacIntel,60,,,,,,,,,,,,,,2,5.832375,,0,1,16,166,57,1,stimuli/stim_20210407_power2amp/equal_lnn_AM2.4Hz_47.m4a,,,
,,,,,,,,,,,,41110,2021-05-04_20h00.40.572,judgeSpeechMusic_20210407_logNormShiftAmp,2020.1.2,MacIntel,60,,,,,,,,,,,,,,1,5.908455,,0,1,17,167,43,1,stimuli/stim_20210407_power2amp/equal_lnn_AM1.8Hz_18.m4a,,,
,,,,,,,,,,,,41110,2021-05-04_20h00.40.572,judgeSpeechMusic_20210407_logNormShiftAmp,2020.1.2,MacIntel,60,,,,,,,,,,,,,,2,6.059365,,0,1,18,168,39,1,stimuli/stim_20210407_power2amp/equal_lnn_AM1.8Hz_68.m4a,,,
,,,,,,,,,,,,41110,2021-05-04_20h00.40.572,judgeSpeechMusic_20210407_logNormShiftAmp,2020.1.2,MacIntel,60,,,,,,,,,,,,,,1,6.273995,,0,1,19,169,127,1,stimuli/stim_20210407_power2amp/equal_lnn_AM5.4Hz_47.m4a,,,
,,,,,,,,,,,,41110,2021-05-04_20h00.40.572,judgeSpeechMusic_20210407_logNormShiftAmp,2020.1.2,MacIntel,60,,,,,,,,,,,,,,2,5.64544,,0,1,20,170,90,1,stimuli/stim_20210407_power2amp/equal_lnn_AM4.2Hz_95.m4a,,,
,,,,,,,,,,,,41110,2021-05-04_20h00.40.572,judgeSpeechMusic_20210407_logNormShiftAmp,2020.1.2,MacIntel,60,,,,,,,,,,,,,,1,5.787495,,0,1,21,171,4,1,stimuli/stim_20210407_power2amp/equal_lnn_AM0.6Hz_19.m4a,,,
,,,,,,,,,,,,41110,2021-05-04_20h00.40.572,judgeSpeechMusic_20210407_logNormShiftAmp,2020.1.2,MacIntel,60,,,,,,,,,,,,,,2,8.19195,,0,1,22,172,101,1,stimuli/stim_20210407_power2amp/equal_lnn_AM4.2Hz_43.m4a,,,
,,,,,,,,,,,,41110,2021-05-04_20h00.40.572,judgeSpeechMusic_20210407_logNormShiftAmp,2020.1.2,MacIntel,60,,,,,,,,,,,,,,2,7.911815,,0,1,23,173,32,1,stimuli/stim_20210407_power2amp/equal_lnn_AM1.8Hz_65.m4a,,,
,,,,,,,,,,,,41110,2021-05-04_20h00.40.572,judgeSpeechMusic_20210407_logNormShiftAmp,2020.1.2,MacIntel,60,,,,,,,,,,,,,,1,6.19891,,0,1,24,174,131,1,stimuli/stim_20210407_power2amp/equal_lnn_AM5.4Hz_28.m4a,,,
,,,,,,,,,,,,41110,2021-05-04_20h00.40.572,judgeSpeechMusic_20210407_logNormShiftAmp,2020.1.2,MacIntel,60,,,,,,,,,,,,,,2,6.519295,1,1,1,25,175,61,1,stimuli/stim_20210407_power2amp/equal_lnn_AM3Hz_40.m4a,1.047485,,
,,,,,,,,,,,,41110,2021-05-04_20h00.40.572,judgeSpeechMusic_20210407_logNormShiftAmp,2020.1.2,MacIntel,60,,,,,,,,,,,,,,1,6.802735,,0,1,26,176,88,1,stimuli/stim_20210407_power2amp/equal_lnn_AM3.6Hz_91.m4a,,,
,,,,,,,,,,,,41110,2021-05-04_20h00.40.572,judgeSpeechMusic_20210407_logNormShiftAmp,2020.1.2,MacIntel,60,,,,,,,,,,,,,,2,7.477775,,0,1,27,177,94,1,stimuli/stim_20210407_power2amp/equal_lnn_AM4.2Hz_60.m4a,,,
,,,,,,,,,,,,41110,2021-05-04_20h00.40.572,judgeSpeechMusic_20210407_logNormShiftAmp,2020.1.2,MacIntel,60,,,,,,,,,,,,,,1,5.708175,,0,1,28,178,7,1,stimuli/stim_20210407_power2amp/equal_lnn_AM0.6Hz_17.m4a,,,
,,,,,,,,,,,,41110,2021-05-04_20h00.40.572,judgeSpeechMusic_20210407_logNormShiftAmp,2020.1.2,MacIntel,60,,,,,,,,,,,,,,2,6.18093,,0,1,29,179,37,1,stimuli/stim_20210407_power2amp/equal_lnn_AM1.8Hz_56.m4a,,,
,,,,,,,,,,,,41110,2021-05-04_20h00.40.572,judgeSpeechMusic_20210407_logNormShiftAmp,2020.1.2,MacIntel,60,,,,,,,,,,,,,,1,5.75995,,0,1,30,180,112,1,stimuli/stim_20210407_power2amp/equal_lnn_AM4.8Hz_50.m4a,,,
,,,,,,,,,,,,41110,2021-05-04_20h00.40.572,judgeSpeechMusic_20210407_logNormShiftAmp,2020.1.2,MacIntel,60,,,,,,,,,,,,,,2,5.624405,,0,1,31,181,138,1,stimuli/stim_20210407_power2amp/equal_lnn_AM6Hz_96.m4a,,,
,,,,,,,,,,,,41110,2021-05-04_20h00.40.572,judgeSpeechMusic_20210407_logNormShiftAmp,2020.1.2,MacIntel,60,,,,,,,,,,,,,,2,5.307185,,0,1,32,182,98,1,stimuli/stim_20210407_power2amp/equal_lnn_AM4.2Hz_6.m4a,,,
,,,,,,,,,,,,41110,2021-05-04_20h00.40.572,judgeSpeechMusic_20210407_logNormShiftAmp,2020.1.2,MacIntel,60,,,,,,,,,,,,,,1,5.677365,,0,1,33,183,2,1,stimuli/stim_20210407_power2amp/equal_lnn_AM0.6Hz_60.m4a,,,
,,,,,,,,,,,,41110,2021-05-04_20h00.40.572,judgeSpeechMusic_20210407_logNormShiftAmp,2020.1.2,MacIntel,60,,,,,,,,,,,,,,2,6.378735,,0,1,34,184,38,1,stimuli/stim_20210407_power2amp/equal_lnn_AM1.8Hz_16.m4a,,,
,,,,,,,,,,,,41110,2021-05-04_20h00.40.572,judgeSpeechMusic_20210407_logNormShiftAmp,2020.1.2,MacIntel,60,,,,,,,,,,,,,,2,5.74841,,0,1,35,185,109,1,stimuli/stim_20210407_power2amp/equal_lnn_AM4.8Hz_97.m4a,,,
,,,,,,,,,,,,41110,2021-05-04_20h00.40.572,judgeSpeechMusic_20210407_logNormShiftAmp,2020.1.2,MacIntel,60,,,,,,,,,,,,,,1,6.532405,,0,1,36,186,46,1,stimuli/stim_20210407_power2amp/equal_lnn_AM2.4Hz_71.m4a,,,
,,,,,,,,,,,,41110,2021-05-04_20h00.40.572,judgeSpeechMusic_20210407_logNormShiftAmp,2020.1.2,MacIntel,60,,,,,,,,,,,,,,2,6.249165,,0,1,37,187,95,1,stimuli/stim_20210407_power2amp/equal_lnn_AM4.2Hz_17.m4a,,,
,,,,,,,,,,,,41110,2021-05-04_20h00.40.572,judgeSpeechMusic_20210407_logNormShiftAmp,2020.1.2,MacIntel,60,,,,,,,,,,,,,,1,6.259945,,0,1,38,188,58,1,stimuli/stim_20210407_power2amp/equal_lnn_AM2.4Hz_59.m4a,,,
,,,,,,,,,,,,41110,2021-05-04_20h00.40.572,judgeSpeechMusic_20210407_logNormShiftAmp,2020.1.2,MacIntel,60,,,,,,,,,,,,,,2,5.64605,,0,1,39,189,132,1,stimuli/stim_20210407_power2amp/equal_lnn_AM5.4Hz_57.m4a,,,
,,,,,,,,,,,,41110,2021-05-04_20h00.40.572,judgeSpeechMusic_20210407_logNormShiftAmp,2020.1.2,MacIntel,60,,,,,,,,,,,,,,1,6.944935,,0,1,40,190,19,1,stimuli/stim_20210407_power2amp/equal_lnn_AM1.2Hz_87.m4a,,,
,,,,,,,,,,,,41110,2021-05-04_20h00.40.572,judgeSpeechMusic_20210407_logNormShiftAmp,2020.1.2,MacIntel,60,,,,,,,,,,,,,,1,5.692145,,0,1,41,191,78,1,stimuli/stim_20210407_power2amp/equal_lnn_AM3.6Hz_2.m4a,,,
,,,,,,,,,,,,41110,2021-05-04_20h00.40.572,judgeSpeechMusic_20210407_logNormShiftAmp,2020.1.2,MacIntel,60,,,,,,,,,,,,,,2,6.7618,,0,1,42,192,140,1,stimuli/stim_20210407_power2amp/equal_lnn_AM6Hz_40.m4a,,,
,,,,,,,,,,,,41110,2021-05-04_20h00.40.572,judgeSpeechMusic_20210407_logNormShiftAmp,2020.1.2,MacIntel,60,,,,,,,,,,,,,,2,7.097945,,0,1,43,193,30,1,stimuli/stim_20210407_power2amp/equal_lnn_AM1.8Hz_21.m4a,,,
,,,,,,,,,,,,41110,2021-05-04_20h00.40.572,judgeSpeechMusic_20210407_logNormShiftAmp,2020.1.2,MacIntel,60,,,,,,,,,,,,,,1,7.04554,,0,1,44,194,72,1,stimuli/stim_20210407_power2amp/equal_lnn_AM3Hz_18.m4a,,,
,,,,,,,,,,,,41110,2021-05-04_20h00.40.572,judgeSpeechMusic_20210407_logNormShiftAmp,2020.1.2,MacIntel,60,,,,,,,,,,,,,,2,7.59435,4,1,1,45,195,52,1,stimuli/stim_20210407_power2amp/equal_lnn_AM2.4Hz_22.m4a,1.423245,,
,,,,,,,,,,,,41110,2021-05-04_20h00.40.572,judgeSpeechMusic_20210407_logNormShiftAmp,2020.1.2,MacIntel,60,,,,,,,,,,,,,,2,6.159375,,0,1,46,196,117,1,stimuli/stim_20210407_power2amp/equal_lnn_AM4.8Hz_80.m4a,,,
,,,,,,,,,,,,41110,2021-05-04_20h00.40.572,judgeSpeechMusic_20210407_logNormShiftAmp,2020.1.2,MacIntel,60,,,,,,,,,,,,,,2,7.350575,,0,1,47,197,137,1,stimuli/stim_20210407_power2amp/equal_lnn_AM6Hz_89.m4a,,,
,,,,,,,,,,,,41110,2021-05-04_20h00.40.572,judgeSpeechMusic_20210407_logNormShiftAmp,2020.1.2,MacIntel,60,,,,,,,,,,,,,,1,5.7315,,0,1,48,198,5,1,stimuli/stim_20210407_power2amp/equal_lnn_AM0.6Hz_56.m4a,,,
,,,,,,,,,,,,41110,2021-05-04_20h00.40.572,judgeSpeechMusic_20210407_logNormShiftAmp,2020.1.2,MacIntel,60,,,,,,,,,,,,,,1,7.430725,,0,1,49,199,21,1,stimuli/stim_20210407_power2amp/equal_lnn_AM1.2Hz_46.m4a,,,
,,,,,,,,,,,,41110,2021-05-04_20h00.40.572,judgeSpeechMusic_20210407_logNormShiftAmp,2020.1.2,MacIntel,60,,,,,,,,,,,,,,2,7.69365,,0,1,50,200,45,1,stimuli/stim_20210407_power2amp/equal_lnn_AM2.4Hz_91.m4a,,,
,,,,,,,,,,,,41110,2021-05-04_20h00.40.572,judgeSpeechMusic_20210407_logNormShiftAmp,2020.1.2,MacIntel,60,,,,,,,,,,,,,,1,5.841425,,0,1,51,201,106,1,stimuli/stim_20210407_power2amp/equal_lnn_AM4.8Hz_31.m4a,,,
,,,,,,,,,,,,41110,2021-05-04_20h00.40.572,judgeSpeechMusic_20210407_logNormShiftAmp,2020.1.2,MacIntel,60,,,,,,,,,,,,,,2,6.359585,,0,1,52,202,80,1,stimuli/stim_20210407_power2amp/equal_lnn_AM3.6Hz_6.m4a,,,
,,,,,,,,,,,,41110,2021-05-04_20h00.40.572,judgeSpeechMusic_20210407_logNormShiftAmp,2020.1.2,MacIntel,60,,,,,,,,,,,,,,2,6.89092,,0,1,53,203,135,1,stimuli/stim_20210407_power2amp/equal_lnn_AM6Hz_14.m4a,,,
,,,,,,,,,,,,41110,2021-05-04_20h00.40.572,judgeSpeechMusic_20210407_logNormShiftAmp,2020.1.2,MacIntel,60,,,,,,,,,,,,,,1,6.26251,,0,1,54,204,25,1,stimuli/stim_20210407_power2amp/equal_lnn_AM1.2Hz_54.m4a,,,
,,,,,,,,,,,,41110,2021-05-04_20h00.40.572,judgeSpeechMusic_20210407_logNormShiftAmp,2020.1.2,MacIntel,60,,,,,,,,,,,,,,1,5.75893,,0,1,55,205,12,1,stimuli/stim_20210407_power2amp/equal_lnn_AM0.6Hz_1.m4a,,,
,,,,,,,,,,,,41110,2021-05-04_20h00.40.572,judgeSpeechMusic_20210407_logNormShiftAmp,2020.1.2,MacIntel,60,,,,,,,,,,,,,,2,5.77263,,0,1,56,206,86,1,stimuli/stim_20210407_power2amp/equal_lnn_AM3.6Hz_69.m4a,,,
,,,,,,,,,,,,41110,2021-05-04_20h00.40.572,judgeSpeechMusic_20210407_logNormShiftAmp,2020.1.2,MacIntel,60,,,,,,,,,,,,,,1,6.626875,,0,1,57,207,31,1,stimuli/stim_20210407_power2amp/equal_lnn_AM1.8Hz_6.m4a,,,
,,,,,,,,,,,,41110,2021-05-04_20h00.40.572,judgeSpeechMusic_20210407_logNormShiftAmp,2020.1.2,MacIntel,60,,,,,,,,,,,,,,2,5.732315,,0,1,58,208,67,1,stimuli/stim_20210407_power2amp/equal_lnn_AM3Hz_28.m4a,,,
,,,,,,,,,,,,41110,2021-05-04_20h00.40.572,judgeSpeechMusic_20210407_logNormShiftAmp,2020.1.2,MacIntel,60,,,,,,,,,,,,,,2,5.5982,,0,1,59,209,120,1,stimuli/stim_20210407_power2amp/equal_lnn_AM5.4Hz_21.m4a,,,
,,,,,,,,,,,,41110,2021-05-04_20h00.40.572,judgeSpeechMusic_20210407_logNormShiftAmp,2020.1.2,MacIntel,60,,,,,,,,,,,,,,2,6.459505,,0,1,60,210,71,1,stimuli/stim_20210407_power2amp/equal_lnn_AM3Hz_43.m4a,,,
,,,,,,,,,,,,41110,2021-05-04_20h00.40.572,judgeSpeechMusic_20210407_logNormShiftAmp,2020.1.2,MacIntel,60,,,,,,,,,,,,,,2,5.576915,,0,1,61,211,89,1,stimuli/stim_20210407_power2amp/equal_lnn_AM3.6Hz_17.m4a,,,
,,,,,,,,,,,,41110,2021-05-04_20h00.40.572,judgeSpeechMusic_20210407_logNormShiftAmp,2020.1.2,MacIntel,60,,,,,,,,,,,,,,1,6.125955,,0,1,62,212,59,1,stimuli/stim_20210407_power2amp/equal_lnn_AM2.4Hz_96.m4a,,,
,,,,,,,,,,,,41110,2021-05-04_20h00.40.572,judgeSpeechMusic_20210407_logNormShiftAmp,2020.1.2,MacIntel,60,,,,,,,,,,,,,,1,5.76005,,0,1,63,213,20,1,stimuli/stim_20210407_power2amp/equal_lnn_AM1.2Hz_25.m4a,,,
,,,,,,,,,,,,41110,2021-05-04_20h00.40.572,judgeSpeechMusic_20210407_logNormShiftAmp,2020.1.2,MacIntel,60,,,,,,,,,,,,,,1,5.858845,,0,1,64,214,49,1,stimuli/stim_20210407_power2amp/equal_lnn_AM2.4Hz_78.m4a,,,
,,,,,,,,,,,,41110,2021-05-04_20h00.40.572,judgeSpeechMusic_20210407_logNormShiftAmp,2020.1.2,MacIntel,60,,,,,,,,,,,,,,2,6.530155,,0,1,65,215,126,1,stimuli/stim_20210407_power2amp/equal_lnn_AM5.4Hz_33.m4a,,,
,,,,,,,,,,,,41110,2021-05-04_20h00.40.572,judgeSpeechMusic_20210407_logNormShiftAmp,2020.1.2,MacIntel,60,,,,,,,,,,,,,,1,6.347945,,0,1,66,216,81,1,stimuli/stim_20210407_power2amp/equal_lnn_AM3.6Hz_100.m4a,,,
,,,,,,,,,,,,41110,2021-05-04_20h00.40.572,judgeSpeechMusic_20210407_logNormShiftAmp,2020.1.2,MacIntel,60,,,,,,,,,,,,,,2,5.66206,1,1,1,67,217,50,1,stimuli/stim_20210407_power2amp/equal_lnn_AM2.4Hz_62.m4a,0.64686,,
,,,,,,,,,,,,41110,2021-05-04_20h00.40.572,judgeSpeechMusic_20210407_logNormShiftAmp,2020.1.2,MacIntel,60,,,,,,,,,,,,,,2,8.635775,,0,1,68,218,85,1,stimuli/stim_20210407_power2amp/equal_lnn_AM3.6Hz_25.m4a,,,
,,,,,,,,,,,,41110,2021-05-04_20h00.40.572,judgeSpeechMusic_20210407_logNormShiftAmp,2020.1.2,MacIntel,60,,,,,,,,,,,,,,2,6.465265,,0,1,69,219,47,1,stimuli/stim_20210407_power2amp/equal_lnn_AM2.4Hz_41.m4a,,,
,,,,,,,,,,,,41110,2021-05-04_20h00.40.572,judgeSpeechMusic_20210407_logNormShiftAmp,2020.1.2,MacIntel,60,,,,,,,,,,,,,,2,6.196555,,0,1,70,220,66,1,stimuli/stim_20210407_power2amp/equal_lnn_AM3Hz_38.m4a,,,
,,,,,,,,,,,,41110,2021-05-04_20h00.40.572,judgeSpeechMusic_20210407_logNormShiftAmp,2020.1.2,MacIntel,60,,,,,,,,,,,,,,1,7.318755,,0,1,71,221,29,1,stimuli/stim_20210407_power2amp/equal_lnn_AM1.2Hz_66.m4a,,,
,,,,,,,,,,,,41110,2021-05-04_20h00.40.572,judgeSpeechMusic_20210407_logNormShiftAmp,2020.1.2,MacIntel,60,,,,,,,,,,,,,,2,5.94292,,0,1,72,222,142,1,stimuli/stim_20210407_power2amp/equal_lnn_AM6Hz_76.m4a,,,
,,,,,,,,,,,,41110,2021-05-04_20h00.40.572,judgeSpeechMusic_20210407_logNormShiftAmp,2020.1.2,MacIntel,60,,,,,,,,,,,,,,2,5.626655,,0,1,73,223,119,1,stimuli/stim_20210407_power2amp/equal_lnn_AM4.8Hz_4.m4a,,,
,,,,,,,,,,,,41110,2021-05-04_20h00.40.572,judgeSpeechMusic_20210407_logNormShiftAmp,2020.1.2,MacIntel,60,,,,,,,,,,,,,,1,5.733635,,0,1,74,224,34,1,stimuli/stim_20210407_power2amp/equal_lnn_AM1.8Hz_17.m4a,,,
,,,,,,,,,,,,41110,2021-05-04_20h00.40.572,judgeSpeechMusic_20210407_logNormShiftAmp,2020.1.2,MacIntel,60,,,,,,,,,,,,,,1,5.592115,,0,1,75,225,0,1,stimuli/stim_20210407_power2amp/equal_lnn_AM0.6Hz_54.m4a,,,
,,,,,,,,,,,,41110,2021-05-04_20h00.40.572,judgeSpeechMusic_20210407_logNormShiftAmp,2020.1.2,MacIntel,60,,,,,,,,,,,,,,1,5.5641,,0,1,76,226,63,1,stimuli/stim_20210407_power2amp/equal_lnn_AM3Hz_36.m4a,,,
,,,,,,,,,,,,41110,2021-05-04_20h00.40.572,judgeSpeechMusic_20210407_logNormShiftAmp,2020.1.2,MacIntel,60,,,,,,,,,,,,,,1,5.641585,,0,1,77,227,41,1,stimuli/stim_20210407_power2amp/equal_lnn_AM1.8Hz_4.m4a,,,
,,,,,,,,,,,,41110,2021-05-04_20h00.40.572,judgeSpeechMusic_20210407_logNormShiftAmp,2020.1.2,MacIntel,60,,,,,,,,,,,,,,2,6.229495,,0,1,78,228,60,1,stimuli/stim_20210407_power2amp/equal_lnn_AM3Hz_9.m4a,,,
,,,,,,,,,,,,41110,2021-05-04_20h00.40.572,judgeSpeechMusic_20210407_logNormShiftAmp,2020.1.2,MacIntel,60,,,,,,,,,,,,,,1,5.865475,,0,1,79,229,17,1,stimuli/stim_20210407_power2amp/equal_lnn_AM1.2Hz_48.m4a,,,
,,,,,,,,,,,,41110,2021-05-04_20h00.40.572,judgeSpeechMusic_20210407_logNormShiftAmp,2020.1.2,MacIntel,60,,,,,,,,,,,,,,2,7.034235,,0,1,80,230,113,1,stimuli/stim_20210407_power2amp/equal_lnn_AM4.8Hz_70.m4a,,,
,,,,,,,,,,,,41110,2021-05-04_20h00.40.572,judgeSpeechMusic_20210407_logNormShiftAmp,2020.1.2,MacIntel,60,,,,,,,,,,,,,,1,6.825785,,0,1,81,231,91,1,stimuli/stim_20210407_power2amp/equal_lnn_AM4.2Hz_24.m4a,,,
,,,,,,,,,,,,41110,2021-05-04_20h00.40.572,judgeSpeechMusic_20210407_logNormShiftAmp,2020.1.2,MacIntel,60,,,,,,,,,,,,,,1,5.59415,,0,1,82,232,36,1,stimuli/stim_20210407_power2amp/equal_lnn_AM1.8Hz_93.m4a,,,
,,,,,,,,,,,,41110,2021-05-04_20h00.40.572,judgeSpeechMusic_20210407_logNormShiftAmp,2020.1.2,MacIntel,60,,,,,,,,,,,,,,2,5.62945,,0,1,83,233,144,1,stimuli/stim_20210407_power2amp/equal_lnn_AM6Hz_56.m4a,,,
,,,,,,,,,,,,41110,2021-05-04_20h00.40.572,judgeSpeechMusic_20210407_logNormShiftAmp,2020.1.2,MacIntel,60,,,,,,,,,,,,,,2,6.396595,,0,1,84,234,146,1,stimuli/stim_20210407_power2amp/equal_lnn_AM6Hz_49.m4a,,,
,,,,,,,,,,,,41110,2021-05-04_20h00.40.572,judgeSpeechMusic_20210407_logNormShiftAmp,2020.1.2,MacIntel,60,,,,,,,,,,,,,,1,5.828505,,0,1,85,235,26,1,stimuli/stim_20210407_power2amp/equal_lnn_AM1.2Hz_55.m4a,,,
,,,,,,,,,,,,41110,2021-05-04_20h00.40.572,judgeSpeechMusic_20210407_logNormShiftAmp,2020.1.2,MacIntel,60,,,,,,,,,,,,,,1,6.480725,,0,1,86,236,99,1,stimuli/stim_20210407_power2amp/equal_lnn_AM4.2Hz_64.m4a,,,
,,,,,,,,,,,,41110,2021-05-04_20h00.40.572,judgeSpeechMusic_20210407_logNormShiftAmp,2020.1.2,MacIntel,60,,,,,,,,,,,,,,2,5.618275,,0,1,87,237,42,1,stimuli/stim_20210407_power2amp/equal_lnn_AM1.8Hz_95.m4a,,,
,,,,,,,,,,,,41110,2021-05-04_20h00.40.572,judgeSpeechMusic_20210407_logNormShiftAmp,2020.1.2,MacIntel,60,,,,,,,,,,,,,,1,5.767655,,0,1,88,238,76,1,stimuli/stim_20210407_power2amp/equal_lnn_AM3.6Hz_64.m4a,,,
,,,,,,,,,,,,41110,2021-05-04_20h00.40.572,judgeSpeechMusic_20210407_logNormShiftAmp,2020.1.2,MacIntel,60,,,,,,,,,,,,,,1,6.14587,,0,1,89,239,8,1,stimuli/stim_20210407_power2amp/equal_lnn_AM0.6Hz_50.m4a,,,
,,,,,,,,,,,,41110,2021-05-04_20h00.40.572,judgeSpeechMusic_20210407_logNormShiftAmp,2020.1.2,MacIntel,60,,,,,,,,,,,,,,1,7.28818,,0,1,90,240,87,1,stimuli/stim_20210407_power2amp/equal_lnn_AM3.6Hz_63.m4a,,,
,,,,,,,,,,,,41110,2021-05-04_20h00.40.572,judgeSpeechMusic_20210407_logNormShiftAmp,2020.1.2,MacIntel,60,,,,,,,,,,,,,,1,5.511695,4,1,1,91,241,44,1,stimuli/stim_20210407_power2amp/equal_lnn_AM1.8Hz_39.m4a,0.70941,,
,,,,,,,,,,,,41110,2021-05-04_20h00.40.572,judgeSpeechMusic_20210407_logNormShiftAmp,2020.1.2,MacIntel,60,,,,,,,,,,,,,,2,5.79606,,0,1,92,242,108,1,stimuli/stim_20210407_power2amp/equal_lnn_AM4.8Hz_66.m4a,,,
,,,,,,,,,,,,41110,2021-05-04_20h00.40.572,judgeSpeechMusic_20210407_logNormShiftAmp,2020.1.2,MacIntel,60,,,,,,,,,,,,,,1,6.479335,,0,1,93,243,10,1,stimuli/stim_20210407_power2amp/equal_lnn_AM0.6Hz_20.m4a,,,
,,,,,,,,,,,,41110,2021-05-04_20h00.40.572,judgeSpeechMusic_20210407_logNormShiftAmp,2020.1.2,MacIntel,60,,,,,,,,,,,,,,1,6.22906,,0,1,94,244,13,1,stimuli/stim_20210407_power2amp/equal_lnn_AM0.6Hz_98.m4a,,,
,,,,,,,,,,,,41110,2021-05-04_20h00.40.572,judgeSpeechMusic_20210407_logNormShiftAmp,2020.1.2,MacIntel,60,,,,,,,,,,,,,,2,5.4798,,0,1,95,245,69,1,stimuli/stim_20210407_power2amp/equal_lnn_AM3Hz_94.m4a,,,
,,,,,,,,,,,,41110,2021-05-04_20h00.40.572,judgeSpeechMusic_20210407_logNormShiftAmp,2020.1.2,MacIntel,60,,,,,,,,,,,,,,1,6.11313,,0,1,96,246,65,1,stimuli/stim_20210407_power2amp/equal_lnn_AM3Hz_81.m4a,,,
,,,,,,,,,,,,41110,2021-05-04_20h00.40.572,judgeSpeechMusic_20210407_logNormShiftAmp,2020.1.2,MacIntel,60,,,,,,,,,,,,,,2,5.81178,,0,1,97,247,40,1,stimuli/stim_20210407_power2amp/equal_lnn_AM1.8Hz_50.m4a,,,
,,,,,,,,,,,,41110,2021-05-04_20h00.40.572,judgeSpeechMusic_20210407_logNormShiftAmp,2020.1.2,MacIntel,60,,,,,,,,,,,,,,2,5.964065,,0,1,98,248,33,1,stimuli/stim_20210407_power2amp/equal_lnn_AM1.8Hz_14.m4a,,,
,,,,,,,,,,,,41110,2021-05-04_20h00.40.572,judgeSpeechMusic_20210407_logNormShiftAmp,2020.1.2,MacIntel,60,,,,,,,,,,,,,,2,7.04725,,0,1,99,249,97,1,stimuli/stim_20210407_power2amp/equal_lnn_AM4.2Hz_3.m4a,,,
,,,,,,,,,,,,41110,2021-05-04_20h00.40.572,judgeSpeechMusic_20210407_logNormShiftAmp,2020.1.2,MacIntel,60,,,,,,,,,,,,,,1,8.930655,,0,1,100,250,3,1,stimuli/stim_20210407_power2amp/equal_lnn_AM0.6Hz_44.m4a,,,
,,,,,,,,,,,,41110,2021-05-04_20h00.40.572,judgeSpeechMusic_20210407_logNormShiftAmp,2020.1.2,MacIntel,60,,,,,,,,,,,,,,2,5.74474,,0,1,101,251,105,1,stimuli/stim_20210407_power2amp/equal_lnn_AM4.8Hz_12.m4a,,,
,,,,,,,,,,,,41110,2021-05-04_20h00.40.572,judgeSpeechMusic_20210407_logNormShiftAmp,2020.1.2,MacIntel,60,,,,,,,,,,,,,,2,5.462355,,0,1,102,252,53,1,stimuli/stim_20210407_power2amp/equal_lnn_AM2.4Hz_57.m4a,,,
,,,,,,,,,,,,41110,2021-05-04_20h00.40.572,judgeSpeechMusic_20210407_logNormShiftAmp,2020.1.2,MacIntel,60,,,,,,,,,,,,,,2,5.567145,,0,1,103,253,136,1,stimuli/stim_20210407_power2amp/equal_lnn_AM6Hz_38.m4a,,,
,,,,,,,,,,,,41110,2021-05-04_20h00.40.572,judgeSpeechMusic_20210407_logNormShiftAmp,2020.1.2,MacIntel,60,,,,,,,,,,,,,,2,5.963215,,0,1,104,254,51,1,stimuli/stim_20210407_power2amp/equal_lnn_AM2.4Hz_68.m4a,,,
,,,,,,,,,,,,41110,2021-05-04_20h00.40.572,judgeSpeechMusic_20210407_logNormShiftAmp,2020.1.2,MacIntel,60,,,,,,,,,,,,,,1,5.9622,,0,1,105,255,145,1,stimuli/stim_20210407_power2amp/equal_lnn_AM6Hz_85.m4a,,,
,,,,,,,,,,,,41110,2021-05-04_20h00.40.572,judgeSpeechMusic_20210407_logNormShiftAmp,2020.1.2,MacIntel,60,,,,,,,,,,,,,,1,5.85222,,0,1,106,256,149,1,stimuli/stim_20210407_power2amp/equal_lnn_AM6Hz_6.m4a,,,
,,,,,,,,,,,,41110,2021-05-04_20h00.40.572,judgeSpeechMusic_20210407_logNormShiftAmp,2020.1.2,MacIntel,60,,,,,,,,,,,,,,1,5.62907,,0,1,107,257,23,1,stimuli/stim_20210407_power2amp/equal_lnn_AM1.2Hz_17.m4a,,,
,,,,,,,,,,,,41110,2021-05-04_20h00.40.572,judgeSpeechMusic_20210407_logNormShiftAmp,2020.1.2,MacIntel,60,,,,,,,,,,,,,,2,5.760855,,0,1,108,258,115,1,stimuli/stim_20210407_power2amp/equal_lnn_AM4.8Hz_53.m4a,,,
,,,,,,,,,,,,41110,2021-05-04_20h00.40.572,judgeSpeechMusic_20210407_logNormShiftAmp,2020.1.2,MacIntel,60,,,,,,,,,,,,,,1,5.81244,,0,1,109,259,116,1,stimuli/stim_20210407_power2amp/equal_lnn_AM4.8Hz_16.m4a,,,
,,,,,,,,,,,,41110,2021-05-04_20h00.40.572,judgeSpeechMusic_20210407_logNormShiftAmp,2020.1.2,MacIntel,60,,,,,,,,,,,,,,1,5.951285,,0,1,110,260,84,1,stimuli/stim_20210407_power2amp/equal_lnn_AM3.6Hz_76.m4a,,,
,,,,,,,,,,,,41110,2021-05-04_20h00.40.572,judgeSpeechMusic_20210407_logNormShiftAmp,2020.1.2,MacIntel,60,,,,,,,,,,,,,,2,6.148355,,0,1,111,261,68,1,stimuli/stim_20210407_power2amp/equal_lnn_AM3Hz_88.m4a,,,
,,,,,,,,,,,,41110,2021-05-04_20h00.40.572,judgeSpeechMusic_20210407_logNormShiftAmp,2020.1.2,MacIntel,60,,,,,,,,,,,,,,2,5.695865,,0,1,112,262,92,1,stimuli/stim_20210407_power2amp/equal_lnn_AM4.2Hz_21.m4a,,,
,,,,,,,,,,,,41110,2021-05-04_20h00.40.572,judgeSpeechMusic_20210407_logNormShiftAmp,2020.1.2,MacIntel,60,,,,,,,,,,,,,,2,11.165195,,0,1,113,263,16,1,stimuli/stim_20210407_power2amp/equal_lnn_AM1.2Hz_58.m4a,,,
,,,,,,,,,,,,41110,2021-05-04_20h00.40.572,judgeSpeechMusic_20210407_logNormShiftAmp,2020.1.2,MacIntel,60,,,,,,,,,,,,,,2,5.662775,1,1,1,114,264,102,1,stimuli/stim_20210407_power2amp/equal_lnn_AM4.2Hz_44.m4a,1.545415,,
,,,,,,,,,,,,41110,2021-05-04_20h00.40.572,judgeSpeechMusic_20210407_logNormShiftAmp,2020.1.2,MacIntel,60,,,,,,,,,,,,,,2,6.44669,,0,1,115,265,104,1,stimuli/stim_20210407_power2amp/equal_lnn_AM4.2Hz_73.m4a,,,
,,,,,,,,,,,,41110,2021-05-04_20h00.40.572,judgeSpeechMusic_20210407_logNormShiftAmp,2020.1.2,MacIntel,60,,,,,,,,,,,,,,2,6.594365,,0,1,116,266,122,1,stimuli/stim_20210407_power2amp/equal_lnn_AM5.4Hz_44.m4a,,,
,,,,,,,,,,,,41110,2021-05-04_20h00.40.572,judgeSpeechMusic_20210407_logNormShiftAmp,2020.1.2,MacIntel,60,,,,,,,,,,,,,,1,5.813395,,0,1,117,267,133,1,stimuli/stim_20210407_power2amp/equal_lnn_AM5.4Hz_79.m4a,,,
,,,,,,,,,,,,41110,2021-05-04_20h00.40.572,judgeSpeechMusic_20210407_logNormShiftAmp,2020.1.2,MacIntel,60,,,,,,,,,,,,,,2,5.9472,,0,1,118,268,110,1,stimuli/stim_20210407_power2amp/equal_lnn_AM4.8Hz_7.m4a,,,
,,,,,,,,,,,,41110,2021-05-04_20h00.40.572,judgeSpeechMusic_20210407_logNormShiftAmp,2020.1.2,MacIntel,60,,,,,,,,,,,,,,1,6.029545,,0,1,119,269,70,1,stimuli/stim_20210407_power2amp/equal_lnn_AM3Hz_59.m4a,,,
,,,,,,,,,,,,41110,2021-05-04_20h00.40.572,judgeSpeechMusic_20210407_logNormShiftAmp,2020.1.2,MacIntel,60,,,,,,,,,,,,,,2,5.60188,,0,1,120,270,139,1,stimuli/stim_20210407_power2amp/equal_lnn_AM6Hz_11.m4a,,,
,,,,,,,,,,,,41110,2021-05-04_20h00.40.572,judgeSpeechMusic_20210407_logNormShiftAmp,2020.1.2,MacIntel,60,,,,,,,,,,,,,,2,5.3126,,0,1,121,271,62,1,stimuli/stim_20210407_power2amp/equal_lnn_AM3Hz_22.m4a,,,
,,,,,,,,,,,,41110,2021-05-04_20h00.40.572,judgeSpeechMusic_20210407_logNormShiftAmp,2020.1.2,MacIntel,60,,,,,,,,,,,,,,2,5.628495,,0,1,122,272,79,1,stimuli/stim_20210407_power2amp/equal_lnn_AM3.6Hz_80.m4a,,,
,,,,,,,,,,,,41110,2021-05-04_20h00.40.572,judgeSpeechMusic_20210407_logNormShiftAmp,2020.1.2,MacIntel,60,,,,,,,,,,,,,,2,5.551165,,0,1,123,273,128,1,stimuli/stim_20210407_power2amp/equal_lnn_AM5.4Hz_82.m4a,,,
,,,,,,,,,,,,41110,2021-05-04_20h00.40.572,judgeSpeechMusic_20210407_logNormShiftAmp,2020.1.2,MacIntel,60,,,,,,,,,,,,,,1,5.846355,,0,1,124,274,74,1,stimuli/stim_20210407_power2amp/equal_lnn_AM3Hz_32.m4a,,,
,,,,,,,,,,,,41110,2021-05-04_20h00.40.572,judgeSpeechMusic_20210407_logNormShiftAmp,2020.1.2,MacIntel,60,,,,,,,,,,,,,,1,7.06852,,0,1,125,275,35,1,stimuli/stim_20210407_power2amp/equal_lnn_AM1.8Hz_52.m4a,,,
,,,,,,,,,,,,41110,2021-05-04_20h00.40.572,judgeSpeechMusic_20210407_logNormShiftAmp,2020.1.2,MacIntel,60,,,,,,,,,,,,,,1,5.54665,,0,1,126,276,1,1,stimuli/stim_20210407_power2amp/equal_lnn_AM0.6Hz_91.m4a,,,
,,,,,,,,,,,,41110,2021-05-04_20h00.40.572,judgeSpeechMusic_20210407_logNormShiftAmp,2020.1.2,MacIntel,60,,,,,,,,,,,,,,1,5.64673,,0,1,127,277,141,1,stimuli/stim_20210407_power2amp/equal_lnn_AM6Hz_60.m4a,,,
,,,,,,,,,,,,41110,2021-05-04_20h00.40.572,judgeSpeechMusic_20210407_logNormShiftAmp,2020.1.2,MacIntel,60,,,,,,,,,,,,,,2,5.7135,,0,1,128,278,121,1,stimuli/stim_20210407_power2amp/equal_lnn_AM5.4Hz_39.m4a,,,
,,,,,,,,,,,,41110,2021-05-04_20h00.40.572,judgeSpeechMusic_20210407_logNormShiftAmp,2020.1.2,MacIntel,60,,,,,,,,,,,,,,2,6.26353,,0,1,129,279,134,1,stimuli/stim_20210407_power2amp/equal_lnn_AM5.4Hz_95.m4a,,,
,,,,,,,,,,,,41110,2021-05-04_20h00.40.572,judgeSpeechMusic_20210407_logNormShiftAmp,2020.1.2,MacIntel,60,,,,,,,,,,,,,,1,5.645395,,0,1,130,280,96,1,stimuli/stim_20210407_power2amp/equal_lnn_AM4.2Hz_49.m4a,,,
,,,,,,,,,,,,41110,2021-05-04_20h00.40.572,judgeSpeechMusic_20210407_logNormShiftAmp,2020.1.2,MacIntel,60,,,,,,,,,,,,,,1,5.630295,,0,1,131,281,83,1,stimuli/stim_20210407_power2amp/equal_lnn_AM3.6Hz_72.m4a,,,
,,,,,,,,,,,,41110,2021-05-04_20h00.40.572,judgeSpeechMusic_20210407_logNormShiftAmp,2020.1.2,MacIntel,60,,,,,,,,,,,,,,1,5.61735,,0,1,132,282,11,1,stimuli/stim_20210407_power2amp/equal_lnn_AM0.6Hz_45.m4a,,,
,,,,,,,,,,,,41110,2021-05-04_20h00.40.572,judgeSpeechMusic_20210407_logNormShiftAmp,2020.1.2,MacIntel,60,,,,,,,,,,,,,,2,5.579255,,0,1,133,283,103,1,stimuli/stim_20210407_power2amp/equal_lnn_AM4.2Hz_88.m4a,,,
,,,,,,,,,,,,41110,2021-05-04_20h00.40.572,judgeSpeechMusic_20210407_logNormShiftAmp,2020.1.2,MacIntel,60,,,,,,,,,,,,,,2,5.51235,,0,1,134,284,143,1,stimuli/stim_20210407_power2amp/equal_lnn_AM6Hz_79.m4a,,,
,,,,,,,,,,,,41110,2021-05-04_20h00.40.572,judgeSpeechMusic_20210407_logNormShiftAmp,2020.1.2,MacIntel,60,,,,,,,,,,,,,,1,5.579765,,0,1,135,285,6,1,stimuli/stim_20210407_power2amp/equal_lnn_AM0.6Hz_66.m4a,,,
,,,,,,,,,,,,41110,2021-05-04_20h00.40.572,judgeSpeechMusic_20210407_logNormShiftAmp,2020.1.2,MacIntel,60,,,,,,,,,,,,,,2,6.780275,,0,1,136,286,75,1,stimuli/stim_20210407_power2amp/equal_lnn_AM3.6Hz_19.m4a,,,
,,,,,,,,,,,,41110,2021-05-04_20h00.40.572,judgeSpeechMusic_20210407_logNormShiftAmp,2020.1.2,MacIntel,60,,,,,,,,,,,,,,1,6.39588,,0,1,137,287,64,1,stimuli/stim_20210407_power2amp/equal_lnn_AM3Hz_64.m4a,,,
,,,,,,,,,,,,41110,2021-05-04_20h00.40.572,judgeSpeechMusic_20210407_logNormShiftAmp,2020.1.2,MacIntel,60,,,,,,,,,,,,,,2,6.6666,,0,1,138,288,82,1,stimuli/stim_20210407_power2amp/equal_lnn_AM3.6Hz_20.m4a,,,
,,,,,,,,,,,,41110,2021-05-04_20h00.40.572,judgeSpeechMusic_20210407_logNormShiftAmp,2020.1.2,MacIntel,60,,,,,,,,,,,,,,2,5.497885,1,1,1,139,289,118,1,stimuli/stim_20210407_power2amp/equal_lnn_AM4.8Hz_18.m4a,0.981525,,
,,,,,,,,,,,,41110,2021-05-04_20h00.40.572,judgeSpeechMusic_20210407_logNormShiftAmp,2020.1.2,MacIntel,60,,,,,,,,,,,,,,1,5.72986,,0,1,140,290,27,1,stimuli/stim_20210407_power2amp/equal_lnn_AM1.2Hz_10.m4a,,,
,,,,,,,,,,,,41110,2021-05-04_20h00.40.572,judgeSpeechMusic_20210407_logNormShiftAmp,2020.1.2,MacIntel,60,,,,,,,,,,,,,,1,5.74847,,0,1,141,291,28,1,stimuli/stim_20210407_power2amp/equal_lnn_AM1.2Hz_7.m4a,,,
,,,,,,,,,,,,41110,2021-05-04_20h00.40.572,judgeSpeechMusic_20210407_logNormShiftAmp,2020.1.2,MacIntel,60,,,,,,,,,,,,,,2,5.697845,,0,1,142,292,73,1,stimuli/stim_20210407_power2amp/equal_lnn_AM3Hz_68.m4a,,,
,,,,,,,,,,,,41110,2021-05-04_20h00.40.572,judgeSpeechMusic_20210407_logNormShiftAmp,2020.1.2,MacIntel,60,,,,,,,,,,,,,,1,6.18149,,0,1,143,293,24,1,stimuli/stim_20210407_power2amp/equal_lnn_AM1.2Hz_6.m4a,,,
,,,,,,,,,,,,41110,2021-05-04_20h00.40.572,judgeSpeechMusic_20210407_logNormShiftAmp,2020.1.2,MacIntel,60,,,,,,,,,,,,,,1,5.946595,,0,1,144,294,22,1,stimuli/stim_20210407_power2amp/equal_lnn_AM1.2Hz_43.m4a,,,
,,,,,,,,,,,,41110,2021-05-04_20h00.40.572,judgeSpeechMusic_20210407_logNormShiftAmp,2020.1.2,MacIntel,60,,,,,,,,,,,,,,2,5.883445,,0,1,145,295,54,1,stimuli/stim_20210407_power2amp/equal_lnn_AM2.4Hz_15.m4a,,,
,,,,,,,,,,,,41110,2021-05-04_20h00.40.572,judgeSpeechMusic_20210407_logNormShiftAmp,2020.1.2,MacIntel,60,,,,,,,,,,,,,,2,6.632335,,0,1,146,296,111,1,stimuli/stim_20210407_power2amp/equal_lnn_AM4.8Hz_29.m4a,,,
,,,,,,,,,,,,41110,2021-05-04_20h00.40.572,judgeSpeechMusic_20210407_logNormShiftAmp,2020.1.2,MacIntel,60,,,,,,,,,,,,,,2,9.096635,,0,1,147,297,107,1,stimuli/stim_20210407_power2amp/equal_lnn_AM4.8Hz_74.m4a,,,
,,,,,,,,,,,,41110,2021-05-04_20h00.40.572,judgeSpeechMusic_20210407_logNormShiftAmp,2020.1.2,MacIntel,60,,,,,,,,,,,,,,2,6.21289,,0,1,148,298,125,1,stimuli/stim_20210407_power2amp/equal_lnn_AM5.4Hz_76.m4a,,,
,,,,,,,,,,,,41110,2021-05-04_20h00.40.572,judgeSpeechMusic_20210407_logNormShiftAmp,2020.1.2,MacIntel,60,,,,,,,,,,,,,,2,6.467865,,0,1,149,299,77,1,stimuli/stim_20210407_power2amp/equal_lnn_AM3.6Hz_85.m4a,,,
,,,,,,,,,,,,41110,2021-05-04_20h00.40.572,judgeSpeechMusic_20210407_logNormShiftAmp,2020.1.2,MacIntel,60,,,,,,,,,,,,,,,,,,,,,,,,,space,11.37469
