headphoneResponse.keys,headphoneResponse.corr,headphoneResponse.rt,headphoneTrial.thisRepN,headphoneTrial.thisTrialN,headphoneTrial.thisN,headphoneTrial.thisIndex,headphoneTrial.ran,headphone_sound1,headphone_sound2,headphone_sound3,corrAns,participant,date,expName,psychopyVersion,OS,frameRate,trainSlider.response,trainSlider.rt,beepTrainResponse.keys,beepTrainResponse.corr,trainingTrials.thisRepN,trainingTrials.thisTrialN,trainingTrials.thisN,trainingTrials.thisIndex,trainingTrials.ran,trainAudioFile,beepTrainResponse.rt,readyReal_resp.keys,readyReal_resp.rt,ratingSlider.response,ratingSlider.rt,beepResp.keys,beepResp.corr,expTrials.thisRepN,expTrials.thisTrialN,expTrials.thisN,expTrials.thisIndex,expTrials.ran,audioFile,beepResp.rt,end_resp.keys,end_resp.rt
1,1,0.42334,0,0,0,5,1,stimuli/screen_quiet.wav,stimuli/screen_origin.wav,stimuli/screen_antiphase.wav,1,41121,2021-04-23_09h40.22.059,judgeSpeechMusic_20210407_logNormShiftAmp,2020.1.2,MacIntel,60,,,,,,,,,,,,,,,,,,,,,,,,,,
3,1,0.335595,0,1,1,2,1,stimuli/screen_origin.wav,stimuli/screen_antiphase.wav,stimuli/screen_quiet.wav,3,41121,2021-04-23_09h40.22.059,judgeSpeechMusic_20210407_logNormShiftAmp,2020.1.2,MacIntel,60,,,,,,,,,,,,,,,,,,,,,,,,,,
2,1,0.29624,0,2,2,3,1,stimuli/screen_origin.wav,stimuli/screen_quiet.wav,stimuli/screen_antiphase.wav,2,41121,2021-04-23_09h40.22.059,judgeSpeechMusic_20210407_logNormShiftAmp,2020.1.2,MacIntel,60,,,,,,,,,,,,,,,,,,,,,,,,,,
2,1,0.45418,0,3,3,1,1,stimuli/screen_antiphase.wav,stimuli/screen_quiet.wav,stimuli/screen_origin.wav,2,41121,2021-04-23_09h40.22.059,judgeSpeechMusic_20210407_logNormShiftAmp,2020.1.2,MacIntel,60,,,,,,,,,,,,,,,,,,,,,,,,,,
1,1,0.37236,0,4,4,4,1,stimuli/screen_quiet.wav,stimuli/screen_antiphase.wav,stimuli/screen_origin.wav,1,41121,2021-04-23_09h40.22.059,judgeSpeechMusic_20210407_logNormShiftAmp,2020.1.2,MacIntel,60,,,,,,,,,,,,,,,,,,,,,,,,,,
3,1,0.5375,0,5,5,0,1,stimuli/screen_antiphase.wav,stimuli/screen_origin.wav,stimuli/screen_quiet.wav,3,41121,2021-04-23_09h40.22.059,judgeSpeechMusic_20210407_logNormShiftAmp,2020.1.2,MacIntel,60,,,,,,,,,,,,,,,,,,,,,,,,,,
,,,,,,,,,,,,41121,2021-04-23_09h40.22.059,judgeSpeechMusic_20210407_logNormShiftAmp,2020.1.2,MacIntel,60,1,15.93875,,0,0,0,0,1,1,stimuli/stim_20210407_power2amp/equal_lnn_AM_training2.7Hz.m4a,,,,,,,,,,,,,,,,
,,,,,,,,,,,,41121,2021-04-23_09h40.22.059,judgeSpeechMusic_20210407_logNormShiftAmp,2020.1.2,MacIntel,60,2,6.35463,,0,0,1,1,0,1,stimuli/stim_20210407_power2amp/equal_lnn_AM_training1.5Hz.m4a,,,,,,,,,,,,,,,,
,,,,,,,,,,,,41121,2021-04-23_09h40.22.059,judgeSpeechMusic_20210407_logNormShiftAmp,2020.1.2,MacIntel,60,1,6.395045,3,1,0,2,2,2,1,stimuli/stim_20210407_power2amp/equal_lnn_AM_training3.9Hz.m4a,1.691825,,,,,,,,,,,,,,,
,,,,,,,,,,,,41121,2021-04-23_09h40.22.059,judgeSpeechMusic_20210407_logNormShiftAmp,2020.1.2,MacIntel,60,1,6.139195,,0,0,3,3,3,1,stimuli/stim_20210407_power2amp/equal_lnn_AM_training5.1Hz.m4a,,,,,,,,,,,,,,,,
,,,,,,,,,,,,41121,2021-04-23_09h40.22.059,judgeSpeechMusic_20210407_logNormShiftAmp,2020.1.2,MacIntel,60,,,,,,,,,,,,space,6.861845,1,7.580125,,0,0,0,0,89,1,stimuli/stim_20210407_power2amp/equal_lnn_AM3.6Hz_10.m4a,,,
,,,,,,,,,,,,41121,2021-04-23_09h40.22.059,judgeSpeechMusic_20210407_logNormShiftAmp,2020.1.2,MacIntel,60,,,,,,,,,,,,,,1,6.322885,,0,0,1,1,119,1,stimuli/stim_20210407_power2amp/equal_lnn_AM4.8Hz_20.m4a,,,
,,,,,,,,,,,,41121,2021-04-23_09h40.22.059,judgeSpeechMusic_20210407_logNormShiftAmp,2020.1.2,MacIntel,60,,,,,,,,,,,,,,2,6.440375,,0,0,2,2,15,1,stimuli/stim_20210407_power2amp/equal_lnn_AM1.2Hz_87.m4a,,,
,,,,,,,,,,,,41121,2021-04-23_09h40.22.059,judgeSpeechMusic_20210407_logNormShiftAmp,2020.1.2,MacIntel,60,,,,,,,,,,,,,,1,6.19459,,0,0,3,3,110,1,stimuli/stim_20210407_power2amp/equal_lnn_AM4.8Hz_31.m4a,,,
,,,,,,,,,,,,41121,2021-04-23_09h40.22.059,judgeSpeechMusic_20210407_logNormShiftAmp,2020.1.2,MacIntel,60,,,,,,,,,,,,,,2,6.2359,,0,0,4,4,45,1,stimuli/stim_20210407_power2amp/equal_lnn_AM2.4Hz_95.m4a,,,
,,,,,,,,,,,,41121,2021-04-23_09h40.22.059,judgeSpeechMusic_20210407_logNormShiftAmp,2020.1.2,MacIntel,60,,,,,,,,,,,,,,2,6.45929,,0,0,5,5,48,1,stimuli/stim_20210407_power2amp/equal_lnn_AM2.4Hz_28.m4a,,,
,,,,,,,,,,,,41121,2021-04-23_09h40.22.059,judgeSpeechMusic_20210407_logNormShiftAmp,2020.1.2,MacIntel,60,,,,,,,,,,,,,,1,8.525975,,0,0,6,6,87,1,stimuli/stim_20210407_power2amp/equal_lnn_AM3.6Hz_91.m4a,,,
,,,,,,,,,,,,41121,2021-04-23_09h40.22.059,judgeSpeechMusic_20210407_logNormShiftAmp,2020.1.2,MacIntel,60,,,,,,,,,,,,,,1,61.890725,,0,0,7,7,26,1,stimuli/stim_20210407_power2amp/equal_lnn_AM1.2Hz_30.m4a,,,
,,,,,,,,,,,,41121,2021-04-23_09h40.22.059,judgeSpeechMusic_20210407_logNormShiftAmp,2020.1.2,MacIntel,60,,,,,,,,,,,,,,1,6.058885,,0,0,8,8,51,1,stimuli/stim_20210407_power2amp/equal_lnn_AM2.4Hz_34.m4a,,,
,,,,,,,,,,,,41121,2021-04-23_09h40.22.059,judgeSpeechMusic_20210407_logNormShiftAmp,2020.1.2,MacIntel,60,,,,,,,,,,,,,,2,6.405965,,0,0,9,9,17,1,stimuli/stim_20210407_power2amp/equal_lnn_AM1.2Hz_54.m4a,,,
,,,,,,,,,,,,41121,2021-04-23_09h40.22.059,judgeSpeechMusic_20210407_logNormShiftAmp,2020.1.2,MacIntel,60,,,,,,,,,,,,,,1,7.271095,,0,0,10,10,79,1,stimuli/stim_20210407_power2amp/equal_lnn_AM3.6Hz_55.m4a,,,
,,,,,,,,,,,,41121,2021-04-23_09h40.22.059,judgeSpeechMusic_20210407_logNormShiftAmp,2020.1.2,MacIntel,60,,,,,,,,,,,,,,1,12.08851,,0,0,11,11,13,1,stimuli/stim_20210407_power2amp/equal_lnn_AM0.6Hz_73.m4a,,,
,,,,,,,,,,,,41121,2021-04-23_09h40.22.059,judgeSpeechMusic_20210407_logNormShiftAmp,2020.1.2,MacIntel,60,,,,,,,,,,,,,,2,8.574675,,0,0,12,12,39,1,stimuli/stim_20210407_power2amp/equal_lnn_AM1.8Hz_88.m4a,,,
,,,,,,,,,,,,41121,2021-04-23_09h40.22.059,judgeSpeechMusic_20210407_logNormShiftAmp,2020.1.2,MacIntel,60,,,,,,,,,,,,,,1,6.63654,,0,0,13,13,74,1,stimuli/stim_20210407_power2amp/equal_lnn_AM3Hz_89.m4a,,,
,,,,,,,,,,,,41121,2021-04-23_09h40.22.059,judgeSpeechMusic_20210407_logNormShiftAmp,2020.1.2,MacIntel,60,,,,,,,,,,,,,,1,12.411565,,0,0,14,14,2,1,stimuli/stim_20210407_power2amp/equal_lnn_AM0.6Hz_63.m4a,,,
,,,,,,,,,,,,41121,2021-04-23_09h40.22.059,judgeSpeechMusic_20210407_logNormShiftAmp,2020.1.2,MacIntel,60,,,,,,,,,,,,,,1,9.45649,,0,0,15,15,56,1,stimuli/stim_20210407_power2amp/equal_lnn_AM2.4Hz_64.m4a,,,
,,,,,,,,,,,,41121,2021-04-23_09h40.22.059,judgeSpeechMusic_20210407_logNormShiftAmp,2020.1.2,MacIntel,60,,,,,,,,,,,,,,2,6.440005,,0,0,16,16,33,1,stimuli/stim_20210407_power2amp/equal_lnn_AM1.8Hz_89.m4a,,,
,,,,,,,,,,,,41121,2021-04-23_09h40.22.059,judgeSpeechMusic_20210407_logNormShiftAmp,2020.1.2,MacIntel,60,,,,,,,,,,,,,,1,7.644125,,0,0,17,17,18,1,stimuli/stim_20210407_power2amp/equal_lnn_AM1.2Hz_83.m4a,,,
,,,,,,,,,,,,41121,2021-04-23_09h40.22.059,judgeSpeechMusic_20210407_logNormShiftAmp,2020.1.2,MacIntel,60,,,,,,,,,,,,,,1,7.30657,,0,0,18,18,123,1,stimuli/stim_20210407_power2amp/equal_lnn_AM5.4Hz_83.m4a,,,
,,,,,,,,,,,,41121,2021-04-23_09h40.22.059,judgeSpeechMusic_20210407_logNormShiftAmp,2020.1.2,MacIntel,60,,,,,,,,,,,,,,1,6.558935,,0,0,19,19,141,1,stimuli/stim_20210407_power2amp/equal_lnn_AM6Hz_57.m4a,,,
,,,,,,,,,,,,41121,2021-04-23_09h40.22.059,judgeSpeechMusic_20210407_logNormShiftAmp,2020.1.2,MacIntel,60,,,,,,,,,,,,,,2,6.32695,,0,0,20,20,4,1,stimuli/stim_20210407_power2amp/equal_lnn_AM0.6Hz_45.m4a,,,
,,,,,,,,,,,,41121,2021-04-23_09h40.22.059,judgeSpeechMusic_20210407_logNormShiftAmp,2020.1.2,MacIntel,60,,,,,,,,,,,,,,1,17.70099,,0,0,21,21,97,1,stimuli/stim_20210407_power2amp/equal_lnn_AM4.2Hz_28.m4a,,,
,,,,,,,,,,,,41121,2021-04-23_09h40.22.059,judgeSpeechMusic_20210407_logNormShiftAmp,2020.1.2,MacIntel,60,,,,,,,,,,,,,,2,7.97163,,0,0,22,22,31,1,stimuli/stim_20210407_power2amp/equal_lnn_AM1.8Hz_58.m4a,,,
,,,,,,,,,,,,41121,2021-04-23_09h40.22.059,judgeSpeechMusic_20210407_logNormShiftAmp,2020.1.2,MacIntel,60,,,,,,,,,,,,,,1,8.544515,,0,0,23,23,114,1,stimuli/stim_20210407_power2amp/equal_lnn_AM4.8Hz_65.m4a,,,
,,,,,,,,,,,,41121,2021-04-23_09h40.22.059,judgeSpeechMusic_20210407_logNormShiftAmp,2020.1.2,MacIntel,60,,,,,,,,,,,,,,2,6.79112,,0,0,24,24,131,1,stimuli/stim_20210407_power2amp/equal_lnn_AM5.4Hz_34.m4a,,,
,,,,,,,,,,,,41121,2021-04-23_09h40.22.059,judgeSpeechMusic_20210407_logNormShiftAmp,2020.1.2,MacIntel,60,,,,,,,,,,,,,,1,10.49683,,0,0,25,25,27,1,stimuli/stim_20210407_power2amp/equal_lnn_AM1.2Hz_61.m4a,,,
,,,,,,,,,,,,41121,2021-04-23_09h40.22.059,judgeSpeechMusic_20210407_logNormShiftAmp,2020.1.2,MacIntel,60,,,,,,,,,,,,,,1,8.58982,,0,0,26,26,55,1,stimuli/stim_20210407_power2amp/equal_lnn_AM2.4Hz_72.m4a,,,
,,,,,,,,,,,,41121,2021-04-23_09h40.22.059,judgeSpeechMusic_20210407_logNormShiftAmp,2020.1.2,MacIntel,60,,,,,,,,,,,,,,2,10.69315,,0,0,27,27,92,1,stimuli/stim_20210407_power2amp/equal_lnn_AM4.2Hz_53.m4a,,,
,,,,,,,,,,,,41121,2021-04-23_09h40.22.059,judgeSpeechMusic_20210407_logNormShiftAmp,2020.1.2,MacIntel,60,,,,,,,,,,,,,,1,6.11951,,0,0,28,28,148,1,stimuli/stim_20210407_power2amp/equal_lnn_AM6Hz_36.m4a,,,
,,,,,,,,,,,,41121,2021-04-23_09h40.22.059,judgeSpeechMusic_20210407_logNormShiftAmp,2020.1.2,MacIntel,60,,,,,,,,,,,,,,1,16.823875,,0,0,29,29,124,1,stimuli/stim_20210407_power2amp/equal_lnn_AM5.4Hz_54.m4a,,,
,,,,,,,,,,,,41121,2021-04-23_09h40.22.059,judgeSpeechMusic_20210407_logNormShiftAmp,2020.1.2,MacIntel,60,,,,,,,,,,,,,,1,7.707,,0,0,30,30,101,1,stimuli/stim_20210407_power2amp/equal_lnn_AM4.2Hz_29.m4a,,,
,,,,,,,,,,,,41121,2021-04-23_09h40.22.059,judgeSpeechMusic_20210407_logNormShiftAmp,2020.1.2,MacIntel,60,,,,,,,,,,,,,,1,12.14156,,0,0,31,31,70,1,stimuli/stim_20210407_power2amp/equal_lnn_AM3Hz_85.m4a,,,
,,,,,,,,,,,,41121,2021-04-23_09h40.22.059,judgeSpeechMusic_20210407_logNormShiftAmp,2020.1.2,MacIntel,60,,,,,,,,,,,,,,2,7.15665,,0,0,32,32,120,1,stimuli/stim_20210407_power2amp/equal_lnn_AM5.4Hz_66.m4a,,,
,,,,,,,,,,,,41121,2021-04-23_09h40.22.059,judgeSpeechMusic_20210407_logNormShiftAmp,2020.1.2,MacIntel,60,,,,,,,,,,,,,,2,6.325765,,0,0,33,33,88,1,stimuli/stim_20210407_power2amp/equal_lnn_AM3.6Hz_76.m4a,,,
,,,,,,,,,,,,41121,2021-04-23_09h40.22.059,judgeSpeechMusic_20210407_logNormShiftAmp,2020.1.2,MacIntel,60,,,,,,,,,,,,,,2,5.889505,1,1,0,34,34,73,1,stimuli/stim_20210407_power2amp/equal_lnn_AM3Hz_96.m4a,1.37651,,
,,,,,,,,,,,,41121,2021-04-23_09h40.22.059,judgeSpeechMusic_20210407_logNormShiftAmp,2020.1.2,MacIntel,60,,,,,,,,,,,,,,1,5.78926,,0,0,35,35,132,1,stimuli/stim_20210407_power2amp/equal_lnn_AM5.4Hz_75.m4a,,,
,,,,,,,,,,,,41121,2021-04-23_09h40.22.059,judgeSpeechMusic_20210407_logNormShiftAmp,2020.1.2,MacIntel,60,,,,,,,,,,,,,,2,7.153845,,0,0,36,36,23,1,stimuli/stim_20210407_power2amp/equal_lnn_AM1.2Hz_82.m4a,,,
,,,,,,,,,,,,41121,2021-04-23_09h40.22.059,judgeSpeechMusic_20210407_logNormShiftAmp,2020.1.2,MacIntel,60,,,,,,,,,,,,,,2,15.47054,,0,0,37,37,11,1,stimuli/stim_20210407_power2amp/equal_lnn_AM0.6Hz_43.m4a,,,
,,,,,,,,,,,,41121,2021-04-23_09h40.22.059,judgeSpeechMusic_20210407_logNormShiftAmp,2020.1.2,MacIntel,60,,,,,,,,,,,,,,2,10.556245,,0,0,38,38,38,1,stimuli/stim_20210407_power2amp/equal_lnn_AM1.8Hz_44.m4a,,,
,,,,,,,,,,,,41121,2021-04-23_09h40.22.059,judgeSpeechMusic_20210407_logNormShiftAmp,2020.1.2,MacIntel,60,,,,,,,,,,,,,,2,7.69018,,0,0,39,39,136,1,stimuli/stim_20210407_power2amp/equal_lnn_AM6Hz_65.m4a,,,
,,,,,,,,,,,,41121,2021-04-23_09h40.22.059,judgeSpeechMusic_20210407_logNormShiftAmp,2020.1.2,MacIntel,60,,,,,,,,,,,,,,2,6.30704,,0,0,40,40,107,1,stimuli/stim_20210407_power2amp/equal_lnn_AM4.8Hz_93.m4a,,,
,,,,,,,,,,,,41121,2021-04-23_09h40.22.059,judgeSpeechMusic_20210407_logNormShiftAmp,2020.1.2,MacIntel,60,,,,,,,,,,,,,,1,6.20809,,0,0,41,41,35,1,stimuli/stim_20210407_power2amp/equal_lnn_AM1.8Hz_19.m4a,,,
,,,,,,,,,,,,41121,2021-04-23_09h40.22.059,judgeSpeechMusic_20210407_logNormShiftAmp,2020.1.2,MacIntel,60,,,,,,,,,,,,,,1,13.09303,,0,0,42,42,28,1,stimuli/stim_20210407_power2amp/equal_lnn_AM1.2Hz_39.m4a,,,
,,,,,,,,,,,,41121,2021-04-23_09h40.22.059,judgeSpeechMusic_20210407_logNormShiftAmp,2020.1.2,MacIntel,60,,,,,,,,,,,,,,1,6.97208,,0,0,43,43,75,1,stimuli/stim_20210407_power2amp/equal_lnn_AM3.6Hz_42.m4a,,,
,,,,,,,,,,,,41121,2021-04-23_09h40.22.059,judgeSpeechMusic_20210407_logNormShiftAmp,2020.1.2,MacIntel,60,,,,,,,,,,,,,,2,5.85834,,0,0,44,44,16,1,stimuli/stim_20210407_power2amp/equal_lnn_AM1.2Hz_34.m4a,,,
,,,,,,,,,,,,41121,2021-04-23_09h40.22.059,judgeSpeechMusic_20210407_logNormShiftAmp,2020.1.2,MacIntel,60,,,,,,,,,,,,,,1,10.56262,,0,0,45,45,99,1,stimuli/stim_20210407_power2amp/equal_lnn_AM4.2Hz_2.m4a,,,
,,,,,,,,,,,,41121,2021-04-23_09h40.22.059,judgeSpeechMusic_20210407_logNormShiftAmp,2020.1.2,MacIntel,60,,,,,,,,,,,,,,1,7.22581,,0,0,46,46,113,1,stimuli/stim_20210407_power2amp/equal_lnn_AM4.8Hz_95.m4a,,,
,,,,,,,,,,,,41121,2021-04-23_09h40.22.059,judgeSpeechMusic_20210407_logNormShiftAmp,2020.1.2,MacIntel,60,,,,,,,,,,,,,,1,6.324885,,0,0,47,47,5,1,stimuli/stim_20210407_power2amp/equal_lnn_AM0.6Hz_83.m4a,,,
,,,,,,,,,,,,41121,2021-04-23_09h40.22.059,judgeSpeechMusic_20210407_logNormShiftAmp,2020.1.2,MacIntel,60,,,,,,,,,,,,,,1,11.858465,,0,0,48,48,69,1,stimuli/stim_20210407_power2amp/equal_lnn_AM3Hz_6.m4a,,,
,,,,,,,,,,,,41121,2021-04-23_09h40.22.059,judgeSpeechMusic_20210407_logNormShiftAmp,2020.1.2,MacIntel,60,,,,,,,,,,,,,,2,15.84052,,0,0,49,49,122,1,stimuli/stim_20210407_power2amp/equal_lnn_AM5.4Hz_79.m4a,,,
,,,,,,,,,,,,41121,2021-04-23_09h40.22.059,judgeSpeechMusic_20210407_logNormShiftAmp,2020.1.2,MacIntel,60,,,,,,,,,,,,,,2,7.612785,,0,0,50,50,146,1,stimuli/stim_20210407_power2amp/equal_lnn_AM6Hz_94.m4a,,,
,,,,,,,,,,,,41121,2021-04-23_09h40.22.059,judgeSpeechMusic_20210407_logNormShiftAmp,2020.1.2,MacIntel,60,,,,,,,,,,,,,,2,8.118575,,0,0,51,51,19,1,stimuli/stim_20210407_power2amp/equal_lnn_AM1.2Hz_66.m4a,,,
,,,,,,,,,,,,41121,2021-04-23_09h40.22.059,judgeSpeechMusic_20210407_logNormShiftAmp,2020.1.2,MacIntel,60,,,,,,,,,,,,,,1,10.309035,,0,0,52,52,149,1,stimuli/stim_20210407_power2amp/equal_lnn_AM6Hz_61.m4a,,,
,,,,,,,,,,,,41121,2021-04-23_09h40.22.059,judgeSpeechMusic_20210407_logNormShiftAmp,2020.1.2,MacIntel,60,,,,,,,,,,,,,,1,8.120795,,0,0,53,53,111,1,stimuli/stim_20210407_power2amp/equal_lnn_AM4.8Hz_2.m4a,,,
,,,,,,,,,,,,41121,2021-04-23_09h40.22.059,judgeSpeechMusic_20210407_logNormShiftAmp,2020.1.2,MacIntel,60,,,,,,,,,,,,,,2,39.522475,,0,0,54,54,64,1,stimuli/stim_20210407_power2amp/equal_lnn_AM3Hz_9.m4a,,,
,,,,,,,,,,,,41121,2021-04-23_09h40.22.059,judgeSpeechMusic_20210407_logNormShiftAmp,2020.1.2,MacIntel,60,,,,,,,,,,,,,,2,7.00541,,0,0,55,55,9,1,stimuli/stim_20210407_power2amp/equal_lnn_AM0.6Hz_68.m4a,,,
,,,,,,,,,,,,41121,2021-04-23_09h40.22.059,judgeSpeechMusic_20210407_logNormShiftAmp,2020.1.2,MacIntel,60,,,,,,,,,,,,,,1,24.156445,,0,0,56,56,29,1,stimuli/stim_20210407_power2amp/equal_lnn_AM1.2Hz_3.m4a,,,
,,,,,,,,,,,,41121,2021-04-23_09h40.22.059,judgeSpeechMusic_20210407_logNormShiftAmp,2020.1.2,MacIntel,60,,,,,,,,,,,,,,1,21.639105,,0,0,57,57,7,1,stimuli/stim_20210407_power2amp/equal_lnn_AM0.6Hz_86.m4a,,,
,,,,,,,,,,,,41121,2021-04-23_09h40.22.059,judgeSpeechMusic_20210407_logNormShiftAmp,2020.1.2,MacIntel,60,,,,,,,,,,,,,,2,33.505395,,0,0,58,58,37,1,stimuli/stim_20210407_power2amp/equal_lnn_AM1.8Hz_40.m4a,,,
,,,,,,,,,,,,41121,2021-04-23_09h40.22.059,judgeSpeechMusic_20210407_logNormShiftAmp,2020.1.2,MacIntel,60,,,,,,,,,,,,,,1,7.156805,2,1,0,59,59,85,1,stimuli/stim_20210407_power2amp/equal_lnn_AM3.6Hz_7.m4a,1.34514,,
,,,,,,,,,,,,41121,2021-04-23_09h40.22.059,judgeSpeechMusic_20210407_logNormShiftAmp,2020.1.2,MacIntel,60,,,,,,,,,,,,,,1,7.56217,,0,0,60,60,103,1,stimuli/stim_20210407_power2amp/equal_lnn_AM4.2Hz_3.m4a,,,
,,,,,,,,,,,,41121,2021-04-23_09h40.22.059,judgeSpeechMusic_20210407_logNormShiftAmp,2020.1.2,MacIntel,60,,,,,,,,,,,,,,2,7.522215,,0,0,61,61,42,1,stimuli/stim_20210407_power2amp/equal_lnn_AM1.8Hz_68.m4a,,,
,,,,,,,,,,,,41121,2021-04-23_09h40.22.059,judgeSpeechMusic_20210407_logNormShiftAmp,2020.1.2,MacIntel,60,,,,,,,,,,,,,,1,7.26347,,0,0,62,62,142,1,stimuli/stim_20210407_power2amp/equal_lnn_AM6Hz_24.m4a,,,
,,,,,,,,,,,,41121,2021-04-23_09h40.22.059,judgeSpeechMusic_20210407_logNormShiftAmp,2020.1.2,MacIntel,60,,,,,,,,,,,,,,2,12.809395,,0,0,63,63,12,1,stimuli/stim_20210407_power2amp/equal_lnn_AM0.6Hz_55.m4a,,,
,,,,,,,,,,,,41121,2021-04-23_09h40.22.059,judgeSpeechMusic_20210407_logNormShiftAmp,2020.1.2,MacIntel,60,,,,,,,,,,,,,,1,18.488585,,0,0,64,64,140,1,stimuli/stim_20210407_power2amp/equal_lnn_AM6Hz_63.m4a,,,
,,,,,,,,,,,,41121,2021-04-23_09h40.22.059,judgeSpeechMusic_20210407_logNormShiftAmp,2020.1.2,MacIntel,60,,,,,,,,,,,,,,1,7.6785,,0,0,65,65,14,1,stimuli/stim_20210407_power2amp/equal_lnn_AM0.6Hz_78.m4a,,,
,,,,,,,,,,,,41121,2021-04-23_09h40.22.059,judgeSpeechMusic_20210407_logNormShiftAmp,2020.1.2,MacIntel,60,,,,,,,,,,,,,,1,5.82107,,0,0,66,66,91,1,stimuli/stim_20210407_power2amp/equal_lnn_AM4.2Hz_61.m4a,,,
,,,,,,,,,,,,41121,2021-04-23_09h40.22.059,judgeSpeechMusic_20210407_logNormShiftAmp,2020.1.2,MacIntel,60,,,,,,,,,,,,,,2,6.543875,,0,0,67,67,46,1,stimuli/stim_20210407_power2amp/equal_lnn_AM2.4Hz_29.m4a,,,
,,,,,,,,,,,,41121,2021-04-23_09h40.22.059,judgeSpeechMusic_20210407_logNormShiftAmp,2020.1.2,MacIntel,60,,,,,,,,,,,,,,2,7.66039,,0,0,68,68,82,1,stimuli/stim_20210407_power2amp/equal_lnn_AM3.6Hz_63.m4a,,,
,,,,,,,,,,,,41121,2021-04-23_09h40.22.059,judgeSpeechMusic_20210407_logNormShiftAmp,2020.1.2,MacIntel,60,,,,,,,,,,,,,,2,11.552305,,0,0,69,69,62,1,stimuli/stim_20210407_power2amp/equal_lnn_AM3Hz_79.m4a,,,
,,,,,,,,,,,,41121,2021-04-23_09h40.22.059,judgeSpeechMusic_20210407_logNormShiftAmp,2020.1.2,MacIntel,60,,,,,,,,,,,,,,1,10.714165,,0,0,70,70,106,1,stimuli/stim_20210407_power2amp/equal_lnn_AM4.8Hz_81.m4a,,,
,,,,,,,,,,,,41121,2021-04-23_09h40.22.059,judgeSpeechMusic_20210407_logNormShiftAmp,2020.1.2,MacIntel,60,,,,,,,,,,,,,,1,15.79546,,0,0,71,71,22,1,stimuli/stim_20210407_power2amp/equal_lnn_AM1.2Hz_84.m4a,,,
,,,,,,,,,,,,41121,2021-04-23_09h40.22.059,judgeSpeechMusic_20210407_logNormShiftAmp,2020.1.2,MacIntel,60,,,,,,,,,,,,,,1,8.843895,,0,0,72,72,95,1,stimuli/stim_20210407_power2amp/equal_lnn_AM4.2Hz_36.m4a,,,
,,,,,,,,,,,,41121,2021-04-23_09h40.22.059,judgeSpeechMusic_20210407_logNormShiftAmp,2020.1.2,MacIntel,60,,,,,,,,,,,,,,2,5.992525,,0,0,73,73,98,1,stimuli/stim_20210407_power2amp/equal_lnn_AM4.2Hz_14.m4a,,,
,,,,,,,,,,,,41121,2021-04-23_09h40.22.059,judgeSpeechMusic_20210407_logNormShiftAmp,2020.1.2,MacIntel,60,,,,,,,,,,,,,,2,14.253755,,0,0,74,74,10,1,stimuli/stim_20210407_power2amp/equal_lnn_AM0.6Hz_22.m4a,,,
,,,,,,,,,,,,41121,2021-04-23_09h40.22.059,judgeSpeechMusic_20210407_logNormShiftAmp,2020.1.2,MacIntel,60,,,,,,,,,,,,,,1,7.16029,,0,0,75,75,49,1,stimuli/stim_20210407_power2amp/equal_lnn_AM2.4Hz_7.m4a,,,
,,,,,,,,,,,,41121,2021-04-23_09h40.22.059,judgeSpeechMusic_20210407_logNormShiftAmp,2020.1.2,MacIntel,60,,,,,,,,,,,,,,2,38.43798,,0,0,76,76,138,1,stimuli/stim_20210407_power2amp/equal_lnn_AM6Hz_14.m4a,,,
,,,,,,,,,,,,41121,2021-04-23_09h40.22.059,judgeSpeechMusic_20210407_logNormShiftAmp,2020.1.2,MacIntel,60,,,,,,,,,,,,,,1,17.688565,,0,0,77,77,68,1,stimuli/stim_20210407_power2amp/equal_lnn_AM3Hz_66.m4a,,,
,,,,,,,,,,,,41121,2021-04-23_09h40.22.059,judgeSpeechMusic_20210407_logNormShiftAmp,2020.1.2,MacIntel,60,,,,,,,,,,,,,,2,10.45507,,0,0,78,78,25,1,stimuli/stim_20210407_power2amp/equal_lnn_AM1.2Hz_51.m4a,,,
,,,,,,,,,,,,41121,2021-04-23_09h40.22.059,judgeSpeechMusic_20210407_logNormShiftAmp,2020.1.2,MacIntel,60,,,,,,,,,,,,,,1,7.746425,,0,0,79,79,118,1,stimuli/stim_20210407_power2amp/equal_lnn_AM4.8Hz_47.m4a,,,
,,,,,,,,,,,,41121,2021-04-23_09h40.22.059,judgeSpeechMusic_20210407_logNormShiftAmp,2020.1.2,MacIntel,60,,,,,,,,,,,,,,2,6.70739,,0,0,80,80,65,1,stimuli/stim_20210407_power2amp/equal_lnn_AM3Hz_59.m4a,,,
,,,,,,,,,,,,41121,2021-04-23_09h40.22.059,judgeSpeechMusic_20210407_logNormShiftAmp,2020.1.2,MacIntel,60,,,,,,,,,,,,,,1,6.905,,0,0,81,81,84,1,stimuli/stim_20210407_power2amp/equal_lnn_AM3.6Hz_86.m4a,,,
,,,,,,,,,,,,41121,2021-04-23_09h40.22.059,judgeSpeechMusic_20210407_logNormShiftAmp,2020.1.2,MacIntel,60,,,,,,,,,,,,,,1,6.006665,2,1,0,82,82,135,1,stimuli/stim_20210407_power2amp/equal_lnn_AM6Hz_93.m4a,1.275675,,
,,,,,,,,,,,,41121,2021-04-23_09h40.22.059,judgeSpeechMusic_20210407_logNormShiftAmp,2020.1.2,MacIntel,60,,,,,,,,,,,,,,1,30.12123,,0,0,83,83,43,1,stimuli/stim_20210407_power2amp/equal_lnn_AM1.8Hz_50.m4a,,,
,,,,,,,,,,,,41121,2021-04-23_09h40.22.059,judgeSpeechMusic_20210407_logNormShiftAmp,2020.1.2,MacIntel,60,,,,,,,,,,,,,,1,54.773155,,0,0,84,84,21,1,stimuli/stim_20210407_power2amp/equal_lnn_AM1.2Hz_96.m4a,,,
,,,,,,,,,,,,41121,2021-04-23_09h40.22.059,judgeSpeechMusic_20210407_logNormShiftAmp,2020.1.2,MacIntel,60,,,,,,,,,,,,,,1,8.06395,,0,0,85,85,36,1,stimuli/stim_20210407_power2amp/equal_lnn_AM1.8Hz_84.m4a,,,
,,,,,,,,,,,,41121,2021-04-23_09h40.22.059,judgeSpeechMusic_20210407_logNormShiftAmp,2020.1.2,MacIntel,60,,,,,,,,,,,,,,2,6.37223,,0,0,86,86,96,1,stimuli/stim_20210407_power2amp/equal_lnn_AM4.2Hz_76.m4a,,,
,,,,,,,,,,,,41121,2021-04-23_09h40.22.059,judgeSpeechMusic_20210407_logNormShiftAmp,2020.1.2,MacIntel,60,,,,,,,,,,,,,,1,6.35731,,0,0,87,87,90,1,stimuli/stim_20210407_power2amp/equal_lnn_AM4.2Hz_85.m4a,,,
,,,,,,,,,,,,41121,2021-04-23_09h40.22.059,judgeSpeechMusic_20210407_logNormShiftAmp,2020.1.2,MacIntel,60,,,,,,,,,,,,,,1,10.121455,,0,0,88,88,60,1,stimuli/stim_20210407_power2amp/equal_lnn_AM3Hz_42.m4a,,,
,,,,,,,,,,,,41121,2021-04-23_09h40.22.059,judgeSpeechMusic_20210407_logNormShiftAmp,2020.1.2,MacIntel,60,,,,,,,,,,,,,,1,29.838955,,0,0,89,89,8,1,stimuli/stim_20210407_power2amp/equal_lnn_AM0.6Hz_37.m4a,,,
,,,,,,,,,,,,41121,2021-04-23_09h40.22.059,judgeSpeechMusic_20210407_logNormShiftAmp,2020.1.2,MacIntel,60,,,,,,,,,,,,,,1,7.896485,,0,0,90,90,104,1,stimuli/stim_20210407_power2amp/equal_lnn_AM4.2Hz_48.m4a,,,
,,,,,,,,,,,,41121,2021-04-23_09h40.22.059,judgeSpeechMusic_20210407_logNormShiftAmp,2020.1.2,MacIntel,60,,,,,,,,,,,,,,2,8.830275,,0,0,91,91,1,1,stimuli/stim_20210407_power2amp/equal_lnn_AM0.6Hz_53.m4a,,,
,,,,,,,,,,,,41121,2021-04-23_09h40.22.059,judgeSpeechMusic_20210407_logNormShiftAmp,2020.1.2,MacIntel,60,,,,,,,,,,,,,,1,22.93679,,0,0,92,92,54,1,stimuli/stim_20210407_power2amp/equal_lnn_AM2.4Hz_23.m4a,,,
,,,,,,,,,,,,41121,2021-04-23_09h40.22.059,judgeSpeechMusic_20210407_logNormShiftAmp,2020.1.2,MacIntel,60,,,,,,,,,,,,,,1,8.85964,,0,0,93,93,133,1,stimuli/stim_20210407_power2amp/equal_lnn_AM5.4Hz_62.m4a,,,
,,,,,,,,,,,,41121,2021-04-23_09h40.22.059,judgeSpeechMusic_20210407_logNormShiftAmp,2020.1.2,MacIntel,60,,,,,,,,,,,,,,2,19.14067,,0,0,94,94,145,1,stimuli/stim_20210407_power2amp/equal_lnn_AM6Hz_1.m4a,,,
,,,,,,,,,,,,41121,2021-04-23_09h40.22.059,judgeSpeechMusic_20210407_logNormShiftAmp,2020.1.2,MacIntel,60,,,,,,,,,,,,,,2,30.760235,,0,0,95,95,76,1,stimuli/stim_20210407_power2amp/equal_lnn_AM3.6Hz_96.m4a,,,
,,,,,,,,,,,,41121,2021-04-23_09h40.22.059,judgeSpeechMusic_20210407_logNormShiftAmp,2020.1.2,MacIntel,60,,,,,,,,,,,,,,1,29.120045,,0,0,96,96,121,1,stimuli/stim_20210407_power2amp/equal_lnn_AM5.4Hz_60.m4a,,,
,,,,,,,,,,,,41121,2021-04-23_09h40.22.059,judgeSpeechMusic_20210407_logNormShiftAmp,2020.1.2,MacIntel,60,,,,,,,,,,,,,,2,7.22371,,0,0,97,97,20,1,stimuli/stim_20210407_power2amp/equal_lnn_AM1.2Hz_99.m4a,,,
,,,,,,,,,,,,41121,2021-04-23_09h40.22.059,judgeSpeechMusic_20210407_logNormShiftAmp,2020.1.2,MacIntel,60,,,,,,,,,,,,,,1,12.75819,,0,0,98,98,137,1,stimuli/stim_20210407_power2amp/equal_lnn_AM6Hz_34.m4a,,,
,,,,,,,,,,,,41121,2021-04-23_09h40.22.059,judgeSpeechMusic_20210407_logNormShiftAmp,2020.1.2,MacIntel,60,,,,,,,,,,,,,,2,13.073645,,0,0,99,99,50,1,stimuli/stim_20210407_power2amp/equal_lnn_AM2.4Hz_5.m4a,,,
,,,,,,,,,,,,41121,2021-04-23_09h40.22.059,judgeSpeechMusic_20210407_logNormShiftAmp,2020.1.2,MacIntel,60,,,,,,,,,,,,,,1,9.324255,,0,0,100,100,93,1,stimuli/stim_20210407_power2amp/equal_lnn_AM4.2Hz_24.m4a,,,
,,,,,,,,,,,,41121,2021-04-23_09h40.22.059,judgeSpeechMusic_20210407_logNormShiftAmp,2020.1.2,MacIntel,60,,,,,,,,,,,,,,1,15.261445,,0,0,101,101,147,1,stimuli/stim_20210407_power2amp/equal_lnn_AM6Hz_67.m4a,,,
,,,,,,,,,,,,41121,2021-04-23_09h40.22.059,judgeSpeechMusic_20210407_logNormShiftAmp,2020.1.2,MacIntel,60,,,,,,,,,,,,,,1,7.61336,,0,0,102,102,94,1,stimuli/stim_20210407_power2amp/equal_lnn_AM4.2Hz_91.m4a,,,
,,,,,,,,,,,,41121,2021-04-23_09h40.22.059,judgeSpeechMusic_20210407_logNormShiftAmp,2020.1.2,MacIntel,60,,,,,,,,,,,,,,1,6.310095,,0,0,103,103,144,1,stimuli/stim_20210407_power2amp/equal_lnn_AM6Hz_12.m4a,,,
,,,,,,,,,,,,41121,2021-04-23_09h40.22.059,judgeSpeechMusic_20210407_logNormShiftAmp,2020.1.2,MacIntel,60,,,,,,,,,,,,,,2,15.7389,,0,0,104,104,127,1,stimuli/stim_20210407_power2amp/equal_lnn_AM5.4Hz_59.m4a,,,
,,,,,,,,,,,,41121,2021-04-23_09h40.22.059,judgeSpeechMusic_20210407_logNormShiftAmp,2020.1.2,MacIntel,60,,,,,,,,,,,,,,1,11.475715,2,1,0,105,105,57,1,stimuli/stim_20210407_power2amp/equal_lnn_AM2.4Hz_62.m4a,1.12623,,
,,,,,,,,,,,,41121,2021-04-23_09h40.22.059,judgeSpeechMusic_20210407_logNormShiftAmp,2020.1.2,MacIntel,60,,,,,,,,,,,,,,1,34.771345,,0,0,106,106,143,1,stimuli/stim_20210407_power2amp/equal_lnn_AM6Hz_97.m4a,,,
,,,,,,,,,,,,41121,2021-04-23_09h40.22.059,judgeSpeechMusic_20210407_logNormShiftAmp,2020.1.2,MacIntel,60,,,,,,,,,,,,,,2,5.704195,,0,0,107,107,6,1,stimuli/stim_20210407_power2amp/equal_lnn_AM0.6Hz_18.m4a,,,
,,,,,,,,,,,,41121,2021-04-23_09h40.22.059,judgeSpeechMusic_20210407_logNormShiftAmp,2020.1.2,MacIntel,60,,,,,,,,,,,,,,2,16.92521,,0,0,108,108,58,1,stimuli/stim_20210407_power2amp/equal_lnn_AM2.4Hz_32.m4a,,,
,,,,,,,,,,,,41121,2021-04-23_09h40.22.059,judgeSpeechMusic_20210407_logNormShiftAmp,2020.1.2,MacIntel,60,,,,,,,,,,,,,,1,8.68856,,0,0,109,109,24,1,stimuli/stim_20210407_power2amp/equal_lnn_AM1.2Hz_40.m4a,,,
,,,,,,,,,,,,41121,2021-04-23_09h40.22.059,judgeSpeechMusic_20210407_logNormShiftAmp,2020.1.2,MacIntel,60,,,,,,,,,,,,,,2,11.04047,,0,0,110,110,61,1,stimuli/stim_20210407_power2amp/equal_lnn_AM3Hz_91.m4a,,,
,,,,,,,,,,,,41121,2021-04-23_09h40.22.059,judgeSpeechMusic_20210407_logNormShiftAmp,2020.1.2,MacIntel,60,,,,,,,,,,,,,,2,11.87055,,0,0,111,111,34,1,stimuli/stim_20210407_power2amp/equal_lnn_AM1.8Hz_81.m4a,,,
,,,,,,,,,,,,41121,2021-04-23_09h40.22.059,judgeSpeechMusic_20210407_logNormShiftAmp,2020.1.2,MacIntel,60,,,,,,,,,,,,,,2,7.276905,,0,0,112,112,32,1,stimuli/stim_20210407_power2amp/equal_lnn_AM1.8Hz_11.m4a,,,
,,,,,,,,,,,,41121,2021-04-23_09h40.22.059,judgeSpeechMusic_20210407_logNormShiftAmp,2020.1.2,MacIntel,60,,,,,,,,,,,,,,2,16.60709,,0,0,113,113,83,1,stimuli/stim_20210407_power2amp/equal_lnn_AM3.6Hz_2.m4a,,,
,,,,,,,,,,,,41121,2021-04-23_09h40.22.059,judgeSpeechMusic_20210407_logNormShiftAmp,2020.1.2,MacIntel,60,,,,,,,,,,,,,,2,8.490095,,0,0,114,114,109,1,stimuli/stim_20210407_power2amp/equal_lnn_AM4.8Hz_35.m4a,,,
,,,,,,,,,,,,41121,2021-04-23_09h40.22.059,judgeSpeechMusic_20210407_logNormShiftAmp,2020.1.2,MacIntel,60,,,,,,,,,,,,,,1,6.409335,,0,0,115,115,130,1,stimuli/stim_20210407_power2amp/equal_lnn_AM5.4Hz_55.m4a,,,
,,,,,,,,,,,,41121,2021-04-23_09h40.22.059,judgeSpeechMusic_20210407_logNormShiftAmp,2020.1.2,MacIntel,60,,,,,,,,,,,,,,1,38.00729,,0,0,116,116,80,1,stimuli/stim_20210407_power2amp/equal_lnn_AM3.6Hz_54.m4a,,,
,,,,,,,,,,,,41121,2021-04-23_09h40.22.059,judgeSpeechMusic_20210407_logNormShiftAmp,2020.1.2,MacIntel,60,,,,,,,,,,,,,,1,9.157685,,0,0,117,117,115,1,stimuli/stim_20210407_power2amp/equal_lnn_AM4.8Hz_99.m4a,,,
,,,,,,,,,,,,41121,2021-04-23_09h40.22.059,judgeSpeechMusic_20210407_logNormShiftAmp,2020.1.2,MacIntel,60,,,,,,,,,,,,,,2,7.42288,,0,0,118,118,71,1,stimuli/stim_20210407_power2amp/equal_lnn_AM3Hz_86.m4a,,,
,,,,,,,,,,,,41121,2021-04-23_09h40.22.059,judgeSpeechMusic_20210407_logNormShiftAmp,2020.1.2,MacIntel,60,,,,,,,,,,,,,,1,23.646735,,0,0,119,119,41,1,stimuli/stim_20210407_power2amp/equal_lnn_AM1.8Hz_97.m4a,,,
,,,,,,,,,,,,41121,2021-04-23_09h40.22.059,judgeSpeechMusic_20210407_logNormShiftAmp,2020.1.2,MacIntel,60,,,,,,,,,,,,,,1,9.67433,,0,0,120,120,112,1,stimuli/stim_20210407_power2amp/equal_lnn_AM4.8Hz_76.m4a,,,
,,,,,,,,,,,,41121,2021-04-23_09h40.22.059,judgeSpeechMusic_20210407_logNormShiftAmp,2020.1.2,MacIntel,60,,,,,,,,,,,,,,1,38.090075,,0,0,121,121,100,1,stimuli/stim_20210407_power2amp/equal_lnn_AM4.2Hz_8.m4a,,,
,,,,,,,,,,,,41121,2021-04-23_09h40.22.059,judgeSpeechMusic_20210407_logNormShiftAmp,2020.1.2,MacIntel,60,,,,,,,,,,,,,,2,10.325355,,0,0,122,122,52,1,stimuli/stim_20210407_power2amp/equal_lnn_AM2.4Hz_20.m4a,,,
,,,,,,,,,,,,41121,2021-04-23_09h40.22.059,judgeSpeechMusic_20210407_logNormShiftAmp,2020.1.2,MacIntel,60,,,,,,,,,,,,,,2,63.092555,,0,0,123,123,59,1,stimuli/stim_20210407_power2amp/equal_lnn_AM2.4Hz_44.m4a,,,
,,,,,,,,,,,,41121,2021-04-23_09h40.22.059,judgeSpeechMusic_20210407_logNormShiftAmp,2020.1.2,MacIntel,60,,,,,,,,,,,,,,1,7.987495,,0,0,124,124,44,1,stimuli/stim_20210407_power2amp/equal_lnn_AM1.8Hz_24.m4a,,,
,,,,,,,,,,,,41121,2021-04-23_09h40.22.059,judgeSpeechMusic_20210407_logNormShiftAmp,2020.1.2,MacIntel,60,,,,,,,,,,,,,,1,14.873195,,0,0,125,125,40,1,stimuli/stim_20210407_power2amp/equal_lnn_AM1.8Hz_93.m4a,,,
,,,,,,,,,,,,41121,2021-04-23_09h40.22.059,judgeSpeechMusic_20210407_logNormShiftAmp,2020.1.2,MacIntel,60,,,,,,,,,,,,,,1,12.990955,,0,0,126,126,116,1,stimuli/stim_20210407_power2amp/equal_lnn_AM4.8Hz_97.m4a,,,
,,,,,,,,,,,,41121,2021-04-23_09h40.22.059,judgeSpeechMusic_20210407_logNormShiftAmp,2020.1.2,MacIntel,60,,,,,,,,,,,,,,1,17.19403,,0,0,127,127,81,1,stimuli/stim_20210407_power2amp/equal_lnn_AM3.6Hz_50.m4a,,,
,,,,,,,,,,,,41121,2021-04-23_09h40.22.059,judgeSpeechMusic_20210407_logNormShiftAmp,2020.1.2,MacIntel,60,,,,,,,,,,,,,,1,35.93665,,0,0,128,128,66,1,stimuli/stim_20210407_power2amp/equal_lnn_AM3Hz_84.m4a,,,
,,,,,,,,,,,,41121,2021-04-23_09h40.22.059,judgeSpeechMusic_20210407_logNormShiftAmp,2020.1.2,MacIntel,60,,,,,,,,,,,,,,1,6.21022,,0,0,129,129,125,1,stimuli/stim_20210407_power2amp/equal_lnn_AM5.4Hz_14.m4a,,,
,,,,,,,,,,,,41121,2021-04-23_09h40.22.059,judgeSpeechMusic_20210407_logNormShiftAmp,2020.1.2,MacIntel,60,,,,,,,,,,,,,,1,7.259235,1,1,0,130,130,102,1,stimuli/stim_20210407_power2amp/equal_lnn_AM4.2Hz_23.m4a,1.17425,,
,,,,,,,,,,,,41121,2021-04-23_09h40.22.059,judgeSpeechMusic_20210407_logNormShiftAmp,2020.1.2,MacIntel,60,,,,,,,,,,,,,,1,9.3528,,0,0,131,131,78,1,stimuli/stim_20210407_power2amp/equal_lnn_AM3.6Hz_78.m4a,,,
,,,,,,,,,,,,41121,2021-04-23_09h40.22.059,judgeSpeechMusic_20210407_logNormShiftAmp,2020.1.2,MacIntel,60,,,,,,,,,,,,,,1,6.558405,,0,0,132,132,0,1,stimuli/stim_20210407_power2amp/equal_lnn_AM0.6Hz_31.m4a,,,
,,,,,,,,,,,,41121,2021-04-23_09h40.22.059,judgeSpeechMusic_20210407_logNormShiftAmp,2020.1.2,MacIntel,60,,,,,,,,,,,,,,2,12.59611,,0,0,133,133,134,1,stimuli/stim_20210407_power2amp/equal_lnn_AM5.4Hz_40.m4a,,,
,,,,,,,,,,,,41121,2021-04-23_09h40.22.059,judgeSpeechMusic_20210407_logNormShiftAmp,2020.1.2,MacIntel,60,,,,,,,,,,,,,,1,11.02137,,0,0,134,134,63,1,stimuli/stim_20210407_power2amp/equal_lnn_AM3Hz_26.m4a,,,
,,,,,,,,,,,,41121,2021-04-23_09h40.22.059,judgeSpeechMusic_20210407_logNormShiftAmp,2020.1.2,MacIntel,60,,,,,,,,,,,,,,2,38.2727,,0,0,135,135,53,1,stimuli/stim_20210407_power2amp/equal_lnn_AM2.4Hz_30.m4a,,,
,,,,,,,,,,,,41121,2021-04-23_09h40.22.059,judgeSpeechMusic_20210407_logNormShiftAmp,2020.1.2,MacIntel,60,,,,,,,,,,,,,,2,15.372305,,0,0,136,136,126,1,stimuli/stim_20210407_power2amp/equal_lnn_AM5.4Hz_9.m4a,,,
,,,,,,,,,,,,41121,2021-04-23_09h40.22.059,judgeSpeechMusic_20210407_logNormShiftAmp,2020.1.2,MacIntel,60,,,,,,,,,,,,,,2,9.188595,,0,0,137,137,72,1,stimuli/stim_20210407_power2amp/equal_lnn_AM3Hz_10.m4a,,,
,,,,,,,,,,,,41121,2021-04-23_09h40.22.059,judgeSpeechMusic_20210407_logNormShiftAmp,2020.1.2,MacIntel,60,,,,,,,,,,,,,,2,6.574095,,0,0,138,138,47,1,stimuli/stim_20210407_power2amp/equal_lnn_AM2.4Hz_63.m4a,,,
,,,,,,,,,,,,41121,2021-04-23_09h40.22.059,judgeSpeechMusic_20210407_logNormShiftAmp,2020.1.2,MacIntel,60,,,,,,,,,,,,,,1,5.960865,,0,0,139,139,117,1,stimuli/stim_20210407_power2amp/equal_lnn_AM4.8Hz_41.m4a,,,
,,,,,,,,,,,,41121,2021-04-23_09h40.22.059,judgeSpeechMusic_20210407_logNormShiftAmp,2020.1.2,MacIntel,60,,,,,,,,,,,,,,2,15.422315,,0,0,140,140,30,1,stimuli/stim_20210407_power2amp/equal_lnn_AM1.8Hz_39.m4a,,,
,,,,,,,,,,,,41121,2021-04-23_09h40.22.059,judgeSpeechMusic_20210407_logNormShiftAmp,2020.1.2,MacIntel,60,,,,,,,,,,,,,,1,18.240865,,0,0,141,141,108,1,stimuli/stim_20210407_power2amp/equal_lnn_AM4.8Hz_30.m4a,,,
,,,,,,,,,,,,41121,2021-04-23_09h40.22.059,judgeSpeechMusic_20210407_logNormShiftAmp,2020.1.2,MacIntel,60,,,,,,,,,,,,,,1,29.706545,,0,0,142,142,128,1,stimuli/stim_20210407_power2amp/equal_lnn_AM5.4Hz_57.m4a,,,
,,,,,,,,,,,,41121,2021-04-23_09h40.22.059,judgeSpeechMusic_20210407_logNormShiftAmp,2020.1.2,MacIntel,60,,,,,,,,,,,,,,2,5.9776,,0,0,143,143,139,1,stimuli/stim_20210407_power2amp/equal_lnn_AM6Hz_21.m4a,,,
,,,,,,,,,,,,41121,2021-04-23_09h40.22.059,judgeSpeechMusic_20210407_logNormShiftAmp,2020.1.2,MacIntel,60,,,,,,,,,,,,,,2,5.9631,,0,0,144,144,77,1,stimuli/stim_20210407_power2amp/equal_lnn_AM3.6Hz_77.m4a,,,
,,,,,,,,,,,,41121,2021-04-23_09h40.22.059,judgeSpeechMusic_20210407_logNormShiftAmp,2020.1.2,MacIntel,60,,,,,,,,,,,,,,1,23.638105,,0,0,145,145,129,1,stimuli/stim_20210407_power2amp/equal_lnn_AM5.4Hz_25.m4a,,,
,,,,,,,,,,,,41121,2021-04-23_09h40.22.059,judgeSpeechMusic_20210407_logNormShiftAmp,2020.1.2,MacIntel,60,,,,,,,,,,,,,,1,41.07825,,0,0,146,146,3,1,stimuli/stim_20210407_power2amp/equal_lnn_AM0.6Hz_12.m4a,,,
,,,,,,,,,,,,41121,2021-04-23_09h40.22.059,judgeSpeechMusic_20210407_logNormShiftAmp,2020.1.2,MacIntel,60,,,,,,,,,,,,,,1,7.074815,,0,0,147,147,67,1,stimuli/stim_20210407_power2amp/equal_lnn_AM3Hz_98.m4a,,,
,,,,,,,,,,,,41121,2021-04-23_09h40.22.059,judgeSpeechMusic_20210407_logNormShiftAmp,2020.1.2,MacIntel,60,,,,,,,,,,,,,,1,29.122675,,0,0,148,148,105,1,stimuli/stim_20210407_power2amp/equal_lnn_AM4.8Hz_34.m4a,,,
,,,,,,,,,,,,41121,2021-04-23_09h40.22.059,judgeSpeechMusic_20210407_logNormShiftAmp,2020.1.2,MacIntel,60,,,,,,,,,,,,,,2,10.063435,,0,0,149,149,86,1,stimuli/stim_20210407_power2amp/equal_lnn_AM3.6Hz_41.m4a,,,
,,,,,,,,,,,,41121,2021-04-23_09h40.22.059,judgeSpeechMusic_20210407_logNormShiftAmp,2020.1.2,MacIntel,60,,,,,,,,,,,,,,1,21.35694,,0,1,0,150,60,1,stimuli/stim_20210407_power2amp/equal_lnn_AM3Hz_42.m4a,,,
,,,,,,,,,,,,41121,2021-04-23_09h40.22.059,judgeSpeechMusic_20210407_logNormShiftAmp,2020.1.2,MacIntel,60,,,,,,,,,,,,,,2,8.26948,,0,1,1,151,23,1,stimuli/stim_20210407_power2amp/equal_lnn_AM1.2Hz_82.m4a,,,
,,,,,,,,,,,,41121,2021-04-23_09h40.22.059,judgeSpeechMusic_20210407_logNormShiftAmp,2020.1.2,MacIntel,60,,,,,,,,,,,,,,1,19.231165,,0,1,2,152,148,1,stimuli/stim_20210407_power2amp/equal_lnn_AM6Hz_36.m4a,,,
,,,,,,,,,,,,41121,2021-04-23_09h40.22.059,judgeSpeechMusic_20210407_logNormShiftAmp,2020.1.2,MacIntel,60,,,,,,,,,,,,,,1,21.83797,1,1,1,3,153,91,1,stimuli/stim_20210407_power2amp/equal_lnn_AM4.2Hz_61.m4a,1.361675,,
,,,,,,,,,,,,41121,2021-04-23_09h40.22.059,judgeSpeechMusic_20210407_logNormShiftAmp,2020.1.2,MacIntel,60,,,,,,,,,,,,,,2,9.571995,,0,1,4,154,28,1,stimuli/stim_20210407_power2amp/equal_lnn_AM1.2Hz_39.m4a,,,
,,,,,,,,,,,,41121,2021-04-23_09h40.22.059,judgeSpeechMusic_20210407_logNormShiftAmp,2020.1.2,MacIntel,60,,,,,,,,,,,,,,2,7.70789,,0,1,5,155,48,1,stimuli/stim_20210407_power2amp/equal_lnn_AM2.4Hz_28.m4a,,,
,,,,,,,,,,,,41121,2021-04-23_09h40.22.059,judgeSpeechMusic_20210407_logNormShiftAmp,2020.1.2,MacIntel,60,,,,,,,,,,,,,,2,6.410025,,0,1,6,156,12,1,stimuli/stim_20210407_power2amp/equal_lnn_AM0.6Hz_55.m4a,,,
,,,,,,,,,,,,41121,2021-04-23_09h40.22.059,judgeSpeechMusic_20210407_logNormShiftAmp,2020.1.2,MacIntel,60,,,,,,,,,,,,,,1,15.70643,,0,1,7,157,142,1,stimuli/stim_20210407_power2amp/equal_lnn_AM6Hz_24.m4a,,,
,,,,,,,,,,,,41121,2021-04-23_09h40.22.059,judgeSpeechMusic_20210407_logNormShiftAmp,2020.1.2,MacIntel,60,,,,,,,,,,,,,,2,7.623315,,0,1,8,158,92,1,stimuli/stim_20210407_power2amp/equal_lnn_AM4.2Hz_53.m4a,,,
,,,,,,,,,,,,41121,2021-04-23_09h40.22.059,judgeSpeechMusic_20210407_logNormShiftAmp,2020.1.2,MacIntel,60,,,,,,,,,,,,,,1,24.12307,,0,1,9,159,130,1,stimuli/stim_20210407_power2amp/equal_lnn_AM5.4Hz_55.m4a,,,
,,,,,,,,,,,,41121,2021-04-23_09h40.22.059,judgeSpeechMusic_20210407_logNormShiftAmp,2020.1.2,MacIntel,60,,,,,,,,,,,,,,1,7.15917,,0,1,10,160,89,1,stimuli/stim_20210407_power2amp/equal_lnn_AM3.6Hz_10.m4a,,,
,,,,,,,,,,,,41121,2021-04-23_09h40.22.059,judgeSpeechMusic_20210407_logNormShiftAmp,2020.1.2,MacIntel,60,,,,,,,,,,,,,,1,37.938585,,0,1,11,161,100,1,stimuli/stim_20210407_power2amp/equal_lnn_AM4.2Hz_8.m4a,,,
,,,,,,,,,,,,41121,2021-04-23_09h40.22.059,judgeSpeechMusic_20210407_logNormShiftAmp,2020.1.2,MacIntel,60,,,,,,,,,,,,,,2,7.45843,,0,1,12,162,45,1,stimuli/stim_20210407_power2amp/equal_lnn_AM2.4Hz_95.m4a,,,
,,,,,,,,,,,,41121,2021-04-23_09h40.22.059,judgeSpeechMusic_20210407_logNormShiftAmp,2020.1.2,MacIntel,60,,,,,,,,,,,,,,1,7.988005,,0,1,13,163,71,1,stimuli/stim_20210407_power2amp/equal_lnn_AM3Hz_86.m4a,,,
,,,,,,,,,,,,41121,2021-04-23_09h40.22.059,judgeSpeechMusic_20210407_logNormShiftAmp,2020.1.2,MacIntel,60,,,,,,,,,,,,,,2,8.621935,,0,1,14,164,112,1,stimuli/stim_20210407_power2amp/equal_lnn_AM4.8Hz_76.m4a,,,
,,,,,,,,,,,,41121,2021-04-23_09h40.22.059,judgeSpeechMusic_20210407_logNormShiftAmp,2020.1.2,MacIntel,60,,,,,,,,,,,,,,1,11.2443,,0,1,15,165,115,1,stimuli/stim_20210407_power2amp/equal_lnn_AM4.8Hz_99.m4a,,,
,,,,,,,,,,,,41121,2021-04-23_09h40.22.059,judgeSpeechMusic_20210407_logNormShiftAmp,2020.1.2,MacIntel,60,,,,,,,,,,,,,,2,10.77171,,0,1,16,166,68,1,stimuli/stim_20210407_power2amp/equal_lnn_AM3Hz_66.m4a,,,
,,,,,,,,,,,,41121,2021-04-23_09h40.22.059,judgeSpeechMusic_20210407_logNormShiftAmp,2020.1.2,MacIntel,60,,,,,,,,,,,,,,2,15.322675,,0,1,17,167,57,1,stimuli/stim_20210407_power2amp/equal_lnn_AM2.4Hz_62.m4a,,,
,,,,,,,,,,,,41121,2021-04-23_09h40.22.059,judgeSpeechMusic_20210407_logNormShiftAmp,2020.1.2,MacIntel,60,,,,,,,,,,,,,,1,9.162955,,0,1,18,168,83,1,stimuli/stim_20210407_power2amp/equal_lnn_AM3.6Hz_2.m4a,,,
,,,,,,,,,,,,41121,2021-04-23_09h40.22.059,judgeSpeechMusic_20210407_logNormShiftAmp,2020.1.2,MacIntel,60,,,,,,,,,,,,,,2,6.256615,,0,1,19,169,4,1,stimuli/stim_20210407_power2amp/equal_lnn_AM0.6Hz_45.m4a,,,
,,,,,,,,,,,,41121,2021-04-23_09h40.22.059,judgeSpeechMusic_20210407_logNormShiftAmp,2020.1.2,MacIntel,60,,,,,,,,,,,,,,2,7.32488,,0,1,20,170,70,1,stimuli/stim_20210407_power2amp/equal_lnn_AM3Hz_85.m4a,,,
,,,,,,,,,,,,41121,2021-04-23_09h40.22.059,judgeSpeechMusic_20210407_logNormShiftAmp,2020.1.2,MacIntel,60,,,,,,,,,,,,,,2,8.52911,,0,1,21,171,76,1,stimuli/stim_20210407_power2amp/equal_lnn_AM3.6Hz_96.m4a,,,
,,,,,,,,,,,,41121,2021-04-23_09h40.22.059,judgeSpeechMusic_20210407_logNormShiftAmp,2020.1.2,MacIntel,60,,,,,,,,,,,,,,1,7.72011,,0,1,22,172,47,1,stimuli/stim_20210407_power2amp/equal_lnn_AM2.4Hz_63.m4a,,,
,,,,,,,,,,,,41121,2021-04-23_09h40.22.059,judgeSpeechMusic_20210407_logNormShiftAmp,2020.1.2,MacIntel,60,,,,,,,,,,,,,,1,39.956935,,0,1,23,173,61,1,stimuli/stim_20210407_power2amp/equal_lnn_AM3Hz_91.m4a,,,
,,,,,,,,,,,,41121,2021-04-23_09h40.22.059,judgeSpeechMusic_20210407_logNormShiftAmp,2020.1.2,MacIntel,60,,,,,,,,,,,,,,2,9.94679,,0,1,24,174,99,1,stimuli/stim_20210407_power2amp/equal_lnn_AM4.2Hz_2.m4a,,,
,,,,,,,,,,,,41121,2021-04-23_09h40.22.059,judgeSpeechMusic_20210407_logNormShiftAmp,2020.1.2,MacIntel,60,,,,,,,,,,,,,,1,7.659045,,0,1,25,175,75,1,stimuli/stim_20210407_power2amp/equal_lnn_AM3.6Hz_42.m4a,,,
,,,,,,,,,,,,41121,2021-04-23_09h40.22.059,judgeSpeechMusic_20210407_logNormShiftAmp,2020.1.2,MacIntel,60,,,,,,,,,,,,,,1,31.588905,2,1,1,26,176,11,1,stimuli/stim_20210407_power2amp/equal_lnn_AM0.6Hz_43.m4a,0.443005,,
,,,,,,,,,,,,41121,2021-04-23_09h40.22.059,judgeSpeechMusic_20210407_logNormShiftAmp,2020.1.2,MacIntel,60,,,,,,,,,,,,,,1,16.48641,,0,1,27,177,14,1,stimuli/stim_20210407_power2amp/equal_lnn_AM0.6Hz_78.m4a,,,
,,,,,,,,,,,,41121,2021-04-23_09h40.22.059,judgeSpeechMusic_20210407_logNormShiftAmp,2020.1.2,MacIntel,60,,,,,,,,,,,,,,2,6.30534,,0,1,28,178,56,1,stimuli/stim_20210407_power2amp/equal_lnn_AM2.4Hz_64.m4a,,,
,,,,,,,,,,,,41121,2021-04-23_09h40.22.059,judgeSpeechMusic_20210407_logNormShiftAmp,2020.1.2,MacIntel,60,,,,,,,,,,,,,,1,10.46427,,0,1,29,179,95,1,stimuli/stim_20210407_power2amp/equal_lnn_AM4.2Hz_36.m4a,,,
,,,,,,,,,,,,41121,2021-04-23_09h40.22.059,judgeSpeechMusic_20210407_logNormShiftAmp,2020.1.2,MacIntel,60,,,,,,,,,,,,,,2,7.841695,,0,1,30,180,49,1,stimuli/stim_20210407_power2amp/equal_lnn_AM2.4Hz_7.m4a,,,
,,,,,,,,,,,,41121,2021-04-23_09h40.22.059,judgeSpeechMusic_20210407_logNormShiftAmp,2020.1.2,MacIntel,60,,,,,,,,,,,,,,1,14.99006,,0,1,31,181,40,1,stimuli/stim_20210407_power2amp/equal_lnn_AM1.8Hz_93.m4a,,,
,,,,,,,,,,,,41121,2021-04-23_09h40.22.059,judgeSpeechMusic_20210407_logNormShiftAmp,2020.1.2,MacIntel,60,,,,,,,,,,,,,,2,7.558105,,0,1,32,182,85,1,stimuli/stim_20210407_power2amp/equal_lnn_AM3.6Hz_7.m4a,,,
,,,,,,,,,,,,41121,2021-04-23_09h40.22.059,judgeSpeechMusic_20210407_logNormShiftAmp,2020.1.2,MacIntel,60,,,,,,,,,,,,,,1,7.710575,,0,1,33,183,141,1,stimuli/stim_20210407_power2amp/equal_lnn_AM6Hz_57.m4a,,,
,,,,,,,,,,,,41121,2021-04-23_09h40.22.059,judgeSpeechMusic_20210407_logNormShiftAmp,2020.1.2,MacIntel,60,,,,,,,,,,,,,,1,15.77084,,0,1,34,184,39,1,stimuli/stim_20210407_power2amp/equal_lnn_AM1.8Hz_88.m4a,,,
,,,,,,,,,,,,41121,2021-04-23_09h40.22.059,judgeSpeechMusic_20210407_logNormShiftAmp,2020.1.2,MacIntel,60,,,,,,,,,,,,,,2,12.091075,,0,1,35,185,147,1,stimuli/stim_20210407_power2amp/equal_lnn_AM6Hz_67.m4a,,,
,,,,,,,,,,,,41121,2021-04-23_09h40.22.059,judgeSpeechMusic_20210407_logNormShiftAmp,2020.1.2,MacIntel,60,,,,,,,,,,,,,,2,7.9569,,0,1,36,186,7,1,stimuli/stim_20210407_power2amp/equal_lnn_AM0.6Hz_86.m4a,,,
,,,,,,,,,,,,41121,2021-04-23_09h40.22.059,judgeSpeechMusic_20210407_logNormShiftAmp,2020.1.2,MacIntel,60,,,,,,,,,,,,,,2,6.006745,,0,1,37,187,36,1,stimuli/stim_20210407_power2amp/equal_lnn_AM1.8Hz_84.m4a,,,
,,,,,,,,,,,,41121,2021-04-23_09h40.22.059,judgeSpeechMusic_20210407_logNormShiftAmp,2020.1.2,MacIntel,60,,,,,,,,,,,,,,1,8.188785,,0,1,38,188,16,1,stimuli/stim_20210407_power2amp/equal_lnn_AM1.2Hz_34.m4a,,,
,,,,,,,,,,,,41121,2021-04-23_09h40.22.059,judgeSpeechMusic_20210407_logNormShiftAmp,2020.1.2,MacIntel,60,,,,,,,,,,,,,,1,6.95589,,0,1,39,189,93,1,stimuli/stim_20210407_power2amp/equal_lnn_AM4.2Hz_24.m4a,,,
,,,,,,,,,,,,41121,2021-04-23_09h40.22.059,judgeSpeechMusic_20210407_logNormShiftAmp,2020.1.2,MacIntel,60,,,,,,,,,,,,,,2,7.107685,,0,1,40,190,8,1,stimuli/stim_20210407_power2amp/equal_lnn_AM0.6Hz_37.m4a,,,
,,,,,,,,,,,,41121,2021-04-23_09h40.22.059,judgeSpeechMusic_20210407_logNormShiftAmp,2020.1.2,MacIntel,60,,,,,,,,,,,,,,2,9.006625,,0,1,41,191,51,1,stimuli/stim_20210407_power2amp/equal_lnn_AM2.4Hz_34.m4a,,,
,,,,,,,,,,,,41121,2021-04-23_09h40.22.059,judgeSpeechMusic_20210407_logNormShiftAmp,2020.1.2,MacIntel,60,,,,,,,,,,,,,,2,7.388425,,0,1,42,192,108,1,stimuli/stim_20210407_power2amp/equal_lnn_AM4.8Hz_30.m4a,,,
,,,,,,,,,,,,41121,2021-04-23_09h40.22.059,judgeSpeechMusic_20210407_logNormShiftAmp,2020.1.2,MacIntel,60,,,,,,,,,,,,,,1,6.93778,,0,1,43,193,38,1,stimuli/stim_20210407_power2amp/equal_lnn_AM1.8Hz_44.m4a,,,
,,,,,,,,,,,,41121,2021-04-23_09h40.22.059,judgeSpeechMusic_20210407_logNormShiftAmp,2020.1.2,MacIntel,60,,,,,,,,,,,,,,1,5.70562,,0,1,44,194,132,1,stimuli/stim_20210407_power2amp/equal_lnn_AM5.4Hz_75.m4a,,,
,,,,,,,,,,,,41121,2021-04-23_09h40.22.059,judgeSpeechMusic_20210407_logNormShiftAmp,2020.1.2,MacIntel,60,,,,,,,,,,,,,,1,7.426795,,0,1,45,195,127,1,stimuli/stim_20210407_power2amp/equal_lnn_AM5.4Hz_59.m4a,,,
,,,,,,,,,,,,41121,2021-04-23_09h40.22.059,judgeSpeechMusic_20210407_logNormShiftAmp,2020.1.2,MacIntel,60,,,,,,,,,,,,,,1,18.52249,,0,1,46,196,149,1,stimuli/stim_20210407_power2amp/equal_lnn_AM6Hz_61.m4a,,,
,,,,,,,,,,,,41121,2021-04-23_09h40.22.059,judgeSpeechMusic_20210407_logNormShiftAmp,2020.1.2,MacIntel,60,,,,,,,,,,,,,,1,12.452755,,0,1,47,197,105,1,stimuli/stim_20210407_power2amp/equal_lnn_AM4.8Hz_34.m4a,,,
,,,,,,,,,,,,41121,2021-04-23_09h40.22.059,judgeSpeechMusic_20210407_logNormShiftAmp,2020.1.2,MacIntel,60,,,,,,,,,,,,,,1,16.83022,,0,1,48,198,30,1,stimuli/stim_20210407_power2amp/equal_lnn_AM1.8Hz_39.m4a,,,
,,,,,,,,,,,,41121,2021-04-23_09h40.22.059,judgeSpeechMusic_20210407_logNormShiftAmp,2020.1.2,MacIntel,60,,,,,,,,,,,,,,2,6.508025,4,1,1,49,199,67,1,stimuli/stim_20210407_power2amp/equal_lnn_AM3Hz_98.m4a,2.278095,,
,,,,,,,,,,,,41121,2021-04-23_09h40.22.059,judgeSpeechMusic_20210407_logNormShiftAmp,2020.1.2,MacIntel,60,,,,,,,,,,,,,,2,8.2904,,0,1,50,200,33,1,stimuli/stim_20210407_power2amp/equal_lnn_AM1.8Hz_89.m4a,,,
,,,,,,,,,,,,41121,2021-04-23_09h40.22.059,judgeSpeechMusic_20210407_logNormShiftAmp,2020.1.2,MacIntel,60,,,,,,,,,,,,,,2,9.29588,,0,1,51,201,58,1,stimuli/stim_20210407_power2amp/equal_lnn_AM2.4Hz_32.m4a,,,
,,,,,,,,,,,,41121,2021-04-23_09h40.22.059,judgeSpeechMusic_20210407_logNormShiftAmp,2020.1.2,MacIntel,60,,,,,,,,,,,,,,2,9.74566,,0,1,52,202,32,1,stimuli/stim_20210407_power2amp/equal_lnn_AM1.8Hz_11.m4a,,,
,,,,,,,,,,,,41121,2021-04-23_09h40.22.059,judgeSpeechMusic_20210407_logNormShiftAmp,2020.1.2,MacIntel,60,,,,,,,,,,,,,,1,9.48443,,0,1,53,203,98,1,stimuli/stim_20210407_power2amp/equal_lnn_AM4.2Hz_14.m4a,,,
,,,,,,,,,,,,41121,2021-04-23_09h40.22.059,judgeSpeechMusic_20210407_logNormShiftAmp,2020.1.2,MacIntel,60,,,,,,,,,,,,,,2,12.738315,,0,1,54,204,107,1,stimuli/stim_20210407_power2amp/equal_lnn_AM4.8Hz_93.m4a,,,
,,,,,,,,,,,,41121,2021-04-23_09h40.22.059,judgeSpeechMusic_20210407_logNormShiftAmp,2020.1.2,MacIntel,60,,,,,,,,,,,,,,1,14.573295,,0,1,55,205,113,1,stimuli/stim_20210407_power2amp/equal_lnn_AM4.8Hz_95.m4a,,,
,,,,,,,,,,,,41121,2021-04-23_09h40.22.059,judgeSpeechMusic_20210407_logNormShiftAmp,2020.1.2,MacIntel,60,,,,,,,,,,,,,,1,6.521845,,0,1,56,206,63,1,stimuli/stim_20210407_power2amp/equal_lnn_AM3Hz_26.m4a,,,
,,,,,,,,,,,,41121,2021-04-23_09h40.22.059,judgeSpeechMusic_20210407_logNormShiftAmp,2020.1.2,MacIntel,60,,,,,,,,,,,,,,1,6.55602,,0,1,57,207,103,1,stimuli/stim_20210407_power2amp/equal_lnn_AM4.2Hz_3.m4a,,,
,,,,,,,,,,,,41121,2021-04-23_09h40.22.059,judgeSpeechMusic_20210407_logNormShiftAmp,2020.1.2,MacIntel,60,,,,,,,,,,,,,,2,6.5116,,0,1,58,208,44,1,stimuli/stim_20210407_power2amp/equal_lnn_AM1.8Hz_24.m4a,,,
,,,,,,,,,,,,41121,2021-04-23_09h40.22.059,judgeSpeechMusic_20210407_logNormShiftAmp,2020.1.2,MacIntel,60,,,,,,,,,,,,,,2,22.702475,,0,1,59,209,25,1,stimuli/stim_20210407_power2amp/equal_lnn_AM1.2Hz_51.m4a,,,
,,,,,,,,,,,,41121,2021-04-23_09h40.22.059,judgeSpeechMusic_20210407_logNormShiftAmp,2020.1.2,MacIntel,60,,,,,,,,,,,,,,1,8.540745,,0,1,60,210,137,1,stimuli/stim_20210407_power2amp/equal_lnn_AM6Hz_34.m4a,,,
,,,,,,,,,,,,41121,2021-04-23_09h40.22.059,judgeSpeechMusic_20210407_logNormShiftAmp,2020.1.2,MacIntel,60,,,,,,,,,,,,,,1,6.243735,,0,1,61,211,17,1,stimuli/stim_20210407_power2amp/equal_lnn_AM1.2Hz_54.m4a,,,
,,,,,,,,,,,,41121,2021-04-23_09h40.22.059,judgeSpeechMusic_20210407_logNormShiftAmp,2020.1.2,MacIntel,60,,,,,,,,,,,,,,1,11.18999,,0,1,62,212,121,1,stimuli/stim_20210407_power2amp/equal_lnn_AM5.4Hz_60.m4a,,,
,,,,,,,,,,,,41121,2021-04-23_09h40.22.059,judgeSpeechMusic_20210407_logNormShiftAmp,2020.1.2,MacIntel,60,,,,,,,,,,,,,,2,37.79324,,0,1,63,213,81,1,stimuli/stim_20210407_power2amp/equal_lnn_AM3.6Hz_50.m4a,,,
,,,,,,,,,,,,41121,2021-04-23_09h40.22.059,judgeSpeechMusic_20210407_logNormShiftAmp,2020.1.2,MacIntel,60,,,,,,,,,,,,,,1,7.33618,,0,1,64,214,65,1,stimuli/stim_20210407_power2amp/equal_lnn_AM3Hz_59.m4a,,,
,,,,,,,,,,,,41121,2021-04-23_09h40.22.059,judgeSpeechMusic_20210407_logNormShiftAmp,2020.1.2,MacIntel,60,,,,,,,,,,,,,,1,42.16402,,0,1,65,215,134,1,stimuli/stim_20210407_power2amp/equal_lnn_AM5.4Hz_40.m4a,,,
,,,,,,,,,,,,41121,2021-04-23_09h40.22.059,judgeSpeechMusic_20210407_logNormShiftAmp,2020.1.2,MacIntel,60,,,,,,,,,,,,,,2,12.31113,,0,1,66,216,34,1,stimuli/stim_20210407_power2amp/equal_lnn_AM1.8Hz_81.m4a,,,
,,,,,,,,,,,,41121,2021-04-23_09h40.22.059,judgeSpeechMusic_20210407_logNormShiftAmp,2020.1.2,MacIntel,60,,,,,,,,,,,,,,1,13.093885,,0,1,67,217,97,1,stimuli/stim_20210407_power2amp/equal_lnn_AM4.2Hz_28.m4a,,,
,,,,,,,,,,,,41121,2021-04-23_09h40.22.059,judgeSpeechMusic_20210407_logNormShiftAmp,2020.1.2,MacIntel,60,,,,,,,,,,,,,,1,12.62895,,0,1,68,218,42,1,stimuli/stim_20210407_power2amp/equal_lnn_AM1.8Hz_68.m4a,,,
,,,,,,,,,,,,41121,2021-04-23_09h40.22.059,judgeSpeechMusic_20210407_logNormShiftAmp,2020.1.2,MacIntel,60,,,,,,,,,,,,,,2,7.67483,,0,1,69,219,139,1,stimuli/stim_20210407_power2amp/equal_lnn_AM6Hz_21.m4a,,,
,,,,,,,,,,,,41121,2021-04-23_09h40.22.059,judgeSpeechMusic_20210407_logNormShiftAmp,2020.1.2,MacIntel,60,,,,,,,,,,,,,,1,7.539955,,0,1,70,220,123,1,stimuli/stim_20210407_power2amp/equal_lnn_AM5.4Hz_83.m4a,,,
,,,,,,,,,,,,41121,2021-04-23_09h40.22.059,judgeSpeechMusic_20210407_logNormShiftAmp,2020.1.2,MacIntel,60,,,,,,,,,,,,,,1,17.022405,,0,1,71,221,2,1,stimuli/stim_20210407_power2amp/equal_lnn_AM0.6Hz_63.m4a,,,
,,,,,,,,,,,,41121,2021-04-23_09h40.22.059,judgeSpeechMusic_20210407_logNormShiftAmp,2020.1.2,MacIntel,60,,,,,,,,,,,,,,2,7.124115,,0,1,72,222,78,1,stimuli/stim_20210407_power2amp/equal_lnn_AM3.6Hz_78.m4a,,,
,,,,,,,,,,,,41121,2021-04-23_09h40.22.059,judgeSpeechMusic_20210407_logNormShiftAmp,2020.1.2,MacIntel,60,,,,,,,,,,,,,,2,7.275085,,0,1,73,223,110,1,stimuli/stim_20210407_power2amp/equal_lnn_AM4.8Hz_31.m4a,,,
,,,,,,,,,,,,41121,2021-04-23_09h40.22.059,judgeSpeechMusic_20210407_logNormShiftAmp,2020.1.2,MacIntel,60,,,,,,,,,,,,,,1,10.694415,2,1,1,74,224,26,1,stimuli/stim_20210407_power2amp/equal_lnn_AM1.2Hz_30.m4a,1.309275,,
,,,,,,,,,,,,41121,2021-04-23_09h40.22.059,judgeSpeechMusic_20210407_logNormShiftAmp,2020.1.2,MacIntel,60,,,,,,,,,,,,,,2,8.28877,,0,1,75,225,114,1,stimuli/stim_20210407_power2amp/equal_lnn_AM4.8Hz_65.m4a,,,
,,,,,,,,,,,,41121,2021-04-23_09h40.22.059,judgeSpeechMusic_20210407_logNormShiftAmp,2020.1.2,MacIntel,60,,,,,,,,,,,,,,2,9.41093,,0,1,76,226,135,1,stimuli/stim_20210407_power2amp/equal_lnn_AM6Hz_93.m4a,,,
,,,,,,,,,,,,41121,2021-04-23_09h40.22.059,judgeSpeechMusic_20210407_logNormShiftAmp,2020.1.2,MacIntel,60,,,,,,,,,,,,,,2,7.537215,,0,1,77,227,52,1,stimuli/stim_20210407_power2amp/equal_lnn_AM2.4Hz_20.m4a,,,
,,,,,,,,,,,,41121,2021-04-23_09h40.22.059,judgeSpeechMusic_20210407_logNormShiftAmp,2020.1.2,MacIntel,60,,,,,,,,,,,,,,1,8.82333,,0,1,78,228,31,1,stimuli/stim_20210407_power2amp/equal_lnn_AM1.8Hz_58.m4a,,,
,,,,,,,,,,,,41121,2021-04-23_09h40.22.059,judgeSpeechMusic_20210407_logNormShiftAmp,2020.1.2,MacIntel,60,,,,,,,,,,,,,,1,18.94279,,0,1,79,229,116,1,stimuli/stim_20210407_power2amp/equal_lnn_AM4.8Hz_97.m4a,,,
,,,,,,,,,,,,41121,2021-04-23_09h40.22.059,judgeSpeechMusic_20210407_logNormShiftAmp,2020.1.2,MacIntel,60,,,,,,,,,,,,,,1,15.956055,,0,1,80,230,73,1,stimuli/stim_20210407_power2amp/equal_lnn_AM3Hz_96.m4a,,,
,,,,,,,,,,,,41121,2021-04-23_09h40.22.059,judgeSpeechMusic_20210407_logNormShiftAmp,2020.1.2,MacIntel,60,,,,,,,,,,,,,,1,5.8881,,0,1,81,231,102,1,stimuli/stim_20210407_power2amp/equal_lnn_AM4.2Hz_23.m4a,,,
,,,,,,,,,,,,41121,2021-04-23_09h40.22.059,judgeSpeechMusic_20210407_logNormShiftAmp,2020.1.2,MacIntel,60,,,,,,,,,,,,,,2,6.776485,,0,1,82,232,10,1,stimuli/stim_20210407_power2amp/equal_lnn_AM0.6Hz_22.m4a,,,
,,,,,,,,,,,,41121,2021-04-23_09h40.22.059,judgeSpeechMusic_20210407_logNormShiftAmp,2020.1.2,MacIntel,60,,,,,,,,,,,,,,1,8.788645,,0,1,83,233,126,1,stimuli/stim_20210407_power2amp/equal_lnn_AM5.4Hz_9.m4a,,,
,,,,,,,,,,,,41121,2021-04-23_09h40.22.059,judgeSpeechMusic_20210407_logNormShiftAmp,2020.1.2,MacIntel,60,,,,,,,,,,,,,,2,12.95557,,0,1,84,234,94,1,stimuli/stim_20210407_power2amp/equal_lnn_AM4.2Hz_91.m4a,,,
,,,,,,,,,,,,41121,2021-04-23_09h40.22.059,judgeSpeechMusic_20210407_logNormShiftAmp,2020.1.2,MacIntel,60,,,,,,,,,,,,,,2,15.08965,,0,1,85,235,22,1,stimuli/stim_20210407_power2amp/equal_lnn_AM1.2Hz_84.m4a,,,
,,,,,,,,,,,,41121,2021-04-23_09h40.22.059,judgeSpeechMusic_20210407_logNormShiftAmp,2020.1.2,MacIntel,60,,,,,,,,,,,,,,2,17.70465,,0,1,86,236,129,1,stimuli/stim_20210407_power2amp/equal_lnn_AM5.4Hz_25.m4a,,,
,,,,,,,,,,,,41121,2021-04-23_09h40.22.059,judgeSpeechMusic_20210407_logNormShiftAmp,2020.1.2,MacIntel,60,,,,,,,,,,,,,,1,7.827365,,0,1,87,237,62,1,stimuli/stim_20210407_power2amp/equal_lnn_AM3Hz_79.m4a,,,
,,,,,,,,,,,,41121,2021-04-23_09h40.22.059,judgeSpeechMusic_20210407_logNormShiftAmp,2020.1.2,MacIntel,60,,,,,,,,,,,,,,1,19.639385,,0,1,88,238,29,1,stimuli/stim_20210407_power2amp/equal_lnn_AM1.2Hz_3.m4a,,,
,,,,,,,,,,,,41121,2021-04-23_09h40.22.059,judgeSpeechMusic_20210407_logNormShiftAmp,2020.1.2,MacIntel,60,,,,,,,,,,,,,,1,7.989945,,0,1,89,239,96,1,stimuli/stim_20210407_power2amp/equal_lnn_AM4.2Hz_76.m4a,,,
,,,,,,,,,,,,41121,2021-04-23_09h40.22.059,judgeSpeechMusic_20210407_logNormShiftAmp,2020.1.2,MacIntel,60,,,,,,,,,,,,,,2,11.190895,,0,1,90,240,122,1,stimuli/stim_20210407_power2amp/equal_lnn_AM5.4Hz_79.m4a,,,
,,,,,,,,,,,,41121,2021-04-23_09h40.22.059,judgeSpeechMusic_20210407_logNormShiftAmp,2020.1.2,MacIntel,60,,,,,,,,,,,,,,1,7.72279,,0,1,91,241,55,1,stimuli/stim_20210407_power2amp/equal_lnn_AM2.4Hz_72.m4a,,,
,,,,,,,,,,,,41121,2021-04-23_09h40.22.059,judgeSpeechMusic_20210407_logNormShiftAmp,2020.1.2,MacIntel,60,,,,,,,,,,,,,,1,8.00654,,0,1,92,242,72,1,stimuli/stim_20210407_power2amp/equal_lnn_AM3Hz_10.m4a,,,
,,,,,,,,,,,,41121,2021-04-23_09h40.22.059,judgeSpeechMusic_20210407_logNormShiftAmp,2020.1.2,MacIntel,60,,,,,,,,,,,,,,1,42.12172,,0,1,93,243,46,1,stimuli/stim_20210407_power2amp/equal_lnn_AM2.4Hz_29.m4a,,,
,,,,,,,,,,,,41121,2021-04-23_09h40.22.059,judgeSpeechMusic_20210407_logNormShiftAmp,2020.1.2,MacIntel,60,,,,,,,,,,,,,,2,9.589395,,0,1,94,244,77,1,stimuli/stim_20210407_power2amp/equal_lnn_AM3.6Hz_77.m4a,,,
,,,,,,,,,,,,41121,2021-04-23_09h40.22.059,judgeSpeechMusic_20210407_logNormShiftAmp,2020.1.2,MacIntel,60,,,,,,,,,,,,,,2,11.15785,,0,1,95,245,117,1,stimuli/stim_20210407_power2amp/equal_lnn_AM4.8Hz_41.m4a,,,
,,,,,,,,,,,,41121,2021-04-23_09h40.22.059,judgeSpeechMusic_20210407_logNormShiftAmp,2020.1.2,MacIntel,60,,,,,,,,,,,,,,1,6.49475,4,1,1,96,246,43,1,stimuli/stim_20210407_power2amp/equal_lnn_AM1.8Hz_50.m4a,1.357975,,
,,,,,,,,,,,,41121,2021-04-23_09h40.22.059,judgeSpeechMusic_20210407_logNormShiftAmp,2020.1.2,MacIntel,60,,,,,,,,,,,,,,2,13.923085,,0,1,97,247,37,1,stimuli/stim_20210407_power2amp/equal_lnn_AM1.8Hz_40.m4a,,,
,,,,,,,,,,,,41121,2021-04-23_09h40.22.059,judgeSpeechMusic_20210407_logNormShiftAmp,2020.1.2,MacIntel,60,,,,,,,,,,,,,,1,7.00589,,0,1,98,248,88,1,stimuli/stim_20210407_power2amp/equal_lnn_AM3.6Hz_76.m4a,,,
,,,,,,,,,,,,41121,2021-04-23_09h40.22.059,judgeSpeechMusic_20210407_logNormShiftAmp,2020.1.2,MacIntel,60,,,,,,,,,,,,,,1,9.773185,,0,1,99,249,0,1,stimuli/stim_20210407_power2amp/equal_lnn_AM0.6Hz_31.m4a,,,
,,,,,,,,,,,,41121,2021-04-23_09h40.22.059,judgeSpeechMusic_20210407_logNormShiftAmp,2020.1.2,MacIntel,60,,,,,,,,,,,,,,1,5.71138,,0,1,100,250,109,1,stimuli/stim_20210407_power2amp/equal_lnn_AM4.8Hz_35.m4a,,,
,,,,,,,,,,,,41121,2021-04-23_09h40.22.059,judgeSpeechMusic_20210407_logNormShiftAmp,2020.1.2,MacIntel,60,,,,,,,,,,,,,,1,9.889265,,0,1,101,251,27,1,stimuli/stim_20210407_power2amp/equal_lnn_AM1.2Hz_61.m4a,,,
,,,,,,,,,,,,41121,2021-04-23_09h40.22.059,judgeSpeechMusic_20210407_logNormShiftAmp,2020.1.2,MacIntel,60,,,,,,,,,,,,,,1,8.325005,,0,1,102,252,79,1,stimuli/stim_20210407_power2amp/equal_lnn_AM3.6Hz_55.m4a,,,
,,,,,,,,,,,,41121,2021-04-23_09h40.22.059,judgeSpeechMusic_20210407_logNormShiftAmp,2020.1.2,MacIntel,60,,,,,,,,,,,,,,1,18.762095,,0,1,103,253,136,1,stimuli/stim_20210407_power2amp/equal_lnn_AM6Hz_65.m4a,,,
,,,,,,,,,,,,41121,2021-04-23_09h40.22.059,judgeSpeechMusic_20210407_logNormShiftAmp,2020.1.2,MacIntel,60,,,,,,,,,,,,,,1,9.89064,,0,1,104,254,133,1,stimuli/stim_20210407_power2amp/equal_lnn_AM5.4Hz_62.m4a,,,
,,,,,,,,,,,,41121,2021-04-23_09h40.22.059,judgeSpeechMusic_20210407_logNormShiftAmp,2020.1.2,MacIntel,60,,,,,,,,,,,,,,1,10.12861,,0,1,105,255,20,1,stimuli/stim_20210407_power2amp/equal_lnn_AM1.2Hz_99.m4a,,,
,,,,,,,,,,,,41121,2021-04-23_09h40.22.059,judgeSpeechMusic_20210407_logNormShiftAmp,2020.1.2,MacIntel,60,,,,,,,,,,,,,,2,7.559805,,0,1,106,256,3,1,stimuli/stim_20210407_power2amp/equal_lnn_AM0.6Hz_12.m4a,,,
,,,,,,,,,,,,41121,2021-04-23_09h40.22.059,judgeSpeechMusic_20210407_logNormShiftAmp,2020.1.2,MacIntel,60,,,,,,,,,,,,,,2,10.389015,,0,1,107,257,104,1,stimuli/stim_20210407_power2amp/equal_lnn_AM4.2Hz_48.m4a,,,
,,,,,,,,,,,,41121,2021-04-23_09h40.22.059,judgeSpeechMusic_20210407_logNormShiftAmp,2020.1.2,MacIntel,60,,,,,,,,,,,,,,1,6.955475,,0,1,108,258,90,1,stimuli/stim_20210407_power2amp/equal_lnn_AM4.2Hz_85.m4a,,,
,,,,,,,,,,,,41121,2021-04-23_09h40.22.059,judgeSpeechMusic_20210407_logNormShiftAmp,2020.1.2,MacIntel,60,,,,,,,,,,,,,,1,9.72434,,0,1,109,259,140,1,stimuli/stim_20210407_power2amp/equal_lnn_AM6Hz_63.m4a,,,
,,,,,,,,,,,,41121,2021-04-23_09h40.22.059,judgeSpeechMusic_20210407_logNormShiftAmp,2020.1.2,MacIntel,60,,,,,,,,,,,,,,2,18.59546,,0,1,110,260,6,1,stimuli/stim_20210407_power2amp/equal_lnn_AM0.6Hz_18.m4a,,,
,,,,,,,,,,,,41121,2021-04-23_09h40.22.059,judgeSpeechMusic_20210407_logNormShiftAmp,2020.1.2,MacIntel,60,,,,,,,,,,,,,,2,7.78995,,0,1,111,261,9,1,stimuli/stim_20210407_power2amp/equal_lnn_AM0.6Hz_68.m4a,,,
,,,,,,,,,,,,41121,2021-04-23_09h40.22.059,judgeSpeechMusic_20210407_logNormShiftAmp,2020.1.2,MacIntel,60,,,,,,,,,,,,,,2,10.55479,,0,1,112,262,59,1,stimuli/stim_20210407_power2amp/equal_lnn_AM2.4Hz_44.m4a,,,
,,,,,,,,,,,,41121,2021-04-23_09h40.22.059,judgeSpeechMusic_20210407_logNormShiftAmp,2020.1.2,MacIntel,60,,,,,,,,,,,,,,2,17.040275,,0,1,113,263,50,1,stimuli/stim_20210407_power2amp/equal_lnn_AM2.4Hz_5.m4a,,,
,,,,,,,,,,,,41121,2021-04-23_09h40.22.059,judgeSpeechMusic_20210407_logNormShiftAmp,2020.1.2,MacIntel,60,,,,,,,,,,,,,,2,6.60494,,0,1,114,264,41,1,stimuli/stim_20210407_power2amp/equal_lnn_AM1.8Hz_97.m4a,,,
,,,,,,,,,,,,41121,2021-04-23_09h40.22.059,judgeSpeechMusic_20210407_logNormShiftAmp,2020.1.2,MacIntel,60,,,,,,,,,,,,,,2,6.726195,,0,1,115,265,21,1,stimuli/stim_20210407_power2amp/equal_lnn_AM1.2Hz_96.m4a,,,
,,,,,,,,,,,,41121,2021-04-23_09h40.22.059,judgeSpeechMusic_20210407_logNormShiftAmp,2020.1.2,MacIntel,60,,,,,,,,,,,,,,2,12.8127,,0,1,116,266,143,1,stimuli/stim_20210407_power2amp/equal_lnn_AM6Hz_97.m4a,,,
,,,,,,,,,,,,41121,2021-04-23_09h40.22.059,judgeSpeechMusic_20210407_logNormShiftAmp,2020.1.2,MacIntel,60,,,,,,,,,,,,,,1,18.855845,1,1,1,117,267,15,1,stimuli/stim_20210407_power2amp/equal_lnn_AM1.2Hz_87.m4a,1.1584,,
,,,,,,,,,,,,41121,2021-04-23_09h40.22.059,judgeSpeechMusic_20210407_logNormShiftAmp,2020.1.2,MacIntel,60,,,,,,,,,,,,,,1,22.477485,,0,1,118,268,54,1,stimuli/stim_20210407_power2amp/equal_lnn_AM2.4Hz_23.m4a,,,
,,,,,,,,,,,,41121,2021-04-23_09h40.22.059,judgeSpeechMusic_20210407_logNormShiftAmp,2020.1.2,MacIntel,60,,,,,,,,,,,,,,1,6.074985,,0,1,119,269,125,1,stimuli/stim_20210407_power2amp/equal_lnn_AM5.4Hz_14.m4a,,,
,,,,,,,,,,,,41121,2021-04-23_09h40.22.059,judgeSpeechMusic_20210407_logNormShiftAmp,2020.1.2,MacIntel,60,,,,,,,,,,,,,,1,6.780165,,0,1,120,270,119,1,stimuli/stim_20210407_power2amp/equal_lnn_AM4.8Hz_20.m4a,,,
,,,,,,,,,,,,41121,2021-04-23_09h40.22.059,judgeSpeechMusic_20210407_logNormShiftAmp,2020.1.2,MacIntel,60,,,,,,,,,,,,,,2,7.076095,,0,1,121,271,144,1,stimuli/stim_20210407_power2amp/equal_lnn_AM6Hz_12.m4a,,,
,,,,,,,,,,,,41121,2021-04-23_09h40.22.059,judgeSpeechMusic_20210407_logNormShiftAmp,2020.1.2,MacIntel,60,,,,,,,,,,,,,,2,7.55706,,0,1,122,272,24,1,stimuli/stim_20210407_power2amp/equal_lnn_AM1.2Hz_40.m4a,,,
,,,,,,,,,,,,41121,2021-04-23_09h40.22.059,judgeSpeechMusic_20210407_logNormShiftAmp,2020.1.2,MacIntel,60,,,,,,,,,,,,,,1,9.690455,,0,1,123,273,74,1,stimuli/stim_20210407_power2amp/equal_lnn_AM3Hz_89.m4a,,,
,,,,,,,,,,,,41121,2021-04-23_09h40.22.059,judgeSpeechMusic_20210407_logNormShiftAmp,2020.1.2,MacIntel,60,,,,,,,,,,,,,,2,8.624075,,0,1,124,274,86,1,stimuli/stim_20210407_power2amp/equal_lnn_AM3.6Hz_41.m4a,,,
,,,,,,,,,,,,41121,2021-04-23_09h40.22.059,judgeSpeechMusic_20210407_logNormShiftAmp,2020.1.2,MacIntel,60,,,,,,,,,,,,,,1,9.421895,,0,1,125,275,66,1,stimuli/stim_20210407_power2amp/equal_lnn_AM3Hz_84.m4a,,,
,,,,,,,,,,,,41121,2021-04-23_09h40.22.059,judgeSpeechMusic_20210407_logNormShiftAmp,2020.1.2,MacIntel,60,,,,,,,,,,,,,,2,17.242285,,0,1,126,276,87,1,stimuli/stim_20210407_power2amp/equal_lnn_AM3.6Hz_91.m4a,,,
,,,,,,,,,,,,41121,2021-04-23_09h40.22.059,judgeSpeechMusic_20210407_logNormShiftAmp,2020.1.2,MacIntel,60,,,,,,,,,,,,,,1,8.92947,,0,1,127,277,120,1,stimuli/stim_20210407_power2amp/equal_lnn_AM5.4Hz_66.m4a,,,
,,,,,,,,,,,,41121,2021-04-23_09h40.22.059,judgeSpeechMusic_20210407_logNormShiftAmp,2020.1.2,MacIntel,60,,,,,,,,,,,,,,2,16.505345,,0,1,128,278,131,1,stimuli/stim_20210407_power2amp/equal_lnn_AM5.4Hz_34.m4a,,,
,,,,,,,,,,,,41121,2021-04-23_09h40.22.059,judgeSpeechMusic_20210407_logNormShiftAmp,2020.1.2,MacIntel,60,,,,,,,,,,,,,,2,12.57273,,0,1,129,279,106,1,stimuli/stim_20210407_power2amp/equal_lnn_AM4.8Hz_81.m4a,,,
,,,,,,,,,,,,41121,2021-04-23_09h40.22.059,judgeSpeechMusic_20210407_logNormShiftAmp,2020.1.2,MacIntel,60,,,,,,,,,,,,,,1,5.844325,,0,1,130,280,80,1,stimuli/stim_20210407_power2amp/equal_lnn_AM3.6Hz_54.m4a,,,
,,,,,,,,,,,,41121,2021-04-23_09h40.22.059,judgeSpeechMusic_20210407_logNormShiftAmp,2020.1.2,MacIntel,60,,,,,,,,,,,,,,1,6.87565,,0,1,131,281,118,1,stimuli/stim_20210407_power2amp/equal_lnn_AM4.8Hz_47.m4a,,,
,,,,,,,,,,,,41121,2021-04-23_09h40.22.059,judgeSpeechMusic_20210407_logNormShiftAmp,2020.1.2,MacIntel,60,,,,,,,,,,,,,,1,7.906215,,0,1,132,282,64,1,stimuli/stim_20210407_power2amp/equal_lnn_AM3Hz_9.m4a,,,
,,,,,,,,,,,,41121,2021-04-23_09h40.22.059,judgeSpeechMusic_20210407_logNormShiftAmp,2020.1.2,MacIntel,60,,,,,,,,,,,,,,1,38.78913,,0,1,133,283,124,1,stimuli/stim_20210407_power2amp/equal_lnn_AM5.4Hz_54.m4a,,,
,,,,,,,,,,,,41121,2021-04-23_09h40.22.059,judgeSpeechMusic_20210407_logNormShiftAmp,2020.1.2,MacIntel,60,,,,,,,,,,,,,,1,33.54413,,0,1,134,284,146,1,stimuli/stim_20210407_power2amp/equal_lnn_AM6Hz_94.m4a,,,
,,,,,,,,,,,,41121,2021-04-23_09h40.22.059,judgeSpeechMusic_20210407_logNormShiftAmp,2020.1.2,MacIntel,60,,,,,,,,,,,,,,2,10.10641,,0,1,135,285,82,1,stimuli/stim_20210407_power2amp/equal_lnn_AM3.6Hz_63.m4a,,,
,,,,,,,,,,,,41121,2021-04-23_09h40.22.059,judgeSpeechMusic_20210407_logNormShiftAmp,2020.1.2,MacIntel,60,,,,,,,,,,,,,,1,11.771325,,0,1,136,286,19,1,stimuli/stim_20210407_power2amp/equal_lnn_AM1.2Hz_66.m4a,,,
,,,,,,,,,,,,41121,2021-04-23_09h40.22.059,judgeSpeechMusic_20210407_logNormShiftAmp,2020.1.2,MacIntel,60,,,,,,,,,,,,,,2,35.89439,,0,1,137,287,5,1,stimuli/stim_20210407_power2amp/equal_lnn_AM0.6Hz_83.m4a,,,
,,,,,,,,,,,,41121,2021-04-23_09h40.22.059,judgeSpeechMusic_20210407_logNormShiftAmp,2020.1.2,MacIntel,60,,,,,,,,,,,,,,2,71.956095,,0,1,138,288,35,1,stimuli/stim_20210407_power2amp/equal_lnn_AM1.8Hz_19.m4a,,,
,,,,,,,,,,,,41121,2021-04-23_09h40.22.059,judgeSpeechMusic_20210407_logNormShiftAmp,2020.1.2,MacIntel,60,,,,,,,,,,,,,,1,6.561365,,0,1,139,289,111,1,stimuli/stim_20210407_power2amp/equal_lnn_AM4.8Hz_2.m4a,,,
,,,,,,,,,,,,41121,2021-04-23_09h40.22.059,judgeSpeechMusic_20210407_logNormShiftAmp,2020.1.2,MacIntel,60,,,,,,,,,,,,,,2,6.53818,,0,1,140,290,84,1,stimuli/stim_20210407_power2amp/equal_lnn_AM3.6Hz_86.m4a,,,
,,,,,,,,,,,,41121,2021-04-23_09h40.22.059,judgeSpeechMusic_20210407_logNormShiftAmp,2020.1.2,MacIntel,60,,,,,,,,,,,,,,1,7.294315,2,1,1,141,291,13,1,stimuli/stim_20210407_power2amp/equal_lnn_AM0.6Hz_73.m4a,1.431535,,
,,,,,,,,,,,,41121,2021-04-23_09h40.22.059,judgeSpeechMusic_20210407_logNormShiftAmp,2020.1.2,MacIntel,60,,,,,,,,,,,,,,1,39.79321,,0,1,142,292,138,1,stimuli/stim_20210407_power2amp/equal_lnn_AM6Hz_14.m4a,,,
,,,,,,,,,,,,41121,2021-04-23_09h40.22.059,judgeSpeechMusic_20210407_logNormShiftAmp,2020.1.2,MacIntel,60,,,,,,,,,,,,,,2,6.88222,,0,1,143,293,1,1,stimuli/stim_20210407_power2amp/equal_lnn_AM0.6Hz_53.m4a,,,
,,,,,,,,,,,,41121,2021-04-23_09h40.22.059,judgeSpeechMusic_20210407_logNormShiftAmp,2020.1.2,MacIntel,60,,,,,,,,,,,,,,1,6.037735,,0,1,144,294,128,1,stimuli/stim_20210407_power2amp/equal_lnn_AM5.4Hz_57.m4a,,,
,,,,,,,,,,,,41121,2021-04-23_09h40.22.059,judgeSpeechMusic_20210407_logNormShiftAmp,2020.1.2,MacIntel,60,,,,,,,,,,,,,,1,6.856795,,0,1,145,295,69,1,stimuli/stim_20210407_power2amp/equal_lnn_AM3Hz_6.m4a,,,
,,,,,,,,,,,,41121,2021-04-23_09h40.22.059,judgeSpeechMusic_20210407_logNormShiftAmp,2020.1.2,MacIntel,60,,,,,,,,,,,,,,2,8.492105,,0,1,146,296,145,1,stimuli/stim_20210407_power2amp/equal_lnn_AM6Hz_1.m4a,,,
,,,,,,,,,,,,41121,2021-04-23_09h40.22.059,judgeSpeechMusic_20210407_logNormShiftAmp,2020.1.2,MacIntel,60,,,,,,,,,,,,,,2,9.26023,,0,1,147,297,18,1,stimuli/stim_20210407_power2amp/equal_lnn_AM1.2Hz_83.m4a,,,
,,,,,,,,,,,,41121,2021-04-23_09h40.22.059,judgeSpeechMusic_20210407_logNormShiftAmp,2020.1.2,MacIntel,60,,,,,,,,,,,,,,2,23.82357,,0,1,148,298,101,1,stimuli/stim_20210407_power2amp/equal_lnn_AM4.2Hz_29.m4a,,,
,,,,,,,,,,,,41121,2021-04-23_09h40.22.059,judgeSpeechMusic_20210407_logNormShiftAmp,2020.1.2,MacIntel,60,,,,,,,,,,,,,,1,8.0258,,0,1,149,299,53,1,stimuli/stim_20210407_power2amp/equal_lnn_AM2.4Hz_30.m4a,,,
,,,,,,,,,,,,41121,2021-04-23_09h40.22.059,judgeSpeechMusic_20210407_logNormShiftAmp,2020.1.2,MacIntel,60,,,,,,,,,,,,,,,,,,,,,,,,,space,11.59868
