volAdjustRep.thisRepN,volAdjustRep.thisTrialN,volAdjustRep.thisN,volAdjustRep.thisIndex,volAdjustRep.ran,participant,date,expName,psychopyVersion,OS,frameRate,headphoneResponse.keys,headphoneResponse.corr,headphoneResponse.rt,headphoneTrial.thisRepN,headphoneTrial.thisTrialN,headphoneTrial.thisN,headphoneTrial.thisIndex,headphoneTrial.ran,headphone_sound1,headphone_sound2,headphone_sound3,corrAns,trainSlider.response,trainSlider.rt,beepTrainResponse.keys,beepTrainResponse.corr,trainingTrials.thisRepN,trainingTrials.thisTrialN,trainingTrials.thisN,trainingTrials.thisIndex,trainingTrials.ran,trainAudioFile,beepTrainResponse.rt,readyReal_resp.keys,readyReal_resp.rt,ratingSlider.response,ratingSlider.rt,beepResp.keys,beepResp.corr,expTrials.thisRepN,expTrials.thisTrialN,expTrials.thisN,expTrials.thisIndex,expTrials.ran,audioFile,beepResp.rt,end_resp.keys,end_resp.rt
0,0,0,0,1,41130,2021-05-08_18h40.19.876,judgeSpeechMusic_20210407_logNormShiftAmp,2020.1.2,Win32,60,,,,,,,,,,,,,,,,,,,,,,,,,,,,,,,,,,,,,,
,,,,,41130,2021-05-08_18h40.19.876,judgeSpeechMusic_20210407_logNormShiftAmp,2020.1.2,Win32,60,2,1,9.98744,0,0,0,3,1,stimuli/screen_origin.wav,stimuli/screen_quiet.wav,stimuli/screen_antiphase.wav,2,,,,,,,,,,,,,,,,,,,,,,,,,,
,,,,,41130,2021-05-08_18h40.19.876,judgeSpeechMusic_20210407_logNormShiftAmp,2020.1.2,Win32,60,3,0,41.63886,0,1,1,5,1,stimuli/screen_quiet.wav,stimuli/screen_origin.wav,stimuli/screen_antiphase.wav,1,,,,,,,,,,,,,,,,,,,,,,,,,,
,,,,,41130,2021-05-08_18h40.19.876,judgeSpeechMusic_20210407_logNormShiftAmp,2020.1.2,Win32,60,3,1,6.67847,0,2,2,0,1,stimuli/screen_antiphase.wav,stimuli/screen_origin.wav,stimuli/screen_quiet.wav,3,,,,,,,,,,,,,,,,,,,,,,,,,,
,,,,,41130,2021-05-08_18h40.19.876,judgeSpeechMusic_20210407_logNormShiftAmp,2020.1.2,Win32,60,3,1,0.796615,0,3,3,2,1,stimuli/screen_origin.wav,stimuli/screen_antiphase.wav,stimuli/screen_quiet.wav,3,,,,,,,,,,,,,,,,,,,,,,,,,,
,,,,,41130,2021-05-08_18h40.19.876,judgeSpeechMusic_20210407_logNormShiftAmp,2020.1.2,Win32,60,1,1,1.023325,0,4,4,4,1,stimuli/screen_quiet.wav,stimuli/screen_antiphase.wav,stimuli/screen_origin.wav,1,,,,,,,,,,,,,,,,,,,,,,,,,,
,,,,,41130,2021-05-08_18h40.19.876,judgeSpeechMusic_20210407_logNormShiftAmp,2020.1.2,Win32,60,2,1,0.40044,0,5,5,1,1,stimuli/screen_antiphase.wav,stimuli/screen_quiet.wav,stimuli/screen_origin.wav,2,,,,,,,,,,,,,,,,,,,,,,,,,,
,,,,,41130,2021-05-08_18h40.19.876,judgeSpeechMusic_20210407_logNormShiftAmp,2020.1.2,Win32,60,,,,,,,,,,,,,1,11.14019,,0,0,0,0,3,1,stimuli/stim_20210407_power2amp/equal_lnn_AM_training5.1Hz.m4a,,,,,,,,,,,,,,,,
,,,,,41130,2021-05-08_18h40.19.876,judgeSpeechMusic_20210407_logNormShiftAmp,2020.1.2,Win32,60,,,,,,,,,,,,,1,8.98642,,0,0,1,1,2,1,stimuli/stim_20210407_power2amp/equal_lnn_AM_training3.9Hz.m4a,,,,,,,,,,,,,,,,
,,,,,41130,2021-05-08_18h40.19.876,judgeSpeechMusic_20210407_logNormShiftAmp,2020.1.2,Win32,60,,,,,,,,,,,,,2,6.153675,1,1,0,2,2,1,1,stimuli/stim_20210407_power2amp/equal_lnn_AM_training2.7Hz.m4a,2.620435,,,,,,,,,,,,,,,
,,,,,41130,2021-05-08_18h40.19.876,judgeSpeechMusic_20210407_logNormShiftAmp,2020.1.2,Win32,60,,,,,,,,,,,,,2,8.203075,,0,0,3,3,0,1,stimuli/stim_20210407_power2amp/equal_lnn_AM_training1.5Hz.m4a,,,,,,,,,,,,,,,,
,,,,,41130,2021-05-08_18h40.19.876,judgeSpeechMusic_20210407_logNormShiftAmp,2020.1.2,Win32,60,,,,,,,,,,,,,,,,,,,,,,,,space,3.092745,2,7.700005,,0,0,0,0,106,1,stimuli/stim_20210407_power2amp/equal_lnn_AM4.8Hz_71.m4a,,,
,,,,,41130,2021-05-08_18h40.19.876,judgeSpeechMusic_20210407_logNormShiftAmp,2020.1.2,Win32,60,,,,,,,,,,,,,,,,,,,,,,,,,,1,6.15073,,0,0,1,1,78,1,stimuli/stim_20210407_power2amp/equal_lnn_AM3.6Hz_93.m4a,,,
,,,,,41130,2021-05-08_18h40.19.876,judgeSpeechMusic_20210407_logNormShiftAmp,2020.1.2,Win32,60,,,,,,,,,,,,,,,,,,,,,,,,,,2,6.6182,,0,0,2,2,71,1,stimuli/stim_20210407_power2amp/equal_lnn_AM3Hz_7.m4a,,,
,,,,,41130,2021-05-08_18h40.19.876,judgeSpeechMusic_20210407_logNormShiftAmp,2020.1.2,Win32,60,,,,,,,,,,,,,,,,,,,,,,,,,,1,6.404335,,0,0,3,3,96,1,stimuli/stim_20210407_power2amp/equal_lnn_AM4.2Hz_72.m4a,,,
,,,,,41130,2021-05-08_18h40.19.876,judgeSpeechMusic_20210407_logNormShiftAmp,2020.1.2,Win32,60,,,,,,,,,,,,,,,,,,,,,,,,,,1,5.99619,,0,0,4,4,40,1,stimuli/stim_20210407_power2amp/equal_lnn_AM1.8Hz_78.m4a,,,
,,,,,41130,2021-05-08_18h40.19.876,judgeSpeechMusic_20210407_logNormShiftAmp,2020.1.2,Win32,60,,,,,,,,,,,,,,,,,,,,,,,,,,1,6.26192,,0,0,5,5,105,1,stimuli/stim_20210407_power2amp/equal_lnn_AM4.8Hz_43.m4a,,,
,,,,,41130,2021-05-08_18h40.19.876,judgeSpeechMusic_20210407_logNormShiftAmp,2020.1.2,Win32,60,,,,,,,,,,,,,,,,,,,,,,,,,,2,6.00958,,0,0,6,6,58,1,stimuli/stim_20210407_power2amp/equal_lnn_AM2.4Hz_41.m4a,,,
,,,,,41130,2021-05-08_18h40.19.876,judgeSpeechMusic_20210407_logNormShiftAmp,2020.1.2,Win32,60,,,,,,,,,,,,,,,,,,,,,,,,,,1,7.36526,,0,0,7,7,12,1,stimuli/stim_20210407_power2amp/equal_lnn_AM0.6Hz_27.m4a,,,
,,,,,41130,2021-05-08_18h40.19.876,judgeSpeechMusic_20210407_logNormShiftAmp,2020.1.2,Win32,60,,,,,,,,,,,,,,,,,,,,,,,,,,2,7.968565,,0,0,8,8,25,1,stimuli/stim_20210407_power2amp/equal_lnn_AM1.2Hz_93.m4a,,,
,,,,,41130,2021-05-08_18h40.19.876,judgeSpeechMusic_20210407_logNormShiftAmp,2020.1.2,Win32,60,,,,,,,,,,,,,,,,,,,,,,,,,,1,6.576805,,0,0,9,9,113,1,stimuli/stim_20210407_power2amp/equal_lnn_AM4.8Hz_18.m4a,,,
,,,,,41130,2021-05-08_18h40.19.876,judgeSpeechMusic_20210407_logNormShiftAmp,2020.1.2,Win32,60,,,,,,,,,,,,,,,,,,,,,,,,,,1,6.30587,,0,0,10,10,45,1,stimuli/stim_20210407_power2amp/equal_lnn_AM2.4Hz_7.m4a,,,
,,,,,41130,2021-05-08_18h40.19.876,judgeSpeechMusic_20210407_logNormShiftAmp,2020.1.2,Win32,60,,,,,,,,,,,,,,,,,,,,,,,,,,2,6.60191,,0,0,11,11,92,1,stimuli/stim_20210407_power2amp/equal_lnn_AM4.2Hz_96.m4a,,,
,,,,,41130,2021-05-08_18h40.19.876,judgeSpeechMusic_20210407_logNormShiftAmp,2020.1.2,Win32,60,,,,,,,,,,,,,,,,,,,,,,,,,,2,7.52266,,0,0,12,12,99,1,stimuli/stim_20210407_power2amp/equal_lnn_AM4.2Hz_1.m4a,,,
,,,,,41130,2021-05-08_18h40.19.876,judgeSpeechMusic_20210407_logNormShiftAmp,2020.1.2,Win32,60,,,,,,,,,,,,,,,,,,,,,,,,,,1,6.512995,,0,0,13,13,5,1,stimuli/stim_20210407_power2amp/equal_lnn_AM0.6Hz_33.m4a,,,
,,,,,41130,2021-05-08_18h40.19.876,judgeSpeechMusic_20210407_logNormShiftAmp,2020.1.2,Win32,60,,,,,,,,,,,,,,,,,,,,,,,,,,1,9.372775,,0,0,14,14,88,1,stimuli/stim_20210407_power2amp/equal_lnn_AM3.6Hz_12.m4a,,,
,,,,,41130,2021-05-08_18h40.19.876,judgeSpeechMusic_20210407_logNormShiftAmp,2020.1.2,Win32,60,,,,,,,,,,,,,,,,,,,,,,,,,,1,5.734865,,0,0,15,15,8,1,stimuli/stim_20210407_power2amp/equal_lnn_AM0.6Hz_50.m4a,,,
,,,,,41130,2021-05-08_18h40.19.876,judgeSpeechMusic_20210407_logNormShiftAmp,2020.1.2,Win32,60,,,,,,,,,,,,,,,,,,,,,,,,,,1,6.126455,,0,0,16,16,70,1,stimuli/stim_20210407_power2amp/equal_lnn_AM3Hz_39.m4a,,,
,,,,,41130,2021-05-08_18h40.19.876,judgeSpeechMusic_20210407_logNormShiftAmp,2020.1.2,Win32,60,,,,,,,,,,,,,,,,,,,,,,,,,,2,6.01393,,0,0,17,17,116,1,stimuli/stim_20210407_power2amp/equal_lnn_AM4.8Hz_10.m4a,,,
,,,,,41130,2021-05-08_18h40.19.876,judgeSpeechMusic_20210407_logNormShiftAmp,2020.1.2,Win32,60,,,,,,,,,,,,,,,,,,,,,,,,,,2,6.40465,,0,0,18,18,81,1,stimuli/stim_20210407_power2amp/equal_lnn_AM3.6Hz_22.m4a,,,
,,,,,41130,2021-05-08_18h40.19.876,judgeSpeechMusic_20210407_logNormShiftAmp,2020.1.2,Win32,60,,,,,,,,,,,,,,,,,,,,,,,,,,1,6.587155,,0,0,19,19,15,1,stimuli/stim_20210407_power2amp/equal_lnn_AM1.2Hz_79.m4a,,,
,,,,,41130,2021-05-08_18h40.19.876,judgeSpeechMusic_20210407_logNormShiftAmp,2020.1.2,Win32,60,,,,,,,,,,,,,,,,,,,,,,,,,,1,6.19572,,0,0,20,20,31,1,stimuli/stim_20210407_power2amp/equal_lnn_AM1.8Hz_70.m4a,,,
,,,,,41130,2021-05-08_18h40.19.876,judgeSpeechMusic_20210407_logNormShiftAmp,2020.1.2,Win32,60,,,,,,,,,,,,,,,,,,,,,,,,,,1,6.36405,,0,0,21,21,122,1,stimuli/stim_20210407_power2amp/equal_lnn_AM5.4Hz_32.m4a,,,
,,,,,41130,2021-05-08_18h40.19.876,judgeSpeechMusic_20210407_logNormShiftAmp,2020.1.2,Win32,60,,,,,,,,,,,,,,,,,,,,,,,,,,1,5.72604,,0,0,22,22,16,1,stimuli/stim_20210407_power2amp/equal_lnn_AM1.2Hz_22.m4a,,,
,,,,,41130,2021-05-08_18h40.19.876,judgeSpeechMusic_20210407_logNormShiftAmp,2020.1.2,Win32,60,,,,,,,,,,,,,,,,,,,,,,,,,,2,5.85117,,0,0,23,23,38,1,stimuli/stim_20210407_power2amp/equal_lnn_AM1.8Hz_49.m4a,,,
,,,,,41130,2021-05-08_18h40.19.876,judgeSpeechMusic_20210407_logNormShiftAmp,2020.1.2,Win32,60,,,,,,,,,,,,,,,,,,,,,,,,,,2,6.386415,,0,0,24,24,108,1,stimuli/stim_20210407_power2amp/equal_lnn_AM4.8Hz_26.m4a,,,
,,,,,41130,2021-05-08_18h40.19.876,judgeSpeechMusic_20210407_logNormShiftAmp,2020.1.2,Win32,60,,,,,,,,,,,,,,,,,,,,,,,,,,2,5.840865,,0,0,25,25,63,1,stimuli/stim_20210407_power2amp/equal_lnn_AM3Hz_1.m4a,,,
,,,,,41130,2021-05-08_18h40.19.876,judgeSpeechMusic_20210407_logNormShiftAmp,2020.1.2,Win32,60,,,,,,,,,,,,,,,,,,,,,,,,,,1,5.945235,,0,0,26,26,14,1,stimuli/stim_20210407_power2amp/equal_lnn_AM0.6Hz_73.m4a,,,
,,,,,41130,2021-05-08_18h40.19.876,judgeSpeechMusic_20210407_logNormShiftAmp,2020.1.2,Win32,60,,,,,,,,,,,,,,,,,,,,,,,,,,2,5.83628,,0,0,27,27,53,1,stimuli/stim_20210407_power2amp/equal_lnn_AM2.4Hz_75.m4a,,,
,,,,,41130,2021-05-08_18h40.19.876,judgeSpeechMusic_20210407_logNormShiftAmp,2020.1.2,Win32,60,,,,,,,,,,,,,,,,,,,,,,,,,,2,6.595405,,0,0,28,28,133,1,stimuli/stim_20210407_power2amp/equal_lnn_AM5.4Hz_9.m4a,,,
,,,,,41130,2021-05-08_18h40.19.876,judgeSpeechMusic_20210407_logNormShiftAmp,2020.1.2,Win32,60,,,,,,,,,,,,,,,,,,,,,,,,,,1,5.925905,,0,0,29,29,13,1,stimuli/stim_20210407_power2amp/equal_lnn_AM0.6Hz_6.m4a,,,
,,,,,41130,2021-05-08_18h40.19.876,judgeSpeechMusic_20210407_logNormShiftAmp,2020.1.2,Win32,60,,,,,,,,,,,,,,,,,,,,,,,,,,2,6.74611,,0,0,30,30,120,1,stimuli/stim_20210407_power2amp/equal_lnn_AM5.4Hz_33.m4a,,,
,,,,,41130,2021-05-08_18h40.19.876,judgeSpeechMusic_20210407_logNormShiftAmp,2020.1.2,Win32,60,,,,,,,,,,,,,,,,,,,,,,,,,,1,5.819735,,0,0,31,31,74,1,stimuli/stim_20210407_power2amp/equal_lnn_AM3Hz_96.m4a,,,
,,,,,41130,2021-05-08_18h40.19.876,judgeSpeechMusic_20210407_logNormShiftAmp,2020.1.2,Win32,60,,,,,,,,,,,,,,,,,,,,,,,,,,2,5.969615,,0,0,32,32,138,1,stimuli/stim_20210407_power2amp/equal_lnn_AM6Hz_9.m4a,,,
,,,,,41130,2021-05-08_18h40.19.876,judgeSpeechMusic_20210407_logNormShiftAmp,2020.1.2,Win32,60,,,,,,,,,,,,,,,,,,,,,,,,,,2,6.10669,4,1,0,33,33,66,1,stimuli/stim_20210407_power2amp/equal_lnn_AM3Hz_46.m4a,2.807285,,
,,,,,41130,2021-05-08_18h40.19.876,judgeSpeechMusic_20210407_logNormShiftAmp,2020.1.2,Win32,60,,,,,,,,,,,,,,,,,,,,,,,,,,1,6.889985,,0,0,34,34,79,1,stimuli/stim_20210407_power2amp/equal_lnn_AM3.6Hz_92.m4a,,,
,,,,,41130,2021-05-08_18h40.19.876,judgeSpeechMusic_20210407_logNormShiftAmp,2020.1.2,Win32,60,,,,,,,,,,,,,,,,,,,,,,,,,,2,6.885365,,0,0,35,35,61,1,stimuli/stim_20210407_power2amp/equal_lnn_AM3Hz_14.m4a,,,
,,,,,41130,2021-05-08_18h40.19.876,judgeSpeechMusic_20210407_logNormShiftAmp,2020.1.2,Win32,60,,,,,,,,,,,,,,,,,,,,,,,,,,1,8.2209,,0,0,36,36,93,1,stimuli/stim_20210407_power2amp/equal_lnn_AM4.2Hz_98.m4a,,,
,,,,,41130,2021-05-08_18h40.19.876,judgeSpeechMusic_20210407_logNormShiftAmp,2020.1.2,Win32,60,,,,,,,,,,,,,,,,,,,,,,,,,,1,5.971325,,0,0,37,37,118,1,stimuli/stim_20210407_power2amp/equal_lnn_AM4.8Hz_6.m4a,,,
,,,,,41130,2021-05-08_18h40.19.876,judgeSpeechMusic_20210407_logNormShiftAmp,2020.1.2,Win32,60,,,,,,,,,,,,,,,,,,,,,,,,,,2,6.03835,,0,0,38,38,137,1,stimuli/stim_20210407_power2amp/equal_lnn_AM6Hz_67.m4a,,,
,,,,,41130,2021-05-08_18h40.19.876,judgeSpeechMusic_20210407_logNormShiftAmp,2020.1.2,Win32,60,,,,,,,,,,,,,,,,,,,,,,,,,,2,6.19326,,0,0,39,39,135,1,stimuli/stim_20210407_power2amp/equal_lnn_AM6Hz_26.m4a,,,
,,,,,41130,2021-05-08_18h40.19.876,judgeSpeechMusic_20210407_logNormShiftAmp,2020.1.2,Win32,60,,,,,,,,,,,,,,,,,,,,,,,,,,2,7.07468,,0,0,40,40,107,1,stimuli/stim_20210407_power2amp/equal_lnn_AM4.8Hz_75.m4a,,,
,,,,,41130,2021-05-08_18h40.19.876,judgeSpeechMusic_20210407_logNormShiftAmp,2020.1.2,Win32,60,,,,,,,,,,,,,,,,,,,,,,,,,,1,8.043785,,0,0,41,41,36,1,stimuli/stim_20210407_power2amp/equal_lnn_AM1.8Hz_99.m4a,,,
,,,,,41130,2021-05-08_18h40.19.876,judgeSpeechMusic_20210407_logNormShiftAmp,2020.1.2,Win32,60,,,,,,,,,,,,,,,,,,,,,,,,,,1,7.33881,,0,0,42,42,23,1,stimuli/stim_20210407_power2amp/equal_lnn_AM1.2Hz_4.m4a,,,
,,,,,41130,2021-05-08_18h40.19.876,judgeSpeechMusic_20210407_logNormShiftAmp,2020.1.2,Win32,60,,,,,,,,,,,,,,,,,,,,,,,,,,1,6.752195,,0,0,43,43,51,1,stimuli/stim_20210407_power2amp/equal_lnn_AM2.4Hz_28.m4a,,,
,,,,,41130,2021-05-08_18h40.19.876,judgeSpeechMusic_20210407_logNormShiftAmp,2020.1.2,Win32,60,,,,,,,,,,,,,,,,,,,,,,,,,,2,6.043555,,0,0,44,44,98,1,stimuli/stim_20210407_power2amp/equal_lnn_AM4.2Hz_10.m4a,,,
,,,,,41130,2021-05-08_18h40.19.876,judgeSpeechMusic_20210407_logNormShiftAmp,2020.1.2,Win32,60,,,,,,,,,,,,,,,,,,,,,,,,,,2,6.637385,,0,0,45,45,64,1,stimuli/stim_20210407_power2amp/equal_lnn_AM3Hz_19.m4a,,,
,,,,,41130,2021-05-08_18h40.19.876,judgeSpeechMusic_20210407_logNormShiftAmp,2020.1.2,Win32,60,,,,,,,,,,,,,,,,,,,,,,,,,,1,8.82603,,0,0,46,46,68,1,stimuli/stim_20210407_power2amp/equal_lnn_AM3Hz_97.m4a,,,
,,,,,41130,2021-05-08_18h40.19.876,judgeSpeechMusic_20210407_logNormShiftAmp,2020.1.2,Win32,60,,,,,,,,,,,,,,,,,,,,,,,,,,2,5.8186,,0,0,47,47,132,1,stimuli/stim_20210407_power2amp/equal_lnn_AM5.4Hz_78.m4a,,,
,,,,,41130,2021-05-08_18h40.19.876,judgeSpeechMusic_20210407_logNormShiftAmp,2020.1.2,Win32,60,,,,,,,,,,,,,,,,,,,,,,,,,,2,5.634555,,0,0,48,48,139,1,stimuli/stim_20210407_power2amp/equal_lnn_AM6Hz_2.m4a,,,
,,,,,41130,2021-05-08_18h40.19.876,judgeSpeechMusic_20210407_logNormShiftAmp,2020.1.2,Win32,60,,,,,,,,,,,,,,,,,,,,,,,,,,2,5.569145,,0,0,49,49,101,1,stimuli/stim_20210407_power2amp/equal_lnn_AM4.2Hz_83.m4a,,,
,,,,,41130,2021-05-08_18h40.19.876,judgeSpeechMusic_20210407_logNormShiftAmp,2020.1.2,Win32,60,,,,,,,,,,,,,,,,,,,,,,,,,,2,7.10251,,0,0,50,50,47,1,stimuli/stim_20210407_power2amp/equal_lnn_AM2.4Hz_69.m4a,,,
,,,,,41130,2021-05-08_18h40.19.876,judgeSpeechMusic_20210407_logNormShiftAmp,2020.1.2,Win32,60,,,,,,,,,,,,,,,,,,,,,,,,,,2,5.68527,,0,0,51,51,43,1,stimuli/stim_20210407_power2amp/equal_lnn_AM1.8Hz_28.m4a,,,
,,,,,41130,2021-05-08_18h40.19.876,judgeSpeechMusic_20210407_logNormShiftAmp,2020.1.2,Win32,60,,,,,,,,,,,,,,,,,,,,,,,,,,2,6.558155,,0,0,52,52,17,1,stimuli/stim_20210407_power2amp/equal_lnn_AM1.2Hz_97.m4a,,,
,,,,,41130,2021-05-08_18h40.19.876,judgeSpeechMusic_20210407_logNormShiftAmp,2020.1.2,Win32,60,,,,,,,,,,,,,,,,,,,,,,,,,,2,5.75922,,0,0,53,53,119,1,stimuli/stim_20210407_power2amp/equal_lnn_AM4.8Hz_21.m4a,,,
,,,,,41130,2021-05-08_18h40.19.876,judgeSpeechMusic_20210407_logNormShiftAmp,2020.1.2,Win32,60,,,,,,,,,,,,,,,,,,,,,,,,,,2,5.914225,,0,0,54,54,134,1,stimuli/stim_20210407_power2amp/equal_lnn_AM5.4Hz_27.m4a,,,
,,,,,41130,2021-05-08_18h40.19.876,judgeSpeechMusic_20210407_logNormShiftAmp,2020.1.2,Win32,60,,,,,,,,,,,,,,,,,,,,,,,,,,2,6.219645,3,1,0,55,55,46,1,stimuli/stim_20210407_power2amp/equal_lnn_AM2.4Hz_39.m4a,2.054295,,
,,,,,41130,2021-05-08_18h40.19.876,judgeSpeechMusic_20210407_logNormShiftAmp,2020.1.2,Win32,60,,,,,,,,,,,,,,,,,,,,,,,,,,1,5.92706,,0,0,56,56,22,1,stimuli/stim_20210407_power2amp/equal_lnn_AM1.2Hz_69.m4a,,,
,,,,,41130,2021-05-08_18h40.19.876,judgeSpeechMusic_20210407_logNormShiftAmp,2020.1.2,Win32,60,,,,,,,,,,,,,,,,,,,,,,,,,,1,6.24551,,0,0,57,57,11,1,stimuli/stim_20210407_power2amp/equal_lnn_AM0.6Hz_58.m4a,,,
,,,,,41130,2021-05-08_18h40.19.876,judgeSpeechMusic_20210407_logNormShiftAmp,2020.1.2,Win32,60,,,,,,,,,,,,,,,,,,,,,,,,,,1,6.435785,,0,0,58,58,24,1,stimuli/stim_20210407_power2amp/equal_lnn_AM1.2Hz_14.m4a,,,
,,,,,41130,2021-05-08_18h40.19.876,judgeSpeechMusic_20210407_logNormShiftAmp,2020.1.2,Win32,60,,,,,,,,,,,,,,,,,,,,,,,,,,2,6.24465,,0,0,59,59,77,1,stimuli/stim_20210407_power2amp/equal_lnn_AM3.6Hz_89.m4a,,,
,,,,,41130,2021-05-08_18h40.19.876,judgeSpeechMusic_20210407_logNormShiftAmp,2020.1.2,Win32,60,,,,,,,,,,,,,,,,,,,,,,,,,,2,7.297025,,0,0,60,60,39,1,stimuli/stim_20210407_power2amp/equal_lnn_AM1.8Hz_48.m4a,,,
,,,,,41130,2021-05-08_18h40.19.876,judgeSpeechMusic_20210407_logNormShiftAmp,2020.1.2,Win32,60,,,,,,,,,,,,,,,,,,,,,,,,,,1,5.956335,,0,0,61,61,4,1,stimuli/stim_20210407_power2amp/equal_lnn_AM0.6Hz_21.m4a,,,
,,,,,41130,2021-05-08_18h40.19.876,judgeSpeechMusic_20210407_logNormShiftAmp,2020.1.2,Win32,60,,,,,,,,,,,,,,,,,,,,,,,,,,2,6.02083,,0,0,62,62,94,1,stimuli/stim_20210407_power2amp/equal_lnn_AM4.2Hz_69.m4a,,,
,,,,,41130,2021-05-08_18h40.19.876,judgeSpeechMusic_20210407_logNormShiftAmp,2020.1.2,Win32,60,,,,,,,,,,,,,,,,,,,,,,,,,,2,6.11295,,0,0,63,63,75,1,stimuli/stim_20210407_power2amp/equal_lnn_AM3.6Hz_57.m4a,,,
,,,,,41130,2021-05-08_18h40.19.876,judgeSpeechMusic_20210407_logNormShiftAmp,2020.1.2,Win32,60,,,,,,,,,,,,,,,,,,,,,,,,,,1,6.280225,,0,0,64,64,37,1,stimuli/stim_20210407_power2amp/equal_lnn_AM1.8Hz_86.m4a,,,
,,,,,41130,2021-05-08_18h40.19.876,judgeSpeechMusic_20210407_logNormShiftAmp,2020.1.2,Win32,60,,,,,,,,,,,,,,,,,,,,,,,,,,2,7.009415,,0,0,65,65,115,1,stimuli/stim_20210407_power2amp/equal_lnn_AM4.8Hz_29.m4a,,,
,,,,,41130,2021-05-08_18h40.19.876,judgeSpeechMusic_20210407_logNormShiftAmp,2020.1.2,Win32,60,,,,,,,,,,,,,,,,,,,,,,,,,,2,26.31999,,0,0,66,66,21,1,stimuli/stim_20210407_power2amp/equal_lnn_AM1.2Hz_45.m4a,,,
,,,,,41130,2021-05-08_18h40.19.876,judgeSpeechMusic_20210407_logNormShiftAmp,2020.1.2,Win32,60,,,,,,,,,,,,,,,,,,,,,,,,,,1,7.136765,,0,0,67,67,28,1,stimuli/stim_20210407_power2amp/equal_lnn_AM1.2Hz_31.m4a,,,
,,,,,41130,2021-05-08_18h40.19.876,judgeSpeechMusic_20210407_logNormShiftAmp,2020.1.2,Win32,60,,,,,,,,,,,,,,,,,,,,,,,,,,1,6.524915,,0,0,68,68,83,1,stimuli/stim_20210407_power2amp/equal_lnn_AM3.6Hz_38.m4a,,,
,,,,,41130,2021-05-08_18h40.19.876,judgeSpeechMusic_20210407_logNormShiftAmp,2020.1.2,Win32,60,,,,,,,,,,,,,,,,,,,,,,,,,,2,13.153885,,0,0,69,69,147,1,stimuli/stim_20210407_power2amp/equal_lnn_AM6Hz_80.m4a,,,
,,,,,41130,2021-05-08_18h40.19.876,judgeSpeechMusic_20210407_logNormShiftAmp,2020.1.2,Win32,60,,,,,,,,,,,,,,,,,,,,,,,,,,2,6.56913,,0,0,70,70,121,1,stimuli/stim_20210407_power2amp/equal_lnn_AM5.4Hz_6.m4a,,,
,,,,,41130,2021-05-08_18h40.19.876,judgeSpeechMusic_20210407_logNormShiftAmp,2020.1.2,Win32,60,,,,,,,,,,,,,,,,,,,,,,,,,,2,5.892895,,0,0,71,71,55,1,stimuli/stim_20210407_power2amp/equal_lnn_AM2.4Hz_88.m4a,,,
,,,,,41130,2021-05-08_18h40.19.876,judgeSpeechMusic_20210407_logNormShiftAmp,2020.1.2,Win32,60,,,,,,,,,,,,,,,,,,,,,,,,,,2,6.18837,,0,0,72,72,89,1,stimuli/stim_20210407_power2amp/equal_lnn_AM3.6Hz_56.m4a,,,
,,,,,41130,2021-05-08_18h40.19.876,judgeSpeechMusic_20210407_logNormShiftAmp,2020.1.2,Win32,60,,,,,,,,,,,,,,,,,,,,,,,,,,2,7.449265,,0,0,73,73,62,1,stimuli/stim_20210407_power2amp/equal_lnn_AM3Hz_9.m4a,,,
,,,,,41130,2021-05-08_18h40.19.876,judgeSpeechMusic_20210407_logNormShiftAmp,2020.1.2,Win32,60,,,,,,,,,,,,,,,,,,,,,,,,,,2,7.74763,,0,0,74,74,87,1,stimuli/stim_20210407_power2amp/equal_lnn_AM3.6Hz_46.m4a,,,
,,,,,41130,2021-05-08_18h40.19.876,judgeSpeechMusic_20210407_logNormShiftAmp,2020.1.2,Win32,60,,,,,,,,,,,,,,,,,,,,,,,,,,1,7.292295,,0,0,75,75,141,1,stimuli/stim_20210407_power2amp/equal_lnn_AM6Hz_92.m4a,,,
,,,,,41130,2021-05-08_18h40.19.876,judgeSpeechMusic_20210407_logNormShiftAmp,2020.1.2,Win32,60,,,,,,,,,,,,,,,,,,,,,,,,,,1,6.15262,2,1,0,76,76,44,1,stimuli/stim_20210407_power2amp/equal_lnn_AM1.8Hz_94.m4a,1.51295,,
,,,,,41130,2021-05-08_18h40.19.876,judgeSpeechMusic_20210407_logNormShiftAmp,2020.1.2,Win32,60,,,,,,,,,,,,,,,,,,,,,,,,,,1,6.52892,,0,0,77,77,0,1,stimuli/stim_20210407_power2amp/equal_lnn_AM0.6Hz_44.m4a,,,
,,,,,41130,2021-05-08_18h40.19.876,judgeSpeechMusic_20210407_logNormShiftAmp,2020.1.2,Win32,60,,,,,,,,,,,,,,,,,,,,,,,,,,1,6.56069,,0,0,78,78,7,1,stimuli/stim_20210407_power2amp/equal_lnn_AM0.6Hz_67.m4a,,,
,,,,,41130,2021-05-08_18h40.19.876,judgeSpeechMusic_20210407_logNormShiftAmp,2020.1.2,Win32,60,,,,,,,,,,,,,,,,,,,,,,,,,,2,6.590505,,0,0,79,79,125,1,stimuli/stim_20210407_power2amp/equal_lnn_AM5.4Hz_22.m4a,,,
,,,,,41130,2021-05-08_18h40.19.876,judgeSpeechMusic_20210407_logNormShiftAmp,2020.1.2,Win32,60,,,,,,,,,,,,,,,,,,,,,,,,,,2,6.618885,,0,0,80,80,26,1,stimuli/stim_20210407_power2amp/equal_lnn_AM1.2Hz_30.m4a,,,
,,,,,41130,2021-05-08_18h40.19.876,judgeSpeechMusic_20210407_logNormShiftAmp,2020.1.2,Win32,60,,,,,,,,,,,,,,,,,,,,,,,,,,2,7.937915,,0,0,81,81,41,1,stimuli/stim_20210407_power2amp/equal_lnn_AM1.8Hz_79.m4a,,,
,,,,,41130,2021-05-08_18h40.19.876,judgeSpeechMusic_20210407_logNormShiftAmp,2020.1.2,Win32,60,,,,,,,,,,,,,,,,,,,,,,,,,,1,7.434755,,0,0,82,82,49,1,stimuli/stim_20210407_power2amp/equal_lnn_AM2.4Hz_58.m4a,,,
,,,,,41130,2021-05-08_18h40.19.876,judgeSpeechMusic_20210407_logNormShiftAmp,2020.1.2,Win32,60,,,,,,,,,,,,,,,,,,,,,,,,,,2,5.91467,,0,0,83,83,109,1,stimuli/stim_20210407_power2amp/equal_lnn_AM4.8Hz_17.m4a,,,
,,,,,41130,2021-05-08_18h40.19.876,judgeSpeechMusic_20210407_logNormShiftAmp,2020.1.2,Win32,60,,,,,,,,,,,,,,,,,,,,,,,,,,1,6.39457,,0,0,84,84,52,1,stimuli/stim_20210407_power2amp/equal_lnn_AM2.4Hz_19.m4a,,,
,,,,,41130,2021-05-08_18h40.19.876,judgeSpeechMusic_20210407_logNormShiftAmp,2020.1.2,Win32,60,,,,,,,,,,,,,,,,,,,,,,,,,,2,5.91851,,0,0,85,85,73,1,stimuli/stim_20210407_power2amp/equal_lnn_AM3Hz_28.m4a,,,
,,,,,41130,2021-05-08_18h40.19.876,judgeSpeechMusic_20210407_logNormShiftAmp,2020.1.2,Win32,60,,,,,,,,,,,,,,,,,,,,,,,,,,2,6.76184,,0,0,86,86,100,1,stimuli/stim_20210407_power2amp/equal_lnn_AM4.2Hz_66.m4a,,,
,,,,,41130,2021-05-08_18h40.19.876,judgeSpeechMusic_20210407_logNormShiftAmp,2020.1.2,Win32,60,,,,,,,,,,,,,,,,,,,,,,,,,,2,9.970065,,0,0,87,87,123,1,stimuli/stim_20210407_power2amp/equal_lnn_AM5.4Hz_12.m4a,,,
,,,,,41130,2021-05-08_18h40.19.876,judgeSpeechMusic_20210407_logNormShiftAmp,2020.1.2,Win32,60,,,,,,,,,,,,,,,,,,,,,,,,,,1,6.17544,,0,0,88,88,29,1,stimuli/stim_20210407_power2amp/equal_lnn_AM1.2Hz_60.m4a,,,
,,,,,41130,2021-05-08_18h40.19.876,judgeSpeechMusic_20210407_logNormShiftAmp,2020.1.2,Win32,60,,,,,,,,,,,,,,,,,,,,,,,,,,1,5.70326,,0,0,89,89,80,1,stimuli/stim_20210407_power2amp/equal_lnn_AM3.6Hz_19.m4a,,,
,,,,,41130,2021-05-08_18h40.19.876,judgeSpeechMusic_20210407_logNormShiftAmp,2020.1.2,Win32,60,,,,,,,,,,,,,,,,,,,,,,,,,,2,6.435725,,0,0,90,90,84,1,stimuli/stim_20210407_power2amp/equal_lnn_AM3.6Hz_40.m4a,,,
,,,,,41130,2021-05-08_18h40.19.876,judgeSpeechMusic_20210407_logNormShiftAmp,2020.1.2,Win32,60,,,,,,,,,,,,,,,,,,,,,,,,,,2,6.74096,,0,0,91,91,142,1,stimuli/stim_20210407_power2amp/equal_lnn_AM6Hz_73.m4a,,,
,,,,,41130,2021-05-08_18h40.19.876,judgeSpeechMusic_20210407_logNormShiftAmp,2020.1.2,Win32,60,,,,,,,,,,,,,,,,,,,,,,,,,,2,8.56796,,0,0,92,92,104,1,stimuli/stim_20210407_power2amp/equal_lnn_AM4.2Hz_23.m4a,,,
,,,,,41130,2021-05-08_18h40.19.876,judgeSpeechMusic_20210407_logNormShiftAmp,2020.1.2,Win32,60,,,,,,,,,,,,,,,,,,,,,,,,,,2,7.39074,,0,0,93,93,57,1,stimuli/stim_20210407_power2amp/equal_lnn_AM2.4Hz_17.m4a,,,
,,,,,41130,2021-05-08_18h40.19.876,judgeSpeechMusic_20210407_logNormShiftAmp,2020.1.2,Win32,60,,,,,,,,,,,,,,,,,,,,,,,,,,1,7.40521,,0,0,94,94,1,1,stimuli/stim_20210407_power2amp/equal_lnn_AM0.6Hz_74.m4a,,,
,,,,,41130,2021-05-08_18h40.19.876,judgeSpeechMusic_20210407_logNormShiftAmp,2020.1.2,Win32,60,,,,,,,,,,,,,,,,,,,,,,,,,,2,5.822295,,0,0,95,95,130,1,stimuli/stim_20210407_power2amp/equal_lnn_AM5.4Hz_13.m4a,,,
,,,,,41130,2021-05-08_18h40.19.876,judgeSpeechMusic_20210407_logNormShiftAmp,2020.1.2,Win32,60,,,,,,,,,,,,,,,,,,,,,,,,,,2,6.795055,,0,0,96,96,97,1,stimuli/stim_20210407_power2amp/equal_lnn_AM4.2Hz_89.m4a,,,
,,,,,41130,2021-05-08_18h40.19.876,judgeSpeechMusic_20210407_logNormShiftAmp,2020.1.2,Win32,60,,,,,,,,,,,,,,,,,,,,,,,,,,2,7.260485,,0,0,97,97,67,1,stimuli/stim_20210407_power2amp/equal_lnn_AM3Hz_16.m4a,,,
,,,,,41130,2021-05-08_18h40.19.876,judgeSpeechMusic_20210407_logNormShiftAmp,2020.1.2,Win32,60,,,,,,,,,,,,,,,,,,,,,,,,,,2,7.520635,3,1,0,98,98,90,1,stimuli/stim_20210407_power2amp/equal_lnn_AM4.2Hz_60.m4a,1.763075,,
,,,,,41130,2021-05-08_18h40.19.876,judgeSpeechMusic_20210407_logNormShiftAmp,2020.1.2,Win32,60,,,,,,,,,,,,,,,,,,,,,,,,,,2,6.010765,,0,0,99,99,143,1,stimuli/stim_20210407_power2amp/equal_lnn_AM6Hz_60.m4a,,,
,,,,,41130,2021-05-08_18h40.19.876,judgeSpeechMusic_20210407_logNormShiftAmp,2020.1.2,Win32,60,,,,,,,,,,,,,,,,,,,,,,,,,,1,6.38155,,0,0,100,100,2,1,stimuli/stim_20210407_power2amp/equal_lnn_AM0.6Hz_1.m4a,,,
,,,,,41130,2021-05-08_18h40.19.876,judgeSpeechMusic_20210407_logNormShiftAmp,2020.1.2,Win32,60,,,,,,,,,,,,,,,,,,,,,,,,,,2,5.68314,,0,0,101,101,32,1,stimuli/stim_20210407_power2amp/equal_lnn_AM1.8Hz_82.m4a,,,
,,,,,41130,2021-05-08_18h40.19.876,judgeSpeechMusic_20210407_logNormShiftAmp,2020.1.2,Win32,60,,,,,,,,,,,,,,,,,,,,,,,,,,2,6.35374,,0,0,102,102,110,1,stimuli/stim_20210407_power2amp/equal_lnn_AM4.8Hz_39.m4a,,,
,,,,,41130,2021-05-08_18h40.19.876,judgeSpeechMusic_20210407_logNormShiftAmp,2020.1.2,Win32,60,,,,,,,,,,,,,,,,,,,,,,,,,,2,5.970845,,0,0,103,103,30,1,stimuli/stim_20210407_power2amp/equal_lnn_AM1.8Hz_58.m4a,,,
,,,,,41130,2021-05-08_18h40.19.876,judgeSpeechMusic_20210407_logNormShiftAmp,2020.1.2,Win32,60,,,,,,,,,,,,,,,,,,,,,,,,,,2,6.002775,,0,0,104,104,131,1,stimuli/stim_20210407_power2amp/equal_lnn_AM5.4Hz_86.m4a,,,
,,,,,41130,2021-05-08_18h40.19.876,judgeSpeechMusic_20210407_logNormShiftAmp,2020.1.2,Win32,60,,,,,,,,,,,,,,,,,,,,,,,,,,1,7.76083,,0,0,105,105,56,1,stimuli/stim_20210407_power2amp/equal_lnn_AM2.4Hz_61.m4a,,,
,,,,,41130,2021-05-08_18h40.19.876,judgeSpeechMusic_20210407_logNormShiftAmp,2020.1.2,Win32,60,,,,,,,,,,,,,,,,,,,,,,,,,,2,6.540625,,0,0,106,106,127,1,stimuli/stim_20210407_power2amp/equal_lnn_AM5.4Hz_17.m4a,,,
,,,,,41130,2021-05-08_18h40.19.876,judgeSpeechMusic_20210407_logNormShiftAmp,2020.1.2,Win32,60,,,,,,,,,,,,,,,,,,,,,,,,,,2,8.639375,,0,0,107,107,69,1,stimuli/stim_20210407_power2amp/equal_lnn_AM3Hz_82.m4a,,,
,,,,,41130,2021-05-08_18h40.19.876,judgeSpeechMusic_20210407_logNormShiftAmp,2020.1.2,Win32,60,,,,,,,,,,,,,,,,,,,,,,,,,,2,7.81986,,0,0,108,108,50,1,stimuli/stim_20210407_power2amp/equal_lnn_AM2.4Hz_52.m4a,,,
,,,,,41130,2021-05-08_18h40.19.876,judgeSpeechMusic_20210407_logNormShiftAmp,2020.1.2,Win32,60,,,,,,,,,,,,,,,,,,,,,,,,,,1,7.255695,,0,0,109,109,34,1,stimuli/stim_20210407_power2amp/equal_lnn_AM1.8Hz_100.m4a,,,
,,,,,41130,2021-05-08_18h40.19.876,judgeSpeechMusic_20210407_logNormShiftAmp,2020.1.2,Win32,60,,,,,,,,,,,,,,,,,,,,,,,,,,1,8.106835,,0,0,110,110,82,1,stimuli/stim_20210407_power2amp/equal_lnn_AM3.6Hz_49.m4a,,,
,,,,,41130,2021-05-08_18h40.19.876,judgeSpeechMusic_20210407_logNormShiftAmp,2020.1.2,Win32,60,,,,,,,,,,,,,,,,,,,,,,,,,,2,5.975055,,0,0,111,111,149,1,stimuli/stim_20210407_power2amp/equal_lnn_AM6Hz_57.m4a,,,
,,,,,41130,2021-05-08_18h40.19.876,judgeSpeechMusic_20210407_logNormShiftAmp,2020.1.2,Win32,60,,,,,,,,,,,,,,,,,,,,,,,,,,2,6.15274,,0,0,112,112,126,1,stimuli/stim_20210407_power2amp/equal_lnn_AM5.4Hz_14.m4a,,,
,,,,,41130,2021-05-08_18h40.19.876,judgeSpeechMusic_20210407_logNormShiftAmp,2020.1.2,Win32,60,,,,,,,,,,,,,,,,,,,,,,,,,,2,10.16993,,0,0,113,113,102,1,stimuli/stim_20210407_power2amp/equal_lnn_AM4.2Hz_49.m4a,,,
,,,,,41130,2021-05-08_18h40.19.876,judgeSpeechMusic_20210407_logNormShiftAmp,2020.1.2,Win32,60,,,,,,,,,,,,,,,,,,,,,,,,,,1,6.243185,,0,0,114,114,59,1,stimuli/stim_20210407_power2amp/equal_lnn_AM2.4Hz_87.m4a,,,
,,,,,41130,2021-05-08_18h40.19.876,judgeSpeechMusic_20210407_logNormShiftAmp,2020.1.2,Win32,60,,,,,,,,,,,,,,,,,,,,,,,,,,1,10.53533,,0,0,115,115,54,1,stimuli/stim_20210407_power2amp/equal_lnn_AM2.4Hz_42.m4a,,,
,,,,,41130,2021-05-08_18h40.19.876,judgeSpeechMusic_20210407_logNormShiftAmp,2020.1.2,Win32,60,,,,,,,,,,,,,,,,,,,,,,,,,,2,5.819455,,0,0,116,116,144,1,stimuli/stim_20210407_power2amp/equal_lnn_AM6Hz_31.m4a,,,
,,,,,41130,2021-05-08_18h40.19.876,judgeSpeechMusic_20210407_logNormShiftAmp,2020.1.2,Win32,60,,,,,,,,,,,,,,,,,,,,,,,,,,2,6.255835,,0,0,117,117,128,1,stimuli/stim_20210407_power2amp/equal_lnn_AM5.4Hz_45.m4a,,,
,,,,,41130,2021-05-08_18h40.19.876,judgeSpeechMusic_20210407_logNormShiftAmp,2020.1.2,Win32,60,,,,,,,,,,,,,,,,,,,,,,,,,,2,8.369765,,0,0,118,118,65,1,stimuli/stim_20210407_power2amp/equal_lnn_AM3Hz_8.m4a,,,
,,,,,41130,2021-05-08_18h40.19.876,judgeSpeechMusic_20210407_logNormShiftAmp,2020.1.2,Win32,60,,,,,,,,,,,,,,,,,,,,,,,,,,1,6.235865,,0,0,119,119,3,1,stimuli/stim_20210407_power2amp/equal_lnn_AM0.6Hz_7.m4a,,,
,,,,,41130,2021-05-08_18h40.19.876,judgeSpeechMusic_20210407_logNormShiftAmp,2020.1.2,Win32,60,,,,,,,,,,,,,,,,,,,,,,,,,,2,6.018,,0,0,120,120,145,1,stimuli/stim_20210407_power2amp/equal_lnn_AM6Hz_8.m4a,,,
,,,,,41130,2021-05-08_18h40.19.876,judgeSpeechMusic_20210407_logNormShiftAmp,2020.1.2,Win32,60,,,,,,,,,,,,,,,,,,,,,,,,,,2,6.478005,,0,0,121,121,148,1,stimuli/stim_20210407_power2amp/equal_lnn_AM6Hz_51.m4a,,,
,,,,,41130,2021-05-08_18h40.19.876,judgeSpeechMusic_20210407_logNormShiftAmp,2020.1.2,Win32,60,,,,,,,,,,,,,,,,,,,,,,,,,,2,6.427525,3,1,0,122,122,86,1,stimuli/stim_20210407_power2amp/equal_lnn_AM3.6Hz_45.m4a,1.51499,,
,,,,,41130,2021-05-08_18h40.19.876,judgeSpeechMusic_20210407_logNormShiftAmp,2020.1.2,Win32,60,,,,,,,,,,,,,,,,,,,,,,,,,,1,6.31399,,0,0,123,123,48,1,stimuli/stim_20210407_power2amp/equal_lnn_AM2.4Hz_72.m4a,,,
,,,,,41130,2021-05-08_18h40.19.876,judgeSpeechMusic_20210407_logNormShiftAmp,2020.1.2,Win32,60,,,,,,,,,,,,,,,,,,,,,,,,,,1,5.94404,,0,0,124,124,85,1,stimuli/stim_20210407_power2amp/equal_lnn_AM3.6Hz_82.m4a,,,
,,,,,41130,2021-05-08_18h40.19.876,judgeSpeechMusic_20210407_logNormShiftAmp,2020.1.2,Win32,60,,,,,,,,,,,,,,,,,,,,,,,,,,1,7.85508,,0,0,125,125,9,1,stimuli/stim_20210407_power2amp/equal_lnn_AM0.6Hz_23.m4a,,,
,,,,,41130,2021-05-08_18h40.19.876,judgeSpeechMusic_20210407_logNormShiftAmp,2020.1.2,Win32,60,,,,,,,,,,,,,,,,,,,,,,,,,,2,6.453305,,0,0,126,126,111,1,stimuli/stim_20210407_power2amp/equal_lnn_AM4.8Hz_36.m4a,,,
,,,,,41130,2021-05-08_18h40.19.876,judgeSpeechMusic_20210407_logNormShiftAmp,2020.1.2,Win32,60,,,,,,,,,,,,,,,,,,,,,,,,,,1,6.28133,,0,0,127,127,42,1,stimuli/stim_20210407_power2amp/equal_lnn_AM1.8Hz_27.m4a,,,
,,,,,41130,2021-05-08_18h40.19.876,judgeSpeechMusic_20210407_logNormShiftAmp,2020.1.2,Win32,60,,,,,,,,,,,,,,,,,,,,,,,,,,1,7.57396,,0,0,128,128,124,1,stimuli/stim_20210407_power2amp/equal_lnn_AM5.4Hz_1.m4a,,,
,,,,,41130,2021-05-08_18h40.19.876,judgeSpeechMusic_20210407_logNormShiftAmp,2020.1.2,Win32,60,,,,,,,,,,,,,,,,,,,,,,,,,,2,7.724005,,0,0,129,129,95,1,stimuli/stim_20210407_power2amp/equal_lnn_AM4.2Hz_97.m4a,,,
,,,,,41130,2021-05-08_18h40.19.876,judgeSpeechMusic_20210407_logNormShiftAmp,2020.1.2,Win32,60,,,,,,,,,,,,,,,,,,,,,,,,,,2,6.236575,,0,0,130,130,76,1,stimuli/stim_20210407_power2amp/equal_lnn_AM3.6Hz_11.m4a,,,
,,,,,41130,2021-05-08_18h40.19.876,judgeSpeechMusic_20210407_logNormShiftAmp,2020.1.2,Win32,60,,,,,,,,,,,,,,,,,,,,,,,,,,2,7.1018,,0,0,131,131,117,1,stimuli/stim_20210407_power2amp/equal_lnn_AM4.8Hz_56.m4a,,,
,,,,,41130,2021-05-08_18h40.19.876,judgeSpeechMusic_20210407_logNormShiftAmp,2020.1.2,Win32,60,,,,,,,,,,,,,,,,,,,,,,,,,,2,6.04755,,0,0,132,132,91,1,stimuli/stim_20210407_power2amp/equal_lnn_AM4.2Hz_21.m4a,,,
,,,,,41130,2021-05-08_18h40.19.876,judgeSpeechMusic_20210407_logNormShiftAmp,2020.1.2,Win32,60,,,,,,,,,,,,,,,,,,,,,,,,,,1,7.35211,,0,0,133,133,60,1,stimuli/stim_20210407_power2amp/equal_lnn_AM3Hz_60.m4a,,,
,,,,,41130,2021-05-08_18h40.19.876,judgeSpeechMusic_20210407_logNormShiftAmp,2020.1.2,Win32,60,,,,,,,,,,,,,,,,,,,,,,,,,,1,9.256755,,0,0,134,134,112,1,stimuli/stim_20210407_power2amp/equal_lnn_AM4.8Hz_100.m4a,,,
,,,,,41130,2021-05-08_18h40.19.876,judgeSpeechMusic_20210407_logNormShiftAmp,2020.1.2,Win32,60,,,,,,,,,,,,,,,,,,,,,,,,,,2,6.82493,,0,0,135,135,146,1,stimuli/stim_20210407_power2amp/equal_lnn_AM6Hz_87.m4a,,,
,,,,,41130,2021-05-08_18h40.19.876,judgeSpeechMusic_20210407_logNormShiftAmp,2020.1.2,Win32,60,,,,,,,,,,,,,,,,,,,,,,,,,,1,7.87919,,0,0,136,136,20,1,stimuli/stim_20210407_power2amp/equal_lnn_AM1.2Hz_35.m4a,,,
,,,,,41130,2021-05-08_18h40.19.876,judgeSpeechMusic_20210407_logNormShiftAmp,2020.1.2,Win32,60,,,,,,,,,,,,,,,,,,,,,,,,,,2,6.51829,,0,0,137,137,129,1,stimuli/stim_20210407_power2amp/equal_lnn_AM5.4Hz_79.m4a,,,
,,,,,41130,2021-05-08_18h40.19.876,judgeSpeechMusic_20210407_logNormShiftAmp,2020.1.2,Win32,60,,,,,,,,,,,,,,,,,,,,,,,,,,2,7.353595,,0,0,138,138,140,1,stimuli/stim_20210407_power2amp/equal_lnn_AM6Hz_54.m4a,,,
,,,,,41130,2021-05-08_18h40.19.876,judgeSpeechMusic_20210407_logNormShiftAmp,2020.1.2,Win32,60,,,,,,,,,,,,,,,,,,,,,,,,,,1,8.362065,,0,0,139,139,33,1,stimuli/stim_20210407_power2amp/equal_lnn_AM1.8Hz_89.m4a,,,
,,,,,41130,2021-05-08_18h40.19.876,judgeSpeechMusic_20210407_logNormShiftAmp,2020.1.2,Win32,60,,,,,,,,,,,,,,,,,,,,,,,,,,2,7.909055,,0,0,140,140,136,1,stimuli/stim_20210407_power2amp/equal_lnn_AM6Hz_78.m4a,,,
,,,,,41130,2021-05-08_18h40.19.876,judgeSpeechMusic_20210407_logNormShiftAmp,2020.1.2,Win32,60,,,,,,,,,,,,,,,,,,,,,,,,,,1,8.79327,,0,0,141,141,114,1,stimuli/stim_20210407_power2amp/equal_lnn_AM4.8Hz_69.m4a,,,
,,,,,41130,2021-05-08_18h40.19.876,judgeSpeechMusic_20210407_logNormShiftAmp,2020.1.2,Win32,60,,,,,,,,,,,,,,,,,,,,,,,,,,1,6.1541,,0,0,142,142,6,1,stimuli/stim_20210407_power2amp/equal_lnn_AM0.6Hz_89.m4a,,,
,,,,,41130,2021-05-08_18h40.19.876,judgeSpeechMusic_20210407_logNormShiftAmp,2020.1.2,Win32,60,,,,,,,,,,,,,,,,,,,,,,,,,,1,6.222485,,0,0,143,143,19,1,stimuli/stim_20210407_power2amp/equal_lnn_AM1.2Hz_64.m4a,,,
,,,,,41130,2021-05-08_18h40.19.876,judgeSpeechMusic_20210407_logNormShiftAmp,2020.1.2,Win32,60,,,,,,,,,,,,,,,,,,,,,,,,,,1,5.87106,,0,0,144,144,18,1,stimuli/stim_20210407_power2amp/equal_lnn_AM1.2Hz_63.m4a,,,
,,,,,41130,2021-05-08_18h40.19.876,judgeSpeechMusic_20210407_logNormShiftAmp,2020.1.2,Win32,60,,,,,,,,,,,,,,,,,,,,,,,,,,2,7.89887,,0,0,145,145,72,1,stimuli/stim_20210407_power2amp/equal_lnn_AM3Hz_57.m4a,,,
,,,,,41130,2021-05-08_18h40.19.876,judgeSpeechMusic_20210407_logNormShiftAmp,2020.1.2,Win32,60,,,,,,,,,,,,,,,,,,,,,,,,,,2,6.67793,2,1,0,146,146,35,1,stimuli/stim_20210407_power2amp/equal_lnn_AM1.8Hz_67.m4a,1.659405,,
,,,,,41130,2021-05-08_18h40.19.876,judgeSpeechMusic_20210407_logNormShiftAmp,2020.1.2,Win32,60,,,,,,,,,,,,,,,,,,,,,,,,,,1,6.954615,,0,0,147,147,10,1,stimuli/stim_20210407_power2amp/equal_lnn_AM0.6Hz_80.m4a,,,
,,,,,41130,2021-05-08_18h40.19.876,judgeSpeechMusic_20210407_logNormShiftAmp,2020.1.2,Win32,60,,,,,,,,,,,,,,,,,,,,,,,,,,2,6.22543,,0,0,148,148,103,1,stimuli/stim_20210407_power2amp/equal_lnn_AM4.2Hz_84.m4a,,,
,,,,,41130,2021-05-08_18h40.19.876,judgeSpeechMusic_20210407_logNormShiftAmp,2020.1.2,Win32,60,,,,,,,,,,,,,,,,,,,,,,,,,,1,5.67496,,0,0,149,149,27,1,stimuli/stim_20210407_power2amp/equal_lnn_AM1.2Hz_82.m4a,,,
,,,,,41130,2021-05-08_18h40.19.876,judgeSpeechMusic_20210407_logNormShiftAmp,2020.1.2,Win32,60,,,,,,,,,,,,,,,,,,,,,,,,,,2,5.91449,,0,1,0,150,99,1,stimuli/stim_20210407_power2amp/equal_lnn_AM4.2Hz_1.m4a,,,
,,,,,41130,2021-05-08_18h40.19.876,judgeSpeechMusic_20210407_logNormShiftAmp,2020.1.2,Win32,60,,,,,,,,,,,,,,,,,,,,,,,,,,2,5.75891,,0,1,1,151,63,1,stimuli/stim_20210407_power2amp/equal_lnn_AM3Hz_1.m4a,,,
,,,,,41130,2021-05-08_18h40.19.876,judgeSpeechMusic_20210407_logNormShiftAmp,2020.1.2,Win32,60,,,,,,,,,,,,,,,,,,,,,,,,,,2,7.73245,,0,1,2,152,125,1,stimuli/stim_20210407_power2amp/equal_lnn_AM5.4Hz_22.m4a,,,
,,,,,41130,2021-05-08_18h40.19.876,judgeSpeechMusic_20210407_logNormShiftAmp,2020.1.2,Win32,60,,,,,,,,,,,,,,,,,,,,,,,,,,2,7.66872,,0,1,3,153,100,1,stimuli/stim_20210407_power2amp/equal_lnn_AM4.2Hz_66.m4a,,,
,,,,,41130,2021-05-08_18h40.19.876,judgeSpeechMusic_20210407_logNormShiftAmp,2020.1.2,Win32,60,,,,,,,,,,,,,,,,,,,,,,,,,,2,5.80259,,0,1,4,154,131,1,stimuli/stim_20210407_power2amp/equal_lnn_AM5.4Hz_86.m4a,,,
,,,,,41130,2021-05-08_18h40.19.876,judgeSpeechMusic_20210407_logNormShiftAmp,2020.1.2,Win32,60,,,,,,,,,,,,,,,,,,,,,,,,,,1,5.93766,,0,1,5,155,39,1,stimuli/stim_20210407_power2amp/equal_lnn_AM1.8Hz_48.m4a,,,
,,,,,41130,2021-05-08_18h40.19.876,judgeSpeechMusic_20210407_logNormShiftAmp,2020.1.2,Win32,60,,,,,,,,,,,,,,,,,,,,,,,,,,1,6.252975,,0,1,6,156,75,1,stimuli/stim_20210407_power2amp/equal_lnn_AM3.6Hz_57.m4a,,,
,,,,,41130,2021-05-08_18h40.19.876,judgeSpeechMusic_20210407_logNormShiftAmp,2020.1.2,Win32,60,,,,,,,,,,,,,,,,,,,,,,,,,,1,5.99287,,0,1,7,157,35,1,stimuli/stim_20210407_power2amp/equal_lnn_AM1.8Hz_67.m4a,,,
,,,,,41130,2021-05-08_18h40.19.876,judgeSpeechMusic_20210407_logNormShiftAmp,2020.1.2,Win32,60,,,,,,,,,,,,,,,,,,,,,,,,,,2,8.03125,,0,1,8,158,76,1,stimuli/stim_20210407_power2amp/equal_lnn_AM3.6Hz_11.m4a,,,
,,,,,41130,2021-05-08_18h40.19.876,judgeSpeechMusic_20210407_logNormShiftAmp,2020.1.2,Win32,60,,,,,,,,,,,,,,,,,,,,,,,,,,2,5.638455,,0,1,9,159,134,1,stimuli/stim_20210407_power2amp/equal_lnn_AM5.4Hz_27.m4a,,,
,,,,,41130,2021-05-08_18h40.19.876,judgeSpeechMusic_20210407_logNormShiftAmp,2020.1.2,Win32,60,,,,,,,,,,,,,,,,,,,,,,,,,,1,5.853385,,0,1,10,160,90,1,stimuli/stim_20210407_power2amp/equal_lnn_AM4.2Hz_60.m4a,,,
,,,,,41130,2021-05-08_18h40.19.876,judgeSpeechMusic_20210407_logNormShiftAmp,2020.1.2,Win32,60,,,,,,,,,,,,,,,,,,,,,,,,,,1,7.008035,,0,1,11,161,15,1,stimuli/stim_20210407_power2amp/equal_lnn_AM1.2Hz_79.m4a,,,
,,,,,41130,2021-05-08_18h40.19.876,judgeSpeechMusic_20210407_logNormShiftAmp,2020.1.2,Win32,60,,,,,,,,,,,,,,,,,,,,,,,,,,2,8.08679,,0,1,12,162,81,1,stimuli/stim_20210407_power2amp/equal_lnn_AM3.6Hz_22.m4a,,,
,,,,,41130,2021-05-08_18h40.19.876,judgeSpeechMusic_20210407_logNormShiftAmp,2020.1.2,Win32,60,,,,,,,,,,,,,,,,,,,,,,,,,,1,7.403245,,0,1,13,163,12,1,stimuli/stim_20210407_power2amp/equal_lnn_AM0.6Hz_27.m4a,,,
,,,,,41130,2021-05-08_18h40.19.876,judgeSpeechMusic_20210407_logNormShiftAmp,2020.1.2,Win32,60,,,,,,,,,,,,,,,,,,,,,,,,,,2,7.490095,,0,1,14,164,97,1,stimuli/stim_20210407_power2amp/equal_lnn_AM4.2Hz_89.m4a,,,
,,,,,41130,2021-05-08_18h40.19.876,judgeSpeechMusic_20210407_logNormShiftAmp,2020.1.2,Win32,60,,,,,,,,,,,,,,,,,,,,,,,,,,1,10.54425,,0,1,15,165,72,1,stimuli/stim_20210407_power2amp/equal_lnn_AM3Hz_57.m4a,,,
,,,,,41130,2021-05-08_18h40.19.876,judgeSpeechMusic_20210407_logNormShiftAmp,2020.1.2,Win32,60,,,,,,,,,,,,,,,,,,,,,,,,,,2,6.645425,,0,1,16,166,147,1,stimuli/stim_20210407_power2amp/equal_lnn_AM6Hz_80.m4a,,,
,,,,,41130,2021-05-08_18h40.19.876,judgeSpeechMusic_20210407_logNormShiftAmp,2020.1.2,Win32,60,,,,,,,,,,,,,,,,,,,,,,,,,,1,5.91926,,0,1,17,167,62,1,stimuli/stim_20210407_power2amp/equal_lnn_AM3Hz_9.m4a,,,
,,,,,41130,2021-05-08_18h40.19.876,judgeSpeechMusic_20210407_logNormShiftAmp,2020.1.2,Win32,60,,,,,,,,,,,,,,,,,,,,,,,,,,2,6.173435,,0,1,18,168,133,1,stimuli/stim_20210407_power2amp/equal_lnn_AM5.4Hz_9.m4a,,,
,,,,,41130,2021-05-08_18h40.19.876,judgeSpeechMusic_20210407_logNormShiftAmp,2020.1.2,Win32,60,,,,,,,,,,,,,,,,,,,,,,,,,,1,6.470345,,0,1,19,169,54,1,stimuli/stim_20210407_power2amp/equal_lnn_AM2.4Hz_42.m4a,,,
,,,,,41130,2021-05-08_18h40.19.876,judgeSpeechMusic_20210407_logNormShiftAmp,2020.1.2,Win32,60,,,,,,,,,,,,,,,,,,,,,,,,,,1,6.490785,3,1,1,20,170,118,1,stimuli/stim_20210407_power2amp/equal_lnn_AM4.8Hz_6.m4a,1.443945,,
,,,,,41130,2021-05-08_18h40.19.876,judgeSpeechMusic_20210407_logNormShiftAmp,2020.1.2,Win32,60,,,,,,,,,,,,,,,,,,,,,,,,,,1,6.819775,,0,1,21,171,34,1,stimuli/stim_20210407_power2amp/equal_lnn_AM1.8Hz_100.m4a,,,
,,,,,41130,2021-05-08_18h40.19.876,judgeSpeechMusic_20210407_logNormShiftAmp,2020.1.2,Win32,60,,,,,,,,,,,,,,,,,,,,,,,,,,1,6.393325,,0,1,22,172,7,1,stimuli/stim_20210407_power2amp/equal_lnn_AM0.6Hz_67.m4a,,,
,,,,,41130,2021-05-08_18h40.19.876,judgeSpeechMusic_20210407_logNormShiftAmp,2020.1.2,Win32,60,,,,,,,,,,,,,,,,,,,,,,,,,,1,6.97317,,0,1,23,173,88,1,stimuli/stim_20210407_power2amp/equal_lnn_AM3.6Hz_12.m4a,,,
,,,,,41130,2021-05-08_18h40.19.876,judgeSpeechMusic_20210407_logNormShiftAmp,2020.1.2,Win32,60,,,,,,,,,,,,,,,,,,,,,,,,,,2,7.68526,,0,1,24,174,123,1,stimuli/stim_20210407_power2amp/equal_lnn_AM5.4Hz_12.m4a,,,
,,,,,41130,2021-05-08_18h40.19.876,judgeSpeechMusic_20210407_logNormShiftAmp,2020.1.2,Win32,60,,,,,,,,,,,,,,,,,,,,,,,,,,2,6.507425,,0,1,25,175,143,1,stimuli/stim_20210407_power2amp/equal_lnn_AM6Hz_60.m4a,,,
,,,,,41130,2021-05-08_18h40.19.876,judgeSpeechMusic_20210407_logNormShiftAmp,2020.1.2,Win32,60,,,,,,,,,,,,,,,,,,,,,,,,,,2,6.88052,,0,1,26,176,105,1,stimuli/stim_20210407_power2amp/equal_lnn_AM4.8Hz_43.m4a,,,
,,,,,41130,2021-05-08_18h40.19.876,judgeSpeechMusic_20210407_logNormShiftAmp,2020.1.2,Win32,60,,,,,,,,,,,,,,,,,,,,,,,,,,1,8.07022,,0,1,27,177,87,1,stimuli/stim_20210407_power2amp/equal_lnn_AM3.6Hz_46.m4a,,,
,,,,,41130,2021-05-08_18h40.19.876,judgeSpeechMusic_20210407_logNormShiftAmp,2020.1.2,Win32,60,,,,,,,,,,,,,,,,,,,,,,,,,,2,6.45264,,0,1,28,178,107,1,stimuli/stim_20210407_power2amp/equal_lnn_AM4.8Hz_75.m4a,,,
,,,,,41130,2021-05-08_18h40.19.876,judgeSpeechMusic_20210407_logNormShiftAmp,2020.1.2,Win32,60,,,,,,,,,,,,,,,,,,,,,,,,,,1,12.79124,,0,1,29,179,110,1,stimuli/stim_20210407_power2amp/equal_lnn_AM4.8Hz_39.m4a,,,
,,,,,41130,2021-05-08_18h40.19.876,judgeSpeechMusic_20210407_logNormShiftAmp,2020.1.2,Win32,60,,,,,,,,,,,,,,,,,,,,,,,,,,1,8.431135,,0,1,30,180,21,1,stimuli/stim_20210407_power2amp/equal_lnn_AM1.2Hz_45.m4a,,,
,,,,,41130,2021-05-08_18h40.19.876,judgeSpeechMusic_20210407_logNormShiftAmp,2020.1.2,Win32,60,,,,,,,,,,,,,,,,,,,,,,,,,,1,8.08525,,0,1,31,181,29,1,stimuli/stim_20210407_power2amp/equal_lnn_AM1.2Hz_60.m4a,,,
,,,,,41130,2021-05-08_18h40.19.876,judgeSpeechMusic_20210407_logNormShiftAmp,2020.1.2,Win32,60,,,,,,,,,,,,,,,,,,,,,,,,,,2,9.62694,,0,1,32,182,73,1,stimuli/stim_20210407_power2amp/equal_lnn_AM3Hz_28.m4a,,,
,,,,,41130,2021-05-08_18h40.19.876,judgeSpeechMusic_20210407_logNormShiftAmp,2020.1.2,Win32,60,,,,,,,,,,,,,,,,,,,,,,,,,,1,6.677545,,0,1,33,183,22,1,stimuli/stim_20210407_power2amp/equal_lnn_AM1.2Hz_69.m4a,,,
,,,,,41130,2021-05-08_18h40.19.876,judgeSpeechMusic_20210407_logNormShiftAmp,2020.1.2,Win32,60,,,,,,,,,,,,,,,,,,,,,,,,,,2,7.82208,,0,1,34,184,95,1,stimuli/stim_20210407_power2amp/equal_lnn_AM4.2Hz_97.m4a,,,
,,,,,41130,2021-05-08_18h40.19.876,judgeSpeechMusic_20210407_logNormShiftAmp,2020.1.2,Win32,60,,,,,,,,,,,,,,,,,,,,,,,,,,2,8.809715,,0,1,35,185,92,1,stimuli/stim_20210407_power2amp/equal_lnn_AM4.2Hz_96.m4a,,,
,,,,,41130,2021-05-08_18h40.19.876,judgeSpeechMusic_20210407_logNormShiftAmp,2020.1.2,Win32,60,,,,,,,,,,,,,,,,,,,,,,,,,,2,7.952085,,0,1,36,186,47,1,stimuli/stim_20210407_power2amp/equal_lnn_AM2.4Hz_69.m4a,,,
,,,,,41130,2021-05-08_18h40.19.876,judgeSpeechMusic_20210407_logNormShiftAmp,2020.1.2,Win32,60,,,,,,,,,,,,,,,,,,,,,,,,,,1,5.931055,,0,1,37,187,50,1,stimuli/stim_20210407_power2amp/equal_lnn_AM2.4Hz_52.m4a,,,
,,,,,41130,2021-05-08_18h40.19.876,judgeSpeechMusic_20210407_logNormShiftAmp,2020.1.2,Win32,60,,,,,,,,,,,,,,,,,,,,,,,,,,1,6.09491,,0,1,38,188,64,1,stimuli/stim_20210407_power2amp/equal_lnn_AM3Hz_19.m4a,,,
,,,,,41130,2021-05-08_18h40.19.876,judgeSpeechMusic_20210407_logNormShiftAmp,2020.1.2,Win32,60,,,,,,,,,,,,,,,,,,,,,,,,,,1,6.670285,,0,1,39,189,17,1,stimuli/stim_20210407_power2amp/equal_lnn_AM1.2Hz_97.m4a,,,
,,,,,41130,2021-05-08_18h40.19.876,judgeSpeechMusic_20210407_logNormShiftAmp,2020.1.2,Win32,60,,,,,,,,,,,,,,,,,,,,,,,,,,2,6.401805,3,1,1,40,190,141,1,stimuli/stim_20210407_power2amp/equal_lnn_AM6Hz_92.m4a,1.369235,,
,,,,,41130,2021-05-08_18h40.19.876,judgeSpeechMusic_20210407_logNormShiftAmp,2020.1.2,Win32,60,,,,,,,,,,,,,,,,,,,,,,,,,,2,9.287585,,0,1,41,191,70,1,stimuli/stim_20210407_power2amp/equal_lnn_AM3Hz_39.m4a,,,
,,,,,41130,2021-05-08_18h40.19.876,judgeSpeechMusic_20210407_logNormShiftAmp,2020.1.2,Win32,60,,,,,,,,,,,,,,,,,,,,,,,,,,2,7.22164,,0,1,42,192,94,1,stimuli/stim_20210407_power2amp/equal_lnn_AM4.2Hz_69.m4a,,,
,,,,,41130,2021-05-08_18h40.19.876,judgeSpeechMusic_20210407_logNormShiftAmp,2020.1.2,Win32,60,,,,,,,,,,,,,,,,,,,,,,,,,,1,7.6799,,0,1,43,193,79,1,stimuli/stim_20210407_power2amp/equal_lnn_AM3.6Hz_92.m4a,,,
,,,,,41130,2021-05-08_18h40.19.876,judgeSpeechMusic_20210407_logNormShiftAmp,2020.1.2,Win32,60,,,,,,,,,,,,,,,,,,,,,,,,,,1,8.52879,,0,1,44,194,38,1,stimuli/stim_20210407_power2amp/equal_lnn_AM1.8Hz_49.m4a,,,
,,,,,41130,2021-05-08_18h40.19.876,judgeSpeechMusic_20210407_logNormShiftAmp,2020.1.2,Win32,60,,,,,,,,,,,,,,,,,,,,,,,,,,1,12.32222,,0,1,45,195,113,1,stimuli/stim_20210407_power2amp/equal_lnn_AM4.8Hz_18.m4a,,,
,,,,,41130,2021-05-08_18h40.19.876,judgeSpeechMusic_20210407_logNormShiftAmp,2020.1.2,Win32,60,,,,,,,,,,,,,,,,,,,,,,,,,,1,8.854015,,0,1,46,196,136,1,stimuli/stim_20210407_power2amp/equal_lnn_AM6Hz_78.m4a,,,
,,,,,41130,2021-05-08_18h40.19.876,judgeSpeechMusic_20210407_logNormShiftAmp,2020.1.2,Win32,60,,,,,,,,,,,,,,,,,,,,,,,,,,1,7.58832,,0,1,47,197,122,1,stimuli/stim_20210407_power2amp/equal_lnn_AM5.4Hz_32.m4a,,,
,,,,,41130,2021-05-08_18h40.19.876,judgeSpeechMusic_20210407_logNormShiftAmp,2020.1.2,Win32,60,,,,,,,,,,,,,,,,,,,,,,,,,,1,12.06153,,0,1,48,198,103,1,stimuli/stim_20210407_power2amp/equal_lnn_AM4.2Hz_84.m4a,,,
,,,,,41130,2021-05-08_18h40.19.876,judgeSpeechMusic_20210407_logNormShiftAmp,2020.1.2,Win32,60,,,,,,,,,,,,,,,,,,,,,,,,,,1,6.32491,,0,1,49,199,56,1,stimuli/stim_20210407_power2amp/equal_lnn_AM2.4Hz_61.m4a,,,
,,,,,41130,2021-05-08_18h40.19.876,judgeSpeechMusic_20210407_logNormShiftAmp,2020.1.2,Win32,60,,,,,,,,,,,,,,,,,,,,,,,,,,1,10.928675,,0,1,50,200,57,1,stimuli/stim_20210407_power2amp/equal_lnn_AM2.4Hz_17.m4a,,,
,,,,,41130,2021-05-08_18h40.19.876,judgeSpeechMusic_20210407_logNormShiftAmp,2020.1.2,Win32,60,,,,,,,,,,,,,,,,,,,,,,,,,,1,9.53671,,0,1,51,201,24,1,stimuli/stim_20210407_power2amp/equal_lnn_AM1.2Hz_14.m4a,,,
,,,,,41130,2021-05-08_18h40.19.876,judgeSpeechMusic_20210407_logNormShiftAmp,2020.1.2,Win32,60,,,,,,,,,,,,,,,,,,,,,,,,,,1,7.310235,,0,1,52,202,16,1,stimuli/stim_20210407_power2amp/equal_lnn_AM1.2Hz_22.m4a,,,
,,,,,41130,2021-05-08_18h40.19.876,judgeSpeechMusic_20210407_logNormShiftAmp,2020.1.2,Win32,60,,,,,,,,,,,,,,,,,,,,,,,,,,1,9.44619,,0,1,53,203,116,1,stimuli/stim_20210407_power2amp/equal_lnn_AM4.8Hz_10.m4a,,,
,,,,,41130,2021-05-08_18h40.19.876,judgeSpeechMusic_20210407_logNormShiftAmp,2020.1.2,Win32,60,,,,,,,,,,,,,,,,,,,,,,,,,,1,7.45245,,0,1,54,204,1,1,stimuli/stim_20210407_power2amp/equal_lnn_AM0.6Hz_74.m4a,,,
,,,,,41130,2021-05-08_18h40.19.876,judgeSpeechMusic_20210407_logNormShiftAmp,2020.1.2,Win32,60,,,,,,,,,,,,,,,,,,,,,,,,,,1,6.84779,,0,1,55,205,82,1,stimuli/stim_20210407_power2amp/equal_lnn_AM3.6Hz_49.m4a,,,
,,,,,41130,2021-05-08_18h40.19.876,judgeSpeechMusic_20210407_logNormShiftAmp,2020.1.2,Win32,60,,,,,,,,,,,,,,,,,,,,,,,,,,1,6.454135,,0,1,56,206,101,1,stimuli/stim_20210407_power2amp/equal_lnn_AM4.2Hz_83.m4a,,,
,,,,,41130,2021-05-08_18h40.19.876,judgeSpeechMusic_20210407_logNormShiftAmp,2020.1.2,Win32,60,,,,,,,,,,,,,,,,,,,,,,,,,,2,5.847425,,0,1,57,207,117,1,stimuli/stim_20210407_power2amp/equal_lnn_AM4.8Hz_56.m4a,,,
,,,,,41130,2021-05-08_18h40.19.876,judgeSpeechMusic_20210407_logNormShiftAmp,2020.1.2,Win32,60,,,,,,,,,,,,,,,,,,,,,,,,,,2,7.871435,,0,1,58,208,60,1,stimuli/stim_20210407_power2amp/equal_lnn_AM3Hz_60.m4a,,,
,,,,,41130,2021-05-08_18h40.19.876,judgeSpeechMusic_20210407_logNormShiftAmp,2020.1.2,Win32,60,,,,,,,,,,,,,,,,,,,,,,,,,,1,7.57046,,0,1,59,209,14,1,stimuli/stim_20210407_power2amp/equal_lnn_AM0.6Hz_73.m4a,,,
,,,,,41130,2021-05-08_18h40.19.876,judgeSpeechMusic_20210407_logNormShiftAmp,2020.1.2,Win32,60,,,,,,,,,,,,,,,,,,,,,,,,,,1,12.73967,1,0,1,60,210,128,1,stimuli/stim_20210407_power2amp/equal_lnn_AM5.4Hz_45.m4a,6.68724,,
,,,,,41130,2021-05-08_18h40.19.876,judgeSpeechMusic_20210407_logNormShiftAmp,2020.1.2,Win32,60,,,,,,,,,,,,,,,,,,,,,,,,,,2,62.921885,,0,1,61,211,91,1,stimuli/stim_20210407_power2amp/equal_lnn_AM4.2Hz_21.m4a,,,
,,,,,41130,2021-05-08_18h40.19.876,judgeSpeechMusic_20210407_logNormShiftAmp,2020.1.2,Win32,60,,,,,,,,,,,,,,,,,,,,,,,,,,2,7.520235,,0,1,62,212,142,1,stimuli/stim_20210407_power2amp/equal_lnn_AM6Hz_73.m4a,,,
,,,,,41130,2021-05-08_18h40.19.876,judgeSpeechMusic_20210407_logNormShiftAmp,2020.1.2,Win32,60,,,,,,,,,,,,,,,,,,,,,,,,,,2,6.003275,,0,1,63,213,138,1,stimuli/stim_20210407_power2amp/equal_lnn_AM6Hz_9.m4a,,,
,,,,,41130,2021-05-08_18h40.19.876,judgeSpeechMusic_20210407_logNormShiftAmp,2020.1.2,Win32,60,,,,,,,,,,,,,,,,,,,,,,,,,,2,6.102455,,0,1,64,214,89,1,stimuli/stim_20210407_power2amp/equal_lnn_AM3.6Hz_56.m4a,,,
,,,,,41130,2021-05-08_18h40.19.876,judgeSpeechMusic_20210407_logNormShiftAmp,2020.1.2,Win32,60,,,,,,,,,,,,,,,,,,,,,,,,,,1,5.86817,,0,1,65,215,6,1,stimuli/stim_20210407_power2amp/equal_lnn_AM0.6Hz_89.m4a,,,
,,,,,41130,2021-05-08_18h40.19.876,judgeSpeechMusic_20210407_logNormShiftAmp,2020.1.2,Win32,60,,,,,,,,,,,,,,,,,,,,,,,,,,1,6.38763,,0,1,66,216,20,1,stimuli/stim_20210407_power2amp/equal_lnn_AM1.2Hz_35.m4a,,,
,,,,,41130,2021-05-08_18h40.19.876,judgeSpeechMusic_20210407_logNormShiftAmp,2020.1.2,Win32,60,,,,,,,,,,,,,,,,,,,,,,,,,,1,6.50686,,0,1,67,217,93,1,stimuli/stim_20210407_power2amp/equal_lnn_AM4.2Hz_98.m4a,,,
,,,,,41130,2021-05-08_18h40.19.876,judgeSpeechMusic_20210407_logNormShiftAmp,2020.1.2,Win32,60,,,,,,,,,,,,,,,,,,,,,,,,,,2,6.924445,,0,1,68,218,106,1,stimuli/stim_20210407_power2amp/equal_lnn_AM4.8Hz_71.m4a,,,
,,,,,41130,2021-05-08_18h40.19.876,judgeSpeechMusic_20210407_logNormShiftAmp,2020.1.2,Win32,60,,,,,,,,,,,,,,,,,,,,,,,,,,2,6.555935,,0,1,69,219,140,1,stimuli/stim_20210407_power2amp/equal_lnn_AM6Hz_54.m4a,,,
,,,,,41130,2021-05-08_18h40.19.876,judgeSpeechMusic_20210407_logNormShiftAmp,2020.1.2,Win32,60,,,,,,,,,,,,,,,,,,,,,,,,,,1,7.987265,,0,1,70,220,28,1,stimuli/stim_20210407_power2amp/equal_lnn_AM1.2Hz_31.m4a,,,
,,,,,41130,2021-05-08_18h40.19.876,judgeSpeechMusic_20210407_logNormShiftAmp,2020.1.2,Win32,60,,,,,,,,,,,,,,,,,,,,,,,,,,1,7.51217,,0,1,71,221,121,1,stimuli/stim_20210407_power2amp/equal_lnn_AM5.4Hz_6.m4a,,,
,,,,,41130,2021-05-08_18h40.19.876,judgeSpeechMusic_20210407_logNormShiftAmp,2020.1.2,Win32,60,,,,,,,,,,,,,,,,,,,,,,,,,,1,7.76984,,0,1,72,222,124,1,stimuli/stim_20210407_power2amp/equal_lnn_AM5.4Hz_1.m4a,,,
,,,,,41130,2021-05-08_18h40.19.876,judgeSpeechMusic_20210407_logNormShiftAmp,2020.1.2,Win32,60,,,,,,,,,,,,,,,,,,,,,,,,,,1,6.126845,,0,1,73,223,45,1,stimuli/stim_20210407_power2amp/equal_lnn_AM2.4Hz_7.m4a,,,
,,,,,41130,2021-05-08_18h40.19.876,judgeSpeechMusic_20210407_logNormShiftAmp,2020.1.2,Win32,60,,,,,,,,,,,,,,,,,,,,,,,,,,2,5.941665,,0,1,74,224,130,1,stimuli/stim_20210407_power2amp/equal_lnn_AM5.4Hz_13.m4a,,,
,,,,,41130,2021-05-08_18h40.19.876,judgeSpeechMusic_20210407_logNormShiftAmp,2020.1.2,Win32,60,,,,,,,,,,,,,,,,,,,,,,,,,,1,8.31106,,0,1,75,225,68,1,stimuli/stim_20210407_power2amp/equal_lnn_AM3Hz_97.m4a,,,
,,,,,41130,2021-05-08_18h40.19.876,judgeSpeechMusic_20210407_logNormShiftAmp,2020.1.2,Win32,60,,,,,,,,,,,,,,,,,,,,,,,,,,2,6.724745,,0,1,76,226,145,1,stimuli/stim_20210407_power2amp/equal_lnn_AM6Hz_8.m4a,,,
,,,,,41130,2021-05-08_18h40.19.876,judgeSpeechMusic_20210407_logNormShiftAmp,2020.1.2,Win32,60,,,,,,,,,,,,,,,,,,,,,,,,,,1,7.38674,,0,1,77,227,36,1,stimuli/stim_20210407_power2amp/equal_lnn_AM1.8Hz_99.m4a,,,
,,,,,41130,2021-05-08_18h40.19.876,judgeSpeechMusic_20210407_logNormShiftAmp,2020.1.2,Win32,60,,,,,,,,,,,,,,,,,,,,,,,,,,1,6.469935,,0,1,78,228,42,1,stimuli/stim_20210407_power2amp/equal_lnn_AM1.8Hz_27.m4a,,,
,,,,,41130,2021-05-08_18h40.19.876,judgeSpeechMusic_20210407_logNormShiftAmp,2020.1.2,Win32,60,,,,,,,,,,,,,,,,,,,,,,,,,,1,6.15218,,0,1,79,229,65,1,stimuli/stim_20210407_power2amp/equal_lnn_AM3Hz_8.m4a,,,
,,,,,41130,2021-05-08_18h40.19.876,judgeSpeechMusic_20210407_logNormShiftAmp,2020.1.2,Win32,60,,,,,,,,,,,,,,,,,,,,,,,,,,1,6.894985,,0,1,80,230,58,1,stimuli/stim_20210407_power2amp/equal_lnn_AM2.4Hz_41.m4a,,,
,,,,,41130,2021-05-08_18h40.19.876,judgeSpeechMusic_20210407_logNormShiftAmp,2020.1.2,Win32,60,,,,,,,,,,,,,,,,,,,,,,,,,,1,6.27047,,0,1,81,231,67,1,stimuli/stim_20210407_power2amp/equal_lnn_AM3Hz_16.m4a,,,
,,,,,41130,2021-05-08_18h40.19.876,judgeSpeechMusic_20210407_logNormShiftAmp,2020.1.2,Win32,60,,,,,,,,,,,,,,,,,,,,,,,,,,1,5.994715,,0,1,82,232,108,1,stimuli/stim_20210407_power2amp/equal_lnn_AM4.8Hz_26.m4a,,,
,,,,,41130,2021-05-08_18h40.19.876,judgeSpeechMusic_20210407_logNormShiftAmp,2020.1.2,Win32,60,,,,,,,,,,,,,,,,,,,,,,,,,,1,6.136095,,0,1,83,233,37,1,stimuli/stim_20210407_power2amp/equal_lnn_AM1.8Hz_86.m4a,,,
,,,,,41130,2021-05-08_18h40.19.876,judgeSpeechMusic_20210407_logNormShiftAmp,2020.1.2,Win32,60,,,,,,,,,,,,,,,,,,,,,,,,,,1,6.219205,4,1,1,84,234,31,1,stimuli/stim_20210407_power2amp/equal_lnn_AM1.8Hz_70.m4a,1.60846,,
,,,,,41130,2021-05-08_18h40.19.876,judgeSpeechMusic_20210407_logNormShiftAmp,2020.1.2,Win32,60,,,,,,,,,,,,,,,,,,,,,,,,,,2,6.28881,,0,1,85,235,127,1,stimuli/stim_20210407_power2amp/equal_lnn_AM5.4Hz_17.m4a,,,
,,,,,41130,2021-05-08_18h40.19.876,judgeSpeechMusic_20210407_logNormShiftAmp,2020.1.2,Win32,60,,,,,,,,,,,,,,,,,,,,,,,,,,1,6.15428,,0,1,86,236,52,1,stimuli/stim_20210407_power2amp/equal_lnn_AM2.4Hz_19.m4a,,,
,,,,,41130,2021-05-08_18h40.19.876,judgeSpeechMusic_20210407_logNormShiftAmp,2020.1.2,Win32,60,,,,,,,,,,,,,,,,,,,,,,,,,,1,7.32624,,0,1,87,237,27,1,stimuli/stim_20210407_power2amp/equal_lnn_AM1.2Hz_82.m4a,,,
,,,,,41130,2021-05-08_18h40.19.876,judgeSpeechMusic_20210407_logNormShiftAmp,2020.1.2,Win32,60,,,,,,,,,,,,,,,,,,,,,,,,,,1,7.694645,,0,1,88,238,26,1,stimuli/stim_20210407_power2amp/equal_lnn_AM1.2Hz_30.m4a,,,
,,,,,41130,2021-05-08_18h40.19.876,judgeSpeechMusic_20210407_logNormShiftAmp,2020.1.2,Win32,60,,,,,,,,,,,,,,,,,,,,,,,,,,1,8.24435,,0,1,89,239,44,1,stimuli/stim_20210407_power2amp/equal_lnn_AM1.8Hz_94.m4a,,,
,,,,,41130,2021-05-08_18h40.19.876,judgeSpeechMusic_20210407_logNormShiftAmp,2020.1.2,Win32,60,,,,,,,,,,,,,,,,,,,,,,,,,,1,6.6869,,0,1,90,240,41,1,stimuli/stim_20210407_power2amp/equal_lnn_AM1.8Hz_79.m4a,,,
,,,,,41130,2021-05-08_18h40.19.876,judgeSpeechMusic_20210407_logNormShiftAmp,2020.1.2,Win32,60,,,,,,,,,,,,,,,,,,,,,,,,,,1,6.556405,,0,1,91,241,102,1,stimuli/stim_20210407_power2amp/equal_lnn_AM4.2Hz_49.m4a,,,
,,,,,41130,2021-05-08_18h40.19.876,judgeSpeechMusic_20210407_logNormShiftAmp,2020.1.2,Win32,60,,,,,,,,,,,,,,,,,,,,,,,,,,2,6.053185,,0,1,92,242,119,1,stimuli/stim_20210407_power2amp/equal_lnn_AM4.8Hz_21.m4a,,,
,,,,,41130,2021-05-08_18h40.19.876,judgeSpeechMusic_20210407_logNormShiftAmp,2020.1.2,Win32,60,,,,,,,,,,,,,,,,,,,,,,,,,,2,8.27325,,0,1,93,243,98,1,stimuli/stim_20210407_power2amp/equal_lnn_AM4.2Hz_10.m4a,,,
,,,,,41130,2021-05-08_18h40.19.876,judgeSpeechMusic_20210407_logNormShiftAmp,2020.1.2,Win32,60,,,,,,,,,,,,,,,,,,,,,,,,,,1,7.1264,,0,1,94,244,66,1,stimuli/stim_20210407_power2amp/equal_lnn_AM3Hz_46.m4a,,,
,,,,,41130,2021-05-08_18h40.19.876,judgeSpeechMusic_20210407_logNormShiftAmp,2020.1.2,Win32,60,,,,,,,,,,,,,,,,,,,,,,,,,,1,7.504395,,0,1,95,245,53,1,stimuli/stim_20210407_power2amp/equal_lnn_AM2.4Hz_75.m4a,,,
,,,,,41130,2021-05-08_18h40.19.876,judgeSpeechMusic_20210407_logNormShiftAmp,2020.1.2,Win32,60,,,,,,,,,,,,,,,,,,,,,,,,,,2,6.125655,,0,1,96,246,144,1,stimuli/stim_20210407_power2amp/equal_lnn_AM6Hz_31.m4a,,,
,,,,,41130,2021-05-08_18h40.19.876,judgeSpeechMusic_20210407_logNormShiftAmp,2020.1.2,Win32,60,,,,,,,,,,,,,,,,,,,,,,,,,,1,7.920685,,0,1,97,247,18,1,stimuli/stim_20210407_power2amp/equal_lnn_AM1.2Hz_63.m4a,,,
,,,,,41130,2021-05-08_18h40.19.876,judgeSpeechMusic_20210407_logNormShiftAmp,2020.1.2,Win32,60,,,,,,,,,,,,,,,,,,,,,,,,,,2,6.171645,,0,1,98,248,112,1,stimuli/stim_20210407_power2amp/equal_lnn_AM4.8Hz_100.m4a,,,
,,,,,41130,2021-05-08_18h40.19.876,judgeSpeechMusic_20210407_logNormShiftAmp,2020.1.2,Win32,60,,,,,,,,,,,,,,,,,,,,,,,,,,2,7.987,,0,1,99,249,32,1,stimuli/stim_20210407_power2amp/equal_lnn_AM1.8Hz_82.m4a,,,
,,,,,41130,2021-05-08_18h40.19.876,judgeSpeechMusic_20210407_logNormShiftAmp,2020.1.2,Win32,60,,,,,,,,,,,,,,,,,,,,,,,,,,1,5.886575,,0,1,100,250,13,1,stimuli/stim_20210407_power2amp/equal_lnn_AM0.6Hz_6.m4a,,,
,,,,,41130,2021-05-08_18h40.19.876,judgeSpeechMusic_20210407_logNormShiftAmp,2020.1.2,Win32,60,,,,,,,,,,,,,,,,,,,,,,,,,,1,6.62462,,0,1,101,251,51,1,stimuli/stim_20210407_power2amp/equal_lnn_AM2.4Hz_28.m4a,,,
,,,,,41130,2021-05-08_18h40.19.876,judgeSpeechMusic_20210407_logNormShiftAmp,2020.1.2,Win32,60,,,,,,,,,,,,,,,,,,,,,,,,,,1,5.960955,,0,1,102,252,4,1,stimuli/stim_20210407_power2amp/equal_lnn_AM0.6Hz_21.m4a,,,
,,,,,41130,2021-05-08_18h40.19.876,judgeSpeechMusic_20210407_logNormShiftAmp,2020.1.2,Win32,60,,,,,,,,,,,,,,,,,,,,,,,,,,1,10.00381,,0,1,103,253,74,1,stimuli/stim_20210407_power2amp/equal_lnn_AM3Hz_96.m4a,,,
,,,,,41130,2021-05-08_18h40.19.876,judgeSpeechMusic_20210407_logNormShiftAmp,2020.1.2,Win32,60,,,,,,,,,,,,,,,,,,,,,,,,,,2,9.425815,,0,1,104,254,137,1,stimuli/stim_20210407_power2amp/equal_lnn_AM6Hz_67.m4a,,,
,,,,,41130,2021-05-08_18h40.19.876,judgeSpeechMusic_20210407_logNormShiftAmp,2020.1.2,Win32,60,,,,,,,,,,,,,,,,,,,,,,,,,,1,6.7271,,0,1,105,255,49,1,stimuli/stim_20210407_power2amp/equal_lnn_AM2.4Hz_58.m4a,,,
,,,,,41130,2021-05-08_18h40.19.876,judgeSpeechMusic_20210407_logNormShiftAmp,2020.1.2,Win32,60,,,,,,,,,,,,,,,,,,,,,,,,,,1,6.519165,,0,1,106,256,46,1,stimuli/stim_20210407_power2amp/equal_lnn_AM2.4Hz_39.m4a,,,
,,,,,41130,2021-05-08_18h40.19.876,judgeSpeechMusic_20210407_logNormShiftAmp,2020.1.2,Win32,60,,,,,,,,,,,,,,,,,,,,,,,,,,2,5.87412,3,1,1,107,257,109,1,stimuli/stim_20210407_power2amp/equal_lnn_AM4.8Hz_17.m4a,1.09199,,
,,,,,41130,2021-05-08_18h40.19.876,judgeSpeechMusic_20210407_logNormShiftAmp,2020.1.2,Win32,60,,,,,,,,,,,,,,,,,,,,,,,,,,1,7.174815,,0,1,108,258,61,1,stimuli/stim_20210407_power2amp/equal_lnn_AM3Hz_14.m4a,,,
,,,,,41130,2021-05-08_18h40.19.876,judgeSpeechMusic_20210407_logNormShiftAmp,2020.1.2,Win32,60,,,,,,,,,,,,,,,,,,,,,,,,,,1,7.04336,,0,1,109,259,2,1,stimuli/stim_20210407_power2amp/equal_lnn_AM0.6Hz_1.m4a,,,
,,,,,41130,2021-05-08_18h40.19.876,judgeSpeechMusic_20210407_logNormShiftAmp,2020.1.2,Win32,60,,,,,,,,,,,,,,,,,,,,,,,,,,2,6.122655,,0,1,110,260,126,1,stimuli/stim_20210407_power2amp/equal_lnn_AM5.4Hz_14.m4a,,,
,,,,,41130,2021-05-08_18h40.19.876,judgeSpeechMusic_20210407_logNormShiftAmp,2020.1.2,Win32,60,,,,,,,,,,,,,,,,,,,,,,,,,,1,6.44675,,0,1,111,261,30,1,stimuli/stim_20210407_power2amp/equal_lnn_AM1.8Hz_58.m4a,,,
,,,,,41130,2021-05-08_18h40.19.876,judgeSpeechMusic_20210407_logNormShiftAmp,2020.1.2,Win32,60,,,,,,,,,,,,,,,,,,,,,,,,,,1,5.99541,,0,1,112,262,96,1,stimuli/stim_20210407_power2amp/equal_lnn_AM4.2Hz_72.m4a,,,
,,,,,41130,2021-05-08_18h40.19.876,judgeSpeechMusic_20210407_logNormShiftAmp,2020.1.2,Win32,60,,,,,,,,,,,,,,,,,,,,,,,,,,2,6.17869,,0,1,113,263,71,1,stimuli/stim_20210407_power2amp/equal_lnn_AM3Hz_7.m4a,,,
,,,,,41130,2021-05-08_18h40.19.876,judgeSpeechMusic_20210407_logNormShiftAmp,2020.1.2,Win32,60,,,,,,,,,,,,,,,,,,,,,,,,,,1,6.86174,,0,1,114,264,48,1,stimuli/stim_20210407_power2amp/equal_lnn_AM2.4Hz_72.m4a,,,
,,,,,41130,2021-05-08_18h40.19.876,judgeSpeechMusic_20210407_logNormShiftAmp,2020.1.2,Win32,60,,,,,,,,,,,,,,,,,,,,,,,,,,2,8.277275,,0,1,115,265,132,1,stimuli/stim_20210407_power2amp/equal_lnn_AM5.4Hz_78.m4a,,,
,,,,,41130,2021-05-08_18h40.19.876,judgeSpeechMusic_20210407_logNormShiftAmp,2020.1.2,Win32,60,,,,,,,,,,,,,,,,,,,,,,,,,,1,6.65249,,0,1,116,266,23,1,stimuli/stim_20210407_power2amp/equal_lnn_AM1.2Hz_4.m4a,,,
,,,,,41130,2021-05-08_18h40.19.876,judgeSpeechMusic_20210407_logNormShiftAmp,2020.1.2,Win32,60,,,,,,,,,,,,,,,,,,,,,,,,,,1,6.070945,,0,1,117,267,33,1,stimuli/stim_20210407_power2amp/equal_lnn_AM1.8Hz_89.m4a,,,
,,,,,41130,2021-05-08_18h40.19.876,judgeSpeechMusic_20210407_logNormShiftAmp,2020.1.2,Win32,60,,,,,,,,,,,,,,,,,,,,,,,,,,2,6.078655,,0,1,118,268,149,1,stimuli/stim_20210407_power2amp/equal_lnn_AM6Hz_57.m4a,,,
,,,,,41130,2021-05-08_18h40.19.876,judgeSpeechMusic_20210407_logNormShiftAmp,2020.1.2,Win32,60,,,,,,,,,,,,,,,,,,,,,,,,,,2,8.11618,,0,1,119,269,114,1,stimuli/stim_20210407_power2amp/equal_lnn_AM4.8Hz_69.m4a,,,
,,,,,41130,2021-05-08_18h40.19.876,judgeSpeechMusic_20210407_logNormShiftAmp,2020.1.2,Win32,60,,,,,,,,,,,,,,,,,,,,,,,,,,1,7.01936,,0,1,120,270,40,1,stimuli/stim_20210407_power2amp/equal_lnn_AM1.8Hz_78.m4a,,,
,,,,,41130,2021-05-08_18h40.19.876,judgeSpeechMusic_20210407_logNormShiftAmp,2020.1.2,Win32,60,,,,,,,,,,,,,,,,,,,,,,,,,,1,7.959765,,0,1,121,271,3,1,stimuli/stim_20210407_power2amp/equal_lnn_AM0.6Hz_7.m4a,,,
,,,,,41130,2021-05-08_18h40.19.876,judgeSpeechMusic_20210407_logNormShiftAmp,2020.1.2,Win32,60,,,,,,,,,,,,,,,,,,,,,,,,,,2,7.12012,,0,1,122,272,129,1,stimuli/stim_20210407_power2amp/equal_lnn_AM5.4Hz_79.m4a,,,
,,,,,41130,2021-05-08_18h40.19.876,judgeSpeechMusic_20210407_logNormShiftAmp,2020.1.2,Win32,60,,,,,,,,,,,,,,,,,,,,,,,,,,2,6.476585,,0,1,123,273,148,1,stimuli/stim_20210407_power2amp/equal_lnn_AM6Hz_51.m4a,,,
,,,,,41130,2021-05-08_18h40.19.876,judgeSpeechMusic_20210407_logNormShiftAmp,2020.1.2,Win32,60,,,,,,,,,,,,,,,,,,,,,,,,,,2,9.92865,,0,1,124,274,69,1,stimuli/stim_20210407_power2amp/equal_lnn_AM3Hz_82.m4a,,,
,,,,,41130,2021-05-08_18h40.19.876,judgeSpeechMusic_20210407_logNormShiftAmp,2020.1.2,Win32,60,,,,,,,,,,,,,,,,,,,,,,,,,,2,6.104015,,0,1,125,275,120,1,stimuli/stim_20210407_power2amp/equal_lnn_AM5.4Hz_33.m4a,,,
,,,,,41130,2021-05-08_18h40.19.876,judgeSpeechMusic_20210407_logNormShiftAmp,2020.1.2,Win32,60,,,,,,,,,,,,,,,,,,,,,,,,,,2,8.870695,,0,1,126,276,78,1,stimuli/stim_20210407_power2amp/equal_lnn_AM3.6Hz_93.m4a,,,
,,,,,41130,2021-05-08_18h40.19.876,judgeSpeechMusic_20210407_logNormShiftAmp,2020.1.2,Win32,60,,,,,,,,,,,,,,,,,,,,,,,,,,2,5.93121,,0,1,127,277,104,1,stimuli/stim_20210407_power2amp/equal_lnn_AM4.2Hz_23.m4a,,,
,,,,,41130,2021-05-08_18h40.19.876,judgeSpeechMusic_20210407_logNormShiftAmp,2020.1.2,Win32,60,,,,,,,,,,,,,,,,,,,,,,,,,,2,6.77036,1,1,1,128,278,77,1,stimuli/stim_20210407_power2amp/equal_lnn_AM3.6Hz_89.m4a,3.55658,,
,,,,,41130,2021-05-08_18h40.19.876,judgeSpeechMusic_20210407_logNormShiftAmp,2020.1.2,Win32,60,,,,,,,,,,,,,,,,,,,,,,,,,,2,10.413985,,0,1,129,279,111,1,stimuli/stim_20210407_power2amp/equal_lnn_AM4.8Hz_36.m4a,,,
,,,,,41130,2021-05-08_18h40.19.876,judgeSpeechMusic_20210407_logNormShiftAmp,2020.1.2,Win32,60,,,,,,,,,,,,,,,,,,,,,,,,,,2,7.1724,,0,1,130,280,146,1,stimuli/stim_20210407_power2amp/equal_lnn_AM6Hz_87.m4a,,,
,,,,,41130,2021-05-08_18h40.19.876,judgeSpeechMusic_20210407_logNormShiftAmp,2020.1.2,Win32,60,,,,,,,,,,,,,,,,,,,,,,,,,,1,7.1955,,0,1,131,281,19,1,stimuli/stim_20210407_power2amp/equal_lnn_AM1.2Hz_64.m4a,,,
,,,,,41130,2021-05-08_18h40.19.876,judgeSpeechMusic_20210407_logNormShiftAmp,2020.1.2,Win32,60,,,,,,,,,,,,,,,,,,,,,,,,,,1,10.06922,,0,1,132,282,80,1,stimuli/stim_20210407_power2amp/equal_lnn_AM3.6Hz_19.m4a,,,
,,,,,41130,2021-05-08_18h40.19.876,judgeSpeechMusic_20210407_logNormShiftAmp,2020.1.2,Win32,60,,,,,,,,,,,,,,,,,,,,,,,,,,1,9.69661,,0,1,133,283,84,1,stimuli/stim_20210407_power2amp/equal_lnn_AM3.6Hz_40.m4a,,,
,,,,,41130,2021-05-08_18h40.19.876,judgeSpeechMusic_20210407_logNormShiftAmp,2020.1.2,Win32,60,,,,,,,,,,,,,,,,,,,,,,,,,,1,6.845385,,0,1,134,284,25,1,stimuli/stim_20210407_power2amp/equal_lnn_AM1.2Hz_93.m4a,,,
,,,,,41130,2021-05-08_18h40.19.876,judgeSpeechMusic_20210407_logNormShiftAmp,2020.1.2,Win32,60,,,,,,,,,,,,,,,,,,,,,,,,,,1,6.108715,,0,1,135,285,10,1,stimuli/stim_20210407_power2amp/equal_lnn_AM0.6Hz_80.m4a,,,
,,,,,41130,2021-05-08_18h40.19.876,judgeSpeechMusic_20210407_logNormShiftAmp,2020.1.2,Win32,60,,,,,,,,,,,,,,,,,,,,,,,,,,1,8.38854,,0,1,136,286,43,1,stimuli/stim_20210407_power2amp/equal_lnn_AM1.8Hz_28.m4a,,,
,,,,,41130,2021-05-08_18h40.19.876,judgeSpeechMusic_20210407_logNormShiftAmp,2020.1.2,Win32,60,,,,,,,,,,,,,,,,,,,,,,,,,,2,7.61433,,0,1,137,287,55,1,stimuli/stim_20210407_power2amp/equal_lnn_AM2.4Hz_88.m4a,,,
,,,,,41130,2021-05-08_18h40.19.876,judgeSpeechMusic_20210407_logNormShiftAmp,2020.1.2,Win32,60,,,,,,,,,,,,,,,,,,,,,,,,,,2,5.818495,,0,1,138,288,135,1,stimuli/stim_20210407_power2amp/equal_lnn_AM6Hz_26.m4a,,,
,,,,,41130,2021-05-08_18h40.19.876,judgeSpeechMusic_20210407_logNormShiftAmp,2020.1.2,Win32,60,,,,,,,,,,,,,,,,,,,,,,,,,,2,8.15387,,0,1,139,289,86,1,stimuli/stim_20210407_power2amp/equal_lnn_AM3.6Hz_45.m4a,,,
,,,,,41130,2021-05-08_18h40.19.876,judgeSpeechMusic_20210407_logNormShiftAmp,2020.1.2,Win32,60,,,,,,,,,,,,,,,,,,,,,,,,,,1,5.997355,,0,1,140,290,59,1,stimuli/stim_20210407_power2amp/equal_lnn_AM2.4Hz_87.m4a,,,
,,,,,41130,2021-05-08_18h40.19.876,judgeSpeechMusic_20210407_logNormShiftAmp,2020.1.2,Win32,60,,,,,,,,,,,,,,,,,,,,,,,,,,1,5.90313,,0,1,141,291,83,1,stimuli/stim_20210407_power2amp/equal_lnn_AM3.6Hz_38.m4a,,,
,,,,,41130,2021-05-08_18h40.19.876,judgeSpeechMusic_20210407_logNormShiftAmp,2020.1.2,Win32,60,,,,,,,,,,,,,,,,,,,,,,,,,,1,6.136515,,0,1,142,292,5,1,stimuli/stim_20210407_power2amp/equal_lnn_AM0.6Hz_33.m4a,,,
,,,,,41130,2021-05-08_18h40.19.876,judgeSpeechMusic_20210407_logNormShiftAmp,2020.1.2,Win32,60,,,,,,,,,,,,,,,,,,,,,,,,,,1,8.894785,,0,1,143,293,85,1,stimuli/stim_20210407_power2amp/equal_lnn_AM3.6Hz_82.m4a,,,
,,,,,41130,2021-05-08_18h40.19.876,judgeSpeechMusic_20210407_logNormShiftAmp,2020.1.2,Win32,60,,,,,,,,,,,,,,,,,,,,,,,,,,1,6.00377,,0,1,144,294,9,1,stimuli/stim_20210407_power2amp/equal_lnn_AM0.6Hz_23.m4a,,,
,,,,,41130,2021-05-08_18h40.19.876,judgeSpeechMusic_20210407_logNormShiftAmp,2020.1.2,Win32,60,,,,,,,,,,,,,,,,,,,,,,,,,,1,5.96182,,0,1,145,295,11,1,stimuli/stim_20210407_power2amp/equal_lnn_AM0.6Hz_58.m4a,,,
,,,,,41130,2021-05-08_18h40.19.876,judgeSpeechMusic_20210407_logNormShiftAmp,2020.1.2,Win32,60,,,,,,,,,,,,,,,,,,,,,,,,,,1,6.124735,,0,1,146,296,0,1,stimuli/stim_20210407_power2amp/equal_lnn_AM0.6Hz_44.m4a,,,
,,,,,41130,2021-05-08_18h40.19.876,judgeSpeechMusic_20210407_logNormShiftAmp,2020.1.2,Win32,60,,,,,,,,,,,,,,,,,,,,,,,,,,2,5.819515,,0,1,147,297,115,1,stimuli/stim_20210407_power2amp/equal_lnn_AM4.8Hz_29.m4a,,,
,,,,,41130,2021-05-08_18h40.19.876,judgeSpeechMusic_20210407_logNormShiftAmp,2020.1.2,Win32,60,,,,,,,,,,,,,,,,,,,,,,,,,,1,5.95427,,0,1,148,298,8,1,stimuli/stim_20210407_power2amp/equal_lnn_AM0.6Hz_50.m4a,,,
,,,,,41130,2021-05-08_18h40.19.876,judgeSpeechMusic_20210407_logNormShiftAmp,2020.1.2,Win32,60,,,,,,,,,,,,,,,,,,,,,,,,,,2,5.790825,,0,1,149,299,139,1,stimuli/stim_20210407_power2amp/equal_lnn_AM6Hz_2.m4a,,,
,,,,,41130,2021-05-08_18h40.19.876,judgeSpeechMusic_20210407_logNormShiftAmp,2020.1.2,Win32,60,,,,,,,,,,,,,,,,,,,,,,,,,,,,,,,,,,,,,space,7.306395
