headphoneResponse.keys,headphoneResponse.corr,headphoneResponse.rt,headphoneTrial.thisRepN,headphoneTrial.thisTrialN,headphoneTrial.thisN,headphoneTrial.thisIndex,headphoneTrial.ran,headphone_sound1,headphone_sound2,headphone_sound3,corrAns,participant,date,expName,psychopyVersion,OS,frameRate,trainSlider.response,trainSlider.rt,beepTrainResponse.keys,beepTrainResponse.corr,trainingTrials.thisRepN,trainingTrials.thisTrialN,trainingTrials.thisN,trainingTrials.thisIndex,trainingTrials.ran,trainAudioFile,beepTrainResponse.rt,readyReal_resp.keys,readyReal_resp.rt,ratingSlider.response,ratingSlider.rt,beepResp.keys,beepResp.corr,expTrials.thisRepN,expTrials.thisTrialN,expTrials.thisN,expTrials.thisIndex,expTrials.ran,audioFile,beepResp.rt,end_resp.keys,end_resp.rt
3,1,0.722075,0,0,0,0,1,stimuli/screen_antiphase.wav,stimuli/screen_origin.wav,stimuli/screen_quiet.wav,3,41154,2021-04-27_22h27.49.725,judgeSpeechMusic_20210407_logNormShiftAmp,2020.1.2,Win32,60,,,,,,,,,,,,,,,,,,,,,,,,,,
1,1,0.34764,0,1,1,5,1,stimuli/screen_quiet.wav,stimuli/screen_origin.wav,stimuli/screen_antiphase.wav,1,41154,2021-04-27_22h27.49.725,judgeSpeechMusic_20210407_logNormShiftAmp,2020.1.2,Win32,60,,,,,,,,,,,,,,,,,,,,,,,,,,
2,1,0.43075,0,2,2,3,1,stimuli/screen_origin.wav,stimuli/screen_quiet.wav,stimuli/screen_antiphase.wav,2,41154,2021-04-27_22h27.49.725,judgeSpeechMusic_20210407_logNormShiftAmp,2020.1.2,Win32,60,,,,,,,,,,,,,,,,,,,,,,,,,,
3,1,0.51364,0,3,3,2,1,stimuli/screen_origin.wav,stimuli/screen_antiphase.wav,stimuli/screen_quiet.wav,3,41154,2021-04-27_22h27.49.725,judgeSpeechMusic_20210407_logNormShiftAmp,2020.1.2,Win32,60,,,,,,,,,,,,,,,,,,,,,,,,,,
2,1,0.573155,0,4,4,1,1,stimuli/screen_antiphase.wav,stimuli/screen_quiet.wav,stimuli/screen_origin.wav,2,41154,2021-04-27_22h27.49.725,judgeSpeechMusic_20210407_logNormShiftAmp,2020.1.2,Win32,60,,,,,,,,,,,,,,,,,,,,,,,,,,
1,1,0.42325,0,5,5,4,1,stimuli/screen_quiet.wav,stimuli/screen_antiphase.wav,stimuli/screen_origin.wav,1,41154,2021-04-27_22h27.49.725,judgeSpeechMusic_20210407_logNormShiftAmp,2020.1.2,Win32,60,,,,,,,,,,,,,,,,,,,,,,,,,,
,,,,,,,,,,,,41154,2021-04-27_22h27.49.725,judgeSpeechMusic_20210407_logNormShiftAmp,2020.1.2,Win32,60,1,11.397125,,0,0,0,0,0,1,stimuli/stim_20210407_power2amp/equal_lnn_AM_training1.5Hz.m4a,,,,,,,,,,,,,,,,
,,,,,,,,,,,,41154,2021-04-27_22h27.49.725,judgeSpeechMusic_20210407_logNormShiftAmp,2020.1.2,Win32,60,2,6.658525,,0,0,1,1,2,1,stimuli/stim_20210407_power2amp/equal_lnn_AM_training3.9Hz.m4a,,,,,,,,,,,,,,,,
,,,,,,,,,,,,41154,2021-04-27_22h27.49.725,judgeSpeechMusic_20210407_logNormShiftAmp,2020.1.2,Win32,60,1,5.90197,4,1,0,2,2,3,1,stimuli/stim_20210407_power2amp/equal_lnn_AM_training5.1Hz.m4a,1.965955,,,,,,,,,,,,,,,
,,,,,,,,,,,,41154,2021-04-27_22h27.49.725,judgeSpeechMusic_20210407_logNormShiftAmp,2020.1.2,Win32,60,2,6.88868,,0,0,3,3,1,1,stimuli/stim_20210407_power2amp/equal_lnn_AM_training2.7Hz.m4a,,,,,,,,,,,,,,,,
,,,,,,,,,,,,41154,2021-04-27_22h27.49.725,judgeSpeechMusic_20210407_logNormShiftAmp,2020.1.2,Win32,60,,,,,,,,,,,,space,3.580535,2,18.76121,,0,0,0,0,64,1,stimuli/stim_20210407_power2amp/equal_lnn_AM3Hz_52.m4a,,,
,,,,,,,,,,,,41154,2021-04-27_22h27.49.725,judgeSpeechMusic_20210407_logNormShiftAmp,2020.1.2,Win32,60,,,,,,,,,,,,,,1,7.70998,,0,0,1,1,42,1,stimuli/stim_20210407_power2amp/equal_lnn_AM1.8Hz_27.m4a,,,
,,,,,,,,,,,,41154,2021-04-27_22h27.49.725,judgeSpeechMusic_20210407_logNormShiftAmp,2020.1.2,Win32,60,,,,,,,,,,,,,,2,10.63521,,0,0,2,2,4,1,stimuli/stim_20210407_power2amp/equal_lnn_AM0.6Hz_96.m4a,,,
,,,,,,,,,,,,41154,2021-04-27_22h27.49.725,judgeSpeechMusic_20210407_logNormShiftAmp,2020.1.2,Win32,60,,,,,,,,,,,,,,1,6.4521,,0,0,3,3,111,1,stimuli/stim_20210407_power2amp/equal_lnn_AM4.8Hz_78.m4a,,,
,,,,,,,,,,,,41154,2021-04-27_22h27.49.725,judgeSpeechMusic_20210407_logNormShiftAmp,2020.1.2,Win32,60,,,,,,,,,,,,,,1,7.93391,,0,0,4,4,108,1,stimuli/stim_20210407_power2amp/equal_lnn_AM4.8Hz_60.m4a,,,
,,,,,,,,,,,,41154,2021-04-27_22h27.49.725,judgeSpeechMusic_20210407_logNormShiftAmp,2020.1.2,Win32,60,,,,,,,,,,,,,,2,7.15983,,0,0,5,5,54,1,stimuli/stim_20210407_power2amp/equal_lnn_AM2.4Hz_93.m4a,,,
,,,,,,,,,,,,41154,2021-04-27_22h27.49.725,judgeSpeechMusic_20210407_logNormShiftAmp,2020.1.2,Win32,60,,,,,,,,,,,,,,1,5.9563,,0,0,6,6,110,1,stimuli/stim_20210407_power2amp/equal_lnn_AM4.8Hz_54.m4a,,,
,,,,,,,,,,,,41154,2021-04-27_22h27.49.725,judgeSpeechMusic_20210407_logNormShiftAmp,2020.1.2,Win32,60,,,,,,,,,,,,,,1,6.608475,,0,0,7,7,24,1,stimuli/stim_20210407_power2amp/equal_lnn_AM1.2Hz_66.m4a,,,
,,,,,,,,,,,,41154,2021-04-27_22h27.49.725,judgeSpeechMusic_20210407_logNormShiftAmp,2020.1.2,Win32,60,,,,,,,,,,,,,,2,5.900065,,0,0,8,8,92,1,stimuli/stim_20210407_power2amp/equal_lnn_AM4.2Hz_82.m4a,,,
,,,,,,,,,,,,41154,2021-04-27_22h27.49.725,judgeSpeechMusic_20210407_logNormShiftAmp,2020.1.2,Win32,60,,,,,,,,,,,,,,2,6.205725,,0,0,9,9,100,1,stimuli/stim_20210407_power2amp/equal_lnn_AM4.2Hz_69.m4a,,,
,,,,,,,,,,,,41154,2021-04-27_22h27.49.725,judgeSpeechMusic_20210407_logNormShiftAmp,2020.1.2,Win32,60,,,,,,,,,,,,,,2,9.72006,,0,0,10,10,58,1,stimuli/stim_20210407_power2amp/equal_lnn_AM2.4Hz_58.m4a,,,
,,,,,,,,,,,,41154,2021-04-27_22h27.49.725,judgeSpeechMusic_20210407_logNormShiftAmp,2020.1.2,Win32,60,,,,,,,,,,,,,,2,6.137335,,0,0,11,11,90,1,stimuli/stim_20210407_power2amp/equal_lnn_AM4.2Hz_99.m4a,,,
,,,,,,,,,,,,41154,2021-04-27_22h27.49.725,judgeSpeechMusic_20210407_logNormShiftAmp,2020.1.2,Win32,60,,,,,,,,,,,,,,1,5.720175,,0,0,12,12,29,1,stimuli/stim_20210407_power2amp/equal_lnn_AM1.2Hz_4.m4a,,,
,,,,,,,,,,,,41154,2021-04-27_22h27.49.725,judgeSpeechMusic_20210407_logNormShiftAmp,2020.1.2,Win32,60,,,,,,,,,,,,,,1,6.0591,,0,0,13,13,0,1,stimuli/stim_20210407_power2amp/equal_lnn_AM0.6Hz_78.m4a,,,
,,,,,,,,,,,,41154,2021-04-27_22h27.49.725,judgeSpeechMusic_20210407_logNormShiftAmp,2020.1.2,Win32,60,,,,,,,,,,,,,,2,5.811795,,0,0,14,14,131,1,stimuli/stim_20210407_power2amp/equal_lnn_AM5.4Hz_12.m4a,,,
,,,,,,,,,,,,41154,2021-04-27_22h27.49.725,judgeSpeechMusic_20210407_logNormShiftAmp,2020.1.2,Win32,60,,,,,,,,,,,,,,1,6.248925,,0,0,15,15,31,1,stimuli/stim_20210407_power2amp/equal_lnn_AM1.8Hz_15.m4a,,,
,,,,,,,,,,,,41154,2021-04-27_22h27.49.725,judgeSpeechMusic_20210407_logNormShiftAmp,2020.1.2,Win32,60,,,,,,,,,,,,,,2,7.76751,,0,0,16,16,83,1,stimuli/stim_20210407_power2amp/equal_lnn_AM3.6Hz_73.m4a,,,
,,,,,,,,,,,,41154,2021-04-27_22h27.49.725,judgeSpeechMusic_20210407_logNormShiftAmp,2020.1.2,Win32,60,,,,,,,,,,,,,,2,7.90558,,0,0,17,17,104,1,stimuli/stim_20210407_power2amp/equal_lnn_AM4.2Hz_33.m4a,,,
,,,,,,,,,,,,41154,2021-04-27_22h27.49.725,judgeSpeechMusic_20210407_logNormShiftAmp,2020.1.2,Win32,60,,,,,,,,,,,,,,2,5.90257,,0,0,18,18,76,1,stimuli/stim_20210407_power2amp/equal_lnn_AM3.6Hz_7.m4a,,,
,,,,,,,,,,,,41154,2021-04-27_22h27.49.725,judgeSpeechMusic_20210407_logNormShiftAmp,2020.1.2,Win32,60,,,,,,,,,,,,,,2,6.244,,0,0,19,19,107,1,stimuli/stim_20210407_power2amp/equal_lnn_AM4.8Hz_100.m4a,,,
,,,,,,,,,,,,41154,2021-04-27_22h27.49.725,judgeSpeechMusic_20210407_logNormShiftAmp,2020.1.2,Win32,60,,,,,,,,,,,,,,2,7.094885,,0,0,20,20,72,1,stimuli/stim_20210407_power2amp/equal_lnn_AM3Hz_41.m4a,,,
,,,,,,,,,,,,41154,2021-04-27_22h27.49.725,judgeSpeechMusic_20210407_logNormShiftAmp,2020.1.2,Win32,60,,,,,,,,,,,,,,2,6.01205,,0,0,21,21,75,1,stimuli/stim_20210407_power2amp/equal_lnn_AM3.6Hz_89.m4a,,,
,,,,,,,,,,,,41154,2021-04-27_22h27.49.725,judgeSpeechMusic_20210407_logNormShiftAmp,2020.1.2,Win32,60,,,,,,,,,,,,,,1,5.93707,,0,0,22,22,35,1,stimuli/stim_20210407_power2amp/equal_lnn_AM1.8Hz_30.m4a,,,
,,,,,,,,,,,,41154,2021-04-27_22h27.49.725,judgeSpeechMusic_20210407_logNormShiftAmp,2020.1.2,Win32,60,,,,,,,,,,,,,,2,6.6011,,0,0,23,23,132,1,stimuli/stim_20210407_power2amp/equal_lnn_AM5.4Hz_98.m4a,,,
,,,,,,,,,,,,41154,2021-04-27_22h27.49.725,judgeSpeechMusic_20210407_logNormShiftAmp,2020.1.2,Win32,60,,,,,,,,,,,,,,2,5.889975,,0,0,24,24,77,1,stimuli/stim_20210407_power2amp/equal_lnn_AM3.6Hz_12.m4a,,,
,,,,,,,,,,,,41154,2021-04-27_22h27.49.725,judgeSpeechMusic_20210407_logNormShiftAmp,2020.1.2,Win32,60,,,,,,,,,,,,,,1,7.01738,,0,0,25,25,93,1,stimuli/stim_20210407_power2amp/equal_lnn_AM4.2Hz_67.m4a,,,
,,,,,,,,,,,,41154,2021-04-27_22h27.49.725,judgeSpeechMusic_20210407_logNormShiftAmp,2020.1.2,Win32,60,,,,,,,,,,,,,,1,6.19303,,0,0,26,26,32,1,stimuli/stim_20210407_power2amp/equal_lnn_AM1.8Hz_4.m4a,,,
,,,,,,,,,,,,41154,2021-04-27_22h27.49.725,judgeSpeechMusic_20210407_logNormShiftAmp,2020.1.2,Win32,60,,,,,,,,,,,,,,1,6.158395,,0,0,27,27,15,1,stimuli/stim_20210407_power2amp/equal_lnn_AM1.2Hz_64.m4a,,,
,,,,,,,,,,,,41154,2021-04-27_22h27.49.725,judgeSpeechMusic_20210407_logNormShiftAmp,2020.1.2,Win32,60,,,,,,,,,,,,,,1,5.867355,,0,0,28,28,13,1,stimuli/stim_20210407_power2amp/equal_lnn_AM0.6Hz_52.m4a,,,
,,,,,,,,,,,,41154,2021-04-27_22h27.49.725,judgeSpeechMusic_20210407_logNormShiftAmp,2020.1.2,Win32,60,,,,,,,,,,,,,,2,5.88693,,0,0,29,29,88,1,stimuli/stim_20210407_power2amp/equal_lnn_AM3.6Hz_14.m4a,,,
,,,,,,,,,,,,41154,2021-04-27_22h27.49.725,judgeSpeechMusic_20210407_logNormShiftAmp,2020.1.2,Win32,60,,,,,,,,,,,,,,2,6.909715,,0,0,30,30,113,1,stimuli/stim_20210407_power2amp/equal_lnn_AM4.8Hz_61.m4a,,,
,,,,,,,,,,,,41154,2021-04-27_22h27.49.725,judgeSpeechMusic_20210407_logNormShiftAmp,2020.1.2,Win32,60,,,,,,,,,,,,,,2,5.706225,,0,0,31,31,69,1,stimuli/stim_20210407_power2amp/equal_lnn_AM3Hz_9.m4a,,,
,,,,,,,,,,,,41154,2021-04-27_22h27.49.725,judgeSpeechMusic_20210407_logNormShiftAmp,2020.1.2,Win32,60,,,,,,,,,,,,,,1,5.66611,,0,0,32,32,37,1,stimuli/stim_20210407_power2amp/equal_lnn_AM1.8Hz_55.m4a,,,
,,,,,,,,,,,,41154,2021-04-27_22h27.49.725,judgeSpeechMusic_20210407_logNormShiftAmp,2020.1.2,Win32,60,,,,,,,,,,,,,,2,5.630385,3,1,0,33,33,91,1,stimuli/stim_20210407_power2amp/equal_lnn_AM4.2Hz_23.m4a,1.629755,,
,,,,,,,,,,,,41154,2021-04-27_22h27.49.725,judgeSpeechMusic_20210407_logNormShiftAmp,2020.1.2,Win32,60,,,,,,,,,,,,,,1,6.04673,,0,0,34,34,7,1,stimuli/stim_20210407_power2amp/equal_lnn_AM0.6Hz_1.m4a,,,
,,,,,,,,,,,,41154,2021-04-27_22h27.49.725,judgeSpeechMusic_20210407_logNormShiftAmp,2020.1.2,Win32,60,,,,,,,,,,,,,,1,5.720695,,0,0,35,35,26,1,stimuli/stim_20210407_power2amp/equal_lnn_AM1.2Hz_21.m4a,,,
,,,,,,,,,,,,41154,2021-04-27_22h27.49.725,judgeSpeechMusic_20210407_logNormShiftAmp,2020.1.2,Win32,60,,,,,,,,,,,,,,2,5.781805,,0,0,36,36,116,1,stimuli/stim_20210407_power2amp/equal_lnn_AM4.8Hz_3.m4a,,,
,,,,,,,,,,,,41154,2021-04-27_22h27.49.725,judgeSpeechMusic_20210407_logNormShiftAmp,2020.1.2,Win32,60,,,,,,,,,,,,,,1,7.180485,,0,0,37,37,10,1,stimuli/stim_20210407_power2amp/equal_lnn_AM0.6Hz_84.m4a,,,
,,,,,,,,,,,,41154,2021-04-27_22h27.49.725,judgeSpeechMusic_20210407_logNormShiftAmp,2020.1.2,Win32,60,,,,,,,,,,,,,,1,5.81761,,0,0,38,38,21,1,stimuli/stim_20210407_power2amp/equal_lnn_AM1.2Hz_89.m4a,,,
,,,,,,,,,,,,41154,2021-04-27_22h27.49.725,judgeSpeechMusic_20210407_logNormShiftAmp,2020.1.2,Win32,60,,,,,,,,,,,,,,2,5.962755,,0,0,39,39,118,1,stimuli/stim_20210407_power2amp/equal_lnn_AM4.8Hz_38.m4a,,,
,,,,,,,,,,,,41154,2021-04-27_22h27.49.725,judgeSpeechMusic_20210407_logNormShiftAmp,2020.1.2,Win32,60,,,,,,,,,,,,,,2,6.88685,,0,0,40,40,96,1,stimuli/stim_20210407_power2amp/equal_lnn_AM4.2Hz_44.m4a,,,
,,,,,,,,,,,,41154,2021-04-27_22h27.49.725,judgeSpeechMusic_20210407_logNormShiftAmp,2020.1.2,Win32,60,,,,,,,,,,,,,,1,5.99867,,0,0,41,41,66,1,stimuli/stim_20210407_power2amp/equal_lnn_AM3Hz_33.m4a,,,
,,,,,,,,,,,,41154,2021-04-27_22h27.49.725,judgeSpeechMusic_20210407_logNormShiftAmp,2020.1.2,Win32,60,,,,,,,,,,,,,,1,5.76273,,0,0,42,42,57,1,stimuli/stim_20210407_power2amp/equal_lnn_AM2.4Hz_28.m4a,,,
,,,,,,,,,,,,41154,2021-04-27_22h27.49.725,judgeSpeechMusic_20210407_logNormShiftAmp,2020.1.2,Win32,60,,,,,,,,,,,,,,2,5.88347,,0,0,43,43,89,1,stimuli/stim_20210407_power2amp/equal_lnn_AM3.6Hz_63.m4a,,,
,,,,,,,,,,,,41154,2021-04-27_22h27.49.725,judgeSpeechMusic_20210407_logNormShiftAmp,2020.1.2,Win32,60,,,,,,,,,,,,,,2,5.63798,,0,0,44,44,134,1,stimuli/stim_20210407_power2amp/equal_lnn_AM5.4Hz_14.m4a,,,
,,,,,,,,,,,,41154,2021-04-27_22h27.49.725,judgeSpeechMusic_20210407_logNormShiftAmp,2020.1.2,Win32,60,,,,,,,,,,,,,,2,5.72817,,0,0,45,45,109,1,stimuli/stim_20210407_power2amp/equal_lnn_AM4.8Hz_20.m4a,,,
,,,,,,,,,,,,41154,2021-04-27_22h27.49.725,judgeSpeechMusic_20210407_logNormShiftAmp,2020.1.2,Win32,60,,,,,,,,,,,,,,1,6.24418,,0,0,46,46,18,1,stimuli/stim_20210407_power2amp/equal_lnn_AM1.2Hz_27.m4a,,,
,,,,,,,,,,,,41154,2021-04-27_22h27.49.725,judgeSpeechMusic_20210407_logNormShiftAmp,2020.1.2,Win32,60,,,,,,,,,,,,,,2,5.636965,,0,0,47,47,136,1,stimuli/stim_20210407_power2amp/equal_lnn_AM6Hz_17.m4a,,,
,,,,,,,,,,,,41154,2021-04-27_22h27.49.725,judgeSpeechMusic_20210407_logNormShiftAmp,2020.1.2,Win32,60,,,,,,,,,,,,,,2,5.75867,,0,0,48,48,122,1,stimuli/stim_20210407_power2amp/equal_lnn_AM5.4Hz_1.m4a,,,
,,,,,,,,,,,,41154,2021-04-27_22h27.49.725,judgeSpeechMusic_20210407_logNormShiftAmp,2020.1.2,Win32,60,,,,,,,,,,,,,,1,6.53253,,0,0,49,49,19,1,stimuli/stim_20210407_power2amp/equal_lnn_AM1.2Hz_26.m4a,,,
,,,,,,,,,,,,41154,2021-04-27_22h27.49.725,judgeSpeechMusic_20210407_logNormShiftAmp,2020.1.2,Win32,60,,,,,,,,,,,,,,1,8.121085,,0,0,50,50,27,1,stimuli/stim_20210407_power2amp/equal_lnn_AM1.2Hz_43.m4a,,,
,,,,,,,,,,,,41154,2021-04-27_22h27.49.725,judgeSpeechMusic_20210407_logNormShiftAmp,2020.1.2,Win32,60,,,,,,,,,,,,,,2,5.716895,,0,0,51,51,140,1,stimuli/stim_20210407_power2amp/equal_lnn_AM6Hz_85.m4a,,,
,,,,,,,,,,,,41154,2021-04-27_22h27.49.725,judgeSpeechMusic_20210407_logNormShiftAmp,2020.1.2,Win32,60,,,,,,,,,,,,,,2,5.88826,,0,0,52,52,121,1,stimuli/stim_20210407_power2amp/equal_lnn_AM5.4Hz_71.m4a,,,
,,,,,,,,,,,,41154,2021-04-27_22h27.49.725,judgeSpeechMusic_20210407_logNormShiftAmp,2020.1.2,Win32,60,,,,,,,,,,,,,,2,7.44092,,0,0,53,53,97,1,stimuli/stim_20210407_power2amp/equal_lnn_AM4.2Hz_42.m4a,,,
,,,,,,,,,,,,41154,2021-04-27_22h27.49.725,judgeSpeechMusic_20210407_logNormShiftAmp,2020.1.2,Win32,60,,,,,,,,,,,,,,2,5.720845,,0,0,54,54,74,1,stimuli/stim_20210407_power2amp/equal_lnn_AM3Hz_80.m4a,,,
,,,,,,,,,,,,41154,2021-04-27_22h27.49.725,judgeSpeechMusic_20210407_logNormShiftAmp,2020.1.2,Win32,60,,,,,,,,,,,,,,1,5.581505,,0,0,55,55,6,1,stimuli/stim_20210407_power2amp/equal_lnn_AM0.6Hz_63.m4a,,,
,,,,,,,,,,,,41154,2021-04-27_22h27.49.725,judgeSpeechMusic_20210407_logNormShiftAmp,2020.1.2,Win32,60,,,,,,,,,,,,,,2,5.596215,,0,0,56,56,82,1,stimuli/stim_20210407_power2amp/equal_lnn_AM3.6Hz_13.m4a,,,
,,,,,,,,,,,,41154,2021-04-27_22h27.49.725,judgeSpeechMusic_20210407_logNormShiftAmp,2020.1.2,Win32,60,,,,,,,,,,,,,,2,5.550425,1,1,0,57,57,139,1,stimuli/stim_20210407_power2amp/equal_lnn_AM6Hz_76.m4a,0.83068,,
,,,,,,,,,,,,41154,2021-04-27_22h27.49.725,judgeSpeechMusic_20210407_logNormShiftAmp,2020.1.2,Win32,60,,,,,,,,,,,,,,1,5.59121,,0,0,58,58,1,1,stimuli/stim_20210407_power2amp/equal_lnn_AM0.6Hz_97.m4a,,,
,,,,,,,,,,,,41154,2021-04-27_22h27.49.725,judgeSpeechMusic_20210407_logNormShiftAmp,2020.1.2,Win32,60,,,,,,,,,,,,,,1,5.630425,,0,0,59,59,17,1,stimuli/stim_20210407_power2amp/equal_lnn_AM1.2Hz_61.m4a,,,
,,,,,,,,,,,,41154,2021-04-27_22h27.49.725,judgeSpeechMusic_20210407_logNormShiftAmp,2020.1.2,Win32,60,,,,,,,,,,,,,,2,6.530585,,0,0,60,60,68,1,stimuli/stim_20210407_power2amp/equal_lnn_AM3Hz_67.m4a,,,
,,,,,,,,,,,,41154,2021-04-27_22h27.49.725,judgeSpeechMusic_20210407_logNormShiftAmp,2020.1.2,Win32,60,,,,,,,,,,,,,,2,6.30959,,0,0,61,61,78,1,stimuli/stim_20210407_power2amp/equal_lnn_AM3.6Hz_26.m4a,,,
,,,,,,,,,,,,41154,2021-04-27_22h27.49.725,judgeSpeechMusic_20210407_logNormShiftAmp,2020.1.2,Win32,60,,,,,,,,,,,,,,2,5.91421,,0,0,62,62,61,1,stimuli/stim_20210407_power2amp/equal_lnn_AM3Hz_6.m4a,,,
,,,,,,,,,,,,41154,2021-04-27_22h27.49.725,judgeSpeechMusic_20210407_logNormShiftAmp,2020.1.2,Win32,60,,,,,,,,,,,,,,2,7.12137,,0,0,63,63,30,1,stimuli/stim_20210407_power2amp/equal_lnn_AM1.8Hz_34.m4a,,,
,,,,,,,,,,,,41154,2021-04-27_22h27.49.725,judgeSpeechMusic_20210407_logNormShiftAmp,2020.1.2,Win32,60,,,,,,,,,,,,,,2,6.366245,,0,0,64,64,124,1,stimuli/stim_20210407_power2amp/equal_lnn_AM5.4Hz_60.m4a,,,
,,,,,,,,,,,,41154,2021-04-27_22h27.49.725,judgeSpeechMusic_20210407_logNormShiftAmp,2020.1.2,Win32,60,,,,,,,,,,,,,,1,7.687215,,0,0,65,65,119,1,stimuli/stim_20210407_power2amp/equal_lnn_AM4.8Hz_16.m4a,,,
,,,,,,,,,,,,41154,2021-04-27_22h27.49.725,judgeSpeechMusic_20210407_logNormShiftAmp,2020.1.2,Win32,60,,,,,,,,,,,,,,1,7.312245,,0,0,66,66,81,1,stimuli/stim_20210407_power2amp/equal_lnn_AM3.6Hz_50.m4a,,,
,,,,,,,,,,,,41154,2021-04-27_22h27.49.725,judgeSpeechMusic_20210407_logNormShiftAmp,2020.1.2,Win32,60,,,,,,,,,,,,,,1,6.431745,,0,0,67,67,22,1,stimuli/stim_20210407_power2amp/equal_lnn_AM1.2Hz_71.m4a,,,
,,,,,,,,,,,,41154,2021-04-27_22h27.49.725,judgeSpeechMusic_20210407_logNormShiftAmp,2020.1.2,Win32,60,,,,,,,,,,,,,,1,5.725805,,0,0,68,68,49,1,stimuli/stim_20210407_power2amp/equal_lnn_AM2.4Hz_67.m4a,,,
,,,,,,,,,,,,41154,2021-04-27_22h27.49.725,judgeSpeechMusic_20210407_logNormShiftAmp,2020.1.2,Win32,60,,,,,,,,,,,,,,1,5.748175,,0,0,69,69,65,1,stimuli/stim_20210407_power2amp/equal_lnn_AM3Hz_10.m4a,,,
,,,,,,,,,,,,41154,2021-04-27_22h27.49.725,judgeSpeechMusic_20210407_logNormShiftAmp,2020.1.2,Win32,60,,,,,,,,,,,,,,2,7.929495,,0,0,70,70,99,1,stimuli/stim_20210407_power2amp/equal_lnn_AM4.2Hz_20.m4a,,,
,,,,,,,,,,,,41154,2021-04-27_22h27.49.725,judgeSpeechMusic_20210407_logNormShiftAmp,2020.1.2,Win32,60,,,,,,,,,,,,,,2,5.553225,,0,0,71,71,148,1,stimuli/stim_20210407_power2amp/equal_lnn_AM6Hz_38.m4a,,,
,,,,,,,,,,,,41154,2021-04-27_22h27.49.725,judgeSpeechMusic_20210407_logNormShiftAmp,2020.1.2,Win32,60,,,,,,,,,,,,,,2,7.14335,,0,0,72,72,145,1,stimuli/stim_20210407_power2amp/equal_lnn_AM6Hz_44.m4a,,,
,,,,,,,,,,,,41154,2021-04-27_22h27.49.725,judgeSpeechMusic_20210407_logNormShiftAmp,2020.1.2,Win32,60,,,,,,,,,,,,,,1,5.967005,,0,0,73,73,5,1,stimuli/stim_20210407_power2amp/equal_lnn_AM0.6Hz_58.m4a,,,
,,,,,,,,,,,,41154,2021-04-27_22h27.49.725,judgeSpeechMusic_20210407_logNormShiftAmp,2020.1.2,Win32,60,,,,,,,,,,,,,,2,5.97995,,0,0,74,74,123,1,stimuli/stim_20210407_power2amp/equal_lnn_AM5.4Hz_36.m4a,,,
,,,,,,,,,,,,41154,2021-04-27_22h27.49.725,judgeSpeechMusic_20210407_logNormShiftAmp,2020.1.2,Win32,60,,,,,,,,,,,,,,2,6.98374,,0,0,75,75,129,1,stimuli/stim_20210407_power2amp/equal_lnn_AM5.4Hz_28.m4a,,,
,,,,,,,,,,,,41154,2021-04-27_22h27.49.725,judgeSpeechMusic_20210407_logNormShiftAmp,2020.1.2,Win32,60,,,,,,,,,,,,,,1,6.72659,,0,0,76,76,25,1,stimuli/stim_20210407_power2amp/equal_lnn_AM1.2Hz_9.m4a,,,
,,,,,,,,,,,,41154,2021-04-27_22h27.49.725,judgeSpeechMusic_20210407_logNormShiftAmp,2020.1.2,Win32,60,,,,,,,,,,,,,,1,7.57328,,0,0,77,77,84,1,stimuli/stim_20210407_power2amp/equal_lnn_AM3.6Hz_75.m4a,,,
,,,,,,,,,,,,41154,2021-04-27_22h27.49.725,judgeSpeechMusic_20210407_logNormShiftAmp,2020.1.2,Win32,60,,,,,,,,,,,,,,2,6.851005,,0,0,78,78,38,1,stimuli/stim_20210407_power2amp/equal_lnn_AM1.8Hz_25.m4a,,,
,,,,,,,,,,,,41154,2021-04-27_22h27.49.725,judgeSpeechMusic_20210407_logNormShiftAmp,2020.1.2,Win32,60,,,,,,,,,,,,,,1,5.851445,3,1,0,79,79,14,1,stimuli/stim_20210407_power2amp/equal_lnn_AM0.6Hz_26.m4a,0.336835,,
,,,,,,,,,,,,41154,2021-04-27_22h27.49.725,judgeSpeechMusic_20210407_logNormShiftAmp,2020.1.2,Win32,60,,,,,,,,,,,,,,1,6.03208,,0,0,80,80,8,1,stimuli/stim_20210407_power2amp/equal_lnn_AM0.6Hz_9.m4a,,,
,,,,,,,,,,,,41154,2021-04-27_22h27.49.725,judgeSpeechMusic_20210407_logNormShiftAmp,2020.1.2,Win32,60,,,,,,,,,,,,,,1,5.495305,,0,0,81,81,20,1,stimuli/stim_20210407_power2amp/equal_lnn_AM1.2Hz_92.m4a,,,
,,,,,,,,,,,,41154,2021-04-27_22h27.49.725,judgeSpeechMusic_20210407_logNormShiftAmp,2020.1.2,Win32,60,,,,,,,,,,,,,,2,5.622965,,0,0,82,82,147,1,stimuli/stim_20210407_power2amp/equal_lnn_AM6Hz_68.m4a,,,
,,,,,,,,,,,,41154,2021-04-27_22h27.49.725,judgeSpeechMusic_20210407_logNormShiftAmp,2020.1.2,Win32,60,,,,,,,,,,,,,,2,5.52546,,0,0,83,83,73,1,stimuli/stim_20210407_power2amp/equal_lnn_AM3Hz_82.m4a,,,
,,,,,,,,,,,,41154,2021-04-27_22h27.49.725,judgeSpeechMusic_20210407_logNormShiftAmp,2020.1.2,Win32,60,,,,,,,,,,,,,,2,5.512025,,0,0,84,84,98,1,stimuli/stim_20210407_power2amp/equal_lnn_AM4.2Hz_97.m4a,,,
,,,,,,,,,,,,41154,2021-04-27_22h27.49.725,judgeSpeechMusic_20210407_logNormShiftAmp,2020.1.2,Win32,60,,,,,,,,,,,,,,2,5.50466,,0,0,85,85,79,1,stimuli/stim_20210407_power2amp/equal_lnn_AM3.6Hz_96.m4a,,,
,,,,,,,,,,,,41154,2021-04-27_22h27.49.725,judgeSpeechMusic_20210407_logNormShiftAmp,2020.1.2,Win32,60,,,,,,,,,,,,,,1,5.866875,,0,0,86,86,44,1,stimuli/stim_20210407_power2amp/equal_lnn_AM1.8Hz_36.m4a,,,
,,,,,,,,,,,,41154,2021-04-27_22h27.49.725,judgeSpeechMusic_20210407_logNormShiftAmp,2020.1.2,Win32,60,,,,,,,,,,,,,,2,5.68138,,0,0,87,87,105,1,stimuli/stim_20210407_power2amp/equal_lnn_AM4.8Hz_66.m4a,,,
,,,,,,,,,,,,41154,2021-04-27_22h27.49.725,judgeSpeechMusic_20210407_logNormShiftAmp,2020.1.2,Win32,60,,,,,,,,,,,,,,1,6.432175,,0,0,88,88,127,1,stimuli/stim_20210407_power2amp/equal_lnn_AM5.4Hz_35.m4a,,,
,,,,,,,,,,,,41154,2021-04-27_22h27.49.725,judgeSpeechMusic_20210407_logNormShiftAmp,2020.1.2,Win32,60,,,,,,,,,,,,,,2,6.78202,,0,0,89,89,86,1,stimuli/stim_20210407_power2amp/equal_lnn_AM3.6Hz_20.m4a,,,
,,,,,,,,,,,,41154,2021-04-27_22h27.49.725,judgeSpeechMusic_20210407_logNormShiftAmp,2020.1.2,Win32,60,,,,,,,,,,,,,,1,5.95713,,0,0,90,90,50,1,stimuli/stim_20210407_power2amp/equal_lnn_AM2.4Hz_82.m4a,,,
,,,,,,,,,,,,41154,2021-04-27_22h27.49.725,judgeSpeechMusic_20210407_logNormShiftAmp,2020.1.2,Win32,60,,,,,,,,,,,,,,1,6.033715,,0,0,91,91,16,1,stimuli/stim_20210407_power2amp/equal_lnn_AM1.2Hz_19.m4a,,,
,,,,,,,,,,,,41154,2021-04-27_22h27.49.725,judgeSpeechMusic_20210407_logNormShiftAmp,2020.1.2,Win32,60,,,,,,,,,,,,,,1,5.56033,,0,0,92,92,41,1,stimuli/stim_20210407_power2amp/equal_lnn_AM1.8Hz_77.m4a,,,
,,,,,,,,,,,,41154,2021-04-27_22h27.49.725,judgeSpeechMusic_20210407_logNormShiftAmp,2020.1.2,Win32,60,,,,,,,,,,,,,,1,5.83042,,0,0,93,93,9,1,stimuli/stim_20210407_power2amp/equal_lnn_AM0.6Hz_86.m4a,,,
,,,,,,,,,,,,41154,2021-04-27_22h27.49.725,judgeSpeechMusic_20210407_logNormShiftAmp,2020.1.2,Win32,60,,,,,,,,,,,,,,2,5.65027,,0,0,94,94,47,1,stimuli/stim_20210407_power2amp/equal_lnn_AM2.4Hz_55.m4a,,,
,,,,,,,,,,,,41154,2021-04-27_22h27.49.725,judgeSpeechMusic_20210407_logNormShiftAmp,2020.1.2,Win32,60,,,,,,,,,,,,,,2,6.241485,,0,0,95,95,85,1,stimuli/stim_20210407_power2amp/equal_lnn_AM3.6Hz_84.m4a,,,
,,,,,,,,,,,,41154,2021-04-27_22h27.49.725,judgeSpeechMusic_20210407_logNormShiftAmp,2020.1.2,Win32,60,,,,,,,,,,,,,,2,6.716635,,0,0,96,96,94,1,stimuli/stim_20210407_power2amp/equal_lnn_AM4.2Hz_35.m4a,,,
,,,,,,,,,,,,41154,2021-04-27_22h27.49.725,judgeSpeechMusic_20210407_logNormShiftAmp,2020.1.2,Win32,60,,,,,,,,,,,,,,1,6.49688,,0,0,97,97,28,1,stimuli/stim_20210407_power2amp/equal_lnn_AM1.2Hz_54.m4a,,,
,,,,,,,,,,,,41154,2021-04-27_22h27.49.725,judgeSpeechMusic_20210407_logNormShiftAmp,2020.1.2,Win32,60,,,,,,,,,,,,,,1,5.851865,,0,0,98,98,33,1,stimuli/stim_20210407_power2amp/equal_lnn_AM1.8Hz_26.m4a,,,
,,,,,,,,,,,,41154,2021-04-27_22h27.49.725,judgeSpeechMusic_20210407_logNormShiftAmp,2020.1.2,Win32,60,,,,,,,,,,,,,,1,5.83536,,0,0,99,99,40,1,stimuli/stim_20210407_power2amp/equal_lnn_AM1.8Hz_42.m4a,,,
,,,,,,,,,,,,41154,2021-04-27_22h27.49.725,judgeSpeechMusic_20210407_logNormShiftAmp,2020.1.2,Win32,60,,,,,,,,,,,,,,1,6.15788,,0,0,100,100,48,1,stimuli/stim_20210407_power2amp/equal_lnn_AM2.4Hz_20.m4a,,,
,,,,,,,,,,,,41154,2021-04-27_22h27.49.725,judgeSpeechMusic_20210407_logNormShiftAmp,2020.1.2,Win32,60,,,,,,,,,,,,,,1,5.394995,4,1,0,101,101,23,1,stimuli/stim_20210407_power2amp/equal_lnn_AM1.2Hz_95.m4a,1.398905,,
,,,,,,,,,,,,41154,2021-04-27_22h27.49.725,judgeSpeechMusic_20210407_logNormShiftAmp,2020.1.2,Win32,60,,,,,,,,,,,,,,2,5.97041,,0,0,102,102,138,1,stimuli/stim_20210407_power2amp/equal_lnn_AM6Hz_47.m4a,,,
,,,,,,,,,,,,41154,2021-04-27_22h27.49.725,judgeSpeechMusic_20210407_logNormShiftAmp,2020.1.2,Win32,60,,,,,,,,,,,,,,2,5.41869,,0,0,103,103,144,1,stimuli/stim_20210407_power2amp/equal_lnn_AM6Hz_59.m4a,,,
,,,,,,,,,,,,41154,2021-04-27_22h27.49.725,judgeSpeechMusic_20210407_logNormShiftAmp,2020.1.2,Win32,60,,,,,,,,,,,,,,2,5.38999,,0,0,104,104,141,1,stimuli/stim_20210407_power2amp/equal_lnn_AM6Hz_42.m4a,,,
,,,,,,,,,,,,41154,2021-04-27_22h27.49.725,judgeSpeechMusic_20210407_logNormShiftAmp,2020.1.2,Win32,60,,,,,,,,,,,,,,1,5.762415,,0,0,105,105,120,1,stimuli/stim_20210407_power2amp/equal_lnn_AM5.4Hz_34.m4a,,,
,,,,,,,,,,,,41154,2021-04-27_22h27.49.725,judgeSpeechMusic_20210407_logNormShiftAmp,2020.1.2,Win32,60,,,,,,,,,,,,,,1,5.574005,,0,0,106,106,55,1,stimuli/stim_20210407_power2amp/equal_lnn_AM2.4Hz_6.m4a,,,
,,,,,,,,,,,,41154,2021-04-27_22h27.49.725,judgeSpeechMusic_20210407_logNormShiftAmp,2020.1.2,Win32,60,,,,,,,,,,,,,,1,5.387755,,0,0,107,107,52,1,stimuli/stim_20210407_power2amp/equal_lnn_AM2.4Hz_23.m4a,,,
,,,,,,,,,,,,41154,2021-04-27_22h27.49.725,judgeSpeechMusic_20210407_logNormShiftAmp,2020.1.2,Win32,60,,,,,,,,,,,,,,1,5.533645,,0,0,108,108,34,1,stimuli/stim_20210407_power2amp/equal_lnn_AM1.8Hz_81.m4a,,,
,,,,,,,,,,,,41154,2021-04-27_22h27.49.725,judgeSpeechMusic_20210407_logNormShiftAmp,2020.1.2,Win32,60,,,,,,,,,,,,,,2,7.42048,,0,0,109,109,62,1,stimuli/stim_20210407_power2amp/equal_lnn_AM3Hz_14.m4a,,,
,,,,,,,,,,,,41154,2021-04-27_22h27.49.725,judgeSpeechMusic_20210407_logNormShiftAmp,2020.1.2,Win32,60,,,,,,,,,,,,,,1,5.85483,,0,0,110,110,2,1,stimuli/stim_20210407_power2amp/equal_lnn_AM0.6Hz_14.m4a,,,
,,,,,,,,,,,,41154,2021-04-27_22h27.49.725,judgeSpeechMusic_20210407_logNormShiftAmp,2020.1.2,Win32,60,,,,,,,,,,,,,,2,5.241535,,0,0,111,111,60,1,stimuli/stim_20210407_power2amp/equal_lnn_AM3Hz_16.m4a,,,
,,,,,,,,,,,,41154,2021-04-27_22h27.49.725,judgeSpeechMusic_20210407_logNormShiftAmp,2020.1.2,Win32,60,,,,,,,,,,,,,,1,5.409105,,0,0,112,112,11,1,stimuli/stim_20210407_power2amp/equal_lnn_AM0.6Hz_6.m4a,,,
,,,,,,,,,,,,41154,2021-04-27_22h27.49.725,judgeSpeechMusic_20210407_logNormShiftAmp,2020.1.2,Win32,60,,,,,,,,,,,,,,2,5.61982,,0,0,113,113,143,1,stimuli/stim_20210407_power2amp/equal_lnn_AM6Hz_8.m4a,,,
,,,,,,,,,,,,41154,2021-04-27_22h27.49.725,judgeSpeechMusic_20210407_logNormShiftAmp,2020.1.2,Win32,60,,,,,,,,,,,,,,2,5.269225,,0,0,114,114,125,1,stimuli/stim_20210407_power2amp/equal_lnn_AM5.4Hz_82.m4a,,,
,,,,,,,,,,,,41154,2021-04-27_22h27.49.725,judgeSpeechMusic_20210407_logNormShiftAmp,2020.1.2,Win32,60,,,,,,,,,,,,,,2,5.580765,,0,0,115,115,106,1,stimuli/stim_20210407_power2amp/equal_lnn_AM4.8Hz_83.m4a,,,
,,,,,,,,,,,,41154,2021-04-27_22h27.49.725,judgeSpeechMusic_20210407_logNormShiftAmp,2020.1.2,Win32,60,,,,,,,,,,,,,,1,5.623935,,0,0,116,116,43,1,stimuli/stim_20210407_power2amp/equal_lnn_AM1.8Hz_70.m4a,,,
,,,,,,,,,,,,41154,2021-04-27_22h27.49.725,judgeSpeechMusic_20210407_logNormShiftAmp,2020.1.2,Win32,60,,,,,,,,,,,,,,2,5.286045,,0,0,117,117,135,1,stimuli/stim_20210407_power2amp/equal_lnn_AM6Hz_1.m4a,,,
,,,,,,,,,,,,41154,2021-04-27_22h27.49.725,judgeSpeechMusic_20210407_logNormShiftAmp,2020.1.2,Win32,60,,,,,,,,,,,,,,2,5.57796,,0,0,118,118,59,1,stimuli/stim_20210407_power2amp/equal_lnn_AM2.4Hz_57.m4a,,,
,,,,,,,,,,,,41154,2021-04-27_22h27.49.725,judgeSpeechMusic_20210407_logNormShiftAmp,2020.1.2,Win32,60,,,,,,,,,,,,,,2,5.5284,,0,0,119,119,133,1,stimuli/stim_20210407_power2amp/equal_lnn_AM5.4Hz_58.m4a,,,
,,,,,,,,,,,,41154,2021-04-27_22h27.49.725,judgeSpeechMusic_20210407_logNormShiftAmp,2020.1.2,Win32,60,,,,,,,,,,,,,,2,7.07423,,0,0,120,120,112,1,stimuli/stim_20210407_power2amp/equal_lnn_AM4.8Hz_36.m4a,,,
,,,,,,,,,,,,41154,2021-04-27_22h27.49.725,judgeSpeechMusic_20210407_logNormShiftAmp,2020.1.2,Win32,60,,,,,,,,,,,,,,1,6.92111,,0,0,121,121,36,1,stimuli/stim_20210407_power2amp/equal_lnn_AM1.8Hz_50.m4a,,,
,,,,,,,,,,,,41154,2021-04-27_22h27.49.725,judgeSpeechMusic_20210407_logNormShiftAmp,2020.1.2,Win32,60,,,,,,,,,,,,,,2,6.17217,,0,0,122,122,146,1,stimuli/stim_20210407_power2amp/equal_lnn_AM6Hz_45.m4a,,,
,,,,,,,,,,,,41154,2021-04-27_22h27.49.725,judgeSpeechMusic_20210407_logNormShiftAmp,2020.1.2,Win32,60,,,,,,,,,,,,,,2,7.16775,,0,0,123,123,95,1,stimuli/stim_20210407_power2amp/equal_lnn_AM4.2Hz_80.m4a,,,
,,,,,,,,,,,,41154,2021-04-27_22h27.49.725,judgeSpeechMusic_20210407_logNormShiftAmp,2020.1.2,Win32,60,,,,,,,,,,,,,,2,5.36608,,0,0,124,124,149,1,stimuli/stim_20210407_power2amp/equal_lnn_AM6Hz_65.m4a,,,
,,,,,,,,,,,,41154,2021-04-27_22h27.49.725,judgeSpeechMusic_20210407_logNormShiftAmp,2020.1.2,Win32,60,,,,,,,,,,,,,,2,5.60366,,0,0,125,125,103,1,stimuli/stim_20210407_power2amp/equal_lnn_AM4.2Hz_81.m4a,,,
,,,,,,,,,,,,41154,2021-04-27_22h27.49.725,judgeSpeechMusic_20210407_logNormShiftAmp,2020.1.2,Win32,60,,,,,,,,,,,,,,1,5.616835,1,1,0,126,126,3,1,stimuli/stim_20210407_power2amp/equal_lnn_AM0.6Hz_3.m4a,0.469975,,
,,,,,,,,,,,,41154,2021-04-27_22h27.49.725,judgeSpeechMusic_20210407_logNormShiftAmp,2020.1.2,Win32,60,,,,,,,,,,,,,,1,6.332505,,0,0,127,127,12,1,stimuli/stim_20210407_power2amp/equal_lnn_AM0.6Hz_90.m4a,,,
,,,,,,,,,,,,41154,2021-04-27_22h27.49.725,judgeSpeechMusic_20210407_logNormShiftAmp,2020.1.2,Win32,60,,,,,,,,,,,,,,2,5.745,,0,0,128,128,142,1,stimuli/stim_20210407_power2amp/equal_lnn_AM6Hz_15.m4a,,,
,,,,,,,,,,,,41154,2021-04-27_22h27.49.725,judgeSpeechMusic_20210407_logNormShiftAmp,2020.1.2,Win32,60,,,,,,,,,,,,,,2,5.2864,,0,0,129,129,114,1,stimuli/stim_20210407_power2amp/equal_lnn_AM4.8Hz_92.m4a,,,
,,,,,,,,,,,,41154,2021-04-27_22h27.49.725,judgeSpeechMusic_20210407_logNormShiftAmp,2020.1.2,Win32,60,,,,,,,,,,,,,,2,5.958615,,0,0,130,130,126,1,stimuli/stim_20210407_power2amp/equal_lnn_AM5.4Hz_94.m4a,,,
,,,,,,,,,,,,41154,2021-04-27_22h27.49.725,judgeSpeechMusic_20210407_logNormShiftAmp,2020.1.2,Win32,60,,,,,,,,,,,,,,1,5.66756,,0,0,131,131,39,1,stimuli/stim_20210407_power2amp/equal_lnn_AM1.8Hz_56.m4a,,,
,,,,,,,,,,,,41154,2021-04-27_22h27.49.725,judgeSpeechMusic_20210407_logNormShiftAmp,2020.1.2,Win32,60,,,,,,,,,,,,,,2,5.686005,,0,0,132,132,117,1,stimuli/stim_20210407_power2amp/equal_lnn_AM4.8Hz_95.m4a,,,
,,,,,,,,,,,,41154,2021-04-27_22h27.49.725,judgeSpeechMusic_20210407_logNormShiftAmp,2020.1.2,Win32,60,,,,,,,,,,,,,,2,6.83728,,0,0,133,133,115,1,stimuli/stim_20210407_power2amp/equal_lnn_AM4.8Hz_33.m4a,,,
,,,,,,,,,,,,41154,2021-04-27_22h27.49.725,judgeSpeechMusic_20210407_logNormShiftAmp,2020.1.2,Win32,60,,,,,,,,,,,,,,2,6.53505,,0,0,134,134,130,1,stimuli/stim_20210407_power2amp/equal_lnn_AM5.4Hz_42.m4a,,,
,,,,,,,,,,,,41154,2021-04-27_22h27.49.725,judgeSpeechMusic_20210407_logNormShiftAmp,2020.1.2,Win32,60,,,,,,,,,,,,,,2,5.74437,,0,0,135,135,137,1,stimuli/stim_20210407_power2amp/equal_lnn_AM6Hz_64.m4a,,,
,,,,,,,,,,,,41154,2021-04-27_22h27.49.725,judgeSpeechMusic_20210407_logNormShiftAmp,2020.1.2,Win32,60,,,,,,,,,,,,,,2,6.323495,,0,0,136,136,102,1,stimuli/stim_20210407_power2amp/equal_lnn_AM4.2Hz_15.m4a,,,
,,,,,,,,,,,,41154,2021-04-27_22h27.49.725,judgeSpeechMusic_20210407_logNormShiftAmp,2020.1.2,Win32,60,,,,,,,,,,,,,,1,5.71869,,0,0,137,137,53,1,stimuli/stim_20210407_power2amp/equal_lnn_AM2.4Hz_66.m4a,,,
,,,,,,,,,,,,41154,2021-04-27_22h27.49.725,judgeSpeechMusic_20210407_logNormShiftAmp,2020.1.2,Win32,60,,,,,,,,,,,,,,1,6.236305,,0,0,138,138,71,1,stimuli/stim_20210407_power2amp/equal_lnn_AM3Hz_18.m4a,,,
,,,,,,,,,,,,41154,2021-04-27_22h27.49.725,judgeSpeechMusic_20210407_logNormShiftAmp,2020.1.2,Win32,60,,,,,,,,,,,,,,2,6.151345,,0,0,139,139,80,1,stimuli/stim_20210407_power2amp/equal_lnn_AM3.6Hz_15.m4a,,,
,,,,,,,,,,,,41154,2021-04-27_22h27.49.725,judgeSpeechMusic_20210407_logNormShiftAmp,2020.1.2,Win32,60,,,,,,,,,,,,,,1,5.576905,,0,0,140,140,46,1,stimuli/stim_20210407_power2amp/equal_lnn_AM2.4Hz_64.m4a,,,
,,,,,,,,,,,,41154,2021-04-27_22h27.49.725,judgeSpeechMusic_20210407_logNormShiftAmp,2020.1.2,Win32,60,,,,,,,,,,,,,,1,5.513095,,0,0,141,141,70,1,stimuli/stim_20210407_power2amp/equal_lnn_AM3Hz_30.m4a,,,
,,,,,,,,,,,,41154,2021-04-27_22h27.49.725,judgeSpeechMusic_20210407_logNormShiftAmp,2020.1.2,Win32,60,,,,,,,,,,,,,,1,6.15032,,0,0,142,142,87,1,stimuli/stim_20210407_power2amp/equal_lnn_AM3.6Hz_57.m4a,,,
,,,,,,,,,,,,41154,2021-04-27_22h27.49.725,judgeSpeechMusic_20210407_logNormShiftAmp,2020.1.2,Win32,60,,,,,,,,,,,,,,1,5.532115,,0,0,143,143,45,1,stimuli/stim_20210407_power2amp/equal_lnn_AM2.4Hz_31.m4a,,,
,,,,,,,,,,,,41154,2021-04-27_22h27.49.725,judgeSpeechMusic_20210407_logNormShiftAmp,2020.1.2,Win32,60,,,,,,,,,,,,,,1,5.706415,,0,0,144,144,51,1,stimuli/stim_20210407_power2amp/equal_lnn_AM2.4Hz_85.m4a,,,
,,,,,,,,,,,,41154,2021-04-27_22h27.49.725,judgeSpeechMusic_20210407_logNormShiftAmp,2020.1.2,Win32,60,,,,,,,,,,,,,,1,5.76483,,0,0,145,145,56,1,stimuli/stim_20210407_power2amp/equal_lnn_AM2.4Hz_83.m4a,,,
,,,,,,,,,,,,41154,2021-04-27_22h27.49.725,judgeSpeechMusic_20210407_logNormShiftAmp,2020.1.2,Win32,60,,,,,,,,,,,,,,2,5.740265,2,1,0,146,146,128,1,stimuli/stim_20210407_power2amp/equal_lnn_AM5.4Hz_55.m4a,0.143325,,
,,,,,,,,,,,,41154,2021-04-27_22h27.49.725,judgeSpeechMusic_20210407_logNormShiftAmp,2020.1.2,Win32,60,,,,,,,,,,,,,,1,6.060895,,0,0,147,147,63,1,stimuli/stim_20210407_power2amp/equal_lnn_AM3Hz_97.m4a,,,
,,,,,,,,,,,,41154,2021-04-27_22h27.49.725,judgeSpeechMusic_20210407_logNormShiftAmp,2020.1.2,Win32,60,,,,,,,,,,,,,,1,5.833825,,0,0,148,148,67,1,stimuli/stim_20210407_power2amp/equal_lnn_AM3Hz_43.m4a,,,
,,,,,,,,,,,,41154,2021-04-27_22h27.49.725,judgeSpeechMusic_20210407_logNormShiftAmp,2020.1.2,Win32,60,,,,,,,,,,,,,,1,6.774605,,0,0,149,149,101,1,stimuli/stim_20210407_power2amp/equal_lnn_AM4.2Hz_46.m4a,,,
,,,,,,,,,,,,41154,2021-04-27_22h27.49.725,judgeSpeechMusic_20210407_logNormShiftAmp,2020.1.2,Win32,60,,,,,,,,,,,,,,1,6.06719,,0,1,0,150,13,1,stimuli/stim_20210407_power2amp/equal_lnn_AM0.6Hz_52.m4a,,,
,,,,,,,,,,,,41154,2021-04-27_22h27.49.725,judgeSpeechMusic_20210407_logNormShiftAmp,2020.1.2,Win32,60,,,,,,,,,,,,,,2,6.186985,,0,1,1,151,93,1,stimuli/stim_20210407_power2amp/equal_lnn_AM4.2Hz_67.m4a,,,
,,,,,,,,,,,,41154,2021-04-27_22h27.49.725,judgeSpeechMusic_20210407_logNormShiftAmp,2020.1.2,Win32,60,,,,,,,,,,,,,,1,6.12219,,0,1,2,152,2,1,stimuli/stim_20210407_power2amp/equal_lnn_AM0.6Hz_14.m4a,,,
,,,,,,,,,,,,41154,2021-04-27_22h27.49.725,judgeSpeechMusic_20210407_logNormShiftAmp,2020.1.2,Win32,60,,,,,,,,,,,,,,1,5.592125,,0,1,3,153,52,1,stimuli/stim_20210407_power2amp/equal_lnn_AM2.4Hz_23.m4a,,,
,,,,,,,,,,,,41154,2021-04-27_22h27.49.725,judgeSpeechMusic_20210407_logNormShiftAmp,2020.1.2,Win32,60,,,,,,,,,,,,,,1,6.323835,,0,1,4,154,74,1,stimuli/stim_20210407_power2amp/equal_lnn_AM3Hz_80.m4a,,,
,,,,,,,,,,,,41154,2021-04-27_22h27.49.725,judgeSpeechMusic_20210407_logNormShiftAmp,2020.1.2,Win32,60,,,,,,,,,,,,,,1,6.434565,,0,1,5,155,38,1,stimuli/stim_20210407_power2amp/equal_lnn_AM1.8Hz_25.m4a,,,
,,,,,,,,,,,,41154,2021-04-27_22h27.49.725,judgeSpeechMusic_20210407_logNormShiftAmp,2020.1.2,Win32,60,,,,,,,,,,,,,,1,6.04826,,0,1,6,156,8,1,stimuli/stim_20210407_power2amp/equal_lnn_AM0.6Hz_9.m4a,,,
,,,,,,,,,,,,41154,2021-04-27_22h27.49.725,judgeSpeechMusic_20210407_logNormShiftAmp,2020.1.2,Win32,60,,,,,,,,,,,,,,2,5.987115,,0,1,7,157,146,1,stimuli/stim_20210407_power2amp/equal_lnn_AM6Hz_45.m4a,,,
,,,,,,,,,,,,41154,2021-04-27_22h27.49.725,judgeSpeechMusic_20210407_logNormShiftAmp,2020.1.2,Win32,60,,,,,,,,,,,,,,1,6.02525,,0,1,8,158,66,1,stimuli/stim_20210407_power2amp/equal_lnn_AM3Hz_33.m4a,,,
,,,,,,,,,,,,41154,2021-04-27_22h27.49.725,judgeSpeechMusic_20210407_logNormShiftAmp,2020.1.2,Win32,60,,,,,,,,,,,,,,2,5.59515,,0,1,9,159,100,1,stimuli/stim_20210407_power2amp/equal_lnn_AM4.2Hz_69.m4a,,,
,,,,,,,,,,,,41154,2021-04-27_22h27.49.725,judgeSpeechMusic_20210407_logNormShiftAmp,2020.1.2,Win32,60,,,,,,,,,,,,,,1,5.637215,,0,1,10,160,0,1,stimuli/stim_20210407_power2amp/equal_lnn_AM0.6Hz_78.m4a,,,
,,,,,,,,,,,,41154,2021-04-27_22h27.49.725,judgeSpeechMusic_20210407_logNormShiftAmp,2020.1.2,Win32,60,,,,,,,,,,,,,,2,5.59115,,0,1,11,161,98,1,stimuli/stim_20210407_power2amp/equal_lnn_AM4.2Hz_97.m4a,,,
,,,,,,,,,,,,41154,2021-04-27_22h27.49.725,judgeSpeechMusic_20210407_logNormShiftAmp,2020.1.2,Win32,60,,,,,,,,,,,,,,1,5.400615,,0,1,12,162,32,1,stimuli/stim_20210407_power2amp/equal_lnn_AM1.8Hz_4.m4a,,,
,,,,,,,,,,,,41154,2021-04-27_22h27.49.725,judgeSpeechMusic_20210407_logNormShiftAmp,2020.1.2,Win32,60,,,,,,,,,,,,,,1,5.54853,,0,1,13,163,49,1,stimuli/stim_20210407_power2amp/equal_lnn_AM2.4Hz_67.m4a,,,
,,,,,,,,,,,,41154,2021-04-27_22h27.49.725,judgeSpeechMusic_20210407_logNormShiftAmp,2020.1.2,Win32,60,,,,,,,,,,,,,,1,5.4519,,0,1,14,164,67,1,stimuli/stim_20210407_power2amp/equal_lnn_AM3Hz_43.m4a,,,
,,,,,,,,,,,,41154,2021-04-27_22h27.49.725,judgeSpeechMusic_20210407_logNormShiftAmp,2020.1.2,Win32,60,,,,,,,,,,,,,,1,5.389575,,0,1,15,165,39,1,stimuli/stim_20210407_power2amp/equal_lnn_AM1.8Hz_56.m4a,,,
,,,,,,,,,,,,41154,2021-04-27_22h27.49.725,judgeSpeechMusic_20210407_logNormShiftAmp,2020.1.2,Win32,60,,,,,,,,,,,,,,1,5.451435,3,1,1,16,166,19,1,stimuli/stim_20210407_power2amp/equal_lnn_AM1.2Hz_26.m4a,0.4064,,
,,,,,,,,,,,,41154,2021-04-27_22h27.49.725,judgeSpeechMusic_20210407_logNormShiftAmp,2020.1.2,Win32,60,,,,,,,,,,,,,,1,5.52553,,0,1,17,167,45,1,stimuli/stim_20210407_power2amp/equal_lnn_AM2.4Hz_31.m4a,,,
,,,,,,,,,,,,41154,2021-04-27_22h27.49.725,judgeSpeechMusic_20210407_logNormShiftAmp,2020.1.2,Win32,60,,,,,,,,,,,,,,2,5.876295,,0,1,18,168,124,1,stimuli/stim_20210407_power2amp/equal_lnn_AM5.4Hz_60.m4a,,,
,,,,,,,,,,,,41154,2021-04-27_22h27.49.725,judgeSpeechMusic_20210407_logNormShiftAmp,2020.1.2,Win32,60,,,,,,,,,,,,,,2,5.235825,,0,1,19,169,84,1,stimuli/stim_20210407_power2amp/equal_lnn_AM3.6Hz_75.m4a,,,
,,,,,,,,,,,,41154,2021-04-27_22h27.49.725,judgeSpeechMusic_20210407_logNormShiftAmp,2020.1.2,Win32,60,,,,,,,,,,,,,,2,5.616255,,0,1,20,170,63,1,stimuli/stim_20210407_power2amp/equal_lnn_AM3Hz_97.m4a,,,
,,,,,,,,,,,,41154,2021-04-27_22h27.49.725,judgeSpeechMusic_20210407_logNormShiftAmp,2020.1.2,Win32,60,,,,,,,,,,,,,,2,5.56722,,0,1,21,171,112,1,stimuli/stim_20210407_power2amp/equal_lnn_AM4.8Hz_36.m4a,,,
,,,,,,,,,,,,41154,2021-04-27_22h27.49.725,judgeSpeechMusic_20210407_logNormShiftAmp,2020.1.2,Win32,60,,,,,,,,,,,,,,1,5.60184,,0,1,22,172,9,1,stimuli/stim_20210407_power2amp/equal_lnn_AM0.6Hz_86.m4a,,,
,,,,,,,,,,,,41154,2021-04-27_22h27.49.725,judgeSpeechMusic_20210407_logNormShiftAmp,2020.1.2,Win32,60,,,,,,,,,,,,,,2,5.7205,,0,1,23,173,90,1,stimuli/stim_20210407_power2amp/equal_lnn_AM4.2Hz_99.m4a,,,
,,,,,,,,,,,,41154,2021-04-27_22h27.49.725,judgeSpeechMusic_20210407_logNormShiftAmp,2020.1.2,Win32,60,,,,,,,,,,,,,,2,5.389075,,0,1,24,174,137,1,stimuli/stim_20210407_power2amp/equal_lnn_AM6Hz_64.m4a,,,
,,,,,,,,,,,,41154,2021-04-27_22h27.49.725,judgeSpeechMusic_20210407_logNormShiftAmp,2020.1.2,Win32,60,,,,,,,,,,,,,,1,5.776965,,0,1,25,175,25,1,stimuli/stim_20210407_power2amp/equal_lnn_AM1.2Hz_9.m4a,,,
,,,,,,,,,,,,41154,2021-04-27_22h27.49.725,judgeSpeechMusic_20210407_logNormShiftAmp,2020.1.2,Win32,60,,,,,,,,,,,,,,1,6.360595,,0,1,26,176,36,1,stimuli/stim_20210407_power2amp/equal_lnn_AM1.8Hz_50.m4a,,,
,,,,,,,,,,,,41154,2021-04-27_22h27.49.725,judgeSpeechMusic_20210407_logNormShiftAmp,2020.1.2,Win32,60,,,,,,,,,,,,,,1,6.00432,,0,1,27,177,104,1,stimuli/stim_20210407_power2amp/equal_lnn_AM4.2Hz_33.m4a,,,
,,,,,,,,,,,,41154,2021-04-27_22h27.49.725,judgeSpeechMusic_20210407_logNormShiftAmp,2020.1.2,Win32,60,,,,,,,,,,,,,,1,5.482745,,0,1,28,178,58,1,stimuli/stim_20210407_power2amp/equal_lnn_AM2.4Hz_58.m4a,,,
,,,,,,,,,,,,41154,2021-04-27_22h27.49.725,judgeSpeechMusic_20210407_logNormShiftAmp,2020.1.2,Win32,60,,,,,,,,,,,,,,2,5.428195,,0,1,29,179,81,1,stimuli/stim_20210407_power2amp/equal_lnn_AM3.6Hz_50.m4a,,,
,,,,,,,,,,,,41154,2021-04-27_22h27.49.725,judgeSpeechMusic_20210407_logNormShiftAmp,2020.1.2,Win32,60,,,,,,,,,,,,,,2,5.37969,,0,1,30,180,80,1,stimuli/stim_20210407_power2amp/equal_lnn_AM3.6Hz_15.m4a,,,
,,,,,,,,,,,,41154,2021-04-27_22h27.49.725,judgeSpeechMusic_20210407_logNormShiftAmp,2020.1.2,Win32,60,,,,,,,,,,,,,,2,5.24842,,0,1,31,181,88,1,stimuli/stim_20210407_power2amp/equal_lnn_AM3.6Hz_14.m4a,,,
,,,,,,,,,,,,41154,2021-04-27_22h27.49.725,judgeSpeechMusic_20210407_logNormShiftAmp,2020.1.2,Win32,60,,,,,,,,,,,,,,2,5.291205,,0,1,32,182,116,1,stimuli/stim_20210407_power2amp/equal_lnn_AM4.8Hz_3.m4a,,,
,,,,,,,,,,,,41154,2021-04-27_22h27.49.725,judgeSpeechMusic_20210407_logNormShiftAmp,2020.1.2,Win32,60,,,,,,,,,,,,,,2,5.601755,,0,1,33,183,95,1,stimuli/stim_20210407_power2amp/equal_lnn_AM4.2Hz_80.m4a,,,
,,,,,,,,,,,,41154,2021-04-27_22h27.49.725,judgeSpeechMusic_20210407_logNormShiftAmp,2020.1.2,Win32,60,,,,,,,,,,,,,,2,5.720785,,0,1,34,184,86,1,stimuli/stim_20210407_power2amp/equal_lnn_AM3.6Hz_20.m4a,,,
,,,,,,,,,,,,41154,2021-04-27_22h27.49.725,judgeSpeechMusic_20210407_logNormShiftAmp,2020.1.2,Win32,60,,,,,,,,,,,,,,2,5.825895,,0,1,35,185,132,1,stimuli/stim_20210407_power2amp/equal_lnn_AM5.4Hz_98.m4a,,,
,,,,,,,,,,,,41154,2021-04-27_22h27.49.725,judgeSpeechMusic_20210407_logNormShiftAmp,2020.1.2,Win32,60,,,,,,,,,,,,,,1,6.615695,,0,1,36,186,47,1,stimuli/stim_20210407_power2amp/equal_lnn_AM2.4Hz_55.m4a,,,
,,,,,,,,,,,,41154,2021-04-27_22h27.49.725,judgeSpeechMusic_20210407_logNormShiftAmp,2020.1.2,Win32,60,,,,,,,,,,,,,,1,5.306725,,0,1,37,187,17,1,stimuli/stim_20210407_power2amp/equal_lnn_AM1.2Hz_61.m4a,,,
,,,,,,,,,,,,41154,2021-04-27_22h27.49.725,judgeSpeechMusic_20210407_logNormShiftAmp,2020.1.2,Win32,60,,,,,,,,,,,,,,2,5.899995,3,1,1,38,188,75,1,stimuli/stim_20210407_power2amp/equal_lnn_AM3.6Hz_89.m4a,3.93793,,
,,,,,,,,,,,,41154,2021-04-27_22h27.49.725,judgeSpeechMusic_20210407_logNormShiftAmp,2020.1.2,Win32,60,,,,,,,,,,,,,,1,6.913425,,0,1,39,189,57,1,stimuli/stim_20210407_power2amp/equal_lnn_AM2.4Hz_28.m4a,,,
,,,,,,,,,,,,41154,2021-04-27_22h27.49.725,judgeSpeechMusic_20210407_logNormShiftAmp,2020.1.2,Win32,60,,,,,,,,,,,,,,1,5.76155,,0,1,40,190,70,1,stimuli/stim_20210407_power2amp/equal_lnn_AM3Hz_30.m4a,,,
,,,,,,,,,,,,41154,2021-04-27_22h27.49.725,judgeSpeechMusic_20210407_logNormShiftAmp,2020.1.2,Win32,60,,,,,,,,,,,,,,1,5.54309,,0,1,41,191,3,1,stimuli/stim_20210407_power2amp/equal_lnn_AM0.6Hz_3.m4a,,,
,,,,,,,,,,,,41154,2021-04-27_22h27.49.725,judgeSpeechMusic_20210407_logNormShiftAmp,2020.1.2,Win32,60,,,,,,,,,,,,,,1,5.32872,,0,1,42,192,23,1,stimuli/stim_20210407_power2amp/equal_lnn_AM1.2Hz_95.m4a,,,
,,,,,,,,,,,,41154,2021-04-27_22h27.49.725,judgeSpeechMusic_20210407_logNormShiftAmp,2020.1.2,Win32,60,,,,,,,,,,,,,,1,5.52496,,0,1,43,193,43,1,stimuli/stim_20210407_power2amp/equal_lnn_AM1.8Hz_70.m4a,,,
,,,,,,,,,,,,41154,2021-04-27_22h27.49.725,judgeSpeechMusic_20210407_logNormShiftAmp,2020.1.2,Win32,60,,,,,,,,,,,,,,2,6.03212,,0,1,44,194,107,1,stimuli/stim_20210407_power2amp/equal_lnn_AM4.8Hz_100.m4a,,,
,,,,,,,,,,,,41154,2021-04-27_22h27.49.725,judgeSpeechMusic_20210407_logNormShiftAmp,2020.1.2,Win32,60,,,,,,,,,,,,,,2,5.54092,,0,1,45,195,59,1,stimuli/stim_20210407_power2amp/equal_lnn_AM2.4Hz_57.m4a,,,
,,,,,,,,,,,,41154,2021-04-27_22h27.49.725,judgeSpeechMusic_20210407_logNormShiftAmp,2020.1.2,Win32,60,,,,,,,,,,,,,,1,5.62965,,0,1,46,196,11,1,stimuli/stim_20210407_power2amp/equal_lnn_AM0.6Hz_6.m4a,,,
,,,,,,,,,,,,41154,2021-04-27_22h27.49.725,judgeSpeechMusic_20210407_logNormShiftAmp,2020.1.2,Win32,60,,,,,,,,,,,,,,2,5.643635,,0,1,47,197,87,1,stimuli/stim_20210407_power2amp/equal_lnn_AM3.6Hz_57.m4a,,,
,,,,,,,,,,,,41154,2021-04-27_22h27.49.725,judgeSpeechMusic_20210407_logNormShiftAmp,2020.1.2,Win32,60,,,,,,,,,,,,,,2,5.268845,,0,1,48,198,68,1,stimuli/stim_20210407_power2amp/equal_lnn_AM3Hz_67.m4a,,,
,,,,,,,,,,,,41154,2021-04-27_22h27.49.725,judgeSpeechMusic_20210407_logNormShiftAmp,2020.1.2,Win32,60,,,,,,,,,,,,,,2,5.67251,,0,1,49,199,121,1,stimuli/stim_20210407_power2amp/equal_lnn_AM5.4Hz_71.m4a,,,
,,,,,,,,,,,,41154,2021-04-27_22h27.49.725,judgeSpeechMusic_20210407_logNormShiftAmp,2020.1.2,Win32,60,,,,,,,,,,,,,,2,5.82597,,0,1,50,200,30,1,stimuli/stim_20210407_power2amp/equal_lnn_AM1.8Hz_34.m4a,,,
,,,,,,,,,,,,41154,2021-04-27_22h27.49.725,judgeSpeechMusic_20210407_logNormShiftAmp,2020.1.2,Win32,60,,,,,,,,,,,,,,2,5.526115,,0,1,51,201,89,1,stimuli/stim_20210407_power2amp/equal_lnn_AM3.6Hz_63.m4a,,,
,,,,,,,,,,,,41154,2021-04-27_22h27.49.725,judgeSpeechMusic_20210407_logNormShiftAmp,2020.1.2,Win32,60,,,,,,,,,,,,,,2,5.629775,,0,1,52,202,56,1,stimuli/stim_20210407_power2amp/equal_lnn_AM2.4Hz_83.m4a,,,
,,,,,,,,,,,,41154,2021-04-27_22h27.49.725,judgeSpeechMusic_20210407_logNormShiftAmp,2020.1.2,Win32,60,,,,,,,,,,,,,,2,5.747395,,0,1,53,203,140,1,stimuli/stim_20210407_power2amp/equal_lnn_AM6Hz_85.m4a,,,
,,,,,,,,,,,,41154,2021-04-27_22h27.49.725,judgeSpeechMusic_20210407_logNormShiftAmp,2020.1.2,Win32,60,,,,,,,,,,,,,,2,5.59507,,0,1,54,204,109,1,stimuli/stim_20210407_power2amp/equal_lnn_AM4.8Hz_20.m4a,,,
,,,,,,,,,,,,41154,2021-04-27_22h27.49.725,judgeSpeechMusic_20210407_logNormShiftAmp,2020.1.2,Win32,60,,,,,,,,,,,,,,1,5.602165,,0,1,55,205,46,1,stimuli/stim_20210407_power2amp/equal_lnn_AM2.4Hz_64.m4a,,,
,,,,,,,,,,,,41154,2021-04-27_22h27.49.725,judgeSpeechMusic_20210407_logNormShiftAmp,2020.1.2,Win32,60,,,,,,,,,,,,,,2,5.74443,,0,1,56,206,143,1,stimuli/stim_20210407_power2amp/equal_lnn_AM6Hz_8.m4a,,,
,,,,,,,,,,,,41154,2021-04-27_22h27.49.725,judgeSpeechMusic_20210407_logNormShiftAmp,2020.1.2,Win32,60,,,,,,,,,,,,,,2,5.95003,,0,1,57,207,118,1,stimuli/stim_20210407_power2amp/equal_lnn_AM4.8Hz_38.m4a,,,
,,,,,,,,,,,,41154,2021-04-27_22h27.49.725,judgeSpeechMusic_20210407_logNormShiftAmp,2020.1.2,Win32,60,,,,,,,,,,,,,,1,6.13642,,0,1,58,208,35,1,stimuli/stim_20210407_power2amp/equal_lnn_AM1.8Hz_30.m4a,,,
,,,,,,,,,,,,41154,2021-04-27_22h27.49.725,judgeSpeechMusic_20210407_logNormShiftAmp,2020.1.2,Win32,60,,,,,,,,,,,,,,1,5.58826,,0,1,59,209,28,1,stimuli/stim_20210407_power2amp/equal_lnn_AM1.2Hz_54.m4a,,,
,,,,,,,,,,,,41154,2021-04-27_22h27.49.725,judgeSpeechMusic_20210407_logNormShiftAmp,2020.1.2,Win32,60,,,,,,,,,,,,,,1,6.45546,,0,1,60,210,22,1,stimuli/stim_20210407_power2amp/equal_lnn_AM1.2Hz_71.m4a,,,
,,,,,,,,,,,,41154,2021-04-27_22h27.49.725,judgeSpeechMusic_20210407_logNormShiftAmp,2020.1.2,Win32,60,,,,,,,,,,,,,,2,5.67125,,0,1,61,211,72,1,stimuli/stim_20210407_power2amp/equal_lnn_AM3Hz_41.m4a,,,
,,,,,,,,,,,,41154,2021-04-27_22h27.49.725,judgeSpeechMusic_20210407_logNormShiftAmp,2020.1.2,Win32,60,,,,,,,,,,,,,,1,6.23613,,0,1,62,212,10,1,stimuli/stim_20210407_power2amp/equal_lnn_AM0.6Hz_84.m4a,,,
,,,,,,,,,,,,41154,2021-04-27_22h27.49.725,judgeSpeechMusic_20210407_logNormShiftAmp,2020.1.2,Win32,60,,,,,,,,,,,,,,2,5.86194,1,1,1,63,213,91,1,stimuli/stim_20210407_power2amp/equal_lnn_AM4.2Hz_23.m4a,0.25308,,
,,,,,,,,,,,,41154,2021-04-27_22h27.49.725,judgeSpeechMusic_20210407_logNormShiftAmp,2020.1.2,Win32,60,,,,,,,,,,,,,,2,5.70703,,0,1,64,214,103,1,stimuli/stim_20210407_power2amp/equal_lnn_AM4.2Hz_81.m4a,,,
,,,,,,,,,,,,41154,2021-04-27_22h27.49.725,judgeSpeechMusic_20210407_logNormShiftAmp,2020.1.2,Win32,60,,,,,,,,,,,,,,2,5.546675,,0,1,65,215,148,1,stimuli/stim_20210407_power2amp/equal_lnn_AM6Hz_38.m4a,,,
,,,,,,,,,,,,41154,2021-04-27_22h27.49.725,judgeSpeechMusic_20210407_logNormShiftAmp,2020.1.2,Win32,60,,,,,,,,,,,,,,2,5.86559,,0,1,66,216,147,1,stimuli/stim_20210407_power2amp/equal_lnn_AM6Hz_68.m4a,,,
,,,,,,,,,,,,41154,2021-04-27_22h27.49.725,judgeSpeechMusic_20210407_logNormShiftAmp,2020.1.2,Win32,60,,,,,,,,,,,,,,1,5.865525,,0,1,67,217,15,1,stimuli/stim_20210407_power2amp/equal_lnn_AM1.2Hz_64.m4a,,,
,,,,,,,,,,,,41154,2021-04-27_22h27.49.725,judgeSpeechMusic_20210407_logNormShiftAmp,2020.1.2,Win32,60,,,,,,,,,,,,,,2,5.53984,,0,1,68,218,131,1,stimuli/stim_20210407_power2amp/equal_lnn_AM5.4Hz_12.m4a,,,
,,,,,,,,,,,,41154,2021-04-27_22h27.49.725,judgeSpeechMusic_20210407_logNormShiftAmp,2020.1.2,Win32,60,,,,,,,,,,,,,,1,6.15127,,0,1,69,219,7,1,stimuli/stim_20210407_power2amp/equal_lnn_AM0.6Hz_1.m4a,,,
,,,,,,,,,,,,41154,2021-04-27_22h27.49.725,judgeSpeechMusic_20210407_logNormShiftAmp,2020.1.2,Win32,60,,,,,,,,,,,,,,2,5.672285,,0,1,70,220,135,1,stimuli/stim_20210407_power2amp/equal_lnn_AM6Hz_1.m4a,,,
,,,,,,,,,,,,41154,2021-04-27_22h27.49.725,judgeSpeechMusic_20210407_logNormShiftAmp,2020.1.2,Win32,60,,,,,,,,,,,,,,1,5.76119,,0,1,71,221,44,1,stimuli/stim_20210407_power2amp/equal_lnn_AM1.8Hz_36.m4a,,,
,,,,,,,,,,,,41154,2021-04-27_22h27.49.725,judgeSpeechMusic_20210407_logNormShiftAmp,2020.1.2,Win32,60,,,,,,,,,,,,,,2,6.20942,,0,1,72,222,83,1,stimuli/stim_20210407_power2amp/equal_lnn_AM3.6Hz_73.m4a,,,
,,,,,,,,,,,,41154,2021-04-27_22h27.49.725,judgeSpeechMusic_20210407_logNormShiftAmp,2020.1.2,Win32,60,,,,,,,,,,,,,,1,5.59418,,0,1,73,223,5,1,stimuli/stim_20210407_power2amp/equal_lnn_AM0.6Hz_58.m4a,,,
,,,,,,,,,,,,41154,2021-04-27_22h27.49.725,judgeSpeechMusic_20210407_logNormShiftAmp,2020.1.2,Win32,60,,,,,,,,,,,,,,1,5.62306,,0,1,74,224,50,1,stimuli/stim_20210407_power2amp/equal_lnn_AM2.4Hz_82.m4a,,,
,,,,,,,,,,,,41154,2021-04-27_22h27.49.725,judgeSpeechMusic_20210407_logNormShiftAmp,2020.1.2,Win32,60,,,,,,,,,,,,,,1,5.214635,,0,1,75,225,113,1,stimuli/stim_20210407_power2amp/equal_lnn_AM4.8Hz_61.m4a,,,
,,,,,,,,,,,,41154,2021-04-27_22h27.49.725,judgeSpeechMusic_20210407_logNormShiftAmp,2020.1.2,Win32,60,,,,,,,,,,,,,,2,6.258015,,0,1,76,226,114,1,stimuli/stim_20210407_power2amp/equal_lnn_AM4.8Hz_92.m4a,,,
,,,,,,,,,,,,41154,2021-04-27_22h27.49.725,judgeSpeechMusic_20210407_logNormShiftAmp,2020.1.2,Win32,60,,,,,,,,,,,,,,1,5.85825,,0,1,77,227,27,1,stimuli/stim_20210407_power2amp/equal_lnn_AM1.2Hz_43.m4a,,,
,,,,,,,,,,,,41154,2021-04-27_22h27.49.725,judgeSpeechMusic_20210407_logNormShiftAmp,2020.1.2,Win32,60,,,,,,,,,,,,,,1,5.948965,,0,1,78,228,110,1,stimuli/stim_20210407_power2amp/equal_lnn_AM4.8Hz_54.m4a,,,
,,,,,,,,,,,,41154,2021-04-27_22h27.49.725,judgeSpeechMusic_20210407_logNormShiftAmp,2020.1.2,Win32,60,,,,,,,,,,,,,,1,6.333935,,0,1,79,229,94,1,stimuli/stim_20210407_power2amp/equal_lnn_AM4.2Hz_35.m4a,,,
,,,,,,,,,,,,41154,2021-04-27_22h27.49.725,judgeSpeechMusic_20210407_logNormShiftAmp,2020.1.2,Win32,60,,,,,,,,,,,,,,1,5.77149,,0,1,80,230,64,1,stimuli/stim_20210407_power2amp/equal_lnn_AM3Hz_52.m4a,,,
,,,,,,,,,,,,41154,2021-04-27_22h27.49.725,judgeSpeechMusic_20210407_logNormShiftAmp,2020.1.2,Win32,60,,,,,,,,,,,,,,2,7.28151,,0,1,81,231,115,1,stimuli/stim_20210407_power2amp/equal_lnn_AM4.8Hz_33.m4a,,,
,,,,,,,,,,,,41154,2021-04-27_22h27.49.725,judgeSpeechMusic_20210407_logNormShiftAmp,2020.1.2,Win32,60,,,,,,,,,,,,,,2,6.4978,,0,1,82,232,106,1,stimuli/stim_20210407_power2amp/equal_lnn_AM4.8Hz_83.m4a,,,
,,,,,,,,,,,,41154,2021-04-27_22h27.49.725,judgeSpeechMusic_20210407_logNormShiftAmp,2020.1.2,Win32,60,,,,,,,,,,,,,,2,5.699175,,0,1,83,233,128,1,stimuli/stim_20210407_power2amp/equal_lnn_AM5.4Hz_55.m4a,,,
,,,,,,,,,,,,41154,2021-04-27_22h27.49.725,judgeSpeechMusic_20210407_logNormShiftAmp,2020.1.2,Win32,60,,,,,,,,,,,,,,1,5.886,,0,1,84,234,37,1,stimuli/stim_20210407_power2amp/equal_lnn_AM1.8Hz_55.m4a,,,
,,,,,,,,,,,,41154,2021-04-27_22h27.49.725,judgeSpeechMusic_20210407_logNormShiftAmp,2020.1.2,Win32,60,,,,,,,,,,,,,,1,5.66848,,0,1,85,235,18,1,stimuli/stim_20210407_power2amp/equal_lnn_AM1.2Hz_27.m4a,,,
,,,,,,,,,,,,41154,2021-04-27_22h27.49.725,judgeSpeechMusic_20210407_logNormShiftAmp,2020.1.2,Win32,60,,,,,,,,,,,,,,2,6.66368,,0,1,86,236,149,1,stimuli/stim_20210407_power2amp/equal_lnn_AM6Hz_65.m4a,,,
,,,,,,,,,,,,41154,2021-04-27_22h27.49.725,judgeSpeechMusic_20210407_logNormShiftAmp,2020.1.2,Win32,60,,,,,,,,,,,,,,1,6.28913,,0,1,87,237,69,1,stimuli/stim_20210407_power2amp/equal_lnn_AM3Hz_9.m4a,,,
,,,,,,,,,,,,41154,2021-04-27_22h27.49.725,judgeSpeechMusic_20210407_logNormShiftAmp,2020.1.2,Win32,60,,,,,,,,,,,,,,2,6.7082,2,1,1,88,238,145,1,stimuli/stim_20210407_power2amp/equal_lnn_AM6Hz_44.m4a,0.274725,,
,,,,,,,,,,,,41154,2021-04-27_22h27.49.725,judgeSpeechMusic_20210407_logNormShiftAmp,2020.1.2,Win32,60,,,,,,,,,,,,,,2,5.741945,,0,1,89,239,41,1,stimuli/stim_20210407_power2amp/equal_lnn_AM1.8Hz_77.m4a,,,
,,,,,,,,,,,,41154,2021-04-27_22h27.49.725,judgeSpeechMusic_20210407_logNormShiftAmp,2020.1.2,Win32,60,,,,,,,,,,,,,,2,6.24117,,0,1,90,240,79,1,stimuli/stim_20210407_power2amp/equal_lnn_AM3.6Hz_96.m4a,,,
,,,,,,,,,,,,41154,2021-04-27_22h27.49.725,judgeSpeechMusic_20210407_logNormShiftAmp,2020.1.2,Win32,60,,,,,,,,,,,,,,1,5.57771,,0,1,91,241,129,1,stimuli/stim_20210407_power2amp/equal_lnn_AM5.4Hz_28.m4a,,,
,,,,,,,,,,,,41154,2021-04-27_22h27.49.725,judgeSpeechMusic_20210407_logNormShiftAmp,2020.1.2,Win32,60,,,,,,,,,,,,,,2,5.745875,,0,1,92,242,136,1,stimuli/stim_20210407_power2amp/equal_lnn_AM6Hz_17.m4a,,,
,,,,,,,,,,,,41154,2021-04-27_22h27.49.725,judgeSpeechMusic_20210407_logNormShiftAmp,2020.1.2,Win32,60,,,,,,,,,,,,,,1,5.886445,,0,1,93,243,31,1,stimuli/stim_20210407_power2amp/equal_lnn_AM1.8Hz_15.m4a,,,
,,,,,,,,,,,,41154,2021-04-27_22h27.49.725,judgeSpeechMusic_20210407_logNormShiftAmp,2020.1.2,Win32,60,,,,,,,,,,,,,,1,5.53412,,0,1,94,244,1,1,stimuli/stim_20210407_power2amp/equal_lnn_AM0.6Hz_97.m4a,,,
,,,,,,,,,,,,41154,2021-04-27_22h27.49.725,judgeSpeechMusic_20210407_logNormShiftAmp,2020.1.2,Win32,60,,,,,,,,,,,,,,1,6.236385,,0,1,95,245,21,1,stimuli/stim_20210407_power2amp/equal_lnn_AM1.2Hz_89.m4a,,,
,,,,,,,,,,,,41154,2021-04-27_22h27.49.725,judgeSpeechMusic_20210407_logNormShiftAmp,2020.1.2,Win32,60,,,,,,,,,,,,,,2,5.957455,,0,1,96,246,141,1,stimuli/stim_20210407_power2amp/equal_lnn_AM6Hz_42.m4a,,,
,,,,,,,,,,,,41154,2021-04-27_22h27.49.725,judgeSpeechMusic_20210407_logNormShiftAmp,2020.1.2,Win32,60,,,,,,,,,,,,,,1,6.122735,,0,1,97,247,33,1,stimuli/stim_20210407_power2amp/equal_lnn_AM1.8Hz_26.m4a,,,
,,,,,,,,,,,,41154,2021-04-27_22h27.49.725,judgeSpeechMusic_20210407_logNormShiftAmp,2020.1.2,Win32,60,,,,,,,,,,,,,,2,5.640735,,0,1,98,248,126,1,stimuli/stim_20210407_power2amp/equal_lnn_AM5.4Hz_94.m4a,,,
,,,,,,,,,,,,41154,2021-04-27_22h27.49.725,judgeSpeechMusic_20210407_logNormShiftAmp,2020.1.2,Win32,60,,,,,,,,,,,,,,1,5.80421,,0,1,99,249,16,1,stimuli/stim_20210407_power2amp/equal_lnn_AM1.2Hz_19.m4a,,,
,,,,,,,,,,,,41154,2021-04-27_22h27.49.725,judgeSpeechMusic_20210407_logNormShiftAmp,2020.1.2,Win32,60,,,,,,,,,,,,,,2,5.943695,,0,1,100,250,111,1,stimuli/stim_20210407_power2amp/equal_lnn_AM4.8Hz_78.m4a,,,
,,,,,,,,,,,,41154,2021-04-27_22h27.49.725,judgeSpeechMusic_20210407_logNormShiftAmp,2020.1.2,Win32,60,,,,,,,,,,,,,,2,5.59017,,0,1,101,251,76,1,stimuli/stim_20210407_power2amp/equal_lnn_AM3.6Hz_7.m4a,,,
,,,,,,,,,,,,41154,2021-04-27_22h27.49.725,judgeSpeechMusic_20210407_logNormShiftAmp,2020.1.2,Win32,60,,,,,,,,,,,,,,1,5.740935,,0,1,102,252,6,1,stimuli/stim_20210407_power2amp/equal_lnn_AM0.6Hz_63.m4a,,,
,,,,,,,,,,,,41154,2021-04-27_22h27.49.725,judgeSpeechMusic_20210407_logNormShiftAmp,2020.1.2,Win32,60,,,,,,,,,,,,,,1,5.8608,,0,1,103,253,42,1,stimuli/stim_20210407_power2amp/equal_lnn_AM1.8Hz_27.m4a,,,
,,,,,,,,,,,,41154,2021-04-27_22h27.49.725,judgeSpeechMusic_20210407_logNormShiftAmp,2020.1.2,Win32,60,,,,,,,,,,,,,,2,5.706975,,0,1,104,254,96,1,stimuli/stim_20210407_power2amp/equal_lnn_AM4.2Hz_44.m4a,,,
,,,,,,,,,,,,41154,2021-04-27_22h27.49.725,judgeSpeechMusic_20210407_logNormShiftAmp,2020.1.2,Win32,60,,,,,,,,,,,,,,2,5.85544,,0,1,105,255,144,1,stimuli/stim_20210407_power2amp/equal_lnn_AM6Hz_59.m4a,,,
,,,,,,,,,,,,41154,2021-04-27_22h27.49.725,judgeSpeechMusic_20210407_logNormShiftAmp,2020.1.2,Win32,60,,,,,,,,,,,,,,1,6.103725,,0,1,106,256,24,1,stimuli/stim_20210407_power2amp/equal_lnn_AM1.2Hz_66.m4a,,,
,,,,,,,,,,,,41154,2021-04-27_22h27.49.725,judgeSpeechMusic_20210407_logNormShiftAmp,2020.1.2,Win32,60,,,,,,,,,,,,,,1,6.563195,,0,1,107,257,48,1,stimuli/stim_20210407_power2amp/equal_lnn_AM2.4Hz_20.m4a,,,
,,,,,,,,,,,,41154,2021-04-27_22h27.49.725,judgeSpeechMusic_20210407_logNormShiftAmp,2020.1.2,Win32,60,,,,,,,,,,,,,,2,5.615955,,0,1,108,258,138,1,stimuli/stim_20210407_power2amp/equal_lnn_AM6Hz_47.m4a,,,
,,,,,,,,,,,,41154,2021-04-27_22h27.49.725,judgeSpeechMusic_20210407_logNormShiftAmp,2020.1.2,Win32,60,,,,,,,,,,,,,,2,5.76461,4,1,1,109,259,62,1,stimuli/stim_20210407_power2amp/equal_lnn_AM3Hz_14.m4a,0.640875,,
,,,,,,,,,,,,41154,2021-04-27_22h27.49.725,judgeSpeechMusic_20210407_logNormShiftAmp,2020.1.2,Win32,60,,,,,,,,,,,,,,2,5.57383,,0,1,110,260,61,1,stimuli/stim_20210407_power2amp/equal_lnn_AM3Hz_6.m4a,,,
,,,,,,,,,,,,41154,2021-04-27_22h27.49.725,judgeSpeechMusic_20210407_logNormShiftAmp,2020.1.2,Win32,60,,,,,,,,,,,,,,1,5.530125,,0,1,111,261,71,1,stimuli/stim_20210407_power2amp/equal_lnn_AM3Hz_18.m4a,,,
,,,,,,,,,,,,41154,2021-04-27_22h27.49.725,judgeSpeechMusic_20210407_logNormShiftAmp,2020.1.2,Win32,60,,,,,,,,,,,,,,1,5.302345,,0,1,112,262,40,1,stimuli/stim_20210407_power2amp/equal_lnn_AM1.8Hz_42.m4a,,,
,,,,,,,,,,,,41154,2021-04-27_22h27.49.725,judgeSpeechMusic_20210407_logNormShiftAmp,2020.1.2,Win32,60,,,,,,,,,,,,,,1,5.51302,,0,1,113,263,120,1,stimuli/stim_20210407_power2amp/equal_lnn_AM5.4Hz_34.m4a,,,
,,,,,,,,,,,,41154,2021-04-27_22h27.49.725,judgeSpeechMusic_20210407_logNormShiftAmp,2020.1.2,Win32,60,,,,,,,,,,,,,,1,5.26402,,0,1,114,264,26,1,stimuli/stim_20210407_power2amp/equal_lnn_AM1.2Hz_21.m4a,,,
,,,,,,,,,,,,41154,2021-04-27_22h27.49.725,judgeSpeechMusic_20210407_logNormShiftAmp,2020.1.2,Win32,60,,,,,,,,,,,,,,2,5.838215,,0,1,115,265,105,1,stimuli/stim_20210407_power2amp/equal_lnn_AM4.8Hz_66.m4a,,,
,,,,,,,,,,,,41154,2021-04-27_22h27.49.725,judgeSpeechMusic_20210407_logNormShiftAmp,2020.1.2,Win32,60,,,,,,,,,,,,,,1,5.803155,,0,1,116,266,51,1,stimuli/stim_20210407_power2amp/equal_lnn_AM2.4Hz_85.m4a,,,
,,,,,,,,,,,,41154,2021-04-27_22h27.49.725,judgeSpeechMusic_20210407_logNormShiftAmp,2020.1.2,Win32,60,,,,,,,,,,,,,,1,5.65186,,0,1,117,267,4,1,stimuli/stim_20210407_power2amp/equal_lnn_AM0.6Hz_96.m4a,,,
,,,,,,,,,,,,41154,2021-04-27_22h27.49.725,judgeSpeechMusic_20210407_logNormShiftAmp,2020.1.2,Win32,60,,,,,,,,,,,,,,2,5.823925,,0,1,118,268,82,1,stimuli/stim_20210407_power2amp/equal_lnn_AM3.6Hz_13.m4a,,,
,,,,,,,,,,,,41154,2021-04-27_22h27.49.725,judgeSpeechMusic_20210407_logNormShiftAmp,2020.1.2,Win32,60,,,,,,,,,,,,,,2,6.638715,,0,1,119,269,99,1,stimuli/stim_20210407_power2amp/equal_lnn_AM4.2Hz_20.m4a,,,
,,,,,,,,,,,,41154,2021-04-27_22h27.49.725,judgeSpeechMusic_20210407_logNormShiftAmp,2020.1.2,Win32,60,,,,,,,,,,,,,,1,5.58856,,0,1,120,270,55,1,stimuli/stim_20210407_power2amp/equal_lnn_AM2.4Hz_6.m4a,,,
,,,,,,,,,,,,41154,2021-04-27_22h27.49.725,judgeSpeechMusic_20210407_logNormShiftAmp,2020.1.2,Win32,60,,,,,,,,,,,,,,2,5.998565,,0,1,121,271,125,1,stimuli/stim_20210407_power2amp/equal_lnn_AM5.4Hz_82.m4a,,,
,,,,,,,,,,,,41154,2021-04-27_22h27.49.725,judgeSpeechMusic_20210407_logNormShiftAmp,2020.1.2,Win32,60,,,,,,,,,,,,,,2,5.76052,,0,1,122,272,85,1,stimuli/stim_20210407_power2amp/equal_lnn_AM3.6Hz_84.m4a,,,
,,,,,,,,,,,,41154,2021-04-27_22h27.49.725,judgeSpeechMusic_20210407_logNormShiftAmp,2020.1.2,Win32,60,,,,,,,,,,,,,,2,5.82989,,0,1,123,273,139,1,stimuli/stim_20210407_power2amp/equal_lnn_AM6Hz_76.m4a,,,
,,,,,,,,,,,,41154,2021-04-27_22h27.49.725,judgeSpeechMusic_20210407_logNormShiftAmp,2020.1.2,Win32,60,,,,,,,,,,,,,,2,5.53642,,0,1,124,274,127,1,stimuli/stim_20210407_power2amp/equal_lnn_AM5.4Hz_35.m4a,,,
,,,,,,,,,,,,41154,2021-04-27_22h27.49.725,judgeSpeechMusic_20210407_logNormShiftAmp,2020.1.2,Win32,60,,,,,,,,,,,,,,1,5.700215,,0,1,125,275,77,1,stimuli/stim_20210407_power2amp/equal_lnn_AM3.6Hz_12.m4a,,,
,,,,,,,,,,,,41154,2021-04-27_22h27.49.725,judgeSpeechMusic_20210407_logNormShiftAmp,2020.1.2,Win32,60,,,,,,,,,,,,,,2,5.67819,,0,1,126,276,54,1,stimuli/stim_20210407_power2amp/equal_lnn_AM2.4Hz_93.m4a,,,
,,,,,,,,,,,,41154,2021-04-27_22h27.49.725,judgeSpeechMusic_20210407_logNormShiftAmp,2020.1.2,Win32,60,,,,,,,,,,,,,,2,6.14621,,0,1,127,277,108,1,stimuli/stim_20210407_power2amp/equal_lnn_AM4.8Hz_60.m4a,,,
,,,,,,,,,,,,41154,2021-04-27_22h27.49.725,judgeSpeechMusic_20210407_logNormShiftAmp,2020.1.2,Win32,60,,,,,,,,,,,,,,1,6.19173,,0,1,128,278,29,1,stimuli/stim_20210407_power2amp/equal_lnn_AM1.2Hz_4.m4a,,,
,,,,,,,,,,,,41154,2021-04-27_22h27.49.725,judgeSpeechMusic_20210407_logNormShiftAmp,2020.1.2,Win32,60,,,,,,,,,,,,,,1,5.935275,,0,1,129,279,73,1,stimuli/stim_20210407_power2amp/equal_lnn_AM3Hz_82.m4a,,,
,,,,,,,,,,,,41154,2021-04-27_22h27.49.725,judgeSpeechMusic_20210407_logNormShiftAmp,2020.1.2,Win32,60,,,,,,,,,,,,,,2,6.678185,,0,1,130,280,142,1,stimuli/stim_20210407_power2amp/equal_lnn_AM6Hz_15.m4a,,,
,,,,,,,,,,,,41154,2021-04-27_22h27.49.725,judgeSpeechMusic_20210407_logNormShiftAmp,2020.1.2,Win32,60,,,,,,,,,,,,,,2,5.85322,3,1,1,131,281,117,1,stimuli/stim_20210407_power2amp/equal_lnn_AM4.8Hz_95.m4a,0.411725,,
,,,,,,,,,,,,41154,2021-04-27_22h27.49.725,judgeSpeechMusic_20210407_logNormShiftAmp,2020.1.2,Win32,60,,,,,,,,,,,,,,1,5.746105,,0,1,132,282,78,1,stimuli/stim_20210407_power2amp/equal_lnn_AM3.6Hz_26.m4a,,,
,,,,,,,,,,,,41154,2021-04-27_22h27.49.725,judgeSpeechMusic_20210407_logNormShiftAmp,2020.1.2,Win32,60,,,,,,,,,,,,,,1,6.095435,,0,1,133,283,12,1,stimuli/stim_20210407_power2amp/equal_lnn_AM0.6Hz_90.m4a,,,
,,,,,,,,,,,,41154,2021-04-27_22h27.49.725,judgeSpeechMusic_20210407_logNormShiftAmp,2020.1.2,Win32,60,,,,,,,,,,,,,,1,5.861515,,0,1,134,284,34,1,stimuli/stim_20210407_power2amp/equal_lnn_AM1.8Hz_81.m4a,,,
,,,,,,,,,,,,41154,2021-04-27_22h27.49.725,judgeSpeechMusic_20210407_logNormShiftAmp,2020.1.2,Win32,60,,,,,,,,,,,,,,1,5.57654,,0,1,135,285,123,1,stimuli/stim_20210407_power2amp/equal_lnn_AM5.4Hz_36.m4a,,,
,,,,,,,,,,,,41154,2021-04-27_22h27.49.725,judgeSpeechMusic_20210407_logNormShiftAmp,2020.1.2,Win32,60,,,,,,,,,,,,,,2,5.76331,,0,1,136,286,130,1,stimuli/stim_20210407_power2amp/equal_lnn_AM5.4Hz_42.m4a,,,
,,,,,,,,,,,,41154,2021-04-27_22h27.49.725,judgeSpeechMusic_20210407_logNormShiftAmp,2020.1.2,Win32,60,,,,,,,,,,,,,,1,5.57497,,0,1,137,287,60,1,stimuli/stim_20210407_power2amp/equal_lnn_AM3Hz_16.m4a,,,
,,,,,,,,,,,,41154,2021-04-27_22h27.49.725,judgeSpeechMusic_20210407_logNormShiftAmp,2020.1.2,Win32,60,,,,,,,,,,,,,,1,5.813605,,0,1,138,288,133,1,stimuli/stim_20210407_power2amp/equal_lnn_AM5.4Hz_58.m4a,,,
,,,,,,,,,,,,41154,2021-04-27_22h27.49.725,judgeSpeechMusic_20210407_logNormShiftAmp,2020.1.2,Win32,60,,,,,,,,,,,,,,1,5.71514,,0,1,139,289,119,1,stimuli/stim_20210407_power2amp/equal_lnn_AM4.8Hz_16.m4a,,,
,,,,,,,,,,,,41154,2021-04-27_22h27.49.725,judgeSpeechMusic_20210407_logNormShiftAmp,2020.1.2,Win32,60,,,,,,,,,,,,,,1,5.650835,,0,1,140,290,97,1,stimuli/stim_20210407_power2amp/equal_lnn_AM4.2Hz_42.m4a,,,
,,,,,,,,,,,,41154,2021-04-27_22h27.49.725,judgeSpeechMusic_20210407_logNormShiftAmp,2020.1.2,Win32,60,,,,,,,,,,,,,,1,5.53434,,0,1,141,291,53,1,stimuli/stim_20210407_power2amp/equal_lnn_AM2.4Hz_66.m4a,,,
,,,,,,,,,,,,41154,2021-04-27_22h27.49.725,judgeSpeechMusic_20210407_logNormShiftAmp,2020.1.2,Win32,60,,,,,,,,,,,,,,1,5.740805,,0,1,142,292,134,1,stimuli/stim_20210407_power2amp/equal_lnn_AM5.4Hz_14.m4a,,,
,,,,,,,,,,,,41154,2021-04-27_22h27.49.725,judgeSpeechMusic_20210407_logNormShiftAmp,2020.1.2,Win32,60,,,,,,,,,,,,,,1,5.64055,,0,1,143,293,65,1,stimuli/stim_20210407_power2amp/equal_lnn_AM3Hz_10.m4a,,,
,,,,,,,,,,,,41154,2021-04-27_22h27.49.725,judgeSpeechMusic_20210407_logNormShiftAmp,2020.1.2,Win32,60,,,,,,,,,,,,,,2,5.608145,,0,1,144,294,122,1,stimuli/stim_20210407_power2amp/equal_lnn_AM5.4Hz_1.m4a,,,
,,,,,,,,,,,,41154,2021-04-27_22h27.49.725,judgeSpeechMusic_20210407_logNormShiftAmp,2020.1.2,Win32,60,,,,,,,,,,,,,,1,5.60222,,0,1,145,295,14,1,stimuli/stim_20210407_power2amp/equal_lnn_AM0.6Hz_26.m4a,,,
,,,,,,,,,,,,41154,2021-04-27_22h27.49.725,judgeSpeechMusic_20210407_logNormShiftAmp,2020.1.2,Win32,60,,,,,,,,,,,,,,2,5.80707,,0,1,146,296,92,1,stimuli/stim_20210407_power2amp/equal_lnn_AM4.2Hz_82.m4a,,,
,,,,,,,,,,,,41154,2021-04-27_22h27.49.725,judgeSpeechMusic_20210407_logNormShiftAmp,2020.1.2,Win32,60,,,,,,,,,,,,,,2,5.645975,,0,1,147,297,102,1,stimuli/stim_20210407_power2amp/equal_lnn_AM4.2Hz_15.m4a,,,
,,,,,,,,,,,,41154,2021-04-27_22h27.49.725,judgeSpeechMusic_20210407_logNormShiftAmp,2020.1.2,Win32,60,,,,,,,,,,,,,,2,5.54639,,0,1,148,298,101,1,stimuli/stim_20210407_power2amp/equal_lnn_AM4.2Hz_46.m4a,,,
,,,,,,,,,,,,41154,2021-04-27_22h27.49.725,judgeSpeechMusic_20210407_logNormShiftAmp,2020.1.2,Win32,60,,,,,,,,,,,,,,1,5.615795,,0,1,149,299,20,1,stimuli/stim_20210407_power2amp/equal_lnn_AM1.2Hz_92.m4a,,,
,,,,,,,,,,,,41154,2021-04-27_22h27.49.725,judgeSpeechMusic_20210407_logNormShiftAmp,2020.1.2,Win32,60,,,,,,,,,,,,,,,,,,,,,,,,,space,5.823485
