volAdjustRep.thisRepN,volAdjustRep.thisTrialN,volAdjustRep.thisN,volAdjustRep.thisIndex,volAdjustRep.ran,participant,date,expName,psychopyVersion,OS,frameRate,headphoneResponse.keys,headphoneResponse.corr,headphoneResponse.rt,headphoneTrial.thisRepN,headphoneTrial.thisTrialN,headphoneTrial.thisN,headphoneTrial.thisIndex,headphoneTrial.ran,headphone_sound1,headphone_sound2,headphone_sound3,corrAns,trainSlider.response,trainSlider.rt,beepTrainResponse.keys,beepTrainResponse.corr,trainingTrials.thisRepN,trainingTrials.thisTrialN,trainingTrials.thisN,trainingTrials.thisIndex,trainingTrials.ran,trainAudioFile,beepTrainResponse.rt,readyReal_resp.keys,readyReal_resp.rt,ratingSlider.response,ratingSlider.rt,beepResp.keys,beepResp.corr,expTrials.thisRepN,expTrials.thisTrialN,expTrials.thisN,expTrials.thisIndex,expTrials.ran,audioFile,beepResp.rt,end_resp.keys,end_resp.rt
0,0,0,0,1,41186,2021-05-09_19h43.16.072,judgeSpeechMusic_20210407_logNormShiftAmp,2020.1.2,Win32,60,,,,,,,,,,,,,,,,,,,,,,,,,,,,,,,,,,,,,,
,,,,,41186,2021-05-09_19h43.16.072,judgeSpeechMusic_20210407_logNormShiftAmp,2020.1.2,Win32,60,2,1,0.73109,0,0,0,3,1,stimuli/screen_origin.wav,stimuli/screen_quiet.wav,stimuli/screen_antiphase.wav,2,,,,,,,,,,,,,,,,,,,,,,,,,,
,,,,,41186,2021-05-09_19h43.16.072,judgeSpeechMusic_20210407_logNormShiftAmp,2020.1.2,Win32,60,3,1,0.637725,0,1,1,2,1,stimuli/screen_origin.wav,stimuli/screen_antiphase.wav,stimuli/screen_quiet.wav,3,,,,,,,,,,,,,,,,,,,,,,,,,,
,,,,,41186,2021-05-09_19h43.16.072,judgeSpeechMusic_20210407_logNormShiftAmp,2020.1.2,Win32,60,1,1,0.584825,0,2,2,4,1,stimuli/screen_quiet.wav,stimuli/screen_antiphase.wav,stimuli/screen_origin.wav,1,,,,,,,,,,,,,,,,,,,,,,,,,,
,,,,,41186,2021-05-09_19h43.16.072,judgeSpeechMusic_20210407_logNormShiftAmp,2020.1.2,Win32,60,1,1,0.67743,0,3,3,5,1,stimuli/screen_quiet.wav,stimuli/screen_origin.wav,stimuli/screen_antiphase.wav,1,,,,,,,,,,,,,,,,,,,,,,,,,,
,,,,,41186,2021-05-09_19h43.16.072,judgeSpeechMusic_20210407_logNormShiftAmp,2020.1.2,Win32,60,3,1,0.52159,0,4,4,0,1,stimuli/screen_antiphase.wav,stimuli/screen_origin.wav,stimuli/screen_quiet.wav,3,,,,,,,,,,,,,,,,,,,,,,,,,,
,,,,,41186,2021-05-09_19h43.16.072,judgeSpeechMusic_20210407_logNormShiftAmp,2020.1.2,Win32,60,2,1,0.50095,0,5,5,1,1,stimuli/screen_antiphase.wav,stimuli/screen_quiet.wav,stimuli/screen_origin.wav,2,,,,,,,,,,,,,,,,,,,,,,,,,,
,,,,,41186,2021-05-09_19h43.16.072,judgeSpeechMusic_20210407_logNormShiftAmp,2020.1.2,Win32,60,,,,,,,,,,,,,1,12.21999,,0,0,0,0,3,1,stimuli/stim_20210407_power2amp/equal_lnn_AM_training5.1Hz.m4a,,,,,,,,,,,,,,,,
,,,,,41186,2021-05-09_19h43.16.072,judgeSpeechMusic_20210407_logNormShiftAmp,2020.1.2,Win32,60,,,,,,,,,,,,,2,8.39601,,0,0,1,1,0,1,stimuli/stim_20210407_power2amp/equal_lnn_AM_training1.5Hz.m4a,,,,,,,,,,,,,,,,
,,,,,41186,2021-05-09_19h43.16.072,judgeSpeechMusic_20210407_logNormShiftAmp,2020.1.2,Win32,60,,,,,,,,,,,,,1,7.533325,2,1,0,2,2,2,1,stimuli/stim_20210407_power2amp/equal_lnn_AM_training3.9Hz.m4a,1.434725,,,,,,,,,,,,,,,
,,,,,41186,2021-05-09_19h43.16.072,judgeSpeechMusic_20210407_logNormShiftAmp,2020.1.2,Win32,60,,,,,,,,,,,,,1,8.4689,,0,0,3,3,1,1,stimuli/stim_20210407_power2amp/equal_lnn_AM_training2.7Hz.m4a,,,,,,,,,,,,,,,,
,,,,,41186,2021-05-09_19h43.16.072,judgeSpeechMusic_20210407_logNormShiftAmp,2020.1.2,Win32,60,,,,,,,,,,,,,,,,,,,,,,,,space,4.247875,1,7.344005,,0,0,0,0,87,1,stimuli/stim_20210407_power2amp/equal_lnn_AM3.6Hz_62.m4a,,,
,,,,,41186,2021-05-09_19h43.16.072,judgeSpeechMusic_20210407_logNormShiftAmp,2020.1.2,Win32,60,,,,,,,,,,,,,,,,,,,,,,,,,,1,6.195295,,0,0,1,1,117,1,stimuli/stim_20210407_power2amp/equal_lnn_AM4.8Hz_80.m4a,,,
,,,,,41186,2021-05-09_19h43.16.072,judgeSpeechMusic_20210407_logNormShiftAmp,2020.1.2,Win32,60,,,,,,,,,,,,,,,,,,,,,,,,,,2,6.069115,,0,0,2,2,145,1,stimuli/stim_20210407_power2amp/equal_lnn_AM6Hz_28.m4a,,,
,,,,,41186,2021-05-09_19h43.16.072,judgeSpeechMusic_20210407_logNormShiftAmp,2020.1.2,Win32,60,,,,,,,,,,,,,,,,,,,,,,,,,,1,6.26989,,0,0,3,3,24,1,stimuli/stim_20210407_power2amp/equal_lnn_AM1.2Hz_18.m4a,,,
,,,,,41186,2021-05-09_19h43.16.072,judgeSpeechMusic_20210407_logNormShiftAmp,2020.1.2,Win32,60,,,,,,,,,,,,,,,,,,,,,,,,,,1,6.15312,,0,0,4,4,102,1,stimuli/stim_20210407_power2amp/equal_lnn_AM4.2Hz_76.m4a,,,
,,,,,41186,2021-05-09_19h43.16.072,judgeSpeechMusic_20210407_logNormShiftAmp,2020.1.2,Win32,60,,,,,,,,,,,,,,,,,,,,,,,,,,1,6.156485,,0,0,5,5,46,1,stimuli/stim_20210407_power2amp/equal_lnn_AM2.4Hz_19.m4a,,,
,,,,,41186,2021-05-09_19h43.16.072,judgeSpeechMusic_20210407_logNormShiftAmp,2020.1.2,Win32,60,,,,,,,,,,,,,,,,,,,,,,,,,,2,6.048645,,0,0,6,6,128,1,stimuli/stim_20210407_power2amp/equal_lnn_AM5.4Hz_86.m4a,,,
,,,,,41186,2021-05-09_19h43.16.072,judgeSpeechMusic_20210407_logNormShiftAmp,2020.1.2,Win32,60,,,,,,,,,,,,,,,,,,,,,,,,,,2,9.200915,,0,0,7,7,76,1,stimuli/stim_20210407_power2amp/equal_lnn_AM3.6Hz_8.m4a,,,
,,,,,41186,2021-05-09_19h43.16.072,judgeSpeechMusic_20210407_logNormShiftAmp,2020.1.2,Win32,60,,,,,,,,,,,,,,,,,,,,,,,,,,1,6.068975,,0,0,8,8,3,1,stimuli/stim_20210407_power2amp/equal_lnn_AM0.6Hz_5.m4a,,,
,,,,,41186,2021-05-09_19h43.16.072,judgeSpeechMusic_20210407_logNormShiftAmp,2020.1.2,Win32,60,,,,,,,,,,,,,,,,,,,,,,,,,,2,6.34966,,0,0,9,9,114,1,stimuli/stim_20210407_power2amp/equal_lnn_AM4.8Hz_93.m4a,,,
,,,,,41186,2021-05-09_19h43.16.072,judgeSpeechMusic_20210407_logNormShiftAmp,2020.1.2,Win32,60,,,,,,,,,,,,,,,,,,,,,,,,,,2,6.08483,,0,0,10,10,107,1,stimuli/stim_20210407_power2amp/equal_lnn_AM4.8Hz_1.m4a,,,
,,,,,41186,2021-05-09_19h43.16.072,judgeSpeechMusic_20210407_logNormShiftAmp,2020.1.2,Win32,60,,,,,,,,,,,,,,,,,,,,,,,,,,2,5.99896,,0,0,11,11,133,1,stimuli/stim_20210407_power2amp/equal_lnn_AM5.4Hz_28.m4a,,,
,,,,,41186,2021-05-09_19h43.16.072,judgeSpeechMusic_20210407_logNormShiftAmp,2020.1.2,Win32,60,,,,,,,,,,,,,,,,,,,,,,,,,,2,7.331935,,0,0,12,12,64,1,stimuli/stim_20210407_power2amp/equal_lnn_AM3Hz_36.m4a,,,
,,,,,41186,2021-05-09_19h43.16.072,judgeSpeechMusic_20210407_logNormShiftAmp,2020.1.2,Win32,60,,,,,,,,,,,,,,,,,,,,,,,,,,1,6.06604,,0,0,13,13,100,1,stimuli/stim_20210407_power2amp/equal_lnn_AM4.2Hz_54.m4a,,,
,,,,,41186,2021-05-09_19h43.16.072,judgeSpeechMusic_20210407_logNormShiftAmp,2020.1.2,Win32,60,,,,,,,,,,,,,,,,,,,,,,,,,,2,14.53251,,0,0,14,14,51,1,stimuli/stim_20210407_power2amp/equal_lnn_AM2.4Hz_1.m4a,,,
,,,,,41186,2021-05-09_19h43.16.072,judgeSpeechMusic_20210407_logNormShiftAmp,2020.1.2,Win32,60,,,,,,,,,,,,,,,,,,,,,,,,,,2,7.00067,,0,0,15,15,139,1,stimuli/stim_20210407_power2amp/equal_lnn_AM6Hz_89.m4a,,,
,,,,,41186,2021-05-09_19h43.16.072,judgeSpeechMusic_20210407_logNormShiftAmp,2020.1.2,Win32,60,,,,,,,,,,,,,,,,,,,,,,,,,,1,6.618095,,0,0,16,16,112,1,stimuli/stim_20210407_power2amp/equal_lnn_AM4.8Hz_94.m4a,,,
,,,,,41186,2021-05-09_19h43.16.072,judgeSpeechMusic_20210407_logNormShiftAmp,2020.1.2,Win32,60,,,,,,,,,,,,,,,,,,,,,,,,,,2,6.12714,,0,0,17,17,149,1,stimuli/stim_20210407_power2amp/equal_lnn_AM6Hz_35.m4a,,,
,,,,,41186,2021-05-09_19h43.16.072,judgeSpeechMusic_20210407_logNormShiftAmp,2020.1.2,Win32,60,,,,,,,,,,,,,,,,,,,,,,,,,,1,6.930975,,0,0,18,18,40,1,stimuli/stim_20210407_power2amp/equal_lnn_AM1.8Hz_75.m4a,,,
,,,,,41186,2021-05-09_19h43.16.072,judgeSpeechMusic_20210407_logNormShiftAmp,2020.1.2,Win32,60,,,,,,,,,,,,,,,,,,,,,,,,,,2,6.823315,,0,0,19,19,75,1,stimuli/stim_20210407_power2amp/equal_lnn_AM3.6Hz_28.m4a,,,
,,,,,41186,2021-05-09_19h43.16.072,judgeSpeechMusic_20210407_logNormShiftAmp,2020.1.2,Win32,60,,,,,,,,,,,,,,,,,,,,,,,,,,1,6.021605,,0,0,20,20,113,1,stimuli/stim_20210407_power2amp/equal_lnn_AM4.8Hz_6.m4a,,,
,,,,,41186,2021-05-09_19h43.16.072,judgeSpeechMusic_20210407_logNormShiftAmp,2020.1.2,Win32,60,,,,,,,,,,,,,,,,,,,,,,,,,,2,8.571025,,0,0,21,21,125,1,stimuli/stim_20210407_power2amp/equal_lnn_AM5.4Hz_1.m4a,,,
,,,,,41186,2021-05-09_19h43.16.072,judgeSpeechMusic_20210407_logNormShiftAmp,2020.1.2,Win32,60,,,,,,,,,,,,,,,,,,,,,,,,,,1,7.670485,,0,0,22,22,28,1,stimuli/stim_20210407_power2amp/equal_lnn_AM1.2Hz_33.m4a,,,
,,,,,41186,2021-05-09_19h43.16.072,judgeSpeechMusic_20210407_logNormShiftAmp,2020.1.2,Win32,60,,,,,,,,,,,,,,,,,,,,,,,,,,2,8.11317,,0,0,23,23,59,1,stimuli/stim_20210407_power2amp/equal_lnn_AM2.4Hz_79.m4a,,,
,,,,,41186,2021-05-09_19h43.16.072,judgeSpeechMusic_20210407_logNormShiftAmp,2020.1.2,Win32,60,,,,,,,,,,,,,,,,,,,,,,,,,,2,6.55092,,0,0,24,24,44,1,stimuli/stim_20210407_power2amp/equal_lnn_AM1.8Hz_73.m4a,,,
,,,,,41186,2021-05-09_19h43.16.072,judgeSpeechMusic_20210407_logNormShiftAmp,2020.1.2,Win32,60,,,,,,,,,,,,,,,,,,,,,,,,,,1,6.284215,,0,0,25,25,146,1,stimuli/stim_20210407_power2amp/equal_lnn_AM6Hz_26.m4a,,,
,,,,,41186,2021-05-09_19h43.16.072,judgeSpeechMusic_20210407_logNormShiftAmp,2020.1.2,Win32,60,,,,,,,,,,,,,,,,,,,,,,,,,,1,6.339625,,0,0,26,26,7,1,stimuli/stim_20210407_power2amp/equal_lnn_AM0.6Hz_25.m4a,,,
,,,,,41186,2021-05-09_19h43.16.072,judgeSpeechMusic_20210407_logNormShiftAmp,2020.1.2,Win32,60,,,,,,,,,,,,,,,,,,,,,,,,,,2,6.256325,,0,0,27,27,17,1,stimuli/stim_20210407_power2amp/equal_lnn_AM1.2Hz_46.m4a,,,
,,,,,41186,2021-05-09_19h43.16.072,judgeSpeechMusic_20210407_logNormShiftAmp,2020.1.2,Win32,60,,,,,,,,,,,,,,,,,,,,,,,,,,2,6.27347,,0,0,28,28,138,1,stimuli/stim_20210407_power2amp/equal_lnn_AM6Hz_38.m4a,,,
,,,,,41186,2021-05-09_19h43.16.072,judgeSpeechMusic_20210407_logNormShiftAmp,2020.1.2,Win32,60,,,,,,,,,,,,,,,,,,,,,,,,,,1,7.200165,,0,0,29,29,23,1,stimuli/stim_20210407_power2amp/equal_lnn_AM1.2Hz_38.m4a,,,
,,,,,41186,2021-05-09_19h43.16.072,judgeSpeechMusic_20210407_logNormShiftAmp,2020.1.2,Win32,60,,,,,,,,,,,,,,,,,,,,,,,,,,2,6.051835,,0,0,30,30,53,1,stimuli/stim_20210407_power2amp/equal_lnn_AM2.4Hz_20.m4a,,,
,,,,,41186,2021-05-09_19h43.16.072,judgeSpeechMusic_20210407_logNormShiftAmp,2020.1.2,Win32,60,,,,,,,,,,,,,,,,,,,,,,,,,,2,7.518335,,0,0,31,31,37,1,stimuli/stim_20210407_power2amp/equal_lnn_AM1.8Hz_7.m4a,,,
,,,,,41186,2021-05-09_19h43.16.072,judgeSpeechMusic_20210407_logNormShiftAmp,2020.1.2,Win32,60,,,,,,,,,,,,,,,,,,,,,,,,,,1,7.16623,,0,0,32,32,26,1,stimuli/stim_20210407_power2amp/equal_lnn_AM1.2Hz_27.m4a,,,
,,,,,41186,2021-05-09_19h43.16.072,judgeSpeechMusic_20210407_logNormShiftAmp,2020.1.2,Win32,60,,,,,,,,,,,,,,,,,,,,,,,,,,2,7.720115,4,1,0,33,33,12,1,stimuli/stim_20210407_power2amp/equal_lnn_AM0.6Hz_19.m4a,1.70509,,
,,,,,41186,2021-05-09_19h43.16.072,judgeSpeechMusic_20210407_logNormShiftAmp,2020.1.2,Win32,60,,,,,,,,,,,,,,,,,,,,,,,,,,1,6.07206,,0,0,34,34,109,1,stimuli/stim_20210407_power2amp/equal_lnn_AM4.8Hz_60.m4a,,,
,,,,,41186,2021-05-09_19h43.16.072,judgeSpeechMusic_20210407_logNormShiftAmp,2020.1.2,Win32,60,,,,,,,,,,,,,,,,,,,,,,,,,,1,6.079905,,0,0,35,35,22,1,stimuli/stim_20210407_power2amp/equal_lnn_AM1.2Hz_17.m4a,,,
,,,,,41186,2021-05-09_19h43.16.072,judgeSpeechMusic_20210407_logNormShiftAmp,2020.1.2,Win32,60,,,,,,,,,,,,,,,,,,,,,,,,,,2,6.14849,,0,0,36,36,123,1,stimuli/stim_20210407_power2amp/equal_lnn_AM5.4Hz_99.m4a,,,
,,,,,41186,2021-05-09_19h43.16.072,judgeSpeechMusic_20210407_logNormShiftAmp,2020.1.2,Win32,60,,,,,,,,,,,,,,,,,,,,,,,,,,2,6.535775,,0,0,37,37,106,1,stimuli/stim_20210407_power2amp/equal_lnn_AM4.8Hz_27.m4a,,,
,,,,,41186,2021-05-09_19h43.16.072,judgeSpeechMusic_20210407_logNormShiftAmp,2020.1.2,Win32,60,,,,,,,,,,,,,,,,,,,,,,,,,,1,6.152675,,0,0,38,38,39,1,stimuli/stim_20210407_power2amp/equal_lnn_AM1.8Hz_97.m4a,,,
,,,,,41186,2021-05-09_19h43.16.072,judgeSpeechMusic_20210407_logNormShiftAmp,2020.1.2,Win32,60,,,,,,,,,,,,,,,,,,,,,,,,,,2,6.8178,,0,0,39,39,81,1,stimuli/stim_20210407_power2amp/equal_lnn_AM3.6Hz_78.m4a,,,
,,,,,41186,2021-05-09_19h43.16.072,judgeSpeechMusic_20210407_logNormShiftAmp,2020.1.2,Win32,60,,,,,,,,,,,,,,,,,,,,,,,,,,1,7.052,,0,0,40,40,141,1,stimuli/stim_20210407_power2amp/equal_lnn_AM6Hz_81.m4a,,,
,,,,,41186,2021-05-09_19h43.16.072,judgeSpeechMusic_20210407_logNormShiftAmp,2020.1.2,Win32,60,,,,,,,,,,,,,,,,,,,,,,,,,,1,5.904475,,0,0,41,41,129,1,stimuli/stim_20210407_power2amp/equal_lnn_AM5.4Hz_93.m4a,,,
,,,,,41186,2021-05-09_19h43.16.072,judgeSpeechMusic_20210407_logNormShiftAmp,2020.1.2,Win32,60,,,,,,,,,,,,,,,,,,,,,,,,,,1,7.702075,,0,0,42,42,94,1,stimuli/stim_20210407_power2amp/equal_lnn_AM4.2Hz_89.m4a,,,
,,,,,41186,2021-05-09_19h43.16.072,judgeSpeechMusic_20210407_logNormShiftAmp,2020.1.2,Win32,60,,,,,,,,,,,,,,,,,,,,,,,,,,1,6.09233,,0,0,43,43,2,1,stimuli/stim_20210407_power2amp/equal_lnn_AM0.6Hz_22.m4a,,,
,,,,,41186,2021-05-09_19h43.16.072,judgeSpeechMusic_20210407_logNormShiftAmp,2020.1.2,Win32,60,,,,,,,,,,,,,,,,,,,,,,,,,,1,5.9222,,0,0,44,44,71,1,stimuli/stim_20210407_power2amp/equal_lnn_AM3Hz_62.m4a,,,
,,,,,41186,2021-05-09_19h43.16.072,judgeSpeechMusic_20210407_logNormShiftAmp,2020.1.2,Win32,60,,,,,,,,,,,,,,,,,,,,,,,,,,2,6.166705,,0,0,45,45,135,1,stimuli/stim_20210407_power2amp/equal_lnn_AM6Hz_74.m4a,,,
,,,,,41186,2021-05-09_19h43.16.072,judgeSpeechMusic_20210407_logNormShiftAmp,2020.1.2,Win32,60,,,,,,,,,,,,,,,,,,,,,,,,,,1,6.469095,,0,0,46,46,36,1,stimuli/stim_20210407_power2amp/equal_lnn_AM1.8Hz_10.m4a,,,
,,,,,41186,2021-05-09_19h43.16.072,judgeSpeechMusic_20210407_logNormShiftAmp,2020.1.2,Win32,60,,,,,,,,,,,,,,,,,,,,,,,,,,1,6.132685,,0,0,47,47,35,1,stimuli/stim_20210407_power2amp/equal_lnn_AM1.8Hz_32.m4a,,,
,,,,,41186,2021-05-09_19h43.16.072,judgeSpeechMusic_20210407_logNormShiftAmp,2020.1.2,Win32,60,,,,,,,,,,,,,,,,,,,,,,,,,,1,7.10449,,0,0,48,48,14,1,stimuli/stim_20210407_power2amp/equal_lnn_AM0.6Hz_23.m4a,,,
,,,,,41186,2021-05-09_19h43.16.072,judgeSpeechMusic_20210407_logNormShiftAmp,2020.1.2,Win32,60,,,,,,,,,,,,,,,,,,,,,,,,,,2,6.121065,,0,0,49,49,120,1,stimuli/stim_20210407_power2amp/equal_lnn_AM5.4Hz_33.m4a,,,
,,,,,41186,2021-05-09_19h43.16.072,judgeSpeechMusic_20210407_logNormShiftAmp,2020.1.2,Win32,60,,,,,,,,,,,,,,,,,,,,,,,,,,1,7.20837,,0,0,50,50,55,1,stimuli/stim_20210407_power2amp/equal_lnn_AM2.4Hz_64.m4a,,,
,,,,,41186,2021-05-09_19h43.16.072,judgeSpeechMusic_20210407_logNormShiftAmp,2020.1.2,Win32,60,,,,,,,,,,,,,,,,,,,,,,,,,,1,8.665305,,0,0,51,51,33,1,stimuli/stim_20210407_power2amp/equal_lnn_AM1.8Hz_40.m4a,,,
,,,,,41186,2021-05-09_19h43.16.072,judgeSpeechMusic_20210407_logNormShiftAmp,2020.1.2,Win32,60,,,,,,,,,,,,,,,,,,,,,,,,,,1,6.03398,,0,0,52,52,50,1,stimuli/stim_20210407_power2amp/equal_lnn_AM2.4Hz_44.m4a,,,
,,,,,41186,2021-05-09_19h43.16.072,judgeSpeechMusic_20210407_logNormShiftAmp,2020.1.2,Win32,60,,,,,,,,,,,,,,,,,,,,,,,,,,1,6.24887,,0,0,53,53,80,1,stimuli/stim_20210407_power2amp/equal_lnn_AM3.6Hz_80.m4a,,,
,,,,,41186,2021-05-09_19h43.16.072,judgeSpeechMusic_20210407_logNormShiftAmp,2020.1.2,Win32,60,,,,,,,,,,,,,,,,,,,,,,,,,,2,5.29205,,0,0,54,54,96,1,stimuli/stim_20210407_power2amp/equal_lnn_AM4.2Hz_19.m4a,,,
,,,,,41186,2021-05-09_19h43.16.072,judgeSpeechMusic_20210407_logNormShiftAmp,2020.1.2,Win32,60,,,,,,,,,,,,,,,,,,,,,,,,,,1,6.138045,,0,0,55,55,0,1,stimuli/stim_20210407_power2amp/equal_lnn_AM0.6Hz_9.m4a,,,
,,,,,41186,2021-05-09_19h43.16.072,judgeSpeechMusic_20210407_logNormShiftAmp,2020.1.2,Win32,60,,,,,,,,,,,,,,,,,,,,,,,,,,1,7.84118,,0,0,56,56,27,1,stimuli/stim_20210407_power2amp/equal_lnn_AM1.2Hz_66.m4a,,,
,,,,,41186,2021-05-09_19h43.16.072,judgeSpeechMusic_20210407_logNormShiftAmp,2020.1.2,Win32,60,,,,,,,,,,,,,,,,,,,,,,,,,,1,5.55299,4,1,0,57,57,20,1,stimuli/stim_20210407_power2amp/equal_lnn_AM1.2Hz_72.m4a,2.923375,,
,,,,,41186,2021-05-09_19h43.16.072,judgeSpeechMusic_20210407_logNormShiftAmp,2020.1.2,Win32,60,,,,,,,,,,,,,,,,,,,,,,,,,,2,6.175865,,0,0,58,58,136,1,stimuli/stim_20210407_power2amp/equal_lnn_AM6Hz_61.m4a,,,
,,,,,41186,2021-05-09_19h43.16.072,judgeSpeechMusic_20210407_logNormShiftAmp,2020.1.2,Win32,60,,,,,,,,,,,,,,,,,,,,,,,,,,1,6.055305,,0,0,59,59,9,1,stimuli/stim_20210407_power2amp/equal_lnn_AM0.6Hz_14.m4a,,,
,,,,,41186,2021-05-09_19h43.16.072,judgeSpeechMusic_20210407_logNormShiftAmp,2020.1.2,Win32,60,,,,,,,,,,,,,,,,,,,,,,,,,,1,6.482825,,0,0,60,60,110,1,stimuli/stim_20210407_power2amp/equal_lnn_AM4.8Hz_68.m4a,,,
,,,,,41186,2021-05-09_19h43.16.072,judgeSpeechMusic_20210407_logNormShiftAmp,2020.1.2,Win32,60,,,,,,,,,,,,,,,,,,,,,,,,,,2,6.43693,,0,0,61,61,91,1,stimuli/stim_20210407_power2amp/equal_lnn_AM4.2Hz_61.m4a,,,
,,,,,41186,2021-05-09_19h43.16.072,judgeSpeechMusic_20210407_logNormShiftAmp,2020.1.2,Win32,60,,,,,,,,,,,,,,,,,,,,,,,,,,1,7.33935,,0,0,62,62,41,1,stimuli/stim_20210407_power2amp/equal_lnn_AM1.8Hz_47.m4a,,,
,,,,,41186,2021-05-09_19h43.16.072,judgeSpeechMusic_20210407_logNormShiftAmp,2020.1.2,Win32,60,,,,,,,,,,,,,,,,,,,,,,,,,,2,12.14022,,0,0,63,63,1,1,stimuli/stim_20210407_power2amp/equal_lnn_AM0.6Hz_55.m4a,,,
,,,,,41186,2021-05-09_19h43.16.072,judgeSpeechMusic_20210407_logNormShiftAmp,2020.1.2,Win32,60,,,,,,,,,,,,,,,,,,,,,,,,,,1,6.019575,,0,0,64,64,66,1,stimuli/stim_20210407_power2amp/equal_lnn_AM3Hz_92.m4a,,,
,,,,,41186,2021-05-09_19h43.16.072,judgeSpeechMusic_20210407_logNormShiftAmp,2020.1.2,Win32,60,,,,,,,,,,,,,,,,,,,,,,,,,,1,6.997825,,0,0,65,65,42,1,stimuli/stim_20210407_power2amp/equal_lnn_AM1.8Hz_33.m4a,,,
,,,,,41186,2021-05-09_19h43.16.072,judgeSpeechMusic_20210407_logNormShiftAmp,2020.1.2,Win32,60,,,,,,,,,,,,,,,,,,,,,,,,,,1,6.184005,,0,0,66,66,45,1,stimuli/stim_20210407_power2amp/equal_lnn_AM2.4Hz_36.m4a,,,
,,,,,41186,2021-05-09_19h43.16.072,judgeSpeechMusic_20210407_logNormShiftAmp,2020.1.2,Win32,60,,,,,,,,,,,,,,,,,,,,,,,,,,2,6.004,,0,0,67,67,127,1,stimuli/stim_20210407_power2amp/equal_lnn_AM5.4Hz_96.m4a,,,
,,,,,41186,2021-05-09_19h43.16.072,judgeSpeechMusic_20210407_logNormShiftAmp,2020.1.2,Win32,60,,,,,,,,,,,,,,,,,,,,,,,,,,2,5.80168,,0,0,68,68,143,1,stimuli/stim_20210407_power2amp/equal_lnn_AM6Hz_5.m4a,,,
,,,,,41186,2021-05-09_19h43.16.072,judgeSpeechMusic_20210407_logNormShiftAmp,2020.1.2,Win32,60,,,,,,,,,,,,,,,,,,,,,,,,,,1,6.00422,,0,0,69,69,38,1,stimuli/stim_20210407_power2amp/equal_lnn_AM1.8Hz_88.m4a,,,
,,,,,41186,2021-05-09_19h43.16.072,judgeSpeechMusic_20210407_logNormShiftAmp,2020.1.2,Win32,60,,,,,,,,,,,,,,,,,,,,,,,,,,2,6.151265,,0,0,70,70,137,1,stimuli/stim_20210407_power2amp/equal_lnn_AM6Hz_57.m4a,,,
,,,,,41186,2021-05-09_19h43.16.072,judgeSpeechMusic_20210407_logNormShiftAmp,2020.1.2,Win32,60,,,,,,,,,,,,,,,,,,,,,,,,,,2,7.38458,,0,0,71,71,68,1,stimuli/stim_20210407_power2amp/equal_lnn_AM3Hz_96.m4a,,,
,,,,,41186,2021-05-09_19h43.16.072,judgeSpeechMusic_20210407_logNormShiftAmp,2020.1.2,Win32,60,,,,,,,,,,,,,,,,,,,,,,,,,,2,8.350405,,0,0,72,72,69,1,stimuli/stim_20210407_power2amp/equal_lnn_AM3Hz_81.m4a,,,
,,,,,41186,2021-05-09_19h43.16.072,judgeSpeechMusic_20210407_logNormShiftAmp,2020.1.2,Win32,60,,,,,,,,,,,,,,,,,,,,,,,,,,1,15.796005,,0,0,73,73,13,1,stimuli/stim_20210407_power2amp/equal_lnn_AM0.6Hz_13.m4a,,,
,,,,,41186,2021-05-09_19h43.16.072,judgeSpeechMusic_20210407_logNormShiftAmp,2020.1.2,Win32,60,,,,,,,,,,,,,,,,,,,,,,,,,,1,8.951685,,0,0,74,74,60,1,stimuli/stim_20210407_power2amp/equal_lnn_AM3Hz_38.m4a,,,
,,,,,41186,2021-05-09_19h43.16.072,judgeSpeechMusic_20210407_logNormShiftAmp,2020.1.2,Win32,60,,,,,,,,,,,,,,,,,,,,,,,,,,2,10.337045,,0,0,75,75,121,1,stimuli/stim_20210407_power2amp/equal_lnn_AM5.4Hz_41.m4a,,,
,,,,,41186,2021-05-09_19h43.16.072,judgeSpeechMusic_20210407_logNormShiftAmp,2020.1.2,Win32,60,,,,,,,,,,,,,,,,,,,,,,,,,,1,13.48146,,0,0,76,76,16,1,stimuli/stim_20210407_power2amp/equal_lnn_AM1.2Hz_59.m4a,,,
,,,,,41186,2021-05-09_19h43.16.072,judgeSpeechMusic_20210407_logNormShiftAmp,2020.1.2,Win32,60,,,,,,,,,,,,,,,,,,,,,,,,,,1,7.098155,,0,0,77,77,29,1,stimuli/stim_20210407_power2amp/equal_lnn_AM1.2Hz_34.m4a,,,
,,,,,41186,2021-05-09_19h43.16.072,judgeSpeechMusic_20210407_logNormShiftAmp,2020.1.2,Win32,60,,,,,,,,,,,,,,,,,,,,,,,,,,1,7.949575,,0,0,78,78,19,1,stimuli/stim_20210407_power2amp/equal_lnn_AM1.2Hz_62.m4a,,,
,,,,,41186,2021-05-09_19h43.16.072,judgeSpeechMusic_20210407_logNormShiftAmp,2020.1.2,Win32,60,,,,,,,,,,,,,,,,,,,,,,,,,,2,6.71604,,0,0,79,79,25,1,stimuli/stim_20210407_power2amp/equal_lnn_AM1.2Hz_97.m4a,,,
,,,,,41186,2021-05-09_19h43.16.072,judgeSpeechMusic_20210407_logNormShiftAmp,2020.1.2,Win32,60,,,,,,,,,,,,,,,,,,,,,,,,,,1,6.536155,,0,0,80,80,83,1,stimuli/stim_20210407_power2amp/equal_lnn_AM3.6Hz_82.m4a,,,
,,,,,41186,2021-05-09_19h43.16.072,judgeSpeechMusic_20210407_logNormShiftAmp,2020.1.2,Win32,60,,,,,,,,,,,,,,,,,,,,,,,,,,2,7.549615,2,1,0,81,81,18,1,stimuli/stim_20210407_power2amp/equal_lnn_AM1.2Hz_1.m4a,1.169025,,
,,,,,41186,2021-05-09_19h43.16.072,judgeSpeechMusic_20210407_logNormShiftAmp,2020.1.2,Win32,60,,,,,,,,,,,,,,,,,,,,,,,,,,2,6.36483,,0,0,82,82,77,1,stimuli/stim_20210407_power2amp/equal_lnn_AM3.6Hz_68.m4a,,,
,,,,,41186,2021-05-09_19h43.16.072,judgeSpeechMusic_20210407_logNormShiftAmp,2020.1.2,Win32,60,,,,,,,,,,,,,,,,,,,,,,,,,,2,6.07944,,0,0,83,83,89,1,stimuli/stim_20210407_power2amp/equal_lnn_AM3.6Hz_14.m4a,,,
,,,,,41186,2021-05-09_19h43.16.072,judgeSpeechMusic_20210407_logNormShiftAmp,2020.1.2,Win32,60,,,,,,,,,,,,,,,,,,,,,,,,,,2,8.212045,,0,0,84,84,58,1,stimuli/stim_20210407_power2amp/equal_lnn_AM2.4Hz_90.m4a,,,
,,,,,41186,2021-05-09_19h43.16.072,judgeSpeechMusic_20210407_logNormShiftAmp,2020.1.2,Win32,60,,,,,,,,,,,,,,,,,,,,,,,,,,2,7.7012,,0,0,85,85,130,1,stimuli/stim_20210407_power2amp/equal_lnn_AM5.4Hz_57.m4a,,,
,,,,,41186,2021-05-09_19h43.16.072,judgeSpeechMusic_20210407_logNormShiftAmp,2020.1.2,Win32,60,,,,,,,,,,,,,,,,,,,,,,,,,,1,7.06537,,0,0,86,86,21,1,stimuli/stim_20210407_power2amp/equal_lnn_AM1.2Hz_96.m4a,,,
,,,,,41186,2021-05-09_19h43.16.072,judgeSpeechMusic_20210407_logNormShiftAmp,2020.1.2,Win32,60,,,,,,,,,,,,,,,,,,,,,,,,,,1,6.828,,0,0,87,87,6,1,stimuli/stim_20210407_power2amp/equal_lnn_AM0.6Hz_67.m4a,,,
,,,,,41186,2021-05-09_19h43.16.072,judgeSpeechMusic_20210407_logNormShiftAmp,2020.1.2,Win32,60,,,,,,,,,,,,,,,,,,,,,,,,,,1,9.21612,,0,0,88,88,63,1,stimuli/stim_20210407_power2amp/equal_lnn_AM3Hz_93.m4a,,,
,,,,,41186,2021-05-09_19h43.16.072,judgeSpeechMusic_20210407_logNormShiftAmp,2020.1.2,Win32,60,,,,,,,,,,,,,,,,,,,,,,,,,,1,6.058505,,0,0,89,89,93,1,stimuli/stim_20210407_power2amp/equal_lnn_AM4.2Hz_21.m4a,,,
,,,,,41186,2021-05-09_19h43.16.072,judgeSpeechMusic_20210407_logNormShiftAmp,2020.1.2,Win32,60,,,,,,,,,,,,,,,,,,,,,,,,,,2,7.594085,,0,0,90,90,74,1,stimuli/stim_20210407_power2amp/equal_lnn_AM3Hz_82.m4a,,,
,,,,,41186,2021-05-09_19h43.16.072,judgeSpeechMusic_20210407_logNormShiftAmp,2020.1.2,Win32,60,,,,,,,,,,,,,,,,,,,,,,,,,,2,7.41613,,0,0,91,91,31,1,stimuli/stim_20210407_power2amp/equal_lnn_AM1.8Hz_94.m4a,,,
,,,,,41186,2021-05-09_19h43.16.072,judgeSpeechMusic_20210407_logNormShiftAmp,2020.1.2,Win32,60,,,,,,,,,,,,,,,,,,,,,,,,,,2,6.074465,,0,0,92,92,101,1,stimuli/stim_20210407_power2amp/equal_lnn_AM4.2Hz_20.m4a,,,
,,,,,41186,2021-05-09_19h43.16.072,judgeSpeechMusic_20210407_logNormShiftAmp,2020.1.2,Win32,60,,,,,,,,,,,,,,,,,,,,,,,,,,2,9.564635,,0,0,93,93,99,1,stimuli/stim_20210407_power2amp/equal_lnn_AM4.2Hz_35.m4a,,,
,,,,,41186,2021-05-09_19h43.16.072,judgeSpeechMusic_20210407_logNormShiftAmp,2020.1.2,Win32,60,,,,,,,,,,,,,,,,,,,,,,,,,,1,11.21073,,0,0,94,94,15,1,stimuli/stim_20210407_power2amp/equal_lnn_AM1.2Hz_92.m4a,,,
,,,,,41186,2021-05-09_19h43.16.072,judgeSpeechMusic_20210407_logNormShiftAmp,2020.1.2,Win32,60,,,,,,,,,,,,,,,,,,,,,,,,,,1,6.14553,,0,0,95,95,97,1,stimuli/stim_20210407_power2amp/equal_lnn_AM4.2Hz_93.m4a,,,
,,,,,41186,2021-05-09_19h43.16.072,judgeSpeechMusic_20210407_logNormShiftAmp,2020.1.2,Win32,60,,,,,,,,,,,,,,,,,,,,,,,,,,2,7.484175,,0,0,96,96,111,1,stimuli/stim_20210407_power2amp/equal_lnn_AM4.8Hz_33.m4a,,,
,,,,,41186,2021-05-09_19h43.16.072,judgeSpeechMusic_20210407_logNormShiftAmp,2020.1.2,Win32,60,,,,,,,,,,,,,,,,,,,,,,,,,,2,11.064975,,0,0,97,97,84,1,stimuli/stim_20210407_power2amp/equal_lnn_AM3.6Hz_66.m4a,,,
,,,,,41186,2021-05-09_19h43.16.072,judgeSpeechMusic_20210407_logNormShiftAmp,2020.1.2,Win32,60,,,,,,,,,,,,,,,,,,,,,,,,,,1,7.282235,,0,0,98,98,34,1,stimuli/stim_20210407_power2amp/equal_lnn_AM1.8Hz_80.m4a,,,
,,,,,41186,2021-05-09_19h43.16.072,judgeSpeechMusic_20210407_logNormShiftAmp,2020.1.2,Win32,60,,,,,,,,,,,,,,,,,,,,,,,,,,2,7.09484,,0,0,99,99,105,1,stimuli/stim_20210407_power2amp/equal_lnn_AM4.8Hz_17.m4a,,,
,,,,,41186,2021-05-09_19h43.16.072,judgeSpeechMusic_20210407_logNormShiftAmp,2020.1.2,Win32,60,,,,,,,,,,,,,,,,,,,,,,,,,,1,6.058735,,0,0,100,100,30,1,stimuli/stim_20210407_power2amp/equal_lnn_AM1.8Hz_84.m4a,,,
,,,,,41186,2021-05-09_19h43.16.072,judgeSpeechMusic_20210407_logNormShiftAmp,2020.1.2,Win32,60,,,,,,,,,,,,,,,,,,,,,,,,,,1,7.88371,4,1,0,101,101,65,1,stimuli/stim_20210407_power2amp/equal_lnn_AM3Hz_79.m4a,1.962915,,
,,,,,41186,2021-05-09_19h43.16.072,judgeSpeechMusic_20210407_logNormShiftAmp,2020.1.2,Win32,60,,,,,,,,,,,,,,,,,,,,,,,,,,2,6.945595,,0,0,102,102,61,1,stimuli/stim_20210407_power2amp/equal_lnn_AM3Hz_85.m4a,,,
,,,,,41186,2021-05-09_19h43.16.072,judgeSpeechMusic_20210407_logNormShiftAmp,2020.1.2,Win32,60,,,,,,,,,,,,,,,,,,,,,,,,,,2,10.512255,,0,0,103,103,148,1,stimuli/stim_20210407_power2amp/equal_lnn_AM6Hz_17.m4a,,,
,,,,,41186,2021-05-09_19h43.16.072,judgeSpeechMusic_20210407_logNormShiftAmp,2020.1.2,Win32,60,,,,,,,,,,,,,,,,,,,,,,,,,,2,7.93567,,0,0,104,104,119,1,stimuli/stim_20210407_power2amp/equal_lnn_AM4.8Hz_97.m4a,,,
,,,,,41186,2021-05-09_19h43.16.072,judgeSpeechMusic_20210407_logNormShiftAmp,2020.1.2,Win32,60,,,,,,,,,,,,,,,,,,,,,,,,,,2,12.52067,,0,0,105,105,147,1,stimuli/stim_20210407_power2amp/equal_lnn_AM6Hz_56.m4a,,,
,,,,,41186,2021-05-09_19h43.16.072,judgeSpeechMusic_20210407_logNormShiftAmp,2020.1.2,Win32,60,,,,,,,,,,,,,,,,,,,,,,,,,,1,9.882895,,0,0,106,106,70,1,stimuli/stim_20210407_power2amp/equal_lnn_AM3Hz_47.m4a,,,
,,,,,41186,2021-05-09_19h43.16.072,judgeSpeechMusic_20210407_logNormShiftAmp,2020.1.2,Win32,60,,,,,,,,,,,,,,,,,,,,,,,,,,2,6.089205,,0,0,107,107,98,1,stimuli/stim_20210407_power2amp/equal_lnn_AM4.2Hz_53.m4a,,,
,,,,,41186,2021-05-09_19h43.16.072,judgeSpeechMusic_20210407_logNormShiftAmp,2020.1.2,Win32,60,,,,,,,,,,,,,,,,,,,,,,,,,,1,7.916195,,0,0,108,108,108,1,stimuli/stim_20210407_power2amp/equal_lnn_AM4.8Hz_58.m4a,,,
,,,,,41186,2021-05-09_19h43.16.072,judgeSpeechMusic_20210407_logNormShiftAmp,2020.1.2,Win32,60,,,,,,,,,,,,,,,,,,,,,,,,,,2,12.308915,,0,0,109,109,88,1,stimuli/stim_20210407_power2amp/equal_lnn_AM3.6Hz_83.m4a,,,
,,,,,41186,2021-05-09_19h43.16.072,judgeSpeechMusic_20210407_logNormShiftAmp,2020.1.2,Win32,60,,,,,,,,,,,,,,,,,,,,,,,,,,1,5.817385,,0,0,110,110,43,1,stimuli/stim_20210407_power2amp/equal_lnn_AM1.8Hz_90.m4a,,,
,,,,,41186,2021-05-09_19h43.16.072,judgeSpeechMusic_20210407_logNormShiftAmp,2020.1.2,Win32,60,,,,,,,,,,,,,,,,,,,,,,,,,,1,7.378585,,0,0,111,111,62,1,stimuli/stim_20210407_power2amp/equal_lnn_AM3Hz_60.m4a,,,
,,,,,41186,2021-05-09_19h43.16.072,judgeSpeechMusic_20210407_logNormShiftAmp,2020.1.2,Win32,60,,,,,,,,,,,,,,,,,,,,,,,,,,1,8.332725,,0,0,112,112,4,1,stimuli/stim_20210407_power2amp/equal_lnn_AM0.6Hz_94.m4a,,,
,,,,,41186,2021-05-09_19h43.16.072,judgeSpeechMusic_20210407_logNormShiftAmp,2020.1.2,Win32,60,,,,,,,,,,,,,,,,,,,,,,,,,,2,6.83848,,0,0,113,113,134,1,stimuli/stim_20210407_power2amp/equal_lnn_AM5.4Hz_87.m4a,,,
,,,,,41186,2021-05-09_19h43.16.072,judgeSpeechMusic_20210407_logNormShiftAmp,2020.1.2,Win32,60,,,,,,,,,,,,,,,,,,,,,,,,,,2,7.706435,,0,0,114,114,90,1,stimuli/stim_20210407_power2amp/equal_lnn_AM4.2Hz_31.m4a,,,
,,,,,41186,2021-05-09_19h43.16.072,judgeSpeechMusic_20210407_logNormShiftAmp,2020.1.2,Win32,60,,,,,,,,,,,,,,,,,,,,,,,,,,2,6.184715,,0,0,115,115,82,1,stimuli/stim_20210407_power2amp/equal_lnn_AM3.6Hz_41.m4a,,,
,,,,,41186,2021-05-09_19h43.16.072,judgeSpeechMusic_20210407_logNormShiftAmp,2020.1.2,Win32,60,,,,,,,,,,,,,,,,,,,,,,,,,,2,6.037305,,0,0,116,116,132,1,stimuli/stim_20210407_power2amp/equal_lnn_AM5.4Hz_59.m4a,,,
,,,,,41186,2021-05-09_19h43.16.072,judgeSpeechMusic_20210407_logNormShiftAmp,2020.1.2,Win32,60,,,,,,,,,,,,,,,,,,,,,,,,,,2,7.824585,,0,0,117,117,56,1,stimuli/stim_20210407_power2amp/equal_lnn_AM2.4Hz_95.m4a,,,
,,,,,41186,2021-05-09_19h43.16.072,judgeSpeechMusic_20210407_logNormShiftAmp,2020.1.2,Win32,60,,,,,,,,,,,,,,,,,,,,,,,,,,1,7.33347,,0,0,118,118,10,1,stimuli/stim_20210407_power2amp/equal_lnn_AM0.6Hz_34.m4a,,,
,,,,,41186,2021-05-09_19h43.16.072,judgeSpeechMusic_20210407_logNormShiftAmp,2020.1.2,Win32,60,,,,,,,,,,,,,,,,,,,,,,,,,,2,6.934265,,0,0,119,119,95,1,stimuli/stim_20210407_power2amp/equal_lnn_AM4.2Hz_87.m4a,,,
,,,,,41186,2021-05-09_19h43.16.072,judgeSpeechMusic_20210407_logNormShiftAmp,2020.1.2,Win32,60,,,,,,,,,,,,,,,,,,,,,,,,,,2,8.716965,,0,0,120,120,118,1,stimuli/stim_20210407_power2amp/equal_lnn_AM4.8Hz_29.m4a,,,
,,,,,41186,2021-05-09_19h43.16.072,judgeSpeechMusic_20210407_logNormShiftAmp,2020.1.2,Win32,60,,,,,,,,,,,,,,,,,,,,,,,,,,2,10.93315,,0,0,121,121,49,1,stimuli/stim_20210407_power2amp/equal_lnn_AM2.4Hz_43.m4a,,,
,,,,,41186,2021-05-09_19h43.16.072,judgeSpeechMusic_20210407_logNormShiftAmp,2020.1.2,Win32,60,,,,,,,,,,,,,,,,,,,,,,,,,,1,7.51895,,0,0,122,122,67,1,stimuli/stim_20210407_power2amp/equal_lnn_AM3Hz_63.m4a,,,
,,,,,41186,2021-05-09_19h43.16.072,judgeSpeechMusic_20210407_logNormShiftAmp,2020.1.2,Win32,60,,,,,,,,,,,,,,,,,,,,,,,,,,2,6.649925,,0,0,123,123,92,1,stimuli/stim_20210407_power2amp/equal_lnn_AM4.2Hz_74.m4a,,,
,,,,,41186,2021-05-09_19h43.16.072,judgeSpeechMusic_20210407_logNormShiftAmp,2020.1.2,Win32,60,,,,,,,,,,,,,,,,,,,,,,,,,,2,7.93404,,0,0,124,124,5,1,stimuli/stim_20210407_power2amp/equal_lnn_AM0.6Hz_89.m4a,,,
,,,,,41186,2021-05-09_19h43.16.072,judgeSpeechMusic_20210407_logNormShiftAmp,2020.1.2,Win32,60,,,,,,,,,,,,,,,,,,,,,,,,,,1,9.02511,,0,0,125,125,8,1,stimuli/stim_20210407_power2amp/equal_lnn_AM0.6Hz_63.m4a,,,
,,,,,41186,2021-05-09_19h43.16.072,judgeSpeechMusic_20210407_logNormShiftAmp,2020.1.2,Win32,60,,,,,,,,,,,,,,,,,,,,,,,,,,2,20.517005,4,1,0,126,126,72,1,stimuli/stim_20210407_power2amp/equal_lnn_AM3Hz_16.m4a,2.49268,,
,,,,,41186,2021-05-09_19h43.16.072,judgeSpeechMusic_20210407_logNormShiftAmp,2020.1.2,Win32,60,,,,,,,,,,,,,,,,,,,,,,,,,,2,8.716115,,0,0,127,127,116,1,stimuli/stim_20210407_power2amp/equal_lnn_AM4.8Hz_73.m4a,,,
,,,,,41186,2021-05-09_19h43.16.072,judgeSpeechMusic_20210407_logNormShiftAmp,2020.1.2,Win32,60,,,,,,,,,,,,,,,,,,,,,,,,,,2,7.399575,,0,0,128,128,57,1,stimuli/stim_20210407_power2amp/equal_lnn_AM2.4Hz_59.m4a,,,
,,,,,41186,2021-05-09_19h43.16.072,judgeSpeechMusic_20210407_logNormShiftAmp,2020.1.2,Win32,60,,,,,,,,,,,,,,,,,,,,,,,,,,2,8.149215,,0,0,129,129,131,1,stimuli/stim_20210407_power2amp/equal_lnn_AM5.4Hz_72.m4a,,,
,,,,,41186,2021-05-09_19h43.16.072,judgeSpeechMusic_20210407_logNormShiftAmp,2020.1.2,Win32,60,,,,,,,,,,,,,,,,,,,,,,,,,,2,13.08351,,0,0,130,130,103,1,stimuli/stim_20210407_power2amp/equal_lnn_AM4.2Hz_2.m4a,,,
,,,,,41186,2021-05-09_19h43.16.072,judgeSpeechMusic_20210407_logNormShiftAmp,2020.1.2,Win32,60,,,,,,,,,,,,,,,,,,,,,,,,,,2,7.250225,,0,0,131,131,52,1,stimuli/stim_20210407_power2amp/equal_lnn_AM2.4Hz_91.m4a,,,
,,,,,41186,2021-05-09_19h43.16.072,judgeSpeechMusic_20210407_logNormShiftAmp,2020.1.2,Win32,60,,,,,,,,,,,,,,,,,,,,,,,,,,2,5.97485,,0,0,132,132,115,1,stimuli/stim_20210407_power2amp/equal_lnn_AM4.8Hz_63.m4a,,,
,,,,,41186,2021-05-09_19h43.16.072,judgeSpeechMusic_20210407_logNormShiftAmp,2020.1.2,Win32,60,,,,,,,,,,,,,,,,,,,,,,,,,,1,6.574595,,0,0,133,133,47,1,stimuli/stim_20210407_power2amp/equal_lnn_AM2.4Hz_63.m4a,,,
,,,,,41186,2021-05-09_19h43.16.072,judgeSpeechMusic_20210407_logNormShiftAmp,2020.1.2,Win32,60,,,,,,,,,,,,,,,,,,,,,,,,,,2,9.513765,,0,0,134,134,144,1,stimuli/stim_20210407_power2amp/equal_lnn_AM6Hz_76.m4a,,,
,,,,,41186,2021-05-09_19h43.16.072,judgeSpeechMusic_20210407_logNormShiftAmp,2020.1.2,Win32,60,,,,,,,,,,,,,,,,,,,,,,,,,,1,8.585325,,0,0,135,135,32,1,stimuli/stim_20210407_power2amp/equal_lnn_AM1.8Hz_87.m4a,,,
,,,,,41186,2021-05-09_19h43.16.072,judgeSpeechMusic_20210407_logNormShiftAmp,2020.1.2,Win32,60,,,,,,,,,,,,,,,,,,,,,,,,,,1,6.25967,,0,0,136,136,124,1,stimuli/stim_20210407_power2amp/equal_lnn_AM5.4Hz_47.m4a,,,
,,,,,41186,2021-05-09_19h43.16.072,judgeSpeechMusic_20210407_logNormShiftAmp,2020.1.2,Win32,60,,,,,,,,,,,,,,,,,,,,,,,,,,1,6.90116,,0,0,137,137,73,1,stimuli/stim_20210407_power2amp/equal_lnn_AM3Hz_57.m4a,,,
,,,,,41186,2021-05-09_19h43.16.072,judgeSpeechMusic_20210407_logNormShiftAmp,2020.1.2,Win32,60,,,,,,,,,,,,,,,,,,,,,,,,,,2,6.950785,,0,0,138,138,86,1,stimuli/stim_20210407_power2amp/equal_lnn_AM3.6Hz_65.m4a,,,
,,,,,41186,2021-05-09_19h43.16.072,judgeSpeechMusic_20210407_logNormShiftAmp,2020.1.2,Win32,60,,,,,,,,,,,,,,,,,,,,,,,,,,2,20.731455,,0,0,139,139,140,1,stimuli/stim_20210407_power2amp/equal_lnn_AM6Hz_41.m4a,,,
,,,,,41186,2021-05-09_19h43.16.072,judgeSpeechMusic_20210407_logNormShiftAmp,2020.1.2,Win32,60,,,,,,,,,,,,,,,,,,,,,,,,,,2,21.531755,,0,0,140,140,122,1,stimuli/stim_20210407_power2amp/equal_lnn_AM5.4Hz_67.m4a,,,
,,,,,41186,2021-05-09_19h43.16.072,judgeSpeechMusic_20210407_logNormShiftAmp,2020.1.2,Win32,60,,,,,,,,,,,,,,,,,,,,,,,,,,2,8.387385,,0,0,141,141,78,1,stimuli/stim_20210407_power2amp/equal_lnn_AM3.6Hz_31.m4a,,,
,,,,,41186,2021-05-09_19h43.16.072,judgeSpeechMusic_20210407_logNormShiftAmp,2020.1.2,Win32,60,,,,,,,,,,,,,,,,,,,,,,,,,,2,10.03362,,0,0,142,142,104,1,stimuli/stim_20210407_power2amp/equal_lnn_AM4.2Hz_5.m4a,,,
,,,,,41186,2021-05-09_19h43.16.072,judgeSpeechMusic_20210407_logNormShiftAmp,2020.1.2,Win32,60,,,,,,,,,,,,,,,,,,,,,,,,,,2,7.066195,,0,0,143,143,54,1,stimuli/stim_20210407_power2amp/equal_lnn_AM2.4Hz_86.m4a,,,
,,,,,41186,2021-05-09_19h43.16.072,judgeSpeechMusic_20210407_logNormShiftAmp,2020.1.2,Win32,60,,,,,,,,,,,,,,,,,,,,,,,,,,1,6.10705,,0,0,144,144,11,1,stimuli/stim_20210407_power2amp/equal_lnn_AM0.6Hz_1.m4a,,,
,,,,,41186,2021-05-09_19h43.16.072,judgeSpeechMusic_20210407_logNormShiftAmp,2020.1.2,Win32,60,,,,,,,,,,,,,,,,,,,,,,,,,,1,6.017025,,0,0,145,145,85,1,stimuli/stim_20210407_power2amp/equal_lnn_AM3.6Hz_75.m4a,,,
,,,,,41186,2021-05-09_19h43.16.072,judgeSpeechMusic_20210407_logNormShiftAmp,2020.1.2,Win32,60,,,,,,,,,,,,,,,,,,,,,,,,,,2,7.08266,,0,0,146,146,142,1,stimuli/stim_20210407_power2amp/equal_lnn_AM6Hz_51.m4a,,,
,,,,,41186,2021-05-09_19h43.16.072,judgeSpeechMusic_20210407_logNormShiftAmp,2020.1.2,Win32,60,,,,,,,,,,,,,,,,,,,,,,,,,,2,6.38338,,0,0,147,147,79,1,stimuli/stim_20210407_power2amp/equal_lnn_AM3.6Hz_48.m4a,,,
,,,,,41186,2021-05-09_19h43.16.072,judgeSpeechMusic_20210407_logNormShiftAmp,2020.1.2,Win32,60,,,,,,,,,,,,,,,,,,,,,,,,,,2,6.36659,3,1,0,148,148,48,1,stimuli/stim_20210407_power2amp/equal_lnn_AM2.4Hz_41.m4a,2.0754,,
,,,,,41186,2021-05-09_19h43.16.072,judgeSpeechMusic_20210407_logNormShiftAmp,2020.1.2,Win32,60,,,,,,,,,,,,,,,,,,,,,,,,,,2,10.5987,,0,0,149,149,126,1,stimuli/stim_20210407_power2amp/equal_lnn_AM5.4Hz_100.m4a,,,
,,,,,41186,2021-05-09_19h43.16.072,judgeSpeechMusic_20210407_logNormShiftAmp,2020.1.2,Win32,60,,,,,,,,,,,,,,,,,,,,,,,,,,2,8.21818,,0,1,0,150,81,1,stimuli/stim_20210407_power2amp/equal_lnn_AM3.6Hz_78.m4a,,,
,,,,,41186,2021-05-09_19h43.16.072,judgeSpeechMusic_20210407_logNormShiftAmp,2020.1.2,Win32,60,,,,,,,,,,,,,,,,,,,,,,,,,,2,7.585015,,0,1,1,151,86,1,stimuli/stim_20210407_power2amp/equal_lnn_AM3.6Hz_65.m4a,,,
,,,,,41186,2021-05-09_19h43.16.072,judgeSpeechMusic_20210407_logNormShiftAmp,2020.1.2,Win32,60,,,,,,,,,,,,,,,,,,,,,,,,,,1,6.973725,,0,1,2,152,17,1,stimuli/stim_20210407_power2amp/equal_lnn_AM1.2Hz_46.m4a,,,
,,,,,41186,2021-05-09_19h43.16.072,judgeSpeechMusic_20210407_logNormShiftAmp,2020.1.2,Win32,60,,,,,,,,,,,,,,,,,,,,,,,,,,1,9.03302,,0,1,3,153,50,1,stimuli/stim_20210407_power2amp/equal_lnn_AM2.4Hz_44.m4a,,,
,,,,,41186,2021-05-09_19h43.16.072,judgeSpeechMusic_20210407_logNormShiftAmp,2020.1.2,Win32,60,,,,,,,,,,,,,,,,,,,,,,,,,,2,28.416605,,0,1,4,154,53,1,stimuli/stim_20210407_power2amp/equal_lnn_AM2.4Hz_20.m4a,,,
,,,,,41186,2021-05-09_19h43.16.072,judgeSpeechMusic_20210407_logNormShiftAmp,2020.1.2,Win32,60,,,,,,,,,,,,,,,,,,,,,,,,,,2,9.271605,,0,1,5,155,133,1,stimuli/stim_20210407_power2amp/equal_lnn_AM5.4Hz_28.m4a,,,
,,,,,41186,2021-05-09_19h43.16.072,judgeSpeechMusic_20210407_logNormShiftAmp,2020.1.2,Win32,60,,,,,,,,,,,,,,,,,,,,,,,,,,2,27.154415,,0,1,6,156,106,1,stimuli/stim_20210407_power2amp/equal_lnn_AM4.8Hz_27.m4a,,,
,,,,,41186,2021-05-09_19h43.16.072,judgeSpeechMusic_20210407_logNormShiftAmp,2020.1.2,Win32,60,,,,,,,,,,,,,,,,,,,,,,,,,,2,6.433405,,0,1,7,157,114,1,stimuli/stim_20210407_power2amp/equal_lnn_AM4.8Hz_93.m4a,,,
,,,,,41186,2021-05-09_19h43.16.072,judgeSpeechMusic_20210407_logNormShiftAmp,2020.1.2,Win32,60,,,,,,,,,,,,,,,,,,,,,,,,,,2,6.300505,,0,1,8,158,125,1,stimuli/stim_20210407_power2amp/equal_lnn_AM5.4Hz_1.m4a,,,
,,,,,41186,2021-05-09_19h43.16.072,judgeSpeechMusic_20210407_logNormShiftAmp,2020.1.2,Win32,60,,,,,,,,,,,,,,,,,,,,,,,,,,2,7.73522,,0,1,9,159,68,1,stimuli/stim_20210407_power2amp/equal_lnn_AM3Hz_96.m4a,,,
,,,,,41186,2021-05-09_19h43.16.072,judgeSpeechMusic_20210407_logNormShiftAmp,2020.1.2,Win32,60,,,,,,,,,,,,,,,,,,,,,,,,,,1,8.36733,,0,1,10,160,71,1,stimuli/stim_20210407_power2amp/equal_lnn_AM3Hz_62.m4a,,,
,,,,,41186,2021-05-09_19h43.16.072,judgeSpeechMusic_20210407_logNormShiftAmp,2020.1.2,Win32,60,,,,,,,,,,,,,,,,,,,,,,,,,,1,11.384835,,0,1,11,161,45,1,stimuli/stim_20210407_power2amp/equal_lnn_AM2.4Hz_36.m4a,,,
,,,,,41186,2021-05-09_19h43.16.072,judgeSpeechMusic_20210407_logNormShiftAmp,2020.1.2,Win32,60,,,,,,,,,,,,,,,,,,,,,,,,,,2,21.59705,,0,1,12,162,69,1,stimuli/stim_20210407_power2amp/equal_lnn_AM3Hz_81.m4a,,,
,,,,,41186,2021-05-09_19h43.16.072,judgeSpeechMusic_20210407_logNormShiftAmp,2020.1.2,Win32,60,,,,,,,,,,,,,,,,,,,,,,,,,,2,5.950605,,0,1,13,163,62,1,stimuli/stim_20210407_power2amp/equal_lnn_AM3Hz_60.m4a,,,
,,,,,41186,2021-05-09_19h43.16.072,judgeSpeechMusic_20210407_logNormShiftAmp,2020.1.2,Win32,60,,,,,,,,,,,,,,,,,,,,,,,,,,1,32.84882,,0,1,14,164,78,1,stimuli/stim_20210407_power2amp/equal_lnn_AM3.6Hz_31.m4a,,,
,,,,,41186,2021-05-09_19h43.16.072,judgeSpeechMusic_20210407_logNormShiftAmp,2020.1.2,Win32,60,,,,,,,,,,,,,,,,,,,,,,,,,,2,8.403895,,0,1,15,165,63,1,stimuli/stim_20210407_power2amp/equal_lnn_AM3Hz_93.m4a,,,
,,,,,41186,2021-05-09_19h43.16.072,judgeSpeechMusic_20210407_logNormShiftAmp,2020.1.2,Win32,60,,,,,,,,,,,,,,,,,,,,,,,,,,2,38.82982,,0,1,16,166,21,1,stimuli/stim_20210407_power2amp/equal_lnn_AM1.2Hz_96.m4a,,,
,,,,,41186,2021-05-09_19h43.16.072,judgeSpeechMusic_20210407_logNormShiftAmp,2020.1.2,Win32,60,,,,,,,,,,,,,,,,,,,,,,,,,,2,26.26592,,0,1,17,167,126,1,stimuli/stim_20210407_power2amp/equal_lnn_AM5.4Hz_100.m4a,,,
,,,,,41186,2021-05-09_19h43.16.072,judgeSpeechMusic_20210407_logNormShiftAmp,2020.1.2,Win32,60,,,,,,,,,,,,,,,,,,,,,,,,,,1,7.4351,,0,1,18,168,15,1,stimuli/stim_20210407_power2amp/equal_lnn_AM1.2Hz_92.m4a,,,
,,,,,41186,2021-05-09_19h43.16.072,judgeSpeechMusic_20210407_logNormShiftAmp,2020.1.2,Win32,60,,,,,,,,,,,,,,,,,,,,,,,,,,2,11.455375,,0,1,19,169,55,1,stimuli/stim_20210407_power2amp/equal_lnn_AM2.4Hz_64.m4a,,,
,,,,,41186,2021-05-09_19h43.16.072,judgeSpeechMusic_20210407_logNormShiftAmp,2020.1.2,Win32,60,,,,,,,,,,,,,,,,,,,,,,,,,,2,12.334685,,0,1,20,170,89,1,stimuli/stim_20210407_power2amp/equal_lnn_AM3.6Hz_14.m4a,,,
,,,,,41186,2021-05-09_19h43.16.072,judgeSpeechMusic_20210407_logNormShiftAmp,2020.1.2,Win32,60,,,,,,,,,,,,,,,,,,,,,,,,,,2,27.879885,,0,1,21,171,110,1,stimuli/stim_20210407_power2amp/equal_lnn_AM4.8Hz_68.m4a,,,
,,,,,41186,2021-05-09_19h43.16.072,judgeSpeechMusic_20210407_logNormShiftAmp,2020.1.2,Win32,60,,,,,,,,,,,,,,,,,,,,,,,,,,2,8.63102,,0,1,22,172,119,1,stimuli/stim_20210407_power2amp/equal_lnn_AM4.8Hz_97.m4a,,,
,,,,,41186,2021-05-09_19h43.16.072,judgeSpeechMusic_20210407_logNormShiftAmp,2020.1.2,Win32,60,,,,,,,,,,,,,,,,,,,,,,,,,,1,11.99432,3,1,1,23,173,48,1,stimuli/stim_20210407_power2amp/equal_lnn_AM2.4Hz_41.m4a,1.73948,,
,,,,,41186,2021-05-09_19h43.16.072,judgeSpeechMusic_20210407_logNormShiftAmp,2020.1.2,Win32,60,,,,,,,,,,,,,,,,,,,,,,,,,,2,7.719555,,0,1,24,174,121,1,stimuli/stim_20210407_power2amp/equal_lnn_AM5.4Hz_41.m4a,,,
,,,,,41186,2021-05-09_19h43.16.072,judgeSpeechMusic_20210407_logNormShiftAmp,2020.1.2,Win32,60,,,,,,,,,,,,,,,,,,,,,,,,,,1,6.73551,,0,1,25,175,61,1,stimuli/stim_20210407_power2amp/equal_lnn_AM3Hz_85.m4a,,,
,,,,,41186,2021-05-09_19h43.16.072,judgeSpeechMusic_20210407_logNormShiftAmp,2020.1.2,Win32,60,,,,,,,,,,,,,,,,,,,,,,,,,,2,10.59926,,0,1,26,176,41,1,stimuli/stim_20210407_power2amp/equal_lnn_AM1.8Hz_47.m4a,,,
,,,,,41186,2021-05-09_19h43.16.072,judgeSpeechMusic_20210407_logNormShiftAmp,2020.1.2,Win32,60,,,,,,,,,,,,,,,,,,,,,,,,,,1,7.13699,,0,1,27,177,60,1,stimuli/stim_20210407_power2amp/equal_lnn_AM3Hz_38.m4a,,,
,,,,,41186,2021-05-09_19h43.16.072,judgeSpeechMusic_20210407_logNormShiftAmp,2020.1.2,Win32,60,,,,,,,,,,,,,,,,,,,,,,,,,,1,8.2333,,0,1,28,178,141,1,stimuli/stim_20210407_power2amp/equal_lnn_AM6Hz_81.m4a,,,
,,,,,41186,2021-05-09_19h43.16.072,judgeSpeechMusic_20210407_logNormShiftAmp,2020.1.2,Win32,60,,,,,,,,,,,,,,,,,,,,,,,,,,2,9.166075,,0,1,29,179,67,1,stimuli/stim_20210407_power2amp/equal_lnn_AM3Hz_63.m4a,,,
,,,,,41186,2021-05-09_19h43.16.072,judgeSpeechMusic_20210407_logNormShiftAmp,2020.1.2,Win32,60,,,,,,,,,,,,,,,,,,,,,,,,,,1,11.133395,,0,1,30,180,124,1,stimuli/stim_20210407_power2amp/equal_lnn_AM5.4Hz_47.m4a,,,
,,,,,41186,2021-05-09_19h43.16.072,judgeSpeechMusic_20210407_logNormShiftAmp,2020.1.2,Win32,60,,,,,,,,,,,,,,,,,,,,,,,,,,2,6.610305,,0,1,31,181,58,1,stimuli/stim_20210407_power2amp/equal_lnn_AM2.4Hz_90.m4a,,,
,,,,,41186,2021-05-09_19h43.16.072,judgeSpeechMusic_20210407_logNormShiftAmp,2020.1.2,Win32,60,,,,,,,,,,,,,,,,,,,,,,,,,,1,9.45715,,0,1,32,182,1,1,stimuli/stim_20210407_power2amp/equal_lnn_AM0.6Hz_55.m4a,,,
,,,,,41186,2021-05-09_19h43.16.072,judgeSpeechMusic_20210407_logNormShiftAmp,2020.1.2,Win32,60,,,,,,,,,,,,,,,,,,,,,,,,,,1,5.78348,,0,1,33,183,98,1,stimuli/stim_20210407_power2amp/equal_lnn_AM4.2Hz_53.m4a,,,
,,,,,41186,2021-05-09_19h43.16.072,judgeSpeechMusic_20210407_logNormShiftAmp,2020.1.2,Win32,60,,,,,,,,,,,,,,,,,,,,,,,,,,2,6.454495,,0,1,34,184,79,1,stimuli/stim_20210407_power2amp/equal_lnn_AM3.6Hz_48.m4a,,,
,,,,,41186,2021-05-09_19h43.16.072,judgeSpeechMusic_20210407_logNormShiftAmp,2020.1.2,Win32,60,,,,,,,,,,,,,,,,,,,,,,,,,,2,6.32277,,0,1,35,185,123,1,stimuli/stim_20210407_power2amp/equal_lnn_AM5.4Hz_99.m4a,,,
,,,,,41186,2021-05-09_19h43.16.072,judgeSpeechMusic_20210407_logNormShiftAmp,2020.1.2,Win32,60,,,,,,,,,,,,,,,,,,,,,,,,,,1,7.95244,,0,1,36,186,136,1,stimuli/stim_20210407_power2amp/equal_lnn_AM6Hz_61.m4a,,,
,,,,,41186,2021-05-09_19h43.16.072,judgeSpeechMusic_20210407_logNormShiftAmp,2020.1.2,Win32,60,,,,,,,,,,,,,,,,,,,,,,,,,,1,5.97238,,0,1,37,187,39,1,stimuli/stim_20210407_power2amp/equal_lnn_AM1.8Hz_97.m4a,,,
,,,,,41186,2021-05-09_19h43.16.072,judgeSpeechMusic_20210407_logNormShiftAmp,2020.1.2,Win32,60,,,,,,,,,,,,,,,,,,,,,,,,,,2,7.617435,,0,1,38,188,74,1,stimuli/stim_20210407_power2amp/equal_lnn_AM3Hz_82.m4a,,,
,,,,,41186,2021-05-09_19h43.16.072,judgeSpeechMusic_20210407_logNormShiftAmp,2020.1.2,Win32,60,,,,,,,,,,,,,,,,,,,,,,,,,,2,6.73315,,0,1,39,189,149,1,stimuli/stim_20210407_power2amp/equal_lnn_AM6Hz_35.m4a,,,
,,,,,41186,2021-05-09_19h43.16.072,judgeSpeechMusic_20210407_logNormShiftAmp,2020.1.2,Win32,60,,,,,,,,,,,,,,,,,,,,,,,,,,1,6.10145,,0,1,40,190,146,1,stimuli/stim_20210407_power2amp/equal_lnn_AM6Hz_26.m4a,,,
,,,,,41186,2021-05-09_19h43.16.072,judgeSpeechMusic_20210407_logNormShiftAmp,2020.1.2,Win32,60,,,,,,,,,,,,,,,,,,,,,,,,,,2,33.303145,,0,1,41,191,95,1,stimuli/stim_20210407_power2amp/equal_lnn_AM4.2Hz_87.m4a,,,
,,,,,41186,2021-05-09_19h43.16.072,judgeSpeechMusic_20210407_logNormShiftAmp,2020.1.2,Win32,60,,,,,,,,,,,,,,,,,,,,,,,,,,2,6.85831,,0,1,42,192,104,1,stimuli/stim_20210407_power2amp/equal_lnn_AM4.2Hz_5.m4a,,,
,,,,,41186,2021-05-09_19h43.16.072,judgeSpeechMusic_20210407_logNormShiftAmp,2020.1.2,Win32,60,,,,,,,,,,,,,,,,,,,,,,,,,,2,25.368525,3,1,1,43,193,40,1,stimuli/stim_20210407_power2amp/equal_lnn_AM1.8Hz_75.m4a,1.142115,,
,,,,,41186,2021-05-09_19h43.16.072,judgeSpeechMusic_20210407_logNormShiftAmp,2020.1.2,Win32,60,,,,,,,,,,,,,,,,,,,,,,,,,,2,21.16843,,0,1,44,194,8,1,stimuli/stim_20210407_power2amp/equal_lnn_AM0.6Hz_63.m4a,,,
,,,,,41186,2021-05-09_19h43.16.072,judgeSpeechMusic_20210407_logNormShiftAmp,2020.1.2,Win32,60,,,,,,,,,,,,,,,,,,,,,,,,,,1,33.47839,,0,1,45,195,29,1,stimuli/stim_20210407_power2amp/equal_lnn_AM1.2Hz_34.m4a,,,
,,,,,41186,2021-05-09_19h43.16.072,judgeSpeechMusic_20210407_logNormShiftAmp,2020.1.2,Win32,60,,,,,,,,,,,,,,,,,,,,,,,,,,2,6.706825,,0,1,46,196,37,1,stimuli/stim_20210407_power2amp/equal_lnn_AM1.8Hz_7.m4a,,,
,,,,,41186,2021-05-09_19h43.16.072,judgeSpeechMusic_20210407_logNormShiftAmp,2020.1.2,Win32,60,,,,,,,,,,,,,,,,,,,,,,,,,,1,8.35162,,0,1,47,197,72,1,stimuli/stim_20210407_power2amp/equal_lnn_AM3Hz_16.m4a,,,
,,,,,41186,2021-05-09_19h43.16.072,judgeSpeechMusic_20210407_logNormShiftAmp,2020.1.2,Win32,60,,,,,,,,,,,,,,,,,,,,,,,,,,1,7.7504,,0,1,48,198,4,1,stimuli/stim_20210407_power2amp/equal_lnn_AM0.6Hz_94.m4a,,,
,,,,,41186,2021-05-09_19h43.16.072,judgeSpeechMusic_20210407_logNormShiftAmp,2020.1.2,Win32,60,,,,,,,,,,,,,,,,,,,,,,,,,,2,6.456265,,0,1,49,199,116,1,stimuli/stim_20210407_power2amp/equal_lnn_AM4.8Hz_73.m4a,,,
,,,,,41186,2021-05-09_19h43.16.072,judgeSpeechMusic_20210407_logNormShiftAmp,2020.1.2,Win32,60,,,,,,,,,,,,,,,,,,,,,,,,,,1,6.2554,,0,1,50,200,19,1,stimuli/stim_20210407_power2amp/equal_lnn_AM1.2Hz_62.m4a,,,
,,,,,41186,2021-05-09_19h43.16.072,judgeSpeechMusic_20210407_logNormShiftAmp,2020.1.2,Win32,60,,,,,,,,,,,,,,,,,,,,,,,,,,2,8.45036,,0,1,51,201,25,1,stimuli/stim_20210407_power2amp/equal_lnn_AM1.2Hz_97.m4a,,,
,,,,,41186,2021-05-09_19h43.16.072,judgeSpeechMusic_20210407_logNormShiftAmp,2020.1.2,Win32,60,,,,,,,,,,,,,,,,,,,,,,,,,,1,6.88339,,0,1,52,202,76,1,stimuli/stim_20210407_power2amp/equal_lnn_AM3.6Hz_8.m4a,,,
,,,,,41186,2021-05-09_19h43.16.072,judgeSpeechMusic_20210407_logNormShiftAmp,2020.1.2,Win32,60,,,,,,,,,,,,,,,,,,,,,,,,,,2,7.733425,,0,1,53,203,134,1,stimuli/stim_20210407_power2amp/equal_lnn_AM5.4Hz_87.m4a,,,
,,,,,41186,2021-05-09_19h43.16.072,judgeSpeechMusic_20210407_logNormShiftAmp,2020.1.2,Win32,60,,,,,,,,,,,,,,,,,,,,,,,,,,2,5.88362,,0,1,54,204,96,1,stimuli/stim_20210407_power2amp/equal_lnn_AM4.2Hz_19.m4a,,,
,,,,,41186,2021-05-09_19h43.16.072,judgeSpeechMusic_20210407_logNormShiftAmp,2020.1.2,Win32,60,,,,,,,,,,,,,,,,,,,,,,,,,,1,5.951925,,0,1,55,205,30,1,stimuli/stim_20210407_power2amp/equal_lnn_AM1.8Hz_84.m4a,,,
,,,,,41186,2021-05-09_19h43.16.072,judgeSpeechMusic_20210407_logNormShiftAmp,2020.1.2,Win32,60,,,,,,,,,,,,,,,,,,,,,,,,,,1,6.754765,,0,1,56,206,33,1,stimuli/stim_20210407_power2amp/equal_lnn_AM1.8Hz_40.m4a,,,
,,,,,41186,2021-05-09_19h43.16.072,judgeSpeechMusic_20210407_logNormShiftAmp,2020.1.2,Win32,60,,,,,,,,,,,,,,,,,,,,,,,,,,1,5.92533,,0,1,57,207,52,1,stimuli/stim_20210407_power2amp/equal_lnn_AM2.4Hz_91.m4a,,,
,,,,,41186,2021-05-09_19h43.16.072,judgeSpeechMusic_20210407_logNormShiftAmp,2020.1.2,Win32,60,,,,,,,,,,,,,,,,,,,,,,,,,,2,7.31796,,0,1,58,208,93,1,stimuli/stim_20210407_power2amp/equal_lnn_AM4.2Hz_21.m4a,,,
,,,,,41186,2021-05-09_19h43.16.072,judgeSpeechMusic_20210407_logNormShiftAmp,2020.1.2,Win32,60,,,,,,,,,,,,,,,,,,,,,,,,,,2,8.8488,,0,1,59,209,77,1,stimuli/stim_20210407_power2amp/equal_lnn_AM3.6Hz_68.m4a,,,
,,,,,41186,2021-05-09_19h43.16.072,judgeSpeechMusic_20210407_logNormShiftAmp,2020.1.2,Win32,60,,,,,,,,,,,,,,,,,,,,,,,,,,2,15.01118,,0,1,60,210,88,1,stimuli/stim_20210407_power2amp/equal_lnn_AM3.6Hz_83.m4a,,,
,,,,,41186,2021-05-09_19h43.16.072,judgeSpeechMusic_20210407_logNormShiftAmp,2020.1.2,Win32,60,,,,,,,,,,,,,,,,,,,,,,,,,,1,12.927975,,0,1,61,211,109,1,stimuli/stim_20210407_power2amp/equal_lnn_AM4.8Hz_60.m4a,,,
,,,,,41186,2021-05-09_19h43.16.072,judgeSpeechMusic_20210407_logNormShiftAmp,2020.1.2,Win32,60,,,,,,,,,,,,,,,,,,,,,,,,,,2,6.994945,,0,1,62,212,132,1,stimuli/stim_20210407_power2amp/equal_lnn_AM5.4Hz_59.m4a,,,
,,,,,41186,2021-05-09_19h43.16.072,judgeSpeechMusic_20210407_logNormShiftAmp,2020.1.2,Win32,60,,,,,,,,,,,,,,,,,,,,,,,,,,1,7.06402,,0,1,63,213,13,1,stimuli/stim_20210407_power2amp/equal_lnn_AM0.6Hz_13.m4a,,,
,,,,,41186,2021-05-09_19h43.16.072,judgeSpeechMusic_20210407_logNormShiftAmp,2020.1.2,Win32,60,,,,,,,,,,,,,,,,,,,,,,,,,,2,31.79075,,0,1,64,214,113,1,stimuli/stim_20210407_power2amp/equal_lnn_AM4.8Hz_6.m4a,,,
,,,,,41186,2021-05-09_19h43.16.072,judgeSpeechMusic_20210407_logNormShiftAmp,2020.1.2,Win32,60,,,,,,,,,,,,,,,,,,,,,,,,,,1,7.749455,,0,1,65,215,10,1,stimuli/stim_20210407_power2amp/equal_lnn_AM0.6Hz_34.m4a,,,
,,,,,41186,2021-05-09_19h43.16.072,judgeSpeechMusic_20210407_logNormShiftAmp,2020.1.2,Win32,60,,,,,,,,,,,,,,,,,,,,,,,,,,1,5.822375,,0,1,66,216,46,1,stimuli/stim_20210407_power2amp/equal_lnn_AM2.4Hz_19.m4a,,,
,,,,,41186,2021-05-09_19h43.16.072,judgeSpeechMusic_20210407_logNormShiftAmp,2020.1.2,Win32,60,,,,,,,,,,,,,,,,,,,,,,,,,,2,8.133995,2,1,1,67,217,99,1,stimuli/stim_20210407_power2amp/equal_lnn_AM4.2Hz_35.m4a,0.55508,,
,,,,,41186,2021-05-09_19h43.16.072,judgeSpeechMusic_20210407_logNormShiftAmp,2020.1.2,Win32,60,,,,,,,,,,,,,,,,,,,,,,,,,,1,8.720155,,0,1,68,218,12,1,stimuli/stim_20210407_power2amp/equal_lnn_AM0.6Hz_19.m4a,,,
,,,,,41186,2021-05-09_19h43.16.072,judgeSpeechMusic_20210407_logNormShiftAmp,2020.1.2,Win32,60,,,,,,,,,,,,,,,,,,,,,,,,,,1,6.63867,,0,1,69,219,0,1,stimuli/stim_20210407_power2amp/equal_lnn_AM0.6Hz_9.m4a,,,
,,,,,41186,2021-05-09_19h43.16.072,judgeSpeechMusic_20210407_logNormShiftAmp,2020.1.2,Win32,60,,,,,,,,,,,,,,,,,,,,,,,,,,2,6.317855,,0,1,70,220,131,1,stimuli/stim_20210407_power2amp/equal_lnn_AM5.4Hz_72.m4a,,,
,,,,,41186,2021-05-09_19h43.16.072,judgeSpeechMusic_20210407_logNormShiftAmp,2020.1.2,Win32,60,,,,,,,,,,,,,,,,,,,,,,,,,,2,6.655255,,0,1,71,221,102,1,stimuli/stim_20210407_power2amp/equal_lnn_AM4.2Hz_76.m4a,,,
,,,,,41186,2021-05-09_19h43.16.072,judgeSpeechMusic_20210407_logNormShiftAmp,2020.1.2,Win32,60,,,,,,,,,,,,,,,,,,,,,,,,,,2,18.655015,,0,1,72,222,148,1,stimuli/stim_20210407_power2amp/equal_lnn_AM6Hz_17.m4a,,,
,,,,,41186,2021-05-09_19h43.16.072,judgeSpeechMusic_20210407_logNormShiftAmp,2020.1.2,Win32,60,,,,,,,,,,,,,,,,,,,,,,,,,,2,8.73257,,0,1,73,223,127,1,stimuli/stim_20210407_power2amp/equal_lnn_AM5.4Hz_96.m4a,,,
,,,,,41186,2021-05-09_19h43.16.072,judgeSpeechMusic_20210407_logNormShiftAmp,2020.1.2,Win32,60,,,,,,,,,,,,,,,,,,,,,,,,,,2,7.43551,,0,1,74,224,142,1,stimuli/stim_20210407_power2amp/equal_lnn_AM6Hz_51.m4a,,,
,,,,,41186,2021-05-09_19h43.16.072,judgeSpeechMusic_20210407_logNormShiftAmp,2020.1.2,Win32,60,,,,,,,,,,,,,,,,,,,,,,,,,,2,5.653585,,0,1,75,225,147,1,stimuli/stim_20210407_power2amp/equal_lnn_AM6Hz_56.m4a,,,
,,,,,41186,2021-05-09_19h43.16.072,judgeSpeechMusic_20210407_logNormShiftAmp,2020.1.2,Win32,60,,,,,,,,,,,,,,,,,,,,,,,,,,2,5.68455,,0,1,76,226,128,1,stimuli/stim_20210407_power2amp/equal_lnn_AM5.4Hz_86.m4a,,,
,,,,,41186,2021-05-09_19h43.16.072,judgeSpeechMusic_20210407_logNormShiftAmp,2020.1.2,Win32,60,,,,,,,,,,,,,,,,,,,,,,,,,,1,6.116315,,0,1,77,227,65,1,stimuli/stim_20210407_power2amp/equal_lnn_AM3Hz_79.m4a,,,
,,,,,41186,2021-05-09_19h43.16.072,judgeSpeechMusic_20210407_logNormShiftAmp,2020.1.2,Win32,60,,,,,,,,,,,,,,,,,,,,,,,,,,1,5.784855,,0,1,78,228,91,1,stimuli/stim_20210407_power2amp/equal_lnn_AM4.2Hz_61.m4a,,,
,,,,,41186,2021-05-09_19h43.16.072,judgeSpeechMusic_20210407_logNormShiftAmp,2020.1.2,Win32,60,,,,,,,,,,,,,,,,,,,,,,,,,,2,5.96693,,0,1,79,229,140,1,stimuli/stim_20210407_power2amp/equal_lnn_AM6Hz_41.m4a,,,
,,,,,41186,2021-05-09_19h43.16.072,judgeSpeechMusic_20210407_logNormShiftAmp,2020.1.2,Win32,60,,,,,,,,,,,,,,,,,,,,,,,,,,1,6.50162,,0,1,80,230,84,1,stimuli/stim_20210407_power2amp/equal_lnn_AM3.6Hz_66.m4a,,,
,,,,,41186,2021-05-09_19h43.16.072,judgeSpeechMusic_20210407_logNormShiftAmp,2020.1.2,Win32,60,,,,,,,,,,,,,,,,,,,,,,,,,,1,7.249975,,0,1,81,231,122,1,stimuli/stim_20210407_power2amp/equal_lnn_AM5.4Hz_67.m4a,,,
,,,,,41186,2021-05-09_19h43.16.072,judgeSpeechMusic_20210407_logNormShiftAmp,2020.1.2,Win32,60,,,,,,,,,,,,,,,,,,,,,,,,,,1,6.856815,,0,1,82,232,5,1,stimuli/stim_20210407_power2amp/equal_lnn_AM0.6Hz_89.m4a,,,
,,,,,41186,2021-05-09_19h43.16.072,judgeSpeechMusic_20210407_logNormShiftAmp,2020.1.2,Win32,60,,,,,,,,,,,,,,,,,,,,,,,,,,2,6.23415,,0,1,83,233,120,1,stimuli/stim_20210407_power2amp/equal_lnn_AM5.4Hz_33.m4a,,,
,,,,,41186,2021-05-09_19h43.16.072,judgeSpeechMusic_20210407_logNormShiftAmp,2020.1.2,Win32,60,,,,,,,,,,,,,,,,,,,,,,,,,,2,11.35664,,0,1,84,234,73,1,stimuli/stim_20210407_power2amp/equal_lnn_AM3Hz_57.m4a,,,
,,,,,41186,2021-05-09_19h43.16.072,judgeSpeechMusic_20210407_logNormShiftAmp,2020.1.2,Win32,60,,,,,,,,,,,,,,,,,,,,,,,,,,2,8.96585,,0,1,85,235,107,1,stimuli/stim_20210407_power2amp/equal_lnn_AM4.8Hz_1.m4a,,,
,,,,,41186,2021-05-09_19h43.16.072,judgeSpeechMusic_20210407_logNormShiftAmp,2020.1.2,Win32,60,,,,,,,,,,,,,,,,,,,,,,,,,,1,6.583105,,0,1,86,236,97,1,stimuli/stim_20210407_power2amp/equal_lnn_AM4.2Hz_93.m4a,,,
,,,,,41186,2021-05-09_19h43.16.072,judgeSpeechMusic_20210407_logNormShiftAmp,2020.1.2,Win32,60,,,,,,,,,,,,,,,,,,,,,,,,,,2,11.85325,4,1,1,87,237,85,1,stimuli/stim_20210407_power2amp/equal_lnn_AM3.6Hz_75.m4a,0.542935,,
,,,,,41186,2021-05-09_19h43.16.072,judgeSpeechMusic_20210407_logNormShiftAmp,2020.1.2,Win32,60,,,,,,,,,,,,,,,,,,,,,,,,,,1,8.405085,,0,1,88,238,7,1,stimuli/stim_20210407_power2amp/equal_lnn_AM0.6Hz_25.m4a,,,
,,,,,41186,2021-05-09_19h43.16.072,judgeSpeechMusic_20210407_logNormShiftAmp,2020.1.2,Win32,60,,,,,,,,,,,,,,,,,,,,,,,,,,2,26.59583,,0,1,89,239,137,1,stimuli/stim_20210407_power2amp/equal_lnn_AM6Hz_57.m4a,,,
,,,,,41186,2021-05-09_19h43.16.072,judgeSpeechMusic_20210407_logNormShiftAmp,2020.1.2,Win32,60,,,,,,,,,,,,,,,,,,,,,,,,,,1,7.54242,,0,1,90,240,3,1,stimuli/stim_20210407_power2amp/equal_lnn_AM0.6Hz_5.m4a,,,
,,,,,41186,2021-05-09_19h43.16.072,judgeSpeechMusic_20210407_logNormShiftAmp,2020.1.2,Win32,60,,,,,,,,,,,,,,,,,,,,,,,,,,2,13.61515,,0,1,91,241,103,1,stimuli/stim_20210407_power2amp/equal_lnn_AM4.2Hz_2.m4a,,,
,,,,,41186,2021-05-09_19h43.16.072,judgeSpeechMusic_20210407_logNormShiftAmp,2020.1.2,Win32,60,,,,,,,,,,,,,,,,,,,,,,,,,,2,24.50124,,0,1,92,242,83,1,stimuli/stim_20210407_power2amp/equal_lnn_AM3.6Hz_82.m4a,,,
,,,,,41186,2021-05-09_19h43.16.072,judgeSpeechMusic_20210407_logNormShiftAmp,2020.1.2,Win32,60,,,,,,,,,,,,,,,,,,,,,,,,,,1,6.00735,,0,1,93,243,24,1,stimuli/stim_20210407_power2amp/equal_lnn_AM1.2Hz_18.m4a,,,
,,,,,41186,2021-05-09_19h43.16.072,judgeSpeechMusic_20210407_logNormShiftAmp,2020.1.2,Win32,60,,,,,,,,,,,,,,,,,,,,,,,,,,2,10.815755,,0,1,94,244,108,1,stimuli/stim_20210407_power2amp/equal_lnn_AM4.8Hz_58.m4a,,,
,,,,,41186,2021-05-09_19h43.16.072,judgeSpeechMusic_20210407_logNormShiftAmp,2020.1.2,Win32,60,,,,,,,,,,,,,,,,,,,,,,,,,,2,6.607395,,0,1,95,245,36,1,stimuli/stim_20210407_power2amp/equal_lnn_AM1.8Hz_10.m4a,,,
,,,,,41186,2021-05-09_19h43.16.072,judgeSpeechMusic_20210407_logNormShiftAmp,2020.1.2,Win32,60,,,,,,,,,,,,,,,,,,,,,,,,,,2,48.458795,,0,1,96,246,70,1,stimuli/stim_20210407_power2amp/equal_lnn_AM3Hz_47.m4a,,,
,,,,,41186,2021-05-09_19h43.16.072,judgeSpeechMusic_20210407_logNormShiftAmp,2020.1.2,Win32,60,,,,,,,,,,,,,,,,,,,,,,,,,,2,10.31626,,0,1,97,247,64,1,stimuli/stim_20210407_power2amp/equal_lnn_AM3Hz_36.m4a,,,
,,,,,41186,2021-05-09_19h43.16.072,judgeSpeechMusic_20210407_logNormShiftAmp,2020.1.2,Win32,60,,,,,,,,,,,,,,,,,,,,,,,,,,2,6.799065,,0,1,98,248,80,1,stimuli/stim_20210407_power2amp/equal_lnn_AM3.6Hz_80.m4a,,,
,,,,,41186,2021-05-09_19h43.16.072,judgeSpeechMusic_20210407_logNormShiftAmp,2020.1.2,Win32,60,,,,,,,,,,,,,,,,,,,,,,,,,,2,8.022505,,0,1,99,249,138,1,stimuli/stim_20210407_power2amp/equal_lnn_AM6Hz_38.m4a,,,
,,,,,41186,2021-05-09_19h43.16.072,judgeSpeechMusic_20210407_logNormShiftAmp,2020.1.2,Win32,60,,,,,,,,,,,,,,,,,,,,,,,,,,1,9.15373,,0,1,100,250,43,1,stimuli/stim_20210407_power2amp/equal_lnn_AM1.8Hz_90.m4a,,,
,,,,,41186,2021-05-09_19h43.16.072,judgeSpeechMusic_20210407_logNormShiftAmp,2020.1.2,Win32,60,,,,,,,,,,,,,,,,,,,,,,,,,,2,6.166165,,0,1,101,251,94,1,stimuli/stim_20210407_power2amp/equal_lnn_AM4.2Hz_89.m4a,,,
,,,,,41186,2021-05-09_19h43.16.072,judgeSpeechMusic_20210407_logNormShiftAmp,2020.1.2,Win32,60,,,,,,,,,,,,,,,,,,,,,,,,,,1,7.269305,,0,1,102,252,6,1,stimuli/stim_20210407_power2amp/equal_lnn_AM0.6Hz_67.m4a,,,
,,,,,41186,2021-05-09_19h43.16.072,judgeSpeechMusic_20210407_logNormShiftAmp,2020.1.2,Win32,60,,,,,,,,,,,,,,,,,,,,,,,,,,2,6.572005,,0,1,103,253,112,1,stimuli/stim_20210407_power2amp/equal_lnn_AM4.8Hz_94.m4a,,,
,,,,,41186,2021-05-09_19h43.16.072,judgeSpeechMusic_20210407_logNormShiftAmp,2020.1.2,Win32,60,,,,,,,,,,,,,,,,,,,,,,,,,,1,6.62647,,0,1,104,254,35,1,stimuli/stim_20210407_power2amp/equal_lnn_AM1.8Hz_32.m4a,,,
,,,,,41186,2021-05-09_19h43.16.072,judgeSpeechMusic_20210407_logNormShiftAmp,2020.1.2,Win32,60,,,,,,,,,,,,,,,,,,,,,,,,,,2,6.88246,,0,1,105,255,105,1,stimuli/stim_20210407_power2amp/equal_lnn_AM4.8Hz_17.m4a,,,
,,,,,41186,2021-05-09_19h43.16.072,judgeSpeechMusic_20210407_logNormShiftAmp,2020.1.2,Win32,60,,,,,,,,,,,,,,,,,,,,,,,,,,1,7.17883,,0,1,106,256,31,1,stimuli/stim_20210407_power2amp/equal_lnn_AM1.8Hz_94.m4a,,,
,,,,,41186,2021-05-09_19h43.16.072,judgeSpeechMusic_20210407_logNormShiftAmp,2020.1.2,Win32,60,,,,,,,,,,,,,,,,,,,,,,,,,,1,6.071315,3,1,1,107,257,59,1,stimuli/stim_20210407_power2amp/equal_lnn_AM2.4Hz_79.m4a,1.540595,,
,,,,,41186,2021-05-09_19h43.16.072,judgeSpeechMusic_20210407_logNormShiftAmp,2020.1.2,Win32,60,,,,,,,,,,,,,,,,,,,,,,,,,,1,6.8504,,0,1,108,258,44,1,stimuli/stim_20210407_power2amp/equal_lnn_AM1.8Hz_73.m4a,,,
,,,,,41186,2021-05-09_19h43.16.072,judgeSpeechMusic_20210407_logNormShiftAmp,2020.1.2,Win32,60,,,,,,,,,,,,,,,,,,,,,,,,,,1,11.01618,,0,1,109,259,28,1,stimuli/stim_20210407_power2amp/equal_lnn_AM1.2Hz_33.m4a,,,
,,,,,41186,2021-05-09_19h43.16.072,judgeSpeechMusic_20210407_logNormShiftAmp,2020.1.2,Win32,60,,,,,,,,,,,,,,,,,,,,,,,,,,1,8.723085,,0,1,110,260,9,1,stimuli/stim_20210407_power2amp/equal_lnn_AM0.6Hz_14.m4a,,,
,,,,,41186,2021-05-09_19h43.16.072,judgeSpeechMusic_20210407_logNormShiftAmp,2020.1.2,Win32,60,,,,,,,,,,,,,,,,,,,,,,,,,,1,8.633625,,0,1,111,261,42,1,stimuli/stim_20210407_power2amp/equal_lnn_AM1.8Hz_33.m4a,,,
,,,,,41186,2021-05-09_19h43.16.072,judgeSpeechMusic_20210407_logNormShiftAmp,2020.1.2,Win32,60,,,,,,,,,,,,,,,,,,,,,,,,,,2,7.31773,,0,1,112,262,101,1,stimuli/stim_20210407_power2amp/equal_lnn_AM4.2Hz_20.m4a,,,
,,,,,41186,2021-05-09_19h43.16.072,judgeSpeechMusic_20210407_logNormShiftAmp,2020.1.2,Win32,60,,,,,,,,,,,,,,,,,,,,,,,,,,2,10.735745,,0,1,113,263,27,1,stimuli/stim_20210407_power2amp/equal_lnn_AM1.2Hz_66.m4a,,,
,,,,,41186,2021-05-09_19h43.16.072,judgeSpeechMusic_20210407_logNormShiftAmp,2020.1.2,Win32,60,,,,,,,,,,,,,,,,,,,,,,,,,,2,8.936705,,0,1,114,264,115,1,stimuli/stim_20210407_power2amp/equal_lnn_AM4.8Hz_63.m4a,,,
,,,,,41186,2021-05-09_19h43.16.072,judgeSpeechMusic_20210407_logNormShiftAmp,2020.1.2,Win32,60,,,,,,,,,,,,,,,,,,,,,,,,,,1,7.34936,,0,1,115,265,57,1,stimuli/stim_20210407_power2amp/equal_lnn_AM2.4Hz_59.m4a,,,
,,,,,41186,2021-05-09_19h43.16.072,judgeSpeechMusic_20210407_logNormShiftAmp,2020.1.2,Win32,60,,,,,,,,,,,,,,,,,,,,,,,,,,2,7.153465,,0,1,116,266,129,1,stimuli/stim_20210407_power2amp/equal_lnn_AM5.4Hz_93.m4a,,,
,,,,,41186,2021-05-09_19h43.16.072,judgeSpeechMusic_20210407_logNormShiftAmp,2020.1.2,Win32,60,,,,,,,,,,,,,,,,,,,,,,,,,,2,7.302365,,0,1,117,267,118,1,stimuli/stim_20210407_power2amp/equal_lnn_AM4.8Hz_29.m4a,,,
,,,,,41186,2021-05-09_19h43.16.072,judgeSpeechMusic_20210407_logNormShiftAmp,2020.1.2,Win32,60,,,,,,,,,,,,,,,,,,,,,,,,,,1,8.372855,,0,1,118,268,16,1,stimuli/stim_20210407_power2amp/equal_lnn_AM1.2Hz_59.m4a,,,
,,,,,41186,2021-05-09_19h43.16.072,judgeSpeechMusic_20210407_logNormShiftAmp,2020.1.2,Win32,60,,,,,,,,,,,,,,,,,,,,,,,,,,1,34.02792,,0,1,119,269,145,1,stimuli/stim_20210407_power2amp/equal_lnn_AM6Hz_28.m4a,,,
,,,,,41186,2021-05-09_19h43.16.072,judgeSpeechMusic_20210407_logNormShiftAmp,2020.1.2,Win32,60,,,,,,,,,,,,,,,,,,,,,,,,,,2,13.303345,,0,1,120,270,66,1,stimuli/stim_20210407_power2amp/equal_lnn_AM3Hz_92.m4a,,,
,,,,,41186,2021-05-09_19h43.16.072,judgeSpeechMusic_20210407_logNormShiftAmp,2020.1.2,Win32,60,,,,,,,,,,,,,,,,,,,,,,,,,,2,7.94181,,0,1,121,271,47,1,stimuli/stim_20210407_power2amp/equal_lnn_AM2.4Hz_63.m4a,,,
,,,,,41186,2021-05-09_19h43.16.072,judgeSpeechMusic_20210407_logNormShiftAmp,2020.1.2,Win32,60,,,,,,,,,,,,,,,,,,,,,,,,,,2,8.415335,,0,1,122,272,92,1,stimuli/stim_20210407_power2amp/equal_lnn_AM4.2Hz_74.m4a,,,
,,,,,41186,2021-05-09_19h43.16.072,judgeSpeechMusic_20210407_logNormShiftAmp,2020.1.2,Win32,60,,,,,,,,,,,,,,,,,,,,,,,,,,1,6.0506,,0,1,123,273,51,1,stimuli/stim_20210407_power2amp/equal_lnn_AM2.4Hz_1.m4a,,,
,,,,,41186,2021-05-09_19h43.16.072,judgeSpeechMusic_20210407_logNormShiftAmp,2020.1.2,Win32,60,,,,,,,,,,,,,,,,,,,,,,,,,,1,8.26767,,0,1,124,274,22,1,stimuli/stim_20210407_power2amp/equal_lnn_AM1.2Hz_17.m4a,,,
,,,,,41186,2021-05-09_19h43.16.072,judgeSpeechMusic_20210407_logNormShiftAmp,2020.1.2,Win32,60,,,,,,,,,,,,,,,,,,,,,,,,,,2,6.05051,,0,1,125,275,139,1,stimuli/stim_20210407_power2amp/equal_lnn_AM6Hz_89.m4a,,,
,,,,,41186,2021-05-09_19h43.16.072,judgeSpeechMusic_20210407_logNormShiftAmp,2020.1.2,Win32,60,,,,,,,,,,,,,,,,,,,,,,,,,,2,22.689045,,0,1,126,276,34,1,stimuli/stim_20210407_power2amp/equal_lnn_AM1.8Hz_80.m4a,,,
,,,,,41186,2021-05-09_19h43.16.072,judgeSpeechMusic_20210407_logNormShiftAmp,2020.1.2,Win32,60,,,,,,,,,,,,,,,,,,,,,,,,,,1,8.28926,,0,1,127,277,32,1,stimuli/stim_20210407_power2amp/equal_lnn_AM1.8Hz_87.m4a,,,
,,,,,41186,2021-05-09_19h43.16.072,judgeSpeechMusic_20210407_logNormShiftAmp,2020.1.2,Win32,60,,,,,,,,,,,,,,,,,,,,,,,,,,2,8.056135,1,1,1,128,278,75,1,stimuli/stim_20210407_power2amp/equal_lnn_AM3.6Hz_28.m4a,1.00821,,
,,,,,41186,2021-05-09_19h43.16.072,judgeSpeechMusic_20210407_logNormShiftAmp,2020.1.2,Win32,60,,,,,,,,,,,,,,,,,,,,,,,,,,1,8.200235,,0,1,129,279,56,1,stimuli/stim_20210407_power2amp/equal_lnn_AM2.4Hz_95.m4a,,,
,,,,,41186,2021-05-09_19h43.16.072,judgeSpeechMusic_20210407_logNormShiftAmp,2020.1.2,Win32,60,,,,,,,,,,,,,,,,,,,,,,,,,,2,8.170655,,0,1,130,280,90,1,stimuli/stim_20210407_power2amp/equal_lnn_AM4.2Hz_31.m4a,,,
,,,,,41186,2021-05-09_19h43.16.072,judgeSpeechMusic_20210407_logNormShiftAmp,2020.1.2,Win32,60,,,,,,,,,,,,,,,,,,,,,,,,,,2,5.86759,,0,1,131,281,111,1,stimuli/stim_20210407_power2amp/equal_lnn_AM4.8Hz_33.m4a,,,
,,,,,41186,2021-05-09_19h43.16.072,judgeSpeechMusic_20210407_logNormShiftAmp,2020.1.2,Win32,60,,,,,,,,,,,,,,,,,,,,,,,,,,2,7.09868,,0,1,132,282,49,1,stimuli/stim_20210407_power2amp/equal_lnn_AM2.4Hz_43.m4a,,,
,,,,,41186,2021-05-09_19h43.16.072,judgeSpeechMusic_20210407_logNormShiftAmp,2020.1.2,Win32,60,,,,,,,,,,,,,,,,,,,,,,,,,,2,6.70263,,0,1,133,283,130,1,stimuli/stim_20210407_power2amp/equal_lnn_AM5.4Hz_57.m4a,,,
,,,,,41186,2021-05-09_19h43.16.072,judgeSpeechMusic_20210407_logNormShiftAmp,2020.1.2,Win32,60,,,,,,,,,,,,,,,,,,,,,,,,,,2,19.388805,,0,1,134,284,82,1,stimuli/stim_20210407_power2amp/equal_lnn_AM3.6Hz_41.m4a,,,
,,,,,41186,2021-05-09_19h43.16.072,judgeSpeechMusic_20210407_logNormShiftAmp,2020.1.2,Win32,60,,,,,,,,,,,,,,,,,,,,,,,,,,1,6.46447,,0,1,135,285,14,1,stimuli/stim_20210407_power2amp/equal_lnn_AM0.6Hz_23.m4a,,,
,,,,,41186,2021-05-09_19h43.16.072,judgeSpeechMusic_20210407_logNormShiftAmp,2020.1.2,Win32,60,,,,,,,,,,,,,,,,,,,,,,,,,,1,6.035235,,0,1,136,286,26,1,stimuli/stim_20210407_power2amp/equal_lnn_AM1.2Hz_27.m4a,,,
,,,,,41186,2021-05-09_19h43.16.072,judgeSpeechMusic_20210407_logNormShiftAmp,2020.1.2,Win32,60,,,,,,,,,,,,,,,,,,,,,,,,,,1,12.267375,,0,1,137,287,87,1,stimuli/stim_20210407_power2amp/equal_lnn_AM3.6Hz_62.m4a,,,
,,,,,41186,2021-05-09_19h43.16.072,judgeSpeechMusic_20210407_logNormShiftAmp,2020.1.2,Win32,60,,,,,,,,,,,,,,,,,,,,,,,,,,2,6.937615,,0,1,138,288,143,1,stimuli/stim_20210407_power2amp/equal_lnn_AM6Hz_5.m4a,,,
,,,,,41186,2021-05-09_19h43.16.072,judgeSpeechMusic_20210407_logNormShiftAmp,2020.1.2,Win32,60,,,,,,,,,,,,,,,,,,,,,,,,,,2,7.001235,,0,1,139,289,144,1,stimuli/stim_20210407_power2amp/equal_lnn_AM6Hz_76.m4a,,,
,,,,,41186,2021-05-09_19h43.16.072,judgeSpeechMusic_20210407_logNormShiftAmp,2020.1.2,Win32,60,,,,,,,,,,,,,,,,,,,,,,,,,,2,7.086955,,0,1,140,290,117,1,stimuli/stim_20210407_power2amp/equal_lnn_AM4.8Hz_80.m4a,,,
,,,,,41186,2021-05-09_19h43.16.072,judgeSpeechMusic_20210407_logNormShiftAmp,2020.1.2,Win32,60,,,,,,,,,,,,,,,,,,,,,,,,,,1,6.408395,,0,1,141,291,18,1,stimuli/stim_20210407_power2amp/equal_lnn_AM1.2Hz_1.m4a,,,
,,,,,41186,2021-05-09_19h43.16.072,judgeSpeechMusic_20210407_logNormShiftAmp,2020.1.2,Win32,60,,,,,,,,,,,,,,,,,,,,,,,,,,1,6.698015,,0,1,142,292,20,1,stimuli/stim_20210407_power2amp/equal_lnn_AM1.2Hz_72.m4a,,,
,,,,,41186,2021-05-09_19h43.16.072,judgeSpeechMusic_20210407_logNormShiftAmp,2020.1.2,Win32,60,,,,,,,,,,,,,,,,,,,,,,,,,,1,11.38552,,0,1,143,293,2,1,stimuli/stim_20210407_power2amp/equal_lnn_AM0.6Hz_22.m4a,,,
,,,,,41186,2021-05-09_19h43.16.072,judgeSpeechMusic_20210407_logNormShiftAmp,2020.1.2,Win32,60,,,,,,,,,,,,,,,,,,,,,,,,,,2,6.404815,,0,1,144,294,100,1,stimuli/stim_20210407_power2amp/equal_lnn_AM4.2Hz_54.m4a,,,
,,,,,41186,2021-05-09_19h43.16.072,judgeSpeechMusic_20210407_logNormShiftAmp,2020.1.2,Win32,60,,,,,,,,,,,,,,,,,,,,,,,,,,1,8.72101,,0,1,145,295,11,1,stimuli/stim_20210407_power2amp/equal_lnn_AM0.6Hz_1.m4a,,,
,,,,,41186,2021-05-09_19h43.16.072,judgeSpeechMusic_20210407_logNormShiftAmp,2020.1.2,Win32,60,,,,,,,,,,,,,,,,,,,,,,,,,,1,11.464845,,0,1,146,296,23,1,stimuli/stim_20210407_power2amp/equal_lnn_AM1.2Hz_38.m4a,,,
,,,,,41186,2021-05-09_19h43.16.072,judgeSpeechMusic_20210407_logNormShiftAmp,2020.1.2,Win32,60,,,,,,,,,,,,,,,,,,,,,,,,,,2,7.05393,,0,1,147,297,135,1,stimuli/stim_20210407_power2amp/equal_lnn_AM6Hz_74.m4a,,,
,,,,,41186,2021-05-09_19h43.16.072,judgeSpeechMusic_20210407_logNormShiftAmp,2020.1.2,Win32,60,,,,,,,,,,,,,,,,,,,,,,,,,,2,7.065975,,0,1,148,298,38,1,stimuli/stim_20210407_power2amp/equal_lnn_AM1.8Hz_88.m4a,,,
,,,,,41186,2021-05-09_19h43.16.072,judgeSpeechMusic_20210407_logNormShiftAmp,2020.1.2,Win32,60,,,,,,,,,,,,,,,,,,,,,,,,,,2,14.616335,,0,1,149,299,54,1,stimuli/stim_20210407_power2amp/equal_lnn_AM2.4Hz_86.m4a,,,
,,,,,41186,2021-05-09_19h43.16.072,judgeSpeechMusic_20210407_logNormShiftAmp,2020.1.2,Win32,60,,,,,,,,,,,,,,,,,,,,,,,,,,,,,,,,,,,,,space,5.47362
