headphoneResponse.keys,headphoneResponse.corr,headphoneResponse.rt,headphoneTrial.thisRepN,headphoneTrial.thisTrialN,headphoneTrial.thisN,headphoneTrial.thisIndex,headphoneTrial.ran,headphone_sound1,headphone_sound2,headphone_sound3,corrAns,participant,date,expName,psychopyVersion,OS,frameRate,trainSlider.response,trainSlider.rt,beepTrainResponse.keys,beepTrainResponse.corr,trainingTrials.thisRepN,trainingTrials.thisTrialN,trainingTrials.thisN,trainingTrials.thisIndex,trainingTrials.ran,trainAudioFile,beepTrainResponse.rt,readyReal_resp.keys,readyReal_resp.rt,ratingSlider.response,ratingSlider.rt,beepResp.keys,beepResp.corr,expTrials.thisRepN,expTrials.thisTrialN,expTrials.thisN,expTrials.thisIndex,expTrials.ran,audioFile,beepResp.rt,end_resp.keys,end_resp.rt
2,1,0.85141,0,0,0,3,1,stimuli/screen_origin.wav,stimuli/screen_quiet.wav,stimuli/screen_antiphase.wav,2,41183,2021-05-03_20h22.02.947,judgeSpeechMusic_20210407_logNormShiftAmp,2020.1.2,MacIntel,60,,,,,,,,,,,,,,,,,,,,,,,,,,
3,1,0.36485,0,1,1,0,1,stimuli/screen_antiphase.wav,stimuli/screen_origin.wav,stimuli/screen_quiet.wav,3,41183,2021-05-03_20h22.02.947,judgeSpeechMusic_20210407_logNormShiftAmp,2020.1.2,MacIntel,60,,,,,,,,,,,,,,,,,,,,,,,,,,
3,1,0.234645,0,2,2,2,1,stimuli/screen_origin.wav,stimuli/screen_antiphase.wav,stimuli/screen_quiet.wav,3,41183,2021-05-03_20h22.02.947,judgeSpeechMusic_20210407_logNormShiftAmp,2020.1.2,MacIntel,60,,,,,,,,,,,,,,,,,,,,,,,,,,
1,1,0.46507,0,3,3,5,1,stimuli/screen_quiet.wav,stimuli/screen_origin.wav,stimuli/screen_antiphase.wav,1,41183,2021-05-03_20h22.02.947,judgeSpeechMusic_20210407_logNormShiftAmp,2020.1.2,MacIntel,60,,,,,,,,,,,,,,,,,,,,,,,,,,
2,1,0.98469,0,4,4,1,1,stimuli/screen_antiphase.wav,stimuli/screen_quiet.wav,stimuli/screen_origin.wav,2,41183,2021-05-03_20h22.02.947,judgeSpeechMusic_20210407_logNormShiftAmp,2020.1.2,MacIntel,60,,,,,,,,,,,,,,,,,,,,,,,,,,
1,1,0.348205,0,5,5,4,1,stimuli/screen_quiet.wav,stimuli/screen_antiphase.wav,stimuli/screen_origin.wav,1,41183,2021-05-03_20h22.02.947,judgeSpeechMusic_20210407_logNormShiftAmp,2020.1.2,MacIntel,60,,,,,,,,,,,,,,,,,,,,,,,,,,
,,,,,,,,,,,,41183,2021-05-03_20h22.02.947,judgeSpeechMusic_20210407_logNormShiftAmp,2020.1.2,MacIntel,60,1,14.639855,,0,0,0,0,3,1,stimuli/stim_20210407_power2amp/equal_lnn_AM_training5.1Hz.m4a,,,,,,,,,,,,,,,,
,,,,,,,,,,,,41183,2021-05-03_20h22.02.947,judgeSpeechMusic_20210407_logNormShiftAmp,2020.1.2,MacIntel,60,2,6.22443,,0,0,1,1,2,1,stimuli/stim_20210407_power2amp/equal_lnn_AM_training3.9Hz.m4a,,,,,,,,,,,,,,,,
,,,,,,,,,,,,41183,2021-05-03_20h22.02.947,judgeSpeechMusic_20210407_logNormShiftAmp,2020.1.2,MacIntel,60,1,5.84567,1,0,0,2,2,0,1,stimuli/stim_20210407_power2amp/equal_lnn_AM_training1.5Hz.m4a,1.95682,,,,,,,,,,,,,,,
,,,,,,,,,,,,41183,2021-05-03_20h22.02.947,judgeSpeechMusic_20210407_logNormShiftAmp,2020.1.2,MacIntel,60,1,6.64453,,0,0,3,3,1,1,stimuli/stim_20210407_power2amp/equal_lnn_AM_training2.7Hz.m4a,,,,,,,,,,,,,,,,
,,,,,,,,,,,,41183,2021-05-03_20h22.02.947,judgeSpeechMusic_20210407_logNormShiftAmp,2020.1.2,MacIntel,60,,,,,,,,,,,,space,0.9302,1,6.56436,,0,0,0,0,93,1,stimuli/stim_20210407_power2amp/equal_lnn_AM4.2Hz_84.m4a,,,
,,,,,,,,,,,,41183,2021-05-03_20h22.02.947,judgeSpeechMusic_20210407_logNormShiftAmp,2020.1.2,MacIntel,60,,,,,,,,,,,,,,2,5.78861,,0,0,1,1,123,1,stimuli/stim_20210407_power2amp/equal_lnn_AM5.4Hz_100.m4a,,,
,,,,,,,,,,,,41183,2021-05-03_20h22.02.947,judgeSpeechMusic_20210407_logNormShiftAmp,2020.1.2,MacIntel,60,,,,,,,,,,,,,,1,5.79847,,0,0,2,2,0,1,stimuli/stim_20210407_power2amp/equal_lnn_AM0.6Hz_75.m4a,,,
,,,,,,,,,,,,41183,2021-05-03_20h22.02.947,judgeSpeechMusic_20210407_logNormShiftAmp,2020.1.2,MacIntel,60,,,,,,,,,,,,,,1,5.69279,,0,0,3,3,30,1,stimuli/stim_20210407_power2amp/equal_lnn_AM1.8Hz_26.m4a,,,
,,,,,,,,,,,,41183,2021-05-03_20h22.02.947,judgeSpeechMusic_20210407_logNormShiftAmp,2020.1.2,MacIntel,60,,,,,,,,,,,,,,1,5.60719,,0,0,4,4,71,1,stimuli/stim_20210407_power2amp/equal_lnn_AM3Hz_57.m4a,,,
,,,,,,,,,,,,41183,2021-05-03_20h22.02.947,judgeSpeechMusic_20210407_logNormShiftAmp,2020.1.2,MacIntel,60,,,,,,,,,,,,,,1,5.60761,,0,0,5,5,80,1,stimuli/stim_20210407_power2amp/equal_lnn_AM3.6Hz_17.m4a,,,
,,,,,,,,,,,,41183,2021-05-03_20h22.02.947,judgeSpeechMusic_20210407_logNormShiftAmp,2020.1.2,MacIntel,60,,,,,,,,,,,,,,1,5.911845,,0,0,6,6,42,1,stimuli/stim_20210407_power2amp/equal_lnn_AM1.8Hz_73.m4a,,,
,,,,,,,,,,,,41183,2021-05-03_20h22.02.947,judgeSpeechMusic_20210407_logNormShiftAmp,2020.1.2,MacIntel,60,,,,,,,,,,,,,,2,5.660205,,0,0,7,7,63,1,stimuli/stim_20210407_power2amp/equal_lnn_AM3Hz_24.m4a,,,
,,,,,,,,,,,,41183,2021-05-03_20h22.02.947,judgeSpeechMusic_20210407_logNormShiftAmp,2020.1.2,MacIntel,60,,,,,,,,,,,,,,2,6.543635,,0,0,8,8,47,1,stimuli/stim_20210407_power2amp/equal_lnn_AM2.4Hz_29.m4a,,,
,,,,,,,,,,,,41183,2021-05-03_20h22.02.947,judgeSpeechMusic_20210407_logNormShiftAmp,2020.1.2,MacIntel,60,,,,,,,,,,,,,,1,5.79615,,0,0,9,9,84,1,stimuli/stim_20210407_power2amp/equal_lnn_AM3.6Hz_55.m4a,,,
,,,,,,,,,,,,41183,2021-05-03_20h22.02.947,judgeSpeechMusic_20210407_logNormShiftAmp,2020.1.2,MacIntel,60,,,,,,,,,,,,,,1,5.7949,,0,0,10,10,21,1,stimuli/stim_20210407_power2amp/equal_lnn_AM1.2Hz_91.m4a,,,
,,,,,,,,,,,,41183,2021-05-03_20h22.02.947,judgeSpeechMusic_20210407_logNormShiftAmp,2020.1.2,MacIntel,60,,,,,,,,,,,,,,1,5.74553,,0,0,11,11,38,1,stimuli/stim_20210407_power2amp/equal_lnn_AM1.8Hz_68.m4a,,,
,,,,,,,,,,,,41183,2021-05-03_20h22.02.947,judgeSpeechMusic_20210407_logNormShiftAmp,2020.1.2,MacIntel,60,,,,,,,,,,,,,,1,5.67975,,0,0,12,12,100,1,stimuli/stim_20210407_power2amp/equal_lnn_AM4.2Hz_28.m4a,,,
,,,,,,,,,,,,41183,2021-05-03_20h22.02.947,judgeSpeechMusic_20210407_logNormShiftAmp,2020.1.2,MacIntel,60,,,,,,,,,,,,,,1,6.122485,,0,0,13,13,75,1,stimuli/stim_20210407_power2amp/equal_lnn_AM3.6Hz_92.m4a,,,
,,,,,,,,,,,,41183,2021-05-03_20h22.02.947,judgeSpeechMusic_20210407_logNormShiftAmp,2020.1.2,MacIntel,60,,,,,,,,,,,,,,2,8.10945,,0,0,14,14,87,1,stimuli/stim_20210407_power2amp/equal_lnn_AM3.6Hz_9.m4a,,,
,,,,,,,,,,,,41183,2021-05-03_20h22.02.947,judgeSpeechMusic_20210407_logNormShiftAmp,2020.1.2,MacIntel,60,,,,,,,,,,,,,,1,6.578645,,0,0,15,15,16,1,stimuli/stim_20210407_power2amp/equal_lnn_AM1.2Hz_43.m4a,,,
,,,,,,,,,,,,41183,2021-05-03_20h22.02.947,judgeSpeechMusic_20210407_logNormShiftAmp,2020.1.2,MacIntel,60,,,,,,,,,,,,,,1,6.55984,,0,0,16,16,43,1,stimuli/stim_20210407_power2amp/equal_lnn_AM1.8Hz_82.m4a,,,
,,,,,,,,,,,,41183,2021-05-03_20h22.02.947,judgeSpeechMusic_20210407_logNormShiftAmp,2020.1.2,MacIntel,60,,,,,,,,,,,,,,1,11.193665,,0,0,17,17,145,1,stimuli/stim_20210407_power2amp/equal_lnn_AM6Hz_6.m4a,,,
,,,,,,,,,,,,41183,2021-05-03_20h22.02.947,judgeSpeechMusic_20210407_logNormShiftAmp,2020.1.2,MacIntel,60,,,,,,,,,,,,,,2,6.52616,,0,0,18,18,83,1,stimuli/stim_20210407_power2amp/equal_lnn_AM3.6Hz_45.m4a,,,
,,,,,,,,,,,,41183,2021-05-03_20h22.02.947,judgeSpeechMusic_20210407_logNormShiftAmp,2020.1.2,MacIntel,60,,,,,,,,,,,,,,1,11.04408,,0,0,19,19,67,1,stimuli/stim_20210407_power2amp/equal_lnn_AM3Hz_7.m4a,,,
,,,,,,,,,,,,41183,2021-05-03_20h22.02.947,judgeSpeechMusic_20210407_logNormShiftAmp,2020.1.2,MacIntel,60,,,,,,,,,,,,,,1,7.145525,,0,0,20,20,68,1,stimuli/stim_20210407_power2amp/equal_lnn_AM3Hz_14.m4a,,,
,,,,,,,,,,,,41183,2021-05-03_20h22.02.947,judgeSpeechMusic_20210407_logNormShiftAmp,2020.1.2,MacIntel,60,,,,,,,,,,,,,,1,7.88257,,0,0,21,21,134,1,stimuli/stim_20210407_power2amp/equal_lnn_AM5.4Hz_77.m4a,,,
,,,,,,,,,,,,41183,2021-05-03_20h22.02.947,judgeSpeechMusic_20210407_logNormShiftAmp,2020.1.2,MacIntel,60,,,,,,,,,,,,,,1,25.5555,,0,0,22,22,65,1,stimuli/stim_20210407_power2amp/equal_lnn_AM3Hz_96.m4a,,,
,,,,,,,,,,,,41183,2021-05-03_20h22.02.947,judgeSpeechMusic_20210407_logNormShiftAmp,2020.1.2,MacIntel,60,,,,,,,,,,,,,,1,5.94272,,0,0,23,23,44,1,stimuli/stim_20210407_power2amp/equal_lnn_AM1.8Hz_38.m4a,,,
,,,,,,,,,,,,41183,2021-05-03_20h22.02.947,judgeSpeechMusic_20210407_logNormShiftAmp,2020.1.2,MacIntel,60,,,,,,,,,,,,,,1,7.07842,,0,0,24,24,124,1,stimuli/stim_20210407_power2amp/equal_lnn_AM5.4Hz_91.m4a,,,
,,,,,,,,,,,,41183,2021-05-03_20h22.02.947,judgeSpeechMusic_20210407_logNormShiftAmp,2020.1.2,MacIntel,60,,,,,,,,,,,,,,2,6.209835,,0,0,25,25,25,1,stimuli/stim_20210407_power2amp/equal_lnn_AM1.2Hz_11.m4a,,,
,,,,,,,,,,,,41183,2021-05-03_20h22.02.947,judgeSpeechMusic_20210407_logNormShiftAmp,2020.1.2,MacIntel,60,,,,,,,,,,,,,,1,5.774805,,0,0,26,26,86,1,stimuli/stim_20210407_power2amp/equal_lnn_AM3.6Hz_58.m4a,,,
,,,,,,,,,,,,41183,2021-05-03_20h22.02.947,judgeSpeechMusic_20210407_logNormShiftAmp,2020.1.2,MacIntel,60,,,,,,,,,,,,,,1,5.926285,,0,0,27,27,121,1,stimuli/stim_20210407_power2amp/equal_lnn_AM5.4Hz_31.m4a,,,
,,,,,,,,,,,,41183,2021-05-03_20h22.02.947,judgeSpeechMusic_20210407_logNormShiftAmp,2020.1.2,MacIntel,60,,,,,,,,,,,,,,1,5.57901,,0,0,28,28,127,1,stimuli/stim_20210407_power2amp/equal_lnn_AM5.4Hz_29.m4a,,,
,,,,,,,,,,,,41183,2021-05-03_20h22.02.947,judgeSpeechMusic_20210407_logNormShiftAmp,2020.1.2,MacIntel,60,,,,,,,,,,,,,,1,5.860005,,0,0,29,29,35,1,stimuli/stim_20210407_power2amp/equal_lnn_AM1.8Hz_50.m4a,,,
,,,,,,,,,,,,41183,2021-05-03_20h22.02.947,judgeSpeechMusic_20210407_logNormShiftAmp,2020.1.2,MacIntel,60,,,,,,,,,,,,,,1,5.34408,,0,0,30,30,132,1,stimuli/stim_20210407_power2amp/equal_lnn_AM5.4Hz_23.m4a,,,
,,,,,,,,,,,,41183,2021-05-03_20h22.02.947,judgeSpeechMusic_20210407_logNormShiftAmp,2020.1.2,MacIntel,60,,,,,,,,,,,,,,2,5.55942,,0,0,31,31,149,1,stimuli/stim_20210407_power2amp/equal_lnn_AM6Hz_19.m4a,,,
,,,,,,,,,,,,41183,2021-05-03_20h22.02.947,judgeSpeechMusic_20210407_logNormShiftAmp,2020.1.2,MacIntel,60,,,,,,,,,,,,,,1,5.96461,,0,0,32,32,14,1,stimuli/stim_20210407_power2amp/equal_lnn_AM0.6Hz_55.m4a,,,
,,,,,,,,,,,,41183,2021-05-03_20h22.02.947,judgeSpeechMusic_20210407_logNormShiftAmp,2020.1.2,MacIntel,60,,,,,,,,,,,,,,1,14.265765,,0,0,33,33,20,1,stimuli/stim_20210407_power2amp/equal_lnn_AM1.2Hz_86.m4a,,,
,,,,,,,,,,,,41183,2021-05-03_20h22.02.947,judgeSpeechMusic_20210407_logNormShiftAmp,2020.1.2,MacIntel,60,,,,,,,,,,,,,,2,6.24867,,0,0,34,34,139,1,stimuli/stim_20210407_power2amp/equal_lnn_AM6Hz_62.m4a,,,
,,,,,,,,,,,,41183,2021-05-03_20h22.02.947,judgeSpeechMusic_20210407_logNormShiftAmp,2020.1.2,MacIntel,60,,,,,,,,,,,,,,1,6.10729,,0,0,35,35,52,1,stimuli/stim_20210407_power2amp/equal_lnn_AM2.4Hz_45.m4a,,,
,,,,,,,,,,,,41183,2021-05-03_20h22.02.947,judgeSpeechMusic_20210407_logNormShiftAmp,2020.1.2,MacIntel,60,,,,,,,,,,,,,,2,5.6613,,0,0,36,36,94,1,stimuli/stim_20210407_power2amp/equal_lnn_AM4.2Hz_22.m4a,,,
,,,,,,,,,,,,41183,2021-05-03_20h22.02.947,judgeSpeechMusic_20210407_logNormShiftAmp,2020.1.2,MacIntel,60,,,,,,,,,,,,,,1,6.178285,,0,0,37,37,3,1,stimuli/stim_20210407_power2amp/equal_lnn_AM0.6Hz_70.m4a,,,
,,,,,,,,,,,,41183,2021-05-03_20h22.02.947,judgeSpeechMusic_20210407_logNormShiftAmp,2020.1.2,MacIntel,60,,,,,,,,,,,,,,2,6.297365,1,1,0,38,38,107,1,stimuli/stim_20210407_power2amp/equal_lnn_AM4.8Hz_100.m4a,1.359745,,
,,,,,,,,,,,,41183,2021-05-03_20h22.02.947,judgeSpeechMusic_20210407_logNormShiftAmp,2020.1.2,MacIntel,60,,,,,,,,,,,,,,1,5.964645,,0,0,39,39,33,1,stimuli/stim_20210407_power2amp/equal_lnn_AM1.8Hz_65.m4a,,,
,,,,,,,,,,,,41183,2021-05-03_20h22.02.947,judgeSpeechMusic_20210407_logNormShiftAmp,2020.1.2,MacIntel,60,,,,,,,,,,,,,,2,13.375295,,0,0,40,40,54,1,stimuli/stim_20210407_power2amp/equal_lnn_AM2.4Hz_58.m4a,,,
,,,,,,,,,,,,41183,2021-05-03_20h22.02.947,judgeSpeechMusic_20210407_logNormShiftAmp,2020.1.2,MacIntel,60,,,,,,,,,,,,,,1,5.820645,,0,0,41,41,76,1,stimuli/stim_20210407_power2amp/equal_lnn_AM3.6Hz_52.m4a,,,
,,,,,,,,,,,,41183,2021-05-03_20h22.02.947,judgeSpeechMusic_20210407_logNormShiftAmp,2020.1.2,MacIntel,60,,,,,,,,,,,,,,1,5.73216,,0,0,42,42,59,1,stimuli/stim_20210407_power2amp/equal_lnn_AM2.4Hz_46.m4a,,,
,,,,,,,,,,,,41183,2021-05-03_20h22.02.947,judgeSpeechMusic_20210407_logNormShiftAmp,2020.1.2,MacIntel,60,,,,,,,,,,,,,,2,7.78599,,0,0,43,43,7,1,stimuli/stim_20210407_power2amp/equal_lnn_AM0.6Hz_50.m4a,,,
,,,,,,,,,,,,41183,2021-05-03_20h22.02.947,judgeSpeechMusic_20210407_logNormShiftAmp,2020.1.2,MacIntel,60,,,,,,,,,,,,,,1,5.78381,,0,0,44,44,11,1,stimuli/stim_20210407_power2amp/equal_lnn_AM0.6Hz_27.m4a,,,
,,,,,,,,,,,,41183,2021-05-03_20h22.02.947,judgeSpeechMusic_20210407_logNormShiftAmp,2020.1.2,MacIntel,60,,,,,,,,,,,,,,2,6.21196,,0,0,45,45,29,1,stimuli/stim_20210407_power2amp/equal_lnn_AM1.2Hz_45.m4a,,,
,,,,,,,,,,,,41183,2021-05-03_20h22.02.947,judgeSpeechMusic_20210407_logNormShiftAmp,2020.1.2,MacIntel,60,,,,,,,,,,,,,,1,11.662185,,0,0,46,46,8,1,stimuli/stim_20210407_power2amp/equal_lnn_AM0.6Hz_39.m4a,,,
,,,,,,,,,,,,41183,2021-05-03_20h22.02.947,judgeSpeechMusic_20210407_logNormShiftAmp,2020.1.2,MacIntel,60,,,,,,,,,,,,,,2,6.3617,,0,0,47,47,136,1,stimuli/stim_20210407_power2amp/equal_lnn_AM6Hz_48.m4a,,,
,,,,,,,,,,,,41183,2021-05-03_20h22.02.947,judgeSpeechMusic_20210407_logNormShiftAmp,2020.1.2,MacIntel,60,,,,,,,,,,,,,,1,6.012915,,0,0,48,48,31,1,stimuli/stim_20210407_power2amp/equal_lnn_AM1.8Hz_58.m4a,,,
,,,,,,,,,,,,41183,2021-05-03_20h22.02.947,judgeSpeechMusic_20210407_logNormShiftAmp,2020.1.2,MacIntel,60,,,,,,,,,,,,,,2,6.146165,,0,0,49,49,101,1,stimuli/stim_20210407_power2amp/equal_lnn_AM4.2Hz_92.m4a,,,
,,,,,,,,,,,,41183,2021-05-03_20h22.02.947,judgeSpeechMusic_20210407_logNormShiftAmp,2020.1.2,MacIntel,60,,,,,,,,,,,,,,1,6.862855,,0,0,50,50,88,1,stimuli/stim_20210407_power2amp/equal_lnn_AM3.6Hz_81.m4a,,,
,,,,,,,,,,,,41183,2021-05-03_20h22.02.947,judgeSpeechMusic_20210407_logNormShiftAmp,2020.1.2,MacIntel,60,,,,,,,,,,,,,,1,6.062895,,0,0,51,51,130,1,stimuli/stim_20210407_power2amp/equal_lnn_AM5.4Hz_8.m4a,,,
,,,,,,,,,,,,41183,2021-05-03_20h22.02.947,judgeSpeechMusic_20210407_logNormShiftAmp,2020.1.2,MacIntel,60,,,,,,,,,,,,,,1,6.696895,,0,0,52,52,128,1,stimuli/stim_20210407_power2amp/equal_lnn_AM5.4Hz_41.m4a,,,
,,,,,,,,,,,,41183,2021-05-03_20h22.02.947,judgeSpeechMusic_20210407_logNormShiftAmp,2020.1.2,MacIntel,60,,,,,,,,,,,,,,1,7.044145,,0,0,53,53,98,1,stimuli/stim_20210407_power2amp/equal_lnn_AM4.2Hz_5.m4a,,,
,,,,,,,,,,,,41183,2021-05-03_20h22.02.947,judgeSpeechMusic_20210407_logNormShiftAmp,2020.1.2,MacIntel,60,,,,,,,,,,,,,,1,8.755895,,0,0,54,54,125,1,stimuli/stim_20210407_power2amp/equal_lnn_AM5.4Hz_45.m4a,,,
,,,,,,,,,,,,41183,2021-05-03_20h22.02.947,judgeSpeechMusic_20210407_logNormShiftAmp,2020.1.2,MacIntel,60,,,,,,,,,,,,,,2,7.282445,,0,0,55,55,114,1,stimuli/stim_20210407_power2amp/equal_lnn_AM4.8Hz_16.m4a,,,
,,,,,,,,,,,,41183,2021-05-03_20h22.02.947,judgeSpeechMusic_20210407_logNormShiftAmp,2020.1.2,MacIntel,60,,,,,,,,,,,,,,1,6.276855,,0,0,56,56,50,1,stimuli/stim_20210407_power2amp/equal_lnn_AM2.4Hz_39.m4a,,,
,,,,,,,,,,,,41183,2021-05-03_20h22.02.947,judgeSpeechMusic_20210407_logNormShiftAmp,2020.1.2,MacIntel,60,,,,,,,,,,,,,,1,5.69604,,0,0,57,57,97,1,stimuli/stim_20210407_power2amp/equal_lnn_AM4.2Hz_64.m4a,,,
,,,,,,,,,,,,41183,2021-05-03_20h22.02.947,judgeSpeechMusic_20210407_logNormShiftAmp,2020.1.2,MacIntel,60,,,,,,,,,,,,,,2,6.56095,,0,0,58,58,112,1,stimuli/stim_20210407_power2amp/equal_lnn_AM4.8Hz_71.m4a,,,
,,,,,,,,,,,,41183,2021-05-03_20h22.02.947,judgeSpeechMusic_20210407_logNormShiftAmp,2020.1.2,MacIntel,60,,,,,,,,,,,,,,1,5.78592,,0,0,59,59,69,1,stimuli/stim_20210407_power2amp/equal_lnn_AM3Hz_4.m4a,,,
,,,,,,,,,,,,41183,2021-05-03_20h22.02.947,judgeSpeechMusic_20210407_logNormShiftAmp,2020.1.2,MacIntel,60,,,,,,,,,,,,,,1,7.23306,1,1,0,60,60,85,1,stimuli/stim_20210407_power2amp/equal_lnn_AM3.6Hz_21.m4a,1.538635,,
,,,,,,,,,,,,41183,2021-05-03_20h22.02.947,judgeSpeechMusic_20210407_logNormShiftAmp,2020.1.2,MacIntel,60,,,,,,,,,,,,,,1,796.41654,,0,0,61,61,96,1,stimuli/stim_20210407_power2amp/equal_lnn_AM4.2Hz_65.m4a,,,
,,,,,,,,,,,,41183,2021-05-03_20h22.02.947,judgeSpeechMusic_20210407_logNormShiftAmp,2020.1.2,MacIntel,60,,,,,,,,,,,,,,1,6.43316,,0,0,62,62,135,1,stimuli/stim_20210407_power2amp/equal_lnn_AM6Hz_5.m4a,,,
,,,,,,,,,,,,41183,2021-05-03_20h22.02.947,judgeSpeechMusic_20210407_logNormShiftAmp,2020.1.2,MacIntel,60,,,,,,,,,,,,,,2,8.89182,,0,0,63,63,116,1,stimuli/stim_20210407_power2amp/equal_lnn_AM4.8Hz_30.m4a,,,
,,,,,,,,,,,,41183,2021-05-03_20h22.02.947,judgeSpeechMusic_20210407_logNormShiftAmp,2020.1.2,MacIntel,60,,,,,,,,,,,,,,1,7.467015,,0,0,64,64,9,1,stimuli/stim_20210407_power2amp/equal_lnn_AM0.6Hz_58.m4a,,,
,,,,,,,,,,,,41183,2021-05-03_20h22.02.947,judgeSpeechMusic_20210407_logNormShiftAmp,2020.1.2,MacIntel,60,,,,,,,,,,,,,,1,7.537735,,0,0,65,65,92,1,stimuli/stim_20210407_power2amp/equal_lnn_AM4.2Hz_69.m4a,,,
,,,,,,,,,,,,41183,2021-05-03_20h22.02.947,judgeSpeechMusic_20210407_logNormShiftAmp,2020.1.2,MacIntel,60,,,,,,,,,,,,,,1,5.67425,,0,0,66,66,2,1,stimuli/stim_20210407_power2amp/equal_lnn_AM0.6Hz_63.m4a,,,
,,,,,,,,,,,,41183,2021-05-03_20h22.02.947,judgeSpeechMusic_20210407_logNormShiftAmp,2020.1.2,MacIntel,60,,,,,,,,,,,,,,1,7.3857,,0,0,67,67,32,1,stimuli/stim_20210407_power2amp/equal_lnn_AM1.8Hz_23.m4a,,,
,,,,,,,,,,,,41183,2021-05-03_20h22.02.947,judgeSpeechMusic_20210407_logNormShiftAmp,2020.1.2,MacIntel,60,,,,,,,,,,,,,,2,7.98915,,0,0,68,68,106,1,stimuli/stim_20210407_power2amp/equal_lnn_AM4.8Hz_80.m4a,,,
,,,,,,,,,,,,41183,2021-05-03_20h22.02.947,judgeSpeechMusic_20210407_logNormShiftAmp,2020.1.2,MacIntel,60,,,,,,,,,,,,,,1,5.94866,,0,0,69,69,17,1,stimuli/stim_20210407_power2amp/equal_lnn_AM1.2Hz_47.m4a,,,
,,,,,,,,,,,,41183,2021-05-03_20h22.02.947,judgeSpeechMusic_20210407_logNormShiftAmp,2020.1.2,MacIntel,60,,,,,,,,,,,,,,1,5.792785,,0,0,70,70,70,1,stimuli/stim_20210407_power2amp/equal_lnn_AM3Hz_79.m4a,,,
,,,,,,,,,,,,41183,2021-05-03_20h22.02.947,judgeSpeechMusic_20210407_logNormShiftAmp,2020.1.2,MacIntel,60,,,,,,,,,,,,,,1,6.091655,,0,0,71,71,74,1,stimuli/stim_20210407_power2amp/equal_lnn_AM3Hz_81.m4a,,,
,,,,,,,,,,,,41183,2021-05-03_20h22.02.947,judgeSpeechMusic_20210407_logNormShiftAmp,2020.1.2,MacIntel,60,,,,,,,,,,,,,,1,5.77173,,0,0,72,72,103,1,stimuli/stim_20210407_power2amp/equal_lnn_AM4.2Hz_91.m4a,,,
,,,,,,,,,,,,41183,2021-05-03_20h22.02.947,judgeSpeechMusic_20210407_logNormShiftAmp,2020.1.2,MacIntel,60,,,,,,,,,,,,,,2,5.88826,,0,0,73,73,13,1,stimuli/stim_20210407_power2amp/equal_lnn_AM0.6Hz_3.m4a,,,
,,,,,,,,,,,,41183,2021-05-03_20h22.02.947,judgeSpeechMusic_20210407_logNormShiftAmp,2020.1.2,MacIntel,60,,,,,,,,,,,,,,1,6.98518,,0,0,74,74,90,1,stimuli/stim_20210407_power2amp/equal_lnn_AM4.2Hz_57.m4a,,,
,,,,,,,,,,,,41183,2021-05-03_20h22.02.947,judgeSpeechMusic_20210407_logNormShiftAmp,2020.1.2,MacIntel,60,,,,,,,,,,,,,,2,8.196005,,0,0,75,75,89,1,stimuli/stim_20210407_power2amp/equal_lnn_AM3.6Hz_57.m4a,,,
,,,,,,,,,,,,41183,2021-05-03_20h22.02.947,judgeSpeechMusic_20210407_logNormShiftAmp,2020.1.2,MacIntel,60,,,,,,,,,,,,,,1,7.24503,,0,0,76,76,4,1,stimuli/stim_20210407_power2amp/equal_lnn_AM0.6Hz_62.m4a,,,
,,,,,,,,,,,,41183,2021-05-03_20h22.02.947,judgeSpeechMusic_20210407_logNormShiftAmp,2020.1.2,MacIntel,60,,,,,,,,,,,,,,1,6.895165,,0,0,77,77,120,1,stimuli/stim_20210407_power2amp/equal_lnn_AM5.4Hz_38.m4a,,,
,,,,,,,,,,,,41183,2021-05-03_20h22.02.947,judgeSpeechMusic_20210407_logNormShiftAmp,2020.1.2,MacIntel,60,,,,,,,,,,,,,,2,8.84072,,0,0,78,78,143,1,stimuli/stim_20210407_power2amp/equal_lnn_AM6Hz_21.m4a,,,
,,,,,,,,,,,,41183,2021-05-03_20h22.02.947,judgeSpeechMusic_20210407_logNormShiftAmp,2020.1.2,MacIntel,60,,,,,,,,,,,,,,1,7.593355,,0,0,79,79,141,1,stimuli/stim_20210407_power2amp/equal_lnn_AM6Hz_28.m4a,,,
,,,,,,,,,,,,41183,2021-05-03_20h22.02.947,judgeSpeechMusic_20210407_logNormShiftAmp,2020.1.2,MacIntel,60,,,,,,,,,,,,,,1,14.826045,,0,0,80,80,77,1,stimuli/stim_20210407_power2amp/equal_lnn_AM3.6Hz_43.m4a,,,
,,,,,,,,,,,,41183,2021-05-03_20h22.02.947,judgeSpeechMusic_20210407_logNormShiftAmp,2020.1.2,MacIntel,60,,,,,,,,,,,,,,1,6.414115,,0,0,81,81,12,1,stimuli/stim_20210407_power2amp/equal_lnn_AM0.6Hz_94.m4a,,,
,,,,,,,,,,,,41183,2021-05-03_20h22.02.947,judgeSpeechMusic_20210407_logNormShiftAmp,2020.1.2,MacIntel,60,,,,,,,,,,,,,,1,12.421695,2,1,0,82,82,5,1,stimuli/stim_20210407_power2amp/equal_lnn_AM0.6Hz_18.m4a,1.151765,,
,,,,,,,,,,,,41183,2021-05-03_20h22.02.947,judgeSpeechMusic_20210407_logNormShiftAmp,2020.1.2,MacIntel,60,,,,,,,,,,,,,,1,6.011575,,0,0,83,83,72,1,stimuli/stim_20210407_power2amp/equal_lnn_AM3Hz_21.m4a,,,
,,,,,,,,,,,,41183,2021-05-03_20h22.02.947,judgeSpeechMusic_20210407_logNormShiftAmp,2020.1.2,MacIntel,60,,,,,,,,,,,,,,1,10.962345,,0,0,84,84,34,1,stimuli/stim_20210407_power2amp/equal_lnn_AM1.8Hz_75.m4a,,,
,,,,,,,,,,,,41183,2021-05-03_20h22.02.947,judgeSpeechMusic_20210407_logNormShiftAmp,2020.1.2,MacIntel,60,,,,,,,,,,,,,,1,6.259785,,0,0,85,85,82,1,stimuli/stim_20210407_power2amp/equal_lnn_AM3.6Hz_78.m4a,,,
,,,,,,,,,,,,41183,2021-05-03_20h22.02.947,judgeSpeechMusic_20210407_logNormShiftAmp,2020.1.2,MacIntel,60,,,,,,,,,,,,,,1,6.35142,,0,0,86,86,45,1,stimuli/stim_20210407_power2amp/equal_lnn_AM2.4Hz_7.m4a,,,
,,,,,,,,,,,,41183,2021-05-03_20h22.02.947,judgeSpeechMusic_20210407_logNormShiftAmp,2020.1.2,MacIntel,60,,,,,,,,,,,,,,1,5.67808,,0,0,87,87,79,1,stimuli/stim_20210407_power2amp/equal_lnn_AM3.6Hz_89.m4a,,,
,,,,,,,,,,,,41183,2021-05-03_20h22.02.947,judgeSpeechMusic_20210407_logNormShiftAmp,2020.1.2,MacIntel,60,,,,,,,,,,,,,,1,9.66076,,0,0,88,88,27,1,stimuli/stim_20210407_power2amp/equal_lnn_AM1.2Hz_41.m4a,,,
,,,,,,,,,,,,41183,2021-05-03_20h22.02.947,judgeSpeechMusic_20210407_logNormShiftAmp,2020.1.2,MacIntel,60,,,,,,,,,,,,,,1,7.17516,,0,0,89,89,22,1,stimuli/stim_20210407_power2amp/equal_lnn_AM1.2Hz_39.m4a,,,
,,,,,,,,,,,,41183,2021-05-03_20h22.02.947,judgeSpeechMusic_20210407_logNormShiftAmp,2020.1.2,MacIntel,60,,,,,,,,,,,,,,1,6.49808,,0,0,90,90,37,1,stimuli/stim_20210407_power2amp/equal_lnn_AM1.8Hz_36.m4a,,,
,,,,,,,,,,,,41183,2021-05-03_20h22.02.947,judgeSpeechMusic_20210407_logNormShiftAmp,2020.1.2,MacIntel,60,,,,,,,,,,,,,,1,15.95182,,0,0,91,91,66,1,stimuli/stim_20210407_power2amp/equal_lnn_AM3Hz_72.m4a,,,
,,,,,,,,,,,,41183,2021-05-03_20h22.02.947,judgeSpeechMusic_20210407_logNormShiftAmp,2020.1.2,MacIntel,60,,,,,,,,,,,,,,2,6.89357,,0,0,92,92,91,1,stimuli/stim_20210407_power2amp/equal_lnn_AM4.2Hz_49.m4a,,,
,,,,,,,,,,,,41183,2021-05-03_20h22.02.947,judgeSpeechMusic_20210407_logNormShiftAmp,2020.1.2,MacIntel,60,,,,,,,,,,,,,,1,6.359605,,0,0,93,93,147,1,stimuli/stim_20210407_power2amp/equal_lnn_AM6Hz_20.m4a,,,
,,,,,,,,,,,,41183,2021-05-03_20h22.02.947,judgeSpeechMusic_20210407_logNormShiftAmp,2020.1.2,MacIntel,60,,,,,,,,,,,,,,1,6.480775,,0,0,94,94,113,1,stimuli/stim_20210407_power2amp/equal_lnn_AM4.8Hz_35.m4a,,,
,,,,,,,,,,,,41183,2021-05-03_20h22.02.947,judgeSpeechMusic_20210407_logNormShiftAmp,2020.1.2,MacIntel,60,,,,,,,,,,,,,,2,6.824655,,0,0,95,95,62,1,stimuli/stim_20210407_power2amp/equal_lnn_AM3Hz_64.m4a,,,
,,,,,,,,,,,,41183,2021-05-03_20h22.02.947,judgeSpeechMusic_20210407_logNormShiftAmp,2020.1.2,MacIntel,60,,,,,,,,,,,,,,1,5.780965,,0,0,96,96,60,1,stimuli/stim_20210407_power2amp/equal_lnn_AM3Hz_38.m4a,,,
,,,,,,,,,,,,41183,2021-05-03_20h22.02.947,judgeSpeechMusic_20210407_logNormShiftAmp,2020.1.2,MacIntel,60,,,,,,,,,,,,,,2,6.65829,,0,0,97,97,111,1,stimuli/stim_20210407_power2amp/equal_lnn_AM4.8Hz_94.m4a,,,
,,,,,,,,,,,,41183,2021-05-03_20h22.02.947,judgeSpeechMusic_20210407_logNormShiftAmp,2020.1.2,MacIntel,60,,,,,,,,,,,,,,1,6.753365,,0,0,98,98,119,1,stimuli/stim_20210407_power2amp/equal_lnn_AM4.8Hz_78.m4a,,,
,,,,,,,,,,,,41183,2021-05-03_20h22.02.947,judgeSpeechMusic_20210407_logNormShiftAmp,2020.1.2,MacIntel,60,,,,,,,,,,,,,,1,6.864945,,0,0,99,99,131,1,stimuli/stim_20210407_power2amp/equal_lnn_AM5.4Hz_9.m4a,,,
,,,,,,,,,,,,41183,2021-05-03_20h22.02.947,judgeSpeechMusic_20210407_logNormShiftAmp,2020.1.2,MacIntel,60,,,,,,,,,,,,,,1,20.81009,,0,0,100,100,138,1,stimuli/stim_20210407_power2amp/equal_lnn_AM6Hz_80.m4a,,,
,,,,,,,,,,,,41183,2021-05-03_20h22.02.947,judgeSpeechMusic_20210407_logNormShiftAmp,2020.1.2,MacIntel,60,,,,,,,,,,,,,,2,6.74749,,0,0,101,101,105,1,stimuli/stim_20210407_power2amp/equal_lnn_AM4.8Hz_15.m4a,,,
,,,,,,,,,,,,41183,2021-05-03_20h22.02.947,judgeSpeechMusic_20210407_logNormShiftAmp,2020.1.2,MacIntel,60,,,,,,,,,,,,,,1,6.921055,,0,0,102,102,61,1,stimuli/stim_20210407_power2amp/equal_lnn_AM3Hz_89.m4a,,,
,,,,,,,,,,,,41183,2021-05-03_20h22.02.947,judgeSpeechMusic_20210407_logNormShiftAmp,2020.1.2,MacIntel,60,,,,,,,,,,,,,,1,6.88779,,0,0,103,103,126,1,stimuli/stim_20210407_power2amp/equal_lnn_AM5.4Hz_63.m4a,,,
,,,,,,,,,,,,41183,2021-05-03_20h22.02.947,judgeSpeechMusic_20210407_logNormShiftAmp,2020.1.2,MacIntel,60,,,,,,,,,,,,,,1,8.4627,,0,0,104,104,110,1,stimuli/stim_20210407_power2amp/equal_lnn_AM4.8Hz_95.m4a,,,
,,,,,,,,,,,,41183,2021-05-03_20h22.02.947,judgeSpeechMusic_20210407_logNormShiftAmp,2020.1.2,MacIntel,60,,,,,,,,,,,,,,2,7.280735,4,1,0,105,105,10,1,stimuli/stim_20210407_power2amp/equal_lnn_AM0.6Hz_93.m4a,1.27326,,
,,,,,,,,,,,,41183,2021-05-03_20h22.02.947,judgeSpeechMusic_20210407_logNormShiftAmp,2020.1.2,MacIntel,60,,,,,,,,,,,,,,2,7.561385,,0,0,106,106,15,1,stimuli/stim_20210407_power2amp/equal_lnn_AM1.2Hz_25.m4a,,,
,,,,,,,,,,,,41183,2021-05-03_20h22.02.947,judgeSpeechMusic_20210407_logNormShiftAmp,2020.1.2,MacIntel,60,,,,,,,,,,,,,,1,6.12797,,0,0,107,107,26,1,stimuli/stim_20210407_power2amp/equal_lnn_AM1.2Hz_65.m4a,,,
,,,,,,,,,,,,41183,2021-05-03_20h22.02.947,judgeSpeechMusic_20210407_logNormShiftAmp,2020.1.2,MacIntel,60,,,,,,,,,,,,,,1,6.509475,,0,0,108,108,137,1,stimuli/stim_20210407_power2amp/equal_lnn_AM6Hz_13.m4a,,,
,,,,,,,,,,,,41183,2021-05-03_20h22.02.947,judgeSpeechMusic_20210407_logNormShiftAmp,2020.1.2,MacIntel,60,,,,,,,,,,,,,,2,6.80567,,0,0,109,109,133,1,stimuli/stim_20210407_power2amp/equal_lnn_AM5.4Hz_21.m4a,,,
,,,,,,,,,,,,41183,2021-05-03_20h22.02.947,judgeSpeechMusic_20210407_logNormShiftAmp,2020.1.2,MacIntel,60,,,,,,,,,,,,,,1,7.12172,,0,0,110,110,49,1,stimuli/stim_20210407_power2amp/equal_lnn_AM2.4Hz_23.m4a,,,
,,,,,,,,,,,,41183,2021-05-03_20h22.02.947,judgeSpeechMusic_20210407_logNormShiftAmp,2020.1.2,MacIntel,60,,,,,,,,,,,,,,1,6.21516,,0,0,111,111,129,1,stimuli/stim_20210407_power2amp/equal_lnn_AM5.4Hz_61.m4a,,,
,,,,,,,,,,,,41183,2021-05-03_20h22.02.947,judgeSpeechMusic_20210407_logNormShiftAmp,2020.1.2,MacIntel,60,,,,,,,,,,,,,,2,7.28622,,0,0,112,112,122,1,stimuli/stim_20210407_power2amp/equal_lnn_AM5.4Hz_64.m4a,,,
,,,,,,,,,,,,41183,2021-05-03_20h22.02.947,judgeSpeechMusic_20210407_logNormShiftAmp,2020.1.2,MacIntel,60,,,,,,,,,,,,,,1,7.12773,,0,0,113,113,18,1,stimuli/stim_20210407_power2amp/equal_lnn_AM1.2Hz_40.m4a,,,
,,,,,,,,,,,,41183,2021-05-03_20h22.02.947,judgeSpeechMusic_20210407_logNormShiftAmp,2020.1.2,MacIntel,60,,,,,,,,,,,,,,1,6.260445,,0,0,114,114,95,1,stimuli/stim_20210407_power2amp/equal_lnn_AM4.2Hz_87.m4a,,,
,,,,,,,,,,,,41183,2021-05-03_20h22.02.947,judgeSpeechMusic_20210407_logNormShiftAmp,2020.1.2,MacIntel,60,,,,,,,,,,,,,,2,6.297395,,0,0,115,115,19,1,stimuli/stim_20210407_power2amp/equal_lnn_AM1.2Hz_99.m4a,,,
,,,,,,,,,,,,41183,2021-05-03_20h22.02.947,judgeSpeechMusic_20210407_logNormShiftAmp,2020.1.2,MacIntel,60,,,,,,,,,,,,,,1,5.7261,,0,0,116,116,23,1,stimuli/stim_20210407_power2amp/equal_lnn_AM1.2Hz_3.m4a,,,
,,,,,,,,,,,,41183,2021-05-03_20h22.02.947,judgeSpeechMusic_20210407_logNormShiftAmp,2020.1.2,MacIntel,60,,,,,,,,,,,,,,1,10.96373,,0,0,117,117,104,1,stimuli/stim_20210407_power2amp/equal_lnn_AM4.2Hz_61.m4a,,,
,,,,,,,,,,,,41183,2021-05-03_20h22.02.947,judgeSpeechMusic_20210407_logNormShiftAmp,2020.1.2,MacIntel,60,,,,,,,,,,,,,,2,7.35154,,0,0,118,118,144,1,stimuli/stim_20210407_power2amp/equal_lnn_AM6Hz_64.m4a,,,
,,,,,,,,,,,,41183,2021-05-03_20h22.02.947,judgeSpeechMusic_20210407_logNormShiftAmp,2020.1.2,MacIntel,60,,,,,,,,,,,,,,1,7.705985,,0,0,119,119,24,1,stimuli/stim_20210407_power2amp/equal_lnn_AM1.2Hz_100.m4a,,,
,,,,,,,,,,,,41183,2021-05-03_20h22.02.947,judgeSpeechMusic_20210407_logNormShiftAmp,2020.1.2,MacIntel,60,,,,,,,,,,,,,,1,6.249165,,0,0,120,120,102,1,stimuli/stim_20210407_power2amp/equal_lnn_AM4.2Hz_40.m4a,,,
,,,,,,,,,,,,41183,2021-05-03_20h22.02.947,judgeSpeechMusic_20210407_logNormShiftAmp,2020.1.2,MacIntel,60,,,,,,,,,,,,,,2,10.07762,,0,0,121,121,99,1,stimuli/stim_20210407_power2amp/equal_lnn_AM4.2Hz_25.m4a,,,
,,,,,,,,,,,,41183,2021-05-03_20h22.02.947,judgeSpeechMusic_20210407_logNormShiftAmp,2020.1.2,MacIntel,60,,,,,,,,,,,,,,1,10.202865,,0,0,122,122,108,1,stimuli/stim_20210407_power2amp/equal_lnn_AM4.8Hz_69.m4a,,,
,,,,,,,,,,,,41183,2021-05-03_20h22.02.947,judgeSpeechMusic_20210407_logNormShiftAmp,2020.1.2,MacIntel,60,,,,,,,,,,,,,,1,7.02378,,0,0,123,123,56,1,stimuli/stim_20210407_power2amp/equal_lnn_AM2.4Hz_70.m4a,,,
,,,,,,,,,,,,41183,2021-05-03_20h22.02.947,judgeSpeechMusic_20210407_logNormShiftAmp,2020.1.2,MacIntel,60,,,,,,,,,,,,,,2,5.995095,,0,0,124,124,40,1,stimuli/stim_20210407_power2amp/equal_lnn_AM1.8Hz_22.m4a,,,
,,,,,,,,,,,,41183,2021-05-03_20h22.02.947,judgeSpeechMusic_20210407_logNormShiftAmp,2020.1.2,MacIntel,60,,,,,,,,,,,,,,1,6.55699,4,1,0,125,125,115,1,stimuli/stim_20210407_power2amp/equal_lnn_AM4.8Hz_55.m4a,1.27248,,
,,,,,,,,,,,,41183,2021-05-03_20h22.02.947,judgeSpeechMusic_20210407_logNormShiftAmp,2020.1.2,MacIntel,60,,,,,,,,,,,,,,1,7.629465,,0,0,126,126,36,1,stimuli/stim_20210407_power2amp/equal_lnn_AM1.8Hz_42.m4a,,,
,,,,,,,,,,,,41183,2021-05-03_20h22.02.947,judgeSpeechMusic_20210407_logNormShiftAmp,2020.1.2,MacIntel,60,,,,,,,,,,,,,,1,6.769885,,0,0,127,127,64,1,stimuli/stim_20210407_power2amp/equal_lnn_AM3Hz_54.m4a,,,
,,,,,,,,,,,,41183,2021-05-03_20h22.02.947,judgeSpeechMusic_20210407_logNormShiftAmp,2020.1.2,MacIntel,60,,,,,,,,,,,,,,2,5.988425,,0,0,128,128,140,1,stimuli/stim_20210407_power2amp/equal_lnn_AM6Hz_88.m4a,,,
,,,,,,,,,,,,41183,2021-05-03_20h22.02.947,judgeSpeechMusic_20210407_logNormShiftAmp,2020.1.2,MacIntel,60,,,,,,,,,,,,,,1,7.39952,,0,0,129,129,6,1,stimuli/stim_20210407_power2amp/equal_lnn_AM0.6Hz_34.m4a,,,
,,,,,,,,,,,,41183,2021-05-03_20h22.02.947,judgeSpeechMusic_20210407_logNormShiftAmp,2020.1.2,MacIntel,60,,,,,,,,,,,,,,1,7.47911,,0,0,130,130,51,1,stimuli/stim_20210407_power2amp/equal_lnn_AM2.4Hz_95.m4a,,,
,,,,,,,,,,,,41183,2021-05-03_20h22.02.947,judgeSpeechMusic_20210407_logNormShiftAmp,2020.1.2,MacIntel,60,,,,,,,,,,,,,,2,6.90415,,0,0,131,131,48,1,stimuli/stim_20210407_power2amp/equal_lnn_AM2.4Hz_75.m4a,,,
,,,,,,,,,,,,41183,2021-05-03_20h22.02.947,judgeSpeechMusic_20210407_logNormShiftAmp,2020.1.2,MacIntel,60,,,,,,,,,,,,,,1,7.745545,,0,0,132,132,28,1,stimuli/stim_20210407_power2amp/equal_lnn_AM1.2Hz_80.m4a,,,
,,,,,,,,,,,,41183,2021-05-03_20h22.02.947,judgeSpeechMusic_20210407_logNormShiftAmp,2020.1.2,MacIntel,60,,,,,,,,,,,,,,1,10.28018,,0,0,133,133,81,1,stimuli/stim_20210407_power2amp/equal_lnn_AM3.6Hz_7.m4a,,,
,,,,,,,,,,,,41183,2021-05-03_20h22.02.947,judgeSpeechMusic_20210407_logNormShiftAmp,2020.1.2,MacIntel,60,,,,,,,,,,,,,,1,5.93191,,0,0,134,134,58,1,stimuli/stim_20210407_power2amp/equal_lnn_AM2.4Hz_49.m4a,,,
,,,,,,,,,,,,41183,2021-05-03_20h22.02.947,judgeSpeechMusic_20210407_logNormShiftAmp,2020.1.2,MacIntel,60,,,,,,,,,,,,,,1,5.65641,,0,0,135,135,57,1,stimuli/stim_20210407_power2amp/equal_lnn_AM2.4Hz_2.m4a,,,
,,,,,,,,,,,,41183,2021-05-03_20h22.02.947,judgeSpeechMusic_20210407_logNormShiftAmp,2020.1.2,MacIntel,60,,,,,,,,,,,,,,2,6.44234,,0,0,136,136,46,1,stimuli/stim_20210407_power2amp/equal_lnn_AM2.4Hz_24.m4a,,,
,,,,,,,,,,,,41183,2021-05-03_20h22.02.947,judgeSpeechMusic_20210407_logNormShiftAmp,2020.1.2,MacIntel,60,,,,,,,,,,,,,,1,6.59432,,0,0,137,137,1,1,stimuli/stim_20210407_power2amp/equal_lnn_AM0.6Hz_45.m4a,,,
,,,,,,,,,,,,41183,2021-05-03_20h22.02.947,judgeSpeechMusic_20210407_logNormShiftAmp,2020.1.2,MacIntel,60,,,,,,,,,,,,,,1,6.989465,,0,0,138,138,73,1,stimuli/stim_20210407_power2amp/equal_lnn_AM3Hz_94.m4a,,,
,,,,,,,,,,,,41183,2021-05-03_20h22.02.947,judgeSpeechMusic_20210407_logNormShiftAmp,2020.1.2,MacIntel,60,,,,,,,,,,,,,,2,6.013185,,0,0,139,139,142,1,stimuli/stim_20210407_power2amp/equal_lnn_AM6Hz_85.m4a,,,
,,,,,,,,,,,,41183,2021-05-03_20h22.02.947,judgeSpeechMusic_20210407_logNormShiftAmp,2020.1.2,MacIntel,60,,,,,,,,,,,,,,1,5.672995,,0,0,140,140,118,1,stimuli/stim_20210407_power2amp/equal_lnn_AM4.8Hz_28.m4a,,,
,,,,,,,,,,,,41183,2021-05-03_20h22.02.947,judgeSpeechMusic_20210407_logNormShiftAmp,2020.1.2,MacIntel,60,,,,,,,,,,,,,,2,7.47916,,0,0,141,141,78,1,stimuli/stim_20210407_power2amp/equal_lnn_AM3.6Hz_94.m4a,,,
,,,,,,,,,,,,41183,2021-05-03_20h22.02.947,judgeSpeechMusic_20210407_logNormShiftAmp,2020.1.2,MacIntel,60,,,,,,,,,,,,,,1,8.321555,,0,0,142,142,39,1,stimuli/stim_20210407_power2amp/equal_lnn_AM1.8Hz_21.m4a,,,
,,,,,,,,,,,,41183,2021-05-03_20h22.02.947,judgeSpeechMusic_20210407_logNormShiftAmp,2020.1.2,MacIntel,60,,,,,,,,,,,,,,2,6.230775,,0,0,143,143,41,1,stimuli/stim_20210407_power2amp/equal_lnn_AM1.8Hz_30.m4a,,,
,,,,,,,,,,,,41183,2021-05-03_20h22.02.947,judgeSpeechMusic_20210407_logNormShiftAmp,2020.1.2,MacIntel,60,,,,,,,,,,,,,,1,6.44389,,0,0,144,144,148,1,stimuli/stim_20210407_power2amp/equal_lnn_AM6Hz_100.m4a,,,
,,,,,,,,,,,,41183,2021-05-03_20h22.02.947,judgeSpeechMusic_20210407_logNormShiftAmp,2020.1.2,MacIntel,60,,,,,,,,,,,,,,2,6.346385,,0,0,145,145,55,1,stimuli/stim_20210407_power2amp/equal_lnn_AM2.4Hz_81.m4a,,,
,,,,,,,,,,,,41183,2021-05-03_20h22.02.947,judgeSpeechMusic_20210407_logNormShiftAmp,2020.1.2,MacIntel,60,,,,,,,,,,,,,,1,6.460905,,0,0,146,146,109,1,stimuli/stim_20210407_power2amp/equal_lnn_AM4.8Hz_86.m4a,,,
,,,,,,,,,,,,41183,2021-05-03_20h22.02.947,judgeSpeechMusic_20210407_logNormShiftAmp,2020.1.2,MacIntel,60,,,,,,,,,,,,,,1,8.075825,3,1,0,147,147,53,1,stimuli/stim_20210407_power2amp/equal_lnn_AM2.4Hz_42.m4a,0.460195,,
,,,,,,,,,,,,41183,2021-05-03_20h22.02.947,judgeSpeechMusic_20210407_logNormShiftAmp,2020.1.2,MacIntel,60,,,,,,,,,,,,,,1,7.88177,,0,0,148,148,146,1,stimuli/stim_20210407_power2amp/equal_lnn_AM6Hz_11.m4a,,,
,,,,,,,,,,,,41183,2021-05-03_20h22.02.947,judgeSpeechMusic_20210407_logNormShiftAmp,2020.1.2,MacIntel,60,,,,,,,,,,,,,,1,7.42934,,0,0,149,149,117,1,stimuli/stim_20210407_power2amp/equal_lnn_AM4.8Hz_53.m4a,,,
,,,,,,,,,,,,41183,2021-05-03_20h22.02.947,judgeSpeechMusic_20210407_logNormShiftAmp,2020.1.2,MacIntel,60,,,,,,,,,,,,,,1,5.97613,,0,1,0,150,149,1,stimuli/stim_20210407_power2amp/equal_lnn_AM6Hz_19.m4a,,,
,,,,,,,,,,,,41183,2021-05-03_20h22.02.947,judgeSpeechMusic_20210407_logNormShiftAmp,2020.1.2,MacIntel,60,,,,,,,,,,,,,,2,6.045825,,0,1,1,151,63,1,stimuli/stim_20210407_power2amp/equal_lnn_AM3Hz_24.m4a,,,
,,,,,,,,,,,,41183,2021-05-03_20h22.02.947,judgeSpeechMusic_20210407_logNormShiftAmp,2020.1.2,MacIntel,60,,,,,,,,,,,,,,1,6.92484,,0,1,2,152,144,1,stimuli/stim_20210407_power2amp/equal_lnn_AM6Hz_64.m4a,,,
,,,,,,,,,,,,41183,2021-05-03_20h22.02.947,judgeSpeechMusic_20210407_logNormShiftAmp,2020.1.2,MacIntel,60,,,,,,,,,,,,,,2,6.778255,,0,1,3,153,111,1,stimuli/stim_20210407_power2amp/equal_lnn_AM4.8Hz_94.m4a,,,
,,,,,,,,,,,,41183,2021-05-03_20h22.02.947,judgeSpeechMusic_20210407_logNormShiftAmp,2020.1.2,MacIntel,60,,,,,,,,,,,,,,1,8.853795,,0,1,4,154,4,1,stimuli/stim_20210407_power2amp/equal_lnn_AM0.6Hz_62.m4a,,,
,,,,,,,,,,,,41183,2021-05-03_20h22.02.947,judgeSpeechMusic_20210407_logNormShiftAmp,2020.1.2,MacIntel,60,,,,,,,,,,,,,,1,10.0772,,0,1,5,155,25,1,stimuli/stim_20210407_power2amp/equal_lnn_AM1.2Hz_11.m4a,,,
,,,,,,,,,,,,41183,2021-05-03_20h22.02.947,judgeSpeechMusic_20210407_logNormShiftAmp,2020.1.2,MacIntel,60,,,,,,,,,,,,,,2,6.394175,,0,1,6,156,24,1,stimuli/stim_20210407_power2amp/equal_lnn_AM1.2Hz_100.m4a,,,
,,,,,,,,,,,,41183,2021-05-03_20h22.02.947,judgeSpeechMusic_20210407_logNormShiftAmp,2020.1.2,MacIntel,60,,,,,,,,,,,,,,1,5.74089,,0,1,7,157,135,1,stimuli/stim_20210407_power2amp/equal_lnn_AM6Hz_5.m4a,,,
,,,,,,,,,,,,41183,2021-05-03_20h22.02.947,judgeSpeechMusic_20210407_logNormShiftAmp,2020.1.2,MacIntel,60,,,,,,,,,,,,,,2,6.52752,,0,1,8,158,11,1,stimuli/stim_20210407_power2amp/equal_lnn_AM0.6Hz_27.m4a,,,
,,,,,,,,,,,,41183,2021-05-03_20h22.02.947,judgeSpeechMusic_20210407_logNormShiftAmp,2020.1.2,MacIntel,60,,,,,,,,,,,,,,1,15.095165,,0,1,9,159,61,1,stimuli/stim_20210407_power2amp/equal_lnn_AM3Hz_89.m4a,,,
,,,,,,,,,,,,41183,2021-05-03_20h22.02.947,judgeSpeechMusic_20210407_logNormShiftAmp,2020.1.2,MacIntel,60,,,,,,,,,,,,,,1,7.846505,,0,1,10,160,21,1,stimuli/stim_20210407_power2amp/equal_lnn_AM1.2Hz_91.m4a,,,
,,,,,,,,,,,,41183,2021-05-03_20h22.02.947,judgeSpeechMusic_20210407_logNormShiftAmp,2020.1.2,MacIntel,60,,,,,,,,,,,,,,2,7.37534,,0,1,11,161,142,1,stimuli/stim_20210407_power2amp/equal_lnn_AM6Hz_85.m4a,,,
,,,,,,,,,,,,41183,2021-05-03_20h22.02.947,judgeSpeechMusic_20210407_logNormShiftAmp,2020.1.2,MacIntel,60,,,,,,,,,,,,,,1,5.79683,,0,1,12,162,147,1,stimuli/stim_20210407_power2amp/equal_lnn_AM6Hz_20.m4a,,,
,,,,,,,,,,,,41183,2021-05-03_20h22.02.947,judgeSpeechMusic_20210407_logNormShiftAmp,2020.1.2,MacIntel,60,,,,,,,,,,,,,,2,132.893,,0,1,13,163,122,1,stimuli/stim_20210407_power2amp/equal_lnn_AM5.4Hz_64.m4a,,,
,,,,,,,,,,,,41183,2021-05-03_20h22.02.947,judgeSpeechMusic_20210407_logNormShiftAmp,2020.1.2,MacIntel,60,,,,,,,,,,,,,,1,7.80757,,0,1,14,164,75,1,stimuli/stim_20210407_power2amp/equal_lnn_AM3.6Hz_92.m4a,,,
,,,,,,,,,,,,41183,2021-05-03_20h22.02.947,judgeSpeechMusic_20210407_logNormShiftAmp,2020.1.2,MacIntel,60,,,,,,,,,,,,,,1,6.60648,,0,1,15,165,58,1,stimuli/stim_20210407_power2amp/equal_lnn_AM2.4Hz_49.m4a,,,
,,,,,,,,,,,,41183,2021-05-03_20h22.02.947,judgeSpeechMusic_20210407_logNormShiftAmp,2020.1.2,MacIntel,60,,,,,,,,,,,,,,1,5.644215,,0,1,16,166,73,1,stimuli/stim_20210407_power2amp/equal_lnn_AM3Hz_94.m4a,,,
,,,,,,,,,,,,41183,2021-05-03_20h22.02.947,judgeSpeechMusic_20210407_logNormShiftAmp,2020.1.2,MacIntel,60,,,,,,,,,,,,,,1,6.525185,,0,1,17,167,80,1,stimuli/stim_20210407_power2amp/equal_lnn_AM3.6Hz_17.m4a,,,
,,,,,,,,,,,,41183,2021-05-03_20h22.02.947,judgeSpeechMusic_20210407_logNormShiftAmp,2020.1.2,MacIntel,60,,,,,,,,,,,,,,1,5.80945,,0,1,18,168,84,1,stimuli/stim_20210407_power2amp/equal_lnn_AM3.6Hz_55.m4a,,,
,,,,,,,,,,,,41183,2021-05-03_20h22.02.947,judgeSpeechMusic_20210407_logNormShiftAmp,2020.1.2,MacIntel,60,,,,,,,,,,,,,,1,53.79359,,0,1,19,169,86,1,stimuli/stim_20210407_power2amp/equal_lnn_AM3.6Hz_58.m4a,,,
,,,,,,,,,,,,41183,2021-05-03_20h22.02.947,judgeSpeechMusic_20210407_logNormShiftAmp,2020.1.2,MacIntel,60,,,,,,,,,,,,,,1,7.896425,3,1,1,20,170,10,1,stimuli/stim_20210407_power2amp/equal_lnn_AM0.6Hz_93.m4a,1.66002,,
,,,,,,,,,,,,41183,2021-05-03_20h22.02.947,judgeSpeechMusic_20210407_logNormShiftAmp,2020.1.2,MacIntel,60,,,,,,,,,,,,,,1,6.304995,,0,1,21,171,68,1,stimuli/stim_20210407_power2amp/equal_lnn_AM3Hz_14.m4a,,,
,,,,,,,,,,,,41183,2021-05-03_20h22.02.947,judgeSpeechMusic_20210407_logNormShiftAmp,2020.1.2,MacIntel,60,,,,,,,,,,,,,,1,5.80511,,0,1,22,172,35,1,stimuli/stim_20210407_power2amp/equal_lnn_AM1.8Hz_50.m4a,,,
,,,,,,,,,,,,41183,2021-05-03_20h22.02.947,judgeSpeechMusic_20210407_logNormShiftAmp,2020.1.2,MacIntel,60,,,,,,,,,,,,,,1,5.927825,,0,1,23,173,54,1,stimuli/stim_20210407_power2amp/equal_lnn_AM2.4Hz_58.m4a,,,
,,,,,,,,,,,,41183,2021-05-03_20h22.02.947,judgeSpeechMusic_20210407_logNormShiftAmp,2020.1.2,MacIntel,60,,,,,,,,,,,,,,1,5.879955,,0,1,24,174,22,1,stimuli/stim_20210407_power2amp/equal_lnn_AM1.2Hz_39.m4a,,,
,,,,,,,,,,,,41183,2021-05-03_20h22.02.947,judgeSpeechMusic_20210407_logNormShiftAmp,2020.1.2,MacIntel,60,,,,,,,,,,,,,,2,8.55642,,0,1,25,175,134,1,stimuli/stim_20210407_power2amp/equal_lnn_AM5.4Hz_77.m4a,,,
,,,,,,,,,,,,41183,2021-05-03_20h22.02.947,judgeSpeechMusic_20210407_logNormShiftAmp,2020.1.2,MacIntel,60,,,,,,,,,,,,,,2,8.677925,,0,1,26,176,53,1,stimuli/stim_20210407_power2amp/equal_lnn_AM2.4Hz_42.m4a,,,
,,,,,,,,,,,,41183,2021-05-03_20h22.02.947,judgeSpeechMusic_20210407_logNormShiftAmp,2020.1.2,MacIntel,60,,,,,,,,,,,,,,2,7.653105,,0,1,27,177,5,1,stimuli/stim_20210407_power2amp/equal_lnn_AM0.6Hz_18.m4a,,,
,,,,,,,,,,,,41183,2021-05-03_20h22.02.947,judgeSpeechMusic_20210407_logNormShiftAmp,2020.1.2,MacIntel,60,,,,,,,,,,,,,,1,6.544465,,0,1,28,178,1,1,stimuli/stim_20210407_power2amp/equal_lnn_AM0.6Hz_45.m4a,,,
,,,,,,,,,,,,41183,2021-05-03_20h22.02.947,judgeSpeechMusic_20210407_logNormShiftAmp,2020.1.2,MacIntel,60,,,,,,,,,,,,,,2,12.224635,,0,1,29,179,76,1,stimuli/stim_20210407_power2amp/equal_lnn_AM3.6Hz_52.m4a,,,
,,,,,,,,,,,,41183,2021-05-03_20h22.02.947,judgeSpeechMusic_20210407_logNormShiftAmp,2020.1.2,MacIntel,60,,,,,,,,,,,,,,2,110.4102,,0,1,30,180,114,1,stimuli/stim_20210407_power2amp/equal_lnn_AM4.8Hz_16.m4a,,,
,,,,,,,,,,,,41183,2021-05-03_20h22.02.947,judgeSpeechMusic_20210407_logNormShiftAmp,2020.1.2,MacIntel,60,,,,,,,,,,,,,,1,10.63144,,0,1,31,181,141,1,stimuli/stim_20210407_power2amp/equal_lnn_AM6Hz_28.m4a,,,
,,,,,,,,,,,,41183,2021-05-03_20h22.02.947,judgeSpeechMusic_20210407_logNormShiftAmp,2020.1.2,MacIntel,60,,,,,,,,,,,,,,1,5.732605,,0,1,32,182,56,1,stimuli/stim_20210407_power2amp/equal_lnn_AM2.4Hz_70.m4a,,,
,,,,,,,,,,,,41183,2021-05-03_20h22.02.947,judgeSpeechMusic_20210407_logNormShiftAmp,2020.1.2,MacIntel,60,,,,,,,,,,,,,,2,9.2935,,0,1,33,183,121,1,stimuli/stim_20210407_power2amp/equal_lnn_AM5.4Hz_31.m4a,,,
,,,,,,,,,,,,41183,2021-05-03_20h22.02.947,judgeSpeechMusic_20210407_logNormShiftAmp,2020.1.2,MacIntel,60,,,,,,,,,,,,,,2,6.24562,,0,1,34,184,8,1,stimuli/stim_20210407_power2amp/equal_lnn_AM0.6Hz_39.m4a,,,
,,,,,,,,,,,,41183,2021-05-03_20h22.02.947,judgeSpeechMusic_20210407_logNormShiftAmp,2020.1.2,MacIntel,60,,,,,,,,,,,,,,2,7.66105,,0,1,35,185,99,1,stimuli/stim_20210407_power2amp/equal_lnn_AM4.2Hz_25.m4a,,,
,,,,,,,,,,,,41183,2021-05-03_20h22.02.947,judgeSpeechMusic_20210407_logNormShiftAmp,2020.1.2,MacIntel,60,,,,,,,,,,,,,,1,6.2797,,0,1,36,186,67,1,stimuli/stim_20210407_power2amp/equal_lnn_AM3Hz_7.m4a,,,
,,,,,,,,,,,,41183,2021-05-03_20h22.02.947,judgeSpeechMusic_20210407_logNormShiftAmp,2020.1.2,MacIntel,60,,,,,,,,,,,,,,2,6.42992,,0,1,37,187,95,1,stimuli/stim_20210407_power2amp/equal_lnn_AM4.2Hz_87.m4a,,,
,,,,,,,,,,,,41183,2021-05-03_20h22.02.947,judgeSpeechMusic_20210407_logNormShiftAmp,2020.1.2,MacIntel,60,,,,,,,,,,,,,,1,20.93882,,0,1,38,188,112,1,stimuli/stim_20210407_power2amp/equal_lnn_AM4.8Hz_71.m4a,,,
,,,,,,,,,,,,41183,2021-05-03_20h22.02.947,judgeSpeechMusic_20210407_logNormShiftAmp,2020.1.2,MacIntel,60,,,,,,,,,,,,,,2,6.39562,,0,1,39,189,50,1,stimuli/stim_20210407_power2amp/equal_lnn_AM2.4Hz_39.m4a,,,
,,,,,,,,,,,,41183,2021-05-03_20h22.02.947,judgeSpeechMusic_20210407_logNormShiftAmp,2020.1.2,MacIntel,60,,,,,,,,,,,,,,1,62.422855,,0,1,40,190,131,1,stimuli/stim_20210407_power2amp/equal_lnn_AM5.4Hz_9.m4a,,,
,,,,,,,,,,,,41183,2021-05-03_20h22.02.947,judgeSpeechMusic_20210407_logNormShiftAmp,2020.1.2,MacIntel,60,,,,,,,,,,,,,,2,6.36101,,0,1,41,191,26,1,stimuli/stim_20210407_power2amp/equal_lnn_AM1.2Hz_65.m4a,,,
,,,,,,,,,,,,41183,2021-05-03_20h22.02.947,judgeSpeechMusic_20210407_logNormShiftAmp,2020.1.2,MacIntel,60,,,,,,,,,,,,,,1,6.101015,3,1,1,42,192,123,1,stimuli/stim_20210407_power2amp/equal_lnn_AM5.4Hz_100.m4a,0.896725,,
,,,,,,,,,,,,41183,2021-05-03_20h22.02.947,judgeSpeechMusic_20210407_logNormShiftAmp,2020.1.2,MacIntel,60,,,,,,,,,,,,,,1,5.8369,,0,1,43,193,120,1,stimuli/stim_20210407_power2amp/equal_lnn_AM5.4Hz_38.m4a,,,
,,,,,,,,,,,,41183,2021-05-03_20h22.02.947,judgeSpeechMusic_20210407_logNormShiftAmp,2020.1.2,MacIntel,60,,,,,,,,,,,,,,2,7.312665,,0,1,44,194,106,1,stimuli/stim_20210407_power2amp/equal_lnn_AM4.8Hz_80.m4a,,,
,,,,,,,,,,,,41183,2021-05-03_20h22.02.947,judgeSpeechMusic_20210407_logNormShiftAmp,2020.1.2,MacIntel,60,,,,,,,,,,,,,,1,7.11276,,0,1,45,195,70,1,stimuli/stim_20210407_power2amp/equal_lnn_AM3Hz_79.m4a,,,
,,,,,,,,,,,,41183,2021-05-03_20h22.02.947,judgeSpeechMusic_20210407_logNormShiftAmp,2020.1.2,MacIntel,60,,,,,,,,,,,,,,2,8.72597,,0,1,46,196,60,1,stimuli/stim_20210407_power2amp/equal_lnn_AM3Hz_38.m4a,,,
,,,,,,,,,,,,41183,2021-05-03_20h22.02.947,judgeSpeechMusic_20210407_logNormShiftAmp,2020.1.2,MacIntel,60,,,,,,,,,,,,,,2,6.022665,,0,1,47,197,36,1,stimuli/stim_20210407_power2amp/equal_lnn_AM1.8Hz_42.m4a,,,
,,,,,,,,,,,,41183,2021-05-03_20h22.02.947,judgeSpeechMusic_20210407_logNormShiftAmp,2020.1.2,MacIntel,60,,,,,,,,,,,,,,1,6.00908,,0,1,48,198,77,1,stimuli/stim_20210407_power2amp/equal_lnn_AM3.6Hz_43.m4a,,,
,,,,,,,,,,,,41183,2021-05-03_20h22.02.947,judgeSpeechMusic_20210407_logNormShiftAmp,2020.1.2,MacIntel,60,,,,,,,,,,,,,,1,5.74246,,0,1,49,199,140,1,stimuli/stim_20210407_power2amp/equal_lnn_AM6Hz_88.m4a,,,
,,,,,,,,,,,,41183,2021-05-03_20h22.02.947,judgeSpeechMusic_20210407_logNormShiftAmp,2020.1.2,MacIntel,60,,,,,,,,,,,,,,1,7.81018,,0,1,50,200,43,1,stimuli/stim_20210407_power2amp/equal_lnn_AM1.8Hz_82.m4a,,,
,,,,,,,,,,,,41183,2021-05-03_20h22.02.947,judgeSpeechMusic_20210407_logNormShiftAmp,2020.1.2,MacIntel,60,,,,,,,,,,,,,,2,14.024095,,0,1,51,201,143,1,stimuli/stim_20210407_power2amp/equal_lnn_AM6Hz_21.m4a,,,
,,,,,,,,,,,,41183,2021-05-03_20h22.02.947,judgeSpeechMusic_20210407_logNormShiftAmp,2020.1.2,MacIntel,60,,,,,,,,,,,,,,1,5.950155,,0,1,52,202,37,1,stimuli/stim_20210407_power2amp/equal_lnn_AM1.8Hz_36.m4a,,,
,,,,,,,,,,,,41183,2021-05-03_20h22.02.947,judgeSpeechMusic_20210407_logNormShiftAmp,2020.1.2,MacIntel,60,,,,,,,,,,,,,,1,6.02693,,0,1,53,203,6,1,stimuli/stim_20210407_power2amp/equal_lnn_AM0.6Hz_34.m4a,,,
,,,,,,,,,,,,41183,2021-05-03_20h22.02.947,judgeSpeechMusic_20210407_logNormShiftAmp,2020.1.2,MacIntel,60,,,,,,,,,,,,,,1,8.519915,,0,1,54,204,57,1,stimuli/stim_20210407_power2amp/equal_lnn_AM2.4Hz_2.m4a,,,
,,,,,,,,,,,,41183,2021-05-03_20h22.02.947,judgeSpeechMusic_20210407_logNormShiftAmp,2020.1.2,MacIntel,60,,,,,,,,,,,,,,2,7.64724,,0,1,55,205,82,1,stimuli/stim_20210407_power2amp/equal_lnn_AM3.6Hz_78.m4a,,,
,,,,,,,,,,,,41183,2021-05-03_20h22.02.947,judgeSpeechMusic_20210407_logNormShiftAmp,2020.1.2,MacIntel,60,,,,,,,,,,,,,,1,5.745565,,0,1,56,206,148,1,stimuli/stim_20210407_power2amp/equal_lnn_AM6Hz_100.m4a,,,
,,,,,,,,,,,,41183,2021-05-03_20h22.02.947,judgeSpeechMusic_20210407_logNormShiftAmp,2020.1.2,MacIntel,60,,,,,,,,,,,,,,2,5.94468,,0,1,57,207,117,1,stimuli/stim_20210407_power2amp/equal_lnn_AM4.8Hz_53.m4a,,,
,,,,,,,,,,,,41183,2021-05-03_20h22.02.947,judgeSpeechMusic_20210407_logNormShiftAmp,2020.1.2,MacIntel,60,,,,,,,,,,,,,,1,5.78697,,0,1,58,208,55,1,stimuli/stim_20210407_power2amp/equal_lnn_AM2.4Hz_81.m4a,,,
,,,,,,,,,,,,41183,2021-05-03_20h22.02.947,judgeSpeechMusic_20210407_logNormShiftAmp,2020.1.2,MacIntel,60,,,,,,,,,,,,,,2,6.54028,,0,1,59,209,88,1,stimuli/stim_20210407_power2amp/equal_lnn_AM3.6Hz_81.m4a,,,
,,,,,,,,,,,,41183,2021-05-03_20h22.02.947,judgeSpeechMusic_20210407_logNormShiftAmp,2020.1.2,MacIntel,60,,,,,,,,,,,,,,1,5.86491,,0,1,60,210,124,1,stimuli/stim_20210407_power2amp/equal_lnn_AM5.4Hz_91.m4a,,,
,,,,,,,,,,,,41183,2021-05-03_20h22.02.947,judgeSpeechMusic_20210407_logNormShiftAmp,2020.1.2,MacIntel,60,,,,,,,,,,,,,,2,7.97925,,0,1,61,211,64,1,stimuli/stim_20210407_power2amp/equal_lnn_AM3Hz_54.m4a,,,
,,,,,,,,,,,,41183,2021-05-03_20h22.02.947,judgeSpeechMusic_20210407_logNormShiftAmp,2020.1.2,MacIntel,60,,,,,,,,,,,,,,1,7.36294,,0,1,62,212,83,1,stimuli/stim_20210407_power2amp/equal_lnn_AM3.6Hz_45.m4a,,,
,,,,,,,,,,,,41183,2021-05-03_20h22.02.947,judgeSpeechMusic_20210407_logNormShiftAmp,2020.1.2,MacIntel,60,,,,,,,,,,,,,,2,6.137335,2,1,1,63,213,13,1,stimuli/stim_20210407_power2amp/equal_lnn_AM0.6Hz_3.m4a,1.63369,,
,,,,,,,,,,,,41183,2021-05-03_20h22.02.947,judgeSpeechMusic_20210407_logNormShiftAmp,2020.1.2,MacIntel,60,,,,,,,,,,,,,,2,6.18872,,0,1,64,214,3,1,stimuli/stim_20210407_power2amp/equal_lnn_AM0.6Hz_70.m4a,,,
,,,,,,,,,,,,41183,2021-05-03_20h22.02.947,judgeSpeechMusic_20210407_logNormShiftAmp,2020.1.2,MacIntel,60,,,,,,,,,,,,,,1,6.82624,,0,1,65,215,19,1,stimuli/stim_20210407_power2amp/equal_lnn_AM1.2Hz_99.m4a,,,
,,,,,,,,,,,,41183,2021-05-03_20h22.02.947,judgeSpeechMusic_20210407_logNormShiftAmp,2020.1.2,MacIntel,60,,,,,,,,,,,,,,1,6.531225,,0,1,66,216,137,1,stimuli/stim_20210407_power2amp/equal_lnn_AM6Hz_13.m4a,,,
,,,,,,,,,,,,41183,2021-05-03_20h22.02.947,judgeSpeechMusic_20210407_logNormShiftAmp,2020.1.2,MacIntel,60,,,,,,,,,,,,,,1,5.86285,,0,1,67,217,104,1,stimuli/stim_20210407_power2amp/equal_lnn_AM4.2Hz_61.m4a,,,
,,,,,,,,,,,,41183,2021-05-03_20h22.02.947,judgeSpeechMusic_20210407_logNormShiftAmp,2020.1.2,MacIntel,60,,,,,,,,,,,,,,1,5.730095,,0,1,68,218,119,1,stimuli/stim_20210407_power2amp/equal_lnn_AM4.8Hz_78.m4a,,,
,,,,,,,,,,,,41183,2021-05-03_20h22.02.947,judgeSpeechMusic_20210407_logNormShiftAmp,2020.1.2,MacIntel,60,,,,,,,,,,,,,,1,7.862975,,0,1,69,219,12,1,stimuli/stim_20210407_power2amp/equal_lnn_AM0.6Hz_94.m4a,,,
,,,,,,,,,,,,41183,2021-05-03_20h22.02.947,judgeSpeechMusic_20210407_logNormShiftAmp,2020.1.2,MacIntel,60,,,,,,,,,,,,,,2,6.476175,,0,1,70,220,32,1,stimuli/stim_20210407_power2amp/equal_lnn_AM1.8Hz_23.m4a,,,
,,,,,,,,,,,,41183,2021-05-03_20h22.02.947,judgeSpeechMusic_20210407_logNormShiftAmp,2020.1.2,MacIntel,60,,,,,,,,,,,,,,2,5.945585,,0,1,71,221,136,1,stimuli/stim_20210407_power2amp/equal_lnn_AM6Hz_48.m4a,,,
,,,,,,,,,,,,41183,2021-05-03_20h22.02.947,judgeSpeechMusic_20210407_logNormShiftAmp,2020.1.2,MacIntel,60,,,,,,,,,,,,,,2,5.77867,,0,1,72,222,7,1,stimuli/stim_20210407_power2amp/equal_lnn_AM0.6Hz_50.m4a,,,
,,,,,,,,,,,,41183,2021-05-03_20h22.02.947,judgeSpeechMusic_20210407_logNormShiftAmp,2020.1.2,MacIntel,60,,,,,,,,,,,,,,1,6.046805,,0,1,73,223,72,1,stimuli/stim_20210407_power2amp/equal_lnn_AM3Hz_21.m4a,,,
,,,,,,,,,,,,41183,2021-05-03_20h22.02.947,judgeSpeechMusic_20210407_logNormShiftAmp,2020.1.2,MacIntel,60,,,,,,,,,,,,,,1,5.83723,,0,1,74,224,79,1,stimuli/stim_20210407_power2amp/equal_lnn_AM3.6Hz_89.m4a,,,
,,,,,,,,,,,,41183,2021-05-03_20h22.02.947,judgeSpeechMusic_20210407_logNormShiftAmp,2020.1.2,MacIntel,60,,,,,,,,,,,,,,1,5.757815,,0,1,75,225,93,1,stimuli/stim_20210407_power2amp/equal_lnn_AM4.2Hz_84.m4a,,,
,,,,,,,,,,,,41183,2021-05-03_20h22.02.947,judgeSpeechMusic_20210407_logNormShiftAmp,2020.1.2,MacIntel,60,,,,,,,,,,,,,,2,6.09291,,0,1,76,226,102,1,stimuli/stim_20210407_power2amp/equal_lnn_AM4.2Hz_40.m4a,,,
,,,,,,,,,,,,41183,2021-05-03_20h22.02.947,judgeSpeechMusic_20210407_logNormShiftAmp,2020.1.2,MacIntel,60,,,,,,,,,,,,,,2,5.64036,,0,1,77,227,52,1,stimuli/stim_20210407_power2amp/equal_lnn_AM2.4Hz_45.m4a,,,
,,,,,,,,,,,,41183,2021-05-03_20h22.02.947,judgeSpeechMusic_20210407_logNormShiftAmp,2020.1.2,MacIntel,60,,,,,,,,,,,,,,1,6.18074,,0,1,78,228,18,1,stimuli/stim_20210407_power2amp/equal_lnn_AM1.2Hz_40.m4a,,,
,,,,,,,,,,,,41183,2021-05-03_20h22.02.947,judgeSpeechMusic_20210407_logNormShiftAmp,2020.1.2,MacIntel,60,,,,,,,,,,,,,,1,5.87017,,0,1,79,229,129,1,stimuli/stim_20210407_power2amp/equal_lnn_AM5.4Hz_61.m4a,,,
,,,,,,,,,,,,41183,2021-05-03_20h22.02.947,judgeSpeechMusic_20210407_logNormShiftAmp,2020.1.2,MacIntel,60,,,,,,,,,,,,,,1,5.77264,,0,1,80,230,39,1,stimuli/stim_20210407_power2amp/equal_lnn_AM1.8Hz_21.m4a,,,
,,,,,,,,,,,,41183,2021-05-03_20h22.02.947,judgeSpeechMusic_20210407_logNormShiftAmp,2020.1.2,MacIntel,60,,,,,,,,,,,,,,2,5.998255,,0,1,81,231,66,1,stimuli/stim_20210407_power2amp/equal_lnn_AM3Hz_72.m4a,,,
,,,,,,,,,,,,41183,2021-05-03_20h22.02.947,judgeSpeechMusic_20210407_logNormShiftAmp,2020.1.2,MacIntel,60,,,,,,,,,,,,,,2,5.89144,,0,1,82,232,90,1,stimuli/stim_20210407_power2amp/equal_lnn_AM4.2Hz_57.m4a,,,
,,,,,,,,,,,,41183,2021-05-03_20h22.02.947,judgeSpeechMusic_20210407_logNormShiftAmp,2020.1.2,MacIntel,60,,,,,,,,,,,,,,1,6.44604,,0,1,83,233,145,1,stimuli/stim_20210407_power2amp/equal_lnn_AM6Hz_6.m4a,,,
,,,,,,,,,,,,41183,2021-05-03_20h22.02.947,judgeSpeechMusic_20210407_logNormShiftAmp,2020.1.2,MacIntel,60,,,,,,,,,,,,,,2,5.96041,4,1,1,84,234,46,1,stimuli/stim_20210407_power2amp/equal_lnn_AM2.4Hz_24.m4a,0.76507,,
,,,,,,,,,,,,41183,2021-05-03_20h22.02.947,judgeSpeechMusic_20210407_logNormShiftAmp,2020.1.2,MacIntel,60,,,,,,,,,,,,,,1,5.911475,,0,1,85,235,81,1,stimuli/stim_20210407_power2amp/equal_lnn_AM3.6Hz_7.m4a,,,
,,,,,,,,,,,,41183,2021-05-03_20h22.02.947,judgeSpeechMusic_20210407_logNormShiftAmp,2020.1.2,MacIntel,60,,,,,,,,,,,,,,1,5.813235,,0,1,86,236,44,1,stimuli/stim_20210407_power2amp/equal_lnn_AM1.8Hz_38.m4a,,,
,,,,,,,,,,,,41183,2021-05-03_20h22.02.947,judgeSpeechMusic_20210407_logNormShiftAmp,2020.1.2,MacIntel,60,,,,,,,,,,,,,,1,5.943725,,0,1,87,237,109,1,stimuli/stim_20210407_power2amp/equal_lnn_AM4.8Hz_86.m4a,,,
,,,,,,,,,,,,41183,2021-05-03_20h22.02.947,judgeSpeechMusic_20210407_logNormShiftAmp,2020.1.2,MacIntel,60,,,,,,,,,,,,,,1,5.812385,,0,1,88,238,92,1,stimuli/stim_20210407_power2amp/equal_lnn_AM4.2Hz_69.m4a,,,
,,,,,,,,,,,,41183,2021-05-03_20h22.02.947,judgeSpeechMusic_20210407_logNormShiftAmp,2020.1.2,MacIntel,60,,,,,,,,,,,,,,2,6.30233,,0,1,89,239,42,1,stimuli/stim_20210407_power2amp/equal_lnn_AM1.8Hz_73.m4a,,,
,,,,,,,,,,,,41183,2021-05-03_20h22.02.947,judgeSpeechMusic_20210407_logNormShiftAmp,2020.1.2,MacIntel,60,,,,,,,,,,,,,,1,5.83142,,0,1,90,240,113,1,stimuli/stim_20210407_power2amp/equal_lnn_AM4.8Hz_35.m4a,,,
,,,,,,,,,,,,41183,2021-05-03_20h22.02.947,judgeSpeechMusic_20210407_logNormShiftAmp,2020.1.2,MacIntel,60,,,,,,,,,,,,,,1,6.77644,,0,1,91,241,126,1,stimuli/stim_20210407_power2amp/equal_lnn_AM5.4Hz_63.m4a,,,
,,,,,,,,,,,,41183,2021-05-03_20h22.02.947,judgeSpeechMusic_20210407_logNormShiftAmp,2020.1.2,MacIntel,60,,,,,,,,,,,,,,2,6.452025,,0,1,92,242,103,1,stimuli/stim_20210407_power2amp/equal_lnn_AM4.2Hz_91.m4a,,,
,,,,,,,,,,,,41183,2021-05-03_20h22.02.947,judgeSpeechMusic_20210407_logNormShiftAmp,2020.1.2,MacIntel,60,,,,,,,,,,,,,,1,6.47333,,0,1,93,243,16,1,stimuli/stim_20210407_power2amp/equal_lnn_AM1.2Hz_43.m4a,,,
,,,,,,,,,,,,41183,2021-05-03_20h22.02.947,judgeSpeechMusic_20210407_logNormShiftAmp,2020.1.2,MacIntel,60,,,,,,,,,,,,,,1,5.93683,,0,1,94,244,85,1,stimuli/stim_20210407_power2amp/equal_lnn_AM3.6Hz_21.m4a,,,
,,,,,,,,,,,,41183,2021-05-03_20h22.02.947,judgeSpeechMusic_20210407_logNormShiftAmp,2020.1.2,MacIntel,60,,,,,,,,,,,,,,2,6.12927,,0,1,95,245,20,1,stimuli/stim_20210407_power2amp/equal_lnn_AM1.2Hz_86.m4a,,,
,,,,,,,,,,,,41183,2021-05-03_20h22.02.947,judgeSpeechMusic_20210407_logNormShiftAmp,2020.1.2,MacIntel,60,,,,,,,,,,,,,,1,5.79338,,0,1,96,246,40,1,stimuli/stim_20210407_power2amp/equal_lnn_AM1.8Hz_22.m4a,,,
,,,,,,,,,,,,41183,2021-05-03_20h22.02.947,judgeSpeechMusic_20210407_logNormShiftAmp,2020.1.2,MacIntel,60,,,,,,,,,,,,,,2,6.35817,,0,1,97,247,100,1,stimuli/stim_20210407_power2amp/equal_lnn_AM4.2Hz_28.m4a,,,
,,,,,,,,,,,,41183,2021-05-03_20h22.02.947,judgeSpeechMusic_20210407_logNormShiftAmp,2020.1.2,MacIntel,60,,,,,,,,,,,,,,1,5.91049,,0,1,98,248,128,1,stimuli/stim_20210407_power2amp/equal_lnn_AM5.4Hz_41.m4a,,,
,,,,,,,,,,,,41183,2021-05-03_20h22.02.947,judgeSpeechMusic_20210407_logNormShiftAmp,2020.1.2,MacIntel,60,,,,,,,,,,,,,,2,5.9448,,0,1,99,249,33,1,stimuli/stim_20210407_power2amp/equal_lnn_AM1.8Hz_65.m4a,,,
,,,,,,,,,,,,41183,2021-05-03_20h22.02.947,judgeSpeechMusic_20210407_logNormShiftAmp,2020.1.2,MacIntel,60,,,,,,,,,,,,,,1,6.11061,,0,1,100,250,96,1,stimuli/stim_20210407_power2amp/equal_lnn_AM4.2Hz_65.m4a,,,
,,,,,,,,,,,,41183,2021-05-03_20h22.02.947,judgeSpeechMusic_20210407_logNormShiftAmp,2020.1.2,MacIntel,60,,,,,,,,,,,,,,2,6.3598,,0,1,101,251,31,1,stimuli/stim_20210407_power2amp/equal_lnn_AM1.8Hz_58.m4a,,,
,,,,,,,,,,,,41183,2021-05-03_20h22.02.947,judgeSpeechMusic_20210407_logNormShiftAmp,2020.1.2,MacIntel,60,,,,,,,,,,,,,,1,6.311475,,0,1,102,252,133,1,stimuli/stim_20210407_power2amp/equal_lnn_AM5.4Hz_21.m4a,,,
,,,,,,,,,,,,41183,2021-05-03_20h22.02.947,judgeSpeechMusic_20210407_logNormShiftAmp,2020.1.2,MacIntel,60,,,,,,,,,,,,,,1,5.926785,,0,1,103,253,2,1,stimuli/stim_20210407_power2amp/equal_lnn_AM0.6Hz_63.m4a,,,
,,,,,,,,,,,,41183,2021-05-03_20h22.02.947,judgeSpeechMusic_20210407_logNormShiftAmp,2020.1.2,MacIntel,60,,,,,,,,,,,,,,2,6.126245,,0,1,104,254,48,1,stimuli/stim_20210407_power2amp/equal_lnn_AM2.4Hz_75.m4a,,,
,,,,,,,,,,,,41183,2021-05-03_20h22.02.947,judgeSpeechMusic_20210407_logNormShiftAmp,2020.1.2,MacIntel,60,,,,,,,,,,,,,,1,5.82158,,0,1,105,255,138,1,stimuli/stim_20210407_power2amp/equal_lnn_AM6Hz_80.m4a,,,
,,,,,,,,,,,,41183,2021-05-03_20h22.02.947,judgeSpeechMusic_20210407_logNormShiftAmp,2020.1.2,MacIntel,60,,,,,,,,,,,,,,1,5.98043,,0,1,106,256,14,1,stimuli/stim_20210407_power2amp/equal_lnn_AM0.6Hz_55.m4a,,,
,,,,,,,,,,,,41183,2021-05-03_20h22.02.947,judgeSpeechMusic_20210407_logNormShiftAmp,2020.1.2,MacIntel,60,,,,,,,,,,,,,,2,6.47581,1,1,1,107,257,17,1,stimuli/stim_20210407_power2amp/equal_lnn_AM1.2Hz_47.m4a,1.928505,,
,,,,,,,,,,,,41183,2021-05-03_20h22.02.947,judgeSpeechMusic_20210407_logNormShiftAmp,2020.1.2,MacIntel,60,,,,,,,,,,,,,,2,7.09541,,0,1,108,258,15,1,stimuli/stim_20210407_power2amp/equal_lnn_AM1.2Hz_25.m4a,,,
,,,,,,,,,,,,41183,2021-05-03_20h22.02.947,judgeSpeechMusic_20210407_logNormShiftAmp,2020.1.2,MacIntel,60,,,,,,,,,,,,,,2,6.41219,,0,1,109,259,89,1,stimuli/stim_20210407_power2amp/equal_lnn_AM3.6Hz_57.m4a,,,
,,,,,,,,,,,,41183,2021-05-03_20h22.02.947,judgeSpeechMusic_20210407_logNormShiftAmp,2020.1.2,MacIntel,60,,,,,,,,,,,,,,1,5.91688,,0,1,110,260,115,1,stimuli/stim_20210407_power2amp/equal_lnn_AM4.8Hz_55.m4a,,,
,,,,,,,,,,,,41183,2021-05-03_20h22.02.947,judgeSpeechMusic_20210407_logNormShiftAmp,2020.1.2,MacIntel,60,,,,,,,,,,,,,,2,6.44218,,0,1,111,261,47,1,stimuli/stim_20210407_power2amp/equal_lnn_AM2.4Hz_29.m4a,,,
,,,,,,,,,,,,41183,2021-05-03_20h22.02.947,judgeSpeechMusic_20210407_logNormShiftAmp,2020.1.2,MacIntel,60,,,,,,,,,,,,,,1,5.74649,,0,1,112,262,59,1,stimuli/stim_20210407_power2amp/equal_lnn_AM2.4Hz_46.m4a,,,
,,,,,,,,,,,,41183,2021-05-03_20h22.02.947,judgeSpeechMusic_20210407_logNormShiftAmp,2020.1.2,MacIntel,60,,,,,,,,,,,,,,2,6.14348,,0,1,113,263,28,1,stimuli/stim_20210407_power2amp/equal_lnn_AM1.2Hz_80.m4a,,,
,,,,,,,,,,,,41183,2021-05-03_20h22.02.947,judgeSpeechMusic_20210407_logNormShiftAmp,2020.1.2,MacIntel,60,,,,,,,,,,,,,,1,6.00468,,0,1,114,264,130,1,stimuli/stim_20210407_power2amp/equal_lnn_AM5.4Hz_8.m4a,,,
,,,,,,,,,,,,41183,2021-05-03_20h22.02.947,judgeSpeechMusic_20210407_logNormShiftAmp,2020.1.2,MacIntel,60,,,,,,,,,,,,,,2,6.430165,,0,1,115,265,38,1,stimuli/stim_20210407_power2amp/equal_lnn_AM1.8Hz_68.m4a,,,
,,,,,,,,,,,,41183,2021-05-03_20h22.02.947,judgeSpeechMusic_20210407_logNormShiftAmp,2020.1.2,MacIntel,60,,,,,,,,,,,,,,1,5.811995,,0,1,116,266,78,1,stimuli/stim_20210407_power2amp/equal_lnn_AM3.6Hz_94.m4a,,,
,,,,,,,,,,,,41183,2021-05-03_20h22.02.947,judgeSpeechMusic_20210407_logNormShiftAmp,2020.1.2,MacIntel,60,,,,,,,,,,,,,,2,6.078405,,0,1,117,267,27,1,stimuli/stim_20210407_power2amp/equal_lnn_AM1.2Hz_41.m4a,,,
,,,,,,,,,,,,41183,2021-05-03_20h22.02.947,judgeSpeechMusic_20210407_logNormShiftAmp,2020.1.2,MacIntel,60,,,,,,,,,,,,,,1,5.978035,,0,1,118,268,51,1,stimuli/stim_20210407_power2amp/equal_lnn_AM2.4Hz_95.m4a,,,
,,,,,,,,,,,,41183,2021-05-03_20h22.02.947,judgeSpeechMusic_20210407_logNormShiftAmp,2020.1.2,MacIntel,60,,,,,,,,,,,,,,2,5.664405,,0,1,119,269,110,1,stimuli/stim_20210407_power2amp/equal_lnn_AM4.8Hz_95.m4a,,,
,,,,,,,,,,,,41183,2021-05-03_20h22.02.947,judgeSpeechMusic_20210407_logNormShiftAmp,2020.1.2,MacIntel,60,,,,,,,,,,,,,,1,8.02443,,0,1,120,270,0,1,stimuli/stim_20210407_power2amp/equal_lnn_AM0.6Hz_75.m4a,,,
,,,,,,,,,,,,41183,2021-05-03_20h22.02.947,judgeSpeechMusic_20210407_logNormShiftAmp,2020.1.2,MacIntel,60,,,,,,,,,,,,,,2,5.759445,,0,1,121,271,116,1,stimuli/stim_20210407_power2amp/equal_lnn_AM4.8Hz_30.m4a,,,
,,,,,,,,,,,,41183,2021-05-03_20h22.02.947,judgeSpeechMusic_20210407_logNormShiftAmp,2020.1.2,MacIntel,60,,,,,,,,,,,,,,2,5.90997,,0,1,122,272,97,1,stimuli/stim_20210407_power2amp/equal_lnn_AM4.2Hz_64.m4a,,,
,,,,,,,,,,,,41183,2021-05-03_20h22.02.947,judgeSpeechMusic_20210407_logNormShiftAmp,2020.1.2,MacIntel,60,,,,,,,,,,,,,,1,21.03667,,0,1,123,273,69,1,stimuli/stim_20210407_power2amp/equal_lnn_AM3Hz_4.m4a,,,
,,,,,,,,,,,,41183,2021-05-03_20h22.02.947,judgeSpeechMusic_20210407_logNormShiftAmp,2020.1.2,MacIntel,60,,,,,,,,,,,,,,1,10.026705,,0,1,124,274,125,1,stimuli/stim_20210407_power2amp/equal_lnn_AM5.4Hz_45.m4a,,,
,,,,,,,,,,,,41183,2021-05-03_20h22.02.947,judgeSpeechMusic_20210407_logNormShiftAmp,2020.1.2,MacIntel,60,,,,,,,,,,,,,,1,5.828255,,0,1,125,275,30,1,stimuli/stim_20210407_power2amp/equal_lnn_AM1.8Hz_26.m4a,,,
,,,,,,,,,,,,41183,2021-05-03_20h22.02.947,judgeSpeechMusic_20210407_logNormShiftAmp,2020.1.2,MacIntel,60,,,,,,,,,,,,,,2,6.62462,,0,1,126,276,29,1,stimuli/stim_20210407_power2amp/equal_lnn_AM1.2Hz_45.m4a,,,
,,,,,,,,,,,,41183,2021-05-03_20h22.02.947,judgeSpeechMusic_20210407_logNormShiftAmp,2020.1.2,MacIntel,60,,,,,,,,,,,,,,2,7.812295,,0,1,127,277,94,1,stimuli/stim_20210407_power2amp/equal_lnn_AM4.2Hz_22.m4a,,,
,,,,,,,,,,,,41183,2021-05-03_20h22.02.947,judgeSpeechMusic_20210407_logNormShiftAmp,2020.1.2,MacIntel,60,,,,,,,,,,,,,,1,6.827235,,0,1,128,278,139,1,stimuli/stim_20210407_power2amp/equal_lnn_AM6Hz_62.m4a,,,
,,,,,,,,,,,,41183,2021-05-03_20h22.02.947,judgeSpeechMusic_20210407_logNormShiftAmp,2020.1.2,MacIntel,60,,,,,,,,,,,,,,2,5.962065,,0,1,129,279,41,1,stimuli/stim_20210407_power2amp/equal_lnn_AM1.8Hz_30.m4a,,,
,,,,,,,,,,,,41183,2021-05-03_20h22.02.947,judgeSpeechMusic_20210407_logNormShiftAmp,2020.1.2,MacIntel,60,,,,,,,,,,,,,,1,6.631675,,0,1,130,280,118,1,stimuli/stim_20210407_power2amp/equal_lnn_AM4.8Hz_28.m4a,,,
,,,,,,,,,,,,41183,2021-05-03_20h22.02.947,judgeSpeechMusic_20210407_logNormShiftAmp,2020.1.2,MacIntel,60,,,,,,,,,,,,,,1,10.261475,2,1,1,131,281,98,1,stimuli/stim_20210407_power2amp/equal_lnn_AM4.2Hz_5.m4a,2.199855,,
,,,,,,,,,,,,41183,2021-05-03_20h22.02.947,judgeSpeechMusic_20210407_logNormShiftAmp,2020.1.2,MacIntel,60,,,,,,,,,,,,,,2,6.28975,,0,1,132,282,108,1,stimuli/stim_20210407_power2amp/equal_lnn_AM4.8Hz_69.m4a,,,
,,,,,,,,,,,,41183,2021-05-03_20h22.02.947,judgeSpeechMusic_20210407_logNormShiftAmp,2020.1.2,MacIntel,60,,,,,,,,,,,,,,1,6.379255,,0,1,133,283,34,1,stimuli/stim_20210407_power2amp/equal_lnn_AM1.8Hz_75.m4a,,,
,,,,,,,,,,,,41183,2021-05-03_20h22.02.947,judgeSpeechMusic_20210407_logNormShiftAmp,2020.1.2,MacIntel,60,,,,,,,,,,,,,,2,6.74417,,0,1,134,284,71,1,stimuli/stim_20210407_power2amp/equal_lnn_AM3Hz_57.m4a,,,
,,,,,,,,,,,,41183,2021-05-03_20h22.02.947,judgeSpeechMusic_20210407_logNormShiftAmp,2020.1.2,MacIntel,60,,,,,,,,,,,,,,1,6.2136,,0,1,135,285,9,1,stimuli/stim_20210407_power2amp/equal_lnn_AM0.6Hz_58.m4a,,,
,,,,,,,,,,,,41183,2021-05-03_20h22.02.947,judgeSpeechMusic_20210407_logNormShiftAmp,2020.1.2,MacIntel,60,,,,,,,,,,,,,,2,6.10464,,0,1,136,286,62,1,stimuli/stim_20210407_power2amp/equal_lnn_AM3Hz_64.m4a,,,
,,,,,,,,,,,,41183,2021-05-03_20h22.02.947,judgeSpeechMusic_20210407_logNormShiftAmp,2020.1.2,MacIntel,60,,,,,,,,,,,,,,1,6.206715,,0,1,137,287,87,1,stimuli/stim_20210407_power2amp/equal_lnn_AM3.6Hz_9.m4a,,,
,,,,,,,,,,,,41183,2021-05-03_20h22.02.947,judgeSpeechMusic_20210407_logNormShiftAmp,2020.1.2,MacIntel,60,,,,,,,,,,,,,,1,7.561765,,0,1,138,288,49,1,stimuli/stim_20210407_power2amp/equal_lnn_AM2.4Hz_23.m4a,,,
,,,,,,,,,,,,41183,2021-05-03_20h22.02.947,judgeSpeechMusic_20210407_logNormShiftAmp,2020.1.2,MacIntel,60,,,,,,,,,,,,,,2,6.04249,,0,1,139,289,74,1,stimuli/stim_20210407_power2amp/equal_lnn_AM3Hz_81.m4a,,,
,,,,,,,,,,,,41183,2021-05-03_20h22.02.947,judgeSpeechMusic_20210407_logNormShiftAmp,2020.1.2,MacIntel,60,,,,,,,,,,,,,,1,10.04092,,0,1,140,290,132,1,stimuli/stim_20210407_power2amp/equal_lnn_AM5.4Hz_23.m4a,,,
,,,,,,,,,,,,41183,2021-05-03_20h22.02.947,judgeSpeechMusic_20210407_logNormShiftAmp,2020.1.2,MacIntel,60,,,,,,,,,,,,,,2,6.32486,,0,1,141,291,101,1,stimuli/stim_20210407_power2amp/equal_lnn_AM4.2Hz_92.m4a,,,
,,,,,,,,,,,,41183,2021-05-03_20h22.02.947,judgeSpeechMusic_20210407_logNormShiftAmp,2020.1.2,MacIntel,60,,,,,,,,,,,,,,1,6.67547,,0,1,142,292,146,1,stimuli/stim_20210407_power2amp/equal_lnn_AM6Hz_11.m4a,,,
,,,,,,,,,,,,41183,2021-05-03_20h22.02.947,judgeSpeechMusic_20210407_logNormShiftAmp,2020.1.2,MacIntel,60,,,,,,,,,,,,,,2,6.26449,,0,1,143,293,107,1,stimuli/stim_20210407_power2amp/equal_lnn_AM4.8Hz_100.m4a,,,
,,,,,,,,,,,,41183,2021-05-03_20h22.02.947,judgeSpeechMusic_20210407_logNormShiftAmp,2020.1.2,MacIntel,60,,,,,,,,,,,,,,1,6.119115,,0,1,144,294,65,1,stimuli/stim_20210407_power2amp/equal_lnn_AM3Hz_96.m4a,,,
,,,,,,,,,,,,41183,2021-05-03_20h22.02.947,judgeSpeechMusic_20210407_logNormShiftAmp,2020.1.2,MacIntel,60,,,,,,,,,,,,,,2,5.74366,,0,1,145,295,127,1,stimuli/stim_20210407_power2amp/equal_lnn_AM5.4Hz_29.m4a,,,
,,,,,,,,,,,,41183,2021-05-03_20h22.02.947,judgeSpeechMusic_20210407_logNormShiftAmp,2020.1.2,MacIntel,60,,,,,,,,,,,,,,1,5.82691,,0,1,146,296,91,1,stimuli/stim_20210407_power2amp/equal_lnn_AM4.2Hz_49.m4a,,,
,,,,,,,,,,,,41183,2021-05-03_20h22.02.947,judgeSpeechMusic_20210407_logNormShiftAmp,2020.1.2,MacIntel,60,,,,,,,,,,,,,,1,5.764015,,0,1,147,297,45,1,stimuli/stim_20210407_power2amp/equal_lnn_AM2.4Hz_7.m4a,,,
,,,,,,,,,,,,41183,2021-05-03_20h22.02.947,judgeSpeechMusic_20210407_logNormShiftAmp,2020.1.2,MacIntel,60,,,,,,,,,,,,,,1,6.273025,,0,1,148,298,23,1,stimuli/stim_20210407_power2amp/equal_lnn_AM1.2Hz_3.m4a,,,
,,,,,,,,,,,,41183,2021-05-03_20h22.02.947,judgeSpeechMusic_20210407_logNormShiftAmp,2020.1.2,MacIntel,60,,,,,,,,,,,,,,2,6.52943,,0,1,149,299,105,1,stimuli/stim_20210407_power2amp/equal_lnn_AM4.8Hz_15.m4a,,,
,,,,,,,,,,,,41183,2021-05-03_20h22.02.947,judgeSpeechMusic_20210407_logNormShiftAmp,2020.1.2,MacIntel,60,,,,,,,,,,,,,,,,,,,,,,,,,space,1.57172
