headphoneResponse.keys,headphoneResponse.corr,headphoneResponse.rt,headphoneTrial.thisRepN,headphoneTrial.thisTrialN,headphoneTrial.thisN,headphoneTrial.thisIndex,headphoneTrial.ran,headphone_sound1,headphone_sound2,headphone_sound3,corrAns,participant,date,expName,psychopyVersion,OS,frameRate,trainSlider.response,trainSlider.rt,beepTrainResponse.keys,beepTrainResponse.corr,trainingTrials.thisRepN,trainingTrials.thisTrialN,trainingTrials.thisN,trainingTrials.thisIndex,trainingTrials.ran,trainAudioFile,beepTrainResponse.rt,readyReal_resp.keys,readyReal_resp.rt,ratingSlider.response,ratingSlider.rt,beepResp.keys,beepResp.corr,expTrials.thisRepN,expTrials.thisTrialN,expTrials.thisN,expTrials.thisIndex,expTrials.ran,audioFile,beepResp.rt,end_resp.keys,end_resp.rt
1,1,0.533015,0,0,0,4,1,stimuli/screen_quiet.wav,stimuli/screen_antiphase.wav,stimuli/screen_origin.wav,1,41182,2021-05-10_18h26.27.652,judgeSpeechMusic_20210407_logNormShiftAmp,2020.1.2,Win32,60,,,,,,,,,,,,,,,,,,,,,,,,,,
1,1,0.269495,0,1,1,5,1,stimuli/screen_quiet.wav,stimuli/screen_origin.wav,stimuli/screen_antiphase.wav,1,41182,2021-05-10_18h26.27.652,judgeSpeechMusic_20210407_logNormShiftAmp,2020.1.2,Win32,60,,,,,,,,,,,,,,,,,,,,,,,,,,
3,0,3.77818,0,2,2,1,1,stimuli/screen_antiphase.wav,stimuli/screen_quiet.wav,stimuli/screen_origin.wav,2,41182,2021-05-10_18h26.27.652,judgeSpeechMusic_20210407_logNormShiftAmp,2020.1.2,Win32,60,,,,,,,,,,,,,,,,,,,,,,,,,,
2,1,0.76312,0,3,3,3,1,stimuli/screen_origin.wav,stimuli/screen_quiet.wav,stimuli/screen_antiphase.wav,2,41182,2021-05-10_18h26.27.652,judgeSpeechMusic_20210407_logNormShiftAmp,2020.1.2,Win32,60,,,,,,,,,,,,,,,,,,,,,,,,,,
3,1,0.17597,0,4,4,0,1,stimuli/screen_antiphase.wav,stimuli/screen_origin.wav,stimuli/screen_quiet.wav,3,41182,2021-05-10_18h26.27.652,judgeSpeechMusic_20210407_logNormShiftAmp,2020.1.2,Win32,60,,,,,,,,,,,,,,,,,,,,,,,,,,
3,1,0.73899,0,5,5,2,1,stimuli/screen_origin.wav,stimuli/screen_antiphase.wav,stimuli/screen_quiet.wav,3,41182,2021-05-10_18h26.27.652,judgeSpeechMusic_20210407_logNormShiftAmp,2020.1.2,Win32,60,,,,,,,,,,,,,,,,,,,,,,,,,,
,,,,,,,,,,,,41182,2021-05-10_18h26.27.652,judgeSpeechMusic_20210407_logNormShiftAmp,2020.1.2,Win32,60,2,18.398805,,0,0,0,0,3,1,stimuli/stim_20210407_power2amp/equal_lnn_AM_training5.1Hz.m4a,,,,,,,,,,,,,,,,
,,,,,,,,,,,,41182,2021-05-10_18h26.27.652,judgeSpeechMusic_20210407_logNormShiftAmp,2020.1.2,Win32,60,2,7.95816,,0,0,1,1,0,1,stimuli/stim_20210407_power2amp/equal_lnn_AM_training1.5Hz.m4a,,,,,,,,,,,,,,,,
,,,,,,,,,,,,41182,2021-05-10_18h26.27.652,judgeSpeechMusic_20210407_logNormShiftAmp,2020.1.2,Win32,60,1,6.32501,1,1,0,2,2,1,1,stimuli/stim_20210407_power2amp/equal_lnn_AM_training2.7Hz.m4a,3.84251,,,,,,,,,,,,,,,
,,,,,,,,,,,,41182,2021-05-10_18h26.27.652,judgeSpeechMusic_20210407_logNormShiftAmp,2020.1.2,Win32,60,1,7.427165,,0,0,3,3,2,1,stimuli/stim_20210407_power2amp/equal_lnn_AM_training3.9Hz.m4a,,,,,,,,,,,,,,,,
,,,,,,,,,,,,41182,2021-05-10_18h26.27.652,judgeSpeechMusic_20210407_logNormShiftAmp,2020.1.2,Win32,60,,,,,,,,,,,,space,7.492345,1,7.581425,,0,0,0,0,145,1,stimuli/stim_20210407_power2amp/equal_lnn_AM6Hz_41.m4a,,,
,,,,,,,,,,,,41182,2021-05-10_18h26.27.652,judgeSpeechMusic_20210407_logNormShiftAmp,2020.1.2,Win32,60,,,,,,,,,,,,,,2,6.95954,,0,0,1,1,93,1,stimuli/stim_20210407_power2amp/equal_lnn_AM4.2Hz_49.m4a,,,
,,,,,,,,,,,,41182,2021-05-10_18h26.27.652,judgeSpeechMusic_20210407_logNormShiftAmp,2020.1.2,Win32,60,,,,,,,,,,,,,,1,6.84182,,0,0,2,2,78,1,stimuli/stim_20210407_power2amp/equal_lnn_AM3.6Hz_95.m4a,,,
,,,,,,,,,,,,41182,2021-05-10_18h26.27.652,judgeSpeechMusic_20210407_logNormShiftAmp,2020.1.2,Win32,60,,,,,,,,,,,,,,1,5.977675,,0,0,3,3,33,1,stimuli/stim_20210407_power2amp/equal_lnn_AM1.8Hz_26.m4a,,,
,,,,,,,,,,,,41182,2021-05-10_18h26.27.652,judgeSpeechMusic_20210407_logNormShiftAmp,2020.1.2,Win32,60,,,,,,,,,,,,,,1,5.80717,,0,0,4,4,26,1,stimuli/stim_20210407_power2amp/equal_lnn_AM1.2Hz_32.m4a,,,
,,,,,,,,,,,,41182,2021-05-10_18h26.27.652,judgeSpeechMusic_20210407_logNormShiftAmp,2020.1.2,Win32,60,,,,,,,,,,,,,,2,5.81126,,0,0,5,5,102,1,stimuli/stim_20210407_power2amp/equal_lnn_AM4.2Hz_80.m4a,,,
,,,,,,,,,,,,41182,2021-05-10_18h26.27.652,judgeSpeechMusic_20210407_logNormShiftAmp,2020.1.2,Win32,60,,,,,,,,,,,,,,2,5.809195,,0,0,6,6,69,1,stimuli/stim_20210407_power2amp/equal_lnn_AM3Hz_29.m4a,,,
,,,,,,,,,,,,41182,2021-05-10_18h26.27.652,judgeSpeechMusic_20210407_logNormShiftAmp,2020.1.2,Win32,60,,,,,,,,,,,,,,2,6.013415,,0,0,7,7,62,1,stimuli/stim_20210407_power2amp/equal_lnn_AM3Hz_10.m4a,,,
,,,,,,,,,,,,41182,2021-05-10_18h26.27.652,judgeSpeechMusic_20210407_logNormShiftAmp,2020.1.2,Win32,60,,,,,,,,,,,,,,1,5.91405,,0,0,8,8,140,1,stimuli/stim_20210407_power2amp/equal_lnn_AM6Hz_84.m4a,,,
,,,,,,,,,,,,41182,2021-05-10_18h26.27.652,judgeSpeechMusic_20210407_logNormShiftAmp,2020.1.2,Win32,60,,,,,,,,,,,,,,1,6.59343,,0,0,9,9,143,1,stimuli/stim_20210407_power2amp/equal_lnn_AM6Hz_56.m4a,,,
,,,,,,,,,,,,41182,2021-05-10_18h26.27.652,judgeSpeechMusic_20210407_logNormShiftAmp,2020.1.2,Win32,60,,,,,,,,,,,,,,2,6.12166,,0,0,10,10,56,1,stimuli/stim_20210407_power2amp/equal_lnn_AM2.4Hz_77.m4a,,,
,,,,,,,,,,,,41182,2021-05-10_18h26.27.652,judgeSpeechMusic_20210407_logNormShiftAmp,2020.1.2,Win32,60,,,,,,,,,,,,,,2,6.89111,,0,0,11,11,31,1,stimuli/stim_20210407_power2amp/equal_lnn_AM1.8Hz_7.m4a,,,
,,,,,,,,,,,,41182,2021-05-10_18h26.27.652,judgeSpeechMusic_20210407_logNormShiftAmp,2020.1.2,Win32,60,,,,,,,,,,,,,,1,5.9073,,0,0,12,12,10,1,stimuli/stim_20210407_power2amp/equal_lnn_AM0.6Hz_27.m4a,,,
,,,,,,,,,,,,41182,2021-05-10_18h26.27.652,judgeSpeechMusic_20210407_logNormShiftAmp,2020.1.2,Win32,60,,,,,,,,,,,,,,2,5.94109,,0,0,13,13,122,1,stimuli/stim_20210407_power2amp/equal_lnn_AM5.4Hz_94.m4a,,,
,,,,,,,,,,,,41182,2021-05-10_18h26.27.652,judgeSpeechMusic_20210407_logNormShiftAmp,2020.1.2,Win32,60,,,,,,,,,,,,,,2,5.65836,,0,0,14,14,139,1,stimuli/stim_20210407_power2amp/equal_lnn_AM6Hz_13.m4a,,,
,,,,,,,,,,,,41182,2021-05-10_18h26.27.652,judgeSpeechMusic_20210407_logNormShiftAmp,2020.1.2,Win32,60,,,,,,,,,,,,,,1,5.86496,,0,0,15,15,15,1,stimuli/stim_20210407_power2amp/equal_lnn_AM1.2Hz_4.m4a,,,
,,,,,,,,,,,,41182,2021-05-10_18h26.27.652,judgeSpeechMusic_20210407_logNormShiftAmp,2020.1.2,Win32,60,,,,,,,,,,,,,,1,6.08995,,0,0,16,16,11,1,stimuli/stim_20210407_power2amp/equal_lnn_AM0.6Hz_56.m4a,,,
,,,,,,,,,,,,41182,2021-05-10_18h26.27.652,judgeSpeechMusic_20210407_logNormShiftAmp,2020.1.2,Win32,60,,,,,,,,,,,,,,2,5.857135,,0,0,17,17,79,1,stimuli/stim_20210407_power2amp/equal_lnn_AM3.6Hz_34.m4a,,,
,,,,,,,,,,,,41182,2021-05-10_18h26.27.652,judgeSpeechMusic_20210407_logNormShiftAmp,2020.1.2,Win32,60,,,,,,,,,,,,,,2,5.83977,,0,0,18,18,135,1,stimuli/stim_20210407_power2amp/equal_lnn_AM6Hz_47.m4a,,,
,,,,,,,,,,,,41182,2021-05-10_18h26.27.652,judgeSpeechMusic_20210407_logNormShiftAmp,2020.1.2,Win32,60,,,,,,,,,,,,,,2,6.32387,,0,0,19,19,70,1,stimuli/stim_20210407_power2amp/equal_lnn_AM3Hz_2.m4a,,,
,,,,,,,,,,,,41182,2021-05-10_18h26.27.652,judgeSpeechMusic_20210407_logNormShiftAmp,2020.1.2,Win32,60,,,,,,,,,,,,,,2,6.78568,,0,0,20,20,75,1,stimuli/stim_20210407_power2amp/equal_lnn_AM3.6Hz_36.m4a,,,
,,,,,,,,,,,,41182,2021-05-10_18h26.27.652,judgeSpeechMusic_20210407_logNormShiftAmp,2020.1.2,Win32,60,,,,,,,,,,,,,,2,8.340625,,0,0,21,21,37,1,stimuli/stim_20210407_power2amp/equal_lnn_AM1.8Hz_14.m4a,,,
,,,,,,,,,,,,41182,2021-05-10_18h26.27.652,judgeSpeechMusic_20210407_logNormShiftAmp,2020.1.2,Win32,60,,,,,,,,,,,,,,1,6.258805,,0,0,22,22,105,1,stimuli/stim_20210407_power2amp/equal_lnn_AM4.8Hz_58.m4a,,,
,,,,,,,,,,,,41182,2021-05-10_18h26.27.652,judgeSpeechMusic_20210407_logNormShiftAmp,2020.1.2,Win32,60,,,,,,,,,,,,,,2,6.98073,,0,0,23,23,35,1,stimuli/stim_20210407_power2amp/equal_lnn_AM1.8Hz_85.m4a,,,
,,,,,,,,,,,,41182,2021-05-10_18h26.27.652,judgeSpeechMusic_20210407_logNormShiftAmp,2020.1.2,Win32,60,,,,,,,,,,,,,,1,6.952075,,0,0,24,24,3,1,stimuli/stim_20210407_power2amp/equal_lnn_AM0.6Hz_13.m4a,,,
,,,,,,,,,,,,41182,2021-05-10_18h26.27.652,judgeSpeechMusic_20210407_logNormShiftAmp,2020.1.2,Win32,60,,,,,,,,,,,,,,2,5.847195,,0,0,25,25,130,1,stimuli/stim_20210407_power2amp/equal_lnn_AM5.4Hz_68.m4a,,,
,,,,,,,,,,,,41182,2021-05-10_18h26.27.652,judgeSpeechMusic_20210407_logNormShiftAmp,2020.1.2,Win32,60,,,,,,,,,,,,,,2,5.670335,,0,0,26,26,125,1,stimuli/stim_20210407_power2amp/equal_lnn_AM5.4Hz_57.m4a,,,
,,,,,,,,,,,,41182,2021-05-10_18h26.27.652,judgeSpeechMusic_20210407_logNormShiftAmp,2020.1.2,Win32,60,,,,,,,,,,,,,,2,6.205315,,0,0,27,27,49,1,stimuli/stim_20210407_power2amp/equal_lnn_AM2.4Hz_84.m4a,,,
,,,,,,,,,,,,41182,2021-05-10_18h26.27.652,judgeSpeechMusic_20210407_logNormShiftAmp,2020.1.2,Win32,60,,,,,,,,,,,,,,1,6.019905,,0,0,28,28,46,1,stimuli/stim_20210407_power2amp/equal_lnn_AM2.4Hz_29.m4a,,,
,,,,,,,,,,,,41182,2021-05-10_18h26.27.652,judgeSpeechMusic_20210407_logNormShiftAmp,2020.1.2,Win32,60,,,,,,,,,,,,,,2,5.906835,,0,0,29,29,123,1,stimuli/stim_20210407_power2amp/equal_lnn_AM5.4Hz_90.m4a,,,
,,,,,,,,,,,,41182,2021-05-10_18h26.27.652,judgeSpeechMusic_20210407_logNormShiftAmp,2020.1.2,Win32,60,,,,,,,,,,,,,,2,6.310635,,0,0,30,30,74,1,stimuli/stim_20210407_power2amp/equal_lnn_AM3Hz_48.m4a,,,
,,,,,,,,,,,,41182,2021-05-10_18h26.27.652,judgeSpeechMusic_20210407_logNormShiftAmp,2020.1.2,Win32,60,,,,,,,,,,,,,,1,6.055325,,0,0,31,31,55,1,stimuli/stim_20210407_power2amp/equal_lnn_AM2.4Hz_35.m4a,,,
,,,,,,,,,,,,41182,2021-05-10_18h26.27.652,judgeSpeechMusic_20210407_logNormShiftAmp,2020.1.2,Win32,60,,,,,,,,,,,,,,2,5.797155,,0,0,32,32,127,1,stimuli/stim_20210407_power2amp/equal_lnn_AM5.4Hz_15.m4a,,,
,,,,,,,,,,,,41182,2021-05-10_18h26.27.652,judgeSpeechMusic_20210407_logNormShiftAmp,2020.1.2,Win32,60,,,,,,,,,,,,,,2,5.81452,2,1,0,33,33,63,1,stimuli/stim_20210407_power2amp/equal_lnn_AM3Hz_89.m4a,1.538695,,
,,,,,,,,,,,,41182,2021-05-10_18h26.27.652,judgeSpeechMusic_20210407_logNormShiftAmp,2020.1.2,Win32,60,,,,,,,,,,,,,,2,8.112605,,0,0,34,34,101,1,stimuli/stim_20210407_power2amp/equal_lnn_AM4.2Hz_44.m4a,,,
,,,,,,,,,,,,41182,2021-05-10_18h26.27.652,judgeSpeechMusic_20210407_logNormShiftAmp,2020.1.2,Win32,60,,,,,,,,,,,,,,1,5.788995,,0,0,35,35,24,1,stimuli/stim_20210407_power2amp/equal_lnn_AM1.2Hz_54.m4a,,,
,,,,,,,,,,,,41182,2021-05-10_18h26.27.652,judgeSpeechMusic_20210407_logNormShiftAmp,2020.1.2,Win32,60,,,,,,,,,,,,,,2,5.65505,,0,0,36,36,128,1,stimuli/stim_20210407_power2amp/equal_lnn_AM5.4Hz_74.m4a,,,
,,,,,,,,,,,,41182,2021-05-10_18h26.27.652,judgeSpeechMusic_20210407_logNormShiftAmp,2020.1.2,Win32,60,,,,,,,,,,,,,,2,6.452605,,0,0,37,37,95,1,stimuli/stim_20210407_power2amp/equal_lnn_AM4.2Hz_67.m4a,,,
,,,,,,,,,,,,41182,2021-05-10_18h26.27.652,judgeSpeechMusic_20210407_logNormShiftAmp,2020.1.2,Win32,60,,,,,,,,,,,,,,2,5.805895,,0,0,38,38,149,1,stimuli/stim_20210407_power2amp/equal_lnn_AM6Hz_31.m4a,,,
,,,,,,,,,,,,41182,2021-05-10_18h26.27.652,judgeSpeechMusic_20210407_logNormShiftAmp,2020.1.2,Win32,60,,,,,,,,,,,,,,2,6.889435,,0,0,39,39,94,1,stimuli/stim_20210407_power2amp/equal_lnn_AM4.2Hz_17.m4a,,,
,,,,,,,,,,,,41182,2021-05-10_18h26.27.652,judgeSpeechMusic_20210407_logNormShiftAmp,2020.1.2,Win32,60,,,,,,,,,,,,,,1,5.92784,,0,0,40,40,5,1,stimuli/stim_20210407_power2amp/equal_lnn_AM0.6Hz_84.m4a,,,
,,,,,,,,,,,,41182,2021-05-10_18h26.27.652,judgeSpeechMusic_20210407_logNormShiftAmp,2020.1.2,Win32,60,,,,,,,,,,,,,,1,6.197725,,0,0,41,41,0,1,stimuli/stim_20210407_power2amp/equal_lnn_AM0.6Hz_46.m4a,,,
,,,,,,,,,,,,41182,2021-05-10_18h26.27.652,judgeSpeechMusic_20210407_logNormShiftAmp,2020.1.2,Win32,60,,,,,,,,,,,,,,1,6.39377,,0,0,42,42,29,1,stimuli/stim_20210407_power2amp/equal_lnn_AM1.2Hz_43.m4a,,,
,,,,,,,,,,,,41182,2021-05-10_18h26.27.652,judgeSpeechMusic_20210407_logNormShiftAmp,2020.1.2,Win32,60,,,,,,,,,,,,,,2,6.933715,,0,0,43,43,1,1,stimuli/stim_20210407_power2amp/equal_lnn_AM0.6Hz_75.m4a,,,
,,,,,,,,,,,,41182,2021-05-10_18h26.27.652,judgeSpeechMusic_20210407_logNormShiftAmp,2020.1.2,Win32,60,,,,,,,,,,,,,,1,6.84468,,0,0,44,44,14,1,stimuli/stim_20210407_power2amp/equal_lnn_AM0.6Hz_19.m4a,,,
,,,,,,,,,,,,41182,2021-05-10_18h26.27.652,judgeSpeechMusic_20210407_logNormShiftAmp,2020.1.2,Win32,60,,,,,,,,,,,,,,2,5.864765,,0,0,45,45,47,1,stimuli/stim_20210407_power2amp/equal_lnn_AM2.4Hz_98.m4a,,,
,,,,,,,,,,,,41182,2021-05-10_18h26.27.652,judgeSpeechMusic_20210407_logNormShiftAmp,2020.1.2,Win32,60,,,,,,,,,,,,,,2,5.671825,,0,0,46,46,82,1,stimuli/stim_20210407_power2amp/equal_lnn_AM3.6Hz_46.m4a,,,
,,,,,,,,,,,,41182,2021-05-10_18h26.27.652,judgeSpeechMusic_20210407_logNormShiftAmp,2020.1.2,Win32,60,,,,,,,,,,,,,,2,5.65462,,0,0,47,47,103,1,stimuli/stim_20210407_power2amp/equal_lnn_AM4.2Hz_97.m4a,,,
,,,,,,,,,,,,41182,2021-05-10_18h26.27.652,judgeSpeechMusic_20210407_logNormShiftAmp,2020.1.2,Win32,60,,,,,,,,,,,,,,1,5.822395,,0,0,48,48,2,1,stimuli/stim_20210407_power2amp/equal_lnn_AM0.6Hz_97.m4a,,,
,,,,,,,,,,,,41182,2021-05-10_18h26.27.652,judgeSpeechMusic_20210407_logNormShiftAmp,2020.1.2,Win32,60,,,,,,,,,,,,,,2,5.950735,,0,0,49,49,76,1,stimuli/stim_20210407_power2amp/equal_lnn_AM3.6Hz_26.m4a,,,
,,,,,,,,,,,,41182,2021-05-10_18h26.27.652,judgeSpeechMusic_20210407_logNormShiftAmp,2020.1.2,Win32,60,,,,,,,,,,,,,,2,6.809295,,0,0,50,50,54,1,stimuli/stim_20210407_power2amp/equal_lnn_AM2.4Hz_83.m4a,,,
,,,,,,,,,,,,41182,2021-05-10_18h26.27.652,judgeSpeechMusic_20210407_logNormShiftAmp,2020.1.2,Win32,60,,,,,,,,,,,,,,1,6.478215,,0,0,51,51,52,1,stimuli/stim_20210407_power2amp/equal_lnn_AM2.4Hz_36.m4a,,,
,,,,,,,,,,,,41182,2021-05-10_18h26.27.652,judgeSpeechMusic_20210407_logNormShiftAmp,2020.1.2,Win32,60,,,,,,,,,,,,,,2,6.05721,,0,0,52,52,129,1,stimuli/stim_20210407_power2amp/equal_lnn_AM5.4Hz_65.m4a,,,
,,,,,,,,,,,,41182,2021-05-10_18h26.27.652,judgeSpeechMusic_20210407_logNormShiftAmp,2020.1.2,Win32,60,,,,,,,,,,,,,,1,5.666275,,0,0,53,53,43,1,stimuli/stim_20210407_power2amp/equal_lnn_AM1.8Hz_23.m4a,,,
,,,,,,,,,,,,41182,2021-05-10_18h26.27.652,judgeSpeechMusic_20210407_logNormShiftAmp,2020.1.2,Win32,60,,,,,,,,,,,,,,1,6.19217,,0,0,54,54,13,1,stimuli/stim_20210407_power2amp/equal_lnn_AM0.6Hz_17.m4a,,,
,,,,,,,,,,,,41182,2021-05-10_18h26.27.652,judgeSpeechMusic_20210407_logNormShiftAmp,2020.1.2,Win32,60,,,,,,,,,,,,,,1,7.461835,3,1,0,55,55,4,1,stimuli/stim_20210407_power2amp/equal_lnn_AM0.6Hz_7.m4a,1.246195,,
,,,,,,,,,,,,41182,2021-05-10_18h26.27.652,judgeSpeechMusic_20210407_logNormShiftAmp,2020.1.2,Win32,60,,,,,,,,,,,,,,2,5.974865,,0,0,56,56,96,1,stimuli/stim_20210407_power2amp/equal_lnn_AM4.2Hz_34.m4a,,,
,,,,,,,,,,,,41182,2021-05-10_18h26.27.652,judgeSpeechMusic_20210407_logNormShiftAmp,2020.1.2,Win32,60,,,,,,,,,,,,,,2,5.932185,,0,0,57,57,18,1,stimuli/stim_20210407_power2amp/equal_lnn_AM1.2Hz_17.m4a,,,
,,,,,,,,,,,,41182,2021-05-10_18h26.27.652,judgeSpeechMusic_20210407_logNormShiftAmp,2020.1.2,Win32,60,,,,,,,,,,,,,,2,6.02061,,0,0,58,58,72,1,stimuli/stim_20210407_power2amp/equal_lnn_AM3Hz_81.m4a,,,
,,,,,,,,,,,,41182,2021-05-10_18h26.27.652,judgeSpeechMusic_20210407_logNormShiftAmp,2020.1.2,Win32,60,,,,,,,,,,,,,,1,5.68159,,0,0,59,59,144,1,stimuli/stim_20210407_power2amp/equal_lnn_AM6Hz_37.m4a,,,
,,,,,,,,,,,,41182,2021-05-10_18h26.27.652,judgeSpeechMusic_20210407_logNormShiftAmp,2020.1.2,Win32,60,,,,,,,,,,,,,,2,6.655435,,0,0,60,60,20,1,stimuli/stim_20210407_power2amp/equal_lnn_AM1.2Hz_91.m4a,,,
,,,,,,,,,,,,41182,2021-05-10_18h26.27.652,judgeSpeechMusic_20210407_logNormShiftAmp,2020.1.2,Win32,60,,,,,,,,,,,,,,2,7.14208,,0,0,61,61,21,1,stimuli/stim_20210407_power2amp/equal_lnn_AM1.2Hz_45.m4a,,,
,,,,,,,,,,,,41182,2021-05-10_18h26.27.652,judgeSpeechMusic_20210407_logNormShiftAmp,2020.1.2,Win32,60,,,,,,,,,,,,,,2,6.343365,,0,0,62,62,80,1,stimuli/stim_20210407_power2amp/equal_lnn_AM3.6Hz_29.m4a,,,
,,,,,,,,,,,,41182,2021-05-10_18h26.27.652,judgeSpeechMusic_20210407_logNormShiftAmp,2020.1.2,Win32,60,,,,,,,,,,,,,,1,5.69242,,0,0,63,63,67,1,stimuli/stim_20210407_power2amp/equal_lnn_AM3Hz_23.m4a,,,
,,,,,,,,,,,,41182,2021-05-10_18h26.27.652,judgeSpeechMusic_20210407_logNormShiftAmp,2020.1.2,Win32,60,,,,,,,,,,,,,,1,5.83776,,0,0,64,64,115,1,stimuli/stim_20210407_power2amp/equal_lnn_AM4.8Hz_86.m4a,,,
,,,,,,,,,,,,41182,2021-05-10_18h26.27.652,judgeSpeechMusic_20210407_logNormShiftAmp,2020.1.2,Win32,60,,,,,,,,,,,,,,1,6.355785,,0,0,65,65,148,1,stimuli/stim_20210407_power2amp/equal_lnn_AM6Hz_88.m4a,,,
,,,,,,,,,,,,41182,2021-05-10_18h26.27.652,judgeSpeechMusic_20210407_logNormShiftAmp,2020.1.2,Win32,60,,,,,,,,,,,,,,1,5.98829,,0,0,66,66,81,1,stimuli/stim_20210407_power2amp/equal_lnn_AM3.6Hz_63.m4a,,,
,,,,,,,,,,,,41182,2021-05-10_18h26.27.652,judgeSpeechMusic_20210407_logNormShiftAmp,2020.1.2,Win32,60,,,,,,,,,,,,,,2,7.655895,,0,0,67,67,118,1,stimuli/stim_20210407_power2amp/equal_lnn_AM4.8Hz_40.m4a,,,
,,,,,,,,,,,,41182,2021-05-10_18h26.27.652,judgeSpeechMusic_20210407_logNormShiftAmp,2020.1.2,Win32,60,,,,,,,,,,,,,,1,6.420745,,0,0,68,68,17,1,stimuli/stim_20210407_power2amp/equal_lnn_AM1.2Hz_23.m4a,,,
,,,,,,,,,,,,41182,2021-05-10_18h26.27.652,judgeSpeechMusic_20210407_logNormShiftAmp,2020.1.2,Win32,60,,,,,,,,,,,,,,2,6.81354,,0,0,69,69,61,1,stimuli/stim_20210407_power2amp/equal_lnn_AM3Hz_34.m4a,,,
,,,,,,,,,,,,41182,2021-05-10_18h26.27.652,judgeSpeechMusic_20210407_logNormShiftAmp,2020.1.2,Win32,60,,,,,,,,,,,,,,2,7.549325,,0,0,70,70,107,1,stimuli/stim_20210407_power2amp/equal_lnn_AM4.8Hz_67.m4a,,,
,,,,,,,,,,,,41182,2021-05-10_18h26.27.652,judgeSpeechMusic_20210407_logNormShiftAmp,2020.1.2,Win32,60,,,,,,,,,,,,,,2,7.24513,,0,0,71,71,121,1,stimuli/stim_20210407_power2amp/equal_lnn_AM5.4Hz_32.m4a,,,
,,,,,,,,,,,,41182,2021-05-10_18h26.27.652,judgeSpeechMusic_20210407_logNormShiftAmp,2020.1.2,Win32,60,,,,,,,,,,,,,,1,5.83017,,0,0,72,72,117,1,stimuli/stim_20210407_power2amp/equal_lnn_AM4.8Hz_93.m4a,,,
,,,,,,,,,,,,41182,2021-05-10_18h26.27.652,judgeSpeechMusic_20210407_logNormShiftAmp,2020.1.2,Win32,60,,,,,,,,,,,,,,1,5.922275,,0,0,73,73,100,1,stimuli/stim_20210407_power2amp/equal_lnn_AM4.2Hz_3.m4a,,,
,,,,,,,,,,,,41182,2021-05-10_18h26.27.652,judgeSpeechMusic_20210407_logNormShiftAmp,2020.1.2,Win32,60,,,,,,,,,,,,,,1,6.236025,,0,0,74,74,89,1,stimuli/stim_20210407_power2amp/equal_lnn_AM3.6Hz_56.m4a,,,
,,,,,,,,,,,,41182,2021-05-10_18h26.27.652,judgeSpeechMusic_20210407_logNormShiftAmp,2020.1.2,Win32,60,,,,,,,,,,,,,,1,5.761115,,0,0,75,75,50,1,stimuli/stim_20210407_power2amp/equal_lnn_AM2.4Hz_95.m4a,,,
,,,,,,,,,,,,41182,2021-05-10_18h26.27.652,judgeSpeechMusic_20210407_logNormShiftAmp,2020.1.2,Win32,60,,,,,,,,,,,,,,1,5.636645,,0,0,76,76,39,1,stimuli/stim_20210407_power2amp/equal_lnn_AM1.8Hz_96.m4a,,,
,,,,,,,,,,,,41182,2021-05-10_18h26.27.652,judgeSpeechMusic_20210407_logNormShiftAmp,2020.1.2,Win32,60,,,,,,,,,,,,,,1,5.65711,,0,0,77,77,25,1,stimuli/stim_20210407_power2amp/equal_lnn_AM1.2Hz_79.m4a,,,
,,,,,,,,,,,,41182,2021-05-10_18h26.27.652,judgeSpeechMusic_20210407_logNormShiftAmp,2020.1.2,Win32,60,,,,,,,,,,,,,,1,5.648375,,0,0,78,78,106,1,stimuli/stim_20210407_power2amp/equal_lnn_AM4.8Hz_99.m4a,,,
,,,,,,,,,,,,41182,2021-05-10_18h26.27.652,judgeSpeechMusic_20210407_logNormShiftAmp,2020.1.2,Win32,60,,,,,,,,,,,,,,1,6.449835,1,1,0,79,79,30,1,stimuli/stim_20210407_power2amp/equal_lnn_AM1.8Hz_81.m4a,0.82744,,
,,,,,,,,,,,,41182,2021-05-10_18h26.27.652,judgeSpeechMusic_20210407_logNormShiftAmp,2020.1.2,Win32,60,,,,,,,,,,,,,,1,6.008955,,0,0,80,80,45,1,stimuli/stim_20210407_power2amp/equal_lnn_AM2.4Hz_3.m4a,,,
,,,,,,,,,,,,41182,2021-05-10_18h26.27.652,judgeSpeechMusic_20210407_logNormShiftAmp,2020.1.2,Win32,60,,,,,,,,,,,,,,1,5.79679,,0,0,81,81,84,1,stimuli/stim_20210407_power2amp/equal_lnn_AM3.6Hz_66.m4a,,,
,,,,,,,,,,,,41182,2021-05-10_18h26.27.652,judgeSpeechMusic_20210407_logNormShiftAmp,2020.1.2,Win32,60,,,,,,,,,,,,,,1,5.899545,,0,0,82,82,73,1,stimuli/stim_20210407_power2amp/equal_lnn_AM3Hz_51.m4a,,,
,,,,,,,,,,,,41182,2021-05-10_18h26.27.652,judgeSpeechMusic_20210407_logNormShiftAmp,2020.1.2,Win32,60,,,,,,,,,,,,,,1,5.643915,,0,0,83,83,119,1,stimuli/stim_20210407_power2amp/equal_lnn_AM4.8Hz_44.m4a,,,
,,,,,,,,,,,,41182,2021-05-10_18h26.27.652,judgeSpeechMusic_20210407_logNormShiftAmp,2020.1.2,Win32,60,,,,,,,,,,,,,,2,5.771915,,0,0,84,84,87,1,stimuli/stim_20210407_power2amp/equal_lnn_AM3.6Hz_41.m4a,,,
,,,,,,,,,,,,41182,2021-05-10_18h26.27.652,judgeSpeechMusic_20210407_logNormShiftAmp,2020.1.2,Win32,60,,,,,,,,,,,,,,2,6.003945,,0,0,85,85,34,1,stimuli/stim_20210407_power2amp/equal_lnn_AM1.8Hz_83.m4a,,,
,,,,,,,,,,,,41182,2021-05-10_18h26.27.652,judgeSpeechMusic_20210407_logNormShiftAmp,2020.1.2,Win32,60,,,,,,,,,,,,,,2,7.0236,,0,0,86,86,98,1,stimuli/stim_20210407_power2amp/equal_lnn_AM4.2Hz_88.m4a,,,
,,,,,,,,,,,,41182,2021-05-10_18h26.27.652,judgeSpeechMusic_20210407_logNormShiftAmp,2020.1.2,Win32,60,,,,,,,,,,,,,,1,5.8085,,0,0,87,87,124,1,stimuli/stim_20210407_power2amp/equal_lnn_AM5.4Hz_52.m4a,,,
,,,,,,,,,,,,41182,2021-05-10_18h26.27.652,judgeSpeechMusic_20210407_logNormShiftAmp,2020.1.2,Win32,60,,,,,,,,,,,,,,2,7.08226,,0,0,88,88,97,1,stimuli/stim_20210407_power2amp/equal_lnn_AM4.2Hz_46.m4a,,,
,,,,,,,,,,,,41182,2021-05-10_18h26.27.652,judgeSpeechMusic_20210407_logNormShiftAmp,2020.1.2,Win32,60,,,,,,,,,,,,,,1,5.6699,,0,0,89,89,65,1,stimuli/stim_20210407_power2amp/equal_lnn_AM3Hz_21.m4a,,,
,,,,,,,,,,,,41182,2021-05-10_18h26.27.652,judgeSpeechMusic_20210407_logNormShiftAmp,2020.1.2,Win32,60,,,,,,,,,,,,,,1,8.2952,,0,0,90,90,137,1,stimuli/stim_20210407_power2amp/equal_lnn_AM6Hz_57.m4a,,,
,,,,,,,,,,,,41182,2021-05-10_18h26.27.652,judgeSpeechMusic_20210407_logNormShiftAmp,2020.1.2,Win32,60,,,,,,,,,,,,,,2,7.257705,,0,0,91,91,109,1,stimuli/stim_20210407_power2amp/equal_lnn_AM4.8Hz_61.m4a,,,
,,,,,,,,,,,,41182,2021-05-10_18h26.27.652,judgeSpeechMusic_20210407_logNormShiftAmp,2020.1.2,Win32,60,,,,,,,,,,,,,,1,6.083225,,0,0,92,92,36,1,stimuli/stim_20210407_power2amp/equal_lnn_AM1.8Hz_39.m4a,,,
,,,,,,,,,,,,41182,2021-05-10_18h26.27.652,judgeSpeechMusic_20210407_logNormShiftAmp,2020.1.2,Win32,60,,,,,,,,,,,,,,2,7.475035,,0,0,93,93,132,1,stimuli/stim_20210407_power2amp/equal_lnn_AM5.4Hz_97.m4a,,,
,,,,,,,,,,,,41182,2021-05-10_18h26.27.652,judgeSpeechMusic_20210407_logNormShiftAmp,2020.1.2,Win32,60,,,,,,,,,,,,,,1,5.952345,,0,0,94,94,108,1,stimuli/stim_20210407_power2amp/equal_lnn_AM4.8Hz_80.m4a,,,
,,,,,,,,,,,,41182,2021-05-10_18h26.27.652,judgeSpeechMusic_20210407_logNormShiftAmp,2020.1.2,Win32,60,,,,,,,,,,,,,,1,5.74384,,0,0,95,95,86,1,stimuli/stim_20210407_power2amp/equal_lnn_AM3.6Hz_51.m4a,,,
,,,,,,,,,,,,41182,2021-05-10_18h26.27.652,judgeSpeechMusic_20210407_logNormShiftAmp,2020.1.2,Win32,60,,,,,,,,,,,,,,2,7.657585,,0,0,96,96,120,1,stimuli/stim_20210407_power2amp/equal_lnn_AM5.4Hz_28.m4a,,,
,,,,,,,,,,,,41182,2021-05-10_18h26.27.652,judgeSpeechMusic_20210407_logNormShiftAmp,2020.1.2,Win32,60,,,,,,,,,,,,,,1,6.328285,,0,0,97,97,28,1,stimuli/stim_20210407_power2amp/equal_lnn_AM1.2Hz_51.m4a,,,
,,,,,,,,,,,,41182,2021-05-10_18h26.27.652,judgeSpeechMusic_20210407_logNormShiftAmp,2020.1.2,Win32,60,,,,,,,,,,,,,,1,6.486965,,0,0,98,98,44,1,stimuli/stim_20210407_power2amp/equal_lnn_AM1.8Hz_68.m4a,,,
,,,,,,,,,,,,41182,2021-05-10_18h26.27.652,judgeSpeechMusic_20210407_logNormShiftAmp,2020.1.2,Win32,60,,,,,,,,,,,,,,1,5.83924,2,1,0,99,99,8,1,stimuli/stim_20210407_power2amp/equal_lnn_AM0.6Hz_66.m4a,2.37861,,
,,,,,,,,,,,,41182,2021-05-10_18h26.27.652,judgeSpeechMusic_20210407_logNormShiftAmp,2020.1.2,Win32,60,,,,,,,,,,,,,,1,6.90798,,0,0,100,100,59,1,stimuli/stim_20210407_power2amp/equal_lnn_AM2.4Hz_80.m4a,,,
,,,,,,,,,,,,41182,2021-05-10_18h26.27.652,judgeSpeechMusic_20210407_logNormShiftAmp,2020.1.2,Win32,60,,,,,,,,,,,,,,1,5.79891,,0,0,101,101,92,1,stimuli/stim_20210407_power2amp/equal_lnn_AM4.2Hz_43.m4a,,,
,,,,,,,,,,,,41182,2021-05-10_18h26.27.652,judgeSpeechMusic_20210407_logNormShiftAmp,2020.1.2,Win32,60,,,,,,,,,,,,,,2,5.849045,,0,0,102,102,116,1,stimuli/stim_20210407_power2amp/equal_lnn_AM4.8Hz_53.m4a,,,
,,,,,,,,,,,,41182,2021-05-10_18h26.27.652,judgeSpeechMusic_20210407_logNormShiftAmp,2020.1.2,Win32,60,,,,,,,,,,,,,,1,5.79247,,0,0,103,103,42,1,stimuli/stim_20210407_power2amp/equal_lnn_AM1.8Hz_6.m4a,,,
,,,,,,,,,,,,41182,2021-05-10_18h26.27.652,judgeSpeechMusic_20210407_logNormShiftAmp,2020.1.2,Win32,60,,,,,,,,,,,,,,1,7.699285,,0,0,104,104,23,1,stimuli/stim_20210407_power2amp/equal_lnn_AM1.2Hz_22.m4a,,,
,,,,,,,,,,,,41182,2021-05-10_18h26.27.652,judgeSpeechMusic_20210407_logNormShiftAmp,2020.1.2,Win32,60,,,,,,,,,,,,,,2,6.780785,,0,0,105,105,133,1,stimuli/stim_20210407_power2amp/equal_lnn_AM5.4Hz_43.m4a,,,
,,,,,,,,,,,,41182,2021-05-10_18h26.27.652,judgeSpeechMusic_20210407_logNormShiftAmp,2020.1.2,Win32,60,,,,,,,,,,,,,,2,6.828515,,0,0,106,106,40,1,stimuli/stim_20210407_power2amp/equal_lnn_AM1.8Hz_65.m4a,,,
,,,,,,,,,,,,41182,2021-05-10_18h26.27.652,judgeSpeechMusic_20210407_logNormShiftAmp,2020.1.2,Win32,60,,,,,,,,,,,,,,1,6.29276,,0,0,107,107,38,1,stimuli/stim_20210407_power2amp/equal_lnn_AM1.8Hz_94.m4a,,,
,,,,,,,,,,,,41182,2021-05-10_18h26.27.652,judgeSpeechMusic_20210407_logNormShiftAmp,2020.1.2,Win32,60,,,,,,,,,,,,,,2,5.7761,,0,0,108,108,111,1,stimuli/stim_20210407_power2amp/equal_lnn_AM4.8Hz_90.m4a,,,
,,,,,,,,,,,,41182,2021-05-10_18h26.27.652,judgeSpeechMusic_20210407_logNormShiftAmp,2020.1.2,Win32,60,,,,,,,,,,,,,,2,6.33559,,0,0,109,109,114,1,stimuli/stim_20210407_power2amp/equal_lnn_AM4.8Hz_20.m4a,,,
,,,,,,,,,,,,41182,2021-05-10_18h26.27.652,judgeSpeechMusic_20210407_logNormShiftAmp,2020.1.2,Win32,60,,,,,,,,,,,,,,1,5.900395,,0,0,110,110,136,1,stimuli/stim_20210407_power2amp/equal_lnn_AM6Hz_76.m4a,,,
,,,,,,,,,,,,41182,2021-05-10_18h26.27.652,judgeSpeechMusic_20210407_logNormShiftAmp,2020.1.2,Win32,60,,,,,,,,,,,,,,2,6.6648,,0,0,111,111,41,1,stimuli/stim_20210407_power2amp/equal_lnn_AM1.8Hz_57.m4a,,,
,,,,,,,,,,,,41182,2021-05-10_18h26.27.652,judgeSpeechMusic_20210407_logNormShiftAmp,2020.1.2,Win32,60,,,,,,,,,,,,,,2,6.603805,,0,0,112,112,6,1,stimuli/stim_20210407_power2amp/equal_lnn_AM0.6Hz_54.m4a,,,
,,,,,,,,,,,,41182,2021-05-10_18h26.27.652,judgeSpeechMusic_20210407_logNormShiftAmp,2020.1.2,Win32,60,,,,,,,,,,,,,,2,9.34888,,0,0,113,113,104,1,stimuli/stim_20210407_power2amp/equal_lnn_AM4.2Hz_73.m4a,,,
,,,,,,,,,,,,41182,2021-05-10_18h26.27.652,judgeSpeechMusic_20210407_logNormShiftAmp,2020.1.2,Win32,60,,,,,,,,,,,,,,1,7.071815,,0,0,114,114,60,1,stimuli/stim_20210407_power2amp/equal_lnn_AM3Hz_99.m4a,,,
,,,,,,,,,,,,41182,2021-05-10_18h26.27.652,judgeSpeechMusic_20210407_logNormShiftAmp,2020.1.2,Win32,60,,,,,,,,,,,,,,2,6.88856,,0,0,115,115,112,1,stimuli/stim_20210407_power2amp/equal_lnn_AM4.8Hz_47.m4a,,,
,,,,,,,,,,,,41182,2021-05-10_18h26.27.652,judgeSpeechMusic_20210407_logNormShiftAmp,2020.1.2,Win32,60,,,,,,,,,,,,,,2,7.713165,,0,0,116,116,57,1,stimuli/stim_20210407_power2amp/equal_lnn_AM2.4Hz_82.m4a,,,
,,,,,,,,,,,,41182,2021-05-10_18h26.27.652,judgeSpeechMusic_20210407_logNormShiftAmp,2020.1.2,Win32,60,,,,,,,,,,,,,,1,6.794925,,0,0,117,117,126,1,stimuli/stim_20210407_power2amp/equal_lnn_AM5.4Hz_21.m4a,,,
,,,,,,,,,,,,41182,2021-05-10_18h26.27.652,judgeSpeechMusic_20210407_logNormShiftAmp,2020.1.2,Win32,60,,,,,,,,,,,,,,2,6.32181,,0,0,118,118,134,1,stimuli/stim_20210407_power2amp/equal_lnn_AM5.4Hz_76.m4a,,,
,,,,,,,,,,,,41182,2021-05-10_18h26.27.652,judgeSpeechMusic_20210407_logNormShiftAmp,2020.1.2,Win32,60,,,,,,,,,,,,,,2,7.399645,,0,0,119,119,83,1,stimuli/stim_20210407_power2amp/equal_lnn_AM3.6Hz_37.m4a,,,
,,,,,,,,,,,,41182,2021-05-10_18h26.27.652,judgeSpeechMusic_20210407_logNormShiftAmp,2020.1.2,Win32,60,,,,,,,,,,,,,,2,7.225035,,0,0,120,120,71,1,stimuli/stim_20210407_power2amp/equal_lnn_AM3Hz_14.m4a,,,
,,,,,,,,,,,,41182,2021-05-10_18h26.27.652,judgeSpeechMusic_20210407_logNormShiftAmp,2020.1.2,Win32,60,,,,,,,,,,,,,,1,8.013515,,0,0,121,121,64,1,stimuli/stim_20210407_power2amp/equal_lnn_AM3Hz_30.m4a,,,
,,,,,,,,,,,,41182,2021-05-10_18h26.27.652,judgeSpeechMusic_20210407_logNormShiftAmp,2020.1.2,Win32,60,,,,,,,,,,,,,,2,17.80888,2,1,0,122,122,16,1,stimuli/stim_20210407_power2amp/equal_lnn_AM1.2Hz_58.m4a,1.89322,,
,,,,,,,,,,,,41182,2021-05-10_18h26.27.652,judgeSpeechMusic_20210407_logNormShiftAmp,2020.1.2,Win32,60,,,,,,,,,,,,,,2,7.681005,,0,0,123,123,138,1,stimuli/stim_20210407_power2amp/equal_lnn_AM6Hz_82.m4a,,,
,,,,,,,,,,,,41182,2021-05-10_18h26.27.652,judgeSpeechMusic_20210407_logNormShiftAmp,2020.1.2,Win32,60,,,,,,,,,,,,,,1,6.019315,,0,0,124,124,22,1,stimuli/stim_20210407_power2amp/equal_lnn_AM1.2Hz_70.m4a,,,
,,,,,,,,,,,,41182,2021-05-10_18h26.27.652,judgeSpeechMusic_20210407_logNormShiftAmp,2020.1.2,Win32,60,,,,,,,,,,,,,,2,8.224925,,0,0,125,125,141,1,stimuli/stim_20210407_power2amp/equal_lnn_AM6Hz_79.m4a,,,
,,,,,,,,,,,,41182,2021-05-10_18h26.27.652,judgeSpeechMusic_20210407_logNormShiftAmp,2020.1.2,Win32,60,,,,,,,,,,,,,,1,7.190265,,0,0,126,126,53,1,stimuli/stim_20210407_power2amp/equal_lnn_AM2.4Hz_40.m4a,,,
,,,,,,,,,,,,41182,2021-05-10_18h26.27.652,judgeSpeechMusic_20210407_logNormShiftAmp,2020.1.2,Win32,60,,,,,,,,,,,,,,2,8.93317,,0,0,127,127,51,1,stimuli/stim_20210407_power2amp/equal_lnn_AM2.4Hz_37.m4a,,,
,,,,,,,,,,,,41182,2021-05-10_18h26.27.652,judgeSpeechMusic_20210407_logNormShiftAmp,2020.1.2,Win32,60,,,,,,,,,,,,,,2,6.83121,,0,0,128,128,66,1,stimuli/stim_20210407_power2amp/equal_lnn_AM3Hz_74.m4a,,,
,,,,,,,,,,,,41182,2021-05-10_18h26.27.652,judgeSpeechMusic_20210407_logNormShiftAmp,2020.1.2,Win32,60,,,,,,,,,,,,,,1,5.705675,,0,0,129,129,142,1,stimuli/stim_20210407_power2amp/equal_lnn_AM6Hz_59.m4a,,,
,,,,,,,,,,,,41182,2021-05-10_18h26.27.652,judgeSpeechMusic_20210407_logNormShiftAmp,2020.1.2,Win32,60,,,,,,,,,,,,,,1,7.815045,,0,0,130,130,12,1,stimuli/stim_20210407_power2amp/equal_lnn_AM0.6Hz_16.m4a,,,
,,,,,,,,,,,,41182,2021-05-10_18h26.27.652,judgeSpeechMusic_20210407_logNormShiftAmp,2020.1.2,Win32,60,,,,,,,,,,,,,,1,6.223645,,0,0,131,131,110,1,stimuli/stim_20210407_power2amp/equal_lnn_AM4.8Hz_87.m4a,,,
,,,,,,,,,,,,41182,2021-05-10_18h26.27.652,judgeSpeechMusic_20210407_logNormShiftAmp,2020.1.2,Win32,60,,,,,,,,,,,,,,1,6.649555,,0,0,132,132,113,1,stimuli/stim_20210407_power2amp/equal_lnn_AM4.8Hz_91.m4a,,,
,,,,,,,,,,,,41182,2021-05-10_18h26.27.652,judgeSpeechMusic_20210407_logNormShiftAmp,2020.1.2,Win32,60,,,,,,,,,,,,,,1,5.90955,,0,0,133,133,85,1,stimuli/stim_20210407_power2amp/equal_lnn_AM3.6Hz_2.m4a,,,
,,,,,,,,,,,,41182,2021-05-10_18h26.27.652,judgeSpeechMusic_20210407_logNormShiftAmp,2020.1.2,Win32,60,,,,,,,,,,,,,,1,7.551115,,0,0,134,134,58,1,stimuli/stim_20210407_power2amp/equal_lnn_AM2.4Hz_91.m4a,,,
,,,,,,,,,,,,41182,2021-05-10_18h26.27.652,judgeSpeechMusic_20210407_logNormShiftAmp,2020.1.2,Win32,60,,,,,,,,,,,,,,1,6.65654,,0,0,135,135,9,1,stimuli/stim_20210407_power2amp/equal_lnn_AM0.6Hz_50.m4a,,,
,,,,,,,,,,,,41182,2021-05-10_18h26.27.652,judgeSpeechMusic_20210407_logNormShiftAmp,2020.1.2,Win32,60,,,,,,,,,,,,,,1,6.12834,,0,0,136,136,91,1,stimuli/stim_20210407_power2amp/equal_lnn_AM4.2Hz_39.m4a,,,
,,,,,,,,,,,,41182,2021-05-10_18h26.27.652,judgeSpeechMusic_20210407_logNormShiftAmp,2020.1.2,Win32,60,,,,,,,,,,,,,,1,8.873235,,0,0,137,137,7,1,stimuli/stim_20210407_power2amp/equal_lnn_AM0.6Hz_14.m4a,,,
,,,,,,,,,,,,41182,2021-05-10_18h26.27.652,judgeSpeechMusic_20210407_logNormShiftAmp,2020.1.2,Win32,60,,,,,,,,,,,,,,2,7.39239,,0,0,138,138,48,1,stimuli/stim_20210407_power2amp/equal_lnn_AM2.4Hz_59.m4a,,,
,,,,,,,,,,,,41182,2021-05-10_18h26.27.652,judgeSpeechMusic_20210407_logNormShiftAmp,2020.1.2,Win32,60,,,,,,,,,,,,,,2,6.539715,,0,0,139,139,99,1,stimuli/stim_20210407_power2amp/equal_lnn_AM4.2Hz_86.m4a,,,
,,,,,,,,,,,,41182,2021-05-10_18h26.27.652,judgeSpeechMusic_20210407_logNormShiftAmp,2020.1.2,Win32,60,,,,,,,,,,,,,,2,6.75789,,0,0,140,140,68,1,stimuli/stim_20210407_power2amp/equal_lnn_AM3Hz_77.m4a,,,
,,,,,,,,,,,,41182,2021-05-10_18h26.27.652,judgeSpeechMusic_20210407_logNormShiftAmp,2020.1.2,Win32,60,,,,,,,,,,,,,,2,9.06264,,0,0,141,141,27,1,stimuli/stim_20210407_power2amp/equal_lnn_AM1.2Hz_88.m4a,,,
,,,,,,,,,,,,41182,2021-05-10_18h26.27.652,judgeSpeechMusic_20210407_logNormShiftAmp,2020.1.2,Win32,60,,,,,,,,,,,,,,2,6.871215,4,1,0,142,142,88,1,stimuli/stim_20210407_power2amp/equal_lnn_AM3.6Hz_89.m4a,1.477915,,
,,,,,,,,,,,,41182,2021-05-10_18h26.27.652,judgeSpeechMusic_20210407_logNormShiftAmp,2020.1.2,Win32,60,,,,,,,,,,,,,,1,6.96765,,0,0,143,143,77,1,stimuli/stim_20210407_power2amp/equal_lnn_AM3.6Hz_20.m4a,,,
,,,,,,,,,,,,41182,2021-05-10_18h26.27.652,judgeSpeechMusic_20210407_logNormShiftAmp,2020.1.2,Win32,60,,,,,,,,,,,,,,2,6.73191,,0,0,144,144,147,1,stimuli/stim_20210407_power2amp/equal_lnn_AM6Hz_60.m4a,,,
,,,,,,,,,,,,41182,2021-05-10_18h26.27.652,judgeSpeechMusic_20210407_logNormShiftAmp,2020.1.2,Win32,60,,,,,,,,,,,,,,1,6.83932,,0,0,145,145,32,1,stimuli/stim_20210407_power2amp/equal_lnn_AM1.8Hz_20.m4a,,,
,,,,,,,,,,,,41182,2021-05-10_18h26.27.652,judgeSpeechMusic_20210407_logNormShiftAmp,2020.1.2,Win32,60,,,,,,,,,,,,,,2,6.964385,,0,0,146,146,131,1,stimuli/stim_20210407_power2amp/equal_lnn_AM5.4Hz_41.m4a,,,
,,,,,,,,,,,,41182,2021-05-10_18h26.27.652,judgeSpeechMusic_20210407_logNormShiftAmp,2020.1.2,Win32,60,,,,,,,,,,,,,,2,5.6684,,0,0,147,147,146,1,stimuli/stim_20210407_power2amp/equal_lnn_AM6Hz_95.m4a,,,
,,,,,,,,,,,,41182,2021-05-10_18h26.27.652,judgeSpeechMusic_20210407_logNormShiftAmp,2020.1.2,Win32,60,,,,,,,,,,,,,,2,5.755045,,0,0,148,148,90,1,stimuli/stim_20210407_power2amp/equal_lnn_AM4.2Hz_14.m4a,,,
,,,,,,,,,,,,41182,2021-05-10_18h26.27.652,judgeSpeechMusic_20210407_logNormShiftAmp,2020.1.2,Win32,60,,,,,,,,,,,,,,1,6.560215,,0,0,149,149,19,1,stimuli/stim_20210407_power2amp/equal_lnn_AM1.2Hz_24.m4a,,,
,,,,,,,,,,,,41182,2021-05-10_18h26.27.652,judgeSpeechMusic_20210407_logNormShiftAmp,2020.1.2,Win32,60,,,,,,,,,,,,,,1,7.75016,,0,1,0,150,51,1,stimuli/stim_20210407_power2amp/equal_lnn_AM2.4Hz_37.m4a,,,
,,,,,,,,,,,,41182,2021-05-10_18h26.27.652,judgeSpeechMusic_20210407_logNormShiftAmp,2020.1.2,Win32,60,,,,,,,,,,,,,,2,8.119945,,0,1,1,151,115,1,stimuli/stim_20210407_power2amp/equal_lnn_AM4.8Hz_86.m4a,,,
,,,,,,,,,,,,41182,2021-05-10_18h26.27.652,judgeSpeechMusic_20210407_logNormShiftAmp,2020.1.2,Win32,60,,,,,,,,,,,,,,1,6.1415,,0,1,2,152,11,1,stimuli/stim_20210407_power2amp/equal_lnn_AM0.6Hz_56.m4a,,,
,,,,,,,,,,,,41182,2021-05-10_18h26.27.652,judgeSpeechMusic_20210407_logNormShiftAmp,2020.1.2,Win32,60,,,,,,,,,,,,,,2,6.49933,,0,1,3,153,70,1,stimuli/stim_20210407_power2amp/equal_lnn_AM3Hz_2.m4a,,,
,,,,,,,,,,,,41182,2021-05-10_18h26.27.652,judgeSpeechMusic_20210407_logNormShiftAmp,2020.1.2,Win32,60,,,,,,,,,,,,,,2,7.45059,,0,1,4,154,95,1,stimuli/stim_20210407_power2amp/equal_lnn_AM4.2Hz_67.m4a,,,
,,,,,,,,,,,,41182,2021-05-10_18h26.27.652,judgeSpeechMusic_20210407_logNormShiftAmp,2020.1.2,Win32,60,,,,,,,,,,,,,,1,5.73025,,0,1,5,155,117,1,stimuli/stim_20210407_power2amp/equal_lnn_AM4.8Hz_93.m4a,,,
,,,,,,,,,,,,41182,2021-05-10_18h26.27.652,judgeSpeechMusic_20210407_logNormShiftAmp,2020.1.2,Win32,60,,,,,,,,,,,,,,1,7.65363,,0,1,6,156,38,1,stimuli/stim_20210407_power2amp/equal_lnn_AM1.8Hz_94.m4a,,,
,,,,,,,,,,,,41182,2021-05-10_18h26.27.652,judgeSpeechMusic_20210407_logNormShiftAmp,2020.1.2,Win32,60,,,,,,,,,,,,,,1,6.28193,,0,1,7,157,5,1,stimuli/stim_20210407_power2amp/equal_lnn_AM0.6Hz_84.m4a,,,
,,,,,,,,,,,,41182,2021-05-10_18h26.27.652,judgeSpeechMusic_20210407_logNormShiftAmp,2020.1.2,Win32,60,,,,,,,,,,,,,,2,7.382085,,0,1,8,158,99,1,stimuli/stim_20210407_power2amp/equal_lnn_AM4.2Hz_86.m4a,,,
,,,,,,,,,,,,41182,2021-05-10_18h26.27.652,judgeSpeechMusic_20210407_logNormShiftAmp,2020.1.2,Win32,60,,,,,,,,,,,,,,1,7.007415,,0,1,9,159,29,1,stimuli/stim_20210407_power2amp/equal_lnn_AM1.2Hz_43.m4a,,,
,,,,,,,,,,,,41182,2021-05-10_18h26.27.652,judgeSpeechMusic_20210407_logNormShiftAmp,2020.1.2,Win32,60,,,,,,,,,,,,,,2,8.34034,,0,1,10,160,19,1,stimuli/stim_20210407_power2amp/equal_lnn_AM1.2Hz_24.m4a,,,
,,,,,,,,,,,,41182,2021-05-10_18h26.27.652,judgeSpeechMusic_20210407_logNormShiftAmp,2020.1.2,Win32,60,,,,,,,,,,,,,,2,5.61175,,0,1,11,161,139,1,stimuli/stim_20210407_power2amp/equal_lnn_AM6Hz_13.m4a,,,
,,,,,,,,,,,,41182,2021-05-10_18h26.27.652,judgeSpeechMusic_20210407_logNormShiftAmp,2020.1.2,Win32,60,,,,,,,,,,,,,,2,6.128385,,0,1,12,162,82,1,stimuli/stim_20210407_power2amp/equal_lnn_AM3.6Hz_46.m4a,,,
,,,,,,,,,,,,41182,2021-05-10_18h26.27.652,judgeSpeechMusic_20210407_logNormShiftAmp,2020.1.2,Win32,60,,,,,,,,,,,,,,2,7.06681,,0,1,13,163,98,1,stimuli/stim_20210407_power2amp/equal_lnn_AM4.2Hz_88.m4a,,,
,,,,,,,,,,,,41182,2021-05-10_18h26.27.652,judgeSpeechMusic_20210407_logNormShiftAmp,2020.1.2,Win32,60,,,,,,,,,,,,,,2,6.02198,,0,1,14,164,53,1,stimuli/stim_20210407_power2amp/equal_lnn_AM2.4Hz_40.m4a,,,
,,,,,,,,,,,,41182,2021-05-10_18h26.27.652,judgeSpeechMusic_20210407_logNormShiftAmp,2020.1.2,Win32,60,,,,,,,,,,,,,,1,6.367245,,0,1,15,165,133,1,stimuli/stim_20210407_power2amp/equal_lnn_AM5.4Hz_43.m4a,,,
,,,,,,,,,,,,41182,2021-05-10_18h26.27.652,judgeSpeechMusic_20210407_logNormShiftAmp,2020.1.2,Win32,60,,,,,,,,,,,,,,1,5.835595,1,1,1,16,166,120,1,stimuli/stim_20210407_power2amp/equal_lnn_AM5.4Hz_28.m4a,1.408435,,
,,,,,,,,,,,,41182,2021-05-10_18h26.27.652,judgeSpeechMusic_20210407_logNormShiftAmp,2020.1.2,Win32,60,,,,,,,,,,,,,,2,6.994035,,0,1,17,167,143,1,stimuli/stim_20210407_power2amp/equal_lnn_AM6Hz_56.m4a,,,
,,,,,,,,,,,,41182,2021-05-10_18h26.27.652,judgeSpeechMusic_20210407_logNormShiftAmp,2020.1.2,Win32,60,,,,,,,,,,,,,,2,6.818135,,0,1,18,168,60,1,stimuli/stim_20210407_power2amp/equal_lnn_AM3Hz_99.m4a,,,
,,,,,,,,,,,,41182,2021-05-10_18h26.27.652,judgeSpeechMusic_20210407_logNormShiftAmp,2020.1.2,Win32,60,,,,,,,,,,,,,,1,7.52128,,0,1,19,169,23,1,stimuli/stim_20210407_power2amp/equal_lnn_AM1.2Hz_22.m4a,,,
,,,,,,,,,,,,41182,2021-05-10_18h26.27.652,judgeSpeechMusic_20210407_logNormShiftAmp,2020.1.2,Win32,60,,,,,,,,,,,,,,2,6.384345,,0,1,20,170,127,1,stimuli/stim_20210407_power2amp/equal_lnn_AM5.4Hz_15.m4a,,,
,,,,,,,,,,,,41182,2021-05-10_18h26.27.652,judgeSpeechMusic_20210407_logNormShiftAmp,2020.1.2,Win32,60,,,,,,,,,,,,,,1,5.7924,,0,1,21,171,43,1,stimuli/stim_20210407_power2amp/equal_lnn_AM1.8Hz_23.m4a,,,
,,,,,,,,,,,,41182,2021-05-10_18h26.27.652,judgeSpeechMusic_20210407_logNormShiftAmp,2020.1.2,Win32,60,,,,,,,,,,,,,,2,6.36679,,0,1,22,172,46,1,stimuli/stim_20210407_power2amp/equal_lnn_AM2.4Hz_29.m4a,,,
,,,,,,,,,,,,41182,2021-05-10_18h26.27.652,judgeSpeechMusic_20210407_logNormShiftAmp,2020.1.2,Win32,60,,,,,,,,,,,,,,1,6.680085,,0,1,23,173,17,1,stimuli/stim_20210407_power2amp/equal_lnn_AM1.2Hz_23.m4a,,,
,,,,,,,,,,,,41182,2021-05-10_18h26.27.652,judgeSpeechMusic_20210407_logNormShiftAmp,2020.1.2,Win32,60,,,,,,,,,,,,,,2,6.26479,,0,1,24,174,114,1,stimuli/stim_20210407_power2amp/equal_lnn_AM4.8Hz_20.m4a,,,
,,,,,,,,,,,,41182,2021-05-10_18h26.27.652,judgeSpeechMusic_20210407_logNormShiftAmp,2020.1.2,Win32,60,,,,,,,,,,,,,,2,6.52948,,0,1,25,175,81,1,stimuli/stim_20210407_power2amp/equal_lnn_AM3.6Hz_63.m4a,,,
,,,,,,,,,,,,41182,2021-05-10_18h26.27.652,judgeSpeechMusic_20210407_logNormShiftAmp,2020.1.2,Win32,60,,,,,,,,,,,,,,1,6.758485,,0,1,26,176,4,1,stimuli/stim_20210407_power2amp/equal_lnn_AM0.6Hz_7.m4a,,,
,,,,,,,,,,,,41182,2021-05-10_18h26.27.652,judgeSpeechMusic_20210407_logNormShiftAmp,2020.1.2,Win32,60,,,,,,,,,,,,,,1,6.342555,,0,1,27,177,22,1,stimuli/stim_20210407_power2amp/equal_lnn_AM1.2Hz_70.m4a,,,
,,,,,,,,,,,,41182,2021-05-10_18h26.27.652,judgeSpeechMusic_20210407_logNormShiftAmp,2020.1.2,Win32,60,,,,,,,,,,,,,,2,5.680175,,0,1,28,178,72,1,stimuli/stim_20210407_power2amp/equal_lnn_AM3Hz_81.m4a,,,
,,,,,,,,,,,,41182,2021-05-10_18h26.27.652,judgeSpeechMusic_20210407_logNormShiftAmp,2020.1.2,Win32,60,,,,,,,,,,,,,,2,6.52155,,0,1,29,179,33,1,stimuli/stim_20210407_power2amp/equal_lnn_AM1.8Hz_26.m4a,,,
,,,,,,,,,,,,41182,2021-05-10_18h26.27.652,judgeSpeechMusic_20210407_logNormShiftAmp,2020.1.2,Win32,60,,,,,,,,,,,,,,2,6.612615,,0,1,30,180,92,1,stimuli/stim_20210407_power2amp/equal_lnn_AM4.2Hz_43.m4a,,,
,,,,,,,,,,,,41182,2021-05-10_18h26.27.652,judgeSpeechMusic_20210407_logNormShiftAmp,2020.1.2,Win32,60,,,,,,,,,,,,,,1,6.132385,,0,1,31,181,0,1,stimuli/stim_20210407_power2amp/equal_lnn_AM0.6Hz_46.m4a,,,
,,,,,,,,,,,,41182,2021-05-10_18h26.27.652,judgeSpeechMusic_20210407_logNormShiftAmp,2020.1.2,Win32,60,,,,,,,,,,,,,,2,6.21762,,0,1,32,182,113,1,stimuli/stim_20210407_power2amp/equal_lnn_AM4.8Hz_91.m4a,,,
,,,,,,,,,,,,41182,2021-05-10_18h26.27.652,judgeSpeechMusic_20210407_logNormShiftAmp,2020.1.2,Win32,60,,,,,,,,,,,,,,2,6.33576,,0,1,33,183,78,1,stimuli/stim_20210407_power2amp/equal_lnn_AM3.6Hz_95.m4a,,,
,,,,,,,,,,,,41182,2021-05-10_18h26.27.652,judgeSpeechMusic_20210407_logNormShiftAmp,2020.1.2,Win32,60,,,,,,,,,,,,,,2,7.26215,,0,1,34,184,59,1,stimuli/stim_20210407_power2amp/equal_lnn_AM2.4Hz_80.m4a,,,
,,,,,,,,,,,,41182,2021-05-10_18h26.27.652,judgeSpeechMusic_20210407_logNormShiftAmp,2020.1.2,Win32,60,,,,,,,,,,,,,,2,13.74924,,0,1,35,185,65,1,stimuli/stim_20210407_power2amp/equal_lnn_AM3Hz_21.m4a,,,
,,,,,,,,,,,,41182,2021-05-10_18h26.27.652,judgeSpeechMusic_20210407_logNormShiftAmp,2020.1.2,Win32,60,,,,,,,,,,,,,,1,10.5696,,0,1,36,186,148,1,stimuli/stim_20210407_power2amp/equal_lnn_AM6Hz_88.m4a,,,
,,,,,,,,,,,,41182,2021-05-10_18h26.27.652,judgeSpeechMusic_20210407_logNormShiftAmp,2020.1.2,Win32,60,,,,,,,,,,,,,,1,5.80985,,0,1,37,187,35,1,stimuli/stim_20210407_power2amp/equal_lnn_AM1.8Hz_85.m4a,,,
,,,,,,,,,,,,41182,2021-05-10_18h26.27.652,judgeSpeechMusic_20210407_logNormShiftAmp,2020.1.2,Win32,60,,,,,,,,,,,,,,2,5.807995,,0,1,38,188,146,1,stimuli/stim_20210407_power2amp/equal_lnn_AM6Hz_95.m4a,,,
,,,,,,,,,,,,41182,2021-05-10_18h26.27.652,judgeSpeechMusic_20210407_logNormShiftAmp,2020.1.2,Win32,60,,,,,,,,,,,,,,2,7.612585,,0,1,39,189,42,1,stimuli/stim_20210407_power2amp/equal_lnn_AM1.8Hz_6.m4a,,,
,,,,,,,,,,,,41182,2021-05-10_18h26.27.652,judgeSpeechMusic_20210407_logNormShiftAmp,2020.1.2,Win32,60,,,,,,,,,,,,,,2,7.34726,,0,1,40,190,132,1,stimuli/stim_20210407_power2amp/equal_lnn_AM5.4Hz_97.m4a,,,
,,,,,,,,,,,,41182,2021-05-10_18h26.27.652,judgeSpeechMusic_20210407_logNormShiftAmp,2020.1.2,Win32,60,,,,,,,,,,,,,,2,7.04309,3,1,1,41,191,126,1,stimuli/stim_20210407_power2amp/equal_lnn_AM5.4Hz_21.m4a,1.377445,,
,,,,,,,,,,,,41182,2021-05-10_18h26.27.652,judgeSpeechMusic_20210407_logNormShiftAmp,2020.1.2,Win32,60,,,,,,,,,,,,,,1,5.671075,,0,1,42,192,28,1,stimuli/stim_20210407_power2amp/equal_lnn_AM1.2Hz_51.m4a,,,
,,,,,,,,,,,,41182,2021-05-10_18h26.27.652,judgeSpeechMusic_20210407_logNormShiftAmp,2020.1.2,Win32,60,,,,,,,,,,,,,,1,6.191525,,0,1,43,193,56,1,stimuli/stim_20210407_power2amp/equal_lnn_AM2.4Hz_77.m4a,,,
,,,,,,,,,,,,41182,2021-05-10_18h26.27.652,judgeSpeechMusic_20210407_logNormShiftAmp,2020.1.2,Win32,60,,,,,,,,,,,,,,1,5.67029,,0,1,44,194,41,1,stimuli/stim_20210407_power2amp/equal_lnn_AM1.8Hz_57.m4a,,,
,,,,,,,,,,,,41182,2021-05-10_18h26.27.652,judgeSpeechMusic_20210407_logNormShiftAmp,2020.1.2,Win32,60,,,,,,,,,,,,,,2,6.11457,,0,1,45,195,73,1,stimuli/stim_20210407_power2amp/equal_lnn_AM3Hz_51.m4a,,,
,,,,,,,,,,,,41182,2021-05-10_18h26.27.652,judgeSpeechMusic_20210407_logNormShiftAmp,2020.1.2,Win32,60,,,,,,,,,,,,,,1,5.80685,,0,1,46,196,31,1,stimuli/stim_20210407_power2amp/equal_lnn_AM1.8Hz_7.m4a,,,
,,,,,,,,,,,,41182,2021-05-10_18h26.27.652,judgeSpeechMusic_20210407_logNormShiftAmp,2020.1.2,Win32,60,,,,,,,,,,,,,,1,6.56292,,0,1,47,197,103,1,stimuli/stim_20210407_power2amp/equal_lnn_AM4.2Hz_97.m4a,,,
,,,,,,,,,,,,41182,2021-05-10_18h26.27.652,judgeSpeechMusic_20210407_logNormShiftAmp,2020.1.2,Win32,60,,,,,,,,,,,,,,2,6.425655,,0,1,48,198,142,1,stimuli/stim_20210407_power2amp/equal_lnn_AM6Hz_59.m4a,,,
,,,,,,,,,,,,41182,2021-05-10_18h26.27.652,judgeSpeechMusic_20210407_logNormShiftAmp,2020.1.2,Win32,60,,,,,,,,,,,,,,2,6.212815,,0,1,49,199,123,1,stimuli/stim_20210407_power2amp/equal_lnn_AM5.4Hz_90.m4a,,,
,,,,,,,,,,,,41182,2021-05-10_18h26.27.652,judgeSpeechMusic_20210407_logNormShiftAmp,2020.1.2,Win32,60,,,,,,,,,,,,,,2,6.97036,,0,1,50,200,67,1,stimuli/stim_20210407_power2amp/equal_lnn_AM3Hz_23.m4a,,,
,,,,,,,,,,,,41182,2021-05-10_18h26.27.652,judgeSpeechMusic_20210407_logNormShiftAmp,2020.1.2,Win32,60,,,,,,,,,,,,,,2,7.92015,,0,1,51,201,134,1,stimuli/stim_20210407_power2amp/equal_lnn_AM5.4Hz_76.m4a,,,
,,,,,,,,,,,,41182,2021-05-10_18h26.27.652,judgeSpeechMusic_20210407_logNormShiftAmp,2020.1.2,Win32,60,,,,,,,,,,,,,,2,6.498355,,0,1,52,202,125,1,stimuli/stim_20210407_power2amp/equal_lnn_AM5.4Hz_57.m4a,,,
,,,,,,,,,,,,41182,2021-05-10_18h26.27.652,judgeSpeechMusic_20210407_logNormShiftAmp,2020.1.2,Win32,60,,,,,,,,,,,,,,2,7.51721,,0,1,53,203,119,1,stimuli/stim_20210407_power2amp/equal_lnn_AM4.8Hz_44.m4a,,,
,,,,,,,,,,,,41182,2021-05-10_18h26.27.652,judgeSpeechMusic_20210407_logNormShiftAmp,2020.1.2,Win32,60,,,,,,,,,,,,,,2,5.902955,,0,1,54,204,135,1,stimuli/stim_20210407_power2amp/equal_lnn_AM6Hz_47.m4a,,,
,,,,,,,,,,,,41182,2021-05-10_18h26.27.652,judgeSpeechMusic_20210407_logNormShiftAmp,2020.1.2,Win32,60,,,,,,,,,,,,,,1,5.861225,,0,1,55,205,80,1,stimuli/stim_20210407_power2amp/equal_lnn_AM3.6Hz_29.m4a,,,
,,,,,,,,,,,,41182,2021-05-10_18h26.27.652,judgeSpeechMusic_20210407_logNormShiftAmp,2020.1.2,Win32,60,,,,,,,,,,,,,,1,5.74952,,0,1,56,206,20,1,stimuli/stim_20210407_power2amp/equal_lnn_AM1.2Hz_91.m4a,,,
,,,,,,,,,,,,41182,2021-05-10_18h26.27.652,judgeSpeechMusic_20210407_logNormShiftAmp,2020.1.2,Win32,60,,,,,,,,,,,,,,1,6.02724,,0,1,57,207,16,1,stimuli/stim_20210407_power2amp/equal_lnn_AM1.2Hz_58.m4a,,,
,,,,,,,,,,,,41182,2021-05-10_18h26.27.652,judgeSpeechMusic_20210407_logNormShiftAmp,2020.1.2,Win32,60,,,,,,,,,,,,,,2,7.676965,,0,1,58,208,109,1,stimuli/stim_20210407_power2amp/equal_lnn_AM4.8Hz_61.m4a,,,
,,,,,,,,,,,,41182,2021-05-10_18h26.27.652,judgeSpeechMusic_20210407_logNormShiftAmp,2020.1.2,Win32,60,,,,,,,,,,,,,,2,6.52971,,0,1,59,209,129,1,stimuli/stim_20210407_power2amp/equal_lnn_AM5.4Hz_65.m4a,,,
,,,,,,,,,,,,41182,2021-05-10_18h26.27.652,judgeSpeechMusic_20210407_logNormShiftAmp,2020.1.2,Win32,60,,,,,,,,,,,,,,2,7.334455,,0,1,60,210,77,1,stimuli/stim_20210407_power2amp/equal_lnn_AM3.6Hz_20.m4a,,,
,,,,,,,,,,,,41182,2021-05-10_18h26.27.652,judgeSpeechMusic_20210407_logNormShiftAmp,2020.1.2,Win32,60,,,,,,,,,,,,,,2,7.538565,,0,1,61,211,48,1,stimuli/stim_20210407_power2amp/equal_lnn_AM2.4Hz_59.m4a,,,
,,,,,,,,,,,,41182,2021-05-10_18h26.27.652,judgeSpeechMusic_20210407_logNormShiftAmp,2020.1.2,Win32,60,,,,,,,,,,,,,,1,7.17753,,0,1,62,212,25,1,stimuli/stim_20210407_power2amp/equal_lnn_AM1.2Hz_79.m4a,,,
,,,,,,,,,,,,41182,2021-05-10_18h26.27.652,judgeSpeechMusic_20210407_logNormShiftAmp,2020.1.2,Win32,60,,,,,,,,,,,,,,2,8.431235,,0,1,63,213,27,1,stimuli/stim_20210407_power2amp/equal_lnn_AM1.2Hz_88.m4a,,,
,,,,,,,,,,,,41182,2021-05-10_18h26.27.652,judgeSpeechMusic_20210407_logNormShiftAmp,2020.1.2,Win32,60,,,,,,,,,,,,,,1,7.07184,,0,1,64,214,62,1,stimuli/stim_20210407_power2amp/equal_lnn_AM3Hz_10.m4a,,,
,,,,,,,,,,,,41182,2021-05-10_18h26.27.652,judgeSpeechMusic_20210407_logNormShiftAmp,2020.1.2,Win32,60,,,,,,,,,,,,,,2,6.016455,3,1,1,65,215,79,1,stimuli/stim_20210407_power2amp/equal_lnn_AM3.6Hz_34.m4a,3.308385,,
,,,,,,,,,,,,41182,2021-05-10_18h26.27.652,judgeSpeechMusic_20210407_logNormShiftAmp,2020.1.2,Win32,60,,,,,,,,,,,,,,2,6.80847,,0,1,66,216,37,1,stimuli/stim_20210407_power2amp/equal_lnn_AM1.8Hz_14.m4a,,,
,,,,,,,,,,,,41182,2021-05-10_18h26.27.652,judgeSpeechMusic_20210407_logNormShiftAmp,2020.1.2,Win32,60,,,,,,,,,,,,,,2,5.986835,,0,1,67,217,100,1,stimuli/stim_20210407_power2amp/equal_lnn_AM4.2Hz_3.m4a,,,
,,,,,,,,,,,,41182,2021-05-10_18h26.27.652,judgeSpeechMusic_20210407_logNormShiftAmp,2020.1.2,Win32,60,,,,,,,,,,,,,,2,6.64562,,0,1,68,218,130,1,stimuli/stim_20210407_power2amp/equal_lnn_AM5.4Hz_68.m4a,,,
,,,,,,,,,,,,41182,2021-05-10_18h26.27.652,judgeSpeechMusic_20210407_logNormShiftAmp,2020.1.2,Win32,60,,,,,,,,,,,,,,1,5.898705,,0,1,69,219,6,1,stimuli/stim_20210407_power2amp/equal_lnn_AM0.6Hz_54.m4a,,,
,,,,,,,,,,,,41182,2021-05-10_18h26.27.652,judgeSpeechMusic_20210407_logNormShiftAmp,2020.1.2,Win32,60,,,,,,,,,,,,,,2,6.086925,,0,1,70,220,3,1,stimuli/stim_20210407_power2amp/equal_lnn_AM0.6Hz_13.m4a,,,
,,,,,,,,,,,,41182,2021-05-10_18h26.27.652,judgeSpeechMusic_20210407_logNormShiftAmp,2020.1.2,Win32,60,,,,,,,,,,,,,,1,5.86478,,0,1,71,221,36,1,stimuli/stim_20210407_power2amp/equal_lnn_AM1.8Hz_39.m4a,,,
,,,,,,,,,,,,41182,2021-05-10_18h26.27.652,judgeSpeechMusic_20210407_logNormShiftAmp,2020.1.2,Win32,60,,,,,,,,,,,,,,2,5.70489,,0,1,72,222,91,1,stimuli/stim_20210407_power2amp/equal_lnn_AM4.2Hz_39.m4a,,,
,,,,,,,,,,,,41182,2021-05-10_18h26.27.652,judgeSpeechMusic_20210407_logNormShiftAmp,2020.1.2,Win32,60,,,,,,,,,,,,,,2,5.739835,,0,1,73,223,105,1,stimuli/stim_20210407_power2amp/equal_lnn_AM4.8Hz_58.m4a,,,
,,,,,,,,,,,,41182,2021-05-10_18h26.27.652,judgeSpeechMusic_20210407_logNormShiftAmp,2020.1.2,Win32,60,,,,,,,,,,,,,,2,6.169805,,0,1,74,224,121,1,stimuli/stim_20210407_power2amp/equal_lnn_AM5.4Hz_32.m4a,,,
,,,,,,,,,,,,41182,2021-05-10_18h26.27.652,judgeSpeechMusic_20210407_logNormShiftAmp,2020.1.2,Win32,60,,,,,,,,,,,,,,2,6.91007,,0,1,75,225,85,1,stimuli/stim_20210407_power2amp/equal_lnn_AM3.6Hz_2.m4a,,,
,,,,,,,,,,,,41182,2021-05-10_18h26.27.652,judgeSpeechMusic_20210407_logNormShiftAmp,2020.1.2,Win32,60,,,,,,,,,,,,,,1,5.703,,0,1,76,226,44,1,stimuli/stim_20210407_power2amp/equal_lnn_AM1.8Hz_68.m4a,,,
,,,,,,,,,,,,41182,2021-05-10_18h26.27.652,judgeSpeechMusic_20210407_logNormShiftAmp,2020.1.2,Win32,60,,,,,,,,,,,,,,2,5.668415,,0,1,77,227,87,1,stimuli/stim_20210407_power2amp/equal_lnn_AM3.6Hz_41.m4a,,,
,,,,,,,,,,,,41182,2021-05-10_18h26.27.652,judgeSpeechMusic_20210407_logNormShiftAmp,2020.1.2,Win32,60,,,,,,,,,,,,,,2,6.153435,,0,1,78,228,88,1,stimuli/stim_20210407_power2amp/equal_lnn_AM3.6Hz_89.m4a,,,
,,,,,,,,,,,,41182,2021-05-10_18h26.27.652,judgeSpeechMusic_20210407_logNormShiftAmp,2020.1.2,Win32,60,,,,,,,,,,,,,,1,5.853105,,0,1,79,229,9,1,stimuli/stim_20210407_power2amp/equal_lnn_AM0.6Hz_50.m4a,,,
,,,,,,,,,,,,41182,2021-05-10_18h26.27.652,judgeSpeechMusic_20210407_logNormShiftAmp,2020.1.2,Win32,60,,,,,,,,,,,,,,2,6.572125,,0,1,80,230,108,1,stimuli/stim_20210407_power2amp/equal_lnn_AM4.8Hz_80.m4a,,,
,,,,,,,,,,,,41182,2021-05-10_18h26.27.652,judgeSpeechMusic_20210407_logNormShiftAmp,2020.1.2,Win32,60,,,,,,,,,,,,,,1,5.886455,,0,1,81,231,58,1,stimuli/stim_20210407_power2amp/equal_lnn_AM2.4Hz_91.m4a,,,
,,,,,,,,,,,,41182,2021-05-10_18h26.27.652,judgeSpeechMusic_20210407_logNormShiftAmp,2020.1.2,Win32,60,,,,,,,,,,,,,,2,6.315795,,0,1,82,232,39,1,stimuli/stim_20210407_power2amp/equal_lnn_AM1.8Hz_96.m4a,,,
,,,,,,,,,,,,41182,2021-05-10_18h26.27.652,judgeSpeechMusic_20210407_logNormShiftAmp,2020.1.2,Win32,60,,,,,,,,,,,,,,2,6.363005,,0,1,83,233,96,1,stimuli/stim_20210407_power2amp/equal_lnn_AM4.2Hz_34.m4a,,,
,,,,,,,,,,,,41182,2021-05-10_18h26.27.652,judgeSpeechMusic_20210407_logNormShiftAmp,2020.1.2,Win32,60,,,,,,,,,,,,,,2,6.49666,,0,1,84,234,18,1,stimuli/stim_20210407_power2amp/equal_lnn_AM1.2Hz_17.m4a,,,
,,,,,,,,,,,,41182,2021-05-10_18h26.27.652,judgeSpeechMusic_20210407_logNormShiftAmp,2020.1.2,Win32,60,,,,,,,,,,,,,,2,6.475975,4,1,1,85,235,52,1,stimuli/stim_20210407_power2amp/equal_lnn_AM2.4Hz_36.m4a,0.87665,,
,,,,,,,,,,,,41182,2021-05-10_18h26.27.652,judgeSpeechMusic_20210407_logNormShiftAmp,2020.1.2,Win32,60,,,,,,,,,,,,,,1,6.34594,,0,1,86,236,12,1,stimuli/stim_20210407_power2amp/equal_lnn_AM0.6Hz_16.m4a,,,
,,,,,,,,,,,,41182,2021-05-10_18h26.27.652,judgeSpeechMusic_20210407_logNormShiftAmp,2020.1.2,Win32,60,,,,,,,,,,,,,,1,5.59835,,0,1,87,237,15,1,stimuli/stim_20210407_power2amp/equal_lnn_AM1.2Hz_4.m4a,,,
,,,,,,,,,,,,41182,2021-05-10_18h26.27.652,judgeSpeechMusic_20210407_logNormShiftAmp,2020.1.2,Win32,60,,,,,,,,,,,,,,2,6.510555,,0,1,88,238,89,1,stimuli/stim_20210407_power2amp/equal_lnn_AM3.6Hz_56.m4a,,,
,,,,,,,,,,,,41182,2021-05-10_18h26.27.652,judgeSpeechMusic_20210407_logNormShiftAmp,2020.1.2,Win32,60,,,,,,,,,,,,,,1,5.641105,,0,1,89,239,40,1,stimuli/stim_20210407_power2amp/equal_lnn_AM1.8Hz_65.m4a,,,
,,,,,,,,,,,,41182,2021-05-10_18h26.27.652,judgeSpeechMusic_20210407_logNormShiftAmp,2020.1.2,Win32,60,,,,,,,,,,,,,,1,6.783415,,0,1,90,240,69,1,stimuli/stim_20210407_power2amp/equal_lnn_AM3Hz_29.m4a,,,
,,,,,,,,,,,,41182,2021-05-10_18h26.27.652,judgeSpeechMusic_20210407_logNormShiftAmp,2020.1.2,Win32,60,,,,,,,,,,,,,,2,5.799665,,0,1,91,241,64,1,stimuli/stim_20210407_power2amp/equal_lnn_AM3Hz_30.m4a,,,
,,,,,,,,,,,,41182,2021-05-10_18h26.27.652,judgeSpeechMusic_20210407_logNormShiftAmp,2020.1.2,Win32,60,,,,,,,,,,,,,,2,5.65331,,0,1,92,242,104,1,stimuli/stim_20210407_power2amp/equal_lnn_AM4.2Hz_73.m4a,,,
,,,,,,,,,,,,41182,2021-05-10_18h26.27.652,judgeSpeechMusic_20210407_logNormShiftAmp,2020.1.2,Win32,60,,,,,,,,,,,,,,2,6.563035,,0,1,93,243,75,1,stimuli/stim_20210407_power2amp/equal_lnn_AM3.6Hz_36.m4a,,,
,,,,,,,,,,,,41182,2021-05-10_18h26.27.652,judgeSpeechMusic_20210407_logNormShiftAmp,2020.1.2,Win32,60,,,,,,,,,,,,,,2,6.537545,,0,1,94,244,112,1,stimuli/stim_20210407_power2amp/equal_lnn_AM4.8Hz_47.m4a,,,
,,,,,,,,,,,,41182,2021-05-10_18h26.27.652,judgeSpeechMusic_20210407_logNormShiftAmp,2020.1.2,Win32,60,,,,,,,,,,,,,,2,7.73209,,0,1,95,245,83,1,stimuli/stim_20210407_power2amp/equal_lnn_AM3.6Hz_37.m4a,,,
,,,,,,,,,,,,41182,2021-05-10_18h26.27.652,judgeSpeechMusic_20210407_logNormShiftAmp,2020.1.2,Win32,60,,,,,,,,,,,,,,1,5.85895,,0,1,96,246,8,1,stimuli/stim_20210407_power2amp/equal_lnn_AM0.6Hz_66.m4a,,,
,,,,,,,,,,,,41182,2021-05-10_18h26.27.652,judgeSpeechMusic_20210407_logNormShiftAmp,2020.1.2,Win32,60,,,,,,,,,,,,,,2,5.932855,,0,1,97,247,84,1,stimuli/stim_20210407_power2amp/equal_lnn_AM3.6Hz_66.m4a,,,
,,,,,,,,,,,,41182,2021-05-10_18h26.27.652,judgeSpeechMusic_20210407_logNormShiftAmp,2020.1.2,Win32,60,,,,,,,,,,,,,,1,5.65684,,0,1,98,248,13,1,stimuli/stim_20210407_power2amp/equal_lnn_AM0.6Hz_17.m4a,,,
,,,,,,,,,,,,41182,2021-05-10_18h26.27.652,judgeSpeechMusic_20210407_logNormShiftAmp,2020.1.2,Win32,60,,,,,,,,,,,,,,2,5.640825,,0,1,99,249,49,1,stimuli/stim_20210407_power2amp/equal_lnn_AM2.4Hz_84.m4a,,,
,,,,,,,,,,,,41182,2021-05-10_18h26.27.652,judgeSpeechMusic_20210407_logNormShiftAmp,2020.1.2,Win32,60,,,,,,,,,,,,,,2,7.77337,,0,1,100,250,149,1,stimuli/stim_20210407_power2amp/equal_lnn_AM6Hz_31.m4a,,,
,,,,,,,,,,,,41182,2021-05-10_18h26.27.652,judgeSpeechMusic_20210407_logNormShiftAmp,2020.1.2,Win32,60,,,,,,,,,,,,,,2,5.77786,,0,1,101,251,131,1,stimuli/stim_20210407_power2amp/equal_lnn_AM5.4Hz_41.m4a,,,
,,,,,,,,,,,,41182,2021-05-10_18h26.27.652,judgeSpeechMusic_20210407_logNormShiftAmp,2020.1.2,Win32,60,,,,,,,,,,,,,,1,5.68461,,0,1,102,252,86,1,stimuli/stim_20210407_power2amp/equal_lnn_AM3.6Hz_51.m4a,,,
,,,,,,,,,,,,41182,2021-05-10_18h26.27.652,judgeSpeechMusic_20210407_logNormShiftAmp,2020.1.2,Win32,60,,,,,,,,,,,,,,2,5.629095,,0,1,103,253,140,1,stimuli/stim_20210407_power2amp/equal_lnn_AM6Hz_84.m4a,,,
,,,,,,,,,,,,41182,2021-05-10_18h26.27.652,judgeSpeechMusic_20210407_logNormShiftAmp,2020.1.2,Win32,60,,,,,,,,,,,,,,2,5.9539,,0,1,104,254,71,1,stimuli/stim_20210407_power2amp/equal_lnn_AM3Hz_14.m4a,,,
,,,,,,,,,,,,41182,2021-05-10_18h26.27.652,judgeSpeechMusic_20210407_logNormShiftAmp,2020.1.2,Win32,60,,,,,,,,,,,,,,1,5.58833,,0,1,105,255,10,1,stimuli/stim_20210407_power2amp/equal_lnn_AM0.6Hz_27.m4a,,,
,,,,,,,,,,,,41182,2021-05-10_18h26.27.652,judgeSpeechMusic_20210407_logNormShiftAmp,2020.1.2,Win32,60,,,,,,,,,,,,,,2,5.88404,,0,1,106,256,57,1,stimuli/stim_20210407_power2amp/equal_lnn_AM2.4Hz_82.m4a,,,
,,,,,,,,,,,,41182,2021-05-10_18h26.27.652,judgeSpeechMusic_20210407_logNormShiftAmp,2020.1.2,Win32,60,,,,,,,,,,,,,,1,5.70464,,0,1,107,257,68,1,stimuli/stim_20210407_power2amp/equal_lnn_AM3Hz_77.m4a,,,
,,,,,,,,,,,,41182,2021-05-10_18h26.27.652,judgeSpeechMusic_20210407_logNormShiftAmp,2020.1.2,Win32,60,,,,,,,,,,,,,,1,5.68162,,0,1,108,258,144,1,stimuli/stim_20210407_power2amp/equal_lnn_AM6Hz_37.m4a,,,
,,,,,,,,,,,,41182,2021-05-10_18h26.27.652,judgeSpeechMusic_20210407_logNormShiftAmp,2020.1.2,Win32,60,,,,,,,,,,,,,,2,8.42129,3,1,1,109,259,2,1,stimuli/stim_20210407_power2amp/equal_lnn_AM0.6Hz_97.m4a,1.00868,,
,,,,,,,,,,,,41182,2021-05-10_18h26.27.652,judgeSpeechMusic_20210407_logNormShiftAmp,2020.1.2,Win32,60,,,,,,,,,,,,,,2,6.776875,,0,1,110,260,34,1,stimuli/stim_20210407_power2amp/equal_lnn_AM1.8Hz_83.m4a,,,
,,,,,,,,,,,,41182,2021-05-10_18h26.27.652,judgeSpeechMusic_20210407_logNormShiftAmp,2020.1.2,Win32,60,,,,,,,,,,,,,,2,6.010425,,0,1,111,261,97,1,stimuli/stim_20210407_power2amp/equal_lnn_AM4.2Hz_46.m4a,,,
,,,,,,,,,,,,41182,2021-05-10_18h26.27.652,judgeSpeechMusic_20210407_logNormShiftAmp,2020.1.2,Win32,60,,,,,,,,,,,,,,2,5.84783,,0,1,112,262,116,1,stimuli/stim_20210407_power2amp/equal_lnn_AM4.8Hz_53.m4a,,,
,,,,,,,,,,,,41182,2021-05-10_18h26.27.652,judgeSpeechMusic_20210407_logNormShiftAmp,2020.1.2,Win32,60,,,,,,,,,,,,,,1,5.703405,,0,1,113,263,74,1,stimuli/stim_20210407_power2amp/equal_lnn_AM3Hz_48.m4a,,,
,,,,,,,,,,,,41182,2021-05-10_18h26.27.652,judgeSpeechMusic_20210407_logNormShiftAmp,2020.1.2,Win32,60,,,,,,,,,,,,,,2,5.617325,,0,1,114,264,124,1,stimuli/stim_20210407_power2amp/equal_lnn_AM5.4Hz_52.m4a,,,
,,,,,,,,,,,,41182,2021-05-10_18h26.27.652,judgeSpeechMusic_20210407_logNormShiftAmp,2020.1.2,Win32,60,,,,,,,,,,,,,,1,6.311715,,0,1,115,265,26,1,stimuli/stim_20210407_power2amp/equal_lnn_AM1.2Hz_32.m4a,,,
,,,,,,,,,,,,41182,2021-05-10_18h26.27.652,judgeSpeechMusic_20210407_logNormShiftAmp,2020.1.2,Win32,60,,,,,,,,,,,,,,2,5.61456,,0,1,116,266,61,1,stimuli/stim_20210407_power2amp/equal_lnn_AM3Hz_34.m4a,,,
,,,,,,,,,,,,41182,2021-05-10_18h26.27.652,judgeSpeechMusic_20210407_logNormShiftAmp,2020.1.2,Win32,60,,,,,,,,,,,,,,1,5.727735,,0,1,117,267,107,1,stimuli/stim_20210407_power2amp/equal_lnn_AM4.8Hz_67.m4a,,,
,,,,,,,,,,,,41182,2021-05-10_18h26.27.652,judgeSpeechMusic_20210407_logNormShiftAmp,2020.1.2,Win32,60,,,,,,,,,,,,,,1,6.23369,,0,1,118,268,90,1,stimuli/stim_20210407_power2amp/equal_lnn_AM4.2Hz_14.m4a,,,
,,,,,,,,,,,,41182,2021-05-10_18h26.27.652,judgeSpeechMusic_20210407_logNormShiftAmp,2020.1.2,Win32,60,,,,,,,,,,,,,,1,7.348235,,0,1,119,269,30,1,stimuli/stim_20210407_power2amp/equal_lnn_AM1.8Hz_81.m4a,,,
,,,,,,,,,,,,41182,2021-05-10_18h26.27.652,judgeSpeechMusic_20210407_logNormShiftAmp,2020.1.2,Win32,60,,,,,,,,,,,,,,2,6.805645,,0,1,120,270,118,1,stimuli/stim_20210407_power2amp/equal_lnn_AM4.8Hz_40.m4a,,,
,,,,,,,,,,,,41182,2021-05-10_18h26.27.652,judgeSpeechMusic_20210407_logNormShiftAmp,2020.1.2,Win32,60,,,,,,,,,,,,,,2,5.89962,,0,1,121,271,93,1,stimuli/stim_20210407_power2amp/equal_lnn_AM4.2Hz_49.m4a,,,
,,,,,,,,,,,,41182,2021-05-10_18h26.27.652,judgeSpeechMusic_20210407_logNormShiftAmp,2020.1.2,Win32,60,,,,,,,,,,,,,,2,6.51265,,0,1,122,272,136,1,stimuli/stim_20210407_power2amp/equal_lnn_AM6Hz_76.m4a,,,
,,,,,,,,,,,,41182,2021-05-10_18h26.27.652,judgeSpeechMusic_20210407_logNormShiftAmp,2020.1.2,Win32,60,,,,,,,,,,,,,,1,6.145515,,0,1,123,273,55,1,stimuli/stim_20210407_power2amp/equal_lnn_AM2.4Hz_35.m4a,,,
,,,,,,,,,,,,41182,2021-05-10_18h26.27.652,judgeSpeechMusic_20210407_logNormShiftAmp,2020.1.2,Win32,60,,,,,,,,,,,,,,2,6.7841,,0,1,124,274,54,1,stimuli/stim_20210407_power2amp/equal_lnn_AM2.4Hz_83.m4a,,,
,,,,,,,,,,,,41182,2021-05-10_18h26.27.652,judgeSpeechMusic_20210407_logNormShiftAmp,2020.1.2,Win32,60,,,,,,,,,,,,,,2,6.91853,,0,1,125,275,94,1,stimuli/stim_20210407_power2amp/equal_lnn_AM4.2Hz_17.m4a,,,
,,,,,,,,,,,,41182,2021-05-10_18h26.27.652,judgeSpeechMusic_20210407_logNormShiftAmp,2020.1.2,Win32,60,,,,,,,,,,,,,,2,5.91124,,0,1,126,276,137,1,stimuli/stim_20210407_power2amp/equal_lnn_AM6Hz_57.m4a,,,
,,,,,,,,,,,,41182,2021-05-10_18h26.27.652,judgeSpeechMusic_20210407_logNormShiftAmp,2020.1.2,Win32,60,,,,,,,,,,,,,,1,5.832295,,0,1,127,277,32,1,stimuli/stim_20210407_power2amp/equal_lnn_AM1.8Hz_20.m4a,,,
,,,,,,,,,,,,41182,2021-05-10_18h26.27.652,judgeSpeechMusic_20210407_logNormShiftAmp,2020.1.2,Win32,60,,,,,,,,,,,,,,1,6.71805,,0,1,128,278,14,1,stimuli/stim_20210407_power2amp/equal_lnn_AM0.6Hz_19.m4a,,,
,,,,,,,,,,,,41182,2021-05-10_18h26.27.652,judgeSpeechMusic_20210407_logNormShiftAmp,2020.1.2,Win32,60,,,,,,,,,,,,,,1,6.09967,4,1,1,129,279,45,1,stimuli/stim_20210407_power2amp/equal_lnn_AM2.4Hz_3.m4a,0.82063,,
,,,,,,,,,,,,41182,2021-05-10_18h26.27.652,judgeSpeechMusic_20210407_logNormShiftAmp,2020.1.2,Win32,60,,,,,,,,,,,,,,2,7.721905,,0,1,130,280,147,1,stimuli/stim_20210407_power2amp/equal_lnn_AM6Hz_60.m4a,,,
,,,,,,,,,,,,41182,2021-05-10_18h26.27.652,judgeSpeechMusic_20210407_logNormShiftAmp,2020.1.2,Win32,60,,,,,,,,,,,,,,2,6.334195,,0,1,131,281,110,1,stimuli/stim_20210407_power2amp/equal_lnn_AM4.8Hz_87.m4a,,,
,,,,,,,,,,,,41182,2021-05-10_18h26.27.652,judgeSpeechMusic_20210407_logNormShiftAmp,2020.1.2,Win32,60,,,,,,,,,,,,,,1,5.745995,,0,1,132,282,47,1,stimuli/stim_20210407_power2amp/equal_lnn_AM2.4Hz_98.m4a,,,
,,,,,,,,,,,,41182,2021-05-10_18h26.27.652,judgeSpeechMusic_20210407_logNormShiftAmp,2020.1.2,Win32,60,,,,,,,,,,,,,,2,6.04723,,0,1,133,283,63,1,stimuli/stim_20210407_power2amp/equal_lnn_AM3Hz_89.m4a,,,
,,,,,,,,,,,,41182,2021-05-10_18h26.27.652,judgeSpeechMusic_20210407_logNormShiftAmp,2020.1.2,Win32,60,,,,,,,,,,,,,,1,5.5696,,0,1,134,284,21,1,stimuli/stim_20210407_power2amp/equal_lnn_AM1.2Hz_45.m4a,,,
,,,,,,,,,,,,41182,2021-05-10_18h26.27.652,judgeSpeechMusic_20210407_logNormShiftAmp,2020.1.2,Win32,60,,,,,,,,,,,,,,2,5.68448,,0,1,135,285,111,1,stimuli/stim_20210407_power2amp/equal_lnn_AM4.8Hz_90.m4a,,,
,,,,,,,,,,,,41182,2021-05-10_18h26.27.652,judgeSpeechMusic_20210407_logNormShiftAmp,2020.1.2,Win32,60,,,,,,,,,,,,,,1,5.739985,,0,1,136,286,7,1,stimuli/stim_20210407_power2amp/equal_lnn_AM0.6Hz_14.m4a,,,
,,,,,,,,,,,,41182,2021-05-10_18h26.27.652,judgeSpeechMusic_20210407_logNormShiftAmp,2020.1.2,Win32,60,,,,,,,,,,,,,,2,5.756325,,0,1,137,287,102,1,stimuli/stim_20210407_power2amp/equal_lnn_AM4.2Hz_80.m4a,,,
,,,,,,,,,,,,41182,2021-05-10_18h26.27.652,judgeSpeechMusic_20210407_logNormShiftAmp,2020.1.2,Win32,60,,,,,,,,,,,,,,2,6.774895,,0,1,138,288,66,1,stimuli/stim_20210407_power2amp/equal_lnn_AM3Hz_74.m4a,,,
,,,,,,,,,,,,41182,2021-05-10_18h26.27.652,judgeSpeechMusic_20210407_logNormShiftAmp,2020.1.2,Win32,60,,,,,,,,,,,,,,2,5.97097,,0,1,139,289,76,1,stimuli/stim_20210407_power2amp/equal_lnn_AM3.6Hz_26.m4a,,,
,,,,,,,,,,,,41182,2021-05-10_18h26.27.652,judgeSpeechMusic_20210407_logNormShiftAmp,2020.1.2,Win32,60,,,,,,,,,,,,,,2,6.081435,,0,1,140,290,122,1,stimuli/stim_20210407_power2amp/equal_lnn_AM5.4Hz_94.m4a,,,
,,,,,,,,,,,,41182,2021-05-10_18h26.27.652,judgeSpeechMusic_20210407_logNormShiftAmp,2020.1.2,Win32,60,,,,,,,,,,,,,,2,5.65323,,0,1,141,291,141,1,stimuli/stim_20210407_power2amp/equal_lnn_AM6Hz_79.m4a,,,
,,,,,,,,,,,,41182,2021-05-10_18h26.27.652,judgeSpeechMusic_20210407_logNormShiftAmp,2020.1.2,Win32,60,,,,,,,,,,,,,,2,5.68205,,0,1,142,292,138,1,stimuli/stim_20210407_power2amp/equal_lnn_AM6Hz_82.m4a,,,
,,,,,,,,,,,,41182,2021-05-10_18h26.27.652,judgeSpeechMusic_20210407_logNormShiftAmp,2020.1.2,Win32,60,,,,,,,,,,,,,,2,5.873955,,0,1,143,293,128,1,stimuli/stim_20210407_power2amp/equal_lnn_AM5.4Hz_74.m4a,,,
,,,,,,,,,,,,41182,2021-05-10_18h26.27.652,judgeSpeechMusic_20210407_logNormShiftAmp,2020.1.2,Win32,60,,,,,,,,,,,,,,1,5.76788,,0,1,144,294,106,1,stimuli/stim_20210407_power2amp/equal_lnn_AM4.8Hz_99.m4a,,,
,,,,,,,,,,,,41182,2021-05-10_18h26.27.652,judgeSpeechMusic_20210407_logNormShiftAmp,2020.1.2,Win32,60,,,,,,,,,,,,,,1,6.297405,,0,1,145,295,1,1,stimuli/stim_20210407_power2amp/equal_lnn_AM0.6Hz_75.m4a,,,
,,,,,,,,,,,,41182,2021-05-10_18h26.27.652,judgeSpeechMusic_20210407_logNormShiftAmp,2020.1.2,Win32,60,,,,,,,,,,,,,,2,5.988445,,0,1,146,296,101,1,stimuli/stim_20210407_power2amp/equal_lnn_AM4.2Hz_44.m4a,,,
,,,,,,,,,,,,41182,2021-05-10_18h26.27.652,judgeSpeechMusic_20210407_logNormShiftAmp,2020.1.2,Win32,60,,,,,,,,,,,,,,2,6.314445,,0,1,147,297,50,1,stimuli/stim_20210407_power2amp/equal_lnn_AM2.4Hz_95.m4a,,,
,,,,,,,,,,,,41182,2021-05-10_18h26.27.652,judgeSpeechMusic_20210407_logNormShiftAmp,2020.1.2,Win32,60,,,,,,,,,,,,,,1,7.01594,,0,1,148,298,24,1,stimuli/stim_20210407_power2amp/equal_lnn_AM1.2Hz_54.m4a,,,
,,,,,,,,,,,,41182,2021-05-10_18h26.27.652,judgeSpeechMusic_20210407_logNormShiftAmp,2020.1.2,Win32,60,,,,,,,,,,,,,,2,6.294315,,0,1,149,299,145,1,stimuli/stim_20210407_power2amp/equal_lnn_AM6Hz_41.m4a,,,
,,,,,,,,,,,,41182,2021-05-10_18h26.27.652,judgeSpeechMusic_20210407_logNormShiftAmp,2020.1.2,Win32,60,,,,,,,,,,,,,,,,,,,,,,,,,space,9.644535
