volAdjustRep.thisRepN,volAdjustRep.thisTrialN,volAdjustRep.thisN,volAdjustRep.thisIndex,volAdjustRep.ran,participant,date,expName,psychopyVersion,OS,frameRate,headphoneResponse.keys,headphoneResponse.corr,headphoneResponse.rt,headphoneTrial.thisRepN,headphoneTrial.thisTrialN,headphoneTrial.thisN,headphoneTrial.thisIndex,headphoneTrial.ran,headphone_sound1,headphone_sound2,headphone_sound3,corrAns,trainSlider.response,trainSlider.rt,beepTrainResponse.keys,beepTrainResponse.corr,trainingTrials.thisRepN,trainingTrials.thisTrialN,trainingTrials.thisN,trainingTrials.thisIndex,trainingTrials.ran,trainAudioFile,beepTrainResponse.rt,readyReal_resp.keys,readyReal_resp.rt,ratingSlider.response,ratingSlider.rt,beepResp.keys,beepResp.corr,expTrials.thisRepN,expTrials.thisTrialN,expTrials.thisN,expTrials.thisIndex,expTrials.ran,audioFile,beepResp.rt,end_resp.keys,end_resp.rt
0,0,0,0,1,41188,2021-05-10_17h58.19.755,judgeSpeechMusic_20210407_logNormShiftAmp,2020.1.2,MacIntel,60,,,,,,,,,,,,,,,,,,,,,,,,,,,,,,,,,,,,,,
,,,,,41188,2021-05-10_17h58.19.755,judgeSpeechMusic_20210407_logNormShiftAmp,2020.1.2,MacIntel,60,3,1,1.06027,0,0,0,0,1,stimuli/screen_antiphase.wav,stimuli/screen_origin.wav,stimuli/screen_quiet.wav,3,,,,,,,,,,,,,,,,,,,,,,,,,,
,,,,,41188,2021-05-10_17h58.19.755,judgeSpeechMusic_20210407_logNormShiftAmp,2020.1.2,MacIntel,60,2,1,0.61505,0,1,1,1,1,stimuli/screen_antiphase.wav,stimuli/screen_quiet.wav,stimuli/screen_origin.wav,2,,,,,,,,,,,,,,,,,,,,,,,,,,
,,,,,41188,2021-05-10_17h58.19.755,judgeSpeechMusic_20210407_logNormShiftAmp,2020.1.2,MacIntel,60,1,1,1.79916,0,2,2,4,1,stimuli/screen_quiet.wav,stimuli/screen_antiphase.wav,stimuli/screen_origin.wav,1,,,,,,,,,,,,,,,,,,,,,,,,,,
,,,,,41188,2021-05-10_17h58.19.755,judgeSpeechMusic_20210407_logNormShiftAmp,2020.1.2,MacIntel,60,3,1,0.568525,0,3,3,2,1,stimuli/screen_origin.wav,stimuli/screen_antiphase.wav,stimuli/screen_quiet.wav,3,,,,,,,,,,,,,,,,,,,,,,,,,,
,,,,,41188,2021-05-10_17h58.19.755,judgeSpeechMusic_20210407_logNormShiftAmp,2020.1.2,MacIntel,60,1,1,0.950685,0,4,4,5,1,stimuli/screen_quiet.wav,stimuli/screen_origin.wav,stimuli/screen_antiphase.wav,1,,,,,,,,,,,,,,,,,,,,,,,,,,
,,,,,41188,2021-05-10_17h58.19.755,judgeSpeechMusic_20210407_logNormShiftAmp,2020.1.2,MacIntel,60,2,1,0.6173,0,5,5,3,1,stimuli/screen_origin.wav,stimuli/screen_quiet.wav,stimuli/screen_antiphase.wav,2,,,,,,,,,,,,,,,,,,,,,,,,,,
,,,,,41188,2021-05-10_17h58.19.755,judgeSpeechMusic_20210407_logNormShiftAmp,2020.1.2,MacIntel,60,,,,,,,,,,,,,1,14.855615,,0,0,0,0,2,1,stimuli/stim_20210407_power2amp/equal_lnn_AM_training3.9Hz.m4a,,,,,,,,,,,,,,,,
,,,,,41188,2021-05-10_17h58.19.755,judgeSpeechMusic_20210407_logNormShiftAmp,2020.1.2,MacIntel,60,,,,,,,,,,,,,2,8.34391,,0,0,1,1,1,1,stimuli/stim_20210407_power2amp/equal_lnn_AM_training2.7Hz.m4a,,,,,,,,,,,,,,,,
,,,,,41188,2021-05-10_17h58.19.755,judgeSpeechMusic_20210407_logNormShiftAmp,2020.1.2,MacIntel,60,,,,,,,,,,,,,1,15.543475,3,1,0,2,2,3,1,stimuli/stim_20210407_power2amp/equal_lnn_AM_training5.1Hz.m4a,1.630485,,,,,,,,,,,,,,,
,,,,,41188,2021-05-10_17h58.19.755,judgeSpeechMusic_20210407_logNormShiftAmp,2020.1.2,MacIntel,60,,,,,,,,,,,,,1,9.32935,,0,0,3,3,0,1,stimuli/stim_20210407_power2amp/equal_lnn_AM_training1.5Hz.m4a,,,,,,,,,,,,,,,,
,,,,,41188,2021-05-10_17h58.19.755,judgeSpeechMusic_20210407_logNormShiftAmp,2020.1.2,MacIntel,60,,,,,,,,,,,,,,,,,,,,,,,,space,8.274105,2,6.28134,,0,0,0,0,86,1,stimuli/stim_20210407_power2amp/equal_lnn_AM3.6Hz_58.m4a,,,
,,,,,41188,2021-05-10_17h58.19.755,judgeSpeechMusic_20210407_logNormShiftAmp,2020.1.2,MacIntel,60,,,,,,,,,,,,,,,,,,,,,,,,,,2,8.138085,,0,0,1,1,107,1,stimuli/stim_20210407_power2amp/equal_lnn_AM4.8Hz_37.m4a,,,
,,,,,41188,2021-05-10_17h58.19.755,judgeSpeechMusic_20210407_logNormShiftAmp,2020.1.2,MacIntel,60,,,,,,,,,,,,,,,,,,,,,,,,,,1,6.058335,,0,0,2,2,88,1,stimuli/stim_20210407_power2amp/equal_lnn_AM3.6Hz_45.m4a,,,
,,,,,41188,2021-05-10_17h58.19.755,judgeSpeechMusic_20210407_logNormShiftAmp,2020.1.2,MacIntel,60,,,,,,,,,,,,,,,,,,,,,,,,,,1,5.77115,,0,0,3,3,14,1,stimuli/stim_20210407_power2amp/equal_lnn_AM0.6Hz_88.m4a,,,
,,,,,41188,2021-05-10_17h58.19.755,judgeSpeechMusic_20210407_logNormShiftAmp,2020.1.2,MacIntel,60,,,,,,,,,,,,,,,,,,,,,,,,,,2,6.645995,,0,0,4,4,27,1,stimuli/stim_20210407_power2amp/equal_lnn_AM1.2Hz_35.m4a,,,
,,,,,41188,2021-05-10_17h58.19.755,judgeSpeechMusic_20210407_logNormShiftAmp,2020.1.2,MacIntel,60,,,,,,,,,,,,,,,,,,,,,,,,,,1,8.511315,,0,0,5,5,24,1,stimuli/stim_20210407_power2amp/equal_lnn_AM1.2Hz_79.m4a,,,
,,,,,41188,2021-05-10_17h58.19.755,judgeSpeechMusic_20210407_logNormShiftAmp,2020.1.2,MacIntel,60,,,,,,,,,,,,,,,,,,,,,,,,,,1,7.312515,,0,0,6,6,36,1,stimuli/stim_20210407_power2amp/equal_lnn_AM1.8Hz_70.m4a,,,
,,,,,41188,2021-05-10_17h58.19.755,judgeSpeechMusic_20210407_logNormShiftAmp,2020.1.2,MacIntel,60,,,,,,,,,,,,,,,,,,,,,,,,,,2,6.510535,,0,0,7,7,136,1,stimuli/stim_20210407_power2amp/equal_lnn_AM6Hz_11.m4a,,,
,,,,,41188,2021-05-10_17h58.19.755,judgeSpeechMusic_20210407_logNormShiftAmp,2020.1.2,MacIntel,60,,,,,,,,,,,,,,,,,,,,,,,,,,1,7.19333,,0,0,8,8,120,1,stimuli/stim_20210407_power2amp/equal_lnn_AM5.4Hz_92.m4a,,,
,,,,,41188,2021-05-10_17h58.19.755,judgeSpeechMusic_20210407_logNormShiftAmp,2020.1.2,MacIntel,60,,,,,,,,,,,,,,,,,,,,,,,,,,1,5.76104,,0,0,9,9,148,1,stimuli/stim_20210407_power2amp/equal_lnn_AM6Hz_47.m4a,,,
,,,,,41188,2021-05-10_17h58.19.755,judgeSpeechMusic_20210407_logNormShiftAmp,2020.1.2,MacIntel,60,,,,,,,,,,,,,,,,,,,,,,,,,,2,6.70743,,0,0,10,10,7,1,stimuli/stim_20210407_power2amp/equal_lnn_AM0.6Hz_91.m4a,,,
,,,,,41188,2021-05-10_17h58.19.755,judgeSpeechMusic_20210407_logNormShiftAmp,2020.1.2,MacIntel,60,,,,,,,,,,,,,,,,,,,,,,,,,,2,6.06013,,0,0,11,11,28,1,stimuli/stim_20210407_power2amp/equal_lnn_AM1.2Hz_8.m4a,,,
,,,,,41188,2021-05-10_17h58.19.755,judgeSpeechMusic_20210407_logNormShiftAmp,2020.1.2,MacIntel,60,,,,,,,,,,,,,,,,,,,,,,,,,,1,5.896435,,0,0,12,12,33,1,stimuli/stim_20210407_power2amp/equal_lnn_AM1.8Hz_38.m4a,,,
,,,,,41188,2021-05-10_17h58.19.755,judgeSpeechMusic_20210407_logNormShiftAmp,2020.1.2,MacIntel,60,,,,,,,,,,,,,,,,,,,,,,,,,,1,5.87742,,0,0,13,13,144,1,stimuli/stim_20210407_power2amp/equal_lnn_AM6Hz_34.m4a,,,
,,,,,41188,2021-05-10_17h58.19.755,judgeSpeechMusic_20210407_logNormShiftAmp,2020.1.2,MacIntel,60,,,,,,,,,,,,,,,,,,,,,,,,,,1,5.959935,,0,0,14,14,73,1,stimuli/stim_20210407_power2amp/equal_lnn_AM3Hz_83.m4a,,,
,,,,,41188,2021-05-10_17h58.19.755,judgeSpeechMusic_20210407_logNormShiftAmp,2020.1.2,MacIntel,60,,,,,,,,,,,,,,,,,,,,,,,,,,2,6.45304,,0,0,15,15,132,1,stimuli/stim_20210407_power2amp/equal_lnn_AM5.4Hz_75.m4a,,,
,,,,,41188,2021-05-10_17h58.19.755,judgeSpeechMusic_20210407_logNormShiftAmp,2020.1.2,MacIntel,60,,,,,,,,,,,,,,,,,,,,,,,,,,2,6.011425,,0,0,16,16,64,1,stimuli/stim_20210407_power2amp/equal_lnn_AM3Hz_3.m4a,,,
,,,,,41188,2021-05-10_17h58.19.755,judgeSpeechMusic_20210407_logNormShiftAmp,2020.1.2,MacIntel,60,,,,,,,,,,,,,,,,,,,,,,,,,,1,7.831245,,0,0,17,17,58,1,stimuli/stim_20210407_power2amp/equal_lnn_AM2.4Hz_29.m4a,,,
,,,,,41188,2021-05-10_17h58.19.755,judgeSpeechMusic_20210407_logNormShiftAmp,2020.1.2,MacIntel,60,,,,,,,,,,,,,,,,,,,,,,,,,,1,8.604285,,0,0,18,18,125,1,stimuli/stim_20210407_power2amp/equal_lnn_AM5.4Hz_88.m4a,,,
,,,,,41188,2021-05-10_17h58.19.755,judgeSpeechMusic_20210407_logNormShiftAmp,2020.1.2,MacIntel,60,,,,,,,,,,,,,,,,,,,,,,,,,,1,5.810875,,0,0,19,19,1,1,stimuli/stim_20210407_power2amp/equal_lnn_AM0.6Hz_53.m4a,,,
,,,,,41188,2021-05-10_17h58.19.755,judgeSpeechMusic_20210407_logNormShiftAmp,2020.1.2,MacIntel,60,,,,,,,,,,,,,,,,,,,,,,,,,,1,7.028125,,0,0,20,20,49,1,stimuli/stim_20210407_power2amp/equal_lnn_AM2.4Hz_50.m4a,,,
,,,,,41188,2021-05-10_17h58.19.755,judgeSpeechMusic_20210407_logNormShiftAmp,2020.1.2,MacIntel,60,,,,,,,,,,,,,,,,,,,,,,,,,,1,5.79782,,0,0,21,21,128,1,stimuli/stim_20210407_power2amp/equal_lnn_AM5.4Hz_58.m4a,,,
,,,,,41188,2021-05-10_17h58.19.755,judgeSpeechMusic_20210407_logNormShiftAmp,2020.1.2,MacIntel,60,,,,,,,,,,,,,,,,,,,,,,,,,,2,6.04355,,0,0,22,22,35,1,stimuli/stim_20210407_power2amp/equal_lnn_AM1.8Hz_49.m4a,,,
,,,,,41188,2021-05-10_17h58.19.755,judgeSpeechMusic_20210407_logNormShiftAmp,2020.1.2,MacIntel,60,,,,,,,,,,,,,,,,,,,,,,,,,,1,6.541885,,0,0,23,23,133,1,stimuli/stim_20210407_power2amp/equal_lnn_AM5.4Hz_33.m4a,,,
,,,,,41188,2021-05-10_17h58.19.755,judgeSpeechMusic_20210407_logNormShiftAmp,2020.1.2,MacIntel,60,,,,,,,,,,,,,,,,,,,,,,,,,,1,7.07965,,0,0,24,24,121,1,stimuli/stim_20210407_power2amp/equal_lnn_AM5.4Hz_54.m4a,,,
,,,,,41188,2021-05-10_17h58.19.755,judgeSpeechMusic_20210407_logNormShiftAmp,2020.1.2,MacIntel,60,,,,,,,,,,,,,,,,,,,,,,,,,,2,6.287635,,0,0,25,25,0,1,stimuli/stim_20210407_power2amp/equal_lnn_AM0.6Hz_86.m4a,,,
,,,,,41188,2021-05-10_17h58.19.755,judgeSpeechMusic_20210407_logNormShiftAmp,2020.1.2,MacIntel,60,,,,,,,,,,,,,,,,,,,,,,,,,,1,6.57354,,0,0,26,26,53,1,stimuli/stim_20210407_power2amp/equal_lnn_AM2.4Hz_31.m4a,,,
,,,,,41188,2021-05-10_17h58.19.755,judgeSpeechMusic_20210407_logNormShiftAmp,2020.1.2,MacIntel,60,,,,,,,,,,,,,,,,,,,,,,,,,,1,6.160345,,0,0,27,27,34,1,stimuli/stim_20210407_power2amp/equal_lnn_AM1.8Hz_74.m4a,,,
,,,,,41188,2021-05-10_17h58.19.755,judgeSpeechMusic_20210407_logNormShiftAmp,2020.1.2,MacIntel,60,,,,,,,,,,,,,,,,,,,,,,,,,,2,5.88564,,0,0,28,28,9,1,stimuli/stim_20210407_power2amp/equal_lnn_AM0.6Hz_74.m4a,,,
,,,,,41188,2021-05-10_17h58.19.755,judgeSpeechMusic_20210407_logNormShiftAmp,2020.1.2,MacIntel,60,,,,,,,,,,,,,,,,,,,,,,,,,,1,6.207585,,0,0,29,29,74,1,stimuli/stim_20210407_power2amp/equal_lnn_AM3Hz_92.m4a,,,
,,,,,41188,2021-05-10_17h58.19.755,judgeSpeechMusic_20210407_logNormShiftAmp,2020.1.2,MacIntel,60,,,,,,,,,,,,,,,,,,,,,,,,,,1,6.59778,1,1,0,30,30,61,1,stimuli/stim_20210407_power2amp/equal_lnn_AM3Hz_53.m4a,0.972185,,
,,,,,41188,2021-05-10_17h58.19.755,judgeSpeechMusic_20210407_logNormShiftAmp,2020.1.2,MacIntel,60,,,,,,,,,,,,,,,,,,,,,,,,,,1,8.24435,,0,0,31,31,25,1,stimuli/stim_20210407_power2amp/equal_lnn_AM1.2Hz_3.m4a,,,
,,,,,41188,2021-05-10_17h58.19.755,judgeSpeechMusic_20210407_logNormShiftAmp,2020.1.2,MacIntel,60,,,,,,,,,,,,,,,,,,,,,,,,,,2,7.795125,,0,0,32,32,44,1,stimuli/stim_20210407_power2amp/equal_lnn_AM1.8Hz_29.m4a,,,
,,,,,41188,2021-05-10_17h58.19.755,judgeSpeechMusic_20210407_logNormShiftAmp,2020.1.2,MacIntel,60,,,,,,,,,,,,,,,,,,,,,,,,,,1,7.779135,,0,0,33,33,106,1,stimuli/stim_20210407_power2amp/equal_lnn_AM4.8Hz_13.m4a,,,
,,,,,41188,2021-05-10_17h58.19.755,judgeSpeechMusic_20210407_logNormShiftAmp,2020.1.2,MacIntel,60,,,,,,,,,,,,,,,,,,,,,,,,,,2,7.242985,,0,0,34,34,11,1,stimuli/stim_20210407_power2amp/equal_lnn_AM0.6Hz_99.m4a,,,
,,,,,41188,2021-05-10_17h58.19.755,judgeSpeechMusic_20210407_logNormShiftAmp,2020.1.2,MacIntel,60,,,,,,,,,,,,,,,,,,,,,,,,,,1,6.65592,,0,0,35,35,78,1,stimuli/stim_20210407_power2amp/equal_lnn_AM3.6Hz_3.m4a,,,
,,,,,41188,2021-05-10_17h58.19.755,judgeSpeechMusic_20210407_logNormShiftAmp,2020.1.2,MacIntel,60,,,,,,,,,,,,,,,,,,,,,,,,,,2,29.078455,,0,0,36,36,17,1,stimuli/stim_20210407_power2amp/equal_lnn_AM1.2Hz_39.m4a,,,
,,,,,41188,2021-05-10_17h58.19.755,judgeSpeechMusic_20210407_logNormShiftAmp,2020.1.2,MacIntel,60,,,,,,,,,,,,,,,,,,,,,,,,,,2,6.044365,,0,0,37,37,37,1,stimuli/stim_20210407_power2amp/equal_lnn_AM1.8Hz_31.m4a,,,
,,,,,41188,2021-05-10_17h58.19.755,judgeSpeechMusic_20210407_logNormShiftAmp,2020.1.2,MacIntel,60,,,,,,,,,,,,,,,,,,,,,,,,,,1,6.25389,,0,0,38,38,12,1,stimuli/stim_20210407_power2amp/equal_lnn_AM0.6Hz_70.m4a,,,
,,,,,41188,2021-05-10_17h58.19.755,judgeSpeechMusic_20210407_logNormShiftAmp,2020.1.2,MacIntel,60,,,,,,,,,,,,,,,,,,,,,,,,,,2,8.620635,,0,0,39,39,94,1,stimuli/stim_20210407_power2amp/equal_lnn_AM4.2Hz_91.m4a,,,
,,,,,41188,2021-05-10_17h58.19.755,judgeSpeechMusic_20210407_logNormShiftAmp,2020.1.2,MacIntel,60,,,,,,,,,,,,,,,,,,,,,,,,,,2,6.188615,,0,0,40,40,101,1,stimuli/stim_20210407_power2amp/equal_lnn_AM4.2Hz_67.m4a,,,
,,,,,41188,2021-05-10_17h58.19.755,judgeSpeechMusic_20210407_logNormShiftAmp,2020.1.2,MacIntel,60,,,,,,,,,,,,,,,,,,,,,,,,,,1,6.6799,,0,0,41,41,138,1,stimuli/stim_20210407_power2amp/equal_lnn_AM6Hz_39.m4a,,,
,,,,,41188,2021-05-10_17h58.19.755,judgeSpeechMusic_20210407_logNormShiftAmp,2020.1.2,MacIntel,60,,,,,,,,,,,,,,,,,,,,,,,,,,1,5.997065,,0,0,42,42,124,1,stimuli/stim_20210407_power2amp/equal_lnn_AM5.4Hz_30.m4a,,,
,,,,,41188,2021-05-10_17h58.19.755,judgeSpeechMusic_20210407_logNormShiftAmp,2020.1.2,MacIntel,60,,,,,,,,,,,,,,,,,,,,,,,,,,2,6.61932,,0,0,43,43,38,1,stimuli/stim_20210407_power2amp/equal_lnn_AM1.8Hz_11.m4a,,,
,,,,,41188,2021-05-10_17h58.19.755,judgeSpeechMusic_20210407_logNormShiftAmp,2020.1.2,MacIntel,60,,,,,,,,,,,,,,,,,,,,,,,,,,2,6.562275,,0,0,44,44,21,1,stimuli/stim_20210407_power2amp/equal_lnn_AM1.2Hz_43.m4a,,,
,,,,,41188,2021-05-10_17h58.19.755,judgeSpeechMusic_20210407_logNormShiftAmp,2020.1.2,MacIntel,60,,,,,,,,,,,,,,,,,,,,,,,,,,2,6.03812,,0,0,45,45,92,1,stimuli/stim_20210407_power2amp/equal_lnn_AM4.2Hz_1.m4a,,,
,,,,,41188,2021-05-10_17h58.19.755,judgeSpeechMusic_20210407_logNormShiftAmp,2020.1.2,MacIntel,60,,,,,,,,,,,,,,,,,,,,,,,,,,1,6.694455,,0,0,46,46,39,1,stimuli/stim_20210407_power2amp/equal_lnn_AM1.8Hz_66.m4a,,,
,,,,,41188,2021-05-10_17h58.19.755,judgeSpeechMusic_20210407_logNormShiftAmp,2020.1.2,MacIntel,60,,,,,,,,,,,,,,,,,,,,,,,,,,2,7.36375,,0,0,47,47,85,1,stimuli/stim_20210407_power2amp/equal_lnn_AM3.6Hz_22.m4a,,,
,,,,,41188,2021-05-10_17h58.19.755,judgeSpeechMusic_20210407_logNormShiftAmp,2020.1.2,MacIntel,60,,,,,,,,,,,,,,,,,,,,,,,,,,2,11.66008,,0,0,48,48,56,1,stimuli/stim_20210407_power2amp/equal_lnn_AM2.4Hz_10.m4a,,,
,,,,,41188,2021-05-10_17h58.19.755,judgeSpeechMusic_20210407_logNormShiftAmp,2020.1.2,MacIntel,60,,,,,,,,,,,,,,,,,,,,,,,,,,2,9.745965,,0,0,49,49,10,1,stimuli/stim_20210407_power2amp/equal_lnn_AM0.6Hz_27.m4a,,,
,,,,,41188,2021-05-10_17h58.19.755,judgeSpeechMusic_20210407_logNormShiftAmp,2020.1.2,MacIntel,60,,,,,,,,,,,,,,,,,,,,,,,,,,2,6.80696,,0,0,50,50,102,1,stimuli/stim_20210407_power2amp/equal_lnn_AM4.2Hz_97.m4a,,,
,,,,,41188,2021-05-10_17h58.19.755,judgeSpeechMusic_20210407_logNormShiftAmp,2020.1.2,MacIntel,60,,,,,,,,,,,,,,,,,,,,,,,,,,2,6.35517,,0,0,51,51,129,1,stimuli/stim_20210407_power2amp/equal_lnn_AM5.4Hz_24.m4a,,,
,,,,,41188,2021-05-10_17h58.19.755,judgeSpeechMusic_20210407_logNormShiftAmp,2020.1.2,MacIntel,60,,,,,,,,,,,,,,,,,,,,,,,,,,1,6.02783,,0,0,52,52,103,1,stimuli/stim_20210407_power2amp/equal_lnn_AM4.2Hz_36.m4a,,,
,,,,,41188,2021-05-10_17h58.19.755,judgeSpeechMusic_20210407_logNormShiftAmp,2020.1.2,MacIntel,60,,,,,,,,,,,,,,,,,,,,,,,,,,1,5.763725,1,1,0,53,53,89,1,stimuli/stim_20210407_power2amp/equal_lnn_AM3.6Hz_63.m4a,1.192275,,
,,,,,41188,2021-05-10_17h58.19.755,judgeSpeechMusic_20210407_logNormShiftAmp,2020.1.2,MacIntel,60,,,,,,,,,,,,,,,,,,,,,,,,,,2,5.88746,,0,0,54,54,16,1,stimuli/stim_20210407_power2amp/equal_lnn_AM1.2Hz_94.m4a,,,
,,,,,41188,2021-05-10_17h58.19.755,judgeSpeechMusic_20210407_logNormShiftAmp,2020.1.2,MacIntel,60,,,,,,,,,,,,,,,,,,,,,,,,,,1,9.09279,,0,0,55,55,82,1,stimuli/stim_20210407_power2amp/equal_lnn_AM3.6Hz_9.m4a,,,
,,,,,41188,2021-05-10_17h58.19.755,judgeSpeechMusic_20210407_logNormShiftAmp,2020.1.2,MacIntel,60,,,,,,,,,,,,,,,,,,,,,,,,,,2,6.77948,,0,0,56,56,79,1,stimuli/stim_20210407_power2amp/equal_lnn_AM3.6Hz_1.m4a,,,
,,,,,41188,2021-05-10_17h58.19.755,judgeSpeechMusic_20210407_logNormShiftAmp,2020.1.2,MacIntel,60,,,,,,,,,,,,,,,,,,,,,,,,,,2,7.378325,,0,0,57,57,111,1,stimuli/stim_20210407_power2amp/equal_lnn_AM4.8Hz_98.m4a,,,
,,,,,41188,2021-05-10_17h58.19.755,judgeSpeechMusic_20210407_logNormShiftAmp,2020.1.2,MacIntel,60,,,,,,,,,,,,,,,,,,,,,,,,,,2,5.79565,,0,0,58,58,72,1,stimuli/stim_20210407_power2amp/equal_lnn_AM3Hz_54.m4a,,,
,,,,,41188,2021-05-10_17h58.19.755,judgeSpeechMusic_20210407_logNormShiftAmp,2020.1.2,MacIntel,60,,,,,,,,,,,,,,,,,,,,,,,,,,2,6.709605,,0,0,59,59,98,1,stimuli/stim_20210407_power2amp/equal_lnn_AM4.2Hz_47.m4a,,,
,,,,,41188,2021-05-10_17h58.19.755,judgeSpeechMusic_20210407_logNormShiftAmp,2020.1.2,MacIntel,60,,,,,,,,,,,,,,,,,,,,,,,,,,1,6.459985,,0,0,60,60,83,1,stimuli/stim_20210407_power2amp/equal_lnn_AM3.6Hz_82.m4a,,,
,,,,,41188,2021-05-10_17h58.19.755,judgeSpeechMusic_20210407_logNormShiftAmp,2020.1.2,MacIntel,60,,,,,,,,,,,,,,,,,,,,,,,,,,1,6.479825,,0,0,61,61,75,1,stimuli/stim_20210407_power2amp/equal_lnn_AM3.6Hz_79.m4a,,,
,,,,,41188,2021-05-10_17h58.19.755,judgeSpeechMusic_20210407_logNormShiftAmp,2020.1.2,MacIntel,60,,,,,,,,,,,,,,,,,,,,,,,,,,2,7.92993,,0,0,62,62,54,1,stimuli/stim_20210407_power2amp/equal_lnn_AM2.4Hz_1.m4a,,,
,,,,,41188,2021-05-10_17h58.19.755,judgeSpeechMusic_20210407_logNormShiftAmp,2020.1.2,MacIntel,60,,,,,,,,,,,,,,,,,,,,,,,,,,1,6.410595,,0,0,63,63,91,1,stimuli/stim_20210407_power2amp/equal_lnn_AM4.2Hz_6.m4a,,,
,,,,,41188,2021-05-10_17h58.19.755,judgeSpeechMusic_20210407_logNormShiftAmp,2020.1.2,MacIntel,60,,,,,,,,,,,,,,,,,,,,,,,,,,1,5.654855,,0,0,64,64,126,1,stimuli/stim_20210407_power2amp/equal_lnn_AM5.4Hz_17.m4a,,,
,,,,,41188,2021-05-10_17h58.19.755,judgeSpeechMusic_20210407_logNormShiftAmp,2020.1.2,MacIntel,60,,,,,,,,,,,,,,,,,,,,,,,,,,2,7.210255,,0,0,65,65,42,1,stimuli/stim_20210407_power2amp/equal_lnn_AM1.8Hz_8.m4a,,,
,,,,,41188,2021-05-10_17h58.19.755,judgeSpeechMusic_20210407_logNormShiftAmp,2020.1.2,MacIntel,60,,,,,,,,,,,,,,,,,,,,,,,,,,1,7.02186,,0,0,66,66,66,1,stimuli/stim_20210407_power2amp/equal_lnn_AM3Hz_1.m4a,,,
,,,,,41188,2021-05-10_17h58.19.755,judgeSpeechMusic_20210407_logNormShiftAmp,2020.1.2,MacIntel,60,,,,,,,,,,,,,,,,,,,,,,,,,,1,7.996285,,0,0,67,67,119,1,stimuli/stim_20210407_power2amp/equal_lnn_AM4.8Hz_24.m4a,,,
,,,,,41188,2021-05-10_17h58.19.755,judgeSpeechMusic_20210407_logNormShiftAmp,2020.1.2,MacIntel,60,,,,,,,,,,,,,,,,,,,,,,,,,,1,6.522305,,0,0,68,68,41,1,stimuli/stim_20210407_power2amp/equal_lnn_AM1.8Hz_98.m4a,,,
,,,,,41188,2021-05-10_17h58.19.755,judgeSpeechMusic_20210407_logNormShiftAmp,2020.1.2,MacIntel,60,,,,,,,,,,,,,,,,,,,,,,,,,,2,7.3277,,0,0,69,69,22,1,stimuli/stim_20210407_power2amp/equal_lnn_AM1.2Hz_19.m4a,,,
,,,,,41188,2021-05-10_17h58.19.755,judgeSpeechMusic_20210407_logNormShiftAmp,2020.1.2,MacIntel,60,,,,,,,,,,,,,,,,,,,,,,,,,,1,6.313805,,0,0,70,70,47,1,stimuli/stim_20210407_power2amp/equal_lnn_AM2.4Hz_83.m4a,,,
,,,,,41188,2021-05-10_17h58.19.755,judgeSpeechMusic_20210407_logNormShiftAmp,2020.1.2,MacIntel,60,,,,,,,,,,,,,,,,,,,,,,,,,,2,6.90483,,0,0,71,71,76,1,stimuli/stim_20210407_power2amp/equal_lnn_AM3.6Hz_65.m4a,,,
,,,,,41188,2021-05-10_17h58.19.755,judgeSpeechMusic_20210407_logNormShiftAmp,2020.1.2,MacIntel,60,,,,,,,,,,,,,,,,,,,,,,,,,,1,6.810325,,0,0,72,72,134,1,stimuli/stim_20210407_power2amp/equal_lnn_AM5.4Hz_64.m4a,,,
,,,,,41188,2021-05-10_17h58.19.755,judgeSpeechMusic_20210407_logNormShiftAmp,2020.1.2,MacIntel,60,,,,,,,,,,,,,,,,,,,,,,,,,,2,6.892205,,0,0,73,73,59,1,stimuli/stim_20210407_power2amp/equal_lnn_AM2.4Hz_39.m4a,,,
,,,,,41188,2021-05-10_17h58.19.755,judgeSpeechMusic_20210407_logNormShiftAmp,2020.1.2,MacIntel,60,,,,,,,,,,,,,,,,,,,,,,,,,,2,6.86982,,0,0,74,74,146,1,stimuli/stim_20210407_power2amp/equal_lnn_AM6Hz_54.m4a,,,
,,,,,41188,2021-05-10_17h58.19.755,judgeSpeechMusic_20210407_logNormShiftAmp,2020.1.2,MacIntel,60,,,,,,,,,,,,,,,,,,,,,,,,,,1,6.788395,,0,0,75,75,104,1,stimuli/stim_20210407_power2amp/equal_lnn_AM4.2Hz_64.m4a,,,
,,,,,41188,2021-05-10_17h58.19.755,judgeSpeechMusic_20210407_logNormShiftAmp,2020.1.2,MacIntel,60,,,,,,,,,,,,,,,,,,,,,,,,,,2,5.727395,,0,0,76,76,87,1,stimuli/stim_20210407_power2amp/equal_lnn_AM3.6Hz_86.m4a,,,
,,,,,41188,2021-05-10_17h58.19.755,judgeSpeechMusic_20210407_logNormShiftAmp,2020.1.2,MacIntel,60,,,,,,,,,,,,,,,,,,,,,,,,,,1,9.224605,,0,0,77,77,145,1,stimuli/stim_20210407_power2amp/equal_lnn_AM6Hz_49.m4a,,,
,,,,,41188,2021-05-10_17h58.19.755,judgeSpeechMusic_20210407_logNormShiftAmp,2020.1.2,MacIntel,60,,,,,,,,,,,,,,,,,,,,,,,,,,2,7.060195,1,1,0,78,78,100,1,stimuli/stim_20210407_power2amp/equal_lnn_AM4.2Hz_59.m4a,1.4903,,
,,,,,41188,2021-05-10_17h58.19.755,judgeSpeechMusic_20210407_logNormShiftAmp,2020.1.2,MacIntel,60,,,,,,,,,,,,,,,,,,,,,,,,,,2,6.57065,,0,0,79,79,62,1,stimuli/stim_20210407_power2amp/equal_lnn_AM3Hz_79.m4a,,,
,,,,,41188,2021-05-10_17h58.19.755,judgeSpeechMusic_20210407_logNormShiftAmp,2020.1.2,MacIntel,60,,,,,,,,,,,,,,,,,,,,,,,,,,2,10.746245,,0,0,80,80,95,1,stimuli/stim_20210407_power2amp/equal_lnn_AM4.2Hz_41.m4a,,,
,,,,,41188,2021-05-10_17h58.19.755,judgeSpeechMusic_20210407_logNormShiftAmp,2020.1.2,MacIntel,60,,,,,,,,,,,,,,,,,,,,,,,,,,1,5.95561,,0,0,81,81,97,1,stimuli/stim_20210407_power2amp/equal_lnn_AM4.2Hz_3.m4a,,,
,,,,,41188,2021-05-10_17h58.19.755,judgeSpeechMusic_20210407_logNormShiftAmp,2020.1.2,MacIntel,60,,,,,,,,,,,,,,,,,,,,,,,,,,1,6.9556,,0,0,82,82,140,1,stimuli/stim_20210407_power2amp/equal_lnn_AM6Hz_19.m4a,,,
,,,,,41188,2021-05-10_17h58.19.755,judgeSpeechMusic_20210407_logNormShiftAmp,2020.1.2,MacIntel,60,,,,,,,,,,,,,,,,,,,,,,,,,,1,5.696925,,0,0,83,83,147,1,stimuli/stim_20210407_power2amp/equal_lnn_AM6Hz_61.m4a,,,
,,,,,41188,2021-05-10_17h58.19.755,judgeSpeechMusic_20210407_logNormShiftAmp,2020.1.2,MacIntel,60,,,,,,,,,,,,,,,,,,,,,,,,,,1,5.954905,,0,0,84,84,57,1,stimuli/stim_20210407_power2amp/equal_lnn_AM2.4Hz_41.m4a,,,
,,,,,41188,2021-05-10_17h58.19.755,judgeSpeechMusic_20210407_logNormShiftAmp,2020.1.2,MacIntel,60,,,,,,,,,,,,,,,,,,,,,,,,,,2,6.397185,,0,0,85,85,149,1,stimuli/stim_20210407_power2amp/equal_lnn_AM6Hz_82.m4a,,,
,,,,,41188,2021-05-10_17h58.19.755,judgeSpeechMusic_20210407_logNormShiftAmp,2020.1.2,MacIntel,60,,,,,,,,,,,,,,,,,,,,,,,,,,1,6.503665,,0,0,86,86,69,1,stimuli/stim_20210407_power2amp/equal_lnn_AM3Hz_61.m4a,,,
,,,,,41188,2021-05-10_17h58.19.755,judgeSpeechMusic_20210407_logNormShiftAmp,2020.1.2,MacIntel,60,,,,,,,,,,,,,,,,,,,,,,,,,,1,7.40649,,0,0,87,87,18,1,stimuli/stim_20210407_power2amp/equal_lnn_AM1.2Hz_54.m4a,,,
,,,,,41188,2021-05-10_17h58.19.755,judgeSpeechMusic_20210407_logNormShiftAmp,2020.1.2,MacIntel,60,,,,,,,,,,,,,,,,,,,,,,,,,,2,6.49017,,0,0,88,88,112,1,stimuli/stim_20210407_power2amp/equal_lnn_AM4.8Hz_60.m4a,,,
,,,,,41188,2021-05-10_17h58.19.755,judgeSpeechMusic_20210407_logNormShiftAmp,2020.1.2,MacIntel,60,,,,,,,,,,,,,,,,,,,,,,,,,,2,6.39113,,0,0,89,89,45,1,stimuli/stim_20210407_power2amp/equal_lnn_AM2.4Hz_74.m4a,,,
,,,,,41188,2021-05-10_17h58.19.755,judgeSpeechMusic_20210407_logNormShiftAmp,2020.1.2,MacIntel,60,,,,,,,,,,,,,,,,,,,,,,,,,,2,9.30587,,0,0,90,90,113,1,stimuli/stim_20210407_power2amp/equal_lnn_AM4.8Hz_49.m4a,,,
,,,,,41188,2021-05-10_17h58.19.755,judgeSpeechMusic_20210407_logNormShiftAmp,2020.1.2,MacIntel,60,,,,,,,,,,,,,,,,,,,,,,,,,,1,6.004895,,0,0,91,91,115,1,stimuli/stim_20210407_power2amp/equal_lnn_AM4.8Hz_94.m4a,,,
,,,,,41188,2021-05-10_17h58.19.755,judgeSpeechMusic_20210407_logNormShiftAmp,2020.1.2,MacIntel,60,,,,,,,,,,,,,,,,,,,,,,,,,,1,6.944775,,0,0,92,92,141,1,stimuli/stim_20210407_power2amp/equal_lnn_AM6Hz_58.m4a,,,
,,,,,41188,2021-05-10_17h58.19.755,judgeSpeechMusic_20210407_logNormShiftAmp,2020.1.2,MacIntel,60,,,,,,,,,,,,,,,,,,,,,,,,,,1,5.694835,,0,0,93,93,116,1,stimuli/stim_20210407_power2amp/equal_lnn_AM4.8Hz_77.m4a,,,
,,,,,41188,2021-05-10_17h58.19.755,judgeSpeechMusic_20210407_logNormShiftAmp,2020.1.2,MacIntel,60,,,,,,,,,,,,,,,,,,,,,,,,,,2,7.139585,,0,0,94,94,139,1,stimuli/stim_20210407_power2amp/equal_lnn_AM6Hz_1.m4a,,,
,,,,,41188,2021-05-10_17h58.19.755,judgeSpeechMusic_20210407_logNormShiftAmp,2020.1.2,MacIntel,60,,,,,,,,,,,,,,,,,,,,,,,,,,1,7.105465,,0,0,95,95,123,1,stimuli/stim_20210407_power2amp/equal_lnn_AM5.4Hz_7.m4a,,,
,,,,,41188,2021-05-10_17h58.19.755,judgeSpeechMusic_20210407_logNormShiftAmp,2020.1.2,MacIntel,60,,,,,,,,,,,,,,,,,,,,,,,,,,1,6.712335,,0,0,96,96,60,1,stimuli/stim_20210407_power2amp/equal_lnn_AM3Hz_88.m4a,,,
,,,,,41188,2021-05-10_17h58.19.755,judgeSpeechMusic_20210407_logNormShiftAmp,2020.1.2,MacIntel,60,,,,,,,,,,,,,,,,,,,,,,,,,,2,6.10536,,0,0,97,97,65,1,stimuli/stim_20210407_power2amp/equal_lnn_AM3Hz_14.m4a,,,
,,,,,41188,2021-05-10_17h58.19.755,judgeSpeechMusic_20210407_logNormShiftAmp,2020.1.2,MacIntel,60,,,,,,,,,,,,,,,,,,,,,,,,,,1,5.66166,,0,0,98,98,131,1,stimuli/stim_20210407_power2amp/equal_lnn_AM5.4Hz_10.m4a,,,
,,,,,41188,2021-05-10_17h58.19.755,judgeSpeechMusic_20210407_logNormShiftAmp,2020.1.2,MacIntel,60,,,,,,,,,,,,,,,,,,,,,,,,,,1,5.713875,,0,0,99,99,143,1,stimuli/stim_20210407_power2amp/equal_lnn_AM6Hz_21.m4a,,,
,,,,,41188,2021-05-10_17h58.19.755,judgeSpeechMusic_20210407_logNormShiftAmp,2020.1.2,MacIntel,60,,,,,,,,,,,,,,,,,,,,,,,,,,2,7.623035,,0,0,100,100,99,1,stimuli/stim_20210407_power2amp/equal_lnn_AM4.2Hz_89.m4a,,,
,,,,,41188,2021-05-10_17h58.19.755,judgeSpeechMusic_20210407_logNormShiftAmp,2020.1.2,MacIntel,60,,,,,,,,,,,,,,,,,,,,,,,,,,2,5.8093,2,1,0,101,101,77,1,stimuli/stim_20210407_power2amp/equal_lnn_AM3.6Hz_23.m4a,0.543605,,
,,,,,41188,2021-05-10_17h58.19.755,judgeSpeechMusic_20210407_logNormShiftAmp,2020.1.2,MacIntel,60,,,,,,,,,,,,,,,,,,,,,,,,,,1,7.265105,,0,0,102,102,20,1,stimuli/stim_20210407_power2amp/equal_lnn_AM1.2Hz_31.m4a,,,
,,,,,41188,2021-05-10_17h58.19.755,judgeSpeechMusic_20210407_logNormShiftAmp,2020.1.2,MacIntel,60,,,,,,,,,,,,,,,,,,,,,,,,,,1,7.37496,,0,0,103,103,2,1,stimuli/stim_20210407_power2amp/equal_lnn_AM0.6Hz_46.m4a,,,
,,,,,41188,2021-05-10_17h58.19.755,judgeSpeechMusic_20210407_logNormShiftAmp,2020.1.2,MacIntel,60,,,,,,,,,,,,,,,,,,,,,,,,,,2,6.922315,,0,0,104,104,71,1,stimuli/stim_20210407_power2amp/equal_lnn_AM3Hz_86.m4a,,,
,,,,,41188,2021-05-10_17h58.19.755,judgeSpeechMusic_20210407_logNormShiftAmp,2020.1.2,MacIntel,60,,,,,,,,,,,,,,,,,,,,,,,,,,1,6.172635,,0,0,105,105,70,1,stimuli/stim_20210407_power2amp/equal_lnn_AM3Hz_85.m4a,,,
,,,,,41188,2021-05-10_17h58.19.755,judgeSpeechMusic_20210407_logNormShiftAmp,2020.1.2,MacIntel,60,,,,,,,,,,,,,,,,,,,,,,,,,,2,6.823435,,0,0,106,106,3,1,stimuli/stim_20210407_power2amp/equal_lnn_AM0.6Hz_4.m4a,,,
,,,,,41188,2021-05-10_17h58.19.755,judgeSpeechMusic_20210407_logNormShiftAmp,2020.1.2,MacIntel,60,,,,,,,,,,,,,,,,,,,,,,,,,,1,8.08888,,0,0,107,107,55,1,stimuli/stim_20210407_power2amp/equal_lnn_AM2.4Hz_6.m4a,,,
,,,,,41188,2021-05-10_17h58.19.755,judgeSpeechMusic_20210407_logNormShiftAmp,2020.1.2,MacIntel,60,,,,,,,,,,,,,,,,,,,,,,,,,,1,5.7784,,0,0,108,108,26,1,stimuli/stim_20210407_power2amp/equal_lnn_AM1.2Hz_88.m4a,,,
,,,,,41188,2021-05-10_17h58.19.755,judgeSpeechMusic_20210407_logNormShiftAmp,2020.1.2,MacIntel,60,,,,,,,,,,,,,,,,,,,,,,,,,,2,5.7628,,0,0,109,109,84,1,stimuli/stim_20210407_power2amp/equal_lnn_AM3.6Hz_14.m4a,,,
,,,,,41188,2021-05-10_17h58.19.755,judgeSpeechMusic_20210407_logNormShiftAmp,2020.1.2,MacIntel,60,,,,,,,,,,,,,,,,,,,,,,,,,,1,6.84728,,0,0,110,110,48,1,stimuli/stim_20210407_power2amp/equal_lnn_AM2.4Hz_48.m4a,,,
,,,,,41188,2021-05-10_17h58.19.755,judgeSpeechMusic_20210407_logNormShiftAmp,2020.1.2,MacIntel,60,,,,,,,,,,,,,,,,,,,,,,,,,,2,6.45937,,0,0,111,111,8,1,stimuli/stim_20210407_power2amp/equal_lnn_AM0.6Hz_2.m4a,,,
,,,,,41188,2021-05-10_17h58.19.755,judgeSpeechMusic_20210407_logNormShiftAmp,2020.1.2,MacIntel,60,,,,,,,,,,,,,,,,,,,,,,,,,,1,7.124905,,0,0,112,112,19,1,stimuli/stim_20210407_power2amp/equal_lnn_AM1.2Hz_73.m4a,,,
,,,,,41188,2021-05-10_17h58.19.755,judgeSpeechMusic_20210407_logNormShiftAmp,2020.1.2,MacIntel,60,,,,,,,,,,,,,,,,,,,,,,,,,,1,6.380635,,0,0,113,113,30,1,stimuli/stim_20210407_power2amp/equal_lnn_AM1.8Hz_32.m4a,,,
,,,,,41188,2021-05-10_17h58.19.755,judgeSpeechMusic_20210407_logNormShiftAmp,2020.1.2,MacIntel,60,,,,,,,,,,,,,,,,,,,,,,,,,,2,7.042895,,0,0,114,114,122,1,stimuli/stim_20210407_power2amp/equal_lnn_AM5.4Hz_72.m4a,,,
,,,,,41188,2021-05-10_17h58.19.755,judgeSpeechMusic_20210407_logNormShiftAmp,2020.1.2,MacIntel,60,,,,,,,,,,,,,,,,,,,,,,,,,,1,6.73014,,0,0,115,115,46,1,stimuli/stim_20210407_power2amp/equal_lnn_AM2.4Hz_24.m4a,,,
,,,,,41188,2021-05-10_17h58.19.755,judgeSpeechMusic_20210407_logNormShiftAmp,2020.1.2,MacIntel,60,,,,,,,,,,,,,,,,,,,,,,,,,,2,6.963665,,0,0,116,116,31,1,stimuli/stim_20210407_power2amp/equal_lnn_AM1.8Hz_80.m4a,,,
,,,,,41188,2021-05-10_17h58.19.755,judgeSpeechMusic_20210407_logNormShiftAmp,2020.1.2,MacIntel,60,,,,,,,,,,,,,,,,,,,,,,,,,,1,7.29453,,0,0,117,117,67,1,stimuli/stim_20210407_power2amp/equal_lnn_AM3Hz_47.m4a,,,
,,,,,41188,2021-05-10_17h58.19.755,judgeSpeechMusic_20210407_logNormShiftAmp,2020.1.2,MacIntel,60,,,,,,,,,,,,,,,,,,,,,,,,,,2,7.9376,,0,0,118,118,90,1,stimuli/stim_20210407_power2amp/equal_lnn_AM4.2Hz_51.m4a,,,
,,,,,41188,2021-05-10_17h58.19.755,judgeSpeechMusic_20210407_logNormShiftAmp,2020.1.2,MacIntel,60,,,,,,,,,,,,,,,,,,,,,,,,,,2,6.122955,,0,0,119,119,4,1,stimuli/stim_20210407_power2amp/equal_lnn_AM0.6Hz_30.m4a,,,
,,,,,41188,2021-05-10_17h58.19.755,judgeSpeechMusic_20210407_logNormShiftAmp,2020.1.2,MacIntel,60,,,,,,,,,,,,,,,,,,,,,,,,,,2,5.840065,,0,0,120,120,109,1,stimuli/stim_20210407_power2amp/equal_lnn_AM4.8Hz_88.m4a,,,
,,,,,41188,2021-05-10_17h58.19.755,judgeSpeechMusic_20210407_logNormShiftAmp,2020.1.2,MacIntel,60,,,,,,,,,,,,,,,,,,,,,,,,,,1,5.905055,,0,0,121,121,117,1,stimuli/stim_20210407_power2amp/equal_lnn_AM4.8Hz_5.m4a,,,
,,,,,41188,2021-05-10_17h58.19.755,judgeSpeechMusic_20210407_logNormShiftAmp,2020.1.2,MacIntel,60,,,,,,,,,,,,,,,,,,,,,,,,,,1,5.712975,1,1,0,122,122,81,1,stimuli/stim_20210407_power2amp/equal_lnn_AM3.6Hz_52.m4a,0.30816,,
,,,,,41188,2021-05-10_17h58.19.755,judgeSpeechMusic_20210407_logNormShiftAmp,2020.1.2,MacIntel,60,,,,,,,,,,,,,,,,,,,,,,,,,,1,5.72218,,0,0,123,123,29,1,stimuli/stim_20210407_power2amp/equal_lnn_AM1.2Hz_90.m4a,,,
,,,,,41188,2021-05-10_17h58.19.755,judgeSpeechMusic_20210407_logNormShiftAmp,2020.1.2,MacIntel,60,,,,,,,,,,,,,,,,,,,,,,,,,,2,7.296815,,0,0,124,124,114,1,stimuli/stim_20210407_power2amp/equal_lnn_AM4.8Hz_4.m4a,,,
,,,,,41188,2021-05-10_17h58.19.755,judgeSpeechMusic_20210407_logNormShiftAmp,2020.1.2,MacIntel,60,,,,,,,,,,,,,,,,,,,,,,,,,,1,7.87025,,0,0,125,125,110,1,stimuli/stim_20210407_power2amp/equal_lnn_AM4.8Hz_89.m4a,,,
,,,,,41188,2021-05-10_17h58.19.755,judgeSpeechMusic_20210407_logNormShiftAmp,2020.1.2,MacIntel,60,,,,,,,,,,,,,,,,,,,,,,,,,,2,7.411715,,0,0,126,126,80,1,stimuli/stim_20210407_power2amp/equal_lnn_AM3.6Hz_96.m4a,,,
,,,,,41188,2021-05-10_17h58.19.755,judgeSpeechMusic_20210407_logNormShiftAmp,2020.1.2,MacIntel,60,,,,,,,,,,,,,,,,,,,,,,,,,,1,6.895225,,0,0,127,127,43,1,stimuli/stim_20210407_power2amp/equal_lnn_AM1.8Hz_95.m4a,,,
,,,,,41188,2021-05-10_17h58.19.755,judgeSpeechMusic_20210407_logNormShiftAmp,2020.1.2,MacIntel,60,,,,,,,,,,,,,,,,,,,,,,,,,,2,7.222585,,0,0,128,128,142,1,stimuli/stim_20210407_power2amp/equal_lnn_AM6Hz_87.m4a,,,
,,,,,41188,2021-05-10_17h58.19.755,judgeSpeechMusic_20210407_logNormShiftAmp,2020.1.2,MacIntel,60,,,,,,,,,,,,,,,,,,,,,,,,,,1,7.77796,,0,0,129,129,137,1,stimuli/stim_20210407_power2amp/equal_lnn_AM6Hz_81.m4a,,,
,,,,,41188,2021-05-10_17h58.19.755,judgeSpeechMusic_20210407_logNormShiftAmp,2020.1.2,MacIntel,60,,,,,,,,,,,,,,,,,,,,,,,,,,2,7.22279,,0,0,130,130,105,1,stimuli/stim_20210407_power2amp/equal_lnn_AM4.8Hz_17.m4a,,,
,,,,,41188,2021-05-10_17h58.19.755,judgeSpeechMusic_20210407_logNormShiftAmp,2020.1.2,MacIntel,60,,,,,,,,,,,,,,,,,,,,,,,,,,1,8.030585,,0,0,131,131,15,1,stimuli/stim_20210407_power2amp/equal_lnn_AM1.2Hz_64.m4a,,,
,,,,,41188,2021-05-10_17h58.19.755,judgeSpeechMusic_20210407_logNormShiftAmp,2020.1.2,MacIntel,60,,,,,,,,,,,,,,,,,,,,,,,,,,2,7.144025,,0,0,132,132,23,1,stimuli/stim_20210407_power2amp/equal_lnn_AM1.2Hz_70.m4a,,,
,,,,,41188,2021-05-10_17h58.19.755,judgeSpeechMusic_20210407_logNormShiftAmp,2020.1.2,MacIntel,60,,,,,,,,,,,,,,,,,,,,,,,,,,1,7.071595,,0,0,133,133,135,1,stimuli/stim_20210407_power2amp/equal_lnn_AM6Hz_27.m4a,,,
,,,,,41188,2021-05-10_17h58.19.755,judgeSpeechMusic_20210407_logNormShiftAmp,2020.1.2,MacIntel,60,,,,,,,,,,,,,,,,,,,,,,,,,,1,6.42815,,0,0,134,134,50,1,stimuli/stim_20210407_power2amp/equal_lnn_AM2.4Hz_11.m4a,,,
,,,,,41188,2021-05-10_17h58.19.755,judgeSpeechMusic_20210407_logNormShiftAmp,2020.1.2,MacIntel,60,,,,,,,,,,,,,,,,,,,,,,,,,,2,6.908715,,0,0,135,135,40,1,stimuli/stim_20210407_power2amp/equal_lnn_AM1.8Hz_24.m4a,,,
,,,,,41188,2021-05-10_17h58.19.755,judgeSpeechMusic_20210407_logNormShiftAmp,2020.1.2,MacIntel,60,,,,,,,,,,,,,,,,,,,,,,,,,,1,6.228835,,0,0,136,136,6,1,stimuli/stim_20210407_power2amp/equal_lnn_AM0.6Hz_72.m4a,,,
,,,,,41188,2021-05-10_17h58.19.755,judgeSpeechMusic_20210407_logNormShiftAmp,2020.1.2,MacIntel,60,,,,,,,,,,,,,,,,,,,,,,,,,,2,7.212505,,0,0,137,137,96,1,stimuli/stim_20210407_power2amp/equal_lnn_AM4.2Hz_8.m4a,,,
,,,,,41188,2021-05-10_17h58.19.755,judgeSpeechMusic_20210407_logNormShiftAmp,2020.1.2,MacIntel,60,,,,,,,,,,,,,,,,,,,,,,,,,,2,5.75461,,0,0,138,138,108,1,stimuli/stim_20210407_power2amp/equal_lnn_AM4.8Hz_46.m4a,,,
,,,,,41188,2021-05-10_17h58.19.755,judgeSpeechMusic_20210407_logNormShiftAmp,2020.1.2,MacIntel,60,,,,,,,,,,,,,,,,,,,,,,,,,,1,6.67944,,0,0,139,139,93,1,stimuli/stim_20210407_power2amp/equal_lnn_AM4.2Hz_2.m4a,,,
,,,,,41188,2021-05-10_17h58.19.755,judgeSpeechMusic_20210407_logNormShiftAmp,2020.1.2,MacIntel,60,,,,,,,,,,,,,,,,,,,,,,,,,,1,7.16061,,0,0,140,140,63,1,stimuli/stim_20210407_power2amp/equal_lnn_AM3Hz_78.m4a,,,
,,,,,41188,2021-05-10_17h58.19.755,judgeSpeechMusic_20210407_logNormShiftAmp,2020.1.2,MacIntel,60,,,,,,,,,,,,,,,,,,,,,,,,,,2,6.13019,,0,0,141,141,127,1,stimuli/stim_20210407_power2amp/equal_lnn_AM5.4Hz_31.m4a,,,
,,,,,41188,2021-05-10_17h58.19.755,judgeSpeechMusic_20210407_logNormShiftAmp,2020.1.2,MacIntel,60,,,,,,,,,,,,,,,,,,,,,,,,,,1,6.960245,,0,0,142,142,5,1,stimuli/stim_20210407_power2amp/equal_lnn_AM0.6Hz_81.m4a,,,
,,,,,41188,2021-05-10_17h58.19.755,judgeSpeechMusic_20210407_logNormShiftAmp,2020.1.2,MacIntel,60,,,,,,,,,,,,,,,,,,,,,,,,,,2,6.477395,3,1,0,143,143,130,1,stimuli/stim_20210407_power2amp/equal_lnn_AM5.4Hz_18.m4a,0.589665,,
,,,,,41188,2021-05-10_17h58.19.755,judgeSpeechMusic_20210407_logNormShiftAmp,2020.1.2,MacIntel,60,,,,,,,,,,,,,,,,,,,,,,,,,,1,5.812435,,0,0,144,144,118,1,stimuli/stim_20210407_power2amp/equal_lnn_AM4.8Hz_34.m4a,,,
,,,,,41188,2021-05-10_17h58.19.755,judgeSpeechMusic_20210407_logNormShiftAmp,2020.1.2,MacIntel,60,,,,,,,,,,,,,,,,,,,,,,,,,,2,6.028835,,0,0,145,145,32,1,stimuli/stim_20210407_power2amp/equal_lnn_AM1.8Hz_79.m4a,,,
,,,,,41188,2021-05-10_17h58.19.755,judgeSpeechMusic_20210407_logNormShiftAmp,2020.1.2,MacIntel,60,,,,,,,,,,,,,,,,,,,,,,,,,,1,6.06191,,0,0,146,146,13,1,stimuli/stim_20210407_power2amp/equal_lnn_AM0.6Hz_54.m4a,,,
,,,,,41188,2021-05-10_17h58.19.755,judgeSpeechMusic_20210407_logNormShiftAmp,2020.1.2,MacIntel,60,,,,,,,,,,,,,,,,,,,,,,,,,,2,6.64615,,0,0,147,147,68,1,stimuli/stim_20210407_power2amp/equal_lnn_AM3Hz_50.m4a,,,
,,,,,41188,2021-05-10_17h58.19.755,judgeSpeechMusic_20210407_logNormShiftAmp,2020.1.2,MacIntel,60,,,,,,,,,,,,,,,,,,,,,,,,,,2,6.930035,,0,0,148,148,52,1,stimuli/stim_20210407_power2amp/equal_lnn_AM2.4Hz_78.m4a,,,
,,,,,41188,2021-05-10_17h58.19.755,judgeSpeechMusic_20210407_logNormShiftAmp,2020.1.2,MacIntel,60,,,,,,,,,,,,,,,,,,,,,,,,,,1,6.128485,,0,0,149,149,51,1,stimuli/stim_20210407_power2amp/equal_lnn_AM2.4Hz_20.m4a,,,
,,,,,41188,2021-05-10_17h58.19.755,judgeSpeechMusic_20210407_logNormShiftAmp,2020.1.2,MacIntel,60,,,,,,,,,,,,,,,,,,,,,,,,,,2,7.818155,,0,1,0,150,53,1,stimuli/stim_20210407_power2amp/equal_lnn_AM2.4Hz_31.m4a,,,
,,,,,41188,2021-05-10_17h58.19.755,judgeSpeechMusic_20210407_logNormShiftAmp,2020.1.2,MacIntel,60,,,,,,,,,,,,,,,,,,,,,,,,,,1,6.47534,,0,1,1,151,56,1,stimuli/stim_20210407_power2amp/equal_lnn_AM2.4Hz_10.m4a,,,
,,,,,41188,2021-05-10_17h58.19.755,judgeSpeechMusic_20210407_logNormShiftAmp,2020.1.2,MacIntel,60,,,,,,,,,,,,,,,,,,,,,,,,,,1,5.686845,,0,1,2,152,20,1,stimuli/stim_20210407_power2amp/equal_lnn_AM1.2Hz_31.m4a,,,
,,,,,41188,2021-05-10_17h58.19.755,judgeSpeechMusic_20210407_logNormShiftAmp,2020.1.2,MacIntel,60,,,,,,,,,,,,,,,,,,,,,,,,,,2,5.846805,,0,1,3,153,30,1,stimuli/stim_20210407_power2amp/equal_lnn_AM1.8Hz_32.m4a,,,
,,,,,41188,2021-05-10_17h58.19.755,judgeSpeechMusic_20210407_logNormShiftAmp,2020.1.2,MacIntel,60,,,,,,,,,,,,,,,,,,,,,,,,,,1,9.945055,,0,1,4,154,109,1,stimuli/stim_20210407_power2amp/equal_lnn_AM4.8Hz_88.m4a,,,
,,,,,41188,2021-05-10_17h58.19.755,judgeSpeechMusic_20210407_logNormShiftAmp,2020.1.2,MacIntel,60,,,,,,,,,,,,,,,,,,,,,,,,,,1,7.058625,,0,1,5,155,114,1,stimuli/stim_20210407_power2amp/equal_lnn_AM4.8Hz_4.m4a,,,
,,,,,41188,2021-05-10_17h58.19.755,judgeSpeechMusic_20210407_logNormShiftAmp,2020.1.2,MacIntel,60,,,,,,,,,,,,,,,,,,,,,,,,,,2,6.94672,,0,1,6,156,57,1,stimuli/stim_20210407_power2amp/equal_lnn_AM2.4Hz_41.m4a,,,
,,,,,41188,2021-05-10_17h58.19.755,judgeSpeechMusic_20210407_logNormShiftAmp,2020.1.2,MacIntel,60,,,,,,,,,,,,,,,,,,,,,,,,,,1,5.877215,,0,1,7,157,135,1,stimuli/stim_20210407_power2amp/equal_lnn_AM6Hz_27.m4a,,,
,,,,,41188,2021-05-10_17h58.19.755,judgeSpeechMusic_20210407_logNormShiftAmp,2020.1.2,MacIntel,60,,,,,,,,,,,,,,,,,,,,,,,,,,2,7.32817,,0,1,8,158,89,1,stimuli/stim_20210407_power2amp/equal_lnn_AM3.6Hz_63.m4a,,,
,,,,,41188,2021-05-10_17h58.19.755,judgeSpeechMusic_20210407_logNormShiftAmp,2020.1.2,MacIntel,60,,,,,,,,,,,,,,,,,,,,,,,,,,1,8.22703,,0,1,9,159,133,1,stimuli/stim_20210407_power2amp/equal_lnn_AM5.4Hz_33.m4a,,,
,,,,,41188,2021-05-10_17h58.19.755,judgeSpeechMusic_20210407_logNormShiftAmp,2020.1.2,MacIntel,60,,,,,,,,,,,,,,,,,,,,,,,,,,2,5.862235,,0,1,10,160,96,1,stimuli/stim_20210407_power2amp/equal_lnn_AM4.2Hz_8.m4a,,,
,,,,,41188,2021-05-10_17h58.19.755,judgeSpeechMusic_20210407_logNormShiftAmp,2020.1.2,MacIntel,60,,,,,,,,,,,,,,,,,,,,,,,,,,2,5.877285,,0,1,11,161,121,1,stimuli/stim_20210407_power2amp/equal_lnn_AM5.4Hz_54.m4a,,,
,,,,,41188,2021-05-10_17h58.19.755,judgeSpeechMusic_20210407_logNormShiftAmp,2020.1.2,MacIntel,60,,,,,,,,,,,,,,,,,,,,,,,,,,1,5.813385,,0,1,12,162,134,1,stimuli/stim_20210407_power2amp/equal_lnn_AM5.4Hz_64.m4a,,,
,,,,,41188,2021-05-10_17h58.19.755,judgeSpeechMusic_20210407_logNormShiftAmp,2020.1.2,MacIntel,60,,,,,,,,,,,,,,,,,,,,,,,,,,1,5.97873,,0,1,13,163,28,1,stimuli/stim_20210407_power2amp/equal_lnn_AM1.2Hz_8.m4a,,,
,,,,,41188,2021-05-10_17h58.19.755,judgeSpeechMusic_20210407_logNormShiftAmp,2020.1.2,MacIntel,60,,,,,,,,,,,,,,,,,,,,,,,,,,1,5.99437,,0,1,14,164,75,1,stimuli/stim_20210407_power2amp/equal_lnn_AM3.6Hz_79.m4a,,,
,,,,,41188,2021-05-10_17h58.19.755,judgeSpeechMusic_20210407_logNormShiftAmp,2020.1.2,MacIntel,60,,,,,,,,,,,,,,,,,,,,,,,,,,1,5.67842,,0,1,15,165,87,1,stimuli/stim_20210407_power2amp/equal_lnn_AM3.6Hz_86.m4a,,,
,,,,,41188,2021-05-10_17h58.19.755,judgeSpeechMusic_20210407_logNormShiftAmp,2020.1.2,MacIntel,60,,,,,,,,,,,,,,,,,,,,,,,,,,1,5.67009,,0,1,16,166,131,1,stimuli/stim_20210407_power2amp/equal_lnn_AM5.4Hz_10.m4a,,,
,,,,,41188,2021-05-10_17h58.19.755,judgeSpeechMusic_20210407_logNormShiftAmp,2020.1.2,MacIntel,60,,,,,,,,,,,,,,,,,,,,,,,,,,1,5.71294,,0,1,17,167,139,1,stimuli/stim_20210407_power2amp/equal_lnn_AM6Hz_1.m4a,,,
,,,,,41188,2021-05-10_17h58.19.755,judgeSpeechMusic_20210407_logNormShiftAmp,2020.1.2,MacIntel,60,,,,,,,,,,,,,,,,,,,,,,,,,,2,6.228995,3,1,1,18,168,6,1,stimuli/stim_20210407_power2amp/equal_lnn_AM0.6Hz_72.m4a,0.84886,,
,,,,,41188,2021-05-10_17h58.19.755,judgeSpeechMusic_20210407_logNormShiftAmp,2020.1.2,MacIntel,60,,,,,,,,,,,,,,,,,,,,,,,,,,2,6.47097,,0,1,19,169,42,1,stimuli/stim_20210407_power2amp/equal_lnn_AM1.8Hz_8.m4a,,,
,,,,,41188,2021-05-10_17h58.19.755,judgeSpeechMusic_20210407_logNormShiftAmp,2020.1.2,MacIntel,60,,,,,,,,,,,,,,,,,,,,,,,,,,2,6.296705,,0,1,20,170,70,1,stimuli/stim_20210407_power2amp/equal_lnn_AM3Hz_85.m4a,,,
,,,,,41188,2021-05-10_17h58.19.755,judgeSpeechMusic_20210407_logNormShiftAmp,2020.1.2,MacIntel,60,,,,,,,,,,,,,,,,,,,,,,,,,,1,6.74713,,0,1,21,171,68,1,stimuli/stim_20210407_power2amp/equal_lnn_AM3Hz_50.m4a,,,
,,,,,41188,2021-05-10_17h58.19.755,judgeSpeechMusic_20210407_logNormShiftAmp,2020.1.2,MacIntel,60,,,,,,,,,,,,,,,,,,,,,,,,,,2,7.046375,,0,1,22,172,77,1,stimuli/stim_20210407_power2amp/equal_lnn_AM3.6Hz_23.m4a,,,
,,,,,41188,2021-05-10_17h58.19.755,judgeSpeechMusic_20210407_logNormShiftAmp,2020.1.2,MacIntel,60,,,,,,,,,,,,,,,,,,,,,,,,,,1,6.44583,,0,1,23,173,105,1,stimuli/stim_20210407_power2amp/equal_lnn_AM4.8Hz_17.m4a,,,
,,,,,41188,2021-05-10_17h58.19.755,judgeSpeechMusic_20210407_logNormShiftAmp,2020.1.2,MacIntel,60,,,,,,,,,,,,,,,,,,,,,,,,,,2,6.99176,,0,1,24,174,19,1,stimuli/stim_20210407_power2amp/equal_lnn_AM1.2Hz_73.m4a,,,
,,,,,41188,2021-05-10_17h58.19.755,judgeSpeechMusic_20210407_logNormShiftAmp,2020.1.2,MacIntel,60,,,,,,,,,,,,,,,,,,,,,,,,,,1,7.130035,,0,1,25,175,102,1,stimuli/stim_20210407_power2amp/equal_lnn_AM4.2Hz_97.m4a,,,
,,,,,41188,2021-05-10_17h58.19.755,judgeSpeechMusic_20210407_logNormShiftAmp,2020.1.2,MacIntel,60,,,,,,,,,,,,,,,,,,,,,,,,,,2,6.043625,,0,1,26,176,148,1,stimuli/stim_20210407_power2amp/equal_lnn_AM6Hz_47.m4a,,,
,,,,,41188,2021-05-10_17h58.19.755,judgeSpeechMusic_20210407_logNormShiftAmp,2020.1.2,MacIntel,60,,,,,,,,,,,,,,,,,,,,,,,,,,2,6.845705,,0,1,27,177,98,1,stimuli/stim_20210407_power2amp/equal_lnn_AM4.2Hz_47.m4a,,,
,,,,,41188,2021-05-10_17h58.19.755,judgeSpeechMusic_20210407_logNormShiftAmp,2020.1.2,MacIntel,60,,,,,,,,,,,,,,,,,,,,,,,,,,1,6.729205,,0,1,28,178,84,1,stimuli/stim_20210407_power2amp/equal_lnn_AM3.6Hz_14.m4a,,,
,,,,,41188,2021-05-10_17h58.19.755,judgeSpeechMusic_20210407_logNormShiftAmp,2020.1.2,MacIntel,60,,,,,,,,,,,,,,,,,,,,,,,,,,1,6.954285,,0,1,29,179,8,1,stimuli/stim_20210407_power2amp/equal_lnn_AM0.6Hz_2.m4a,,,
,,,,,41188,2021-05-10_17h58.19.755,judgeSpeechMusic_20210407_logNormShiftAmp,2020.1.2,MacIntel,60,,,,,,,,,,,,,,,,,,,,,,,,,,2,6.81316,,0,1,30,180,49,1,stimuli/stim_20210407_power2amp/equal_lnn_AM2.4Hz_50.m4a,,,
,,,,,41188,2021-05-10_17h58.19.755,judgeSpeechMusic_20210407_logNormShiftAmp,2020.1.2,MacIntel,60,,,,,,,,,,,,,,,,,,,,,,,,,,1,6.378655,,0,1,31,181,17,1,stimuli/stim_20210407_power2amp/equal_lnn_AM1.2Hz_39.m4a,,,
,,,,,41188,2021-05-10_17h58.19.755,judgeSpeechMusic_20210407_logNormShiftAmp,2020.1.2,MacIntel,60,,,,,,,,,,,,,,,,,,,,,,,,,,2,7.679825,,0,1,32,182,47,1,stimuli/stim_20210407_power2amp/equal_lnn_AM2.4Hz_83.m4a,,,
,,,,,41188,2021-05-10_17h58.19.755,judgeSpeechMusic_20210407_logNormShiftAmp,2020.1.2,MacIntel,60,,,,,,,,,,,,,,,,,,,,,,,,,,2,11.33911,,0,1,33,183,101,1,stimuli/stim_20210407_power2amp/equal_lnn_AM4.2Hz_67.m4a,,,
,,,,,41188,2021-05-10_17h58.19.755,judgeSpeechMusic_20210407_logNormShiftAmp,2020.1.2,MacIntel,60,,,,,,,,,,,,,,,,,,,,,,,,,,2,6.446555,,0,1,34,184,95,1,stimuli/stim_20210407_power2amp/equal_lnn_AM4.2Hz_41.m4a,,,
,,,,,41188,2021-05-10_17h58.19.755,judgeSpeechMusic_20210407_logNormShiftAmp,2020.1.2,MacIntel,60,,,,,,,,,,,,,,,,,,,,,,,,,,1,6.862725,,0,1,35,185,111,1,stimuli/stim_20210407_power2amp/equal_lnn_AM4.8Hz_98.m4a,,,
,,,,,41188,2021-05-10_17h58.19.755,judgeSpeechMusic_20210407_logNormShiftAmp,2020.1.2,MacIntel,60,,,,,,,,,,,,,,,,,,,,,,,,,,2,7.646525,,0,1,36,186,64,1,stimuli/stim_20210407_power2amp/equal_lnn_AM3Hz_3.m4a,,,
,,,,,41188,2021-05-10_17h58.19.755,judgeSpeechMusic_20210407_logNormShiftAmp,2020.1.2,MacIntel,60,,,,,,,,,,,,,,,,,,,,,,,,,,1,6.74479,,0,1,37,187,32,1,stimuli/stim_20210407_power2amp/equal_lnn_AM1.8Hz_79.m4a,,,
,,,,,41188,2021-05-10_17h58.19.755,judgeSpeechMusic_20210407_logNormShiftAmp,2020.1.2,MacIntel,60,,,,,,,,,,,,,,,,,,,,,,,,,,2,6.50417,1,1,1,38,188,108,1,stimuli/stim_20210407_power2amp/equal_lnn_AM4.8Hz_46.m4a,1.11584,,
,,,,,41188,2021-05-10_17h58.19.755,judgeSpeechMusic_20210407_logNormShiftAmp,2020.1.2,MacIntel,60,,,,,,,,,,,,,,,,,,,,,,,,,,1,6.99055,,0,1,39,189,22,1,stimuli/stim_20210407_power2amp/equal_lnn_AM1.2Hz_19.m4a,,,
,,,,,41188,2021-05-10_17h58.19.755,judgeSpeechMusic_20210407_logNormShiftAmp,2020.1.2,MacIntel,60,,,,,,,,,,,,,,,,,,,,,,,,,,2,6.99856,,0,1,40,190,117,1,stimuli/stim_20210407_power2amp/equal_lnn_AM4.8Hz_5.m4a,,,
,,,,,41188,2021-05-10_17h58.19.755,judgeSpeechMusic_20210407_logNormShiftAmp,2020.1.2,MacIntel,60,,,,,,,,,,,,,,,,,,,,,,,,,,1,6.175545,,0,1,41,191,71,1,stimuli/stim_20210407_power2amp/equal_lnn_AM3Hz_86.m4a,,,
,,,,,41188,2021-05-10_17h58.19.755,judgeSpeechMusic_20210407_logNormShiftAmp,2020.1.2,MacIntel,60,,,,,,,,,,,,,,,,,,,,,,,,,,2,6.26146,,0,1,42,192,13,1,stimuli/stim_20210407_power2amp/equal_lnn_AM0.6Hz_54.m4a,,,
,,,,,41188,2021-05-10_17h58.19.755,judgeSpeechMusic_20210407_logNormShiftAmp,2020.1.2,MacIntel,60,,,,,,,,,,,,,,,,,,,,,,,,,,1,29.56122,,0,1,43,193,5,1,stimuli/stim_20210407_power2amp/equal_lnn_AM0.6Hz_81.m4a,,,
,,,,,41188,2021-05-10_17h58.19.755,judgeSpeechMusic_20210407_logNormShiftAmp,2020.1.2,MacIntel,60,,,,,,,,,,,,,,,,,,,,,,,,,,2,8.077995,,0,1,44,194,137,1,stimuli/stim_20210407_power2amp/equal_lnn_AM6Hz_81.m4a,,,
,,,,,41188,2021-05-10_17h58.19.755,judgeSpeechMusic_20210407_logNormShiftAmp,2020.1.2,MacIntel,60,,,,,,,,,,,,,,,,,,,,,,,,,,1,6.379055,,0,1,45,195,58,1,stimuli/stim_20210407_power2amp/equal_lnn_AM2.4Hz_29.m4a,,,
,,,,,41188,2021-05-10_17h58.19.755,judgeSpeechMusic_20210407_logNormShiftAmp,2020.1.2,MacIntel,60,,,,,,,,,,,,,,,,,,,,,,,,,,1,6.42974,,0,1,46,196,36,1,stimuli/stim_20210407_power2amp/equal_lnn_AM1.8Hz_70.m4a,,,
,,,,,41188,2021-05-10_17h58.19.755,judgeSpeechMusic_20210407_logNormShiftAmp,2020.1.2,MacIntel,60,,,,,,,,,,,,,,,,,,,,,,,,,,2,6.92165,,0,1,47,197,35,1,stimuli/stim_20210407_power2amp/equal_lnn_AM1.8Hz_49.m4a,,,
,,,,,41188,2021-05-10_17h58.19.755,judgeSpeechMusic_20210407_logNormShiftAmp,2020.1.2,MacIntel,60,,,,,,,,,,,,,,,,,,,,,,,,,,1,8.81144,,0,1,48,198,132,1,stimuli/stim_20210407_power2amp/equal_lnn_AM5.4Hz_75.m4a,,,
,,,,,41188,2021-05-10_17h58.19.755,judgeSpeechMusic_20210407_logNormShiftAmp,2020.1.2,MacIntel,60,,,,,,,,,,,,,,,,,,,,,,,,,,2,7.861785,,0,1,49,199,129,1,stimuli/stim_20210407_power2amp/equal_lnn_AM5.4Hz_24.m4a,,,
,,,,,41188,2021-05-10_17h58.19.755,judgeSpeechMusic_20210407_logNormShiftAmp,2020.1.2,MacIntel,60,,,,,,,,,,,,,,,,,,,,,,,,,,1,13.028115,,0,1,50,200,38,1,stimuli/stim_20210407_power2amp/equal_lnn_AM1.8Hz_11.m4a,,,
,,,,,41188,2021-05-10_17h58.19.755,judgeSpeechMusic_20210407_logNormShiftAmp,2020.1.2,MacIntel,60,,,,,,,,,,,,,,,,,,,,,,,,,,2,8.547395,,0,1,51,201,91,1,stimuli/stim_20210407_power2amp/equal_lnn_AM4.2Hz_6.m4a,,,
,,,,,41188,2021-05-10_17h58.19.755,judgeSpeechMusic_20210407_logNormShiftAmp,2020.1.2,MacIntel,60,,,,,,,,,,,,,,,,,,,,,,,,,,1,6.904825,,0,1,52,202,11,1,stimuli/stim_20210407_power2amp/equal_lnn_AM0.6Hz_99.m4a,,,
,,,,,41188,2021-05-10_17h58.19.755,judgeSpeechMusic_20210407_logNormShiftAmp,2020.1.2,MacIntel,60,,,,,,,,,,,,,,,,,,,,,,,,,,1,6.062955,,0,1,53,203,76,1,stimuli/stim_20210407_power2amp/equal_lnn_AM3.6Hz_65.m4a,,,
,,,,,41188,2021-05-10_17h58.19.755,judgeSpeechMusic_20210407_logNormShiftAmp,2020.1.2,MacIntel,60,,,,,,,,,,,,,,,,,,,,,,,,,,1,5.953875,,0,1,54,204,7,1,stimuli/stim_20210407_power2amp/equal_lnn_AM0.6Hz_91.m4a,,,
,,,,,41188,2021-05-10_17h58.19.755,judgeSpeechMusic_20210407_logNormShiftAmp,2020.1.2,MacIntel,60,,,,,,,,,,,,,,,,,,,,,,,,,,1,6.99343,,0,1,55,205,144,1,stimuli/stim_20210407_power2amp/equal_lnn_AM6Hz_34.m4a,,,
,,,,,41188,2021-05-10_17h58.19.755,judgeSpeechMusic_20210407_logNormShiftAmp,2020.1.2,MacIntel,60,,,,,,,,,,,,,,,,,,,,,,,,,,2,6.579775,,0,1,56,206,66,1,stimuli/stim_20210407_power2amp/equal_lnn_AM3Hz_1.m4a,,,
,,,,,41188,2021-05-10_17h58.19.755,judgeSpeechMusic_20210407_logNormShiftAmp,2020.1.2,MacIntel,60,,,,,,,,,,,,,,,,,,,,,,,,,,2,7.02017,,0,1,57,207,26,1,stimuli/stim_20210407_power2amp/equal_lnn_AM1.2Hz_88.m4a,,,
,,,,,41188,2021-05-10_17h58.19.755,judgeSpeechMusic_20210407_logNormShiftAmp,2020.1.2,MacIntel,60,,,,,,,,,,,,,,,,,,,,,,,,,,1,7.511895,,0,1,58,208,100,1,stimuli/stim_20210407_power2amp/equal_lnn_AM4.2Hz_59.m4a,,,
,,,,,41188,2021-05-10_17h58.19.755,judgeSpeechMusic_20210407_logNormShiftAmp,2020.1.2,MacIntel,60,,,,,,,,,,,,,,,,,,,,,,,,,,2,6.84462,,0,1,59,209,69,1,stimuli/stim_20210407_power2amp/equal_lnn_AM3Hz_61.m4a,,,
,,,,,41188,2021-05-10_17h58.19.755,judgeSpeechMusic_20210407_logNormShiftAmp,2020.1.2,MacIntel,60,,,,,,,,,,,,,,,,,,,,,,,,,,2,5.93231,,0,1,60,210,72,1,stimuli/stim_20210407_power2amp/equal_lnn_AM3Hz_54.m4a,,,
,,,,,41188,2021-05-10_17h58.19.755,judgeSpeechMusic_20210407_logNormShiftAmp,2020.1.2,MacIntel,60,,,,,,,,,,,,,,,,,,,,,,,,,,2,5.801275,,0,1,61,211,142,1,stimuli/stim_20210407_power2amp/equal_lnn_AM6Hz_87.m4a,,,
,,,,,41188,2021-05-10_17h58.19.755,judgeSpeechMusic_20210407_logNormShiftAmp,2020.1.2,MacIntel,60,,,,,,,,,,,,,,,,,,,,,,,,,,1,7.628935,1,1,1,62,212,65,1,stimuli/stim_20210407_power2amp/equal_lnn_AM3Hz_14.m4a,0.841625,,
,,,,,41188,2021-05-10_17h58.19.755,judgeSpeechMusic_20210407_logNormShiftAmp,2020.1.2,MacIntel,60,,,,,,,,,,,,,,,,,,,,,,,,,,1,6.095275,,0,1,63,213,88,1,stimuli/stim_20210407_power2amp/equal_lnn_AM3.6Hz_45.m4a,,,
,,,,,41188,2021-05-10_17h58.19.755,judgeSpeechMusic_20210407_logNormShiftAmp,2020.1.2,MacIntel,60,,,,,,,,,,,,,,,,,,,,,,,,,,2,7.541745,,0,1,64,214,1,1,stimuli/stim_20210407_power2amp/equal_lnn_AM0.6Hz_53.m4a,,,
,,,,,41188,2021-05-10_17h58.19.755,judgeSpeechMusic_20210407_logNormShiftAmp,2020.1.2,MacIntel,60,,,,,,,,,,,,,,,,,,,,,,,,,,1,6.689485,,0,1,65,215,130,1,stimuli/stim_20210407_power2amp/equal_lnn_AM5.4Hz_18.m4a,,,
,,,,,41188,2021-05-10_17h58.19.755,judgeSpeechMusic_20210407_logNormShiftAmp,2020.1.2,MacIntel,60,,,,,,,,,,,,,,,,,,,,,,,,,,1,6.143945,,0,1,66,216,103,1,stimuli/stim_20210407_power2amp/equal_lnn_AM4.2Hz_36.m4a,,,
,,,,,41188,2021-05-10_17h58.19.755,judgeSpeechMusic_20210407_logNormShiftAmp,2020.1.2,MacIntel,60,,,,,,,,,,,,,,,,,,,,,,,,,,2,6.403965,,0,1,67,217,60,1,stimuli/stim_20210407_power2amp/equal_lnn_AM3Hz_88.m4a,,,
,,,,,41188,2021-05-10_17h58.19.755,judgeSpeechMusic_20210407_logNormShiftAmp,2020.1.2,MacIntel,60,,,,,,,,,,,,,,,,,,,,,,,,,,1,7.64759,,0,1,68,218,63,1,stimuli/stim_20210407_power2amp/equal_lnn_AM3Hz_78.m4a,,,
,,,,,41188,2021-05-10_17h58.19.755,judgeSpeechMusic_20210407_logNormShiftAmp,2020.1.2,MacIntel,60,,,,,,,,,,,,,,,,,,,,,,,,,,2,8.779,,0,1,69,219,146,1,stimuli/stim_20210407_power2amp/equal_lnn_AM6Hz_54.m4a,,,
,,,,,41188,2021-05-10_17h58.19.755,judgeSpeechMusic_20210407_logNormShiftAmp,2020.1.2,MacIntel,60,,,,,,,,,,,,,,,,,,,,,,,,,,1,8.21267,,0,1,70,220,86,1,stimuli/stim_20210407_power2amp/equal_lnn_AM3.6Hz_58.m4a,,,
,,,,,41188,2021-05-10_17h58.19.755,judgeSpeechMusic_20210407_logNormShiftAmp,2020.1.2,MacIntel,60,,,,,,,,,,,,,,,,,,,,,,,,,,2,8.074815,,0,1,71,221,55,1,stimuli/stim_20210407_power2amp/equal_lnn_AM2.4Hz_6.m4a,,,
,,,,,41188,2021-05-10_17h58.19.755,judgeSpeechMusic_20210407_logNormShiftAmp,2020.1.2,MacIntel,60,,,,,,,,,,,,,,,,,,,,,,,,,,1,7.547,,0,1,72,222,110,1,stimuli/stim_20210407_power2amp/equal_lnn_AM4.8Hz_89.m4a,,,
,,,,,41188,2021-05-10_17h58.19.755,judgeSpeechMusic_20210407_logNormShiftAmp,2020.1.2,MacIntel,60,,,,,,,,,,,,,,,,,,,,,,,,,,1,6.06228,,0,1,73,223,67,1,stimuli/stim_20210407_power2amp/equal_lnn_AM3Hz_47.m4a,,,
,,,,,41188,2021-05-10_17h58.19.755,judgeSpeechMusic_20210407_logNormShiftAmp,2020.1.2,MacIntel,60,,,,,,,,,,,,,,,,,,,,,,,,,,1,10.0136,,0,1,74,224,80,1,stimuli/stim_20210407_power2amp/equal_lnn_AM3.6Hz_96.m4a,,,
,,,,,41188,2021-05-10_17h58.19.755,judgeSpeechMusic_20210407_logNormShiftAmp,2020.1.2,MacIntel,60,,,,,,,,,,,,,,,,,,,,,,,,,,1,8.24294,,0,1,75,225,106,1,stimuli/stim_20210407_power2amp/equal_lnn_AM4.8Hz_13.m4a,,,
,,,,,41188,2021-05-10_17h58.19.755,judgeSpeechMusic_20210407_logNormShiftAmp,2020.1.2,MacIntel,60,,,,,,,,,,,,,,,,,,,,,,,,,,2,7.147625,,0,1,76,226,16,1,stimuli/stim_20210407_power2amp/equal_lnn_AM1.2Hz_94.m4a,,,
,,,,,41188,2021-05-10_17h58.19.755,judgeSpeechMusic_20210407_logNormShiftAmp,2020.1.2,MacIntel,60,,,,,,,,,,,,,,,,,,,,,,,,,,1,8.761415,,0,1,77,227,124,1,stimuli/stim_20210407_power2amp/equal_lnn_AM5.4Hz_30.m4a,,,
,,,,,41188,2021-05-10_17h58.19.755,judgeSpeechMusic_20210407_logNormShiftAmp,2020.1.2,MacIntel,60,,,,,,,,,,,,,,,,,,,,,,,,,,2,9.34318,,0,1,78,228,94,1,stimuli/stim_20210407_power2amp/equal_lnn_AM4.2Hz_91.m4a,,,
,,,,,41188,2021-05-10_17h58.19.755,judgeSpeechMusic_20210407_logNormShiftAmp,2020.1.2,MacIntel,60,,,,,,,,,,,,,,,,,,,,,,,,,,1,6.196265,,0,1,79,229,15,1,stimuli/stim_20210407_power2amp/equal_lnn_AM1.2Hz_64.m4a,,,
,,,,,41188,2021-05-10_17h58.19.755,judgeSpeechMusic_20210407_logNormShiftAmp,2020.1.2,MacIntel,60,,,,,,,,,,,,,,,,,,,,,,,,,,1,7.646535,,0,1,80,230,45,1,stimuli/stim_20210407_power2amp/equal_lnn_AM2.4Hz_74.m4a,,,
,,,,,41188,2021-05-10_17h58.19.755,judgeSpeechMusic_20210407_logNormShiftAmp,2020.1.2,MacIntel,60,,,,,,,,,,,,,,,,,,,,,,,,,,2,6.362995,,0,1,81,231,33,1,stimuli/stim_20210407_power2amp/equal_lnn_AM1.8Hz_38.m4a,,,
,,,,,41188,2021-05-10_17h58.19.755,judgeSpeechMusic_20210407_logNormShiftAmp,2020.1.2,MacIntel,60,,,,,,,,,,,,,,,,,,,,,,,,,,2,6.17588,,0,1,82,232,79,1,stimuli/stim_20210407_power2amp/equal_lnn_AM3.6Hz_1.m4a,,,
,,,,,41188,2021-05-10_17h58.19.755,judgeSpeechMusic_20210407_logNormShiftAmp,2020.1.2,MacIntel,60,,,,,,,,,,,,,,,,,,,,,,,,,,1,8.07918,4,1,1,83,233,125,1,stimuli/stim_20210407_power2amp/equal_lnn_AM5.4Hz_88.m4a,0.525465,,
,,,,,41188,2021-05-10_17h58.19.755,judgeSpeechMusic_20210407_logNormShiftAmp,2020.1.2,MacIntel,60,,,,,,,,,,,,,,,,,,,,,,,,,,2,6.84464,,0,1,84,234,119,1,stimuli/stim_20210407_power2amp/equal_lnn_AM4.8Hz_24.m4a,,,
,,,,,41188,2021-05-10_17h58.19.755,judgeSpeechMusic_20210407_logNormShiftAmp,2020.1.2,MacIntel,60,,,,,,,,,,,,,,,,,,,,,,,,,,1,6.223255,,0,1,85,235,147,1,stimuli/stim_20210407_power2amp/equal_lnn_AM6Hz_61.m4a,,,
,,,,,41188,2021-05-10_17h58.19.755,judgeSpeechMusic_20210407_logNormShiftAmp,2020.1.2,MacIntel,60,,,,,,,,,,,,,,,,,,,,,,,,,,2,7.21284,,0,1,86,236,123,1,stimuli/stim_20210407_power2amp/equal_lnn_AM5.4Hz_7.m4a,,,
,,,,,41188,2021-05-10_17h58.19.755,judgeSpeechMusic_20210407_logNormShiftAmp,2020.1.2,MacIntel,60,,,,,,,,,,,,,,,,,,,,,,,,,,1,5.878995,,0,1,87,237,4,1,stimuli/stim_20210407_power2amp/equal_lnn_AM0.6Hz_30.m4a,,,
,,,,,41188,2021-05-10_17h58.19.755,judgeSpeechMusic_20210407_logNormShiftAmp,2020.1.2,MacIntel,60,,,,,,,,,,,,,,,,,,,,,,,,,,2,6.46056,,0,1,88,238,54,1,stimuli/stim_20210407_power2amp/equal_lnn_AM2.4Hz_1.m4a,,,
,,,,,41188,2021-05-10_17h58.19.755,judgeSpeechMusic_20210407_logNormShiftAmp,2020.1.2,MacIntel,60,,,,,,,,,,,,,,,,,,,,,,,,,,2,6.261155,,0,1,89,239,122,1,stimuli/stim_20210407_power2amp/equal_lnn_AM5.4Hz_72.m4a,,,
,,,,,41188,2021-05-10_17h58.19.755,judgeSpeechMusic_20210407_logNormShiftAmp,2020.1.2,MacIntel,60,,,,,,,,,,,,,,,,,,,,,,,,,,1,5.88993,,0,1,90,240,141,1,stimuli/stim_20210407_power2amp/equal_lnn_AM6Hz_58.m4a,,,
,,,,,41188,2021-05-10_17h58.19.755,judgeSpeechMusic_20210407_logNormShiftAmp,2020.1.2,MacIntel,60,,,,,,,,,,,,,,,,,,,,,,,,,,2,6.42292,,0,1,91,241,116,1,stimuli/stim_20210407_power2amp/equal_lnn_AM4.8Hz_77.m4a,,,
,,,,,41188,2021-05-10_17h58.19.755,judgeSpeechMusic_20210407_logNormShiftAmp,2020.1.2,MacIntel,60,,,,,,,,,,,,,,,,,,,,,,,,,,1,6.277915,,0,1,92,242,39,1,stimuli/stim_20210407_power2amp/equal_lnn_AM1.8Hz_66.m4a,,,
,,,,,41188,2021-05-10_17h58.19.755,judgeSpeechMusic_20210407_logNormShiftAmp,2020.1.2,MacIntel,60,,,,,,,,,,,,,,,,,,,,,,,,,,1,5.836985,,0,1,93,243,25,1,stimuli/stim_20210407_power2amp/equal_lnn_AM1.2Hz_3.m4a,,,
,,,,,41188,2021-05-10_17h58.19.755,judgeSpeechMusic_20210407_logNormShiftAmp,2020.1.2,MacIntel,60,,,,,,,,,,,,,,,,,,,,,,,,,,1,5.704655,,0,1,94,244,24,1,stimuli/stim_20210407_power2amp/equal_lnn_AM1.2Hz_79.m4a,,,
,,,,,41188,2021-05-10_17h58.19.755,judgeSpeechMusic_20210407_logNormShiftAmp,2020.1.2,MacIntel,60,,,,,,,,,,,,,,,,,,,,,,,,,,1,5.737075,,0,1,95,245,40,1,stimuli/stim_20210407_power2amp/equal_lnn_AM1.8Hz_24.m4a,,,
,,,,,41188,2021-05-10_17h58.19.755,judgeSpeechMusic_20210407_logNormShiftAmp,2020.1.2,MacIntel,60,,,,,,,,,,,,,,,,,,,,,,,,,,1,5.90257,,0,1,96,246,83,1,stimuli/stim_20210407_power2amp/equal_lnn_AM3.6Hz_82.m4a,,,
,,,,,41188,2021-05-10_17h58.19.755,judgeSpeechMusic_20210407_logNormShiftAmp,2020.1.2,MacIntel,60,,,,,,,,,,,,,,,,,,,,,,,,,,1,5.82329,,0,1,97,247,41,1,stimuli/stim_20210407_power2amp/equal_lnn_AM1.8Hz_98.m4a,,,
,,,,,41188,2021-05-10_17h58.19.755,judgeSpeechMusic_20210407_logNormShiftAmp,2020.1.2,MacIntel,60,,,,,,,,,,,,,,,,,,,,,,,,,,1,6.20337,,0,1,98,248,104,1,stimuli/stim_20210407_power2amp/equal_lnn_AM4.2Hz_64.m4a,,,
,,,,,41188,2021-05-10_17h58.19.755,judgeSpeechMusic_20210407_logNormShiftAmp,2020.1.2,MacIntel,60,,,,,,,,,,,,,,,,,,,,,,,,,,2,7.62125,,0,1,99,249,29,1,stimuli/stim_20210407_power2amp/equal_lnn_AM1.2Hz_90.m4a,,,
,,,,,41188,2021-05-10_17h58.19.755,judgeSpeechMusic_20210407_logNormShiftAmp,2020.1.2,MacIntel,60,,,,,,,,,,,,,,,,,,,,,,,,,,1,7.32548,,0,1,100,250,10,1,stimuli/stim_20210407_power2amp/equal_lnn_AM0.6Hz_27.m4a,,,
,,,,,41188,2021-05-10_17h58.19.755,judgeSpeechMusic_20210407_logNormShiftAmp,2020.1.2,MacIntel,60,,,,,,,,,,,,,,,,,,,,,,,,,,2,6.94501,,0,1,101,251,107,1,stimuli/stim_20210407_power2amp/equal_lnn_AM4.8Hz_37.m4a,,,
,,,,,41188,2021-05-10_17h58.19.755,judgeSpeechMusic_20210407_logNormShiftAmp,2020.1.2,MacIntel,60,,,,,,,,,,,,,,,,,,,,,,,,,,2,6.154105,,0,1,102,252,145,1,stimuli/stim_20210407_power2amp/equal_lnn_AM6Hz_49.m4a,,,
,,,,,41188,2021-05-10_17h58.19.755,judgeSpeechMusic_20210407_logNormShiftAmp,2020.1.2,MacIntel,60,,,,,,,,,,,,,,,,,,,,,,,,,,1,6.792805,,0,1,103,253,61,1,stimuli/stim_20210407_power2amp/equal_lnn_AM3Hz_53.m4a,,,
,,,,,41188,2021-05-10_17h58.19.755,judgeSpeechMusic_20210407_logNormShiftAmp,2020.1.2,MacIntel,60,,,,,,,,,,,,,,,,,,,,,,,,,,2,6.81999,2,0,1,104,254,138,1,stimuli/stim_20210407_power2amp/equal_lnn_AM6Hz_39.m4a,3.10715,,
,,,,,41188,2021-05-10_17h58.19.755,judgeSpeechMusic_20210407_logNormShiftAmp,2020.1.2,MacIntel,60,,,,,,,,,,,,,,,,,,,,,,,,,,2,6.03102,,0,1,105,255,127,1,stimuli/stim_20210407_power2amp/equal_lnn_AM5.4Hz_31.m4a,,,
,,,,,41188,2021-05-10_17h58.19.755,judgeSpeechMusic_20210407_logNormShiftAmp,2020.1.2,MacIntel,60,,,,,,,,,,,,,,,,,,,,,,,,,,2,7.494515,,0,1,106,256,93,1,stimuli/stim_20210407_power2amp/equal_lnn_AM4.2Hz_2.m4a,,,
,,,,,41188,2021-05-10_17h58.19.755,judgeSpeechMusic_20210407_logNormShiftAmp,2020.1.2,MacIntel,60,,,,,,,,,,,,,,,,,,,,,,,,,,1,7.88855,,0,1,107,257,48,1,stimuli/stim_20210407_power2amp/equal_lnn_AM2.4Hz_48.m4a,,,
,,,,,41188,2021-05-10_17h58.19.755,judgeSpeechMusic_20210407_logNormShiftAmp,2020.1.2,MacIntel,60,,,,,,,,,,,,,,,,,,,,,,,,,,2,8.155575,,0,1,108,258,46,1,stimuli/stim_20210407_power2amp/equal_lnn_AM2.4Hz_24.m4a,,,
,,,,,41188,2021-05-10_17h58.19.755,judgeSpeechMusic_20210407_logNormShiftAmp,2020.1.2,MacIntel,60,,,,,,,,,,,,,,,,,,,,,,,,,,1,13.388655,,0,1,109,259,51,1,stimuli/stim_20210407_power2amp/equal_lnn_AM2.4Hz_20.m4a,,,
,,,,,41188,2021-05-10_17h58.19.755,judgeSpeechMusic_20210407_logNormShiftAmp,2020.1.2,MacIntel,60,,,,,,,,,,,,,,,,,,,,,,,,,,1,9.38822,,0,1,110,260,92,1,stimuli/stim_20210407_power2amp/equal_lnn_AM4.2Hz_1.m4a,,,
,,,,,41188,2021-05-10_17h58.19.755,judgeSpeechMusic_20210407_logNormShiftAmp,2020.1.2,MacIntel,60,,,,,,,,,,,,,,,,,,,,,,,,,,1,5.67743,,0,1,111,261,3,1,stimuli/stim_20210407_power2amp/equal_lnn_AM0.6Hz_4.m4a,,,
,,,,,41188,2021-05-10_17h58.19.755,judgeSpeechMusic_20210407_logNormShiftAmp,2020.1.2,MacIntel,60,,,,,,,,,,,,,,,,,,,,,,,,,,1,5.9311,,0,1,112,262,73,1,stimuli/stim_20210407_power2amp/equal_lnn_AM3Hz_83.m4a,,,
,,,,,41188,2021-05-10_17h58.19.755,judgeSpeechMusic_20210407_logNormShiftAmp,2020.1.2,MacIntel,60,,,,,,,,,,,,,,,,,,,,,,,,,,2,6.41322,,0,1,113,263,128,1,stimuli/stim_20210407_power2amp/equal_lnn_AM5.4Hz_58.m4a,,,
,,,,,41188,2021-05-10_17h58.19.755,judgeSpeechMusic_20210407_logNormShiftAmp,2020.1.2,MacIntel,60,,,,,,,,,,,,,,,,,,,,,,,,,,1,6.395265,,0,1,114,264,115,1,stimuli/stim_20210407_power2amp/equal_lnn_AM4.8Hz_94.m4a,,,
,,,,,41188,2021-05-10_17h58.19.755,judgeSpeechMusic_20210407_logNormShiftAmp,2020.1.2,MacIntel,60,,,,,,,,,,,,,,,,,,,,,,,,,,1,6.686515,,0,1,115,265,34,1,stimuli/stim_20210407_power2amp/equal_lnn_AM1.8Hz_74.m4a,,,
,,,,,41188,2021-05-10_17h58.19.755,judgeSpeechMusic_20210407_logNormShiftAmp,2020.1.2,MacIntel,60,,,,,,,,,,,,,,,,,,,,,,,,,,1,6.285805,,0,1,116,266,85,1,stimuli/stim_20210407_power2amp/equal_lnn_AM3.6Hz_22.m4a,,,
,,,,,41188,2021-05-10_17h58.19.755,judgeSpeechMusic_20210407_logNormShiftAmp,2020.1.2,MacIntel,60,,,,,,,,,,,,,,,,,,,,,,,,,,1,7.261005,,0,1,117,267,52,1,stimuli/stim_20210407_power2amp/equal_lnn_AM2.4Hz_78.m4a,,,
,,,,,41188,2021-05-10_17h58.19.755,judgeSpeechMusic_20210407_logNormShiftAmp,2020.1.2,MacIntel,60,,,,,,,,,,,,,,,,,,,,,,,,,,2,5.65907,,0,1,118,268,44,1,stimuli/stim_20210407_power2amp/equal_lnn_AM1.8Hz_29.m4a,,,
,,,,,41188,2021-05-10_17h58.19.755,judgeSpeechMusic_20210407_logNormShiftAmp,2020.1.2,MacIntel,60,,,,,,,,,,,,,,,,,,,,,,,,,,2,5.661515,,0,1,119,269,82,1,stimuli/stim_20210407_power2amp/equal_lnn_AM3.6Hz_9.m4a,,,
,,,,,41188,2021-05-10_17h58.19.755,judgeSpeechMusic_20210407_logNormShiftAmp,2020.1.2,MacIntel,60,,,,,,,,,,,,,,,,,,,,,,,,,,2,11.58585,,0,1,120,270,113,1,stimuli/stim_20210407_power2amp/equal_lnn_AM4.8Hz_49.m4a,,,
,,,,,41188,2021-05-10_17h58.19.755,judgeSpeechMusic_20210407_logNormShiftAmp,2020.1.2,MacIntel,60,,,,,,,,,,,,,,,,,,,,,,,,,,1,6.312025,,0,1,121,271,140,1,stimuli/stim_20210407_power2amp/equal_lnn_AM6Hz_19.m4a,,,
,,,,,41188,2021-05-10_17h58.19.755,judgeSpeechMusic_20210407_logNormShiftAmp,2020.1.2,MacIntel,60,,,,,,,,,,,,,,,,,,,,,,,,,,1,6.004055,,0,1,122,272,12,1,stimuli/stim_20210407_power2amp/equal_lnn_AM0.6Hz_70.m4a,,,
,,,,,41188,2021-05-10_17h58.19.755,judgeSpeechMusic_20210407_logNormShiftAmp,2020.1.2,MacIntel,60,,,,,,,,,,,,,,,,,,,,,,,,,,2,6.420845,,0,1,123,273,50,1,stimuli/stim_20210407_power2amp/equal_lnn_AM2.4Hz_11.m4a,,,
,,,,,41188,2021-05-10_17h58.19.755,judgeSpeechMusic_20210407_logNormShiftAmp,2020.1.2,MacIntel,60,,,,,,,,,,,,,,,,,,,,,,,,,,1,6.324385,,0,1,124,274,0,1,stimuli/stim_20210407_power2amp/equal_lnn_AM0.6Hz_86.m4a,,,
,,,,,41188,2021-05-10_17h58.19.755,judgeSpeechMusic_20210407_logNormShiftAmp,2020.1.2,MacIntel,60,,,,,,,,,,,,,,,,,,,,,,,,,,1,6.104135,,0,1,125,275,14,1,stimuli/stim_20210407_power2amp/equal_lnn_AM0.6Hz_88.m4a,,,
,,,,,41188,2021-05-10_17h58.19.755,judgeSpeechMusic_20210407_logNormShiftAmp,2020.1.2,MacIntel,60,,,,,,,,,,,,,,,,,,,,,,,,,,1,5.87655,1,1,1,126,276,78,1,stimuli/stim_20210407_power2amp/equal_lnn_AM3.6Hz_3.m4a,0.94274,,
,,,,,41188,2021-05-10_17h58.19.755,judgeSpeechMusic_20210407_logNormShiftAmp,2020.1.2,MacIntel,60,,,,,,,,,,,,,,,,,,,,,,,,,,1,7.527215,,0,1,127,277,149,1,stimuli/stim_20210407_power2amp/equal_lnn_AM6Hz_82.m4a,,,
,,,,,41188,2021-05-10_17h58.19.755,judgeSpeechMusic_20210407_logNormShiftAmp,2020.1.2,MacIntel,60,,,,,,,,,,,,,,,,,,,,,,,,,,2,6.52572,,0,1,128,278,99,1,stimuli/stim_20210407_power2amp/equal_lnn_AM4.2Hz_89.m4a,,,
,,,,,41188,2021-05-10_17h58.19.755,judgeSpeechMusic_20210407_logNormShiftAmp,2020.1.2,MacIntel,60,,,,,,,,,,,,,,,,,,,,,,,,,,2,6.95478,,0,1,129,279,97,1,stimuli/stim_20210407_power2amp/equal_lnn_AM4.2Hz_3.m4a,,,
,,,,,41188,2021-05-10_17h58.19.755,judgeSpeechMusic_20210407_logNormShiftAmp,2020.1.2,MacIntel,60,,,,,,,,,,,,,,,,,,,,,,,,,,1,6.82335,,0,1,130,280,2,1,stimuli/stim_20210407_power2amp/equal_lnn_AM0.6Hz_46.m4a,,,
,,,,,41188,2021-05-10_17h58.19.755,judgeSpeechMusic_20210407_logNormShiftAmp,2020.1.2,MacIntel,60,,,,,,,,,,,,,,,,,,,,,,,,,,2,5.91273,,0,1,131,281,43,1,stimuli/stim_20210407_power2amp/equal_lnn_AM1.8Hz_95.m4a,,,
,,,,,41188,2021-05-10_17h58.19.755,judgeSpeechMusic_20210407_logNormShiftAmp,2020.1.2,MacIntel,60,,,,,,,,,,,,,,,,,,,,,,,,,,1,6.021795,,0,1,132,282,143,1,stimuli/stim_20210407_power2amp/equal_lnn_AM6Hz_21.m4a,,,
,,,,,41188,2021-05-10_17h58.19.755,judgeSpeechMusic_20210407_logNormShiftAmp,2020.1.2,MacIntel,60,,,,,,,,,,,,,,,,,,,,,,,,,,1,5.77848,,0,1,133,283,23,1,stimuli/stim_20210407_power2amp/equal_lnn_AM1.2Hz_70.m4a,,,
,,,,,41188,2021-05-10_17h58.19.755,judgeSpeechMusic_20210407_logNormShiftAmp,2020.1.2,MacIntel,60,,,,,,,,,,,,,,,,,,,,,,,,,,1,6.013625,,0,1,134,284,21,1,stimuli/stim_20210407_power2amp/equal_lnn_AM1.2Hz_43.m4a,,,
,,,,,41188,2021-05-10_17h58.19.755,judgeSpeechMusic_20210407_logNormShiftAmp,2020.1.2,MacIntel,60,,,,,,,,,,,,,,,,,,,,,,,,,,2,6.86899,,0,1,135,285,9,1,stimuli/stim_20210407_power2amp/equal_lnn_AM0.6Hz_74.m4a,,,
,,,,,41188,2021-05-10_17h58.19.755,judgeSpeechMusic_20210407_logNormShiftAmp,2020.1.2,MacIntel,60,,,,,,,,,,,,,,,,,,,,,,,,,,1,7.253585,,0,1,136,286,90,1,stimuli/stim_20210407_power2amp/equal_lnn_AM4.2Hz_51.m4a,,,
,,,,,41188,2021-05-10_17h58.19.755,judgeSpeechMusic_20210407_logNormShiftAmp,2020.1.2,MacIntel,60,,,,,,,,,,,,,,,,,,,,,,,,,,1,5.7398,,0,1,137,287,59,1,stimuli/stim_20210407_power2amp/equal_lnn_AM2.4Hz_39.m4a,,,
,,,,,41188,2021-05-10_17h58.19.755,judgeSpeechMusic_20210407_logNormShiftAmp,2020.1.2,MacIntel,60,,,,,,,,,,,,,,,,,,,,,,,,,,1,5.677885,,0,1,138,288,136,1,stimuli/stim_20210407_power2amp/equal_lnn_AM6Hz_11.m4a,,,
,,,,,41188,2021-05-10_17h58.19.755,judgeSpeechMusic_20210407_logNormShiftAmp,2020.1.2,MacIntel,60,,,,,,,,,,,,,,,,,,,,,,,,,,1,6.39005,,0,1,139,289,120,1,stimuli/stim_20210407_power2amp/equal_lnn_AM5.4Hz_92.m4a,,,
,,,,,41188,2021-05-10_17h58.19.755,judgeSpeechMusic_20210407_logNormShiftAmp,2020.1.2,MacIntel,60,,,,,,,,,,,,,,,,,,,,,,,,,,2,5.992825,,0,1,140,290,31,1,stimuli/stim_20210407_power2amp/equal_lnn_AM1.8Hz_80.m4a,,,
,,,,,41188,2021-05-10_17h58.19.755,judgeSpeechMusic_20210407_logNormShiftAmp,2020.1.2,MacIntel,60,,,,,,,,,,,,,,,,,,,,,,,,,,1,6.6105,,0,1,141,291,126,1,stimuli/stim_20210407_power2amp/equal_lnn_AM5.4Hz_17.m4a,,,
,,,,,41188,2021-05-10_17h58.19.755,judgeSpeechMusic_20210407_logNormShiftAmp,2020.1.2,MacIntel,60,,,,,,,,,,,,,,,,,,,,,,,,,,2,6.672545,,0,1,142,292,118,1,stimuli/stim_20210407_power2amp/equal_lnn_AM4.8Hz_34.m4a,,,
,,,,,41188,2021-05-10_17h58.19.755,judgeSpeechMusic_20210407_logNormShiftAmp,2020.1.2,MacIntel,60,,,,,,,,,,,,,,,,,,,,,,,,,,1,7.92359,,0,1,143,293,37,1,stimuli/stim_20210407_power2amp/equal_lnn_AM1.8Hz_31.m4a,,,
,,,,,41188,2021-05-10_17h58.19.755,judgeSpeechMusic_20210407_logNormShiftAmp,2020.1.2,MacIntel,60,,,,,,,,,,,,,,,,,,,,,,,,,,2,6.721575,,0,1,144,294,27,1,stimuli/stim_20210407_power2amp/equal_lnn_AM1.2Hz_35.m4a,,,
,,,,,41188,2021-05-10_17h58.19.755,judgeSpeechMusic_20210407_logNormShiftAmp,2020.1.2,MacIntel,60,,,,,,,,,,,,,,,,,,,,,,,,,,1,6.05488,,0,1,145,295,18,1,stimuli/stim_20210407_power2amp/equal_lnn_AM1.2Hz_54.m4a,,,
,,,,,41188,2021-05-10_17h58.19.755,judgeSpeechMusic_20210407_logNormShiftAmp,2020.1.2,MacIntel,60,,,,,,,,,,,,,,,,,,,,,,,,,,1,5.911255,,0,1,146,296,81,1,stimuli/stim_20210407_power2amp/equal_lnn_AM3.6Hz_52.m4a,,,
,,,,,41188,2021-05-10_17h58.19.755,judgeSpeechMusic_20210407_logNormShiftAmp,2020.1.2,MacIntel,60,,,,,,,,,,,,,,,,,,,,,,,,,,1,5.975925,,0,1,147,297,112,1,stimuli/stim_20210407_power2amp/equal_lnn_AM4.8Hz_60.m4a,,,
,,,,,41188,2021-05-10_17h58.19.755,judgeSpeechMusic_20210407_logNormShiftAmp,2020.1.2,MacIntel,60,,,,,,,,,,,,,,,,,,,,,,,,,,1,5.721345,,0,1,148,298,74,1,stimuli/stim_20210407_power2amp/equal_lnn_AM3Hz_92.m4a,,,
,,,,,41188,2021-05-10_17h58.19.755,judgeSpeechMusic_20210407_logNormShiftAmp,2020.1.2,MacIntel,60,,,,,,,,,,,,,,,,,,,,,,,,,,2,7.372515,,0,1,149,299,62,1,stimuli/stim_20210407_power2amp/equal_lnn_AM3Hz_79.m4a,,,
,,,,,41188,2021-05-10_17h58.19.755,judgeSpeechMusic_20210407_logNormShiftAmp,2020.1.2,MacIntel,60,,,,,,,,,,,,,,,,,,,,,,,,,,,,,,,,,,,,,space,9.987745
