headphoneResponse.keys,headphoneResponse.corr,headphoneResponse.rt,headphoneTrial.thisRepN,headphoneTrial.thisTrialN,headphoneTrial.thisN,headphoneTrial.thisIndex,headphoneTrial.ran,headphone_sound1,headphone_sound2,headphone_sound3,corrAns,participant,date,expName,psychopyVersion,OS,frameRate,trainSlider.response,trainSlider.rt,beepTrainResponse.keys,beepTrainResponse.corr,trainingTrials.thisRepN,trainingTrials.thisTrialN,trainingTrials.thisN,trainingTrials.thisIndex,trainingTrials.ran,trainAudioFile,beepTrainResponse.rt,readyReal_resp.keys,readyReal_resp.rt,ratingSlider.response,ratingSlider.rt,beepResp.keys,beepResp.corr,expTrials.thisRepN,expTrials.thisTrialN,expTrials.thisN,expTrials.thisIndex,expTrials.ran,audioFile,beepResp.rt,end_resp.keys,end_resp.rt
1,1,3.052625,0,0,0,4,1,stimuli/screen_quiet.wav,stimuli/screen_antiphase.wav,stimuli/screen_origin.wav,1,41195,2021-05-10_15h35.26.367,judgeSpeechMusic_20210407_logNormShiftAmp,2020.1.2,Win32,60,,,,,,,,,,,,,,,,,,,,,,,,,,
2,1,1.873845,0,1,1,3,1,stimuli/screen_origin.wav,stimuli/screen_quiet.wav,stimuli/screen_antiphase.wav,2,41195,2021-05-10_15h35.26.367,judgeSpeechMusic_20210407_logNormShiftAmp,2020.1.2,Win32,60,,,,,,,,,,,,,,,,,,,,,,,,,,
3,1,0.46571,0,2,2,2,1,stimuli/screen_origin.wav,stimuli/screen_antiphase.wav,stimuli/screen_quiet.wav,3,41195,2021-05-10_15h35.26.367,judgeSpeechMusic_20210407_logNormShiftAmp,2020.1.2,Win32,60,,,,,,,,,,,,,,,,,,,,,,,,,,
2,1,0.66517,0,3,3,1,1,stimuli/screen_antiphase.wav,stimuli/screen_quiet.wav,stimuli/screen_origin.wav,2,41195,2021-05-10_15h35.26.367,judgeSpeechMusic_20210407_logNormShiftAmp,2020.1.2,Win32,60,,,,,,,,,,,,,,,,,,,,,,,,,,
1,1,0.442965,0,4,4,5,1,stimuli/screen_quiet.wav,stimuli/screen_origin.wav,stimuli/screen_antiphase.wav,1,41195,2021-05-10_15h35.26.367,judgeSpeechMusic_20210407_logNormShiftAmp,2020.1.2,Win32,60,,,,,,,,,,,,,,,,,,,,,,,,,,
3,1,0.56093,0,5,5,0,1,stimuli/screen_antiphase.wav,stimuli/screen_origin.wav,stimuli/screen_quiet.wav,3,41195,2021-05-10_15h35.26.367,judgeSpeechMusic_20210407_logNormShiftAmp,2020.1.2,Win32,60,,,,,,,,,,,,,,,,,,,,,,,,,,
,,,,,,,,,,,,41195,2021-05-10_15h35.26.367,judgeSpeechMusic_20210407_logNormShiftAmp,2020.1.2,Win32,60,2,18.40069,,0,0,0,0,0,1,stimuli/stim_20210407_power2amp/equal_lnn_AM_training1.5Hz.m4a,,,,,,,,,,,,,,,,
,,,,,,,,,,,,41195,2021-05-10_15h35.26.367,judgeSpeechMusic_20210407_logNormShiftAmp,2020.1.2,Win32,60,2,8.009485,,0,0,1,1,2,1,stimuli/stim_20210407_power2amp/equal_lnn_AM_training3.9Hz.m4a,,,,,,,,,,,,,,,,
,,,,,,,,,,,,41195,2021-05-10_15h35.26.367,judgeSpeechMusic_20210407_logNormShiftAmp,2020.1.2,Win32,60,1,6.894295,2,1,0,2,2,1,1,stimuli/stim_20210407_power2amp/equal_lnn_AM_training2.7Hz.m4a,2.963845,,,,,,,,,,,,,,,
,,,,,,,,,,,,41195,2021-05-10_15h35.26.367,judgeSpeechMusic_20210407_logNormShiftAmp,2020.1.2,Win32,60,2,7.83278,,0,0,3,3,3,1,stimuli/stim_20210407_power2amp/equal_lnn_AM_training5.1Hz.m4a,,,,,,,,,,,,,,,,
,,,,,,,,,,,,41195,2021-05-10_15h35.26.367,judgeSpeechMusic_20210407_logNormShiftAmp,2020.1.2,Win32,60,,,,,,,,,,,,space,156.54579,2,9.865085,,0,0,0,0,124,1,stimuli/stim_20210407_power2amp/equal_lnn_AM5.4Hz_97.m4a,,,
,,,,,,,,,,,,41195,2021-05-10_15h35.26.367,judgeSpeechMusic_20210407_logNormShiftAmp,2020.1.2,Win32,60,,,,,,,,,,,,,,1,6.086725,,0,0,1,1,114,1,stimuli/stim_20210407_power2amp/equal_lnn_AM4.8Hz_2.m4a,,,
,,,,,,,,,,,,41195,2021-05-10_15h35.26.367,judgeSpeechMusic_20210407_logNormShiftAmp,2020.1.2,Win32,60,,,,,,,,,,,,,,1,6.35207,,0,0,2,2,21,1,stimuli/stim_20210407_power2amp/equal_lnn_AM1.2Hz_33.m4a,,,
,,,,,,,,,,,,41195,2021-05-10_15h35.26.367,judgeSpeechMusic_20210407_logNormShiftAmp,2020.1.2,Win32,60,,,,,,,,,,,,,,2,7.79749,,0,0,3,3,136,1,stimuli/stim_20210407_power2amp/equal_lnn_AM6Hz_13.m4a,,,
,,,,,,,,,,,,41195,2021-05-10_15h35.26.367,judgeSpeechMusic_20210407_logNormShiftAmp,2020.1.2,Win32,60,,,,,,,,,,,,,,1,6.125015,,0,0,4,4,102,1,stimuli/stim_20210407_power2amp/equal_lnn_AM4.2Hz_98.m4a,,,
,,,,,,,,,,,,41195,2021-05-10_15h35.26.367,judgeSpeechMusic_20210407_logNormShiftAmp,2020.1.2,Win32,60,,,,,,,,,,,,,,1,16.257445,,0,0,5,5,16,1,stimuli/stim_20210407_power2amp/equal_lnn_AM1.2Hz_4.m4a,,,
,,,,,,,,,,,,41195,2021-05-10_15h35.26.367,judgeSpeechMusic_20210407_logNormShiftAmp,2020.1.2,Win32,60,,,,,,,,,,,,,,1,117.499935,,0,0,6,6,133,1,stimuli/stim_20210407_power2amp/equal_lnn_AM5.4Hz_90.m4a,,,
,,,,,,,,,,,,41195,2021-05-10_15h35.26.367,judgeSpeechMusic_20210407_logNormShiftAmp,2020.1.2,Win32,60,,,,,,,,,,,,,,1,7.494185,,0,0,7,7,134,1,stimuli/stim_20210407_power2amp/equal_lnn_AM5.4Hz_6.m4a,,,
,,,,,,,,,,,,41195,2021-05-10_15h35.26.367,judgeSpeechMusic_20210407_logNormShiftAmp,2020.1.2,Win32,60,,,,,,,,,,,,,,1,6.40116,,0,0,8,8,113,1,stimuli/stim_20210407_power2amp/equal_lnn_AM4.8Hz_69.m4a,,,
,,,,,,,,,,,,41195,2021-05-10_15h35.26.367,judgeSpeechMusic_20210407_logNormShiftAmp,2020.1.2,Win32,60,,,,,,,,,,,,,,2,12.158235,,0,0,9,9,120,1,stimuli/stim_20210407_power2amp/equal_lnn_AM5.4Hz_2.m4a,,,
,,,,,,,,,,,,41195,2021-05-10_15h35.26.367,judgeSpeechMusic_20210407_logNormShiftAmp,2020.1.2,Win32,60,,,,,,,,,,,,,,2,6.601745,,0,0,10,10,93,1,stimuli/stim_20210407_power2amp/equal_lnn_AM4.2Hz_32.m4a,,,
,,,,,,,,,,,,41195,2021-05-10_15h35.26.367,judgeSpeechMusic_20210407_logNormShiftAmp,2020.1.2,Win32,60,,,,,,,,,,,,,,2,7.169945,,0,0,11,11,125,1,stimuli/stim_20210407_power2amp/equal_lnn_AM5.4Hz_7.m4a,,,
,,,,,,,,,,,,41195,2021-05-10_15h35.26.367,judgeSpeechMusic_20210407_logNormShiftAmp,2020.1.2,Win32,60,,,,,,,,,,,,,,2,6.54513,,0,0,12,12,76,1,stimuli/stim_20210407_power2amp/equal_lnn_AM3.6Hz_91.m4a,,,
,,,,,,,,,,,,41195,2021-05-10_15h35.26.367,judgeSpeechMusic_20210407_logNormShiftAmp,2020.1.2,Win32,60,,,,,,,,,,,,,,2,9.52501,,0,0,13,13,92,1,stimuli/stim_20210407_power2amp/equal_lnn_AM4.2Hz_95.m4a,,,
,,,,,,,,,,,,41195,2021-05-10_15h35.26.367,judgeSpeechMusic_20210407_logNormShiftAmp,2020.1.2,Win32,60,,,,,,,,,,,,,,1,13.97425,,0,0,14,14,122,1,stimuli/stim_20210407_power2amp/equal_lnn_AM5.4Hz_69.m4a,,,
,,,,,,,,,,,,41195,2021-05-10_15h35.26.367,judgeSpeechMusic_20210407_logNormShiftAmp,2020.1.2,Win32,60,,,,,,,,,,,,,,1,17.41967,,0,0,15,15,127,1,stimuli/stim_20210407_power2amp/equal_lnn_AM5.4Hz_19.m4a,,,
,,,,,,,,,,,,41195,2021-05-10_15h35.26.367,judgeSpeechMusic_20210407_logNormShiftAmp,2020.1.2,Win32,60,,,,,,,,,,,,,,1,7.321275,,0,0,16,16,1,1,stimuli/stim_20210407_power2amp/equal_lnn_AM0.6Hz_38.m4a,,,
,,,,,,,,,,,,41195,2021-05-10_15h35.26.367,judgeSpeechMusic_20210407_logNormShiftAmp,2020.1.2,Win32,60,,,,,,,,,,,,,,2,6.079955,,0,0,17,17,61,1,stimuli/stim_20210407_power2amp/equal_lnn_AM3Hz_70.m4a,,,
,,,,,,,,,,,,41195,2021-05-10_15h35.26.367,judgeSpeechMusic_20210407_logNormShiftAmp,2020.1.2,Win32,60,,,,,,,,,,,,,,1,7.05253,,0,0,18,18,40,1,stimuli/stim_20210407_power2amp/equal_lnn_AM1.8Hz_54.m4a,,,
,,,,,,,,,,,,41195,2021-05-10_15h35.26.367,judgeSpeechMusic_20210407_logNormShiftAmp,2020.1.2,Win32,60,,,,,,,,,,,,,,1,21.227855,,0,0,19,19,65,1,stimuli/stim_20210407_power2amp/equal_lnn_AM3Hz_11.m4a,,,
,,,,,,,,,,,,41195,2021-05-10_15h35.26.367,judgeSpeechMusic_20210407_logNormShiftAmp,2020.1.2,Win32,60,,,,,,,,,,,,,,2,7.599055,,0,0,20,20,36,1,stimuli/stim_20210407_power2amp/equal_lnn_AM1.8Hz_5.m4a,,,
,,,,,,,,,,,,41195,2021-05-10_15h35.26.367,judgeSpeechMusic_20210407_logNormShiftAmp,2020.1.2,Win32,60,,,,,,,,,,,,,,2,6.376945,,0,0,21,21,56,1,stimuli/stim_20210407_power2amp/equal_lnn_AM2.4Hz_60.m4a,,,
,,,,,,,,,,,,41195,2021-05-10_15h35.26.367,judgeSpeechMusic_20210407_logNormShiftAmp,2020.1.2,Win32,60,,,,,,,,,,,,,,2,6.135885,,0,0,22,22,121,1,stimuli/stim_20210407_power2amp/equal_lnn_AM5.4Hz_85.m4a,,,
,,,,,,,,,,,,41195,2021-05-10_15h35.26.367,judgeSpeechMusic_20210407_logNormShiftAmp,2020.1.2,Win32,60,,,,,,,,,,,,,,1,6.562685,,0,0,23,23,38,1,stimuli/stim_20210407_power2amp/equal_lnn_AM1.8Hz_51.m4a,,,
,,,,,,,,,,,,41195,2021-05-10_15h35.26.367,judgeSpeechMusic_20210407_logNormShiftAmp,2020.1.2,Win32,60,,,,,,,,,,,,,,1,6.45527,,0,0,24,24,71,1,stimuli/stim_20210407_power2amp/equal_lnn_AM3Hz_62.m4a,,,
,,,,,,,,,,,,41195,2021-05-10_15h35.26.367,judgeSpeechMusic_20210407_logNormShiftAmp,2020.1.2,Win32,60,,,,,,,,,,,,,,2,6.82423,,0,0,25,25,140,1,stimuli/stim_20210407_power2amp/equal_lnn_AM6Hz_93.m4a,,,
,,,,,,,,,,,,41195,2021-05-10_15h35.26.367,judgeSpeechMusic_20210407_logNormShiftAmp,2020.1.2,Win32,60,,,,,,,,,,,,,,1,6.304595,,0,0,26,26,82,1,stimuli/stim_20210407_power2amp/equal_lnn_AM3.6Hz_32.m4a,,,
,,,,,,,,,,,,41195,2021-05-10_15h35.26.367,judgeSpeechMusic_20210407_logNormShiftAmp,2020.1.2,Win32,60,,,,,,,,,,,,,,2,6.452185,,0,0,27,27,57,1,stimuli/stim_20210407_power2amp/equal_lnn_AM2.4Hz_21.m4a,,,
,,,,,,,,,,,,41195,2021-05-10_15h35.26.367,judgeSpeechMusic_20210407_logNormShiftAmp,2020.1.2,Win32,60,,,,,,,,,,,,,,1,7.09449,,0,0,28,28,27,1,stimuli/stim_20210407_power2amp/equal_lnn_AM1.2Hz_44.m4a,,,
,,,,,,,,,,,,41195,2021-05-10_15h35.26.367,judgeSpeechMusic_20210407_logNormShiftAmp,2020.1.2,Win32,60,,,,,,,,,,,,,,1,6.4668,,0,0,29,29,15,1,stimuli/stim_20210407_power2amp/equal_lnn_AM1.2Hz_12.m4a,,,
,,,,,,,,,,,,41195,2021-05-10_15h35.26.367,judgeSpeechMusic_20210407_logNormShiftAmp,2020.1.2,Win32,60,,,,,,,,,,,,,,1,7.562315,,0,0,30,30,59,1,stimuli/stim_20210407_power2amp/equal_lnn_AM2.4Hz_99.m4a,,,
,,,,,,,,,,,,41195,2021-05-10_15h35.26.367,judgeSpeechMusic_20210407_logNormShiftAmp,2020.1.2,Win32,60,,,,,,,,,,,,,,1,8.034225,,0,0,31,31,60,1,stimuli/stim_20210407_power2amp/equal_lnn_AM3Hz_5.m4a,,,
,,,,,,,,,,,,41195,2021-05-10_15h35.26.367,judgeSpeechMusic_20210407_logNormShiftAmp,2020.1.2,Win32,60,,,,,,,,,,,,,,2,6.566745,,0,0,32,32,17,1,stimuli/stim_20210407_power2amp/equal_lnn_AM1.2Hz_59.m4a,,,
,,,,,,,,,,,,41195,2021-05-10_15h35.26.367,judgeSpeechMusic_20210407_logNormShiftAmp,2020.1.2,Win32,60,,,,,,,,,,,,,,1,8.29405,,0,0,33,33,20,1,stimuli/stim_20210407_power2amp/equal_lnn_AM1.2Hz_92.m4a,,,
,,,,,,,,,,,,41195,2021-05-10_15h35.26.367,judgeSpeechMusic_20210407_logNormShiftAmp,2020.1.2,Win32,60,,,,,,,,,,,,,,1,6.531355,,0,0,34,34,132,1,stimuli/stim_20210407_power2amp/equal_lnn_AM5.4Hz_4.m4a,,,
,,,,,,,,,,,,41195,2021-05-10_15h35.26.367,judgeSpeechMusic_20210407_logNormShiftAmp,2020.1.2,Win32,60,,,,,,,,,,,,,,2,7.339505,,0,0,35,35,41,1,stimuli/stim_20210407_power2amp/equal_lnn_AM1.8Hz_2.m4a,,,
,,,,,,,,,,,,41195,2021-05-10_15h35.26.367,judgeSpeechMusic_20210407_logNormShiftAmp,2020.1.2,Win32,60,,,,,,,,,,,,,,1,6.57827,1,1,0,36,36,22,1,stimuli/stim_20210407_power2amp/equal_lnn_AM1.2Hz_2.m4a,1.483425,,
,,,,,,,,,,,,41195,2021-05-10_15h35.26.367,judgeSpeechMusic_20210407_logNormShiftAmp,2020.1.2,Win32,60,,,,,,,,,,,,,,2,8.136025,,0,0,37,37,45,1,stimuli/stim_20210407_power2amp/equal_lnn_AM2.4Hz_42.m4a,,,
,,,,,,,,,,,,41195,2021-05-10_15h35.26.367,judgeSpeechMusic_20210407_logNormShiftAmp,2020.1.2,Win32,60,,,,,,,,,,,,,,1,6.080645,,0,0,38,38,44,1,stimuli/stim_20210407_power2amp/equal_lnn_AM1.8Hz_62.m4a,,,
,,,,,,,,,,,,41195,2021-05-10_15h35.26.367,judgeSpeechMusic_20210407_logNormShiftAmp,2020.1.2,Win32,60,,,,,,,,,,,,,,2,7.138915,,0,0,39,39,58,1,stimuli/stim_20210407_power2amp/equal_lnn_AM2.4Hz_18.m4a,,,
,,,,,,,,,,,,41195,2021-05-10_15h35.26.367,judgeSpeechMusic_20210407_logNormShiftAmp,2020.1.2,Win32,60,,,,,,,,,,,,,,1,7.432535,,0,0,40,40,85,1,stimuli/stim_20210407_power2amp/equal_lnn_AM3.6Hz_12.m4a,,,
,,,,,,,,,,,,41195,2021-05-10_15h35.26.367,judgeSpeechMusic_20210407_logNormShiftAmp,2020.1.2,Win32,60,,,,,,,,,,,,,,2,6.467095,,0,0,41,41,51,1,stimuli/stim_20210407_power2amp/equal_lnn_AM2.4Hz_71.m4a,,,
,,,,,,,,,,,,41195,2021-05-10_15h35.26.367,judgeSpeechMusic_20210407_logNormShiftAmp,2020.1.2,Win32,60,,,,,,,,,,,,,,2,9.71397,,0,0,42,42,137,1,stimuli/stim_20210407_power2amp/equal_lnn_AM6Hz_30.m4a,,,
,,,,,,,,,,,,41195,2021-05-10_15h35.26.367,judgeSpeechMusic_20210407_logNormShiftAmp,2020.1.2,Win32,60,,,,,,,,,,,,,,1,6.617515,,0,0,43,43,18,1,stimuli/stim_20210407_power2amp/equal_lnn_AM1.2Hz_67.m4a,,,
,,,,,,,,,,,,41195,2021-05-10_15h35.26.367,judgeSpeechMusic_20210407_logNormShiftAmp,2020.1.2,Win32,60,,,,,,,,,,,,,,1,7.64638,,0,0,44,44,79,1,stimuli/stim_20210407_power2amp/equal_lnn_AM3.6Hz_44.m4a,,,
,,,,,,,,,,,,41195,2021-05-10_15h35.26.367,judgeSpeechMusic_20210407_logNormShiftAmp,2020.1.2,Win32,60,,,,,,,,,,,,,,1,6.96898,,0,0,45,45,33,1,stimuli/stim_20210407_power2amp/equal_lnn_AM1.8Hz_52.m4a,,,
,,,,,,,,,,,,41195,2021-05-10_15h35.26.367,judgeSpeechMusic_20210407_logNormShiftAmp,2020.1.2,Win32,60,,,,,,,,,,,,,,1,7.642695,,0,0,46,46,81,1,stimuli/stim_20210407_power2amp/equal_lnn_AM3.6Hz_16.m4a,,,
,,,,,,,,,,,,41195,2021-05-10_15h35.26.367,judgeSpeechMusic_20210407_logNormShiftAmp,2020.1.2,Win32,60,,,,,,,,,,,,,,2,6.388975,,0,0,47,47,67,1,stimuli/stim_20210407_power2amp/equal_lnn_AM3Hz_81.m4a,,,
,,,,,,,,,,,,41195,2021-05-10_15h35.26.367,judgeSpeechMusic_20210407_logNormShiftAmp,2020.1.2,Win32,60,,,,,,,,,,,,,,1,6.766655,,0,0,48,48,70,1,stimuli/stim_20210407_power2amp/equal_lnn_AM3Hz_79.m4a,,,
,,,,,,,,,,,,41195,2021-05-10_15h35.26.367,judgeSpeechMusic_20210407_logNormShiftAmp,2020.1.2,Win32,60,,,,,,,,,,,,,,2,7.172025,,0,0,49,49,28,1,stimuli/stim_20210407_power2amp/equal_lnn_AM1.2Hz_15.m4a,,,
,,,,,,,,,,,,41195,2021-05-10_15h35.26.367,judgeSpeechMusic_20210407_logNormShiftAmp,2020.1.2,Win32,60,,,,,,,,,,,,,,2,5.976995,,0,0,50,50,118,1,stimuli/stim_20210407_power2amp/equal_lnn_AM4.8Hz_17.m4a,,,
,,,,,,,,,,,,41195,2021-05-10_15h35.26.367,judgeSpeechMusic_20210407_logNormShiftAmp,2020.1.2,Win32,60,,,,,,,,,,,,,,1,7.88133,,0,0,51,51,32,1,stimuli/stim_20210407_power2amp/equal_lnn_AM1.8Hz_86.m4a,,,
,,,,,,,,,,,,41195,2021-05-10_15h35.26.367,judgeSpeechMusic_20210407_logNormShiftAmp,2020.1.2,Win32,60,,,,,,,,,,,,,,1,5.892965,,0,0,52,52,23,1,stimuli/stim_20210407_power2amp/equal_lnn_AM1.2Hz_78.m4a,,,
,,,,,,,,,,,,41195,2021-05-10_15h35.26.367,judgeSpeechMusic_20210407_logNormShiftAmp,2020.1.2,Win32,60,,,,,,,,,,,,,,2,10.565815,,0,0,53,53,46,1,stimuli/stim_20210407_power2amp/equal_lnn_AM2.4Hz_84.m4a,,,
,,,,,,,,,,,,41195,2021-05-10_15h35.26.367,judgeSpeechMusic_20210407_logNormShiftAmp,2020.1.2,Win32,60,,,,,,,,,,,,,,1,6.26069,,0,0,54,54,146,1,stimuli/stim_20210407_power2amp/equal_lnn_AM6Hz_59.m4a,,,
,,,,,,,,,,,,41195,2021-05-10_15h35.26.367,judgeSpeechMusic_20210407_logNormShiftAmp,2020.1.2,Win32,60,,,,,,,,,,,,,,1,6.664455,,0,0,55,55,0,1,stimuli/stim_20210407_power2amp/equal_lnn_AM0.6Hz_11.m4a,,,
,,,,,,,,,,,,41195,2021-05-10_15h35.26.367,judgeSpeechMusic_20210407_logNormShiftAmp,2020.1.2,Win32,60,,,,,,,,,,,,,,1,7.00554,,0,0,56,56,49,1,stimuli/stim_20210407_power2amp/equal_lnn_AM2.4Hz_70.m4a,,,
,,,,,,,,,,,,41195,2021-05-10_15h35.26.367,judgeSpeechMusic_20210407_logNormShiftAmp,2020.1.2,Win32,60,,,,,,,,,,,,,,2,6.5869,,0,0,57,57,55,1,stimuli/stim_20210407_power2amp/equal_lnn_AM2.4Hz_66.m4a,,,
,,,,,,,,,,,,41195,2021-05-10_15h35.26.367,judgeSpeechMusic_20210407_logNormShiftAmp,2020.1.2,Win32,60,,,,,,,,,,,,,,1,6.17483,,0,0,58,58,74,1,stimuli/stim_20210407_power2amp/equal_lnn_AM3Hz_31.m4a,,,
,,,,,,,,,,,,41195,2021-05-10_15h35.26.367,judgeSpeechMusic_20210407_logNormShiftAmp,2020.1.2,Win32,60,,,,,,,,,,,,,,1,8.97072,,0,0,59,59,129,1,stimuli/stim_20210407_power2amp/equal_lnn_AM5.4Hz_55.m4a,,,
,,,,,,,,,,,,41195,2021-05-10_15h35.26.367,judgeSpeechMusic_20210407_logNormShiftAmp,2020.1.2,Win32,60,,,,,,,,,,,,,,1,11.482035,1,1,0,60,60,73,1,stimuli/stim_20210407_power2amp/equal_lnn_AM3Hz_88.m4a,0.88904,,
,,,,,,,,,,,,41195,2021-05-10_15h35.26.367,judgeSpeechMusic_20210407_logNormShiftAmp,2020.1.2,Win32,60,,,,,,,,,,,,,,1,5.8272,,0,0,61,61,96,1,stimuli/stim_20210407_power2amp/equal_lnn_AM4.2Hz_30.m4a,,,
,,,,,,,,,,,,41195,2021-05-10_15h35.26.367,judgeSpeechMusic_20210407_logNormShiftAmp,2020.1.2,Win32,60,,,,,,,,,,,,,,2,6.04544,,0,0,62,62,148,1,stimuli/stim_20210407_power2amp/equal_lnn_AM6Hz_11.m4a,,,
,,,,,,,,,,,,41195,2021-05-10_15h35.26.367,judgeSpeechMusic_20210407_logNormShiftAmp,2020.1.2,Win32,60,,,,,,,,,,,,,,2,7.33873,,0,0,63,63,147,1,stimuli/stim_20210407_power2amp/equal_lnn_AM6Hz_5.m4a,,,
,,,,,,,,,,,,41195,2021-05-10_15h35.26.367,judgeSpeechMusic_20210407_logNormShiftAmp,2020.1.2,Win32,60,,,,,,,,,,,,,,2,9.685695,,0,0,64,64,88,1,stimuli/stim_20210407_power2amp/equal_lnn_AM3.6Hz_96.m4a,,,
,,,,,,,,,,,,41195,2021-05-10_15h35.26.367,judgeSpeechMusic_20210407_logNormShiftAmp,2020.1.2,Win32,60,,,,,,,,,,,,,,1,84.398375,,0,0,65,65,10,1,stimuli/stim_20210407_power2amp/equal_lnn_AM0.6Hz_80.m4a,,,
,,,,,,,,,,,,41195,2021-05-10_15h35.26.367,judgeSpeechMusic_20210407_logNormShiftAmp,2020.1.2,Win32,60,,,,,,,,,,,,,,1,15.720805,,0,0,66,66,89,1,stimuli/stim_20210407_power2amp/equal_lnn_AM3.6Hz_89.m4a,,,
,,,,,,,,,,,,41195,2021-05-10_15h35.26.367,judgeSpeechMusic_20210407_logNormShiftAmp,2020.1.2,Win32,60,,,,,,,,,,,,,,1,250.786975,,0,0,67,67,63,1,stimuli/stim_20210407_power2amp/equal_lnn_AM3Hz_65.m4a,,,
,,,,,,,,,,,,41195,2021-05-10_15h35.26.367,judgeSpeechMusic_20210407_logNormShiftAmp,2020.1.2,Win32,60,,,,,,,,,,,,,,1,6.43852,,0,0,68,68,72,1,stimuli/stim_20210407_power2amp/equal_lnn_AM3Hz_50.m4a,,,
,,,,,,,,,,,,41195,2021-05-10_15h35.26.367,judgeSpeechMusic_20210407_logNormShiftAmp,2020.1.2,Win32,60,,,,,,,,,,,,,,2,15.86476,,0,0,69,69,130,1,stimuli/stim_20210407_power2amp/equal_lnn_AM5.4Hz_63.m4a,,,
,,,,,,,,,,,,41195,2021-05-10_15h35.26.367,judgeSpeechMusic_20210407_logNormShiftAmp,2020.1.2,Win32,60,,,,,,,,,,,,,,1,7.56804,,0,0,70,70,24,1,stimuli/stim_20210407_power2amp/equal_lnn_AM1.2Hz_10.m4a,,,
,,,,,,,,,,,,41195,2021-05-10_15h35.26.367,judgeSpeechMusic_20210407_logNormShiftAmp,2020.1.2,Win32,60,,,,,,,,,,,,,,1,5.9587,,0,0,71,71,2,1,stimuli/stim_20210407_power2amp/equal_lnn_AM0.6Hz_40.m4a,,,
,,,,,,,,,,,,41195,2021-05-10_15h35.26.367,judgeSpeechMusic_20210407_logNormShiftAmp,2020.1.2,Win32,60,,,,,,,,,,,,,,1,32.246875,,0,0,72,72,100,1,stimuli/stim_20210407_power2amp/equal_lnn_AM4.2Hz_46.m4a,,,
,,,,,,,,,,,,41195,2021-05-10_15h35.26.367,judgeSpeechMusic_20210407_logNormShiftAmp,2020.1.2,Win32,60,,,,,,,,,,,,,,2,5.89004,,0,0,73,73,123,1,stimuli/stim_20210407_power2amp/equal_lnn_AM5.4Hz_46.m4a,,,
,,,,,,,,,,,,41195,2021-05-10_15h35.26.367,judgeSpeechMusic_20210407_logNormShiftAmp,2020.1.2,Win32,60,,,,,,,,,,,,,,1,6.98689,,0,0,74,74,48,1,stimuli/stim_20210407_power2amp/equal_lnn_AM2.4Hz_35.m4a,,,
,,,,,,,,,,,,41195,2021-05-10_15h35.26.367,judgeSpeechMusic_20210407_logNormShiftAmp,2020.1.2,Win32,60,,,,,,,,,,,,,,1,9.268365,,0,0,75,75,101,1,stimuli/stim_20210407_power2amp/equal_lnn_AM4.2Hz_48.m4a,,,
,,,,,,,,,,,,41195,2021-05-10_15h35.26.367,judgeSpeechMusic_20210407_logNormShiftAmp,2020.1.2,Win32,60,,,,,,,,,,,,,,2,6.464645,,0,0,76,76,66,1,stimuli/stim_20210407_power2amp/equal_lnn_AM3Hz_30.m4a,,,
,,,,,,,,,,,,41195,2021-05-10_15h35.26.367,judgeSpeechMusic_20210407_logNormShiftAmp,2020.1.2,Win32,60,,,,,,,,,,,,,,1,11.637135,,0,0,77,77,108,1,stimuli/stim_20210407_power2amp/equal_lnn_AM4.8Hz_28.m4a,,,
,,,,,,,,,,,,41195,2021-05-10_15h35.26.367,judgeSpeechMusic_20210407_logNormShiftAmp,2020.1.2,Win32,60,,,,,,,,,,,,,,1,7.047335,,0,0,78,78,141,1,stimuli/stim_20210407_power2amp/equal_lnn_AM6Hz_42.m4a,,,
,,,,,,,,,,,,41195,2021-05-10_15h35.26.367,judgeSpeechMusic_20210407_logNormShiftAmp,2020.1.2,Win32,60,,,,,,,,,,,,,,1,15.899615,,0,0,79,79,97,1,stimuli/stim_20210407_power2amp/equal_lnn_AM4.2Hz_76.m4a,,,
,,,,,,,,,,,,41195,2021-05-10_15h35.26.367,judgeSpeechMusic_20210407_logNormShiftAmp,2020.1.2,Win32,60,,,,,,,,,,,,,,2,8.387855,,0,0,80,80,47,1,stimuli/stim_20210407_power2amp/equal_lnn_AM2.4Hz_28.m4a,,,
,,,,,,,,,,,,41195,2021-05-10_15h35.26.367,judgeSpeechMusic_20210407_logNormShiftAmp,2020.1.2,Win32,60,,,,,,,,,,,,,,1,28.30679,,0,0,81,81,110,1,stimuli/stim_20210407_power2amp/equal_lnn_AM4.8Hz_16.m4a,,,
,,,,,,,,,,,,41195,2021-05-10_15h35.26.367,judgeSpeechMusic_20210407_logNormShiftAmp,2020.1.2,Win32,60,,,,,,,,,,,,,,1,7.09175,,0,0,82,82,35,1,stimuli/stim_20210407_power2amp/equal_lnn_AM1.8Hz_56.m4a,,,
,,,,,,,,,,,,41195,2021-05-10_15h35.26.367,judgeSpeechMusic_20210407_logNormShiftAmp,2020.1.2,Win32,60,,,,,,,,,,,,,,2,8.080475,,0,0,83,83,143,1,stimuli/stim_20210407_power2amp/equal_lnn_AM6Hz_39.m4a,,,
,,,,,,,,,,,,41195,2021-05-10_15h35.26.367,judgeSpeechMusic_20210407_logNormShiftAmp,2020.1.2,Win32,60,,,,,,,,,,,,,,1,19.731395,4,1,0,84,84,128,1,stimuli/stim_20210407_power2amp/equal_lnn_AM5.4Hz_52.m4a,1.171735,,
,,,,,,,,,,,,41195,2021-05-10_15h35.26.367,judgeSpeechMusic_20210407_logNormShiftAmp,2020.1.2,Win32,60,,,,,,,,,,,,,,1,6.619045,,0,0,85,85,64,1,stimuli/stim_20210407_power2amp/equal_lnn_AM3Hz_97.m4a,,,
,,,,,,,,,,,,41195,2021-05-10_15h35.26.367,judgeSpeechMusic_20210407_logNormShiftAmp,2020.1.2,Win32,60,,,,,,,,,,,,,,1,5.977615,,0,0,86,86,115,1,stimuli/stim_20210407_power2amp/equal_lnn_AM4.8Hz_54.m4a,,,
,,,,,,,,,,,,41195,2021-05-10_15h35.26.367,judgeSpeechMusic_20210407_logNormShiftAmp,2020.1.2,Win32,60,,,,,,,,,,,,,,1,6.43686,,0,0,87,87,78,1,stimuli/stim_20210407_power2amp/equal_lnn_AM3.6Hz_75.m4a,,,
,,,,,,,,,,,,41195,2021-05-10_15h35.26.367,judgeSpeechMusic_20210407_logNormShiftAmp,2020.1.2,Win32,60,,,,,,,,,,,,,,1,11.347685,,0,0,88,88,107,1,stimuli/stim_20210407_power2amp/equal_lnn_AM4.8Hz_12.m4a,,,
,,,,,,,,,,,,41195,2021-05-10_15h35.26.367,judgeSpeechMusic_20210407_logNormShiftAmp,2020.1.2,Win32,60,,,,,,,,,,,,,,1,7.47259,,0,0,89,89,4,1,stimuli/stim_20210407_power2amp/equal_lnn_AM0.6Hz_61.m4a,,,
,,,,,,,,,,,,41195,2021-05-10_15h35.26.367,judgeSpeechMusic_20210407_logNormShiftAmp,2020.1.2,Win32,60,,,,,,,,,,,,,,1,7.64978,,0,0,90,90,77,1,stimuli/stim_20210407_power2amp/equal_lnn_AM3.6Hz_1.m4a,,,
,,,,,,,,,,,,41195,2021-05-10_15h35.26.367,judgeSpeechMusic_20210407_logNormShiftAmp,2020.1.2,Win32,60,,,,,,,,,,,,,,1,8.45718,,0,0,91,91,91,1,stimuli/stim_20210407_power2amp/equal_lnn_AM4.2Hz_84.m4a,,,
,,,,,,,,,,,,41195,2021-05-10_15h35.26.367,judgeSpeechMusic_20210407_logNormShiftAmp,2020.1.2,Win32,60,,,,,,,,,,,,,,1,7.27521,,0,0,92,92,14,1,stimuli/stim_20210407_power2amp/equal_lnn_AM0.6Hz_64.m4a,,,
,,,,,,,,,,,,41195,2021-05-10_15h35.26.367,judgeSpeechMusic_20210407_logNormShiftAmp,2020.1.2,Win32,60,,,,,,,,,,,,,,1,26.95505,,0,0,93,93,87,1,stimuli/stim_20210407_power2amp/equal_lnn_AM3.6Hz_78.m4a,,,
,,,,,,,,,,,,41195,2021-05-10_15h35.26.367,judgeSpeechMusic_20210407_logNormShiftAmp,2020.1.2,Win32,60,,,,,,,,,,,,,,2,20.296275,,0,0,94,94,80,1,stimuli/stim_20210407_power2amp/equal_lnn_AM3.6Hz_23.m4a,,,
,,,,,,,,,,,,41195,2021-05-10_15h35.26.367,judgeSpeechMusic_20210407_logNormShiftAmp,2020.1.2,Win32,60,,,,,,,,,,,,,,1,6.469875,,0,0,95,95,5,1,stimuli/stim_20210407_power2amp/equal_lnn_AM0.6Hz_49.m4a,,,
,,,,,,,,,,,,41195,2021-05-10_15h35.26.367,judgeSpeechMusic_20210407_logNormShiftAmp,2020.1.2,Win32,60,,,,,,,,,,,,,,1,7.57073,,0,0,96,96,75,1,stimuli/stim_20210407_power2amp/equal_lnn_AM3.6Hz_60.m4a,,,
,,,,,,,,,,,,41195,2021-05-10_15h35.26.367,judgeSpeechMusic_20210407_logNormShiftAmp,2020.1.2,Win32,60,,,,,,,,,,,,,,1,7.072715,,0,0,97,97,116,1,stimuli/stim_20210407_power2amp/equal_lnn_AM4.8Hz_72.m4a,,,
,,,,,,,,,,,,41195,2021-05-10_15h35.26.367,judgeSpeechMusic_20210407_logNormShiftAmp,2020.1.2,Win32,60,,,,,,,,,,,,,,1,55.43192,,0,0,98,98,84,1,stimuli/stim_20210407_power2amp/equal_lnn_AM3.6Hz_42.m4a,,,
,,,,,,,,,,,,41195,2021-05-10_15h35.26.367,judgeSpeechMusic_20210407_logNormShiftAmp,2020.1.2,Win32,60,,,,,,,,,,,,,,1,88.7361,,0,0,99,99,12,1,stimuli/stim_20210407_power2amp/equal_lnn_AM0.6Hz_54.m4a,,,
,,,,,,,,,,,,41195,2021-05-10_15h35.26.367,judgeSpeechMusic_20210407_logNormShiftAmp,2020.1.2,Win32,60,,,,,,,,,,,,,,1,6.952335,,0,0,100,100,98,1,stimuli/stim_20210407_power2amp/equal_lnn_AM4.2Hz_8.m4a,,,
,,,,,,,,,,,,41195,2021-05-10_15h35.26.367,judgeSpeechMusic_20210407_logNormShiftAmp,2020.1.2,Win32,60,,,,,,,,,,,,,,1,100.29157,,0,0,101,101,6,1,stimuli/stim_20210407_power2amp/equal_lnn_AM0.6Hz_82.m4a,,,
,,,,,,,,,,,,41195,2021-05-10_15h35.26.367,judgeSpeechMusic_20210407_logNormShiftAmp,2020.1.2,Win32,60,,,,,,,,,,,,,,2,9.45299,,0,0,102,102,144,1,stimuli/stim_20210407_power2amp/equal_lnn_AM6Hz_9.m4a,,,
,,,,,,,,,,,,41195,2021-05-10_15h35.26.367,judgeSpeechMusic_20210407_logNormShiftAmp,2020.1.2,Win32,60,,,,,,,,,,,,,,1,8.26996,,0,0,103,103,11,1,stimuli/stim_20210407_power2amp/equal_lnn_AM0.6Hz_25.m4a,,,
,,,,,,,,,,,,41195,2021-05-10_15h35.26.367,judgeSpeechMusic_20210407_logNormShiftAmp,2020.1.2,Win32,60,,,,,,,,,,,,,,1,7.058095,1,1,0,104,104,94,1,stimuli/stim_20210407_power2amp/equal_lnn_AM4.2Hz_25.m4a,0.720545,,
,,,,,,,,,,,,41195,2021-05-10_15h35.26.367,judgeSpeechMusic_20210407_logNormShiftAmp,2020.1.2,Win32,60,,,,,,,,,,,,,,1,6.12994,,0,0,105,105,106,1,stimuli/stim_20210407_power2amp/equal_lnn_AM4.8Hz_64.m4a,,,
,,,,,,,,,,,,41195,2021-05-10_15h35.26.367,judgeSpeechMusic_20210407_logNormShiftAmp,2020.1.2,Win32,60,,,,,,,,,,,,,,2,6.81399,,0,0,106,106,119,1,stimuli/stim_20210407_power2amp/equal_lnn_AM4.8Hz_68.m4a,,,
,,,,,,,,,,,,41195,2021-05-10_15h35.26.367,judgeSpeechMusic_20210407_logNormShiftAmp,2020.1.2,Win32,60,,,,,,,,,,,,,,1,6.99954,,0,0,107,107,54,1,stimuli/stim_20210407_power2amp/equal_lnn_AM2.4Hz_52.m4a,,,
,,,,,,,,,,,,41195,2021-05-10_15h35.26.367,judgeSpeechMusic_20210407_logNormShiftAmp,2020.1.2,Win32,60,,,,,,,,,,,,,,1,28.28482,,0,0,108,108,131,1,stimuli/stim_20210407_power2amp/equal_lnn_AM5.4Hz_44.m4a,,,
,,,,,,,,,,,,41195,2021-05-10_15h35.26.367,judgeSpeechMusic_20210407_logNormShiftAmp,2020.1.2,Win32,60,,,,,,,,,,,,,,1,17.461985,,0,0,109,109,30,1,stimuli/stim_20210407_power2amp/equal_lnn_AM1.8Hz_98.m4a,,,
,,,,,,,,,,,,41195,2021-05-10_15h35.26.367,judgeSpeechMusic_20210407_logNormShiftAmp,2020.1.2,Win32,60,,,,,,,,,,,,,,1,6.0157,,0,0,110,110,103,1,stimuli/stim_20210407_power2amp/equal_lnn_AM4.2Hz_90.m4a,,,
,,,,,,,,,,,,41195,2021-05-10_15h35.26.367,judgeSpeechMusic_20210407_logNormShiftAmp,2020.1.2,Win32,60,,,,,,,,,,,,,,2,8.22375,,0,0,111,111,25,1,stimuli/stim_20210407_power2amp/equal_lnn_AM1.2Hz_56.m4a,,,
,,,,,,,,,,,,41195,2021-05-10_15h35.26.367,judgeSpeechMusic_20210407_logNormShiftAmp,2020.1.2,Win32,60,,,,,,,,,,,,,,1,5.8243,,0,0,112,112,104,1,stimuli/stim_20210407_power2amp/equal_lnn_AM4.2Hz_53.m4a,,,
,,,,,,,,,,,,41195,2021-05-10_15h35.26.367,judgeSpeechMusic_20210407_logNormShiftAmp,2020.1.2,Win32,60,,,,,,,,,,,,,,2,6.030315,,0,0,113,113,139,1,stimuli/stim_20210407_power2amp/equal_lnn_AM6Hz_33.m4a,,,
,,,,,,,,,,,,41195,2021-05-10_15h35.26.367,judgeSpeechMusic_20210407_logNormShiftAmp,2020.1.2,Win32,60,,,,,,,,,,,,,,2,5.967615,,0,0,114,114,39,1,stimuli/stim_20210407_power2amp/equal_lnn_AM1.8Hz_95.m4a,,,
,,,,,,,,,,,,41195,2021-05-10_15h35.26.367,judgeSpeechMusic_20210407_logNormShiftAmp,2020.1.2,Win32,60,,,,,,,,,,,,,,2,6.04225,,0,0,115,115,145,1,stimuli/stim_20210407_power2amp/equal_lnn_AM6Hz_98.m4a,,,
,,,,,,,,,,,,41195,2021-05-10_15h35.26.367,judgeSpeechMusic_20210407_logNormShiftAmp,2020.1.2,Win32,60,,,,,,,,,,,,,,1,6.007655,,0,0,116,116,69,1,stimuli/stim_20210407_power2amp/equal_lnn_AM3Hz_23.m4a,,,
,,,,,,,,,,,,41195,2021-05-10_15h35.26.367,judgeSpeechMusic_20210407_logNormShiftAmp,2020.1.2,Win32,60,,,,,,,,,,,,,,1,6.2343,,0,0,117,117,99,1,stimuli/stim_20210407_power2amp/equal_lnn_AM4.2Hz_45.m4a,,,
,,,,,,,,,,,,41195,2021-05-10_15h35.26.367,judgeSpeechMusic_20210407_logNormShiftAmp,2020.1.2,Win32,60,,,,,,,,,,,,,,1,7.38483,,0,0,118,118,19,1,stimuli/stim_20210407_power2amp/equal_lnn_AM1.2Hz_52.m4a,,,
,,,,,,,,,,,,41195,2021-05-10_15h35.26.367,judgeSpeechMusic_20210407_logNormShiftAmp,2020.1.2,Win32,60,,,,,,,,,,,,,,2,5.89164,,0,0,119,119,135,1,stimuli/stim_20210407_power2amp/equal_lnn_AM6Hz_64.m4a,,,
,,,,,,,,,,,,41195,2021-05-10_15h35.26.367,judgeSpeechMusic_20210407_logNormShiftAmp,2020.1.2,Win32,60,,,,,,,,,,,,,,1,5.88916,,0,0,120,120,112,1,stimuli/stim_20210407_power2amp/equal_lnn_AM4.8Hz_55.m4a,,,
,,,,,,,,,,,,41195,2021-05-10_15h35.26.367,judgeSpeechMusic_20210407_logNormShiftAmp,2020.1.2,Win32,60,,,,,,,,,,,,,,1,6.505035,,0,0,121,121,13,1,stimuli/stim_20210407_power2amp/equal_lnn_AM0.6Hz_16.m4a,,,
,,,,,,,,,,,,41195,2021-05-10_15h35.26.367,judgeSpeechMusic_20210407_logNormShiftAmp,2020.1.2,Win32,60,,,,,,,,,,,,,,1,5.89809,,0,0,122,122,90,1,stimuli/stim_20210407_power2amp/equal_lnn_AM4.2Hz_3.m4a,,,
,,,,,,,,,,,,41195,2021-05-10_15h35.26.367,judgeSpeechMusic_20210407_logNormShiftAmp,2020.1.2,Win32,60,,,,,,,,,,,,,,2,5.832985,,0,0,123,123,105,1,stimuli/stim_20210407_power2amp/equal_lnn_AM4.8Hz_51.m4a,,,
,,,,,,,,,,,,41195,2021-05-10_15h35.26.367,judgeSpeechMusic_20210407_logNormShiftAmp,2020.1.2,Win32,60,,,,,,,,,,,,,,2,5.76465,2,1,0,124,124,43,1,stimuli/stim_20210407_power2amp/equal_lnn_AM1.8Hz_1.m4a,0.645705,,
,,,,,,,,,,,,41195,2021-05-10_15h35.26.367,judgeSpeechMusic_20210407_logNormShiftAmp,2020.1.2,Win32,60,,,,,,,,,,,,,,1,6.030215,,0,0,125,125,53,1,stimuli/stim_20210407_power2amp/equal_lnn_AM2.4Hz_64.m4a,,,
,,,,,,,,,,,,41195,2021-05-10_15h35.26.367,judgeSpeechMusic_20210407_logNormShiftAmp,2020.1.2,Win32,60,,,,,,,,,,,,,,1,5.84378,,0,0,126,126,34,1,stimuli/stim_20210407_power2amp/equal_lnn_AM1.8Hz_90.m4a,,,
,,,,,,,,,,,,41195,2021-05-10_15h35.26.367,judgeSpeechMusic_20210407_logNormShiftAmp,2020.1.2,Win32,60,,,,,,,,,,,,,,2,5.75486,,0,0,127,127,111,1,stimuli/stim_20210407_power2amp/equal_lnn_AM4.8Hz_49.m4a,,,
,,,,,,,,,,,,41195,2021-05-10_15h35.26.367,judgeSpeechMusic_20210407_logNormShiftAmp,2020.1.2,Win32,60,,,,,,,,,,,,,,2,5.907115,,0,0,128,128,149,1,stimuli/stim_20210407_power2amp/equal_lnn_AM6Hz_26.m4a,,,
,,,,,,,,,,,,41195,2021-05-10_15h35.26.367,judgeSpeechMusic_20210407_logNormShiftAmp,2020.1.2,Win32,60,,,,,,,,,,,,,,1,7.637595,,0,0,129,129,9,1,stimuli/stim_20210407_power2amp/equal_lnn_AM0.6Hz_59.m4a,,,
,,,,,,,,,,,,41195,2021-05-10_15h35.26.367,judgeSpeechMusic_20210407_logNormShiftAmp,2020.1.2,Win32,60,,,,,,,,,,,,,,1,6.555225,,0,0,130,130,142,1,stimuli/stim_20210407_power2amp/equal_lnn_AM6Hz_65.m4a,,,
,,,,,,,,,,,,41195,2021-05-10_15h35.26.367,judgeSpeechMusic_20210407_logNormShiftAmp,2020.1.2,Win32,60,,,,,,,,,,,,,,1,5.785475,,0,0,131,131,50,1,stimuli/stim_20210407_power2amp/equal_lnn_AM2.4Hz_89.m4a,,,
,,,,,,,,,,,,41195,2021-05-10_15h35.26.367,judgeSpeechMusic_20210407_logNormShiftAmp,2020.1.2,Win32,60,,,,,,,,,,,,,,1,5.95341,,0,0,132,132,95,1,stimuli/stim_20210407_power2amp/equal_lnn_AM4.2Hz_49.m4a,,,
,,,,,,,,,,,,41195,2021-05-10_15h35.26.367,judgeSpeechMusic_20210407_logNormShiftAmp,2020.1.2,Win32,60,,,,,,,,,,,,,,1,6.012,,0,0,133,133,138,1,stimuli/stim_20210407_power2amp/equal_lnn_AM6Hz_23.m4a,,,
,,,,,,,,,,,,41195,2021-05-10_15h35.26.367,judgeSpeechMusic_20210407_logNormShiftAmp,2020.1.2,Win32,60,,,,,,,,,,,,,,1,8.119445,,0,0,134,134,109,1,stimuli/stim_20210407_power2amp/equal_lnn_AM4.8Hz_82.m4a,,,
,,,,,,,,,,,,41195,2021-05-10_15h35.26.367,judgeSpeechMusic_20210407_logNormShiftAmp,2020.1.2,Win32,60,,,,,,,,,,,,,,1,5.78483,,0,0,135,135,42,1,stimuli/stim_20210407_power2amp/equal_lnn_AM1.8Hz_35.m4a,,,
,,,,,,,,,,,,41195,2021-05-10_15h35.26.367,judgeSpeechMusic_20210407_logNormShiftAmp,2020.1.2,Win32,60,,,,,,,,,,,,,,1,6.014545,,0,0,136,136,62,1,stimuli/stim_20210407_power2amp/equal_lnn_AM3Hz_27.m4a,,,
,,,,,,,,,,,,41195,2021-05-10_15h35.26.367,judgeSpeechMusic_20210407_logNormShiftAmp,2020.1.2,Win32,60,,,,,,,,,,,,,,2,5.725775,,0,0,137,137,117,1,stimuli/stim_20210407_power2amp/equal_lnn_AM4.8Hz_85.m4a,,,
,,,,,,,,,,,,41195,2021-05-10_15h35.26.367,judgeSpeechMusic_20210407_logNormShiftAmp,2020.1.2,Win32,60,,,,,,,,,,,,,,1,5.94219,,0,0,138,138,83,1,stimuli/stim_20210407_power2amp/equal_lnn_AM3.6Hz_20.m4a,,,
,,,,,,,,,,,,41195,2021-05-10_15h35.26.367,judgeSpeechMusic_20210407_logNormShiftAmp,2020.1.2,Win32,60,,,,,,,,,,,,,,1,6.41328,,0,0,139,139,86,1,stimuli/stim_20210407_power2amp/equal_lnn_AM3.6Hz_80.m4a,,,
,,,,,,,,,,,,41195,2021-05-10_15h35.26.367,judgeSpeechMusic_20210407_logNormShiftAmp,2020.1.2,Win32,60,,,,,,,,,,,,,,1,6.44614,,0,0,140,140,52,1,stimuli/stim_20210407_power2amp/equal_lnn_AM2.4Hz_54.m4a,,,
,,,,,,,,,,,,41195,2021-05-10_15h35.26.367,judgeSpeechMusic_20210407_logNormShiftAmp,2020.1.2,Win32,60,,,,,,,,,,,,,,1,5.84213,,0,0,141,141,29,1,stimuli/stim_20210407_power2amp/equal_lnn_AM1.2Hz_66.m4a,,,
,,,,,,,,,,,,41195,2021-05-10_15h35.26.367,judgeSpeechMusic_20210407_logNormShiftAmp,2020.1.2,Win32,60,,,,,,,,,,,,,,1,5.858675,,0,0,142,142,37,1,stimuli/stim_20210407_power2amp/equal_lnn_AM1.8Hz_13.m4a,,,
,,,,,,,,,,,,41195,2021-05-10_15h35.26.367,judgeSpeechMusic_20210407_logNormShiftAmp,2020.1.2,Win32,60,,,,,,,,,,,,,,2,5.802875,,0,0,143,143,126,1,stimuli/stim_20210407_power2amp/equal_lnn_AM5.4Hz_91.m4a,,,
,,,,,,,,,,,,41195,2021-05-10_15h35.26.367,judgeSpeechMusic_20210407_logNormShiftAmp,2020.1.2,Win32,60,,,,,,,,,,,,,,1,5.765815,,0,0,144,144,7,1,stimuli/stim_20210407_power2amp/equal_lnn_AM0.6Hz_27.m4a,,,
,,,,,,,,,,,,41195,2021-05-10_15h35.26.367,judgeSpeechMusic_20210407_logNormShiftAmp,2020.1.2,Win32,60,,,,,,,,,,,,,,2,5.746795,,0,0,145,145,3,1,stimuli/stim_20210407_power2amp/equal_lnn_AM0.6Hz_88.m4a,,,
,,,,,,,,,,,,41195,2021-05-10_15h35.26.367,judgeSpeechMusic_20210407_logNormShiftAmp,2020.1.2,Win32,60,,,,,,,,,,,,,,1,6.348585,,0,0,146,146,8,1,stimuli/stim_20210407_power2amp/equal_lnn_AM0.6Hz_46.m4a,,,
,,,,,,,,,,,,41195,2021-05-10_15h35.26.367,judgeSpeechMusic_20210407_logNormShiftAmp,2020.1.2,Win32,60,,,,,,,,,,,,,,2,5.73681,,0,0,147,147,31,1,stimuli/stim_20210407_power2amp/equal_lnn_AM1.8Hz_83.m4a,,,
,,,,,,,,,,,,41195,2021-05-10_15h35.26.367,judgeSpeechMusic_20210407_logNormShiftAmp,2020.1.2,Win32,60,,,,,,,,,,,,,,1,5.964065,,0,0,148,148,26,1,stimuli/stim_20210407_power2amp/equal_lnn_AM1.2Hz_54.m4a,,,
,,,,,,,,,,,,41195,2021-05-10_15h35.26.367,judgeSpeechMusic_20210407_logNormShiftAmp,2020.1.2,Win32,60,,,,,,,,,,,,,,1,5.76698,1,1,0,149,149,68,1,stimuli/stim_20210407_power2amp/equal_lnn_AM3Hz_89.m4a,0.42144,,
,,,,,,,,,,,,41195,2021-05-10_15h35.26.367,judgeSpeechMusic_20210407_logNormShiftAmp,2020.1.2,Win32,60,,,,,,,,,,,,,,1,6.07754,,0,1,0,150,80,1,stimuli/stim_20210407_power2amp/equal_lnn_AM3.6Hz_23.m4a,,,
,,,,,,,,,,,,41195,2021-05-10_15h35.26.367,judgeSpeechMusic_20210407_logNormShiftAmp,2020.1.2,Win32,60,,,,,,,,,,,,,,1,6.019265,,0,1,1,151,67,1,stimuli/stim_20210407_power2amp/equal_lnn_AM3Hz_81.m4a,,,
,,,,,,,,,,,,41195,2021-05-10_15h35.26.367,judgeSpeechMusic_20210407_logNormShiftAmp,2020.1.2,Win32,60,,,,,,,,,,,,,,1,5.749725,,0,1,2,152,97,1,stimuli/stim_20210407_power2amp/equal_lnn_AM4.2Hz_76.m4a,,,
,,,,,,,,,,,,41195,2021-05-10_15h35.26.367,judgeSpeechMusic_20210407_logNormShiftAmp,2020.1.2,Win32,60,,,,,,,,,,,,,,1,5.72365,,0,1,3,153,94,1,stimuli/stim_20210407_power2amp/equal_lnn_AM4.2Hz_25.m4a,,,
,,,,,,,,,,,,41195,2021-05-10_15h35.26.367,judgeSpeechMusic_20210407_logNormShiftAmp,2020.1.2,Win32,60,,,,,,,,,,,,,,1,6.028885,,0,1,4,154,134,1,stimuli/stim_20210407_power2amp/equal_lnn_AM5.4Hz_6.m4a,,,
,,,,,,,,,,,,41195,2021-05-10_15h35.26.367,judgeSpeechMusic_20210407_logNormShiftAmp,2020.1.2,Win32,60,,,,,,,,,,,,,,1,6.15251,,0,1,5,155,51,1,stimuli/stim_20210407_power2amp/equal_lnn_AM2.4Hz_71.m4a,,,
,,,,,,,,,,,,41195,2021-05-10_15h35.26.367,judgeSpeechMusic_20210407_logNormShiftAmp,2020.1.2,Win32,60,,,,,,,,,,,,,,2,6.11975,,0,1,6,156,56,1,stimuli/stim_20210407_power2amp/equal_lnn_AM2.4Hz_60.m4a,,,
,,,,,,,,,,,,41195,2021-05-10_15h35.26.367,judgeSpeechMusic_20210407_logNormShiftAmp,2020.1.2,Win32,60,,,,,,,,,,,,,,1,5.77233,,0,1,7,157,137,1,stimuli/stim_20210407_power2amp/equal_lnn_AM6Hz_30.m4a,,,
,,,,,,,,,,,,41195,2021-05-10_15h35.26.367,judgeSpeechMusic_20210407_logNormShiftAmp,2020.1.2,Win32,60,,,,,,,,,,,,,,2,5.80127,,0,1,8,158,107,1,stimuli/stim_20210407_power2amp/equal_lnn_AM4.8Hz_12.m4a,,,
,,,,,,,,,,,,41195,2021-05-10_15h35.26.367,judgeSpeechMusic_20210407_logNormShiftAmp,2020.1.2,Win32,60,,,,,,,,,,,,,,1,5.816245,,0,1,9,159,99,1,stimuli/stim_20210407_power2amp/equal_lnn_AM4.2Hz_45.m4a,,,
,,,,,,,,,,,,41195,2021-05-10_15h35.26.367,judgeSpeechMusic_20210407_logNormShiftAmp,2020.1.2,Win32,60,,,,,,,,,,,,,,1,5.94122,,0,1,10,160,148,1,stimuli/stim_20210407_power2amp/equal_lnn_AM6Hz_11.m4a,,,
,,,,,,,,,,,,41195,2021-05-10_15h35.26.367,judgeSpeechMusic_20210407_logNormShiftAmp,2020.1.2,Win32,60,,,,,,,,,,,,,,2,5.875965,,0,1,11,161,111,1,stimuli/stim_20210407_power2amp/equal_lnn_AM4.8Hz_49.m4a,,,
,,,,,,,,,,,,41195,2021-05-10_15h35.26.367,judgeSpeechMusic_20210407_logNormShiftAmp,2020.1.2,Win32,60,,,,,,,,,,,,,,1,5.89339,,0,1,12,162,121,1,stimuli/stim_20210407_power2amp/equal_lnn_AM5.4Hz_85.m4a,,,
,,,,,,,,,,,,41195,2021-05-10_15h35.26.367,judgeSpeechMusic_20210407_logNormShiftAmp,2020.1.2,Win32,60,,,,,,,,,,,,,,2,7.05999,,0,1,13,163,5,1,stimuli/stim_20210407_power2amp/equal_lnn_AM0.6Hz_49.m4a,,,
,,,,,,,,,,,,41195,2021-05-10_15h35.26.367,judgeSpeechMusic_20210407_logNormShiftAmp,2020.1.2,Win32,60,,,,,,,,,,,,,,1,7.08179,,0,1,14,164,98,1,stimuli/stim_20210407_power2amp/equal_lnn_AM4.2Hz_8.m4a,,,
,,,,,,,,,,,,41195,2021-05-10_15h35.26.367,judgeSpeechMusic_20210407_logNormShiftAmp,2020.1.2,Win32,60,,,,,,,,,,,,,,2,7.763275,,0,1,15,165,40,1,stimuli/stim_20210407_power2amp/equal_lnn_AM1.8Hz_54.m4a,,,
,,,,,,,,,,,,41195,2021-05-10_15h35.26.367,judgeSpeechMusic_20210407_logNormShiftAmp,2020.1.2,Win32,60,,,,,,,,,,,,,,1,6.030685,,0,1,16,166,136,1,stimuli/stim_20210407_power2amp/equal_lnn_AM6Hz_13.m4a,,,
,,,,,,,,,,,,41195,2021-05-10_15h35.26.367,judgeSpeechMusic_20210407_logNormShiftAmp,2020.1.2,Win32,60,,,,,,,,,,,,,,1,7.782095,,0,1,17,167,102,1,stimuli/stim_20210407_power2amp/equal_lnn_AM4.2Hz_98.m4a,,,
,,,,,,,,,,,,41195,2021-05-10_15h35.26.367,judgeSpeechMusic_20210407_logNormShiftAmp,2020.1.2,Win32,60,,,,,,,,,,,,,,1,7.892215,,0,1,18,168,38,1,stimuli/stim_20210407_power2amp/equal_lnn_AM1.8Hz_51.m4a,,,
,,,,,,,,,,,,41195,2021-05-10_15h35.26.367,judgeSpeechMusic_20210407_logNormShiftAmp,2020.1.2,Win32,60,,,,,,,,,,,,,,1,7.18607,,0,1,19,169,18,1,stimuli/stim_20210407_power2amp/equal_lnn_AM1.2Hz_67.m4a,,,
,,,,,,,,,,,,41195,2021-05-10_15h35.26.367,judgeSpeechMusic_20210407_logNormShiftAmp,2020.1.2,Win32,60,,,,,,,,,,,,,,1,5.7386,,0,1,20,170,71,1,stimuli/stim_20210407_power2amp/equal_lnn_AM3Hz_62.m4a,,,
,,,,,,,,,,,,41195,2021-05-10_15h35.26.367,judgeSpeechMusic_20210407_logNormShiftAmp,2020.1.2,Win32,60,,,,,,,,,,,,,,1,5.836685,,0,1,21,171,92,1,stimuli/stim_20210407_power2amp/equal_lnn_AM4.2Hz_95.m4a,,,
,,,,,,,,,,,,41195,2021-05-10_15h35.26.367,judgeSpeechMusic_20210407_logNormShiftAmp,2020.1.2,Win32,60,,,,,,,,,,,,,,1,6.57282,2,1,1,22,172,73,1,stimuli/stim_20210407_power2amp/equal_lnn_AM3Hz_88.m4a,0.344885,,
,,,,,,,,,,,,41195,2021-05-10_15h35.26.367,judgeSpeechMusic_20210407_logNormShiftAmp,2020.1.2,Win32,60,,,,,,,,,,,,,,1,5.75022,,0,1,23,173,48,1,stimuli/stim_20210407_power2amp/equal_lnn_AM2.4Hz_35.m4a,,,
,,,,,,,,,,,,41195,2021-05-10_15h35.26.367,judgeSpeechMusic_20210407_logNormShiftAmp,2020.1.2,Win32,60,,,,,,,,,,,,,,1,5.967225,,0,1,24,174,42,1,stimuli/stim_20210407_power2amp/equal_lnn_AM1.8Hz_35.m4a,,,
,,,,,,,,,,,,41195,2021-05-10_15h35.26.367,judgeSpeechMusic_20210407_logNormShiftAmp,2020.1.2,Win32,60,,,,,,,,,,,,,,1,7.97737,,0,1,25,175,41,1,stimuli/stim_20210407_power2amp/equal_lnn_AM1.8Hz_2.m4a,,,
,,,,,,,,,,,,41195,2021-05-10_15h35.26.367,judgeSpeechMusic_20210407_logNormShiftAmp,2020.1.2,Win32,60,,,,,,,,,,,,,,1,7.16331,,0,1,26,176,103,1,stimuli/stim_20210407_power2amp/equal_lnn_AM4.2Hz_90.m4a,,,
,,,,,,,,,,,,41195,2021-05-10_15h35.26.367,judgeSpeechMusic_20210407_logNormShiftAmp,2020.1.2,Win32,60,,,,,,,,,,,,,,1,6.255765,,0,1,27,177,114,1,stimuli/stim_20210407_power2amp/equal_lnn_AM4.8Hz_2.m4a,,,
,,,,,,,,,,,,41195,2021-05-10_15h35.26.367,judgeSpeechMusic_20210407_logNormShiftAmp,2020.1.2,Win32,60,,,,,,,,,,,,,,1,7.59098,,0,1,28,178,62,1,stimuli/stim_20210407_power2amp/equal_lnn_AM3Hz_27.m4a,,,
,,,,,,,,,,,,41195,2021-05-10_15h35.26.367,judgeSpeechMusic_20210407_logNormShiftAmp,2020.1.2,Win32,60,,,,,,,,,,,,,,1,6.147045,,0,1,29,179,21,1,stimuli/stim_20210407_power2amp/equal_lnn_AM1.2Hz_33.m4a,,,
,,,,,,,,,,,,41195,2021-05-10_15h35.26.367,judgeSpeechMusic_20210407_logNormShiftAmp,2020.1.2,Win32,60,,,,,,,,,,,,,,1,6.333325,,0,1,30,180,120,1,stimuli/stim_20210407_power2amp/equal_lnn_AM5.4Hz_2.m4a,,,
,,,,,,,,,,,,41195,2021-05-10_15h35.26.367,judgeSpeechMusic_20210407_logNormShiftAmp,2020.1.2,Win32,60,,,,,,,,,,,,,,1,6.1481,,0,1,31,181,149,1,stimuli/stim_20210407_power2amp/equal_lnn_AM6Hz_26.m4a,,,
,,,,,,,,,,,,41195,2021-05-10_15h35.26.367,judgeSpeechMusic_20210407_logNormShiftAmp,2020.1.2,Win32,60,,,,,,,,,,,,,,2,6.20177,,0,1,32,182,125,1,stimuli/stim_20210407_power2amp/equal_lnn_AM5.4Hz_7.m4a,,,
,,,,,,,,,,,,41195,2021-05-10_15h35.26.367,judgeSpeechMusic_20210407_logNormShiftAmp,2020.1.2,Win32,60,,,,,,,,,,,,,,1,7.287625,,0,1,33,183,7,1,stimuli/stim_20210407_power2amp/equal_lnn_AM0.6Hz_27.m4a,,,
,,,,,,,,,,,,41195,2021-05-10_15h35.26.367,judgeSpeechMusic_20210407_logNormShiftAmp,2020.1.2,Win32,60,,,,,,,,,,,,,,1,6.081655,,0,1,34,184,3,1,stimuli/stim_20210407_power2amp/equal_lnn_AM0.6Hz_88.m4a,,,
,,,,,,,,,,,,41195,2021-05-10_15h35.26.367,judgeSpeechMusic_20210407_logNormShiftAmp,2020.1.2,Win32,60,,,,,,,,,,,,,,1,11.46265,,0,1,35,185,6,1,stimuli/stim_20210407_power2amp/equal_lnn_AM0.6Hz_82.m4a,,,
,,,,,,,,,,,,41195,2021-05-10_15h35.26.367,judgeSpeechMusic_20210407_logNormShiftAmp,2020.1.2,Win32,60,,,,,,,,,,,,,,1,7.286405,,0,1,36,186,112,1,stimuli/stim_20210407_power2amp/equal_lnn_AM4.8Hz_55.m4a,,,
,,,,,,,,,,,,41195,2021-05-10_15h35.26.367,judgeSpeechMusic_20210407_logNormShiftAmp,2020.1.2,Win32,60,,,,,,,,,,,,,,1,7.89241,,0,1,37,187,65,1,stimuli/stim_20210407_power2amp/equal_lnn_AM3Hz_11.m4a,,,
,,,,,,,,,,,,41195,2021-05-10_15h35.26.367,judgeSpeechMusic_20210407_logNormShiftAmp,2020.1.2,Win32,60,,,,,,,,,,,,,,1,6.67726,,0,1,38,188,66,1,stimuli/stim_20210407_power2amp/equal_lnn_AM3Hz_30.m4a,,,
,,,,,,,,,,,,41195,2021-05-10_15h35.26.367,judgeSpeechMusic_20210407_logNormShiftAmp,2020.1.2,Win32,60,,,,,,,,,,,,,,1,5.94489,,0,1,39,189,34,1,stimuli/stim_20210407_power2amp/equal_lnn_AM1.8Hz_90.m4a,,,
,,,,,,,,,,,,41195,2021-05-10_15h35.26.367,judgeSpeechMusic_20210407_logNormShiftAmp,2020.1.2,Win32,60,,,,,,,,,,,,,,1,5.99495,,0,1,40,190,85,1,stimuli/stim_20210407_power2amp/equal_lnn_AM3.6Hz_12.m4a,,,
,,,,,,,,,,,,41195,2021-05-10_15h35.26.367,judgeSpeechMusic_20210407_logNormShiftAmp,2020.1.2,Win32,60,,,,,,,,,,,,,,1,6.00311,,0,1,41,191,115,1,stimuli/stim_20210407_power2amp/equal_lnn_AM4.8Hz_54.m4a,,,
,,,,,,,,,,,,41195,2021-05-10_15h35.26.367,judgeSpeechMusic_20210407_logNormShiftAmp,2020.1.2,Win32,60,,,,,,,,,,,,,,1,6.654435,,0,1,42,192,63,1,stimuli/stim_20210407_power2amp/equal_lnn_AM3Hz_65.m4a,,,
,,,,,,,,,,,,41195,2021-05-10_15h35.26.367,judgeSpeechMusic_20210407_logNormShiftAmp,2020.1.2,Win32,60,,,,,,,,,,,,,,1,9.728385,,0,1,43,193,47,1,stimuli/stim_20210407_power2amp/equal_lnn_AM2.4Hz_28.m4a,,,
,,,,,,,,,,,,41195,2021-05-10_15h35.26.367,judgeSpeechMusic_20210407_logNormShiftAmp,2020.1.2,Win32,60,,,,,,,,,,,,,,1,9.748275,,0,1,44,194,19,1,stimuli/stim_20210407_power2amp/equal_lnn_AM1.2Hz_52.m4a,,,
,,,,,,,,,,,,41195,2021-05-10_15h35.26.367,judgeSpeechMusic_20210407_logNormShiftAmp,2020.1.2,Win32,60,,,,,,,,,,,,,,1,6.96267,4,1,1,45,195,55,1,stimuli/stim_20210407_power2amp/equal_lnn_AM2.4Hz_66.m4a,2.044635,,
,,,,,,,,,,,,41195,2021-05-10_15h35.26.367,judgeSpeechMusic_20210407_logNormShiftAmp,2020.1.2,Win32,60,,,,,,,,,,,,,,2,5.867725,,0,1,46,196,8,1,stimuli/stim_20210407_power2amp/equal_lnn_AM0.6Hz_46.m4a,,,
,,,,,,,,,,,,41195,2021-05-10_15h35.26.367,judgeSpeechMusic_20210407_logNormShiftAmp,2020.1.2,Win32,60,,,,,,,,,,,,,,2,5.75688,,0,1,47,197,29,1,stimuli/stim_20210407_power2amp/equal_lnn_AM1.2Hz_66.m4a,,,
,,,,,,,,,,,,41195,2021-05-10_15h35.26.367,judgeSpeechMusic_20210407_logNormShiftAmp,2020.1.2,Win32,60,,,,,,,,,,,,,,1,6.980585,,0,1,48,198,87,1,stimuli/stim_20210407_power2amp/equal_lnn_AM3.6Hz_78.m4a,,,
,,,,,,,,,,,,41195,2021-05-10_15h35.26.367,judgeSpeechMusic_20210407_logNormShiftAmp,2020.1.2,Win32,60,,,,,,,,,,,,,,1,6.086315,,0,1,49,199,13,1,stimuli/stim_20210407_power2amp/equal_lnn_AM0.6Hz_16.m4a,,,
,,,,,,,,,,,,41195,2021-05-10_15h35.26.367,judgeSpeechMusic_20210407_logNormShiftAmp,2020.1.2,Win32,60,,,,,,,,,,,,,,1,7.04427,,0,1,50,200,109,1,stimuli/stim_20210407_power2amp/equal_lnn_AM4.8Hz_82.m4a,,,
,,,,,,,,,,,,41195,2021-05-10_15h35.26.367,judgeSpeechMusic_20210407_logNormShiftAmp,2020.1.2,Win32,60,,,,,,,,,,,,,,1,5.87265,,0,1,51,201,101,1,stimuli/stim_20210407_power2amp/equal_lnn_AM4.2Hz_48.m4a,,,
,,,,,,,,,,,,41195,2021-05-10_15h35.26.367,judgeSpeechMusic_20210407_logNormShiftAmp,2020.1.2,Win32,60,,,,,,,,,,,,,,1,6.65851,,0,1,52,202,9,1,stimuli/stim_20210407_power2amp/equal_lnn_AM0.6Hz_59.m4a,,,
,,,,,,,,,,,,41195,2021-05-10_15h35.26.367,judgeSpeechMusic_20210407_logNormShiftAmp,2020.1.2,Win32,60,,,,,,,,,,,,,,1,7.807505,,0,1,53,203,28,1,stimuli/stim_20210407_power2amp/equal_lnn_AM1.2Hz_15.m4a,,,
,,,,,,,,,,,,41195,2021-05-10_15h35.26.367,judgeSpeechMusic_20210407_logNormShiftAmp,2020.1.2,Win32,60,,,,,,,,,,,,,,1,6.48093,,0,1,54,204,93,1,stimuli/stim_20210407_power2amp/equal_lnn_AM4.2Hz_32.m4a,,,
,,,,,,,,,,,,41195,2021-05-10_15h35.26.367,judgeSpeechMusic_20210407_logNormShiftAmp,2020.1.2,Win32,60,,,,,,,,,,,,,,1,6.637375,,0,1,55,205,78,1,stimuli/stim_20210407_power2amp/equal_lnn_AM3.6Hz_75.m4a,,,
,,,,,,,,,,,,41195,2021-05-10_15h35.26.367,judgeSpeechMusic_20210407_logNormShiftAmp,2020.1.2,Win32,60,,,,,,,,,,,,,,2,6.52993,,0,1,56,206,15,1,stimuli/stim_20210407_power2amp/equal_lnn_AM1.2Hz_12.m4a,,,
,,,,,,,,,,,,41195,2021-05-10_15h35.26.367,judgeSpeechMusic_20210407_logNormShiftAmp,2020.1.2,Win32,60,,,,,,,,,,,,,,1,6.269105,,0,1,57,207,104,1,stimuli/stim_20210407_power2amp/equal_lnn_AM4.2Hz_53.m4a,,,
,,,,,,,,,,,,41195,2021-05-10_15h35.26.367,judgeSpeechMusic_20210407_logNormShiftAmp,2020.1.2,Win32,60,,,,,,,,,,,,,,1,6.68341,,0,1,58,208,126,1,stimuli/stim_20210407_power2amp/equal_lnn_AM5.4Hz_91.m4a,,,
,,,,,,,,,,,,41195,2021-05-10_15h35.26.367,judgeSpeechMusic_20210407_logNormShiftAmp,2020.1.2,Win32,60,,,,,,,,,,,,,,1,6.217785,,0,1,59,209,110,1,stimuli/stim_20210407_power2amp/equal_lnn_AM4.8Hz_16.m4a,,,
,,,,,,,,,,,,41195,2021-05-10_15h35.26.367,judgeSpeechMusic_20210407_logNormShiftAmp,2020.1.2,Win32,60,,,,,,,,,,,,,,1,6.022805,,0,1,60,210,95,1,stimuli/stim_20210407_power2amp/equal_lnn_AM4.2Hz_49.m4a,,,
,,,,,,,,,,,,41195,2021-05-10_15h35.26.367,judgeSpeechMusic_20210407_logNormShiftAmp,2020.1.2,Win32,60,,,,,,,,,,,,,,2,5.93695,,0,1,61,211,52,1,stimuli/stim_20210407_power2amp/equal_lnn_AM2.4Hz_54.m4a,,,
,,,,,,,,,,,,41195,2021-05-10_15h35.26.367,judgeSpeechMusic_20210407_logNormShiftAmp,2020.1.2,Win32,60,,,,,,,,,,,,,,1,6.146265,,0,1,62,212,72,1,stimuli/stim_20210407_power2amp/equal_lnn_AM3Hz_50.m4a,,,
,,,,,,,,,,,,41195,2021-05-10_15h35.26.367,judgeSpeechMusic_20210407_logNormShiftAmp,2020.1.2,Win32,60,,,,,,,,,,,,,,2,5.963485,,0,1,63,213,31,1,stimuli/stim_20210407_power2amp/equal_lnn_AM1.8Hz_83.m4a,,,
,,,,,,,,,,,,41195,2021-05-10_15h35.26.367,judgeSpeechMusic_20210407_logNormShiftAmp,2020.1.2,Win32,60,,,,,,,,,,,,,,1,6.81667,,0,1,64,214,20,1,stimuli/stim_20210407_power2amp/equal_lnn_AM1.2Hz_92.m4a,,,
,,,,,,,,,,,,41195,2021-05-10_15h35.26.367,judgeSpeechMusic_20210407_logNormShiftAmp,2020.1.2,Win32,60,,,,,,,,,,,,,,1,5.893875,,0,1,65,215,49,1,stimuli/stim_20210407_power2amp/equal_lnn_AM2.4Hz_70.m4a,,,
,,,,,,,,,,,,41195,2021-05-10_15h35.26.367,judgeSpeechMusic_20210407_logNormShiftAmp,2020.1.2,Win32,60,,,,,,,,,,,,,,1,5.97448,,0,1,66,216,61,1,stimuli/stim_20210407_power2amp/equal_lnn_AM3Hz_70.m4a,,,
,,,,,,,,,,,,41195,2021-05-10_15h35.26.367,judgeSpeechMusic_20210407_logNormShiftAmp,2020.1.2,Win32,60,,,,,,,,,,,,,,1,7.02479,,0,1,67,217,129,1,stimuli/stim_20210407_power2amp/equal_lnn_AM5.4Hz_55.m4a,,,
,,,,,,,,,,,,41195,2021-05-10_15h35.26.367,judgeSpeechMusic_20210407_logNormShiftAmp,2020.1.2,Win32,60,,,,,,,,,,,,,,2,6.18375,2,1,1,68,218,122,1,stimuli/stim_20210407_power2amp/equal_lnn_AM5.4Hz_69.m4a,0.417625,,
,,,,,,,,,,,,41195,2021-05-10_15h35.26.367,judgeSpeechMusic_20210407_logNormShiftAmp,2020.1.2,Win32,60,,,,,,,,,,,,,,1,7.546805,,0,1,69,219,44,1,stimuli/stim_20210407_power2amp/equal_lnn_AM1.8Hz_62.m4a,,,
,,,,,,,,,,,,41195,2021-05-10_15h35.26.367,judgeSpeechMusic_20210407_logNormShiftAmp,2020.1.2,Win32,60,,,,,,,,,,,,,,1,11.14245,,0,1,70,220,146,1,stimuli/stim_20210407_power2amp/equal_lnn_AM6Hz_59.m4a,,,
,,,,,,,,,,,,41195,2021-05-10_15h35.26.367,judgeSpeechMusic_20210407_logNormShiftAmp,2020.1.2,Win32,60,,,,,,,,,,,,,,1,6.27468,,0,1,71,221,84,1,stimuli/stim_20210407_power2amp/equal_lnn_AM3.6Hz_42.m4a,,,
,,,,,,,,,,,,41195,2021-05-10_15h35.26.367,judgeSpeechMusic_20210407_logNormShiftAmp,2020.1.2,Win32,60,,,,,,,,,,,,,,2,5.8332,,0,1,72,222,91,1,stimuli/stim_20210407_power2amp/equal_lnn_AM4.2Hz_84.m4a,,,
,,,,,,,,,,,,41195,2021-05-10_15h35.26.367,judgeSpeechMusic_20210407_logNormShiftAmp,2020.1.2,Win32,60,,,,,,,,,,,,,,1,5.70265,,0,1,73,223,32,1,stimuli/stim_20210407_power2amp/equal_lnn_AM1.8Hz_86.m4a,,,
,,,,,,,,,,,,41195,2021-05-10_15h35.26.367,judgeSpeechMusic_20210407_logNormShiftAmp,2020.1.2,Win32,60,,,,,,,,,,,,,,1,6.46345,,0,1,74,224,108,1,stimuli/stim_20210407_power2amp/equal_lnn_AM4.8Hz_28.m4a,,,
,,,,,,,,,,,,41195,2021-05-10_15h35.26.367,judgeSpeechMusic_20210407_logNormShiftAmp,2020.1.2,Win32,60,,,,,,,,,,,,,,2,6.06406,,0,1,75,225,22,1,stimuli/stim_20210407_power2amp/equal_lnn_AM1.2Hz_2.m4a,,,
,,,,,,,,,,,,41195,2021-05-10_15h35.26.367,judgeSpeechMusic_20210407_logNormShiftAmp,2020.1.2,Win32,60,,,,,,,,,,,,,,1,6.199935,,0,1,76,226,33,1,stimuli/stim_20210407_power2amp/equal_lnn_AM1.8Hz_52.m4a,,,
,,,,,,,,,,,,41195,2021-05-10_15h35.26.367,judgeSpeechMusic_20210407_logNormShiftAmp,2020.1.2,Win32,60,,,,,,,,,,,,,,1,6.256915,,0,1,77,227,100,1,stimuli/stim_20210407_power2amp/equal_lnn_AM4.2Hz_46.m4a,,,
,,,,,,,,,,,,41195,2021-05-10_15h35.26.367,judgeSpeechMusic_20210407_logNormShiftAmp,2020.1.2,Win32,60,,,,,,,,,,,,,,2,5.957195,,0,1,78,228,43,1,stimuli/stim_20210407_power2amp/equal_lnn_AM1.8Hz_1.m4a,,,
,,,,,,,,,,,,41195,2021-05-10_15h35.26.367,judgeSpeechMusic_20210407_logNormShiftAmp,2020.1.2,Win32,60,,,,,,,,,,,,,,1,7.00407,,0,1,79,229,128,1,stimuli/stim_20210407_power2amp/equal_lnn_AM5.4Hz_52.m4a,,,
,,,,,,,,,,,,41195,2021-05-10_15h35.26.367,judgeSpeechMusic_20210407_logNormShiftAmp,2020.1.2,Win32,60,,,,,,,,,,,,,,1,6.331585,,0,1,80,230,86,1,stimuli/stim_20210407_power2amp/equal_lnn_AM3.6Hz_80.m4a,,,
,,,,,,,,,,,,41195,2021-05-10_15h35.26.367,judgeSpeechMusic_20210407_logNormShiftAmp,2020.1.2,Win32,60,,,,,,,,,,,,,,1,6.01471,,0,1,81,231,53,1,stimuli/stim_20210407_power2amp/equal_lnn_AM2.4Hz_64.m4a,,,
,,,,,,,,,,,,41195,2021-05-10_15h35.26.367,judgeSpeechMusic_20210407_logNormShiftAmp,2020.1.2,Win32,60,,,,,,,,,,,,,,1,6.69362,,0,1,82,232,105,1,stimuli/stim_20210407_power2amp/equal_lnn_AM4.8Hz_51.m4a,,,
,,,,,,,,,,,,41195,2021-05-10_15h35.26.367,judgeSpeechMusic_20210407_logNormShiftAmp,2020.1.2,Win32,60,,,,,,,,,,,,,,1,6.727175,,0,1,83,233,139,1,stimuli/stim_20210407_power2amp/equal_lnn_AM6Hz_33.m4a,,,
,,,,,,,,,,,,41195,2021-05-10_15h35.26.367,judgeSpeechMusic_20210407_logNormShiftAmp,2020.1.2,Win32,60,,,,,,,,,,,,,,2,8.91042,,0,1,84,234,30,1,stimuli/stim_20210407_power2amp/equal_lnn_AM1.8Hz_98.m4a,,,
,,,,,,,,,,,,41195,2021-05-10_15h35.26.367,judgeSpeechMusic_20210407_logNormShiftAmp,2020.1.2,Win32,60,,,,,,,,,,,,,,1,8.621095,,0,1,85,235,27,1,stimuli/stim_20210407_power2amp/equal_lnn_AM1.2Hz_44.m4a,,,
,,,,,,,,,,,,41195,2021-05-10_15h35.26.367,judgeSpeechMusic_20210407_logNormShiftAmp,2020.1.2,Win32,60,,,,,,,,,,,,,,1,6.11451,,0,1,86,236,130,1,stimuli/stim_20210407_power2amp/equal_lnn_AM5.4Hz_63.m4a,,,
,,,,,,,,,,,,41195,2021-05-10_15h35.26.367,judgeSpeechMusic_20210407_logNormShiftAmp,2020.1.2,Win32,60,,,,,,,,,,,,,,1,8.587175,,0,1,87,237,12,1,stimuli/stim_20210407_power2amp/equal_lnn_AM0.6Hz_54.m4a,,,
,,,,,,,,,,,,41195,2021-05-10_15h35.26.367,judgeSpeechMusic_20210407_logNormShiftAmp,2020.1.2,Win32,60,,,,,,,,,,,,,,1,6.06886,,0,1,88,238,119,1,stimuli/stim_20210407_power2amp/equal_lnn_AM4.8Hz_68.m4a,,,
,,,,,,,,,,,,41195,2021-05-10_15h35.26.367,judgeSpeechMusic_20210407_logNormShiftAmp,2020.1.2,Win32,60,,,,,,,,,,,,,,1,6.79274,,0,1,89,239,147,1,stimuli/stim_20210407_power2amp/equal_lnn_AM6Hz_5.m4a,,,
,,,,,,,,,,,,41195,2021-05-10_15h35.26.367,judgeSpeechMusic_20210407_logNormShiftAmp,2020.1.2,Win32,60,,,,,,,,,,,,,,2,6.474135,3,1,1,90,240,74,1,stimuli/stim_20210407_power2amp/equal_lnn_AM3Hz_31.m4a,0.453555,,
,,,,,,,,,,,,41195,2021-05-10_15h35.26.367,judgeSpeechMusic_20210407_logNormShiftAmp,2020.1.2,Win32,60,,,,,,,,,,,,,,1,6.791255,,0,1,91,241,46,1,stimuli/stim_20210407_power2amp/equal_lnn_AM2.4Hz_84.m4a,,,
,,,,,,,,,,,,41195,2021-05-10_15h35.26.367,judgeSpeechMusic_20210407_logNormShiftAmp,2020.1.2,Win32,60,,,,,,,,,,,,,,2,6.214375,,0,1,92,242,37,1,stimuli/stim_20210407_power2amp/equal_lnn_AM1.8Hz_13.m4a,,,
,,,,,,,,,,,,41195,2021-05-10_15h35.26.367,judgeSpeechMusic_20210407_logNormShiftAmp,2020.1.2,Win32,60,,,,,,,,,,,,,,1,7.803785,,0,1,93,243,133,1,stimuli/stim_20210407_power2amp/equal_lnn_AM5.4Hz_90.m4a,,,
,,,,,,,,,,,,41195,2021-05-10_15h35.26.367,judgeSpeechMusic_20210407_logNormShiftAmp,2020.1.2,Win32,60,,,,,,,,,,,,,,1,8.091265,,0,1,94,244,142,1,stimuli/stim_20210407_power2amp/equal_lnn_AM6Hz_65.m4a,,,
,,,,,,,,,,,,41195,2021-05-10_15h35.26.367,judgeSpeechMusic_20210407_logNormShiftAmp,2020.1.2,Win32,60,,,,,,,,,,,,,,1,10.34152,,0,1,95,245,0,1,stimuli/stim_20210407_power2amp/equal_lnn_AM0.6Hz_11.m4a,,,
,,,,,,,,,,,,41195,2021-05-10_15h35.26.367,judgeSpeechMusic_20210407_logNormShiftAmp,2020.1.2,Win32,60,,,,,,,,,,,,,,1,7.23741,,0,1,96,246,118,1,stimuli/stim_20210407_power2amp/equal_lnn_AM4.8Hz_17.m4a,,,
,,,,,,,,,,,,41195,2021-05-10_15h35.26.367,judgeSpeechMusic_20210407_logNormShiftAmp,2020.1.2,Win32,60,,,,,,,,,,,,,,2,8.271865,,0,1,97,247,143,1,stimuli/stim_20210407_power2amp/equal_lnn_AM6Hz_39.m4a,,,
,,,,,,,,,,,,41195,2021-05-10_15h35.26.367,judgeSpeechMusic_20210407_logNormShiftAmp,2020.1.2,Win32,60,,,,,,,,,,,,,,1,6.83258,,0,1,98,248,68,1,stimuli/stim_20210407_power2amp/equal_lnn_AM3Hz_89.m4a,,,
,,,,,,,,,,,,41195,2021-05-10_15h35.26.367,judgeSpeechMusic_20210407_logNormShiftAmp,2020.1.2,Win32,60,,,,,,,,,,,,,,2,6.69368,,0,1,99,249,96,1,stimuli/stim_20210407_power2amp/equal_lnn_AM4.2Hz_30.m4a,,,
,,,,,,,,,,,,41195,2021-05-10_15h35.26.367,judgeSpeechMusic_20210407_logNormShiftAmp,2020.1.2,Win32,60,,,,,,,,,,,,,,1,6.193795,,0,1,100,250,16,1,stimuli/stim_20210407_power2amp/equal_lnn_AM1.2Hz_4.m4a,,,
,,,,,,,,,,,,41195,2021-05-10_15h35.26.367,judgeSpeechMusic_20210407_logNormShiftAmp,2020.1.2,Win32,60,,,,,,,,,,,,,,1,5.99717,,0,1,101,251,131,1,stimuli/stim_20210407_power2amp/equal_lnn_AM5.4Hz_44.m4a,,,
,,,,,,,,,,,,41195,2021-05-10_15h35.26.367,judgeSpeechMusic_20210407_logNormShiftAmp,2020.1.2,Win32,60,,,,,,,,,,,,,,2,5.91695,,0,1,102,252,124,1,stimuli/stim_20210407_power2amp/equal_lnn_AM5.4Hz_97.m4a,,,
,,,,,,,,,,,,41195,2021-05-10_15h35.26.367,judgeSpeechMusic_20210407_logNormShiftAmp,2020.1.2,Win32,60,,,,,,,,,,,,,,1,6.144085,,0,1,103,253,23,1,stimuli/stim_20210407_power2amp/equal_lnn_AM1.2Hz_78.m4a,,,
,,,,,,,,,,,,41195,2021-05-10_15h35.26.367,judgeSpeechMusic_20210407_logNormShiftAmp,2020.1.2,Win32,60,,,,,,,,,,,,,,1,5.869725,,0,1,104,254,113,1,stimuli/stim_20210407_power2amp/equal_lnn_AM4.8Hz_69.m4a,,,
,,,,,,,,,,,,41195,2021-05-10_15h35.26.367,judgeSpeechMusic_20210407_logNormShiftAmp,2020.1.2,Win32,60,,,,,,,,,,,,,,2,6.596835,,0,1,105,255,88,1,stimuli/stim_20210407_power2amp/equal_lnn_AM3.6Hz_96.m4a,,,
,,,,,,,,,,,,41195,2021-05-10_15h35.26.367,judgeSpeechMusic_20210407_logNormShiftAmp,2020.1.2,Win32,60,,,,,,,,,,,,,,1,5.866915,,0,1,106,256,132,1,stimuli/stim_20210407_power2amp/equal_lnn_AM5.4Hz_4.m4a,,,
,,,,,,,,,,,,41195,2021-05-10_15h35.26.367,judgeSpeechMusic_20210407_logNormShiftAmp,2020.1.2,Win32,60,,,,,,,,,,,,,,1,5.9443,,0,1,107,257,50,1,stimuli/stim_20210407_power2amp/equal_lnn_AM2.4Hz_89.m4a,,,
,,,,,,,,,,,,41195,2021-05-10_15h35.26.367,judgeSpeechMusic_20210407_logNormShiftAmp,2020.1.2,Win32,60,,,,,,,,,,,,,,1,7.457585,,0,1,108,258,26,1,stimuli/stim_20210407_power2amp/equal_lnn_AM1.2Hz_54.m4a,,,
,,,,,,,,,,,,41195,2021-05-10_15h35.26.367,judgeSpeechMusic_20210407_logNormShiftAmp,2020.1.2,Win32,60,,,,,,,,,,,,,,1,6.931805,,0,1,109,259,140,1,stimuli/stim_20210407_power2amp/equal_lnn_AM6Hz_93.m4a,,,
,,,,,,,,,,,,41195,2021-05-10_15h35.26.367,judgeSpeechMusic_20210407_logNormShiftAmp,2020.1.2,Win32,60,,,,,,,,,,,,,,1,7.16557,,0,1,110,260,10,1,stimuli/stim_20210407_power2amp/equal_lnn_AM0.6Hz_80.m4a,,,
,,,,,,,,,,,,41195,2021-05-10_15h35.26.367,judgeSpeechMusic_20210407_logNormShiftAmp,2020.1.2,Win32,60,,,,,,,,,,,,,,1,8.359675,,0,1,111,261,2,1,stimuli/stim_20210407_power2amp/equal_lnn_AM0.6Hz_40.m4a,,,
,,,,,,,,,,,,41195,2021-05-10_15h35.26.367,judgeSpeechMusic_20210407_logNormShiftAmp,2020.1.2,Win32,60,,,,,,,,,,,,,,1,6.30043,2,1,1,112,262,25,1,stimuli/stim_20210407_power2amp/equal_lnn_AM1.2Hz_56.m4a,0.75595,,
,,,,,,,,,,,,41195,2021-05-10_15h35.26.367,judgeSpeechMusic_20210407_logNormShiftAmp,2020.1.2,Win32,60,,,,,,,,,,,,,,2,6.839915,,0,1,113,263,64,1,stimuli/stim_20210407_power2amp/equal_lnn_AM3Hz_97.m4a,,,
,,,,,,,,,,,,41195,2021-05-10_15h35.26.367,judgeSpeechMusic_20210407_logNormShiftAmp,2020.1.2,Win32,60,,,,,,,,,,,,,,1,6.236155,,0,1,114,264,58,1,stimuli/stim_20210407_power2amp/equal_lnn_AM2.4Hz_18.m4a,,,
,,,,,,,,,,,,41195,2021-05-10_15h35.26.367,judgeSpeechMusic_20210407_logNormShiftAmp,2020.1.2,Win32,60,,,,,,,,,,,,,,2,6.27397,,0,1,115,265,77,1,stimuli/stim_20210407_power2amp/equal_lnn_AM3.6Hz_1.m4a,,,
,,,,,,,,,,,,41195,2021-05-10_15h35.26.367,judgeSpeechMusic_20210407_logNormShiftAmp,2020.1.2,Win32,60,,,,,,,,,,,,,,2,6.721175,,0,1,116,266,141,1,stimuli/stim_20210407_power2amp/equal_lnn_AM6Hz_42.m4a,,,
,,,,,,,,,,,,41195,2021-05-10_15h35.26.367,judgeSpeechMusic_20210407_logNormShiftAmp,2020.1.2,Win32,60,,,,,,,,,,,,,,1,6.242655,,0,1,117,267,83,1,stimuli/stim_20210407_power2amp/equal_lnn_AM3.6Hz_20.m4a,,,
,,,,,,,,,,,,41195,2021-05-10_15h35.26.367,judgeSpeechMusic_20210407_logNormShiftAmp,2020.1.2,Win32,60,,,,,,,,,,,,,,2,5.861725,,0,1,118,268,76,1,stimuli/stim_20210407_power2amp/equal_lnn_AM3.6Hz_91.m4a,,,
,,,,,,,,,,,,41195,2021-05-10_15h35.26.367,judgeSpeechMusic_20210407_logNormShiftAmp,2020.1.2,Win32,60,,,,,,,,,,,,,,1,6.013335,,0,1,119,269,59,1,stimuli/stim_20210407_power2amp/equal_lnn_AM2.4Hz_99.m4a,,,
,,,,,,,,,,,,41195,2021-05-10_15h35.26.367,judgeSpeechMusic_20210407_logNormShiftAmp,2020.1.2,Win32,60,,,,,,,,,,,,,,1,5.985855,,0,1,120,270,17,1,stimuli/stim_20210407_power2amp/equal_lnn_AM1.2Hz_59.m4a,,,
,,,,,,,,,,,,41195,2021-05-10_15h35.26.367,judgeSpeechMusic_20210407_logNormShiftAmp,2020.1.2,Win32,60,,,,,,,,,,,,,,2,6.039455,,0,1,121,271,35,1,stimuli/stim_20210407_power2amp/equal_lnn_AM1.8Hz_56.m4a,,,
,,,,,,,,,,,,41195,2021-05-10_15h35.26.367,judgeSpeechMusic_20210407_logNormShiftAmp,2020.1.2,Win32,60,,,,,,,,,,,,,,2,6.0605,,0,1,122,272,45,1,stimuli/stim_20210407_power2amp/equal_lnn_AM2.4Hz_42.m4a,,,
,,,,,,,,,,,,41195,2021-05-10_15h35.26.367,judgeSpeechMusic_20210407_logNormShiftAmp,2020.1.2,Win32,60,,,,,,,,,,,,,,1,5.995115,,0,1,123,273,82,1,stimuli/stim_20210407_power2amp/equal_lnn_AM3.6Hz_32.m4a,,,
,,,,,,,,,,,,41195,2021-05-10_15h35.26.367,judgeSpeechMusic_20210407_logNormShiftAmp,2020.1.2,Win32,60,,,,,,,,,,,,,,1,6.7022,,0,1,124,274,81,1,stimuli/stim_20210407_power2amp/equal_lnn_AM3.6Hz_16.m4a,,,
,,,,,,,,,,,,41195,2021-05-10_15h35.26.367,judgeSpeechMusic_20210407_logNormShiftAmp,2020.1.2,Win32,60,,,,,,,,,,,,,,1,5.973495,,0,1,125,275,145,1,stimuli/stim_20210407_power2amp/equal_lnn_AM6Hz_98.m4a,,,
,,,,,,,,,,,,41195,2021-05-10_15h35.26.367,judgeSpeechMusic_20210407_logNormShiftAmp,2020.1.2,Win32,60,,,,,,,,,,,,,,1,6.01786,,0,1,126,276,1,1,stimuli/stim_20210407_power2amp/equal_lnn_AM0.6Hz_38.m4a,,,
,,,,,,,,,,,,41195,2021-05-10_15h35.26.367,judgeSpeechMusic_20210407_logNormShiftAmp,2020.1.2,Win32,60,,,,,,,,,,,,,,2,9.43508,,0,1,127,277,90,1,stimuli/stim_20210407_power2amp/equal_lnn_AM4.2Hz_3.m4a,,,
,,,,,,,,,,,,41195,2021-05-10_15h35.26.367,judgeSpeechMusic_20210407_logNormShiftAmp,2020.1.2,Win32,60,,,,,,,,,,,,,,1,11.585975,,0,1,128,278,24,1,stimuli/stim_20210407_power2amp/equal_lnn_AM1.2Hz_10.m4a,,,
,,,,,,,,,,,,41195,2021-05-10_15h35.26.367,judgeSpeechMusic_20210407_logNormShiftAmp,2020.1.2,Win32,60,,,,,,,,,,,,,,2,11.46951,,0,1,129,279,39,1,stimuli/stim_20210407_power2amp/equal_lnn_AM1.8Hz_95.m4a,,,
,,,,,,,,,,,,41195,2021-05-10_15h35.26.367,judgeSpeechMusic_20210407_logNormShiftAmp,2020.1.2,Win32,60,,,,,,,,,,,,,,1,12.00862,,0,1,130,280,138,1,stimuli/stim_20210407_power2amp/equal_lnn_AM6Hz_23.m4a,,,
,,,,,,,,,,,,41195,2021-05-10_15h35.26.367,judgeSpeechMusic_20210407_logNormShiftAmp,2020.1.2,Win32,60,,,,,,,,,,,,,,1,8.77523,,0,1,131,281,127,1,stimuli/stim_20210407_power2amp/equal_lnn_AM5.4Hz_19.m4a,,,
,,,,,,,,,,,,41195,2021-05-10_15h35.26.367,judgeSpeechMusic_20210407_logNormShiftAmp,2020.1.2,Win32,60,,,,,,,,,,,,,,1,32.749325,,0,1,132,282,69,1,stimuli/stim_20210407_power2amp/equal_lnn_AM3Hz_23.m4a,,,
,,,,,,,,,,,,41195,2021-05-10_15h35.26.367,judgeSpeechMusic_20210407_logNormShiftAmp,2020.1.2,Win32,60,,,,,,,,,,,,,,2,9.67223,4,1,1,133,283,14,1,stimuli/stim_20210407_power2amp/equal_lnn_AM0.6Hz_64.m4a,1.310855,,
,,,,,,,,,,,,41195,2021-05-10_15h35.26.367,judgeSpeechMusic_20210407_logNormShiftAmp,2020.1.2,Win32,60,,,,,,,,,,,,,,2,12.1005,,0,1,134,284,89,1,stimuli/stim_20210407_power2amp/equal_lnn_AM3.6Hz_89.m4a,,,
,,,,,,,,,,,,41195,2021-05-10_15h35.26.367,judgeSpeechMusic_20210407_logNormShiftAmp,2020.1.2,Win32,60,,,,,,,,,,,,,,1,18.3991,,0,1,135,285,54,1,stimuli/stim_20210407_power2amp/equal_lnn_AM2.4Hz_52.m4a,,,
,,,,,,,,,,,,41195,2021-05-10_15h35.26.367,judgeSpeechMusic_20210407_logNormShiftAmp,2020.1.2,Win32,60,,,,,,,,,,,,,,1,6.379505,,0,1,136,286,117,1,stimuli/stim_20210407_power2amp/equal_lnn_AM4.8Hz_85.m4a,,,
,,,,,,,,,,,,41195,2021-05-10_15h35.26.367,judgeSpeechMusic_20210407_logNormShiftAmp,2020.1.2,Win32,60,,,,,,,,,,,,,,2,7.640745,,0,1,137,287,75,1,stimuli/stim_20210407_power2amp/equal_lnn_AM3.6Hz_60.m4a,,,
,,,,,,,,,,,,41195,2021-05-10_15h35.26.367,judgeSpeechMusic_20210407_logNormShiftAmp,2020.1.2,Win32,60,,,,,,,,,,,,,,1,8.28418,,0,1,138,288,144,1,stimuli/stim_20210407_power2amp/equal_lnn_AM6Hz_9.m4a,,,
,,,,,,,,,,,,41195,2021-05-10_15h35.26.367,judgeSpeechMusic_20210407_logNormShiftAmp,2020.1.2,Win32,60,,,,,,,,,,,,,,2,6.080945,,0,1,139,289,106,1,stimuli/stim_20210407_power2amp/equal_lnn_AM4.8Hz_64.m4a,,,
,,,,,,,,,,,,41195,2021-05-10_15h35.26.367,judgeSpeechMusic_20210407_logNormShiftAmp,2020.1.2,Win32,60,,,,,,,,,,,,,,1,6.316305,,0,1,140,290,116,1,stimuli/stim_20210407_power2amp/equal_lnn_AM4.8Hz_72.m4a,,,
,,,,,,,,,,,,41195,2021-05-10_15h35.26.367,judgeSpeechMusic_20210407_logNormShiftAmp,2020.1.2,Win32,60,,,,,,,,,,,,,,2,5.95972,,0,1,141,291,70,1,stimuli/stim_20210407_power2amp/equal_lnn_AM3Hz_79.m4a,,,
,,,,,,,,,,,,41195,2021-05-10_15h35.26.367,judgeSpeechMusic_20210407_logNormShiftAmp,2020.1.2,Win32,60,,,,,,,,,,,,,,1,6.201985,,0,1,142,292,4,1,stimuli/stim_20210407_power2amp/equal_lnn_AM0.6Hz_61.m4a,,,
,,,,,,,,,,,,41195,2021-05-10_15h35.26.367,judgeSpeechMusic_20210407_logNormShiftAmp,2020.1.2,Win32,60,,,,,,,,,,,,,,2,6.048755,,0,1,143,293,79,1,stimuli/stim_20210407_power2amp/equal_lnn_AM3.6Hz_44.m4a,,,
,,,,,,,,,,,,41195,2021-05-10_15h35.26.367,judgeSpeechMusic_20210407_logNormShiftAmp,2020.1.2,Win32,60,,,,,,,,,,,,,,1,6.618775,,0,1,144,294,135,1,stimuli/stim_20210407_power2amp/equal_lnn_AM6Hz_64.m4a,,,
,,,,,,,,,,,,41195,2021-05-10_15h35.26.367,judgeSpeechMusic_20210407_logNormShiftAmp,2020.1.2,Win32,60,,,,,,,,,,,,,,1,5.93565,,0,1,145,295,11,1,stimuli/stim_20210407_power2amp/equal_lnn_AM0.6Hz_25.m4a,,,
,,,,,,,,,,,,41195,2021-05-10_15h35.26.367,judgeSpeechMusic_20210407_logNormShiftAmp,2020.1.2,Win32,60,,,,,,,,,,,,,,2,6.167145,,0,1,146,296,123,1,stimuli/stim_20210407_power2amp/equal_lnn_AM5.4Hz_46.m4a,,,
,,,,,,,,,,,,41195,2021-05-10_15h35.26.367,judgeSpeechMusic_20210407_logNormShiftAmp,2020.1.2,Win32,60,,,,,,,,,,,,,,2,7.846455,,0,1,147,297,57,1,stimuli/stim_20210407_power2amp/equal_lnn_AM2.4Hz_21.m4a,,,
,,,,,,,,,,,,41195,2021-05-10_15h35.26.367,judgeSpeechMusic_20210407_logNormShiftAmp,2020.1.2,Win32,60,,,,,,,,,,,,,,2,10.121215,,0,1,148,298,36,1,stimuli/stim_20210407_power2amp/equal_lnn_AM1.8Hz_5.m4a,,,
,,,,,,,,,,,,41195,2021-05-10_15h35.26.367,judgeSpeechMusic_20210407_logNormShiftAmp,2020.1.2,Win32,60,,,,,,,,,,,,,,1,9.416815,,0,1,149,299,60,1,stimuli/stim_20210407_power2amp/equal_lnn_AM3Hz_5.m4a,,,
,,,,,,,,,,,,41195,2021-05-10_15h35.26.367,judgeSpeechMusic_20210407_logNormShiftAmp,2020.1.2,Win32,60,,,,,,,,,,,,,,,,,,,,,,,,,space,3.607595
