headphoneResponse.keys,headphoneResponse.corr,headphoneResponse.rt,headphoneTrial.thisRepN,headphoneTrial.thisTrialN,headphoneTrial.thisN,headphoneTrial.thisIndex,headphoneTrial.ran,headphone_sound1,headphone_sound2,headphone_sound3,corrAns,participant,date,expName,psychopyVersion,OS,frameRate,trainSlider.response,trainSlider.rt,beepTrainResponse.keys,beepTrainResponse.corr,trainingTrials.thisRepN,trainingTrials.thisTrialN,trainingTrials.thisN,trainingTrials.thisIndex,trainingTrials.ran,trainAudioFile,beepTrainResponse.rt,readyReal_resp.keys,readyReal_resp.rt,ratingSlider.response,ratingSlider.rt,beepResp.keys,beepResp.corr,expTrials.thisRepN,expTrials.thisTrialN,expTrials.thisN,expTrials.thisIndex,expTrials.ran,audioFile,beepResp.rt,end_resp.keys,end_resp.rt
3,0,1.35015,0,0,0,4,1,stimuli/screen_quiet.wav,stimuli/screen_antiphase.wav,stimuli/screen_origin.wav,1,41208,2021-05-10_16h16.04.414,judgeSpeechMusic_20210407_logNormShiftAmp,2020.1.2,MacIntel,60,,,,,,,,,,,,,,,,,,,,,,,,,,
3,1,1.20896,0,1,1,2,1,stimuli/screen_origin.wav,stimuli/screen_antiphase.wav,stimuli/screen_quiet.wav,3,41208,2021-05-10_16h16.04.414,judgeSpeechMusic_20210407_logNormShiftAmp,2020.1.2,MacIntel,60,,,,,,,,,,,,,,,,,,,,,,,,,,
1,1,0.482865,0,2,2,5,1,stimuli/screen_quiet.wav,stimuli/screen_origin.wav,stimuli/screen_antiphase.wav,1,41208,2021-05-10_16h16.04.414,judgeSpeechMusic_20210407_logNormShiftAmp,2020.1.2,MacIntel,60,,,,,,,,,,,,,,,,,,,,,,,,,,
3,1,0.88475,0,3,3,0,1,stimuli/screen_antiphase.wav,stimuli/screen_origin.wav,stimuli/screen_quiet.wav,3,41208,2021-05-10_16h16.04.414,judgeSpeechMusic_20210407_logNormShiftAmp,2020.1.2,MacIntel,60,,,,,,,,,,,,,,,,,,,,,,,,,,
2,1,0.805355,0,4,4,1,1,stimuli/screen_antiphase.wav,stimuli/screen_quiet.wav,stimuli/screen_origin.wav,2,41208,2021-05-10_16h16.04.414,judgeSpeechMusic_20210407_logNormShiftAmp,2020.1.2,MacIntel,60,,,,,,,,,,,,,,,,,,,,,,,,,,
2,1,0.6106,0,5,5,3,1,stimuli/screen_origin.wav,stimuli/screen_quiet.wav,stimuli/screen_antiphase.wav,2,41208,2021-05-10_16h16.04.414,judgeSpeechMusic_20210407_logNormShiftAmp,2020.1.2,MacIntel,60,,,,,,,,,,,,,,,,,,,,,,,,,,
,,,,,,,,,,,,41208,2021-05-10_16h16.04.414,judgeSpeechMusic_20210407_logNormShiftAmp,2020.1.2,MacIntel,60,2,18.637185,,0,0,0,0,3,1,stimuli/stim_20210407_power2amp/equal_lnn_AM_training5.1Hz.m4a,,,,,,,,,,,,,,,,
,,,,,,,,,,,,41208,2021-05-10_16h16.04.414,judgeSpeechMusic_20210407_logNormShiftAmp,2020.1.2,MacIntel,60,1,11.587005,,0,0,1,1,1,1,stimuli/stim_20210407_power2amp/equal_lnn_AM_training2.7Hz.m4a,,,,,,,,,,,,,,,,
,,,,,,,,,,,,41208,2021-05-10_16h16.04.414,judgeSpeechMusic_20210407_logNormShiftAmp,2020.1.2,MacIntel,60,1,11.309585,4,1,0,2,2,2,1,stimuli/stim_20210407_power2amp/equal_lnn_AM_training3.9Hz.m4a,3.887415,,,,,,,,,,,,,,,
,,,,,,,,,,,,41208,2021-05-10_16h16.04.414,judgeSpeechMusic_20210407_logNormShiftAmp,2020.1.2,MacIntel,60,2,6.96055,,0,0,3,3,0,1,stimuli/stim_20210407_power2amp/equal_lnn_AM_training1.5Hz.m4a,,,,,,,,,,,,,,,,
,,,,,,,,,,,,41208,2021-05-10_16h16.04.414,judgeSpeechMusic_20210407_logNormShiftAmp,2020.1.2,MacIntel,60,,,,,,,,,,,,space,7.8208,2,42.803595,,0,0,0,0,149,1,stimuli/stim_20210407_power2amp/equal_lnn_AM6Hz_17.m4a,,,
,,,,,,,,,,,,41208,2021-05-10_16h16.04.414,judgeSpeechMusic_20210407_logNormShiftAmp,2020.1.2,MacIntel,60,,,,,,,,,,,,,,1,13.60478,,0,0,1,1,77,1,stimuli/stim_20210407_power2amp/equal_lnn_AM3.6Hz_95.m4a,,,
,,,,,,,,,,,,41208,2021-05-10_16h16.04.414,judgeSpeechMusic_20210407_logNormShiftAmp,2020.1.2,MacIntel,60,,,,,,,,,,,,,,1,6.136385,,0,0,2,2,31,1,stimuli/stim_20210407_power2amp/equal_lnn_AM1.8Hz_67.m4a,,,
,,,,,,,,,,,,41208,2021-05-10_16h16.04.414,judgeSpeechMusic_20210407_logNormShiftAmp,2020.1.2,MacIntel,60,,,,,,,,,,,,,,2,6.636885,,0,0,3,3,136,1,stimuli/stim_20210407_power2amp/equal_lnn_AM6Hz_35.m4a,,,
,,,,,,,,,,,,41208,2021-05-10_16h16.04.414,judgeSpeechMusic_20210407_logNormShiftAmp,2020.1.2,MacIntel,60,,,,,,,,,,,,,,2,5.85315,,0,0,4,4,145,1,stimuli/stim_20210407_power2amp/equal_lnn_AM6Hz_2.m4a,,,
,,,,,,,,,,,,41208,2021-05-10_16h16.04.414,judgeSpeechMusic_20210407_logNormShiftAmp,2020.1.2,MacIntel,60,,,,,,,,,,,,,,1,6.9439,,0,0,5,5,15,1,stimuli/stim_20210407_power2amp/equal_lnn_AM1.2Hz_87.m4a,,,
,,,,,,,,,,,,41208,2021-05-10_16h16.04.414,judgeSpeechMusic_20210407_logNormShiftAmp,2020.1.2,MacIntel,60,,,,,,,,,,,,,,2,6.90406,,0,0,6,6,63,1,stimuli/stim_20210407_power2amp/equal_lnn_AM3Hz_90.m4a,,,
,,,,,,,,,,,,41208,2021-05-10_16h16.04.414,judgeSpeechMusic_20210407_logNormShiftAmp,2020.1.2,MacIntel,60,,,,,,,,,,,,,,1,6.585875,,0,0,7,7,4,1,stimuli/stim_20210407_power2amp/equal_lnn_AM0.6Hz_21.m4a,,,
,,,,,,,,,,,,41208,2021-05-10_16h16.04.414,judgeSpeechMusic_20210407_logNormShiftAmp,2020.1.2,MacIntel,60,,,,,,,,,,,,,,2,7.75804,,0,0,8,8,140,1,stimuli/stim_20210407_power2amp/equal_lnn_AM6Hz_63.m4a,,,
,,,,,,,,,,,,41208,2021-05-10_16h16.04.414,judgeSpeechMusic_20210407_logNormShiftAmp,2020.1.2,MacIntel,60,,,,,,,,,,,,,,1,19.642425,,0,0,9,9,139,1,stimuli/stim_20210407_power2amp/equal_lnn_AM6Hz_13.m4a,,,
,,,,,,,,,,,,41208,2021-05-10_16h16.04.414,judgeSpeechMusic_20210407_logNormShiftAmp,2020.1.2,MacIntel,60,,,,,,,,,,,,,,1,6.087005,,0,0,10,10,39,1,stimuli/stim_20210407_power2amp/equal_lnn_AM1.8Hz_73.m4a,,,
,,,,,,,,,,,,41208,2021-05-10_16h16.04.414,judgeSpeechMusic_20210407_logNormShiftAmp,2020.1.2,MacIntel,60,,,,,,,,,,,,,,1,6.606175,,0,0,11,11,73,1,stimuli/stim_20210407_power2amp/equal_lnn_AM3Hz_97.m4a,,,
,,,,,,,,,,,,41208,2021-05-10_16h16.04.414,judgeSpeechMusic_20210407_logNormShiftAmp,2020.1.2,MacIntel,60,,,,,,,,,,,,,,1,11.37255,,0,0,12,12,76,1,stimuli/stim_20210407_power2amp/equal_lnn_AM3.6Hz_37.m4a,,,
,,,,,,,,,,,,41208,2021-05-10_16h16.04.414,judgeSpeechMusic_20210407_logNormShiftAmp,2020.1.2,MacIntel,60,,,,,,,,,,,,,,2,6.520605,,0,0,13,13,143,1,stimuli/stim_20210407_power2amp/equal_lnn_AM6Hz_7.m4a,,,
,,,,,,,,,,,,41208,2021-05-10_16h16.04.414,judgeSpeechMusic_20210407_logNormShiftAmp,2020.1.2,MacIntel,60,,,,,,,,,,,,,,1,8.755765,,0,0,14,14,95,1,stimuli/stim_20210407_power2amp/equal_lnn_AM4.2Hz_39.m4a,,,
,,,,,,,,,,,,41208,2021-05-10_16h16.04.414,judgeSpeechMusic_20210407_logNormShiftAmp,2020.1.2,MacIntel,60,,,,,,,,,,,,,,1,5.702915,,0,0,15,15,52,1,stimuli/stim_20210407_power2amp/equal_lnn_AM2.4Hz_65.m4a,,,
,,,,,,,,,,,,41208,2021-05-10_16h16.04.414,judgeSpeechMusic_20210407_logNormShiftAmp,2020.1.2,MacIntel,60,,,,,,,,,,,,,,1,5.862105,,0,0,16,16,48,1,stimuli/stim_20210407_power2amp/equal_lnn_AM2.4Hz_11.m4a,,,
,,,,,,,,,,,,41208,2021-05-10_16h16.04.414,judgeSpeechMusic_20210407_logNormShiftAmp,2020.1.2,MacIntel,60,,,,,,,,,,,,,,1,6.43658,,0,0,17,17,60,1,stimuli/stim_20210407_power2amp/equal_lnn_AM3Hz_28.m4a,,,
,,,,,,,,,,,,41208,2021-05-10_16h16.04.414,judgeSpeechMusic_20210407_logNormShiftAmp,2020.1.2,MacIntel,60,,,,,,,,,,,,,,1,5.74451,,0,0,18,18,101,1,stimuli/stim_20210407_power2amp/equal_lnn_AM4.2Hz_3.m4a,,,
,,,,,,,,,,,,41208,2021-05-10_16h16.04.414,judgeSpeechMusic_20210407_logNormShiftAmp,2020.1.2,MacIntel,60,,,,,,,,,,,,,,1,7.97933,,0,0,19,19,51,1,stimuli/stim_20210407_power2amp/equal_lnn_AM2.4Hz_7.m4a,,,
,,,,,,,,,,,,41208,2021-05-10_16h16.04.414,judgeSpeechMusic_20210407_logNormShiftAmp,2020.1.2,MacIntel,60,,,,,,,,,,,,,,1,8.210265,,0,0,20,20,130,1,stimuli/stim_20210407_power2amp/equal_lnn_AM5.4Hz_32.m4a,,,
,,,,,,,,,,,,41208,2021-05-10_16h16.04.414,judgeSpeechMusic_20210407_logNormShiftAmp,2020.1.2,MacIntel,60,,,,,,,,,,,,,,1,6.144015,,0,0,21,21,47,1,stimuli/stim_20210407_power2amp/equal_lnn_AM2.4Hz_66.m4a,,,
,,,,,,,,,,,,41208,2021-05-10_16h16.04.414,judgeSpeechMusic_20210407_logNormShiftAmp,2020.1.2,MacIntel,60,,,,,,,,,,,,,,1,5.992995,,0,0,22,22,35,1,stimuli/stim_20210407_power2amp/equal_lnn_AM1.8Hz_23.m4a,,,
,,,,,,,,,,,,41208,2021-05-10_16h16.04.414,judgeSpeechMusic_20210407_logNormShiftAmp,2020.1.2,MacIntel,60,,,,,,,,,,,,,,1,7.17597,,0,0,23,23,2,1,stimuli/stim_20210407_power2amp/equal_lnn_AM0.6Hz_31.m4a,,,
,,,,,,,,,,,,41208,2021-05-10_16h16.04.414,judgeSpeechMusic_20210407_logNormShiftAmp,2020.1.2,MacIntel,60,,,,,,,,,,,,,,1,5.73692,,0,0,24,24,10,1,stimuli/stim_20210407_power2amp/equal_lnn_AM0.6Hz_68.m4a,,,
,,,,,,,,,,,,41208,2021-05-10_16h16.04.414,judgeSpeechMusic_20210407_logNormShiftAmp,2020.1.2,MacIntel,60,,,,,,,,,,,,,,1,5.704325,,0,0,25,25,1,1,stimuli/stim_20210407_power2amp/equal_lnn_AM0.6Hz_42.m4a,,,
,,,,,,,,,,,,41208,2021-05-10_16h16.04.414,judgeSpeechMusic_20210407_logNormShiftAmp,2020.1.2,MacIntel,60,,,,,,,,,,,,,,1,5.66061,,0,0,26,26,32,1,stimuli/stim_20210407_power2amp/equal_lnn_AM1.8Hz_94.m4a,,,
,,,,,,,,,,,,41208,2021-05-10_16h16.04.414,judgeSpeechMusic_20210407_logNormShiftAmp,2020.1.2,MacIntel,60,,,,,,,,,,,,,,2,8.044675,,0,0,27,27,141,1,stimuli/stim_20210407_power2amp/equal_lnn_AM6Hz_97.m4a,,,
,,,,,,,,,,,,41208,2021-05-10_16h16.04.414,judgeSpeechMusic_20210407_logNormShiftAmp,2020.1.2,MacIntel,60,,,,,,,,,,,,,,1,7.16906,,0,0,28,28,34,1,stimuli/stim_20210407_power2amp/equal_lnn_AM1.8Hz_58.m4a,,,
,,,,,,,,,,,,41208,2021-05-10_16h16.04.414,judgeSpeechMusic_20210407_logNormShiftAmp,2020.1.2,MacIntel,60,,,,,,,,,,,,,,2,6.34613,,0,0,29,29,112,1,stimuli/stim_20210407_power2amp/equal_lnn_AM4.8Hz_82.m4a,,,
,,,,,,,,,,,,41208,2021-05-10_16h16.04.414,judgeSpeechMusic_20210407_logNormShiftAmp,2020.1.2,MacIntel,60,,,,,,,,,,,,,,2,7.95665,,0,0,30,30,62,1,stimuli/stim_20210407_power2amp/equal_lnn_AM3Hz_95.m4a,,,
,,,,,,,,,,,,41208,2021-05-10_16h16.04.414,judgeSpeechMusic_20210407_logNormShiftAmp,2020.1.2,MacIntel,60,,,,,,,,,,,,,,1,5.70403,,0,0,31,31,74,1,stimuli/stim_20210407_power2amp/equal_lnn_AM3Hz_86.m4a,,,
,,,,,,,,,,,,41208,2021-05-10_16h16.04.414,judgeSpeechMusic_20210407_logNormShiftAmp,2020.1.2,MacIntel,60,,,,,,,,,,,,,,1,6.3387,,0,0,32,32,81,1,stimuli/stim_20210407_power2amp/equal_lnn_AM3.6Hz_56.m4a,,,
,,,,,,,,,,,,41208,2021-05-10_16h16.04.414,judgeSpeechMusic_20210407_logNormShiftAmp,2020.1.2,MacIntel,60,,,,,,,,,,,,,,1,7.912555,,0,0,33,33,97,1,stimuli/stim_20210407_power2amp/equal_lnn_AM4.2Hz_97.m4a,,,
,,,,,,,,,,,,41208,2021-05-10_16h16.04.414,judgeSpeechMusic_20210407_logNormShiftAmp,2020.1.2,MacIntel,60,,,,,,,,,,,,,,1,11.175935,,0,0,34,34,64,1,stimuli/stim_20210407_power2amp/equal_lnn_AM3Hz_24.m4a,,,
,,,,,,,,,,,,41208,2021-05-10_16h16.04.414,judgeSpeechMusic_20210407_logNormShiftAmp,2020.1.2,MacIntel,60,,,,,,,,,,,,,,1,5.755435,,0,0,35,35,13,1,stimuli/stim_20210407_power2amp/equal_lnn_AM0.6Hz_19.m4a,,,
,,,,,,,,,,,,41208,2021-05-10_16h16.04.414,judgeSpeechMusic_20210407_logNormShiftAmp,2020.1.2,MacIntel,60,,,,,,,,,,,,,,1,5.92331,,0,0,36,36,75,1,stimuli/stim_20210407_power2amp/equal_lnn_AM3.6Hz_28.m4a,,,
,,,,,,,,,,,,41208,2021-05-10_16h16.04.414,judgeSpeechMusic_20210407_logNormShiftAmp,2020.1.2,MacIntel,60,,,,,,,,,,,,,,1,5.90265,2,1,0,37,37,53,1,stimuli/stim_20210407_power2amp/equal_lnn_AM2.4Hz_84.m4a,1.807505,,
,,,,,,,,,,,,41208,2021-05-10_16h16.04.414,judgeSpeechMusic_20210407_logNormShiftAmp,2020.1.2,MacIntel,60,,,,,,,,,,,,,,1,6.021715,,0,0,38,38,80,1,stimuli/stim_20210407_power2amp/equal_lnn_AM3.6Hz_29.m4a,,,
,,,,,,,,,,,,41208,2021-05-10_16h16.04.414,judgeSpeechMusic_20210407_logNormShiftAmp,2020.1.2,MacIntel,60,,,,,,,,,,,,,,1,6.03698,,0,0,39,39,148,1,stimuli/stim_20210407_power2amp/equal_lnn_AM6Hz_73.m4a,,,
,,,,,,,,,,,,41208,2021-05-10_16h16.04.414,judgeSpeechMusic_20210407_logNormShiftAmp,2020.1.2,MacIntel,60,,,,,,,,,,,,,,1,10.858245,,0,0,40,40,49,1,stimuli/stim_20210407_power2amp/equal_lnn_AM2.4Hz_40.m4a,,,
,,,,,,,,,,,,41208,2021-05-10_16h16.04.414,judgeSpeechMusic_20210407_logNormShiftAmp,2020.1.2,MacIntel,60,,,,,,,,,,,,,,2,6.286235,,0,0,41,41,88,1,stimuli/stim_20210407_power2amp/equal_lnn_AM3.6Hz_13.m4a,,,
,,,,,,,,,,,,41208,2021-05-10_16h16.04.414,judgeSpeechMusic_20210407_logNormShiftAmp,2020.1.2,MacIntel,60,,,,,,,,,,,,,,2,6.14458,,0,0,42,42,125,1,stimuli/stim_20210407_power2amp/equal_lnn_AM5.4Hz_23.m4a,,,
,,,,,,,,,,,,41208,2021-05-10_16h16.04.414,judgeSpeechMusic_20210407_logNormShiftAmp,2020.1.2,MacIntel,60,,,,,,,,,,,,,,1,6.718875,,0,0,43,43,109,1,stimuli/stim_20210407_power2amp/equal_lnn_AM4.8Hz_31.m4a,,,
,,,,,,,,,,,,41208,2021-05-10_16h16.04.414,judgeSpeechMusic_20210407_logNormShiftAmp,2020.1.2,MacIntel,60,,,,,,,,,,,,,,2,7.88463,,0,0,44,44,127,1,stimuli/stim_20210407_power2amp/equal_lnn_AM5.4Hz_8.m4a,,,
,,,,,,,,,,,,41208,2021-05-10_16h16.04.414,judgeSpeechMusic_20210407_logNormShiftAmp,2020.1.2,MacIntel,60,,,,,,,,,,,,,,2,9.51566,,0,0,45,45,116,1,stimuli/stim_20210407_power2amp/equal_lnn_AM4.8Hz_74.m4a,,,
,,,,,,,,,,,,41208,2021-05-10_16h16.04.414,judgeSpeechMusic_20210407_logNormShiftAmp,2020.1.2,MacIntel,60,,,,,,,,,,,,,,2,6.004415,,0,0,46,46,104,1,stimuli/stim_20210407_power2amp/equal_lnn_AM4.2Hz_56.m4a,,,
,,,,,,,,,,,,41208,2021-05-10_16h16.04.414,judgeSpeechMusic_20210407_logNormShiftAmp,2020.1.2,MacIntel,60,,,,,,,,,,,,,,1,6.692175,,0,0,47,47,87,1,stimuli/stim_20210407_power2amp/equal_lnn_AM3.6Hz_97.m4a,,,
,,,,,,,,,,,,41208,2021-05-10_16h16.04.414,judgeSpeechMusic_20210407_logNormShiftAmp,2020.1.2,MacIntel,60,,,,,,,,,,,,,,1,6.120925,,0,0,48,48,59,1,stimuli/stim_20210407_power2amp/equal_lnn_AM2.4Hz_2.m4a,,,
,,,,,,,,,,,,41208,2021-05-10_16h16.04.414,judgeSpeechMusic_20210407_logNormShiftAmp,2020.1.2,MacIntel,60,,,,,,,,,,,,,,1,7.71967,,0,0,49,49,105,1,stimuli/stim_20210407_power2amp/equal_lnn_AM4.8Hz_95.m4a,,,
,,,,,,,,,,,,41208,2021-05-10_16h16.04.414,judgeSpeechMusic_20210407_logNormShiftAmp,2020.1.2,MacIntel,60,,,,,,,,,,,,,,1,7.95604,,0,0,50,50,8,1,stimuli/stim_20210407_power2amp/equal_lnn_AM0.6Hz_79.m4a,,,
,,,,,,,,,,,,41208,2021-05-10_16h16.04.414,judgeSpeechMusic_20210407_logNormShiftAmp,2020.1.2,MacIntel,60,,,,,,,,,,,,,,1,6.35379,,0,0,51,51,23,1,stimuli/stim_20210407_power2amp/equal_lnn_AM1.2Hz_83.m4a,,,
,,,,,,,,,,,,41208,2021-05-10_16h16.04.414,judgeSpeechMusic_20210407_logNormShiftAmp,2020.1.2,MacIntel,60,,,,,,,,,,,,,,2,7.002315,,0,0,52,52,123,1,stimuli/stim_20210407_power2amp/equal_lnn_AM5.4Hz_96.m4a,,,
,,,,,,,,,,,,41208,2021-05-10_16h16.04.414,judgeSpeechMusic_20210407_logNormShiftAmp,2020.1.2,MacIntel,60,,,,,,,,,,,,,,1,7.420185,,0,0,53,53,38,1,stimuli/stim_20210407_power2amp/equal_lnn_AM1.8Hz_47.m4a,,,
,,,,,,,,,,,,41208,2021-05-10_16h16.04.414,judgeSpeechMusic_20210407_logNormShiftAmp,2020.1.2,MacIntel,60,,,,,,,,,,,,,,1,7.789,,0,0,54,54,102,1,stimuli/stim_20210407_power2amp/equal_lnn_AM4.2Hz_24.m4a,,,
,,,,,,,,,,,,41208,2021-05-10_16h16.04.414,judgeSpeechMusic_20210407_logNormShiftAmp,2020.1.2,MacIntel,60,,,,,,,,,,,,,,2,7.00715,,0,0,55,55,134,1,stimuli/stim_20210407_power2amp/equal_lnn_AM5.4Hz_33.m4a,,,
,,,,,,,,,,,,41208,2021-05-10_16h16.04.414,judgeSpeechMusic_20210407_logNormShiftAmp,2020.1.2,MacIntel,60,,,,,,,,,,,,,,1,7.204825,,0,0,56,56,67,1,stimuli/stim_20210407_power2amp/equal_lnn_AM3Hz_31.m4a,,,
,,,,,,,,,,,,41208,2021-05-10_16h16.04.414,judgeSpeechMusic_20210407_logNormShiftAmp,2020.1.2,MacIntel,60,,,,,,,,,,,,,,1,6.00474,,0,0,57,57,12,1,stimuli/stim_20210407_power2amp/equal_lnn_AM0.6Hz_94.m4a,,,
,,,,,,,,,,,,41208,2021-05-10_16h16.04.414,judgeSpeechMusic_20210407_logNormShiftAmp,2020.1.2,MacIntel,60,,,,,,,,,,,,,,1,6.17535,2,1,0,58,58,61,1,stimuli/stim_20210407_power2amp/equal_lnn_AM3Hz_40.m4a,1.47159,,
,,,,,,,,,,,,41208,2021-05-10_16h16.04.414,judgeSpeechMusic_20210407_logNormShiftAmp,2020.1.2,MacIntel,60,,,,,,,,,,,,,,1,6.137585,,0,0,59,59,96,1,stimuli/stim_20210407_power2amp/equal_lnn_AM4.2Hz_72.m4a,,,
,,,,,,,,,,,,41208,2021-05-10_16h16.04.414,judgeSpeechMusic_20210407_logNormShiftAmp,2020.1.2,MacIntel,60,,,,,,,,,,,,,,1,8.36939,,0,0,60,60,25,1,stimuli/stim_20210407_power2amp/equal_lnn_AM1.2Hz_65.m4a,,,
,,,,,,,,,,,,41208,2021-05-10_16h16.04.414,judgeSpeechMusic_20210407_logNormShiftAmp,2020.1.2,MacIntel,60,,,,,,,,,,,,,,1,7.18502,,0,0,61,61,92,1,stimuli/stim_20210407_power2amp/equal_lnn_AM4.2Hz_43.m4a,,,
,,,,,,,,,,,,41208,2021-05-10_16h16.04.414,judgeSpeechMusic_20210407_logNormShiftAmp,2020.1.2,MacIntel,60,,,,,,,,,,,,,,1,5.87532,,0,0,62,62,27,1,stimuli/stim_20210407_power2amp/equal_lnn_AM1.2Hz_90.m4a,,,
,,,,,,,,,,,,41208,2021-05-10_16h16.04.414,judgeSpeechMusic_20210407_logNormShiftAmp,2020.1.2,MacIntel,60,,,,,,,,,,,,,,1,5.890665,,0,0,63,63,26,1,stimuli/stim_20210407_power2amp/equal_lnn_AM1.2Hz_67.m4a,,,
,,,,,,,,,,,,41208,2021-05-10_16h16.04.414,judgeSpeechMusic_20210407_logNormShiftAmp,2020.1.2,MacIntel,60,,,,,,,,,,,,,,1,6.474035,,0,0,64,64,55,1,stimuli/stim_20210407_power2amp/equal_lnn_AM2.4Hz_12.m4a,,,
,,,,,,,,,,,,41208,2021-05-10_16h16.04.414,judgeSpeechMusic_20210407_logNormShiftAmp,2020.1.2,MacIntel,60,,,,,,,,,,,,,,2,6.86831,,0,0,65,65,91,1,stimuli/stim_20210407_power2amp/equal_lnn_AM4.2Hz_14.m4a,,,
,,,,,,,,,,,,41208,2021-05-10_16h16.04.414,judgeSpeechMusic_20210407_logNormShiftAmp,2020.1.2,MacIntel,60,,,,,,,,,,,,,,1,6.18763,,0,0,66,66,6,1,stimuli/stim_20210407_power2amp/equal_lnn_AM0.6Hz_17.m4a,,,
,,,,,,,,,,,,41208,2021-05-10_16h16.04.414,judgeSpeechMusic_20210407_logNormShiftAmp,2020.1.2,MacIntel,60,,,,,,,,,,,,,,1,6.088235,,0,0,67,67,28,1,stimuli/stim_20210407_power2amp/equal_lnn_AM1.2Hz_12.m4a,,,
,,,,,,,,,,,,41208,2021-05-10_16h16.04.414,judgeSpeechMusic_20210407_logNormShiftAmp,2020.1.2,MacIntel,60,,,,,,,,,,,,,,1,5.775,,0,0,68,68,30,1,stimuli/stim_20210407_power2amp/equal_lnn_AM1.8Hz_52.m4a,,,
,,,,,,,,,,,,41208,2021-05-10_16h16.04.414,judgeSpeechMusic_20210407_logNormShiftAmp,2020.1.2,MacIntel,60,,,,,,,,,,,,,,2,8.0027,,0,0,69,69,117,1,stimuli/stim_20210407_power2amp/equal_lnn_AM4.8Hz_99.m4a,,,
,,,,,,,,,,,,41208,2021-05-10_16h16.04.414,judgeSpeechMusic_20210407_logNormShiftAmp,2020.1.2,MacIntel,60,,,,,,,,,,,,,,1,7.14581,,0,0,70,70,84,1,stimuli/stim_20210407_power2amp/equal_lnn_AM3.6Hz_20.m4a,,,
,,,,,,,,,,,,41208,2021-05-10_16h16.04.414,judgeSpeechMusic_20210407_logNormShiftAmp,2020.1.2,MacIntel,60,,,,,,,,,,,,,,2,7.442375,,0,0,71,71,69,1,stimuli/stim_20210407_power2amp/equal_lnn_AM3Hz_21.m4a,,,
,,,,,,,,,,,,41208,2021-05-10_16h16.04.414,judgeSpeechMusic_20210407_logNormShiftAmp,2020.1.2,MacIntel,60,,,,,,,,,,,,,,1,9.03646,,0,0,72,72,54,1,stimuli/stim_20210407_power2amp/equal_lnn_AM2.4Hz_55.m4a,,,
,,,,,,,,,,,,41208,2021-05-10_16h16.04.414,judgeSpeechMusic_20210407_logNormShiftAmp,2020.1.2,MacIntel,60,,,,,,,,,,,,,,2,8.67554,,0,0,73,73,19,1,stimuli/stim_20210407_power2amp/equal_lnn_AM1.2Hz_14.m4a,,,
,,,,,,,,,,,,41208,2021-05-10_16h16.04.414,judgeSpeechMusic_20210407_logNormShiftAmp,2020.1.2,MacIntel,60,,,,,,,,,,,,,,2,7.18382,,0,0,74,74,79,1,stimuli/stim_20210407_power2amp/equal_lnn_AM3.6Hz_34.m4a,,,
,,,,,,,,,,,,41208,2021-05-10_16h16.04.414,judgeSpeechMusic_20210407_logNormShiftAmp,2020.1.2,MacIntel,60,,,,,,,,,,,,,,1,7.76207,,0,0,75,75,11,1,stimuli/stim_20210407_power2amp/equal_lnn_AM0.6Hz_45.m4a,,,
,,,,,,,,,,,,41208,2021-05-10_16h16.04.414,judgeSpeechMusic_20210407_logNormShiftAmp,2020.1.2,MacIntel,60,,,,,,,,,,,,,,1,5.8859,,0,0,76,76,41,1,stimuli/stim_20210407_power2amp/equal_lnn_AM1.8Hz_76.m4a,,,
,,,,,,,,,,,,41208,2021-05-10_16h16.04.414,judgeSpeechMusic_20210407_logNormShiftAmp,2020.1.2,MacIntel,60,,,,,,,,,,,,,,1,5.76205,,0,0,77,77,144,1,stimuli/stim_20210407_power2amp/equal_lnn_AM6Hz_95.m4a,,,
,,,,,,,,,,,,41208,2021-05-10_16h16.04.414,judgeSpeechMusic_20210407_logNormShiftAmp,2020.1.2,MacIntel,60,,,,,,,,,,,,,,2,7.26871,,0,0,78,78,146,1,stimuli/stim_20210407_power2amp/equal_lnn_AM6Hz_27.m4a,,,
,,,,,,,,,,,,41208,2021-05-10_16h16.04.414,judgeSpeechMusic_20210407_logNormShiftAmp,2020.1.2,MacIntel,60,,,,,,,,,,,,,,1,6.41897,,0,0,79,79,5,1,stimuli/stim_20210407_power2amp/equal_lnn_AM0.6Hz_46.m4a,,,
,,,,,,,,,,,,41208,2021-05-10_16h16.04.414,judgeSpeechMusic_20210407_logNormShiftAmp,2020.1.2,MacIntel,60,,,,,,,,,,,,,,2,5.97895,,0,0,80,80,90,1,stimuli/stim_20210407_power2amp/equal_lnn_AM4.2Hz_41.m4a,,,
,,,,,,,,,,,,41208,2021-05-10_16h16.04.414,judgeSpeechMusic_20210407_logNormShiftAmp,2020.1.2,MacIntel,60,,,,,,,,,,,,,,1,6.726765,,0,0,81,81,33,1,stimuli/stim_20210407_power2amp/equal_lnn_AM1.8Hz_45.m4a,,,
,,,,,,,,,,,,41208,2021-05-10_16h16.04.414,judgeSpeechMusic_20210407_logNormShiftAmp,2020.1.2,MacIntel,60,,,,,,,,,,,,,,1,5.677505,2,1,0,82,82,70,1,stimuli/stim_20210407_power2amp/equal_lnn_AM3Hz_26.m4a,1.37142,,
,,,,,,,,,,,,41208,2021-05-10_16h16.04.414,judgeSpeechMusic_20210407_logNormShiftAmp,2020.1.2,MacIntel,60,,,,,,,,,,,,,,1,8.823195,,0,0,83,83,66,1,stimuli/stim_20210407_power2amp/equal_lnn_AM3Hz_7.m4a,,,
,,,,,,,,,,,,41208,2021-05-10_16h16.04.414,judgeSpeechMusic_20210407_logNormShiftAmp,2020.1.2,MacIntel,60,,,,,,,,,,,,,,1,5.65248,,0,0,84,84,29,1,stimuli/stim_20210407_power2amp/equal_lnn_AM1.2Hz_17.m4a,,,
,,,,,,,,,,,,41208,2021-05-10_16h16.04.414,judgeSpeechMusic_20210407_logNormShiftAmp,2020.1.2,MacIntel,60,,,,,,,,,,,,,,1,5.67015,,0,0,85,85,58,1,stimuli/stim_20210407_power2amp/equal_lnn_AM2.4Hz_60.m4a,,,
,,,,,,,,,,,,41208,2021-05-10_16h16.04.414,judgeSpeechMusic_20210407_logNormShiftAmp,2020.1.2,MacIntel,60,,,,,,,,,,,,,,1,5.594655,,0,0,86,86,120,1,stimuli/stim_20210407_power2amp/equal_lnn_AM5.4Hz_68.m4a,,,
,,,,,,,,,,,,41208,2021-05-10_16h16.04.414,judgeSpeechMusic_20210407_logNormShiftAmp,2020.1.2,MacIntel,60,,,,,,,,,,,,,,2,6.26993,,0,0,87,87,93,1,stimuli/stim_20210407_power2amp/equal_lnn_AM4.2Hz_75.m4a,,,
,,,,,,,,,,,,41208,2021-05-10_16h16.04.414,judgeSpeechMusic_20210407_logNormShiftAmp,2020.1.2,MacIntel,60,,,,,,,,,,,,,,2,5.669955,,0,0,88,88,129,1,stimuli/stim_20210407_power2amp/equal_lnn_AM5.4Hz_75.m4a,,,
,,,,,,,,,,,,41208,2021-05-10_16h16.04.414,judgeSpeechMusic_20210407_logNormShiftAmp,2020.1.2,MacIntel,60,,,,,,,,,,,,,,1,6.521865,,0,0,89,89,46,1,stimuli/stim_20210407_power2amp/equal_lnn_AM2.4Hz_56.m4a,,,
,,,,,,,,,,,,41208,2021-05-10_16h16.04.414,judgeSpeechMusic_20210407_logNormShiftAmp,2020.1.2,MacIntel,60,,,,,,,,,,,,,,1,6.508765,,0,0,90,90,111,1,stimuli/stim_20210407_power2amp/equal_lnn_AM4.8Hz_94.m4a,,,
,,,,,,,,,,,,41208,2021-05-10_16h16.04.414,judgeSpeechMusic_20210407_logNormShiftAmp,2020.1.2,MacIntel,60,,,,,,,,,,,,,,1,6.259695,,0,0,91,91,40,1,stimuli/stim_20210407_power2amp/equal_lnn_AM1.8Hz_7.m4a,,,
,,,,,,,,,,,,41208,2021-05-10_16h16.04.414,judgeSpeechMusic_20210407_logNormShiftAmp,2020.1.2,MacIntel,60,,,,,,,,,,,,,,1,6.289745,,0,0,92,92,37,1,stimuli/stim_20210407_power2amp/equal_lnn_AM1.8Hz_30.m4a,,,
,,,,,,,,,,,,41208,2021-05-10_16h16.04.414,judgeSpeechMusic_20210407_logNormShiftAmp,2020.1.2,MacIntel,60,,,,,,,,,,,,,,1,5.891305,,0,0,93,93,43,1,stimuli/stim_20210407_power2amp/equal_lnn_AM1.8Hz_27.m4a,,,
,,,,,,,,,,,,41208,2021-05-10_16h16.04.414,judgeSpeechMusic_20210407_logNormShiftAmp,2020.1.2,MacIntel,60,,,,,,,,,,,,,,1,6.173165,,0,0,94,94,50,1,stimuli/stim_20210407_power2amp/equal_lnn_AM2.4Hz_52.m4a,,,
,,,,,,,,,,,,41208,2021-05-10_16h16.04.414,judgeSpeechMusic_20210407_logNormShiftAmp,2020.1.2,MacIntel,60,,,,,,,,,,,,,,1,5.852885,,0,0,95,95,57,1,stimuli/stim_20210407_power2amp/equal_lnn_AM2.4Hz_76.m4a,,,
,,,,,,,,,,,,41208,2021-05-10_16h16.04.414,judgeSpeechMusic_20210407_logNormShiftAmp,2020.1.2,MacIntel,60,,,,,,,,,,,,,,1,6.25654,,0,0,96,96,99,1,stimuli/stim_20210407_power2amp/equal_lnn_AM4.2Hz_94.m4a,,,
,,,,,,,,,,,,41208,2021-05-10_16h16.04.414,judgeSpeechMusic_20210407_logNormShiftAmp,2020.1.2,MacIntel,60,,,,,,,,,,,,,,2,6.286965,,0,0,97,97,119,1,stimuli/stim_20210407_power2amp/equal_lnn_AM4.8Hz_12.m4a,,,
,,,,,,,,,,,,41208,2021-05-10_16h16.04.414,judgeSpeechMusic_20210407_logNormShiftAmp,2020.1.2,MacIntel,60,,,,,,,,,,,,,,2,5.637565,,0,0,98,98,78,1,stimuli/stim_20210407_power2amp/equal_lnn_AM3.6Hz_84.m4a,,,
,,,,,,,,,,,,41208,2021-05-10_16h16.04.414,judgeSpeechMusic_20210407_logNormShiftAmp,2020.1.2,MacIntel,60,,,,,,,,,,,,,,2,6.469585,,0,0,99,99,126,1,stimuli/stim_20210407_power2amp/equal_lnn_AM5.4Hz_83.m4a,,,
,,,,,,,,,,,,41208,2021-05-10_16h16.04.414,judgeSpeechMusic_20210407_logNormShiftAmp,2020.1.2,MacIntel,60,,,,,,,,,,,,,,2,6.4773,,0,0,100,100,132,1,stimuli/stim_20210407_power2amp/equal_lnn_AM5.4Hz_36.m4a,,,
,,,,,,,,,,,,41208,2021-05-10_16h16.04.414,judgeSpeechMusic_20210407_logNormShiftAmp,2020.1.2,MacIntel,60,,,,,,,,,,,,,,1,6.22152,,0,0,101,101,0,1,stimuli/stim_20210407_power2amp/equal_lnn_AM0.6Hz_51.m4a,,,
,,,,,,,,,,,,41208,2021-05-10_16h16.04.414,judgeSpeechMusic_20210407_logNormShiftAmp,2020.1.2,MacIntel,60,,,,,,,,,,,,,,2,6.90688,,0,0,102,102,94,1,stimuli/stim_20210407_power2amp/equal_lnn_AM4.2Hz_40.m4a,,,
,,,,,,,,,,,,41208,2021-05-10_16h16.04.414,judgeSpeechMusic_20210407_logNormShiftAmp,2020.1.2,MacIntel,60,,,,,,,,,,,,,,2,5.73694,,0,0,103,103,106,1,stimuli/stim_20210407_power2amp/equal_lnn_AM4.8Hz_86.m4a,,,
,,,,,,,,,,,,41208,2021-05-10_16h16.04.414,judgeSpeechMusic_20210407_logNormShiftAmp,2020.1.2,MacIntel,60,,,,,,,,,,,,,,1,6.1205,4,1,0,104,104,56,1,stimuli/stim_20210407_power2amp/equal_lnn_AM2.4Hz_49.m4a,3.117755,,
,,,,,,,,,,,,41208,2021-05-10_16h16.04.414,judgeSpeechMusic_20210407_logNormShiftAmp,2020.1.2,MacIntel,60,,,,,,,,,,,,,,1,8.024125,,0,0,105,105,114,1,stimuli/stim_20210407_power2amp/equal_lnn_AM4.8Hz_35.m4a,,,
,,,,,,,,,,,,41208,2021-05-10_16h16.04.414,judgeSpeechMusic_20210407_logNormShiftAmp,2020.1.2,MacIntel,60,,,,,,,,,,,,,,2,6.536335,,0,0,106,106,121,1,stimuli/stim_20210407_power2amp/equal_lnn_AM5.4Hz_86.m4a,,,
,,,,,,,,,,,,41208,2021-05-10_16h16.04.414,judgeSpeechMusic_20210407_logNormShiftAmp,2020.1.2,MacIntel,60,,,,,,,,,,,,,,1,6.789175,,0,0,107,107,21,1,stimuli/stim_20210407_power2amp/equal_lnn_AM1.2Hz_64.m4a,,,
,,,,,,,,,,,,41208,2021-05-10_16h16.04.414,judgeSpeechMusic_20210407_logNormShiftAmp,2020.1.2,MacIntel,60,,,,,,,,,,,,,,1,6.08803,,0,0,108,108,89,1,stimuli/stim_20210407_power2amp/equal_lnn_AM3.6Hz_51.m4a,,,
,,,,,,,,,,,,41208,2021-05-10_16h16.04.414,judgeSpeechMusic_20210407_logNormShiftAmp,2020.1.2,MacIntel,60,,,,,,,,,,,,,,1,5.821655,,0,0,109,109,20,1,stimuli/stim_20210407_power2amp/equal_lnn_AM1.2Hz_25.m4a,,,
,,,,,,,,,,,,41208,2021-05-10_16h16.04.414,judgeSpeechMusic_20210407_logNormShiftAmp,2020.1.2,MacIntel,60,,,,,,,,,,,,,,1,6.358855,,0,0,110,110,44,1,stimuli/stim_20210407_power2amp/equal_lnn_AM1.8Hz_64.m4a,,,
,,,,,,,,,,,,41208,2021-05-10_16h16.04.414,judgeSpeechMusic_20210407_logNormShiftAmp,2020.1.2,MacIntel,60,,,,,,,,,,,,,,1,5.98773,,0,0,111,111,82,1,stimuli/stim_20210407_power2amp/equal_lnn_AM3.6Hz_82.m4a,,,
,,,,,,,,,,,,41208,2021-05-10_16h16.04.414,judgeSpeechMusic_20210407_logNormShiftAmp,2020.1.2,MacIntel,60,,,,,,,,,,,,,,2,7.460835,,0,0,112,112,133,1,stimuli/stim_20210407_power2amp/equal_lnn_AM5.4Hz_50.m4a,,,
,,,,,,,,,,,,41208,2021-05-10_16h16.04.414,judgeSpeechMusic_20210407_logNormShiftAmp,2020.1.2,MacIntel,60,,,,,,,,,,,,,,2,6.33701,,0,0,113,113,110,1,stimuli/stim_20210407_power2amp/equal_lnn_AM4.8Hz_96.m4a,,,
,,,,,,,,,,,,41208,2021-05-10_16h16.04.414,judgeSpeechMusic_20210407_logNormShiftAmp,2020.1.2,MacIntel,60,,,,,,,,,,,,,,2,5.934305,,0,0,114,114,107,1,stimuli/stim_20210407_power2amp/equal_lnn_AM4.8Hz_38.m4a,,,
,,,,,,,,,,,,41208,2021-05-10_16h16.04.414,judgeSpeechMusic_20210407_logNormShiftAmp,2020.1.2,MacIntel,60,,,,,,,,,,,,,,1,7.07788,,0,0,115,115,24,1,stimuli/stim_20210407_power2amp/equal_lnn_AM1.2Hz_85.m4a,,,
,,,,,,,,,,,,41208,2021-05-10_16h16.04.414,judgeSpeechMusic_20210407_logNormShiftAmp,2020.1.2,MacIntel,60,,,,,,,,,,,,,,1,6.00524,,0,0,116,116,45,1,stimuli/stim_20210407_power2amp/equal_lnn_AM2.4Hz_35.m4a,,,
,,,,,,,,,,,,41208,2021-05-10_16h16.04.414,judgeSpeechMusic_20210407_logNormShiftAmp,2020.1.2,MacIntel,60,,,,,,,,,,,,,,2,9.09448,,0,0,117,117,131,1,stimuli/stim_20210407_power2amp/equal_lnn_AM5.4Hz_51.m4a,,,
,,,,,,,,,,,,41208,2021-05-10_16h16.04.414,judgeSpeechMusic_20210407_logNormShiftAmp,2020.1.2,MacIntel,60,,,,,,,,,,,,,,2,6.69063,,0,0,118,118,147,1,stimuli/stim_20210407_power2amp/equal_lnn_AM6Hz_29.m4a,,,
,,,,,,,,,,,,41208,2021-05-10_16h16.04.414,judgeSpeechMusic_20210407_logNormShiftAmp,2020.1.2,MacIntel,60,,,,,,,,,,,,,,2,7.23644,,0,0,119,119,113,1,stimuli/stim_20210407_power2amp/equal_lnn_AM4.8Hz_68.m4a,,,
,,,,,,,,,,,,41208,2021-05-10_16h16.04.414,judgeSpeechMusic_20210407_logNormShiftAmp,2020.1.2,MacIntel,60,,,,,,,,,,,,,,1,6.95309,,0,0,120,120,98,1,stimuli/stim_20210407_power2amp/equal_lnn_AM4.2Hz_47.m4a,,,
,,,,,,,,,,,,41208,2021-05-10_16h16.04.414,judgeSpeechMusic_20210407_logNormShiftAmp,2020.1.2,MacIntel,60,,,,,,,,,,,,,,1,6.280495,,0,0,121,121,16,1,stimuli/stim_20210407_power2amp/equal_lnn_AM1.2Hz_43.m4a,,,
,,,,,,,,,,,,41208,2021-05-10_16h16.04.414,judgeSpeechMusic_20210407_logNormShiftAmp,2020.1.2,MacIntel,60,,,,,,,,,,,,,,2,6.68946,,0,0,122,122,137,1,stimuli/stim_20210407_power2amp/equal_lnn_AM6Hz_94.m4a,,,
,,,,,,,,,,,,41208,2021-05-10_16h16.04.414,judgeSpeechMusic_20210407_logNormShiftAmp,2020.1.2,MacIntel,60,,,,,,,,,,,,,,1,5.738155,,0,0,123,123,14,1,stimuli/stim_20210407_power2amp/equal_lnn_AM0.6Hz_20.m4a,,,
,,,,,,,,,,,,41208,2021-05-10_16h16.04.414,judgeSpeechMusic_20210407_logNormShiftAmp,2020.1.2,MacIntel,60,,,,,,,,,,,,,,2,5.752855,,0,0,124,124,108,1,stimuli/stim_20210407_power2amp/equal_lnn_AM4.8Hz_56.m4a,,,
,,,,,,,,,,,,41208,2021-05-10_16h16.04.414,judgeSpeechMusic_20210407_logNormShiftAmp,2020.1.2,MacIntel,60,,,,,,,,,,,,,,2,6.608505,4,1,0,125,125,115,1,stimuli/stim_20210407_power2amp/equal_lnn_AM4.8Hz_42.m4a,3.189975,,
,,,,,,,,,,,,41208,2021-05-10_16h16.04.414,judgeSpeechMusic_20210407_logNormShiftAmp,2020.1.2,MacIntel,60,,,,,,,,,,,,,,1,5.91975,,0,0,126,126,124,1,stimuli/stim_20210407_power2amp/equal_lnn_AM5.4Hz_34.m4a,,,
,,,,,,,,,,,,41208,2021-05-10_16h16.04.414,judgeSpeechMusic_20210407_logNormShiftAmp,2020.1.2,MacIntel,60,,,,,,,,,,,,,,1,5.78447,,0,0,127,127,36,1,stimuli/stim_20210407_power2amp/equal_lnn_AM1.8Hz_40.m4a,,,
,,,,,,,,,,,,41208,2021-05-10_16h16.04.414,judgeSpeechMusic_20210407_logNormShiftAmp,2020.1.2,MacIntel,60,,,,,,,,,,,,,,1,5.718905,,0,0,128,128,3,1,stimuli/stim_20210407_power2amp/equal_lnn_AM0.6Hz_30.m4a,,,
,,,,,,,,,,,,41208,2021-05-10_16h16.04.414,judgeSpeechMusic_20210407_logNormShiftAmp,2020.1.2,MacIntel,60,,,,,,,,,,,,,,1,5.853525,,0,0,129,129,7,1,stimuli/stim_20210407_power2amp/equal_lnn_AM0.6Hz_44.m4a,,,
,,,,,,,,,,,,41208,2021-05-10_16h16.04.414,judgeSpeechMusic_20210407_logNormShiftAmp,2020.1.2,MacIntel,60,,,,,,,,,,,,,,2,6.521955,,0,0,130,130,68,1,stimuli/stim_20210407_power2amp/equal_lnn_AM3Hz_53.m4a,,,
,,,,,,,,,,,,41208,2021-05-10_16h16.04.414,judgeSpeechMusic_20210407_logNormShiftAmp,2020.1.2,MacIntel,60,,,,,,,,,,,,,,2,5.720495,,0,0,131,131,118,1,stimuli/stim_20210407_power2amp/equal_lnn_AM4.8Hz_8.m4a,,,
,,,,,,,,,,,,41208,2021-05-10_16h16.04.414,judgeSpeechMusic_20210407_logNormShiftAmp,2020.1.2,MacIntel,60,,,,,,,,,,,,,,1,7.41004,,0,0,132,132,22,1,stimuli/stim_20210407_power2amp/equal_lnn_AM1.2Hz_16.m4a,,,
,,,,,,,,,,,,41208,2021-05-10_16h16.04.414,judgeSpeechMusic_20210407_logNormShiftAmp,2020.1.2,MacIntel,60,,,,,,,,,,,,,,2,6.152395,,0,0,133,133,128,1,stimuli/stim_20210407_power2amp/equal_lnn_AM5.4Hz_78.m4a,,,
,,,,,,,,,,,,41208,2021-05-10_16h16.04.414,judgeSpeechMusic_20210407_logNormShiftAmp,2020.1.2,MacIntel,60,,,,,,,,,,,,,,1,6.462945,,0,0,134,134,71,1,stimuli/stim_20210407_power2amp/equal_lnn_AM3Hz_17.m4a,,,
,,,,,,,,,,,,41208,2021-05-10_16h16.04.414,judgeSpeechMusic_20210407_logNormShiftAmp,2020.1.2,MacIntel,60,,,,,,,,,,,,,,2,8.435895,,0,0,135,135,135,1,stimuli/stim_20210407_power2amp/equal_lnn_AM6Hz_45.m4a,,,
,,,,,,,,,,,,41208,2021-05-10_16h16.04.414,judgeSpeechMusic_20210407_logNormShiftAmp,2020.1.2,MacIntel,60,,,,,,,,,,,,,,1,7.32626,,0,0,136,136,122,1,stimuli/stim_20210407_power2amp/equal_lnn_AM5.4Hz_62.m4a,,,
,,,,,,,,,,,,41208,2021-05-10_16h16.04.414,judgeSpeechMusic_20210407_logNormShiftAmp,2020.1.2,MacIntel,60,,,,,,,,,,,,,,1,5.788915,,0,0,137,137,138,1,stimuli/stim_20210407_power2amp/equal_lnn_AM6Hz_98.m4a,,,
,,,,,,,,,,,,41208,2021-05-10_16h16.04.414,judgeSpeechMusic_20210407_logNormShiftAmp,2020.1.2,MacIntel,60,,,,,,,,,,,,,,2,6.24387,,0,0,138,138,103,1,stimuli/stim_20210407_power2amp/equal_lnn_AM4.2Hz_29.m4a,,,
,,,,,,,,,,,,41208,2021-05-10_16h16.04.414,judgeSpeechMusic_20210407_logNormShiftAmp,2020.1.2,MacIntel,60,,,,,,,,,,,,,,1,6.50866,,0,0,139,139,86,1,stimuli/stim_20210407_power2amp/equal_lnn_AM3.6Hz_44.m4a,,,
,,,,,,,,,,,,41208,2021-05-10_16h16.04.414,judgeSpeechMusic_20210407_logNormShiftAmp,2020.1.2,MacIntel,60,,,,,,,,,,,,,,1,5.93941,,0,0,140,140,9,1,stimuli/stim_20210407_power2amp/equal_lnn_AM0.6Hz_33.m4a,,,
,,,,,,,,,,,,41208,2021-05-10_16h16.04.414,judgeSpeechMusic_20210407_logNormShiftAmp,2020.1.2,MacIntel,60,,,,,,,,,,,,,,2,5.712935,,0,0,141,141,100,1,stimuli/stim_20210407_power2amp/equal_lnn_AM4.2Hz_51.m4a,,,
,,,,,,,,,,,,41208,2021-05-10_16h16.04.414,judgeSpeechMusic_20210407_logNormShiftAmp,2020.1.2,MacIntel,60,,,,,,,,,,,,,,2,5.772505,,0,0,142,142,142,1,stimuli/stim_20210407_power2amp/equal_lnn_AM6Hz_23.m4a,,,
,,,,,,,,,,,,41208,2021-05-10_16h16.04.414,judgeSpeechMusic_20210407_logNormShiftAmp,2020.1.2,MacIntel,60,,,,,,,,,,,,,,1,5.742815,,0,0,143,143,72,1,stimuli/stim_20210407_power2amp/equal_lnn_AM3Hz_35.m4a,,,
,,,,,,,,,,,,41208,2021-05-10_16h16.04.414,judgeSpeechMusic_20210407_logNormShiftAmp,2020.1.2,MacIntel,60,,,,,,,,,,,,,,1,5.7789,,0,0,144,144,42,1,stimuli/stim_20210407_power2amp/equal_lnn_AM1.8Hz_19.m4a,,,
,,,,,,,,,,,,41208,2021-05-10_16h16.04.414,judgeSpeechMusic_20210407_logNormShiftAmp,2020.1.2,MacIntel,60,,,,,,,,,,,,,,1,5.70743,,0,0,145,145,65,1,stimuli/stim_20210407_power2amp/equal_lnn_AM3Hz_100.m4a,,,
,,,,,,,,,,,,41208,2021-05-10_16h16.04.414,judgeSpeechMusic_20210407_logNormShiftAmp,2020.1.2,MacIntel,60,,,,,,,,,,,,,,1,5.77103,,0,0,146,146,85,1,stimuli/stim_20210407_power2amp/equal_lnn_AM3.6Hz_92.m4a,,,
,,,,,,,,,,,,41208,2021-05-10_16h16.04.414,judgeSpeechMusic_20210407_logNormShiftAmp,2020.1.2,MacIntel,60,,,,,,,,,,,,,,1,6.021705,,0,0,147,147,83,1,stimuli/stim_20210407_power2amp/equal_lnn_AM3.6Hz_76.m4a,,,
,,,,,,,,,,,,41208,2021-05-10_16h16.04.414,judgeSpeechMusic_20210407_logNormShiftAmp,2020.1.2,MacIntel,60,,,,,,,,,,,,,,1,5.9275,4,1,0,148,148,18,1,stimuli/stim_20210407_power2amp/equal_lnn_AM1.2Hz_60.m4a,2.02448,,
,,,,,,,,,,,,41208,2021-05-10_16h16.04.414,judgeSpeechMusic_20210407_logNormShiftAmp,2020.1.2,MacIntel,60,,,,,,,,,,,,,,1,6.67437,,0,0,149,149,17,1,stimuli/stim_20210407_power2amp/equal_lnn_AM1.2Hz_74.m4a,,,
,,,,,,,,,,,,41208,2021-05-10_16h16.04.414,judgeSpeechMusic_20210407_logNormShiftAmp,2020.1.2,MacIntel,60,,,,,,,,,,,,,,2,5.98773,,0,1,0,150,141,1,stimuli/stim_20210407_power2amp/equal_lnn_AM6Hz_97.m4a,,,
,,,,,,,,,,,,41208,2021-05-10_16h16.04.414,judgeSpeechMusic_20210407_logNormShiftAmp,2020.1.2,MacIntel,60,,,,,,,,,,,,,,2,6.055345,,0,1,1,151,91,1,stimuli/stim_20210407_power2amp/equal_lnn_AM4.2Hz_14.m4a,,,
,,,,,,,,,,,,41208,2021-05-10_16h16.04.414,judgeSpeechMusic_20210407_logNormShiftAmp,2020.1.2,MacIntel,60,,,,,,,,,,,,,,1,6.57196,,0,1,2,152,1,1,stimuli/stim_20210407_power2amp/equal_lnn_AM0.6Hz_42.m4a,,,
,,,,,,,,,,,,41208,2021-05-10_16h16.04.414,judgeSpeechMusic_20210407_logNormShiftAmp,2020.1.2,MacIntel,60,,,,,,,,,,,,,,2,5.942175,,0,1,3,153,132,1,stimuli/stim_20210407_power2amp/equal_lnn_AM5.4Hz_36.m4a,,,
,,,,,,,,,,,,41208,2021-05-10_16h16.04.414,judgeSpeechMusic_20210407_logNormShiftAmp,2020.1.2,MacIntel,60,,,,,,,,,,,,,,2,7.43639,,0,1,4,154,86,1,stimuli/stim_20210407_power2amp/equal_lnn_AM3.6Hz_44.m4a,,,
,,,,,,,,,,,,41208,2021-05-10_16h16.04.414,judgeSpeechMusic_20210407_logNormShiftAmp,2020.1.2,MacIntel,60,,,,,,,,,,,,,,2,5.78756,,0,1,5,155,112,1,stimuli/stim_20210407_power2amp/equal_lnn_AM4.8Hz_82.m4a,,,
,,,,,,,,,,,,41208,2021-05-10_16h16.04.414,judgeSpeechMusic_20210407_logNormShiftAmp,2020.1.2,MacIntel,60,,,,,,,,,,,,,,1,5.77206,,0,1,6,156,50,1,stimuli/stim_20210407_power2amp/equal_lnn_AM2.4Hz_52.m4a,,,
,,,,,,,,,,,,41208,2021-05-10_16h16.04.414,judgeSpeechMusic_20210407_logNormShiftAmp,2020.1.2,MacIntel,60,,,,,,,,,,,,,,1,5.702575,,0,1,7,157,101,1,stimuli/stim_20210407_power2amp/equal_lnn_AM4.2Hz_3.m4a,,,
,,,,,,,,,,,,41208,2021-05-10_16h16.04.414,judgeSpeechMusic_20210407_logNormShiftAmp,2020.1.2,MacIntel,60,,,,,,,,,,,,,,1,6.968945,,0,1,8,158,117,1,stimuli/stim_20210407_power2amp/equal_lnn_AM4.8Hz_99.m4a,,,
,,,,,,,,,,,,41208,2021-05-10_16h16.04.414,judgeSpeechMusic_20210407_logNormShiftAmp,2020.1.2,MacIntel,60,,,,,,,,,,,,,,1,5.82115,,0,1,9,159,10,1,stimuli/stim_20210407_power2amp/equal_lnn_AM0.6Hz_68.m4a,,,
,,,,,,,,,,,,41208,2021-05-10_16h16.04.414,judgeSpeechMusic_20210407_logNormShiftAmp,2020.1.2,MacIntel,60,,,,,,,,,,,,,,1,7.256085,,0,1,10,160,49,1,stimuli/stim_20210407_power2amp/equal_lnn_AM2.4Hz_40.m4a,,,
,,,,,,,,,,,,41208,2021-05-10_16h16.04.414,judgeSpeechMusic_20210407_logNormShiftAmp,2020.1.2,MacIntel,60,,,,,,,,,,,,,,2,6.521435,,0,1,11,161,93,1,stimuli/stim_20210407_power2amp/equal_lnn_AM4.2Hz_75.m4a,,,
,,,,,,,,,,,,41208,2021-05-10_16h16.04.414,judgeSpeechMusic_20210407_logNormShiftAmp,2020.1.2,MacIntel,60,,,,,,,,,,,,,,2,5.738185,,0,1,12,162,92,1,stimuli/stim_20210407_power2amp/equal_lnn_AM4.2Hz_43.m4a,,,
,,,,,,,,,,,,41208,2021-05-10_16h16.04.414,judgeSpeechMusic_20210407_logNormShiftAmp,2020.1.2,MacIntel,60,,,,,,,,,,,,,,2,6.505745,,0,1,13,163,102,1,stimuli/stim_20210407_power2amp/equal_lnn_AM4.2Hz_24.m4a,,,
,,,,,,,,,,,,41208,2021-05-10_16h16.04.414,judgeSpeechMusic_20210407_logNormShiftAmp,2020.1.2,MacIntel,60,,,,,,,,,,,,,,2,6.440355,,0,1,14,164,81,1,stimuli/stim_20210407_power2amp/equal_lnn_AM3.6Hz_56.m4a,,,
,,,,,,,,,,,,41208,2021-05-10_16h16.04.414,judgeSpeechMusic_20210407_logNormShiftAmp,2020.1.2,MacIntel,60,,,,,,,,,,,,,,1,6.450445,,0,1,15,165,14,1,stimuli/stim_20210407_power2amp/equal_lnn_AM0.6Hz_20.m4a,,,
,,,,,,,,,,,,41208,2021-05-10_16h16.04.414,judgeSpeechMusic_20210407_logNormShiftAmp,2020.1.2,MacIntel,60,,,,,,,,,,,,,,1,6.03574,,0,1,16,166,70,1,stimuli/stim_20210407_power2amp/equal_lnn_AM3Hz_26.m4a,,,
,,,,,,,,,,,,41208,2021-05-10_16h16.04.414,judgeSpeechMusic_20210407_logNormShiftAmp,2020.1.2,MacIntel,60,,,,,,,,,,,,,,1,7.505125,,0,1,17,167,15,1,stimuli/stim_20210407_power2amp/equal_lnn_AM1.2Hz_87.m4a,,,
,,,,,,,,,,,,41208,2021-05-10_16h16.04.414,judgeSpeechMusic_20210407_logNormShiftAmp,2020.1.2,MacIntel,60,,,,,,,,,,,,,,2,6.20138,3,1,1,18,168,145,1,stimuli/stim_20210407_power2amp/equal_lnn_AM6Hz_2.m4a,1.075385,,
,,,,,,,,,,,,41208,2021-05-10_16h16.04.414,judgeSpeechMusic_20210407_logNormShiftAmp,2020.1.2,MacIntel,60,,,,,,,,,,,,,,2,7.843975,,0,1,19,169,116,1,stimuli/stim_20210407_power2amp/equal_lnn_AM4.8Hz_74.m4a,,,
,,,,,,,,,,,,41208,2021-05-10_16h16.04.414,judgeSpeechMusic_20210407_logNormShiftAmp,2020.1.2,MacIntel,60,,,,,,,,,,,,,,2,6.03034,,0,1,20,170,60,1,stimuli/stim_20210407_power2amp/equal_lnn_AM3Hz_28.m4a,,,
,,,,,,,,,,,,41208,2021-05-10_16h16.04.414,judgeSpeechMusic_20210407_logNormShiftAmp,2020.1.2,MacIntel,60,,,,,,,,,,,,,,1,8.304925,,0,1,21,171,46,1,stimuli/stim_20210407_power2amp/equal_lnn_AM2.4Hz_56.m4a,,,
,,,,,,,,,,,,41208,2021-05-10_16h16.04.414,judgeSpeechMusic_20210407_logNormShiftAmp,2020.1.2,MacIntel,60,,,,,,,,,,,,,,2,5.796925,,0,1,22,172,100,1,stimuli/stim_20210407_power2amp/equal_lnn_AM4.2Hz_51.m4a,,,
,,,,,,,,,,,,41208,2021-05-10_16h16.04.414,judgeSpeechMusic_20210407_logNormShiftAmp,2020.1.2,MacIntel,60,,,,,,,,,,,,,,1,11.555545,,0,1,23,173,28,1,stimuli/stim_20210407_power2amp/equal_lnn_AM1.2Hz_12.m4a,,,
,,,,,,,,,,,,41208,2021-05-10_16h16.04.414,judgeSpeechMusic_20210407_logNormShiftAmp,2020.1.2,MacIntel,60,,,,,,,,,,,,,,1,39.11507,,0,1,24,174,130,1,stimuli/stim_20210407_power2amp/equal_lnn_AM5.4Hz_32.m4a,,,
,,,,,,,,,,,,41208,2021-05-10_16h16.04.414,judgeSpeechMusic_20210407_logNormShiftAmp,2020.1.2,MacIntel,60,,,,,,,,,,,,,,1,5.84555,,0,1,25,175,55,1,stimuli/stim_20210407_power2amp/equal_lnn_AM2.4Hz_12.m4a,,,
,,,,,,,,,,,,41208,2021-05-10_16h16.04.414,judgeSpeechMusic_20210407_logNormShiftAmp,2020.1.2,MacIntel,60,,,,,,,,,,,,,,1,5.924195,,0,1,26,176,17,1,stimuli/stim_20210407_power2amp/equal_lnn_AM1.2Hz_74.m4a,,,
,,,,,,,,,,,,41208,2021-05-10_16h16.04.414,judgeSpeechMusic_20210407_logNormShiftAmp,2020.1.2,MacIntel,60,,,,,,,,,,,,,,1,5.92642,,0,1,27,177,65,1,stimuli/stim_20210407_power2amp/equal_lnn_AM3Hz_100.m4a,,,
,,,,,,,,,,,,41208,2021-05-10_16h16.04.414,judgeSpeechMusic_20210407_logNormShiftAmp,2020.1.2,MacIntel,60,,,,,,,,,,,,,,2,6.055375,,0,1,28,178,136,1,stimuli/stim_20210407_power2amp/equal_lnn_AM6Hz_35.m4a,,,
,,,,,,,,,,,,41208,2021-05-10_16h16.04.414,judgeSpeechMusic_20210407_logNormShiftAmp,2020.1.2,MacIntel,60,,,,,,,,,,,,,,1,6.13018,,0,1,29,179,0,1,stimuli/stim_20210407_power2amp/equal_lnn_AM0.6Hz_51.m4a,,,
,,,,,,,,,,,,41208,2021-05-10_16h16.04.414,judgeSpeechMusic_20210407_logNormShiftAmp,2020.1.2,MacIntel,60,,,,,,,,,,,,,,1,5.90378,,0,1,30,180,21,1,stimuli/stim_20210407_power2amp/equal_lnn_AM1.2Hz_64.m4a,,,
,,,,,,,,,,,,41208,2021-05-10_16h16.04.414,judgeSpeechMusic_20210407_logNormShiftAmp,2020.1.2,MacIntel,60,,,,,,,,,,,,,,2,6.453655,,0,1,31,181,124,1,stimuli/stim_20210407_power2amp/equal_lnn_AM5.4Hz_34.m4a,,,
,,,,,,,,,,,,41208,2021-05-10_16h16.04.414,judgeSpeechMusic_20210407_logNormShiftAmp,2020.1.2,MacIntel,60,,,,,,,,,,,,,,1,5.757375,,0,1,32,182,4,1,stimuli/stim_20210407_power2amp/equal_lnn_AM0.6Hz_21.m4a,,,
,,,,,,,,,,,,41208,2021-05-10_16h16.04.414,judgeSpeechMusic_20210407_logNormShiftAmp,2020.1.2,MacIntel,60,,,,,,,,,,,,,,1,7.955535,,0,1,33,183,120,1,stimuli/stim_20210407_power2amp/equal_lnn_AM5.4Hz_68.m4a,,,
,,,,,,,,,,,,41208,2021-05-10_16h16.04.414,judgeSpeechMusic_20210407_logNormShiftAmp,2020.1.2,MacIntel,60,,,,,,,,,,,,,,1,5.70153,,0,1,34,184,64,1,stimuli/stim_20210407_power2amp/equal_lnn_AM3Hz_24.m4a,,,
,,,,,,,,,,,,41208,2021-05-10_16h16.04.414,judgeSpeechMusic_20210407_logNormShiftAmp,2020.1.2,MacIntel,60,,,,,,,,,,,,,,2,7.270955,,0,1,35,185,110,1,stimuli/stim_20210407_power2amp/equal_lnn_AM4.8Hz_96.m4a,,,
,,,,,,,,,,,,41208,2021-05-10_16h16.04.414,judgeSpeechMusic_20210407_logNormShiftAmp,2020.1.2,MacIntel,60,,,,,,,,,,,,,,1,6.37766,,0,1,36,186,57,1,stimuli/stim_20210407_power2amp/equal_lnn_AM2.4Hz_76.m4a,,,
,,,,,,,,,,,,41208,2021-05-10_16h16.04.414,judgeSpeechMusic_20210407_logNormShiftAmp,2020.1.2,MacIntel,60,,,,,,,,,,,,,,1,6.026615,,0,1,37,187,111,1,stimuli/stim_20210407_power2amp/equal_lnn_AM4.8Hz_94.m4a,,,
,,,,,,,,,,,,41208,2021-05-10_16h16.04.414,judgeSpeechMusic_20210407_logNormShiftAmp,2020.1.2,MacIntel,60,,,,,,,,,,,,,,2,5.95361,,0,1,38,188,105,1,stimuli/stim_20210407_power2amp/equal_lnn_AM4.8Hz_95.m4a,,,
,,,,,,,,,,,,41208,2021-05-10_16h16.04.414,judgeSpeechMusic_20210407_logNormShiftAmp,2020.1.2,MacIntel,60,,,,,,,,,,,,,,1,7.526475,,0,1,39,189,36,1,stimuli/stim_20210407_power2amp/equal_lnn_AM1.8Hz_40.m4a,,,
,,,,,,,,,,,,41208,2021-05-10_16h16.04.414,judgeSpeechMusic_20210407_logNormShiftAmp,2020.1.2,MacIntel,60,,,,,,,,,,,,,,2,7.486895,,0,1,40,190,106,1,stimuli/stim_20210407_power2amp/equal_lnn_AM4.8Hz_86.m4a,,,
,,,,,,,,,,,,41208,2021-05-10_16h16.04.414,judgeSpeechMusic_20210407_logNormShiftAmp,2020.1.2,MacIntel,60,,,,,,,,,,,,,,1,6.23127,1,1,1,41,191,30,1,stimuli/stim_20210407_power2amp/equal_lnn_AM1.8Hz_52.m4a,2.328975,,
,,,,,,,,,,,,41208,2021-05-10_16h16.04.414,judgeSpeechMusic_20210407_logNormShiftAmp,2020.1.2,MacIntel,60,,,,,,,,,,,,,,2,8.319975,,0,1,42,192,135,1,stimuli/stim_20210407_power2amp/equal_lnn_AM6Hz_45.m4a,,,
,,,,,,,,,,,,41208,2021-05-10_16h16.04.414,judgeSpeechMusic_20210407_logNormShiftAmp,2020.1.2,MacIntel,60,,,,,,,,,,,,,,2,6.595105,,0,1,43,193,35,1,stimuli/stim_20210407_power2amp/equal_lnn_AM1.8Hz_23.m4a,,,
,,,,,,,,,,,,41208,2021-05-10_16h16.04.414,judgeSpeechMusic_20210407_logNormShiftAmp,2020.1.2,MacIntel,60,,,,,,,,,,,,,,1,9.719865,,0,1,44,194,6,1,stimuli/stim_20210407_power2amp/equal_lnn_AM0.6Hz_17.m4a,,,
,,,,,,,,,,,,41208,2021-05-10_16h16.04.414,judgeSpeechMusic_20210407_logNormShiftAmp,2020.1.2,MacIntel,60,,,,,,,,,,,,,,2,7.335435,,0,1,45,195,142,1,stimuli/stim_20210407_power2amp/equal_lnn_AM6Hz_23.m4a,,,
,,,,,,,,,,,,41208,2021-05-10_16h16.04.414,judgeSpeechMusic_20210407_logNormShiftAmp,2020.1.2,MacIntel,60,,,,,,,,,,,,,,1,28.06035,,0,1,46,196,44,1,stimuli/stim_20210407_power2amp/equal_lnn_AM1.8Hz_64.m4a,,,
,,,,,,,,,,,,41208,2021-05-10_16h16.04.414,judgeSpeechMusic_20210407_logNormShiftAmp,2020.1.2,MacIntel,60,,,,,,,,,,,,,,1,5.88994,,0,1,47,197,16,1,stimuli/stim_20210407_power2amp/equal_lnn_AM1.2Hz_43.m4a,,,
,,,,,,,,,,,,41208,2021-05-10_16h16.04.414,judgeSpeechMusic_20210407_logNormShiftAmp,2020.1.2,MacIntel,60,,,,,,,,,,,,,,1,5.37366,,0,1,48,198,19,1,stimuli/stim_20210407_power2amp/equal_lnn_AM1.2Hz_14.m4a,,,
,,,,,,,,,,,,41208,2021-05-10_16h16.04.414,judgeSpeechMusic_20210407_logNormShiftAmp,2020.1.2,MacIntel,60,,,,,,,,,,,,,,1,5.22088,,0,1,49,199,84,1,stimuli/stim_20210407_power2amp/equal_lnn_AM3.6Hz_20.m4a,,,
,,,,,,,,,,,,41208,2021-05-10_16h16.04.414,judgeSpeechMusic_20210407_logNormShiftAmp,2020.1.2,MacIntel,60,,,,,,,,,,,,,,1,5.495765,,0,1,50,200,82,1,stimuli/stim_20210407_power2amp/equal_lnn_AM3.6Hz_82.m4a,,,
,,,,,,,,,,,,41208,2021-05-10_16h16.04.414,judgeSpeechMusic_20210407_logNormShiftAmp,2020.1.2,MacIntel,60,,,,,,,,,,,,,,1,6.08741,,0,1,51,201,62,1,stimuli/stim_20210407_power2amp/equal_lnn_AM3Hz_95.m4a,,,
,,,,,,,,,,,,41208,2021-05-10_16h16.04.414,judgeSpeechMusic_20210407_logNormShiftAmp,2020.1.2,MacIntel,60,,,,,,,,,,,,,,1,14.677545,,0,1,52,202,88,1,stimuli/stim_20210407_power2amp/equal_lnn_AM3.6Hz_13.m4a,,,
,,,,,,,,,,,,41208,2021-05-10_16h16.04.414,judgeSpeechMusic_20210407_logNormShiftAmp,2020.1.2,MacIntel,60,,,,,,,,,,,,,,1,5.559025,,0,1,53,203,48,1,stimuli/stim_20210407_power2amp/equal_lnn_AM2.4Hz_11.m4a,,,
,,,,,,,,,,,,41208,2021-05-10_16h16.04.414,judgeSpeechMusic_20210407_logNormShiftAmp,2020.1.2,MacIntel,60,,,,,,,,,,,,,,1,6.102595,,0,1,54,204,52,1,stimuli/stim_20210407_power2amp/equal_lnn_AM2.4Hz_65.m4a,,,
,,,,,,,,,,,,41208,2021-05-10_16h16.04.414,judgeSpeechMusic_20210407_logNormShiftAmp,2020.1.2,MacIntel,60,,,,,,,,,,,,,,1,9.00777,,0,1,55,205,53,1,stimuli/stim_20210407_power2amp/equal_lnn_AM2.4Hz_84.m4a,,,
,,,,,,,,,,,,41208,2021-05-10_16h16.04.414,judgeSpeechMusic_20210407_logNormShiftAmp,2020.1.2,MacIntel,60,,,,,,,,,,,,,,2,6.46281,,0,1,56,206,118,1,stimuli/stim_20210407_power2amp/equal_lnn_AM4.8Hz_8.m4a,,,
,,,,,,,,,,,,41208,2021-05-10_16h16.04.414,judgeSpeechMusic_20210407_logNormShiftAmp,2020.1.2,MacIntel,60,,,,,,,,,,,,,,2,7.08758,,0,1,57,207,147,1,stimuli/stim_20210407_power2amp/equal_lnn_AM6Hz_29.m4a,,,
,,,,,,,,,,,,41208,2021-05-10_16h16.04.414,judgeSpeechMusic_20210407_logNormShiftAmp,2020.1.2,MacIntel,60,,,,,,,,,,,,,,1,6.109475,,0,1,58,208,27,1,stimuli/stim_20210407_power2amp/equal_lnn_AM1.2Hz_90.m4a,,,
,,,,,,,,,,,,41208,2021-05-10_16h16.04.414,judgeSpeechMusic_20210407_logNormShiftAmp,2020.1.2,MacIntel,60,,,,,,,,,,,,,,1,6.82679,,0,1,59,209,113,1,stimuli/stim_20210407_power2amp/equal_lnn_AM4.8Hz_68.m4a,,,
,,,,,,,,,,,,41208,2021-05-10_16h16.04.414,judgeSpeechMusic_20210407_logNormShiftAmp,2020.1.2,MacIntel,60,,,,,,,,,,,,,,1,5.69727,,0,1,60,210,41,1,stimuli/stim_20210407_power2amp/equal_lnn_AM1.8Hz_76.m4a,,,
,,,,,,,,,,,,41208,2021-05-10_16h16.04.414,judgeSpeechMusic_20210407_logNormShiftAmp,2020.1.2,MacIntel,60,,,,,,,,,,,,,,2,6.34155,,0,1,61,211,148,1,stimuli/stim_20210407_power2amp/equal_lnn_AM6Hz_73.m4a,,,
,,,,,,,,,,,,41208,2021-05-10_16h16.04.414,judgeSpeechMusic_20210407_logNormShiftAmp,2020.1.2,MacIntel,60,,,,,,,,,,,,,,1,6.33762,,0,1,62,212,3,1,stimuli/stim_20210407_power2amp/equal_lnn_AM0.6Hz_30.m4a,,,
,,,,,,,,,,,,41208,2021-05-10_16h16.04.414,judgeSpeechMusic_20210407_logNormShiftAmp,2020.1.2,MacIntel,60,,,,,,,,,,,,,,1,7.84457,,0,1,63,213,7,1,stimuli/stim_20210407_power2amp/equal_lnn_AM0.6Hz_44.m4a,,,
,,,,,,,,,,,,41208,2021-05-10_16h16.04.414,judgeSpeechMusic_20210407_logNormShiftAmp,2020.1.2,MacIntel,60,,,,,,,,,,,,,,2,6.59411,4,1,1,64,214,115,1,stimuli/stim_20210407_power2amp/equal_lnn_AM4.8Hz_42.m4a,2.79038,,
,,,,,,,,,,,,41208,2021-05-10_16h16.04.414,judgeSpeechMusic_20210407_logNormShiftAmp,2020.1.2,MacIntel,60,,,,,,,,,,,,,,2,6.255265,,0,1,65,215,89,1,stimuli/stim_20210407_power2amp/equal_lnn_AM3.6Hz_51.m4a,,,
,,,,,,,,,,,,41208,2021-05-10_16h16.04.414,judgeSpeechMusic_20210407_logNormShiftAmp,2020.1.2,MacIntel,60,,,,,,,,,,,,,,2,30.65815,,0,1,66,216,97,1,stimuli/stim_20210407_power2amp/equal_lnn_AM4.2Hz_97.m4a,,,
,,,,,,,,,,,,41208,2021-05-10_16h16.04.414,judgeSpeechMusic_20210407_logNormShiftAmp,2020.1.2,MacIntel,60,,,,,,,,,,,,,,2,5.89175,,0,1,67,217,51,1,stimuli/stim_20210407_power2amp/equal_lnn_AM2.4Hz_7.m4a,,,
,,,,,,,,,,,,41208,2021-05-10_16h16.04.414,judgeSpeechMusic_20210407_logNormShiftAmp,2020.1.2,MacIntel,60,,,,,,,,,,,,,,1,6.691675,,0,1,68,218,8,1,stimuli/stim_20210407_power2amp/equal_lnn_AM0.6Hz_79.m4a,,,
,,,,,,,,,,,,41208,2021-05-10_16h16.04.414,judgeSpeechMusic_20210407_logNormShiftAmp,2020.1.2,MacIntel,60,,,,,,,,,,,,,,1,11.834705,,0,1,69,219,85,1,stimuli/stim_20210407_power2amp/equal_lnn_AM3.6Hz_92.m4a,,,
,,,,,,,,,,,,41208,2021-05-10_16h16.04.414,judgeSpeechMusic_20210407_logNormShiftAmp,2020.1.2,MacIntel,60,,,,,,,,,,,,,,2,6.133865,,0,1,70,220,109,1,stimuli/stim_20210407_power2amp/equal_lnn_AM4.8Hz_31.m4a,,,
,,,,,,,,,,,,41208,2021-05-10_16h16.04.414,judgeSpeechMusic_20210407_logNormShiftAmp,2020.1.2,MacIntel,60,,,,,,,,,,,,,,2,5.623515,,0,1,71,221,131,1,stimuli/stim_20210407_power2amp/equal_lnn_AM5.4Hz_51.m4a,,,
,,,,,,,,,,,,41208,2021-05-10_16h16.04.414,judgeSpeechMusic_20210407_logNormShiftAmp,2020.1.2,MacIntel,60,,,,,,,,,,,,,,2,9.369885,,0,1,72,222,79,1,stimuli/stim_20210407_power2amp/equal_lnn_AM3.6Hz_34.m4a,,,
,,,,,,,,,,,,41208,2021-05-10_16h16.04.414,judgeSpeechMusic_20210407_logNormShiftAmp,2020.1.2,MacIntel,60,,,,,,,,,,,,,,1,6.19011,,0,1,73,223,32,1,stimuli/stim_20210407_power2amp/equal_lnn_AM1.8Hz_94.m4a,,,
,,,,,,,,,,,,41208,2021-05-10_16h16.04.414,judgeSpeechMusic_20210407_logNormShiftAmp,2020.1.2,MacIntel,60,,,,,,,,,,,,,,2,5.83782,,0,1,74,224,149,1,stimuli/stim_20210407_power2amp/equal_lnn_AM6Hz_17.m4a,,,
,,,,,,,,,,,,41208,2021-05-10_16h16.04.414,judgeSpeechMusic_20210407_logNormShiftAmp,2020.1.2,MacIntel,60,,,,,,,,,,,,,,2,5.252905,,0,1,75,225,143,1,stimuli/stim_20210407_power2amp/equal_lnn_AM6Hz_7.m4a,,,
,,,,,,,,,,,,41208,2021-05-10_16h16.04.414,judgeSpeechMusic_20210407_logNormShiftAmp,2020.1.2,MacIntel,60,,,,,,,,,,,,,,2,5.78736,,0,1,76,226,134,1,stimuli/stim_20210407_power2amp/equal_lnn_AM5.4Hz_33.m4a,,,
,,,,,,,,,,,,41208,2021-05-10_16h16.04.414,judgeSpeechMusic_20210407_logNormShiftAmp,2020.1.2,MacIntel,60,,,,,,,,,,,,,,2,6.27003,,0,1,77,227,103,1,stimuli/stim_20210407_power2amp/equal_lnn_AM4.2Hz_29.m4a,,,
,,,,,,,,,,,,41208,2021-05-10_16h16.04.414,judgeSpeechMusic_20210407_logNormShiftAmp,2020.1.2,MacIntel,60,,,,,,,,,,,,,,2,238.87355,,0,1,78,228,56,1,stimuli/stim_20210407_power2amp/equal_lnn_AM2.4Hz_49.m4a,,,
,,,,,,,,,,,,41208,2021-05-10_16h16.04.414,judgeSpeechMusic_20210407_logNormShiftAmp,2020.1.2,MacIntel,60,,,,,,,,,,,,,,2,5.802135,,0,1,79,229,107,1,stimuli/stim_20210407_power2amp/equal_lnn_AM4.8Hz_38.m4a,,,
,,,,,,,,,,,,41208,2021-05-10_16h16.04.414,judgeSpeechMusic_20210407_logNormShiftAmp,2020.1.2,MacIntel,60,,,,,,,,,,,,,,2,7.681175,,0,1,80,230,126,1,stimuli/stim_20210407_power2amp/equal_lnn_AM5.4Hz_83.m4a,,,
,,,,,,,,,,,,41208,2021-05-10_16h16.04.414,judgeSpeechMusic_20210407_logNormShiftAmp,2020.1.2,MacIntel,60,,,,,,,,,,,,,,2,5.704445,,0,1,81,231,87,1,stimuli/stim_20210407_power2amp/equal_lnn_AM3.6Hz_97.m4a,,,
,,,,,,,,,,,,41208,2021-05-10_16h16.04.414,judgeSpeechMusic_20210407_logNormShiftAmp,2020.1.2,MacIntel,60,,,,,,,,,,,,,,2,5.309825,,0,1,82,232,129,1,stimuli/stim_20210407_power2amp/equal_lnn_AM5.4Hz_75.m4a,,,
,,,,,,,,,,,,41208,2021-05-10_16h16.04.414,judgeSpeechMusic_20210407_logNormShiftAmp,2020.1.2,MacIntel,60,,,,,,,,,,,,,,1,6.5049,,0,1,83,233,2,1,stimuli/stim_20210407_power2amp/equal_lnn_AM0.6Hz_31.m4a,,,
,,,,,,,,,,,,41208,2021-05-10_16h16.04.414,judgeSpeechMusic_20210407_logNormShiftAmp,2020.1.2,MacIntel,60,,,,,,,,,,,,,,1,5.25498,,0,1,84,234,72,1,stimuli/stim_20210407_power2amp/equal_lnn_AM3Hz_35.m4a,,,
,,,,,,,,,,,,41208,2021-05-10_16h16.04.414,judgeSpeechMusic_20210407_logNormShiftAmp,2020.1.2,MacIntel,60,,,,,,,,,,,,,,1,5.292235,,0,1,85,235,5,1,stimuli/stim_20210407_power2amp/equal_lnn_AM0.6Hz_46.m4a,,,
,,,,,,,,,,,,41208,2021-05-10_16h16.04.414,judgeSpeechMusic_20210407_logNormShiftAmp,2020.1.2,MacIntel,60,,,,,,,,,,,,,,2,5.30873,,0,1,86,236,80,1,stimuli/stim_20210407_power2amp/equal_lnn_AM3.6Hz_29.m4a,,,
,,,,,,,,,,,,41208,2021-05-10_16h16.04.414,judgeSpeechMusic_20210407_logNormShiftAmp,2020.1.2,MacIntel,60,,,,,,,,,,,,,,2,6.22121,2,1,1,87,237,77,1,stimuli/stim_20210407_power2amp/equal_lnn_AM3.6Hz_95.m4a,1.388925,,
,,,,,,,,,,,,41208,2021-05-10_16h16.04.414,judgeSpeechMusic_20210407_logNormShiftAmp,2020.1.2,MacIntel,60,,,,,,,,,,,,,,2,5.47054,,0,1,88,238,99,1,stimuli/stim_20210407_power2amp/equal_lnn_AM4.2Hz_94.m4a,,,
,,,,,,,,,,,,41208,2021-05-10_16h16.04.414,judgeSpeechMusic_20210407_logNormShiftAmp,2020.1.2,MacIntel,60,,,,,,,,,,,,,,2,5.23867,,0,1,89,239,133,1,stimuli/stim_20210407_power2amp/equal_lnn_AM5.4Hz_50.m4a,,,
,,,,,,,,,,,,41208,2021-05-10_16h16.04.414,judgeSpeechMusic_20210407_logNormShiftAmp,2020.1.2,MacIntel,60,,,,,,,,,,,,,,2,8.38692,,0,1,90,240,31,1,stimuli/stim_20210407_power2amp/equal_lnn_AM1.8Hz_67.m4a,,,
,,,,,,,,,,,,41208,2021-05-10_16h16.04.414,judgeSpeechMusic_20210407_logNormShiftAmp,2020.1.2,MacIntel,60,,,,,,,,,,,,,,1,6.394485,,0,1,91,241,12,1,stimuli/stim_20210407_power2amp/equal_lnn_AM0.6Hz_94.m4a,,,
,,,,,,,,,,,,41208,2021-05-10_16h16.04.414,judgeSpeechMusic_20210407_logNormShiftAmp,2020.1.2,MacIntel,60,,,,,,,,,,,,,,2,7.540055,,0,1,92,242,61,1,stimuli/stim_20210407_power2amp/equal_lnn_AM3Hz_40.m4a,,,
,,,,,,,,,,,,41208,2021-05-10_16h16.04.414,judgeSpeechMusic_20210407_logNormShiftAmp,2020.1.2,MacIntel,60,,,,,,,,,,,,,,2,5.69191,,0,1,93,243,114,1,stimuli/stim_20210407_power2amp/equal_lnn_AM4.8Hz_35.m4a,,,
,,,,,,,,,,,,41208,2021-05-10_16h16.04.414,judgeSpeechMusic_20210407_logNormShiftAmp,2020.1.2,MacIntel,60,,,,,,,,,,,,,,1,6.072525,,0,1,94,244,20,1,stimuli/stim_20210407_power2amp/equal_lnn_AM1.2Hz_25.m4a,,,
,,,,,,,,,,,,41208,2021-05-10_16h16.04.414,judgeSpeechMusic_20210407_logNormShiftAmp,2020.1.2,MacIntel,60,,,,,,,,,,,,,,1,6.08666,,0,1,95,245,67,1,stimuli/stim_20210407_power2amp/equal_lnn_AM3Hz_31.m4a,,,
,,,,,,,,,,,,41208,2021-05-10_16h16.04.414,judgeSpeechMusic_20210407_logNormShiftAmp,2020.1.2,MacIntel,60,,,,,,,,,,,,,,2,9.34014,,0,1,96,246,94,1,stimuli/stim_20210407_power2amp/equal_lnn_AM4.2Hz_40.m4a,,,
,,,,,,,,,,,,41208,2021-05-10_16h16.04.414,judgeSpeechMusic_20210407_logNormShiftAmp,2020.1.2,MacIntel,60,,,,,,,,,,,,,,1,14.009435,,0,1,97,247,138,1,stimuli/stim_20210407_power2amp/equal_lnn_AM6Hz_98.m4a,,,
,,,,,,,,,,,,41208,2021-05-10_16h16.04.414,judgeSpeechMusic_20210407_logNormShiftAmp,2020.1.2,MacIntel,60,,,,,,,,,,,,,,1,7.144385,,0,1,98,248,24,1,stimuli/stim_20210407_power2amp/equal_lnn_AM1.2Hz_85.m4a,,,
,,,,,,,,,,,,41208,2021-05-10_16h16.04.414,judgeSpeechMusic_20210407_logNormShiftAmp,2020.1.2,MacIntel,60,,,,,,,,,,,,,,1,7.004735,,0,1,99,249,23,1,stimuli/stim_20210407_power2amp/equal_lnn_AM1.2Hz_83.m4a,,,
,,,,,,,,,,,,41208,2021-05-10_16h16.04.414,judgeSpeechMusic_20210407_logNormShiftAmp,2020.1.2,MacIntel,60,,,,,,,,,,,,,,1,6.138705,,0,1,100,250,96,1,stimuli/stim_20210407_power2amp/equal_lnn_AM4.2Hz_72.m4a,,,
,,,,,,,,,,,,41208,2021-05-10_16h16.04.414,judgeSpeechMusic_20210407_logNormShiftAmp,2020.1.2,MacIntel,60,,,,,,,,,,,,,,1,7.322845,,0,1,101,251,125,1,stimuli/stim_20210407_power2amp/equal_lnn_AM5.4Hz_23.m4a,,,
,,,,,,,,,,,,41208,2021-05-10_16h16.04.414,judgeSpeechMusic_20210407_logNormShiftAmp,2020.1.2,MacIntel,60,,,,,,,,,,,,,,1,7.58596,,0,1,102,252,29,1,stimuli/stim_20210407_power2amp/equal_lnn_AM1.2Hz_17.m4a,,,
,,,,,,,,,,,,41208,2021-05-10_16h16.04.414,judgeSpeechMusic_20210407_logNormShiftAmp,2020.1.2,MacIntel,60,,,,,,,,,,,,,,2,7.089965,,0,1,103,253,78,1,stimuli/stim_20210407_power2amp/equal_lnn_AM3.6Hz_84.m4a,,,
,,,,,,,,,,,,41208,2021-05-10_16h16.04.414,judgeSpeechMusic_20210407_logNormShiftAmp,2020.1.2,MacIntel,60,,,,,,,,,,,,,,1,7.57334,,0,1,104,254,42,1,stimuli/stim_20210407_power2amp/equal_lnn_AM1.8Hz_19.m4a,,,
,,,,,,,,,,,,41208,2021-05-10_16h16.04.414,judgeSpeechMusic_20210407_logNormShiftAmp,2020.1.2,MacIntel,60,,,,,,,,,,,,,,2,10.603605,,0,1,105,255,127,1,stimuli/stim_20210407_power2amp/equal_lnn_AM5.4Hz_8.m4a,,,
,,,,,,,,,,,,41208,2021-05-10_16h16.04.414,judgeSpeechMusic_20210407_logNormShiftAmp,2020.1.2,MacIntel,60,,,,,,,,,,,,,,1,13.520555,,0,1,106,256,43,1,stimuli/stim_20210407_power2amp/equal_lnn_AM1.8Hz_27.m4a,,,
,,,,,,,,,,,,41208,2021-05-10_16h16.04.414,judgeSpeechMusic_20210407_logNormShiftAmp,2020.1.2,MacIntel,60,,,,,,,,,,,,,,1,6.08801,,0,1,107,257,39,1,stimuli/stim_20210407_power2amp/equal_lnn_AM1.8Hz_73.m4a,,,
,,,,,,,,,,,,41208,2021-05-10_16h16.04.414,judgeSpeechMusic_20210407_logNormShiftAmp,2020.1.2,MacIntel,60,,,,,,,,,,,,,,1,8.209525,,0,1,108,258,9,1,stimuli/stim_20210407_power2amp/equal_lnn_AM0.6Hz_33.m4a,,,
,,,,,,,,,,,,41208,2021-05-10_16h16.04.414,judgeSpeechMusic_20210407_logNormShiftAmp,2020.1.2,MacIntel,60,,,,,,,,,,,,,,1,6.7067,1,1,1,109,259,139,1,stimuli/stim_20210407_power2amp/equal_lnn_AM6Hz_13.m4a,1.55754,,
,,,,,,,,,,,,41208,2021-05-10_16h16.04.414,judgeSpeechMusic_20210407_logNormShiftAmp,2020.1.2,MacIntel,60,,,,,,,,,,,,,,1,5.98499,,0,1,110,260,22,1,stimuli/stim_20210407_power2amp/equal_lnn_AM1.2Hz_16.m4a,,,
,,,,,,,,,,,,41208,2021-05-10_16h16.04.414,judgeSpeechMusic_20210407_logNormShiftAmp,2020.1.2,MacIntel,60,,,,,,,,,,,,,,1,5.519915,,0,1,111,261,26,1,stimuli/stim_20210407_power2amp/equal_lnn_AM1.2Hz_67.m4a,,,
,,,,,,,,,,,,41208,2021-05-10_16h16.04.414,judgeSpeechMusic_20210407_logNormShiftAmp,2020.1.2,MacIntel,60,,,,,,,,,,,,,,1,5.89696,,0,1,112,262,69,1,stimuli/stim_20210407_power2amp/equal_lnn_AM3Hz_21.m4a,,,
,,,,,,,,,,,,41208,2021-05-10_16h16.04.414,judgeSpeechMusic_20210407_logNormShiftAmp,2020.1.2,MacIntel,60,,,,,,,,,,,,,,2,8.120935,,0,1,113,263,108,1,stimuli/stim_20210407_power2amp/equal_lnn_AM4.8Hz_56.m4a,,,
,,,,,,,,,,,,41208,2021-05-10_16h16.04.414,judgeSpeechMusic_20210407_logNormShiftAmp,2020.1.2,MacIntel,60,,,,,,,,,,,,,,2,6.87879,,0,1,114,264,104,1,stimuli/stim_20210407_power2amp/equal_lnn_AM4.2Hz_56.m4a,,,
,,,,,,,,,,,,41208,2021-05-10_16h16.04.414,judgeSpeechMusic_20210407_logNormShiftAmp,2020.1.2,MacIntel,60,,,,,,,,,,,,,,2,7.576735,,0,1,115,265,123,1,stimuli/stim_20210407_power2amp/equal_lnn_AM5.4Hz_96.m4a,,,
,,,,,,,,,,,,41208,2021-05-10_16h16.04.414,judgeSpeechMusic_20210407_logNormShiftAmp,2020.1.2,MacIntel,60,,,,,,,,,,,,,,2,12.02152,,0,1,116,266,71,1,stimuli/stim_20210407_power2amp/equal_lnn_AM3Hz_17.m4a,,,
,,,,,,,,,,,,41208,2021-05-10_16h16.04.414,judgeSpeechMusic_20210407_logNormShiftAmp,2020.1.2,MacIntel,60,,,,,,,,,,,,,,2,14.910025,,0,1,117,267,76,1,stimuli/stim_20210407_power2amp/equal_lnn_AM3.6Hz_37.m4a,,,
,,,,,,,,,,,,41208,2021-05-10_16h16.04.414,judgeSpeechMusic_20210407_logNormShiftAmp,2020.1.2,MacIntel,60,,,,,,,,,,,,,,1,6.43561,,0,1,118,268,59,1,stimuli/stim_20210407_power2amp/equal_lnn_AM2.4Hz_2.m4a,,,
,,,,,,,,,,,,41208,2021-05-10_16h16.04.414,judgeSpeechMusic_20210407_logNormShiftAmp,2020.1.2,MacIntel,60,,,,,,,,,,,,,,1,6.56122,,0,1,119,269,75,1,stimuli/stim_20210407_power2amp/equal_lnn_AM3.6Hz_28.m4a,,,
,,,,,,,,,,,,41208,2021-05-10_16h16.04.414,judgeSpeechMusic_20210407_logNormShiftAmp,2020.1.2,MacIntel,60,,,,,,,,,,,,,,1,6.602575,,0,1,120,270,90,1,stimuli/stim_20210407_power2amp/equal_lnn_AM4.2Hz_41.m4a,,,
,,,,,,,,,,,,41208,2021-05-10_16h16.04.414,judgeSpeechMusic_20210407_logNormShiftAmp,2020.1.2,MacIntel,60,,,,,,,,,,,,,,1,5.486735,,0,1,121,271,68,1,stimuli/stim_20210407_power2amp/equal_lnn_AM3Hz_53.m4a,,,
,,,,,,,,,,,,41208,2021-05-10_16h16.04.414,judgeSpeechMusic_20210407_logNormShiftAmp,2020.1.2,MacIntel,60,,,,,,,,,,,,,,1,6.27184,,0,1,122,272,33,1,stimuli/stim_20210407_power2amp/equal_lnn_AM1.8Hz_45.m4a,,,
,,,,,,,,,,,,41208,2021-05-10_16h16.04.414,judgeSpeechMusic_20210407_logNormShiftAmp,2020.1.2,MacIntel,60,,,,,,,,,,,,,,1,5.82833,,0,1,123,273,54,1,stimuli/stim_20210407_power2amp/equal_lnn_AM2.4Hz_55.m4a,,,
,,,,,,,,,,,,41208,2021-05-10_16h16.04.414,judgeSpeechMusic_20210407_logNormShiftAmp,2020.1.2,MacIntel,60,,,,,,,,,,,,,,1,13.14181,,0,1,124,274,146,1,stimuli/stim_20210407_power2amp/equal_lnn_AM6Hz_27.m4a,,,
,,,,,,,,,,,,41208,2021-05-10_16h16.04.414,judgeSpeechMusic_20210407_logNormShiftAmp,2020.1.2,MacIntel,60,,,,,,,,,,,,,,2,8.805885,,0,1,125,275,140,1,stimuli/stim_20210407_power2amp/equal_lnn_AM6Hz_63.m4a,,,
,,,,,,,,,,,,41208,2021-05-10_16h16.04.414,judgeSpeechMusic_20210407_logNormShiftAmp,2020.1.2,MacIntel,60,,,,,,,,,,,,,,1,6.59591,,0,1,126,276,63,1,stimuli/stim_20210407_power2amp/equal_lnn_AM3Hz_90.m4a,,,
,,,,,,,,,,,,41208,2021-05-10_16h16.04.414,judgeSpeechMusic_20210407_logNormShiftAmp,2020.1.2,MacIntel,60,,,,,,,,,,,,,,1,5.82891,,0,1,127,277,47,1,stimuli/stim_20210407_power2amp/equal_lnn_AM2.4Hz_66.m4a,,,
,,,,,,,,,,,,41208,2021-05-10_16h16.04.414,judgeSpeechMusic_20210407_logNormShiftAmp,2020.1.2,MacIntel,60,,,,,,,,,,,,,,1,5.69495,,0,1,128,278,38,1,stimuli/stim_20210407_power2amp/equal_lnn_AM1.8Hz_47.m4a,,,
,,,,,,,,,,,,41208,2021-05-10_16h16.04.414,judgeSpeechMusic_20210407_logNormShiftAmp,2020.1.2,MacIntel,60,,,,,,,,,,,,,,1,5.94481,,0,1,129,279,13,1,stimuli/stim_20210407_power2amp/equal_lnn_AM0.6Hz_19.m4a,,,
,,,,,,,,,,,,41208,2021-05-10_16h16.04.414,judgeSpeechMusic_20210407_logNormShiftAmp,2020.1.2,MacIntel,60,,,,,,,,,,,,,,1,6.330485,,0,1,130,280,18,1,stimuli/stim_20210407_power2amp/equal_lnn_AM1.2Hz_60.m4a,,,
,,,,,,,,,,,,41208,2021-05-10_16h16.04.414,judgeSpeechMusic_20210407_logNormShiftAmp,2020.1.2,MacIntel,60,,,,,,,,,,,,,,1,6.219895,2,1,1,131,281,11,1,stimuli/stim_20210407_power2amp/equal_lnn_AM0.6Hz_45.m4a,1.414515,,
,,,,,,,,,,,,41208,2021-05-10_16h16.04.414,judgeSpeechMusic_20210407_logNormShiftAmp,2020.1.2,MacIntel,60,,,,,,,,,,,,,,1,7.63954,,0,1,132,282,121,1,stimuli/stim_20210407_power2amp/equal_lnn_AM5.4Hz_86.m4a,,,
,,,,,,,,,,,,41208,2021-05-10_16h16.04.414,judgeSpeechMusic_20210407_logNormShiftAmp,2020.1.2,MacIntel,60,,,,,,,,,,,,,,1,10.70975,,0,1,133,283,37,1,stimuli/stim_20210407_power2amp/equal_lnn_AM1.8Hz_30.m4a,,,
,,,,,,,,,,,,41208,2021-05-10_16h16.04.414,judgeSpeechMusic_20210407_logNormShiftAmp,2020.1.2,MacIntel,60,,,,,,,,,,,,,,1,51.257305,,0,1,134,284,128,1,stimuli/stim_20210407_power2amp/equal_lnn_AM5.4Hz_78.m4a,,,
,,,,,,,,,,,,41208,2021-05-10_16h16.04.414,judgeSpeechMusic_20210407_logNormShiftAmp,2020.1.2,MacIntel,60,,,,,,,,,,,,,,1,6.91825,,0,1,135,285,119,1,stimuli/stim_20210407_power2amp/equal_lnn_AM4.8Hz_12.m4a,,,
,,,,,,,,,,,,41208,2021-05-10_16h16.04.414,judgeSpeechMusic_20210407_logNormShiftAmp,2020.1.2,MacIntel,60,,,,,,,,,,,,,,1,6.09108,,0,1,136,286,66,1,stimuli/stim_20210407_power2amp/equal_lnn_AM3Hz_7.m4a,,,
,,,,,,,,,,,,41208,2021-05-10_16h16.04.414,judgeSpeechMusic_20210407_logNormShiftAmp,2020.1.2,MacIntel,60,,,,,,,,,,,,,,1,6.131205,,0,1,137,287,95,1,stimuli/stim_20210407_power2amp/equal_lnn_AM4.2Hz_39.m4a,,,
,,,,,,,,,,,,41208,2021-05-10_16h16.04.414,judgeSpeechMusic_20210407_logNormShiftAmp,2020.1.2,MacIntel,60,,,,,,,,,,,,,,1,6.38631,,0,1,138,288,45,1,stimuli/stim_20210407_power2amp/equal_lnn_AM2.4Hz_35.m4a,,,
,,,,,,,,,,,,41208,2021-05-10_16h16.04.414,judgeSpeechMusic_20210407_logNormShiftAmp,2020.1.2,MacIntel,60,,,,,,,,,,,,,,1,66.076825,,0,1,139,289,25,1,stimuli/stim_20210407_power2amp/equal_lnn_AM1.2Hz_65.m4a,,,
,,,,,,,,,,,,41208,2021-05-10_16h16.04.414,judgeSpeechMusic_20210407_logNormShiftAmp,2020.1.2,MacIntel,60,,,,,,,,,,,,,,1,5.572995,,0,1,140,290,83,1,stimuli/stim_20210407_power2amp/equal_lnn_AM3.6Hz_76.m4a,,,
,,,,,,,,,,,,41208,2021-05-10_16h16.04.414,judgeSpeechMusic_20210407_logNormShiftAmp,2020.1.2,MacIntel,60,,,,,,,,,,,,,,2,6.1775,,0,1,141,291,122,1,stimuli/stim_20210407_power2amp/equal_lnn_AM5.4Hz_62.m4a,,,
,,,,,,,,,,,,41208,2021-05-10_16h16.04.414,judgeSpeechMusic_20210407_logNormShiftAmp,2020.1.2,MacIntel,60,,,,,,,,,,,,,,2,5.72881,,0,1,142,292,74,1,stimuli/stim_20210407_power2amp/equal_lnn_AM3Hz_86.m4a,,,
,,,,,,,,,,,,41208,2021-05-10_16h16.04.414,judgeSpeechMusic_20210407_logNormShiftAmp,2020.1.2,MacIntel,60,,,,,,,,,,,,,,2,5.91166,,0,1,143,293,137,1,stimuli/stim_20210407_power2amp/equal_lnn_AM6Hz_94.m4a,,,
,,,,,,,,,,,,41208,2021-05-10_16h16.04.414,judgeSpeechMusic_20210407_logNormShiftAmp,2020.1.2,MacIntel,60,,,,,,,,,,,,,,2,31.315625,,0,1,144,294,73,1,stimuli/stim_20210407_power2amp/equal_lnn_AM3Hz_97.m4a,,,
,,,,,,,,,,,,41208,2021-05-10_16h16.04.414,judgeSpeechMusic_20210407_logNormShiftAmp,2020.1.2,MacIntel,60,,,,,,,,,,,,,,1,6.22075,,0,1,145,295,144,1,stimuli/stim_20210407_power2amp/equal_lnn_AM6Hz_95.m4a,,,
,,,,,,,,,,,,41208,2021-05-10_16h16.04.414,judgeSpeechMusic_20210407_logNormShiftAmp,2020.1.2,MacIntel,60,,,,,,,,,,,,,,1,5.91904,,0,1,146,296,34,1,stimuli/stim_20210407_power2amp/equal_lnn_AM1.8Hz_58.m4a,,,
,,,,,,,,,,,,41208,2021-05-10_16h16.04.414,judgeSpeechMusic_20210407_logNormShiftAmp,2020.1.2,MacIntel,60,,,,,,,,,,,,,,1,7.155395,,0,1,147,297,58,1,stimuli/stim_20210407_power2amp/equal_lnn_AM2.4Hz_60.m4a,,,
,,,,,,,,,,,,41208,2021-05-10_16h16.04.414,judgeSpeechMusic_20210407_logNormShiftAmp,2020.1.2,MacIntel,60,,,,,,,,,,,,,,2,5.83801,,0,1,148,298,98,1,stimuli/stim_20210407_power2amp/equal_lnn_AM4.2Hz_47.m4a,,,
,,,,,,,,,,,,41208,2021-05-10_16h16.04.414,judgeSpeechMusic_20210407_logNormShiftAmp,2020.1.2,MacIntel,60,,,,,,,,,,,,,,1,7.604145,,0,1,149,299,40,1,stimuli/stim_20210407_power2amp/equal_lnn_AM1.8Hz_7.m4a,,,
,,,,,,,,,,,,41208,2021-05-10_16h16.04.414,judgeSpeechMusic_20210407_logNormShiftAmp,2020.1.2,MacIntel,60,,,,,,,,,,,,,,,,,,,,,,,,,space,13.14001
