volAdjustRep.thisRepN,volAdjustRep.thisTrialN,volAdjustRep.thisN,volAdjustRep.thisIndex,volAdjustRep.ran,participant,date,expName,psychopyVersion,OS,frameRate,headphoneResponse.keys,headphoneResponse.corr,headphoneResponse.rt,headphoneTrial.thisRepN,headphoneTrial.thisTrialN,headphoneTrial.thisN,headphoneTrial.thisIndex,headphoneTrial.ran,headphone_sound1,headphone_sound2,headphone_sound3,corrAns,checkInstruKey.keys,checkInstruKey.rt,trainSlider.response,trainSlider.rt,beepTrainResponse.keys,beepTrainResponse.corr,trainingTrials.thisRepN,trainingTrials.thisTrialN,trainingTrials.thisN,trainingTrials.thisIndex,trainingTrials.ran,trainAudioFile,beepTrainResponse.rt,readyReal_resp.keys,readyReal_resp.rt,checkInstru2_key.keys,checkInstru2_key.rt,ratingSlider.response,ratingSlider.rt,beepResp.keys,beepResp.corr,expTrials.thisRepN,expTrials.thisTrialN,expTrials.thisN,expTrials.thisIndex,expTrials.ran,audioFile,beepResp.rt,switchBlock_space.keys,switchBlock_space.rt,block.thisRepN,block.thisTrialN,block.thisN,block.thisIndex,block.ran,blockName,blockImage,end_resp.keys,end_resp.rt
0,0,0,0,1,39600,2021-09-28_14h10.13.354,judgeSpeechMusic_20210921_logNormShiftAmp_detection_fixS,2020.1.2,Win32,60,,,,,,,,,,,,,,,,,,,,,,,,,,,,,,,,,,,,,,,,,,,,,,,,,,,
,,,,,39600,2021-09-28_14h10.13.354,judgeSpeechMusic_20210921_logNormShiftAmp_detection_fixS,2020.1.2,Win32,60,1,1,2.288699997,0,0,0,4,1,stimuli/screen_quiet.wav,stimuli/screen_antiphase.wav,stimuli/screen_origin.wav,1,,,,,,,,,,,,,,,,,,,,,,,,,,,,,,,,,,,,,,,
,,,,,39600,2021-09-28_14h10.13.354,judgeSpeechMusic_20210921_logNormShiftAmp_detection_fixS,2020.1.2,Win32,60,1,1,2.706299999,0,1,1,5,1,stimuli/screen_quiet.wav,stimuli/screen_origin.wav,stimuli/screen_antiphase.wav,1,,,,,,,,,,,,,,,,,,,,,,,,,,,,,,,,,,,,,,,
,,,,,39600,2021-09-28_14h10.13.354,judgeSpeechMusic_20210921_logNormShiftAmp_detection_fixS,2020.1.2,Win32,60,2,1,0.451200001,0,2,2,3,1,stimuli/screen_origin.wav,stimuli/screen_quiet.wav,stimuli/screen_antiphase.wav,2,,,,,,,,,,,,,,,,,,,,,,,,,,,,,,,,,,,,,,,
,,,,,39600,2021-09-28_14h10.13.354,judgeSpeechMusic_20210921_logNormShiftAmp_detection_fixS,2020.1.2,Win32,60,3,1,0.425700001,0,3,3,2,1,stimuli/screen_origin.wav,stimuli/screen_antiphase.wav,stimuli/screen_quiet.wav,3,,,,,,,,,,,,,,,,,,,,,,,,,,,,,,,,,,,,,,,
,,,,,39600,2021-09-28_14h10.13.354,judgeSpeechMusic_20210921_logNormShiftAmp_detection_fixS,2020.1.2,Win32,60,3,1,0.477299999,0,4,4,0,1,stimuli/screen_antiphase.wav,stimuli/screen_origin.wav,stimuli/screen_quiet.wav,3,,,,,,,,,,,,,,,,,,,,,,,,,,,,,,,,,,,,,,,
,,,,,39600,2021-09-28_14h10.13.354,judgeSpeechMusic_20210921_logNormShiftAmp_detection_fixS,2020.1.2,Win32,60,2,1,0.441700001,0,5,5,1,1,stimuli/screen_antiphase.wav,stimuli/screen_quiet.wav,stimuli/screen_origin.wav,2,,,,,,,,,,,,,,,,,,,,,,,,,,,,,,,,,,,,,,,
,,,,,39600,2021-09-28_14h10.13.354,judgeSpeechMusic_20210921_logNormShiftAmp_detection_fixS,2020.1.2,Win32,60,,,,,,,,,,,,,space,1.389299999,1,8.418300003,,0,0,0,0,3,1,stimuli/stim_20210706_power2amp/equal_lnn_AM_training3.9Hz_s35.m4a,,,,,,,,,,,,,,,,,,,,,,,,,,,
,,,,,39600,2021-09-28_14h10.13.354,judgeSpeechMusic_20210921_logNormShiftAmp_detection_fixS,2020.1.2,Win32,60,,,,,,,,,,,,,,,1,8.943,,0,0,1,1,2,1,stimuli/stim_20210706_power2amp/equal_lnn_AM_training3Hz_s35.m4a,,,,,,,,,,,,,,,,,,,,,,,,,,,
,,,,,39600,2021-09-28_14h10.13.354,judgeSpeechMusic_20210921_logNormShiftAmp_detection_fixS,2020.1.2,Win32,60,,,,,,,,,,,,,,,1,6.966900002,1,1,0,2,2,0,1,stimuli/stim_20210706_power2amp/equal_lnn_AM_training0.9Hz_s35.m4a,1.6285,,,,,,,,,,,,,,,,,,,,,,,,,,
,,,,,39600,2021-09-28_14h10.13.354,judgeSpeechMusic_20210921_logNormShiftAmp_detection_fixS,2020.1.2,Win32,60,,,,,,,,,,,,,,,1,7.190400002,,0,0,3,3,1,1,stimuli/stim_20210706_power2amp/equal_lnn_AM_training1.8Hz_s35.m4a,,,,,,,,,,,,,,,,,,,,,,,,,,,
,,,,,39600,2021-09-28_14h10.13.354,judgeSpeechMusic_20210921_logNormShiftAmp_detection_fixS,2020.1.2,Win32,60,,,,,,,,,,,,,,,,,,,,,,,,,,space,4.205,space,1.083700001,1,6.436899998,,0,0,0,0,56,1,stimuli/stim_20210706_power2amp/equal_lnn_AM3.6Hz_s35_12.m4a,,,,,,,,,,,,
,,,,,39600,2021-09-28_14h10.13.354,judgeSpeechMusic_20210921_logNormShiftAmp_detection_fixS,2020.1.2,Win32,60,,,,,,,,,,,,,,,,,,,,,,,,,,,,,,1,6.382900002,,0,0,1,1,9,1,stimuli/stim_20210706_power2amp/equal_lnn_AM0.6Hz_s35_12.m4a,,,,,,,,,,,,
,,,,,39600,2021-09-28_14h10.13.354,judgeSpeechMusic_20210921_logNormShiftAmp_detection_fixS,2020.1.2,Win32,60,,,,,,,,,,,,,,,,,,,,,,,,,,,,,,1,6.866100002,,0,0,2,2,72,1,stimuli/stim_20210706_power2amp/equal_lnn_AM4.2Hz_s35_8.m4a,,,,,,,,,,,,
,,,,,39600,2021-09-28_14h10.13.354,judgeSpeechMusic_20210921_logNormShiftAmp_detection_fixS,2020.1.2,Win32,60,,,,,,,,,,,,,,,,,,,,,,,,,,,,,,2,6.448399998,,0,0,3,3,52,1,stimuli/stim_20210706_power2amp/equal_lnn_AM3.6Hz_s35_26.m4a,,,,,,,,,,,,
,,,,,39600,2021-09-28_14h10.13.354,judgeSpeechMusic_20210921_logNormShiftAmp_detection_fixS,2020.1.2,Win32,60,,,,,,,,,,,,,,,,,,,,,,,,,,,,,,2,6.198599998,,0,0,4,4,38,1,stimuli/stim_20210706_power2amp/equal_lnn_AM2.4Hz_s35_16.m4a,,,,,,,,,,,,
,,,,,39600,2021-09-28_14h10.13.354,judgeSpeechMusic_20210921_logNormShiftAmp_detection_fixS,2020.1.2,Win32,60,,,,,,,,,,,,,,,,,,,,,,,,,,,,,,2,6.0665,,0,0,5,5,40,1,stimuli/stim_20210706_power2amp/equal_lnn_AM2.4Hz_s35_15.m4a,,,,,,,,,,,,
,,,,,39600,2021-09-28_14h10.13.354,judgeSpeechMusic_20210921_logNormShiftAmp_detection_fixS,2020.1.2,Win32,60,,,,,,,,,,,,,,,,,,,,,,,,,,,,,,2,6.365899998,,0,0,6,6,16,1,stimuli/stim_20210706_power2amp/equal_lnn_AM1.2Hz_s35_19.m4a,,,,,,,,,,,,
,,,,,39600,2021-09-28_14h10.13.354,judgeSpeechMusic_20210921_logNormShiftAmp_detection_fixS,2020.1.2,Win32,60,,,,,,,,,,,,,,,,,,,,,,,,,,,,,,1,6.431700001,,0,0,7,7,26,1,stimuli/stim_20210706_power2amp/equal_lnn_AM1.2Hz_s35_12.m4a,,,,,,,,,,,,
,,,,,39600,2021-09-28_14h10.13.354,judgeSpeechMusic_20210921_logNormShiftAmp_detection_fixS,2020.1.2,Win32,60,,,,,,,,,,,,,,,,,,,,,,,,,,,,,,2,6.564799999,,0,0,8,8,41,1,stimuli/stim_20210706_power2amp/equal_lnn_AM2.4Hz_s35_35.m4a,,,,,,,,,,,,
,,,,,39600,2021-09-28_14h10.13.354,judgeSpeechMusic_20210921_logNormShiftAmp_detection_fixS,2020.1.2,Win32,60,,,,,,,,,,,,,,,,,,,,,,,,,,,,,,1,6.290599998,,0,0,9,9,17,1,stimuli/stim_20210706_power2amp/equal_lnn_AM1.2Hz_s35_10.m4a,,,,,,,,,,,,
,,,,,39600,2021-09-28_14h10.13.354,judgeSpeechMusic_20210921_logNormShiftAmp_detection_fixS,2020.1.2,Win32,60,,,,,,,,,,,,,,,,,,,,,,,,,,,,,,2,6.084,,0,0,10,10,71,1,stimuli/stim_20210706_power2amp/equal_lnn_AM4.2Hz_s35_37.m4a,,,,,,,,,,,,
,,,,,39600,2021-09-28_14h10.13.354,judgeSpeechMusic_20210921_logNormShiftAmp_detection_fixS,2020.1.2,Win32,60,,,,,,,,,,,,,,,,,,,,,,,,,,,,,,1,8.023299999,,0,0,11,11,29,1,stimuli/stim_20210706_power2amp/equal_lnn_AM1.2Hz_s35_25.m4a,,,,,,,,,,,,
,,,,,39600,2021-09-28_14h10.13.354,judgeSpeechMusic_20210921_logNormShiftAmp_detection_fixS,2020.1.2,Win32,60,,,,,,,,,,,,,,,,,,,,,,,,,,,,,,2,6.207299999,,0,0,12,12,31,1,stimuli/stim_20210706_power2amp/equal_lnn_AM2.4Hz_s35_10.m4a,,,,,,,,,,,,
,,,,,39600,2021-09-28_14h10.13.354,judgeSpeechMusic_20210921_logNormShiftAmp_detection_fixS,2020.1.2,Win32,60,,,,,,,,,,,,,,,,,,,,,,,,,,,,,,2,5.774,,0,0,13,13,36,1,stimuli/stim_20210706_power2amp/equal_lnn_AM2.4Hz_s35_21.m4a,,,,,,,,,,,,
,,,,,39600,2021-09-28_14h10.13.354,judgeSpeechMusic_20210921_logNormShiftAmp_detection_fixS,2020.1.2,Win32,60,,,,,,,,,,,,,,,,,,,,,,,,,,,,,,2,6.629299999,,0,0,14,14,64,1,stimuli/stim_20210706_power2amp/equal_lnn_AM4.2Hz_s35_34.m4a,,,,,,,,,,,,
,,,,,39600,2021-09-28_14h10.13.354,judgeSpeechMusic_20210921_logNormShiftAmp_detection_fixS,2020.1.2,Win32,60,,,,,,,,,,,,,,,,,,,,,,,,,,,,,,1,6.642799999,,0,0,15,15,1,1,stimuli/stim_20210706_power2amp/equal_lnn_AM0.6Hz_s35_13.m4a,,,,,,,,,,,,
,,,,,39600,2021-09-28_14h10.13.354,judgeSpeechMusic_20210921_logNormShiftAmp_detection_fixS,2020.1.2,Win32,60,,,,,,,,,,,,,,,,,,,,,,,,,,,,,,1,5.981100002,,0,0,16,16,7,1,stimuli/stim_20210706_power2amp/equal_lnn_AM0.6Hz_s35_21.m4a,,,,,,,,,,,,
,,,,,39600,2021-09-28_14h10.13.354,judgeSpeechMusic_20210921_logNormShiftAmp_detection_fixS,2020.1.2,Win32,60,,,,,,,,,,,,,,,,,,,,,,,,,,,,,,2,6.682699997,,0,0,17,17,74,1,stimuli/stim_20210706_power2amp/equal_lnn_AM4.2Hz_s35_44.m4a,,,,,,,,,,,,
,,,,,39600,2021-09-28_14h10.13.354,judgeSpeechMusic_20210921_logNormShiftAmp_detection_fixS,2020.1.2,Win32,60,,,,,,,,,,,,,,,,,,,,,,,,,,,,,,2,6.481600002,,0,0,18,18,59,1,stimuli/stim_20210706_power2amp/equal_lnn_AM3.6Hz_s35_25.m4a,,,,,,,,,,,,
,,,,,39600,2021-09-28_14h10.13.354,judgeSpeechMusic_20210921_logNormShiftAmp_detection_fixS,2020.1.2,Win32,60,,,,,,,,,,,,,,,,,,,,,,,,,,,,,,1,6.494299999,,0,0,19,19,22,1,stimuli/stim_20210706_power2amp/equal_lnn_AM1.2Hz_s35_15.m4a,,,,,,,,,,,,
,,,,,39600,2021-09-28_14h10.13.354,judgeSpeechMusic_20210921_logNormShiftAmp_detection_fixS,2020.1.2,Win32,60,,,,,,,,,,,,,,,,,,,,,,,,,,,,,,2,6.625700001,3,1,0,20,20,66,1,stimuli/stim_20210706_power2amp/equal_lnn_AM4.2Hz_s35_12.m4a,0.768400002,,,,,,,,,,,
,,,,,39600,2021-09-28_14h10.13.354,judgeSpeechMusic_20210921_logNormShiftAmp_detection_fixS,2020.1.2,Win32,60,,,,,,,,,,,,,,,,,,,,,,,,,,,,,,1,7.415599998,,0,0,21,21,25,1,stimuli/stim_20210706_power2amp/equal_lnn_AM1.2Hz_s35_8.m4a,,,,,,,,,,,,
,,,,,39600,2021-09-28_14h10.13.354,judgeSpeechMusic_20210921_logNormShiftAmp_detection_fixS,2020.1.2,Win32,60,,,,,,,,,,,,,,,,,,,,,,,,,,,,,,1,6.166799999,,0,0,22,22,12,1,stimuli/stim_20210706_power2amp/equal_lnn_AM0.6Hz_s35_44.m4a,,,,,,,,,,,,
,,,,,39600,2021-09-28_14h10.13.354,judgeSpeechMusic_20210921_logNormShiftAmp_detection_fixS,2020.1.2,Win32,60,,,,,,,,,,,,,,,,,,,,,,,,,,,,,,1,8.608199997,,0,0,23,23,2,1,stimuli/stim_20210706_power2amp/equal_lnn_AM0.6Hz_s35_17.m4a,,,,,,,,,,,,
,,,,,39600,2021-09-28_14h10.13.354,judgeSpeechMusic_20210921_logNormShiftAmp_detection_fixS,2020.1.2,Win32,60,,,,,,,,,,,,,,,,,,,,,,,,,,,,,,2,7.3625,,0,0,24,24,37,1,stimuli/stim_20210706_power2amp/equal_lnn_AM2.4Hz_s35_2.m4a,,,,,,,,,,,,
,,,,,39600,2021-09-28_14h10.13.354,judgeSpeechMusic_20210921_logNormShiftAmp_detection_fixS,2020.1.2,Win32,60,,,,,,,,,,,,,,,,,,,,,,,,,,,,,,1,6.396600002,,0,0,25,25,67,1,stimuli/stim_20210706_power2amp/equal_lnn_AM4.2Hz_s35_41.m4a,,,,,,,,,,,,
,,,,,39600,2021-09-28_14h10.13.354,judgeSpeechMusic_20210921_logNormShiftAmp_detection_fixS,2020.1.2,Win32,60,,,,,,,,,,,,,,,,,,,,,,,,,,,,,,2,7.461300003,,0,0,26,26,19,1,stimuli/stim_20210706_power2amp/equal_lnn_AM1.2Hz_s35_20.m4a,,,,,,,,,,,,
,,,,,39600,2021-09-28_14h10.13.354,judgeSpeechMusic_20210921_logNormShiftAmp_detection_fixS,2020.1.2,Win32,60,,,,,,,,,,,,,,,,,,,,,,,,,,,,,,2,7.363099998,,0,0,27,27,33,1,stimuli/stim_20210706_power2amp/equal_lnn_AM2.4Hz_s35_30.m4a,,,,,,,,,,,,
,,,,,39600,2021-09-28_14h10.13.354,judgeSpeechMusic_20210921_logNormShiftAmp_detection_fixS,2020.1.2,Win32,60,,,,,,,,,,,,,,,,,,,,,,,,,,,,,,1,7.159600002,,0,0,28,28,11,1,stimuli/stim_20210706_power2amp/equal_lnn_AM0.6Hz_s35_22.m4a,,,,,,,,,,,,
,,,,,39600,2021-09-28_14h10.13.354,judgeSpeechMusic_20210921_logNormShiftAmp_detection_fixS,2020.1.2,Win32,60,,,,,,,,,,,,,,,,,,,,,,,,,,,,,,1,7.391900002,,0,0,29,29,49,1,stimuli/stim_20210706_power2amp/equal_lnn_AM3.6Hz_s35_37.m4a,,,,,,,,,,,,
,,,,,39600,2021-09-28_14h10.13.354,judgeSpeechMusic_20210921_logNormShiftAmp_detection_fixS,2020.1.2,Win32,60,,,,,,,,,,,,,,,,,,,,,,,,,,,,,,2,6.063599998,,0,0,30,30,68,1,stimuli/stim_20210706_power2amp/equal_lnn_AM4.2Hz_s35_50.m4a,,,,,,,,,,,,
,,,,,39600,2021-09-28_14h10.13.354,judgeSpeechMusic_20210921_logNormShiftAmp_detection_fixS,2020.1.2,Win32,60,,,,,,,,,,,,,,,,,,,,,,,,,,,,,,2,5.7525,,0,0,31,31,60,1,stimuli/stim_20210706_power2amp/equal_lnn_AM4.2Hz_s35_7.m4a,,,,,,,,,,,,
,,,,,39600,2021-09-28_14h10.13.354,judgeSpeechMusic_20210921_logNormShiftAmp_detection_fixS,2020.1.2,Win32,60,,,,,,,,,,,,,,,,,,,,,,,,,,,,,,1,6.28,,0,0,32,32,27,1,stimuli/stim_20210706_power2amp/equal_lnn_AM1.2Hz_s35_29.m4a,,,,,,,,,,,,
,,,,,39600,2021-09-28_14h10.13.354,judgeSpeechMusic_20210921_logNormShiftAmp_detection_fixS,2020.1.2,Win32,60,,,,,,,,,,,,,,,,,,,,,,,,,,,,,,2,6.571900002,,0,0,33,33,63,1,stimuli/stim_20210706_power2amp/equal_lnn_AM4.2Hz_s35_2.m4a,,,,,,,,,,,,
,,,,,39600,2021-09-28_14h10.13.354,judgeSpeechMusic_20210921_logNormShiftAmp_detection_fixS,2020.1.2,Win32,60,,,,,,,,,,,,,,,,,,,,,,,,,,,,,,1,6.458699997,,0,0,34,34,18,1,stimuli/stim_20210706_power2amp/equal_lnn_AM1.2Hz_s35_45.m4a,,,,,,,,,,,,
,,,,,39600,2021-09-28_14h10.13.354,judgeSpeechMusic_20210921_logNormShiftAmp_detection_fixS,2020.1.2,Win32,60,,,,,,,,,,,,,,,,,,,,,,,,,,,,,,1,6.575399998,,0,0,35,35,20,1,stimuli/stim_20210706_power2amp/equal_lnn_AM1.2Hz_s35_24.m4a,,,,,,,,,,,,
,,,,,39600,2021-09-28_14h10.13.354,judgeSpeechMusic_20210921_logNormShiftAmp_detection_fixS,2020.1.2,Win32,60,,,,,,,,,,,,,,,,,,,,,,,,,,,,,,1,6.317200001,,0,0,36,36,3,1,stimuli/stim_20210706_power2amp/equal_lnn_AM0.6Hz_s35_8.m4a,,,,,,,,,,,,
,,,,,39600,2021-09-28_14h10.13.354,judgeSpeechMusic_20210921_logNormShiftAmp_detection_fixS,2020.1.2,Win32,60,,,,,,,,,,,,,,,,,,,,,,,,,,,,,,2,7.287200001,,0,0,37,37,51,1,stimuli/stim_20210706_power2amp/equal_lnn_AM3.6Hz_s35_36.m4a,,,,,,,,,,,,
,,,,,39600,2021-09-28_14h10.13.354,judgeSpeechMusic_20210921_logNormShiftAmp_detection_fixS,2020.1.2,Win32,60,,,,,,,,,,,,,,,,,,,,,,,,,,,,,,2,5.772299999,,0,0,38,38,46,1,stimuli/stim_20210706_power2amp/equal_lnn_AM3.6Hz_s35_9.m4a,,,,,,,,,,,,
,,,,,39600,2021-09-28_14h10.13.354,judgeSpeechMusic_20210921_logNormShiftAmp_detection_fixS,2020.1.2,Win32,60,,,,,,,,,,,,,,,,,,,,,,,,,,,,,,2,5.838599998,,0,0,39,39,48,1,stimuli/stim_20210706_power2amp/equal_lnn_AM3.6Hz_s35_10.m4a,,,,,,,,,,,,
,,,,,39600,2021-09-28_14h10.13.354,judgeSpeechMusic_20210921_logNormShiftAmp_detection_fixS,2020.1.2,Win32,60,,,,,,,,,,,,,,,,,,,,,,,,,,,,,,1,6.419200001,2,1,0,40,40,21,1,stimuli/stim_20210706_power2amp/equal_lnn_AM1.2Hz_s35_9.m4a,0.432799999,,,,,,,,,,,
,,,,,39600,2021-09-28_14h10.13.354,judgeSpeechMusic_20210921_logNormShiftAmp_detection_fixS,2020.1.2,Win32,60,,,,,,,,,,,,,,,,,,,,,,,,,,,,,,2,6.116700001,,0,0,41,41,47,1,stimuli/stim_20210706_power2amp/equal_lnn_AM3.6Hz_s35_31.m4a,,,,,,,,,,,,
,,,,,39600,2021-09-28_14h10.13.354,judgeSpeechMusic_20210921_logNormShiftAmp_detection_fixS,2020.1.2,Win32,60,,,,,,,,,,,,,,,,,,,,,,,,,,,,,,2,5.800100002,,0,0,42,42,70,1,stimuli/stim_20210706_power2amp/equal_lnn_AM4.2Hz_s35_36.m4a,,,,,,,,,,,,
,,,,,39600,2021-09-28_14h10.13.354,judgeSpeechMusic_20210921_logNormShiftAmp_detection_fixS,2020.1.2,Win32,60,,,,,,,,,,,,,,,,,,,,,,,,,,,,,,2,6.579,,0,0,43,43,44,1,stimuli/stim_20210706_power2amp/equal_lnn_AM2.4Hz_s35_29.m4a,,,,,,,,,,,,
,,,,,39600,2021-09-28_14h10.13.354,judgeSpeechMusic_20210921_logNormShiftAmp_detection_fixS,2020.1.2,Win32,60,,,,,,,,,,,,,,,,,,,,,,,,,,,,,,2,5.813899998,,0,0,44,44,32,1,stimuli/stim_20210706_power2amp/equal_lnn_AM2.4Hz_s35_33.m4a,,,,,,,,,,,,
,,,,,39600,2021-09-28_14h10.13.354,judgeSpeechMusic_20210921_logNormShiftAmp_detection_fixS,2020.1.2,Win32,60,,,,,,,,,,,,,,,,,,,,,,,,,,,,,,1,6.583899998,,0,0,45,45,14,1,stimuli/stim_20210706_power2amp/equal_lnn_AM0.6Hz_s35_40.m4a,,,,,,,,,,,,
,,,,,39600,2021-09-28_14h10.13.354,judgeSpeechMusic_20210921_logNormShiftAmp_detection_fixS,2020.1.2,Win32,60,,,,,,,,,,,,,,,,,,,,,,,,,,,,,,1,7.029900002,,0,0,46,46,54,1,stimuli/stim_20210706_power2amp/equal_lnn_AM3.6Hz_s35_1.m4a,,,,,,,,,,,,
,,,,,39600,2021-09-28_14h10.13.354,judgeSpeechMusic_20210921_logNormShiftAmp_detection_fixS,2020.1.2,Win32,60,,,,,,,,,,,,,,,,,,,,,,,,,,,,,,2,7.447600002,,0,0,47,47,35,1,stimuli/stim_20210706_power2amp/equal_lnn_AM2.4Hz_s35_50.m4a,,,,,,,,,,,,
,,,,,39600,2021-09-28_14h10.13.354,judgeSpeechMusic_20210921_logNormShiftAmp_detection_fixS,2020.1.2,Win32,60,,,,,,,,,,,,,,,,,,,,,,,,,,,,,,2,5.721900002,,0,0,48,48,61,1,stimuli/stim_20210706_power2amp/equal_lnn_AM4.2Hz_s35_45.m4a,,,,,,,,,,,,
,,,,,39600,2021-09-28_14h10.13.354,judgeSpeechMusic_20210921_logNormShiftAmp_detection_fixS,2020.1.2,Win32,60,,,,,,,,,,,,,,,,,,,,,,,,,,,,,,2,6.023899998,,0,0,49,49,53,1,stimuli/stim_20210706_power2amp/equal_lnn_AM3.6Hz_s35_28.m4a,,,,,,,,,,,,
,,,,,39600,2021-09-28_14h10.13.354,judgeSpeechMusic_20210921_logNormShiftAmp_detection_fixS,2020.1.2,Win32,60,,,,,,,,,,,,,,,,,,,,,,,,,,,,,,2,5.818300003,,0,0,50,50,69,1,stimuli/stim_20210706_power2amp/equal_lnn_AM4.2Hz_s35_23.m4a,,,,,,,,,,,,
,,,,,39600,2021-09-28_14h10.13.354,judgeSpeechMusic_20210921_logNormShiftAmp_detection_fixS,2020.1.2,Win32,60,,,,,,,,,,,,,,,,,,,,,,,,,,,,,,1,6.3,,0,0,51,51,34,1,stimuli/stim_20210706_power2amp/equal_lnn_AM2.4Hz_s35_49.m4a,,,,,,,,,,,,
,,,,,39600,2021-09-28_14h10.13.354,judgeSpeechMusic_20210921_logNormShiftAmp_detection_fixS,2020.1.2,Win32,60,,,,,,,,,,,,,,,,,,,,,,,,,,,,,,2,6.094799999,,0,0,52,52,62,1,stimuli/stim_20210706_power2amp/equal_lnn_AM4.2Hz_s35_9.m4a,,,,,,,,,,,,
,,,,,39600,2021-09-28_14h10.13.354,judgeSpeechMusic_20210921_logNormShiftAmp_detection_fixS,2020.1.2,Win32,60,,,,,,,,,,,,,,,,,,,,,,,,,,,,,,1,6.643099998,,0,0,53,53,13,1,stimuli/stim_20210706_power2amp/equal_lnn_AM0.6Hz_s35_19.m4a,,,,,,,,,,,,
,,,,,39600,2021-09-28_14h10.13.354,judgeSpeechMusic_20210921_logNormShiftAmp_detection_fixS,2020.1.2,Win32,60,,,,,,,,,,,,,,,,,,,,,,,,,,,,,,1,5.809200001,,0,0,54,54,28,1,stimuli/stim_20210706_power2amp/equal_lnn_AM1.2Hz_s35_1.m4a,,,,,,,,,,,,
,,,,,39600,2021-09-28_14h10.13.354,judgeSpeechMusic_20210921_logNormShiftAmp_detection_fixS,2020.1.2,Win32,60,,,,,,,,,,,,,,,,,,,,,,,,,,,,,,2,6.104100002,,0,0,55,55,65,1,stimuli/stim_20210706_power2amp/equal_lnn_AM4.2Hz_s35_21.m4a,,,,,,,,,,,,
,,,,,39600,2021-09-28_14h10.13.354,judgeSpeechMusic_20210921_logNormShiftAmp_detection_fixS,2020.1.2,Win32,60,,,,,,,,,,,,,,,,,,,,,,,,,,,,,,1,6.083400002,,0,0,56,56,10,1,stimuli/stim_20210706_power2amp/equal_lnn_AM0.6Hz_s35_5.m4a,,,,,,,,,,,,
,,,,,39600,2021-09-28_14h10.13.354,judgeSpeechMusic_20210921_logNormShiftAmp_detection_fixS,2020.1.2,Win32,60,,,,,,,,,,,,,,,,,,,,,,,,,,,,,,2,7.4835,,0,0,57,57,43,1,stimuli/stim_20210706_power2amp/equal_lnn_AM2.4Hz_s35_38.m4a,,,,,,,,,,,,
,,,,,39600,2021-09-28_14h10.13.354,judgeSpeechMusic_20210921_logNormShiftAmp_detection_fixS,2020.1.2,Win32,60,,,,,,,,,,,,,,,,,,,,,,,,,,,,,,1,6.441600002,4,1,0,58,58,6,1,stimuli/stim_20210706_power2amp/equal_lnn_AM0.6Hz_s35_6.m4a,0.564899998,,,,,,,,,,,
,,,,,39600,2021-09-28_14h10.13.354,judgeSpeechMusic_20210921_logNormShiftAmp_detection_fixS,2020.1.2,Win32,60,,,,,,,,,,,,,,,,,,,,,,,,,,,,,,1,5.808,,0,0,59,59,23,1,stimuli/stim_20210706_power2amp/equal_lnn_AM1.2Hz_s35_16.m4a,,,,,,,,,,,,
,,,,,39600,2021-09-28_14h10.13.354,judgeSpeechMusic_20210921_logNormShiftAmp_detection_fixS,2020.1.2,Win32,60,,,,,,,,,,,,,,,,,,,,,,,,,,,,,,2,6.117299999,,0,0,60,60,42,1,stimuli/stim_20210706_power2amp/equal_lnn_AM2.4Hz_s35_34.m4a,,,,,,,,,,,,
,,,,,39600,2021-09-28_14h10.13.354,judgeSpeechMusic_20210921_logNormShiftAmp_detection_fixS,2020.1.2,Win32,60,,,,,,,,,,,,,,,,,,,,,,,,,,,,,,2,5.809300003,,0,0,61,61,24,1,stimuli/stim_20210706_power2amp/equal_lnn_AM1.2Hz_s35_3.m4a,,,,,,,,,,,,
,,,,,39600,2021-09-28_14h10.13.354,judgeSpeechMusic_20210921_logNormShiftAmp_detection_fixS,2020.1.2,Win32,60,,,,,,,,,,,,,,,,,,,,,,,,,,,,,,2,5.685400002,,0,0,62,62,15,1,stimuli/stim_20210706_power2amp/equal_lnn_AM1.2Hz_s35_6.m4a,,,,,,,,,,,,
,,,,,39600,2021-09-28_14h10.13.354,judgeSpeechMusic_20210921_logNormShiftAmp_detection_fixS,2020.1.2,Win32,60,,,,,,,,,,,,,,,,,,,,,,,,,,,,,,2,5.945300003,,0,0,63,63,39,1,stimuli/stim_20210706_power2amp/equal_lnn_AM2.4Hz_s35_31.m4a,,,,,,,,,,,,
,,,,,39600,2021-09-28_14h10.13.354,judgeSpeechMusic_20210921_logNormShiftAmp_detection_fixS,2020.1.2,Win32,60,,,,,,,,,,,,,,,,,,,,,,,,,,,,,,2,5.290399998,,0,0,64,64,50,1,stimuli/stim_20210706_power2amp/equal_lnn_AM3.6Hz_s35_3.m4a,,,,,,,,,,,,
,,,,,39600,2021-09-28_14h10.13.354,judgeSpeechMusic_20210921_logNormShiftAmp_detection_fixS,2020.1.2,Win32,60,,,,,,,,,,,,,,,,,,,,,,,,,,,,,,2,5.710899998,,0,0,65,65,45,1,stimuli/stim_20210706_power2amp/equal_lnn_AM3.6Hz_s35_19.m4a,,,,,,,,,,,,
,,,,,39600,2021-09-28_14h10.13.354,judgeSpeechMusic_20210921_logNormShiftAmp_detection_fixS,2020.1.2,Win32,60,,,,,,,,,,,,,,,,,,,,,,,,,,,,,,1,6.132599998,,0,0,66,66,5,1,stimuli/stim_20210706_power2amp/equal_lnn_AM0.6Hz_s35_32.m4a,,,,,,,,,,,,
,,,,,39600,2021-09-28_14h10.13.354,judgeSpeechMusic_20210921_logNormShiftAmp_detection_fixS,2020.1.2,Win32,60,,,,,,,,,,,,,,,,,,,,,,,,,,,,,,1,6.515899998,,0,0,67,67,55,1,stimuli/stim_20210706_power2amp/equal_lnn_AM3.6Hz_s35_44.m4a,,,,,,,,,,,,
,,,,,39600,2021-09-28_14h10.13.354,judgeSpeechMusic_20210921_logNormShiftAmp_detection_fixS,2020.1.2,Win32,60,,,,,,,,,,,,,,,,,,,,,,,,,,,,,,1,6.035799999,,0,0,68,68,0,1,stimuli/stim_20210706_power2amp/equal_lnn_AM0.6Hz_s35_31.m4a,,,,,,,,,,,,
,,,,,39600,2021-09-28_14h10.13.354,judgeSpeechMusic_20210921_logNormShiftAmp_detection_fixS,2020.1.2,Win32,60,,,,,,,,,,,,,,,,,,,,,,,,,,,,,,2,6.190400002,,0,0,69,69,57,1,stimuli/stim_20210706_power2amp/equal_lnn_AM3.6Hz_s35_38.m4a,,,,,,,,,,,,
,,,,,39600,2021-09-28_14h10.13.354,judgeSpeechMusic_20210921_logNormShiftAmp_detection_fixS,2020.1.2,Win32,60,,,,,,,,,,,,,,,,,,,,,,,,,,,,,,2,5.714800003,,0,0,70,70,30,1,stimuli/stim_20210706_power2amp/equal_lnn_AM2.4Hz_s35_19.m4a,,,,,,,,,,,,
,,,,,39600,2021-09-28_14h10.13.354,judgeSpeechMusic_20210921_logNormShiftAmp_detection_fixS,2020.1.2,Win32,60,,,,,,,,,,,,,,,,,,,,,,,,,,,,,,2,5.6835,,0,0,71,71,73,1,stimuli/stim_20210706_power2amp/equal_lnn_AM4.2Hz_s35_39.m4a,,,,,,,,,,,,
,,,,,39600,2021-09-28_14h10.13.354,judgeSpeechMusic_20210921_logNormShiftAmp_detection_fixS,2020.1.2,Win32,60,,,,,,,,,,,,,,,,,,,,,,,,,,,,,,1,6.759200001,,0,0,72,72,4,1,stimuli/stim_20210706_power2amp/equal_lnn_AM0.6Hz_s35_50.m4a,,,,,,,,,,,,
,,,,,39600,2021-09-28_14h10.13.354,judgeSpeechMusic_20210921_logNormShiftAmp_detection_fixS,2020.1.2,Win32,60,,,,,,,,,,,,,,,,,,,,,,,,,,,,,,2,6.081299999,,0,0,73,73,58,1,stimuli/stim_20210706_power2amp/equal_lnn_AM3.6Hz_s35_42.m4a,,,,,,,,,,,,
,,,,,39600,2021-09-28_14h10.13.354,judgeSpeechMusic_20210921_logNormShiftAmp_detection_fixS,2020.1.2,Win32,60,,,,,,,,,,,,,,,,,,,,,,,,,,,,,,2,6.682900002,,0,0,74,74,8,1,stimuli/stim_20210706_power2amp/equal_lnn_AM0.6Hz_s35_37.m4a,,,,,,,,,,,,
,,,,,39600,2021-09-28_14h10.13.354,judgeSpeechMusic_20210921_logNormShiftAmp_detection_fixS,2020.1.2,Win32,60,,,,,,,,,,,,,,,,,,,,,,,,,,,,,,,,,,,,,,,,,space,0.706700001,0,0,0,1,1,SPEECH,stimuli/SPEECH.jpg,,
,,,,,39600,2021-09-28_14h10.13.354,judgeSpeechMusic_20210921_logNormShiftAmp_detection_fixS,2020.1.2,Win32,60,,,,,,,,,,,,,space,0.792800003,2,8.240799999,,0,0,0,0,2,1,stimuli/stim_20210706_power2amp/equal_lnn_AM_training3Hz_s35.m4a,,,,,,,,,,,,,,,,,,,,,,,,,,,
,,,,,39600,2021-09-28_14h10.13.354,judgeSpeechMusic_20210921_logNormShiftAmp_detection_fixS,2020.1.2,Win32,60,,,,,,,,,,,,,,,1,6.486400002,,0,0,1,1,0,1,stimuli/stim_20210706_power2amp/equal_lnn_AM_training0.9Hz_s35.m4a,,,,,,,,,,,,,,,,,,,,,,,,,,,
,,,,,39600,2021-09-28_14h10.13.354,judgeSpeechMusic_20210921_logNormShiftAmp_detection_fixS,2020.1.2,Win32,60,,,,,,,,,,,,,,,1,6.904799999,3,1,0,2,2,3,1,stimuli/stim_20210706_power2amp/equal_lnn_AM_training3.9Hz_s35.m4a,0.846799999,,,,,,,,,,,,,,,,,,,,,,,,,,
,,,,,39600,2021-09-28_14h10.13.354,judgeSpeechMusic_20210921_logNormShiftAmp_detection_fixS,2020.1.2,Win32,60,,,,,,,,,,,,,,,2,6.3745,,0,0,3,3,1,1,stimuli/stim_20210706_power2amp/equal_lnn_AM_training1.8Hz_s35.m4a,,,,,,,,,,,,,,,,,,,,,,,,,,,
,,,,,39600,2021-09-28_14h10.13.354,judgeSpeechMusic_20210921_logNormShiftAmp_detection_fixS,2020.1.2,Win32,60,,,,,,,,,,,,,,,,,,,,,,,,,,space,1.517700001,space,0.251099998,2,6.167199997,,0,0,0,0,73,1,stimuli/stim_20210706_power2amp/equal_lnn_AM4.2Hz_s35_39.m4a,,,,,,,,,,,,
,,,,,39600,2021-09-28_14h10.13.354,judgeSpeechMusic_20210921_logNormShiftAmp_detection_fixS,2020.1.2,Win32,60,,,,,,,,,,,,,,,,,,,,,,,,,,,,,,2,7.062,,0,0,1,1,70,1,stimuli/stim_20210706_power2amp/equal_lnn_AM4.2Hz_s35_36.m4a,,,,,,,,,,,,
,,,,,39600,2021-09-28_14h10.13.354,judgeSpeechMusic_20210921_logNormShiftAmp_detection_fixS,2020.1.2,Win32,60,,,,,,,,,,,,,,,,,,,,,,,,,,,,,,2,6.066100002,,0,0,2,2,28,1,stimuli/stim_20210706_power2amp/equal_lnn_AM1.2Hz_s35_1.m4a,,,,,,,,,,,,
,,,,,39600,2021-09-28_14h10.13.354,judgeSpeechMusic_20210921_logNormShiftAmp_detection_fixS,2020.1.2,Win32,60,,,,,,,,,,,,,,,,,,,,,,,,,,,,,,2,5.868599998,,0,0,3,3,45,1,stimuli/stim_20210706_power2amp/equal_lnn_AM3.6Hz_s35_19.m4a,,,,,,,,,,,,
,,,,,39600,2021-09-28_14h10.13.354,judgeSpeechMusic_20210921_logNormShiftAmp_detection_fixS,2020.1.2,Win32,60,,,,,,,,,,,,,,,,,,,,,,,,,,,,,,2,6.200299999,,0,0,4,4,15,1,stimuli/stim_20210706_power2amp/equal_lnn_AM1.2Hz_s35_6.m4a,,,,,,,,,,,,
,,,,,39600,2021-09-28_14h10.13.354,judgeSpeechMusic_20210921_logNormShiftAmp_detection_fixS,2020.1.2,Win32,60,,,,,,,,,,,,,,,,,,,,,,,,,,,,,,1,6.389,,0,0,5,5,10,1,stimuli/stim_20210706_power2amp/equal_lnn_AM0.6Hz_s35_5.m4a,,,,,,,,,,,,
,,,,,39600,2021-09-28_14h10.13.354,judgeSpeechMusic_20210921_logNormShiftAmp_detection_fixS,2020.1.2,Win32,60,,,,,,,,,,,,,,,,,,,,,,,,,,,,,,2,6.184399998,,0,0,6,6,62,1,stimuli/stim_20210706_power2amp/equal_lnn_AM4.2Hz_s35_9.m4a,,,,,,,,,,,,
,,,,,39600,2021-09-28_14h10.13.354,judgeSpeechMusic_20210921_logNormShiftAmp_detection_fixS,2020.1.2,Win32,60,,,,,,,,,,,,,,,,,,,,,,,,,,,,,,2,7.206700001,,0,0,7,7,0,1,stimuli/stim_20210706_power2amp/equal_lnn_AM0.6Hz_s35_31.m4a,,,,,,,,,,,,
,,,,,39600,2021-09-28_14h10.13.354,judgeSpeechMusic_20210921_logNormShiftAmp_detection_fixS,2020.1.2,Win32,60,,,,,,,,,,,,,,,,,,,,,,,,,,,,,,2,5.883599998,,0,0,8,8,16,1,stimuli/stim_20210706_power2amp/equal_lnn_AM1.2Hz_s35_19.m4a,,,,,,,,,,,,
,,,,,39600,2021-09-28_14h10.13.354,judgeSpeechMusic_20210921_logNormShiftAmp_detection_fixS,2020.1.2,Win32,60,,,,,,,,,,,,,,,,,,,,,,,,,,,,,,1,6.391899998,,0,0,9,9,74,1,stimuli/stim_20210706_power2amp/equal_lnn_AM4.2Hz_s35_44.m4a,,,,,,,,,,,,
,,,,,39600,2021-09-28_14h10.13.354,judgeSpeechMusic_20210921_logNormShiftAmp_detection_fixS,2020.1.2,Win32,60,,,,,,,,,,,,,,,,,,,,,,,,,,,,,,2,6.017900002,,0,0,10,10,42,1,stimuli/stim_20210706_power2amp/equal_lnn_AM2.4Hz_s35_34.m4a,,,,,,,,,,,,
,,,,,39600,2021-09-28_14h10.13.354,judgeSpeechMusic_20210921_logNormShiftAmp_detection_fixS,2020.1.2,Win32,60,,,,,,,,,,,,,,,,,,,,,,,,,,,,,,1,7.567200001,,0,0,11,11,72,1,stimuli/stim_20210706_power2amp/equal_lnn_AM4.2Hz_s35_8.m4a,,,,,,,,,,,,
,,,,,39600,2021-09-28_14h10.13.354,judgeSpeechMusic_20210921_logNormShiftAmp_detection_fixS,2020.1.2,Win32,60,,,,,,,,,,,,,,,,,,,,,,,,,,,,,,2,7.050599998,,0,0,12,12,24,1,stimuli/stim_20210706_power2amp/equal_lnn_AM1.2Hz_s35_3.m4a,,,,,,,,,,,,
,,,,,39600,2021-09-28_14h10.13.354,judgeSpeechMusic_20210921_logNormShiftAmp_detection_fixS,2020.1.2,Win32,60,,,,,,,,,,,,,,,,,,,,,,,,,,,,,,1,6.3345,,0,0,13,13,5,1,stimuli/stim_20210706_power2amp/equal_lnn_AM0.6Hz_s35_32.m4a,,,,,,,,,,,,
,,,,,39600,2021-09-28_14h10.13.354,judgeSpeechMusic_20210921_logNormShiftAmp_detection_fixS,2020.1.2,Win32,60,,,,,,,,,,,,,,,,,,,,,,,,,,,,,,1,7.684600002,,0,0,14,14,22,1,stimuli/stim_20210706_power2amp/equal_lnn_AM1.2Hz_s35_15.m4a,,,,,,,,,,,,
,,,,,39600,2021-09-28_14h10.13.354,judgeSpeechMusic_20210921_logNormShiftAmp_detection_fixS,2020.1.2,Win32,60,,,,,,,,,,,,,,,,,,,,,,,,,,,,,,2,6.511599998,,0,0,15,15,53,1,stimuli/stim_20210706_power2amp/equal_lnn_AM3.6Hz_s35_28.m4a,,,,,,,,,,,,
,,,,,39600,2021-09-28_14h10.13.354,judgeSpeechMusic_20210921_logNormShiftAmp_detection_fixS,2020.1.2,Win32,60,,,,,,,,,,,,,,,,,,,,,,,,,,,,,,2,5.981399998,,0,0,16,16,37,1,stimuli/stim_20210706_power2amp/equal_lnn_AM2.4Hz_s35_2.m4a,,,,,,,,,,,,
,,,,,39600,2021-09-28_14h10.13.354,judgeSpeechMusic_20210921_logNormShiftAmp_detection_fixS,2020.1.2,Win32,60,,,,,,,,,,,,,,,,,,,,,,,,,,,,,,2,6.896299999,,0,0,17,17,23,1,stimuli/stim_20210706_power2amp/equal_lnn_AM1.2Hz_s35_16.m4a,,,,,,,,,,,,
,,,,,39600,2021-09-28_14h10.13.354,judgeSpeechMusic_20210921_logNormShiftAmp_detection_fixS,2020.1.2,Win32,60,,,,,,,,,,,,,,,,,,,,,,,,,,,,,,2,6.041900002,,0,0,18,18,40,1,stimuli/stim_20210706_power2amp/equal_lnn_AM2.4Hz_s35_15.m4a,,,,,,,,,,,,
,,,,,39600,2021-09-28_14h10.13.354,judgeSpeechMusic_20210921_logNormShiftAmp_detection_fixS,2020.1.2,Win32,60,,,,,,,,,,,,,,,,,,,,,,,,,,,,,,2,6.001299999,,0,0,19,19,29,1,stimuli/stim_20210706_power2amp/equal_lnn_AM1.2Hz_s35_25.m4a,,,,,,,,,,,,
,,,,,39600,2021-09-28_14h10.13.354,judgeSpeechMusic_20210921_logNormShiftAmp_detection_fixS,2020.1.2,Win32,60,,,,,,,,,,,,,,,,,,,,,,,,,,,,,,2,5.722899998,2,1,0,20,20,35,1,stimuli/stim_20210706_power2amp/equal_lnn_AM2.4Hz_s35_50.m4a,0.338100002,,,,,,,,,,,
,,,,,39600,2021-09-28_14h10.13.354,judgeSpeechMusic_20210921_logNormShiftAmp_detection_fixS,2020.1.2,Win32,60,,,,,,,,,,,,,,,,,,,,,,,,,,,,,,2,5.743800003,,0,0,21,21,66,1,stimuli/stim_20210706_power2amp/equal_lnn_AM4.2Hz_s35_12.m4a,,,,,,,,,,,,
,,,,,39600,2021-09-28_14h10.13.354,judgeSpeechMusic_20210921_logNormShiftAmp_detection_fixS,2020.1.2,Win32,60,,,,,,,,,,,,,,,,,,,,,,,,,,,,,,2,5.757800003,,0,0,22,22,25,1,stimuli/stim_20210706_power2amp/equal_lnn_AM1.2Hz_s35_8.m4a,,,,,,,,,,,,
,,,,,39600,2021-09-28_14h10.13.354,judgeSpeechMusic_20210921_logNormShiftAmp_detection_fixS,2020.1.2,Win32,60,,,,,,,,,,,,,,,,,,,,,,,,,,,,,,2,7.350400002,,0,0,23,23,54,1,stimuli/stim_20210706_power2amp/equal_lnn_AM3.6Hz_s35_1.m4a,,,,,,,,,,,,
,,,,,39600,2021-09-28_14h10.13.354,judgeSpeechMusic_20210921_logNormShiftAmp_detection_fixS,2020.1.2,Win32,60,,,,,,,,,,,,,,,,,,,,,,,,,,,,,,2,5.8225,,0,0,24,24,46,1,stimuli/stim_20210706_power2amp/equal_lnn_AM3.6Hz_s35_9.m4a,,,,,,,,,,,,
,,,,,39600,2021-09-28_14h10.13.354,judgeSpeechMusic_20210921_logNormShiftAmp_detection_fixS,2020.1.2,Win32,60,,,,,,,,,,,,,,,,,,,,,,,,,,,,,,2,5.826799999,,0,0,25,25,30,1,stimuli/stim_20210706_power2amp/equal_lnn_AM2.4Hz_s35_19.m4a,,,,,,,,,,,,
,,,,,39600,2021-09-28_14h10.13.354,judgeSpeechMusic_20210921_logNormShiftAmp_detection_fixS,2020.1.2,Win32,60,,,,,,,,,,,,,,,,,,,,,,,,,,,,,,1,6.238700001,,0,0,26,26,1,1,stimuli/stim_20210706_power2amp/equal_lnn_AM0.6Hz_s35_13.m4a,,,,,,,,,,,,
,,,,,39600,2021-09-28_14h10.13.354,judgeSpeechMusic_20210921_logNormShiftAmp_detection_fixS,2020.1.2,Win32,60,,,,,,,,,,,,,,,,,,,,,,,,,,,,,,2,7.437100002,,0,0,27,27,71,1,stimuli/stim_20210706_power2amp/equal_lnn_AM4.2Hz_s35_37.m4a,,,,,,,,,,,,
,,,,,39600,2021-09-28_14h10.13.354,judgeSpeechMusic_20210921_logNormShiftAmp_detection_fixS,2020.1.2,Win32,60,,,,,,,,,,,,,,,,,,,,,,,,,,,,,,2,6.309600002,,0,0,28,28,9,1,stimuli/stim_20210706_power2amp/equal_lnn_AM0.6Hz_s35_12.m4a,,,,,,,,,,,,
,,,,,39600,2021-09-28_14h10.13.354,judgeSpeechMusic_20210921_logNormShiftAmp_detection_fixS,2020.1.2,Win32,60,,,,,,,,,,,,,,,,,,,,,,,,,,,,,,2,6.254200001,,0,0,29,29,47,1,stimuli/stim_20210706_power2amp/equal_lnn_AM3.6Hz_s35_31.m4a,,,,,,,,,,,,
,,,,,39600,2021-09-28_14h10.13.354,judgeSpeechMusic_20210921_logNormShiftAmp_detection_fixS,2020.1.2,Win32,60,,,,,,,,,,,,,,,,,,,,,,,,,,,,,,2,5.777599998,,0,0,30,30,65,1,stimuli/stim_20210706_power2amp/equal_lnn_AM4.2Hz_s35_21.m4a,,,,,,,,,,,,
,,,,,39600,2021-09-28_14h10.13.354,judgeSpeechMusic_20210921_logNormShiftAmp_detection_fixS,2020.1.2,Win32,60,,,,,,,,,,,,,,,,,,,,,,,,,,,,,,1,6.157,,0,0,31,31,3,1,stimuli/stim_20210706_power2amp/equal_lnn_AM0.6Hz_s35_8.m4a,,,,,,,,,,,,
,,,,,39600,2021-09-28_14h10.13.354,judgeSpeechMusic_20210921_logNormShiftAmp_detection_fixS,2020.1.2,Win32,60,,,,,,,,,,,,,,,,,,,,,,,,,,,,,,1,5.758,,0,0,32,32,11,1,stimuli/stim_20210706_power2amp/equal_lnn_AM0.6Hz_s35_22.m4a,,,,,,,,,,,,
,,,,,39600,2021-09-28_14h10.13.354,judgeSpeechMusic_20210921_logNormShiftAmp_detection_fixS,2020.1.2,Win32,60,,,,,,,,,,,,,,,,,,,,,,,,,,,,,,2,6.467700001,,0,0,33,33,58,1,stimuli/stim_20210706_power2amp/equal_lnn_AM3.6Hz_s35_42.m4a,,,,,,,,,,,,
,,,,,39600,2021-09-28_14h10.13.354,judgeSpeechMusic_20210921_logNormShiftAmp_detection_fixS,2020.1.2,Win32,60,,,,,,,,,,,,,,,,,,,,,,,,,,,,,,2,6.067,,0,0,34,34,68,1,stimuli/stim_20210706_power2amp/equal_lnn_AM4.2Hz_s35_50.m4a,,,,,,,,,,,,
,,,,,39600,2021-09-28_14h10.13.354,judgeSpeechMusic_20210921_logNormShiftAmp_detection_fixS,2020.1.2,Win32,60,,,,,,,,,,,,,,,,,,,,,,,,,,,,,,2,6.266799999,,0,0,35,35,49,1,stimuli/stim_20210706_power2amp/equal_lnn_AM3.6Hz_s35_37.m4a,,,,,,,,,,,,
,,,,,39600,2021-09-28_14h10.13.354,judgeSpeechMusic_20210921_logNormShiftAmp_detection_fixS,2020.1.2,Win32,60,,,,,,,,,,,,,,,,,,,,,,,,,,,,,,2,6.4175,,0,0,36,36,44,1,stimuli/stim_20210706_power2amp/equal_lnn_AM2.4Hz_s35_29.m4a,,,,,,,,,,,,
,,,,,39600,2021-09-28_14h10.13.354,judgeSpeechMusic_20210921_logNormShiftAmp_detection_fixS,2020.1.2,Win32,60,,,,,,,,,,,,,,,,,,,,,,,,,,,,,,1,6.145,,0,0,37,37,13,1,stimuli/stim_20210706_power2amp/equal_lnn_AM0.6Hz_s35_19.m4a,,,,,,,,,,,,
,,,,,39600,2021-09-28_14h10.13.354,judgeSpeechMusic_20210921_logNormShiftAmp_detection_fixS,2020.1.2,Win32,60,,,,,,,,,,,,,,,,,,,,,,,,,,,,,,2,6.106300003,,0,0,38,38,38,1,stimuli/stim_20210706_power2amp/equal_lnn_AM2.4Hz_s35_16.m4a,,,,,,,,,,,,
,,,,,39600,2021-09-28_14h10.13.354,judgeSpeechMusic_20210921_logNormShiftAmp_detection_fixS,2020.1.2,Win32,60,,,,,,,,,,,,,,,,,,,,,,,,,,,,,,1,5.979100002,,0,0,39,39,69,1,stimuli/stim_20210706_power2amp/equal_lnn_AM4.2Hz_s35_23.m4a,,,,,,,,,,,,
,,,,,39600,2021-09-28_14h10.13.354,judgeSpeechMusic_20210921_logNormShiftAmp_detection_fixS,2020.1.2,Win32,60,,,,,,,,,,,,,,,,,,,,,,,,,,,,,,1,6.437099998,2,1,0,40,40,26,1,stimuli/stim_20210706_power2amp/equal_lnn_AM1.2Hz_s35_12.m4a,1.146900002,,,,,,,,,,,
,,,,,39600,2021-09-28_14h10.13.354,judgeSpeechMusic_20210921_logNormShiftAmp_detection_fixS,2020.1.2,Win32,60,,,,,,,,,,,,,,,,,,,,,,,,,,,,,,2,6.201299999,,0,0,41,41,52,1,stimuli/stim_20210706_power2amp/equal_lnn_AM3.6Hz_s35_26.m4a,,,,,,,,,,,,
,,,,,39600,2021-09-28_14h10.13.354,judgeSpeechMusic_20210921_logNormShiftAmp_detection_fixS,2020.1.2,Win32,60,,,,,,,,,,,,,,,,,,,,,,,,,,,,,,2,6.101400002,,0,0,42,42,27,1,stimuli/stim_20210706_power2amp/equal_lnn_AM1.2Hz_s35_29.m4a,,,,,,,,,,,,
,,,,,39600,2021-09-28_14h10.13.354,judgeSpeechMusic_20210921_logNormShiftAmp_detection_fixS,2020.1.2,Win32,60,,,,,,,,,,,,,,,,,,,,,,,,,,,,,,2,5.783900002,,0,0,43,43,19,1,stimuli/stim_20210706_power2amp/equal_lnn_AM1.2Hz_s35_20.m4a,,,,,,,,,,,,
,,,,,39600,2021-09-28_14h10.13.354,judgeSpeechMusic_20210921_logNormShiftAmp_detection_fixS,2020.1.2,Win32,60,,,,,,,,,,,,,,,,,,,,,,,,,,,,,,2,5.7785,,0,0,44,44,59,1,stimuli/stim_20210706_power2amp/equal_lnn_AM3.6Hz_s35_25.m4a,,,,,,,,,,,,
,,,,,39600,2021-09-28_14h10.13.354,judgeSpeechMusic_20210921_logNormShiftAmp_detection_fixS,2020.1.2,Win32,60,,,,,,,,,,,,,,,,,,,,,,,,,,,,,,1,7.131200001,,0,0,45,45,6,1,stimuli/stim_20210706_power2amp/equal_lnn_AM0.6Hz_s35_6.m4a,,,,,,,,,,,,
,,,,,39600,2021-09-28_14h10.13.354,judgeSpeechMusic_20210921_logNormShiftAmp_detection_fixS,2020.1.2,Win32,60,,,,,,,,,,,,,,,,,,,,,,,,,,,,,,1,5.817200001,,0,0,46,46,2,1,stimuli/stim_20210706_power2amp/equal_lnn_AM0.6Hz_s35_17.m4a,,,,,,,,,,,,
,,,,,39600,2021-09-28_14h10.13.354,judgeSpeechMusic_20210921_logNormShiftAmp_detection_fixS,2020.1.2,Win32,60,,,,,,,,,,,,,,,,,,,,,,,,,,,,,,2,6.275700001,,0,0,47,47,63,1,stimuli/stim_20210706_power2amp/equal_lnn_AM4.2Hz_s35_2.m4a,,,,,,,,,,,,
,,,,,39600,2021-09-28_14h10.13.354,judgeSpeechMusic_20210921_logNormShiftAmp_detection_fixS,2020.1.2,Win32,60,,,,,,,,,,,,,,,,,,,,,,,,,,,,,,2,6.151400002,,0,0,48,48,7,1,stimuli/stim_20210706_power2amp/equal_lnn_AM0.6Hz_s35_21.m4a,,,,,,,,,,,,
,,,,,39600,2021-09-28_14h10.13.354,judgeSpeechMusic_20210921_logNormShiftAmp_detection_fixS,2020.1.2,Win32,60,,,,,,,,,,,,,,,,,,,,,,,,,,,,,,2,6.458200001,,0,0,49,49,43,1,stimuli/stim_20210706_power2amp/equal_lnn_AM2.4Hz_s35_38.m4a,,,,,,,,,,,,
,,,,,39600,2021-09-28_14h10.13.354,judgeSpeechMusic_20210921_logNormShiftAmp_detection_fixS,2020.1.2,Win32,60,,,,,,,,,,,,,,,,,,,,,,,,,,,,,,2,5.809200001,,0,0,50,50,32,1,stimuli/stim_20210706_power2amp/equal_lnn_AM2.4Hz_s35_33.m4a,,,,,,,,,,,,
,,,,,39600,2021-09-28_14h10.13.354,judgeSpeechMusic_20210921_logNormShiftAmp_detection_fixS,2020.1.2,Win32,60,,,,,,,,,,,,,,,,,,,,,,,,,,,,,,2,6.101,,0,0,51,51,48,1,stimuli/stim_20210706_power2amp/equal_lnn_AM3.6Hz_s35_10.m4a,,,,,,,,,,,,
,,,,,39600,2021-09-28_14h10.13.354,judgeSpeechMusic_20210921_logNormShiftAmp_detection_fixS,2020.1.2,Win32,60,,,,,,,,,,,,,,,,,,,,,,,,,,,,,,2,5.796099998,,0,0,52,52,51,1,stimuli/stim_20210706_power2amp/equal_lnn_AM3.6Hz_s35_36.m4a,,,,,,,,,,,,
,,,,,39600,2021-09-28_14h10.13.354,judgeSpeechMusic_20210921_logNormShiftAmp_detection_fixS,2020.1.2,Win32,60,,,,,,,,,,,,,,,,,,,,,,,,,,,,,,2,6.367399998,,0,0,53,53,33,1,stimuli/stim_20210706_power2amp/equal_lnn_AM2.4Hz_s35_30.m4a,,,,,,,,,,,,
,,,,,39600,2021-09-28_14h10.13.354,judgeSpeechMusic_20210921_logNormShiftAmp_detection_fixS,2020.1.2,Win32,60,,,,,,,,,,,,,,,,,,,,,,,,,,,,,,1,6.976,,0,0,54,54,21,1,stimuli/stim_20210706_power2amp/equal_lnn_AM1.2Hz_s35_9.m4a,,,,,,,,,,,,
,,,,,39600,2021-09-28_14h10.13.354,judgeSpeechMusic_20210921_logNormShiftAmp_detection_fixS,2020.1.2,Win32,60,,,,,,,,,,,,,,,,,,,,,,,,,,,,,,2,6.061799999,,0,0,55,55,60,1,stimuli/stim_20210706_power2amp/equal_lnn_AM4.2Hz_s35_7.m4a,,,,,,,,,,,,
,,,,,39600,2021-09-28_14h10.13.354,judgeSpeechMusic_20210921_logNormShiftAmp_detection_fixS,2020.1.2,Win32,60,,,,,,,,,,,,,,,,,,,,,,,,,,,,,,2,5.928899998,,0,0,56,56,55,1,stimuli/stim_20210706_power2amp/equal_lnn_AM3.6Hz_s35_44.m4a,,,,,,,,,,,,
,,,,,39600,2021-09-28_14h10.13.354,judgeSpeechMusic_20210921_logNormShiftAmp_detection_fixS,2020.1.2,Win32,60,,,,,,,,,,,,,,,,,,,,,,,,,,,,,,2,5.717,,0,0,57,57,61,1,stimuli/stim_20210706_power2amp/equal_lnn_AM4.2Hz_s35_45.m4a,,,,,,,,,,,,
,,,,,39600,2021-09-28_14h10.13.354,judgeSpeechMusic_20210921_logNormShiftAmp_detection_fixS,2020.1.2,Win32,60,,,,,,,,,,,,,,,,,,,,,,,,,,,,,,2,6.525599998,4,1,0,58,58,18,1,stimuli/stim_20210706_power2amp/equal_lnn_AM1.2Hz_s35_45.m4a,1.170099998,,,,,,,,,,,
,,,,,39600,2021-09-28_14h10.13.354,judgeSpeechMusic_20210921_logNormShiftAmp_detection_fixS,2020.1.2,Win32,60,,,,,,,,,,,,,,,,,,,,,,,,,,,,,,2,5.698800003,,0,0,59,59,56,1,stimuli/stim_20210706_power2amp/equal_lnn_AM3.6Hz_s35_12.m4a,,,,,,,,,,,,
,,,,,39600,2021-09-28_14h10.13.354,judgeSpeechMusic_20210921_logNormShiftAmp_detection_fixS,2020.1.2,Win32,60,,,,,,,,,,,,,,,,,,,,,,,,,,,,,,2,5.786899998,,0,0,60,60,34,1,stimuli/stim_20210706_power2amp/equal_lnn_AM2.4Hz_s35_49.m4a,,,,,,,,,,,,
,,,,,39600,2021-09-28_14h10.13.354,judgeSpeechMusic_20210921_logNormShiftAmp_detection_fixS,2020.1.2,Win32,60,,,,,,,,,,,,,,,,,,,,,,,,,,,,,,1,6.250400002,,0,0,61,61,4,1,stimuli/stim_20210706_power2amp/equal_lnn_AM0.6Hz_s35_50.m4a,,,,,,,,,,,,
,,,,,39600,2021-09-28_14h10.13.354,judgeSpeechMusic_20210921_logNormShiftAmp_detection_fixS,2020.1.2,Win32,60,,,,,,,,,,,,,,,,,,,,,,,,,,,,,,2,6.148899998,,0,0,62,62,50,1,stimuli/stim_20210706_power2amp/equal_lnn_AM3.6Hz_s35_3.m4a,,,,,,,,,,,,
,,,,,39600,2021-09-28_14h10.13.354,judgeSpeechMusic_20210921_logNormShiftAmp_detection_fixS,2020.1.2,Win32,60,,,,,,,,,,,,,,,,,,,,,,,,,,,,,,2,6.191400002,,0,0,63,63,67,1,stimuli/stim_20210706_power2amp/equal_lnn_AM4.2Hz_s35_41.m4a,,,,,,,,,,,,
,,,,,39600,2021-09-28_14h10.13.354,judgeSpeechMusic_20210921_logNormShiftAmp_detection_fixS,2020.1.2,Win32,60,,,,,,,,,,,,,,,,,,,,,,,,,,,,,,1,6.143200001,,0,0,64,64,12,1,stimuli/stim_20210706_power2amp/equal_lnn_AM0.6Hz_s35_44.m4a,,,,,,,,,,,,
,,,,,39600,2021-09-28_14h10.13.354,judgeSpeechMusic_20210921_logNormShiftAmp_detection_fixS,2020.1.2,Win32,60,,,,,,,,,,,,,,,,,,,,,,,,,,,,,,2,6.200700001,,0,0,65,65,31,1,stimuli/stim_20210706_power2amp/equal_lnn_AM2.4Hz_s35_10.m4a,,,,,,,,,,,,
,,,,,39600,2021-09-28_14h10.13.354,judgeSpeechMusic_20210921_logNormShiftAmp_detection_fixS,2020.1.2,Win32,60,,,,,,,,,,,,,,,,,,,,,,,,,,,,,,1,6.134299999,,0,0,66,66,8,1,stimuli/stim_20210706_power2amp/equal_lnn_AM0.6Hz_s35_37.m4a,,,,,,,,,,,,
,,,,,39600,2021-09-28_14h10.13.354,judgeSpeechMusic_20210921_logNormShiftAmp_detection_fixS,2020.1.2,Win32,60,,,,,,,,,,,,,,,,,,,,,,,,,,,,,,2,7.376099998,,0,0,67,67,39,1,stimuli/stim_20210706_power2amp/equal_lnn_AM2.4Hz_s35_31.m4a,,,,,,,,,,,,
,,,,,39600,2021-09-28_14h10.13.354,judgeSpeechMusic_20210921_logNormShiftAmp_detection_fixS,2020.1.2,Win32,60,,,,,,,,,,,,,,,,,,,,,,,,,,,,,,2,5.761400002,,0,0,68,68,36,1,stimuli/stim_20210706_power2amp/equal_lnn_AM2.4Hz_s35_21.m4a,,,,,,,,,,,,
,,,,,39600,2021-09-28_14h10.13.354,judgeSpeechMusic_20210921_logNormShiftAmp_detection_fixS,2020.1.2,Win32,60,,,,,,,,,,,,,,,,,,,,,,,,,,,,,,1,6.3065,,0,0,69,69,14,1,stimuli/stim_20210706_power2amp/equal_lnn_AM0.6Hz_s35_40.m4a,,,,,,,,,,,,
,,,,,39600,2021-09-28_14h10.13.354,judgeSpeechMusic_20210921_logNormShiftAmp_detection_fixS,2020.1.2,Win32,60,,,,,,,,,,,,,,,,,,,,,,,,,,,,,,2,6.145899998,,0,0,70,70,17,1,stimuli/stim_20210706_power2amp/equal_lnn_AM1.2Hz_s35_10.m4a,,,,,,,,,,,,
,,,,,39600,2021-09-28_14h10.13.354,judgeSpeechMusic_20210921_logNormShiftAmp_detection_fixS,2020.1.2,Win32,60,,,,,,,,,,,,,,,,,,,,,,,,,,,,,,2,5.713399998,,0,0,71,71,57,1,stimuli/stim_20210706_power2amp/equal_lnn_AM3.6Hz_s35_38.m4a,,,,,,,,,,,,
,,,,,39600,2021-09-28_14h10.13.354,judgeSpeechMusic_20210921_logNormShiftAmp_detection_fixS,2020.1.2,Win32,60,,,,,,,,,,,,,,,,,,,,,,,,,,,,,,2,6.506400002,,0,0,72,72,20,1,stimuli/stim_20210706_power2amp/equal_lnn_AM1.2Hz_s35_24.m4a,,,,,,,,,,,,
,,,,,39600,2021-09-28_14h10.13.354,judgeSpeechMusic_20210921_logNormShiftAmp_detection_fixS,2020.1.2,Win32,60,,,,,,,,,,,,,,,,,,,,,,,,,,,,,,2,5.702299999,,0,0,73,73,41,1,stimuli/stim_20210706_power2amp/equal_lnn_AM2.4Hz_s35_35.m4a,,,,,,,,,,,,
,,,,,39600,2021-09-28_14h10.13.354,judgeSpeechMusic_20210921_logNormShiftAmp_detection_fixS,2020.1.2,Win32,60,,,,,,,,,,,,,,,,,,,,,,,,,,,,,,2,5.6775,,0,0,74,74,64,1,stimuli/stim_20210706_power2amp/equal_lnn_AM4.2Hz_s35_34.m4a,,,,,,,,,,,,
,,,,,39600,2021-09-28_14h10.13.354,judgeSpeechMusic_20210921_logNormShiftAmp_detection_fixS,2020.1.2,Win32,60,,,,,,,,,,,,,,,,,,,,,,,,,,,,,,,,,,,,,,,,,space,0.577599998,0,1,1,0,1,MUSIC,stimuli/MUSIC.jpg,,
,,,,,39600,2021-09-28_14h10.13.354,judgeSpeechMusic_20210921_logNormShiftAmp_detection_fixS,2020.1.2,Win32,60,,,,,,,,,,,,,,,,,,0,0,0,0,2,1,stimuli/stim_20210706_power2amp/equal_lnn_AM_training3Hz_s35.m4a,,,,,,,,,,,,,,,,,,,,,,,,,,,
,,,,,39600,2021-09-28_14h10.13.354,judgeSpeechMusic_20210921_logNormShiftAmp_detection_fixS,2020.1.2,Win32,60,,,,,,,,,,,,,,,,,,,,,,,,,,space,2.064799999,space,24.2353,2,7.409099998,,0,0,0,0,40,1,stimuli/stim_20210706_power2amp/equal_lnn_AM2.4Hz_s35_15.m4a,,,,,,,,,,,,
,,,,,39600,2021-09-28_14h10.13.354,judgeSpeechMusic_20210921_logNormShiftAmp_detection_fixS,2020.1.2,Win32,60,,,,,,,,,,,,,,,,,,,,,,,,,,,,,,2,6.106,,0,0,1,1,48,1,stimuli/stim_20210706_power2amp/equal_lnn_AM3.6Hz_s35_10.m4a,,,,,,,,,,,,
,,,,,39600,2021-09-28_14h10.13.354,judgeSpeechMusic_20210921_logNormShiftAmp_detection_fixS,2020.1.2,Win32,60,,,,,,,,,,,,,,,,,,,,,,,,,,,,,,1,6.269200001,,0,0,2,2,12,1,stimuli/stim_20210706_power2amp/equal_lnn_AM0.6Hz_s35_44.m4a,,,,,,,,,,,,
,,,,,39600,2021-09-28_14h10.13.354,judgeSpeechMusic_20210921_logNormShiftAmp_detection_fixS,2020.1.2,Win32,60,,,,,,,,,,,,,,,,,,,,,,,,,,,,,,2,5.997400002,,0,0,3,3,52,1,stimuli/stim_20210706_power2amp/equal_lnn_AM3.6Hz_s35_26.m4a,,,,,,,,,,,,
,,,,,39600,2021-09-28_14h10.13.354,judgeSpeechMusic_20210921_logNormShiftAmp_detection_fixS,2020.1.2,Win32,60,,,,,,,,,,,,,,,,,,,,,,,,,,,,,,1,6.067299999,,0,0,4,4,6,1,stimuli/stim_20210706_power2amp/equal_lnn_AM0.6Hz_s35_6.m4a,,,,,,,,,,,,
,,,,,39600,2021-09-28_14h10.13.354,judgeSpeechMusic_20210921_logNormShiftAmp_detection_fixS,2020.1.2,Win32,60,,,,,,,,,,,,,,,,,,,,,,,,,,,,,,2,6.033400002,,0,0,5,5,43,1,stimuli/stim_20210706_power2amp/equal_lnn_AM2.4Hz_s35_38.m4a,,,,,,,,,,,,
,,,,,39600,2021-09-28_14h10.13.354,judgeSpeechMusic_20210921_logNormShiftAmp_detection_fixS,2020.1.2,Win32,60,,,,,,,,,,,,,,,,,,,,,,,,,,,,,,1,6.023,,0,0,6,6,14,1,stimuli/stim_20210706_power2amp/equal_lnn_AM0.6Hz_s35_40.m4a,,,,,,,,,,,,
,,,,,39600,2021-09-28_14h10.13.354,judgeSpeechMusic_20210921_logNormShiftAmp_detection_fixS,2020.1.2,Win32,60,,,,,,,,,,,,,,,,,,,,,,,,,,,,,,2,5.823799999,,0,0,7,7,18,1,stimuli/stim_20210706_power2amp/equal_lnn_AM1.2Hz_s35_45.m4a,,,,,,,,,,,,
,,,,,39600,2021-09-28_14h10.13.354,judgeSpeechMusic_20210921_logNormShiftAmp_detection_fixS,2020.1.2,Win32,60,,,,,,,,,,,,,,,,,,,,,,,,,,,,,,2,5.7665,,0,0,8,8,32,1,stimuli/stim_20210706_power2amp/equal_lnn_AM2.4Hz_s35_33.m4a,,,,,,,,,,,,
,,,,,39600,2021-09-28_14h10.13.354,judgeSpeechMusic_20210921_logNormShiftAmp_detection_fixS,2020.1.2,Win32,60,,,,,,,,,,,,,,,,,,,,,,,,,,,,,,2,5.741299999,,0,0,9,9,58,1,stimuli/stim_20210706_power2amp/equal_lnn_AM3.6Hz_s35_42.m4a,,,,,,,,,,,,
,,,,,39600,2021-09-28_14h10.13.354,judgeSpeechMusic_20210921_logNormShiftAmp_detection_fixS,2020.1.2,Win32,60,,,,,,,,,,,,,,,,,,,,,,,,,,,,,,1,6.236400002,,0,0,10,10,10,1,stimuli/stim_20210706_power2amp/equal_lnn_AM0.6Hz_s35_5.m4a,,,,,,,,,,,,
,,,,,39600,2021-09-28_14h10.13.354,judgeSpeechMusic_20210921_logNormShiftAmp_detection_fixS,2020.1.2,Win32,60,,,,,,,,,,,,,,,,,,,,,,,,,,,,,,2,5.767100002,,0,0,11,11,54,1,stimuli/stim_20210706_power2amp/equal_lnn_AM3.6Hz_s35_1.m4a,,,,,,,,,,,,
,,,,,39600,2021-09-28_14h10.13.354,judgeSpeechMusic_20210921_logNormShiftAmp_detection_fixS,2020.1.2,Win32,60,,,,,,,,,,,,,,,,,,,,,,,,,,,,,,1,5.9005,,0,0,12,12,7,1,stimuli/stim_20210706_power2amp/equal_lnn_AM0.6Hz_s35_21.m4a,,,,,,,,,,,,
,,,,,39600,2021-09-28_14h10.13.354,judgeSpeechMusic_20210921_logNormShiftAmp_detection_fixS,2020.1.2,Win32,60,,,,,,,,,,,,,,,,,,,,,,,,,,,,,,2,5.886399998,,0,0,13,13,56,1,stimuli/stim_20210706_power2amp/equal_lnn_AM3.6Hz_s35_12.m4a,,,,,,,,,,,,
,,,,,39600,2021-09-28_14h10.13.354,judgeSpeechMusic_20210921_logNormShiftAmp_detection_fixS,2020.1.2,Win32,60,,,,,,,,,,,,,,,,,,,,,,,,,,,,,,2,5.7445,,0,0,14,14,73,1,stimuli/stim_20210706_power2amp/equal_lnn_AM4.2Hz_s35_39.m4a,,,,,,,,,,,,
,,,,,39600,2021-09-28_14h10.13.354,judgeSpeechMusic_20210921_logNormShiftAmp_detection_fixS,2020.1.2,Win32,60,,,,,,,,,,,,,,,,,,,,,,,,,,,,,,2,5.788900002,,0,0,15,15,68,1,stimuli/stim_20210706_power2amp/equal_lnn_AM4.2Hz_s35_50.m4a,,,,,,,,,,,,
,,,,,39600,2021-09-28_14h10.13.354,judgeSpeechMusic_20210921_logNormShiftAmp_detection_fixS,2020.1.2,Win32,60,,,,,,,,,,,,,,,,,,,,,,,,,,,,,,2,5.944400002,,0,0,16,16,62,1,stimuli/stim_20210706_power2amp/equal_lnn_AM4.2Hz_s35_9.m4a,,,,,,,,,,,,
,,,,,39600,2021-09-28_14h10.13.354,judgeSpeechMusic_20210921_logNormShiftAmp_detection_fixS,2020.1.2,Win32,60,,,,,,,,,,,,,,,,,,,,,,,,,,,,,,2,5.823,,0,0,17,17,53,1,stimuli/stim_20210706_power2amp/equal_lnn_AM3.6Hz_s35_28.m4a,,,,,,,,,,,,
,,,,,39600,2021-09-28_14h10.13.354,judgeSpeechMusic_20210921_logNormShiftAmp_detection_fixS,2020.1.2,Win32,60,,,,,,,,,,,,,,,,,,,,,,,,,,,,,,2,5.752,,0,0,18,18,21,1,stimuli/stim_20210706_power2amp/equal_lnn_AM1.2Hz_s35_9.m4a,,,,,,,,,,,,
,,,,,39600,2021-09-28_14h10.13.354,judgeSpeechMusic_20210921_logNormShiftAmp_detection_fixS,2020.1.2,Win32,60,,,,,,,,,,,,,,,,,,,,,,,,,,,,,,2,5.723900002,,0,0,19,19,63,1,stimuli/stim_20210706_power2amp/equal_lnn_AM4.2Hz_s35_2.m4a,,,,,,,,,,,,
,,,,,39600,2021-09-28_14h10.13.354,judgeSpeechMusic_20210921_logNormShiftAmp_detection_fixS,2020.1.2,Win32,60,,,,,,,,,,,,,,,,,,,,,,,,,,,,,,2,7.257200001,2,1,0,20,20,44,1,stimuli/stim_20210706_power2amp/equal_lnn_AM2.4Hz_s35_29.m4a,0.557399998,,,,,,,,,,,
,,,,,39600,2021-09-28_14h10.13.354,judgeSpeechMusic_20210921_logNormShiftAmp_detection_fixS,2020.1.2,Win32,60,,,,,,,,,,,,,,,,,,,,,,,,,,,,,,1,6.491700001,,0,0,21,21,15,1,stimuli/stim_20210706_power2amp/equal_lnn_AM1.2Hz_s35_6.m4a,,,,,,,,,,,,
,,,,,39600,2021-09-28_14h10.13.354,judgeSpeechMusic_20210921_logNormShiftAmp_detection_fixS,2020.1.2,Win32,60,,,,,,,,,,,,,,,,,,,,,,,,,,,,,,2,6.334900002,,0,0,22,22,33,1,stimuli/stim_20210706_power2amp/equal_lnn_AM2.4Hz_s35_30.m4a,,,,,,,,,,,,
,,,,,39600,2021-09-28_14h10.13.354,judgeSpeechMusic_20210921_logNormShiftAmp_detection_fixS,2020.1.2,Win32,60,,,,,,,,,,,,,,,,,,,,,,,,,,,,,,1,7.614299999,,0,0,23,23,13,1,stimuli/stim_20210706_power2amp/equal_lnn_AM0.6Hz_s35_19.m4a,,,,,,,,,,,,
,,,,,39600,2021-09-28_14h10.13.354,judgeSpeechMusic_20210921_logNormShiftAmp_detection_fixS,2020.1.2,Win32,60,,,,,,,,,,,,,,,,,,,,,,,,,,,,,,2,6.239100002,,0,0,24,24,65,1,stimuli/stim_20210706_power2amp/equal_lnn_AM4.2Hz_s35_21.m4a,,,,,,,,,,,,
,,,,,39600,2021-09-28_14h10.13.354,judgeSpeechMusic_20210921_logNormShiftAmp_detection_fixS,2020.1.2,Win32,60,,,,,,,,,,,,,,,,,,,,,,,,,,,,,,2,5.759699997,,0,0,25,25,39,1,stimuli/stim_20210706_power2amp/equal_lnn_AM2.4Hz_s35_31.m4a,,,,,,,,,,,,
,,,,,39600,2021-09-28_14h10.13.354,judgeSpeechMusic_20210921_logNormShiftAmp_detection_fixS,2020.1.2,Win32,60,,,,,,,,,,,,,,,,,,,,,,,,,,,,,,1,6.157300003,,0,0,26,26,34,1,stimuli/stim_20210706_power2amp/equal_lnn_AM2.4Hz_s35_49.m4a,,,,,,,,,,,,
,,,,,39600,2021-09-28_14h10.13.354,judgeSpeechMusic_20210921_logNormShiftAmp_detection_fixS,2020.1.2,Win32,60,,,,,,,,,,,,,,,,,,,,,,,,,,,,,,1,5.568,,0,0,27,27,8,1,stimuli/stim_20210706_power2amp/equal_lnn_AM0.6Hz_s35_37.m4a,,,,,,,,,,,,
,,,,,39600,2021-09-28_14h10.13.354,judgeSpeechMusic_20210921_logNormShiftAmp_detection_fixS,2020.1.2,Win32,60,,,,,,,,,,,,,,,,,,,,,,,,,,,,,,1,5.743,,0,0,28,28,17,1,stimuli/stim_20210706_power2amp/equal_lnn_AM1.2Hz_s35_10.m4a,,,,,,,,,,,,
,,,,,39600,2021-09-28_14h10.13.354,judgeSpeechMusic_20210921_logNormShiftAmp_detection_fixS,2020.1.2,Win32,60,,,,,,,,,,,,,,,,,,,,,,,,,,,,,,2,6.1295,,0,0,29,29,72,1,stimuli/stim_20210706_power2amp/equal_lnn_AM4.2Hz_s35_8.m4a,,,,,,,,,,,,
,,,,,39600,2021-09-28_14h10.13.354,judgeSpeechMusic_20210921_logNormShiftAmp_detection_fixS,2020.1.2,Win32,60,,,,,,,,,,,,,,,,,,,,,,,,,,,,,,2,5.711,,0,0,30,30,36,1,stimuli/stim_20210706_power2amp/equal_lnn_AM2.4Hz_s35_21.m4a,,,,,,,,,,,,
,,,,,39600,2021-09-28_14h10.13.354,judgeSpeechMusic_20210921_logNormShiftAmp_detection_fixS,2020.1.2,Win32,60,,,,,,,,,,,,,,,,,,,,,,,,,,,,,,1,6.003399998,,0,0,31,31,5,1,stimuli/stim_20210706_power2amp/equal_lnn_AM0.6Hz_s35_32.m4a,,,,,,,,,,,,
,,,,,39600,2021-09-28_14h10.13.354,judgeSpeechMusic_20210921_logNormShiftAmp_detection_fixS,2020.1.2,Win32,60,,,,,,,,,,,,,,,,,,,,,,,,,,,,,,1,6.179300003,,0,0,32,32,1,1,stimuli/stim_20210706_power2amp/equal_lnn_AM0.6Hz_s35_13.m4a,,,,,,,,,,,,
,,,,,39600,2021-09-28_14h10.13.354,judgeSpeechMusic_20210921_logNormShiftAmp_detection_fixS,2020.1.2,Win32,60,,,,,,,,,,,,,,,,,,,,,,,,,,,,,,2,5.892100002,,0,0,33,33,61,1,stimuli/stim_20210706_power2amp/equal_lnn_AM4.2Hz_s35_45.m4a,,,,,,,,,,,,
,,,,,39600,2021-09-28_14h10.13.354,judgeSpeechMusic_20210921_logNormShiftAmp_detection_fixS,2020.1.2,Win32,60,,,,,,,,,,,,,,,,,,,,,,,,,,,,,,2,5.688700001,,0,0,34,34,74,1,stimuli/stim_20210706_power2amp/equal_lnn_AM4.2Hz_s35_44.m4a,,,,,,,,,,,,
,,,,,39600,2021-09-28_14h10.13.354,judgeSpeechMusic_20210921_logNormShiftAmp_detection_fixS,2020.1.2,Win32,60,,,,,,,,,,,,,,,,,,,,,,,,,,,,,,2,5.817200001,,0,0,35,35,31,1,stimuli/stim_20210706_power2amp/equal_lnn_AM2.4Hz_s35_10.m4a,,,,,,,,,,,,
,,,,,39600,2021-09-28_14h10.13.354,judgeSpeechMusic_20210921_logNormShiftAmp_detection_fixS,2020.1.2,Win32,60,,,,,,,,,,,,,,,,,,,,,,,,,,,,,,1,5.850700001,,0,0,36,36,2,1,stimuli/stim_20210706_power2amp/equal_lnn_AM0.6Hz_s35_17.m4a,,,,,,,,,,,,
,,,,,39600,2021-09-28_14h10.13.354,judgeSpeechMusic_20210921_logNormShiftAmp_detection_fixS,2020.1.2,Win32,60,,,,,,,,,,,,,,,,,,,,,,,,,,,,,,2,5.379,,0,0,37,37,51,1,stimuli/stim_20210706_power2amp/equal_lnn_AM3.6Hz_s35_36.m4a,,,,,,,,,,,,
,,,,,39600,2021-09-28_14h10.13.354,judgeSpeechMusic_20210921_logNormShiftAmp_detection_fixS,2020.1.2,Win32,60,,,,,,,,,,,,,,,,,,,,,,,,,,,,,,1,7.031,,0,0,38,38,3,1,stimuli/stim_20210706_power2amp/equal_lnn_AM0.6Hz_s35_8.m4a,,,,,,,,,,,,
,,,,,39600,2021-09-28_14h10.13.354,judgeSpeechMusic_20210921_logNormShiftAmp_detection_fixS,2020.1.2,Win32,60,,,,,,,,,,,,,,,,,,,,,,,,,,,,,,1,5.721600002,,0,0,39,39,26,1,stimuli/stim_20210706_power2amp/equal_lnn_AM1.2Hz_s35_12.m4a,,,,,,,,,,,,
,,,,,39600,2021-09-28_14h10.13.354,judgeSpeechMusic_20210921_logNormShiftAmp_detection_fixS,2020.1.2,Win32,60,,,,,,,,,,,,,,,,,,,,,,,,,,,,,,2,6.414200001,1,1,0,40,40,27,1,stimuli/stim_20210706_power2amp/equal_lnn_AM1.2Hz_s35_29.m4a,0.320900002,,,,,,,,,,,
,,,,,39600,2021-09-28_14h10.13.354,judgeSpeechMusic_20210921_logNormShiftAmp_detection_fixS,2020.1.2,Win32,60,,,,,,,,,,,,,,,,,,,,,,,,,,,,,,2,5.943199997,,0,0,41,41,24,1,stimuli/stim_20210706_power2amp/equal_lnn_AM1.2Hz_s35_3.m4a,,,,,,,,,,,,
,,,,,39600,2021-09-28_14h10.13.354,judgeSpeechMusic_20210921_logNormShiftAmp_detection_fixS,2020.1.2,Win32,60,,,,,,,,,,,,,,,,,,,,,,,,,,,,,,1,6.123100002,,0,0,42,42,20,1,stimuli/stim_20210706_power2amp/equal_lnn_AM1.2Hz_s35_24.m4a,,,,,,,,,,,,
,,,,,39600,2021-09-28_14h10.13.354,judgeSpeechMusic_20210921_logNormShiftAmp_detection_fixS,2020.1.2,Win32,60,,,,,,,,,,,,,,,,,,,,,,,,,,,,,,2,6.401,,0,0,43,43,22,1,stimuli/stim_20210706_power2amp/equal_lnn_AM1.2Hz_s35_15.m4a,,,,,,,,,,,,
,,,,,39600,2021-09-28_14h10.13.354,judgeSpeechMusic_20210921_logNormShiftAmp_detection_fixS,2020.1.2,Win32,60,,,,,,,,,,,,,,,,,,,,,,,,,,,,,,2,5.710600002,,0,0,44,44,30,1,stimuli/stim_20210706_power2amp/equal_lnn_AM2.4Hz_s35_19.m4a,,,,,,,,,,,,
,,,,,39600,2021-09-28_14h10.13.354,judgeSpeechMusic_20210921_logNormShiftAmp_detection_fixS,2020.1.2,Win32,60,,,,,,,,,,,,,,,,,,,,,,,,,,,,,,2,5.748299999,,0,0,45,45,47,1,stimuli/stim_20210706_power2amp/equal_lnn_AM3.6Hz_s35_31.m4a,,,,,,,,,,,,
,,,,,39600,2021-09-28_14h10.13.354,judgeSpeechMusic_20210921_logNormShiftAmp_detection_fixS,2020.1.2,Win32,60,,,,,,,,,,,,,,,,,,,,,,,,,,,,,,2,5.861099998,,0,0,46,46,19,1,stimuli/stim_20210706_power2amp/equal_lnn_AM1.2Hz_s35_20.m4a,,,,,,,,,,,,
,,,,,39600,2021-09-28_14h10.13.354,judgeSpeechMusic_20210921_logNormShiftAmp_detection_fixS,2020.1.2,Win32,60,,,,,,,,,,,,,,,,,,,,,,,,,,,,,,2,5.798200001,,0,0,47,47,50,1,stimuli/stim_20210706_power2amp/equal_lnn_AM3.6Hz_s35_3.m4a,,,,,,,,,,,,
,,,,,39600,2021-09-28_14h10.13.354,judgeSpeechMusic_20210921_logNormShiftAmp_detection_fixS,2020.1.2,Win32,60,,,,,,,,,,,,,,,,,,,,,,,,,,,,,,2,5.749400002,,0,0,48,48,57,1,stimuli/stim_20210706_power2amp/equal_lnn_AM3.6Hz_s35_38.m4a,,,,,,,,,,,,
,,,,,39600,2021-09-28_14h10.13.354,judgeSpeechMusic_20210921_logNormShiftAmp_detection_fixS,2020.1.2,Win32,60,,,,,,,,,,,,,,,,,,,,,,,,,,,,,,2,6.441600002,,0,0,49,49,23,1,stimuli/stim_20210706_power2amp/equal_lnn_AM1.2Hz_s35_16.m4a,,,,,,,,,,,,
,,,,,39600,2021-09-28_14h10.13.354,judgeSpeechMusic_20210921_logNormShiftAmp_detection_fixS,2020.1.2,Win32,60,,,,,,,,,,,,,,,,,,,,,,,,,,,,,,2,5.658900002,,0,0,50,50,49,1,stimuli/stim_20210706_power2amp/equal_lnn_AM3.6Hz_s35_37.m4a,,,,,,,,,,,,
,,,,,39600,2021-09-28_14h10.13.354,judgeSpeechMusic_20210921_logNormShiftAmp_detection_fixS,2020.1.2,Win32,60,,,,,,,,,,,,,,,,,,,,,,,,,,,,,,2,5.718799999,,0,0,51,51,71,1,stimuli/stim_20210706_power2amp/equal_lnn_AM4.2Hz_s35_37.m4a,,,,,,,,,,,,
,,,,,39600,2021-09-28_14h10.13.354,judgeSpeechMusic_20210921_logNormShiftAmp_detection_fixS,2020.1.2,Win32,60,,,,,,,,,,,,,,,,,,,,,,,,,,,,,,1,6.177400002,,0,0,52,52,0,1,stimuli/stim_20210706_power2amp/equal_lnn_AM0.6Hz_s35_31.m4a,,,,,,,,,,,,
,,,,,39600,2021-09-28_14h10.13.354,judgeSpeechMusic_20210921_logNormShiftAmp_detection_fixS,2020.1.2,Win32,60,,,,,,,,,,,,,,,,,,,,,,,,,,,,,,1,5.731800003,,0,0,53,53,28,1,stimuli/stim_20210706_power2amp/equal_lnn_AM1.2Hz_s35_1.m4a,,,,,,,,,,,,
,,,,,39600,2021-09-28_14h10.13.354,judgeSpeechMusic_20210921_logNormShiftAmp_detection_fixS,2020.1.2,Win32,60,,,,,,,,,,,,,,,,,,,,,,,,,,,,,,2,6.843900002,,0,0,54,54,60,1,stimuli/stim_20210706_power2amp/equal_lnn_AM4.2Hz_s35_7.m4a,,,,,,,,,,,,
,,,,,39600,2021-09-28_14h10.13.354,judgeSpeechMusic_20210921_logNormShiftAmp_detection_fixS,2020.1.2,Win32,60,,,,,,,,,,,,,,,,,,,,,,,,,,,,,,2,5.7655,,0,0,55,55,38,1,stimuli/stim_20210706_power2amp/equal_lnn_AM2.4Hz_s35_16.m4a,,,,,,,,,,,,
,,,,,39600,2021-09-28_14h10.13.354,judgeSpeechMusic_20210921_logNormShiftAmp_detection_fixS,2020.1.2,Win32,60,,,,,,,,,,,,,,,,,,,,,,,,,,,,,,2,5.733200001,,0,0,56,56,69,1,stimuli/stim_20210706_power2amp/equal_lnn_AM4.2Hz_s35_23.m4a,,,,,,,,,,,,
,,,,,39600,2021-09-28_14h10.13.354,judgeSpeechMusic_20210921_logNormShiftAmp_detection_fixS,2020.1.2,Win32,60,,,,,,,,,,,,,,,,,,,,,,,,,,,,,,2,5.833300003,,0,0,57,57,16,1,stimuli/stim_20210706_power2amp/equal_lnn_AM1.2Hz_s35_19.m4a,,,,,,,,,,,,
,,,,,39600,2021-09-28_14h10.13.354,judgeSpeechMusic_20210921_logNormShiftAmp_detection_fixS,2020.1.2,Win32,60,,,,,,,,,,,,,,,,,,,,,,,,,,,,,,1,5.710299999,1,1,0,58,58,9,1,stimuli/stim_20210706_power2amp/equal_lnn_AM0.6Hz_s35_12.m4a,1.012100002,,,,,,,,,,,
,,,,,39600,2021-09-28_14h10.13.354,judgeSpeechMusic_20210921_logNormShiftAmp_detection_fixS,2020.1.2,Win32,60,,,,,,,,,,,,,,,,,,,,,,,,,,,,,,2,6.161100002,,0,0,59,59,37,1,stimuli/stim_20210706_power2amp/equal_lnn_AM2.4Hz_s35_2.m4a,,,,,,,,,,,,
,,,,,39600,2021-09-28_14h10.13.354,judgeSpeechMusic_20210921_logNormShiftAmp_detection_fixS,2020.1.2,Win32,60,,,,,,,,,,,,,,,,,,,,,,,,,,,,,,1,6.008200001,,0,0,60,60,25,1,stimuli/stim_20210706_power2amp/equal_lnn_AM1.2Hz_s35_8.m4a,,,,,,,,,,,,
,,,,,39600,2021-09-28_14h10.13.354,judgeSpeechMusic_20210921_logNormShiftAmp_detection_fixS,2020.1.2,Win32,60,,,,,,,,,,,,,,,,,,,,,,,,,,,,,,2,5.789599998,,0,0,61,61,70,1,stimuli/stim_20210706_power2amp/equal_lnn_AM4.2Hz_s35_36.m4a,,,,,,,,,,,,
,,,,,39600,2021-09-28_14h10.13.354,judgeSpeechMusic_20210921_logNormShiftAmp_detection_fixS,2020.1.2,Win32,60,,,,,,,,,,,,,,,,,,,,,,,,,,,,,,1,6.068099998,,0,0,62,62,4,1,stimuli/stim_20210706_power2amp/equal_lnn_AM0.6Hz_s35_50.m4a,,,,,,,,,,,,
,,,,,39600,2021-09-28_14h10.13.354,judgeSpeechMusic_20210921_logNormShiftAmp_detection_fixS,2020.1.2,Win32,60,,,,,,,,,,,,,,,,,,,,,,,,,,,,,,2,5.900099998,,0,0,63,63,46,1,stimuli/stim_20210706_power2amp/equal_lnn_AM3.6Hz_s35_9.m4a,,,,,,,,,,,,
,,,,,39600,2021-09-28_14h10.13.354,judgeSpeechMusic_20210921_logNormShiftAmp_detection_fixS,2020.1.2,Win32,60,,,,,,,,,,,,,,,,,,,,,,,,,,,,,,2,5.658399998,,0,0,64,64,35,1,stimuli/stim_20210706_power2amp/equal_lnn_AM2.4Hz_s35_50.m4a,,,,,,,,,,,,
,,,,,39600,2021-09-28_14h10.13.354,judgeSpeechMusic_20210921_logNormShiftAmp_detection_fixS,2020.1.2,Win32,60,,,,,,,,,,,,,,,,,,,,,,,,,,,,,,1,5.863200001,,0,0,65,65,29,1,stimuli/stim_20210706_power2amp/equal_lnn_AM1.2Hz_s35_25.m4a,,,,,,,,,,,,
,,,,,39600,2021-09-28_14h10.13.354,judgeSpeechMusic_20210921_logNormShiftAmp_detection_fixS,2020.1.2,Win32,60,,,,,,,,,,,,,,,,,,,,,,,,,,,,,,2,5.893099998,,0,0,66,66,66,1,stimuli/stim_20210706_power2amp/equal_lnn_AM4.2Hz_s35_12.m4a,,,,,,,,,,,,
,,,,,39600,2021-09-28_14h10.13.354,judgeSpeechMusic_20210921_logNormShiftAmp_detection_fixS,2020.1.2,Win32,60,,,,,,,,,,,,,,,,,,,,,,,,,,,,,,2,5.742799999,,0,0,67,67,45,1,stimuli/stim_20210706_power2amp/equal_lnn_AM3.6Hz_s35_19.m4a,,,,,,,,,,,,
,,,,,39600,2021-09-28_14h10.13.354,judgeSpeechMusic_20210921_logNormShiftAmp_detection_fixS,2020.1.2,Win32,60,,,,,,,,,,,,,,,,,,,,,,,,,,,,,,2,5.705799999,,0,0,68,68,64,1,stimuli/stim_20210706_power2amp/equal_lnn_AM4.2Hz_s35_34.m4a,,,,,,,,,,,,
,,,,,39600,2021-09-28_14h10.13.354,judgeSpeechMusic_20210921_logNormShiftAmp_detection_fixS,2020.1.2,Win32,60,,,,,,,,,,,,,,,,,,,,,,,,,,,,,,2,5.7375,,0,0,69,69,67,1,stimuli/stim_20210706_power2amp/equal_lnn_AM4.2Hz_s35_41.m4a,,,,,,,,,,,,
,,,,,39600,2021-09-28_14h10.13.354,judgeSpeechMusic_20210921_logNormShiftAmp_detection_fixS,2020.1.2,Win32,60,,,,,,,,,,,,,,,,,,,,,,,,,,,,,,2,5.7215,,0,0,70,70,41,1,stimuli/stim_20210706_power2amp/equal_lnn_AM2.4Hz_s35_35.m4a,,,,,,,,,,,,
,,,,,39600,2021-09-28_14h10.13.354,judgeSpeechMusic_20210921_logNormShiftAmp_detection_fixS,2020.1.2,Win32,60,,,,,,,,,,,,,,,,,,,,,,,,,,,,,,2,5.754700001,,0,0,71,71,55,1,stimuli/stim_20210706_power2amp/equal_lnn_AM3.6Hz_s35_44.m4a,,,,,,,,,,,,
,,,,,39600,2021-09-28_14h10.13.354,judgeSpeechMusic_20210921_logNormShiftAmp_detection_fixS,2020.1.2,Win32,60,,,,,,,,,,,,,,,,,,,,,,,,,,,,,,1,6.150600002,,0,0,72,72,11,1,stimuli/stim_20210706_power2amp/equal_lnn_AM0.6Hz_s35_22.m4a,,,,,,,,,,,,
,,,,,39600,2021-09-28_14h10.13.354,judgeSpeechMusic_20210921_logNormShiftAmp_detection_fixS,2020.1.2,Win32,60,,,,,,,,,,,,,,,,,,,,,,,,,,,,,,2,6.068799999,,0,0,73,73,59,1,stimuli/stim_20210706_power2amp/equal_lnn_AM3.6Hz_s35_25.m4a,,,,,,,,,,,,
,,,,,39600,2021-09-28_14h10.13.354,judgeSpeechMusic_20210921_logNormShiftAmp_detection_fixS,2020.1.2,Win32,60,,,,,,,,,,,,,,,,,,,,,,,,,,,,,,2,5.701,,0,0,74,74,42,1,stimuli/stim_20210706_power2amp/equal_lnn_AM2.4Hz_s35_34.m4a,,,,,,,,,,,,
,,,,,39600,2021-09-28_14h10.13.354,judgeSpeechMusic_20210921_logNormShiftAmp_detection_fixS,2020.1.2,Win32,60,,,,,,,,,,,,,,,,,,,,,,,,,,,,,,,,,,,,,,,,,space,0.503900002,1,0,2,1,1,SPEECH,stimuli/SPEECH.jpg,,
,,,,,39600,2021-09-28_14h10.13.354,judgeSpeechMusic_20210921_logNormShiftAmp_detection_fixS,2020.1.2,Win32,60,,,,,,,,,,,,,,,,,,0,0,0,0,2,1,stimuli/stim_20210706_power2amp/equal_lnn_AM_training3Hz_s35.m4a,,,,,,,,,,,,,,,,,,,,,,,,,,,
,,,,,39600,2021-09-28_14h10.13.354,judgeSpeechMusic_20210921_logNormShiftAmp_detection_fixS,2020.1.2,Win32,60,,,,,,,,,,,,,,,,,,,,,,,,,,space,1.900599998,space,8.699399998,2,7.477299999,,0,0,0,0,50,1,stimuli/stim_20210706_power2amp/equal_lnn_AM3.6Hz_s35_3.m4a,,,,,,,,,,,,
,,,,,39600,2021-09-28_14h10.13.354,judgeSpeechMusic_20210921_logNormShiftAmp_detection_fixS,2020.1.2,Win32,60,,,,,,,,,,,,,,,,,,,,,,,,,,,,,,2,5.748599998,,0,0,1,1,51,1,stimuli/stim_20210706_power2amp/equal_lnn_AM3.6Hz_s35_36.m4a,,,,,,,,,,,,
,,,,,39600,2021-09-28_14h10.13.354,judgeSpeechMusic_20210921_logNormShiftAmp_detection_fixS,2020.1.2,Win32,60,,,,,,,,,,,,,,,,,,,,,,,,,,,,,,2,5.728700001,,0,0,2,2,37,1,stimuli/stim_20210706_power2amp/equal_lnn_AM2.4Hz_s35_2.m4a,,,,,,,,,,,,
,,,,,39600,2021-09-28_14h10.13.354,judgeSpeechMusic_20210921_logNormShiftAmp_detection_fixS,2020.1.2,Win32,60,,,,,,,,,,,,,,,,,,,,,,,,,,,,,,1,6.084299999,,0,0,3,3,3,1,stimuli/stim_20210706_power2amp/equal_lnn_AM0.6Hz_s35_8.m4a,,,,,,,,,,,,
,,,,,39600,2021-09-28_14h10.13.354,judgeSpeechMusic_20210921_logNormShiftAmp_detection_fixS,2020.1.2,Win32,60,,,,,,,,,,,,,,,,,,,,,,,,,,,,,,2,6.184799999,,0,0,4,4,18,1,stimuli/stim_20210706_power2amp/equal_lnn_AM1.2Hz_s35_45.m4a,,,,,,,,,,,,
,,,,,39600,2021-09-28_14h10.13.354,judgeSpeechMusic_20210921_logNormShiftAmp_detection_fixS,2020.1.2,Win32,60,,,,,,,,,,,,,,,,,,,,,,,,,,,,,,2,5.793100002,,0,0,5,5,44,1,stimuli/stim_20210706_power2amp/equal_lnn_AM2.4Hz_s35_29.m4a,,,,,,,,,,,,
,,,,,39600,2021-09-28_14h10.13.354,judgeSpeechMusic_20210921_logNormShiftAmp_detection_fixS,2020.1.2,Win32,60,,,,,,,,,,,,,,,,,,,,,,,,,,,,,,2,5.661799999,,0,0,6,6,68,1,stimuli/stim_20210706_power2amp/equal_lnn_AM4.2Hz_s35_50.m4a,,,,,,,,,,,,
,,,,,39600,2021-09-28_14h10.13.354,judgeSpeechMusic_20210921_logNormShiftAmp_detection_fixS,2020.1.2,Win32,60,,,,,,,,,,,,,,,,,,,,,,,,,,,,,,1,6.221299999,,0,0,7,7,11,1,stimuli/stim_20210706_power2amp/equal_lnn_AM0.6Hz_s35_22.m4a,,,,,,,,,,,,
,,,,,39600,2021-09-28_14h10.13.354,judgeSpeechMusic_20210921_logNormShiftAmp_detection_fixS,2020.1.2,Win32,60,,,,,,,,,,,,,,,,,,,,,,,,,,,,,,2,6.173100002,,0,0,8,8,15,1,stimuli/stim_20210706_power2amp/equal_lnn_AM1.2Hz_s35_6.m4a,,,,,,,,,,,,
,,,,,39600,2021-09-28_14h10.13.354,judgeSpeechMusic_20210921_logNormShiftAmp_detection_fixS,2020.1.2,Win32,60,,,,,,,,,,,,,,,,,,,,,,,,,,,,,,2,5.660800003,,0,0,9,9,65,1,stimuli/stim_20210706_power2amp/equal_lnn_AM4.2Hz_s35_21.m4a,,,,,,,,,,,,
,,,,,39600,2021-09-28_14h10.13.354,judgeSpeechMusic_20210921_logNormShiftAmp_detection_fixS,2020.1.2,Win32,60,,,,,,,,,,,,,,,,,,,,,,,,,,,,,,2,5.886399998,,0,0,10,10,17,1,stimuli/stim_20210706_power2amp/equal_lnn_AM1.2Hz_s35_10.m4a,,,,,,,,,,,,
,,,,,39600,2021-09-28_14h10.13.354,judgeSpeechMusic_20210921_logNormShiftAmp_detection_fixS,2020.1.2,Win32,60,,,,,,,,,,,,,,,,,,,,,,,,,,,,,,2,5.769,,0,0,11,11,63,1,stimuli/stim_20210706_power2amp/equal_lnn_AM4.2Hz_s35_2.m4a,,,,,,,,,,,,
,,,,,39600,2021-09-28_14h10.13.354,judgeSpeechMusic_20210921_logNormShiftAmp_detection_fixS,2020.1.2,Win32,60,,,,,,,,,,,,,,,,,,,,,,,,,,,,,,2,5.799,,0,0,12,12,56,1,stimuli/stim_20210706_power2amp/equal_lnn_AM3.6Hz_s35_12.m4a,,,,,,,,,,,,
,,,,,39600,2021-09-28_14h10.13.354,judgeSpeechMusic_20210921_logNormShiftAmp_detection_fixS,2020.1.2,Win32,60,,,,,,,,,,,,,,,,,,,,,,,,,,,,,,2,5.761799999,,0,0,13,13,43,1,stimuli/stim_20210706_power2amp/equal_lnn_AM2.4Hz_s35_38.m4a,,,,,,,,,,,,
,,,,,39600,2021-09-28_14h10.13.354,judgeSpeechMusic_20210921_logNormShiftAmp_detection_fixS,2020.1.2,Win32,60,,,,,,,,,,,,,,,,,,,,,,,,,,,,,,2,5.765699997,,0,0,14,14,35,1,stimuli/stim_20210706_power2amp/equal_lnn_AM2.4Hz_s35_50.m4a,,,,,,,,,,,,
,,,,,39600,2021-09-28_14h10.13.354,judgeSpeechMusic_20210921_logNormShiftAmp_detection_fixS,2020.1.2,Win32,60,,,,,,,,,,,,,,,,,,,,,,,,,,,,,,1,6.384300003,,0,0,15,15,8,1,stimuli/stim_20210706_power2amp/equal_lnn_AM0.6Hz_s35_37.m4a,,,,,,,,,,,,
,,,,,39600,2021-09-28_14h10.13.354,judgeSpeechMusic_20210921_logNormShiftAmp_detection_fixS,2020.1.2,Win32,60,,,,,,,,,,,,,,,,,,,,,,,,,,,,,,2,5.711899998,,0,0,16,16,55,1,stimuli/stim_20210706_power2amp/equal_lnn_AM3.6Hz_s35_44.m4a,,,,,,,,,,,,
,,,,,39600,2021-09-28_14h10.13.354,judgeSpeechMusic_20210921_logNormShiftAmp_detection_fixS,2020.1.2,Win32,60,,,,,,,,,,,,,,,,,,,,,,,,,,,,,,1,6.331299999,,0,0,17,17,67,1,stimuli/stim_20210706_power2amp/equal_lnn_AM4.2Hz_s35_41.m4a,,,,,,,,,,,,
,,,,,39600,2021-09-28_14h10.13.354,judgeSpeechMusic_20210921_logNormShiftAmp_detection_fixS,2020.1.2,Win32,60,,,,,,,,,,,,,,,,,,,,,,,,,,,,,,2,5.875699997,,0,0,18,18,7,1,stimuli/stim_20210706_power2amp/equal_lnn_AM0.6Hz_s35_21.m4a,,,,,,,,,,,,
,,,,,39600,2021-09-28_14h10.13.354,judgeSpeechMusic_20210921_logNormShiftAmp_detection_fixS,2020.1.2,Win32,60,,,,,,,,,,,,,,,,,,,,,,,,,,,,,,2,5.768799999,,0,0,19,19,38,1,stimuli/stim_20210706_power2amp/equal_lnn_AM2.4Hz_s35_16.m4a,,,,,,,,,,,,
,,,,,39600,2021-09-28_14h10.13.354,judgeSpeechMusic_20210921_logNormShiftAmp_detection_fixS,2020.1.2,Win32,60,,,,,,,,,,,,,,,,,,,,,,,,,,,,,,1,5.878900002,2,1,0,20,20,70,1,stimuli/stim_20210706_power2amp/equal_lnn_AM4.2Hz_s35_36.m4a,0.482299999,,,,,,,,,,,
,,,,,39600,2021-09-28_14h10.13.354,judgeSpeechMusic_20210921_logNormShiftAmp_detection_fixS,2020.1.2,Win32,60,,,,,,,,,,,,,,,,,,,,,,,,,,,,,,1,5.774600002,,0,0,21,21,6,1,stimuli/stim_20210706_power2amp/equal_lnn_AM0.6Hz_s35_6.m4a,,,,,,,,,,,,
,,,,,39600,2021-09-28_14h10.13.354,judgeSpeechMusic_20210921_logNormShiftAmp_detection_fixS,2020.1.2,Win32,60,,,,,,,,,,,,,,,,,,,,,,,,,,,,,,1,6.864899998,,0,0,22,22,54,1,stimuli/stim_20210706_power2amp/equal_lnn_AM3.6Hz_s35_1.m4a,,,,,,,,,,,,
,,,,,39600,2021-09-28_14h10.13.354,judgeSpeechMusic_20210921_logNormShiftAmp_detection_fixS,2020.1.2,Win32,60,,,,,,,,,,,,,,,,,,,,,,,,,,,,,,2,6.534399998,,0,0,23,23,49,1,stimuli/stim_20210706_power2amp/equal_lnn_AM3.6Hz_s35_37.m4a,,,,,,,,,,,,
,,,,,39600,2021-09-28_14h10.13.354,judgeSpeechMusic_20210921_logNormShiftAmp_detection_fixS,2020.1.2,Win32,60,,,,,,,,,,,,,,,,,,,,,,,,,,,,,,1,6.043,,0,0,24,24,1,1,stimuli/stim_20210706_power2amp/equal_lnn_AM0.6Hz_s35_13.m4a,,,,,,,,,,,,
,,,,,39600,2021-09-28_14h10.13.354,judgeSpeechMusic_20210921_logNormShiftAmp_detection_fixS,2020.1.2,Win32,60,,,,,,,,,,,,,,,,,,,,,,,,,,,,,,2,5.789899998,,0,0,25,25,21,1,stimuli/stim_20210706_power2amp/equal_lnn_AM1.2Hz_s35_9.m4a,,,,,,,,,,,,
,,,,,39600,2021-09-28_14h10.13.354,judgeSpeechMusic_20210921_logNormShiftAmp_detection_fixS,2020.1.2,Win32,60,,,,,,,,,,,,,,,,,,,,,,,,,,,,,,2,5.250899998,,0,0,26,26,48,1,stimuli/stim_20210706_power2amp/equal_lnn_AM3.6Hz_s35_10.m4a,,,,,,,,,,,,
,,,,,39600,2021-09-28_14h10.13.354,judgeSpeechMusic_20210921_logNormShiftAmp_detection_fixS,2020.1.2,Win32,60,,,,,,,,,,,,,,,,,,,,,,,,,,,,,,2,5.752899998,,0,0,27,27,32,1,stimuli/stim_20210706_power2amp/equal_lnn_AM2.4Hz_s35_33.m4a,,,,,,,,,,,,
,,,,,39600,2021-09-28_14h10.13.354,judgeSpeechMusic_20210921_logNormShiftAmp_detection_fixS,2020.1.2,Win32,60,,,,,,,,,,,,,,,,,,,,,,,,,,,,,,2,5.872099998,,0,0,28,28,19,1,stimuli/stim_20210706_power2amp/equal_lnn_AM1.2Hz_s35_20.m4a,,,,,,,,,,,,
,,,,,39600,2021-09-28_14h10.13.354,judgeSpeechMusic_20210921_logNormShiftAmp_detection_fixS,2020.1.2,Win32,60,,,,,,,,,,,,,,,,,,,,,,,,,,,,,,1,6.808299999,,0,0,29,29,61,1,stimuli/stim_20210706_power2amp/equal_lnn_AM4.2Hz_s35_45.m4a,,,,,,,,,,,,
,,,,,39600,2021-09-28_14h10.13.354,judgeSpeechMusic_20210921_logNormShiftAmp_detection_fixS,2020.1.2,Win32,60,,,,,,,,,,,,,,,,,,,,,,,,,,,,,,2,5.935700001,,0,0,30,30,14,1,stimuli/stim_20210706_power2amp/equal_lnn_AM0.6Hz_s35_40.m4a,,,,,,,,,,,,
,,,,,39600,2021-09-28_14h10.13.354,judgeSpeechMusic_20210921_logNormShiftAmp_detection_fixS,2020.1.2,Win32,60,,,,,,,,,,,,,,,,,,,,,,,,,,,,,,2,6.209,,0,0,31,31,5,1,stimuli/stim_20210706_power2amp/equal_lnn_AM0.6Hz_s35_32.m4a,,,,,,,,,,,,
,,,,,39600,2021-09-28_14h10.13.354,judgeSpeechMusic_20210921_logNormShiftAmp_detection_fixS,2020.1.2,Win32,60,,,,,,,,,,,,,,,,,,,,,,,,,,,,,,1,5.803699997,,0,0,32,32,13,1,stimuli/stim_20210706_power2amp/equal_lnn_AM0.6Hz_s35_19.m4a,,,,,,,,,,,,
,,,,,39600,2021-09-28_14h10.13.354,judgeSpeechMusic_20210921_logNormShiftAmp_detection_fixS,2020.1.2,Win32,60,,,,,,,,,,,,,,,,,,,,,,,,,,,,,,1,5.751,,0,0,33,33,4,1,stimuli/stim_20210706_power2amp/equal_lnn_AM0.6Hz_s35_50.m4a,,,,,,,,,,,,
,,,,,39600,2021-09-28_14h10.13.354,judgeSpeechMusic_20210921_logNormShiftAmp_detection_fixS,2020.1.2,Win32,60,,,,,,,,,,,,,,,,,,,,,,,,,,,,,,1,5.825,,0,0,34,34,0,1,stimuli/stim_20210706_power2amp/equal_lnn_AM0.6Hz_s35_31.m4a,,,,,,,,,,,,
,,,,,39600,2021-09-28_14h10.13.354,judgeSpeechMusic_20210921_logNormShiftAmp_detection_fixS,2020.1.2,Win32,60,,,,,,,,,,,,,,,,,,,,,,,,,,,,,,1,5.709899998,,0,0,35,35,64,1,stimuli/stim_20210706_power2amp/equal_lnn_AM4.2Hz_s35_34.m4a,,,,,,,,,,,,
,,,,,39600,2021-09-28_14h10.13.354,judgeSpeechMusic_20210921_logNormShiftAmp_detection_fixS,2020.1.2,Win32,60,,,,,,,,,,,,,,,,,,,,,,,,,,,,,,2,6.492299999,,0,0,36,36,39,1,stimuli/stim_20210706_power2amp/equal_lnn_AM2.4Hz_s35_31.m4a,,,,,,,,,,,,
,,,,,39600,2021-09-28_14h10.13.354,judgeSpeechMusic_20210921_logNormShiftAmp_detection_fixS,2020.1.2,Win32,60,,,,,,,,,,,,,,,,,,,,,,,,,,,,,,2,5.734400002,,0,0,37,37,27,1,stimuli/stim_20210706_power2amp/equal_lnn_AM1.2Hz_s35_29.m4a,,,,,,,,,,,,
,,,,,39600,2021-09-28_14h10.13.354,judgeSpeechMusic_20210921_logNormShiftAmp_detection_fixS,2020.1.2,Win32,60,,,,,,,,,,,,,,,,,,,,,,,,,,,,,,2,5.751,,0,0,38,38,53,1,stimuli/stim_20210706_power2amp/equal_lnn_AM3.6Hz_s35_28.m4a,,,,,,,,,,,,
,,,,,39600,2021-09-28_14h10.13.354,judgeSpeechMusic_20210921_logNormShiftAmp_detection_fixS,2020.1.2,Win32,60,,,,,,,,,,,,,,,,,,,,,,,,,,,,,,2,5.751699997,,0,0,39,39,52,1,stimuli/stim_20210706_power2amp/equal_lnn_AM3.6Hz_s35_26.m4a,,,,,,,,,,,,
,,,,,39600,2021-09-28_14h10.13.354,judgeSpeechMusic_20210921_logNormShiftAmp_detection_fixS,2020.1.2,Win32,60,,,,,,,,,,,,,,,,,,,,,,,,,,,,,,2,6.045,2,1,0,40,40,69,1,stimuli/stim_20210706_power2amp/equal_lnn_AM4.2Hz_s35_23.m4a,0.554700001,,,,,,,,,,,
,,,,,39600,2021-09-28_14h10.13.354,judgeSpeechMusic_20210921_logNormShiftAmp_detection_fixS,2020.1.2,Win32,60,,,,,,,,,,,,,,,,,,,,,,,,,,,,,,2,6.281100002,,0,0,41,41,72,1,stimuli/stim_20210706_power2amp/equal_lnn_AM4.2Hz_s35_8.m4a,,,,,,,,,,,,
,,,,,39600,2021-09-28_14h10.13.354,judgeSpeechMusic_20210921_logNormShiftAmp_detection_fixS,2020.1.2,Win32,60,,,,,,,,,,,,,,,,,,,,,,,,,,,,,,2,5.701200001,,0,0,42,42,60,1,stimuli/stim_20210706_power2amp/equal_lnn_AM4.2Hz_s35_7.m4a,,,,,,,,,,,,
,,,,,39600,2021-09-28_14h10.13.354,judgeSpeechMusic_20210921_logNormShiftAmp_detection_fixS,2020.1.2,Win32,60,,,,,,,,,,,,,,,,,,,,,,,,,,,,,,2,5.682299999,,0,0,43,43,41,1,stimuli/stim_20210706_power2amp/equal_lnn_AM2.4Hz_s35_35.m4a,,,,,,,,,,,,
,,,,,39600,2021-09-28_14h10.13.354,judgeSpeechMusic_20210921_logNormShiftAmp_detection_fixS,2020.1.2,Win32,60,,,,,,,,,,,,,,,,,,,,,,,,,,,,,,2,5.703900002,,0,0,44,44,36,1,stimuli/stim_20210706_power2amp/equal_lnn_AM2.4Hz_s35_21.m4a,,,,,,,,,,,,
,,,,,39600,2021-09-28_14h10.13.354,judgeSpeechMusic_20210921_logNormShiftAmp_detection_fixS,2020.1.2,Win32,60,,,,,,,,,,,,,,,,,,,,,,,,,,,,,,2,5.698,,0,0,45,45,25,1,stimuli/stim_20210706_power2amp/equal_lnn_AM1.2Hz_s35_8.m4a,,,,,,,,,,,,
,,,,,39600,2021-09-28_14h10.13.354,judgeSpeechMusic_20210921_logNormShiftAmp_detection_fixS,2020.1.2,Win32,60,,,,,,,,,,,,,,,,,,,,,,,,,,,,,,2,5.789100002,,0,0,46,46,26,1,stimuli/stim_20210706_power2amp/equal_lnn_AM1.2Hz_s35_12.m4a,,,,,,,,,,,,
,,,,,39600,2021-09-28_14h10.13.354,judgeSpeechMusic_20210921_logNormShiftAmp_detection_fixS,2020.1.2,Win32,60,,,,,,,,,,,,,,,,,,,,,,,,,,,,,,2,5.696700001,,0,0,47,47,29,1,stimuli/stim_20210706_power2amp/equal_lnn_AM1.2Hz_s35_25.m4a,,,,,,,,,,,,
,,,,,39600,2021-09-28_14h10.13.354,judgeSpeechMusic_20210921_logNormShiftAmp_detection_fixS,2020.1.2,Win32,60,,,,,,,,,,,,,,,,,,,,,,,,,,,,,,2,6.011700001,,0,0,48,48,73,1,stimuli/stim_20210706_power2amp/equal_lnn_AM4.2Hz_s35_39.m4a,,,,,,,,,,,,
,,,,,39600,2021-09-28_14h10.13.354,judgeSpeechMusic_20210921_logNormShiftAmp_detection_fixS,2020.1.2,Win32,60,,,,,,,,,,,,,,,,,,,,,,,,,,,,,,1,6.253399998,,0,0,49,49,28,1,stimuli/stim_20210706_power2amp/equal_lnn_AM1.2Hz_s35_1.m4a,,,,,,,,,,,,
,,,,,39600,2021-09-28_14h10.13.354,judgeSpeechMusic_20210921_logNormShiftAmp_detection_fixS,2020.1.2,Win32,60,,,,,,,,,,,,,,,,,,,,,,,,,,,,,,1,6.658799999,,0,0,50,50,71,1,stimuli/stim_20210706_power2amp/equal_lnn_AM4.2Hz_s35_37.m4a,,,,,,,,,,,,
,,,,,39600,2021-09-28_14h10.13.354,judgeSpeechMusic_20210921_logNormShiftAmp_detection_fixS,2020.1.2,Win32,60,,,,,,,,,,,,,,,,,,,,,,,,,,,,,,1,6.025,,0,0,51,51,10,1,stimuli/stim_20210706_power2amp/equal_lnn_AM0.6Hz_s35_5.m4a,,,,,,,,,,,,
,,,,,39600,2021-09-28_14h10.13.354,judgeSpeechMusic_20210921_logNormShiftAmp_detection_fixS,2020.1.2,Win32,60,,,,,,,,,,,,,,,,,,,,,,,,,,,,,,2,6.123099998,,0,0,52,52,59,1,stimuli/stim_20210706_power2amp/equal_lnn_AM3.6Hz_s35_25.m4a,,,,,,,,,,,,
,,,,,39600,2021-09-28_14h10.13.354,judgeSpeechMusic_20210921_logNormShiftAmp_detection_fixS,2020.1.2,Win32,60,,,,,,,,,,,,,,,,,,,,,,,,,,,,,,2,5.809099998,,0,0,53,53,2,1,stimuli/stim_20210706_power2amp/equal_lnn_AM0.6Hz_s35_17.m4a,,,,,,,,,,,,
,,,,,39600,2021-09-28_14h10.13.354,judgeSpeechMusic_20210921_logNormShiftAmp_detection_fixS,2020.1.2,Win32,60,,,,,,,,,,,,,,,,,,,,,,,,,,,,,,2,5.715,,0,0,54,54,66,1,stimuli/stim_20210706_power2amp/equal_lnn_AM4.2Hz_s35_12.m4a,,,,,,,,,,,,
,,,,,39600,2021-09-28_14h10.13.354,judgeSpeechMusic_20210921_logNormShiftAmp_detection_fixS,2020.1.2,Win32,60,,,,,,,,,,,,,,,,,,,,,,,,,,,,,,1,5.812799999,,0,0,55,55,34,1,stimuli/stim_20210706_power2amp/equal_lnn_AM2.4Hz_s35_49.m4a,,,,,,,,,,,,
,,,,,39600,2021-09-28_14h10.13.354,judgeSpeechMusic_20210921_logNormShiftAmp_detection_fixS,2020.1.2,Win32,60,,,,,,,,,,,,,,,,,,,,,,,,,,,,,,2,5.963,,0,0,56,56,46,1,stimuli/stim_20210706_power2amp/equal_lnn_AM3.6Hz_s35_9.m4a,,,,,,,,,,,,
,,,,,39600,2021-09-28_14h10.13.354,judgeSpeechMusic_20210921_logNormShiftAmp_detection_fixS,2020.1.2,Win32,60,,,,,,,,,,,,,,,,,,,,,,,,,,,,,,2,5.811099998,,0,0,57,57,22,1,stimuli/stim_20210706_power2amp/equal_lnn_AM1.2Hz_s35_15.m4a,,,,,,,,,,,,
,,,,,39600,2021-09-28_14h10.13.354,judgeSpeechMusic_20210921_logNormShiftAmp_detection_fixS,2020.1.2,Win32,60,,,,,,,,,,,,,,,,,,,,,,,,,,,,,,2,5.706400002,4,1,0,58,58,47,1,stimuli/stim_20210706_power2amp/equal_lnn_AM3.6Hz_s35_31.m4a,1.6435,,,,,,,,,,,
,,,,,39600,2021-09-28_14h10.13.354,judgeSpeechMusic_20210921_logNormShiftAmp_detection_fixS,2020.1.2,Win32,60,,,,,,,,,,,,,,,,,,,,,,,,,,,,,,2,5.762,,0,0,59,59,24,1,stimuli/stim_20210706_power2amp/equal_lnn_AM1.2Hz_s35_3.m4a,,,,,,,,,,,,
,,,,,39600,2021-09-28_14h10.13.354,judgeSpeechMusic_20210921_logNormShiftAmp_detection_fixS,2020.1.2,Win32,60,,,,,,,,,,,,,,,,,,,,,,,,,,,,,,2,5.854599998,,0,0,60,60,23,1,stimuli/stim_20210706_power2amp/equal_lnn_AM1.2Hz_s35_16.m4a,,,,,,,,,,,,
,,,,,39600,2021-09-28_14h10.13.354,judgeSpeechMusic_20210921_logNormShiftAmp_detection_fixS,2020.1.2,Win32,60,,,,,,,,,,,,,,,,,,,,,,,,,,,,,,1,6.101300003,,0,0,61,61,12,1,stimuli/stim_20210706_power2amp/equal_lnn_AM0.6Hz_s35_44.m4a,,,,,,,,,,,,
,,,,,39600,2021-09-28_14h10.13.354,judgeSpeechMusic_20210921_logNormShiftAmp_detection_fixS,2020.1.2,Win32,60,,,,,,,,,,,,,,,,,,,,,,,,,,,,,,2,6.484099998,,0,0,62,62,20,1,stimuli/stim_20210706_power2amp/equal_lnn_AM1.2Hz_s35_24.m4a,,,,,,,,,,,,
,,,,,39600,2021-09-28_14h10.13.354,judgeSpeechMusic_20210921_logNormShiftAmp_detection_fixS,2020.1.2,Win32,60,,,,,,,,,,,,,,,,,,,,,,,,,,,,,,2,5.7095,,0,0,63,63,33,1,stimuli/stim_20210706_power2amp/equal_lnn_AM2.4Hz_s35_30.m4a,,,,,,,,,,,,
,,,,,39600,2021-09-28_14h10.13.354,judgeSpeechMusic_20210921_logNormShiftAmp_detection_fixS,2020.1.2,Win32,60,,,,,,,,,,,,,,,,,,,,,,,,,,,,,,2,5.738799999,,0,0,64,64,74,1,stimuli/stim_20210706_power2amp/equal_lnn_AM4.2Hz_s35_44.m4a,,,,,,,,,,,,
,,,,,39600,2021-09-28_14h10.13.354,judgeSpeechMusic_20210921_logNormShiftAmp_detection_fixS,2020.1.2,Win32,60,,,,,,,,,,,,,,,,,,,,,,,,,,,,,,2,5.763,,0,0,65,65,31,1,stimuli/stim_20210706_power2amp/equal_lnn_AM2.4Hz_s35_10.m4a,,,,,,,,,,,,
,,,,,39600,2021-09-28_14h10.13.354,judgeSpeechMusic_20210921_logNormShiftAmp_detection_fixS,2020.1.2,Win32,60,,,,,,,,,,,,,,,,,,,,,,,,,,,,,,2,5.716399998,,0,0,66,66,16,1,stimuli/stim_20210706_power2amp/equal_lnn_AM1.2Hz_s35_19.m4a,,,,,,,,,,,,
,,,,,39600,2021-09-28_14h10.13.354,judgeSpeechMusic_20210921_logNormShiftAmp_detection_fixS,2020.1.2,Win32,60,,,,,,,,,,,,,,,,,,,,,,,,,,,,,,2,5.709800003,,0,0,67,67,42,1,stimuli/stim_20210706_power2amp/equal_lnn_AM2.4Hz_s35_34.m4a,,,,,,,,,,,,
,,,,,39600,2021-09-28_14h10.13.354,judgeSpeechMusic_20210921_logNormShiftAmp_detection_fixS,2020.1.2,Win32,60,,,,,,,,,,,,,,,,,,,,,,,,,,,,,,1,5.791800003,,0,0,68,68,62,1,stimuli/stim_20210706_power2amp/equal_lnn_AM4.2Hz_s35_9.m4a,,,,,,,,,,,,
,,,,,39600,2021-09-28_14h10.13.354,judgeSpeechMusic_20210921_logNormShiftAmp_detection_fixS,2020.1.2,Win32,60,,,,,,,,,,,,,,,,,,,,,,,,,,,,,,2,6.136900002,,0,0,69,69,40,1,stimuli/stim_20210706_power2amp/equal_lnn_AM2.4Hz_s35_15.m4a,,,,,,,,,,,,
,,,,,39600,2021-09-28_14h10.13.354,judgeSpeechMusic_20210921_logNormShiftAmp_detection_fixS,2020.1.2,Win32,60,,,,,,,,,,,,,,,,,,,,,,,,,,,,,,1,6.1735,,0,0,70,70,9,1,stimuli/stim_20210706_power2amp/equal_lnn_AM0.6Hz_s35_12.m4a,,,,,,,,,,,,
,,,,,39600,2021-09-28_14h10.13.354,judgeSpeechMusic_20210921_logNormShiftAmp_detection_fixS,2020.1.2,Win32,60,,,,,,,,,,,,,,,,,,,,,,,,,,,,,,1,5.750700001,,0,0,71,71,45,1,stimuli/stim_20210706_power2amp/equal_lnn_AM3.6Hz_s35_19.m4a,,,,,,,,,,,,
,,,,,39600,2021-09-28_14h10.13.354,judgeSpeechMusic_20210921_logNormShiftAmp_detection_fixS,2020.1.2,Win32,60,,,,,,,,,,,,,,,,,,,,,,,,,,,,,,2,6.051100002,,0,0,72,72,30,1,stimuli/stim_20210706_power2amp/equal_lnn_AM2.4Hz_s35_19.m4a,,,,,,,,,,,,
,,,,,39600,2021-09-28_14h10.13.354,judgeSpeechMusic_20210921_logNormShiftAmp_detection_fixS,2020.1.2,Win32,60,,,,,,,,,,,,,,,,,,,,,,,,,,,,,,2,5.362100002,,0,0,73,73,57,1,stimuli/stim_20210706_power2amp/equal_lnn_AM3.6Hz_s35_38.m4a,,,,,,,,,,,,
,,,,,39600,2021-09-28_14h10.13.354,judgeSpeechMusic_20210921_logNormShiftAmp_detection_fixS,2020.1.2,Win32,60,,,,,,,,,,,,,,,,,,,,,,,,,,,,,,2,5.688900002,,0,0,74,74,58,1,stimuli/stim_20210706_power2amp/equal_lnn_AM3.6Hz_s35_42.m4a,,,,,,,,,,,,
,,,,,39600,2021-09-28_14h10.13.354,judgeSpeechMusic_20210921_logNormShiftAmp_detection_fixS,2020.1.2,Win32,60,,,,,,,,,,,,,,,,,,,,,,,,,,,,,,,,,,,,,,,,,,,1,1,3,0,1,MUSIC,stimuli/MUSIC.jpg,,
,,,,,39600,2021-09-28_14h10.13.354,judgeSpeechMusic_20210921_logNormShiftAmp_detection_fixS,2020.1.2,Win32,60,,,,,,,,,,,,,,,,,,,,,,,,,,,,,,,,,,,,,,,,,,,,,,,,,,space,6.414199997
