volAdjustRep.thisRepN,volAdjustRep.thisTrialN,volAdjustRep.thisN,volAdjustRep.thisIndex,volAdjustRep.ran,participant,date,expName,psychopyVersion,OS,frameRate,headphoneResponse.keys,headphoneResponse.corr,headphoneResponse.rt,headphoneTrial.thisRepN,headphoneTrial.thisTrialN,headphoneTrial.thisN,headphoneTrial.thisIndex,headphoneTrial.ran,headphone_sound1,headphone_sound2,headphone_sound3,corrAns,checkInstruKey.keys,checkInstruKey.rt,trainSlider.response,trainSlider.rt,beepTrainResponse.keys,beepTrainResponse.corr,trainingTrials.thisRepN,trainingTrials.thisTrialN,trainingTrials.thisN,trainingTrials.thisIndex,trainingTrials.ran,trainAudioFile,beepTrainResponse.rt,readyReal_resp.keys,readyReal_resp.rt,checkInstru2_key.keys,checkInstru2_key.rt,ratingSlider.response,ratingSlider.rt,beepResp.keys,beepResp.corr,expTrials.thisRepN,expTrials.thisTrialN,expTrials.thisN,expTrials.thisIndex,expTrials.ran,audioFile,beepResp.rt,switchBlock_space.keys,switchBlock_space.rt,block.thisRepN,block.thisTrialN,block.thisN,block.thisIndex,block.ran,blockName,blockImage,end_resp.keys,end_resp.rt
0,0,0,0,1,39786,2021-09-26_15h23.04.157,judgeSpeechMusic_20210921_logNormShiftAmp_detection_fixS,2020.1.2,MacIntel,60,,,,,,,,,,,,,,,,,,,,,,,,,,,,,,,,,,,,,,,,,,,,,,,,,,,
,,,,,39786,2021-09-26_15h23.04.157,judgeSpeechMusic_20210921_logNormShiftAmp_detection_fixS,2020.1.2,MacIntel,60,1,1,0.8638,0,0,0,4,1,stimuli/screen_quiet.wav,stimuli/screen_antiphase.wav,stimuli/screen_origin.wav,1,,,,,,,,,,,,,,,,,,,,,,,,,,,,,,,,,,,,,,,
,,,,,39786,2021-09-26_15h23.04.157,judgeSpeechMusic_20210921_logNormShiftAmp_detection_fixS,2020.1.2,MacIntel,60,1,1,1.2034,0,1,1,5,1,stimuli/screen_quiet.wav,stimuli/screen_origin.wav,stimuli/screen_antiphase.wav,1,,,,,,,,,,,,,,,,,,,,,,,,,,,,,,,,,,,,,,,
,,,,,39786,2021-09-26_15h23.04.157,judgeSpeechMusic_20210921_logNormShiftAmp_detection_fixS,2020.1.2,MacIntel,60,3,1,0.61,0,2,2,0,1,stimuli/screen_antiphase.wav,stimuli/screen_origin.wav,stimuli/screen_quiet.wav,3,,,,,,,,,,,,,,,,,,,,,,,,,,,,,,,,,,,,,,,
,,,,,39786,2021-09-26_15h23.04.157,judgeSpeechMusic_20210921_logNormShiftAmp_detection_fixS,2020.1.2,MacIntel,60,3,1,0.6928,0,3,3,2,1,stimuli/screen_origin.wav,stimuli/screen_antiphase.wav,stimuli/screen_quiet.wav,3,,,,,,,,,,,,,,,,,,,,,,,,,,,,,,,,,,,,,,,
,,,,,39786,2021-09-26_15h23.04.157,judgeSpeechMusic_20210921_logNormShiftAmp_detection_fixS,2020.1.2,MacIntel,60,2,1,0.7448,0,4,4,1,1,stimuli/screen_antiphase.wav,stimuli/screen_quiet.wav,stimuli/screen_origin.wav,2,,,,,,,,,,,,,,,,,,,,,,,,,,,,,,,,,,,,,,,
,,,,,39786,2021-09-26_15h23.04.157,judgeSpeechMusic_20210921_logNormShiftAmp_detection_fixS,2020.1.2,MacIntel,60,2,1,0.6694,0,5,5,3,1,stimuli/screen_origin.wav,stimuli/screen_quiet.wav,stimuli/screen_antiphase.wav,2,,,,,,,,,,,,,,,,,,,,,,,,,,,,,,,,,,,,,,,
,,,,,39786,2021-09-26_15h23.04.157,judgeSpeechMusic_20210921_logNormShiftAmp_detection_fixS,2020.1.2,MacIntel,60,,,,,,,,,,,,,space,0.771,1,8.7105,,0,0,0,0,0,1,stimuli/stim_20210706_power2amp/equal_lnn_AM_training0.9Hz_s35.m4a,,,,,,,,,,,,,,,,,,,,,,,,,,,
,,,,,39786,2021-09-26_15h23.04.157,judgeSpeechMusic_20210921_logNormShiftAmp_detection_fixS,2020.1.2,MacIntel,60,,,,,,,,,,,,,,,1,6.7388,,0,0,1,1,2,1,stimuli/stim_20210706_power2amp/equal_lnn_AM_training3Hz_s35.m4a,,,,,,,,,,,,,,,,,,,,,,,,,,,
,,,,,39786,2021-09-26_15h23.04.157,judgeSpeechMusic_20210921_logNormShiftAmp_detection_fixS,2020.1.2,MacIntel,60,,,,,,,,,,,,,,,1,6.5554,4,1,0,2,2,3,1,stimuli/stim_20210706_power2amp/equal_lnn_AM_training3.9Hz_s35.m4a,2.3096,,,,,,,,,,,,,,,,,,,,,,,,,,
,,,,,39786,2021-09-26_15h23.04.157,judgeSpeechMusic_20210921_logNormShiftAmp_detection_fixS,2020.1.2,MacIntel,60,,,,,,,,,,,,,,,1,6.2657,,0,0,3,3,1,1,stimuli/stim_20210706_power2amp/equal_lnn_AM_training1.8Hz_s35.m4a,,,,,,,,,,,,,,,,,,,,,,,,,,,
,,,,,39786,2021-09-26_15h23.04.157,judgeSpeechMusic_20210921_logNormShiftAmp_detection_fixS,2020.1.2,MacIntel,60,,,,,,,,,,,,,,,,,,,,,,,,,,space,5.332,space,0.5606,2,6.7101,,0,0,0,0,72,1,stimuli/stim_20210706_power2amp/equal_lnn_AM4.2Hz_s35_24.m4a,,,,,,,,,,,,
,,,,,39786,2021-09-26_15h23.04.157,judgeSpeechMusic_20210921_logNormShiftAmp_detection_fixS,2020.1.2,MacIntel,60,,,,,,,,,,,,,,,,,,,,,,,,,,,,,,2,6.3531,,0,0,1,1,49,1,stimuli/stim_20210706_power2amp/equal_lnn_AM3.6Hz_s35_31.m4a,,,,,,,,,,,,
,,,,,39786,2021-09-26_15h23.04.157,judgeSpeechMusic_20210921_logNormShiftAmp_detection_fixS,2020.1.2,MacIntel,60,,,,,,,,,,,,,,,,,,,,,,,,,,,,,,1,6.1282,,0,0,2,2,11,1,stimuli/stim_20210706_power2amp/equal_lnn_AM0.6Hz_s35_12.m4a,,,,,,,,,,,,
,,,,,39786,2021-09-26_15h23.04.157,judgeSpeechMusic_20210921_logNormShiftAmp_detection_fixS,2020.1.2,MacIntel,60,,,,,,,,,,,,,,,,,,,,,,,,,,,,,,1,7.6022,,0,0,3,3,17,1,stimuli/stim_20210706_power2amp/equal_lnn_AM1.2Hz_s35_47.m4a,,,,,,,,,,,,
,,,,,39786,2021-09-26_15h23.04.157,judgeSpeechMusic_20210921_logNormShiftAmp_detection_fixS,2020.1.2,MacIntel,60,,,,,,,,,,,,,,,,,,,,,,,,,,,,,,1,6.1454,,0,0,4,4,37,1,stimuli/stim_20210706_power2amp/equal_lnn_AM2.4Hz_s35_20.m4a,,,,,,,,,,,,
,,,,,39786,2021-09-26_15h23.04.157,judgeSpeechMusic_20210921_logNormShiftAmp_detection_fixS,2020.1.2,MacIntel,60,,,,,,,,,,,,,,,,,,,,,,,,,,,,,,2,6.9623,,0,0,5,5,59,1,stimuli/stim_20210706_power2amp/equal_lnn_AM3.6Hz_s35_9.m4a,,,,,,,,,,,,
,,,,,39786,2021-09-26_15h23.04.157,judgeSpeechMusic_20210921_logNormShiftAmp_detection_fixS,2020.1.2,MacIntel,60,,,,,,,,,,,,,,,,,,,,,,,,,,,,,,2,8.5446,,0,0,6,6,32,1,stimuli/stim_20210706_power2amp/equal_lnn_AM2.4Hz_s35_42.m4a,,,,,,,,,,,,
,,,,,39786,2021-09-26_15h23.04.157,judgeSpeechMusic_20210921_logNormShiftAmp_detection_fixS,2020.1.2,MacIntel,60,,,,,,,,,,,,,,,,,,,,,,,,,,,,,,1,5.9071,,0,0,7,7,9,1,stimuli/stim_20210706_power2amp/equal_lnn_AM0.6Hz_s35_33.m4a,,,,,,,,,,,,
,,,,,39786,2021-09-26_15h23.04.157,judgeSpeechMusic_20210921_logNormShiftAmp_detection_fixS,2020.1.2,MacIntel,60,,,,,,,,,,,,,,,,,,,,,,,,,,,,,,1,5.7491,,0,0,8,8,23,1,stimuli/stim_20210706_power2amp/equal_lnn_AM1.2Hz_s35_45.m4a,,,,,,,,,,,,
,,,,,39786,2021-09-26_15h23.04.157,judgeSpeechMusic_20210921_logNormShiftAmp_detection_fixS,2020.1.2,MacIntel,60,,,,,,,,,,,,,,,,,,,,,,,,,,,,,,2,5.8864,,0,0,9,9,61,1,stimuli/stim_20210706_power2amp/equal_lnn_AM4.2Hz_s35_14.m4a,,,,,,,,,,,,
,,,,,39786,2021-09-26_15h23.04.157,judgeSpeechMusic_20210921_logNormShiftAmp_detection_fixS,2020.1.2,MacIntel,60,,,,,,,,,,,,,,,,,,,,,,,,,,,,,,1,5.8408,,0,0,10,10,19,1,stimuli/stim_20210706_power2amp/equal_lnn_AM1.2Hz_s35_24.m4a,,,,,,,,,,,,
,,,,,39786,2021-09-26_15h23.04.157,judgeSpeechMusic_20210921_logNormShiftAmp_detection_fixS,2020.1.2,MacIntel,60,,,,,,,,,,,,,,,,,,,,,,,,,,,,,,1,6.132,,0,0,11,11,1,1,stimuli/stim_20210706_power2amp/equal_lnn_AM0.6Hz_s35_21.m4a,,,,,,,,,,,,
,,,,,39786,2021-09-26_15h23.04.157,judgeSpeechMusic_20210921_logNormShiftAmp_detection_fixS,2020.1.2,MacIntel,60,,,,,,,,,,,,,,,,,,,,,,,,,,,,,,2,6.0933,,0,0,12,12,63,1,stimuli/stim_20210706_power2amp/equal_lnn_AM4.2Hz_s35_28.m4a,,,,,,,,,,,,
,,,,,39786,2021-09-26_15h23.04.157,judgeSpeechMusic_20210921_logNormShiftAmp_detection_fixS,2020.1.2,MacIntel,60,,,,,,,,,,,,,,,,,,,,,,,,,,,,,,1,6.4062,,0,0,13,13,4,1,stimuli/stim_20210706_power2amp/equal_lnn_AM0.6Hz_s35_48.m4a,,,,,,,,,,,,
,,,,,39786,2021-09-26_15h23.04.157,judgeSpeechMusic_20210921_logNormShiftAmp_detection_fixS,2020.1.2,MacIntel,60,,,,,,,,,,,,,,,,,,,,,,,,,,,,,,1,5.9298,,0,0,14,14,28,1,stimuli/stim_20210706_power2amp/equal_lnn_AM1.2Hz_s35_36.m4a,,,,,,,,,,,,
,,,,,39786,2021-09-26_15h23.04.157,judgeSpeechMusic_20210921_logNormShiftAmp_detection_fixS,2020.1.2,MacIntel,60,,,,,,,,,,,,,,,,,,,,,,,,,,,,,,2,6.1037,,0,0,15,15,29,1,stimuli/stim_20210706_power2amp/equal_lnn_AM1.2Hz_s35_11.m4a,,,,,,,,,,,,
,,,,,39786,2021-09-26_15h23.04.157,judgeSpeechMusic_20210921_logNormShiftAmp_detection_fixS,2020.1.2,MacIntel,60,,,,,,,,,,,,,,,,,,,,,,,,,,,,,,2,6.0573,,0,0,16,16,52,1,stimuli/stim_20210706_power2amp/equal_lnn_AM3.6Hz_s35_29.m4a,,,,,,,,,,,,
,,,,,39786,2021-09-26_15h23.04.157,judgeSpeechMusic_20210921_logNormShiftAmp_detection_fixS,2020.1.2,MacIntel,60,,,,,,,,,,,,,,,,,,,,,,,,,,,,,,1,5.9702,,0,0,17,17,10,1,stimuli/stim_20210706_power2amp/equal_lnn_AM0.6Hz_s35_41.m4a,,,,,,,,,,,,
,,,,,39786,2021-09-26_15h23.04.157,judgeSpeechMusic_20210921_logNormShiftAmp_detection_fixS,2020.1.2,MacIntel,60,,,,,,,,,,,,,,,,,,,,,,,,,,,,,,2,6.4873,,0,0,18,18,43,1,stimuli/stim_20210706_power2amp/equal_lnn_AM2.4Hz_s35_47.m4a,,,,,,,,,,,,
,,,,,39786,2021-09-26_15h23.04.157,judgeSpeechMusic_20210921_logNormShiftAmp_detection_fixS,2020.1.2,MacIntel,60,,,,,,,,,,,,,,,,,,,,,,,,,,,,,,2,5.6054,1,1,0,19,19,68,1,stimuli/stim_20210706_power2amp/equal_lnn_AM4.2Hz_s35_27.m4a,1.2273,,,,,,,,,,,
,,,,,39786,2021-09-26_15h23.04.157,judgeSpeechMusic_20210921_logNormShiftAmp_detection_fixS,2020.1.2,MacIntel,60,,,,,,,,,,,,,,,,,,,,,,,,,,,,,,2,5.9877,,0,0,20,20,39,1,stimuli/stim_20210706_power2amp/equal_lnn_AM2.4Hz_s35_25.m4a,,,,,,,,,,,,
,,,,,39786,2021-09-26_15h23.04.157,judgeSpeechMusic_20210921_logNormShiftAmp_detection_fixS,2020.1.2,MacIntel,60,,,,,,,,,,,,,,,,,,,,,,,,,,,,,,2,5.7938,,0,0,21,21,48,1,stimuli/stim_20210706_power2amp/equal_lnn_AM3.6Hz_s35_33.m4a,,,,,,,,,,,,
,,,,,39786,2021-09-26_15h23.04.157,judgeSpeechMusic_20210921_logNormShiftAmp_detection_fixS,2020.1.2,MacIntel,60,,,,,,,,,,,,,,,,,,,,,,,,,,,,,,2,5.7091,,0,0,22,22,67,1,stimuli/stim_20210706_power2amp/equal_lnn_AM4.2Hz_s35_18.m4a,,,,,,,,,,,,
,,,,,39786,2021-09-26_15h23.04.157,judgeSpeechMusic_20210921_logNormShiftAmp_detection_fixS,2020.1.2,MacIntel,60,,,,,,,,,,,,,,,,,,,,,,,,,,,,,,2,6.246,,0,0,23,23,73,1,stimuli/stim_20210706_power2amp/equal_lnn_AM4.2Hz_s35_26.m4a,,,,,,,,,,,,
,,,,,39786,2021-09-26_15h23.04.157,judgeSpeechMusic_20210921_logNormShiftAmp_detection_fixS,2020.1.2,MacIntel,60,,,,,,,,,,,,,,,,,,,,,,,,,,,,,,1,6.6113,,0,0,24,24,21,1,stimuli/stim_20210706_power2amp/equal_lnn_AM1.2Hz_s35_13.m4a,,,,,,,,,,,,
,,,,,39786,2021-09-26_15h23.04.157,judgeSpeechMusic_20210921_logNormShiftAmp_detection_fixS,2020.1.2,MacIntel,60,,,,,,,,,,,,,,,,,,,,,,,,,,,,,,1,7.3437,,0,0,25,25,38,1,stimuli/stim_20210706_power2amp/equal_lnn_AM2.4Hz_s35_31.m4a,,,,,,,,,,,,
,,,,,39786,2021-09-26_15h23.04.157,judgeSpeechMusic_20210921_logNormShiftAmp_detection_fixS,2020.1.2,MacIntel,60,,,,,,,,,,,,,,,,,,,,,,,,,,,,,,2,5.8707,,0,0,26,26,42,1,stimuli/stim_20210706_power2amp/equal_lnn_AM2.4Hz_s35_18.m4a,,,,,,,,,,,,
,,,,,39786,2021-09-26_15h23.04.157,judgeSpeechMusic_20210921_logNormShiftAmp_detection_fixS,2020.1.2,MacIntel,60,,,,,,,,,,,,,,,,,,,,,,,,,,,,,,1,6.003,,0,0,27,27,36,1,stimuli/stim_20210706_power2amp/equal_lnn_AM2.4Hz_s35_48.m4a,,,,,,,,,,,,
,,,,,39786,2021-09-26_15h23.04.157,judgeSpeechMusic_20210921_logNormShiftAmp_detection_fixS,2020.1.2,MacIntel,60,,,,,,,,,,,,,,,,,,,,,,,,,,,,,,1,6.252,,0,0,28,28,5,1,stimuli/stim_20210706_power2amp/equal_lnn_AM0.6Hz_s35_29.m4a,,,,,,,,,,,,
,,,,,39786,2021-09-26_15h23.04.157,judgeSpeechMusic_20210921_logNormShiftAmp_detection_fixS,2020.1.2,MacIntel,60,,,,,,,,,,,,,,,,,,,,,,,,,,,,,,2,9.17,,0,0,29,29,66,1,stimuli/stim_20210706_power2amp/equal_lnn_AM4.2Hz_s35_15.m4a,,,,,,,,,,,,
,,,,,39786,2021-09-26_15h23.04.157,judgeSpeechMusic_20210921_logNormShiftAmp_detection_fixS,2020.1.2,MacIntel,60,,,,,,,,,,,,,,,,,,,,,,,,,,,,,,1,12.2045,,0,0,30,30,12,1,stimuli/stim_20210706_power2amp/equal_lnn_AM0.6Hz_s35_35.m4a,,,,,,,,,,,,
,,,,,39786,2021-09-26_15h23.04.157,judgeSpeechMusic_20210921_logNormShiftAmp_detection_fixS,2020.1.2,MacIntel,60,,,,,,,,,,,,,,,,,,,,,,,,,,,,,,2,5.881,,0,0,31,31,65,1,stimuli/stim_20210706_power2amp/equal_lnn_AM4.2Hz_s35_47.m4a,,,,,,,,,,,,
,,,,,39786,2021-09-26_15h23.04.157,judgeSpeechMusic_20210921_logNormShiftAmp_detection_fixS,2020.1.2,MacIntel,60,,,,,,,,,,,,,,,,,,,,,,,,,,,,,,1,6.12,,0,0,32,32,26,1,stimuli/stim_20210706_power2amp/equal_lnn_AM1.2Hz_s35_15.m4a,,,,,,,,,,,,
,,,,,39786,2021-09-26_15h23.04.157,judgeSpeechMusic_20210921_logNormShiftAmp_detection_fixS,2020.1.2,MacIntel,60,,,,,,,,,,,,,,,,,,,,,,,,,,,,,,2,6.7745,,0,0,33,33,46,1,stimuli/stim_20210706_power2amp/equal_lnn_AM3.6Hz_s35_47.m4a,,,,,,,,,,,,
,,,,,39786,2021-09-26_15h23.04.157,judgeSpeechMusic_20210921_logNormShiftAmp_detection_fixS,2020.1.2,MacIntel,60,,,,,,,,,,,,,,,,,,,,,,,,,,,,,,2,6.3985,,0,0,34,34,60,1,stimuli/stim_20210706_power2amp/equal_lnn_AM4.2Hz_s35_11.m4a,,,,,,,,,,,,
,,,,,39786,2021-09-26_15h23.04.157,judgeSpeechMusic_20210921_logNormShiftAmp_detection_fixS,2020.1.2,MacIntel,60,,,,,,,,,,,,,,,,,,,,,,,,,,,,,,1,6.6365,,0,0,35,35,6,1,stimuli/stim_20210706_power2amp/equal_lnn_AM0.6Hz_s35_17.m4a,,,,,,,,,,,,
,,,,,39786,2021-09-26_15h23.04.157,judgeSpeechMusic_20210921_logNormShiftAmp_detection_fixS,2020.1.2,MacIntel,60,,,,,,,,,,,,,,,,,,,,,,,,,,,,,,1,5.3003,,0,0,36,36,3,1,stimuli/stim_20210706_power2amp/equal_lnn_AM0.6Hz_s35_31.m4a,,,,,,,,,,,,
,,,,,39786,2021-09-26_15h23.04.157,judgeSpeechMusic_20210921_logNormShiftAmp_detection_fixS,2020.1.2,MacIntel,60,,,,,,,,,,,,,,,,,,,,,,,,,,,,,,1,6.523,3,1,0,37,37,30,1,stimuli/stim_20210706_power2amp/equal_lnn_AM2.4Hz_s35_41.m4a,1.1932,,,,,,,,,,,
,,,,,39786,2021-09-26_15h23.04.157,judgeSpeechMusic_20210921_logNormShiftAmp_detection_fixS,2020.1.2,MacIntel,60,,,,,,,,,,,,,,,,,,,,,,,,,,,,,,2,6.0522,,0,0,38,38,62,1,stimuli/stim_20210706_power2amp/equal_lnn_AM4.2Hz_s35_23.m4a,,,,,,,,,,,,
,,,,,39786,2021-09-26_15h23.04.157,judgeSpeechMusic_20210921_logNormShiftAmp_detection_fixS,2020.1.2,MacIntel,60,,,,,,,,,,,,,,,,,,,,,,,,,,,,,,2,5.8336,,0,0,39,39,41,1,stimuli/stim_20210706_power2amp/equal_lnn_AM2.4Hz_s35_35.m4a,,,,,,,,,,,,
,,,,,39786,2021-09-26_15h23.04.157,judgeSpeechMusic_20210921_logNormShiftAmp_detection_fixS,2020.1.2,MacIntel,60,,,,,,,,,,,,,,,,,,,,,,,,,,,,,,2,6.5702,,0,0,40,40,53,1,stimuli/stim_20210706_power2amp/equal_lnn_AM3.6Hz_s35_48.m4a,,,,,,,,,,,,
,,,,,39786,2021-09-26_15h23.04.157,judgeSpeechMusic_20210921_logNormShiftAmp_detection_fixS,2020.1.2,MacIntel,60,,,,,,,,,,,,,,,,,,,,,,,,,,,,,,1,5.8088,,0,0,41,41,16,1,stimuli/stim_20210706_power2amp/equal_lnn_AM1.2Hz_s35_9.m4a,,,,,,,,,,,,
,,,,,39786,2021-09-26_15h23.04.157,judgeSpeechMusic_20210921_logNormShiftAmp_detection_fixS,2020.1.2,MacIntel,60,,,,,,,,,,,,,,,,,,,,,,,,,,,,,,2,5.7219,,0,0,42,42,31,1,stimuli/stim_20210706_power2amp/equal_lnn_AM2.4Hz_s35_26.m4a,,,,,,,,,,,,
,,,,,39786,2021-09-26_15h23.04.157,judgeSpeechMusic_20210921_logNormShiftAmp_detection_fixS,2020.1.2,MacIntel,60,,,,,,,,,,,,,,,,,,,,,,,,,,,,,,1,5.8047,,0,0,43,43,22,1,stimuli/stim_20210706_power2amp/equal_lnn_AM1.2Hz_s35_28.m4a,,,,,,,,,,,,
,,,,,39786,2021-09-26_15h23.04.157,judgeSpeechMusic_20210921_logNormShiftAmp_detection_fixS,2020.1.2,MacIntel,60,,,,,,,,,,,,,,,,,,,,,,,,,,,,,,1,6.6454,,0,0,44,44,27,1,stimuli/stim_20210706_power2amp/equal_lnn_AM1.2Hz_s35_27.m4a,,,,,,,,,,,,
,,,,,39786,2021-09-26_15h23.04.157,judgeSpeechMusic_20210921_logNormShiftAmp_detection_fixS,2020.1.2,MacIntel,60,,,,,,,,,,,,,,,,,,,,,,,,,,,,,,2,6.5044,,0,0,45,45,34,1,stimuli/stim_20210706_power2amp/equal_lnn_AM2.4Hz_s35_43.m4a,,,,,,,,,,,,
,,,,,39786,2021-09-26_15h23.04.157,judgeSpeechMusic_20210921_logNormShiftAmp_detection_fixS,2020.1.2,MacIntel,60,,,,,,,,,,,,,,,,,,,,,,,,,,,,,,2,5.6914,,0,0,46,46,69,1,stimuli/stim_20210706_power2amp/equal_lnn_AM4.2Hz_s35_32.m4a,,,,,,,,,,,,
,,,,,39786,2021-09-26_15h23.04.157,judgeSpeechMusic_20210921_logNormShiftAmp_detection_fixS,2020.1.2,MacIntel,60,,,,,,,,,,,,,,,,,,,,,,,,,,,,,,1,6.32,,0,0,47,47,40,1,stimuli/stim_20210706_power2amp/equal_lnn_AM2.4Hz_s35_8.m4a,,,,,,,,,,,,
,,,,,39786,2021-09-26_15h23.04.157,judgeSpeechMusic_20210921_logNormShiftAmp_detection_fixS,2020.1.2,MacIntel,60,,,,,,,,,,,,,,,,,,,,,,,,,,,,,,2,5.7372,,0,0,48,48,71,1,stimuli/stim_20210706_power2amp/equal_lnn_AM4.2Hz_s35_35.m4a,,,,,,,,,,,,
,,,,,39786,2021-09-26_15h23.04.157,judgeSpeechMusic_20210921_logNormShiftAmp_detection_fixS,2020.1.2,MacIntel,60,,,,,,,,,,,,,,,,,,,,,,,,,,,,,,1,7.038,,0,0,49,49,14,1,stimuli/stim_20210706_power2amp/equal_lnn_AM0.6Hz_s35_47.m4a,,,,,,,,,,,,
,,,,,39786,2021-09-26_15h23.04.157,judgeSpeechMusic_20210921_logNormShiftAmp_detection_fixS,2020.1.2,MacIntel,60,,,,,,,,,,,,,,,,,,,,,,,,,,,,,,1,5.6098,,0,0,50,50,20,1,stimuli/stim_20210706_power2amp/equal_lnn_AM1.2Hz_s35_49.m4a,,,,,,,,,,,,
,,,,,39786,2021-09-26_15h23.04.157,judgeSpeechMusic_20210921_logNormShiftAmp_detection_fixS,2020.1.2,MacIntel,60,,,,,,,,,,,,,,,,,,,,,,,,,,,,,,1,5.7194,,0,0,51,51,8,1,stimuli/stim_20210706_power2amp/equal_lnn_AM0.6Hz_s35_6.m4a,,,,,,,,,,,,
,,,,,39786,2021-09-26_15h23.04.157,judgeSpeechMusic_20210921_logNormShiftAmp_detection_fixS,2020.1.2,MacIntel,60,,,,,,,,,,,,,,,,,,,,,,,,,,,,,,2,6.857,,0,0,52,52,54,1,stimuli/stim_20210706_power2amp/equal_lnn_AM3.6Hz_s35_8.m4a,,,,,,,,,,,,
,,,,,39786,2021-09-26_15h23.04.157,judgeSpeechMusic_20210921_logNormShiftAmp_detection_fixS,2020.1.2,MacIntel,60,,,,,,,,,,,,,,,,,,,,,,,,,,,,,,1,5.7376,,0,0,53,53,64,1,stimuli/stim_20210706_power2amp/equal_lnn_AM4.2Hz_s35_1.m4a,,,,,,,,,,,,
,,,,,39786,2021-09-26_15h23.04.157,judgeSpeechMusic_20210921_logNormShiftAmp_detection_fixS,2020.1.2,MacIntel,60,,,,,,,,,,,,,,,,,,,,,,,,,,,,,,2,5.876,,0,0,54,54,44,1,stimuli/stim_20210706_power2amp/equal_lnn_AM2.4Hz_s35_2.m4a,,,,,,,,,,,,
,,,,,39786,2021-09-26_15h23.04.157,judgeSpeechMusic_20210921_logNormShiftAmp_detection_fixS,2020.1.2,MacIntel,60,,,,,,,,,,,,,,,,,,,,,,,,,,,,,,1,6.097,1,1,0,55,55,18,1,stimuli/stim_20210706_power2amp/equal_lnn_AM1.2Hz_s35_1.m4a,1.224,,,,,,,,,,,
,,,,,39786,2021-09-26_15h23.04.157,judgeSpeechMusic_20210921_logNormShiftAmp_detection_fixS,2020.1.2,MacIntel,60,,,,,,,,,,,,,,,,,,,,,,,,,,,,,,2,7.743,,0,0,56,56,33,1,stimuli/stim_20210706_power2amp/equal_lnn_AM2.4Hz_s35_29.m4a,,,,,,,,,,,,
,,,,,39786,2021-09-26_15h23.04.157,judgeSpeechMusic_20210921_logNormShiftAmp_detection_fixS,2020.1.2,MacIntel,60,,,,,,,,,,,,,,,,,,,,,,,,,,,,,,2,6.0102,,0,0,57,57,58,1,stimuli/stim_20210706_power2amp/equal_lnn_AM3.6Hz_s35_13.m4a,,,,,,,,,,,,
,,,,,39786,2021-09-26_15h23.04.157,judgeSpeechMusic_20210921_logNormShiftAmp_detection_fixS,2020.1.2,MacIntel,60,,,,,,,,,,,,,,,,,,,,,,,,,,,,,,2,6.7698,,0,0,58,58,35,1,stimuli/stim_20210706_power2amp/equal_lnn_AM2.4Hz_s35_21.m4a,,,,,,,,,,,,
,,,,,39786,2021-09-26_15h23.04.157,judgeSpeechMusic_20210921_logNormShiftAmp_detection_fixS,2020.1.2,MacIntel,60,,,,,,,,,,,,,,,,,,,,,,,,,,,,,,1,5.7054,,0,0,59,59,15,1,stimuli/stim_20210706_power2amp/equal_lnn_AM1.2Hz_s35_17.m4a,,,,,,,,,,,,
,,,,,39786,2021-09-26_15h23.04.157,judgeSpeechMusic_20210921_logNormShiftAmp_detection_fixS,2020.1.2,MacIntel,60,,,,,,,,,,,,,,,,,,,,,,,,,,,,,,2,5.8543,,0,0,60,60,51,1,stimuli/stim_20210706_power2amp/equal_lnn_AM3.6Hz_s35_11.m4a,,,,,,,,,,,,
,,,,,39786,2021-09-26_15h23.04.157,judgeSpeechMusic_20210921_logNormShiftAmp_detection_fixS,2020.1.2,MacIntel,60,,,,,,,,,,,,,,,,,,,,,,,,,,,,,,2,5.8456,,0,0,61,61,45,1,stimuli/stim_20210706_power2amp/equal_lnn_AM3.6Hz_s35_23.m4a,,,,,,,,,,,,
,,,,,39786,2021-09-26_15h23.04.157,judgeSpeechMusic_20210921_logNormShiftAmp_detection_fixS,2020.1.2,MacIntel,60,,,,,,,,,,,,,,,,,,,,,,,,,,,,,,1,6.4761,,0,0,62,62,13,1,stimuli/stim_20210706_power2amp/equal_lnn_AM0.6Hz_s35_22.m4a,,,,,,,,,,,,
,,,,,39786,2021-09-26_15h23.04.157,judgeSpeechMusic_20210921_logNormShiftAmp_detection_fixS,2020.1.2,MacIntel,60,,,,,,,,,,,,,,,,,,,,,,,,,,,,,,2,5.6962,,0,0,63,63,56,1,stimuli/stim_20210706_power2amp/equal_lnn_AM3.6Hz_s35_32.m4a,,,,,,,,,,,,
,,,,,39786,2021-09-26_15h23.04.157,judgeSpeechMusic_20210921_logNormShiftAmp_detection_fixS,2020.1.2,MacIntel,60,,,,,,,,,,,,,,,,,,,,,,,,,,,,,,2,5.7731,,0,0,64,64,47,1,stimuli/stim_20210706_power2amp/equal_lnn_AM3.6Hz_s35_24.m4a,,,,,,,,,,,,
,,,,,39786,2021-09-26_15h23.04.157,judgeSpeechMusic_20210921_logNormShiftAmp_detection_fixS,2020.1.2,MacIntel,60,,,,,,,,,,,,,,,,,,,,,,,,,,,,,,1,8.9851,,0,0,65,65,24,1,stimuli/stim_20210706_power2amp/equal_lnn_AM1.2Hz_s35_42.m4a,,,,,,,,,,,,
,,,,,39786,2021-09-26_15h23.04.157,judgeSpeechMusic_20210921_logNormShiftAmp_detection_fixS,2020.1.2,MacIntel,60,,,,,,,,,,,,,,,,,,,,,,,,,,,,,,2,7.9326,,0,0,66,66,74,1,stimuli/stim_20210706_power2amp/equal_lnn_AM4.2Hz_s35_5.m4a,,,,,,,,,,,,
,,,,,39786,2021-09-26_15h23.04.157,judgeSpeechMusic_20210921_logNormShiftAmp_detection_fixS,2020.1.2,MacIntel,60,,,,,,,,,,,,,,,,,,,,,,,,,,,,,,2,5.9014,,0,0,67,67,55,1,stimuli/stim_20210706_power2amp/equal_lnn_AM3.6Hz_s35_43.m4a,,,,,,,,,,,,
,,,,,39786,2021-09-26_15h23.04.157,judgeSpeechMusic_20210921_logNormShiftAmp_detection_fixS,2020.1.2,MacIntel,60,,,,,,,,,,,,,,,,,,,,,,,,,,,,,,1,5.8222,,0,0,68,68,7,1,stimuli/stim_20210706_power2amp/equal_lnn_AM0.6Hz_s35_26.m4a,,,,,,,,,,,,
,,,,,39786,2021-09-26_15h23.04.157,judgeSpeechMusic_20210921_logNormShiftAmp_detection_fixS,2020.1.2,MacIntel,60,,,,,,,,,,,,,,,,,,,,,,,,,,,,,,2,7.1937,,0,0,69,69,57,1,stimuli/stim_20210706_power2amp/equal_lnn_AM3.6Hz_s35_10.m4a,,,,,,,,,,,,
,,,,,39786,2021-09-26_15h23.04.157,judgeSpeechMusic_20210921_logNormShiftAmp_detection_fixS,2020.1.2,MacIntel,60,,,,,,,,,,,,,,,,,,,,,,,,,,,,,,2,5.6572,,0,0,70,70,50,1,stimuli/stim_20210706_power2amp/equal_lnn_AM3.6Hz_s35_28.m4a,,,,,,,,,,,,
,,,,,39786,2021-09-26_15h23.04.157,judgeSpeechMusic_20210921_logNormShiftAmp_detection_fixS,2020.1.2,MacIntel,60,,,,,,,,,,,,,,,,,,,,,,,,,,,,,,1,5.8247,,0,0,71,71,2,1,stimuli/stim_20210706_power2amp/equal_lnn_AM0.6Hz_s35_1.m4a,,,,,,,,,,,,
,,,,,39786,2021-09-26_15h23.04.157,judgeSpeechMusic_20210921_logNormShiftAmp_detection_fixS,2020.1.2,MacIntel,60,,,,,,,,,,,,,,,,,,,,,,,,,,,,,,1,6.1799,,0,0,72,72,0,1,stimuli/stim_20210706_power2amp/equal_lnn_AM0.6Hz_s35_20.m4a,,,,,,,,,,,,
,,,,,39786,2021-09-26_15h23.04.157,judgeSpeechMusic_20210921_logNormShiftAmp_detection_fixS,2020.1.2,MacIntel,60,,,,,,,,,,,,,,,,,,,,,,,,,,,,,,2,6.4522,,0,0,73,73,70,1,stimuli/stim_20210706_power2amp/equal_lnn_AM4.2Hz_s35_9.m4a,,,,,,,,,,,,
,,,,,39786,2021-09-26_15h23.04.157,judgeSpeechMusic_20210921_logNormShiftAmp_detection_fixS,2020.1.2,MacIntel,60,,,,,,,,,,,,,,,,,,,,,,,,,,,,,,1,8.9431,,0,0,74,74,25,1,stimuli/stim_20210706_power2amp/equal_lnn_AM1.2Hz_s35_23.m4a,,,,,,,,,,,,
,,,,,39786,2021-09-26_15h23.04.157,judgeSpeechMusic_20210921_logNormShiftAmp_detection_fixS,2020.1.2,MacIntel,60,,,,,,,,,,,,,,,,,,,,,,,,,,,,,,,,,,,,,,,,,space,0.5227,0,0,0,1,1,SPEECH,stimuli/SPEECH.jpg,,
,,,,,39786,2021-09-26_15h23.04.157,judgeSpeechMusic_20210921_logNormShiftAmp_detection_fixS,2020.1.2,MacIntel,60,,,,,,,,,,,,,space,0.2857,2,7.3209,,0,0,0,0,1,1,stimuli/stim_20210706_power2amp/equal_lnn_AM_training1.8Hz_s35.m4a,,,,,,,,,,,,,,,,,,,,,,,,,,,
,,,,,39786,2021-09-26_15h23.04.157,judgeSpeechMusic_20210921_logNormShiftAmp_detection_fixS,2020.1.2,MacIntel,60,,,,,,,,,,,,,,,2,5.9729,,0,0,1,1,0,1,stimuli/stim_20210706_power2amp/equal_lnn_AM_training0.9Hz_s35.m4a,,,,,,,,,,,,,,,,,,,,,,,,,,,
,,,,,39786,2021-09-26_15h23.04.157,judgeSpeechMusic_20210921_logNormShiftAmp_detection_fixS,2020.1.2,MacIntel,60,,,,,,,,,,,,,,,1,5.7631,3,1,0,2,2,3,1,stimuli/stim_20210706_power2amp/equal_lnn_AM_training3.9Hz_s35.m4a,0.6438,,,,,,,,,,,,,,,,,,,,,,,,,,
,,,,,39786,2021-09-26_15h23.04.157,judgeSpeechMusic_20210921_logNormShiftAmp_detection_fixS,2020.1.2,MacIntel,60,,,,,,,,,,,,,,,1,6.65,,0,0,3,3,2,1,stimuli/stim_20210706_power2amp/equal_lnn_AM_training3Hz_s35.m4a,,,,,,,,,,,,,,,,,,,,,,,,,,,
,,,,,39786,2021-09-26_15h23.04.157,judgeSpeechMusic_20210921_logNormShiftAmp_detection_fixS,2020.1.2,MacIntel,60,,,,,,,,,,,,,,,,,,,,,,,,,,space,2.2019,space,9.4164,2,5.7656,,0,0,0,0,25,1,stimuli/stim_20210706_power2amp/equal_lnn_AM1.2Hz_s35_23.m4a,,,,,,,,,,,,
,,,,,39786,2021-09-26_15h23.04.157,judgeSpeechMusic_20210921_logNormShiftAmp_detection_fixS,2020.1.2,MacIntel,60,,,,,,,,,,,,,,,,,,,,,,,,,,,,,,2,7.8216,,0,0,1,1,11,1,stimuli/stim_20210706_power2amp/equal_lnn_AM0.6Hz_s35_12.m4a,,,,,,,,,,,,
,,,,,39786,2021-09-26_15h23.04.157,judgeSpeechMusic_20210921_logNormShiftAmp_detection_fixS,2020.1.2,MacIntel,60,,,,,,,,,,,,,,,,,,,,,,,,,,,,,,2,5.7176,,0,0,2,2,18,1,stimuli/stim_20210706_power2amp/equal_lnn_AM1.2Hz_s35_1.m4a,,,,,,,,,,,,
,,,,,39786,2021-09-26_15h23.04.157,judgeSpeechMusic_20210921_logNormShiftAmp_detection_fixS,2020.1.2,MacIntel,60,,,,,,,,,,,,,,,,,,,,,,,,,,,,,,1,6.326,,0,0,3,3,45,1,stimuli/stim_20210706_power2amp/equal_lnn_AM3.6Hz_s35_23.m4a,,,,,,,,,,,,
,,,,,39786,2021-09-26_15h23.04.157,judgeSpeechMusic_20210921_logNormShiftAmp_detection_fixS,2020.1.2,MacIntel,60,,,,,,,,,,,,,,,,,,,,,,,,,,,,,,1,5.9025,,0,0,4,4,49,1,stimuli/stim_20210706_power2amp/equal_lnn_AM3.6Hz_s35_31.m4a,,,,,,,,,,,,
,,,,,39786,2021-09-26_15h23.04.157,judgeSpeechMusic_20210921_logNormShiftAmp_detection_fixS,2020.1.2,MacIntel,60,,,,,,,,,,,,,,,,,,,,,,,,,,,,,,1,7.1606,,0,0,5,5,51,1,stimuli/stim_20210706_power2amp/equal_lnn_AM3.6Hz_s35_11.m4a,,,,,,,,,,,,
,,,,,39786,2021-09-26_15h23.04.157,judgeSpeechMusic_20210921_logNormShiftAmp_detection_fixS,2020.1.2,MacIntel,60,,,,,,,,,,,,,,,,,,,,,,,,,,,,,,2,7.8367,,0,0,6,6,35,1,stimuli/stim_20210706_power2amp/equal_lnn_AM2.4Hz_s35_21.m4a,,,,,,,,,,,,
,,,,,39786,2021-09-26_15h23.04.157,judgeSpeechMusic_20210921_logNormShiftAmp_detection_fixS,2020.1.2,MacIntel,60,,,,,,,,,,,,,,,,,,,,,,,,,,,,,,1,6.7935,,0,0,7,7,60,1,stimuli/stim_20210706_power2amp/equal_lnn_AM4.2Hz_s35_11.m4a,,,,,,,,,,,,
,,,,,39786,2021-09-26_15h23.04.157,judgeSpeechMusic_20210921_logNormShiftAmp_detection_fixS,2020.1.2,MacIntel,60,,,,,,,,,,,,,,,,,,,,,,,,,,,,,,1,5.7096,,0,0,8,8,48,1,stimuli/stim_20210706_power2amp/equal_lnn_AM3.6Hz_s35_33.m4a,,,,,,,,,,,,
,,,,,39786,2021-09-26_15h23.04.157,judgeSpeechMusic_20210921_logNormShiftAmp_detection_fixS,2020.1.2,MacIntel,60,,,,,,,,,,,,,,,,,,,,,,,,,,,,,,2,5.6629,,0,0,9,9,5,1,stimuli/stim_20210706_power2amp/equal_lnn_AM0.6Hz_s35_29.m4a,,,,,,,,,,,,
,,,,,39786,2021-09-26_15h23.04.157,judgeSpeechMusic_20210921_logNormShiftAmp_detection_fixS,2020.1.2,MacIntel,60,,,,,,,,,,,,,,,,,,,,,,,,,,,,,,1,5.8872,,0,0,10,10,10,1,stimuli/stim_20210706_power2amp/equal_lnn_AM0.6Hz_s35_41.m4a,,,,,,,,,,,,
,,,,,39786,2021-09-26_15h23.04.157,judgeSpeechMusic_20210921_logNormShiftAmp_detection_fixS,2020.1.2,MacIntel,60,,,,,,,,,,,,,,,,,,,,,,,,,,,,,,2,5.7713,,0,0,11,11,7,1,stimuli/stim_20210706_power2amp/equal_lnn_AM0.6Hz_s35_26.m4a,,,,,,,,,,,,
,,,,,39786,2021-09-26_15h23.04.157,judgeSpeechMusic_20210921_logNormShiftAmp_detection_fixS,2020.1.2,MacIntel,60,,,,,,,,,,,,,,,,,,,,,,,,,,,,,,1,5.6679,,0,0,12,12,46,1,stimuli/stim_20210706_power2amp/equal_lnn_AM3.6Hz_s35_47.m4a,,,,,,,,,,,,
,,,,,39786,2021-09-26_15h23.04.157,judgeSpeechMusic_20210921_logNormShiftAmp_detection_fixS,2020.1.2,MacIntel,60,,,,,,,,,,,,,,,,,,,,,,,,,,,,,,2,5.6384,,0,0,13,13,9,1,stimuli/stim_20210706_power2amp/equal_lnn_AM0.6Hz_s35_33.m4a,,,,,,,,,,,,
,,,,,39786,2021-09-26_15h23.04.157,judgeSpeechMusic_20210921_logNormShiftAmp_detection_fixS,2020.1.2,MacIntel,60,,,,,,,,,,,,,,,,,,,,,,,,,,,,,,2,5.6809,,0,0,14,14,21,1,stimuli/stim_20210706_power2amp/equal_lnn_AM1.2Hz_s35_13.m4a,,,,,,,,,,,,
,,,,,39786,2021-09-26_15h23.04.157,judgeSpeechMusic_20210921_logNormShiftAmp_detection_fixS,2020.1.2,MacIntel,60,,,,,,,,,,,,,,,,,,,,,,,,,,,,,,1,6.2791,,0,0,15,15,53,1,stimuli/stim_20210706_power2amp/equal_lnn_AM3.6Hz_s35_48.m4a,,,,,,,,,,,,
,,,,,39786,2021-09-26_15h23.04.157,judgeSpeechMusic_20210921_logNormShiftAmp_detection_fixS,2020.1.2,MacIntel,60,,,,,,,,,,,,,,,,,,,,,,,,,,,,,,2,5.8696,,0,0,16,16,8,1,stimuli/stim_20210706_power2amp/equal_lnn_AM0.6Hz_s35_6.m4a,,,,,,,,,,,,
,,,,,39786,2021-09-26_15h23.04.157,judgeSpeechMusic_20210921_logNormShiftAmp_detection_fixS,2020.1.2,MacIntel,60,,,,,,,,,,,,,,,,,,,,,,,,,,,,,,2,7.3858,,0,0,17,17,15,1,stimuli/stim_20210706_power2amp/equal_lnn_AM1.2Hz_s35_17.m4a,,,,,,,,,,,,
,,,,,39786,2021-09-26_15h23.04.157,judgeSpeechMusic_20210921_logNormShiftAmp_detection_fixS,2020.1.2,MacIntel,60,,,,,,,,,,,,,,,,,,,,,,,,,,,,,,2,5.7701,,0,0,18,18,12,1,stimuli/stim_20210706_power2amp/equal_lnn_AM0.6Hz_s35_35.m4a,,,,,,,,,,,,
,,,,,39786,2021-09-26_15h23.04.157,judgeSpeechMusic_20210921_logNormShiftAmp_detection_fixS,2020.1.2,MacIntel,60,,,,,,,,,,,,,,,,,,,,,,,,,,,,,,2,6.2194,4,1,0,19,19,17,1,stimuli/stim_20210706_power2amp/equal_lnn_AM1.2Hz_s35_47.m4a,1.273,,,,,,,,,,,
,,,,,39786,2021-09-26_15h23.04.157,judgeSpeechMusic_20210921_logNormShiftAmp_detection_fixS,2020.1.2,MacIntel,60,,,,,,,,,,,,,,,,,,,,,,,,,,,,,,1,5.7224,,0,0,20,20,39,1,stimuli/stim_20210706_power2amp/equal_lnn_AM2.4Hz_s35_25.m4a,,,,,,,,,,,,
,,,,,39786,2021-09-26_15h23.04.157,judgeSpeechMusic_20210921_logNormShiftAmp_detection_fixS,2020.1.2,MacIntel,60,,,,,,,,,,,,,,,,,,,,,,,,,,,,,,1,5.7141,,0,0,21,21,63,1,stimuli/stim_20210706_power2amp/equal_lnn_AM4.2Hz_s35_28.m4a,,,,,,,,,,,,
,,,,,39786,2021-09-26_15h23.04.157,judgeSpeechMusic_20210921_logNormShiftAmp_detection_fixS,2020.1.2,MacIntel,60,,,,,,,,,,,,,,,,,,,,,,,,,,,,,,1,5.6537,,0,0,22,22,73,1,stimuli/stim_20210706_power2amp/equal_lnn_AM4.2Hz_s35_26.m4a,,,,,,,,,,,,
,,,,,39786,2021-09-26_15h23.04.157,judgeSpeechMusic_20210921_logNormShiftAmp_detection_fixS,2020.1.2,MacIntel,60,,,,,,,,,,,,,,,,,,,,,,,,,,,,,,2,5.5773,,0,0,23,23,30,1,stimuli/stim_20210706_power2amp/equal_lnn_AM2.4Hz_s35_41.m4a,,,,,,,,,,,,
,,,,,39786,2021-09-26_15h23.04.157,judgeSpeechMusic_20210921_logNormShiftAmp_detection_fixS,2020.1.2,MacIntel,60,,,,,,,,,,,,,,,,,,,,,,,,,,,,,,1,6.0284,,0,0,24,24,67,1,stimuli/stim_20210706_power2amp/equal_lnn_AM4.2Hz_s35_18.m4a,,,,,,,,,,,,
,,,,,39786,2021-09-26_15h23.04.157,judgeSpeechMusic_20210921_logNormShiftAmp_detection_fixS,2020.1.2,MacIntel,60,,,,,,,,,,,,,,,,,,,,,,,,,,,,,,2,5.5119,,0,0,25,25,66,1,stimuli/stim_20210706_power2amp/equal_lnn_AM4.2Hz_s35_15.m4a,,,,,,,,,,,,
,,,,,39786,2021-09-26_15h23.04.157,judgeSpeechMusic_20210921_logNormShiftAmp_detection_fixS,2020.1.2,MacIntel,60,,,,,,,,,,,,,,,,,,,,,,,,,,,,,,2,5.5306,,0,0,26,26,14,1,stimuli/stim_20210706_power2amp/equal_lnn_AM0.6Hz_s35_47.m4a,,,,,,,,,,,,
,,,,,39786,2021-09-26_15h23.04.157,judgeSpeechMusic_20210921_logNormShiftAmp_detection_fixS,2020.1.2,MacIntel,60,,,,,,,,,,,,,,,,,,,,,,,,,,,,,,2,5.5379,,0,0,27,27,27,1,stimuli/stim_20210706_power2amp/equal_lnn_AM1.2Hz_s35_27.m4a,,,,,,,,,,,,
,,,,,39786,2021-09-26_15h23.04.157,judgeSpeechMusic_20210921_logNormShiftAmp_detection_fixS,2020.1.2,MacIntel,60,,,,,,,,,,,,,,,,,,,,,,,,,,,,,,2,5.6388,,0,0,28,28,34,1,stimuli/stim_20210706_power2amp/equal_lnn_AM2.4Hz_s35_43.m4a,,,,,,,,,,,,
,,,,,39786,2021-09-26_15h23.04.157,judgeSpeechMusic_20210921_logNormShiftAmp_detection_fixS,2020.1.2,MacIntel,60,,,,,,,,,,,,,,,,,,,,,,,,,,,,,,2,5.6937,,0,0,29,29,22,1,stimuli/stim_20210706_power2amp/equal_lnn_AM1.2Hz_s35_28.m4a,,,,,,,,,,,,
,,,,,39786,2021-09-26_15h23.04.157,judgeSpeechMusic_20210921_logNormShiftAmp_detection_fixS,2020.1.2,MacIntel,60,,,,,,,,,,,,,,,,,,,,,,,,,,,,,,2,6.3285,,0,0,30,30,1,1,stimuli/stim_20210706_power2amp/equal_lnn_AM0.6Hz_s35_21.m4a,,,,,,,,,,,,
,,,,,39786,2021-09-26_15h23.04.157,judgeSpeechMusic_20210921_logNormShiftAmp_detection_fixS,2020.1.2,MacIntel,60,,,,,,,,,,,,,,,,,,,,,,,,,,,,,,2,5.9048,,0,0,31,31,6,1,stimuli/stim_20210706_power2amp/equal_lnn_AM0.6Hz_s35_17.m4a,,,,,,,,,,,,
,,,,,39786,2021-09-26_15h23.04.157,judgeSpeechMusic_20210921_logNormShiftAmp_detection_fixS,2020.1.2,MacIntel,60,,,,,,,,,,,,,,,,,,,,,,,,,,,,,,1,5.9368,,0,0,32,32,70,1,stimuli/stim_20210706_power2amp/equal_lnn_AM4.2Hz_s35_9.m4a,,,,,,,,,,,,
,,,,,39786,2021-09-26_15h23.04.157,judgeSpeechMusic_20210921_logNormShiftAmp_detection_fixS,2020.1.2,MacIntel,60,,,,,,,,,,,,,,,,,,,,,,,,,,,,,,1,8.8204,,0,0,33,33,42,1,stimuli/stim_20210706_power2amp/equal_lnn_AM2.4Hz_s35_18.m4a,,,,,,,,,,,,
,,,,,39786,2021-09-26_15h23.04.157,judgeSpeechMusic_20210921_logNormShiftAmp_detection_fixS,2020.1.2,MacIntel,60,,,,,,,,,,,,,,,,,,,,,,,,,,,,,,1,5.5518,,0,0,34,34,62,1,stimuli/stim_20210706_power2amp/equal_lnn_AM4.2Hz_s35_23.m4a,,,,,,,,,,,,
,,,,,39786,2021-09-26_15h23.04.157,judgeSpeechMusic_20210921_logNormShiftAmp_detection_fixS,2020.1.2,MacIntel,60,,,,,,,,,,,,,,,,,,,,,,,,,,,,,,1,6.177,,0,0,35,35,65,1,stimuli/stim_20210706_power2amp/equal_lnn_AM4.2Hz_s35_47.m4a,,,,,,,,,,,,
,,,,,39786,2021-09-26_15h23.04.157,judgeSpeechMusic_20210921_logNormShiftAmp_detection_fixS,2020.1.2,MacIntel,60,,,,,,,,,,,,,,,,,,,,,,,,,,,,,,2,5.7278,,0,0,36,36,16,1,stimuli/stim_20210706_power2amp/equal_lnn_AM1.2Hz_s35_9.m4a,,,,,,,,,,,,
,,,,,39786,2021-09-26_15h23.04.157,judgeSpeechMusic_20210921_logNormShiftAmp_detection_fixS,2020.1.2,MacIntel,60,,,,,,,,,,,,,,,,,,,,,,,,,,,,,,1,7.3081,3,1,0,37,37,56,1,stimuli/stim_20210706_power2amp/equal_lnn_AM3.6Hz_s35_32.m4a,1.0299,,,,,,,,,,,
,,,,,39786,2021-09-26_15h23.04.157,judgeSpeechMusic_20210921_logNormShiftAmp_detection_fixS,2020.1.2,MacIntel,60,,,,,,,,,,,,,,,,,,,,,,,,,,,,,,2,7.6365,,0,0,38,38,20,1,stimuli/stim_20210706_power2amp/equal_lnn_AM1.2Hz_s35_49.m4a,,,,,,,,,,,,
,,,,,39786,2021-09-26_15h23.04.157,judgeSpeechMusic_20210921_logNormShiftAmp_detection_fixS,2020.1.2,MacIntel,60,,,,,,,,,,,,,,,,,,,,,,,,,,,,,,1,5.636,,0,0,39,39,32,1,stimuli/stim_20210706_power2amp/equal_lnn_AM2.4Hz_s35_42.m4a,,,,,,,,,,,,
,,,,,39786,2021-09-26_15h23.04.157,judgeSpeechMusic_20210921_logNormShiftAmp_detection_fixS,2020.1.2,MacIntel,60,,,,,,,,,,,,,,,,,,,,,,,,,,,,,,2,5.6882,,0,0,40,40,0,1,stimuli/stim_20210706_power2amp/equal_lnn_AM0.6Hz_s35_20.m4a,,,,,,,,,,,,
,,,,,39786,2021-09-26_15h23.04.157,judgeSpeechMusic_20210921_logNormShiftAmp_detection_fixS,2020.1.2,MacIntel,60,,,,,,,,,,,,,,,,,,,,,,,,,,,,,,1,5.7618,,0,0,41,41,38,1,stimuli/stim_20210706_power2amp/equal_lnn_AM2.4Hz_s35_31.m4a,,,,,,,,,,,,
,,,,,39786,2021-09-26_15h23.04.157,judgeSpeechMusic_20210921_logNormShiftAmp_detection_fixS,2020.1.2,MacIntel,60,,,,,,,,,,,,,,,,,,,,,,,,,,,,,,2,5.619,,0,0,42,42,24,1,stimuli/stim_20210706_power2amp/equal_lnn_AM1.2Hz_s35_42.m4a,,,,,,,,,,,,
,,,,,39786,2021-09-26_15h23.04.157,judgeSpeechMusic_20210921_logNormShiftAmp_detection_fixS,2020.1.2,MacIntel,60,,,,,,,,,,,,,,,,,,,,,,,,,,,,,,1,5.6863,,0,0,43,43,57,1,stimuli/stim_20210706_power2amp/equal_lnn_AM3.6Hz_s35_10.m4a,,,,,,,,,,,,
,,,,,39786,2021-09-26_15h23.04.157,judgeSpeechMusic_20210921_logNormShiftAmp_detection_fixS,2020.1.2,MacIntel,60,,,,,,,,,,,,,,,,,,,,,,,,,,,,,,1,5.7145,,0,0,44,44,68,1,stimuli/stim_20210706_power2amp/equal_lnn_AM4.2Hz_s35_27.m4a,,,,,,,,,,,,
,,,,,39786,2021-09-26_15h23.04.157,judgeSpeechMusic_20210921_logNormShiftAmp_detection_fixS,2020.1.2,MacIntel,60,,,,,,,,,,,,,,,,,,,,,,,,,,,,,,2,5.6776,,0,0,45,45,3,1,stimuli/stim_20210706_power2amp/equal_lnn_AM0.6Hz_s35_31.m4a,,,,,,,,,,,,
,,,,,39786,2021-09-26_15h23.04.157,judgeSpeechMusic_20210921_logNormShiftAmp_detection_fixS,2020.1.2,MacIntel,60,,,,,,,,,,,,,,,,,,,,,,,,,,,,,,1,6.2196,,0,0,46,46,64,1,stimuli/stim_20210706_power2amp/equal_lnn_AM4.2Hz_s35_1.m4a,,,,,,,,,,,,
,,,,,39786,2021-09-26_15h23.04.157,judgeSpeechMusic_20210921_logNormShiftAmp_detection_fixS,2020.1.2,MacIntel,60,,,,,,,,,,,,,,,,,,,,,,,,,,,,,,1,5.9015,,0,0,47,47,50,1,stimuli/stim_20210706_power2amp/equal_lnn_AM3.6Hz_s35_28.m4a,,,,,,,,,,,,
,,,,,39786,2021-09-26_15h23.04.157,judgeSpeechMusic_20210921_logNormShiftAmp_detection_fixS,2020.1.2,MacIntel,60,,,,,,,,,,,,,,,,,,,,,,,,,,,,,,1,6.955,,0,0,48,48,41,1,stimuli/stim_20210706_power2amp/equal_lnn_AM2.4Hz_s35_35.m4a,,,,,,,,,,,,
,,,,,39786,2021-09-26_15h23.04.157,judgeSpeechMusic_20210921_logNormShiftAmp_detection_fixS,2020.1.2,MacIntel,60,,,,,,,,,,,,,,,,,,,,,,,,,,,,,,1,5.9698,,0,0,49,49,47,1,stimuli/stim_20210706_power2amp/equal_lnn_AM3.6Hz_s35_24.m4a,,,,,,,,,,,,
,,,,,39786,2021-09-26_15h23.04.157,judgeSpeechMusic_20210921_logNormShiftAmp_detection_fixS,2020.1.2,MacIntel,60,,,,,,,,,,,,,,,,,,,,,,,,,,,,,,2,5.8999,,0,0,50,50,19,1,stimuli/stim_20210706_power2amp/equal_lnn_AM1.2Hz_s35_24.m4a,,,,,,,,,,,,
,,,,,39786,2021-09-26_15h23.04.157,judgeSpeechMusic_20210921_logNormShiftAmp_detection_fixS,2020.1.2,MacIntel,60,,,,,,,,,,,,,,,,,,,,,,,,,,,,,,1,6.2534,,0,0,51,51,23,1,stimuli/stim_20210706_power2amp/equal_lnn_AM1.2Hz_s35_45.m4a,,,,,,,,,,,,
,,,,,39786,2021-09-26_15h23.04.157,judgeSpeechMusic_20210921_logNormShiftAmp_detection_fixS,2020.1.2,MacIntel,60,,,,,,,,,,,,,,,,,,,,,,,,,,,,,,2,6.0269,,0,0,52,52,36,1,stimuli/stim_20210706_power2amp/equal_lnn_AM2.4Hz_s35_48.m4a,,,,,,,,,,,,
,,,,,39786,2021-09-26_15h23.04.157,judgeSpeechMusic_20210921_logNormShiftAmp_detection_fixS,2020.1.2,MacIntel,60,,,,,,,,,,,,,,,,,,,,,,,,,,,,,,1,7.1539,,0,0,53,53,61,1,stimuli/stim_20210706_power2amp/equal_lnn_AM4.2Hz_s35_14.m4a,,,,,,,,,,,,
,,,,,39786,2021-09-26_15h23.04.157,judgeSpeechMusic_20210921_logNormShiftAmp_detection_fixS,2020.1.2,MacIntel,60,,,,,,,,,,,,,,,,,,,,,,,,,,,,,,2,9.9739,,0,0,54,54,26,1,stimuli/stim_20210706_power2amp/equal_lnn_AM1.2Hz_s35_15.m4a,,,,,,,,,,,,
,,,,,39786,2021-09-26_15h23.04.157,judgeSpeechMusic_20210921_logNormShiftAmp_detection_fixS,2020.1.2,MacIntel,60,,,,,,,,,,,,,,,,,,,,,,,,,,,,,,1,6.8707,1,1,0,55,55,33,1,stimuli/stim_20210706_power2amp/equal_lnn_AM2.4Hz_s35_29.m4a,1.6407,,,,,,,,,,,
,,,,,39786,2021-09-26_15h23.04.157,judgeSpeechMusic_20210921_logNormShiftAmp_detection_fixS,2020.1.2,MacIntel,60,,,,,,,,,,,,,,,,,,,,,,,,,,,,,,1,8.3357,,0,0,56,56,52,1,stimuli/stim_20210706_power2amp/equal_lnn_AM3.6Hz_s35_29.m4a,,,,,,,,,,,,
,,,,,39786,2021-09-26_15h23.04.157,judgeSpeechMusic_20210921_logNormShiftAmp_detection_fixS,2020.1.2,MacIntel,60,,,,,,,,,,,,,,,,,,,,,,,,,,,,,,2,5.7976,,0,0,57,57,4,1,stimuli/stim_20210706_power2amp/equal_lnn_AM0.6Hz_s35_48.m4a,,,,,,,,,,,,
,,,,,39786,2021-09-26_15h23.04.157,judgeSpeechMusic_20210921_logNormShiftAmp_detection_fixS,2020.1.2,MacIntel,60,,,,,,,,,,,,,,,,,,,,,,,,,,,,,,1,5.4443,,0,0,58,58,71,1,stimuli/stim_20210706_power2amp/equal_lnn_AM4.2Hz_s35_35.m4a,,,,,,,,,,,,
,,,,,39786,2021-09-26_15h23.04.157,judgeSpeechMusic_20210921_logNormShiftAmp_detection_fixS,2020.1.2,MacIntel,60,,,,,,,,,,,,,,,,,,,,,,,,,,,,,,2,5.6218,,0,0,59,59,55,1,stimuli/stim_20210706_power2amp/equal_lnn_AM3.6Hz_s35_43.m4a,,,,,,,,,,,,
,,,,,39786,2021-09-26_15h23.04.157,judgeSpeechMusic_20210921_logNormShiftAmp_detection_fixS,2020.1.2,MacIntel,60,,,,,,,,,,,,,,,,,,,,,,,,,,,,,,2,6.3603,,0,0,60,60,13,1,stimuli/stim_20210706_power2amp/equal_lnn_AM0.6Hz_s35_22.m4a,,,,,,,,,,,,
,,,,,39786,2021-09-26_15h23.04.157,judgeSpeechMusic_20210921_logNormShiftAmp_detection_fixS,2020.1.2,MacIntel,60,,,,,,,,,,,,,,,,,,,,,,,,,,,,,,2,6.0507,,0,0,61,61,28,1,stimuli/stim_20210706_power2amp/equal_lnn_AM1.2Hz_s35_36.m4a,,,,,,,,,,,,
,,,,,39786,2021-09-26_15h23.04.157,judgeSpeechMusic_20210921_logNormShiftAmp_detection_fixS,2020.1.2,MacIntel,60,,,,,,,,,,,,,,,,,,,,,,,,,,,,,,2,7.42,,0,0,62,62,2,1,stimuli/stim_20210706_power2amp/equal_lnn_AM0.6Hz_s35_1.m4a,,,,,,,,,,,,
,,,,,39786,2021-09-26_15h23.04.157,judgeSpeechMusic_20210921_logNormShiftAmp_detection_fixS,2020.1.2,MacIntel,60,,,,,,,,,,,,,,,,,,,,,,,,,,,,,,1,6.4301,,0,0,63,63,31,1,stimuli/stim_20210706_power2amp/equal_lnn_AM2.4Hz_s35_26.m4a,,,,,,,,,,,,
,,,,,39786,2021-09-26_15h23.04.157,judgeSpeechMusic_20210921_logNormShiftAmp_detection_fixS,2020.1.2,MacIntel,60,,,,,,,,,,,,,,,,,,,,,,,,,,,,,,2,6.4469,,0,0,64,64,40,1,stimuli/stim_20210706_power2amp/equal_lnn_AM2.4Hz_s35_8.m4a,,,,,,,,,,,,
,,,,,39786,2021-09-26_15h23.04.157,judgeSpeechMusic_20210921_logNormShiftAmp_detection_fixS,2020.1.2,MacIntel,60,,,,,,,,,,,,,,,,,,,,,,,,,,,,,,1,6.2869,,0,0,65,65,74,1,stimuli/stim_20210706_power2amp/equal_lnn_AM4.2Hz_s35_5.m4a,,,,,,,,,,,,
,,,,,39786,2021-09-26_15h23.04.157,judgeSpeechMusic_20210921_logNormShiftAmp_detection_fixS,2020.1.2,MacIntel,60,,,,,,,,,,,,,,,,,,,,,,,,,,,,,,1,5.5648,,0,0,66,66,58,1,stimuli/stim_20210706_power2amp/equal_lnn_AM3.6Hz_s35_13.m4a,,,,,,,,,,,,
,,,,,39786,2021-09-26_15h23.04.157,judgeSpeechMusic_20210921_logNormShiftAmp_detection_fixS,2020.1.2,MacIntel,60,,,,,,,,,,,,,,,,,,,,,,,,,,,,,,1,5.8154,,0,0,67,67,37,1,stimuli/stim_20210706_power2amp/equal_lnn_AM2.4Hz_s35_20.m4a,,,,,,,,,,,,
,,,,,39786,2021-09-26_15h23.04.157,judgeSpeechMusic_20210921_logNormShiftAmp_detection_fixS,2020.1.2,MacIntel,60,,,,,,,,,,,,,,,,,,,,,,,,,,,,,,1,15.1007,,0,0,68,68,69,1,stimuli/stim_20210706_power2amp/equal_lnn_AM4.2Hz_s35_32.m4a,,,,,,,,,,,,
,,,,,39786,2021-09-26_15h23.04.157,judgeSpeechMusic_20210921_logNormShiftAmp_detection_fixS,2020.1.2,MacIntel,60,,,,,,,,,,,,,,,,,,,,,,,,,,,,,,2,6.0048,,0,0,69,69,29,1,stimuli/stim_20210706_power2amp/equal_lnn_AM1.2Hz_s35_11.m4a,,,,,,,,,,,,
,,,,,39786,2021-09-26_15h23.04.157,judgeSpeechMusic_20210921_logNormShiftAmp_detection_fixS,2020.1.2,MacIntel,60,,,,,,,,,,,,,,,,,,,,,,,,,,,,,,1,5.9871,,0,0,70,70,59,1,stimuli/stim_20210706_power2amp/equal_lnn_AM3.6Hz_s35_9.m4a,,,,,,,,,,,,
,,,,,39786,2021-09-26_15h23.04.157,judgeSpeechMusic_20210921_logNormShiftAmp_detection_fixS,2020.1.2,MacIntel,60,,,,,,,,,,,,,,,,,,,,,,,,,,,,,,1,6.6892,,0,0,71,71,44,1,stimuli/stim_20210706_power2amp/equal_lnn_AM2.4Hz_s35_2.m4a,,,,,,,,,,,,
,,,,,39786,2021-09-26_15h23.04.157,judgeSpeechMusic_20210921_logNormShiftAmp_detection_fixS,2020.1.2,MacIntel,60,,,,,,,,,,,,,,,,,,,,,,,,,,,,,,1,5.6219,,0,0,72,72,72,1,stimuli/stim_20210706_power2amp/equal_lnn_AM4.2Hz_s35_24.m4a,,,,,,,,,,,,
,,,,,39786,2021-09-26_15h23.04.157,judgeSpeechMusic_20210921_logNormShiftAmp_detection_fixS,2020.1.2,MacIntel,60,,,,,,,,,,,,,,,,,,,,,,,,,,,,,,1,5.9705,,0,0,73,73,54,1,stimuli/stim_20210706_power2amp/equal_lnn_AM3.6Hz_s35_8.m4a,,,,,,,,,,,,
,,,,,39786,2021-09-26_15h23.04.157,judgeSpeechMusic_20210921_logNormShiftAmp_detection_fixS,2020.1.2,MacIntel,60,,,,,,,,,,,,,,,,,,,,,,,,,,,,,,1,7.993,,0,0,74,74,43,1,stimuli/stim_20210706_power2amp/equal_lnn_AM2.4Hz_s35_47.m4a,,,,,,,,,,,,
,,,,,39786,2021-09-26_15h23.04.157,judgeSpeechMusic_20210921_logNormShiftAmp_detection_fixS,2020.1.2,MacIntel,60,,,,,,,,,,,,,,,,,,,,,,,,,,,,,,,,,,,,,,,,,space,0.9934,0,1,1,0,1,MUSIC,stimuli/MUSIC.jpg,,
,,,,,39786,2021-09-26_15h23.04.157,judgeSpeechMusic_20210921_logNormShiftAmp_detection_fixS,2020.1.2,MacIntel,60,,,,,,,,,,,,,,,,,,0,0,0,0,1,1,stimuli/stim_20210706_power2amp/equal_lnn_AM_training1.8Hz_s35.m4a,,,,,,,,,,,,,,,,,,,,,,,,,,,
,,,,,39786,2021-09-26_15h23.04.157,judgeSpeechMusic_20210921_logNormShiftAmp_detection_fixS,2020.1.2,MacIntel,60,,,,,,,,,,,,,,,,,,,,,,,,,,space,3.6985,space,0.279,1,6.21,,0,0,0,0,42,1,stimuli/stim_20210706_power2amp/equal_lnn_AM2.4Hz_s35_18.m4a,,,,,,,,,,,,
,,,,,39786,2021-09-26_15h23.04.157,judgeSpeechMusic_20210921_logNormShiftAmp_detection_fixS,2020.1.2,MacIntel,60,,,,,,,,,,,,,,,,,,,,,,,,,,,,,,2,6.0368,,0,0,1,1,22,1,stimuli/stim_20210706_power2amp/equal_lnn_AM1.2Hz_s35_28.m4a,,,,,,,,,,,,
,,,,,39786,2021-09-26_15h23.04.157,judgeSpeechMusic_20210921_logNormShiftAmp_detection_fixS,2020.1.2,MacIntel,60,,,,,,,,,,,,,,,,,,,,,,,,,,,,,,2,5.8572,,0,0,2,2,24,1,stimuli/stim_20210706_power2amp/equal_lnn_AM1.2Hz_s35_42.m4a,,,,,,,,,,,,
,,,,,39786,2021-09-26_15h23.04.157,judgeSpeechMusic_20210921_logNormShiftAmp_detection_fixS,2020.1.2,MacIntel,60,,,,,,,,,,,,,,,,,,,,,,,,,,,,,,2,6.1729,,0,0,3,3,12,1,stimuli/stim_20210706_power2amp/equal_lnn_AM0.6Hz_s35_35.m4a,,,,,,,,,,,,
,,,,,39786,2021-09-26_15h23.04.157,judgeSpeechMusic_20210921_logNormShiftAmp_detection_fixS,2020.1.2,MacIntel,60,,,,,,,,,,,,,,,,,,,,,,,,,,,,,,1,5.6671,,0,0,4,4,56,1,stimuli/stim_20210706_power2amp/equal_lnn_AM3.6Hz_s35_32.m4a,,,,,,,,,,,,
,,,,,39786,2021-09-26_15h23.04.157,judgeSpeechMusic_20210921_logNormShiftAmp_detection_fixS,2020.1.2,MacIntel,60,,,,,,,,,,,,,,,,,,,,,,,,,,,,,,1,5.5879,,0,0,5,5,62,1,stimuli/stim_20210706_power2amp/equal_lnn_AM4.2Hz_s35_23.m4a,,,,,,,,,,,,
,,,,,39786,2021-09-26_15h23.04.157,judgeSpeechMusic_20210921_logNormShiftAmp_detection_fixS,2020.1.2,MacIntel,60,,,,,,,,,,,,,,,,,,,,,,,,,,,,,,2,5.3474,,0,0,6,6,6,1,stimuli/stim_20210706_power2amp/equal_lnn_AM0.6Hz_s35_17.m4a,,,,,,,,,,,,
,,,,,39786,2021-09-26_15h23.04.157,judgeSpeechMusic_20210921_logNormShiftAmp_detection_fixS,2020.1.2,MacIntel,60,,,,,,,,,,,,,,,,,,,,,,,,,,,,,,1,6.3711,,0,0,7,7,71,1,stimuli/stim_20210706_power2amp/equal_lnn_AM4.2Hz_s35_35.m4a,,,,,,,,,,,,
,,,,,39786,2021-09-26_15h23.04.157,judgeSpeechMusic_20210921_logNormShiftAmp_detection_fixS,2020.1.2,MacIntel,60,,,,,,,,,,,,,,,,,,,,,,,,,,,,,,1,7.0608,,0,0,8,8,31,1,stimuli/stim_20210706_power2amp/equal_lnn_AM2.4Hz_s35_26.m4a,,,,,,,,,,,,
,,,,,39786,2021-09-26_15h23.04.157,judgeSpeechMusic_20210921_logNormShiftAmp_detection_fixS,2020.1.2,MacIntel,60,,,,,,,,,,,,,,,,,,,,,,,,,,,,,,1,5.6351,,0,0,9,9,54,1,stimuli/stim_20210706_power2amp/equal_lnn_AM3.6Hz_s35_8.m4a,,,,,,,,,,,,
,,,,,39786,2021-09-26_15h23.04.157,judgeSpeechMusic_20210921_logNormShiftAmp_detection_fixS,2020.1.2,MacIntel,60,,,,,,,,,,,,,,,,,,,,,,,,,,,,,,2,7.1577,,0,0,10,10,35,1,stimuli/stim_20210706_power2amp/equal_lnn_AM2.4Hz_s35_21.m4a,,,,,,,,,,,,
,,,,,39786,2021-09-26_15h23.04.157,judgeSpeechMusic_20210921_logNormShiftAmp_detection_fixS,2020.1.2,MacIntel,60,,,,,,,,,,,,,,,,,,,,,,,,,,,,,,2,6.2342,,0,0,11,11,15,1,stimuli/stim_20210706_power2amp/equal_lnn_AM1.2Hz_s35_17.m4a,,,,,,,,,,,,
,,,,,39786,2021-09-26_15h23.04.157,judgeSpeechMusic_20210921_logNormShiftAmp_detection_fixS,2020.1.2,MacIntel,60,,,,,,,,,,,,,,,,,,,,,,,,,,,,,,1,6.6223,,0,0,12,12,50,1,stimuli/stim_20210706_power2amp/equal_lnn_AM3.6Hz_s35_28.m4a,,,,,,,,,,,,
,,,,,39786,2021-09-26_15h23.04.157,judgeSpeechMusic_20210921_logNormShiftAmp_detection_fixS,2020.1.2,MacIntel,60,,,,,,,,,,,,,,,,,,,,,,,,,,,,,,1,5.6854,,0,0,13,13,61,1,stimuli/stim_20210706_power2amp/equal_lnn_AM4.2Hz_s35_14.m4a,,,,,,,,,,,,
,,,,,39786,2021-09-26_15h23.04.157,judgeSpeechMusic_20210921_logNormShiftAmp_detection_fixS,2020.1.2,MacIntel,60,,,,,,,,,,,,,,,,,,,,,,,,,,,,,,2,5.6883,,0,0,14,14,18,1,stimuli/stim_20210706_power2amp/equal_lnn_AM1.2Hz_s35_1.m4a,,,,,,,,,,,,
,,,,,39786,2021-09-26_15h23.04.157,judgeSpeechMusic_20210921_logNormShiftAmp_detection_fixS,2020.1.2,MacIntel,60,,,,,,,,,,,,,,,,,,,,,,,,,,,,,,2,5.5716,,0,0,15,15,21,1,stimuli/stim_20210706_power2amp/equal_lnn_AM1.2Hz_s35_13.m4a,,,,,,,,,,,,
,,,,,39786,2021-09-26_15h23.04.157,judgeSpeechMusic_20210921_logNormShiftAmp_detection_fixS,2020.1.2,MacIntel,60,,,,,,,,,,,,,,,,,,,,,,,,,,,,,,2,5.9467,,0,0,16,16,8,1,stimuli/stim_20210706_power2amp/equal_lnn_AM0.6Hz_s35_6.m4a,,,,,,,,,,,,
,,,,,39786,2021-09-26_15h23.04.157,judgeSpeechMusic_20210921_logNormShiftAmp_detection_fixS,2020.1.2,MacIntel,60,,,,,,,,,,,,,,,,,,,,,,,,,,,,,,2,6.1394,,0,0,17,17,13,1,stimuli/stim_20210706_power2amp/equal_lnn_AM0.6Hz_s35_22.m4a,,,,,,,,,,,,
,,,,,39786,2021-09-26_15h23.04.157,judgeSpeechMusic_20210921_logNormShiftAmp_detection_fixS,2020.1.2,MacIntel,60,,,,,,,,,,,,,,,,,,,,,,,,,,,,,,1,7.3252,,0,0,18,18,32,1,stimuli/stim_20210706_power2amp/equal_lnn_AM2.4Hz_s35_42.m4a,,,,,,,,,,,,
,,,,,39786,2021-09-26_15h23.04.157,judgeSpeechMusic_20210921_logNormShiftAmp_detection_fixS,2020.1.2,MacIntel,60,,,,,,,,,,,,,,,,,,,,,,,,,,,,,,2,7.616,1,1,0,19,19,29,1,stimuli/stim_20210706_power2amp/equal_lnn_AM1.2Hz_s35_11.m4a,1.2913,,,,,,,,,,,
,,,,,39786,2021-09-26_15h23.04.157,judgeSpeechMusic_20210921_logNormShiftAmp_detection_fixS,2020.1.2,MacIntel,60,,,,,,,,,,,,,,,,,,,,,,,,,,,,,,2,6.403,,0,0,20,20,10,1,stimuli/stim_20210706_power2amp/equal_lnn_AM0.6Hz_s35_41.m4a,,,,,,,,,,,,
,,,,,39786,2021-09-26_15h23.04.157,judgeSpeechMusic_20210921_logNormShiftAmp_detection_fixS,2020.1.2,MacIntel,60,,,,,,,,,,,,,,,,,,,,,,,,,,,,,,2,6.3347,,0,0,21,21,14,1,stimuli/stim_20210706_power2amp/equal_lnn_AM0.6Hz_s35_47.m4a,,,,,,,,,,,,
,,,,,39786,2021-09-26_15h23.04.157,judgeSpeechMusic_20210921_logNormShiftAmp_detection_fixS,2020.1.2,MacIntel,60,,,,,,,,,,,,,,,,,,,,,,,,,,,,,,1,5.9148,,0,0,22,22,44,1,stimuli/stim_20210706_power2amp/equal_lnn_AM2.4Hz_s35_2.m4a,,,,,,,,,,,,
,,,,,39786,2021-09-26_15h23.04.157,judgeSpeechMusic_20210921_logNormShiftAmp_detection_fixS,2020.1.2,MacIntel,60,,,,,,,,,,,,,,,,,,,,,,,,,,,,,,1,7.218,,0,0,23,23,39,1,stimuli/stim_20210706_power2amp/equal_lnn_AM2.4Hz_s35_25.m4a,,,,,,,,,,,,
,,,,,39786,2021-09-26_15h23.04.157,judgeSpeechMusic_20210921_logNormShiftAmp_detection_fixS,2020.1.2,MacIntel,60,,,,,,,,,,,,,,,,,,,,,,,,,,,,,,1,6.9628,,0,0,24,24,41,1,stimuli/stim_20210706_power2amp/equal_lnn_AM2.4Hz_s35_35.m4a,,,,,,,,,,,,
,,,,,39786,2021-09-26_15h23.04.157,judgeSpeechMusic_20210921_logNormShiftAmp_detection_fixS,2020.1.2,MacIntel,60,,,,,,,,,,,,,,,,,,,,,,,,,,,,,,1,5.879,,0,0,25,25,70,1,stimuli/stim_20210706_power2amp/equal_lnn_AM4.2Hz_s35_9.m4a,,,,,,,,,,,,
,,,,,39786,2021-09-26_15h23.04.157,judgeSpeechMusic_20210921_logNormShiftAmp_detection_fixS,2020.1.2,MacIntel,60,,,,,,,,,,,,,,,,,,,,,,,,,,,,,,1,12.5867,,0,0,26,26,25,1,stimuli/stim_20210706_power2amp/equal_lnn_AM1.2Hz_s35_23.m4a,,,,,,,,,,,,
,,,,,39786,2021-09-26_15h23.04.157,judgeSpeechMusic_20210921_logNormShiftAmp_detection_fixS,2020.1.2,MacIntel,60,,,,,,,,,,,,,,,,,,,,,,,,,,,,,,2,6.1523,,0,0,27,27,16,1,stimuli/stim_20210706_power2amp/equal_lnn_AM1.2Hz_s35_9.m4a,,,,,,,,,,,,
,,,,,39786,2021-09-26_15h23.04.157,judgeSpeechMusic_20210921_logNormShiftAmp_detection_fixS,2020.1.2,MacIntel,60,,,,,,,,,,,,,,,,,,,,,,,,,,,,,,1,5.9048,,0,0,28,28,67,1,stimuli/stim_20210706_power2amp/equal_lnn_AM4.2Hz_s35_18.m4a,,,,,,,,,,,,
,,,,,39786,2021-09-26_15h23.04.157,judgeSpeechMusic_20210921_logNormShiftAmp_detection_fixS,2020.1.2,MacIntel,60,,,,,,,,,,,,,,,,,,,,,,,,,,,,,,1,5.9555,,0,0,29,29,53,1,stimuli/stim_20210706_power2amp/equal_lnn_AM3.6Hz_s35_48.m4a,,,,,,,,,,,,
,,,,,39786,2021-09-26_15h23.04.157,judgeSpeechMusic_20210921_logNormShiftAmp_detection_fixS,2020.1.2,MacIntel,60,,,,,,,,,,,,,,,,,,,,,,,,,,,,,,2,6.3948,,0,0,30,30,1,1,stimuli/stim_20210706_power2amp/equal_lnn_AM0.6Hz_s35_21.m4a,,,,,,,,,,,,
,,,,,39786,2021-09-26_15h23.04.157,judgeSpeechMusic_20210921_logNormShiftAmp_detection_fixS,2020.1.2,MacIntel,60,,,,,,,,,,,,,,,,,,,,,,,,,,,,,,2,5.6543,,0,0,31,31,27,1,stimuli/stim_20210706_power2amp/equal_lnn_AM1.2Hz_s35_27.m4a,,,,,,,,,,,,
,,,,,39786,2021-09-26_15h23.04.157,judgeSpeechMusic_20210921_logNormShiftAmp_detection_fixS,2020.1.2,MacIntel,60,,,,,,,,,,,,,,,,,,,,,,,,,,,,,,1,11.6216,,0,0,32,32,49,1,stimuli/stim_20210706_power2amp/equal_lnn_AM3.6Hz_s35_31.m4a,,,,,,,,,,,,
,,,,,39786,2021-09-26_15h23.04.157,judgeSpeechMusic_20210921_logNormShiftAmp_detection_fixS,2020.1.2,MacIntel,60,,,,,,,,,,,,,,,,,,,,,,,,,,,,,,1,5.6303,,0,0,33,33,74,1,stimuli/stim_20210706_power2amp/equal_lnn_AM4.2Hz_s35_5.m4a,,,,,,,,,,,,
,,,,,39786,2021-09-26_15h23.04.157,judgeSpeechMusic_20210921_logNormShiftAmp_detection_fixS,2020.1.2,MacIntel,60,,,,,,,,,,,,,,,,,,,,,,,,,,,,,,2,5.7232,,0,0,34,34,2,1,stimuli/stim_20210706_power2amp/equal_lnn_AM0.6Hz_s35_1.m4a,,,,,,,,,,,,
,,,,,39786,2021-09-26_15h23.04.157,judgeSpeechMusic_20210921_logNormShiftAmp_detection_fixS,2020.1.2,MacIntel,60,,,,,,,,,,,,,,,,,,,,,,,,,,,,,,1,5.7861,,0,0,35,35,66,1,stimuli/stim_20210706_power2amp/equal_lnn_AM4.2Hz_s35_15.m4a,,,,,,,,,,,,
,,,,,39786,2021-09-26_15h23.04.157,judgeSpeechMusic_20210921_logNormShiftAmp_detection_fixS,2020.1.2,MacIntel,60,,,,,,,,,,,,,,,,,,,,,,,,,,,,,,2,5.5022,,0,0,36,36,0,1,stimuli/stim_20210706_power2amp/equal_lnn_AM0.6Hz_s35_20.m4a,,,,,,,,,,,,
,,,,,39786,2021-09-26_15h23.04.157,judgeSpeechMusic_20210921_logNormShiftAmp_detection_fixS,2020.1.2,MacIntel,60,,,,,,,,,,,,,,,,,,,,,,,,,,,,,,1,5.7525,2,1,0,37,37,45,1,stimuli/stim_20210706_power2amp/equal_lnn_AM3.6Hz_s35_23.m4a,0.4051,,,,,,,,,,,
,,,,,39786,2021-09-26_15h23.04.157,judgeSpeechMusic_20210921_logNormShiftAmp_detection_fixS,2020.1.2,MacIntel,60,,,,,,,,,,,,,,,,,,,,,,,,,,,,,,1,6.7844,,0,0,38,38,68,1,stimuli/stim_20210706_power2amp/equal_lnn_AM4.2Hz_s35_27.m4a,,,,,,,,,,,,
,,,,,39786,2021-09-26_15h23.04.157,judgeSpeechMusic_20210921_logNormShiftAmp_detection_fixS,2020.1.2,MacIntel,60,,,,,,,,,,,,,,,,,,,,,,,,,,,,,,1,7.6461,,0,0,39,39,33,1,stimuli/stim_20210706_power2amp/equal_lnn_AM2.4Hz_s35_29.m4a,,,,,,,,,,,,
,,,,,39786,2021-09-26_15h23.04.157,judgeSpeechMusic_20210921_logNormShiftAmp_detection_fixS,2020.1.2,MacIntel,60,,,,,,,,,,,,,,,,,,,,,,,,,,,,,,1,7.2508,,0,0,40,40,60,1,stimuli/stim_20210706_power2amp/equal_lnn_AM4.2Hz_s35_11.m4a,,,,,,,,,,,,
,,,,,39786,2021-09-26_15h23.04.157,judgeSpeechMusic_20210921_logNormShiftAmp_detection_fixS,2020.1.2,MacIntel,60,,,,,,,,,,,,,,,,,,,,,,,,,,,,,,1,5.6395,,0,0,41,41,63,1,stimuli/stim_20210706_power2amp/equal_lnn_AM4.2Hz_s35_28.m4a,,,,,,,,,,,,
,,,,,39786,2021-09-26_15h23.04.157,judgeSpeechMusic_20210921_logNormShiftAmp_detection_fixS,2020.1.2,MacIntel,60,,,,,,,,,,,,,,,,,,,,,,,,,,,,,,1,6.1748,,0,0,42,42,51,1,stimuli/stim_20210706_power2amp/equal_lnn_AM3.6Hz_s35_11.m4a,,,,,,,,,,,,
,,,,,39786,2021-09-26_15h23.04.157,judgeSpeechMusic_20210921_logNormShiftAmp_detection_fixS,2020.1.2,MacIntel,60,,,,,,,,,,,,,,,,,,,,,,,,,,,,,,1,5.8055,,0,0,43,43,65,1,stimuli/stim_20210706_power2amp/equal_lnn_AM4.2Hz_s35_47.m4a,,,,,,,,,,,,
,,,,,39786,2021-09-26_15h23.04.157,judgeSpeechMusic_20210921_logNormShiftAmp_detection_fixS,2020.1.2,MacIntel,60,,,,,,,,,,,,,,,,,,,,,,,,,,,,,,2,5.8271,,0,0,44,44,23,1,stimuli/stim_20210706_power2amp/equal_lnn_AM1.2Hz_s35_45.m4a,,,,,,,,,,,,
,,,,,39786,2021-09-26_15h23.04.157,judgeSpeechMusic_20210921_logNormShiftAmp_detection_fixS,2020.1.2,MacIntel,60,,,,,,,,,,,,,,,,,,,,,,,,,,,,,,2,5.5848,,0,0,45,45,38,1,stimuli/stim_20210706_power2amp/equal_lnn_AM2.4Hz_s35_31.m4a,,,,,,,,,,,,
,,,,,39786,2021-09-26_15h23.04.157,judgeSpeechMusic_20210921_logNormShiftAmp_detection_fixS,2020.1.2,MacIntel,60,,,,,,,,,,,,,,,,,,,,,,,,,,,,,,1,6.7708,,0,0,46,46,73,1,stimuli/stim_20210706_power2amp/equal_lnn_AM4.2Hz_s35_26.m4a,,,,,,,,,,,,
,,,,,39786,2021-09-26_15h23.04.157,judgeSpeechMusic_20210921_logNormShiftAmp_detection_fixS,2020.1.2,MacIntel,60,,,,,,,,,,,,,,,,,,,,,,,,,,,,,,1,6.9793,,0,0,47,47,48,1,stimuli/stim_20210706_power2amp/equal_lnn_AM3.6Hz_s35_33.m4a,,,,,,,,,,,,
,,,,,39786,2021-09-26_15h23.04.157,judgeSpeechMusic_20210921_logNormShiftAmp_detection_fixS,2020.1.2,MacIntel,60,,,,,,,,,,,,,,,,,,,,,,,,,,,,,,2,6.1363,,0,0,48,48,59,1,stimuli/stim_20210706_power2amp/equal_lnn_AM3.6Hz_s35_9.m4a,,,,,,,,,,,,
,,,,,39786,2021-09-26_15h23.04.157,judgeSpeechMusic_20210921_logNormShiftAmp_detection_fixS,2020.1.2,MacIntel,60,,,,,,,,,,,,,,,,,,,,,,,,,,,,,,2,6.5975,,0,0,49,49,26,1,stimuli/stim_20210706_power2amp/equal_lnn_AM1.2Hz_s35_15.m4a,,,,,,,,,,,,
,,,,,39786,2021-09-26_15h23.04.157,judgeSpeechMusic_20210921_logNormShiftAmp_detection_fixS,2020.1.2,MacIntel,60,,,,,,,,,,,,,,,,,,,,,,,,,,,,,,1,7.3353,,0,0,50,50,72,1,stimuli/stim_20210706_power2amp/equal_lnn_AM4.2Hz_s35_24.m4a,,,,,,,,,,,,
,,,,,39786,2021-09-26_15h23.04.157,judgeSpeechMusic_20210921_logNormShiftAmp_detection_fixS,2020.1.2,MacIntel,60,,,,,,,,,,,,,,,,,,,,,,,,,,,,,,2,6.5334,,0,0,51,51,36,1,stimuli/stim_20210706_power2amp/equal_lnn_AM2.4Hz_s35_48.m4a,,,,,,,,,,,,
,,,,,39786,2021-09-26_15h23.04.157,judgeSpeechMusic_20210921_logNormShiftAmp_detection_fixS,2020.1.2,MacIntel,60,,,,,,,,,,,,,,,,,,,,,,,,,,,,,,2,6.8455,,0,0,52,52,20,1,stimuli/stim_20210706_power2amp/equal_lnn_AM1.2Hz_s35_49.m4a,,,,,,,,,,,,
,,,,,39786,2021-09-26_15h23.04.157,judgeSpeechMusic_20210921_logNormShiftAmp_detection_fixS,2020.1.2,MacIntel,60,,,,,,,,,,,,,,,,,,,,,,,,,,,,,,1,7.1852,,0,0,53,53,57,1,stimuli/stim_20210706_power2amp/equal_lnn_AM3.6Hz_s35_10.m4a,,,,,,,,,,,,
,,,,,39786,2021-09-26_15h23.04.157,judgeSpeechMusic_20210921_logNormShiftAmp_detection_fixS,2020.1.2,MacIntel,60,,,,,,,,,,,,,,,,,,,,,,,,,,,,,,1,7.3419,,0,0,54,54,47,1,stimuli/stim_20210706_power2amp/equal_lnn_AM3.6Hz_s35_24.m4a,,,,,,,,,,,,
,,,,,39786,2021-09-26_15h23.04.157,judgeSpeechMusic_20210921_logNormShiftAmp_detection_fixS,2020.1.2,MacIntel,60,,,,,,,,,,,,,,,,,,,,,,,,,,,,,,1,6.7727,1,1,0,55,55,34,1,stimuli/stim_20210706_power2amp/equal_lnn_AM2.4Hz_s35_43.m4a,0.8933,,,,,,,,,,,
,,,,,39786,2021-09-26_15h23.04.157,judgeSpeechMusic_20210921_logNormShiftAmp_detection_fixS,2020.1.2,MacIntel,60,,,,,,,,,,,,,,,,,,,,,,,,,,,,,,1,8.4688,,0,0,56,56,52,1,stimuli/stim_20210706_power2amp/equal_lnn_AM3.6Hz_s35_29.m4a,,,,,,,,,,,,
,,,,,39786,2021-09-26_15h23.04.157,judgeSpeechMusic_20210921_logNormShiftAmp_detection_fixS,2020.1.2,MacIntel,60,,,,,,,,,,,,,,,,,,,,,,,,,,,,,,2,15.9689,,0,0,57,57,64,1,stimuli/stim_20210706_power2amp/equal_lnn_AM4.2Hz_s35_1.m4a,,,,,,,,,,,,
,,,,,39786,2021-09-26_15h23.04.157,judgeSpeechMusic_20210921_logNormShiftAmp_detection_fixS,2020.1.2,MacIntel,60,,,,,,,,,,,,,,,,,,,,,,,,,,,,,,2,6.4539,,0,0,58,58,3,1,stimuli/stim_20210706_power2amp/equal_lnn_AM0.6Hz_s35_31.m4a,,,,,,,,,,,,
,,,,,39786,2021-09-26_15h23.04.157,judgeSpeechMusic_20210921_logNormShiftAmp_detection_fixS,2020.1.2,MacIntel,60,,,,,,,,,,,,,,,,,,,,,,,,,,,,,,2,11.1684,,0,0,59,59,30,1,stimuli/stim_20210706_power2amp/equal_lnn_AM2.4Hz_s35_41.m4a,,,,,,,,,,,,
,,,,,39786,2021-09-26_15h23.04.157,judgeSpeechMusic_20210921_logNormShiftAmp_detection_fixS,2020.1.2,MacIntel,60,,,,,,,,,,,,,,,,,,,,,,,,,,,,,,2,8.0534,,0,0,60,60,37,1,stimuli/stim_20210706_power2amp/equal_lnn_AM2.4Hz_s35_20.m4a,,,,,,,,,,,,
,,,,,39786,2021-09-26_15h23.04.157,judgeSpeechMusic_20210921_logNormShiftAmp_detection_fixS,2020.1.2,MacIntel,60,,,,,,,,,,,,,,,,,,,,,,,,,,,,,,2,7.0117,,0,0,61,61,28,1,stimuli/stim_20210706_power2amp/equal_lnn_AM1.2Hz_s35_36.m4a,,,,,,,,,,,,
,,,,,39786,2021-09-26_15h23.04.157,judgeSpeechMusic_20210921_logNormShiftAmp_detection_fixS,2020.1.2,MacIntel,60,,,,,,,,,,,,,,,,,,,,,,,,,,,,,,2,6.9862,,0,0,62,62,11,1,stimuli/stim_20210706_power2amp/equal_lnn_AM0.6Hz_s35_12.m4a,,,,,,,,,,,,
,,,,,39786,2021-09-26_15h23.04.157,judgeSpeechMusic_20210921_logNormShiftAmp_detection_fixS,2020.1.2,MacIntel,60,,,,,,,,,,,,,,,,,,,,,,,,,,,,,,1,7.0559,,0,0,63,63,43,1,stimuli/stim_20210706_power2amp/equal_lnn_AM2.4Hz_s35_47.m4a,,,,,,,,,,,,
,,,,,39786,2021-09-26_15h23.04.157,judgeSpeechMusic_20210921_logNormShiftAmp_detection_fixS,2020.1.2,MacIntel,60,,,,,,,,,,,,,,,,,,,,,,,,,,,,,,1,13.1888,,0,0,64,64,46,1,stimuli/stim_20210706_power2amp/equal_lnn_AM3.6Hz_s35_47.m4a,,,,,,,,,,,,
,,,,,39786,2021-09-26_15h23.04.157,judgeSpeechMusic_20210921_logNormShiftAmp_detection_fixS,2020.1.2,MacIntel,60,,,,,,,,,,,,,,,,,,,,,,,,,,,,,,1,5.9699,,0,0,65,65,58,1,stimuli/stim_20210706_power2amp/equal_lnn_AM3.6Hz_s35_13.m4a,,,,,,,,,,,,
,,,,,39786,2021-09-26_15h23.04.157,judgeSpeechMusic_20210921_logNormShiftAmp_detection_fixS,2020.1.2,MacIntel,60,,,,,,,,,,,,,,,,,,,,,,,,,,,,,,1,19.3343,,0,0,66,66,5,1,stimuli/stim_20210706_power2amp/equal_lnn_AM0.6Hz_s35_29.m4a,,,,,,,,,,,,
,,,,,39786,2021-09-26_15h23.04.157,judgeSpeechMusic_20210921_logNormShiftAmp_detection_fixS,2020.1.2,MacIntel,60,,,,,,,,,,,,,,,,,,,,,,,,,,,,,,2,6.1189,,0,0,67,67,7,1,stimuli/stim_20210706_power2amp/equal_lnn_AM0.6Hz_s35_26.m4a,,,,,,,,,,,,
,,,,,39786,2021-09-26_15h23.04.157,judgeSpeechMusic_20210921_logNormShiftAmp_detection_fixS,2020.1.2,MacIntel,60,,,,,,,,,,,,,,,,,,,,,,,,,,,,,,2,5.5416,,0,0,68,68,19,1,stimuli/stim_20210706_power2amp/equal_lnn_AM1.2Hz_s35_24.m4a,,,,,,,,,,,,
,,,,,39786,2021-09-26_15h23.04.157,judgeSpeechMusic_20210921_logNormShiftAmp_detection_fixS,2020.1.2,MacIntel,60,,,,,,,,,,,,,,,,,,,,,,,,,,,,,,2,5.5591,,0,0,69,69,17,1,stimuli/stim_20210706_power2amp/equal_lnn_AM1.2Hz_s35_47.m4a,,,,,,,,,,,,
,,,,,39786,2021-09-26_15h23.04.157,judgeSpeechMusic_20210921_logNormShiftAmp_detection_fixS,2020.1.2,MacIntel,60,,,,,,,,,,,,,,,,,,,,,,,,,,,,,,2,7.5102,,0,0,70,70,9,1,stimuli/stim_20210706_power2amp/equal_lnn_AM0.6Hz_s35_33.m4a,,,,,,,,,,,,
,,,,,39786,2021-09-26_15h23.04.157,judgeSpeechMusic_20210921_logNormShiftAmp_detection_fixS,2020.1.2,MacIntel,60,,,,,,,,,,,,,,,,,,,,,,,,,,,,,,2,11.9172,,0,0,71,71,55,1,stimuli/stim_20210706_power2amp/equal_lnn_AM3.6Hz_s35_43.m4a,,,,,,,,,,,,
,,,,,39786,2021-09-26_15h23.04.157,judgeSpeechMusic_20210921_logNormShiftAmp_detection_fixS,2020.1.2,MacIntel,60,,,,,,,,,,,,,,,,,,,,,,,,,,,,,,2,5.9196,,0,0,72,72,4,1,stimuli/stim_20210706_power2amp/equal_lnn_AM0.6Hz_s35_48.m4a,,,,,,,,,,,,
,,,,,39786,2021-09-26_15h23.04.157,judgeSpeechMusic_20210921_logNormShiftAmp_detection_fixS,2020.1.2,MacIntel,60,,,,,,,,,,,,,,,,,,,,,,,,,,,,,,1,6.2211,,0,0,73,73,40,1,stimuli/stim_20210706_power2amp/equal_lnn_AM2.4Hz_s35_8.m4a,,,,,,,,,,,,
,,,,,39786,2021-09-26_15h23.04.157,judgeSpeechMusic_20210921_logNormShiftAmp_detection_fixS,2020.1.2,MacIntel,60,,,,,,,,,,,,,,,,,,,,,,,,,,,,,,1,6.8385,,0,0,74,74,69,1,stimuli/stim_20210706_power2amp/equal_lnn_AM4.2Hz_s35_32.m4a,,,,,,,,,,,,
,,,,,39786,2021-09-26_15h23.04.157,judgeSpeechMusic_20210921_logNormShiftAmp_detection_fixS,2020.1.2,MacIntel,60,,,,,,,,,,,,,,,,,,,,,,,,,,,,,,,,,,,,,,,,,space,5.4241,1,0,2,0,1,MUSIC,stimuli/MUSIC.jpg,,
,,,,,39786,2021-09-26_15h23.04.157,judgeSpeechMusic_20210921_logNormShiftAmp_detection_fixS,2020.1.2,MacIntel,60,,,,,,,,,,,,,,,,,,0,0,0,0,0,1,stimuli/stim_20210706_power2amp/equal_lnn_AM_training0.9Hz_s35.m4a,,,,,,,,,,,,,,,,,,,,,,,,,,,
,,,,,39786,2021-09-26_15h23.04.157,judgeSpeechMusic_20210921_logNormShiftAmp_detection_fixS,2020.1.2,MacIntel,60,,,,,,,,,,,,,,,,,,,,,,,,,,space,0.8344,space,0.3285,1,6.6521,,0,0,0,0,25,1,stimuli/stim_20210706_power2amp/equal_lnn_AM1.2Hz_s35_23.m4a,,,,,,,,,,,,
,,,,,39786,2021-09-26_15h23.04.157,judgeSpeechMusic_20210921_logNormShiftAmp_detection_fixS,2020.1.2,MacIntel,60,,,,,,,,,,,,,,,,,,,,,,,,,,,,,,1,5.5861,,0,0,1,1,5,1,stimuli/stim_20210706_power2amp/equal_lnn_AM0.6Hz_s35_29.m4a,,,,,,,,,,,,
,,,,,39786,2021-09-26_15h23.04.157,judgeSpeechMusic_20210921_logNormShiftAmp_detection_fixS,2020.1.2,MacIntel,60,,,,,,,,,,,,,,,,,,,,,,,,,,,,,,2,6.2281,,0,0,2,2,56,1,stimuli/stim_20210706_power2amp/equal_lnn_AM3.6Hz_s35_32.m4a,,,,,,,,,,,,
,,,,,39786,2021-09-26_15h23.04.157,judgeSpeechMusic_20210921_logNormShiftAmp_detection_fixS,2020.1.2,MacIntel,60,,,,,,,,,,,,,,,,,,,,,,,,,,,,,,1,5.8071,,0,0,3,3,26,1,stimuli/stim_20210706_power2amp/equal_lnn_AM1.2Hz_s35_15.m4a,,,,,,,,,,,,
,,,,,39786,2021-09-26_15h23.04.157,judgeSpeechMusic_20210921_logNormShiftAmp_detection_fixS,2020.1.2,MacIntel,60,,,,,,,,,,,,,,,,,,,,,,,,,,,,,,1,7.4619,,0,0,4,4,40,1,stimuli/stim_20210706_power2amp/equal_lnn_AM2.4Hz_s35_8.m4a,,,,,,,,,,,,
,,,,,39786,2021-09-26_15h23.04.157,judgeSpeechMusic_20210921_logNormShiftAmp_detection_fixS,2020.1.2,MacIntel,60,,,,,,,,,,,,,,,,,,,,,,,,,,,,,,2,9.5081,,0,0,5,5,36,1,stimuli/stim_20210706_power2amp/equal_lnn_AM2.4Hz_s35_48.m4a,,,,,,,,,,,,
,,,,,39786,2021-09-26_15h23.04.157,judgeSpeechMusic_20210921_logNormShiftAmp_detection_fixS,2020.1.2,MacIntel,60,,,,,,,,,,,,,,,,,,,,,,,,,,,,,,1,5.891,,0,0,6,6,27,1,stimuli/stim_20210706_power2amp/equal_lnn_AM1.2Hz_s35_27.m4a,,,,,,,,,,,,
,,,,,39786,2021-09-26_15h23.04.157,judgeSpeechMusic_20210921_logNormShiftAmp_detection_fixS,2020.1.2,MacIntel,60,,,,,,,,,,,,,,,,,,,,,,,,,,,,,,2,5.8185,,0,0,7,7,63,1,stimuli/stim_20210706_power2amp/equal_lnn_AM4.2Hz_s35_28.m4a,,,,,,,,,,,,
,,,,,39786,2021-09-26_15h23.04.157,judgeSpeechMusic_20210921_logNormShiftAmp_detection_fixS,2020.1.2,MacIntel,60,,,,,,,,,,,,,,,,,,,,,,,,,,,,,,2,5.7912,,0,0,8,8,74,1,stimuli/stim_20210706_power2amp/equal_lnn_AM4.2Hz_s35_5.m4a,,,,,,,,,,,,
,,,,,39786,2021-09-26_15h23.04.157,judgeSpeechMusic_20210921_logNormShiftAmp_detection_fixS,2020.1.2,MacIntel,60,,,,,,,,,,,,,,,,,,,,,,,,,,,,,,2,10.6534,,0,0,9,9,69,1,stimuli/stim_20210706_power2amp/equal_lnn_AM4.2Hz_s35_32.m4a,,,,,,,,,,,,
,,,,,39786,2021-09-26_15h23.04.157,judgeSpeechMusic_20210921_logNormShiftAmp_detection_fixS,2020.1.2,MacIntel,60,,,,,,,,,,,,,,,,,,,,,,,,,,,,,,1,5.6704,,0,0,10,10,38,1,stimuli/stim_20210706_power2amp/equal_lnn_AM2.4Hz_s35_31.m4a,,,,,,,,,,,,
,,,,,39786,2021-09-26_15h23.04.157,judgeSpeechMusic_20210921_logNormShiftAmp_detection_fixS,2020.1.2,MacIntel,60,,,,,,,,,,,,,,,,,,,,,,,,,,,,,,1,6.3202,,0,0,11,11,18,1,stimuli/stim_20210706_power2amp/equal_lnn_AM1.2Hz_s35_1.m4a,,,,,,,,,,,,
,,,,,39786,2021-09-26_15h23.04.157,judgeSpeechMusic_20210921_logNormShiftAmp_detection_fixS,2020.1.2,MacIntel,60,,,,,,,,,,,,,,,,,,,,,,,,,,,,,,1,27.0587,,0,0,12,12,0,1,stimuli/stim_20210706_power2amp/equal_lnn_AM0.6Hz_s35_20.m4a,,,,,,,,,,,,
,,,,,39786,2021-09-26_15h23.04.157,judgeSpeechMusic_20210921_logNormShiftAmp_detection_fixS,2020.1.2,MacIntel,60,,,,,,,,,,,,,,,,,,,,,,,,,,,,,,2,6.737,,0,0,13,13,48,1,stimuli/stim_20210706_power2amp/equal_lnn_AM3.6Hz_s35_33.m4a,,,,,,,,,,,,
,,,,,39786,2021-09-26_15h23.04.157,judgeSpeechMusic_20210921_logNormShiftAmp_detection_fixS,2020.1.2,MacIntel,60,,,,,,,,,,,,,,,,,,,,,,,,,,,,,,1,11.2206,,0,0,14,14,1,1,stimuli/stim_20210706_power2amp/equal_lnn_AM0.6Hz_s35_21.m4a,,,,,,,,,,,,
,,,,,39786,2021-09-26_15h23.04.157,judgeSpeechMusic_20210921_logNormShiftAmp_detection_fixS,2020.1.2,MacIntel,60,,,,,,,,,,,,,,,,,,,,,,,,,,,,,,1,5.6054,,0,0,15,15,28,1,stimuli/stim_20210706_power2amp/equal_lnn_AM1.2Hz_s35_36.m4a,,,,,,,,,,,,
,,,,,39786,2021-09-26_15h23.04.157,judgeSpeechMusic_20210921_logNormShiftAmp_detection_fixS,2020.1.2,MacIntel,60,,,,,,,,,,,,,,,,,,,,,,,,,,,,,,2,6.1943,,0,0,16,16,72,1,stimuli/stim_20210706_power2amp/equal_lnn_AM4.2Hz_s35_24.m4a,,,,,,,,,,,,
,,,,,39786,2021-09-26_15h23.04.157,judgeSpeechMusic_20210921_logNormShiftAmp_detection_fixS,2020.1.2,MacIntel,60,,,,,,,,,,,,,,,,,,,,,,,,,,,,,,2,5.7183,,0,0,17,17,42,1,stimuli/stim_20210706_power2amp/equal_lnn_AM2.4Hz_s35_18.m4a,,,,,,,,,,,,
,,,,,39786,2021-09-26_15h23.04.157,judgeSpeechMusic_20210921_logNormShiftAmp_detection_fixS,2020.1.2,MacIntel,60,,,,,,,,,,,,,,,,,,,,,,,,,,,,,,1,6.2373,,0,0,18,18,68,1,stimuli/stim_20210706_power2amp/equal_lnn_AM4.2Hz_s35_27.m4a,,,,,,,,,,,,
,,,,,39786,2021-09-26_15h23.04.157,judgeSpeechMusic_20210921_logNormShiftAmp_detection_fixS,2020.1.2,MacIntel,60,,,,,,,,,,,,,,,,,,,,,,,,,,,,,,2,9.8434,1,1,0,19,19,44,1,stimuli/stim_20210706_power2amp/equal_lnn_AM2.4Hz_s35_2.m4a,0.656,,,,,,,,,,,
,,,,,39786,2021-09-26_15h23.04.157,judgeSpeechMusic_20210921_logNormShiftAmp_detection_fixS,2020.1.2,MacIntel,60,,,,,,,,,,,,,,,,,,,,,,,,,,,,,,1,7.2516,,0,0,20,20,54,1,stimuli/stim_20210706_power2amp/equal_lnn_AM3.6Hz_s35_8.m4a,,,,,,,,,,,,
,,,,,39786,2021-09-26_15h23.04.157,judgeSpeechMusic_20210921_logNormShiftAmp_detection_fixS,2020.1.2,MacIntel,60,,,,,,,,,,,,,,,,,,,,,,,,,,,,,,2,9.1212,,0,0,21,21,59,1,stimuli/stim_20210706_power2amp/equal_lnn_AM3.6Hz_s35_9.m4a,,,,,,,,,,,,
,,,,,39786,2021-09-26_15h23.04.157,judgeSpeechMusic_20210921_logNormShiftAmp_detection_fixS,2020.1.2,MacIntel,60,,,,,,,,,,,,,,,,,,,,,,,,,,,,,,1,6.2551,,0,0,22,22,16,1,stimuli/stim_20210706_power2amp/equal_lnn_AM1.2Hz_s35_9.m4a,,,,,,,,,,,,
,,,,,39786,2021-09-26_15h23.04.157,judgeSpeechMusic_20210921_logNormShiftAmp_detection_fixS,2020.1.2,MacIntel,60,,,,,,,,,,,,,,,,,,,,,,,,,,,,,,1,6.1351,,0,0,23,23,22,1,stimuli/stim_20210706_power2amp/equal_lnn_AM1.2Hz_s35_28.m4a,,,,,,,,,,,,
,,,,,39786,2021-09-26_15h23.04.157,judgeSpeechMusic_20210921_logNormShiftAmp_detection_fixS,2020.1.2,MacIntel,60,,,,,,,,,,,,,,,,,,,,,,,,,,,,,,1,6.0361,,0,0,24,24,8,1,stimuli/stim_20210706_power2amp/equal_lnn_AM0.6Hz_s35_6.m4a,,,,,,,,,,,,
,,,,,39786,2021-09-26_15h23.04.157,judgeSpeechMusic_20210921_logNormShiftAmp_detection_fixS,2020.1.2,MacIntel,60,,,,,,,,,,,,,,,,,,,,,,,,,,,,,,2,7.2019,,0,0,25,25,61,1,stimuli/stim_20210706_power2amp/equal_lnn_AM4.2Hz_s35_14.m4a,,,,,,,,,,,,
,,,,,39786,2021-09-26_15h23.04.157,judgeSpeechMusic_20210921_logNormShiftAmp_detection_fixS,2020.1.2,MacIntel,60,,,,,,,,,,,,,,,,,,,,,,,,,,,,,,1,20.5978,,0,0,26,26,57,1,stimuli/stim_20210706_power2amp/equal_lnn_AM3.6Hz_s35_10.m4a,,,,,,,,,,,,
,,,,,39786,2021-09-26_15h23.04.157,judgeSpeechMusic_20210921_logNormShiftAmp_detection_fixS,2020.1.2,MacIntel,60,,,,,,,,,,,,,,,,,,,,,,,,,,,,,,2,7.9362,,0,0,27,27,45,1,stimuli/stim_20210706_power2amp/equal_lnn_AM3.6Hz_s35_23.m4a,,,,,,,,,,,,
,,,,,39786,2021-09-26_15h23.04.157,judgeSpeechMusic_20210921_logNormShiftAmp_detection_fixS,2020.1.2,MacIntel,60,,,,,,,,,,,,,,,,,,,,,,,,,,,,,,2,5.8445,,0,0,28,28,71,1,stimuli/stim_20210706_power2amp/equal_lnn_AM4.2Hz_s35_35.m4a,,,,,,,,,,,,
,,,,,39786,2021-09-26_15h23.04.157,judgeSpeechMusic_20210921_logNormShiftAmp_detection_fixS,2020.1.2,MacIntel,60,,,,,,,,,,,,,,,,,,,,,,,,,,,,,,1,7.4711,,0,0,29,29,20,1,stimuli/stim_20210706_power2amp/equal_lnn_AM1.2Hz_s35_49.m4a,,,,,,,,,,,,
,,,,,39786,2021-09-26_15h23.04.157,judgeSpeechMusic_20210921_logNormShiftAmp_detection_fixS,2020.1.2,MacIntel,60,,,,,,,,,,,,,,,,,,,,,,,,,,,,,,2,6.039,,0,0,30,30,66,1,stimuli/stim_20210706_power2amp/equal_lnn_AM4.2Hz_s35_15.m4a,,,,,,,,,,,,
,,,,,39786,2021-09-26_15h23.04.157,judgeSpeechMusic_20210921_logNormShiftAmp_detection_fixS,2020.1.2,MacIntel,60,,,,,,,,,,,,,,,,,,,,,,,,,,,,,,2,9.3111,,0,0,31,31,39,1,stimuli/stim_20210706_power2amp/equal_lnn_AM2.4Hz_s35_25.m4a,,,,,,,,,,,,
,,,,,39786,2021-09-26_15h23.04.157,judgeSpeechMusic_20210921_logNormShiftAmp_detection_fixS,2020.1.2,MacIntel,60,,,,,,,,,,,,,,,,,,,,,,,,,,,,,,1,10.2711,,0,0,32,32,30,1,stimuli/stim_20210706_power2amp/equal_lnn_AM2.4Hz_s35_41.m4a,,,,,,,,,,,,
,,,,,39786,2021-09-26_15h23.04.157,judgeSpeechMusic_20210921_logNormShiftAmp_detection_fixS,2020.1.2,MacIntel,60,,,,,,,,,,,,,,,,,,,,,,,,,,,,,,2,7.7599,,0,0,33,33,67,1,stimuli/stim_20210706_power2amp/equal_lnn_AM4.2Hz_s35_18.m4a,,,,,,,,,,,,
,,,,,39786,2021-09-26_15h23.04.157,judgeSpeechMusic_20210921_logNormShiftAmp_detection_fixS,2020.1.2,MacIntel,60,,,,,,,,,,,,,,,,,,,,,,,,,,,,,,2,6.7518,,0,0,34,34,51,1,stimuli/stim_20210706_power2amp/equal_lnn_AM3.6Hz_s35_11.m4a,,,,,,,,,,,,
,,,,,39786,2021-09-26_15h23.04.157,judgeSpeechMusic_20210921_logNormShiftAmp_detection_fixS,2020.1.2,MacIntel,60,,,,,,,,,,,,,,,,,,,,,,,,,,,,,,1,6.8834,,0,0,35,35,47,1,stimuli/stim_20210706_power2amp/equal_lnn_AM3.6Hz_s35_24.m4a,,,,,,,,,,,,
,,,,,39786,2021-09-26_15h23.04.157,judgeSpeechMusic_20210921_logNormShiftAmp_detection_fixS,2020.1.2,MacIntel,60,,,,,,,,,,,,,,,,,,,,,,,,,,,,,,1,5.5956,,0,0,36,36,23,1,stimuli/stim_20210706_power2amp/equal_lnn_AM1.2Hz_s35_45.m4a,,,,,,,,,,,,
,,,,,39786,2021-09-26_15h23.04.157,judgeSpeechMusic_20210921_logNormShiftAmp_detection_fixS,2020.1.2,MacIntel,60,,,,,,,,,,,,,,,,,,,,,,,,,,,,,,2,13.4925,2,1,0,37,37,64,1,stimuli/stim_20210706_power2amp/equal_lnn_AM4.2Hz_s35_1.m4a,0.5076,,,,,,,,,,,
,,,,,39786,2021-09-26_15h23.04.157,judgeSpeechMusic_20210921_logNormShiftAmp_detection_fixS,2020.1.2,MacIntel,60,,,,,,,,,,,,,,,,,,,,,,,,,,,,,,1,5.8575,,0,0,38,38,41,1,stimuli/stim_20210706_power2amp/equal_lnn_AM2.4Hz_s35_35.m4a,,,,,,,,,,,,
,,,,,39786,2021-09-26_15h23.04.157,judgeSpeechMusic_20210921_logNormShiftAmp_detection_fixS,2020.1.2,MacIntel,60,,,,,,,,,,,,,,,,,,,,,,,,,,,,,,2,5.8705,,0,0,39,39,73,1,stimuli/stim_20210706_power2amp/equal_lnn_AM4.2Hz_s35_26.m4a,,,,,,,,,,,,
,,,,,39786,2021-09-26_15h23.04.157,judgeSpeechMusic_20210921_logNormShiftAmp_detection_fixS,2020.1.2,MacIntel,60,,,,,,,,,,,,,,,,,,,,,,,,,,,,,,1,5.7785,,0,0,40,40,3,1,stimuli/stim_20210706_power2amp/equal_lnn_AM0.6Hz_s35_31.m4a,,,,,,,,,,,,
,,,,,39786,2021-09-26_15h23.04.157,judgeSpeechMusic_20210921_logNormShiftAmp_detection_fixS,2020.1.2,MacIntel,60,,,,,,,,,,,,,,,,,,,,,,,,,,,,,,1,5.6854,,0,0,41,41,34,1,stimuli/stim_20210706_power2amp/equal_lnn_AM2.4Hz_s35_43.m4a,,,,,,,,,,,,
,,,,,39786,2021-09-26_15h23.04.157,judgeSpeechMusic_20210921_logNormShiftAmp_detection_fixS,2020.1.2,MacIntel,60,,,,,,,,,,,,,,,,,,,,,,,,,,,,,,1,6.9026,,0,0,42,42,11,1,stimuli/stim_20210706_power2amp/equal_lnn_AM0.6Hz_s35_12.m4a,,,,,,,,,,,,
,,,,,39786,2021-09-26_15h23.04.157,judgeSpeechMusic_20210921_logNormShiftAmp_detection_fixS,2020.1.2,MacIntel,60,,,,,,,,,,,,,,,,,,,,,,,,,,,,,,2,5.9451,,0,0,43,43,52,1,stimuli/stim_20210706_power2amp/equal_lnn_AM3.6Hz_s35_29.m4a,,,,,,,,,,,,
,,,,,39786,2021-09-26_15h23.04.157,judgeSpeechMusic_20210921_logNormShiftAmp_detection_fixS,2020.1.2,MacIntel,60,,,,,,,,,,,,,,,,,,,,,,,,,,,,,,1,9.2415,,0,0,44,44,21,1,stimuli/stim_20210706_power2amp/equal_lnn_AM1.2Hz_s35_13.m4a,,,,,,,,,,,,
,,,,,39786,2021-09-26_15h23.04.157,judgeSpeechMusic_20210921_logNormShiftAmp_detection_fixS,2020.1.2,MacIntel,60,,,,,,,,,,,,,,,,,,,,,,,,,,,,,,2,6.0411,,0,0,45,45,53,1,stimuli/stim_20210706_power2amp/equal_lnn_AM3.6Hz_s35_48.m4a,,,,,,,,,,,,
,,,,,39786,2021-09-26_15h23.04.157,judgeSpeechMusic_20210921_logNormShiftAmp_detection_fixS,2020.1.2,MacIntel,60,,,,,,,,,,,,,,,,,,,,,,,,,,,,,,1,7.8827,,0,0,46,46,13,1,stimuli/stim_20210706_power2amp/equal_lnn_AM0.6Hz_s35_22.m4a,,,,,,,,,,,,
,,,,,39786,2021-09-26_15h23.04.157,judgeSpeechMusic_20210921_logNormShiftAmp_detection_fixS,2020.1.2,MacIntel,60,,,,,,,,,,,,,,,,,,,,,,,,,,,,,,1,5.8086,,0,0,47,47,37,1,stimuli/stim_20210706_power2amp/equal_lnn_AM2.4Hz_s35_20.m4a,,,,,,,,,,,,
,,,,,39786,2021-09-26_15h23.04.157,judgeSpeechMusic_20210921_logNormShiftAmp_detection_fixS,2020.1.2,MacIntel,60,,,,,,,,,,,,,,,,,,,,,,,,,,,,,,1,6.3435,,0,0,48,48,35,1,stimuli/stim_20210706_power2amp/equal_lnn_AM2.4Hz_s35_21.m4a,,,,,,,,,,,,
,,,,,39786,2021-09-26_15h23.04.157,judgeSpeechMusic_20210921_logNormShiftAmp_detection_fixS,2020.1.2,MacIntel,60,,,,,,,,,,,,,,,,,,,,,,,,,,,,,,1,6.0225,,0,0,49,49,2,1,stimuli/stim_20210706_power2amp/equal_lnn_AM0.6Hz_s35_1.m4a,,,,,,,,,,,,
,,,,,39786,2021-09-26_15h23.04.157,judgeSpeechMusic_20210921_logNormShiftAmp_detection_fixS,2020.1.2,MacIntel,60,,,,,,,,,,,,,,,,,,,,,,,,,,,,,,1,5.6695,,0,0,50,50,55,1,stimuli/stim_20210706_power2amp/equal_lnn_AM3.6Hz_s35_43.m4a,,,,,,,,,,,,
,,,,,39786,2021-09-26_15h23.04.157,judgeSpeechMusic_20210921_logNormShiftAmp_detection_fixS,2020.1.2,MacIntel,60,,,,,,,,,,,,,,,,,,,,,,,,,,,,,,2,5.5712,,0,0,51,51,49,1,stimuli/stim_20210706_power2amp/equal_lnn_AM3.6Hz_s35_31.m4a,,,,,,,,,,,,
,,,,,39786,2021-09-26_15h23.04.157,judgeSpeechMusic_20210921_logNormShiftAmp_detection_fixS,2020.1.2,MacIntel,60,,,,,,,,,,,,,,,,,,,,,,,,,,,,,,2,5.5109,,0,0,52,52,60,1,stimuli/stim_20210706_power2amp/equal_lnn_AM4.2Hz_s35_11.m4a,,,,,,,,,,,,
,,,,,39786,2021-09-26_15h23.04.157,judgeSpeechMusic_20210921_logNormShiftAmp_detection_fixS,2020.1.2,MacIntel,60,,,,,,,,,,,,,,,,,,,,,,,,,,,,,,1,5.9874,,0,0,53,53,43,1,stimuli/stim_20210706_power2amp/equal_lnn_AM2.4Hz_s35_47.m4a,,,,,,,,,,,,
,,,,,39786,2021-09-26_15h23.04.157,judgeSpeechMusic_20210921_logNormShiftAmp_detection_fixS,2020.1.2,MacIntel,60,,,,,,,,,,,,,,,,,,,,,,,,,,,,,,2,5.6765,,0,0,54,54,70,1,stimuli/stim_20210706_power2amp/equal_lnn_AM4.2Hz_s35_9.m4a,,,,,,,,,,,,
,,,,,39786,2021-09-26_15h23.04.157,judgeSpeechMusic_20210921_logNormShiftAmp_detection_fixS,2020.1.2,MacIntel,60,,,,,,,,,,,,,,,,,,,,,,,,,,,,,,1,5.9714,3,1,0,55,55,17,1,stimuli/stim_20210706_power2amp/equal_lnn_AM1.2Hz_s35_47.m4a,0.9989,,,,,,,,,,,
,,,,,39786,2021-09-26_15h23.04.157,judgeSpeechMusic_20210921_logNormShiftAmp_detection_fixS,2020.1.2,MacIntel,60,,,,,,,,,,,,,,,,,,,,,,,,,,,,,,1,5.7071,,0,0,56,56,19,1,stimuli/stim_20210706_power2amp/equal_lnn_AM1.2Hz_s35_24.m4a,,,,,,,,,,,,
,,,,,39786,2021-09-26_15h23.04.157,judgeSpeechMusic_20210921_logNormShiftAmp_detection_fixS,2020.1.2,MacIntel,60,,,,,,,,,,,,,,,,,,,,,,,,,,,,,,2,5.8221,,0,0,57,57,33,1,stimuli/stim_20210706_power2amp/equal_lnn_AM2.4Hz_s35_29.m4a,,,,,,,,,,,,
,,,,,39786,2021-09-26_15h23.04.157,judgeSpeechMusic_20210921_logNormShiftAmp_detection_fixS,2020.1.2,MacIntel,60,,,,,,,,,,,,,,,,,,,,,,,,,,,,,,1,5.9526,,0,0,58,58,15,1,stimuli/stim_20210706_power2amp/equal_lnn_AM1.2Hz_s35_17.m4a,,,,,,,,,,,,
,,,,,39786,2021-09-26_15h23.04.157,judgeSpeechMusic_20210921_logNormShiftAmp_detection_fixS,2020.1.2,MacIntel,60,,,,,,,,,,,,,,,,,,,,,,,,,,,,,,2,5.719,,0,0,59,59,65,1,stimuli/stim_20210706_power2amp/equal_lnn_AM4.2Hz_s35_47.m4a,,,,,,,,,,,,
,,,,,39786,2021-09-26_15h23.04.157,judgeSpeechMusic_20210921_logNormShiftAmp_detection_fixS,2020.1.2,MacIntel,60,,,,,,,,,,,,,,,,,,,,,,,,,,,,,,1,10.4395,,0,0,60,60,29,1,stimuli/stim_20210706_power2amp/equal_lnn_AM1.2Hz_s35_11.m4a,,,,,,,,,,,,
,,,,,39786,2021-09-26_15h23.04.157,judgeSpeechMusic_20210921_logNormShiftAmp_detection_fixS,2020.1.2,MacIntel,60,,,,,,,,,,,,,,,,,,,,,,,,,,,,,,2,5.82,,0,0,61,61,58,1,stimuli/stim_20210706_power2amp/equal_lnn_AM3.6Hz_s35_13.m4a,,,,,,,,,,,,
,,,,,39786,2021-09-26_15h23.04.157,judgeSpeechMusic_20210921_logNormShiftAmp_detection_fixS,2020.1.2,MacIntel,60,,,,,,,,,,,,,,,,,,,,,,,,,,,,,,1,5.9026,,0,0,62,62,12,1,stimuli/stim_20210706_power2amp/equal_lnn_AM0.6Hz_s35_35.m4a,,,,,,,,,,,,
,,,,,39786,2021-09-26_15h23.04.157,judgeSpeechMusic_20210921_logNormShiftAmp_detection_fixS,2020.1.2,MacIntel,60,,,,,,,,,,,,,,,,,,,,,,,,,,,,,,1,5.5927,,0,0,63,63,10,1,stimuli/stim_20210706_power2amp/equal_lnn_AM0.6Hz_s35_41.m4a,,,,,,,,,,,,
,,,,,39786,2021-09-26_15h23.04.157,judgeSpeechMusic_20210921_logNormShiftAmp_detection_fixS,2020.1.2,MacIntel,60,,,,,,,,,,,,,,,,,,,,,,,,,,,,,,1,5.5611,,0,0,64,64,24,1,stimuli/stim_20210706_power2amp/equal_lnn_AM1.2Hz_s35_42.m4a,,,,,,,,,,,,
,,,,,39786,2021-09-26_15h23.04.157,judgeSpeechMusic_20210921_logNormShiftAmp_detection_fixS,2020.1.2,MacIntel,60,,,,,,,,,,,,,,,,,,,,,,,,,,,,,,1,5.9156,,0,0,65,65,4,1,stimuli/stim_20210706_power2amp/equal_lnn_AM0.6Hz_s35_48.m4a,,,,,,,,,,,,
,,,,,39786,2021-09-26_15h23.04.157,judgeSpeechMusic_20210921_logNormShiftAmp_detection_fixS,2020.1.2,MacIntel,60,,,,,,,,,,,,,,,,,,,,,,,,,,,,,,1,5.8617,,0,0,66,66,14,1,stimuli/stim_20210706_power2amp/equal_lnn_AM0.6Hz_s35_47.m4a,,,,,,,,,,,,
,,,,,39786,2021-09-26_15h23.04.157,judgeSpeechMusic_20210921_logNormShiftAmp_detection_fixS,2020.1.2,MacIntel,60,,,,,,,,,,,,,,,,,,,,,,,,,,,,,,2,6.1115,,0,0,67,67,31,1,stimuli/stim_20210706_power2amp/equal_lnn_AM2.4Hz_s35_26.m4a,,,,,,,,,,,,
,,,,,39786,2021-09-26_15h23.04.157,judgeSpeechMusic_20210921_logNormShiftAmp_detection_fixS,2020.1.2,MacIntel,60,,,,,,,,,,,,,,,,,,,,,,,,,,,,,,1,8.0386,,0,0,68,68,6,1,stimuli/stim_20210706_power2amp/equal_lnn_AM0.6Hz_s35_17.m4a,,,,,,,,,,,,
,,,,,39786,2021-09-26_15h23.04.157,judgeSpeechMusic_20210921_logNormShiftAmp_detection_fixS,2020.1.2,MacIntel,60,,,,,,,,,,,,,,,,,,,,,,,,,,,,,,1,5.6577,,0,0,69,69,9,1,stimuli/stim_20210706_power2amp/equal_lnn_AM0.6Hz_s35_33.m4a,,,,,,,,,,,,
,,,,,39786,2021-09-26_15h23.04.157,judgeSpeechMusic_20210921_logNormShiftAmp_detection_fixS,2020.1.2,MacIntel,60,,,,,,,,,,,,,,,,,,,,,,,,,,,,,,2,5.7442,,0,0,70,70,50,1,stimuli/stim_20210706_power2amp/equal_lnn_AM3.6Hz_s35_28.m4a,,,,,,,,,,,,
,,,,,39786,2021-09-26_15h23.04.157,judgeSpeechMusic_20210921_logNormShiftAmp_detection_fixS,2020.1.2,MacIntel,60,,,,,,,,,,,,,,,,,,,,,,,,,,,,,,2,5.5238,,0,0,71,71,46,1,stimuli/stim_20210706_power2amp/equal_lnn_AM3.6Hz_s35_47.m4a,,,,,,,,,,,,
,,,,,39786,2021-09-26_15h23.04.157,judgeSpeechMusic_20210921_logNormShiftAmp_detection_fixS,2020.1.2,MacIntel,60,,,,,,,,,,,,,,,,,,,,,,,,,,,,,,1,6.2358,,0,0,72,72,32,1,stimuli/stim_20210706_power2amp/equal_lnn_AM2.4Hz_s35_42.m4a,,,,,,,,,,,,
,,,,,39786,2021-09-26_15h23.04.157,judgeSpeechMusic_20210921_logNormShiftAmp_detection_fixS,2020.1.2,MacIntel,60,,,,,,,,,,,,,,,,,,,,,,,,,,,,,,2,5.7704,,0,0,73,73,62,1,stimuli/stim_20210706_power2amp/equal_lnn_AM4.2Hz_s35_23.m4a,,,,,,,,,,,,
,,,,,39786,2021-09-26_15h23.04.157,judgeSpeechMusic_20210921_logNormShiftAmp_detection_fixS,2020.1.2,MacIntel,60,,,,,,,,,,,,,,,,,,,,,,,,,,,,,,1,6.0939,,0,0,74,74,7,1,stimuli/stim_20210706_power2amp/equal_lnn_AM0.6Hz_s35_26.m4a,,,,,,,,,,,,
,,,,,39786,2021-09-26_15h23.04.157,judgeSpeechMusic_20210921_logNormShiftAmp_detection_fixS,2020.1.2,MacIntel,60,,,,,,,,,,,,,,,,,,,,,,,,,,,,,,,,,,,,,,,,,,,1,1,3,1,1,SPEECH,stimuli/SPEECH.jpg,,
,,,,,39786,2021-09-26_15h23.04.157,judgeSpeechMusic_20210921_logNormShiftAmp_detection_fixS,2020.1.2,MacIntel,60,,,,,,,,,,,,,,,,,,,,,,,,,,,,,,,,,,,,,,,,,,,,,,,,,,space,2.2912
