volAdjustRep.thisRepN,volAdjustRep.thisTrialN,volAdjustRep.thisN,volAdjustRep.thisIndex,volAdjustRep.ran,participant,date,expName,psychopyVersion,OS,frameRate,headphoneResponse.keys,headphoneResponse.corr,headphoneResponse.rt,headphoneTrial.thisRepN,headphoneTrial.thisTrialN,headphoneTrial.thisN,headphoneTrial.thisIndex,headphoneTrial.ran,headphone_sound1,headphone_sound2,headphone_sound3,corrAns,checkInstruKey.keys,checkInstruKey.rt,trainSlider.response,trainSlider.rt,beepTrainResponse.keys,beepTrainResponse.corr,trainingTrials.thisRepN,trainingTrials.thisTrialN,trainingTrials.thisN,trainingTrials.thisIndex,trainingTrials.ran,trainAudioFile,beepTrainResponse.rt,readyReal_resp.keys,readyReal_resp.rt,checkInstru2_key.keys,checkInstru2_key.rt,ratingSlider.response,ratingSlider.rt,beepResp.keys,beepResp.corr,expTrials.thisRepN,expTrials.thisTrialN,expTrials.thisN,expTrials.thisIndex,expTrials.ran,audioFile,beepResp.rt,switchBlock_space.keys,switchBlock_space.rt,block.thisRepN,block.thisTrialN,block.thisN,block.thisIndex,block.ran,blockName,blockImage,end_resp.keys,end_resp.rt
0,0,0,0,1,41436,2021-09-25_02h48.08.182,judgeSpeechMusic_20210921_logNormShiftAmp_detection_fixS,2020.1.2,Win32,60,,,,,,,,,,,,,,,,,,,,,,,,,,,,,,,,,,,,,,,,,,,,,,,,,,,
,,,,,41436,2021-09-25_02h48.08.182,judgeSpeechMusic_20210921_logNormShiftAmp_detection_fixS,2020.1.2,Win32,60,3,1,1.5541,0,0,0,2,1,stimuli/screen_origin.wav,stimuli/screen_antiphase.wav,stimuli/screen_quiet.wav,3,,,,,,,,,,,,,,,,,,,,,,,,,,,,,,,,,,,,,,,
,,,,,41436,2021-09-25_02h48.08.182,judgeSpeechMusic_20210921_logNormShiftAmp_detection_fixS,2020.1.2,Win32,60,1,1,1.2883,0,1,1,4,1,stimuli/screen_quiet.wav,stimuli/screen_antiphase.wav,stimuli/screen_origin.wav,1,,,,,,,,,,,,,,,,,,,,,,,,,,,,,,,,,,,,,,,
,,,,,41436,2021-09-25_02h48.08.182,judgeSpeechMusic_20210921_logNormShiftAmp_detection_fixS,2020.1.2,Win32,60,1,1,1.5343,0,2,2,5,1,stimuli/screen_quiet.wav,stimuli/screen_origin.wav,stimuli/screen_antiphase.wav,1,,,,,,,,,,,,,,,,,,,,,,,,,,,,,,,,,,,,,,,
,,,,,41436,2021-09-25_02h48.08.182,judgeSpeechMusic_20210921_logNormShiftAmp_detection_fixS,2020.1.2,Win32,60,2,1,1.2054,0,3,3,3,1,stimuli/screen_origin.wav,stimuli/screen_quiet.wav,stimuli/screen_antiphase.wav,2,,,,,,,,,,,,,,,,,,,,,,,,,,,,,,,,,,,,,,,
,,,,,41436,2021-09-25_02h48.08.182,judgeSpeechMusic_20210921_logNormShiftAmp_detection_fixS,2020.1.2,Win32,60,2,1,1.2491,0,4,4,1,1,stimuli/screen_antiphase.wav,stimuli/screen_quiet.wav,stimuli/screen_origin.wav,2,,,,,,,,,,,,,,,,,,,,,,,,,,,,,,,,,,,,,,,
,,,,,41436,2021-09-25_02h48.08.182,judgeSpeechMusic_20210921_logNormShiftAmp_detection_fixS,2020.1.2,Win32,60,3,1,0.9683,0,5,5,0,1,stimuli/screen_antiphase.wav,stimuli/screen_origin.wav,stimuli/screen_quiet.wav,3,,,,,,,,,,,,,,,,,,,,,,,,,,,,,,,,,,,,,,,
,,,,,41436,2021-09-25_02h48.08.182,judgeSpeechMusic_20210921_logNormShiftAmp_detection_fixS,2020.1.2,Win32,60,,,,,,,,,,,,,space,1.297,1,9.3885,,0,0,0,0,0,1,stimuli/stim_20210706_power2amp/equal_lnn_AM_training0.9Hz_s35.m4a,,,,,,,,,,,,,,,,,,,,,,,,,,,
,,,,,41436,2021-09-25_02h48.08.182,judgeSpeechMusic_20210921_logNormShiftAmp_detection_fixS,2020.1.2,Win32,60,,,,,,,,,,,,,,,1,7.1371,,0,0,1,1,2,1,stimuli/stim_20210706_power2amp/equal_lnn_AM_training3Hz_s35.m4a,,,,,,,,,,,,,,,,,,,,,,,,,,,
,,,,,41436,2021-09-25_02h48.08.182,judgeSpeechMusic_20210921_logNormShiftAmp_detection_fixS,2020.1.2,Win32,60,,,,,,,,,,,,,,,1,6.5339,3,1,0,2,2,1,1,stimuli/stim_20210706_power2amp/equal_lnn_AM_training1.8Hz_s35.m4a,1.9684,,,,,,,,,,,,,,,,,,,,,,,,,,
,,,,,41436,2021-09-25_02h48.08.182,judgeSpeechMusic_20210921_logNormShiftAmp_detection_fixS,2020.1.2,Win32,60,,,,,,,,,,,,,,,1,6.6751,,0,0,3,3,3,1,stimuli/stim_20210706_power2amp/equal_lnn_AM_training3.9Hz_s35.m4a,,,,,,,,,,,,,,,,,,,,,,,,,,,
,,,,,41436,2021-09-25_02h48.08.182,judgeSpeechMusic_20210921_logNormShiftAmp_detection_fixS,2020.1.2,Win32,60,,,,,,,,,,,,,,,,,,,,,,,,,,space,3.6508,space,1.1036,1,7.4178,,0,0,0,0,65,1,stimuli/stim_20210706_power2amp/equal_lnn_AM4.2Hz_s35_17.m4a,,,,,,,,,,,,
,,,,,41436,2021-09-25_02h48.08.182,judgeSpeechMusic_20210921_logNormShiftAmp_detection_fixS,2020.1.2,Win32,60,,,,,,,,,,,,,,,,,,,,,,,,,,,,,,1,6.7251,,0,0,1,1,59,1,stimuli/stim_20210706_power2amp/equal_lnn_AM3.6Hz_s35_21.m4a,,,,,,,,,,,,
,,,,,41436,2021-09-25_02h48.08.182,judgeSpeechMusic_20210921_logNormShiftAmp_detection_fixS,2020.1.2,Win32,60,,,,,,,,,,,,,,,,,,,,,,,,,,,,,,1,6.4244,,0,0,2,2,13,1,stimuli/stim_20210706_power2amp/equal_lnn_AM0.6Hz_s35_50.m4a,,,,,,,,,,,,
,,,,,41436,2021-09-25_02h48.08.182,judgeSpeechMusic_20210921_logNormShiftAmp_detection_fixS,2020.1.2,Win32,60,,,,,,,,,,,,,,,,,,,,,,,,,,,,,,1,7.0177,,0,0,3,3,74,1,stimuli/stim_20210706_power2amp/equal_lnn_AM4.2Hz_s35_24.m4a,,,,,,,,,,,,
,,,,,41436,2021-09-25_02h48.08.182,judgeSpeechMusic_20210921_logNormShiftAmp_detection_fixS,2020.1.2,Win32,60,,,,,,,,,,,,,,,,,,,,,,,,,,,,,,1,6.6018,,0,0,4,4,10,1,stimuli/stim_20210706_power2amp/equal_lnn_AM0.6Hz_s35_3.m4a,,,,,,,,,,,,
,,,,,41436,2021-09-25_02h48.08.182,judgeSpeechMusic_20210921_logNormShiftAmp_detection_fixS,2020.1.2,Win32,60,,,,,,,,,,,,,,,,,,,,,,,,,,,,,,1,6.2536,,0,0,5,5,58,1,stimuli/stim_20210706_power2amp/equal_lnn_AM3.6Hz_s35_50.m4a,,,,,,,,,,,,
,,,,,41436,2021-09-25_02h48.08.182,judgeSpeechMusic_20210921_logNormShiftAmp_detection_fixS,2020.1.2,Win32,60,,,,,,,,,,,,,,,,,,,,,,,,,,,,,,1,6.1222,,0,0,6,6,71,1,stimuli/stim_20210706_power2amp/equal_lnn_AM4.2Hz_s35_45.m4a,,,,,,,,,,,,
,,,,,41436,2021-09-25_02h48.08.182,judgeSpeechMusic_20210921_logNormShiftAmp_detection_fixS,2020.1.2,Win32,60,,,,,,,,,,,,,,,,,,,,,,,,,,,,,,1,6.9574,,0,0,7,7,66,1,stimuli/stim_20210706_power2amp/equal_lnn_AM4.2Hz_s35_34.m4a,,,,,,,,,,,,
,,,,,41436,2021-09-25_02h48.08.182,judgeSpeechMusic_20210921_logNormShiftAmp_detection_fixS,2020.1.2,Win32,60,,,,,,,,,,,,,,,,,,,,,,,,,,,,,,1,6.2388,,0,0,8,8,12,1,stimuli/stim_20210706_power2amp/equal_lnn_AM0.6Hz_s35_17.m4a,,,,,,,,,,,,
,,,,,41436,2021-09-25_02h48.08.182,judgeSpeechMusic_20210921_logNormShiftAmp_detection_fixS,2020.1.2,Win32,60,,,,,,,,,,,,,,,,,,,,,,,,,,,,,,1,6.0011,,0,0,9,9,35,1,stimuli/stim_20210706_power2amp/equal_lnn_AM2.4Hz_s35_5.m4a,,,,,,,,,,,,
,,,,,41436,2021-09-25_02h48.08.182,judgeSpeechMusic_20210921_logNormShiftAmp_detection_fixS,2020.1.2,Win32,60,,,,,,,,,,,,,,,,,,,,,,,,,,,,,,1,6.505,,0,0,10,10,8,1,stimuli/stim_20210706_power2amp/equal_lnn_AM0.6Hz_s35_37.m4a,,,,,,,,,,,,
,,,,,41436,2021-09-25_02h48.08.182,judgeSpeechMusic_20210921_logNormShiftAmp_detection_fixS,2020.1.2,Win32,60,,,,,,,,,,,,,,,,,,,,,,,,,,,,,,1,6.4003,,0,0,11,11,19,1,stimuli/stim_20210706_power2amp/equal_lnn_AM1.2Hz_s35_45.m4a,,,,,,,,,,,,
,,,,,41436,2021-09-25_02h48.08.182,judgeSpeechMusic_20210921_logNormShiftAmp_detection_fixS,2020.1.2,Win32,60,,,,,,,,,,,,,,,,,,,,,,,,,,,,,,1,6.1082,,0,0,12,12,3,1,stimuli/stim_20210706_power2amp/equal_lnn_AM0.6Hz_s35_5.m4a,,,,,,,,,,,,
,,,,,41436,2021-09-25_02h48.08.182,judgeSpeechMusic_20210921_logNormShiftAmp_detection_fixS,2020.1.2,Win32,60,,,,,,,,,,,,,,,,,,,,,,,,,,,,,,1,6.4027,,0,0,13,13,54,1,stimuli/stim_20210706_power2amp/equal_lnn_AM3.6Hz_s35_41.m4a,,,,,,,,,,,,
,,,,,41436,2021-09-25_02h48.08.182,judgeSpeechMusic_20210921_logNormShiftAmp_detection_fixS,2020.1.2,Win32,60,,,,,,,,,,,,,,,,,,,,,,,,,,,,,,1,6.2066,,0,0,14,14,61,1,stimuli/stim_20210706_power2amp/equal_lnn_AM4.2Hz_s35_43.m4a,,,,,,,,,,,,
,,,,,41436,2021-09-25_02h48.08.182,judgeSpeechMusic_20210921_logNormShiftAmp_detection_fixS,2020.1.2,Win32,60,,,,,,,,,,,,,,,,,,,,,,,,,,,,,,1,6.1851,,0,0,15,15,51,1,stimuli/stim_20210706_power2amp/equal_lnn_AM3.6Hz_s35_7.m4a,,,,,,,,,,,,
,,,,,41436,2021-09-25_02h48.08.182,judgeSpeechMusic_20210921_logNormShiftAmp_detection_fixS,2020.1.2,Win32,60,,,,,,,,,,,,,,,,,,,,,,,,,,,,,,1,6.1471,,0,0,16,16,64,1,stimuli/stim_20210706_power2amp/equal_lnn_AM4.2Hz_s35_46.m4a,,,,,,,,,,,,
,,,,,41436,2021-09-25_02h48.08.182,judgeSpeechMusic_20210921_logNormShiftAmp_detection_fixS,2020.1.2,Win32,60,,,,,,,,,,,,,,,,,,,,,,,,,,,,,,1,5.8876,,0,0,17,17,42,1,stimuli/stim_20210706_power2amp/equal_lnn_AM2.4Hz_s35_32.m4a,,,,,,,,,,,,
,,,,,41436,2021-09-25_02h48.08.182,judgeSpeechMusic_20210921_logNormShiftAmp_detection_fixS,2020.1.2,Win32,60,,,,,,,,,,,,,,,,,,,,,,,,,,,,,,1,6.1724,,0,0,18,18,31,1,stimuli/stim_20210706_power2amp/equal_lnn_AM2.4Hz_s35_24.m4a,,,,,,,,,,,,
,,,,,41436,2021-09-25_02h48.08.182,judgeSpeechMusic_20210921_logNormShiftAmp_detection_fixS,2020.1.2,Win32,60,,,,,,,,,,,,,,,,,,,,,,,,,,,,,,1,5.9347,2,1,0,19,19,55,1,stimuli/stim_20210706_power2amp/equal_lnn_AM3.6Hz_s35_15.m4a,1.5708,,,,,,,,,,,
,,,,,41436,2021-09-25_02h48.08.182,judgeSpeechMusic_20210921_logNormShiftAmp_detection_fixS,2020.1.2,Win32,60,,,,,,,,,,,,,,,,,,,,,,,,,,,,,,1,5.8934,,0,0,20,20,11,1,stimuli/stim_20210706_power2amp/equal_lnn_AM0.6Hz_s35_33.m4a,,,,,,,,,,,,
,,,,,41436,2021-09-25_02h48.08.182,judgeSpeechMusic_20210921_logNormShiftAmp_detection_fixS,2020.1.2,Win32,60,,,,,,,,,,,,,,,,,,,,,,,,,,,,,,1,6.0223,,0,0,21,21,56,1,stimuli/stim_20210706_power2amp/equal_lnn_AM3.6Hz_s35_8.m4a,,,,,,,,,,,,
,,,,,41436,2021-09-25_02h48.08.182,judgeSpeechMusic_20210921_logNormShiftAmp_detection_fixS,2020.1.2,Win32,60,,,,,,,,,,,,,,,,,,,,,,,,,,,,,,1,6.7342,,0,0,22,22,50,1,stimuli/stim_20210706_power2amp/equal_lnn_AM3.6Hz_s35_34.m4a,,,,,,,,,,,,
,,,,,41436,2021-09-25_02h48.08.182,judgeSpeechMusic_20210921_logNormShiftAmp_detection_fixS,2020.1.2,Win32,60,,,,,,,,,,,,,,,,,,,,,,,,,,,,,,2,6.8849,,0,0,23,23,70,1,stimuli/stim_20210706_power2amp/equal_lnn_AM4.2Hz_s35_41.m4a,,,,,,,,,,,,
,,,,,41436,2021-09-25_02h48.08.182,judgeSpeechMusic_20210921_logNormShiftAmp_detection_fixS,2020.1.2,Win32,60,,,,,,,,,,,,,,,,,,,,,,,,,,,,,,1,6.1476,,0,0,24,24,39,1,stimuli/stim_20210706_power2amp/equal_lnn_AM2.4Hz_s35_16.m4a,,,,,,,,,,,,
,,,,,41436,2021-09-25_02h48.08.182,judgeSpeechMusic_20210921_logNormShiftAmp_detection_fixS,2020.1.2,Win32,60,,,,,,,,,,,,,,,,,,,,,,,,,,,,,,1,6.0344,,0,0,25,25,17,1,stimuli/stim_20210706_power2amp/equal_lnn_AM1.2Hz_s35_43.m4a,,,,,,,,,,,,
,,,,,41436,2021-09-25_02h48.08.182,judgeSpeechMusic_20210921_logNormShiftAmp_detection_fixS,2020.1.2,Win32,60,,,,,,,,,,,,,,,,,,,,,,,,,,,,,,1,6.0181,,0,0,26,26,37,1,stimuli/stim_20210706_power2amp/equal_lnn_AM2.4Hz_s35_10.m4a,,,,,,,,,,,,
,,,,,41436,2021-09-25_02h48.08.182,judgeSpeechMusic_20210921_logNormShiftAmp_detection_fixS,2020.1.2,Win32,60,,,,,,,,,,,,,,,,,,,,,,,,,,,,,,1,5.78,,0,0,27,27,6,1,stimuli/stim_20210706_power2amp/equal_lnn_AM0.6Hz_s35_30.m4a,,,,,,,,,,,,
,,,,,41436,2021-09-25_02h48.08.182,judgeSpeechMusic_20210921_logNormShiftAmp_detection_fixS,2020.1.2,Win32,60,,,,,,,,,,,,,,,,,,,,,,,,,,,,,,1,5.7172,,0,0,28,28,26,1,stimuli/stim_20210706_power2amp/equal_lnn_AM1.2Hz_s35_30.m4a,,,,,,,,,,,,
,,,,,41436,2021-09-25_02h48.08.182,judgeSpeechMusic_20210921_logNormShiftAmp_detection_fixS,2020.1.2,Win32,60,,,,,,,,,,,,,,,,,,,,,,,,,,,,,,1,6.1101,,0,0,29,29,18,1,stimuli/stim_20210706_power2amp/equal_lnn_AM1.2Hz_s35_33.m4a,,,,,,,,,,,,
,,,,,41436,2021-09-25_02h48.08.182,judgeSpeechMusic_20210921_logNormShiftAmp_detection_fixS,2020.1.2,Win32,60,,,,,,,,,,,,,,,,,,,,,,,,,,,,,,1,6.2865,,0,0,30,30,46,1,stimuli/stim_20210706_power2amp/equal_lnn_AM3.6Hz_s35_40.m4a,,,,,,,,,,,,
,,,,,41436,2021-09-25_02h48.08.182,judgeSpeechMusic_20210921_logNormShiftAmp_detection_fixS,2020.1.2,Win32,60,,,,,,,,,,,,,,,,,,,,,,,,,,,,,,2,6.2205,,0,0,31,31,63,1,stimuli/stim_20210706_power2amp/equal_lnn_AM4.2Hz_s35_22.m4a,,,,,,,,,,,,
,,,,,41436,2021-09-25_02h48.08.182,judgeSpeechMusic_20210921_logNormShiftAmp_detection_fixS,2020.1.2,Win32,60,,,,,,,,,,,,,,,,,,,,,,,,,,,,,,1,5.6431,,0,0,32,32,57,1,stimuli/stim_20210706_power2amp/equal_lnn_AM3.6Hz_s35_42.m4a,,,,,,,,,,,,
,,,,,41436,2021-09-25_02h48.08.182,judgeSpeechMusic_20210921_logNormShiftAmp_detection_fixS,2020.1.2,Win32,60,,,,,,,,,,,,,,,,,,,,,,,,,,,,,,1,5.6345,,0,0,33,33,24,1,stimuli/stim_20210706_power2amp/equal_lnn_AM1.2Hz_s35_11.m4a,,,,,,,,,,,,
,,,,,41436,2021-09-25_02h48.08.182,judgeSpeechMusic_20210921_logNormShiftAmp_detection_fixS,2020.1.2,Win32,60,,,,,,,,,,,,,,,,,,,,,,,,,,,,,,1,5.6064,,0,0,34,34,23,1,stimuli/stim_20210706_power2amp/equal_lnn_AM1.2Hz_s35_25.m4a,,,,,,,,,,,,
,,,,,41436,2021-09-25_02h48.08.182,judgeSpeechMusic_20210921_logNormShiftAmp_detection_fixS,2020.1.2,Win32,60,,,,,,,,,,,,,,,,,,,,,,,,,,,,,,1,5.984,,0,0,35,35,52,1,stimuli/stim_20210706_power2amp/equal_lnn_AM3.6Hz_s35_24.m4a,,,,,,,,,,,,
,,,,,41436,2021-09-25_02h48.08.182,judgeSpeechMusic_20210921_logNormShiftAmp_detection_fixS,2020.1.2,Win32,60,,,,,,,,,,,,,,,,,,,,,,,,,,,,,,1,5.7706,,0,0,36,36,67,1,stimuli/stim_20210706_power2amp/equal_lnn_AM4.2Hz_s35_37.m4a,,,,,,,,,,,,
,,,,,41436,2021-09-25_02h48.08.182,judgeSpeechMusic_20210921_logNormShiftAmp_detection_fixS,2020.1.2,Win32,60,,,,,,,,,,,,,,,,,,,,,,,,,,,,,,1,6.7185,,0,0,37,37,30,1,stimuli/stim_20210706_power2amp/equal_lnn_AM2.4Hz_s35_9.m4a,,,,,,,,,,,,
,,,,,41436,2021-09-25_02h48.08.182,judgeSpeechMusic_20210921_logNormShiftAmp_detection_fixS,2020.1.2,Win32,60,,,,,,,,,,,,,,,,,,,,,,,,,,,,,,1,6.8168,2,1,0,38,38,20,1,stimuli/stim_20210706_power2amp/equal_lnn_AM1.2Hz_s35_19.m4a,1.4878,,,,,,,,,,,
,,,,,41436,2021-09-25_02h48.08.182,judgeSpeechMusic_20210921_logNormShiftAmp_detection_fixS,2020.1.2,Win32,60,,,,,,,,,,,,,,,,,,,,,,,,,,,,,,2,7.1375,,0,0,39,39,72,1,stimuli/stim_20210706_power2amp/equal_lnn_AM4.2Hz_s35_26.m4a,,,,,,,,,,,,
,,,,,41436,2021-09-25_02h48.08.182,judgeSpeechMusic_20210921_logNormShiftAmp_detection_fixS,2020.1.2,Win32,60,,,,,,,,,,,,,,,,,,,,,,,,,,,,,,1,8.4524,,0,0,40,40,9,1,stimuli/stim_20210706_power2amp/equal_lnn_AM0.6Hz_s35_19.m4a,,,,,,,,,,,,
,,,,,41436,2021-09-25_02h48.08.182,judgeSpeechMusic_20210921_logNormShiftAmp_detection_fixS,2020.1.2,Win32,60,,,,,,,,,,,,,,,,,,,,,,,,,,,,,,1,5.98,,0,0,41,41,22,1,stimuli/stim_20210706_power2amp/equal_lnn_AM1.2Hz_s35_46.m4a,,,,,,,,,,,,
,,,,,41436,2021-09-25_02h48.08.182,judgeSpeechMusic_20210921_logNormShiftAmp_detection_fixS,2020.1.2,Win32,60,,,,,,,,,,,,,,,,,,,,,,,,,,,,,,1,6.4034,,0,0,42,42,47,1,stimuli/stim_20210706_power2amp/equal_lnn_AM3.6Hz_s35_46.m4a,,,,,,,,,,,,
,,,,,41436,2021-09-25_02h48.08.182,judgeSpeechMusic_20210921_logNormShiftAmp_detection_fixS,2020.1.2,Win32,60,,,,,,,,,,,,,,,,,,,,,,,,,,,,,,1,6.0425,,0,0,43,43,27,1,stimuli/stim_20210706_power2amp/equal_lnn_AM1.2Hz_s35_23.m4a,,,,,,,,,,,,
,,,,,41436,2021-09-25_02h48.08.182,judgeSpeechMusic_20210921_logNormShiftAmp_detection_fixS,2020.1.2,Win32,60,,,,,,,,,,,,,,,,,,,,,,,,,,,,,,1,6.0183,,0,0,44,44,73,1,stimuli/stim_20210706_power2amp/equal_lnn_AM4.2Hz_s35_11.m4a,,,,,,,,,,,,
,,,,,41436,2021-09-25_02h48.08.182,judgeSpeechMusic_20210921_logNormShiftAmp_detection_fixS,2020.1.2,Win32,60,,,,,,,,,,,,,,,,,,,,,,,,,,,,,,1,5.9111,,0,0,45,45,40,1,stimuli/stim_20210706_power2amp/equal_lnn_AM2.4Hz_s35_25.m4a,,,,,,,,,,,,
,,,,,41436,2021-09-25_02h48.08.182,judgeSpeechMusic_20210921_logNormShiftAmp_detection_fixS,2020.1.2,Win32,60,,,,,,,,,,,,,,,,,,,,,,,,,,,,,,1,5.9712,,0,0,46,46,16,1,stimuli/stim_20210706_power2amp/equal_lnn_AM1.2Hz_s35_2.m4a,,,,,,,,,,,,
,,,,,41436,2021-09-25_02h48.08.182,judgeSpeechMusic_20210921_logNormShiftAmp_detection_fixS,2020.1.2,Win32,60,,,,,,,,,,,,,,,,,,,,,,,,,,,,,,1,6.2013,,0,0,47,47,49,1,stimuli/stim_20210706_power2amp/equal_lnn_AM3.6Hz_s35_32.m4a,,,,,,,,,,,,
,,,,,41436,2021-09-25_02h48.08.182,judgeSpeechMusic_20210921_logNormShiftAmp_detection_fixS,2020.1.2,Win32,60,,,,,,,,,,,,,,,,,,,,,,,,,,,,,,1,5.9346,,0,0,48,48,4,1,stimuli/stim_20210706_power2amp/equal_lnn_AM0.6Hz_s35_10.m4a,,,,,,,,,,,,
,,,,,41436,2021-09-25_02h48.08.182,judgeSpeechMusic_20210921_logNormShiftAmp_detection_fixS,2020.1.2,Win32,60,,,,,,,,,,,,,,,,,,,,,,,,,,,,,,1,6.268,,0,0,49,49,0,1,stimuli/stim_20210706_power2amp/equal_lnn_AM0.6Hz_s35_1.m4a,,,,,,,,,,,,
,,,,,41436,2021-09-25_02h48.08.182,judgeSpeechMusic_20210921_logNormShiftAmp_detection_fixS,2020.1.2,Win32,60,,,,,,,,,,,,,,,,,,,,,,,,,,,,,,1,6.0705,,0,0,50,50,1,1,stimuli/stim_20210706_power2amp/equal_lnn_AM0.6Hz_s35_24.m4a,,,,,,,,,,,,
,,,,,41436,2021-09-25_02h48.08.182,judgeSpeechMusic_20210921_logNormShiftAmp_detection_fixS,2020.1.2,Win32,60,,,,,,,,,,,,,,,,,,,,,,,,,,,,,,1,6.1673,,0,0,51,51,36,1,stimuli/stim_20210706_power2amp/equal_lnn_AM2.4Hz_s35_18.m4a,,,,,,,,,,,,
,,,,,41436,2021-09-25_02h48.08.182,judgeSpeechMusic_20210921_logNormShiftAmp_detection_fixS,2020.1.2,Win32,60,,,,,,,,,,,,,,,,,,,,,,,,,,,,,,1,6.1701,,0,0,52,52,15,1,stimuli/stim_20210706_power2amp/equal_lnn_AM1.2Hz_s35_18.m4a,,,,,,,,,,,,
,,,,,41436,2021-09-25_02h48.08.182,judgeSpeechMusic_20210921_logNormShiftAmp_detection_fixS,2020.1.2,Win32,60,,,,,,,,,,,,,,,,,,,,,,,,,,,,,,1,7.3351,,0,0,53,53,14,1,stimuli/stim_20210706_power2amp/equal_lnn_AM0.6Hz_s35_34.m4a,,,,,,,,,,,,
,,,,,41436,2021-09-25_02h48.08.182,judgeSpeechMusic_20210921_logNormShiftAmp_detection_fixS,2020.1.2,Win32,60,,,,,,,,,,,,,,,,,,,,,,,,,,,,,,1,6.0425,,0,0,54,54,29,1,stimuli/stim_20210706_power2amp/equal_lnn_AM1.2Hz_s35_8.m4a,,,,,,,,,,,,
,,,,,41436,2021-09-25_02h48.08.182,judgeSpeechMusic_20210921_logNormShiftAmp_detection_fixS,2020.1.2,Win32,60,,,,,,,,,,,,,,,,,,,,,,,,,,,,,,2,6.9358,,0,0,55,55,53,1,stimuli/stim_20210706_power2amp/equal_lnn_AM3.6Hz_s35_39.m4a,,,,,,,,,,,,
,,,,,41436,2021-09-25_02h48.08.182,judgeSpeechMusic_20210921_logNormShiftAmp_detection_fixS,2020.1.2,Win32,60,,,,,,,,,,,,,,,,,,,,,,,,,,,,,,2,6.461,,0,0,56,56,34,1,stimuli/stim_20210706_power2amp/equal_lnn_AM2.4Hz_s35_45.m4a,,,,,,,,,,,,
,,,,,41436,2021-09-25_02h48.08.182,judgeSpeechMusic_20210921_logNormShiftAmp_detection_fixS,2020.1.2,Win32,60,,,,,,,,,,,,,,,,,,,,,,,,,,,,,,2,6.0517,4,1,0,57,57,38,1,stimuli/stim_20210706_power2amp/equal_lnn_AM2.4Hz_s35_42.m4a,1.7417,,,,,,,,,,,
,,,,,41436,2021-09-25_02h48.08.182,judgeSpeechMusic_20210921_logNormShiftAmp_detection_fixS,2020.1.2,Win32,60,,,,,,,,,,,,,,,,,,,,,,,,,,,,,,1,7.3593,,0,0,58,58,62,1,stimuli/stim_20210706_power2amp/equal_lnn_AM4.2Hz_s35_9.m4a,,,,,,,,,,,,
,,,,,41436,2021-09-25_02h48.08.182,judgeSpeechMusic_20210921_logNormShiftAmp_detection_fixS,2020.1.2,Win32,60,,,,,,,,,,,,,,,,,,,,,,,,,,,,,,1,5.9296,,0,0,59,59,7,1,stimuli/stim_20210706_power2amp/equal_lnn_AM0.6Hz_s35_20.m4a,,,,,,,,,,,,
,,,,,41436,2021-09-25_02h48.08.182,judgeSpeechMusic_20210921_logNormShiftAmp_detection_fixS,2020.1.2,Win32,60,,,,,,,,,,,,,,,,,,,,,,,,,,,,,,1,8.0675,,0,0,60,60,5,1,stimuli/stim_20210706_power2amp/equal_lnn_AM0.6Hz_s35_6.m4a,,,,,,,,,,,,
,,,,,41436,2021-09-25_02h48.08.182,judgeSpeechMusic_20210921_logNormShiftAmp_detection_fixS,2020.1.2,Win32,60,,,,,,,,,,,,,,,,,,,,,,,,,,,,,,1,6.3038,,0,0,61,61,48,1,stimuli/stim_20210706_power2amp/equal_lnn_AM3.6Hz_s35_13.m4a,,,,,,,,,,,,
,,,,,41436,2021-09-25_02h48.08.182,judgeSpeechMusic_20210921_logNormShiftAmp_detection_fixS,2020.1.2,Win32,60,,,,,,,,,,,,,,,,,,,,,,,,,,,,,,1,6.6183,,0,0,62,62,69,1,stimuli/stim_20210706_power2amp/equal_lnn_AM4.2Hz_s35_13.m4a,,,,,,,,,,,,
,,,,,41436,2021-09-25_02h48.08.182,judgeSpeechMusic_20210921_logNormShiftAmp_detection_fixS,2020.1.2,Win32,60,,,,,,,,,,,,,,,,,,,,,,,,,,,,,,1,6.6624,,0,0,63,63,68,1,stimuli/stim_20210706_power2amp/equal_lnn_AM4.2Hz_s35_14.m4a,,,,,,,,,,,,
,,,,,41436,2021-09-25_02h48.08.182,judgeSpeechMusic_20210921_logNormShiftAmp_detection_fixS,2020.1.2,Win32,60,,,,,,,,,,,,,,,,,,,,,,,,,,,,,,1,6.7217,,0,0,64,64,43,1,stimuli/stim_20210706_power2amp/equal_lnn_AM2.4Hz_s35_36.m4a,,,,,,,,,,,,
,,,,,41436,2021-09-25_02h48.08.182,judgeSpeechMusic_20210921_logNormShiftAmp_detection_fixS,2020.1.2,Win32,60,,,,,,,,,,,,,,,,,,,,,,,,,,,,,,1,6.852,,0,0,65,65,41,1,stimuli/stim_20210706_power2amp/equal_lnn_AM2.4Hz_s35_17.m4a,,,,,,,,,,,,
,,,,,41436,2021-09-25_02h48.08.182,judgeSpeechMusic_20210921_logNormShiftAmp_detection_fixS,2020.1.2,Win32,60,,,,,,,,,,,,,,,,,,,,,,,,,,,,,,1,6.7581,,0,0,66,66,33,1,stimuli/stim_20210706_power2amp/equal_lnn_AM2.4Hz_s35_27.m4a,,,,,,,,,,,,
,,,,,41436,2021-09-25_02h48.08.182,judgeSpeechMusic_20210921_logNormShiftAmp_detection_fixS,2020.1.2,Win32,60,,,,,,,,,,,,,,,,,,,,,,,,,,,,,,1,6.535,,0,0,67,67,45,1,stimuli/stim_20210706_power2amp/equal_lnn_AM3.6Hz_s35_5.m4a,,,,,,,,,,,,
,,,,,41436,2021-09-25_02h48.08.182,judgeSpeechMusic_20210921_logNormShiftAmp_detection_fixS,2020.1.2,Win32,60,,,,,,,,,,,,,,,,,,,,,,,,,,,,,,1,6.5274,,0,0,68,68,21,1,stimuli/stim_20210706_power2amp/equal_lnn_AM1.2Hz_s35_26.m4a,,,,,,,,,,,,
,,,,,41436,2021-09-25_02h48.08.182,judgeSpeechMusic_20210921_logNormShiftAmp_detection_fixS,2020.1.2,Win32,60,,,,,,,,,,,,,,,,,,,,,,,,,,,,,,1,6.1079,,0,0,69,69,25,1,stimuli/stim_20210706_power2amp/equal_lnn_AM1.2Hz_s35_7.m4a,,,,,,,,,,,,
,,,,,41436,2021-09-25_02h48.08.182,judgeSpeechMusic_20210921_logNormShiftAmp_detection_fixS,2020.1.2,Win32,60,,,,,,,,,,,,,,,,,,,,,,,,,,,,,,1,6.7854,,0,0,70,70,32,1,stimuli/stim_20210706_power2amp/equal_lnn_AM2.4Hz_s35_47.m4a,,,,,,,,,,,,
,,,,,41436,2021-09-25_02h48.08.182,judgeSpeechMusic_20210921_logNormShiftAmp_detection_fixS,2020.1.2,Win32,60,,,,,,,,,,,,,,,,,,,,,,,,,,,,,,1,6.2966,,0,0,71,71,2,1,stimuli/stim_20210706_power2amp/equal_lnn_AM0.6Hz_s35_48.m4a,,,,,,,,,,,,
,,,,,41436,2021-09-25_02h48.08.182,judgeSpeechMusic_20210921_logNormShiftAmp_detection_fixS,2020.1.2,Win32,60,,,,,,,,,,,,,,,,,,,,,,,,,,,,,,1,6.2041,,0,0,72,72,60,1,stimuli/stim_20210706_power2amp/equal_lnn_AM4.2Hz_s35_20.m4a,,,,,,,,,,,,
,,,,,41436,2021-09-25_02h48.08.182,judgeSpeechMusic_20210921_logNormShiftAmp_detection_fixS,2020.1.2,Win32,60,,,,,,,,,,,,,,,,,,,,,,,,,,,,,,1,6.3075,,0,0,73,73,44,1,stimuli/stim_20210706_power2amp/equal_lnn_AM2.4Hz_s35_39.m4a,,,,,,,,,,,,
,,,,,41436,2021-09-25_02h48.08.182,judgeSpeechMusic_20210921_logNormShiftAmp_detection_fixS,2020.1.2,Win32,60,,,,,,,,,,,,,,,,,,,,,,,,,,,,,,1,8.4684,,0,0,74,74,28,1,stimuli/stim_20210706_power2amp/equal_lnn_AM1.2Hz_s35_34.m4a,,,,,,,,,,,,
,,,,,41436,2021-09-25_02h48.08.182,judgeSpeechMusic_20210921_logNormShiftAmp_detection_fixS,2020.1.2,Win32,60,,,,,,,,,,,,,,,,,,,,,,,,,,,,,,,,,,,,,,,,,space,3.7699,0,0,0,0,1,MUSIC,stimuli/MUSIC.jpg,,
,,,,,41436,2021-09-25_02h48.08.182,judgeSpeechMusic_20210921_logNormShiftAmp_detection_fixS,2020.1.2,Win32,60,,,,,,,,,,,,,space,0.9042,1,8.059,,0,0,0,0,3,1,stimuli/stim_20210706_power2amp/equal_lnn_AM_training3.9Hz_s35.m4a,,,,,,,,,,,,,,,,,,,,,,,,,,,
,,,,,41436,2021-09-25_02h48.08.182,judgeSpeechMusic_20210921_logNormShiftAmp_detection_fixS,2020.1.2,Win32,60,,,,,,,,,,,,,,,2,7.4173,,0,0,1,1,1,1,stimuli/stim_20210706_power2amp/equal_lnn_AM_training1.8Hz_s35.m4a,,,,,,,,,,,,,,,,,,,,,,,,,,,
,,,,,41436,2021-09-25_02h48.08.182,judgeSpeechMusic_20210921_logNormShiftAmp_detection_fixS,2020.1.2,Win32,60,,,,,,,,,,,,,,,1,7.3117,4,1,0,2,2,2,1,stimuli/stim_20210706_power2amp/equal_lnn_AM_training3Hz_s35.m4a,1.3214,,,,,,,,,,,,,,,,,,,,,,,,,,
,,,,,41436,2021-09-25_02h48.08.182,judgeSpeechMusic_20210921_logNormShiftAmp_detection_fixS,2020.1.2,Win32,60,,,,,,,,,,,,,,,1,6.9052,,0,0,3,3,0,1,stimuli/stim_20210706_power2amp/equal_lnn_AM_training0.9Hz_s35.m4a,,,,,,,,,,,,,,,,,,,,,,,,,,,
,,,,,41436,2021-09-25_02h48.08.182,judgeSpeechMusic_20210921_logNormShiftAmp_detection_fixS,2020.1.2,Win32,60,,,,,,,,,,,,,,,,,,,,,,,,,,space,5.1345,space,0.7085,1,6.4969,,0,0,0,0,54,1,stimuli/stim_20210706_power2amp/equal_lnn_AM3.6Hz_s35_41.m4a,,,,,,,,,,,,
,,,,,41436,2021-09-25_02h48.08.182,judgeSpeechMusic_20210921_logNormShiftAmp_detection_fixS,2020.1.2,Win32,60,,,,,,,,,,,,,,,,,,,,,,,,,,,,,,1,7.1354,,0,0,1,1,69,1,stimuli/stim_20210706_power2amp/equal_lnn_AM4.2Hz_s35_13.m4a,,,,,,,,,,,,
,,,,,41436,2021-09-25_02h48.08.182,judgeSpeechMusic_20210921_logNormShiftAmp_detection_fixS,2020.1.2,Win32,60,,,,,,,,,,,,,,,,,,,,,,,,,,,,,,1,8.3024,,0,0,2,2,58,1,stimuli/stim_20210706_power2amp/equal_lnn_AM3.6Hz_s35_50.m4a,,,,,,,,,,,,
,,,,,41436,2021-09-25_02h48.08.182,judgeSpeechMusic_20210921_logNormShiftAmp_detection_fixS,2020.1.2,Win32,60,,,,,,,,,,,,,,,,,,,,,,,,,,,,,,1,7.2897,,0,0,3,3,7,1,stimuli/stim_20210706_power2amp/equal_lnn_AM0.6Hz_s35_20.m4a,,,,,,,,,,,,
,,,,,41436,2021-09-25_02h48.08.182,judgeSpeechMusic_20210921_logNormShiftAmp_detection_fixS,2020.1.2,Win32,60,,,,,,,,,,,,,,,,,,,,,,,,,,,,,,2,6.7687,,0,0,4,4,15,1,stimuli/stim_20210706_power2amp/equal_lnn_AM1.2Hz_s35_18.m4a,,,,,,,,,,,,
,,,,,41436,2021-09-25_02h48.08.182,judgeSpeechMusic_20210921_logNormShiftAmp_detection_fixS,2020.1.2,Win32,60,,,,,,,,,,,,,,,,,,,,,,,,,,,,,,2,6.508,,0,0,5,5,42,1,stimuli/stim_20210706_power2amp/equal_lnn_AM2.4Hz_s35_32.m4a,,,,,,,,,,,,
,,,,,41436,2021-09-25_02h48.08.182,judgeSpeechMusic_20210921_logNormShiftAmp_detection_fixS,2020.1.2,Win32,60,,,,,,,,,,,,,,,,,,,,,,,,,,,,,,1,6.6026,,0,0,6,6,12,1,stimuli/stim_20210706_power2amp/equal_lnn_AM0.6Hz_s35_17.m4a,,,,,,,,,,,,
,,,,,41436,2021-09-25_02h48.08.182,judgeSpeechMusic_20210921_logNormShiftAmp_detection_fixS,2020.1.2,Win32,60,,,,,,,,,,,,,,,,,,,,,,,,,,,,,,1,11.3517,,0,0,7,7,28,1,stimuli/stim_20210706_power2amp/equal_lnn_AM1.2Hz_s35_34.m4a,,,,,,,,,,,,
,,,,,41436,2021-09-25_02h48.08.182,judgeSpeechMusic_20210921_logNormShiftAmp_detection_fixS,2020.1.2,Win32,60,,,,,,,,,,,,,,,,,,,,,,,,,,,,,,2,7.7192,,0,0,8,8,39,1,stimuli/stim_20210706_power2amp/equal_lnn_AM2.4Hz_s35_16.m4a,,,,,,,,,,,,
,,,,,41436,2021-09-25_02h48.08.182,judgeSpeechMusic_20210921_logNormShiftAmp_detection_fixS,2020.1.2,Win32,60,,,,,,,,,,,,,,,,,,,,,,,,,,,,,,2,7.0289,,0,0,9,9,45,1,stimuli/stim_20210706_power2amp/equal_lnn_AM3.6Hz_s35_5.m4a,,,,,,,,,,,,
,,,,,41436,2021-09-25_02h48.08.182,judgeSpeechMusic_20210921_logNormShiftAmp_detection_fixS,2020.1.2,Win32,60,,,,,,,,,,,,,,,,,,,,,,,,,,,,,,2,6.7321,,0,0,10,10,40,1,stimuli/stim_20210706_power2amp/equal_lnn_AM2.4Hz_s35_25.m4a,,,,,,,,,,,,
,,,,,41436,2021-09-25_02h48.08.182,judgeSpeechMusic_20210921_logNormShiftAmp_detection_fixS,2020.1.2,Win32,60,,,,,,,,,,,,,,,,,,,,,,,,,,,,,,2,8.1464,,0,0,11,11,22,1,stimuli/stim_20210706_power2amp/equal_lnn_AM1.2Hz_s35_46.m4a,,,,,,,,,,,,
,,,,,41436,2021-09-25_02h48.08.182,judgeSpeechMusic_20210921_logNormShiftAmp_detection_fixS,2020.1.2,Win32,60,,,,,,,,,,,,,,,,,,,,,,,,,,,,,,2,6.5877,,0,0,12,12,53,1,stimuli/stim_20210706_power2amp/equal_lnn_AM3.6Hz_s35_39.m4a,,,,,,,,,,,,
,,,,,41436,2021-09-25_02h48.08.182,judgeSpeechMusic_20210921_logNormShiftAmp_detection_fixS,2020.1.2,Win32,60,,,,,,,,,,,,,,,,,,,,,,,,,,,,,,1,6.4854,,0,0,13,13,73,1,stimuli/stim_20210706_power2amp/equal_lnn_AM4.2Hz_s35_11.m4a,,,,,,,,,,,,
,,,,,41436,2021-09-25_02h48.08.182,judgeSpeechMusic_20210921_logNormShiftAmp_detection_fixS,2020.1.2,Win32,60,,,,,,,,,,,,,,,,,,,,,,,,,,,,,,1,6.1475,,0,0,14,14,0,1,stimuli/stim_20210706_power2amp/equal_lnn_AM0.6Hz_s35_1.m4a,,,,,,,,,,,,
,,,,,41436,2021-09-25_02h48.08.182,judgeSpeechMusic_20210921_logNormShiftAmp_detection_fixS,2020.1.2,Win32,60,,,,,,,,,,,,,,,,,,,,,,,,,,,,,,2,7.2444,,0,0,15,15,65,1,stimuli/stim_20210706_power2amp/equal_lnn_AM4.2Hz_s35_17.m4a,,,,,,,,,,,,
,,,,,41436,2021-09-25_02h48.08.182,judgeSpeechMusic_20210921_logNormShiftAmp_detection_fixS,2020.1.2,Win32,60,,,,,,,,,,,,,,,,,,,,,,,,,,,,,,2,6.9304,,0,0,16,16,41,1,stimuli/stim_20210706_power2amp/equal_lnn_AM2.4Hz_s35_17.m4a,,,,,,,,,,,,
,,,,,41436,2021-09-25_02h48.08.182,judgeSpeechMusic_20210921_logNormShiftAmp_detection_fixS,2020.1.2,Win32,60,,,,,,,,,,,,,,,,,,,,,,,,,,,,,,1,6.6969,,0,0,17,17,16,1,stimuli/stim_20210706_power2amp/equal_lnn_AM1.2Hz_s35_2.m4a,,,,,,,,,,,,
,,,,,41436,2021-09-25_02h48.08.182,judgeSpeechMusic_20210921_logNormShiftAmp_detection_fixS,2020.1.2,Win32,60,,,,,,,,,,,,,,,,,,,,,,,,,,,,,,2,7.8976,,0,0,18,18,32,1,stimuli/stim_20210706_power2amp/equal_lnn_AM2.4Hz_s35_47.m4a,,,,,,,,,,,,
,,,,,41436,2021-09-25_02h48.08.182,judgeSpeechMusic_20210921_logNormShiftAmp_detection_fixS,2020.1.2,Win32,60,,,,,,,,,,,,,,,,,,,,,,,,,,,,,,2,8.5298,1,1,0,19,19,1,1,stimuli/stim_20210706_power2amp/equal_lnn_AM0.6Hz_s35_24.m4a,1.534,,,,,,,,,,,
,,,,,41436,2021-09-25_02h48.08.182,judgeSpeechMusic_20210921_logNormShiftAmp_detection_fixS,2020.1.2,Win32,60,,,,,,,,,,,,,,,,,,,,,,,,,,,,,,2,6.5977,,0,0,20,20,44,1,stimuli/stim_20210706_power2amp/equal_lnn_AM2.4Hz_s35_39.m4a,,,,,,,,,,,,
,,,,,41436,2021-09-25_02h48.08.182,judgeSpeechMusic_20210921_logNormShiftAmp_detection_fixS,2020.1.2,Win32,60,,,,,,,,,,,,,,,,,,,,,,,,,,,,,,2,7.1975,,0,0,21,21,21,1,stimuli/stim_20210706_power2amp/equal_lnn_AM1.2Hz_s35_26.m4a,,,,,,,,,,,,
,,,,,41436,2021-09-25_02h48.08.182,judgeSpeechMusic_20210921_logNormShiftAmp_detection_fixS,2020.1.2,Win32,60,,,,,,,,,,,,,,,,,,,,,,,,,,,,,,2,7.23,,0,0,22,22,20,1,stimuli/stim_20210706_power2amp/equal_lnn_AM1.2Hz_s35_19.m4a,,,,,,,,,,,,
,,,,,41436,2021-09-25_02h48.08.182,judgeSpeechMusic_20210921_logNormShiftAmp_detection_fixS,2020.1.2,Win32,60,,,,,,,,,,,,,,,,,,,,,,,,,,,,,,2,6.7305,,0,0,23,23,38,1,stimuli/stim_20210706_power2amp/equal_lnn_AM2.4Hz_s35_42.m4a,,,,,,,,,,,,
,,,,,41436,2021-09-25_02h48.08.182,judgeSpeechMusic_20210921_logNormShiftAmp_detection_fixS,2020.1.2,Win32,60,,,,,,,,,,,,,,,,,,,,,,,,,,,,,,1,6.1303,,0,0,24,24,14,1,stimuli/stim_20210706_power2amp/equal_lnn_AM0.6Hz_s35_34.m4a,,,,,,,,,,,,
,,,,,41436,2021-09-25_02h48.08.182,judgeSpeechMusic_20210921_logNormShiftAmp_detection_fixS,2020.1.2,Win32,60,,,,,,,,,,,,,,,,,,,,,,,,,,,,,,2,6.6977,,0,0,25,25,48,1,stimuli/stim_20210706_power2amp/equal_lnn_AM3.6Hz_s35_13.m4a,,,,,,,,,,,,
,,,,,41436,2021-09-25_02h48.08.182,judgeSpeechMusic_20210921_logNormShiftAmp_detection_fixS,2020.1.2,Win32,60,,,,,,,,,,,,,,,,,,,,,,,,,,,,,,1,7.4142,,0,0,26,26,74,1,stimuli/stim_20210706_power2amp/equal_lnn_AM4.2Hz_s35_24.m4a,,,,,,,,,,,,
,,,,,41436,2021-09-25_02h48.08.182,judgeSpeechMusic_20210921_logNormShiftAmp_detection_fixS,2020.1.2,Win32,60,,,,,,,,,,,,,,,,,,,,,,,,,,,,,,1,6.6797,,0,0,27,27,11,1,stimuli/stim_20210706_power2amp/equal_lnn_AM0.6Hz_s35_33.m4a,,,,,,,,,,,,
,,,,,41436,2021-09-25_02h48.08.182,judgeSpeechMusic_20210921_logNormShiftAmp_detection_fixS,2020.1.2,Win32,60,,,,,,,,,,,,,,,,,,,,,,,,,,,,,,2,6.8473,,0,0,28,28,66,1,stimuli/stim_20210706_power2amp/equal_lnn_AM4.2Hz_s35_34.m4a,,,,,,,,,,,,
,,,,,41436,2021-09-25_02h48.08.182,judgeSpeechMusic_20210921_logNormShiftAmp_detection_fixS,2020.1.2,Win32,60,,,,,,,,,,,,,,,,,,,,,,,,,,,,,,1,6.715,,0,0,29,29,4,1,stimuli/stim_20210706_power2amp/equal_lnn_AM0.6Hz_s35_10.m4a,,,,,,,,,,,,
,,,,,41436,2021-09-25_02h48.08.182,judgeSpeechMusic_20210921_logNormShiftAmp_detection_fixS,2020.1.2,Win32,60,,,,,,,,,,,,,,,,,,,,,,,,,,,,,,2,7.2811,,0,0,30,30,51,1,stimuli/stim_20210706_power2amp/equal_lnn_AM3.6Hz_s35_7.m4a,,,,,,,,,,,,
,,,,,41436,2021-09-25_02h48.08.182,judgeSpeechMusic_20210921_logNormShiftAmp_detection_fixS,2020.1.2,Win32,60,,,,,,,,,,,,,,,,,,,,,,,,,,,,,,2,8.0822,,0,0,31,31,23,1,stimuli/stim_20210706_power2amp/equal_lnn_AM1.2Hz_s35_25.m4a,,,,,,,,,,,,
,,,,,41436,2021-09-25_02h48.08.182,judgeSpeechMusic_20210921_logNormShiftAmp_detection_fixS,2020.1.2,Win32,60,,,,,,,,,,,,,,,,,,,,,,,,,,,,,,2,7.38,,0,0,32,32,37,1,stimuli/stim_20210706_power2amp/equal_lnn_AM2.4Hz_s35_10.m4a,,,,,,,,,,,,
,,,,,41436,2021-09-25_02h48.08.182,judgeSpeechMusic_20210921_logNormShiftAmp_detection_fixS,2020.1.2,Win32,60,,,,,,,,,,,,,,,,,,,,,,,,,,,,,,2,7.7138,,0,0,33,33,31,1,stimuli/stim_20210706_power2amp/equal_lnn_AM2.4Hz_s35_24.m4a,,,,,,,,,,,,
,,,,,41436,2021-09-25_02h48.08.182,judgeSpeechMusic_20210921_logNormShiftAmp_detection_fixS,2020.1.2,Win32,60,,,,,,,,,,,,,,,,,,,,,,,,,,,,,,2,17.4803,,0,0,34,34,33,1,stimuli/stim_20210706_power2amp/equal_lnn_AM2.4Hz_s35_27.m4a,,,,,,,,,,,,
,,,,,41436,2021-09-25_02h48.08.182,judgeSpeechMusic_20210921_logNormShiftAmp_detection_fixS,2020.1.2,Win32,60,,,,,,,,,,,,,,,,,,,,,,,,,,,,,,1,6.4641,,0,0,35,35,24,1,stimuli/stim_20210706_power2amp/equal_lnn_AM1.2Hz_s35_11.m4a,,,,,,,,,,,,
,,,,,41436,2021-09-25_02h48.08.182,judgeSpeechMusic_20210921_logNormShiftAmp_detection_fixS,2020.1.2,Win32,60,,,,,,,,,,,,,,,,,,,,,,,,,,,,,,1,6.2971,,0,0,36,36,61,1,stimuli/stim_20210706_power2amp/equal_lnn_AM4.2Hz_s35_43.m4a,,,,,,,,,,,,
,,,,,41436,2021-09-25_02h48.08.182,judgeSpeechMusic_20210921_logNormShiftAmp_detection_fixS,2020.1.2,Win32,60,,,,,,,,,,,,,,,,,,,,,,,,,,,,,,2,6.714,,0,0,37,37,55,1,stimuli/stim_20210706_power2amp/equal_lnn_AM3.6Hz_s35_15.m4a,,,,,,,,,,,,
,,,,,41436,2021-09-25_02h48.08.182,judgeSpeechMusic_20210921_logNormShiftAmp_detection_fixS,2020.1.2,Win32,60,,,,,,,,,,,,,,,,,,,,,,,,,,,,,,1,7.2141,2,1,0,38,38,13,1,stimuli/stim_20210706_power2amp/equal_lnn_AM0.6Hz_s35_50.m4a,1.584,,,,,,,,,,,
,,,,,41436,2021-09-25_02h48.08.182,judgeSpeechMusic_20210921_logNormShiftAmp_detection_fixS,2020.1.2,Win32,60,,,,,,,,,,,,,,,,,,,,,,,,,,,,,,1,9.5308,,0,0,39,39,17,1,stimuli/stim_20210706_power2amp/equal_lnn_AM1.2Hz_s35_43.m4a,,,,,,,,,,,,
,,,,,41436,2021-09-25_02h48.08.182,judgeSpeechMusic_20210921_logNormShiftAmp_detection_fixS,2020.1.2,Win32,60,,,,,,,,,,,,,,,,,,,,,,,,,,,,,,1,7.8824,,0,0,40,40,62,1,stimuli/stim_20210706_power2amp/equal_lnn_AM4.2Hz_s35_9.m4a,,,,,,,,,,,,
,,,,,41436,2021-09-25_02h48.08.182,judgeSpeechMusic_20210921_logNormShiftAmp_detection_fixS,2020.1.2,Win32,60,,,,,,,,,,,,,,,,,,,,,,,,,,,,,,2,6.6134,,0,0,41,41,43,1,stimuli/stim_20210706_power2amp/equal_lnn_AM2.4Hz_s35_36.m4a,,,,,,,,,,,,
,,,,,41436,2021-09-25_02h48.08.182,judgeSpeechMusic_20210921_logNormShiftAmp_detection_fixS,2020.1.2,Win32,60,,,,,,,,,,,,,,,,,,,,,,,,,,,,,,2,6.1981,,0,0,42,42,59,1,stimuli/stim_20210706_power2amp/equal_lnn_AM3.6Hz_s35_21.m4a,,,,,,,,,,,,
,,,,,41436,2021-09-25_02h48.08.182,judgeSpeechMusic_20210921_logNormShiftAmp_detection_fixS,2020.1.2,Win32,60,,,,,,,,,,,,,,,,,,,,,,,,,,,,,,1,6.9474,,0,0,43,43,10,1,stimuli/stim_20210706_power2amp/equal_lnn_AM0.6Hz_s35_3.m4a,,,,,,,,,,,,
,,,,,41436,2021-09-25_02h48.08.182,judgeSpeechMusic_20210921_logNormShiftAmp_detection_fixS,2020.1.2,Win32,60,,,,,,,,,,,,,,,,,,,,,,,,,,,,,,2,10.4475,,0,0,44,44,57,1,stimuli/stim_20210706_power2amp/equal_lnn_AM3.6Hz_s35_42.m4a,,,,,,,,,,,,
,,,,,41436,2021-09-25_02h48.08.182,judgeSpeechMusic_20210921_logNormShiftAmp_detection_fixS,2020.1.2,Win32,60,,,,,,,,,,,,,,,,,,,,,,,,,,,,,,1,6.13,,0,0,45,45,18,1,stimuli/stim_20210706_power2amp/equal_lnn_AM1.2Hz_s35_33.m4a,,,,,,,,,,,,
,,,,,41436,2021-09-25_02h48.08.182,judgeSpeechMusic_20210921_logNormShiftAmp_detection_fixS,2020.1.2,Win32,60,,,,,,,,,,,,,,,,,,,,,,,,,,,,,,1,8.097,,0,0,46,46,25,1,stimuli/stim_20210706_power2amp/equal_lnn_AM1.2Hz_s35_7.m4a,,,,,,,,,,,,
,,,,,41436,2021-09-25_02h48.08.182,judgeSpeechMusic_20210921_logNormShiftAmp_detection_fixS,2020.1.2,Win32,60,,,,,,,,,,,,,,,,,,,,,,,,,,,,,,1,9.597,,0,0,47,47,19,1,stimuli/stim_20210706_power2amp/equal_lnn_AM1.2Hz_s35_45.m4a,,,,,,,,,,,,
,,,,,41436,2021-09-25_02h48.08.182,judgeSpeechMusic_20210921_logNormShiftAmp_detection_fixS,2020.1.2,Win32,60,,,,,,,,,,,,,,,,,,,,,,,,,,,,,,2,7.5307,,0,0,48,48,68,1,stimuli/stim_20210706_power2amp/equal_lnn_AM4.2Hz_s35_14.m4a,,,,,,,,,,,,
,,,,,41436,2021-09-25_02h48.08.182,judgeSpeechMusic_20210921_logNormShiftAmp_detection_fixS,2020.1.2,Win32,60,,,,,,,,,,,,,,,,,,,,,,,,,,,,,,2,7.1135,,0,0,49,49,71,1,stimuli/stim_20210706_power2amp/equal_lnn_AM4.2Hz_s35_45.m4a,,,,,,,,,,,,
,,,,,41436,2021-09-25_02h48.08.182,judgeSpeechMusic_20210921_logNormShiftAmp_detection_fixS,2020.1.2,Win32,60,,,,,,,,,,,,,,,,,,,,,,,,,,,,,,1,7.0654,,0,0,50,50,64,1,stimuli/stim_20210706_power2amp/equal_lnn_AM4.2Hz_s35_46.m4a,,,,,,,,,,,,
,,,,,41436,2021-09-25_02h48.08.182,judgeSpeechMusic_20210921_logNormShiftAmp_detection_fixS,2020.1.2,Win32,60,,,,,,,,,,,,,,,,,,,,,,,,,,,,,,2,8.3483,,0,0,51,51,49,1,stimuli/stim_20210706_power2amp/equal_lnn_AM3.6Hz_s35_32.m4a,,,,,,,,,,,,
,,,,,41436,2021-09-25_02h48.08.182,judgeSpeechMusic_20210921_logNormShiftAmp_detection_fixS,2020.1.2,Win32,60,,,,,,,,,,,,,,,,,,,,,,,,,,,,,,1,7.0462,,0,0,52,52,2,1,stimuli/stim_20210706_power2amp/equal_lnn_AM0.6Hz_s35_48.m4a,,,,,,,,,,,,
,,,,,41436,2021-09-25_02h48.08.182,judgeSpeechMusic_20210921_logNormShiftAmp_detection_fixS,2020.1.2,Win32,60,,,,,,,,,,,,,,,,,,,,,,,,,,,,,,2,12.9142,,0,0,53,53,29,1,stimuli/stim_20210706_power2amp/equal_lnn_AM1.2Hz_s35_8.m4a,,,,,,,,,,,,
,,,,,41436,2021-09-25_02h48.08.182,judgeSpeechMusic_20210921_logNormShiftAmp_detection_fixS,2020.1.2,Win32,60,,,,,,,,,,,,,,,,,,,,,,,,,,,,,,2,7.8144,,0,0,54,54,50,1,stimuli/stim_20210706_power2amp/equal_lnn_AM3.6Hz_s35_34.m4a,,,,,,,,,,,,
,,,,,41436,2021-09-25_02h48.08.182,judgeSpeechMusic_20210921_logNormShiftAmp_detection_fixS,2020.1.2,Win32,60,,,,,,,,,,,,,,,,,,,,,,,,,,,,,,2,6.2647,,0,0,55,55,67,1,stimuli/stim_20210706_power2amp/equal_lnn_AM4.2Hz_s35_37.m4a,,,,,,,,,,,,
,,,,,41436,2021-09-25_02h48.08.182,judgeSpeechMusic_20210921_logNormShiftAmp_detection_fixS,2020.1.2,Win32,60,,,,,,,,,,,,,,,,,,,,,,,,,,,,,,1,7.4639,,0,0,56,56,35,1,stimuli/stim_20210706_power2amp/equal_lnn_AM2.4Hz_s35_5.m4a,,,,,,,,,,,,
,,,,,41436,2021-09-25_02h48.08.182,judgeSpeechMusic_20210921_logNormShiftAmp_detection_fixS,2020.1.2,Win32,60,,,,,,,,,,,,,,,,,,,,,,,,,,,,,,1,6.5808,2,1,0,57,57,63,1,stimuli/stim_20210706_power2amp/equal_lnn_AM4.2Hz_s35_22.m4a,1.9272,,,,,,,,,,,
,,,,,41436,2021-09-25_02h48.08.182,judgeSpeechMusic_20210921_logNormShiftAmp_detection_fixS,2020.1.2,Win32,60,,,,,,,,,,,,,,,,,,,,,,,,,,,,,,2,7.1679,,0,0,58,58,56,1,stimuli/stim_20210706_power2amp/equal_lnn_AM3.6Hz_s35_8.m4a,,,,,,,,,,,,
,,,,,41436,2021-09-25_02h48.08.182,judgeSpeechMusic_20210921_logNormShiftAmp_detection_fixS,2020.1.2,Win32,60,,,,,,,,,,,,,,,,,,,,,,,,,,,,,,1,7.2845,,0,0,59,59,70,1,stimuli/stim_20210706_power2amp/equal_lnn_AM4.2Hz_s35_41.m4a,,,,,,,,,,,,
,,,,,41436,2021-09-25_02h48.08.182,judgeSpeechMusic_20210921_logNormShiftAmp_detection_fixS,2020.1.2,Win32,60,,,,,,,,,,,,,,,,,,,,,,,,,,,,,,2,7.8092,,0,0,60,60,52,1,stimuli/stim_20210706_power2amp/equal_lnn_AM3.6Hz_s35_24.m4a,,,,,,,,,,,,
,,,,,41436,2021-09-25_02h48.08.182,judgeSpeechMusic_20210921_logNormShiftAmp_detection_fixS,2020.1.2,Win32,60,,,,,,,,,,,,,,,,,,,,,,,,,,,,,,2,9.5351,,0,0,61,61,30,1,stimuli/stim_20210706_power2amp/equal_lnn_AM2.4Hz_s35_9.m4a,,,,,,,,,,,,
,,,,,41436,2021-09-25_02h48.08.182,judgeSpeechMusic_20210921_logNormShiftAmp_detection_fixS,2020.1.2,Win32,60,,,,,,,,,,,,,,,,,,,,,,,,,,,,,,2,7.8969,,0,0,62,62,60,1,stimuli/stim_20210706_power2amp/equal_lnn_AM4.2Hz_s35_20.m4a,,,,,,,,,,,,
,,,,,41436,2021-09-25_02h48.08.182,judgeSpeechMusic_20210921_logNormShiftAmp_detection_fixS,2020.1.2,Win32,60,,,,,,,,,,,,,,,,,,,,,,,,,,,,,,1,6.6585,,0,0,63,63,9,1,stimuli/stim_20210706_power2amp/equal_lnn_AM0.6Hz_s35_19.m4a,,,,,,,,,,,,
,,,,,41436,2021-09-25_02h48.08.182,judgeSpeechMusic_20210921_logNormShiftAmp_detection_fixS,2020.1.2,Win32,60,,,,,,,,,,,,,,,,,,,,,,,,,,,,,,2,8.0055,,0,0,64,64,72,1,stimuli/stim_20210706_power2amp/equal_lnn_AM4.2Hz_s35_26.m4a,,,,,,,,,,,,
,,,,,41436,2021-09-25_02h48.08.182,judgeSpeechMusic_20210921_logNormShiftAmp_detection_fixS,2020.1.2,Win32,60,,,,,,,,,,,,,,,,,,,,,,,,,,,,,,2,7.389,,0,0,65,65,26,1,stimuli/stim_20210706_power2amp/equal_lnn_AM1.2Hz_s35_30.m4a,,,,,,,,,,,,
,,,,,41436,2021-09-25_02h48.08.182,judgeSpeechMusic_20210921_logNormShiftAmp_detection_fixS,2020.1.2,Win32,60,,,,,,,,,,,,,,,,,,,,,,,,,,,,,,2,12.9091,,0,0,66,66,36,1,stimuli/stim_20210706_power2amp/equal_lnn_AM2.4Hz_s35_18.m4a,,,,,,,,,,,,
,,,,,41436,2021-09-25_02h48.08.182,judgeSpeechMusic_20210921_logNormShiftAmp_detection_fixS,2020.1.2,Win32,60,,,,,,,,,,,,,,,,,,,,,,,,,,,,,,2,10.1361,,0,0,67,67,27,1,stimuli/stim_20210706_power2amp/equal_lnn_AM1.2Hz_s35_23.m4a,,,,,,,,,,,,
,,,,,41436,2021-09-25_02h48.08.182,judgeSpeechMusic_20210921_logNormShiftAmp_detection_fixS,2020.1.2,Win32,60,,,,,,,,,,,,,,,,,,,,,,,,,,,,,,2,6.7603,,0,0,68,68,47,1,stimuli/stim_20210706_power2amp/equal_lnn_AM3.6Hz_s35_46.m4a,,,,,,,,,,,,
,,,,,41436,2021-09-25_02h48.08.182,judgeSpeechMusic_20210921_logNormShiftAmp_detection_fixS,2020.1.2,Win32,60,,,,,,,,,,,,,,,,,,,,,,,,,,,,,,1,6.9057,,0,0,69,69,3,1,stimuli/stim_20210706_power2amp/equal_lnn_AM0.6Hz_s35_5.m4a,,,,,,,,,,,,
,,,,,41436,2021-09-25_02h48.08.182,judgeSpeechMusic_20210921_logNormShiftAmp_detection_fixS,2020.1.2,Win32,60,,,,,,,,,,,,,,,,,,,,,,,,,,,,,,1,9.8352,,0,0,70,70,5,1,stimuli/stim_20210706_power2amp/equal_lnn_AM0.6Hz_s35_6.m4a,,,,,,,,,,,,
,,,,,41436,2021-09-25_02h48.08.182,judgeSpeechMusic_20210921_logNormShiftAmp_detection_fixS,2020.1.2,Win32,60,,,,,,,,,,,,,,,,,,,,,,,,,,,,,,2,7.1136,,0,0,71,71,46,1,stimuli/stim_20210706_power2amp/equal_lnn_AM3.6Hz_s35_40.m4a,,,,,,,,,,,,
,,,,,41436,2021-09-25_02h48.08.182,judgeSpeechMusic_20210921_logNormShiftAmp_detection_fixS,2020.1.2,Win32,60,,,,,,,,,,,,,,,,,,,,,,,,,,,,,,2,8.8003,,0,0,72,72,6,1,stimuli/stim_20210706_power2amp/equal_lnn_AM0.6Hz_s35_30.m4a,,,,,,,,,,,,
,,,,,41436,2021-09-25_02h48.08.182,judgeSpeechMusic_20210921_logNormShiftAmp_detection_fixS,2020.1.2,Win32,60,,,,,,,,,,,,,,,,,,,,,,,,,,,,,,1,10.6638,,0,0,73,73,8,1,stimuli/stim_20210706_power2amp/equal_lnn_AM0.6Hz_s35_37.m4a,,,,,,,,,,,,
,,,,,41436,2021-09-25_02h48.08.182,judgeSpeechMusic_20210921_logNormShiftAmp_detection_fixS,2020.1.2,Win32,60,,,,,,,,,,,,,,,,,,,,,,,,,,,,,,2,7.0388,,0,0,74,74,34,1,stimuli/stim_20210706_power2amp/equal_lnn_AM2.4Hz_s35_45.m4a,,,,,,,,,,,,
,,,,,41436,2021-09-25_02h48.08.182,judgeSpeechMusic_20210921_logNormShiftAmp_detection_fixS,2020.1.2,Win32,60,,,,,,,,,,,,,,,,,,,,,,,,,,,,,,,,,,,,,,,,,space,2.8096,0,1,1,1,1,SPEECH,stimuli/SPEECH.jpg,,
,,,,,41436,2021-09-25_02h48.08.182,judgeSpeechMusic_20210921_logNormShiftAmp_detection_fixS,2020.1.2,Win32,60,,,,,,,,,,,,,,,,,,0,0,0,0,1,1,stimuli/stim_20210706_power2amp/equal_lnn_AM_training1.8Hz_s35.m4a,,,,,,,,,,,,,,,,,,,,,,,,,,,
,,,,,41436,2021-09-25_02h48.08.182,judgeSpeechMusic_20210921_logNormShiftAmp_detection_fixS,2020.1.2,Win32,60,,,,,,,,,,,,,,,,,,,,,,,,,,space,2.0556,space,0.5928,2,6.6166,,0,0,0,0,63,1,stimuli/stim_20210706_power2amp/equal_lnn_AM4.2Hz_s35_22.m4a,,,,,,,,,,,,
,,,,,41436,2021-09-25_02h48.08.182,judgeSpeechMusic_20210921_logNormShiftAmp_detection_fixS,2020.1.2,Win32,60,,,,,,,,,,,,,,,,,,,,,,,,,,,,,,2,8.1807,,0,0,1,1,39,1,stimuli/stim_20210706_power2amp/equal_lnn_AM2.4Hz_s35_16.m4a,,,,,,,,,,,,
,,,,,41436,2021-09-25_02h48.08.182,judgeSpeechMusic_20210921_logNormShiftAmp_detection_fixS,2020.1.2,Win32,60,,,,,,,,,,,,,,,,,,,,,,,,,,,,,,2,6.4228,,0,0,2,2,48,1,stimuli/stim_20210706_power2amp/equal_lnn_AM3.6Hz_s35_13.m4a,,,,,,,,,,,,
,,,,,41436,2021-09-25_02h48.08.182,judgeSpeechMusic_20210921_logNormShiftAmp_detection_fixS,2020.1.2,Win32,60,,,,,,,,,,,,,,,,,,,,,,,,,,,,,,2,6.1087,,0,0,3,3,70,1,stimuli/stim_20210706_power2amp/equal_lnn_AM4.2Hz_s35_41.m4a,,,,,,,,,,,,
,,,,,41436,2021-09-25_02h48.08.182,judgeSpeechMusic_20210921_logNormShiftAmp_detection_fixS,2020.1.2,Win32,60,,,,,,,,,,,,,,,,,,,,,,,,,,,,,,2,5.959,,0,0,4,4,31,1,stimuli/stim_20210706_power2amp/equal_lnn_AM2.4Hz_s35_24.m4a,,,,,,,,,,,,
,,,,,41436,2021-09-25_02h48.08.182,judgeSpeechMusic_20210921_logNormShiftAmp_detection_fixS,2020.1.2,Win32,60,,,,,,,,,,,,,,,,,,,,,,,,,,,,,,2,6.0198,,0,0,5,5,60,1,stimuli/stim_20210706_power2amp/equal_lnn_AM4.2Hz_s35_20.m4a,,,,,,,,,,,,
,,,,,41436,2021-09-25_02h48.08.182,judgeSpeechMusic_20210921_logNormShiftAmp_detection_fixS,2020.1.2,Win32,60,,,,,,,,,,,,,,,,,,,,,,,,,,,,,,2,6.9535,,0,0,6,6,43,1,stimuli/stim_20210706_power2amp/equal_lnn_AM2.4Hz_s35_36.m4a,,,,,,,,,,,,
,,,,,41436,2021-09-25_02h48.08.182,judgeSpeechMusic_20210921_logNormShiftAmp_detection_fixS,2020.1.2,Win32,60,,,,,,,,,,,,,,,,,,,,,,,,,,,,,,2,6.5517,,0,0,7,7,54,1,stimuli/stim_20210706_power2amp/equal_lnn_AM3.6Hz_s35_41.m4a,,,,,,,,,,,,
,,,,,41436,2021-09-25_02h48.08.182,judgeSpeechMusic_20210921_logNormShiftAmp_detection_fixS,2020.1.2,Win32,60,,,,,,,,,,,,,,,,,,,,,,,,,,,,,,2,6.7811,,0,0,8,8,69,1,stimuli/stim_20210706_power2amp/equal_lnn_AM4.2Hz_s35_13.m4a,,,,,,,,,,,,
,,,,,41436,2021-09-25_02h48.08.182,judgeSpeechMusic_20210921_logNormShiftAmp_detection_fixS,2020.1.2,Win32,60,,,,,,,,,,,,,,,,,,,,,,,,,,,,,,2,6.4072,,0,0,9,9,64,1,stimuli/stim_20210706_power2amp/equal_lnn_AM4.2Hz_s35_46.m4a,,,,,,,,,,,,
,,,,,41436,2021-09-25_02h48.08.182,judgeSpeechMusic_20210921_logNormShiftAmp_detection_fixS,2020.1.2,Win32,60,,,,,,,,,,,,,,,,,,,,,,,,,,,,,,2,11.2321,,0,0,10,10,11,1,stimuli/stim_20210706_power2amp/equal_lnn_AM0.6Hz_s35_33.m4a,,,,,,,,,,,,
,,,,,41436,2021-09-25_02h48.08.182,judgeSpeechMusic_20210921_logNormShiftAmp_detection_fixS,2020.1.2,Win32,60,,,,,,,,,,,,,,,,,,,,,,,,,,,,,,1,7.6186,,0,0,11,11,59,1,stimuli/stim_20210706_power2amp/equal_lnn_AM3.6Hz_s35_21.m4a,,,,,,,,,,,,
,,,,,41436,2021-09-25_02h48.08.182,judgeSpeechMusic_20210921_logNormShiftAmp_detection_fixS,2020.1.2,Win32,60,,,,,,,,,,,,,,,,,,,,,,,,,,,,,,2,8.3679,,0,0,12,12,50,1,stimuli/stim_20210706_power2amp/equal_lnn_AM3.6Hz_s35_34.m4a,,,,,,,,,,,,
,,,,,41436,2021-09-25_02h48.08.182,judgeSpeechMusic_20210921_logNormShiftAmp_detection_fixS,2020.1.2,Win32,60,,,,,,,,,,,,,,,,,,,,,,,,,,,,,,2,6.9965,,0,0,13,13,21,1,stimuli/stim_20210706_power2amp/equal_lnn_AM1.2Hz_s35_26.m4a,,,,,,,,,,,,
,,,,,41436,2021-09-25_02h48.08.182,judgeSpeechMusic_20210921_logNormShiftAmp_detection_fixS,2020.1.2,Win32,60,,,,,,,,,,,,,,,,,,,,,,,,,,,,,,2,6.8006,,0,0,14,14,33,1,stimuli/stim_20210706_power2amp/equal_lnn_AM2.4Hz_s35_27.m4a,,,,,,,,,,,,
,,,,,41436,2021-09-25_02h48.08.182,judgeSpeechMusic_20210921_logNormShiftAmp_detection_fixS,2020.1.2,Win32,60,,,,,,,,,,,,,,,,,,,,,,,,,,,,,,2,7.002,,0,0,15,15,24,1,stimuli/stim_20210706_power2amp/equal_lnn_AM1.2Hz_s35_11.m4a,,,,,,,,,,,,
,,,,,41436,2021-09-25_02h48.08.182,judgeSpeechMusic_20210921_logNormShiftAmp_detection_fixS,2020.1.2,Win32,60,,,,,,,,,,,,,,,,,,,,,,,,,,,,,,2,10.3513,,0,0,16,16,5,1,stimuli/stim_20210706_power2amp/equal_lnn_AM0.6Hz_s35_6.m4a,,,,,,,,,,,,
,,,,,41436,2021-09-25_02h48.08.182,judgeSpeechMusic_20210921_logNormShiftAmp_detection_fixS,2020.1.2,Win32,60,,,,,,,,,,,,,,,,,,,,,,,,,,,,,,1,8.5246,,0,0,17,17,28,1,stimuli/stim_20210706_power2amp/equal_lnn_AM1.2Hz_s35_34.m4a,,,,,,,,,,,,
,,,,,41436,2021-09-25_02h48.08.182,judgeSpeechMusic_20210921_logNormShiftAmp_detection_fixS,2020.1.2,Win32,60,,,,,,,,,,,,,,,,,,,,,,,,,,,,,,1,7.3676,,0,0,18,18,12,1,stimuli/stim_20210706_power2amp/equal_lnn_AM0.6Hz_s35_17.m4a,,,,,,,,,,,,
,,,,,41436,2021-09-25_02h48.08.182,judgeSpeechMusic_20210921_logNormShiftAmp_detection_fixS,2020.1.2,Win32,60,,,,,,,,,,,,,,,,,,,,,,,,,,,,,,2,8.0437,3,1,0,19,19,65,1,stimuli/stim_20210706_power2amp/equal_lnn_AM4.2Hz_s35_17.m4a,1.5722,,,,,,,,,,,
,,,,,41436,2021-09-25_02h48.08.182,judgeSpeechMusic_20210921_logNormShiftAmp_detection_fixS,2020.1.2,Win32,60,,,,,,,,,,,,,,,,,,,,,,,,,,,,,,1,8.8192,,0,0,20,20,27,1,stimuli/stim_20210706_power2amp/equal_lnn_AM1.2Hz_s35_23.m4a,,,,,,,,,,,,
,,,,,41436,2021-09-25_02h48.08.182,judgeSpeechMusic_20210921_logNormShiftAmp_detection_fixS,2020.1.2,Win32,60,,,,,,,,,,,,,,,,,,,,,,,,,,,,,,2,8.5225,,0,0,21,21,41,1,stimuli/stim_20210706_power2amp/equal_lnn_AM2.4Hz_s35_17.m4a,,,,,,,,,,,,
,,,,,41436,2021-09-25_02h48.08.182,judgeSpeechMusic_20210921_logNormShiftAmp_detection_fixS,2020.1.2,Win32,60,,,,,,,,,,,,,,,,,,,,,,,,,,,,,,2,12.77,,0,0,22,22,13,1,stimuli/stim_20210706_power2amp/equal_lnn_AM0.6Hz_s35_50.m4a,,,,,,,,,,,,
,,,,,41436,2021-09-25_02h48.08.182,judgeSpeechMusic_20210921_logNormShiftAmp_detection_fixS,2020.1.2,Win32,60,,,,,,,,,,,,,,,,,,,,,,,,,,,,,,1,7.2517,,0,0,23,23,57,1,stimuli/stim_20210706_power2amp/equal_lnn_AM3.6Hz_s35_42.m4a,,,,,,,,,,,,
,,,,,41436,2021-09-25_02h48.08.182,judgeSpeechMusic_20210921_logNormShiftAmp_detection_fixS,2020.1.2,Win32,60,,,,,,,,,,,,,,,,,,,,,,,,,,,,,,2,6.4144,,0,0,24,24,32,1,stimuli/stim_20210706_power2amp/equal_lnn_AM2.4Hz_s35_47.m4a,,,,,,,,,,,,
,,,,,41436,2021-09-25_02h48.08.182,judgeSpeechMusic_20210921_logNormShiftAmp_detection_fixS,2020.1.2,Win32,60,,,,,,,,,,,,,,,,,,,,,,,,,,,,,,2,6.0187,,0,0,25,25,49,1,stimuli/stim_20210706_power2amp/equal_lnn_AM3.6Hz_s35_32.m4a,,,,,,,,,,,,
,,,,,41436,2021-09-25_02h48.08.182,judgeSpeechMusic_20210921_logNormShiftAmp_detection_fixS,2020.1.2,Win32,60,,,,,,,,,,,,,,,,,,,,,,,,,,,,,,2,9.2348,,0,0,26,26,0,1,stimuli/stim_20210706_power2amp/equal_lnn_AM0.6Hz_s35_1.m4a,,,,,,,,,,,,
,,,,,41436,2021-09-25_02h48.08.182,judgeSpeechMusic_20210921_logNormShiftAmp_detection_fixS,2020.1.2,Win32,60,,,,,,,,,,,,,,,,,,,,,,,,,,,,,,2,12.6629,,0,0,27,27,22,1,stimuli/stim_20210706_power2amp/equal_lnn_AM1.2Hz_s35_46.m4a,,,,,,,,,,,,
,,,,,41436,2021-09-25_02h48.08.182,judgeSpeechMusic_20210921_logNormShiftAmp_detection_fixS,2020.1.2,Win32,60,,,,,,,,,,,,,,,,,,,,,,,,,,,,,,1,8.0501,,0,0,28,28,67,1,stimuli/stim_20210706_power2amp/equal_lnn_AM4.2Hz_s35_37.m4a,,,,,,,,,,,,
,,,,,41436,2021-09-25_02h48.08.182,judgeSpeechMusic_20210921_logNormShiftAmp_detection_fixS,2020.1.2,Win32,60,,,,,,,,,,,,,,,,,,,,,,,,,,,,,,1,9.573,,0,0,29,29,26,1,stimuli/stim_20210706_power2amp/equal_lnn_AM1.2Hz_s35_30.m4a,,,,,,,,,,,,
,,,,,41436,2021-09-25_02h48.08.182,judgeSpeechMusic_20210921_logNormShiftAmp_detection_fixS,2020.1.2,Win32,60,,,,,,,,,,,,,,,,,,,,,,,,,,,,,,2,12.7262,,0,0,30,30,46,1,stimuli/stim_20210706_power2amp/equal_lnn_AM3.6Hz_s35_40.m4a,,,,,,,,,,,,
,,,,,41436,2021-09-25_02h48.08.182,judgeSpeechMusic_20210921_logNormShiftAmp_detection_fixS,2020.1.2,Win32,60,,,,,,,,,,,,,,,,,,,,,,,,,,,,,,1,8.3181,,0,0,31,31,14,1,stimuli/stim_20210706_power2amp/equal_lnn_AM0.6Hz_s35_34.m4a,,,,,,,,,,,,
,,,,,41436,2021-09-25_02h48.08.182,judgeSpeechMusic_20210921_logNormShiftAmp_detection_fixS,2020.1.2,Win32,60,,,,,,,,,,,,,,,,,,,,,,,,,,,,,,2,10.8514,,0,0,32,32,29,1,stimuli/stim_20210706_power2amp/equal_lnn_AM1.2Hz_s35_8.m4a,,,,,,,,,,,,
,,,,,41436,2021-09-25_02h48.08.182,judgeSpeechMusic_20210921_logNormShiftAmp_detection_fixS,2020.1.2,Win32,60,,,,,,,,,,,,,,,,,,,,,,,,,,,,,,2,8.7665,,0,0,33,33,62,1,stimuli/stim_20210706_power2amp/equal_lnn_AM4.2Hz_s35_9.m4a,,,,,,,,,,,,
,,,,,41436,2021-09-25_02h48.08.182,judgeSpeechMusic_20210921_logNormShiftAmp_detection_fixS,2020.1.2,Win32,60,,,,,,,,,,,,,,,,,,,,,,,,,,,,,,2,7.0603,,0,0,34,34,30,1,stimuli/stim_20210706_power2amp/equal_lnn_AM2.4Hz_s35_9.m4a,,,,,,,,,,,,
,,,,,41436,2021-09-25_02h48.08.182,judgeSpeechMusic_20210921_logNormShiftAmp_detection_fixS,2020.1.2,Win32,60,,,,,,,,,,,,,,,,,,,,,,,,,,,,,,2,6.3187,,0,0,35,35,51,1,stimuli/stim_20210706_power2amp/equal_lnn_AM3.6Hz_s35_7.m4a,,,,,,,,,,,,
,,,,,41436,2021-09-25_02h48.08.182,judgeSpeechMusic_20210921_logNormShiftAmp_detection_fixS,2020.1.2,Win32,60,,,,,,,,,,,,,,,,,,,,,,,,,,,,,,1,9.1557,,0,0,36,36,7,1,stimuli/stim_20210706_power2amp/equal_lnn_AM0.6Hz_s35_20.m4a,,,,,,,,,,,,
,,,,,41436,2021-09-25_02h48.08.182,judgeSpeechMusic_20210921_logNormShiftAmp_detection_fixS,2020.1.2,Win32,60,,,,,,,,,,,,,,,,,,,,,,,,,,,,,,1,8.7909,,0,0,37,37,44,1,stimuli/stim_20210706_power2amp/equal_lnn_AM2.4Hz_s35_39.m4a,,,,,,,,,,,,
,,,,,41436,2021-09-25_02h48.08.182,judgeSpeechMusic_20210921_logNormShiftAmp_detection_fixS,2020.1.2,Win32,60,,,,,,,,,,,,,,,,,,,,,,,,,,,,,,1,8.3024,4,1,0,38,38,10,1,stimuli/stim_20210706_power2amp/equal_lnn_AM0.6Hz_s35_3.m4a,1.8978,,,,,,,,,,,
,,,,,41436,2021-09-25_02h48.08.182,judgeSpeechMusic_20210921_logNormShiftAmp_detection_fixS,2020.1.2,Win32,60,,,,,,,,,,,,,,,,,,,,,,,,,,,,,,2,8.8189,,0,0,39,39,25,1,stimuli/stim_20210706_power2amp/equal_lnn_AM1.2Hz_s35_7.m4a,,,,,,,,,,,,
,,,,,41436,2021-09-25_02h48.08.182,judgeSpeechMusic_20210921_logNormShiftAmp_detection_fixS,2020.1.2,Win32,60,,,,,,,,,,,,,,,,,,,,,,,,,,,,,,1,7.7887,,0,0,40,40,2,1,stimuli/stim_20210706_power2amp/equal_lnn_AM0.6Hz_s35_48.m4a,,,,,,,,,,,,
,,,,,41436,2021-09-25_02h48.08.182,judgeSpeechMusic_20210921_logNormShiftAmp_detection_fixS,2020.1.2,Win32,60,,,,,,,,,,,,,,,,,,,,,,,,,,,,,,2,10.0518,,0,0,41,41,47,1,stimuli/stim_20210706_power2amp/equal_lnn_AM3.6Hz_s35_46.m4a,,,,,,,,,,,,
,,,,,41436,2021-09-25_02h48.08.182,judgeSpeechMusic_20210921_logNormShiftAmp_detection_fixS,2020.1.2,Win32,60,,,,,,,,,,,,,,,,,,,,,,,,,,,,,,1,8.7879,,0,0,42,42,35,1,stimuli/stim_20210706_power2amp/equal_lnn_AM2.4Hz_s35_5.m4a,,,,,,,,,,,,
,,,,,41436,2021-09-25_02h48.08.182,judgeSpeechMusic_20210921_logNormShiftAmp_detection_fixS,2020.1.2,Win32,60,,,,,,,,,,,,,,,,,,,,,,,,,,,,,,2,10.4598,,0,0,43,43,3,1,stimuli/stim_20210706_power2amp/equal_lnn_AM0.6Hz_s35_5.m4a,,,,,,,,,,,,
,,,,,41436,2021-09-25_02h48.08.182,judgeSpeechMusic_20210921_logNormShiftAmp_detection_fixS,2020.1.2,Win32,60,,,,,,,,,,,,,,,,,,,,,,,,,,,,,,1,10.5026,,0,0,44,44,55,1,stimuli/stim_20210706_power2amp/equal_lnn_AM3.6Hz_s35_15.m4a,,,,,,,,,,,,
,,,,,41436,2021-09-25_02h48.08.182,judgeSpeechMusic_20210921_logNormShiftAmp_detection_fixS,2020.1.2,Win32,60,,,,,,,,,,,,,,,,,,,,,,,,,,,,,,1,9.425,,0,0,45,45,38,1,stimuli/stim_20210706_power2amp/equal_lnn_AM2.4Hz_s35_42.m4a,,,,,,,,,,,,
,,,,,41436,2021-09-25_02h48.08.182,judgeSpeechMusic_20210921_logNormShiftAmp_detection_fixS,2020.1.2,Win32,60,,,,,,,,,,,,,,,,,,,,,,,,,,,,,,2,8.5745,,0,0,46,46,61,1,stimuli/stim_20210706_power2amp/equal_lnn_AM4.2Hz_s35_43.m4a,,,,,,,,,,,,
,,,,,41436,2021-09-25_02h48.08.182,judgeSpeechMusic_20210921_logNormShiftAmp_detection_fixS,2020.1.2,Win32,60,,,,,,,,,,,,,,,,,,,,,,,,,,,,,,1,6.6435,,0,0,47,47,15,1,stimuli/stim_20210706_power2amp/equal_lnn_AM1.2Hz_s35_18.m4a,,,,,,,,,,,,
,,,,,41436,2021-09-25_02h48.08.182,judgeSpeechMusic_20210921_logNormShiftAmp_detection_fixS,2020.1.2,Win32,60,,,,,,,,,,,,,,,,,,,,,,,,,,,,,,1,8.468,,0,0,48,48,18,1,stimuli/stim_20210706_power2amp/equal_lnn_AM1.2Hz_s35_33.m4a,,,,,,,,,,,,
,,,,,41436,2021-09-25_02h48.08.182,judgeSpeechMusic_20210921_logNormShiftAmp_detection_fixS,2020.1.2,Win32,60,,,,,,,,,,,,,,,,,,,,,,,,,,,,,,1,8.08,,0,0,49,49,16,1,stimuli/stim_20210706_power2amp/equal_lnn_AM1.2Hz_s35_2.m4a,,,,,,,,,,,,
,,,,,41436,2021-09-25_02h48.08.182,judgeSpeechMusic_20210921_logNormShiftAmp_detection_fixS,2020.1.2,Win32,60,,,,,,,,,,,,,,,,,,,,,,,,,,,,,,1,7.585,,0,0,50,50,74,1,stimuli/stim_20210706_power2amp/equal_lnn_AM4.2Hz_s35_24.m4a,,,,,,,,,,,,
,,,,,41436,2021-09-25_02h48.08.182,judgeSpeechMusic_20210921_logNormShiftAmp_detection_fixS,2020.1.2,Win32,60,,,,,,,,,,,,,,,,,,,,,,,,,,,,,,1,7.3355,,0,0,51,51,1,1,stimuli/stim_20210706_power2amp/equal_lnn_AM0.6Hz_s35_24.m4a,,,,,,,,,,,,
,,,,,41436,2021-09-25_02h48.08.182,judgeSpeechMusic_20210921_logNormShiftAmp_detection_fixS,2020.1.2,Win32,60,,,,,,,,,,,,,,,,,,,,,,,,,,,,,,2,6.8349,,0,0,52,52,73,1,stimuli/stim_20210706_power2amp/equal_lnn_AM4.2Hz_s35_11.m4a,,,,,,,,,,,,
,,,,,41436,2021-09-25_02h48.08.182,judgeSpeechMusic_20210921_logNormShiftAmp_detection_fixS,2020.1.2,Win32,60,,,,,,,,,,,,,,,,,,,,,,,,,,,,,,2,6.363,,0,0,53,53,45,1,stimuli/stim_20210706_power2amp/equal_lnn_AM3.6Hz_s35_5.m4a,,,,,,,,,,,,
,,,,,41436,2021-09-25_02h48.08.182,judgeSpeechMusic_20210921_logNormShiftAmp_detection_fixS,2020.1.2,Win32,60,,,,,,,,,,,,,,,,,,,,,,,,,,,,,,2,8.2849,,0,0,54,54,53,1,stimuli/stim_20210706_power2amp/equal_lnn_AM3.6Hz_s35_39.m4a,,,,,,,,,,,,
,,,,,41436,2021-09-25_02h48.08.182,judgeSpeechMusic_20210921_logNormShiftAmp_detection_fixS,2020.1.2,Win32,60,,,,,,,,,,,,,,,,,,,,,,,,,,,,,,2,7.0138,,0,0,55,55,36,1,stimuli/stim_20210706_power2amp/equal_lnn_AM2.4Hz_s35_18.m4a,,,,,,,,,,,,
,,,,,41436,2021-09-25_02h48.08.182,judgeSpeechMusic_20210921_logNormShiftAmp_detection_fixS,2020.1.2,Win32,60,,,,,,,,,,,,,,,,,,,,,,,,,,,,,,1,8.3093,,0,0,56,56,4,1,stimuli/stim_20210706_power2amp/equal_lnn_AM0.6Hz_s35_10.m4a,,,,,,,,,,,,
,,,,,41436,2021-09-25_02h48.08.182,judgeSpeechMusic_20210921_logNormShiftAmp_detection_fixS,2020.1.2,Win32,60,,,,,,,,,,,,,,,,,,,,,,,,,,,,,,1,8.1503,1,1,0,57,57,19,1,stimuli/stim_20210706_power2amp/equal_lnn_AM1.2Hz_s35_45.m4a,3.7602,,,,,,,,,,,
,,,,,41436,2021-09-25_02h48.08.182,judgeSpeechMusic_20210921_logNormShiftAmp_detection_fixS,2020.1.2,Win32,60,,,,,,,,,,,,,,,,,,,,,,,,,,,,,,1,12.8013,,0,0,58,58,66,1,stimuli/stim_20210706_power2amp/equal_lnn_AM4.2Hz_s35_34.m4a,,,,,,,,,,,,
,,,,,41436,2021-09-25_02h48.08.182,judgeSpeechMusic_20210921_logNormShiftAmp_detection_fixS,2020.1.2,Win32,60,,,,,,,,,,,,,,,,,,,,,,,,,,,,,,1,11.2801,,0,0,59,59,68,1,stimuli/stim_20210706_power2amp/equal_lnn_AM4.2Hz_s35_14.m4a,,,,,,,,,,,,
,,,,,41436,2021-09-25_02h48.08.182,judgeSpeechMusic_20210921_logNormShiftAmp_detection_fixS,2020.1.2,Win32,60,,,,,,,,,,,,,,,,,,,,,,,,,,,,,,2,6.7072,,0,0,60,60,40,1,stimuli/stim_20210706_power2amp/equal_lnn_AM2.4Hz_s35_25.m4a,,,,,,,,,,,,
,,,,,41436,2021-09-25_02h48.08.182,judgeSpeechMusic_20210921_logNormShiftAmp_detection_fixS,2020.1.2,Win32,60,,,,,,,,,,,,,,,,,,,,,,,,,,,,,,2,8.2222,,0,0,61,61,71,1,stimuli/stim_20210706_power2amp/equal_lnn_AM4.2Hz_s35_45.m4a,,,,,,,,,,,,
,,,,,41436,2021-09-25_02h48.08.182,judgeSpeechMusic_20210921_logNormShiftAmp_detection_fixS,2020.1.2,Win32,60,,,,,,,,,,,,,,,,,,,,,,,,,,,,,,1,8.2297,,0,0,62,62,56,1,stimuli/stim_20210706_power2amp/equal_lnn_AM3.6Hz_s35_8.m4a,,,,,,,,,,,,
,,,,,41436,2021-09-25_02h48.08.182,judgeSpeechMusic_20210921_logNormShiftAmp_detection_fixS,2020.1.2,Win32,60,,,,,,,,,,,,,,,,,,,,,,,,,,,,,,1,7.5839,,0,0,63,63,42,1,stimuli/stim_20210706_power2amp/equal_lnn_AM2.4Hz_s35_32.m4a,,,,,,,,,,,,
,,,,,41436,2021-09-25_02h48.08.182,judgeSpeechMusic_20210921_logNormShiftAmp_detection_fixS,2020.1.2,Win32,60,,,,,,,,,,,,,,,,,,,,,,,,,,,,,,1,8.6184,,0,0,64,64,17,1,stimuli/stim_20210706_power2amp/equal_lnn_AM1.2Hz_s35_43.m4a,,,,,,,,,,,,
,,,,,41436,2021-09-25_02h48.08.182,judgeSpeechMusic_20210921_logNormShiftAmp_detection_fixS,2020.1.2,Win32,60,,,,,,,,,,,,,,,,,,,,,,,,,,,,,,1,13.6016,,0,0,65,65,52,1,stimuli/stim_20210706_power2amp/equal_lnn_AM3.6Hz_s35_24.m4a,,,,,,,,,,,,
,,,,,41436,2021-09-25_02h48.08.182,judgeSpeechMusic_20210921_logNormShiftAmp_detection_fixS,2020.1.2,Win32,60,,,,,,,,,,,,,,,,,,,,,,,,,,,,,,2,6.7719,,0,0,66,66,72,1,stimuli/stim_20210706_power2amp/equal_lnn_AM4.2Hz_s35_26.m4a,,,,,,,,,,,,
,,,,,41436,2021-09-25_02h48.08.182,judgeSpeechMusic_20210921_logNormShiftAmp_detection_fixS,2020.1.2,Win32,60,,,,,,,,,,,,,,,,,,,,,,,,,,,,,,1,6.676,,0,0,67,67,34,1,stimuli/stim_20210706_power2amp/equal_lnn_AM2.4Hz_s35_45.m4a,,,,,,,,,,,,
,,,,,41436,2021-09-25_02h48.08.182,judgeSpeechMusic_20210921_logNormShiftAmp_detection_fixS,2020.1.2,Win32,60,,,,,,,,,,,,,,,,,,,,,,,,,,,,,,1,5.9386,,0,0,68,68,9,1,stimuli/stim_20210706_power2amp/equal_lnn_AM0.6Hz_s35_19.m4a,,,,,,,,,,,,
,,,,,41436,2021-09-25_02h48.08.182,judgeSpeechMusic_20210921_logNormShiftAmp_detection_fixS,2020.1.2,Win32,60,,,,,,,,,,,,,,,,,,,,,,,,,,,,,,1,6.4882,,0,0,69,69,37,1,stimuli/stim_20210706_power2amp/equal_lnn_AM2.4Hz_s35_10.m4a,,,,,,,,,,,,
,,,,,41436,2021-09-25_02h48.08.182,judgeSpeechMusic_20210921_logNormShiftAmp_detection_fixS,2020.1.2,Win32,60,,,,,,,,,,,,,,,,,,,,,,,,,,,,,,1,8.3268,,0,0,70,70,8,1,stimuli/stim_20210706_power2amp/equal_lnn_AM0.6Hz_s35_37.m4a,,,,,,,,,,,,
,,,,,41436,2021-09-25_02h48.08.182,judgeSpeechMusic_20210921_logNormShiftAmp_detection_fixS,2020.1.2,Win32,60,,,,,,,,,,,,,,,,,,,,,,,,,,,,,,1,6.8524,,0,0,71,71,6,1,stimuli/stim_20210706_power2amp/equal_lnn_AM0.6Hz_s35_30.m4a,,,,,,,,,,,,
,,,,,41436,2021-09-25_02h48.08.182,judgeSpeechMusic_20210921_logNormShiftAmp_detection_fixS,2020.1.2,Win32,60,,,,,,,,,,,,,,,,,,,,,,,,,,,,,,1,9.3865,,0,0,72,72,58,1,stimuli/stim_20210706_power2amp/equal_lnn_AM3.6Hz_s35_50.m4a,,,,,,,,,,,,
,,,,,41436,2021-09-25_02h48.08.182,judgeSpeechMusic_20210921_logNormShiftAmp_detection_fixS,2020.1.2,Win32,60,,,,,,,,,,,,,,,,,,,,,,,,,,,,,,1,10.6765,,0,0,73,73,20,1,stimuli/stim_20210706_power2amp/equal_lnn_AM1.2Hz_s35_19.m4a,,,,,,,,,,,,
,,,,,41436,2021-09-25_02h48.08.182,judgeSpeechMusic_20210921_logNormShiftAmp_detection_fixS,2020.1.2,Win32,60,,,,,,,,,,,,,,,,,,,,,,,,,,,,,,1,8.0572,,0,0,74,74,23,1,stimuli/stim_20210706_power2amp/equal_lnn_AM1.2Hz_s35_25.m4a,,,,,,,,,,,,
,,,,,41436,2021-09-25_02h48.08.182,judgeSpeechMusic_20210921_logNormShiftAmp_detection_fixS,2020.1.2,Win32,60,,,,,,,,,,,,,,,,,,,,,,,,,,,,,,,,,,,,,,,,,space,2.7156,1,0,2,0,1,MUSIC,stimuli/MUSIC.jpg,,
,,,,,41436,2021-09-25_02h48.08.182,judgeSpeechMusic_20210921_logNormShiftAmp_detection_fixS,2020.1.2,Win32,60,,,,,,,,,,,,,,,,,,0,0,0,0,0,1,stimuli/stim_20210706_power2amp/equal_lnn_AM_training0.9Hz_s35.m4a,,,,,,,,,,,,,,,,,,,,,,,,,,,
,,,,,41436,2021-09-25_02h48.08.182,judgeSpeechMusic_20210921_logNormShiftAmp_detection_fixS,2020.1.2,Win32,60,,,,,,,,,,,,,,,,,,,,,,,,,,space,2.4189,space,0.6335,2,6.7102,,0,0,0,0,66,1,stimuli/stim_20210706_power2amp/equal_lnn_AM4.2Hz_s35_34.m4a,,,,,,,,,,,,
,,,,,41436,2021-09-25_02h48.08.182,judgeSpeechMusic_20210921_logNormShiftAmp_detection_fixS,2020.1.2,Win32,60,,,,,,,,,,,,,,,,,,,,,,,,,,,,,,2,6.1578,,0,0,1,1,28,1,stimuli/stim_20210706_power2amp/equal_lnn_AM1.2Hz_s35_34.m4a,,,,,,,,,,,,
,,,,,41436,2021-09-25_02h48.08.182,judgeSpeechMusic_20210921_logNormShiftAmp_detection_fixS,2020.1.2,Win32,60,,,,,,,,,,,,,,,,,,,,,,,,,,,,,,2,6.3186,,0,0,2,2,21,1,stimuli/stim_20210706_power2amp/equal_lnn_AM1.2Hz_s35_26.m4a,,,,,,,,,,,,
,,,,,41436,2021-09-25_02h48.08.182,judgeSpeechMusic_20210921_logNormShiftAmp_detection_fixS,2020.1.2,Win32,60,,,,,,,,,,,,,,,,,,,,,,,,,,,,,,2,7.4534,,0,0,3,3,64,1,stimuli/stim_20210706_power2amp/equal_lnn_AM4.2Hz_s35_46.m4a,,,,,,,,,,,,
,,,,,41436,2021-09-25_02h48.08.182,judgeSpeechMusic_20210921_logNormShiftAmp_detection_fixS,2020.1.2,Win32,60,,,,,,,,,,,,,,,,,,,,,,,,,,,,,,1,6.1431,,0,0,4,4,12,1,stimuli/stim_20210706_power2amp/equal_lnn_AM0.6Hz_s35_17.m4a,,,,,,,,,,,,
,,,,,41436,2021-09-25_02h48.08.182,judgeSpeechMusic_20210921_logNormShiftAmp_detection_fixS,2020.1.2,Win32,60,,,,,,,,,,,,,,,,,,,,,,,,,,,,,,1,5.7685,,0,0,5,5,1,1,stimuli/stim_20210706_power2amp/equal_lnn_AM0.6Hz_s35_24.m4a,,,,,,,,,,,,
,,,,,41436,2021-09-25_02h48.08.182,judgeSpeechMusic_20210921_logNormShiftAmp_detection_fixS,2020.1.2,Win32,60,,,,,,,,,,,,,,,,,,,,,,,,,,,,,,1,6.3723,,0,0,6,6,7,1,stimuli/stim_20210706_power2amp/equal_lnn_AM0.6Hz_s35_20.m4a,,,,,,,,,,,,
,,,,,41436,2021-09-25_02h48.08.182,judgeSpeechMusic_20210921_logNormShiftAmp_detection_fixS,2020.1.2,Win32,60,,,,,,,,,,,,,,,,,,,,,,,,,,,,,,2,7.6725,,0,0,7,7,37,1,stimuli/stim_20210706_power2amp/equal_lnn_AM2.4Hz_s35_10.m4a,,,,,,,,,,,,
,,,,,41436,2021-09-25_02h48.08.182,judgeSpeechMusic_20210921_logNormShiftAmp_detection_fixS,2020.1.2,Win32,60,,,,,,,,,,,,,,,,,,,,,,,,,,,,,,1,7.7841,,0,0,8,8,9,1,stimuli/stim_20210706_power2amp/equal_lnn_AM0.6Hz_s35_19.m4a,,,,,,,,,,,,
,,,,,41436,2021-09-25_02h48.08.182,judgeSpeechMusic_20210921_logNormShiftAmp_detection_fixS,2020.1.2,Win32,60,,,,,,,,,,,,,,,,,,,,,,,,,,,,,,2,7.0797,,0,0,9,9,44,1,stimuli/stim_20210706_power2amp/equal_lnn_AM2.4Hz_s35_39.m4a,,,,,,,,,,,,
,,,,,41436,2021-09-25_02h48.08.182,judgeSpeechMusic_20210921_logNormShiftAmp_detection_fixS,2020.1.2,Win32,60,,,,,,,,,,,,,,,,,,,,,,,,,,,,,,2,7.9529,,0,0,10,10,68,1,stimuli/stim_20210706_power2amp/equal_lnn_AM4.2Hz_s35_14.m4a,,,,,,,,,,,,
,,,,,41436,2021-09-25_02h48.08.182,judgeSpeechMusic_20210921_logNormShiftAmp_detection_fixS,2020.1.2,Win32,60,,,,,,,,,,,,,,,,,,,,,,,,,,,,,,1,5.8379,,0,0,11,11,6,1,stimuli/stim_20210706_power2amp/equal_lnn_AM0.6Hz_s35_30.m4a,,,,,,,,,,,,
,,,,,41436,2021-09-25_02h48.08.182,judgeSpeechMusic_20210921_logNormShiftAmp_detection_fixS,2020.1.2,Win32,60,,,,,,,,,,,,,,,,,,,,,,,,,,,,,,2,7.3745,,0,0,12,12,33,1,stimuli/stim_20210706_power2amp/equal_lnn_AM2.4Hz_s35_27.m4a,,,,,,,,,,,,
,,,,,41436,2021-09-25_02h48.08.182,judgeSpeechMusic_20210921_logNormShiftAmp_detection_fixS,2020.1.2,Win32,60,,,,,,,,,,,,,,,,,,,,,,,,,,,,,,1,6.1768,,0,0,13,13,61,1,stimuli/stim_20210706_power2amp/equal_lnn_AM4.2Hz_s35_43.m4a,,,,,,,,,,,,
,,,,,41436,2021-09-25_02h48.08.182,judgeSpeechMusic_20210921_logNormShiftAmp_detection_fixS,2020.1.2,Win32,60,,,,,,,,,,,,,,,,,,,,,,,,,,,,,,1,8.1559,,0,0,14,14,74,1,stimuli/stim_20210706_power2amp/equal_lnn_AM4.2Hz_s35_24.m4a,,,,,,,,,,,,
,,,,,41436,2021-09-25_02h48.08.182,judgeSpeechMusic_20210921_logNormShiftAmp_detection_fixS,2020.1.2,Win32,60,,,,,,,,,,,,,,,,,,,,,,,,,,,,,,2,7.2534,,0,0,15,15,23,1,stimuli/stim_20210706_power2amp/equal_lnn_AM1.2Hz_s35_25.m4a,,,,,,,,,,,,
,,,,,41436,2021-09-25_02h48.08.182,judgeSpeechMusic_20210921_logNormShiftAmp_detection_fixS,2020.1.2,Win32,60,,,,,,,,,,,,,,,,,,,,,,,,,,,,,,1,5.8571,,0,0,16,16,2,1,stimuli/stim_20210706_power2amp/equal_lnn_AM0.6Hz_s35_48.m4a,,,,,,,,,,,,
,,,,,41436,2021-09-25_02h48.08.182,judgeSpeechMusic_20210921_logNormShiftAmp_detection_fixS,2020.1.2,Win32,60,,,,,,,,,,,,,,,,,,,,,,,,,,,,,,2,6.1522,,0,0,17,17,32,1,stimuli/stim_20210706_power2amp/equal_lnn_AM2.4Hz_s35_47.m4a,,,,,,,,,,,,
,,,,,41436,2021-09-25_02h48.08.182,judgeSpeechMusic_20210921_logNormShiftAmp_detection_fixS,2020.1.2,Win32,60,,,,,,,,,,,,,,,,,,,,,,,,,,,,,,2,5.9231,,0,0,18,18,22,1,stimuli/stim_20210706_power2amp/equal_lnn_AM1.2Hz_s35_46.m4a,,,,,,,,,,,,
,,,,,41436,2021-09-25_02h48.08.182,judgeSpeechMusic_20210921_logNormShiftAmp_detection_fixS,2020.1.2,Win32,60,,,,,,,,,,,,,,,,,,,,,,,,,,,,,,2,7.1351,3,1,0,19,19,25,1,stimuli/stim_20210706_power2amp/equal_lnn_AM1.2Hz_s35_7.m4a,0.9721,,,,,,,,,,,
,,,,,41436,2021-09-25_02h48.08.182,judgeSpeechMusic_20210921_logNormShiftAmp_detection_fixS,2020.1.2,Win32,60,,,,,,,,,,,,,,,,,,,,,,,,,,,,,,2,7.4188,,0,0,20,20,59,1,stimuli/stim_20210706_power2amp/equal_lnn_AM3.6Hz_s35_21.m4a,,,,,,,,,,,,
,,,,,41436,2021-09-25_02h48.08.182,judgeSpeechMusic_20210921_logNormShiftAmp_detection_fixS,2020.1.2,Win32,60,,,,,,,,,,,,,,,,,,,,,,,,,,,,,,2,6.8697,,0,0,21,21,53,1,stimuli/stim_20210706_power2amp/equal_lnn_AM3.6Hz_s35_39.m4a,,,,,,,,,,,,
,,,,,41436,2021-09-25_02h48.08.182,judgeSpeechMusic_20210921_logNormShiftAmp_detection_fixS,2020.1.2,Win32,60,,,,,,,,,,,,,,,,,,,,,,,,,,,,,,2,7.9512,,0,0,22,22,51,1,stimuli/stim_20210706_power2amp/equal_lnn_AM3.6Hz_s35_7.m4a,,,,,,,,,,,,
,,,,,41436,2021-09-25_02h48.08.182,judgeSpeechMusic_20210921_logNormShiftAmp_detection_fixS,2020.1.2,Win32,60,,,,,,,,,,,,,,,,,,,,,,,,,,,,,,2,9.8436,,0,0,23,23,3,1,stimuli/stim_20210706_power2amp/equal_lnn_AM0.6Hz_s35_5.m4a,,,,,,,,,,,,
,,,,,41436,2021-09-25_02h48.08.182,judgeSpeechMusic_20210921_logNormShiftAmp_detection_fixS,2020.1.2,Win32,60,,,,,,,,,,,,,,,,,,,,,,,,,,,,,,1,6.326,,0,0,24,24,27,1,stimuli/stim_20210706_power2amp/equal_lnn_AM1.2Hz_s35_23.m4a,,,,,,,,,,,,
,,,,,41436,2021-09-25_02h48.08.182,judgeSpeechMusic_20210921_logNormShiftAmp_detection_fixS,2020.1.2,Win32,60,,,,,,,,,,,,,,,,,,,,,,,,,,,,,,2,7.3111,,0,0,25,25,50,1,stimuli/stim_20210706_power2amp/equal_lnn_AM3.6Hz_s35_34.m4a,,,,,,,,,,,,
,,,,,41436,2021-09-25_02h48.08.182,judgeSpeechMusic_20210921_logNormShiftAmp_detection_fixS,2020.1.2,Win32,60,,,,,,,,,,,,,,,,,,,,,,,,,,,,,,2,7.0525,,0,0,26,26,55,1,stimuli/stim_20210706_power2amp/equal_lnn_AM3.6Hz_s35_15.m4a,,,,,,,,,,,,
,,,,,41436,2021-09-25_02h48.08.182,judgeSpeechMusic_20210921_logNormShiftAmp_detection_fixS,2020.1.2,Win32,60,,,,,,,,,,,,,,,,,,,,,,,,,,,,,,2,7.5718,,0,0,27,27,24,1,stimuli/stim_20210706_power2amp/equal_lnn_AM1.2Hz_s35_11.m4a,,,,,,,,,,,,
,,,,,41436,2021-09-25_02h48.08.182,judgeSpeechMusic_20210921_logNormShiftAmp_detection_fixS,2020.1.2,Win32,60,,,,,,,,,,,,,,,,,,,,,,,,,,,,,,2,9.3021,,0,0,28,28,20,1,stimuli/stim_20210706_power2amp/equal_lnn_AM1.2Hz_s35_19.m4a,,,,,,,,,,,,
,,,,,41436,2021-09-25_02h48.08.182,judgeSpeechMusic_20210921_logNormShiftAmp_detection_fixS,2020.1.2,Win32,60,,,,,,,,,,,,,,,,,,,,,,,,,,,,,,2,14.6684,,0,0,29,29,56,1,stimuli/stim_20210706_power2amp/equal_lnn_AM3.6Hz_s35_8.m4a,,,,,,,,,,,,
,,,,,41436,2021-09-25_02h48.08.182,judgeSpeechMusic_20210921_logNormShiftAmp_detection_fixS,2020.1.2,Win32,60,,,,,,,,,,,,,,,,,,,,,,,,,,,,,,2,8.2195,,0,0,30,30,16,1,stimuli/stim_20210706_power2amp/equal_lnn_AM1.2Hz_s35_2.m4a,,,,,,,,,,,,
,,,,,41436,2021-09-25_02h48.08.182,judgeSpeechMusic_20210921_logNormShiftAmp_detection_fixS,2020.1.2,Win32,60,,,,,,,,,,,,,,,,,,,,,,,,,,,,,,2,6.1343,,0,0,31,31,58,1,stimuli/stim_20210706_power2amp/equal_lnn_AM3.6Hz_s35_50.m4a,,,,,,,,,,,,
,,,,,41436,2021-09-25_02h48.08.182,judgeSpeechMusic_20210921_logNormShiftAmp_detection_fixS,2020.1.2,Win32,60,,,,,,,,,,,,,,,,,,,,,,,,,,,,,,2,6.6802,,0,0,32,32,45,1,stimuli/stim_20210706_power2amp/equal_lnn_AM3.6Hz_s35_5.m4a,,,,,,,,,,,,
,,,,,41436,2021-09-25_02h48.08.182,judgeSpeechMusic_20210921_logNormShiftAmp_detection_fixS,2020.1.2,Win32,60,,,,,,,,,,,,,,,,,,,,,,,,,,,,,,2,7.3546,,0,0,33,33,54,1,stimuli/stim_20210706_power2amp/equal_lnn_AM3.6Hz_s35_41.m4a,,,,,,,,,,,,
,,,,,41436,2021-09-25_02h48.08.182,judgeSpeechMusic_20210921_logNormShiftAmp_detection_fixS,2020.1.2,Win32,60,,,,,,,,,,,,,,,,,,,,,,,,,,,,,,2,6.7012,,0,0,34,34,43,1,stimuli/stim_20210706_power2amp/equal_lnn_AM2.4Hz_s35_36.m4a,,,,,,,,,,,,
,,,,,41436,2021-09-25_02h48.08.182,judgeSpeechMusic_20210921_logNormShiftAmp_detection_fixS,2020.1.2,Win32,60,,,,,,,,,,,,,,,,,,,,,,,,,,,,,,1,7.3142,,0,0,35,35,11,1,stimuli/stim_20210706_power2amp/equal_lnn_AM0.6Hz_s35_33.m4a,,,,,,,,,,,,
,,,,,41436,2021-09-25_02h48.08.182,judgeSpeechMusic_20210921_logNormShiftAmp_detection_fixS,2020.1.2,Win32,60,,,,,,,,,,,,,,,,,,,,,,,,,,,,,,2,6.6183,,0,0,36,36,71,1,stimuli/stim_20210706_power2amp/equal_lnn_AM4.2Hz_s35_45.m4a,,,,,,,,,,,,
,,,,,41436,2021-09-25_02h48.08.182,judgeSpeechMusic_20210921_logNormShiftAmp_detection_fixS,2020.1.2,Win32,60,,,,,,,,,,,,,,,,,,,,,,,,,,,,,,2,6.847,,0,0,37,37,15,1,stimuli/stim_20210706_power2amp/equal_lnn_AM1.2Hz_s35_18.m4a,,,,,,,,,,,,
,,,,,41436,2021-09-25_02h48.08.182,judgeSpeechMusic_20210921_logNormShiftAmp_detection_fixS,2020.1.2,Win32,60,,,,,,,,,,,,,,,,,,,,,,,,,,,,,,2,6.8924,1,1,0,38,38,42,1,stimuli/stim_20210706_power2amp/equal_lnn_AM2.4Hz_s35_32.m4a,2.2383,,,,,,,,,,,
,,,,,41436,2021-09-25_02h48.08.182,judgeSpeechMusic_20210921_logNormShiftAmp_detection_fixS,2020.1.2,Win32,60,,,,,,,,,,,,,,,,,,,,,,,,,,,,,,2,6.3679,,0,0,39,39,41,1,stimuli/stim_20210706_power2amp/equal_lnn_AM2.4Hz_s35_17.m4a,,,,,,,,,,,,
,,,,,41436,2021-09-25_02h48.08.182,judgeSpeechMusic_20210921_logNormShiftAmp_detection_fixS,2020.1.2,Win32,60,,,,,,,,,,,,,,,,,,,,,,,,,,,,,,1,6.6849,,0,0,40,40,5,1,stimuli/stim_20210706_power2amp/equal_lnn_AM0.6Hz_s35_6.m4a,,,,,,,,,,,,
,,,,,41436,2021-09-25_02h48.08.182,judgeSpeechMusic_20210921_logNormShiftAmp_detection_fixS,2020.1.2,Win32,60,,,,,,,,,,,,,,,,,,,,,,,,,,,,,,2,6.0302,,0,0,41,41,52,1,stimuli/stim_20210706_power2amp/equal_lnn_AM3.6Hz_s35_24.m4a,,,,,,,,,,,,
,,,,,41436,2021-09-25_02h48.08.182,judgeSpeechMusic_20210921_logNormShiftAmp_detection_fixS,2020.1.2,Win32,60,,,,,,,,,,,,,,,,,,,,,,,,,,,,,,2,5.8016,,0,0,42,42,30,1,stimuli/stim_20210706_power2amp/equal_lnn_AM2.4Hz_s35_9.m4a,,,,,,,,,,,,
,,,,,41436,2021-09-25_02h48.08.182,judgeSpeechMusic_20210921_logNormShiftAmp_detection_fixS,2020.1.2,Win32,60,,,,,,,,,,,,,,,,,,,,,,,,,,,,,,2,5.8632,,0,0,43,43,19,1,stimuli/stim_20210706_power2amp/equal_lnn_AM1.2Hz_s35_45.m4a,,,,,,,,,,,,
,,,,,41436,2021-09-25_02h48.08.182,judgeSpeechMusic_20210921_logNormShiftAmp_detection_fixS,2020.1.2,Win32,60,,,,,,,,,,,,,,,,,,,,,,,,,,,,,,2,6.5479,,0,0,44,44,38,1,stimuli/stim_20210706_power2amp/equal_lnn_AM2.4Hz_s35_42.m4a,,,,,,,,,,,,
,,,,,41436,2021-09-25_02h48.08.182,judgeSpeechMusic_20210921_logNormShiftAmp_detection_fixS,2020.1.2,Win32,60,,,,,,,,,,,,,,,,,,,,,,,,,,,,,,2,6.4507,,0,0,45,45,29,1,stimuli/stim_20210706_power2amp/equal_lnn_AM1.2Hz_s35_8.m4a,,,,,,,,,,,,
,,,,,41436,2021-09-25_02h48.08.182,judgeSpeechMusic_20210921_logNormShiftAmp_detection_fixS,2020.1.2,Win32,60,,,,,,,,,,,,,,,,,,,,,,,,,,,,,,2,6.5226,,0,0,46,46,39,1,stimuli/stim_20210706_power2amp/equal_lnn_AM2.4Hz_s35_16.m4a,,,,,,,,,,,,
,,,,,41436,2021-09-25_02h48.08.182,judgeSpeechMusic_20210921_logNormShiftAmp_detection_fixS,2020.1.2,Win32,60,,,,,,,,,,,,,,,,,,,,,,,,,,,,,,2,7.3687,,0,0,47,47,49,1,stimuli/stim_20210706_power2amp/equal_lnn_AM3.6Hz_s35_32.m4a,,,,,,,,,,,,
,,,,,41436,2021-09-25_02h48.08.182,judgeSpeechMusic_20210921_logNormShiftAmp_detection_fixS,2020.1.2,Win32,60,,,,,,,,,,,,,,,,,,,,,,,,,,,,,,2,7.7563,,0,0,48,48,47,1,stimuli/stim_20210706_power2amp/equal_lnn_AM3.6Hz_s35_46.m4a,,,,,,,,,,,,
,,,,,41436,2021-09-25_02h48.08.182,judgeSpeechMusic_20210921_logNormShiftAmp_detection_fixS,2020.1.2,Win32,60,,,,,,,,,,,,,,,,,,,,,,,,,,,,,,1,6.7346,,0,0,49,49,13,1,stimuli/stim_20210706_power2amp/equal_lnn_AM0.6Hz_s35_50.m4a,,,,,,,,,,,,
,,,,,41436,2021-09-25_02h48.08.182,judgeSpeechMusic_20210921_logNormShiftAmp_detection_fixS,2020.1.2,Win32,60,,,,,,,,,,,,,,,,,,,,,,,,,,,,,,1,7.0352,,0,0,50,50,8,1,stimuli/stim_20210706_power2amp/equal_lnn_AM0.6Hz_s35_37.m4a,,,,,,,,,,,,
,,,,,41436,2021-09-25_02h48.08.182,judgeSpeechMusic_20210921_logNormShiftAmp_detection_fixS,2020.1.2,Win32,60,,,,,,,,,,,,,,,,,,,,,,,,,,,,,,2,9.3664,,0,0,51,51,0,1,stimuli/stim_20210706_power2amp/equal_lnn_AM0.6Hz_s35_1.m4a,,,,,,,,,,,,
,,,,,41436,2021-09-25_02h48.08.182,judgeSpeechMusic_20210921_logNormShiftAmp_detection_fixS,2020.1.2,Win32,60,,,,,,,,,,,,,,,,,,,,,,,,,,,,,,2,6.0238,,0,0,52,52,46,1,stimuli/stim_20210706_power2amp/equal_lnn_AM3.6Hz_s35_40.m4a,,,,,,,,,,,,
,,,,,41436,2021-09-25_02h48.08.182,judgeSpeechMusic_20210921_logNormShiftAmp_detection_fixS,2020.1.2,Win32,60,,,,,,,,,,,,,,,,,,,,,,,,,,,,,,2,6.7862,,0,0,53,53,63,1,stimuli/stim_20210706_power2amp/equal_lnn_AM4.2Hz_s35_22.m4a,,,,,,,,,,,,
,,,,,41436,2021-09-25_02h48.08.182,judgeSpeechMusic_20210921_logNormShiftAmp_detection_fixS,2020.1.2,Win32,60,,,,,,,,,,,,,,,,,,,,,,,,,,,,,,2,6.5523,,0,0,54,54,67,1,stimuli/stim_20210706_power2amp/equal_lnn_AM4.2Hz_s35_37.m4a,,,,,,,,,,,,
,,,,,41436,2021-09-25_02h48.08.182,judgeSpeechMusic_20210921_logNormShiftAmp_detection_fixS,2020.1.2,Win32,60,,,,,,,,,,,,,,,,,,,,,,,,,,,,,,2,6.9051,,0,0,55,55,40,1,stimuli/stim_20210706_power2amp/equal_lnn_AM2.4Hz_s35_25.m4a,,,,,,,,,,,,
,,,,,41436,2021-09-25_02h48.08.182,judgeSpeechMusic_20210921_logNormShiftAmp_detection_fixS,2020.1.2,Win32,60,,,,,,,,,,,,,,,,,,,,,,,,,,,,,,2,6.5493,,0,0,56,56,14,1,stimuli/stim_20210706_power2amp/equal_lnn_AM0.6Hz_s35_34.m4a,,,,,,,,,,,,
,,,,,41436,2021-09-25_02h48.08.182,judgeSpeechMusic_20210921_logNormShiftAmp_detection_fixS,2020.1.2,Win32,60,,,,,,,,,,,,,,,,,,,,,,,,,,,,,,2,6.4624,4,1,0,57,57,48,1,stimuli/stim_20210706_power2amp/equal_lnn_AM3.6Hz_s35_13.m4a,1.1282,,,,,,,,,,,
,,,,,41436,2021-09-25_02h48.08.182,judgeSpeechMusic_20210921_logNormShiftAmp_detection_fixS,2020.1.2,Win32,60,,,,,,,,,,,,,,,,,,,,,,,,,,,,,,2,6.4265,,0,0,58,58,31,1,stimuli/stim_20210706_power2amp/equal_lnn_AM2.4Hz_s35_24.m4a,,,,,,,,,,,,
,,,,,41436,2021-09-25_02h48.08.182,judgeSpeechMusic_20210921_logNormShiftAmp_detection_fixS,2020.1.2,Win32,60,,,,,,,,,,,,,,,,,,,,,,,,,,,,,,2,7.1347,,0,0,59,59,34,1,stimuli/stim_20210706_power2amp/equal_lnn_AM2.4Hz_s35_45.m4a,,,,,,,,,,,,
,,,,,41436,2021-09-25_02h48.08.182,judgeSpeechMusic_20210921_logNormShiftAmp_detection_fixS,2020.1.2,Win32,60,,,,,,,,,,,,,,,,,,,,,,,,,,,,,,1,9.328,,0,0,60,60,70,1,stimuli/stim_20210706_power2amp/equal_lnn_AM4.2Hz_s35_41.m4a,,,,,,,,,,,,
,,,,,41436,2021-09-25_02h48.08.182,judgeSpeechMusic_20210921_logNormShiftAmp_detection_fixS,2020.1.2,Win32,60,,,,,,,,,,,,,,,,,,,,,,,,,,,,,,1,7.4459,,0,0,61,61,36,1,stimuli/stim_20210706_power2amp/equal_lnn_AM2.4Hz_s35_18.m4a,,,,,,,,,,,,
,,,,,41436,2021-09-25_02h48.08.182,judgeSpeechMusic_20210921_logNormShiftAmp_detection_fixS,2020.1.2,Win32,60,,,,,,,,,,,,,,,,,,,,,,,,,,,,,,1,8.2677,,0,0,62,62,26,1,stimuli/stim_20210706_power2amp/equal_lnn_AM1.2Hz_s35_30.m4a,,,,,,,,,,,,
,,,,,41436,2021-09-25_02h48.08.182,judgeSpeechMusic_20210921_logNormShiftAmp_detection_fixS,2020.1.2,Win32,60,,,,,,,,,,,,,,,,,,,,,,,,,,,,,,2,6.9002,,0,0,63,63,65,1,stimuli/stim_20210706_power2amp/equal_lnn_AM4.2Hz_s35_17.m4a,,,,,,,,,,,,
,,,,,41436,2021-09-25_02h48.08.182,judgeSpeechMusic_20210921_logNormShiftAmp_detection_fixS,2020.1.2,Win32,60,,,,,,,,,,,,,,,,,,,,,,,,,,,,,,1,6.3137,,0,0,64,64,60,1,stimuli/stim_20210706_power2amp/equal_lnn_AM4.2Hz_s35_20.m4a,,,,,,,,,,,,
,,,,,41436,2021-09-25_02h48.08.182,judgeSpeechMusic_20210921_logNormShiftAmp_detection_fixS,2020.1.2,Win32,60,,,,,,,,,,,,,,,,,,,,,,,,,,,,,,2,6.6401,,0,0,65,65,18,1,stimuli/stim_20210706_power2amp/equal_lnn_AM1.2Hz_s35_33.m4a,,,,,,,,,,,,
,,,,,41436,2021-09-25_02h48.08.182,judgeSpeechMusic_20210921_logNormShiftAmp_detection_fixS,2020.1.2,Win32,60,,,,,,,,,,,,,,,,,,,,,,,,,,,,,,2,10.1608,,0,0,66,66,4,1,stimuli/stim_20210706_power2amp/equal_lnn_AM0.6Hz_s35_10.m4a,,,,,,,,,,,,
,,,,,41436,2021-09-25_02h48.08.182,judgeSpeechMusic_20210921_logNormShiftAmp_detection_fixS,2020.1.2,Win32,60,,,,,,,,,,,,,,,,,,,,,,,,,,,,,,2,8.7836,,0,0,67,67,69,1,stimuli/stim_20210706_power2amp/equal_lnn_AM4.2Hz_s35_13.m4a,,,,,,,,,,,,
,,,,,41436,2021-09-25_02h48.08.182,judgeSpeechMusic_20210921_logNormShiftAmp_detection_fixS,2020.1.2,Win32,60,,,,,,,,,,,,,,,,,,,,,,,,,,,,,,1,6.1474,,0,0,68,68,10,1,stimuli/stim_20210706_power2amp/equal_lnn_AM0.6Hz_s35_3.m4a,,,,,,,,,,,,
,,,,,41436,2021-09-25_02h48.08.182,judgeSpeechMusic_20210921_logNormShiftAmp_detection_fixS,2020.1.2,Win32,60,,,,,,,,,,,,,,,,,,,,,,,,,,,,,,2,9.8381,,0,0,69,69,35,1,stimuli/stim_20210706_power2amp/equal_lnn_AM2.4Hz_s35_5.m4a,,,,,,,,,,,,
,,,,,41436,2021-09-25_02h48.08.182,judgeSpeechMusic_20210921_logNormShiftAmp_detection_fixS,2020.1.2,Win32,60,,,,,,,,,,,,,,,,,,,,,,,,,,,,,,2,8.2869,,0,0,70,70,57,1,stimuli/stim_20210706_power2amp/equal_lnn_AM3.6Hz_s35_42.m4a,,,,,,,,,,,,
,,,,,41436,2021-09-25_02h48.08.182,judgeSpeechMusic_20210921_logNormShiftAmp_detection_fixS,2020.1.2,Win32,60,,,,,,,,,,,,,,,,,,,,,,,,,,,,,,2,8.836,,0,0,71,71,17,1,stimuli/stim_20210706_power2amp/equal_lnn_AM1.2Hz_s35_43.m4a,,,,,,,,,,,,
,,,,,41436,2021-09-25_02h48.08.182,judgeSpeechMusic_20210921_logNormShiftAmp_detection_fixS,2020.1.2,Win32,60,,,,,,,,,,,,,,,,,,,,,,,,,,,,,,2,6.282,,0,0,72,72,62,1,stimuli/stim_20210706_power2amp/equal_lnn_AM4.2Hz_s35_9.m4a,,,,,,,,,,,,
,,,,,41436,2021-09-25_02h48.08.182,judgeSpeechMusic_20210921_logNormShiftAmp_detection_fixS,2020.1.2,Win32,60,,,,,,,,,,,,,,,,,,,,,,,,,,,,,,2,11.8588,,0,0,73,73,72,1,stimuli/stim_20210706_power2amp/equal_lnn_AM4.2Hz_s35_26.m4a,,,,,,,,,,,,
,,,,,41436,2021-09-25_02h48.08.182,judgeSpeechMusic_20210921_logNormShiftAmp_detection_fixS,2020.1.2,Win32,60,,,,,,,,,,,,,,,,,,,,,,,,,,,,,,1,9.5678,,0,0,74,74,73,1,stimuli/stim_20210706_power2amp/equal_lnn_AM4.2Hz_s35_11.m4a,,,,,,,,,,,,
,,,,,41436,2021-09-25_02h48.08.182,judgeSpeechMusic_20210921_logNormShiftAmp_detection_fixS,2020.1.2,Win32,60,,,,,,,,,,,,,,,,,,,,,,,,,,,,,,,,,,,,,,,,,,,1,1,3,1,1,SPEECH,stimuli/SPEECH.jpg,,
,,,,,41436,2021-09-25_02h48.08.182,judgeSpeechMusic_20210921_logNormShiftAmp_detection_fixS,2020.1.2,Win32,60,,,,,,,,,,,,,,,,,,,,,,,,,,,,,,,,,,,,,,,,,,,,,,,,,,space,9.0817
