headphoneResponse.keys,headphoneResponse.corr,headphoneResponse.rt,headphoneTrial.thisRepN,headphoneTrial.thisTrialN,headphoneTrial.thisN,headphoneTrial.thisIndex,headphoneTrial.ran,headphone_sound1,headphone_sound2,headphone_sound3,corrAns,participant,date,expName,psychopyVersion,OS,frameRate,checkInstruKey.keys,checkInstruKey.rt,trainSlider.response,trainSlider.rt,beepTrainResponse.keys,beepTrainResponse.corr,trainingTrials.thisRepN,trainingTrials.thisTrialN,trainingTrials.thisN,trainingTrials.thisIndex,trainingTrials.ran,trainAudioFile,beepTrainResponse.rt,readyReal_resp.keys,readyReal_resp.rt,checkInstru2_key.keys,checkInstru2_key.rt,ratingSlider.response,ratingSlider.rt,beepResp.keys,beepResp.corr,expTrials.thisRepN,expTrials.thisTrialN,expTrials.thisN,expTrials.thisIndex,expTrials.ran,audioFile,beepResp.rt,switchBlock_space.keys,switchBlock_space.rt,block.thisRepN,block.thisTrialN,block.thisN,block.thisIndex,block.ran,blockName,blockImage,end_resp.keys,end_resp.rt
2,1,0.55,0,0,0,1,1,stimuli/screen_antiphase.wav,stimuli/screen_quiet.wav,stimuli/screen_origin.wav,2,41439,2021-09-28_11h02.57.242,judgeSpeechMusic_20210921_logNormShiftAmp_detection_fixS,2020.1.2,MacIntel,60,,,,,,,,,,,,,,,,,,,,,,,,,,,,,,,,,,,,,,,
2,1,0.4004,0,1,1,3,1,stimuli/screen_origin.wav,stimuli/screen_quiet.wav,stimuli/screen_antiphase.wav,2,41439,2021-09-28_11h02.57.242,judgeSpeechMusic_20210921_logNormShiftAmp_detection_fixS,2020.1.2,MacIntel,60,,,,,,,,,,,,,,,,,,,,,,,,,,,,,,,,,,,,,,,
1,1,0.6416,0,2,2,4,1,stimuli/screen_quiet.wav,stimuli/screen_antiphase.wav,stimuli/screen_origin.wav,1,41439,2021-09-28_11h02.57.242,judgeSpeechMusic_20210921_logNormShiftAmp_detection_fixS,2020.1.2,MacIntel,60,,,,,,,,,,,,,,,,,,,,,,,,,,,,,,,,,,,,,,,
1,1,0.4665,0,3,3,5,1,stimuli/screen_quiet.wav,stimuli/screen_origin.wav,stimuli/screen_antiphase.wav,1,41439,2021-09-28_11h02.57.242,judgeSpeechMusic_20210921_logNormShiftAmp_detection_fixS,2020.1.2,MacIntel,60,,,,,,,,,,,,,,,,,,,,,,,,,,,,,,,,,,,,,,,
3,1,0.3956,0,4,4,2,1,stimuli/screen_origin.wav,stimuli/screen_antiphase.wav,stimuli/screen_quiet.wav,3,41439,2021-09-28_11h02.57.242,judgeSpeechMusic_20210921_logNormShiftAmp_detection_fixS,2020.1.2,MacIntel,60,,,,,,,,,,,,,,,,,,,,,,,,,,,,,,,,,,,,,,,
3,1,0.3534,0,5,5,0,1,stimuli/screen_antiphase.wav,stimuli/screen_origin.wav,stimuli/screen_quiet.wav,3,41439,2021-09-28_11h02.57.242,judgeSpeechMusic_20210921_logNormShiftAmp_detection_fixS,2020.1.2,MacIntel,60,,,,,,,,,,,,,,,,,,,,,,,,,,,,,,,,,,,,,,,
,,,,,,,,,,,,41439,2021-09-28_11h02.57.242,judgeSpeechMusic_20210921_logNormShiftAmp_detection_fixS,2020.1.2,MacIntel,60,space,4.19,1,10.5654,,0,0,0,0,2,1,stimuli/stim_20210706_power2amp/equal_lnn_AM_training3Hz_s35.m4a,,,,,,,,,,,,,,,,,,,,,,,,,,,
,,,,,,,,,,,,41439,2021-09-28_11h02.57.242,judgeSpeechMusic_20210921_logNormShiftAmp_detection_fixS,2020.1.2,MacIntel,60,,,1,6.5787,,0,0,1,1,1,1,stimuli/stim_20210706_power2amp/equal_lnn_AM_training1.8Hz_s35.m4a,,,,,,,,,,,,,,,,,,,,,,,,,,,
,,,,,,,,,,,,41439,2021-09-28_11h02.57.242,judgeSpeechMusic_20210921_logNormShiftAmp_detection_fixS,2020.1.2,MacIntel,60,,,1,7.7297,1,1,0,2,2,3,1,stimuli/stim_20210706_power2amp/equal_lnn_AM_training3.9Hz_s35.m4a,1.4179,,,,,,,,,,,,,,,,,,,,,,,,,,
,,,,,,,,,,,,41439,2021-09-28_11h02.57.242,judgeSpeechMusic_20210921_logNormShiftAmp_detection_fixS,2020.1.2,MacIntel,60,,,1,14.1277,,0,0,3,3,0,1,stimuli/stim_20210706_power2amp/equal_lnn_AM_training0.9Hz_s35.m4a,,,,,,,,,,,,,,,,,,,,,,,,,,,
,,,,,,,,,,,,41439,2021-09-28_11h02.57.242,judgeSpeechMusic_20210921_logNormShiftAmp_detection_fixS,2020.1.2,MacIntel,60,,,,,,,,,,,,,,space,6.1972,space,2.2698,2,10.4296,,0,0,0,0,45,1,stimuli/stim_20210706_power2amp/equal_lnn_AM3.6Hz_s35_11.m4a,,,,,,,,,,,,
,,,,,,,,,,,,41439,2021-09-28_11h02.57.242,judgeSpeechMusic_20210921_logNormShiftAmp_detection_fixS,2020.1.2,MacIntel,60,,,,,,,,,,,,,,,,,,1,6.3838,,0,0,1,1,8,1,stimuli/stim_20210706_power2amp/equal_lnn_AM0.6Hz_s35_35.m4a,,,,,,,,,,,,
,,,,,,,,,,,,41439,2021-09-28_11h02.57.242,judgeSpeechMusic_20210921_logNormShiftAmp_detection_fixS,2020.1.2,MacIntel,60,,,,,,,,,,,,,,,,,,2,5.8314,,0,0,2,2,36,1,stimuli/stim_20210706_power2amp/equal_lnn_AM2.4Hz_s35_23.m4a,,,,,,,,,,,,
,,,,,,,,,,,,41439,2021-09-28_11h02.57.242,judgeSpeechMusic_20210921_logNormShiftAmp_detection_fixS,2020.1.2,MacIntel,60,,,,,,,,,,,,,,,,,,2,6.8972,,0,0,3,3,66,1,stimuli/stim_20210706_power2amp/equal_lnn_AM4.2Hz_s35_6.m4a,,,,,,,,,,,,
,,,,,,,,,,,,41439,2021-09-28_11h02.57.242,judgeSpeechMusic_20210921_logNormShiftAmp_detection_fixS,2020.1.2,MacIntel,60,,,,,,,,,,,,,,,,,,1,7.2493,,0,0,4,4,5,1,stimuli/stim_20210706_power2amp/equal_lnn_AM0.6Hz_s35_39.m4a,,,,,,,,,,,,
,,,,,,,,,,,,41439,2021-09-28_11h02.57.242,judgeSpeechMusic_20210921_logNormShiftAmp_detection_fixS,2020.1.2,MacIntel,60,,,,,,,,,,,,,,,,,,2,7.6014,,0,0,5,5,52,1,stimuli/stim_20210706_power2amp/equal_lnn_AM3.6Hz_s35_25.m4a,,,,,,,,,,,,
,,,,,,,,,,,,41439,2021-09-28_11h02.57.242,judgeSpeechMusic_20210921_logNormShiftAmp_detection_fixS,2020.1.2,MacIntel,60,,,,,,,,,,,,,,,,,,1,6.095,,0,0,6,6,13,1,stimuli/stim_20210706_power2amp/equal_lnn_AM0.6Hz_s35_26.m4a,,,,,,,,,,,,
,,,,,,,,,,,,41439,2021-09-28_11h02.57.242,judgeSpeechMusic_20210921_logNormShiftAmp_detection_fixS,2020.1.2,MacIntel,60,,,,,,,,,,,,,,,,,,2,6.6986,,0,0,7,7,55,1,stimuli/stim_20210706_power2amp/equal_lnn_AM3.6Hz_s35_36.m4a,,,,,,,,,,,,
,,,,,,,,,,,,41439,2021-09-28_11h02.57.242,judgeSpeechMusic_20210921_logNormShiftAmp_detection_fixS,2020.1.2,MacIntel,60,,,,,,,,,,,,,,,,,,1,6.3322,,0,0,8,8,12,1,stimuli/stim_20210706_power2amp/equal_lnn_AM0.6Hz_s35_48.m4a,,,,,,,,,,,,
,,,,,,,,,,,,41439,2021-09-28_11h02.57.242,judgeSpeechMusic_20210921_logNormShiftAmp_detection_fixS,2020.1.2,MacIntel,60,,,,,,,,,,,,,,,,,,2,10.2511,,0,0,9,9,49,1,stimuli/stim_20210706_power2amp/equal_lnn_AM3.6Hz_s35_33.m4a,,,,,,,,,,,,
,,,,,,,,,,,,41439,2021-09-28_11h02.57.242,judgeSpeechMusic_20210921_logNormShiftAmp_detection_fixS,2020.1.2,MacIntel,60,,,,,,,,,,,,,,,,,,1,6.3176,,0,0,10,10,9,1,stimuli/stim_20210706_power2amp/equal_lnn_AM0.6Hz_s35_7.m4a,,,,,,,,,,,,
,,,,,,,,,,,,41439,2021-09-28_11h02.57.242,judgeSpeechMusic_20210921_logNormShiftAmp_detection_fixS,2020.1.2,MacIntel,60,,,,,,,,,,,,,,,,,,2,6.1623,,0,0,11,11,73,1,stimuli/stim_20210706_power2amp/equal_lnn_AM4.2Hz_s35_9.m4a,,,,,,,,,,,,
,,,,,,,,,,,,41439,2021-09-28_11h02.57.242,judgeSpeechMusic_20210921_logNormShiftAmp_detection_fixS,2020.1.2,MacIntel,60,,,,,,,,,,,,,,,,,,1,10.5767,,0,0,12,12,18,1,stimuli/stim_20210706_power2amp/equal_lnn_AM1.2Hz_s35_3.m4a,,,,,,,,,,,,
,,,,,,,,,,,,41439,2021-09-28_11h02.57.242,judgeSpeechMusic_20210921_logNormShiftAmp_detection_fixS,2020.1.2,MacIntel,60,,,,,,,,,,,,,,,,,,1,5.6538,,0,0,13,13,7,1,stimuli/stim_20210706_power2amp/equal_lnn_AM0.6Hz_s35_37.m4a,,,,,,,,,,,,
,,,,,,,,,,,,41439,2021-09-28_11h02.57.242,judgeSpeechMusic_20210921_logNormShiftAmp_detection_fixS,2020.1.2,MacIntel,60,,,,,,,,,,,,,,,,,,1,6.0396,,0,0,14,14,24,1,stimuli/stim_20210706_power2amp/equal_lnn_AM1.2Hz_s35_27.m4a,,,,,,,,,,,,
,,,,,,,,,,,,41439,2021-09-28_11h02.57.242,judgeSpeechMusic_20210921_logNormShiftAmp_detection_fixS,2020.1.2,MacIntel,60,,,,,,,,,,,,,,,,,,2,6.0805,,0,0,15,15,59,1,stimuli/stim_20210706_power2amp/equal_lnn_AM3.6Hz_s35_14.m4a,,,,,,,,,,,,
,,,,,,,,,,,,41439,2021-09-28_11h02.57.242,judgeSpeechMusic_20210921_logNormShiftAmp_detection_fixS,2020.1.2,MacIntel,60,,,,,,,,,,,,,,,,,,2,5.6372,,0,0,16,16,65,1,stimuli/stim_20210706_power2amp/equal_lnn_AM4.2Hz_s35_34.m4a,,,,,,,,,,,,
,,,,,,,,,,,,41439,2021-09-28_11h02.57.242,judgeSpeechMusic_20210921_logNormShiftAmp_detection_fixS,2020.1.2,MacIntel,60,,,,,,,,,,,,,,,,,,1,7.5316,,0,0,17,17,11,1,stimuli/stim_20210706_power2amp/equal_lnn_AM0.6Hz_s35_47.m4a,,,,,,,,,,,,
,,,,,,,,,,,,41439,2021-09-28_11h02.57.242,judgeSpeechMusic_20210921_logNormShiftAmp_detection_fixS,2020.1.2,MacIntel,60,,,,,,,,,,,,,,,,,,2,6.2743,,0,0,18,18,41,1,stimuli/stim_20210706_power2amp/equal_lnn_AM2.4Hz_s35_45.m4a,,,,,,,,,,,,
,,,,,,,,,,,,41439,2021-09-28_11h02.57.242,judgeSpeechMusic_20210921_logNormShiftAmp_detection_fixS,2020.1.2,MacIntel,60,,,,,,,,,,,,,,,,,,2,5.5711,,0,0,19,19,53,1,stimuli/stim_20210706_power2amp/equal_lnn_AM3.6Hz_s35_31.m4a,,,,,,,,,,,,
,,,,,,,,,,,,41439,2021-09-28_11h02.57.242,judgeSpeechMusic_20210921_logNormShiftAmp_detection_fixS,2020.1.2,MacIntel,60,,,,,,,,,,,,,,,,,,1,6.3162,,0,0,20,20,17,1,stimuli/stim_20210706_power2amp/equal_lnn_AM1.2Hz_s35_37.m4a,,,,,,,,,,,,
,,,,,,,,,,,,41439,2021-09-28_11h02.57.242,judgeSpeechMusic_20210921_logNormShiftAmp_detection_fixS,2020.1.2,MacIntel,60,,,,,,,,,,,,,,,,,,1,5.7843,4,1,0,21,21,19,1,stimuli/stim_20210706_power2amp/equal_lnn_AM1.2Hz_s35_1.m4a,8.2554,,,,,,,,,,,
,,,,,,,,,,,,41439,2021-09-28_11h02.57.242,judgeSpeechMusic_20210921_logNormShiftAmp_detection_fixS,2020.1.2,MacIntel,60,,,,,,,,,,,,,,,,,,2,7.3453,,0,0,22,22,58,1,stimuli/stim_20210706_power2amp/equal_lnn_AM3.6Hz_s35_23.m4a,,,,,,,,,,,,
,,,,,,,,,,,,41439,2021-09-28_11h02.57.242,judgeSpeechMusic_20210921_logNormShiftAmp_detection_fixS,2020.1.2,MacIntel,60,,,,,,,,,,,,,,,,,,2,5.6501,,0,0,23,23,50,1,stimuli/stim_20210706_power2amp/equal_lnn_AM3.6Hz_s35_15.m4a,,,,,,,,,,,,
,,,,,,,,,,,,41439,2021-09-28_11h02.57.242,judgeSpeechMusic_20210921_logNormShiftAmp_detection_fixS,2020.1.2,MacIntel,60,,,,,,,,,,,,,,,,,,2,5.8488,,0,0,24,24,56,1,stimuli/stim_20210706_power2amp/equal_lnn_AM3.6Hz_s35_29.m4a,,,,,,,,,,,,
,,,,,,,,,,,,41439,2021-09-28_11h02.57.242,judgeSpeechMusic_20210921_logNormShiftAmp_detection_fixS,2020.1.2,MacIntel,60,,,,,,,,,,,,,,,,,,2,5.5815,,0,0,25,25,71,1,stimuli/stim_20210706_power2amp/equal_lnn_AM4.2Hz_s35_11.m4a,,,,,,,,,,,,
,,,,,,,,,,,,41439,2021-09-28_11h02.57.242,judgeSpeechMusic_20210921_logNormShiftAmp_detection_fixS,2020.1.2,MacIntel,60,,,,,,,,,,,,,,,,,,2,6.4817,,0,0,26,26,63,1,stimuli/stim_20210706_power2amp/equal_lnn_AM4.2Hz_s35_15.m4a,,,,,,,,,,,,
,,,,,,,,,,,,41439,2021-09-28_11h02.57.242,judgeSpeechMusic_20210921_logNormShiftAmp_detection_fixS,2020.1.2,MacIntel,60,,,,,,,,,,,,,,,,,,1,7.0085,,0,0,27,27,43,1,stimuli/stim_20210706_power2amp/equal_lnn_AM2.4Hz_s35_5.m4a,,,,,,,,,,,,
,,,,,,,,,,,,41439,2021-09-28_11h02.57.242,judgeSpeechMusic_20210921_logNormShiftAmp_detection_fixS,2020.1.2,MacIntel,60,,,,,,,,,,,,,,,,,,1,5.8192,,0,0,28,28,20,1,stimuli/stim_20210706_power2amp/equal_lnn_AM1.2Hz_s35_48.m4a,,,,,,,,,,,,
,,,,,,,,,,,,41439,2021-09-28_11h02.57.242,judgeSpeechMusic_20210921_logNormShiftAmp_detection_fixS,2020.1.2,MacIntel,60,,,,,,,,,,,,,,,,,,1,7.418,,0,0,29,29,31,1,stimuli/stim_20210706_power2amp/equal_lnn_AM2.4Hz_s35_47.m4a,,,,,,,,,,,,
,,,,,,,,,,,,41439,2021-09-28_11h02.57.242,judgeSpeechMusic_20210921_logNormShiftAmp_detection_fixS,2020.1.2,MacIntel,60,,,,,,,,,,,,,,,,,,1,6.1885,,0,0,30,30,28,1,stimuli/stim_20210706_power2amp/equal_lnn_AM1.2Hz_s35_44.m4a,,,,,,,,,,,,
,,,,,,,,,,,,41439,2021-09-28_11h02.57.242,judgeSpeechMusic_20210921_logNormShiftAmp_detection_fixS,2020.1.2,MacIntel,60,,,,,,,,,,,,,,,,,,2,8.9349,,0,0,31,31,23,1,stimuli/stim_20210706_power2amp/equal_lnn_AM1.2Hz_s35_26.m4a,,,,,,,,,,,,
,,,,,,,,,,,,41439,2021-09-28_11h02.57.242,judgeSpeechMusic_20210921_logNormShiftAmp_detection_fixS,2020.1.2,MacIntel,60,,,,,,,,,,,,,,,,,,2,5.4815,,0,0,32,32,40,1,stimuli/stim_20210706_power2amp/equal_lnn_AM2.4Hz_s35_42.m4a,,,,,,,,,,,,
,,,,,,,,,,,,41439,2021-09-28_11h02.57.242,judgeSpeechMusic_20210921_logNormShiftAmp_detection_fixS,2020.1.2,MacIntel,60,,,,,,,,,,,,,,,,,,1,6.0151,,0,0,33,33,25,1,stimuli/stim_20210706_power2amp/equal_lnn_AM1.2Hz_s35_47.m4a,,,,,,,,,,,,
,,,,,,,,,,,,41439,2021-09-28_11h02.57.242,judgeSpeechMusic_20210921_logNormShiftAmp_detection_fixS,2020.1.2,MacIntel,60,,,,,,,,,,,,,,,,,,1,5.615,,0,0,34,34,1,1,stimuli/stim_20210706_power2amp/equal_lnn_AM0.6Hz_s35_6.m4a,,,,,,,,,,,,
,,,,,,,,,,,,41439,2021-09-28_11h02.57.242,judgeSpeechMusic_20210921_logNormShiftAmp_detection_fixS,2020.1.2,MacIntel,60,,,,,,,,,,,,,,,,,,1,5.7241,,0,0,35,35,10,1,stimuli/stim_20210706_power2amp/equal_lnn_AM0.6Hz_s35_27.m4a,,,,,,,,,,,,
,,,,,,,,,,,,41439,2021-09-28_11h02.57.242,judgeSpeechMusic_20210921_logNormShiftAmp_detection_fixS,2020.1.2,MacIntel,60,,,,,,,,,,,,,,,,,,1,5.5775,,0,0,36,36,26,1,stimuli/stim_20210706_power2amp/equal_lnn_AM1.2Hz_s35_43.m4a,,,,,,,,,,,,
,,,,,,,,,,,,41439,2021-09-28_11h02.57.242,judgeSpeechMusic_20210921_logNormShiftAmp_detection_fixS,2020.1.2,MacIntel,60,,,,,,,,,,,,,,,,,,1,5.7871,,0,0,37,37,2,1,stimuli/stim_20210706_power2amp/equal_lnn_AM0.6Hz_s35_5.m4a,,,,,,,,,,,,
,,,,,,,,,,,,41439,2021-09-28_11h02.57.242,judgeSpeechMusic_20210921_logNormShiftAmp_detection_fixS,2020.1.2,MacIntel,60,,,,,,,,,,,,,,,,,,1,5.5915,,0,0,38,38,3,1,stimuli/stim_20210706_power2amp/equal_lnn_AM0.6Hz_s35_12.m4a,,,,,,,,,,,,
,,,,,,,,,,,,41439,2021-09-28_11h02.57.242,judgeSpeechMusic_20210921_logNormShiftAmp_detection_fixS,2020.1.2,MacIntel,60,,,,,,,,,,,,,,,,,,1,5.5965,,0,0,39,39,27,1,stimuli/stim_20210706_power2amp/equal_lnn_AM1.2Hz_s35_17.m4a,,,,,,,,,,,,
,,,,,,,,,,,,41439,2021-09-28_11h02.57.242,judgeSpeechMusic_20210921_logNormShiftAmp_detection_fixS,2020.1.2,MacIntel,60,,,,,,,,,,,,,,,,,,2,5.7387,,0,0,40,40,57,1,stimuli/stim_20210706_power2amp/equal_lnn_AM3.6Hz_s35_2.m4a,,,,,,,,,,,,
,,,,,,,,,,,,41439,2021-09-28_11h02.57.242,judgeSpeechMusic_20210921_logNormShiftAmp_detection_fixS,2020.1.2,MacIntel,60,,,,,,,,,,,,,,,,,,1,7.3921,,0,0,41,41,21,1,stimuli/stim_20210706_power2amp/equal_lnn_AM1.2Hz_s35_6.m4a,,,,,,,,,,,,
,,,,,,,,,,,,41439,2021-09-28_11h02.57.242,judgeSpeechMusic_20210921_logNormShiftAmp_detection_fixS,2020.1.2,MacIntel,60,,,,,,,,,,,,,,,,,,2,5.6858,3,1,0,42,42,30,1,stimuli/stim_20210706_power2amp/equal_lnn_AM2.4Hz_s35_33.m4a,1.7283,,,,,,,,,,,
,,,,,,,,,,,,41439,2021-09-28_11h02.57.242,judgeSpeechMusic_20210921_logNormShiftAmp_detection_fixS,2020.1.2,MacIntel,60,,,,,,,,,,,,,,,,,,1,5.7651,,0,0,43,43,14,1,stimuli/stim_20210706_power2amp/equal_lnn_AM0.6Hz_s35_29.m4a,,,,,,,,,,,,
,,,,,,,,,,,,41439,2021-09-28_11h02.57.242,judgeSpeechMusic_20210921_logNormShiftAmp_detection_fixS,2020.1.2,MacIntel,60,,,,,,,,,,,,,,,,,,1,5.641,,0,0,44,44,35,1,stimuli/stim_20210706_power2amp/equal_lnn_AM2.4Hz_s35_9.m4a,,,,,,,,,,,,
,,,,,,,,,,,,41439,2021-09-28_11h02.57.242,judgeSpeechMusic_20210921_logNormShiftAmp_detection_fixS,2020.1.2,MacIntel,60,,,,,,,,,,,,,,,,,,2,5.8201,,0,0,45,45,74,1,stimuli/stim_20210706_power2amp/equal_lnn_AM4.2Hz_s35_30.m4a,,,,,,,,,,,,
,,,,,,,,,,,,41439,2021-09-28_11h02.57.242,judgeSpeechMusic_20210921_logNormShiftAmp_detection_fixS,2020.1.2,MacIntel,60,,,,,,,,,,,,,,,,,,1,5.5828,,0,0,46,46,37,1,stimuli/stim_20210706_power2amp/equal_lnn_AM2.4Hz_s35_48.m4a,,,,,,,,,,,,
,,,,,,,,,,,,41439,2021-09-28_11h02.57.242,judgeSpeechMusic_20210921_logNormShiftAmp_detection_fixS,2020.1.2,MacIntel,60,,,,,,,,,,,,,,,,,,2,6.8088,,0,0,47,47,38,1,stimuli/stim_20210706_power2amp/equal_lnn_AM2.4Hz_s35_39.m4a,,,,,,,,,,,,
,,,,,,,,,,,,41439,2021-09-28_11h02.57.242,judgeSpeechMusic_20210921_logNormShiftAmp_detection_fixS,2020.1.2,MacIntel,60,,,,,,,,,,,,,,,,,,2,6.0736,,0,0,48,48,70,1,stimuli/stim_20210706_power2amp/equal_lnn_AM4.2Hz_s35_41.m4a,,,,,,,,,,,,
,,,,,,,,,,,,41439,2021-09-28_11h02.57.242,judgeSpeechMusic_20210921_logNormShiftAmp_detection_fixS,2020.1.2,MacIntel,60,,,,,,,,,,,,,,,,,,2,5.5489,,0,0,49,49,48,1,stimuli/stim_20210706_power2amp/equal_lnn_AM3.6Hz_s35_43.m4a,,,,,,,,,,,,
,,,,,,,,,,,,41439,2021-09-28_11h02.57.242,judgeSpeechMusic_20210921_logNormShiftAmp_detection_fixS,2020.1.2,MacIntel,60,,,,,,,,,,,,,,,,,,2,5.8679,,0,0,50,50,42,1,stimuli/stim_20210706_power2amp/equal_lnn_AM2.4Hz_s35_10.m4a,,,,,,,,,,,,
,,,,,,,,,,,,41439,2021-09-28_11h02.57.242,judgeSpeechMusic_20210921_logNormShiftAmp_detection_fixS,2020.1.2,MacIntel,60,,,,,,,,,,,,,,,,,,2,5.5485,,0,0,51,51,46,1,stimuli/stim_20210706_power2amp/equal_lnn_AM3.6Hz_s35_30.m4a,,,,,,,,,,,,
,,,,,,,,,,,,41439,2021-09-28_11h02.57.242,judgeSpeechMusic_20210921_logNormShiftAmp_detection_fixS,2020.1.2,MacIntel,60,,,,,,,,,,,,,,,,,,2,6.3017,,0,0,52,52,62,1,stimuli/stim_20210706_power2amp/equal_lnn_AM4.2Hz_s35_47.m4a,,,,,,,,,,,,
,,,,,,,,,,,,41439,2021-09-28_11h02.57.242,judgeSpeechMusic_20210921_logNormShiftAmp_detection_fixS,2020.1.2,MacIntel,60,,,,,,,,,,,,,,,,,,2,6.0633,,0,0,53,53,69,1,stimuli/stim_20210706_power2amp/equal_lnn_AM4.2Hz_s35_45.m4a,,,,,,,,,,,,
,,,,,,,,,,,,41439,2021-09-28_11h02.57.242,judgeSpeechMusic_20210921_logNormShiftAmp_detection_fixS,2020.1.2,MacIntel,60,,,,,,,,,,,,,,,,,,1,5.7151,,0,0,54,54,29,1,stimuli/stim_20210706_power2amp/equal_lnn_AM1.2Hz_s35_15.m4a,,,,,,,,,,,,
,,,,,,,,,,,,41439,2021-09-28_11h02.57.242,judgeSpeechMusic_20210921_logNormShiftAmp_detection_fixS,2020.1.2,MacIntel,60,,,,,,,,,,,,,,,,,,1,5.5657,,0,0,55,55,6,1,stimuli/stim_20210706_power2amp/equal_lnn_AM0.6Hz_s35_23.m4a,,,,,,,,,,,,
,,,,,,,,,,,,41439,2021-09-28_11h02.57.242,judgeSpeechMusic_20210921_logNormShiftAmp_detection_fixS,2020.1.2,MacIntel,60,,,,,,,,,,,,,,,,,,2,5.9313,,0,0,56,56,72,1,stimuli/stim_20210706_power2amp/equal_lnn_AM4.2Hz_s35_39.m4a,,,,,,,,,,,,
,,,,,,,,,,,,41439,2021-09-28_11h02.57.242,judgeSpeechMusic_20210921_logNormShiftAmp_detection_fixS,2020.1.2,MacIntel,60,,,,,,,,,,,,,,,,,,2,7.7831,,0,0,57,57,33,1,stimuli/stim_20210706_power2amp/equal_lnn_AM2.4Hz_s35_11.m4a,,,,,,,,,,,,
,,,,,,,,,,,,41439,2021-09-28_11h02.57.242,judgeSpeechMusic_20210921_logNormShiftAmp_detection_fixS,2020.1.2,MacIntel,60,,,,,,,,,,,,,,,,,,2,5.7325,,0,0,58,58,54,1,stimuli/stim_20210706_power2amp/equal_lnn_AM3.6Hz_s35_7.m4a,,,,,,,,,,,,
,,,,,,,,,,,,41439,2021-09-28_11h02.57.242,judgeSpeechMusic_20210921_logNormShiftAmp_detection_fixS,2020.1.2,MacIntel,60,,,,,,,,,,,,,,,,,,1,5.849,,0,0,59,59,4,1,stimuli/stim_20210706_power2amp/equal_lnn_AM0.6Hz_s35_43.m4a,,,,,,,,,,,,
,,,,,,,,,,,,41439,2021-09-28_11h02.57.242,judgeSpeechMusic_20210921_logNormShiftAmp_detection_fixS,2020.1.2,MacIntel,60,,,,,,,,,,,,,,,,,,1,7.3931,,0,0,60,60,0,1,stimuli/stim_20210706_power2amp/equal_lnn_AM0.6Hz_s35_36.m4a,,,,,,,,,,,,
,,,,,,,,,,,,41439,2021-09-28_11h02.57.242,judgeSpeechMusic_20210921_logNormShiftAmp_detection_fixS,2020.1.2,MacIntel,60,,,,,,,,,,,,,,,,,,1,5.6033,1,1,0,61,61,16,1,stimuli/stim_20210706_power2amp/equal_lnn_AM1.2Hz_s35_42.m4a,1.1728,,,,,,,,,,,
,,,,,,,,,,,,41439,2021-09-28_11h02.57.242,judgeSpeechMusic_20210921_logNormShiftAmp_detection_fixS,2020.1.2,MacIntel,60,,,,,,,,,,,,,,,,,,2,5.8791,,0,0,62,62,61,1,stimuli/stim_20210706_power2amp/equal_lnn_AM4.2Hz_s35_13.m4a,,,,,,,,,,,,
,,,,,,,,,,,,41439,2021-09-28_11h02.57.242,judgeSpeechMusic_20210921_logNormShiftAmp_detection_fixS,2020.1.2,MacIntel,60,,,,,,,,,,,,,,,,,,2,6.0493,,0,0,63,63,60,1,stimuli/stim_20210706_power2amp/equal_lnn_AM4.2Hz_s35_2.m4a,,,,,,,,,,,,
,,,,,,,,,,,,41439,2021-09-28_11h02.57.242,judgeSpeechMusic_20210921_logNormShiftAmp_detection_fixS,2020.1.2,MacIntel,60,,,,,,,,,,,,,,,,,,2,5.5827,,0,0,64,64,34,1,stimuli/stim_20210706_power2amp/equal_lnn_AM2.4Hz_s35_38.m4a,,,,,,,,,,,,
,,,,,,,,,,,,41439,2021-09-28_11h02.57.242,judgeSpeechMusic_20210921_logNormShiftAmp_detection_fixS,2020.1.2,MacIntel,60,,,,,,,,,,,,,,,,,,2,5.5661,,0,0,65,65,32,1,stimuli/stim_20210706_power2amp/equal_lnn_AM2.4Hz_s35_40.m4a,,,,,,,,,,,,
,,,,,,,,,,,,41439,2021-09-28_11h02.57.242,judgeSpeechMusic_20210921_logNormShiftAmp_detection_fixS,2020.1.2,MacIntel,60,,,,,,,,,,,,,,,,,,2,6.583,,0,0,66,66,64,1,stimuli/stim_20210706_power2amp/equal_lnn_AM4.2Hz_s35_1.m4a,,,,,,,,,,,,
,,,,,,,,,,,,41439,2021-09-28_11h02.57.242,judgeSpeechMusic_20210921_logNormShiftAmp_detection_fixS,2020.1.2,MacIntel,60,,,,,,,,,,,,,,,,,,2,5.7972,,0,0,67,67,47,1,stimuli/stim_20210706_power2amp/equal_lnn_AM3.6Hz_s35_42.m4a,,,,,,,,,,,,
,,,,,,,,,,,,41439,2021-09-28_11h02.57.242,judgeSpeechMusic_20210921_logNormShiftAmp_detection_fixS,2020.1.2,MacIntel,60,,,,,,,,,,,,,,,,,,1,5.6979,,0,0,68,68,22,1,stimuli/stim_20210706_power2amp/equal_lnn_AM1.2Hz_s35_14.m4a,,,,,,,,,,,,
,,,,,,,,,,,,41439,2021-09-28_11h02.57.242,judgeSpeechMusic_20210921_logNormShiftAmp_detection_fixS,2020.1.2,MacIntel,60,,,,,,,,,,,,,,,,,,2,6.1801,,0,0,69,69,39,1,stimuli/stim_20210706_power2amp/equal_lnn_AM2.4Hz_s35_27.m4a,,,,,,,,,,,,
,,,,,,,,,,,,41439,2021-09-28_11h02.57.242,judgeSpeechMusic_20210921_logNormShiftAmp_detection_fixS,2020.1.2,MacIntel,60,,,,,,,,,,,,,,,,,,2,6.5066,,0,0,70,70,51,1,stimuli/stim_20210706_power2amp/equal_lnn_AM3.6Hz_s35_24.m4a,,,,,,,,,,,,
,,,,,,,,,,,,41439,2021-09-28_11h02.57.242,judgeSpeechMusic_20210921_logNormShiftAmp_detection_fixS,2020.1.2,MacIntel,60,,,,,,,,,,,,,,,,,,1,6.345,,0,0,71,71,15,1,stimuli/stim_20210706_power2amp/equal_lnn_AM1.2Hz_s35_21.m4a,,,,,,,,,,,,
,,,,,,,,,,,,41439,2021-09-28_11h02.57.242,judgeSpeechMusic_20210921_logNormShiftAmp_detection_fixS,2020.1.2,MacIntel,60,,,,,,,,,,,,,,,,,,2,5.9538,,0,0,72,72,44,1,stimuli/stim_20210706_power2amp/equal_lnn_AM2.4Hz_s35_4.m4a,,,,,,,,,,,,
,,,,,,,,,,,,41439,2021-09-28_11h02.57.242,judgeSpeechMusic_20210921_logNormShiftAmp_detection_fixS,2020.1.2,MacIntel,60,,,,,,,,,,,,,,,,,,2,6.4485,,0,0,73,73,68,1,stimuli/stim_20210706_power2amp/equal_lnn_AM4.2Hz_s35_24.m4a,,,,,,,,,,,,
,,,,,,,,,,,,41439,2021-09-28_11h02.57.242,judgeSpeechMusic_20210921_logNormShiftAmp_detection_fixS,2020.1.2,MacIntel,60,,,,,,,,,,,,,,,,,,2,7.3846,,0,0,74,74,67,1,stimuli/stim_20210706_power2amp/equal_lnn_AM4.2Hz_s35_17.m4a,,,,,,,,,,,,
,,,,,,,,,,,,41439,2021-09-28_11h02.57.242,judgeSpeechMusic_20210921_logNormShiftAmp_detection_fixS,2020.1.2,MacIntel,60,,,,,,,,,,,,,,,,,,,,,,,,,,,,,space,0.8646,0,0,0,1,1,SPEECH,stimuli/SPEECH.jpg,,
,,,,,,,,,,,,41439,2021-09-28_11h02.57.242,judgeSpeechMusic_20210921_logNormShiftAmp_detection_fixS,2020.1.2,MacIntel,60,space,0.7021,2,9.349,,0,0,0,0,0,1,stimuli/stim_20210706_power2amp/equal_lnn_AM_training0.9Hz_s35.m4a,,,,,,,,,,,,,,,,,,,,,,,,,,,
,,,,,,,,,,,,41439,2021-09-28_11h02.57.242,judgeSpeechMusic_20210921_logNormShiftAmp_detection_fixS,2020.1.2,MacIntel,60,,,2,5.7431,,0,0,1,1,1,1,stimuli/stim_20210706_power2amp/equal_lnn_AM_training1.8Hz_s35.m4a,,,,,,,,,,,,,,,,,,,,,,,,,,,
,,,,,,,,,,,,41439,2021-09-28_11h02.57.242,judgeSpeechMusic_20210921_logNormShiftAmp_detection_fixS,2020.1.2,MacIntel,60,,,1,6.5182,2,1,0,2,2,3,1,stimuli/stim_20210706_power2amp/equal_lnn_AM_training3.9Hz_s35.m4a,1.2007,,,,,,,,,,,,,,,,,,,,,,,,,,
,,,,,,,,,,,,41439,2021-09-28_11h02.57.242,judgeSpeechMusic_20210921_logNormShiftAmp_detection_fixS,2020.1.2,MacIntel,60,,,1,8.4908,,0,0,3,3,2,1,stimuli/stim_20210706_power2amp/equal_lnn_AM_training3Hz_s35.m4a,,,,,,,,,,,,,,,,,,,,,,,,,,,
,,,,,,,,,,,,41439,2021-09-28_11h02.57.242,judgeSpeechMusic_20210921_logNormShiftAmp_detection_fixS,2020.1.2,MacIntel,60,,,,,,,,,,,,,,space,2.3163,space,0.7253,2,6.4008,,0,0,0,0,9,1,stimuli/stim_20210706_power2amp/equal_lnn_AM0.6Hz_s35_7.m4a,,,,,,,,,,,,
,,,,,,,,,,,,41439,2021-09-28_11h02.57.242,judgeSpeechMusic_20210921_logNormShiftAmp_detection_fixS,2020.1.2,MacIntel,60,,,,,,,,,,,,,,,,,,1,5.8357,,0,0,1,1,65,1,stimuli/stim_20210706_power2amp/equal_lnn_AM4.2Hz_s35_34.m4a,,,,,,,,,,,,
,,,,,,,,,,,,41439,2021-09-28_11h02.57.242,judgeSpeechMusic_20210921_logNormShiftAmp_detection_fixS,2020.1.2,MacIntel,60,,,,,,,,,,,,,,,,,,1,6.1171,,0,0,2,2,53,1,stimuli/stim_20210706_power2amp/equal_lnn_AM3.6Hz_s35_31.m4a,,,,,,,,,,,,
,,,,,,,,,,,,41439,2021-09-28_11h02.57.242,judgeSpeechMusic_20210921_logNormShiftAmp_detection_fixS,2020.1.2,MacIntel,60,,,,,,,,,,,,,,,,,,2,6.644,,0,0,3,3,5,1,stimuli/stim_20210706_power2amp/equal_lnn_AM0.6Hz_s35_39.m4a,,,,,,,,,,,,
,,,,,,,,,,,,41439,2021-09-28_11h02.57.242,judgeSpeechMusic_20210921_logNormShiftAmp_detection_fixS,2020.1.2,MacIntel,60,,,,,,,,,,,,,,,,,,1,6.1195,,0,0,4,4,74,1,stimuli/stim_20210706_power2amp/equal_lnn_AM4.2Hz_s35_30.m4a,,,,,,,,,,,,
,,,,,,,,,,,,41439,2021-09-28_11h02.57.242,judgeSpeechMusic_20210921_logNormShiftAmp_detection_fixS,2020.1.2,MacIntel,60,,,,,,,,,,,,,,,,,,2,5.6069,,0,0,5,5,11,1,stimuli/stim_20210706_power2amp/equal_lnn_AM0.6Hz_s35_47.m4a,,,,,,,,,,,,
,,,,,,,,,,,,41439,2021-09-28_11h02.57.242,judgeSpeechMusic_20210921_logNormShiftAmp_detection_fixS,2020.1.2,MacIntel,60,,,,,,,,,,,,,,,,,,2,5.9949,,0,0,6,6,40,1,stimuli/stim_20210706_power2amp/equal_lnn_AM2.4Hz_s35_42.m4a,,,,,,,,,,,,
,,,,,,,,,,,,41439,2021-09-28_11h02.57.242,judgeSpeechMusic_20210921_logNormShiftAmp_detection_fixS,2020.1.2,MacIntel,60,,,,,,,,,,,,,,,,,,2,7.2884,,0,0,7,7,16,1,stimuli/stim_20210706_power2amp/equal_lnn_AM1.2Hz_s35_42.m4a,,,,,,,,,,,,
,,,,,,,,,,,,41439,2021-09-28_11h02.57.242,judgeSpeechMusic_20210921_logNormShiftAmp_detection_fixS,2020.1.2,MacIntel,60,,,,,,,,,,,,,,,,,,1,6.7395,,0,0,8,8,62,1,stimuli/stim_20210706_power2amp/equal_lnn_AM4.2Hz_s35_47.m4a,,,,,,,,,,,,
,,,,,,,,,,,,41439,2021-09-28_11h02.57.242,judgeSpeechMusic_20210921_logNormShiftAmp_detection_fixS,2020.1.2,MacIntel,60,,,,,,,,,,,,,,,,,,1,9.6795,,0,0,9,9,4,1,stimuli/stim_20210706_power2amp/equal_lnn_AM0.6Hz_s35_43.m4a,,,,,,,,,,,,
,,,,,,,,,,,,41439,2021-09-28_11h02.57.242,judgeSpeechMusic_20210921_logNormShiftAmp_detection_fixS,2020.1.2,MacIntel,60,,,,,,,,,,,,,,,,,,2,5.7988,,0,0,10,10,10,1,stimuli/stim_20210706_power2amp/equal_lnn_AM0.6Hz_s35_27.m4a,,,,,,,,,,,,
,,,,,,,,,,,,41439,2021-09-28_11h02.57.242,judgeSpeechMusic_20210921_logNormShiftAmp_detection_fixS,2020.1.2,MacIntel,60,,,,,,,,,,,,,,,,,,2,5.6147,,0,0,11,11,35,1,stimuli/stim_20210706_power2amp/equal_lnn_AM2.4Hz_s35_9.m4a,,,,,,,,,,,,
,,,,,,,,,,,,41439,2021-09-28_11h02.57.242,judgeSpeechMusic_20210921_logNormShiftAmp_detection_fixS,2020.1.2,MacIntel,60,,,,,,,,,,,,,,,,,,2,5.6163,,0,0,12,12,15,1,stimuli/stim_20210706_power2amp/equal_lnn_AM1.2Hz_s35_21.m4a,,,,,,,,,,,,
,,,,,,,,,,,,41439,2021-09-28_11h02.57.242,judgeSpeechMusic_20210921_logNormShiftAmp_detection_fixS,2020.1.2,MacIntel,60,,,,,,,,,,,,,,,,,,1,6.054,,0,0,13,13,61,1,stimuli/stim_20210706_power2amp/equal_lnn_AM4.2Hz_s35_13.m4a,,,,,,,,,,,,
,,,,,,,,,,,,41439,2021-09-28_11h02.57.242,judgeSpeechMusic_20210921_logNormShiftAmp_detection_fixS,2020.1.2,MacIntel,60,,,,,,,,,,,,,,,,,,2,6.4597,,0,0,14,14,20,1,stimuli/stim_20210706_power2amp/equal_lnn_AM1.2Hz_s35_48.m4a,,,,,,,,,,,,
,,,,,,,,,,,,41439,2021-09-28_11h02.57.242,judgeSpeechMusic_20210921_logNormShiftAmp_detection_fixS,2020.1.2,MacIntel,60,,,,,,,,,,,,,,,,,,1,5.8829,,0,0,15,15,63,1,stimuli/stim_20210706_power2amp/equal_lnn_AM4.2Hz_s35_15.m4a,,,,,,,,,,,,
,,,,,,,,,,,,41439,2021-09-28_11h02.57.242,judgeSpeechMusic_20210921_logNormShiftAmp_detection_fixS,2020.1.2,MacIntel,60,,,,,,,,,,,,,,,,,,1,7.3824,,0,0,16,16,38,1,stimuli/stim_20210706_power2amp/equal_lnn_AM2.4Hz_s35_39.m4a,,,,,,,,,,,,
,,,,,,,,,,,,41439,2021-09-28_11h02.57.242,judgeSpeechMusic_20210921_logNormShiftAmp_detection_fixS,2020.1.2,MacIntel,60,,,,,,,,,,,,,,,,,,1,5.5427,,0,0,17,17,70,1,stimuli/stim_20210706_power2amp/equal_lnn_AM4.2Hz_s35_41.m4a,,,,,,,,,,,,
,,,,,,,,,,,,41439,2021-09-28_11h02.57.242,judgeSpeechMusic_20210921_logNormShiftAmp_detection_fixS,2020.1.2,MacIntel,60,,,,,,,,,,,,,,,,,,2,5.6029,,0,0,18,18,51,1,stimuli/stim_20210706_power2amp/equal_lnn_AM3.6Hz_s35_24.m4a,,,,,,,,,,,,
,,,,,,,,,,,,41439,2021-09-28_11h02.57.242,judgeSpeechMusic_20210921_logNormShiftAmp_detection_fixS,2020.1.2,MacIntel,60,,,,,,,,,,,,,,,,,,1,6.708,,0,0,19,19,66,1,stimuli/stim_20210706_power2amp/equal_lnn_AM4.2Hz_s35_6.m4a,,,,,,,,,,,,
,,,,,,,,,,,,41439,2021-09-28_11h02.57.242,judgeSpeechMusic_20210921_logNormShiftAmp_detection_fixS,2020.1.2,MacIntel,60,,,,,,,,,,,,,,,,,,1,7.8012,,0,0,20,20,49,1,stimuli/stim_20210706_power2amp/equal_lnn_AM3.6Hz_s35_33.m4a,,,,,,,,,,,,
,,,,,,,,,,,,41439,2021-09-28_11h02.57.242,judgeSpeechMusic_20210921_logNormShiftAmp_detection_fixS,2020.1.2,MacIntel,60,,,,,,,,,,,,,,,,,,1,5.6158,3,1,0,21,21,54,1,stimuli/stim_20210706_power2amp/equal_lnn_AM3.6Hz_s35_7.m4a,1.2694,,,,,,,,,,,
,,,,,,,,,,,,41439,2021-09-28_11h02.57.242,judgeSpeechMusic_20210921_logNormShiftAmp_detection_fixS,2020.1.2,MacIntel,60,,,,,,,,,,,,,,,,,,2,5.8327,,0,0,22,22,19,1,stimuli/stim_20210706_power2amp/equal_lnn_AM1.2Hz_s35_1.m4a,,,,,,,,,,,,
,,,,,,,,,,,,41439,2021-09-28_11h02.57.242,judgeSpeechMusic_20210921_logNormShiftAmp_detection_fixS,2020.1.2,MacIntel,60,,,,,,,,,,,,,,,,,,1,8.8583,,0,0,23,23,39,1,stimuli/stim_20210706_power2amp/equal_lnn_AM2.4Hz_s35_27.m4a,,,,,,,,,,,,
,,,,,,,,,,,,41439,2021-09-28_11h02.57.242,judgeSpeechMusic_20210921_logNormShiftAmp_detection_fixS,2020.1.2,MacIntel,60,,,,,,,,,,,,,,,,,,1,6.8198,,0,0,24,24,45,1,stimuli/stim_20210706_power2amp/equal_lnn_AM3.6Hz_s35_11.m4a,,,,,,,,,,,,
,,,,,,,,,,,,41439,2021-09-28_11h02.57.242,judgeSpeechMusic_20210921_logNormShiftAmp_detection_fixS,2020.1.2,MacIntel,60,,,,,,,,,,,,,,,,,,2,6.3671,,0,0,25,25,2,1,stimuli/stim_20210706_power2amp/equal_lnn_AM0.6Hz_s35_5.m4a,,,,,,,,,,,,
,,,,,,,,,,,,41439,2021-09-28_11h02.57.242,judgeSpeechMusic_20210921_logNormShiftAmp_detection_fixS,2020.1.2,MacIntel,60,,,,,,,,,,,,,,,,,,1,6.9834,,0,0,26,26,56,1,stimuli/stim_20210706_power2amp/equal_lnn_AM3.6Hz_s35_29.m4a,,,,,,,,,,,,
,,,,,,,,,,,,41439,2021-09-28_11h02.57.242,judgeSpeechMusic_20210921_logNormShiftAmp_detection_fixS,2020.1.2,MacIntel,60,,,,,,,,,,,,,,,,,,2,6.6167,,0,0,27,27,1,1,stimuli/stim_20210706_power2amp/equal_lnn_AM0.6Hz_s35_6.m4a,,,,,,,,,,,,
,,,,,,,,,,,,41439,2021-09-28_11h02.57.242,judgeSpeechMusic_20210921_logNormShiftAmp_detection_fixS,2020.1.2,MacIntel,60,,,,,,,,,,,,,,,,,,1,6.1761,,0,0,28,28,47,1,stimuli/stim_20210706_power2amp/equal_lnn_AM3.6Hz_s35_42.m4a,,,,,,,,,,,,
,,,,,,,,,,,,41439,2021-09-28_11h02.57.242,judgeSpeechMusic_20210921_logNormShiftAmp_detection_fixS,2020.1.2,MacIntel,60,,,,,,,,,,,,,,,,,,1,6.6364,,0,0,29,29,29,1,stimuli/stim_20210706_power2amp/equal_lnn_AM1.2Hz_s35_15.m4a,,,,,,,,,,,,
,,,,,,,,,,,,41439,2021-09-28_11h02.57.242,judgeSpeechMusic_20210921_logNormShiftAmp_detection_fixS,2020.1.2,MacIntel,60,,,,,,,,,,,,,,,,,,2,5.8671,,0,0,30,30,0,1,stimuli/stim_20210706_power2amp/equal_lnn_AM0.6Hz_s35_36.m4a,,,,,,,,,,,,
,,,,,,,,,,,,41439,2021-09-28_11h02.57.242,judgeSpeechMusic_20210921_logNormShiftAmp_detection_fixS,2020.1.2,MacIntel,60,,,,,,,,,,,,,,,,,,1,5.7652,,0,0,31,31,30,1,stimuli/stim_20210706_power2amp/equal_lnn_AM2.4Hz_s35_33.m4a,,,,,,,,,,,,
,,,,,,,,,,,,41439,2021-09-28_11h02.57.242,judgeSpeechMusic_20210921_logNormShiftAmp_detection_fixS,2020.1.2,MacIntel,60,,,,,,,,,,,,,,,,,,1,5.7692,,0,0,32,32,72,1,stimuli/stim_20210706_power2amp/equal_lnn_AM4.2Hz_s35_39.m4a,,,,,,,,,,,,
,,,,,,,,,,,,41439,2021-09-28_11h02.57.242,judgeSpeechMusic_20210921_logNormShiftAmp_detection_fixS,2020.1.2,MacIntel,60,,,,,,,,,,,,,,,,,,2,5.645,,0,0,33,33,28,1,stimuli/stim_20210706_power2amp/equal_lnn_AM1.2Hz_s35_44.m4a,,,,,,,,,,,,
,,,,,,,,,,,,41439,2021-09-28_11h02.57.242,judgeSpeechMusic_20210921_logNormShiftAmp_detection_fixS,2020.1.2,MacIntel,60,,,,,,,,,,,,,,,,,,1,5.5987,,0,0,34,34,69,1,stimuli/stim_20210706_power2amp/equal_lnn_AM4.2Hz_s35_45.m4a,,,,,,,,,,,,
,,,,,,,,,,,,41439,2021-09-28_11h02.57.242,judgeSpeechMusic_20210921_logNormShiftAmp_detection_fixS,2020.1.2,MacIntel,60,,,,,,,,,,,,,,,,,,1,5.5646,,0,0,35,35,55,1,stimuli/stim_20210706_power2amp/equal_lnn_AM3.6Hz_s35_36.m4a,,,,,,,,,,,,
,,,,,,,,,,,,41439,2021-09-28_11h02.57.242,judgeSpeechMusic_20210921_logNormShiftAmp_detection_fixS,2020.1.2,MacIntel,60,,,,,,,,,,,,,,,,,,1,5.433,,0,0,36,36,34,1,stimuli/stim_20210706_power2amp/equal_lnn_AM2.4Hz_s35_38.m4a,,,,,,,,,,,,
,,,,,,,,,,,,41439,2021-09-28_11h02.57.242,judgeSpeechMusic_20210921_logNormShiftAmp_detection_fixS,2020.1.2,MacIntel,60,,,,,,,,,,,,,,,,,,2,6.9092,,0,0,37,37,60,1,stimuli/stim_20210706_power2amp/equal_lnn_AM4.2Hz_s35_2.m4a,,,,,,,,,,,,
,,,,,,,,,,,,41439,2021-09-28_11h02.57.242,judgeSpeechMusic_20210921_logNormShiftAmp_detection_fixS,2020.1.2,MacIntel,60,,,,,,,,,,,,,,,,,,2,8.7027,,0,0,38,38,33,1,stimuli/stim_20210706_power2amp/equal_lnn_AM2.4Hz_s35_11.m4a,,,,,,,,,,,,
,,,,,,,,,,,,41439,2021-09-28_11h02.57.242,judgeSpeechMusic_20210921_logNormShiftAmp_detection_fixS,2020.1.2,MacIntel,60,,,,,,,,,,,,,,,,,,1,5.8653,,0,0,39,39,67,1,stimuli/stim_20210706_power2amp/equal_lnn_AM4.2Hz_s35_17.m4a,,,,,,,,,,,,
,,,,,,,,,,,,41439,2021-09-28_11h02.57.242,judgeSpeechMusic_20210921_logNormShiftAmp_detection_fixS,2020.1.2,MacIntel,60,,,,,,,,,,,,,,,,,,1,5.6494,,0,0,40,40,57,1,stimuli/stim_20210706_power2amp/equal_lnn_AM3.6Hz_s35_2.m4a,,,,,,,,,,,,
,,,,,,,,,,,,41439,2021-09-28_11h02.57.242,judgeSpeechMusic_20210921_logNormShiftAmp_detection_fixS,2020.1.2,MacIntel,60,,,,,,,,,,,,,,,,,,1,6.0833,,0,0,41,41,48,1,stimuli/stim_20210706_power2amp/equal_lnn_AM3.6Hz_s35_43.m4a,,,,,,,,,,,,
,,,,,,,,,,,,41439,2021-09-28_11h02.57.242,judgeSpeechMusic_20210921_logNormShiftAmp_detection_fixS,2020.1.2,MacIntel,60,,,,,,,,,,,,,,,,,,2,6.7477,2,1,0,42,42,22,1,stimuli/stim_20210706_power2amp/equal_lnn_AM1.2Hz_s35_14.m4a,1.1344,,,,,,,,,,,
,,,,,,,,,,,,41439,2021-09-28_11h02.57.242,judgeSpeechMusic_20210921_logNormShiftAmp_detection_fixS,2020.1.2,MacIntel,60,,,,,,,,,,,,,,,,,,2,5.6309,,0,0,43,43,43,1,stimuli/stim_20210706_power2amp/equal_lnn_AM2.4Hz_s35_5.m4a,,,,,,,,,,,,
,,,,,,,,,,,,41439,2021-09-28_11h02.57.242,judgeSpeechMusic_20210921_logNormShiftAmp_detection_fixS,2020.1.2,MacIntel,60,,,,,,,,,,,,,,,,,,2,6.6326,,0,0,44,44,8,1,stimuli/stim_20210706_power2amp/equal_lnn_AM0.6Hz_s35_35.m4a,,,,,,,,,,,,
,,,,,,,,,,,,41439,2021-09-28_11h02.57.242,judgeSpeechMusic_20210921_logNormShiftAmp_detection_fixS,2020.1.2,MacIntel,60,,,,,,,,,,,,,,,,,,2,5.5827,,0,0,45,45,31,1,stimuli/stim_20210706_power2amp/equal_lnn_AM2.4Hz_s35_47.m4a,,,,,,,,,,,,
,,,,,,,,,,,,41439,2021-09-28_11h02.57.242,judgeSpeechMusic_20210921_logNormShiftAmp_detection_fixS,2020.1.2,MacIntel,60,,,,,,,,,,,,,,,,,,1,6.0498,,0,0,46,46,59,1,stimuli/stim_20210706_power2amp/equal_lnn_AM3.6Hz_s35_14.m4a,,,,,,,,,,,,
,,,,,,,,,,,,41439,2021-09-28_11h02.57.242,judgeSpeechMusic_20210921_logNormShiftAmp_detection_fixS,2020.1.2,MacIntel,60,,,,,,,,,,,,,,,,,,1,5.6493,,0,0,47,47,36,1,stimuli/stim_20210706_power2amp/equal_lnn_AM2.4Hz_s35_23.m4a,,,,,,,,,,,,
,,,,,,,,,,,,41439,2021-09-28_11h02.57.242,judgeSpeechMusic_20210921_logNormShiftAmp_detection_fixS,2020.1.2,MacIntel,60,,,,,,,,,,,,,,,,,,2,5.9982,,0,0,48,48,7,1,stimuli/stim_20210706_power2amp/equal_lnn_AM0.6Hz_s35_37.m4a,,,,,,,,,,,,
,,,,,,,,,,,,41439,2021-09-28_11h02.57.242,judgeSpeechMusic_20210921_logNormShiftAmp_detection_fixS,2020.1.2,MacIntel,60,,,,,,,,,,,,,,,,,,1,6.1575,,0,0,49,49,50,1,stimuli/stim_20210706_power2amp/equal_lnn_AM3.6Hz_s35_15.m4a,,,,,,,,,,,,
,,,,,,,,,,,,41439,2021-09-28_11h02.57.242,judgeSpeechMusic_20210921_logNormShiftAmp_detection_fixS,2020.1.2,MacIntel,60,,,,,,,,,,,,,,,,,,2,6.2784,,0,0,50,50,6,1,stimuli/stim_20210706_power2amp/equal_lnn_AM0.6Hz_s35_23.m4a,,,,,,,,,,,,
,,,,,,,,,,,,41439,2021-09-28_11h02.57.242,judgeSpeechMusic_20210921_logNormShiftAmp_detection_fixS,2020.1.2,MacIntel,60,,,,,,,,,,,,,,,,,,1,5.6028,,0,0,51,51,73,1,stimuli/stim_20210706_power2amp/equal_lnn_AM4.2Hz_s35_9.m4a,,,,,,,,,,,,
,,,,,,,,,,,,41439,2021-09-28_11h02.57.242,judgeSpeechMusic_20210921_logNormShiftAmp_detection_fixS,2020.1.2,MacIntel,60,,,,,,,,,,,,,,,,,,1,6.1151,,0,0,52,52,46,1,stimuli/stim_20210706_power2amp/equal_lnn_AM3.6Hz_s35_30.m4a,,,,,,,,,,,,
,,,,,,,,,,,,41439,2021-09-28_11h02.57.242,judgeSpeechMusic_20210921_logNormShiftAmp_detection_fixS,2020.1.2,MacIntel,60,,,,,,,,,,,,,,,,,,1,5.6512,,0,0,53,53,17,1,stimuli/stim_20210706_power2amp/equal_lnn_AM1.2Hz_s35_37.m4a,,,,,,,,,,,,
,,,,,,,,,,,,41439,2021-09-28_11h02.57.242,judgeSpeechMusic_20210921_logNormShiftAmp_detection_fixS,2020.1.2,MacIntel,60,,,,,,,,,,,,,,,,,,2,6.1255,,0,0,54,54,12,1,stimuli/stim_20210706_power2amp/equal_lnn_AM0.6Hz_s35_48.m4a,,,,,,,,,,,,
,,,,,,,,,,,,41439,2021-09-28_11h02.57.242,judgeSpeechMusic_20210921_logNormShiftAmp_detection_fixS,2020.1.2,MacIntel,60,,,,,,,,,,,,,,,,,,2,6.3533,,0,0,55,55,24,1,stimuli/stim_20210706_power2amp/equal_lnn_AM1.2Hz_s35_27.m4a,,,,,,,,,,,,
,,,,,,,,,,,,41439,2021-09-28_11h02.57.242,judgeSpeechMusic_20210921_logNormShiftAmp_detection_fixS,2020.1.2,MacIntel,60,,,,,,,,,,,,,,,,,,1,6.2165,,0,0,56,56,64,1,stimuli/stim_20210706_power2amp/equal_lnn_AM4.2Hz_s35_1.m4a,,,,,,,,,,,,
,,,,,,,,,,,,41439,2021-09-28_11h02.57.242,judgeSpeechMusic_20210921_logNormShiftAmp_detection_fixS,2020.1.2,MacIntel,60,,,,,,,,,,,,,,,,,,2,5.9981,,0,0,57,57,26,1,stimuli/stim_20210706_power2amp/equal_lnn_AM1.2Hz_s35_43.m4a,,,,,,,,,,,,
,,,,,,,,,,,,41439,2021-09-28_11h02.57.242,judgeSpeechMusic_20210921_logNormShiftAmp_detection_fixS,2020.1.2,MacIntel,60,,,,,,,,,,,,,,,,,,1,5.7792,,0,0,58,58,68,1,stimuli/stim_20210706_power2amp/equal_lnn_AM4.2Hz_s35_24.m4a,,,,,,,,,,,,
,,,,,,,,,,,,41439,2021-09-28_11h02.57.242,judgeSpeechMusic_20210921_logNormShiftAmp_detection_fixS,2020.1.2,MacIntel,60,,,,,,,,,,,,,,,,,,1,5.8524,,0,0,59,59,71,1,stimuli/stim_20210706_power2amp/equal_lnn_AM4.2Hz_s35_11.m4a,,,,,,,,,,,,
,,,,,,,,,,,,41439,2021-09-28_11h02.57.242,judgeSpeechMusic_20210921_logNormShiftAmp_detection_fixS,2020.1.2,MacIntel,60,,,,,,,,,,,,,,,,,,2,5.5117,,0,0,60,60,27,1,stimuli/stim_20210706_power2amp/equal_lnn_AM1.2Hz_s35_17.m4a,,,,,,,,,,,,
,,,,,,,,,,,,41439,2021-09-28_11h02.57.242,judgeSpeechMusic_20210921_logNormShiftAmp_detection_fixS,2020.1.2,MacIntel,60,,,,,,,,,,,,,,,,,,2,5.5865,4,1,0,61,61,37,1,stimuli/stim_20210706_power2amp/equal_lnn_AM2.4Hz_s35_48.m4a,2.0469,,,,,,,,,,,
,,,,,,,,,,,,41439,2021-09-28_11h02.57.242,judgeSpeechMusic_20210921_logNormShiftAmp_detection_fixS,2020.1.2,MacIntel,60,,,,,,,,,,,,,,,,,,2,5.6361,,0,0,62,62,25,1,stimuli/stim_20210706_power2amp/equal_lnn_AM1.2Hz_s35_47.m4a,,,,,,,,,,,,
,,,,,,,,,,,,41439,2021-09-28_11h02.57.242,judgeSpeechMusic_20210921_logNormShiftAmp_detection_fixS,2020.1.2,MacIntel,60,,,,,,,,,,,,,,,,,,2,5.615,,0,0,63,63,13,1,stimuli/stim_20210706_power2amp/equal_lnn_AM0.6Hz_s35_26.m4a,,,,,,,,,,,,
,,,,,,,,,,,,41439,2021-09-28_11h02.57.242,judgeSpeechMusic_20210921_logNormShiftAmp_detection_fixS,2020.1.2,MacIntel,60,,,,,,,,,,,,,,,,,,1,5.6592,,0,0,64,64,58,1,stimuli/stim_20210706_power2amp/equal_lnn_AM3.6Hz_s35_23.m4a,,,,,,,,,,,,
,,,,,,,,,,,,41439,2021-09-28_11h02.57.242,judgeSpeechMusic_20210921_logNormShiftAmp_detection_fixS,2020.1.2,MacIntel,60,,,,,,,,,,,,,,,,,,2,5.8295,,0,0,65,65,41,1,stimuli/stim_20210706_power2amp/equal_lnn_AM2.4Hz_s35_45.m4a,,,,,,,,,,,,
,,,,,,,,,,,,41439,2021-09-28_11h02.57.242,judgeSpeechMusic_20210921_logNormShiftAmp_detection_fixS,2020.1.2,MacIntel,60,,,,,,,,,,,,,,,,,,2,5.7679,,0,0,66,66,18,1,stimuli/stim_20210706_power2amp/equal_lnn_AM1.2Hz_s35_3.m4a,,,,,,,,,,,,
,,,,,,,,,,,,41439,2021-09-28_11h02.57.242,judgeSpeechMusic_20210921_logNormShiftAmp_detection_fixS,2020.1.2,MacIntel,60,,,,,,,,,,,,,,,,,,1,6.3162,,0,0,67,67,23,1,stimuli/stim_20210706_power2amp/equal_lnn_AM1.2Hz_s35_26.m4a,,,,,,,,,,,,
,,,,,,,,,,,,41439,2021-09-28_11h02.57.242,judgeSpeechMusic_20210921_logNormShiftAmp_detection_fixS,2020.1.2,MacIntel,60,,,,,,,,,,,,,,,,,,2,6.5748,,0,0,68,68,21,1,stimuli/stim_20210706_power2amp/equal_lnn_AM1.2Hz_s35_6.m4a,,,,,,,,,,,,
,,,,,,,,,,,,41439,2021-09-28_11h02.57.242,judgeSpeechMusic_20210921_logNormShiftAmp_detection_fixS,2020.1.2,MacIntel,60,,,,,,,,,,,,,,,,,,2,5.5452,,0,0,69,69,32,1,stimuli/stim_20210706_power2amp/equal_lnn_AM2.4Hz_s35_40.m4a,,,,,,,,,,,,
,,,,,,,,,,,,41439,2021-09-28_11h02.57.242,judgeSpeechMusic_20210921_logNormShiftAmp_detection_fixS,2020.1.2,MacIntel,60,,,,,,,,,,,,,,,,,,2,5.8804,,0,0,70,70,14,1,stimuli/stim_20210706_power2amp/equal_lnn_AM0.6Hz_s35_29.m4a,,,,,,,,,,,,
,,,,,,,,,,,,41439,2021-09-28_11h02.57.242,judgeSpeechMusic_20210921_logNormShiftAmp_detection_fixS,2020.1.2,MacIntel,60,,,,,,,,,,,,,,,,,,1,5.6381,,0,0,71,71,44,1,stimuli/stim_20210706_power2amp/equal_lnn_AM2.4Hz_s35_4.m4a,,,,,,,,,,,,
,,,,,,,,,,,,41439,2021-09-28_11h02.57.242,judgeSpeechMusic_20210921_logNormShiftAmp_detection_fixS,2020.1.2,MacIntel,60,,,,,,,,,,,,,,,,,,1,6.0798,,0,0,72,72,52,1,stimuli/stim_20210706_power2amp/equal_lnn_AM3.6Hz_s35_25.m4a,,,,,,,,,,,,
,,,,,,,,,,,,41439,2021-09-28_11h02.57.242,judgeSpeechMusic_20210921_logNormShiftAmp_detection_fixS,2020.1.2,MacIntel,60,,,,,,,,,,,,,,,,,,1,5.616,,0,0,73,73,42,1,stimuli/stim_20210706_power2amp/equal_lnn_AM2.4Hz_s35_10.m4a,,,,,,,,,,,,
,,,,,,,,,,,,41439,2021-09-28_11h02.57.242,judgeSpeechMusic_20210921_logNormShiftAmp_detection_fixS,2020.1.2,MacIntel,60,,,,,,,,,,,,,,,,,,2,5.8984,,0,0,74,74,3,1,stimuli/stim_20210706_power2amp/equal_lnn_AM0.6Hz_s35_12.m4a,,,,,,,,,,,,
,,,,,,,,,,,,41439,2021-09-28_11h02.57.242,judgeSpeechMusic_20210921_logNormShiftAmp_detection_fixS,2020.1.2,MacIntel,60,,,,,,,,,,,,,,,,,,,,,,,,,,,,,space,0.8656,0,1,1,0,1,MUSIC,stimuli/MUSIC.jpg,,
,,,,,,,,,,,,41439,2021-09-28_11h02.57.242,judgeSpeechMusic_20210921_logNormShiftAmp_detection_fixS,2020.1.2,MacIntel,60,,,,,,0,0,0,0,2,1,stimuli/stim_20210706_power2amp/equal_lnn_AM_training3Hz_s35.m4a,,,,,,,,,,,,,,,,,,,,,,,,,,,
,,,,,,,,,,,,41439,2021-09-28_11h02.57.242,judgeSpeechMusic_20210921_logNormShiftAmp_detection_fixS,2020.1.2,MacIntel,60,,,,,,,,,,,,,,space,3.4926,space,0.001,2,6.3311,,0,0,0,0,65,1,stimuli/stim_20210706_power2amp/equal_lnn_AM4.2Hz_s35_34.m4a,,,,,,,,,,,,
,,,,,,,,,,,,41439,2021-09-28_11h02.57.242,judgeSpeechMusic_20210921_logNormShiftAmp_detection_fixS,2020.1.2,MacIntel,60,,,,,,,,,,,,,,,,,,2,5.6081,,0,0,1,1,49,1,stimuli/stim_20210706_power2amp/equal_lnn_AM3.6Hz_s35_33.m4a,,,,,,,,,,,,
,,,,,,,,,,,,41439,2021-09-28_11h02.57.242,judgeSpeechMusic_20210921_logNormShiftAmp_detection_fixS,2020.1.2,MacIntel,60,,,,,,,,,,,,,,,,,,1,5.5959,,0,0,2,2,21,1,stimuli/stim_20210706_power2amp/equal_lnn_AM1.2Hz_s35_6.m4a,,,,,,,,,,,,
,,,,,,,,,,,,41439,2021-09-28_11h02.57.242,judgeSpeechMusic_20210921_logNormShiftAmp_detection_fixS,2020.1.2,MacIntel,60,,,,,,,,,,,,,,,,,,1,5.5862,,0,0,3,3,3,1,stimuli/stim_20210706_power2amp/equal_lnn_AM0.6Hz_s35_12.m4a,,,,,,,,,,,,
,,,,,,,,,,,,41439,2021-09-28_11h02.57.242,judgeSpeechMusic_20210921_logNormShiftAmp_detection_fixS,2020.1.2,MacIntel,60,,,,,,,,,,,,,,,,,,2,5.5993,,0,0,4,4,57,1,stimuli/stim_20210706_power2amp/equal_lnn_AM3.6Hz_s35_2.m4a,,,,,,,,,,,,
,,,,,,,,,,,,41439,2021-09-28_11h02.57.242,judgeSpeechMusic_20210921_logNormShiftAmp_detection_fixS,2020.1.2,MacIntel,60,,,,,,,,,,,,,,,,,,2,5.9261,,0,0,5,5,36,1,stimuli/stim_20210706_power2amp/equal_lnn_AM2.4Hz_s35_23.m4a,,,,,,,,,,,,
,,,,,,,,,,,,41439,2021-09-28_11h02.57.242,judgeSpeechMusic_20210921_logNormShiftAmp_detection_fixS,2020.1.2,MacIntel,60,,,,,,,,,,,,,,,,,,1,5.9631,,0,0,6,6,8,1,stimuli/stim_20210706_power2amp/equal_lnn_AM0.6Hz_s35_35.m4a,,,,,,,,,,,,
,,,,,,,,,,,,41439,2021-09-28_11h02.57.242,judgeSpeechMusic_20210921_logNormShiftAmp_detection_fixS,2020.1.2,MacIntel,60,,,,,,,,,,,,,,,,,,1,6.3112,,0,0,7,7,23,1,stimuli/stim_20210706_power2amp/equal_lnn_AM1.2Hz_s35_26.m4a,,,,,,,,,,,,
,,,,,,,,,,,,41439,2021-09-28_11h02.57.242,judgeSpeechMusic_20210921_logNormShiftAmp_detection_fixS,2020.1.2,MacIntel,60,,,,,,,,,,,,,,,,,,1,6.6426,,0,0,8,8,60,1,stimuli/stim_20210706_power2amp/equal_lnn_AM4.2Hz_s35_2.m4a,,,,,,,,,,,,
,,,,,,,,,,,,41439,2021-09-28_11h02.57.242,judgeSpeechMusic_20210921_logNormShiftAmp_detection_fixS,2020.1.2,MacIntel,60,,,,,,,,,,,,,,,,,,1,6.4118,,0,0,9,9,33,1,stimuli/stim_20210706_power2amp/equal_lnn_AM2.4Hz_s35_11.m4a,,,,,,,,,,,,
,,,,,,,,,,,,41439,2021-09-28_11h02.57.242,judgeSpeechMusic_20210921_logNormShiftAmp_detection_fixS,2020.1.2,MacIntel,60,,,,,,,,,,,,,,,,,,1,6.6833,,0,0,10,10,29,1,stimuli/stim_20210706_power2amp/equal_lnn_AM1.2Hz_s35_15.m4a,,,,,,,,,,,,
,,,,,,,,,,,,41439,2021-09-28_11h02.57.242,judgeSpeechMusic_20210921_logNormShiftAmp_detection_fixS,2020.1.2,MacIntel,60,,,,,,,,,,,,,,,,,,1,6.6825,,0,0,11,11,4,1,stimuli/stim_20210706_power2amp/equal_lnn_AM0.6Hz_s35_43.m4a,,,,,,,,,,,,
,,,,,,,,,,,,41439,2021-09-28_11h02.57.242,judgeSpeechMusic_20210921_logNormShiftAmp_detection_fixS,2020.1.2,MacIntel,60,,,,,,,,,,,,,,,,,,1,5.6661,,0,0,12,12,37,1,stimuli/stim_20210706_power2amp/equal_lnn_AM2.4Hz_s35_48.m4a,,,,,,,,,,,,
,,,,,,,,,,,,41439,2021-09-28_11h02.57.242,judgeSpeechMusic_20210921_logNormShiftAmp_detection_fixS,2020.1.2,MacIntel,60,,,,,,,,,,,,,,,,,,2,7.266,,0,0,13,13,55,1,stimuli/stim_20210706_power2amp/equal_lnn_AM3.6Hz_s35_36.m4a,,,,,,,,,,,,
,,,,,,,,,,,,41439,2021-09-28_11h02.57.242,judgeSpeechMusic_20210921_logNormShiftAmp_detection_fixS,2020.1.2,MacIntel,60,,,,,,,,,,,,,,,,,,1,5.9317,,0,0,14,14,24,1,stimuli/stim_20210706_power2amp/equal_lnn_AM1.2Hz_s35_27.m4a,,,,,,,,,,,,
,,,,,,,,,,,,41439,2021-09-28_11h02.57.242,judgeSpeechMusic_20210921_logNormShiftAmp_detection_fixS,2020.1.2,MacIntel,60,,,,,,,,,,,,,,,,,,1,6.3988,,0,0,15,15,14,1,stimuli/stim_20210706_power2amp/equal_lnn_AM0.6Hz_s35_29.m4a,,,,,,,,,,,,
,,,,,,,,,,,,41439,2021-09-28_11h02.57.242,judgeSpeechMusic_20210921_logNormShiftAmp_detection_fixS,2020.1.2,MacIntel,60,,,,,,,,,,,,,,,,,,2,5.6149,,0,0,16,16,58,1,stimuli/stim_20210706_power2amp/equal_lnn_AM3.6Hz_s35_23.m4a,,,,,,,,,,,,
,,,,,,,,,,,,41439,2021-09-28_11h02.57.242,judgeSpeechMusic_20210921_logNormShiftAmp_detection_fixS,2020.1.2,MacIntel,60,,,,,,,,,,,,,,,,,,1,5.8991,,0,0,17,17,10,1,stimuli/stim_20210706_power2amp/equal_lnn_AM0.6Hz_s35_27.m4a,,,,,,,,,,,,
,,,,,,,,,,,,41439,2021-09-28_11h02.57.242,judgeSpeechMusic_20210921_logNormShiftAmp_detection_fixS,2020.1.2,MacIntel,60,,,,,,,,,,,,,,,,,,2,5.4502,,0,0,18,18,31,1,stimuli/stim_20210706_power2amp/equal_lnn_AM2.4Hz_s35_47.m4a,,,,,,,,,,,,
,,,,,,,,,,,,41439,2021-09-28_11h02.57.242,judgeSpeechMusic_20210921_logNormShiftAmp_detection_fixS,2020.1.2,MacIntel,60,,,,,,,,,,,,,,,,,,2,5.5836,,0,0,19,19,62,1,stimuli/stim_20210706_power2amp/equal_lnn_AM4.2Hz_s35_47.m4a,,,,,,,,,,,,
,,,,,,,,,,,,41439,2021-09-28_11h02.57.242,judgeSpeechMusic_20210921_logNormShiftAmp_detection_fixS,2020.1.2,MacIntel,60,,,,,,,,,,,,,,,,,,1,7.1176,,0,0,20,20,20,1,stimuli/stim_20210706_power2amp/equal_lnn_AM1.2Hz_s35_48.m4a,,,,,,,,,,,,
,,,,,,,,,,,,41439,2021-09-28_11h02.57.242,judgeSpeechMusic_20210921_logNormShiftAmp_detection_fixS,2020.1.2,MacIntel,60,,,,,,,,,,,,,,,,,,1,5.5512,4,1,0,21,21,12,1,stimuli/stim_20210706_power2amp/equal_lnn_AM0.6Hz_s35_48.m4a,1.2341,,,,,,,,,,,
,,,,,,,,,,,,41439,2021-09-28_11h02.57.242,judgeSpeechMusic_20210921_logNormShiftAmp_detection_fixS,2020.1.2,MacIntel,60,,,,,,,,,,,,,,,,,,2,6.2493,,0,0,22,22,51,1,stimuli/stim_20210706_power2amp/equal_lnn_AM3.6Hz_s35_24.m4a,,,,,,,,,,,,
,,,,,,,,,,,,41439,2021-09-28_11h02.57.242,judgeSpeechMusic_20210921_logNormShiftAmp_detection_fixS,2020.1.2,MacIntel,60,,,,,,,,,,,,,,,,,,1,7.4857,,0,0,23,23,18,1,stimuli/stim_20210706_power2amp/equal_lnn_AM1.2Hz_s35_3.m4a,,,,,,,,,,,,
,,,,,,,,,,,,41439,2021-09-28_11h02.57.242,judgeSpeechMusic_20210921_logNormShiftAmp_detection_fixS,2020.1.2,MacIntel,60,,,,,,,,,,,,,,,,,,1,6.2487,,0,0,24,24,27,1,stimuli/stim_20210706_power2amp/equal_lnn_AM1.2Hz_s35_17.m4a,,,,,,,,,,,,
,,,,,,,,,,,,41439,2021-09-28_11h02.57.242,judgeSpeechMusic_20210921_logNormShiftAmp_detection_fixS,2020.1.2,MacIntel,60,,,,,,,,,,,,,,,,,,2,5.9558,,0,0,25,25,38,1,stimuli/stim_20210706_power2amp/equal_lnn_AM2.4Hz_s35_39.m4a,,,,,,,,,,,,
,,,,,,,,,,,,41439,2021-09-28_11h02.57.242,judgeSpeechMusic_20210921_logNormShiftAmp_detection_fixS,2020.1.2,MacIntel,60,,,,,,,,,,,,,,,,,,1,5.7205,,0,0,26,26,16,1,stimuli/stim_20210706_power2amp/equal_lnn_AM1.2Hz_s35_42.m4a,,,,,,,,,,,,
,,,,,,,,,,,,41439,2021-09-28_11h02.57.242,judgeSpeechMusic_20210921_logNormShiftAmp_detection_fixS,2020.1.2,MacIntel,60,,,,,,,,,,,,,,,,,,1,5.6073,,0,0,27,27,25,1,stimuli/stim_20210706_power2amp/equal_lnn_AM1.2Hz_s35_47.m4a,,,,,,,,,,,,
,,,,,,,,,,,,41439,2021-09-28_11h02.57.242,judgeSpeechMusic_20210921_logNormShiftAmp_detection_fixS,2020.1.2,MacIntel,60,,,,,,,,,,,,,,,,,,1,5.5204,,0,0,28,28,22,1,stimuli/stim_20210706_power2amp/equal_lnn_AM1.2Hz_s35_14.m4a,,,,,,,,,,,,
,,,,,,,,,,,,41439,2021-09-28_11h02.57.242,judgeSpeechMusic_20210921_logNormShiftAmp_detection_fixS,2020.1.2,MacIntel,60,,,,,,,,,,,,,,,,,,2,6.2406,,0,0,29,29,59,1,stimuli/stim_20210706_power2amp/equal_lnn_AM3.6Hz_s35_14.m4a,,,,,,,,,,,,
,,,,,,,,,,,,41439,2021-09-28_11h02.57.242,judgeSpeechMusic_20210921_logNormShiftAmp_detection_fixS,2020.1.2,MacIntel,60,,,,,,,,,,,,,,,,,,2,5.6784,,0,0,30,30,70,1,stimuli/stim_20210706_power2amp/equal_lnn_AM4.2Hz_s35_41.m4a,,,,,,,,,,,,
,,,,,,,,,,,,41439,2021-09-28_11h02.57.242,judgeSpeechMusic_20210921_logNormShiftAmp_detection_fixS,2020.1.2,MacIntel,60,,,,,,,,,,,,,,,,,,1,6.6042,,0,0,31,31,15,1,stimuli/stim_20210706_power2amp/equal_lnn_AM1.2Hz_s35_21.m4a,,,,,,,,,,,,
,,,,,,,,,,,,41439,2021-09-28_11h02.57.242,judgeSpeechMusic_20210921_logNormShiftAmp_detection_fixS,2020.1.2,MacIntel,60,,,,,,,,,,,,,,,,,,1,6.5824,,0,0,32,32,6,1,stimuli/stim_20210706_power2amp/equal_lnn_AM0.6Hz_s35_23.m4a,,,,,,,,,,,,
,,,,,,,,,,,,41439,2021-09-28_11h02.57.242,judgeSpeechMusic_20210921_logNormShiftAmp_detection_fixS,2020.1.2,MacIntel,60,,,,,,,,,,,,,,,,,,2,5.9496,,0,0,33,33,32,1,stimuli/stim_20210706_power2amp/equal_lnn_AM2.4Hz_s35_40.m4a,,,,,,,,,,,,
,,,,,,,,,,,,41439,2021-09-28_11h02.57.242,judgeSpeechMusic_20210921_logNormShiftAmp_detection_fixS,2020.1.2,MacIntel,60,,,,,,,,,,,,,,,,,,2,5.5994,,0,0,34,34,63,1,stimuli/stim_20210706_power2amp/equal_lnn_AM4.2Hz_s35_15.m4a,,,,,,,,,,,,
,,,,,,,,,,,,41439,2021-09-28_11h02.57.242,judgeSpeechMusic_20210921_logNormShiftAmp_detection_fixS,2020.1.2,MacIntel,60,,,,,,,,,,,,,,,,,,1,5.9653,,0,0,35,35,26,1,stimuli/stim_20210706_power2amp/equal_lnn_AM1.2Hz_s35_43.m4a,,,,,,,,,,,,
,,,,,,,,,,,,41439,2021-09-28_11h02.57.242,judgeSpeechMusic_20210921_logNormShiftAmp_detection_fixS,2020.1.2,MacIntel,60,,,,,,,,,,,,,,,,,,1,6.3146,,0,0,36,36,13,1,stimuli/stim_20210706_power2amp/equal_lnn_AM0.6Hz_s35_26.m4a,,,,,,,,,,,,
,,,,,,,,,,,,41439,2021-09-28_11h02.57.242,judgeSpeechMusic_20210921_logNormShiftAmp_detection_fixS,2020.1.2,MacIntel,60,,,,,,,,,,,,,,,,,,1,6.2669,,0,0,37,37,40,1,stimuli/stim_20210706_power2amp/equal_lnn_AM2.4Hz_s35_42.m4a,,,,,,,,,,,,
,,,,,,,,,,,,41439,2021-09-28_11h02.57.242,judgeSpeechMusic_20210921_logNormShiftAmp_detection_fixS,2020.1.2,MacIntel,60,,,,,,,,,,,,,,,,,,2,6.8984,,0,0,38,38,30,1,stimuli/stim_20210706_power2amp/equal_lnn_AM2.4Hz_s35_33.m4a,,,,,,,,,,,,
,,,,,,,,,,,,41439,2021-09-28_11h02.57.242,judgeSpeechMusic_20210921_logNormShiftAmp_detection_fixS,2020.1.2,MacIntel,60,,,,,,,,,,,,,,,,,,2,5.6646,,0,0,39,39,45,1,stimuli/stim_20210706_power2amp/equal_lnn_AM3.6Hz_s35_11.m4a,,,,,,,,,,,,
,,,,,,,,,,,,41439,2021-09-28_11h02.57.242,judgeSpeechMusic_20210921_logNormShiftAmp_detection_fixS,2020.1.2,MacIntel,60,,,,,,,,,,,,,,,,,,2,5.633,,0,0,40,40,52,1,stimuli/stim_20210706_power2amp/equal_lnn_AM3.6Hz_s35_25.m4a,,,,,,,,,,,,
,,,,,,,,,,,,41439,2021-09-28_11h02.57.242,judgeSpeechMusic_20210921_logNormShiftAmp_detection_fixS,2020.1.2,MacIntel,60,,,,,,,,,,,,,,,,,,2,6.7326,,0,0,41,41,74,1,stimuli/stim_20210706_power2amp/equal_lnn_AM4.2Hz_s35_30.m4a,,,,,,,,,,,,
,,,,,,,,,,,,41439,2021-09-28_11h02.57.242,judgeSpeechMusic_20210921_logNormShiftAmp_detection_fixS,2020.1.2,MacIntel,60,,,,,,,,,,,,,,,,,,1,6.334,1,1,0,42,42,11,1,stimuli/stim_20210706_power2amp/equal_lnn_AM0.6Hz_s35_47.m4a,1.1008,,,,,,,,,,,
,,,,,,,,,,,,41439,2021-09-28_11h02.57.242,judgeSpeechMusic_20210921_logNormShiftAmp_detection_fixS,2020.1.2,MacIntel,60,,,,,,,,,,,,,,,,,,2,5.6259,,0,0,43,43,72,1,stimuli/stim_20210706_power2amp/equal_lnn_AM4.2Hz_s35_39.m4a,,,,,,,,,,,,
,,,,,,,,,,,,41439,2021-09-28_11h02.57.242,judgeSpeechMusic_20210921_logNormShiftAmp_detection_fixS,2020.1.2,MacIntel,60,,,,,,,,,,,,,,,,,,1,5.721,,0,0,44,44,9,1,stimuli/stim_20210706_power2amp/equal_lnn_AM0.6Hz_s35_7.m4a,,,,,,,,,,,,
,,,,,,,,,,,,41439,2021-09-28_11h02.57.242,judgeSpeechMusic_20210921_logNormShiftAmp_detection_fixS,2020.1.2,MacIntel,60,,,,,,,,,,,,,,,,,,2,6.3972,,0,0,45,45,47,1,stimuli/stim_20210706_power2amp/equal_lnn_AM3.6Hz_s35_42.m4a,,,,,,,,,,,,
,,,,,,,,,,,,41439,2021-09-28_11h02.57.242,judgeSpeechMusic_20210921_logNormShiftAmp_detection_fixS,2020.1.2,MacIntel,60,,,,,,,,,,,,,,,,,,2,6.2586,,0,0,46,46,44,1,stimuli/stim_20210706_power2amp/equal_lnn_AM2.4Hz_s35_4.m4a,,,,,,,,,,,,
,,,,,,,,,,,,41439,2021-09-28_11h02.57.242,judgeSpeechMusic_20210921_logNormShiftAmp_detection_fixS,2020.1.2,MacIntel,60,,,,,,,,,,,,,,,,,,1,5.6192,,0,0,47,47,0,1,stimuli/stim_20210706_power2amp/equal_lnn_AM0.6Hz_s35_36.m4a,,,,,,,,,,,,
,,,,,,,,,,,,41439,2021-09-28_11h02.57.242,judgeSpeechMusic_20210921_logNormShiftAmp_detection_fixS,2020.1.2,MacIntel,60,,,,,,,,,,,,,,,,,,2,6.4821,,0,0,48,48,54,1,stimuli/stim_20210706_power2amp/equal_lnn_AM3.6Hz_s35_7.m4a,,,,,,,,,,,,
,,,,,,,,,,,,41439,2021-09-28_11h02.57.242,judgeSpeechMusic_20210921_logNormShiftAmp_detection_fixS,2020.1.2,MacIntel,60,,,,,,,,,,,,,,,,,,2,5.5997,,0,0,49,49,69,1,stimuli/stim_20210706_power2amp/equal_lnn_AM4.2Hz_s35_45.m4a,,,,,,,,,,,,
,,,,,,,,,,,,41439,2021-09-28_11h02.57.242,judgeSpeechMusic_20210921_logNormShiftAmp_detection_fixS,2020.1.2,MacIntel,60,,,,,,,,,,,,,,,,,,1,7.8854,,0,0,50,50,1,1,stimuli/stim_20210706_power2amp/equal_lnn_AM0.6Hz_s35_6.m4a,,,,,,,,,,,,
,,,,,,,,,,,,41439,2021-09-28_11h02.57.242,judgeSpeechMusic_20210921_logNormShiftAmp_detection_fixS,2020.1.2,MacIntel,60,,,,,,,,,,,,,,,,,,1,7.5832,,0,0,51,51,2,1,stimuli/stim_20210706_power2amp/equal_lnn_AM0.6Hz_s35_5.m4a,,,,,,,,,,,,
,,,,,,,,,,,,41439,2021-09-28_11h02.57.242,judgeSpeechMusic_20210921_logNormShiftAmp_detection_fixS,2020.1.2,MacIntel,60,,,,,,,,,,,,,,,,,,2,5.8818,,0,0,52,52,73,1,stimuli/stim_20210706_power2amp/equal_lnn_AM4.2Hz_s35_9.m4a,,,,,,,,,,,,
,,,,,,,,,,,,41439,2021-09-28_11h02.57.242,judgeSpeechMusic_20210921_logNormShiftAmp_detection_fixS,2020.1.2,MacIntel,60,,,,,,,,,,,,,,,,,,2,5.4826,,0,0,53,53,46,1,stimuli/stim_20210706_power2amp/equal_lnn_AM3.6Hz_s35_30.m4a,,,,,,,,,,,,
,,,,,,,,,,,,41439,2021-09-28_11h02.57.242,judgeSpeechMusic_20210921_logNormShiftAmp_detection_fixS,2020.1.2,MacIntel,60,,,,,,,,,,,,,,,,,,2,5.3485,,0,0,54,54,56,1,stimuli/stim_20210706_power2amp/equal_lnn_AM3.6Hz_s35_29.m4a,,,,,,,,,,,,
,,,,,,,,,,,,41439,2021-09-28_11h02.57.242,judgeSpeechMusic_20210921_logNormShiftAmp_detection_fixS,2020.1.2,MacIntel,60,,,,,,,,,,,,,,,,,,2,5.815,,0,0,55,55,19,1,stimuli/stim_20210706_power2amp/equal_lnn_AM1.2Hz_s35_1.m4a,,,,,,,,,,,,
,,,,,,,,,,,,41439,2021-09-28_11h02.57.242,judgeSpeechMusic_20210921_logNormShiftAmp_detection_fixS,2020.1.2,MacIntel,60,,,,,,,,,,,,,,,,,,2,5.5485,,0,0,56,56,35,1,stimuli/stim_20210706_power2amp/equal_lnn_AM2.4Hz_s35_9.m4a,,,,,,,,,,,,
,,,,,,,,,,,,41439,2021-09-28_11h02.57.242,judgeSpeechMusic_20210921_logNormShiftAmp_detection_fixS,2020.1.2,MacIntel,60,,,,,,,,,,,,,,,,,,2,5.6832,,0,0,57,57,41,1,stimuli/stim_20210706_power2amp/equal_lnn_AM2.4Hz_s35_45.m4a,,,,,,,,,,,,
,,,,,,,,,,,,41439,2021-09-28_11h02.57.242,judgeSpeechMusic_20210921_logNormShiftAmp_detection_fixS,2020.1.2,MacIntel,60,,,,,,,,,,,,,,,,,,2,6.3807,,0,0,58,58,61,1,stimuli/stim_20210706_power2amp/equal_lnn_AM4.2Hz_s35_13.m4a,,,,,,,,,,,,
,,,,,,,,,,,,41439,2021-09-28_11h02.57.242,judgeSpeechMusic_20210921_logNormShiftAmp_detection_fixS,2020.1.2,MacIntel,60,,,,,,,,,,,,,,,,,,2,6.5582,,0,0,59,59,39,1,stimuli/stim_20210706_power2amp/equal_lnn_AM2.4Hz_s35_27.m4a,,,,,,,,,,,,
,,,,,,,,,,,,41439,2021-09-28_11h02.57.242,judgeSpeechMusic_20210921_logNormShiftAmp_detection_fixS,2020.1.2,MacIntel,60,,,,,,,,,,,,,,,,,,2,5.5579,,0,0,60,60,53,1,stimuli/stim_20210706_power2amp/equal_lnn_AM3.6Hz_s35_31.m4a,,,,,,,,,,,,
,,,,,,,,,,,,41439,2021-09-28_11h02.57.242,judgeSpeechMusic_20210921_logNormShiftAmp_detection_fixS,2020.1.2,MacIntel,60,,,,,,,,,,,,,,,,,,2,5.5458,3,1,0,61,61,68,1,stimuli/stim_20210706_power2amp/equal_lnn_AM4.2Hz_s35_24.m4a,1.0831,,,,,,,,,,,
,,,,,,,,,,,,41439,2021-09-28_11h02.57.242,judgeSpeechMusic_20210921_logNormShiftAmp_detection_fixS,2020.1.2,MacIntel,60,,,,,,,,,,,,,,,,,,2,5.5837,,0,0,62,62,48,1,stimuli/stim_20210706_power2amp/equal_lnn_AM3.6Hz_s35_43.m4a,,,,,,,,,,,,
,,,,,,,,,,,,41439,2021-09-28_11h02.57.242,judgeSpeechMusic_20210921_logNormShiftAmp_detection_fixS,2020.1.2,MacIntel,60,,,,,,,,,,,,,,,,,,1,5.6906,,0,0,63,63,7,1,stimuli/stim_20210706_power2amp/equal_lnn_AM0.6Hz_s35_37.m4a,,,,,,,,,,,,
,,,,,,,,,,,,41439,2021-09-28_11h02.57.242,judgeSpeechMusic_20210921_logNormShiftAmp_detection_fixS,2020.1.2,MacIntel,60,,,,,,,,,,,,,,,,,,1,5.6179,,0,0,64,64,17,1,stimuli/stim_20210706_power2amp/equal_lnn_AM1.2Hz_s35_37.m4a,,,,,,,,,,,,
,,,,,,,,,,,,41439,2021-09-28_11h02.57.242,judgeSpeechMusic_20210921_logNormShiftAmp_detection_fixS,2020.1.2,MacIntel,60,,,,,,,,,,,,,,,,,,1,6.5658,,0,0,65,65,64,1,stimuli/stim_20210706_power2amp/equal_lnn_AM4.2Hz_s35_1.m4a,,,,,,,,,,,,
,,,,,,,,,,,,41439,2021-09-28_11h02.57.242,judgeSpeechMusic_20210921_logNormShiftAmp_detection_fixS,2020.1.2,MacIntel,60,,,,,,,,,,,,,,,,,,1,5.9649,,0,0,66,66,42,1,stimuli/stim_20210706_power2amp/equal_lnn_AM2.4Hz_s35_10.m4a,,,,,,,,,,,,
,,,,,,,,,,,,41439,2021-09-28_11h02.57.242,judgeSpeechMusic_20210921_logNormShiftAmp_detection_fixS,2020.1.2,MacIntel,60,,,,,,,,,,,,,,,,,,2,5.5832,,0,0,67,67,67,1,stimuli/stim_20210706_power2amp/equal_lnn_AM4.2Hz_s35_17.m4a,,,,,,,,,,,,
,,,,,,,,,,,,41439,2021-09-28_11h02.57.242,judgeSpeechMusic_20210921_logNormShiftAmp_detection_fixS,2020.1.2,MacIntel,60,,,,,,,,,,,,,,,,,,1,8.2171,,0,0,68,68,43,1,stimuli/stim_20210706_power2amp/equal_lnn_AM2.4Hz_s35_5.m4a,,,,,,,,,,,,
,,,,,,,,,,,,41439,2021-09-28_11h02.57.242,judgeSpeechMusic_20210921_logNormShiftAmp_detection_fixS,2020.1.2,MacIntel,60,,,,,,,,,,,,,,,,,,2,5.8996,,0,0,69,69,66,1,stimuli/stim_20210706_power2amp/equal_lnn_AM4.2Hz_s35_6.m4a,,,,,,,,,,,,
,,,,,,,,,,,,41439,2021-09-28_11h02.57.242,judgeSpeechMusic_20210921_logNormShiftAmp_detection_fixS,2020.1.2,MacIntel,60,,,,,,,,,,,,,,,,,,1,5.8293,,0,0,70,70,5,1,stimuli/stim_20210706_power2amp/equal_lnn_AM0.6Hz_s35_39.m4a,,,,,,,,,,,,
,,,,,,,,,,,,41439,2021-09-28_11h02.57.242,judgeSpeechMusic_20210921_logNormShiftAmp_detection_fixS,2020.1.2,MacIntel,60,,,,,,,,,,,,,,,,,,2,5.558,,0,0,71,71,71,1,stimuli/stim_20210706_power2amp/equal_lnn_AM4.2Hz_s35_11.m4a,,,,,,,,,,,,
,,,,,,,,,,,,41439,2021-09-28_11h02.57.242,judgeSpeechMusic_20210921_logNormShiftAmp_detection_fixS,2020.1.2,MacIntel,60,,,,,,,,,,,,,,,,,,1,6.963,,0,0,72,72,28,1,stimuli/stim_20210706_power2amp/equal_lnn_AM1.2Hz_s35_44.m4a,,,,,,,,,,,,
,,,,,,,,,,,,41439,2021-09-28_11h02.57.242,judgeSpeechMusic_20210921_logNormShiftAmp_detection_fixS,2020.1.2,MacIntel,60,,,,,,,,,,,,,,,,,,2,6.0043,,0,0,73,73,50,1,stimuli/stim_20210706_power2amp/equal_lnn_AM3.6Hz_s35_15.m4a,,,,,,,,,,,,
,,,,,,,,,,,,41439,2021-09-28_11h02.57.242,judgeSpeechMusic_20210921_logNormShiftAmp_detection_fixS,2020.1.2,MacIntel,60,,,,,,,,,,,,,,,,,,2,5.5756,,0,0,74,74,34,1,stimuli/stim_20210706_power2amp/equal_lnn_AM2.4Hz_s35_38.m4a,,,,,,,,,,,,
,,,,,,,,,,,,41439,2021-09-28_11h02.57.242,judgeSpeechMusic_20210921_logNormShiftAmp_detection_fixS,2020.1.2,MacIntel,60,,,,,,,,,,,,,,,,,,,,,,,,,,,,,space,0.7276,1,0,2,1,1,SPEECH,stimuli/SPEECH.jpg,,
,,,,,,,,,,,,41439,2021-09-28_11h02.57.242,judgeSpeechMusic_20210921_logNormShiftAmp_detection_fixS,2020.1.2,MacIntel,60,,,,,,0,0,0,0,2,1,stimuli/stim_20210706_power2amp/equal_lnn_AM_training3Hz_s35.m4a,,,,,,,,,,,,,,,,,,,,,,,,,,,
,,,,,,,,,,,,41439,2021-09-28_11h02.57.242,judgeSpeechMusic_20210921_logNormShiftAmp_detection_fixS,2020.1.2,MacIntel,60,,,,,,,,,,,,,,space,1.3071,space,1.0493,1,7.1028,,0,0,0,0,47,1,stimuli/stim_20210706_power2amp/equal_lnn_AM3.6Hz_s35_42.m4a,,,,,,,,,,,,
,,,,,,,,,,,,41439,2021-09-28_11h02.57.242,judgeSpeechMusic_20210921_logNormShiftAmp_detection_fixS,2020.1.2,MacIntel,60,,,,,,,,,,,,,,,,,,1,5.4718,,0,0,1,1,65,1,stimuli/stim_20210706_power2amp/equal_lnn_AM4.2Hz_s35_34.m4a,,,,,,,,,,,,
,,,,,,,,,,,,41439,2021-09-28_11h02.57.242,judgeSpeechMusic_20210921_logNormShiftAmp_detection_fixS,2020.1.2,MacIntel,60,,,,,,,,,,,,,,,,,,2,5.6612,,0,0,2,2,9,1,stimuli/stim_20210706_power2amp/equal_lnn_AM0.6Hz_s35_7.m4a,,,,,,,,,,,,
,,,,,,,,,,,,41439,2021-09-28_11h02.57.242,judgeSpeechMusic_20210921_logNormShiftAmp_detection_fixS,2020.1.2,MacIntel,60,,,,,,,,,,,,,,,,,,1,6.4333,,0,0,3,3,55,1,stimuli/stim_20210706_power2amp/equal_lnn_AM3.6Hz_s35_36.m4a,,,,,,,,,,,,
,,,,,,,,,,,,41439,2021-09-28_11h02.57.242,judgeSpeechMusic_20210921_logNormShiftAmp_detection_fixS,2020.1.2,MacIntel,60,,,,,,,,,,,,,,,,,,2,6.6406,,0,0,4,4,2,1,stimuli/stim_20210706_power2amp/equal_lnn_AM0.6Hz_s35_5.m4a,,,,,,,,,,,,
,,,,,,,,,,,,41439,2021-09-28_11h02.57.242,judgeSpeechMusic_20210921_logNormShiftAmp_detection_fixS,2020.1.2,MacIntel,60,,,,,,,,,,,,,,,,,,1,5.8149,,0,0,5,5,69,1,stimuli/stim_20210706_power2amp/equal_lnn_AM4.2Hz_s35_45.m4a,,,,,,,,,,,,
,,,,,,,,,,,,41439,2021-09-28_11h02.57.242,judgeSpeechMusic_20210921_logNormShiftAmp_detection_fixS,2020.1.2,MacIntel,60,,,,,,,,,,,,,,,,,,1,5.8454,,0,0,6,6,51,1,stimuli/stim_20210706_power2amp/equal_lnn_AM3.6Hz_s35_24.m4a,,,,,,,,,,,,
,,,,,,,,,,,,41439,2021-09-28_11h02.57.242,judgeSpeechMusic_20210921_logNormShiftAmp_detection_fixS,2020.1.2,MacIntel,60,,,,,,,,,,,,,,,,,,2,6.0364,,0,0,7,7,4,1,stimuli/stim_20210706_power2amp/equal_lnn_AM0.6Hz_s35_43.m4a,,,,,,,,,,,,
,,,,,,,,,,,,41439,2021-09-28_11h02.57.242,judgeSpeechMusic_20210921_logNormShiftAmp_detection_fixS,2020.1.2,MacIntel,60,,,,,,,,,,,,,,,,,,2,5.6317,,0,0,8,8,29,1,stimuli/stim_20210706_power2amp/equal_lnn_AM1.2Hz_s35_15.m4a,,,,,,,,,,,,
,,,,,,,,,,,,41439,2021-09-28_11h02.57.242,judgeSpeechMusic_20210921_logNormShiftAmp_detection_fixS,2020.1.2,MacIntel,60,,,,,,,,,,,,,,,,,,2,5.5839,,0,0,9,9,5,1,stimuli/stim_20210706_power2amp/equal_lnn_AM0.6Hz_s35_39.m4a,,,,,,,,,,,,
,,,,,,,,,,,,41439,2021-09-28_11h02.57.242,judgeSpeechMusic_20210921_logNormShiftAmp_detection_fixS,2020.1.2,MacIntel,60,,,,,,,,,,,,,,,,,,1,6.6087,,0,0,10,10,64,1,stimuli/stim_20210706_power2amp/equal_lnn_AM4.2Hz_s35_1.m4a,,,,,,,,,,,,
,,,,,,,,,,,,41439,2021-09-28_11h02.57.242,judgeSpeechMusic_20210921_logNormShiftAmp_detection_fixS,2020.1.2,MacIntel,60,,,,,,,,,,,,,,,,,,2,7.951,,0,0,11,11,44,1,stimuli/stim_20210706_power2amp/equal_lnn_AM2.4Hz_s35_4.m4a,,,,,,,,,,,,
,,,,,,,,,,,,41439,2021-09-28_11h02.57.242,judgeSpeechMusic_20210921_logNormShiftAmp_detection_fixS,2020.1.2,MacIntel,60,,,,,,,,,,,,,,,,,,1,5.7639,,0,0,12,12,61,1,stimuli/stim_20210706_power2amp/equal_lnn_AM4.2Hz_s35_13.m4a,,,,,,,,,,,,
,,,,,,,,,,,,41439,2021-09-28_11h02.57.242,judgeSpeechMusic_20210921_logNormShiftAmp_detection_fixS,2020.1.2,MacIntel,60,,,,,,,,,,,,,,,,,,1,5.7654,,0,0,13,13,45,1,stimuli/stim_20210706_power2amp/equal_lnn_AM3.6Hz_s35_11.m4a,,,,,,,,,,,,
,,,,,,,,,,,,41439,2021-09-28_11h02.57.242,judgeSpeechMusic_20210921_logNormShiftAmp_detection_fixS,2020.1.2,MacIntel,60,,,,,,,,,,,,,,,,,,1,7.029,,0,0,14,14,52,1,stimuli/stim_20210706_power2amp/equal_lnn_AM3.6Hz_s35_25.m4a,,,,,,,,,,,,
,,,,,,,,,,,,41439,2021-09-28_11h02.57.242,judgeSpeechMusic_20210921_logNormShiftAmp_detection_fixS,2020.1.2,MacIntel,60,,,,,,,,,,,,,,,,,,1,5.5543,,0,0,15,15,59,1,stimuli/stim_20210706_power2amp/equal_lnn_AM3.6Hz_s35_14.m4a,,,,,,,,,,,,
,,,,,,,,,,,,41439,2021-09-28_11h02.57.242,judgeSpeechMusic_20210921_logNormShiftAmp_detection_fixS,2020.1.2,MacIntel,60,,,,,,,,,,,,,,,,,,1,6.5949,,0,0,16,16,49,1,stimuli/stim_20210706_power2amp/equal_lnn_AM3.6Hz_s35_33.m4a,,,,,,,,,,,,
,,,,,,,,,,,,41439,2021-09-28_11h02.57.242,judgeSpeechMusic_20210921_logNormShiftAmp_detection_fixS,2020.1.2,MacIntel,60,,,,,,,,,,,,,,,,,,2,6.0412,,0,0,17,17,60,1,stimuli/stim_20210706_power2amp/equal_lnn_AM4.2Hz_s35_2.m4a,,,,,,,,,,,,
,,,,,,,,,,,,41439,2021-09-28_11h02.57.242,judgeSpeechMusic_20210921_logNormShiftAmp_detection_fixS,2020.1.2,MacIntel,60,,,,,,,,,,,,,,,,,,2,5.9546,,0,0,18,18,37,1,stimuli/stim_20210706_power2amp/equal_lnn_AM2.4Hz_s35_48.m4a,,,,,,,,,,,,
,,,,,,,,,,,,41439,2021-09-28_11h02.57.242,judgeSpeechMusic_20210921_logNormShiftAmp_detection_fixS,2020.1.2,MacIntel,60,,,,,,,,,,,,,,,,,,2,6.3489,,0,0,19,19,16,1,stimuli/stim_20210706_power2amp/equal_lnn_AM1.2Hz_s35_42.m4a,,,,,,,,,,,,
,,,,,,,,,,,,41439,2021-09-28_11h02.57.242,judgeSpeechMusic_20210921_logNormShiftAmp_detection_fixS,2020.1.2,MacIntel,60,,,,,,,,,,,,,,,,,,1,5.6177,,0,0,20,20,72,1,stimuli/stim_20210706_power2amp/equal_lnn_AM4.2Hz_s35_39.m4a,,,,,,,,,,,,
,,,,,,,,,,,,41439,2021-09-28_11h02.57.242,judgeSpeechMusic_20210921_logNormShiftAmp_detection_fixS,2020.1.2,MacIntel,60,,,,,,,,,,,,,,,,,,1,6.1485,4,1,0,21,21,62,1,stimuli/stim_20210706_power2amp/equal_lnn_AM4.2Hz_s35_47.m4a,2.0359,,,,,,,,,,,
,,,,,,,,,,,,41439,2021-09-28_11h02.57.242,judgeSpeechMusic_20210921_logNormShiftAmp_detection_fixS,2020.1.2,MacIntel,60,,,,,,,,,,,,,,,,,,2,5.7815,,0,0,22,22,19,1,stimuli/stim_20210706_power2amp/equal_lnn_AM1.2Hz_s35_1.m4a,,,,,,,,,,,,
,,,,,,,,,,,,41439,2021-09-28_11h02.57.242,judgeSpeechMusic_20210921_logNormShiftAmp_detection_fixS,2020.1.2,MacIntel,60,,,,,,,,,,,,,,,,,,2,5.7476,,0,0,23,23,31,1,stimuli/stim_20210706_power2amp/equal_lnn_AM2.4Hz_s35_47.m4a,,,,,,,,,,,,
,,,,,,,,,,,,41439,2021-09-28_11h02.57.242,judgeSpeechMusic_20210921_logNormShiftAmp_detection_fixS,2020.1.2,MacIntel,60,,,,,,,,,,,,,,,,,,1,6.3994,,0,0,24,24,66,1,stimuli/stim_20210706_power2amp/equal_lnn_AM4.2Hz_s35_6.m4a,,,,,,,,,,,,
,,,,,,,,,,,,41439,2021-09-28_11h02.57.242,judgeSpeechMusic_20210921_logNormShiftAmp_detection_fixS,2020.1.2,MacIntel,60,,,,,,,,,,,,,,,,,,1,5.9087,,0,0,25,25,70,1,stimuli/stim_20210706_power2amp/equal_lnn_AM4.2Hz_s35_41.m4a,,,,,,,,,,,,
,,,,,,,,,,,,41439,2021-09-28_11h02.57.242,judgeSpeechMusic_20210921_logNormShiftAmp_detection_fixS,2020.1.2,MacIntel,60,,,,,,,,,,,,,,,,,,1,5.6551,,0,0,26,26,41,1,stimuli/stim_20210706_power2amp/equal_lnn_AM2.4Hz_s35_45.m4a,,,,,,,,,,,,
,,,,,,,,,,,,41439,2021-09-28_11h02.57.242,judgeSpeechMusic_20210921_logNormShiftAmp_detection_fixS,2020.1.2,MacIntel,60,,,,,,,,,,,,,,,,,,1,8.0654,,0,0,27,27,25,1,stimuli/stim_20210706_power2amp/equal_lnn_AM1.2Hz_s35_47.m4a,,,,,,,,,,,,
,,,,,,,,,,,,41439,2021-09-28_11h02.57.242,judgeSpeechMusic_20210921_logNormShiftAmp_detection_fixS,2020.1.2,MacIntel,60,,,,,,,,,,,,,,,,,,1,5.6158,,0,0,28,28,71,1,stimuli/stim_20210706_power2amp/equal_lnn_AM4.2Hz_s35_11.m4a,,,,,,,,,,,,
,,,,,,,,,,,,41439,2021-09-28_11h02.57.242,judgeSpeechMusic_20210921_logNormShiftAmp_detection_fixS,2020.1.2,MacIntel,60,,,,,,,,,,,,,,,,,,2,5.5332,,0,0,29,29,39,1,stimuli/stim_20210706_power2amp/equal_lnn_AM2.4Hz_s35_27.m4a,,,,,,,,,,,,
,,,,,,,,,,,,41439,2021-09-28_11h02.57.242,judgeSpeechMusic_20210921_logNormShiftAmp_detection_fixS,2020.1.2,MacIntel,60,,,,,,,,,,,,,,,,,,2,5.4581,,0,0,30,30,18,1,stimuli/stim_20210706_power2amp/equal_lnn_AM1.2Hz_s35_3.m4a,,,,,,,,,,,,
,,,,,,,,,,,,41439,2021-09-28_11h02.57.242,judgeSpeechMusic_20210921_logNormShiftAmp_detection_fixS,2020.1.2,MacIntel,60,,,,,,,,,,,,,,,,,,2,5.52,,0,0,31,31,33,1,stimuli/stim_20210706_power2amp/equal_lnn_AM2.4Hz_s35_11.m4a,,,,,,,,,,,,
,,,,,,,,,,,,41439,2021-09-28_11h02.57.242,judgeSpeechMusic_20210921_logNormShiftAmp_detection_fixS,2020.1.2,MacIntel,60,,,,,,,,,,,,,,,,,,1,6.0321,,0,0,32,32,42,1,stimuli/stim_20210706_power2amp/equal_lnn_AM2.4Hz_s35_10.m4a,,,,,,,,,,,,
,,,,,,,,,,,,41439,2021-09-28_11h02.57.242,judgeSpeechMusic_20210921_logNormShiftAmp_detection_fixS,2020.1.2,MacIntel,60,,,,,,,,,,,,,,,,,,1,5.9492,,0,0,33,33,38,1,stimuli/stim_20210706_power2amp/equal_lnn_AM2.4Hz_s35_39.m4a,,,,,,,,,,,,
,,,,,,,,,,,,41439,2021-09-28_11h02.57.242,judgeSpeechMusic_20210921_logNormShiftAmp_detection_fixS,2020.1.2,MacIntel,60,,,,,,,,,,,,,,,,,,2,5.7157,,0,0,34,34,8,1,stimuli/stim_20210706_power2amp/equal_lnn_AM0.6Hz_s35_35.m4a,,,,,,,,,,,,
,,,,,,,,,,,,41439,2021-09-28_11h02.57.242,judgeSpeechMusic_20210921_logNormShiftAmp_detection_fixS,2020.1.2,MacIntel,60,,,,,,,,,,,,,,,,,,1,5.6494,,0,0,35,35,40,1,stimuli/stim_20210706_power2amp/equal_lnn_AM2.4Hz_s35_42.m4a,,,,,,,,,,,,
,,,,,,,,,,,,41439,2021-09-28_11h02.57.242,judgeSpeechMusic_20210921_logNormShiftAmp_detection_fixS,2020.1.2,MacIntel,60,,,,,,,,,,,,,,,,,,2,5.4815,,0,0,36,36,12,1,stimuli/stim_20210706_power2amp/equal_lnn_AM0.6Hz_s35_48.m4a,,,,,,,,,,,,
,,,,,,,,,,,,41439,2021-09-28_11h02.57.242,judgeSpeechMusic_20210921_logNormShiftAmp_detection_fixS,2020.1.2,MacIntel,60,,,,,,,,,,,,,,,,,,2,5.558,,0,0,37,37,6,1,stimuli/stim_20210706_power2amp/equal_lnn_AM0.6Hz_s35_23.m4a,,,,,,,,,,,,
,,,,,,,,,,,,41439,2021-09-28_11h02.57.242,judgeSpeechMusic_20210921_logNormShiftAmp_detection_fixS,2020.1.2,MacIntel,60,,,,,,,,,,,,,,,,,,2,5.3709,,0,0,38,38,26,1,stimuli/stim_20210706_power2amp/equal_lnn_AM1.2Hz_s35_43.m4a,,,,,,,,,,,,
,,,,,,,,,,,,41439,2021-09-28_11h02.57.242,judgeSpeechMusic_20210921_logNormShiftAmp_detection_fixS,2020.1.2,MacIntel,60,,,,,,,,,,,,,,,,,,2,5.3976,,0,0,39,39,28,1,stimuli/stim_20210706_power2amp/equal_lnn_AM1.2Hz_s35_44.m4a,,,,,,,,,,,,
,,,,,,,,,,,,41439,2021-09-28_11h02.57.242,judgeSpeechMusic_20210921_logNormShiftAmp_detection_fixS,2020.1.2,MacIntel,60,,,,,,,,,,,,,,,,,,1,5.6947,,0,0,40,40,68,1,stimuli/stim_20210706_power2amp/equal_lnn_AM4.2Hz_s35_24.m4a,,,,,,,,,,,,
,,,,,,,,,,,,41439,2021-09-28_11h02.57.242,judgeSpeechMusic_20210921_logNormShiftAmp_detection_fixS,2020.1.2,MacIntel,60,,,,,,,,,,,,,,,,,,1,6.172,,0,0,41,41,36,1,stimuli/stim_20210706_power2amp/equal_lnn_AM2.4Hz_s35_23.m4a,,,,,,,,,,,,
,,,,,,,,,,,,41439,2021-09-28_11h02.57.242,judgeSpeechMusic_20210921_logNormShiftAmp_detection_fixS,2020.1.2,MacIntel,60,,,,,,,,,,,,,,,,,,2,7.5408,3,1,0,42,42,10,1,stimuli/stim_20210706_power2amp/equal_lnn_AM0.6Hz_s35_27.m4a,1.3871,,,,,,,,,,,
,,,,,,,,,,,,41439,2021-09-28_11h02.57.242,judgeSpeechMusic_20210921_logNormShiftAmp_detection_fixS,2020.1.2,MacIntel,60,,,,,,,,,,,,,,,,,,1,6.6098,,0,0,43,43,48,1,stimuli/stim_20210706_power2amp/equal_lnn_AM3.6Hz_s35_43.m4a,,,,,,,,,,,,
,,,,,,,,,,,,41439,2021-09-28_11h02.57.242,judgeSpeechMusic_20210921_logNormShiftAmp_detection_fixS,2020.1.2,MacIntel,60,,,,,,,,,,,,,,,,,,2,5.5039,,0,0,44,44,21,1,stimuli/stim_20210706_power2amp/equal_lnn_AM1.2Hz_s35_6.m4a,,,,,,,,,,,,
,,,,,,,,,,,,41439,2021-09-28_11h02.57.242,judgeSpeechMusic_20210921_logNormShiftAmp_detection_fixS,2020.1.2,MacIntel,60,,,,,,,,,,,,,,,,,,1,5.9996,,0,0,45,45,1,1,stimuli/stim_20210706_power2amp/equal_lnn_AM0.6Hz_s35_6.m4a,,,,,,,,,,,,
,,,,,,,,,,,,41439,2021-09-28_11h02.57.242,judgeSpeechMusic_20210921_logNormShiftAmp_detection_fixS,2020.1.2,MacIntel,60,,,,,,,,,,,,,,,,,,2,5.8677,,0,0,46,46,17,1,stimuli/stim_20210706_power2amp/equal_lnn_AM1.2Hz_s35_37.m4a,,,,,,,,,,,,
,,,,,,,,,,,,41439,2021-09-28_11h02.57.242,judgeSpeechMusic_20210921_logNormShiftAmp_detection_fixS,2020.1.2,MacIntel,60,,,,,,,,,,,,,,,,,,2,5.7642,,0,0,47,47,24,1,stimuli/stim_20210706_power2amp/equal_lnn_AM1.2Hz_s35_27.m4a,,,,,,,,,,,,
,,,,,,,,,,,,41439,2021-09-28_11h02.57.242,judgeSpeechMusic_20210921_logNormShiftAmp_detection_fixS,2020.1.2,MacIntel,60,,,,,,,,,,,,,,,,,,1,8.1837,,0,0,48,48,22,1,stimuli/stim_20210706_power2amp/equal_lnn_AM1.2Hz_s35_14.m4a,,,,,,,,,,,,
,,,,,,,,,,,,41439,2021-09-28_11h02.57.242,judgeSpeechMusic_20210921_logNormShiftAmp_detection_fixS,2020.1.2,MacIntel,60,,,,,,,,,,,,,,,,,,1,10.1506,,0,0,49,49,23,1,stimuli/stim_20210706_power2amp/equal_lnn_AM1.2Hz_s35_26.m4a,,,,,,,,,,,,
,,,,,,,,,,,,41439,2021-09-28_11h02.57.242,judgeSpeechMusic_20210921_logNormShiftAmp_detection_fixS,2020.1.2,MacIntel,60,,,,,,,,,,,,,,,,,,1,5.7976,,0,0,50,50,32,1,stimuli/stim_20210706_power2amp/equal_lnn_AM2.4Hz_s35_40.m4a,,,,,,,,,,,,
,,,,,,,,,,,,41439,2021-09-28_11h02.57.242,judgeSpeechMusic_20210921_logNormShiftAmp_detection_fixS,2020.1.2,MacIntel,60,,,,,,,,,,,,,,,,,,1,6.2046,,0,0,51,51,74,1,stimuli/stim_20210706_power2amp/equal_lnn_AM4.2Hz_s35_30.m4a,,,,,,,,,,,,
,,,,,,,,,,,,41439,2021-09-28_11h02.57.242,judgeSpeechMusic_20210921_logNormShiftAmp_detection_fixS,2020.1.2,MacIntel,60,,,,,,,,,,,,,,,,,,1,7.6897,,0,0,52,52,0,1,stimuli/stim_20210706_power2amp/equal_lnn_AM0.6Hz_s35_36.m4a,,,,,,,,,,,,
,,,,,,,,,,,,41439,2021-09-28_11h02.57.242,judgeSpeechMusic_20210921_logNormShiftAmp_detection_fixS,2020.1.2,MacIntel,60,,,,,,,,,,,,,,,,,,1,5.5031,,0,0,53,53,56,1,stimuli/stim_20210706_power2amp/equal_lnn_AM3.6Hz_s35_29.m4a,,,,,,,,,,,,
,,,,,,,,,,,,41439,2021-09-28_11h02.57.242,judgeSpeechMusic_20210921_logNormShiftAmp_detection_fixS,2020.1.2,MacIntel,60,,,,,,,,,,,,,,,,,,1,6.3007,,0,0,54,54,30,1,stimuli/stim_20210706_power2amp/equal_lnn_AM2.4Hz_s35_33.m4a,,,,,,,,,,,,
,,,,,,,,,,,,41439,2021-09-28_11h02.57.242,judgeSpeechMusic_20210921_logNormShiftAmp_detection_fixS,2020.1.2,MacIntel,60,,,,,,,,,,,,,,,,,,1,9.0675,,0,0,55,55,54,1,stimuli/stim_20210706_power2amp/equal_lnn_AM3.6Hz_s35_7.m4a,,,,,,,,,,,,
,,,,,,,,,,,,41439,2021-09-28_11h02.57.242,judgeSpeechMusic_20210921_logNormShiftAmp_detection_fixS,2020.1.2,MacIntel,60,,,,,,,,,,,,,,,,,,1,6.908,,0,0,56,56,46,1,stimuli/stim_20210706_power2amp/equal_lnn_AM3.6Hz_s35_30.m4a,,,,,,,,,,,,
,,,,,,,,,,,,41439,2021-09-28_11h02.57.242,judgeSpeechMusic_20210921_logNormShiftAmp_detection_fixS,2020.1.2,MacIntel,60,,,,,,,,,,,,,,,,,,1,7.6532,,0,0,57,57,11,1,stimuli/stim_20210706_power2amp/equal_lnn_AM0.6Hz_s35_47.m4a,,,,,,,,,,,,
,,,,,,,,,,,,41439,2021-09-28_11h02.57.242,judgeSpeechMusic_20210921_logNormShiftAmp_detection_fixS,2020.1.2,MacIntel,60,,,,,,,,,,,,,,,,,,1,5.9492,,0,0,58,58,34,1,stimuli/stim_20210706_power2amp/equal_lnn_AM2.4Hz_s35_38.m4a,,,,,,,,,,,,
,,,,,,,,,,,,41439,2021-09-28_11h02.57.242,judgeSpeechMusic_20210921_logNormShiftAmp_detection_fixS,2020.1.2,MacIntel,60,,,,,,,,,,,,,,,,,,1,5.515,,0,0,59,59,63,1,stimuli/stim_20210706_power2amp/equal_lnn_AM4.2Hz_s35_15.m4a,,,,,,,,,,,,
,,,,,,,,,,,,41439,2021-09-28_11h02.57.242,judgeSpeechMusic_20210921_logNormShiftAmp_detection_fixS,2020.1.2,MacIntel,60,,,,,,,,,,,,,,,,,,1,7.9858,,0,0,60,60,73,1,stimuli/stim_20210706_power2amp/equal_lnn_AM4.2Hz_s35_9.m4a,,,,,,,,,,,,
,,,,,,,,,,,,41439,2021-09-28_11h02.57.242,judgeSpeechMusic_20210921_logNormShiftAmp_detection_fixS,2020.1.2,MacIntel,60,,,,,,,,,,,,,,,,,,2,6.0987,1,1,0,61,61,3,1,stimuli/stim_20210706_power2amp/equal_lnn_AM0.6Hz_s35_12.m4a,3.4016,,,,,,,,,,,
,,,,,,,,,,,,41439,2021-09-28_11h02.57.242,judgeSpeechMusic_20210921_logNormShiftAmp_detection_fixS,2020.1.2,MacIntel,60,,,,,,,,,,,,,,,,,,1,5.9489,,0,0,62,62,58,1,stimuli/stim_20210706_power2amp/equal_lnn_AM3.6Hz_s35_23.m4a,,,,,,,,,,,,
,,,,,,,,,,,,41439,2021-09-28_11h02.57.242,judgeSpeechMusic_20210921_logNormShiftAmp_detection_fixS,2020.1.2,MacIntel,60,,,,,,,,,,,,,,,,,,2,6.0003,,0,0,63,63,7,1,stimuli/stim_20210706_power2amp/equal_lnn_AM0.6Hz_s35_37.m4a,,,,,,,,,,,,
,,,,,,,,,,,,41439,2021-09-28_11h02.57.242,judgeSpeechMusic_20210921_logNormShiftAmp_detection_fixS,2020.1.2,MacIntel,60,,,,,,,,,,,,,,,,,,1,7.4635,,0,0,64,64,43,1,stimuli/stim_20210706_power2amp/equal_lnn_AM2.4Hz_s35_5.m4a,,,,,,,,,,,,
,,,,,,,,,,,,41439,2021-09-28_11h02.57.242,judgeSpeechMusic_20210921_logNormShiftAmp_detection_fixS,2020.1.2,MacIntel,60,,,,,,,,,,,,,,,,,,2,6.0814,,0,0,65,65,14,1,stimuli/stim_20210706_power2amp/equal_lnn_AM0.6Hz_s35_29.m4a,,,,,,,,,,,,
,,,,,,,,,,,,41439,2021-09-28_11h02.57.242,judgeSpeechMusic_20210921_logNormShiftAmp_detection_fixS,2020.1.2,MacIntel,60,,,,,,,,,,,,,,,,,,1,6.717,,0,0,66,66,53,1,stimuli/stim_20210706_power2amp/equal_lnn_AM3.6Hz_s35_31.m4a,,,,,,,,,,,,
,,,,,,,,,,,,41439,2021-09-28_11h02.57.242,judgeSpeechMusic_20210921_logNormShiftAmp_detection_fixS,2020.1.2,MacIntel,60,,,,,,,,,,,,,,,,,,1,6.7664,,0,0,67,67,20,1,stimuli/stim_20210706_power2amp/equal_lnn_AM1.2Hz_s35_48.m4a,,,,,,,,,,,,
,,,,,,,,,,,,41439,2021-09-28_11h02.57.242,judgeSpeechMusic_20210921_logNormShiftAmp_detection_fixS,2020.1.2,MacIntel,60,,,,,,,,,,,,,,,,,,1,7.2302,,0,0,68,68,15,1,stimuli/stim_20210706_power2amp/equal_lnn_AM1.2Hz_s35_21.m4a,,,,,,,,,,,,
,,,,,,,,,,,,41439,2021-09-28_11h02.57.242,judgeSpeechMusic_20210921_logNormShiftAmp_detection_fixS,2020.1.2,MacIntel,60,,,,,,,,,,,,,,,,,,1,10.2492,,0,0,69,69,50,1,stimuli/stim_20210706_power2amp/equal_lnn_AM3.6Hz_s35_15.m4a,,,,,,,,,,,,
,,,,,,,,,,,,41439,2021-09-28_11h02.57.242,judgeSpeechMusic_20210921_logNormShiftAmp_detection_fixS,2020.1.2,MacIntel,60,,,,,,,,,,,,,,,,,,1,7.2437,,0,0,70,70,67,1,stimuli/stim_20210706_power2amp/equal_lnn_AM4.2Hz_s35_17.m4a,,,,,,,,,,,,
,,,,,,,,,,,,41439,2021-09-28_11h02.57.242,judgeSpeechMusic_20210921_logNormShiftAmp_detection_fixS,2020.1.2,MacIntel,60,,,,,,,,,,,,,,,,,,1,6.4821,,0,0,71,71,35,1,stimuli/stim_20210706_power2amp/equal_lnn_AM2.4Hz_s35_9.m4a,,,,,,,,,,,,
,,,,,,,,,,,,41439,2021-09-28_11h02.57.242,judgeSpeechMusic_20210921_logNormShiftAmp_detection_fixS,2020.1.2,MacIntel,60,,,,,,,,,,,,,,,,,,2,5.765,,0,0,72,72,13,1,stimuli/stim_20210706_power2amp/equal_lnn_AM0.6Hz_s35_26.m4a,,,,,,,,,,,,
,,,,,,,,,,,,41439,2021-09-28_11h02.57.242,judgeSpeechMusic_20210921_logNormShiftAmp_detection_fixS,2020.1.2,MacIntel,60,,,,,,,,,,,,,,,,,,2,5.9485,,0,0,73,73,27,1,stimuli/stim_20210706_power2amp/equal_lnn_AM1.2Hz_s35_17.m4a,,,,,,,,,,,,
,,,,,,,,,,,,41439,2021-09-28_11h02.57.242,judgeSpeechMusic_20210921_logNormShiftAmp_detection_fixS,2020.1.2,MacIntel,60,,,,,,,,,,,,,,,,,,1,6.4657,,0,0,74,74,57,1,stimuli/stim_20210706_power2amp/equal_lnn_AM3.6Hz_s35_2.m4a,,,,,,,,,,,,
,,,,,,,,,,,,41439,2021-09-28_11h02.57.242,judgeSpeechMusic_20210921_logNormShiftAmp_detection_fixS,2020.1.2,MacIntel,60,,,,,,,,,,,,,,,,,,,,,,,,,,,,,,,1,1,3,0,1,MUSIC,stimuli/MUSIC.jpg,,
,,,,,,,,,,,,41439,2021-09-28_11h02.57.242,judgeSpeechMusic_20210921_logNormShiftAmp_detection_fixS,2020.1.2,MacIntel,60,,,,,,,,,,,,,,,,,,,,,,,,,,,,,,,,,,,,,,space,12.5181
