volAdjustRep.thisRepN,volAdjustRep.thisTrialN,volAdjustRep.thisN,volAdjustRep.thisIndex,volAdjustRep.ran,participant,date,expName,psychopyVersion,OS,frameRate,headphoneResponse.keys,headphoneResponse.corr,headphoneResponse.rt,headphoneTrial.thisRepN,headphoneTrial.thisTrialN,headphoneTrial.thisN,headphoneTrial.thisIndex,headphoneTrial.ran,headphone_sound1,headphone_sound2,headphone_sound3,corrAns,checkInstruKey.keys,checkInstruKey.rt,trainSlider.response,trainSlider.rt,beepTrainResponse.keys,beepTrainResponse.corr,trainingTrials.thisRepN,trainingTrials.thisTrialN,trainingTrials.thisN,trainingTrials.thisIndex,trainingTrials.ran,trainAudioFile,beepTrainResponse.rt,readyReal_resp.keys,readyReal_resp.rt,checkInstru2_key.keys,checkInstru2_key.rt,ratingSlider.response,ratingSlider.rt,beepResp.keys,beepResp.corr,expTrials.thisRepN,expTrials.thisTrialN,expTrials.thisN,expTrials.thisIndex,expTrials.ran,audioFile,beepResp.rt,switchBlock_space.keys,switchBlock_space.rt,block.thisRepN,block.thisTrialN,block.thisN,block.thisIndex,block.ran,blockName,blockImage,end_resp.keys,end_resp.rt
0,0,0,0,1,41468,2021-09-25_17h31.59.604,judgeSpeechMusic_20210921_logNormShiftAmp_detection_fixS,2020.1.2,Win32,60,,,,,,,,,,,,,,,,,,,,,,,,,,,,,,,,,,,,,,,,,,,,,,,,,,,
1,0,1,0,1,41468,2021-09-25_17h31.59.604,judgeSpeechMusic_20210921_logNormShiftAmp_detection_fixS,2020.1.2,Win32,60,,,,,,,,,,,,,,,,,,,,,,,,,,,,,,,,,,,,,,,,,,,,,,,,,,,
,,,,,41468,2021-09-25_17h31.59.604,judgeSpeechMusic_20210921_logNormShiftAmp_detection_fixS,2020.1.2,Win32,60,2,1,2.6584,0,0,0,3,1,stimuli/screen_origin.wav,stimuli/screen_quiet.wav,stimuli/screen_antiphase.wav,2,,,,,,,,,,,,,,,,,,,,,,,,,,,,,,,,,,,,,,,
,,,,,41468,2021-09-25_17h31.59.604,judgeSpeechMusic_20210921_logNormShiftAmp_detection_fixS,2020.1.2,Win32,60,1,1,1.2506,0,1,1,5,1,stimuli/screen_quiet.wav,stimuli/screen_origin.wav,stimuli/screen_antiphase.wav,1,,,,,,,,,,,,,,,,,,,,,,,,,,,,,,,,,,,,,,,
,,,,,41468,2021-09-25_17h31.59.604,judgeSpeechMusic_20210921_logNormShiftAmp_detection_fixS,2020.1.2,Win32,60,1,1,1.1506,0,2,2,4,1,stimuli/screen_quiet.wav,stimuli/screen_antiphase.wav,stimuli/screen_origin.wav,1,,,,,,,,,,,,,,,,,,,,,,,,,,,,,,,,,,,,,,,
,,,,,41468,2021-09-25_17h31.59.604,judgeSpeechMusic_20210921_logNormShiftAmp_detection_fixS,2020.1.2,Win32,60,2,1,1.1662,0,3,3,1,1,stimuli/screen_antiphase.wav,stimuli/screen_quiet.wav,stimuli/screen_origin.wav,2,,,,,,,,,,,,,,,,,,,,,,,,,,,,,,,,,,,,,,,
,,,,,41468,2021-09-25_17h31.59.604,judgeSpeechMusic_20210921_logNormShiftAmp_detection_fixS,2020.1.2,Win32,60,3,1,1.1327,0,4,4,0,1,stimuli/screen_antiphase.wav,stimuli/screen_origin.wav,stimuli/screen_quiet.wav,3,,,,,,,,,,,,,,,,,,,,,,,,,,,,,,,,,,,,,,,
,,,,,41468,2021-09-25_17h31.59.604,judgeSpeechMusic_20210921_logNormShiftAmp_detection_fixS,2020.1.2,Win32,60,3,1,0.6387,0,5,5,2,1,stimuli/screen_origin.wav,stimuli/screen_antiphase.wav,stimuli/screen_quiet.wav,3,,,,,,,,,,,,,,,,,,,,,,,,,,,,,,,,,,,,,,,
,,,,,41468,2021-09-25_17h31.59.604,judgeSpeechMusic_20210921_logNormShiftAmp_detection_fixS,2020.1.2,Win32,60,,,,,,,,,,,,,space,1.5385,1,8.9328,,0,0,0,0,3,1,stimuli/stim_20210706_power2amp/equal_lnn_AM_training3.9Hz_s35.m4a,,,,,,,,,,,,,,,,,,,,,,,,,,,
,,,,,41468,2021-09-25_17h31.59.604,judgeSpeechMusic_20210921_logNormShiftAmp_detection_fixS,2020.1.2,Win32,60,,,,,,,,,,,,,,,1,9.4434,,0,0,1,1,0,1,stimuli/stim_20210706_power2amp/equal_lnn_AM_training0.9Hz_s35.m4a,,,,,,,,,,,,,,,,,,,,,,,,,,,
,,,,,41468,2021-09-25_17h31.59.604,judgeSpeechMusic_20210921_logNormShiftAmp_detection_fixS,2020.1.2,Win32,60,,,,,,,,,,,,,,,2,7.1964,2,1,0,2,2,2,1,stimuli/stim_20210706_power2amp/equal_lnn_AM_training3Hz_s35.m4a,2.2093,,,,,,,,,,,,,,,,,,,,,,,,,,
,,,,,41468,2021-09-25_17h31.59.604,judgeSpeechMusic_20210921_logNormShiftAmp_detection_fixS,2020.1.2,Win32,60,,,,,,,,,,,,,,,2,10.732,,0,0,3,3,1,1,stimuli/stim_20210706_power2amp/equal_lnn_AM_training1.8Hz_s35.m4a,,,,,,,,,,,,,,,,,,,,,,,,,,,
,,,,,41468,2021-09-25_17h31.59.604,judgeSpeechMusic_20210921_logNormShiftAmp_detection_fixS,2020.1.2,Win32,60,,,,,,,,,,,,,,,,,,,,,,,,,,space,5.05,space,0.9379,1,12.0226,,0,0,0,0,63,1,stimuli/stim_20210706_power2amp/equal_lnn_AM4.2Hz_s35_37.m4a,,,,,,,,,,,,
,,,,,41468,2021-09-25_17h31.59.604,judgeSpeechMusic_20210921_logNormShiftAmp_detection_fixS,2020.1.2,Win32,60,,,,,,,,,,,,,,,,,,,,,,,,,,,,,,1,7.4779,,0,0,1,1,67,1,stimuli/stim_20210706_power2amp/equal_lnn_AM4.2Hz_s35_40.m4a,,,,,,,,,,,,
,,,,,41468,2021-09-25_17h31.59.604,judgeSpeechMusic_20210921_logNormShiftAmp_detection_fixS,2020.1.2,Win32,60,,,,,,,,,,,,,,,,,,,,,,,,,,,,,,2,7.9284,,0,0,2,2,74,1,stimuli/stim_20210706_power2amp/equal_lnn_AM4.2Hz_s35_31.m4a,,,,,,,,,,,,
,,,,,41468,2021-09-25_17h31.59.604,judgeSpeechMusic_20210921_logNormShiftAmp_detection_fixS,2020.1.2,Win32,60,,,,,,,,,,,,,,,,,,,,,,,,,,,,,,1,6.0389,,0,0,3,3,11,1,stimuli/stim_20210706_power2amp/equal_lnn_AM0.6Hz_s35_6.m4a,,,,,,,,,,,,
,,,,,41468,2021-09-25_17h31.59.604,judgeSpeechMusic_20210921_logNormShiftAmp_detection_fixS,2020.1.2,Win32,60,,,,,,,,,,,,,,,,,,,,,,,,,,,,,,2,10.0595,,0,0,4,4,71,1,stimuli/stim_20210706_power2amp/equal_lnn_AM4.2Hz_s35_44.m4a,,,,,,,,,,,,
,,,,,41468,2021-09-25_17h31.59.604,judgeSpeechMusic_20210921_logNormShiftAmp_detection_fixS,2020.1.2,Win32,60,,,,,,,,,,,,,,,,,,,,,,,,,,,,,,2,8.8429,,0,0,5,5,55,1,stimuli/stim_20210706_power2amp/equal_lnn_AM3.6Hz_s35_3.m4a,,,,,,,,,,,,
,,,,,41468,2021-09-25_17h31.59.604,judgeSpeechMusic_20210921_logNormShiftAmp_detection_fixS,2020.1.2,Win32,60,,,,,,,,,,,,,,,,,,,,,,,,,,,,,,2,10.0536,,0,0,6,6,44,1,stimuli/stim_20210706_power2amp/equal_lnn_AM2.4Hz_s35_16.m4a,,,,,,,,,,,,
,,,,,41468,2021-09-25_17h31.59.604,judgeSpeechMusic_20210921_logNormShiftAmp_detection_fixS,2020.1.2,Win32,60,,,,,,,,,,,,,,,,,,,,,,,,,,,,,,1,6.2132,,0,0,7,7,18,1,stimuli/stim_20210706_power2amp/equal_lnn_AM1.2Hz_s35_25.m4a,,,,,,,,,,,,
,,,,,41468,2021-09-25_17h31.59.604,judgeSpeechMusic_20210921_logNormShiftAmp_detection_fixS,2020.1.2,Win32,60,,,,,,,,,,,,,,,,,,,,,,,,,,,,,,1,6.8235,,0,0,8,8,65,1,stimuli/stim_20210706_power2amp/equal_lnn_AM4.2Hz_s35_35.m4a,,,,,,,,,,,,
,,,,,41468,2021-09-25_17h31.59.604,judgeSpeechMusic_20210921_logNormShiftAmp_detection_fixS,2020.1.2,Win32,60,,,,,,,,,,,,,,,,,,,,,,,,,,,,,,1,6.6032,,0,0,9,9,52,1,stimuli/stim_20210706_power2amp/equal_lnn_AM3.6Hz_s35_50.m4a,,,,,,,,,,,,
,,,,,41468,2021-09-25_17h31.59.604,judgeSpeechMusic_20210921_logNormShiftAmp_detection_fixS,2020.1.2,Win32,60,,,,,,,,,,,,,,,,,,,,,,,,,,,,,,1,8.4173,,0,0,10,10,39,1,stimuli/stim_20210706_power2amp/equal_lnn_AM2.4Hz_s35_47.m4a,,,,,,,,,,,,
,,,,,41468,2021-09-25_17h31.59.604,judgeSpeechMusic_20210921_logNormShiftAmp_detection_fixS,2020.1.2,Win32,60,,,,,,,,,,,,,,,,,,,,,,,,,,,,,,1,6.4274,,0,0,11,11,62,1,stimuli/stim_20210706_power2amp/equal_lnn_AM4.2Hz_s35_20.m4a,,,,,,,,,,,,
,,,,,41468,2021-09-25_17h31.59.604,judgeSpeechMusic_20210921_logNormShiftAmp_detection_fixS,2020.1.2,Win32,60,,,,,,,,,,,,,,,,,,,,,,,,,,,,,,2,7.7058,,0,0,12,12,26,1,stimuli/stim_20210706_power2amp/equal_lnn_AM1.2Hz_s35_19.m4a,,,,,,,,,,,,
,,,,,41468,2021-09-25_17h31.59.604,judgeSpeechMusic_20210921_logNormShiftAmp_detection_fixS,2020.1.2,Win32,60,,,,,,,,,,,,,,,,,,,,,,,,,,,,,,1,5.9647,,0,0,13,13,9,1,stimuli/stim_20210706_power2amp/equal_lnn_AM0.6Hz_s35_7.m4a,,,,,,,,,,,,
,,,,,41468,2021-09-25_17h31.59.604,judgeSpeechMusic_20210921_logNormShiftAmp_detection_fixS,2020.1.2,Win32,60,,,,,,,,,,,,,,,,,,,,,,,,,,,,,,2,7.0188,,0,0,14,14,72,1,stimuli/stim_20210706_power2amp/equal_lnn_AM4.2Hz_s35_46.m4a,,,,,,,,,,,,
,,,,,41468,2021-09-25_17h31.59.604,judgeSpeechMusic_20210921_logNormShiftAmp_detection_fixS,2020.1.2,Win32,60,,,,,,,,,,,,,,,,,,,,,,,,,,,,,,1,9.1424,,0,0,15,15,66,1,stimuli/stim_20210706_power2amp/equal_lnn_AM4.2Hz_s35_10.m4a,,,,,,,,,,,,
,,,,,41468,2021-09-25_17h31.59.604,judgeSpeechMusic_20210921_logNormShiftAmp_detection_fixS,2020.1.2,Win32,60,,,,,,,,,,,,,,,,,,,,,,,,,,,,,,2,6.4701,,0,0,16,16,68,1,stimuli/stim_20210706_power2amp/equal_lnn_AM4.2Hz_s35_45.m4a,,,,,,,,,,,,
,,,,,41468,2021-09-25_17h31.59.604,judgeSpeechMusic_20210921_logNormShiftAmp_detection_fixS,2020.1.2,Win32,60,,,,,,,,,,,,,,,,,,,,,,,,,,,,,,2,7.2341,,0,0,17,17,25,1,stimuli/stim_20210706_power2amp/equal_lnn_AM1.2Hz_s35_38.m4a,,,,,,,,,,,,
,,,,,41468,2021-09-25_17h31.59.604,judgeSpeechMusic_20210921_logNormShiftAmp_detection_fixS,2020.1.2,Win32,60,,,,,,,,,,,,,,,,,,,,,,,,,,,,,,1,7.2791,2,1,0,18,18,49,1,stimuli/stim_20210706_power2amp/equal_lnn_AM3.6Hz_s35_46.m4a,1.9005,,,,,,,,,,,
,,,,,41468,2021-09-25_17h31.59.604,judgeSpeechMusic_20210921_logNormShiftAmp_detection_fixS,2020.1.2,Win32,60,,,,,,,,,,,,,,,,,,,,,,,,,,,,,,1,9.1606,,0,0,19,19,15,1,stimuli/stim_20210706_power2amp/equal_lnn_AM1.2Hz_s35_44.m4a,,,,,,,,,,,,
,,,,,41468,2021-09-25_17h31.59.604,judgeSpeechMusic_20210921_logNormShiftAmp_detection_fixS,2020.1.2,Win32,60,,,,,,,,,,,,,,,,,,,,,,,,,,,,,,1,9.1269,,0,0,20,20,34,1,stimuli/stim_20210706_power2amp/equal_lnn_AM2.4Hz_s35_25.m4a,,,,,,,,,,,,
,,,,,41468,2021-09-25_17h31.59.604,judgeSpeechMusic_20210921_logNormShiftAmp_detection_fixS,2020.1.2,Win32,60,,,,,,,,,,,,,,,,,,,,,,,,,,,,,,2,6.0421,,0,0,21,21,35,1,stimuli/stim_20210706_power2amp/equal_lnn_AM2.4Hz_s35_9.m4a,,,,,,,,,,,,
,,,,,41468,2021-09-25_17h31.59.604,judgeSpeechMusic_20210921_logNormShiftAmp_detection_fixS,2020.1.2,Win32,60,,,,,,,,,,,,,,,,,,,,,,,,,,,,,,1,6.4559,,0,0,22,22,14,1,stimuli/stim_20210706_power2amp/equal_lnn_AM0.6Hz_s35_40.m4a,,,,,,,,,,,,
,,,,,41468,2021-09-25_17h31.59.604,judgeSpeechMusic_20210921_logNormShiftAmp_detection_fixS,2020.1.2,Win32,60,,,,,,,,,,,,,,,,,,,,,,,,,,,,,,1,7.3448,,0,0,23,23,64,1,stimuli/stim_20210706_power2amp/equal_lnn_AM4.2Hz_s35_27.m4a,,,,,,,,,,,,
,,,,,41468,2021-09-25_17h31.59.604,judgeSpeechMusic_20210921_logNormShiftAmp_detection_fixS,2020.1.2,Win32,60,,,,,,,,,,,,,,,,,,,,,,,,,,,,,,1,6.4323,,0,0,24,24,7,1,stimuli/stim_20210706_power2amp/equal_lnn_AM0.6Hz_s35_2.m4a,,,,,,,,,,,,
,,,,,41468,2021-09-25_17h31.59.604,judgeSpeechMusic_20210921_logNormShiftAmp_detection_fixS,2020.1.2,Win32,60,,,,,,,,,,,,,,,,,,,,,,,,,,,,,,2,6.0709,,0,0,25,25,54,1,stimuli/stim_20210706_power2amp/equal_lnn_AM3.6Hz_s35_25.m4a,,,,,,,,,,,,
,,,,,41468,2021-09-25_17h31.59.604,judgeSpeechMusic_20210921_logNormShiftAmp_detection_fixS,2020.1.2,Win32,60,,,,,,,,,,,,,,,,,,,,,,,,,,,,,,1,6.4962,,0,0,26,26,24,1,stimuli/stim_20210706_power2amp/equal_lnn_AM1.2Hz_s35_32.m4a,,,,,,,,,,,,
,,,,,41468,2021-09-25_17h31.59.604,judgeSpeechMusic_20210921_logNormShiftAmp_detection_fixS,2020.1.2,Win32,60,,,,,,,,,,,,,,,,,,,,,,,,,,,,,,2,5.9465,,0,0,27,27,61,1,stimuli/stim_20210706_power2amp/equal_lnn_AM4.2Hz_s35_28.m4a,,,,,,,,,,,,
,,,,,41468,2021-09-25_17h31.59.604,judgeSpeechMusic_20210921_logNormShiftAmp_detection_fixS,2020.1.2,Win32,60,,,,,,,,,,,,,,,,,,,,,,,,,,,,,,1,6.1632,,0,0,28,28,17,1,stimuli/stim_20210706_power2amp/equal_lnn_AM1.2Hz_s35_49.m4a,,,,,,,,,,,,
,,,,,41468,2021-09-25_17h31.59.604,judgeSpeechMusic_20210921_logNormShiftAmp_detection_fixS,2020.1.2,Win32,60,,,,,,,,,,,,,,,,,,,,,,,,,,,,,,1,6.6061,,0,0,29,29,45,1,stimuli/stim_20210706_power2amp/equal_lnn_AM3.6Hz_s35_10.m4a,,,,,,,,,,,,
,,,,,41468,2021-09-25_17h31.59.604,judgeSpeechMusic_20210921_logNormShiftAmp_detection_fixS,2020.1.2,Win32,60,,,,,,,,,,,,,,,,,,,,,,,,,,,,,,1,6.5902,,0,0,30,30,43,1,stimuli/stim_20210706_power2amp/equal_lnn_AM2.4Hz_s35_30.m4a,,,,,,,,,,,,
,,,,,41468,2021-09-25_17h31.59.604,judgeSpeechMusic_20210921_logNormShiftAmp_detection_fixS,2020.1.2,Win32,60,,,,,,,,,,,,,,,,,,,,,,,,,,,,,,1,6.132,,0,0,31,31,70,1,stimuli/stim_20210706_power2amp/equal_lnn_AM4.2Hz_s35_29.m4a,,,,,,,,,,,,
,,,,,41468,2021-09-25_17h31.59.604,judgeSpeechMusic_20210921_logNormShiftAmp_detection_fixS,2020.1.2,Win32,60,,,,,,,,,,,,,,,,,,,,,,,,,,,,,,2,6.0788,,0,0,32,32,30,1,stimuli/stim_20210706_power2amp/equal_lnn_AM2.4Hz_s35_34.m4a,,,,,,,,,,,,
,,,,,41468,2021-09-25_17h31.59.604,judgeSpeechMusic_20210921_logNormShiftAmp_detection_fixS,2020.1.2,Win32,60,,,,,,,,,,,,,,,,,,,,,,,,,,,,,,1,6.0653,,0,0,33,33,53,1,stimuli/stim_20210706_power2amp/equal_lnn_AM3.6Hz_s35_33.m4a,,,,,,,,,,,,
,,,,,41468,2021-09-25_17h31.59.604,judgeSpeechMusic_20210921_logNormShiftAmp_detection_fixS,2020.1.2,Win32,60,,,,,,,,,,,,,,,,,,,,,,,,,,,,,,2,19.6383,,0,0,34,34,46,1,stimuli/stim_20210706_power2amp/equal_lnn_AM3.6Hz_s35_44.m4a,,,,,,,,,,,,
,,,,,41468,2021-09-25_17h31.59.604,judgeSpeechMusic_20210921_logNormShiftAmp_detection_fixS,2020.1.2,Win32,60,,,,,,,,,,,,,,,,,,,,,,,,,,,,,,1,6.6213,,0,0,35,35,31,1,stimuli/stim_20210706_power2amp/equal_lnn_AM2.4Hz_s35_26.m4a,,,,,,,,,,,,
,,,,,41468,2021-09-25_17h31.59.604,judgeSpeechMusic_20210921_logNormShiftAmp_detection_fixS,2020.1.2,Win32,60,,,,,,,,,,,,,,,,,,,,,,,,,,,,,,1,5.9301,,0,0,36,36,1,1,stimuli/stim_20210706_power2amp/equal_lnn_AM0.6Hz_s35_45.m4a,,,,,,,,,,,,
,,,,,41468,2021-09-25_17h31.59.604,judgeSpeechMusic_20210921_logNormShiftAmp_detection_fixS,2020.1.2,Win32,60,,,,,,,,,,,,,,,,,,,,,,,,,,,,,,2,6.1123,,0,0,37,37,40,1,stimuli/stim_20210706_power2amp/equal_lnn_AM2.4Hz_s35_4.m4a,,,,,,,,,,,,
,,,,,41468,2021-09-25_17h31.59.604,judgeSpeechMusic_20210921_logNormShiftAmp_detection_fixS,2020.1.2,Win32,60,,,,,,,,,,,,,,,,,,,,,,,,,,,,,,1,6.2006,,0,0,38,38,58,1,stimuli/stim_20210706_power2amp/equal_lnn_AM3.6Hz_s35_6.m4a,,,,,,,,,,,,
,,,,,41468,2021-09-25_17h31.59.604,judgeSpeechMusic_20210921_logNormShiftAmp_detection_fixS,2020.1.2,Win32,60,,,,,,,,,,,,,,,,,,,,,,,,,,,,,,1,6.1496,,0,0,39,39,60,1,stimuli/stim_20210706_power2amp/equal_lnn_AM4.2Hz_s35_3.m4a,,,,,,,,,,,,
,,,,,41468,2021-09-25_17h31.59.604,judgeSpeechMusic_20210921_logNormShiftAmp_detection_fixS,2020.1.2,Win32,60,,,,,,,,,,,,,,,,,,,,,,,,,,,,,,1,6.7261,2,1,0,40,40,2,1,stimuli/stim_20210706_power2amp/equal_lnn_AM0.6Hz_s35_13.m4a,1.2252,,,,,,,,,,,
,,,,,41468,2021-09-25_17h31.59.604,judgeSpeechMusic_20210921_logNormShiftAmp_detection_fixS,2020.1.2,Win32,60,,,,,,,,,,,,,,,,,,,,,,,,,,,,,,2,5.883,,0,0,41,41,38,1,stimuli/stim_20210706_power2amp/equal_lnn_AM2.4Hz_s35_39.m4a,,,,,,,,,,,,
,,,,,41468,2021-09-25_17h31.59.604,judgeSpeechMusic_20210921_logNormShiftAmp_detection_fixS,2020.1.2,Win32,60,,,,,,,,,,,,,,,,,,,,,,,,,,,,,,2,6.0501,,0,0,42,42,33,1,stimuli/stim_20210706_power2amp/equal_lnn_AM2.4Hz_s35_38.m4a,,,,,,,,,,,,
,,,,,41468,2021-09-25_17h31.59.604,judgeSpeechMusic_20210921_logNormShiftAmp_detection_fixS,2020.1.2,Win32,60,,,,,,,,,,,,,,,,,,,,,,,,,,,,,,2,6.2054,,0,0,43,43,73,1,stimuli/stim_20210706_power2amp/equal_lnn_AM4.2Hz_s35_4.m4a,,,,,,,,,,,,
,,,,,41468,2021-09-25_17h31.59.604,judgeSpeechMusic_20210921_logNormShiftAmp_detection_fixS,2020.1.2,Win32,60,,,,,,,,,,,,,,,,,,,,,,,,,,,,,,1,6.0736,,0,0,44,44,21,1,stimuli/stim_20210706_power2amp/equal_lnn_AM1.2Hz_s35_47.m4a,,,,,,,,,,,,
,,,,,41468,2021-09-25_17h31.59.604,judgeSpeechMusic_20210921_logNormShiftAmp_detection_fixS,2020.1.2,Win32,60,,,,,,,,,,,,,,,,,,,,,,,,,,,,,,1,5.8466,,0,0,45,45,5,1,stimuli/stim_20210706_power2amp/equal_lnn_AM0.6Hz_s35_3.m4a,,,,,,,,,,,,
,,,,,41468,2021-09-25_17h31.59.604,judgeSpeechMusic_20210921_logNormShiftAmp_detection_fixS,2020.1.2,Win32,60,,,,,,,,,,,,,,,,,,,,,,,,,,,,,,1,5.713,,0,0,46,46,20,1,stimuli/stim_20210706_power2amp/equal_lnn_AM1.2Hz_s35_33.m4a,,,,,,,,,,,,
,,,,,41468,2021-09-25_17h31.59.604,judgeSpeechMusic_20210921_logNormShiftAmp_detection_fixS,2020.1.2,Win32,60,,,,,,,,,,,,,,,,,,,,,,,,,,,,,,1,7.4778,,0,0,47,47,19,1,stimuli/stim_20210706_power2amp/equal_lnn_AM1.2Hz_s35_15.m4a,,,,,,,,,,,,
,,,,,41468,2021-09-25_17h31.59.604,judgeSpeechMusic_20210921_logNormShiftAmp_detection_fixS,2020.1.2,Win32,60,,,,,,,,,,,,,,,,,,,,,,,,,,,,,,1,6.0723,,0,0,48,48,48,1,stimuli/stim_20210706_power2amp/equal_lnn_AM3.6Hz_s35_26.m4a,,,,,,,,,,,,
,,,,,41468,2021-09-25_17h31.59.604,judgeSpeechMusic_20210921_logNormShiftAmp_detection_fixS,2020.1.2,Win32,60,,,,,,,,,,,,,,,,,,,,,,,,,,,,,,1,5.9785,,0,0,49,49,28,1,stimuli/stim_20210706_power2amp/equal_lnn_AM1.2Hz_s35_17.m4a,,,,,,,,,,,,
,,,,,41468,2021-09-25_17h31.59.604,judgeSpeechMusic_20210921_logNormShiftAmp_detection_fixS,2020.1.2,Win32,60,,,,,,,,,,,,,,,,,,,,,,,,,,,,,,2,5.9593,,0,0,50,50,41,1,stimuli/stim_20210706_power2amp/equal_lnn_AM2.4Hz_s35_44.m4a,,,,,,,,,,,,
,,,,,41468,2021-09-25_17h31.59.604,judgeSpeechMusic_20210921_logNormShiftAmp_detection_fixS,2020.1.2,Win32,60,,,,,,,,,,,,,,,,,,,,,,,,,,,,,,2,6.0619,,0,0,51,51,36,1,stimuli/stim_20210706_power2amp/equal_lnn_AM2.4Hz_s35_21.m4a,,,,,,,,,,,,
,,,,,41468,2021-09-25_17h31.59.604,judgeSpeechMusic_20210921_logNormShiftAmp_detection_fixS,2020.1.2,Win32,60,,,,,,,,,,,,,,,,,,,,,,,,,,,,,,2,5.9672,,0,0,52,52,47,1,stimuli/stim_20210706_power2amp/equal_lnn_AM3.6Hz_s35_18.m4a,,,,,,,,,,,,
,,,,,41468,2021-09-25_17h31.59.604,judgeSpeechMusic_20210921_logNormShiftAmp_detection_fixS,2020.1.2,Win32,60,,,,,,,,,,,,,,,,,,,,,,,,,,,,,,1,5.941,,0,0,53,53,10,1,stimuli/stim_20210706_power2amp/equal_lnn_AM0.6Hz_s35_12.m4a,,,,,,,,,,,,
,,,,,41468,2021-09-25_17h31.59.604,judgeSpeechMusic_20210921_logNormShiftAmp_detection_fixS,2020.1.2,Win32,60,,,,,,,,,,,,,,,,,,,,,,,,,,,,,,1,5.8923,,0,0,54,54,56,1,stimuli/stim_20210706_power2amp/equal_lnn_AM3.6Hz_s35_31.m4a,,,,,,,,,,,,
,,,,,41468,2021-09-25_17h31.59.604,judgeSpeechMusic_20210921_logNormShiftAmp_detection_fixS,2020.1.2,Win32,60,,,,,,,,,,,,,,,,,,,,,,,,,,,,,,2,7.2777,,0,0,55,55,32,1,stimuli/stim_20210706_power2amp/equal_lnn_AM2.4Hz_s35_36.m4a,,,,,,,,,,,,
,,,,,41468,2021-09-25_17h31.59.604,judgeSpeechMusic_20210921_logNormShiftAmp_detection_fixS,2020.1.2,Win32,60,,,,,,,,,,,,,,,,,,,,,,,,,,,,,,2,8.9034,,0,0,56,56,50,1,stimuli/stim_20210706_power2amp/equal_lnn_AM3.6Hz_s35_43.m4a,,,,,,,,,,,,
,,,,,41468,2021-09-25_17h31.59.604,judgeSpeechMusic_20210921_logNormShiftAmp_detection_fixS,2020.1.2,Win32,60,,,,,,,,,,,,,,,,,,,,,,,,,,,,,,1,5.9067,,0,0,57,57,16,1,stimuli/stim_20210706_power2amp/equal_lnn_AM1.2Hz_s35_7.m4a,,,,,,,,,,,,
,,,,,41468,2021-09-25_17h31.59.604,judgeSpeechMusic_20210921_logNormShiftAmp_detection_fixS,2020.1.2,Win32,60,,,,,,,,,,,,,,,,,,,,,,,,,,,,,,1,5.9634,1,1,0,58,58,42,1,stimuli/stim_20210706_power2amp/equal_lnn_AM2.4Hz_s35_28.m4a,1.6984,,,,,,,,,,,
,,,,,41468,2021-09-25_17h31.59.604,judgeSpeechMusic_20210921_logNormShiftAmp_detection_fixS,2020.1.2,Win32,60,,,,,,,,,,,,,,,,,,,,,,,,,,,,,,1,6.4887,,0,0,59,59,0,1,stimuli/stim_20210706_power2amp/equal_lnn_AM0.6Hz_s35_25.m4a,,,,,,,,,,,,
,,,,,41468,2021-09-25_17h31.59.604,judgeSpeechMusic_20210921_logNormShiftAmp_detection_fixS,2020.1.2,Win32,60,,,,,,,,,,,,,,,,,,,,,,,,,,,,,,1,6.2234,,0,0,60,60,12,1,stimuli/stim_20210706_power2amp/equal_lnn_AM0.6Hz_s35_24.m4a,,,,,,,,,,,,
,,,,,41468,2021-09-25_17h31.59.604,judgeSpeechMusic_20210921_logNormShiftAmp_detection_fixS,2020.1.2,Win32,60,,,,,,,,,,,,,,,,,,,,,,,,,,,,,,1,6.2628,,0,0,61,61,4,1,stimuli/stim_20210706_power2amp/equal_lnn_AM0.6Hz_s35_26.m4a,,,,,,,,,,,,
,,,,,41468,2021-09-25_17h31.59.604,judgeSpeechMusic_20210921_logNormShiftAmp_detection_fixS,2020.1.2,Win32,60,,,,,,,,,,,,,,,,,,,,,,,,,,,,,,1,6.1292,,0,0,62,62,59,1,stimuli/stim_20210706_power2amp/equal_lnn_AM3.6Hz_s35_5.m4a,,,,,,,,,,,,
,,,,,41468,2021-09-25_17h31.59.604,judgeSpeechMusic_20210921_logNormShiftAmp_detection_fixS,2020.1.2,Win32,60,,,,,,,,,,,,,,,,,,,,,,,,,,,,,,1,5.8496,,0,0,63,63,3,1,stimuli/stim_20210706_power2amp/equal_lnn_AM0.6Hz_s35_34.m4a,,,,,,,,,,,,
,,,,,41468,2021-09-25_17h31.59.604,judgeSpeechMusic_20210921_logNormShiftAmp_detection_fixS,2020.1.2,Win32,60,,,,,,,,,,,,,,,,,,,,,,,,,,,,,,1,5.9752,,0,0,64,64,57,1,stimuli/stim_20210706_power2amp/equal_lnn_AM3.6Hz_s35_27.m4a,,,,,,,,,,,,
,,,,,41468,2021-09-25_17h31.59.604,judgeSpeechMusic_20210921_logNormShiftAmp_detection_fixS,2020.1.2,Win32,60,,,,,,,,,,,,,,,,,,,,,,,,,,,,,,2,6.9971,,0,0,65,65,69,1,stimuli/stim_20210706_power2amp/equal_lnn_AM4.2Hz_s35_7.m4a,,,,,,,,,,,,
,,,,,41468,2021-09-25_17h31.59.604,judgeSpeechMusic_20210921_logNormShiftAmp_detection_fixS,2020.1.2,Win32,60,,,,,,,,,,,,,,,,,,,,,,,,,,,,,,1,5.914,,0,0,66,66,23,1,stimuli/stim_20210706_power2amp/equal_lnn_AM1.2Hz_s35_30.m4a,,,,,,,,,,,,
,,,,,41468,2021-09-25_17h31.59.604,judgeSpeechMusic_20210921_logNormShiftAmp_detection_fixS,2020.1.2,Win32,60,,,,,,,,,,,,,,,,,,,,,,,,,,,,,,1,6.1148,,0,0,67,67,8,1,stimuli/stim_20210706_power2amp/equal_lnn_AM0.6Hz_s35_19.m4a,,,,,,,,,,,,
,,,,,41468,2021-09-25_17h31.59.604,judgeSpeechMusic_20210921_logNormShiftAmp_detection_fixS,2020.1.2,Win32,60,,,,,,,,,,,,,,,,,,,,,,,,,,,,,,2,7.2183,,0,0,68,68,37,1,stimuli/stim_20210706_power2amp/equal_lnn_AM2.4Hz_s35_14.m4a,,,,,,,,,,,,
,,,,,41468,2021-09-25_17h31.59.604,judgeSpeechMusic_20210921_logNormShiftAmp_detection_fixS,2020.1.2,Win32,60,,,,,,,,,,,,,,,,,,,,,,,,,,,,,,1,13.8722,,0,0,69,69,29,1,stimuli/stim_20210706_power2amp/equal_lnn_AM1.2Hz_s35_48.m4a,,,,,,,,,,,,
,,,,,41468,2021-09-25_17h31.59.604,judgeSpeechMusic_20210921_logNormShiftAmp_detection_fixS,2020.1.2,Win32,60,,,,,,,,,,,,,,,,,,,,,,,,,,,,,,1,5.946,,0,0,70,70,22,1,stimuli/stim_20210706_power2amp/equal_lnn_AM1.2Hz_s35_1.m4a,,,,,,,,,,,,
,,,,,41468,2021-09-25_17h31.59.604,judgeSpeechMusic_20210921_logNormShiftAmp_detection_fixS,2020.1.2,Win32,60,,,,,,,,,,,,,,,,,,,,,,,,,,,,,,1,6.9176,,0,0,71,71,6,1,stimuli/stim_20210706_power2amp/equal_lnn_AM0.6Hz_s35_50.m4a,,,,,,,,,,,,
,,,,,41468,2021-09-25_17h31.59.604,judgeSpeechMusic_20210921_logNormShiftAmp_detection_fixS,2020.1.2,Win32,60,,,,,,,,,,,,,,,,,,,,,,,,,,,,,,1,6.2715,,0,0,72,72,27,1,stimuli/stim_20210706_power2amp/equal_lnn_AM1.2Hz_s35_8.m4a,,,,,,,,,,,,
,,,,,41468,2021-09-25_17h31.59.604,judgeSpeechMusic_20210921_logNormShiftAmp_detection_fixS,2020.1.2,Win32,60,,,,,,,,,,,,,,,,,,,,,,,,,,,,,,1,6.1135,,0,0,73,73,13,1,stimuli/stim_20210706_power2amp/equal_lnn_AM0.6Hz_s35_36.m4a,,,,,,,,,,,,
,,,,,41468,2021-09-25_17h31.59.604,judgeSpeechMusic_20210921_logNormShiftAmp_detection_fixS,2020.1.2,Win32,60,,,,,,,,,,,,,,,,,,,,,,,,,,,,,,2,6.8798,,0,0,74,74,51,1,stimuli/stim_20210706_power2amp/equal_lnn_AM3.6Hz_s35_29.m4a,,,,,,,,,,,,
,,,,,41468,2021-09-25_17h31.59.604,judgeSpeechMusic_20210921_logNormShiftAmp_detection_fixS,2020.1.2,Win32,60,,,,,,,,,,,,,,,,,,,,,,,,,,,,,,,,,,,,,,,,,space,1.2296,0,0,0,1,1,SPEECH,stimuli/SPEECH.jpg,,
,,,,,41468,2021-09-25_17h31.59.604,judgeSpeechMusic_20210921_logNormShiftAmp_detection_fixS,2020.1.2,Win32,60,,,,,,,,,,,,,space,0.1673,2,13.7232,,0,0,0,0,2,1,stimuli/stim_20210706_power2amp/equal_lnn_AM_training3Hz_s35.m4a,,,,,,,,,,,,,,,,,,,,,,,,,,,
,,,,,41468,2021-09-25_17h31.59.604,judgeSpeechMusic_20210921_logNormShiftAmp_detection_fixS,2020.1.2,Win32,60,,,,,,,,,,,,,,,1,6.3517,,0,0,1,1,3,1,stimuli/stim_20210706_power2amp/equal_lnn_AM_training3.9Hz_s35.m4a,,,,,,,,,,,,,,,,,,,,,,,,,,,
,,,,,41468,2021-09-25_17h31.59.604,judgeSpeechMusic_20210921_logNormShiftAmp_detection_fixS,2020.1.2,Win32,60,,,,,,,,,,,,,,,1,11.4554,2,1,0,2,2,1,1,stimuli/stim_20210706_power2amp/equal_lnn_AM_training1.8Hz_s35.m4a,1.3571,,,,,,,,,,,,,,,,,,,,,,,,,,
,,,,,41468,2021-09-25_17h31.59.604,judgeSpeechMusic_20210921_logNormShiftAmp_detection_fixS,2020.1.2,Win32,60,,,,,,,,,,,,,,,1,6.4645,,0,0,3,3,0,1,stimuli/stim_20210706_power2amp/equal_lnn_AM_training0.9Hz_s35.m4a,,,,,,,,,,,,,,,,,,,,,,,,,,,
,,,,,41468,2021-09-25_17h31.59.604,judgeSpeechMusic_20210921_logNormShiftAmp_detection_fixS,2020.1.2,Win32,60,,,,,,,,,,,,,,,,,,,,,,,,,,space,2.6407,space,0.6501,1,6.3231,,0,0,0,0,37,1,stimuli/stim_20210706_power2amp/equal_lnn_AM2.4Hz_s35_14.m4a,,,,,,,,,,,,
,,,,,41468,2021-09-25_17h31.59.604,judgeSpeechMusic_20210921_logNormShiftAmp_detection_fixS,2020.1.2,Win32,60,,,,,,,,,,,,,,,,,,,,,,,,,,,,,,2,8.9123,,0,0,1,1,57,1,stimuli/stim_20210706_power2amp/equal_lnn_AM3.6Hz_s35_27.m4a,,,,,,,,,,,,
,,,,,41468,2021-09-25_17h31.59.604,judgeSpeechMusic_20210921_logNormShiftAmp_detection_fixS,2020.1.2,Win32,60,,,,,,,,,,,,,,,,,,,,,,,,,,,,,,2,6.3696,,0,0,2,2,41,1,stimuli/stim_20210706_power2amp/equal_lnn_AM2.4Hz_s35_44.m4a,,,,,,,,,,,,
,,,,,41468,2021-09-25_17h31.59.604,judgeSpeechMusic_20210921_logNormShiftAmp_detection_fixS,2020.1.2,Win32,60,,,,,,,,,,,,,,,,,,,,,,,,,,,,,,1,7.4555,,0,0,3,3,39,1,stimuli/stim_20210706_power2amp/equal_lnn_AM2.4Hz_s35_47.m4a,,,,,,,,,,,,
,,,,,41468,2021-09-25_17h31.59.604,judgeSpeechMusic_20210921_logNormShiftAmp_detection_fixS,2020.1.2,Win32,60,,,,,,,,,,,,,,,,,,,,,,,,,,,,,,1,6.0037,,0,0,4,4,31,1,stimuli/stim_20210706_power2amp/equal_lnn_AM2.4Hz_s35_26.m4a,,,,,,,,,,,,
,,,,,41468,2021-09-25_17h31.59.604,judgeSpeechMusic_20210921_logNormShiftAmp_detection_fixS,2020.1.2,Win32,60,,,,,,,,,,,,,,,,,,,,,,,,,,,,,,1,6.1296,,0,0,5,5,9,1,stimuli/stim_20210706_power2amp/equal_lnn_AM0.6Hz_s35_7.m4a,,,,,,,,,,,,
,,,,,41468,2021-09-25_17h31.59.604,judgeSpeechMusic_20210921_logNormShiftAmp_detection_fixS,2020.1.2,Win32,60,,,,,,,,,,,,,,,,,,,,,,,,,,,,,,2,6.2078,,0,0,6,6,30,1,stimuli/stim_20210706_power2amp/equal_lnn_AM2.4Hz_s35_34.m4a,,,,,,,,,,,,
,,,,,41468,2021-09-25_17h31.59.604,judgeSpeechMusic_20210921_logNormShiftAmp_detection_fixS,2020.1.2,Win32,60,,,,,,,,,,,,,,,,,,,,,,,,,,,,,,1,6.1166,,0,0,7,7,3,1,stimuli/stim_20210706_power2amp/equal_lnn_AM0.6Hz_s35_34.m4a,,,,,,,,,,,,
,,,,,41468,2021-09-25_17h31.59.604,judgeSpeechMusic_20210921_logNormShiftAmp_detection_fixS,2020.1.2,Win32,60,,,,,,,,,,,,,,,,,,,,,,,,,,,,,,2,6.9884,,0,0,8,8,40,1,stimuli/stim_20210706_power2amp/equal_lnn_AM2.4Hz_s35_4.m4a,,,,,,,,,,,,
,,,,,41468,2021-09-25_17h31.59.604,judgeSpeechMusic_20210921_logNormShiftAmp_detection_fixS,2020.1.2,Win32,60,,,,,,,,,,,,,,,,,,,,,,,,,,,,,,1,6.3154,,0,0,9,9,43,1,stimuli/stim_20210706_power2amp/equal_lnn_AM2.4Hz_s35_30.m4a,,,,,,,,,,,,
,,,,,41468,2021-09-25_17h31.59.604,judgeSpeechMusic_20210921_logNormShiftAmp_detection_fixS,2020.1.2,Win32,60,,,,,,,,,,,,,,,,,,,,,,,,,,,,,,1,6.4571,,0,0,10,10,62,1,stimuli/stim_20210706_power2amp/equal_lnn_AM4.2Hz_s35_20.m4a,,,,,,,,,,,,
,,,,,41468,2021-09-25_17h31.59.604,judgeSpeechMusic_20210921_logNormShiftAmp_detection_fixS,2020.1.2,Win32,60,,,,,,,,,,,,,,,,,,,,,,,,,,,,,,2,6.629,,0,0,11,11,67,1,stimuli/stim_20210706_power2amp/equal_lnn_AM4.2Hz_s35_40.m4a,,,,,,,,,,,,
,,,,,41468,2021-09-25_17h31.59.604,judgeSpeechMusic_20210921_logNormShiftAmp_detection_fixS,2020.1.2,Win32,60,,,,,,,,,,,,,,,,,,,,,,,,,,,,,,1,5.9656,,0,0,12,12,74,1,stimuli/stim_20210706_power2amp/equal_lnn_AM4.2Hz_s35_31.m4a,,,,,,,,,,,,
,,,,,41468,2021-09-25_17h31.59.604,judgeSpeechMusic_20210921_logNormShiftAmp_detection_fixS,2020.1.2,Win32,60,,,,,,,,,,,,,,,,,,,,,,,,,,,,,,2,6.5083,,0,0,13,13,26,1,stimuli/stim_20210706_power2amp/equal_lnn_AM1.2Hz_s35_19.m4a,,,,,,,,,,,,
,,,,,41468,2021-09-25_17h31.59.604,judgeSpeechMusic_20210921_logNormShiftAmp_detection_fixS,2020.1.2,Win32,60,,,,,,,,,,,,,,,,,,,,,,,,,,,,,,1,5.9119,,0,0,14,14,13,1,stimuli/stim_20210706_power2amp/equal_lnn_AM0.6Hz_s35_36.m4a,,,,,,,,,,,,
,,,,,41468,2021-09-25_17h31.59.604,judgeSpeechMusic_20210921_logNormShiftAmp_detection_fixS,2020.1.2,Win32,60,,,,,,,,,,,,,,,,,,,,,,,,,,,,,,2,6.0461,,0,0,15,15,34,1,stimuli/stim_20210706_power2amp/equal_lnn_AM2.4Hz_s35_25.m4a,,,,,,,,,,,,
,,,,,41468,2021-09-25_17h31.59.604,judgeSpeechMusic_20210921_logNormShiftAmp_detection_fixS,2020.1.2,Win32,60,,,,,,,,,,,,,,,,,,,,,,,,,,,,,,1,6.2718,,0,0,16,16,46,1,stimuli/stim_20210706_power2amp/equal_lnn_AM3.6Hz_s35_44.m4a,,,,,,,,,,,,
,,,,,41468,2021-09-25_17h31.59.604,judgeSpeechMusic_20210921_logNormShiftAmp_detection_fixS,2020.1.2,Win32,60,,,,,,,,,,,,,,,,,,,,,,,,,,,,,,2,9.4511,,0,0,17,17,24,1,stimuli/stim_20210706_power2amp/equal_lnn_AM1.2Hz_s35_32.m4a,,,,,,,,,,,,
,,,,,41468,2021-09-25_17h31.59.604,judgeSpeechMusic_20210921_logNormShiftAmp_detection_fixS,2020.1.2,Win32,60,,,,,,,,,,,,,,,,,,,,,,,,,,,,,,2,6.1044,1,1,0,18,18,54,1,stimuli/stim_20210706_power2amp/equal_lnn_AM3.6Hz_s35_25.m4a,1.2212,,,,,,,,,,,
,,,,,41468,2021-09-25_17h31.59.604,judgeSpeechMusic_20210921_logNormShiftAmp_detection_fixS,2020.1.2,Win32,60,,,,,,,,,,,,,,,,,,,,,,,,,,,,,,2,7.6268,,0,0,19,19,21,1,stimuli/stim_20210706_power2amp/equal_lnn_AM1.2Hz_s35_47.m4a,,,,,,,,,,,,
,,,,,41468,2021-09-25_17h31.59.604,judgeSpeechMusic_20210921_logNormShiftAmp_detection_fixS,2020.1.2,Win32,60,,,,,,,,,,,,,,,,,,,,,,,,,,,,,,1,6.5998,,0,0,20,20,8,1,stimuli/stim_20210706_power2amp/equal_lnn_AM0.6Hz_s35_19.m4a,,,,,,,,,,,,
,,,,,41468,2021-09-25_17h31.59.604,judgeSpeechMusic_20210921_logNormShiftAmp_detection_fixS,2020.1.2,Win32,60,,,,,,,,,,,,,,,,,,,,,,,,,,,,,,1,6.1008,,0,0,21,21,68,1,stimuli/stim_20210706_power2amp/equal_lnn_AM4.2Hz_s35_45.m4a,,,,,,,,,,,,
,,,,,41468,2021-09-25_17h31.59.604,judgeSpeechMusic_20210921_logNormShiftAmp_detection_fixS,2020.1.2,Win32,60,,,,,,,,,,,,,,,,,,,,,,,,,,,,,,2,6.1408,,0,0,22,22,58,1,stimuli/stim_20210706_power2amp/equal_lnn_AM3.6Hz_s35_6.m4a,,,,,,,,,,,,
,,,,,41468,2021-09-25_17h31.59.604,judgeSpeechMusic_20210921_logNormShiftAmp_detection_fixS,2020.1.2,Win32,60,,,,,,,,,,,,,,,,,,,,,,,,,,,,,,2,6.1796,,0,0,23,23,22,1,stimuli/stim_20210706_power2amp/equal_lnn_AM1.2Hz_s35_1.m4a,,,,,,,,,,,,
,,,,,41468,2021-09-25_17h31.59.604,judgeSpeechMusic_20210921_logNormShiftAmp_detection_fixS,2020.1.2,Win32,60,,,,,,,,,,,,,,,,,,,,,,,,,,,,,,1,5.9968,,0,0,24,24,10,1,stimuli/stim_20210706_power2amp/equal_lnn_AM0.6Hz_s35_12.m4a,,,,,,,,,,,,
,,,,,41468,2021-09-25_17h31.59.604,judgeSpeechMusic_20210921_logNormShiftAmp_detection_fixS,2020.1.2,Win32,60,,,,,,,,,,,,,,,,,,,,,,,,,,,,,,2,10.0619,,0,0,25,25,70,1,stimuli/stim_20210706_power2amp/equal_lnn_AM4.2Hz_s35_29.m4a,,,,,,,,,,,,
,,,,,41468,2021-09-25_17h31.59.604,judgeSpeechMusic_20210921_logNormShiftAmp_detection_fixS,2020.1.2,Win32,60,,,,,,,,,,,,,,,,,,,,,,,,,,,,,,1,6.2506,,0,0,26,26,66,1,stimuli/stim_20210706_power2amp/equal_lnn_AM4.2Hz_s35_10.m4a,,,,,,,,,,,,
,,,,,41468,2021-09-25_17h31.59.604,judgeSpeechMusic_20210921_logNormShiftAmp_detection_fixS,2020.1.2,Win32,60,,,,,,,,,,,,,,,,,,,,,,,,,,,,,,1,9.7772,,0,0,27,27,35,1,stimuli/stim_20210706_power2amp/equal_lnn_AM2.4Hz_s35_9.m4a,,,,,,,,,,,,
,,,,,41468,2021-09-25_17h31.59.604,judgeSpeechMusic_20210921_logNormShiftAmp_detection_fixS,2020.1.2,Win32,60,,,,,,,,,,,,,,,,,,,,,,,,,,,,,,1,5.8796,,0,0,28,28,15,1,stimuli/stim_20210706_power2amp/equal_lnn_AM1.2Hz_s35_44.m4a,,,,,,,,,,,,
,,,,,41468,2021-09-25_17h31.59.604,judgeSpeechMusic_20210921_logNormShiftAmp_detection_fixS,2020.1.2,Win32,60,,,,,,,,,,,,,,,,,,,,,,,,,,,,,,2,8.3996,,0,0,29,29,48,1,stimuli/stim_20210706_power2amp/equal_lnn_AM3.6Hz_s35_26.m4a,,,,,,,,,,,,
,,,,,41468,2021-09-25_17h31.59.604,judgeSpeechMusic_20210921_logNormShiftAmp_detection_fixS,2020.1.2,Win32,60,,,,,,,,,,,,,,,,,,,,,,,,,,,,,,1,6.4244,,0,0,30,30,20,1,stimuli/stim_20210706_power2amp/equal_lnn_AM1.2Hz_s35_33.m4a,,,,,,,,,,,,
,,,,,41468,2021-09-25_17h31.59.604,judgeSpeechMusic_20210921_logNormShiftAmp_detection_fixS,2020.1.2,Win32,60,,,,,,,,,,,,,,,,,,,,,,,,,,,,,,1,8.1563,,0,0,31,31,11,1,stimuli/stim_20210706_power2amp/equal_lnn_AM0.6Hz_s35_6.m4a,,,,,,,,,,,,
,,,,,41468,2021-09-25_17h31.59.604,judgeSpeechMusic_20210921_logNormShiftAmp_detection_fixS,2020.1.2,Win32,60,,,,,,,,,,,,,,,,,,,,,,,,,,,,,,2,6.0781,,0,0,32,32,27,1,stimuli/stim_20210706_power2amp/equal_lnn_AM1.2Hz_s35_8.m4a,,,,,,,,,,,,
,,,,,41468,2021-09-25_17h31.59.604,judgeSpeechMusic_20210921_logNormShiftAmp_detection_fixS,2020.1.2,Win32,60,,,,,,,,,,,,,,,,,,,,,,,,,,,,,,2,6.2111,,0,0,33,33,2,1,stimuli/stim_20210706_power2amp/equal_lnn_AM0.6Hz_s35_13.m4a,,,,,,,,,,,,
,,,,,41468,2021-09-25_17h31.59.604,judgeSpeechMusic_20210921_logNormShiftAmp_detection_fixS,2020.1.2,Win32,60,,,,,,,,,,,,,,,,,,,,,,,,,,,,,,1,5.9959,,0,0,34,34,29,1,stimuli/stim_20210706_power2amp/equal_lnn_AM1.2Hz_s35_48.m4a,,,,,,,,,,,,
,,,,,41468,2021-09-25_17h31.59.604,judgeSpeechMusic_20210921_logNormShiftAmp_detection_fixS,2020.1.2,Win32,60,,,,,,,,,,,,,,,,,,,,,,,,,,,,,,1,7.4075,,0,0,35,35,7,1,stimuli/stim_20210706_power2amp/equal_lnn_AM0.6Hz_s35_2.m4a,,,,,,,,,,,,
,,,,,41468,2021-09-25_17h31.59.604,judgeSpeechMusic_20210921_logNormShiftAmp_detection_fixS,2020.1.2,Win32,60,,,,,,,,,,,,,,,,,,,,,,,,,,,,,,2,6.3172,,0,0,36,36,65,1,stimuli/stim_20210706_power2amp/equal_lnn_AM4.2Hz_s35_35.m4a,,,,,,,,,,,,
,,,,,41468,2021-09-25_17h31.59.604,judgeSpeechMusic_20210921_logNormShiftAmp_detection_fixS,2020.1.2,Win32,60,,,,,,,,,,,,,,,,,,,,,,,,,,,,,,1,5.8622,,0,0,37,37,51,1,stimuli/stim_20210706_power2amp/equal_lnn_AM3.6Hz_s35_29.m4a,,,,,,,,,,,,
,,,,,41468,2021-09-25_17h31.59.604,judgeSpeechMusic_20210921_logNormShiftAmp_detection_fixS,2020.1.2,Win32,60,,,,,,,,,,,,,,,,,,,,,,,,,,,,,,1,6.2598,,0,0,38,38,45,1,stimuli/stim_20210706_power2amp/equal_lnn_AM3.6Hz_s35_10.m4a,,,,,,,,,,,,
,,,,,41468,2021-09-25_17h31.59.604,judgeSpeechMusic_20210921_logNormShiftAmp_detection_fixS,2020.1.2,Win32,60,,,,,,,,,,,,,,,,,,,,,,,,,,,,,,1,7.2898,,0,0,39,39,18,1,stimuli/stim_20210706_power2amp/equal_lnn_AM1.2Hz_s35_25.m4a,,,,,,,,,,,,
,,,,,41468,2021-09-25_17h31.59.604,judgeSpeechMusic_20210921_logNormShiftAmp_detection_fixS,2020.1.2,Win32,60,,,,,,,,,,,,,,,,,,,,,,,,,,,,,,2,7.4491,1,1,0,40,40,63,1,stimuli/stim_20210706_power2amp/equal_lnn_AM4.2Hz_s35_37.m4a,0.8407,,,,,,,,,,,
,,,,,41468,2021-09-25_17h31.59.604,judgeSpeechMusic_20210921_logNormShiftAmp_detection_fixS,2020.1.2,Win32,60,,,,,,,,,,,,,,,,,,,,,,,,,,,,,,2,8.1113,,0,0,41,41,33,1,stimuli/stim_20210706_power2amp/equal_lnn_AM2.4Hz_s35_38.m4a,,,,,,,,,,,,
,,,,,41468,2021-09-25_17h31.59.604,judgeSpeechMusic_20210921_logNormShiftAmp_detection_fixS,2020.1.2,Win32,60,,,,,,,,,,,,,,,,,,,,,,,,,,,,,,1,6.3752,,0,0,42,42,47,1,stimuli/stim_20210706_power2amp/equal_lnn_AM3.6Hz_s35_18.m4a,,,,,,,,,,,,
,,,,,41468,2021-09-25_17h31.59.604,judgeSpeechMusic_20210921_logNormShiftAmp_detection_fixS,2020.1.2,Win32,60,,,,,,,,,,,,,,,,,,,,,,,,,,,,,,1,5.9286,,0,0,43,43,17,1,stimuli/stim_20210706_power2amp/equal_lnn_AM1.2Hz_s35_49.m4a,,,,,,,,,,,,
,,,,,41468,2021-09-25_17h31.59.604,judgeSpeechMusic_20210921_logNormShiftAmp_detection_fixS,2020.1.2,Win32,60,,,,,,,,,,,,,,,,,,,,,,,,,,,,,,1,6.4085,,0,0,44,44,12,1,stimuli/stim_20210706_power2amp/equal_lnn_AM0.6Hz_s35_24.m4a,,,,,,,,,,,,
,,,,,41468,2021-09-25_17h31.59.604,judgeSpeechMusic_20210921_logNormShiftAmp_detection_fixS,2020.1.2,Win32,60,,,,,,,,,,,,,,,,,,,,,,,,,,,,,,1,5.9341,,0,0,45,45,1,1,stimuli/stim_20210706_power2amp/equal_lnn_AM0.6Hz_s35_45.m4a,,,,,,,,,,,,
,,,,,41468,2021-09-25_17h31.59.604,judgeSpeechMusic_20210921_logNormShiftAmp_detection_fixS,2020.1.2,Win32,60,,,,,,,,,,,,,,,,,,,,,,,,,,,,,,1,6.0327,,0,0,46,46,44,1,stimuli/stim_20210706_power2amp/equal_lnn_AM2.4Hz_s35_16.m4a,,,,,,,,,,,,
,,,,,41468,2021-09-25_17h31.59.604,judgeSpeechMusic_20210921_logNormShiftAmp_detection_fixS,2020.1.2,Win32,60,,,,,,,,,,,,,,,,,,,,,,,,,,,,,,2,5.7884,,0,0,47,47,73,1,stimuli/stim_20210706_power2amp/equal_lnn_AM4.2Hz_s35_4.m4a,,,,,,,,,,,,
,,,,,41468,2021-09-25_17h31.59.604,judgeSpeechMusic_20210921_logNormShiftAmp_detection_fixS,2020.1.2,Win32,60,,,,,,,,,,,,,,,,,,,,,,,,,,,,,,1,6.1959,,0,0,48,48,56,1,stimuli/stim_20210706_power2amp/equal_lnn_AM3.6Hz_s35_31.m4a,,,,,,,,,,,,
,,,,,41468,2021-09-25_17h31.59.604,judgeSpeechMusic_20210921_logNormShiftAmp_detection_fixS,2020.1.2,Win32,60,,,,,,,,,,,,,,,,,,,,,,,,,,,,,,1,6.1123,,0,0,49,49,59,1,stimuli/stim_20210706_power2amp/equal_lnn_AM3.6Hz_s35_5.m4a,,,,,,,,,,,,
,,,,,41468,2021-09-25_17h31.59.604,judgeSpeechMusic_20210921_logNormShiftAmp_detection_fixS,2020.1.2,Win32,60,,,,,,,,,,,,,,,,,,,,,,,,,,,,,,2,8.6942,,0,0,50,50,38,1,stimuli/stim_20210706_power2amp/equal_lnn_AM2.4Hz_s35_39.m4a,,,,,,,,,,,,
,,,,,41468,2021-09-25_17h31.59.604,judgeSpeechMusic_20210921_logNormShiftAmp_detection_fixS,2020.1.2,Win32,60,,,,,,,,,,,,,,,,,,,,,,,,,,,,,,1,6.1129,,0,0,51,51,52,1,stimuli/stim_20210706_power2amp/equal_lnn_AM3.6Hz_s35_50.m4a,,,,,,,,,,,,
,,,,,41468,2021-09-25_17h31.59.604,judgeSpeechMusic_20210921_logNormShiftAmp_detection_fixS,2020.1.2,Win32,60,,,,,,,,,,,,,,,,,,,,,,,,,,,,,,1,7.8854,,0,0,52,52,60,1,stimuli/stim_20210706_power2amp/equal_lnn_AM4.2Hz_s35_3.m4a,,,,,,,,,,,,
,,,,,41468,2021-09-25_17h31.59.604,judgeSpeechMusic_20210921_logNormShiftAmp_detection_fixS,2020.1.2,Win32,60,,,,,,,,,,,,,,,,,,,,,,,,,,,,,,1,7.1792,,0,0,53,53,64,1,stimuli/stim_20210706_power2amp/equal_lnn_AM4.2Hz_s35_27.m4a,,,,,,,,,,,,
,,,,,41468,2021-09-25_17h31.59.604,judgeSpeechMusic_20210921_logNormShiftAmp_detection_fixS,2020.1.2,Win32,60,,,,,,,,,,,,,,,,,,,,,,,,,,,,,,2,8.7543,,0,0,54,54,25,1,stimuli/stim_20210706_power2amp/equal_lnn_AM1.2Hz_s35_38.m4a,,,,,,,,,,,,
,,,,,41468,2021-09-25_17h31.59.604,judgeSpeechMusic_20210921_logNormShiftAmp_detection_fixS,2020.1.2,Win32,60,,,,,,,,,,,,,,,,,,,,,,,,,,,,,,1,6.2619,,0,0,55,55,4,1,stimuli/stim_20210706_power2amp/equal_lnn_AM0.6Hz_s35_26.m4a,,,,,,,,,,,,
,,,,,41468,2021-09-25_17h31.59.604,judgeSpeechMusic_20210921_logNormShiftAmp_detection_fixS,2020.1.2,Win32,60,,,,,,,,,,,,,,,,,,,,,,,,,,,,,,2,9.5786,,0,0,56,56,53,1,stimuli/stim_20210706_power2amp/equal_lnn_AM3.6Hz_s35_33.m4a,,,,,,,,,,,,
,,,,,41468,2021-09-25_17h31.59.604,judgeSpeechMusic_20210921_logNormShiftAmp_detection_fixS,2020.1.2,Win32,60,,,,,,,,,,,,,,,,,,,,,,,,,,,,,,1,5.9822,,0,0,57,57,36,1,stimuli/stim_20210706_power2amp/equal_lnn_AM2.4Hz_s35_21.m4a,,,,,,,,,,,,
,,,,,41468,2021-09-25_17h31.59.604,judgeSpeechMusic_20210921_logNormShiftAmp_detection_fixS,2020.1.2,Win32,60,,,,,,,,,,,,,,,,,,,,,,,,,,,,,,2,6.013,3,1,0,58,58,71,1,stimuli/stim_20210706_power2amp/equal_lnn_AM4.2Hz_s35_44.m4a,1.591,,,,,,,,,,,
,,,,,41468,2021-09-25_17h31.59.604,judgeSpeechMusic_20210921_logNormShiftAmp_detection_fixS,2020.1.2,Win32,60,,,,,,,,,,,,,,,,,,,,,,,,,,,,,,1,6.179,,0,0,59,59,14,1,stimuli/stim_20210706_power2amp/equal_lnn_AM0.6Hz_s35_40.m4a,,,,,,,,,,,,
,,,,,41468,2021-09-25_17h31.59.604,judgeSpeechMusic_20210921_logNormShiftAmp_detection_fixS,2020.1.2,Win32,60,,,,,,,,,,,,,,,,,,,,,,,,,,,,,,1,5.948,,0,0,60,60,0,1,stimuli/stim_20210706_power2amp/equal_lnn_AM0.6Hz_s35_25.m4a,,,,,,,,,,,,
,,,,,41468,2021-09-25_17h31.59.604,judgeSpeechMusic_20210921_logNormShiftAmp_detection_fixS,2020.1.2,Win32,60,,,,,,,,,,,,,,,,,,,,,,,,,,,,,,1,6.05,,0,0,61,61,28,1,stimuli/stim_20210706_power2amp/equal_lnn_AM1.2Hz_s35_17.m4a,,,,,,,,,,,,
,,,,,41468,2021-09-25_17h31.59.604,judgeSpeechMusic_20210921_logNormShiftAmp_detection_fixS,2020.1.2,Win32,60,,,,,,,,,,,,,,,,,,,,,,,,,,,,,,1,6.3293,,0,0,62,62,49,1,stimuli/stim_20210706_power2amp/equal_lnn_AM3.6Hz_s35_46.m4a,,,,,,,,,,,,
,,,,,41468,2021-09-25_17h31.59.604,judgeSpeechMusic_20210921_logNormShiftAmp_detection_fixS,2020.1.2,Win32,60,,,,,,,,,,,,,,,,,,,,,,,,,,,,,,1,7.2622,,0,0,63,63,55,1,stimuli/stim_20210706_power2amp/equal_lnn_AM3.6Hz_s35_3.m4a,,,,,,,,,,,,
,,,,,41468,2021-09-25_17h31.59.604,judgeSpeechMusic_20210921_logNormShiftAmp_detection_fixS,2020.1.2,Win32,60,,,,,,,,,,,,,,,,,,,,,,,,,,,,,,1,6,,0,0,64,64,61,1,stimuli/stim_20210706_power2amp/equal_lnn_AM4.2Hz_s35_28.m4a,,,,,,,,,,,,
,,,,,41468,2021-09-25_17h31.59.604,judgeSpeechMusic_20210921_logNormShiftAmp_detection_fixS,2020.1.2,Win32,60,,,,,,,,,,,,,,,,,,,,,,,,,,,,,,2,8.1448,,0,0,65,65,32,1,stimuli/stim_20210706_power2amp/equal_lnn_AM2.4Hz_s35_36.m4a,,,,,,,,,,,,
,,,,,41468,2021-09-25_17h31.59.604,judgeSpeechMusic_20210921_logNormShiftAmp_detection_fixS,2020.1.2,Win32,60,,,,,,,,,,,,,,,,,,,,,,,,,,,,,,2,6.6685,,0,0,66,66,42,1,stimuli/stim_20210706_power2amp/equal_lnn_AM2.4Hz_s35_28.m4a,,,,,,,,,,,,
,,,,,41468,2021-09-25_17h31.59.604,judgeSpeechMusic_20210921_logNormShiftAmp_detection_fixS,2020.1.2,Win32,60,,,,,,,,,,,,,,,,,,,,,,,,,,,,,,2,5.7188,,0,0,67,67,69,1,stimuli/stim_20210706_power2amp/equal_lnn_AM4.2Hz_s35_7.m4a,,,,,,,,,,,,
,,,,,41468,2021-09-25_17h31.59.604,judgeSpeechMusic_20210921_logNormShiftAmp_detection_fixS,2020.1.2,Win32,60,,,,,,,,,,,,,,,,,,,,,,,,,,,,,,1,6.0461,,0,0,68,68,23,1,stimuli/stim_20210706_power2amp/equal_lnn_AM1.2Hz_s35_30.m4a,,,,,,,,,,,,
,,,,,41468,2021-09-25_17h31.59.604,judgeSpeechMusic_20210921_logNormShiftAmp_detection_fixS,2020.1.2,Win32,60,,,,,,,,,,,,,,,,,,,,,,,,,,,,,,1,6.0892,,0,0,69,69,72,1,stimuli/stim_20210706_power2amp/equal_lnn_AM4.2Hz_s35_46.m4a,,,,,,,,,,,,
,,,,,41468,2021-09-25_17h31.59.604,judgeSpeechMusic_20210921_logNormShiftAmp_detection_fixS,2020.1.2,Win32,60,,,,,,,,,,,,,,,,,,,,,,,,,,,,,,1,5.9818,,0,0,70,70,5,1,stimuli/stim_20210706_power2amp/equal_lnn_AM0.6Hz_s35_3.m4a,,,,,,,,,,,,
,,,,,41468,2021-09-25_17h31.59.604,judgeSpeechMusic_20210921_logNormShiftAmp_detection_fixS,2020.1.2,Win32,60,,,,,,,,,,,,,,,,,,,,,,,,,,,,,,1,5.9261,,0,0,71,71,16,1,stimuli/stim_20210706_power2amp/equal_lnn_AM1.2Hz_s35_7.m4a,,,,,,,,,,,,
,,,,,41468,2021-09-25_17h31.59.604,judgeSpeechMusic_20210921_logNormShiftAmp_detection_fixS,2020.1.2,Win32,60,,,,,,,,,,,,,,,,,,,,,,,,,,,,,,2,5.8281,,0,0,72,72,50,1,stimuli/stim_20210706_power2amp/equal_lnn_AM3.6Hz_s35_43.m4a,,,,,,,,,,,,
,,,,,41468,2021-09-25_17h31.59.604,judgeSpeechMusic_20210921_logNormShiftAmp_detection_fixS,2020.1.2,Win32,60,,,,,,,,,,,,,,,,,,,,,,,,,,,,,,2,6.2624,,0,0,73,73,19,1,stimuli/stim_20210706_power2amp/equal_lnn_AM1.2Hz_s35_15.m4a,,,,,,,,,,,,
,,,,,41468,2021-09-25_17h31.59.604,judgeSpeechMusic_20210921_logNormShiftAmp_detection_fixS,2020.1.2,Win32,60,,,,,,,,,,,,,,,,,,,,,,,,,,,,,,1,5.9672,,0,0,74,74,6,1,stimuli/stim_20210706_power2amp/equal_lnn_AM0.6Hz_s35_50.m4a,,,,,,,,,,,,
,,,,,41468,2021-09-25_17h31.59.604,judgeSpeechMusic_20210921_logNormShiftAmp_detection_fixS,2020.1.2,Win32,60,,,,,,,,,,,,,,,,,,,,,,,,,,,,,,,,,,,,,,,,,space,0.8859,0,1,1,0,1,MUSIC,stimuli/MUSIC.jpg,,
,,,,,41468,2021-09-25_17h31.59.604,judgeSpeechMusic_20210921_logNormShiftAmp_detection_fixS,2020.1.2,Win32,60,,,,,,,,,,,,,,,,,,0,0,0,0,3,1,stimuli/stim_20210706_power2amp/equal_lnn_AM_training3.9Hz_s35.m4a,,,,,,,,,,,,,,,,,,,,,,,,,,,
,,,,,41468,2021-09-25_17h31.59.604,judgeSpeechMusic_20210921_logNormShiftAmp_detection_fixS,2020.1.2,Win32,60,,,,,,,,,,,,,,,,,,,,,,,,,,space,10.6804,space,1.558,2,11.5736,,0,0,0,0,39,1,stimuli/stim_20210706_power2amp/equal_lnn_AM2.4Hz_s35_47.m4a,,,,,,,,,,,,
,,,,,41468,2021-09-25_17h31.59.604,judgeSpeechMusic_20210921_logNormShiftAmp_detection_fixS,2020.1.2,Win32,60,,,,,,,,,,,,,,,,,,,,,,,,,,,,,,1,6.4117,,0,0,1,1,63,1,stimuli/stim_20210706_power2amp/equal_lnn_AM4.2Hz_s35_37.m4a,,,,,,,,,,,,
,,,,,41468,2021-09-25_17h31.59.604,judgeSpeechMusic_20210921_logNormShiftAmp_detection_fixS,2020.1.2,Win32,60,,,,,,,,,,,,,,,,,,,,,,,,,,,,,,1,5.6964,,0,0,2,2,0,1,stimuli/stim_20210706_power2amp/equal_lnn_AM0.6Hz_s35_25.m4a,,,,,,,,,,,,
,,,,,41468,2021-09-25_17h31.59.604,judgeSpeechMusic_20210921_logNormShiftAmp_detection_fixS,2020.1.2,Win32,60,,,,,,,,,,,,,,,,,,,,,,,,,,,,,,2,6.069,,0,0,3,3,74,1,stimuli/stim_20210706_power2amp/equal_lnn_AM4.2Hz_s35_31.m4a,,,,,,,,,,,,
,,,,,41468,2021-09-25_17h31.59.604,judgeSpeechMusic_20210921_logNormShiftAmp_detection_fixS,2020.1.2,Win32,60,,,,,,,,,,,,,,,,,,,,,,,,,,,,,,2,6.5491,,0,0,4,4,37,1,stimuli/stim_20210706_power2amp/equal_lnn_AM2.4Hz_s35_14.m4a,,,,,,,,,,,,
,,,,,41468,2021-09-25_17h31.59.604,judgeSpeechMusic_20210921_logNormShiftAmp_detection_fixS,2020.1.2,Win32,60,,,,,,,,,,,,,,,,,,,,,,,,,,,,,,1,5.8959,,0,0,5,5,3,1,stimuli/stim_20210706_power2amp/equal_lnn_AM0.6Hz_s35_34.m4a,,,,,,,,,,,,
,,,,,41468,2021-09-25_17h31.59.604,judgeSpeechMusic_20210921_logNormShiftAmp_detection_fixS,2020.1.2,Win32,60,,,,,,,,,,,,,,,,,,,,,,,,,,,,,,1,5.9028,,0,0,6,6,10,1,stimuli/stim_20210706_power2amp/equal_lnn_AM0.6Hz_s35_12.m4a,,,,,,,,,,,,
,,,,,41468,2021-09-25_17h31.59.604,judgeSpeechMusic_20210921_logNormShiftAmp_detection_fixS,2020.1.2,Win32,60,,,,,,,,,,,,,,,,,,,,,,,,,,,,,,2,5.8794,,0,0,7,7,64,1,stimuli/stim_20210706_power2amp/equal_lnn_AM4.2Hz_s35_27.m4a,,,,,,,,,,,,
,,,,,41468,2021-09-25_17h31.59.604,judgeSpeechMusic_20210921_logNormShiftAmp_detection_fixS,2020.1.2,Win32,60,,,,,,,,,,,,,,,,,,,,,,,,,,,,,,2,6.5793,,0,0,8,8,62,1,stimuli/stim_20210706_power2amp/equal_lnn_AM4.2Hz_s35_20.m4a,,,,,,,,,,,,
,,,,,41468,2021-09-25_17h31.59.604,judgeSpeechMusic_20210921_logNormShiftAmp_detection_fixS,2020.1.2,Win32,60,,,,,,,,,,,,,,,,,,,,,,,,,,,,,,1,5.8698,,0,0,9,9,16,1,stimuli/stim_20210706_power2amp/equal_lnn_AM1.2Hz_s35_7.m4a,,,,,,,,,,,,
,,,,,41468,2021-09-25_17h31.59.604,judgeSpeechMusic_20210921_logNormShiftAmp_detection_fixS,2020.1.2,Win32,60,,,,,,,,,,,,,,,,,,,,,,,,,,,,,,2,7.8036,,0,0,10,10,25,1,stimuli/stim_20210706_power2amp/equal_lnn_AM1.2Hz_s35_38.m4a,,,,,,,,,,,,
,,,,,41468,2021-09-25_17h31.59.604,judgeSpeechMusic_20210921_logNormShiftAmp_detection_fixS,2020.1.2,Win32,60,,,,,,,,,,,,,,,,,,,,,,,,,,,,,,1,6.1221,,0,0,11,11,26,1,stimuli/stim_20210706_power2amp/equal_lnn_AM1.2Hz_s35_19.m4a,,,,,,,,,,,,
,,,,,41468,2021-09-25_17h31.59.604,judgeSpeechMusic_20210921_logNormShiftAmp_detection_fixS,2020.1.2,Win32,60,,,,,,,,,,,,,,,,,,,,,,,,,,,,,,1,6.2132,,0,0,12,12,66,1,stimuli/stim_20210706_power2amp/equal_lnn_AM4.2Hz_s35_10.m4a,,,,,,,,,,,,
,,,,,41468,2021-09-25_17h31.59.604,judgeSpeechMusic_20210921_logNormShiftAmp_detection_fixS,2020.1.2,Win32,60,,,,,,,,,,,,,,,,,,,,,,,,,,,,,,1,5.9133,,0,0,13,13,20,1,stimuli/stim_20210706_power2amp/equal_lnn_AM1.2Hz_s35_33.m4a,,,,,,,,,,,,
,,,,,41468,2021-09-25_17h31.59.604,judgeSpeechMusic_20210921_logNormShiftAmp_detection_fixS,2020.1.2,Win32,60,,,,,,,,,,,,,,,,,,,,,,,,,,,,,,1,5.822,,0,0,14,14,14,1,stimuli/stim_20210706_power2amp/equal_lnn_AM0.6Hz_s35_40.m4a,,,,,,,,,,,,
,,,,,41468,2021-09-25_17h31.59.604,judgeSpeechMusic_20210921_logNormShiftAmp_detection_fixS,2020.1.2,Win32,60,,,,,,,,,,,,,,,,,,,,,,,,,,,,,,1,6.0656,,0,0,15,15,22,1,stimuli/stim_20210706_power2amp/equal_lnn_AM1.2Hz_s35_1.m4a,,,,,,,,,,,,
,,,,,41468,2021-09-25_17h31.59.604,judgeSpeechMusic_20210921_logNormShiftAmp_detection_fixS,2020.1.2,Win32,60,,,,,,,,,,,,,,,,,,,,,,,,,,,,,,1,5.7718,,0,0,16,16,24,1,stimuli/stim_20210706_power2amp/equal_lnn_AM1.2Hz_s35_32.m4a,,,,,,,,,,,,
,,,,,41468,2021-09-25_17h31.59.604,judgeSpeechMusic_20210921_logNormShiftAmp_detection_fixS,2020.1.2,Win32,60,,,,,,,,,,,,,,,,,,,,,,,,,,,,,,1,5.9458,,0,0,17,17,2,1,stimuli/stim_20210706_power2amp/equal_lnn_AM0.6Hz_s35_13.m4a,,,,,,,,,,,,
,,,,,41468,2021-09-25_17h31.59.604,judgeSpeechMusic_20210921_logNormShiftAmp_detection_fixS,2020.1.2,Win32,60,,,,,,,,,,,,,,,,,,,,,,,,,,,,,,2,5.8399,1,1,0,18,18,40,1,stimuli/stim_20210706_power2amp/equal_lnn_AM2.4Hz_s35_4.m4a,1.5861,,,,,,,,,,,
,,,,,41468,2021-09-25_17h31.59.604,judgeSpeechMusic_20210921_logNormShiftAmp_detection_fixS,2020.1.2,Win32,60,,,,,,,,,,,,,,,,,,,,,,,,,,,,,,2,6.3488,,0,0,19,19,42,1,stimuli/stim_20210706_power2amp/equal_lnn_AM2.4Hz_s35_28.m4a,,,,,,,,,,,,
,,,,,41468,2021-09-25_17h31.59.604,judgeSpeechMusic_20210921_logNormShiftAmp_detection_fixS,2020.1.2,Win32,60,,,,,,,,,,,,,,,,,,,,,,,,,,,,,,2,6.048,,0,0,20,20,47,1,stimuli/stim_20210706_power2amp/equal_lnn_AM3.6Hz_s35_18.m4a,,,,,,,,,,,,
,,,,,41468,2021-09-25_17h31.59.604,judgeSpeechMusic_20210921_logNormShiftAmp_detection_fixS,2020.1.2,Win32,60,,,,,,,,,,,,,,,,,,,,,,,,,,,,,,1,6.217,,0,0,21,21,17,1,stimuli/stim_20210706_power2amp/equal_lnn_AM1.2Hz_s35_49.m4a,,,,,,,,,,,,
,,,,,41468,2021-09-25_17h31.59.604,judgeSpeechMusic_20210921_logNormShiftAmp_detection_fixS,2020.1.2,Win32,60,,,,,,,,,,,,,,,,,,,,,,,,,,,,,,2,6.0374,,0,0,22,22,44,1,stimuli/stim_20210706_power2amp/equal_lnn_AM2.4Hz_s35_16.m4a,,,,,,,,,,,,
,,,,,41468,2021-09-25_17h31.59.604,judgeSpeechMusic_20210921_logNormShiftAmp_detection_fixS,2020.1.2,Win32,60,,,,,,,,,,,,,,,,,,,,,,,,,,,,,,1,7.2892,,0,0,23,23,36,1,stimuli/stim_20210706_power2amp/equal_lnn_AM2.4Hz_s35_21.m4a,,,,,,,,,,,,
,,,,,41468,2021-09-25_17h31.59.604,judgeSpeechMusic_20210921_logNormShiftAmp_detection_fixS,2020.1.2,Win32,60,,,,,,,,,,,,,,,,,,,,,,,,,,,,,,1,5.9469,,0,0,24,24,52,1,stimuli/stim_20210706_power2amp/equal_lnn_AM3.6Hz_s35_50.m4a,,,,,,,,,,,,
,,,,,41468,2021-09-25_17h31.59.604,judgeSpeechMusic_20210921_logNormShiftAmp_detection_fixS,2020.1.2,Win32,60,,,,,,,,,,,,,,,,,,,,,,,,,,,,,,2,7.234,,0,0,25,25,45,1,stimuli/stim_20210706_power2amp/equal_lnn_AM3.6Hz_s35_10.m4a,,,,,,,,,,,,
,,,,,41468,2021-09-25_17h31.59.604,judgeSpeechMusic_20210921_logNormShiftAmp_detection_fixS,2020.1.2,Win32,60,,,,,,,,,,,,,,,,,,,,,,,,,,,,,,2,6.5976,,0,0,26,26,18,1,stimuli/stim_20210706_power2amp/equal_lnn_AM1.2Hz_s35_25.m4a,,,,,,,,,,,,
,,,,,41468,2021-09-25_17h31.59.604,judgeSpeechMusic_20210921_logNormShiftAmp_detection_fixS,2020.1.2,Win32,60,,,,,,,,,,,,,,,,,,,,,,,,,,,,,,2,5.8292,,0,0,27,27,53,1,stimuli/stim_20210706_power2amp/equal_lnn_AM3.6Hz_s35_33.m4a,,,,,,,,,,,,
,,,,,41468,2021-09-25_17h31.59.604,judgeSpeechMusic_20210921_logNormShiftAmp_detection_fixS,2020.1.2,Win32,60,,,,,,,,,,,,,,,,,,,,,,,,,,,,,,2,7.1214,,0,0,28,28,55,1,stimuli/stim_20210706_power2amp/equal_lnn_AM3.6Hz_s35_3.m4a,,,,,,,,,,,,
,,,,,41468,2021-09-25_17h31.59.604,judgeSpeechMusic_20210921_logNormShiftAmp_detection_fixS,2020.1.2,Win32,60,,,,,,,,,,,,,,,,,,,,,,,,,,,,,,1,6.0044,,0,0,29,29,11,1,stimuli/stim_20210706_power2amp/equal_lnn_AM0.6Hz_s35_6.m4a,,,,,,,,,,,,
,,,,,41468,2021-09-25_17h31.59.604,judgeSpeechMusic_20210921_logNormShiftAmp_detection_fixS,2020.1.2,Win32,60,,,,,,,,,,,,,,,,,,,,,,,,,,,,,,1,6.3463,,0,0,30,30,68,1,stimuli/stim_20210706_power2amp/equal_lnn_AM4.2Hz_s35_45.m4a,,,,,,,,,,,,
,,,,,41468,2021-09-25_17h31.59.604,judgeSpeechMusic_20210921_logNormShiftAmp_detection_fixS,2020.1.2,Win32,60,,,,,,,,,,,,,,,,,,,,,,,,,,,,,,1,6.0367,,0,0,31,31,5,1,stimuli/stim_20210706_power2amp/equal_lnn_AM0.6Hz_s35_3.m4a,,,,,,,,,,,,
,,,,,41468,2021-09-25_17h31.59.604,judgeSpeechMusic_20210921_logNormShiftAmp_detection_fixS,2020.1.2,Win32,60,,,,,,,,,,,,,,,,,,,,,,,,,,,,,,2,6.2324,,0,0,32,32,57,1,stimuli/stim_20210706_power2amp/equal_lnn_AM3.6Hz_s35_27.m4a,,,,,,,,,,,,
,,,,,41468,2021-09-25_17h31.59.604,judgeSpeechMusic_20210921_logNormShiftAmp_detection_fixS,2020.1.2,Win32,60,,,,,,,,,,,,,,,,,,,,,,,,,,,,,,2,5.7875,,0,0,33,33,35,1,stimuli/stim_20210706_power2amp/equal_lnn_AM2.4Hz_s35_9.m4a,,,,,,,,,,,,
,,,,,41468,2021-09-25_17h31.59.604,judgeSpeechMusic_20210921_logNormShiftAmp_detection_fixS,2020.1.2,Win32,60,,,,,,,,,,,,,,,,,,,,,,,,,,,,,,1,5.8893,,0,0,34,34,67,1,stimuli/stim_20210706_power2amp/equal_lnn_AM4.2Hz_s35_40.m4a,,,,,,,,,,,,
,,,,,41468,2021-09-25_17h31.59.604,judgeSpeechMusic_20210921_logNormShiftAmp_detection_fixS,2020.1.2,Win32,60,,,,,,,,,,,,,,,,,,,,,,,,,,,,,,2,5.9149,,0,0,35,35,48,1,stimuli/stim_20210706_power2amp/equal_lnn_AM3.6Hz_s35_26.m4a,,,,,,,,,,,,
,,,,,41468,2021-09-25_17h31.59.604,judgeSpeechMusic_20210921_logNormShiftAmp_detection_fixS,2020.1.2,Win32,60,,,,,,,,,,,,,,,,,,,,,,,,,,,,,,1,7.6455,,0,0,36,36,65,1,stimuli/stim_20210706_power2amp/equal_lnn_AM4.2Hz_s35_35.m4a,,,,,,,,,,,,
,,,,,41468,2021-09-25_17h31.59.604,judgeSpeechMusic_20210921_logNormShiftAmp_detection_fixS,2020.1.2,Win32,60,,,,,,,,,,,,,,,,,,,,,,,,,,,,,,2,6.0321,,0,0,37,37,50,1,stimuli/stim_20210706_power2amp/equal_lnn_AM3.6Hz_s35_43.m4a,,,,,,,,,,,,
,,,,,41468,2021-09-25_17h31.59.604,judgeSpeechMusic_20210921_logNormShiftAmp_detection_fixS,2020.1.2,Win32,60,,,,,,,,,,,,,,,,,,,,,,,,,,,,,,1,5.813,,0,0,38,38,71,1,stimuli/stim_20210706_power2amp/equal_lnn_AM4.2Hz_s35_44.m4a,,,,,,,,,,,,
,,,,,41468,2021-09-25_17h31.59.604,judgeSpeechMusic_20210921_logNormShiftAmp_detection_fixS,2020.1.2,Win32,60,,,,,,,,,,,,,,,,,,,,,,,,,,,,,,1,5.9621,,0,0,39,39,8,1,stimuli/stim_20210706_power2amp/equal_lnn_AM0.6Hz_s35_19.m4a,,,,,,,,,,,,
,,,,,41468,2021-09-25_17h31.59.604,judgeSpeechMusic_20210921_logNormShiftAmp_detection_fixS,2020.1.2,Win32,60,,,,,,,,,,,,,,,,,,,,,,,,,,,,,,1,6.8307,4,1,0,40,40,19,1,stimuli/stim_20210706_power2amp/equal_lnn_AM1.2Hz_s35_15.m4a,1.9689,,,,,,,,,,,
,,,,,41468,2021-09-25_17h31.59.604,judgeSpeechMusic_20210921_logNormShiftAmp_detection_fixS,2020.1.2,Win32,60,,,,,,,,,,,,,,,,,,,,,,,,,,,,,,2,6.7902,,0,0,41,41,38,1,stimuli/stim_20210706_power2amp/equal_lnn_AM2.4Hz_s35_39.m4a,,,,,,,,,,,,
,,,,,41468,2021-09-25_17h31.59.604,judgeSpeechMusic_20210921_logNormShiftAmp_detection_fixS,2020.1.2,Win32,60,,,,,,,,,,,,,,,,,,,,,,,,,,,,,,1,7.0203,,0,0,42,42,29,1,stimuli/stim_20210706_power2amp/equal_lnn_AM1.2Hz_s35_48.m4a,,,,,,,,,,,,
,,,,,41468,2021-09-25_17h31.59.604,judgeSpeechMusic_20210921_logNormShiftAmp_detection_fixS,2020.1.2,Win32,60,,,,,,,,,,,,,,,,,,,,,,,,,,,,,,2,6.0416,,0,0,43,43,27,1,stimuli/stim_20210706_power2amp/equal_lnn_AM1.2Hz_s35_8.m4a,,,,,,,,,,,,
,,,,,41468,2021-09-25_17h31.59.604,judgeSpeechMusic_20210921_logNormShiftAmp_detection_fixS,2020.1.2,Win32,60,,,,,,,,,,,,,,,,,,,,,,,,,,,,,,2,6.0794,,0,0,44,44,34,1,stimuli/stim_20210706_power2amp/equal_lnn_AM2.4Hz_s35_25.m4a,,,,,,,,,,,,
,,,,,41468,2021-09-25_17h31.59.604,judgeSpeechMusic_20210921_logNormShiftAmp_detection_fixS,2020.1.2,Win32,60,,,,,,,,,,,,,,,,,,,,,,,,,,,,,,1,7.7447,,0,0,45,45,43,1,stimuli/stim_20210706_power2amp/equal_lnn_AM2.4Hz_s35_30.m4a,,,,,,,,,,,,
,,,,,41468,2021-09-25_17h31.59.604,judgeSpeechMusic_20210921_logNormShiftAmp_detection_fixS,2020.1.2,Win32,60,,,,,,,,,,,,,,,,,,,,,,,,,,,,,,1,5.9464,,0,0,46,46,61,1,stimuli/stim_20210706_power2amp/equal_lnn_AM4.2Hz_s35_28.m4a,,,,,,,,,,,,
,,,,,41468,2021-09-25_17h31.59.604,judgeSpeechMusic_20210921_logNormShiftAmp_detection_fixS,2020.1.2,Win32,60,,,,,,,,,,,,,,,,,,,,,,,,,,,,,,1,6.0848,,0,0,47,47,60,1,stimuli/stim_20210706_power2amp/equal_lnn_AM4.2Hz_s35_3.m4a,,,,,,,,,,,,
,,,,,41468,2021-09-25_17h31.59.604,judgeSpeechMusic_20210921_logNormShiftAmp_detection_fixS,2020.1.2,Win32,60,,,,,,,,,,,,,,,,,,,,,,,,,,,,,,2,6.3901,,0,0,48,48,30,1,stimuli/stim_20210706_power2amp/equal_lnn_AM2.4Hz_s35_34.m4a,,,,,,,,,,,,
,,,,,41468,2021-09-25_17h31.59.604,judgeSpeechMusic_20210921_logNormShiftAmp_detection_fixS,2020.1.2,Win32,60,,,,,,,,,,,,,,,,,,,,,,,,,,,,,,1,6.0035,,0,0,49,49,23,1,stimuli/stim_20210706_power2amp/equal_lnn_AM1.2Hz_s35_30.m4a,,,,,,,,,,,,
,,,,,41468,2021-09-25_17h31.59.604,judgeSpeechMusic_20210921_logNormShiftAmp_detection_fixS,2020.1.2,Win32,60,,,,,,,,,,,,,,,,,,,,,,,,,,,,,,1,6.0398,,0,0,50,50,12,1,stimuli/stim_20210706_power2amp/equal_lnn_AM0.6Hz_s35_24.m4a,,,,,,,,,,,,
,,,,,41468,2021-09-25_17h31.59.604,judgeSpeechMusic_20210921_logNormShiftAmp_detection_fixS,2020.1.2,Win32,60,,,,,,,,,,,,,,,,,,,,,,,,,,,,,,1,6.5238,,0,0,51,51,6,1,stimuli/stim_20210706_power2amp/equal_lnn_AM0.6Hz_s35_50.m4a,,,,,,,,,,,,
,,,,,41468,2021-09-25_17h31.59.604,judgeSpeechMusic_20210921_logNormShiftAmp_detection_fixS,2020.1.2,Win32,60,,,,,,,,,,,,,,,,,,,,,,,,,,,,,,2,6.068,,0,0,52,52,73,1,stimuli/stim_20210706_power2amp/equal_lnn_AM4.2Hz_s35_4.m4a,,,,,,,,,,,,
,,,,,41468,2021-09-25_17h31.59.604,judgeSpeechMusic_20210921_logNormShiftAmp_detection_fixS,2020.1.2,Win32,60,,,,,,,,,,,,,,,,,,,,,,,,,,,,,,1,6.6313,,0,0,53,53,70,1,stimuli/stim_20210706_power2amp/equal_lnn_AM4.2Hz_s35_29.m4a,,,,,,,,,,,,
,,,,,41468,2021-09-25_17h31.59.604,judgeSpeechMusic_20210921_logNormShiftAmp_detection_fixS,2020.1.2,Win32,60,,,,,,,,,,,,,,,,,,,,,,,,,,,,,,1,9.2266,,0,0,54,54,31,1,stimuli/stim_20210706_power2amp/equal_lnn_AM2.4Hz_s35_26.m4a,,,,,,,,,,,,
,,,,,41468,2021-09-25_17h31.59.604,judgeSpeechMusic_20210921_logNormShiftAmp_detection_fixS,2020.1.2,Win32,60,,,,,,,,,,,,,,,,,,,,,,,,,,,,,,1,6.3756,,0,0,55,55,46,1,stimuli/stim_20210706_power2amp/equal_lnn_AM3.6Hz_s35_44.m4a,,,,,,,,,,,,
,,,,,41468,2021-09-25_17h31.59.604,judgeSpeechMusic_20210921_logNormShiftAmp_detection_fixS,2020.1.2,Win32,60,,,,,,,,,,,,,,,,,,,,,,,,,,,,,,1,6.1418,,0,0,56,56,13,1,stimuli/stim_20210706_power2amp/equal_lnn_AM0.6Hz_s35_36.m4a,,,,,,,,,,,,
,,,,,41468,2021-09-25_17h31.59.604,judgeSpeechMusic_20210921_logNormShiftAmp_detection_fixS,2020.1.2,Win32,60,,,,,,,,,,,,,,,,,,,,,,,,,,,,,,1,5.9803,,0,0,57,57,1,1,stimuli/stim_20210706_power2amp/equal_lnn_AM0.6Hz_s35_45.m4a,,,,,,,,,,,,
,,,,,41468,2021-09-25_17h31.59.604,judgeSpeechMusic_20210921_logNormShiftAmp_detection_fixS,2020.1.2,Win32,60,,,,,,,,,,,,,,,,,,,,,,,,,,,,,,2,8.362,4,1,0,58,58,69,1,stimuli/stim_20210706_power2amp/equal_lnn_AM4.2Hz_s35_7.m4a,1.4194,,,,,,,,,,,
,,,,,41468,2021-09-25_17h31.59.604,judgeSpeechMusic_20210921_logNormShiftAmp_detection_fixS,2020.1.2,Win32,60,,,,,,,,,,,,,,,,,,,,,,,,,,,,,,2,8.8929,,0,0,59,59,59,1,stimuli/stim_20210706_power2amp/equal_lnn_AM3.6Hz_s35_5.m4a,,,,,,,,,,,,
,,,,,41468,2021-09-25_17h31.59.604,judgeSpeechMusic_20210921_logNormShiftAmp_detection_fixS,2020.1.2,Win32,60,,,,,,,,,,,,,,,,,,,,,,,,,,,,,,2,7.8777,,0,0,60,60,49,1,stimuli/stim_20210706_power2amp/equal_lnn_AM3.6Hz_s35_46.m4a,,,,,,,,,,,,
,,,,,41468,2021-09-25_17h31.59.604,judgeSpeechMusic_20210921_logNormShiftAmp_detection_fixS,2020.1.2,Win32,60,,,,,,,,,,,,,,,,,,,,,,,,,,,,,,2,8.5563,,0,0,61,61,21,1,stimuli/stim_20210706_power2amp/equal_lnn_AM1.2Hz_s35_47.m4a,,,,,,,,,,,,
,,,,,41468,2021-09-25_17h31.59.604,judgeSpeechMusic_20210921_logNormShiftAmp_detection_fixS,2020.1.2,Win32,60,,,,,,,,,,,,,,,,,,,,,,,,,,,,,,1,5.8299,,0,0,62,62,4,1,stimuli/stim_20210706_power2amp/equal_lnn_AM0.6Hz_s35_26.m4a,,,,,,,,,,,,
,,,,,41468,2021-09-25_17h31.59.604,judgeSpeechMusic_20210921_logNormShiftAmp_detection_fixS,2020.1.2,Win32,60,,,,,,,,,,,,,,,,,,,,,,,,,,,,,,1,6.6802,,0,0,63,63,72,1,stimuli/stim_20210706_power2amp/equal_lnn_AM4.2Hz_s35_46.m4a,,,,,,,,,,,,
,,,,,41468,2021-09-25_17h31.59.604,judgeSpeechMusic_20210921_logNormShiftAmp_detection_fixS,2020.1.2,Win32,60,,,,,,,,,,,,,,,,,,,,,,,,,,,,,,2,5.9965,,0,0,64,64,33,1,stimuli/stim_20210706_power2amp/equal_lnn_AM2.4Hz_s35_38.m4a,,,,,,,,,,,,
,,,,,41468,2021-09-25_17h31.59.604,judgeSpeechMusic_20210921_logNormShiftAmp_detection_fixS,2020.1.2,Win32,60,,,,,,,,,,,,,,,,,,,,,,,,,,,,,,1,5.9293,,0,0,65,65,9,1,stimuli/stim_20210706_power2amp/equal_lnn_AM0.6Hz_s35_7.m4a,,,,,,,,,,,,
,,,,,41468,2021-09-25_17h31.59.604,judgeSpeechMusic_20210921_logNormShiftAmp_detection_fixS,2020.1.2,Win32,60,,,,,,,,,,,,,,,,,,,,,,,,,,,,,,2,5.7426,,0,0,66,66,56,1,stimuli/stim_20210706_power2amp/equal_lnn_AM3.6Hz_s35_31.m4a,,,,,,,,,,,,
,,,,,41468,2021-09-25_17h31.59.604,judgeSpeechMusic_20210921_logNormShiftAmp_detection_fixS,2020.1.2,Win32,60,,,,,,,,,,,,,,,,,,,,,,,,,,,,,,1,5.8798,,0,0,67,67,15,1,stimuli/stim_20210706_power2amp/equal_lnn_AM1.2Hz_s35_44.m4a,,,,,,,,,,,,
,,,,,41468,2021-09-25_17h31.59.604,judgeSpeechMusic_20210921_logNormShiftAmp_detection_fixS,2020.1.2,Win32,60,,,,,,,,,,,,,,,,,,,,,,,,,,,,,,1,7.4943,,0,0,68,68,32,1,stimuli/stim_20210706_power2amp/equal_lnn_AM2.4Hz_s35_36.m4a,,,,,,,,,,,,
,,,,,41468,2021-09-25_17h31.59.604,judgeSpeechMusic_20210921_logNormShiftAmp_detection_fixS,2020.1.2,Win32,60,,,,,,,,,,,,,,,,,,,,,,,,,,,,,,2,6.2011,,0,0,69,69,51,1,stimuli/stim_20210706_power2amp/equal_lnn_AM3.6Hz_s35_29.m4a,,,,,,,,,,,,
,,,,,41468,2021-09-25_17h31.59.604,judgeSpeechMusic_20210921_logNormShiftAmp_detection_fixS,2020.1.2,Win32,60,,,,,,,,,,,,,,,,,,,,,,,,,,,,,,2,7.4807,,0,0,70,70,41,1,stimuli/stim_20210706_power2amp/equal_lnn_AM2.4Hz_s35_44.m4a,,,,,,,,,,,,
,,,,,41468,2021-09-25_17h31.59.604,judgeSpeechMusic_20210921_logNormShiftAmp_detection_fixS,2020.1.2,Win32,60,,,,,,,,,,,,,,,,,,,,,,,,,,,,,,1,6.6783,,0,0,71,71,7,1,stimuli/stim_20210706_power2amp/equal_lnn_AM0.6Hz_s35_2.m4a,,,,,,,,,,,,
,,,,,41468,2021-09-25_17h31.59.604,judgeSpeechMusic_20210921_logNormShiftAmp_detection_fixS,2020.1.2,Win32,60,,,,,,,,,,,,,,,,,,,,,,,,,,,,,,2,6.5775,,0,0,72,72,54,1,stimuli/stim_20210706_power2amp/equal_lnn_AM3.6Hz_s35_25.m4a,,,,,,,,,,,,
,,,,,41468,2021-09-25_17h31.59.604,judgeSpeechMusic_20210921_logNormShiftAmp_detection_fixS,2020.1.2,Win32,60,,,,,,,,,,,,,,,,,,,,,,,,,,,,,,2,6.2957,,0,0,73,73,58,1,stimuli/stim_20210706_power2amp/equal_lnn_AM3.6Hz_s35_6.m4a,,,,,,,,,,,,
,,,,,41468,2021-09-25_17h31.59.604,judgeSpeechMusic_20210921_logNormShiftAmp_detection_fixS,2020.1.2,Win32,60,,,,,,,,,,,,,,,,,,,,,,,,,,,,,,1,6.1802,,0,0,74,74,28,1,stimuli/stim_20210706_power2amp/equal_lnn_AM1.2Hz_s35_17.m4a,,,,,,,,,,,,
,,,,,41468,2021-09-25_17h31.59.604,judgeSpeechMusic_20210921_logNormShiftAmp_detection_fixS,2020.1.2,Win32,60,,,,,,,,,,,,,,,,,,,,,,,,,,,,,,,,,,,,,,,,,space,1.5898,1,0,2,1,1,SPEECH,stimuli/SPEECH.jpg,,
,,,,,41468,2021-09-25_17h31.59.604,judgeSpeechMusic_20210921_logNormShiftAmp_detection_fixS,2020.1.2,Win32,60,,,,,,,,,,,,,,,,,,0,0,0,0,1,1,stimuli/stim_20210706_power2amp/equal_lnn_AM_training1.8Hz_s35.m4a,,,,,,,,,,,,,,,,,,,,,,,,,,,
,,,,,41468,2021-09-25_17h31.59.604,judgeSpeechMusic_20210921_logNormShiftAmp_detection_fixS,2020.1.2,Win32,60,,,,,,,,,,,,,,,,,,,,,,,,,,space,12.1562,space,1.7731,1,7.1986,,0,0,0,0,35,1,stimuli/stim_20210706_power2amp/equal_lnn_AM2.4Hz_s35_9.m4a,,,,,,,,,,,,
,,,,,41468,2021-09-25_17h31.59.604,judgeSpeechMusic_20210921_logNormShiftAmp_detection_fixS,2020.1.2,Win32,60,,,,,,,,,,,,,,,,,,,,,,,,,,,,,,2,8.5788,,0,0,1,1,71,1,stimuli/stim_20210706_power2amp/equal_lnn_AM4.2Hz_s35_44.m4a,,,,,,,,,,,,
,,,,,41468,2021-09-25_17h31.59.604,judgeSpeechMusic_20210921_logNormShiftAmp_detection_fixS,2020.1.2,Win32,60,,,,,,,,,,,,,,,,,,,,,,,,,,,,,,2,7.6831,,0,0,2,2,73,1,stimuli/stim_20210706_power2amp/equal_lnn_AM4.2Hz_s35_4.m4a,,,,,,,,,,,,
,,,,,41468,2021-09-25_17h31.59.604,judgeSpeechMusic_20210921_logNormShiftAmp_detection_fixS,2020.1.2,Win32,60,,,,,,,,,,,,,,,,,,,,,,,,,,,,,,1,6.6147,,0,0,3,3,55,1,stimuli/stim_20210706_power2amp/equal_lnn_AM3.6Hz_s35_3.m4a,,,,,,,,,,,,
,,,,,41468,2021-09-25_17h31.59.604,judgeSpeechMusic_20210921_logNormShiftAmp_detection_fixS,2020.1.2,Win32,60,,,,,,,,,,,,,,,,,,,,,,,,,,,,,,2,7.3215,,0,0,4,4,8,1,stimuli/stim_20210706_power2amp/equal_lnn_AM0.6Hz_s35_19.m4a,,,,,,,,,,,,
,,,,,41468,2021-09-25_17h31.59.604,judgeSpeechMusic_20210921_logNormShiftAmp_detection_fixS,2020.1.2,Win32,60,,,,,,,,,,,,,,,,,,,,,,,,,,,,,,1,6.1803,,0,0,5,5,48,1,stimuli/stim_20210706_power2amp/equal_lnn_AM3.6Hz_s35_26.m4a,,,,,,,,,,,,
,,,,,41468,2021-09-25_17h31.59.604,judgeSpeechMusic_20210921_logNormShiftAmp_detection_fixS,2020.1.2,Win32,60,,,,,,,,,,,,,,,,,,,,,,,,,,,,,,2,8.969,,0,0,6,6,37,1,stimuli/stim_20210706_power2amp/equal_lnn_AM2.4Hz_s35_14.m4a,,,,,,,,,,,,
,,,,,41468,2021-09-25_17h31.59.604,judgeSpeechMusic_20210921_logNormShiftAmp_detection_fixS,2020.1.2,Win32,60,,,,,,,,,,,,,,,,,,,,,,,,,,,,,,2,6.93,,0,0,7,7,50,1,stimuli/stim_20210706_power2amp/equal_lnn_AM3.6Hz_s35_43.m4a,,,,,,,,,,,,
,,,,,41468,2021-09-25_17h31.59.604,judgeSpeechMusic_20210921_logNormShiftAmp_detection_fixS,2020.1.2,Win32,60,,,,,,,,,,,,,,,,,,,,,,,,,,,,,,2,6.3129,,0,0,8,8,67,1,stimuli/stim_20210706_power2amp/equal_lnn_AM4.2Hz_s35_40.m4a,,,,,,,,,,,,
,,,,,41468,2021-09-25_17h31.59.604,judgeSpeechMusic_20210921_logNormShiftAmp_detection_fixS,2020.1.2,Win32,60,,,,,,,,,,,,,,,,,,,,,,,,,,,,,,1,8.7218,,0,0,9,9,9,1,stimuli/stim_20210706_power2amp/equal_lnn_AM0.6Hz_s35_7.m4a,,,,,,,,,,,,
,,,,,41468,2021-09-25_17h31.59.604,judgeSpeechMusic_20210921_logNormShiftAmp_detection_fixS,2020.1.2,Win32,60,,,,,,,,,,,,,,,,,,,,,,,,,,,,,,1,6.713,,0,0,10,10,0,1,stimuli/stim_20210706_power2amp/equal_lnn_AM0.6Hz_s35_25.m4a,,,,,,,,,,,,
,,,,,41468,2021-09-25_17h31.59.604,judgeSpeechMusic_20210921_logNormShiftAmp_detection_fixS,2020.1.2,Win32,60,,,,,,,,,,,,,,,,,,,,,,,,,,,,,,1,6.2539,,0,0,11,11,28,1,stimuli/stim_20210706_power2amp/equal_lnn_AM1.2Hz_s35_17.m4a,,,,,,,,,,,,
,,,,,41468,2021-09-25_17h31.59.604,judgeSpeechMusic_20210921_logNormShiftAmp_detection_fixS,2020.1.2,Win32,60,,,,,,,,,,,,,,,,,,,,,,,,,,,,,,2,6.4648,,0,0,12,12,12,1,stimuli/stim_20210706_power2amp/equal_lnn_AM0.6Hz_s35_24.m4a,,,,,,,,,,,,
,,,,,41468,2021-09-25_17h31.59.604,judgeSpeechMusic_20210921_logNormShiftAmp_detection_fixS,2020.1.2,Win32,60,,,,,,,,,,,,,,,,,,,,,,,,,,,,,,1,6.1395,,0,0,13,13,46,1,stimuli/stim_20210706_power2amp/equal_lnn_AM3.6Hz_s35_44.m4a,,,,,,,,,,,,
,,,,,41468,2021-09-25_17h31.59.604,judgeSpeechMusic_20210921_logNormShiftAmp_detection_fixS,2020.1.2,Win32,60,,,,,,,,,,,,,,,,,,,,,,,,,,,,,,2,13.939,,0,0,14,14,5,1,stimuli/stim_20210706_power2amp/equal_lnn_AM0.6Hz_s35_3.m4a,,,,,,,,,,,,
,,,,,41468,2021-09-25_17h31.59.604,judgeSpeechMusic_20210921_logNormShiftAmp_detection_fixS,2020.1.2,Win32,60,,,,,,,,,,,,,,,,,,,,,,,,,,,,,,1,8.4293,,0,0,15,15,24,1,stimuli/stim_20210706_power2amp/equal_lnn_AM1.2Hz_s35_32.m4a,,,,,,,,,,,,
,,,,,41468,2021-09-25_17h31.59.604,judgeSpeechMusic_20210921_logNormShiftAmp_detection_fixS,2020.1.2,Win32,60,,,,,,,,,,,,,,,,,,,,,,,,,,,,,,2,5.9825,,0,0,16,16,51,1,stimuli/stim_20210706_power2amp/equal_lnn_AM3.6Hz_s35_29.m4a,,,,,,,,,,,,
,,,,,41468,2021-09-25_17h31.59.604,judgeSpeechMusic_20210921_logNormShiftAmp_detection_fixS,2020.1.2,Win32,60,,,,,,,,,,,,,,,,,,,,,,,,,,,,,,2,8.1271,,0,0,17,17,47,1,stimuli/stim_20210706_power2amp/equal_lnn_AM3.6Hz_s35_18.m4a,,,,,,,,,,,,
,,,,,41468,2021-09-25_17h31.59.604,judgeSpeechMusic_20210921_logNormShiftAmp_detection_fixS,2020.1.2,Win32,60,,,,,,,,,,,,,,,,,,,,,,,,,,,,,,1,6.0769,2,1,0,18,18,1,1,stimuli/stim_20210706_power2amp/equal_lnn_AM0.6Hz_s35_45.m4a,1.3434,,,,,,,,,,,
,,,,,41468,2021-09-25_17h31.59.604,judgeSpeechMusic_20210921_logNormShiftAmp_detection_fixS,2020.1.2,Win32,60,,,,,,,,,,,,,,,,,,,,,,,,,,,,,,2,7.0744,,0,0,19,19,19,1,stimuli/stim_20210706_power2amp/equal_lnn_AM1.2Hz_s35_15.m4a,,,,,,,,,,,,
,,,,,41468,2021-09-25_17h31.59.604,judgeSpeechMusic_20210921_logNormShiftAmp_detection_fixS,2020.1.2,Win32,60,,,,,,,,,,,,,,,,,,,,,,,,,,,,,,1,7.3162,,0,0,20,20,70,1,stimuli/stim_20210706_power2amp/equal_lnn_AM4.2Hz_s35_29.m4a,,,,,,,,,,,,
,,,,,41468,2021-09-25_17h31.59.604,judgeSpeechMusic_20210921_logNormShiftAmp_detection_fixS,2020.1.2,Win32,60,,,,,,,,,,,,,,,,,,,,,,,,,,,,,,2,6.1815,,0,0,21,21,44,1,stimuli/stim_20210706_power2amp/equal_lnn_AM2.4Hz_s35_16.m4a,,,,,,,,,,,,
,,,,,41468,2021-09-25_17h31.59.604,judgeSpeechMusic_20210921_logNormShiftAmp_detection_fixS,2020.1.2,Win32,60,,,,,,,,,,,,,,,,,,,,,,,,,,,,,,2,7.9776,,0,0,22,22,6,1,stimuli/stim_20210706_power2amp/equal_lnn_AM0.6Hz_s35_50.m4a,,,,,,,,,,,,
,,,,,41468,2021-09-25_17h31.59.604,judgeSpeechMusic_20210921_logNormShiftAmp_detection_fixS,2020.1.2,Win32,60,,,,,,,,,,,,,,,,,,,,,,,,,,,,,,1,6.1228,,0,0,23,23,11,1,stimuli/stim_20210706_power2amp/equal_lnn_AM0.6Hz_s35_6.m4a,,,,,,,,,,,,
,,,,,41468,2021-09-25_17h31.59.604,judgeSpeechMusic_20210921_logNormShiftAmp_detection_fixS,2020.1.2,Win32,60,,,,,,,,,,,,,,,,,,,,,,,,,,,,,,1,5.9629,,0,0,24,24,16,1,stimuli/stim_20210706_power2amp/equal_lnn_AM1.2Hz_s35_7.m4a,,,,,,,,,,,,
,,,,,41468,2021-09-25_17h31.59.604,judgeSpeechMusic_20210921_logNormShiftAmp_detection_fixS,2020.1.2,Win32,60,,,,,,,,,,,,,,,,,,,,,,,,,,,,,,2,6.4755,,0,0,25,25,74,1,stimuli/stim_20210706_power2amp/equal_lnn_AM4.2Hz_s35_31.m4a,,,,,,,,,,,,
,,,,,41468,2021-09-25_17h31.59.604,judgeSpeechMusic_20210921_logNormShiftAmp_detection_fixS,2020.1.2,Win32,60,,,,,,,,,,,,,,,,,,,,,,,,,,,,,,1,6.4148,,0,0,26,26,34,1,stimuli/stim_20210706_power2amp/equal_lnn_AM2.4Hz_s35_25.m4a,,,,,,,,,,,,
,,,,,41468,2021-09-25_17h31.59.604,judgeSpeechMusic_20210921_logNormShiftAmp_detection_fixS,2020.1.2,Win32,60,,,,,,,,,,,,,,,,,,,,,,,,,,,,,,2,8.4227,,0,0,27,27,53,1,stimuli/stim_20210706_power2amp/equal_lnn_AM3.6Hz_s35_33.m4a,,,,,,,,,,,,
,,,,,41468,2021-09-25_17h31.59.604,judgeSpeechMusic_20210921_logNormShiftAmp_detection_fixS,2020.1.2,Win32,60,,,,,,,,,,,,,,,,,,,,,,,,,,,,,,1,7.1775,,0,0,28,28,36,1,stimuli/stim_20210706_power2amp/equal_lnn_AM2.4Hz_s35_21.m4a,,,,,,,,,,,,
,,,,,41468,2021-09-25_17h31.59.604,judgeSpeechMusic_20210921_logNormShiftAmp_detection_fixS,2020.1.2,Win32,60,,,,,,,,,,,,,,,,,,,,,,,,,,,,,,2,6.0426,,0,0,29,29,31,1,stimuli/stim_20210706_power2amp/equal_lnn_AM2.4Hz_s35_26.m4a,,,,,,,,,,,,
,,,,,41468,2021-09-25_17h31.59.604,judgeSpeechMusic_20210921_logNormShiftAmp_detection_fixS,2020.1.2,Win32,60,,,,,,,,,,,,,,,,,,,,,,,,,,,,,,2,5.9843,,0,0,30,30,49,1,stimuli/stim_20210706_power2amp/equal_lnn_AM3.6Hz_s35_46.m4a,,,,,,,,,,,,
,,,,,41468,2021-09-25_17h31.59.604,judgeSpeechMusic_20210921_logNormShiftAmp_detection_fixS,2020.1.2,Win32,60,,,,,,,,,,,,,,,,,,,,,,,,,,,,,,2,8.9171,,0,0,31,31,68,1,stimuli/stim_20210706_power2amp/equal_lnn_AM4.2Hz_s35_45.m4a,,,,,,,,,,,,
,,,,,41468,2021-09-25_17h31.59.604,judgeSpeechMusic_20210921_logNormShiftAmp_detection_fixS,2020.1.2,Win32,60,,,,,,,,,,,,,,,,,,,,,,,,,,,,,,1,6.0405,,0,0,32,32,66,1,stimuli/stim_20210706_power2amp/equal_lnn_AM4.2Hz_s35_10.m4a,,,,,,,,,,,,
,,,,,41468,2021-09-25_17h31.59.604,judgeSpeechMusic_20210921_logNormShiftAmp_detection_fixS,2020.1.2,Win32,60,,,,,,,,,,,,,,,,,,,,,,,,,,,,,,2,6.0135,,0,0,33,33,57,1,stimuli/stim_20210706_power2amp/equal_lnn_AM3.6Hz_s35_27.m4a,,,,,,,,,,,,
,,,,,41468,2021-09-25_17h31.59.604,judgeSpeechMusic_20210921_logNormShiftAmp_detection_fixS,2020.1.2,Win32,60,,,,,,,,,,,,,,,,,,,,,,,,,,,,,,1,6.1666,,0,0,34,34,69,1,stimuli/stim_20210706_power2amp/equal_lnn_AM4.2Hz_s35_7.m4a,,,,,,,,,,,,
,,,,,41468,2021-09-25_17h31.59.604,judgeSpeechMusic_20210921_logNormShiftAmp_detection_fixS,2020.1.2,Win32,60,,,,,,,,,,,,,,,,,,,,,,,,,,,,,,1,5.8207,,0,0,35,35,4,1,stimuli/stim_20210706_power2amp/equal_lnn_AM0.6Hz_s35_26.m4a,,,,,,,,,,,,
,,,,,41468,2021-09-25_17h31.59.604,judgeSpeechMusic_20210921_logNormShiftAmp_detection_fixS,2020.1.2,Win32,60,,,,,,,,,,,,,,,,,,,,,,,,,,,,,,2,6.2808,,0,0,36,36,64,1,stimuli/stim_20210706_power2amp/equal_lnn_AM4.2Hz_s35_27.m4a,,,,,,,,,,,,
,,,,,41468,2021-09-25_17h31.59.604,judgeSpeechMusic_20210921_logNormShiftAmp_detection_fixS,2020.1.2,Win32,60,,,,,,,,,,,,,,,,,,,,,,,,,,,,,,1,5.9541,,0,0,37,37,20,1,stimuli/stim_20210706_power2amp/equal_lnn_AM1.2Hz_s35_33.m4a,,,,,,,,,,,,
,,,,,41468,2021-09-25_17h31.59.604,judgeSpeechMusic_20210921_logNormShiftAmp_detection_fixS,2020.1.2,Win32,60,,,,,,,,,,,,,,,,,,,,,,,,,,,,,,2,9.7369,,0,0,38,38,72,1,stimuli/stim_20210706_power2amp/equal_lnn_AM4.2Hz_s35_46.m4a,,,,,,,,,,,,
,,,,,41468,2021-09-25_17h31.59.604,judgeSpeechMusic_20210921_logNormShiftAmp_detection_fixS,2020.1.2,Win32,60,,,,,,,,,,,,,,,,,,,,,,,,,,,,,,1,6.063,,0,0,39,39,7,1,stimuli/stim_20210706_power2amp/equal_lnn_AM0.6Hz_s35_2.m4a,,,,,,,,,,,,
,,,,,41468,2021-09-25_17h31.59.604,judgeSpeechMusic_20210921_logNormShiftAmp_detection_fixS,2020.1.2,Win32,60,,,,,,,,,,,,,,,,,,,,,,,,,,,,,,1,6.6676,2,1,0,40,40,52,1,stimuli/stim_20210706_power2amp/equal_lnn_AM3.6Hz_s35_50.m4a,1.3921,,,,,,,,,,,
,,,,,41468,2021-09-25_17h31.59.604,judgeSpeechMusic_20210921_logNormShiftAmp_detection_fixS,2020.1.2,Win32,60,,,,,,,,,,,,,,,,,,,,,,,,,,,,,,1,6.0004,,0,0,41,41,14,1,stimuli/stim_20210706_power2amp/equal_lnn_AM0.6Hz_s35_40.m4a,,,,,,,,,,,,
,,,,,41468,2021-09-25_17h31.59.604,judgeSpeechMusic_20210921_logNormShiftAmp_detection_fixS,2020.1.2,Win32,60,,,,,,,,,,,,,,,,,,,,,,,,,,,,,,2,6.157,,0,0,42,42,54,1,stimuli/stim_20210706_power2amp/equal_lnn_AM3.6Hz_s35_25.m4a,,,,,,,,,,,,
,,,,,41468,2021-09-25_17h31.59.604,judgeSpeechMusic_20210921_logNormShiftAmp_detection_fixS,2020.1.2,Win32,60,,,,,,,,,,,,,,,,,,,,,,,,,,,,,,2,6.3406,,0,0,43,43,25,1,stimuli/stim_20210706_power2amp/equal_lnn_AM1.2Hz_s35_38.m4a,,,,,,,,,,,,
,,,,,41468,2021-09-25_17h31.59.604,judgeSpeechMusic_20210921_logNormShiftAmp_detection_fixS,2020.1.2,Win32,60,,,,,,,,,,,,,,,,,,,,,,,,,,,,,,1,6.068,,0,0,44,44,3,1,stimuli/stim_20210706_power2amp/equal_lnn_AM0.6Hz_s35_34.m4a,,,,,,,,,,,,
,,,,,41468,2021-09-25_17h31.59.604,judgeSpeechMusic_20210921_logNormShiftAmp_detection_fixS,2020.1.2,Win32,60,,,,,,,,,,,,,,,,,,,,,,,,,,,,,,1,7.4698,,0,0,45,45,17,1,stimuli/stim_20210706_power2amp/equal_lnn_AM1.2Hz_s35_49.m4a,,,,,,,,,,,,
,,,,,41468,2021-09-25_17h31.59.604,judgeSpeechMusic_20210921_logNormShiftAmp_detection_fixS,2020.1.2,Win32,60,,,,,,,,,,,,,,,,,,,,,,,,,,,,,,2,6.2007,,0,0,46,46,15,1,stimuli/stim_20210706_power2amp/equal_lnn_AM1.2Hz_s35_44.m4a,,,,,,,,,,,,
,,,,,41468,2021-09-25_17h31.59.604,judgeSpeechMusic_20210921_logNormShiftAmp_detection_fixS,2020.1.2,Win32,60,,,,,,,,,,,,,,,,,,,,,,,,,,,,,,2,7.43,,0,0,47,47,42,1,stimuli/stim_20210706_power2amp/equal_lnn_AM2.4Hz_s35_28.m4a,,,,,,,,,,,,
,,,,,41468,2021-09-25_17h31.59.604,judgeSpeechMusic_20210921_logNormShiftAmp_detection_fixS,2020.1.2,Win32,60,,,,,,,,,,,,,,,,,,,,,,,,,,,,,,1,6.2746,,0,0,48,48,58,1,stimuli/stim_20210706_power2amp/equal_lnn_AM3.6Hz_s35_6.m4a,,,,,,,,,,,,
,,,,,41468,2021-09-25_17h31.59.604,judgeSpeechMusic_20210921_logNormShiftAmp_detection_fixS,2020.1.2,Win32,60,,,,,,,,,,,,,,,,,,,,,,,,,,,,,,2,8.6939,,0,0,49,49,40,1,stimuli/stim_20210706_power2amp/equal_lnn_AM2.4Hz_s35_4.m4a,,,,,,,,,,,,
,,,,,41468,2021-09-25_17h31.59.604,judgeSpeechMusic_20210921_logNormShiftAmp_detection_fixS,2020.1.2,Win32,60,,,,,,,,,,,,,,,,,,,,,,,,,,,,,,2,14.8052,,0,0,50,50,33,1,stimuli/stim_20210706_power2amp/equal_lnn_AM2.4Hz_s35_38.m4a,,,,,,,,,,,,
,,,,,41468,2021-09-25_17h31.59.604,judgeSpeechMusic_20210921_logNormShiftAmp_detection_fixS,2020.1.2,Win32,60,,,,,,,,,,,,,,,,,,,,,,,,,,,,,,1,6.3589,,0,0,51,51,23,1,stimuli/stim_20210706_power2amp/equal_lnn_AM1.2Hz_s35_30.m4a,,,,,,,,,,,,
,,,,,41468,2021-09-25_17h31.59.604,judgeSpeechMusic_20210921_logNormShiftAmp_detection_fixS,2020.1.2,Win32,60,,,,,,,,,,,,,,,,,,,,,,,,,,,,,,1,5.7312,,0,0,52,52,32,1,stimuli/stim_20210706_power2amp/equal_lnn_AM2.4Hz_s35_36.m4a,,,,,,,,,,,,
,,,,,41468,2021-09-25_17h31.59.604,judgeSpeechMusic_20210921_logNormShiftAmp_detection_fixS,2020.1.2,Win32,60,,,,,,,,,,,,,,,,,,,,,,,,,,,,,,1,11.8573,,0,0,53,53,27,1,stimuli/stim_20210706_power2amp/equal_lnn_AM1.2Hz_s35_8.m4a,,,,,,,,,,,,
,,,,,41468,2021-09-25_17h31.59.604,judgeSpeechMusic_20210921_logNormShiftAmp_detection_fixS,2020.1.2,Win32,60,,,,,,,,,,,,,,,,,,,,,,,,,,,,,,2,6.6848,,0,0,54,54,43,1,stimuli/stim_20210706_power2amp/equal_lnn_AM2.4Hz_s35_30.m4a,,,,,,,,,,,,
,,,,,41468,2021-09-25_17h31.59.604,judgeSpeechMusic_20210921_logNormShiftAmp_detection_fixS,2020.1.2,Win32,60,,,,,,,,,,,,,,,,,,,,,,,,,,,,,,1,16.9528,,0,0,55,55,26,1,stimuli/stim_20210706_power2amp/equal_lnn_AM1.2Hz_s35_19.m4a,,,,,,,,,,,,
,,,,,41468,2021-09-25_17h31.59.604,judgeSpeechMusic_20210921_logNormShiftAmp_detection_fixS,2020.1.2,Win32,60,,,,,,,,,,,,,,,,,,,,,,,,,,,,,,2,8.1431,,0,0,56,56,30,1,stimuli/stim_20210706_power2amp/equal_lnn_AM2.4Hz_s35_34.m4a,,,,,,,,,,,,
,,,,,41468,2021-09-25_17h31.59.604,judgeSpeechMusic_20210921_logNormShiftAmp_detection_fixS,2020.1.2,Win32,60,,,,,,,,,,,,,,,,,,,,,,,,,,,,,,1,5.9458,,0,0,57,57,21,1,stimuli/stim_20210706_power2amp/equal_lnn_AM1.2Hz_s35_47.m4a,,,,,,,,,,,,
,,,,,41468,2021-09-25_17h31.59.604,judgeSpeechMusic_20210921_logNormShiftAmp_detection_fixS,2020.1.2,Win32,60,,,,,,,,,,,,,,,,,,,,,,,,,,,,,,2,7.545,4,1,0,58,58,39,1,stimuli/stim_20210706_power2amp/equal_lnn_AM2.4Hz_s35_47.m4a,1.1692,,,,,,,,,,,
,,,,,41468,2021-09-25_17h31.59.604,judgeSpeechMusic_20210921_logNormShiftAmp_detection_fixS,2020.1.2,Win32,60,,,,,,,,,,,,,,,,,,,,,,,,,,,,,,1,6.1467,,0,0,59,59,18,1,stimuli/stim_20210706_power2amp/equal_lnn_AM1.2Hz_s35_25.m4a,,,,,,,,,,,,
,,,,,41468,2021-09-25_17h31.59.604,judgeSpeechMusic_20210921_logNormShiftAmp_detection_fixS,2020.1.2,Win32,60,,,,,,,,,,,,,,,,,,,,,,,,,,,,,,2,8.311,,0,0,60,60,13,1,stimuli/stim_20210706_power2amp/equal_lnn_AM0.6Hz_s35_36.m4a,,,,,,,,,,,,
,,,,,41468,2021-09-25_17h31.59.604,judgeSpeechMusic_20210921_logNormShiftAmp_detection_fixS,2020.1.2,Win32,60,,,,,,,,,,,,,,,,,,,,,,,,,,,,,,1,6.2872,,0,0,61,61,59,1,stimuli/stim_20210706_power2amp/equal_lnn_AM3.6Hz_s35_5.m4a,,,,,,,,,,,,
,,,,,41468,2021-09-25_17h31.59.604,judgeSpeechMusic_20210921_logNormShiftAmp_detection_fixS,2020.1.2,Win32,60,,,,,,,,,,,,,,,,,,,,,,,,,,,,,,1,6.1462,,0,0,62,62,61,1,stimuli/stim_20210706_power2amp/equal_lnn_AM4.2Hz_s35_28.m4a,,,,,,,,,,,,
,,,,,41468,2021-09-25_17h31.59.604,judgeSpeechMusic_20210921_logNormShiftAmp_detection_fixS,2020.1.2,Win32,60,,,,,,,,,,,,,,,,,,,,,,,,,,,,,,2,6.0553,,0,0,63,63,38,1,stimuli/stim_20210706_power2amp/equal_lnn_AM2.4Hz_s35_39.m4a,,,,,,,,,,,,
,,,,,41468,2021-09-25_17h31.59.604,judgeSpeechMusic_20210921_logNormShiftAmp_detection_fixS,2020.1.2,Win32,60,,,,,,,,,,,,,,,,,,,,,,,,,,,,,,1,5.906,,0,0,64,64,62,1,stimuli/stim_20210706_power2amp/equal_lnn_AM4.2Hz_s35_20.m4a,,,,,,,,,,,,
,,,,,41468,2021-09-25_17h31.59.604,judgeSpeechMusic_20210921_logNormShiftAmp_detection_fixS,2020.1.2,Win32,60,,,,,,,,,,,,,,,,,,,,,,,,,,,,,,1,5.9462,,0,0,65,65,10,1,stimuli/stim_20210706_power2amp/equal_lnn_AM0.6Hz_s35_12.m4a,,,,,,,,,,,,
,,,,,41468,2021-09-25_17h31.59.604,judgeSpeechMusic_20210921_logNormShiftAmp_detection_fixS,2020.1.2,Win32,60,,,,,,,,,,,,,,,,,,,,,,,,,,,,,,2,6.6403,,0,0,66,66,41,1,stimuli/stim_20210706_power2amp/equal_lnn_AM2.4Hz_s35_44.m4a,,,,,,,,,,,,
,,,,,41468,2021-09-25_17h31.59.604,judgeSpeechMusic_20210921_logNormShiftAmp_detection_fixS,2020.1.2,Win32,60,,,,,,,,,,,,,,,,,,,,,,,,,,,,,,2,6.3316,,0,0,67,67,22,1,stimuli/stim_20210706_power2amp/equal_lnn_AM1.2Hz_s35_1.m4a,,,,,,,,,,,,
,,,,,41468,2021-09-25_17h31.59.604,judgeSpeechMusic_20210921_logNormShiftAmp_detection_fixS,2020.1.2,Win32,60,,,,,,,,,,,,,,,,,,,,,,,,,,,,,,2,6.6625,,0,0,68,68,2,1,stimuli/stim_20210706_power2amp/equal_lnn_AM0.6Hz_s35_13.m4a,,,,,,,,,,,,
,,,,,41468,2021-09-25_17h31.59.604,judgeSpeechMusic_20210921_logNormShiftAmp_detection_fixS,2020.1.2,Win32,60,,,,,,,,,,,,,,,,,,,,,,,,,,,,,,1,8.2062,,0,0,69,69,65,1,stimuli/stim_20210706_power2amp/equal_lnn_AM4.2Hz_s35_35.m4a,,,,,,,,,,,,
,,,,,41468,2021-09-25_17h31.59.604,judgeSpeechMusic_20210921_logNormShiftAmp_detection_fixS,2020.1.2,Win32,60,,,,,,,,,,,,,,,,,,,,,,,,,,,,,,1,6.3325,,0,0,70,70,63,1,stimuli/stim_20210706_power2amp/equal_lnn_AM4.2Hz_s35_37.m4a,,,,,,,,,,,,
,,,,,41468,2021-09-25_17h31.59.604,judgeSpeechMusic_20210921_logNormShiftAmp_detection_fixS,2020.1.2,Win32,60,,,,,,,,,,,,,,,,,,,,,,,,,,,,,,2,7.9396,,0,0,71,71,60,1,stimuli/stim_20210706_power2amp/equal_lnn_AM4.2Hz_s35_3.m4a,,,,,,,,,,,,
,,,,,41468,2021-09-25_17h31.59.604,judgeSpeechMusic_20210921_logNormShiftAmp_detection_fixS,2020.1.2,Win32,60,,,,,,,,,,,,,,,,,,,,,,,,,,,,,,2,5.931,,0,0,72,72,56,1,stimuli/stim_20210706_power2amp/equal_lnn_AM3.6Hz_s35_31.m4a,,,,,,,,,,,,
,,,,,41468,2021-09-25_17h31.59.604,judgeSpeechMusic_20210921_logNormShiftAmp_detection_fixS,2020.1.2,Win32,60,,,,,,,,,,,,,,,,,,,,,,,,,,,,,,1,5.9556,,0,0,73,73,45,1,stimuli/stim_20210706_power2amp/equal_lnn_AM3.6Hz_s35_10.m4a,,,,,,,,,,,,
,,,,,41468,2021-09-25_17h31.59.604,judgeSpeechMusic_20210921_logNormShiftAmp_detection_fixS,2020.1.2,Win32,60,,,,,,,,,,,,,,,,,,,,,,,,,,,,,,2,9.1947,,0,0,74,74,29,1,stimuli/stim_20210706_power2amp/equal_lnn_AM1.2Hz_s35_48.m4a,,,,,,,,,,,,
,,,,,41468,2021-09-25_17h31.59.604,judgeSpeechMusic_20210921_logNormShiftAmp_detection_fixS,2020.1.2,Win32,60,,,,,,,,,,,,,,,,,,,,,,,,,,,,,,,,,,,,,,,,,,,1,1,3,0,1,MUSIC,stimuli/MUSIC.jpg,,
,,,,,41468,2021-09-25_17h31.59.604,judgeSpeechMusic_20210921_logNormShiftAmp_detection_fixS,2020.1.2,Win32,60,,,,,,,,,,,,,,,,,,,,,,,,,,,,,,,,,,,,,,,,,,,,,,,,,,space,7.5324
