headphoneResponse.keys,headphoneResponse.corr,headphoneResponse.rt,headphoneTrial.thisRepN,headphoneTrial.thisTrialN,headphoneTrial.thisN,headphoneTrial.thisIndex,headphoneTrial.ran,headphone_sound1,headphone_sound2,headphone_sound3,corrAns,participant,date,expName,psychopyVersion,OS,frameRate,checkInstruKey.keys,checkInstruKey.rt,trainSlider.response,trainSlider.rt,beepTrainResponse.keys,beepTrainResponse.corr,trainingTrials.thisRepN,trainingTrials.thisTrialN,trainingTrials.thisN,trainingTrials.thisIndex,trainingTrials.ran,trainAudioFile,beepTrainResponse.rt,readyReal_resp.keys,readyReal_resp.rt,checkInstru2_key.keys,checkInstru2_key.rt,ratingSlider.response,ratingSlider.rt,beepResp.keys,beepResp.corr,expTrials.thisRepN,expTrials.thisTrialN,expTrials.thisN,expTrials.thisIndex,expTrials.ran,audioFile,beepResp.rt,switchBlock_space.keys,switchBlock_space.rt,block.thisRepN,block.thisTrialN,block.thisN,block.thisIndex,block.ran,blockName,blockImage,end_resp.keys,end_resp.rt
2,1,1.1294,0,0,0,1,1,stimuli/screen_antiphase.wav,stimuli/screen_quiet.wav,stimuli/screen_origin.wav,2,41496,2021-09-28_20h08.16.829,judgeSpeechMusic_20210921_logNormShiftAmp_detection_fixS,2020.1.2,MacIntel,60,,,,,,,,,,,,,,,,,,,,,,,,,,,,,,,,,,,,,,,
3,1,0.5751,0,1,1,0,1,stimuli/screen_antiphase.wav,stimuli/screen_origin.wav,stimuli/screen_quiet.wav,3,41496,2021-09-28_20h08.16.829,judgeSpeechMusic_20210921_logNormShiftAmp_detection_fixS,2020.1.2,MacIntel,60,,,,,,,,,,,,,,,,,,,,,,,,,,,,,,,,,,,,,,,
2,1,0.5549,0,2,2,3,1,stimuli/screen_origin.wav,stimuli/screen_quiet.wav,stimuli/screen_antiphase.wav,2,41496,2021-09-28_20h08.16.829,judgeSpeechMusic_20210921_logNormShiftAmp_detection_fixS,2020.1.2,MacIntel,60,,,,,,,,,,,,,,,,,,,,,,,,,,,,,,,,,,,,,,,
1,1,2.2835,0,3,3,4,1,stimuli/screen_quiet.wav,stimuli/screen_antiphase.wav,stimuli/screen_origin.wav,1,41496,2021-09-28_20h08.16.829,judgeSpeechMusic_20210921_logNormShiftAmp_detection_fixS,2020.1.2,MacIntel,60,,,,,,,,,,,,,,,,,,,,,,,,,,,,,,,,,,,,,,,
3,1,0.534,0,4,4,2,1,stimuli/screen_origin.wav,stimuli/screen_antiphase.wav,stimuli/screen_quiet.wav,3,41496,2021-09-28_20h08.16.829,judgeSpeechMusic_20210921_logNormShiftAmp_detection_fixS,2020.1.2,MacIntel,60,,,,,,,,,,,,,,,,,,,,,,,,,,,,,,,,,,,,,,,
1,1,0.5991,0,5,5,5,1,stimuli/screen_quiet.wav,stimuli/screen_origin.wav,stimuli/screen_antiphase.wav,1,41496,2021-09-28_20h08.16.829,judgeSpeechMusic_20210921_logNormShiftAmp_detection_fixS,2020.1.2,MacIntel,60,,,,,,,,,,,,,,,,,,,,,,,,,,,,,,,,,,,,,,,
,,,,,,,,,,,,41496,2021-09-28_20h08.16.829,judgeSpeechMusic_20210921_logNormShiftAmp_detection_fixS,2020.1.2,MacIntel,60,space,0.8504,1,9.1728,,0,0,0,0,3,1,stimuli/stim_20210706_power2amp/equal_lnn_AM_training3.9Hz_s35.m4a,,,,,,,,,,,,,,,,,,,,,,,,,,,
,,,,,,,,,,,,41496,2021-09-28_20h08.16.829,judgeSpeechMusic_20210921_logNormShiftAmp_detection_fixS,2020.1.2,MacIntel,60,,,1,7.8859,,0,0,1,1,0,1,stimuli/stim_20210706_power2amp/equal_lnn_AM_training0.9Hz_s35.m4a,,,,,,,,,,,,,,,,,,,,,,,,,,,
,,,,,,,,,,,,41496,2021-09-28_20h08.16.829,judgeSpeechMusic_20210921_logNormShiftAmp_detection_fixS,2020.1.2,MacIntel,60,,,1,7.4742,4,1,0,2,2,2,1,stimuli/stim_20210706_power2amp/equal_lnn_AM_training3Hz_s35.m4a,3.3131,,,,,,,,,,,,,,,,,,,,,,,,,,
,,,,,,,,,,,,41496,2021-09-28_20h08.16.829,judgeSpeechMusic_20210921_logNormShiftAmp_detection_fixS,2020.1.2,MacIntel,60,,,1,32.6083,,0,0,3,3,1,1,stimuli/stim_20210706_power2amp/equal_lnn_AM_training1.8Hz_s35.m4a,,,,,,,,,,,,,,,,,,,,,,,,,,,
,,,,,,,,,,,,41496,2021-09-28_20h08.16.829,judgeSpeechMusic_20210921_logNormShiftAmp_detection_fixS,2020.1.2,MacIntel,60,,,,,,,,,,,,,,space,8.7447,space,1.567,1,7.2372,,0,0,0,0,32,1,stimuli/stim_20210706_power2amp/equal_lnn_AM2.4Hz_s35_34.m4a,,,,,,,,,,,,
,,,,,,,,,,,,41496,2021-09-28_20h08.16.829,judgeSpeechMusic_20210921_logNormShiftAmp_detection_fixS,2020.1.2,MacIntel,60,,,,,,,,,,,,,,,,,,1,7.7757,,0,0,1,1,19,1,stimuli/stim_20210706_power2amp/equal_lnn_AM1.2Hz_s35_35.m4a,,,,,,,,,,,,
,,,,,,,,,,,,41496,2021-09-28_20h08.16.829,judgeSpeechMusic_20210921_logNormShiftAmp_detection_fixS,2020.1.2,MacIntel,60,,,,,,,,,,,,,,,,,,1,37.2422,,0,0,2,2,43,1,stimuli/stim_20210706_power2amp/equal_lnn_AM2.4Hz_s35_46.m4a,,,,,,,,,,,,
,,,,,,,,,,,,41496,2021-09-28_20h08.16.829,judgeSpeechMusic_20210921_logNormShiftAmp_detection_fixS,2020.1.2,MacIntel,60,,,,,,,,,,,,,,,,,,2,9.562,,0,0,3,3,71,1,stimuli/stim_20210706_power2amp/equal_lnn_AM4.2Hz_s35_28.m4a,,,,,,,,,,,,
,,,,,,,,,,,,41496,2021-09-28_20h08.16.829,judgeSpeechMusic_20210921_logNormShiftAmp_detection_fixS,2020.1.2,MacIntel,60,,,,,,,,,,,,,,,,,,1,6.1426,,0,0,4,4,13,1,stimuli/stim_20210706_power2amp/equal_lnn_AM0.6Hz_s35_17.m4a,,,,,,,,,,,,
,,,,,,,,,,,,41496,2021-09-28_20h08.16.829,judgeSpeechMusic_20210921_logNormShiftAmp_detection_fixS,2020.1.2,MacIntel,60,,,,,,,,,,,,,,,,,,1,48.9593,,0,0,5,5,50,1,stimuli/stim_20210706_power2amp/equal_lnn_AM3.6Hz_s35_27.m4a,,,,,,,,,,,,
,,,,,,,,,,,,41496,2021-09-28_20h08.16.829,judgeSpeechMusic_20210921_logNormShiftAmp_detection_fixS,2020.1.2,MacIntel,60,,,,,,,,,,,,,,,,,,2,6.3614,,0,0,6,6,70,1,stimuli/stim_20210706_power2amp/equal_lnn_AM4.2Hz_s35_42.m4a,,,,,,,,,,,,
,,,,,,,,,,,,41496,2021-09-28_20h08.16.829,judgeSpeechMusic_20210921_logNormShiftAmp_detection_fixS,2020.1.2,MacIntel,60,,,,,,,,,,,,,,,,,,2,6.3426,,0,0,7,7,47,1,stimuli/stim_20210706_power2amp/equal_lnn_AM3.6Hz_s35_19.m4a,,,,,,,,,,,,
,,,,,,,,,,,,41496,2021-09-28_20h08.16.829,judgeSpeechMusic_20210921_logNormShiftAmp_detection_fixS,2020.1.2,MacIntel,60,,,,,,,,,,,,,,,,,,2,6.0882,,0,0,8,8,18,1,stimuli/stim_20210706_power2amp/equal_lnn_AM1.2Hz_s35_3.m4a,,,,,,,,,,,,
,,,,,,,,,,,,41496,2021-09-28_20h08.16.829,judgeSpeechMusic_20210921_logNormShiftAmp_detection_fixS,2020.1.2,MacIntel,60,,,,,,,,,,,,,,,,,,1,6.393,,0,0,9,9,41,1,stimuli/stim_20210706_power2amp/equal_lnn_AM2.4Hz_s35_18.m4a,,,,,,,,,,,,
,,,,,,,,,,,,41496,2021-09-28_20h08.16.829,judgeSpeechMusic_20210921_logNormShiftAmp_detection_fixS,2020.1.2,MacIntel,60,,,,,,,,,,,,,,,,,,1,5.8601,,0,0,10,10,4,1,stimuli/stim_20210706_power2amp/equal_lnn_AM0.6Hz_s35_13.m4a,,,,,,,,,,,,
,,,,,,,,,,,,41496,2021-09-28_20h08.16.829,judgeSpeechMusic_20210921_logNormShiftAmp_detection_fixS,2020.1.2,MacIntel,60,,,,,,,,,,,,,,,,,,1,7.1407,,0,0,11,11,42,1,stimuli/stim_20210706_power2amp/equal_lnn_AM2.4Hz_s35_4.m4a,,,,,,,,,,,,
,,,,,,,,,,,,41496,2021-09-28_20h08.16.829,judgeSpeechMusic_20210921_logNormShiftAmp_detection_fixS,2020.1.2,MacIntel,60,,,,,,,,,,,,,,,,,,1,5.8251,,0,0,12,12,15,1,stimuli/stim_20210706_power2amp/equal_lnn_AM1.2Hz_s35_34.m4a,,,,,,,,,,,,
,,,,,,,,,,,,41496,2021-09-28_20h08.16.829,judgeSpeechMusic_20210921_logNormShiftAmp_detection_fixS,2020.1.2,MacIntel,60,,,,,,,,,,,,,,,,,,2,6.1414,,0,0,13,13,22,1,stimuli/stim_20210706_power2amp/equal_lnn_AM1.2Hz_s35_1.m4a,,,,,,,,,,,,
,,,,,,,,,,,,41496,2021-09-28_20h08.16.829,judgeSpeechMusic_20210921_logNormShiftAmp_detection_fixS,2020.1.2,MacIntel,60,,,,,,,,,,,,,,,,,,1,5.9609,,0,0,14,14,49,1,stimuli/stim_20210706_power2amp/equal_lnn_AM3.6Hz_s35_23.m4a,,,,,,,,,,,,
,,,,,,,,,,,,41496,2021-09-28_20h08.16.829,judgeSpeechMusic_20210921_logNormShiftAmp_detection_fixS,2020.1.2,MacIntel,60,,,,,,,,,,,,,,,,,,1,6.5601,,0,0,15,15,52,1,stimuli/stim_20210706_power2amp/equal_lnn_AM3.6Hz_s35_24.m4a,,,,,,,,,,,,
,,,,,,,,,,,,41496,2021-09-28_20h08.16.829,judgeSpeechMusic_20210921_logNormShiftAmp_detection_fixS,2020.1.2,MacIntel,60,,,,,,,,,,,,,,,,,,2,6.0813,,0,0,16,16,20,1,stimuli/stim_20210706_power2amp/equal_lnn_AM1.2Hz_s35_26.m4a,,,,,,,,,,,,
,,,,,,,,,,,,41496,2021-09-28_20h08.16.829,judgeSpeechMusic_20210921_logNormShiftAmp_detection_fixS,2020.1.2,MacIntel,60,,,,,,,,,,,,,,,,,,1,5.8082,,0,0,17,17,54,1,stimuli/stim_20210706_power2amp/equal_lnn_AM3.6Hz_s35_11.m4a,,,,,,,,,,,,
,,,,,,,,,,,,41496,2021-09-28_20h08.16.829,judgeSpeechMusic_20210921_logNormShiftAmp_detection_fixS,2020.1.2,MacIntel,60,,,,,,,,,,,,,,,,,,1,5.887,,0,0,18,18,55,1,stimuli/stim_20210706_power2amp/equal_lnn_AM3.6Hz_s35_41.m4a,,,,,,,,,,,,
,,,,,,,,,,,,41496,2021-09-28_20h08.16.829,judgeSpeechMusic_20210921_logNormShiftAmp_detection_fixS,2020.1.2,MacIntel,60,,,,,,,,,,,,,,,,,,2,8.0938,,0,0,19,19,29,1,stimuli/stim_20210706_power2amp/equal_lnn_AM1.2Hz_s35_22.m4a,,,,,,,,,,,,
,,,,,,,,,,,,41496,2021-09-28_20h08.16.829,judgeSpeechMusic_20210921_logNormShiftAmp_detection_fixS,2020.1.2,MacIntel,60,,,,,,,,,,,,,,,,,,1,6.3778,,0,0,20,20,14,1,stimuli/stim_20210706_power2amp/equal_lnn_AM0.6Hz_s35_34.m4a,,,,,,,,,,,,
,,,,,,,,,,,,41496,2021-09-28_20h08.16.829,judgeSpeechMusic_20210921_logNormShiftAmp_detection_fixS,2020.1.2,MacIntel,60,,,,,,,,,,,,,,,,,,1,5.7258,2,1,0,21,21,73,1,stimuli/stim_20210706_power2amp/equal_lnn_AM4.2Hz_s35_22.m4a,1.2143,,,,,,,,,,,
,,,,,,,,,,,,41496,2021-09-28_20h08.16.829,judgeSpeechMusic_20210921_logNormShiftAmp_detection_fixS,2020.1.2,MacIntel,60,,,,,,,,,,,,,,,,,,1,7.4103,,0,0,22,22,16,1,stimuli/stim_20210706_power2amp/equal_lnn_AM1.2Hz_s35_7.m4a,,,,,,,,,,,,
,,,,,,,,,,,,41496,2021-09-28_20h08.16.829,judgeSpeechMusic_20210921_logNormShiftAmp_detection_fixS,2020.1.2,MacIntel,60,,,,,,,,,,,,,,,,,,1,7.3273,,0,0,23,23,8,1,stimuli/stim_20210706_power2amp/equal_lnn_AM0.6Hz_s35_26.m4a,,,,,,,,,,,,
,,,,,,,,,,,,41496,2021-09-28_20h08.16.829,judgeSpeechMusic_20210921_logNormShiftAmp_detection_fixS,2020.1.2,MacIntel,60,,,,,,,,,,,,,,,,,,1,5.7568,,0,0,24,24,65,1,stimuli/stim_20210706_power2amp/equal_lnn_AM4.2Hz_s35_31.m4a,,,,,,,,,,,,
,,,,,,,,,,,,41496,2021-09-28_20h08.16.829,judgeSpeechMusic_20210921_logNormShiftAmp_detection_fixS,2020.1.2,MacIntel,60,,,,,,,,,,,,,,,,,,2,6.2415,,0,0,25,25,1,1,stimuli/stim_20210706_power2amp/equal_lnn_AM0.6Hz_s35_33.m4a,,,,,,,,,,,,
,,,,,,,,,,,,41496,2021-09-28_20h08.16.829,judgeSpeechMusic_20210921_logNormShiftAmp_detection_fixS,2020.1.2,MacIntel,60,,,,,,,,,,,,,,,,,,2,5.7292,,0,0,26,26,37,1,stimuli/stim_20210706_power2amp/equal_lnn_AM2.4Hz_s35_33.m4a,,,,,,,,,,,,
,,,,,,,,,,,,41496,2021-09-28_20h08.16.829,judgeSpeechMusic_20210921_logNormShiftAmp_detection_fixS,2020.1.2,MacIntel,60,,,,,,,,,,,,,,,,,,1,6.6096,,0,0,27,27,0,1,stimuli/stim_20210706_power2amp/equal_lnn_AM0.6Hz_s35_10.m4a,,,,,,,,,,,,
,,,,,,,,,,,,41496,2021-09-28_20h08.16.829,judgeSpeechMusic_20210921_logNormShiftAmp_detection_fixS,2020.1.2,MacIntel,60,,,,,,,,,,,,,,,,,,2,7.3772,,0,0,28,28,53,1,stimuli/stim_20210706_power2amp/equal_lnn_AM3.6Hz_s35_47.m4a,,,,,,,,,,,,
,,,,,,,,,,,,41496,2021-09-28_20h08.16.829,judgeSpeechMusic_20210921_logNormShiftAmp_detection_fixS,2020.1.2,MacIntel,60,,,,,,,,,,,,,,,,,,1,5.7613,,0,0,29,29,34,1,stimuli/stim_20210706_power2amp/equal_lnn_AM2.4Hz_s35_16.m4a,,,,,,,,,,,,
,,,,,,,,,,,,41496,2021-09-28_20h08.16.829,judgeSpeechMusic_20210921_logNormShiftAmp_detection_fixS,2020.1.2,MacIntel,60,,,,,,,,,,,,,,,,,,2,5.8932,,0,0,30,30,5,1,stimuli/stim_20210706_power2amp/equal_lnn_AM0.6Hz_s35_30.m4a,,,,,,,,,,,,
,,,,,,,,,,,,41496,2021-09-28_20h08.16.829,judgeSpeechMusic_20210921_logNormShiftAmp_detection_fixS,2020.1.2,MacIntel,60,,,,,,,,,,,,,,,,,,2,5.7615,,0,0,31,31,21,1,stimuli/stim_20210706_power2amp/equal_lnn_AM1.2Hz_s35_6.m4a,,,,,,,,,,,,
,,,,,,,,,,,,41496,2021-09-28_20h08.16.829,judgeSpeechMusic_20210921_logNormShiftAmp_detection_fixS,2020.1.2,MacIntel,60,,,,,,,,,,,,,,,,,,2,5.9948,,0,0,32,32,24,1,stimuli/stim_20210706_power2amp/equal_lnn_AM1.2Hz_s35_39.m4a,,,,,,,,,,,,
,,,,,,,,,,,,41496,2021-09-28_20h08.16.829,judgeSpeechMusic_20210921_logNormShiftAmp_detection_fixS,2020.1.2,MacIntel,60,,,,,,,,,,,,,,,,,,1,6.2592,,0,0,33,33,23,1,stimuli/stim_20210706_power2amp/equal_lnn_AM1.2Hz_s35_37.m4a,,,,,,,,,,,,
,,,,,,,,,,,,41496,2021-09-28_20h08.16.829,judgeSpeechMusic_20210921_logNormShiftAmp_detection_fixS,2020.1.2,MacIntel,60,,,,,,,,,,,,,,,,,,2,6.0937,,0,0,34,34,39,1,stimuli/stim_20210706_power2amp/equal_lnn_AM2.4Hz_s35_11.m4a,,,,,,,,,,,,
,,,,,,,,,,,,41496,2021-09-28_20h08.16.829,judgeSpeechMusic_20210921_logNormShiftAmp_detection_fixS,2020.1.2,MacIntel,60,,,,,,,,,,,,,,,,,,1,6.3945,,0,0,35,35,9,1,stimuli/stim_20210706_power2amp/equal_lnn_AM0.6Hz_s35_6.m4a,,,,,,,,,,,,
,,,,,,,,,,,,41496,2021-09-28_20h08.16.829,judgeSpeechMusic_20210921_logNormShiftAmp_detection_fixS,2020.1.2,MacIntel,60,,,,,,,,,,,,,,,,,,1,6.3258,,0,0,36,36,69,1,stimuli/stim_20210706_power2amp/equal_lnn_AM4.2Hz_s35_10.m4a,,,,,,,,,,,,
,,,,,,,,,,,,41496,2021-09-28_20h08.16.829,judgeSpeechMusic_20210921_logNormShiftAmp_detection_fixS,2020.1.2,MacIntel,60,,,,,,,,,,,,,,,,,,1,6.2771,,0,0,37,37,35,1,stimuli/stim_20210706_power2amp/equal_lnn_AM2.4Hz_s35_14.m4a,,,,,,,,,,,,
,,,,,,,,,,,,41496,2021-09-28_20h08.16.829,judgeSpeechMusic_20210921_logNormShiftAmp_detection_fixS,2020.1.2,MacIntel,60,,,,,,,,,,,,,,,,,,1,5.887,,0,0,38,38,38,1,stimuli/stim_20210706_power2amp/equal_lnn_AM2.4Hz_s35_31.m4a,,,,,,,,,,,,
,,,,,,,,,,,,41496,2021-09-28_20h08.16.829,judgeSpeechMusic_20210921_logNormShiftAmp_detection_fixS,2020.1.2,MacIntel,60,,,,,,,,,,,,,,,,,,1,5.8961,,0,0,39,39,2,1,stimuli/stim_20210706_power2amp/equal_lnn_AM0.6Hz_s35_3.m4a,,,,,,,,,,,,
,,,,,,,,,,,,41496,2021-09-28_20h08.16.829,judgeSpeechMusic_20210921_logNormShiftAmp_detection_fixS,2020.1.2,MacIntel,60,,,,,,,,,,,,,,,,,,1,6.4133,,0,0,40,40,57,1,stimuli/stim_20210706_power2amp/equal_lnn_AM3.6Hz_s35_39.m4a,,,,,,,,,,,,
,,,,,,,,,,,,41496,2021-09-28_20h08.16.829,judgeSpeechMusic_20210921_logNormShiftAmp_detection_fixS,2020.1.2,MacIntel,60,,,,,,,,,,,,,,,,,,1,5.8124,2,1,0,41,41,31,1,stimuli/stim_20210706_power2amp/equal_lnn_AM2.4Hz_s35_24.m4a,1.1002,,,,,,,,,,,
,,,,,,,,,,,,41496,2021-09-28_20h08.16.829,judgeSpeechMusic_20210921_logNormShiftAmp_detection_fixS,2020.1.2,MacIntel,60,,,,,,,,,,,,,,,,,,2,6.0739,,0,0,42,42,36,1,stimuli/stim_20210706_power2amp/equal_lnn_AM2.4Hz_s35_22.m4a,,,,,,,,,,,,
,,,,,,,,,,,,41496,2021-09-28_20h08.16.829,judgeSpeechMusic_20210921_logNormShiftAmp_detection_fixS,2020.1.2,MacIntel,60,,,,,,,,,,,,,,,,,,1,6.1069,,0,0,43,43,56,1,stimuli/stim_20210706_power2amp/equal_lnn_AM3.6Hz_s35_3.m4a,,,,,,,,,,,,
,,,,,,,,,,,,41496,2021-09-28_20h08.16.829,judgeSpeechMusic_20210921_logNormShiftAmp_detection_fixS,2020.1.2,MacIntel,60,,,,,,,,,,,,,,,,,,1,6.1769,,0,0,44,44,61,1,stimuli/stim_20210706_power2amp/equal_lnn_AM4.2Hz_s35_7.m4a,,,,,,,,,,,,
,,,,,,,,,,,,41496,2021-09-28_20h08.16.829,judgeSpeechMusic_20210921_logNormShiftAmp_detection_fixS,2020.1.2,MacIntel,60,,,,,,,,,,,,,,,,,,1,6.5941,,0,0,45,45,11,1,stimuli/stim_20210706_power2amp/equal_lnn_AM0.6Hz_s35_14.m4a,,,,,,,,,,,,
,,,,,,,,,,,,41496,2021-09-28_20h08.16.829,judgeSpeechMusic_20210921_logNormShiftAmp_detection_fixS,2020.1.2,MacIntel,60,,,,,,,,,,,,,,,,,,1,6.9629,,0,0,46,46,51,1,stimuli/stim_20210706_power2amp/equal_lnn_AM3.6Hz_s35_30.m4a,,,,,,,,,,,,
,,,,,,,,,,,,41496,2021-09-28_20h08.16.829,judgeSpeechMusic_20210921_logNormShiftAmp_detection_fixS,2020.1.2,MacIntel,60,,,,,,,,,,,,,,,,,,1,7.0278,,0,0,47,47,40,1,stimuli/stim_20210706_power2amp/equal_lnn_AM2.4Hz_s35_40.m4a,,,,,,,,,,,,
,,,,,,,,,,,,41496,2021-09-28_20h08.16.829,judgeSpeechMusic_20210921_logNormShiftAmp_detection_fixS,2020.1.2,MacIntel,60,,,,,,,,,,,,,,,,,,2,6.5267,,0,0,48,48,64,1,stimuli/stim_20210706_power2amp/equal_lnn_AM4.2Hz_s35_46.m4a,,,,,,,,,,,,
,,,,,,,,,,,,41496,2021-09-28_20h08.16.829,judgeSpeechMusic_20210921_logNormShiftAmp_detection_fixS,2020.1.2,MacIntel,60,,,,,,,,,,,,,,,,,,1,5.643,,0,0,49,49,74,1,stimuli/stim_20210706_power2amp/equal_lnn_AM4.2Hz_s35_24.m4a,,,,,,,,,,,,
,,,,,,,,,,,,41496,2021-09-28_20h08.16.829,judgeSpeechMusic_20210921_logNormShiftAmp_detection_fixS,2020.1.2,MacIntel,60,,,,,,,,,,,,,,,,,,1,5.7158,,0,0,50,50,62,1,stimuli/stim_20210706_power2amp/equal_lnn_AM4.2Hz_s35_47.m4a,,,,,,,,,,,,
,,,,,,,,,,,,41496,2021-09-28_20h08.16.829,judgeSpeechMusic_20210921_logNormShiftAmp_detection_fixS,2020.1.2,MacIntel,60,,,,,,,,,,,,,,,,,,2,6.3097,,0,0,51,51,46,1,stimuli/stim_20210706_power2amp/equal_lnn_AM3.6Hz_s35_7.m4a,,,,,,,,,,,,
,,,,,,,,,,,,41496,2021-09-28_20h08.16.829,judgeSpeechMusic_20210921_logNormShiftAmp_detection_fixS,2020.1.2,MacIntel,60,,,,,,,,,,,,,,,,,,1,6.6275,,0,0,52,52,59,1,stimuli/stim_20210706_power2amp/equal_lnn_AM3.6Hz_s35_12.m4a,,,,,,,,,,,,
,,,,,,,,,,,,41496,2021-09-28_20h08.16.829,judgeSpeechMusic_20210921_logNormShiftAmp_detection_fixS,2020.1.2,MacIntel,60,,,,,,,,,,,,,,,,,,2,5.9258,,0,0,53,53,27,1,stimuli/stim_20210706_power2amp/equal_lnn_AM1.2Hz_s35_40.m4a,,,,,,,,,,,,
,,,,,,,,,,,,41496,2021-09-28_20h08.16.829,judgeSpeechMusic_20210921_logNormShiftAmp_detection_fixS,2020.1.2,MacIntel,60,,,,,,,,,,,,,,,,,,1,5.825,,0,0,54,54,60,1,stimuli/stim_20210706_power2amp/equal_lnn_AM4.2Hz_s35_9.m4a,,,,,,,,,,,,
,,,,,,,,,,,,41496,2021-09-28_20h08.16.829,judgeSpeechMusic_20210921_logNormShiftAmp_detection_fixS,2020.1.2,MacIntel,60,,,,,,,,,,,,,,,,,,1,6.2258,,0,0,55,55,17,1,stimuli/stim_20210706_power2amp/equal_lnn_AM1.2Hz_s35_30.m4a,,,,,,,,,,,,
,,,,,,,,,,,,41496,2021-09-28_20h08.16.829,judgeSpeechMusic_20210921_logNormShiftAmp_detection_fixS,2020.1.2,MacIntel,60,,,,,,,,,,,,,,,,,,2,5.9274,,0,0,56,56,28,1,stimuli/stim_20210706_power2amp/equal_lnn_AM1.2Hz_s35_43.m4a,,,,,,,,,,,,
,,,,,,,,,,,,41496,2021-09-28_20h08.16.829,judgeSpeechMusic_20210921_logNormShiftAmp_detection_fixS,2020.1.2,MacIntel,60,,,,,,,,,,,,,,,,,,2,7.3437,,0,0,57,57,30,1,stimuli/stim_20210706_power2amp/equal_lnn_AM2.4Hz_s35_35.m4a,,,,,,,,,,,,
,,,,,,,,,,,,41496,2021-09-28_20h08.16.829,judgeSpeechMusic_20210921_logNormShiftAmp_detection_fixS,2020.1.2,MacIntel,60,,,,,,,,,,,,,,,,,,1,7.1764,,0,0,58,58,10,1,stimuli/stim_20210706_power2amp/equal_lnn_AM0.6Hz_s35_42.m4a,,,,,,,,,,,,
,,,,,,,,,,,,41496,2021-09-28_20h08.16.829,judgeSpeechMusic_20210921_logNormShiftAmp_detection_fixS,2020.1.2,MacIntel,60,,,,,,,,,,,,,,,,,,1,6.3943,,0,0,59,59,72,1,stimuli/stim_20210706_power2amp/equal_lnn_AM4.2Hz_s35_14.m4a,,,,,,,,,,,,
,,,,,,,,,,,,41496,2021-09-28_20h08.16.829,judgeSpeechMusic_20210921_logNormShiftAmp_detection_fixS,2020.1.2,MacIntel,60,,,,,,,,,,,,,,,,,,1,12.5285,,0,0,60,60,66,1,stimuli/stim_20210706_power2amp/equal_lnn_AM4.2Hz_s35_20.m4a,,,,,,,,,,,,
,,,,,,,,,,,,41496,2021-09-28_20h08.16.829,judgeSpeechMusic_20210921_logNormShiftAmp_detection_fixS,2020.1.2,MacIntel,60,,,,,,,,,,,,,,,,,,2,6.2287,,0,0,61,61,26,1,stimuli/stim_20210706_power2amp/equal_lnn_AM1.2Hz_s35_28.m4a,,,,,,,,,,,,
,,,,,,,,,,,,41496,2021-09-28_20h08.16.829,judgeSpeechMusic_20210921_logNormShiftAmp_detection_fixS,2020.1.2,MacIntel,60,,,,,,,,,,,,,,,,,,1,5.7261,,0,0,62,62,45,1,stimuli/stim_20210706_power2amp/equal_lnn_AM3.6Hz_s35_31.m4a,,,,,,,,,,,,
,,,,,,,,,,,,41496,2021-09-28_20h08.16.829,judgeSpeechMusic_20210921_logNormShiftAmp_detection_fixS,2020.1.2,MacIntel,60,,,,,,,,,,,,,,,,,,1,12.8258,2,1,0,63,63,25,1,stimuli/stim_20210706_power2amp/equal_lnn_AM1.2Hz_s35_42.m4a,0.5649,,,,,,,,,,,
,,,,,,,,,,,,41496,2021-09-28_20h08.16.829,judgeSpeechMusic_20210921_logNormShiftAmp_detection_fixS,2020.1.2,MacIntel,60,,,,,,,,,,,,,,,,,,1,6.027,,0,0,64,64,63,1,stimuli/stim_20210706_power2amp/equal_lnn_AM4.2Hz_s35_41.m4a,,,,,,,,,,,,
,,,,,,,,,,,,41496,2021-09-28_20h08.16.829,judgeSpeechMusic_20210921_logNormShiftAmp_detection_fixS,2020.1.2,MacIntel,60,,,,,,,,,,,,,,,,,,2,5.8791,,0,0,65,65,6,1,stimuli/stim_20210706_power2amp/equal_lnn_AM0.6Hz_s35_36.m4a,,,,,,,,,,,,
,,,,,,,,,,,,41496,2021-09-28_20h08.16.829,judgeSpeechMusic_20210921_logNormShiftAmp_detection_fixS,2020.1.2,MacIntel,60,,,,,,,,,,,,,,,,,,2,5.7462,,0,0,66,66,44,1,stimuli/stim_20210706_power2amp/equal_lnn_AM2.4Hz_s35_10.m4a,,,,,,,,,,,,
,,,,,,,,,,,,41496,2021-09-28_20h08.16.829,judgeSpeechMusic_20210921_logNormShiftAmp_detection_fixS,2020.1.2,MacIntel,60,,,,,,,,,,,,,,,,,,1,5.7876,,0,0,67,67,48,1,stimuli/stim_20210706_power2amp/equal_lnn_AM3.6Hz_s35_34.m4a,,,,,,,,,,,,
,,,,,,,,,,,,41496,2021-09-28_20h08.16.829,judgeSpeechMusic_20210921_logNormShiftAmp_detection_fixS,2020.1.2,MacIntel,60,,,,,,,,,,,,,,,,,,2,9.7782,,0,0,68,68,7,1,stimuli/stim_20210706_power2amp/equal_lnn_AM0.6Hz_s35_7.m4a,,,,,,,,,,,,
,,,,,,,,,,,,41496,2021-09-28_20h08.16.829,judgeSpeechMusic_20210921_logNormShiftAmp_detection_fixS,2020.1.2,MacIntel,60,,,,,,,,,,,,,,,,,,1,6.1274,,0,0,69,69,58,1,stimuli/stim_20210706_power2amp/equal_lnn_AM3.6Hz_s35_17.m4a,,,,,,,,,,,,
,,,,,,,,,,,,41496,2021-09-28_20h08.16.829,judgeSpeechMusic_20210921_logNormShiftAmp_detection_fixS,2020.1.2,MacIntel,60,,,,,,,,,,,,,,,,,,2,7.214,,0,0,70,70,12,1,stimuli/stim_20210706_power2amp/equal_lnn_AM0.6Hz_s35_31.m4a,,,,,,,,,,,,
,,,,,,,,,,,,41496,2021-09-28_20h08.16.829,judgeSpeechMusic_20210921_logNormShiftAmp_detection_fixS,2020.1.2,MacIntel,60,,,,,,,,,,,,,,,,,,2,6.6603,,0,0,71,71,33,1,stimuli/stim_20210706_power2amp/equal_lnn_AM2.4Hz_s35_39.m4a,,,,,,,,,,,,
,,,,,,,,,,,,41496,2021-09-28_20h08.16.829,judgeSpeechMusic_20210921_logNormShiftAmp_detection_fixS,2020.1.2,MacIntel,60,,,,,,,,,,,,,,,,,,2,5.9925,,0,0,72,72,3,1,stimuli/stim_20210706_power2amp/equal_lnn_AM0.6Hz_s35_39.m4a,,,,,,,,,,,,
,,,,,,,,,,,,41496,2021-09-28_20h08.16.829,judgeSpeechMusic_20210921_logNormShiftAmp_detection_fixS,2020.1.2,MacIntel,60,,,,,,,,,,,,,,,,,,1,6.5212,,0,0,73,73,67,1,stimuli/stim_20210706_power2amp/equal_lnn_AM4.2Hz_s35_23.m4a,,,,,,,,,,,,
,,,,,,,,,,,,41496,2021-09-28_20h08.16.829,judgeSpeechMusic_20210921_logNormShiftAmp_detection_fixS,2020.1.2,MacIntel,60,,,,,,,,,,,,,,,,,,1,5.8095,,0,0,74,74,68,1,stimuli/stim_20210706_power2amp/equal_lnn_AM4.2Hz_s35_48.m4a,,,,,,,,,,,,
,,,,,,,,,,,,41496,2021-09-28_20h08.16.829,judgeSpeechMusic_20210921_logNormShiftAmp_detection_fixS,2020.1.2,MacIntel,60,,,,,,,,,,,,,,,,,,,,,,,,,,,,,space,0.8297,0,0,0,1,1,SPEECH,stimuli/SPEECH.jpg,,
,,,,,,,,,,,,41496,2021-09-28_20h08.16.829,judgeSpeechMusic_20210921_logNormShiftAmp_detection_fixS,2020.1.2,MacIntel,60,space,0.6774,2,7.7941,,0,0,0,0,2,1,stimuli/stim_20210706_power2amp/equal_lnn_AM_training3Hz_s35.m4a,,,,,,,,,,,,,,,,,,,,,,,,,,,
,,,,,,,,,,,,41496,2021-09-28_20h08.16.829,judgeSpeechMusic_20210921_logNormShiftAmp_detection_fixS,2020.1.2,MacIntel,60,,,2,6.5244,,0,0,1,1,1,1,stimuli/stim_20210706_power2amp/equal_lnn_AM_training1.8Hz_s35.m4a,,,,,,,,,,,,,,,,,,,,,,,,,,,
,,,,,,,,,,,,41496,2021-09-28_20h08.16.829,judgeSpeechMusic_20210921_logNormShiftAmp_detection_fixS,2020.1.2,MacIntel,60,,,1,6.5085,3,1,0,2,2,3,1,stimuli/stim_20210706_power2amp/equal_lnn_AM_training3.9Hz_s35.m4a,0.3746,,,,,,,,,,,,,,,,,,,,,,,,,,
,,,,,,,,,,,,41496,2021-09-28_20h08.16.829,judgeSpeechMusic_20210921_logNormShiftAmp_detection_fixS,2020.1.2,MacIntel,60,,,2,6.7246,,0,0,3,3,0,1,stimuli/stim_20210706_power2amp/equal_lnn_AM_training0.9Hz_s35.m4a,,,,,,,,,,,,,,,,,,,,,,,,,,,
,,,,,,,,,,,,41496,2021-09-28_20h08.16.829,judgeSpeechMusic_20210921_logNormShiftAmp_detection_fixS,2020.1.2,MacIntel,60,,,,,,,,,,,,,,space,1.4497,space,0.4528,1,7.3538,,0,0,0,0,36,1,stimuli/stim_20210706_power2amp/equal_lnn_AM2.4Hz_s35_22.m4a,,,,,,,,,,,,
,,,,,,,,,,,,41496,2021-09-28_20h08.16.829,judgeSpeechMusic_20210921_logNormShiftAmp_detection_fixS,2020.1.2,MacIntel,60,,,,,,,,,,,,,,,,,,1,5.9433,,0,0,1,1,54,1,stimuli/stim_20210706_power2amp/equal_lnn_AM3.6Hz_s35_11.m4a,,,,,,,,,,,,
,,,,,,,,,,,,41496,2021-09-28_20h08.16.829,judgeSpeechMusic_20210921_logNormShiftAmp_detection_fixS,2020.1.2,MacIntel,60,,,,,,,,,,,,,,,,,,1,6.3882,,0,0,2,2,48,1,stimuli/stim_20210706_power2amp/equal_lnn_AM3.6Hz_s35_34.m4a,,,,,,,,,,,,
,,,,,,,,,,,,41496,2021-09-28_20h08.16.829,judgeSpeechMusic_20210921_logNormShiftAmp_detection_fixS,2020.1.2,MacIntel,60,,,,,,,,,,,,,,,,,,2,6.084,,0,0,3,3,7,1,stimuli/stim_20210706_power2amp/equal_lnn_AM0.6Hz_s35_7.m4a,,,,,,,,,,,,
,,,,,,,,,,,,41496,2021-09-28_20h08.16.829,judgeSpeechMusic_20210921_logNormShiftAmp_detection_fixS,2020.1.2,MacIntel,60,,,,,,,,,,,,,,,,,,1,6.8475,,0,0,4,4,17,1,stimuli/stim_20210706_power2amp/equal_lnn_AM1.2Hz_s35_30.m4a,,,,,,,,,,,,
,,,,,,,,,,,,41496,2021-09-28_20h08.16.829,judgeSpeechMusic_20210921_logNormShiftAmp_detection_fixS,2020.1.2,MacIntel,60,,,,,,,,,,,,,,,,,,1,6.5254,,0,0,5,5,5,1,stimuli/stim_20210706_power2amp/equal_lnn_AM0.6Hz_s35_30.m4a,,,,,,,,,,,,
,,,,,,,,,,,,41496,2021-09-28_20h08.16.829,judgeSpeechMusic_20210921_logNormShiftAmp_detection_fixS,2020.1.2,MacIntel,60,,,,,,,,,,,,,,,,,,2,6.2923,,0,0,6,6,38,1,stimuli/stim_20210706_power2amp/equal_lnn_AM2.4Hz_s35_31.m4a,,,,,,,,,,,,
,,,,,,,,,,,,41496,2021-09-28_20h08.16.829,judgeSpeechMusic_20210921_logNormShiftAmp_detection_fixS,2020.1.2,MacIntel,60,,,,,,,,,,,,,,,,,,2,6.148,,0,0,7,7,24,1,stimuli/stim_20210706_power2amp/equal_lnn_AM1.2Hz_s35_39.m4a,,,,,,,,,,,,
,,,,,,,,,,,,41496,2021-09-28_20h08.16.829,judgeSpeechMusic_20210921_logNormShiftAmp_detection_fixS,2020.1.2,MacIntel,60,,,,,,,,,,,,,,,,,,1,7.2413,,0,0,8,8,9,1,stimuli/stim_20210706_power2amp/equal_lnn_AM0.6Hz_s35_6.m4a,,,,,,,,,,,,
,,,,,,,,,,,,41496,2021-09-28_20h08.16.829,judgeSpeechMusic_20210921_logNormShiftAmp_detection_fixS,2020.1.2,MacIntel,60,,,,,,,,,,,,,,,,,,1,6.1584,,0,0,9,9,56,1,stimuli/stim_20210706_power2amp/equal_lnn_AM3.6Hz_s35_3.m4a,,,,,,,,,,,,
,,,,,,,,,,,,41496,2021-09-28_20h08.16.829,judgeSpeechMusic_20210921_logNormShiftAmp_detection_fixS,2020.1.2,MacIntel,60,,,,,,,,,,,,,,,,,,1,6.6322,,0,0,10,10,4,1,stimuli/stim_20210706_power2amp/equal_lnn_AM0.6Hz_s35_13.m4a,,,,,,,,,,,,
,,,,,,,,,,,,41496,2021-09-28_20h08.16.829,judgeSpeechMusic_20210921_logNormShiftAmp_detection_fixS,2020.1.2,MacIntel,60,,,,,,,,,,,,,,,,,,2,6.0255,,0,0,11,11,15,1,stimuli/stim_20210706_power2amp/equal_lnn_AM1.2Hz_s35_34.m4a,,,,,,,,,,,,
,,,,,,,,,,,,41496,2021-09-28_20h08.16.829,judgeSpeechMusic_20210921_logNormShiftAmp_detection_fixS,2020.1.2,MacIntel,60,,,,,,,,,,,,,,,,,,2,6.3119,,0,0,12,12,18,1,stimuli/stim_20210706_power2amp/equal_lnn_AM1.2Hz_s35_3.m4a,,,,,,,,,,,,
,,,,,,,,,,,,41496,2021-09-28_20h08.16.829,judgeSpeechMusic_20210921_logNormShiftAmp_detection_fixS,2020.1.2,MacIntel,60,,,,,,,,,,,,,,,,,,2,6.0943,,0,0,13,13,14,1,stimuli/stim_20210706_power2amp/equal_lnn_AM0.6Hz_s35_34.m4a,,,,,,,,,,,,
,,,,,,,,,,,,41496,2021-09-28_20h08.16.829,judgeSpeechMusic_20210921_logNormShiftAmp_detection_fixS,2020.1.2,MacIntel,60,,,,,,,,,,,,,,,,,,2,5.9767,,0,0,14,14,13,1,stimuli/stim_20210706_power2amp/equal_lnn_AM0.6Hz_s35_17.m4a,,,,,,,,,,,,
,,,,,,,,,,,,41496,2021-09-28_20h08.16.829,judgeSpeechMusic_20210921_logNormShiftAmp_detection_fixS,2020.1.2,MacIntel,60,,,,,,,,,,,,,,,,,,1,6.9444,,0,0,15,15,73,1,stimuli/stim_20210706_power2amp/equal_lnn_AM4.2Hz_s35_22.m4a,,,,,,,,,,,,
,,,,,,,,,,,,41496,2021-09-28_20h08.16.829,judgeSpeechMusic_20210921_logNormShiftAmp_detection_fixS,2020.1.2,MacIntel,60,,,,,,,,,,,,,,,,,,2,6.9073,,0,0,16,16,10,1,stimuli/stim_20210706_power2amp/equal_lnn_AM0.6Hz_s35_42.m4a,,,,,,,,,,,,
,,,,,,,,,,,,41496,2021-09-28_20h08.16.829,judgeSpeechMusic_20210921_logNormShiftAmp_detection_fixS,2020.1.2,MacIntel,60,,,,,,,,,,,,,,,,,,1,5.9627,,0,0,17,17,71,1,stimuli/stim_20210706_power2amp/equal_lnn_AM4.2Hz_s35_28.m4a,,,,,,,,,,,,
,,,,,,,,,,,,41496,2021-09-28_20h08.16.829,judgeSpeechMusic_20210921_logNormShiftAmp_detection_fixS,2020.1.2,MacIntel,60,,,,,,,,,,,,,,,,,,2,5.759,,0,0,18,18,6,1,stimuli/stim_20210706_power2amp/equal_lnn_AM0.6Hz_s35_36.m4a,,,,,,,,,,,,
,,,,,,,,,,,,41496,2021-09-28_20h08.16.829,judgeSpeechMusic_20210921_logNormShiftAmp_detection_fixS,2020.1.2,MacIntel,60,,,,,,,,,,,,,,,,,,1,6.3591,,0,0,19,19,72,1,stimuli/stim_20210706_power2amp/equal_lnn_AM4.2Hz_s35_14.m4a,,,,,,,,,,,,
,,,,,,,,,,,,41496,2021-09-28_20h08.16.829,judgeSpeechMusic_20210921_logNormShiftAmp_detection_fixS,2020.1.2,MacIntel,60,,,,,,,,,,,,,,,,,,1,6.5978,,0,0,20,20,66,1,stimuli/stim_20210706_power2amp/equal_lnn_AM4.2Hz_s35_20.m4a,,,,,,,,,,,,
,,,,,,,,,,,,41496,2021-09-28_20h08.16.829,judgeSpeechMusic_20210921_logNormShiftAmp_detection_fixS,2020.1.2,MacIntel,60,,,,,,,,,,,,,,,,,,1,6.0269,4,1,0,21,21,58,1,stimuli/stim_20210706_power2amp/equal_lnn_AM3.6Hz_s35_17.m4a,0.797,,,,,,,,,,,
,,,,,,,,,,,,41496,2021-09-28_20h08.16.829,judgeSpeechMusic_20210921_logNormShiftAmp_detection_fixS,2020.1.2,MacIntel,60,,,,,,,,,,,,,,,,,,1,6.378,,0,0,22,22,57,1,stimuli/stim_20210706_power2amp/equal_lnn_AM3.6Hz_s35_39.m4a,,,,,,,,,,,,
,,,,,,,,,,,,41496,2021-09-28_20h08.16.829,judgeSpeechMusic_20210921_logNormShiftAmp_detection_fixS,2020.1.2,MacIntel,60,,,,,,,,,,,,,,,,,,1,6.1295,,0,0,23,23,51,1,stimuli/stim_20210706_power2amp/equal_lnn_AM3.6Hz_s35_30.m4a,,,,,,,,,,,,
,,,,,,,,,,,,41496,2021-09-28_20h08.16.829,judgeSpeechMusic_20210921_logNormShiftAmp_detection_fixS,2020.1.2,MacIntel,60,,,,,,,,,,,,,,,,,,1,6.5805,,0,0,24,24,47,1,stimuli/stim_20210706_power2amp/equal_lnn_AM3.6Hz_s35_19.m4a,,,,,,,,,,,,
,,,,,,,,,,,,41496,2021-09-28_20h08.16.829,judgeSpeechMusic_20210921_logNormShiftAmp_detection_fixS,2020.1.2,MacIntel,60,,,,,,,,,,,,,,,,,,2,5.8938,,0,0,25,25,52,1,stimuli/stim_20210706_power2amp/equal_lnn_AM3.6Hz_s35_24.m4a,,,,,,,,,,,,
,,,,,,,,,,,,41496,2021-09-28_20h08.16.829,judgeSpeechMusic_20210921_logNormShiftAmp_detection_fixS,2020.1.2,MacIntel,60,,,,,,,,,,,,,,,,,,1,5.8942,,0,0,26,26,65,1,stimuli/stim_20210706_power2amp/equal_lnn_AM4.2Hz_s35_31.m4a,,,,,,,,,,,,
,,,,,,,,,,,,41496,2021-09-28_20h08.16.829,judgeSpeechMusic_20210921_logNormShiftAmp_detection_fixS,2020.1.2,MacIntel,60,,,,,,,,,,,,,,,,,,1,7.0894,,0,0,27,27,2,1,stimuli/stim_20210706_power2amp/equal_lnn_AM0.6Hz_s35_3.m4a,,,,,,,,,,,,
,,,,,,,,,,,,41496,2021-09-28_20h08.16.829,judgeSpeechMusic_20210921_logNormShiftAmp_detection_fixS,2020.1.2,MacIntel,60,,,,,,,,,,,,,,,,,,2,8.0946,,0,0,28,28,42,1,stimuli/stim_20210706_power2amp/equal_lnn_AM2.4Hz_s35_4.m4a,,,,,,,,,,,,
,,,,,,,,,,,,41496,2021-09-28_20h08.16.829,judgeSpeechMusic_20210921_logNormShiftAmp_detection_fixS,2020.1.2,MacIntel,60,,,,,,,,,,,,,,,,,,1,6.6926,,0,0,29,29,50,1,stimuli/stim_20210706_power2amp/equal_lnn_AM3.6Hz_s35_27.m4a,,,,,,,,,,,,
,,,,,,,,,,,,41496,2021-09-28_20h08.16.829,judgeSpeechMusic_20210921_logNormShiftAmp_detection_fixS,2020.1.2,MacIntel,60,,,,,,,,,,,,,,,,,,1,6.4108,,0,0,30,30,35,1,stimuli/stim_20210706_power2amp/equal_lnn_AM2.4Hz_s35_14.m4a,,,,,,,,,,,,
,,,,,,,,,,,,41496,2021-09-28_20h08.16.829,judgeSpeechMusic_20210921_logNormShiftAmp_detection_fixS,2020.1.2,MacIntel,60,,,,,,,,,,,,,,,,,,1,6.9287,,0,0,31,31,16,1,stimuli/stim_20210706_power2amp/equal_lnn_AM1.2Hz_s35_7.m4a,,,,,,,,,,,,
,,,,,,,,,,,,41496,2021-09-28_20h08.16.829,judgeSpeechMusic_20210921_logNormShiftAmp_detection_fixS,2020.1.2,MacIntel,60,,,,,,,,,,,,,,,,,,2,5.9912,,0,0,32,32,39,1,stimuli/stim_20210706_power2amp/equal_lnn_AM2.4Hz_s35_11.m4a,,,,,,,,,,,,
,,,,,,,,,,,,41496,2021-09-28_20h08.16.829,judgeSpeechMusic_20210921_logNormShiftAmp_detection_fixS,2020.1.2,MacIntel,60,,,,,,,,,,,,,,,,,,1,7.3753,,0,0,33,33,60,1,stimuli/stim_20210706_power2amp/equal_lnn_AM4.2Hz_s35_9.m4a,,,,,,,,,,,,
,,,,,,,,,,,,41496,2021-09-28_20h08.16.829,judgeSpeechMusic_20210921_logNormShiftAmp_detection_fixS,2020.1.2,MacIntel,60,,,,,,,,,,,,,,,,,,2,5.9101,,0,0,34,34,3,1,stimuli/stim_20210706_power2amp/equal_lnn_AM0.6Hz_s35_39.m4a,,,,,,,,,,,,
,,,,,,,,,,,,41496,2021-09-28_20h08.16.829,judgeSpeechMusic_20210921_logNormShiftAmp_detection_fixS,2020.1.2,MacIntel,60,,,,,,,,,,,,,,,,,,1,6.145,,0,0,35,35,63,1,stimuli/stim_20210706_power2amp/equal_lnn_AM4.2Hz_s35_41.m4a,,,,,,,,,,,,
,,,,,,,,,,,,41496,2021-09-28_20h08.16.829,judgeSpeechMusic_20210921_logNormShiftAmp_detection_fixS,2020.1.2,MacIntel,60,,,,,,,,,,,,,,,,,,1,5.9584,,0,0,36,36,45,1,stimuli/stim_20210706_power2amp/equal_lnn_AM3.6Hz_s35_31.m4a,,,,,,,,,,,,
,,,,,,,,,,,,41496,2021-09-28_20h08.16.829,judgeSpeechMusic_20210921_logNormShiftAmp_detection_fixS,2020.1.2,MacIntel,60,,,,,,,,,,,,,,,,,,1,5.979,,0,0,37,37,70,1,stimuli/stim_20210706_power2amp/equal_lnn_AM4.2Hz_s35_42.m4a,,,,,,,,,,,,
,,,,,,,,,,,,41496,2021-09-28_20h08.16.829,judgeSpeechMusic_20210921_logNormShiftAmp_detection_fixS,2020.1.2,MacIntel,60,,,,,,,,,,,,,,,,,,1,6.8459,,0,0,38,38,55,1,stimuli/stim_20210706_power2amp/equal_lnn_AM3.6Hz_s35_41.m4a,,,,,,,,,,,,
,,,,,,,,,,,,41496,2021-09-28_20h08.16.829,judgeSpeechMusic_20210921_logNormShiftAmp_detection_fixS,2020.1.2,MacIntel,60,,,,,,,,,,,,,,,,,,1,5.8242,,0,0,39,39,62,1,stimuli/stim_20210706_power2amp/equal_lnn_AM4.2Hz_s35_47.m4a,,,,,,,,,,,,
,,,,,,,,,,,,41496,2021-09-28_20h08.16.829,judgeSpeechMusic_20210921_logNormShiftAmp_detection_fixS,2020.1.2,MacIntel,60,,,,,,,,,,,,,,,,,,1,6.2777,,0,0,40,40,68,1,stimuli/stim_20210706_power2amp/equal_lnn_AM4.2Hz_s35_48.m4a,,,,,,,,,,,,
,,,,,,,,,,,,41496,2021-09-28_20h08.16.829,judgeSpeechMusic_20210921_logNormShiftAmp_detection_fixS,2020.1.2,MacIntel,60,,,,,,,,,,,,,,,,,,2,6.3116,2,1,0,41,41,64,1,stimuli/stim_20210706_power2amp/equal_lnn_AM4.2Hz_s35_46.m4a,1.3472,,,,,,,,,,,
,,,,,,,,,,,,41496,2021-09-28_20h08.16.829,judgeSpeechMusic_20210921_logNormShiftAmp_detection_fixS,2020.1.2,MacIntel,60,,,,,,,,,,,,,,,,,,1,9.5263,,0,0,42,42,34,1,stimuli/stim_20210706_power2amp/equal_lnn_AM2.4Hz_s35_16.m4a,,,,,,,,,,,,
,,,,,,,,,,,,41496,2021-09-28_20h08.16.829,judgeSpeechMusic_20210921_logNormShiftAmp_detection_fixS,2020.1.2,MacIntel,60,,,,,,,,,,,,,,,,,,1,6.3274,,0,0,43,43,12,1,stimuli/stim_20210706_power2amp/equal_lnn_AM0.6Hz_s35_31.m4a,,,,,,,,,,,,
,,,,,,,,,,,,41496,2021-09-28_20h08.16.829,judgeSpeechMusic_20210921_logNormShiftAmp_detection_fixS,2020.1.2,MacIntel,60,,,,,,,,,,,,,,,,,,2,5.7902,,0,0,44,44,44,1,stimuli/stim_20210706_power2amp/equal_lnn_AM2.4Hz_s35_10.m4a,,,,,,,,,,,,
,,,,,,,,,,,,41496,2021-09-28_20h08.16.829,judgeSpeechMusic_20210921_logNormShiftAmp_detection_fixS,2020.1.2,MacIntel,60,,,,,,,,,,,,,,,,,,2,6.4607,,0,0,45,45,69,1,stimuli/stim_20210706_power2amp/equal_lnn_AM4.2Hz_s35_10.m4a,,,,,,,,,,,,
,,,,,,,,,,,,41496,2021-09-28_20h08.16.829,judgeSpeechMusic_20210921_logNormShiftAmp_detection_fixS,2020.1.2,MacIntel,60,,,,,,,,,,,,,,,,,,2,5.943,,0,0,46,46,29,1,stimuli/stim_20210706_power2amp/equal_lnn_AM1.2Hz_s35_22.m4a,,,,,,,,,,,,
,,,,,,,,,,,,41496,2021-09-28_20h08.16.829,judgeSpeechMusic_20210921_logNormShiftAmp_detection_fixS,2020.1.2,MacIntel,60,,,,,,,,,,,,,,,,,,2,6.1613,,0,0,47,47,1,1,stimuli/stim_20210706_power2amp/equal_lnn_AM0.6Hz_s35_33.m4a,,,,,,,,,,,,
,,,,,,,,,,,,41496,2021-09-28_20h08.16.829,judgeSpeechMusic_20210921_logNormShiftAmp_detection_fixS,2020.1.2,MacIntel,60,,,,,,,,,,,,,,,,,,1,6.3578,,0,0,48,48,43,1,stimuli/stim_20210706_power2amp/equal_lnn_AM2.4Hz_s35_46.m4a,,,,,,,,,,,,
,,,,,,,,,,,,41496,2021-09-28_20h08.16.829,judgeSpeechMusic_20210921_logNormShiftAmp_detection_fixS,2020.1.2,MacIntel,60,,,,,,,,,,,,,,,,,,2,6.4103,,0,0,49,49,40,1,stimuli/stim_20210706_power2amp/equal_lnn_AM2.4Hz_s35_40.m4a,,,,,,,,,,,,
,,,,,,,,,,,,41496,2021-09-28_20h08.16.829,judgeSpeechMusic_20210921_logNormShiftAmp_detection_fixS,2020.1.2,MacIntel,60,,,,,,,,,,,,,,,,,,1,6.3786,,0,0,50,50,46,1,stimuli/stim_20210706_power2amp/equal_lnn_AM3.6Hz_s35_7.m4a,,,,,,,,,,,,
,,,,,,,,,,,,41496,2021-09-28_20h08.16.829,judgeSpeechMusic_20210921_logNormShiftAmp_detection_fixS,2020.1.2,MacIntel,60,,,,,,,,,,,,,,,,,,2,7.076,,0,0,51,51,26,1,stimuli/stim_20210706_power2amp/equal_lnn_AM1.2Hz_s35_28.m4a,,,,,,,,,,,,
,,,,,,,,,,,,41496,2021-09-28_20h08.16.829,judgeSpeechMusic_20210921_logNormShiftAmp_detection_fixS,2020.1.2,MacIntel,60,,,,,,,,,,,,,,,,,,2,6.2805,,0,0,52,52,30,1,stimuli/stim_20210706_power2amp/equal_lnn_AM2.4Hz_s35_35.m4a,,,,,,,,,,,,
,,,,,,,,,,,,41496,2021-09-28_20h08.16.829,judgeSpeechMusic_20210921_logNormShiftAmp_detection_fixS,2020.1.2,MacIntel,60,,,,,,,,,,,,,,,,,,2,6.3315,,0,0,53,53,21,1,stimuli/stim_20210706_power2amp/equal_lnn_AM1.2Hz_s35_6.m4a,,,,,,,,,,,,
,,,,,,,,,,,,41496,2021-09-28_20h08.16.829,judgeSpeechMusic_20210921_logNormShiftAmp_detection_fixS,2020.1.2,MacIntel,60,,,,,,,,,,,,,,,,,,2,6.188,,0,0,54,54,31,1,stimuli/stim_20210706_power2amp/equal_lnn_AM2.4Hz_s35_24.m4a,,,,,,,,,,,,
,,,,,,,,,,,,41496,2021-09-28_20h08.16.829,judgeSpeechMusic_20210921_logNormShiftAmp_detection_fixS,2020.1.2,MacIntel,60,,,,,,,,,,,,,,,,,,1,6.2775,,0,0,55,55,32,1,stimuli/stim_20210706_power2amp/equal_lnn_AM2.4Hz_s35_34.m4a,,,,,,,,,,,,
,,,,,,,,,,,,41496,2021-09-28_20h08.16.829,judgeSpeechMusic_20210921_logNormShiftAmp_detection_fixS,2020.1.2,MacIntel,60,,,,,,,,,,,,,,,,,,1,6.4078,,0,0,56,56,25,1,stimuli/stim_20210706_power2amp/equal_lnn_AM1.2Hz_s35_42.m4a,,,,,,,,,,,,
,,,,,,,,,,,,41496,2021-09-28_20h08.16.829,judgeSpeechMusic_20210921_logNormShiftAmp_detection_fixS,2020.1.2,MacIntel,60,,,,,,,,,,,,,,,,,,1,6.4086,,0,0,57,57,22,1,stimuli/stim_20210706_power2amp/equal_lnn_AM1.2Hz_s35_1.m4a,,,,,,,,,,,,
,,,,,,,,,,,,41496,2021-09-28_20h08.16.829,judgeSpeechMusic_20210921_logNormShiftAmp_detection_fixS,2020.1.2,MacIntel,60,,,,,,,,,,,,,,,,,,2,6.146,,0,0,58,58,20,1,stimuli/stim_20210706_power2amp/equal_lnn_AM1.2Hz_s35_26.m4a,,,,,,,,,,,,
,,,,,,,,,,,,41496,2021-09-28_20h08.16.829,judgeSpeechMusic_20210921_logNormShiftAmp_detection_fixS,2020.1.2,MacIntel,60,,,,,,,,,,,,,,,,,,1,6.8582,,0,0,59,59,53,1,stimuli/stim_20210706_power2amp/equal_lnn_AM3.6Hz_s35_47.m4a,,,,,,,,,,,,
,,,,,,,,,,,,41496,2021-09-28_20h08.16.829,judgeSpeechMusic_20210921_logNormShiftAmp_detection_fixS,2020.1.2,MacIntel,60,,,,,,,,,,,,,,,,,,1,7.1301,,0,0,60,60,33,1,stimuli/stim_20210706_power2amp/equal_lnn_AM2.4Hz_s35_39.m4a,,,,,,,,,,,,
,,,,,,,,,,,,41496,2021-09-28_20h08.16.829,judgeSpeechMusic_20210921_logNormShiftAmp_detection_fixS,2020.1.2,MacIntel,60,,,,,,,,,,,,,,,,,,1,6.8272,,0,0,61,61,23,1,stimuli/stim_20210706_power2amp/equal_lnn_AM1.2Hz_s35_37.m4a,,,,,,,,,,,,
,,,,,,,,,,,,41496,2021-09-28_20h08.16.829,judgeSpeechMusic_20210921_logNormShiftAmp_detection_fixS,2020.1.2,MacIntel,60,,,,,,,,,,,,,,,,,,2,7.1265,,0,0,62,62,8,1,stimuli/stim_20210706_power2amp/equal_lnn_AM0.6Hz_s35_26.m4a,,,,,,,,,,,,
,,,,,,,,,,,,41496,2021-09-28_20h08.16.829,judgeSpeechMusic_20210921_logNormShiftAmp_detection_fixS,2020.1.2,MacIntel,60,,,,,,,,,,,,,,,,,,1,5.7961,1,1,0,63,63,74,1,stimuli/stim_20210706_power2amp/equal_lnn_AM4.2Hz_s35_24.m4a,0.4989,,,,,,,,,,,
,,,,,,,,,,,,41496,2021-09-28_20h08.16.829,judgeSpeechMusic_20210921_logNormShiftAmp_detection_fixS,2020.1.2,MacIntel,60,,,,,,,,,,,,,,,,,,1,6.8991,,0,0,64,64,37,1,stimuli/stim_20210706_power2amp/equal_lnn_AM2.4Hz_s35_33.m4a,,,,,,,,,,,,
,,,,,,,,,,,,41496,2021-09-28_20h08.16.829,judgeSpeechMusic_20210921_logNormShiftAmp_detection_fixS,2020.1.2,MacIntel,60,,,,,,,,,,,,,,,,,,2,7.0728,,0,0,65,65,28,1,stimuli/stim_20210706_power2amp/equal_lnn_AM1.2Hz_s35_43.m4a,,,,,,,,,,,,
,,,,,,,,,,,,41496,2021-09-28_20h08.16.829,judgeSpeechMusic_20210921_logNormShiftAmp_detection_fixS,2020.1.2,MacIntel,60,,,,,,,,,,,,,,,,,,2,6.1266,,0,0,66,66,49,1,stimuli/stim_20210706_power2amp/equal_lnn_AM3.6Hz_s35_23.m4a,,,,,,,,,,,,
,,,,,,,,,,,,41496,2021-09-28_20h08.16.829,judgeSpeechMusic_20210921_logNormShiftAmp_detection_fixS,2020.1.2,MacIntel,60,,,,,,,,,,,,,,,,,,1,6.2614,,0,0,67,67,67,1,stimuli/stim_20210706_power2amp/equal_lnn_AM4.2Hz_s35_23.m4a,,,,,,,,,,,,
,,,,,,,,,,,,41496,2021-09-28_20h08.16.829,judgeSpeechMusic_20210921_logNormShiftAmp_detection_fixS,2020.1.2,MacIntel,60,,,,,,,,,,,,,,,,,,1,7.227,,0,0,68,68,19,1,stimuli/stim_20210706_power2amp/equal_lnn_AM1.2Hz_s35_35.m4a,,,,,,,,,,,,
,,,,,,,,,,,,41496,2021-09-28_20h08.16.829,judgeSpeechMusic_20210921_logNormShiftAmp_detection_fixS,2020.1.2,MacIntel,60,,,,,,,,,,,,,,,,,,1,6.8257,,0,0,69,69,27,1,stimuli/stim_20210706_power2amp/equal_lnn_AM1.2Hz_s35_40.m4a,,,,,,,,,,,,
,,,,,,,,,,,,41496,2021-09-28_20h08.16.829,judgeSpeechMusic_20210921_logNormShiftAmp_detection_fixS,2020.1.2,MacIntel,60,,,,,,,,,,,,,,,,,,1,6.6429,,0,0,70,70,61,1,stimuli/stim_20210706_power2amp/equal_lnn_AM4.2Hz_s35_7.m4a,,,,,,,,,,,,
,,,,,,,,,,,,41496,2021-09-28_20h08.16.829,judgeSpeechMusic_20210921_logNormShiftAmp_detection_fixS,2020.1.2,MacIntel,60,,,,,,,,,,,,,,,,,,1,6.6752,,0,0,71,71,41,1,stimuli/stim_20210706_power2amp/equal_lnn_AM2.4Hz_s35_18.m4a,,,,,,,,,,,,
,,,,,,,,,,,,41496,2021-09-28_20h08.16.829,judgeSpeechMusic_20210921_logNormShiftAmp_detection_fixS,2020.1.2,MacIntel,60,,,,,,,,,,,,,,,,,,2,7.9579,,0,0,72,72,11,1,stimuli/stim_20210706_power2amp/equal_lnn_AM0.6Hz_s35_14.m4a,,,,,,,,,,,,
,,,,,,,,,,,,41496,2021-09-28_20h08.16.829,judgeSpeechMusic_20210921_logNormShiftAmp_detection_fixS,2020.1.2,MacIntel,60,,,,,,,,,,,,,,,,,,1,8.0085,,0,0,73,73,59,1,stimuli/stim_20210706_power2amp/equal_lnn_AM3.6Hz_s35_12.m4a,,,,,,,,,,,,
,,,,,,,,,,,,41496,2021-09-28_20h08.16.829,judgeSpeechMusic_20210921_logNormShiftAmp_detection_fixS,2020.1.2,MacIntel,60,,,,,,,,,,,,,,,,,,1,5.9936,,0,0,74,74,0,1,stimuli/stim_20210706_power2amp/equal_lnn_AM0.6Hz_s35_10.m4a,,,,,,,,,,,,
,,,,,,,,,,,,41496,2021-09-28_20h08.16.829,judgeSpeechMusic_20210921_logNormShiftAmp_detection_fixS,2020.1.2,MacIntel,60,,,,,,,,,,,,,,,,,,,,,,,,,,,,,space,0.5151,0,1,1,0,1,MUSIC,stimuli/MUSIC.jpg,,
,,,,,,,,,,,,41496,2021-09-28_20h08.16.829,judgeSpeechMusic_20210921_logNormShiftAmp_detection_fixS,2020.1.2,MacIntel,60,,,,,,0,0,0,0,0,1,stimuli/stim_20210706_power2amp/equal_lnn_AM_training0.9Hz_s35.m4a,,,,,,,,,,,,,,,,,,,,,,,,,,,
,,,,,,,,,,,,41496,2021-09-28_20h08.16.829,judgeSpeechMusic_20210921_logNormShiftAmp_detection_fixS,2020.1.2,MacIntel,60,,,,,,,,,,,,,,space,0.9494,space,0.383,2,6.6259,,0,0,0,0,53,1,stimuli/stim_20210706_power2amp/equal_lnn_AM3.6Hz_s35_47.m4a,,,,,,,,,,,,
,,,,,,,,,,,,41496,2021-09-28_20h08.16.829,judgeSpeechMusic_20210921_logNormShiftAmp_detection_fixS,2020.1.2,MacIntel,60,,,,,,,,,,,,,,,,,,2,5.8447,,0,0,1,1,31,1,stimuli/stim_20210706_power2amp/equal_lnn_AM2.4Hz_s35_24.m4a,,,,,,,,,,,,
,,,,,,,,,,,,41496,2021-09-28_20h08.16.829,judgeSpeechMusic_20210921_logNormShiftAmp_detection_fixS,2020.1.2,MacIntel,60,,,,,,,,,,,,,,,,,,1,6.6431,,0,0,2,2,11,1,stimuli/stim_20210706_power2amp/equal_lnn_AM0.6Hz_s35_14.m4a,,,,,,,,,,,,
,,,,,,,,,,,,41496,2021-09-28_20h08.16.829,judgeSpeechMusic_20210921_logNormShiftAmp_detection_fixS,2020.1.2,MacIntel,60,,,,,,,,,,,,,,,,,,2,5.7578,,0,0,3,3,50,1,stimuli/stim_20210706_power2amp/equal_lnn_AM3.6Hz_s35_27.m4a,,,,,,,,,,,,
,,,,,,,,,,,,41496,2021-09-28_20h08.16.829,judgeSpeechMusic_20210921_logNormShiftAmp_detection_fixS,2020.1.2,MacIntel,60,,,,,,,,,,,,,,,,,,1,6.6456,,0,0,4,4,49,1,stimuli/stim_20210706_power2amp/equal_lnn_AM3.6Hz_s35_23.m4a,,,,,,,,,,,,
,,,,,,,,,,,,41496,2021-09-28_20h08.16.829,judgeSpeechMusic_20210921_logNormShiftAmp_detection_fixS,2020.1.2,MacIntel,60,,,,,,,,,,,,,,,,,,1,8.3181,,0,0,5,5,45,1,stimuli/stim_20210706_power2amp/equal_lnn_AM3.6Hz_s35_31.m4a,,,,,,,,,,,,
,,,,,,,,,,,,41496,2021-09-28_20h08.16.829,judgeSpeechMusic_20210921_logNormShiftAmp_detection_fixS,2020.1.2,MacIntel,60,,,,,,,,,,,,,,,,,,2,6.5655,,0,0,6,6,28,1,stimuli/stim_20210706_power2amp/equal_lnn_AM1.2Hz_s35_43.m4a,,,,,,,,,,,,
,,,,,,,,,,,,41496,2021-09-28_20h08.16.829,judgeSpeechMusic_20210921_logNormShiftAmp_detection_fixS,2020.1.2,MacIntel,60,,,,,,,,,,,,,,,,,,1,6.7715,,0,0,7,7,26,1,stimuli/stim_20210706_power2amp/equal_lnn_AM1.2Hz_s35_28.m4a,,,,,,,,,,,,
,,,,,,,,,,,,41496,2021-09-28_20h08.16.829,judgeSpeechMusic_20210921_logNormShiftAmp_detection_fixS,2020.1.2,MacIntel,60,,,,,,,,,,,,,,,,,,2,5.7673,,0,0,8,8,13,1,stimuli/stim_20210706_power2amp/equal_lnn_AM0.6Hz_s35_17.m4a,,,,,,,,,,,,
,,,,,,,,,,,,41496,2021-09-28_20h08.16.829,judgeSpeechMusic_20210921_logNormShiftAmp_detection_fixS,2020.1.2,MacIntel,60,,,,,,,,,,,,,,,,,,1,5.6284,,0,0,9,9,62,1,stimuli/stim_20210706_power2amp/equal_lnn_AM4.2Hz_s35_47.m4a,,,,,,,,,,,,
,,,,,,,,,,,,41496,2021-09-28_20h08.16.829,judgeSpeechMusic_20210921_logNormShiftAmp_detection_fixS,2020.1.2,MacIntel,60,,,,,,,,,,,,,,,,,,2,6.164,,0,0,10,10,9,1,stimuli/stim_20210706_power2amp/equal_lnn_AM0.6Hz_s35_6.m4a,,,,,,,,,,,,
,,,,,,,,,,,,41496,2021-09-28_20h08.16.829,judgeSpeechMusic_20210921_logNormShiftAmp_detection_fixS,2020.1.2,MacIntel,60,,,,,,,,,,,,,,,,,,2,7.8098,,0,0,11,11,19,1,stimuli/stim_20210706_power2amp/equal_lnn_AM1.2Hz_s35_35.m4a,,,,,,,,,,,,
,,,,,,,,,,,,41496,2021-09-28_20h08.16.829,judgeSpeechMusic_20210921_logNormShiftAmp_detection_fixS,2020.1.2,MacIntel,60,,,,,,,,,,,,,,,,,,2,6.5428,,0,0,12,12,8,1,stimuli/stim_20210706_power2amp/equal_lnn_AM0.6Hz_s35_26.m4a,,,,,,,,,,,,
,,,,,,,,,,,,41496,2021-09-28_20h08.16.829,judgeSpeechMusic_20210921_logNormShiftAmp_detection_fixS,2020.1.2,MacIntel,60,,,,,,,,,,,,,,,,,,2,6.5606,,0,0,13,13,21,1,stimuli/stim_20210706_power2amp/equal_lnn_AM1.2Hz_s35_6.m4a,,,,,,,,,,,,
,,,,,,,,,,,,41496,2021-09-28_20h08.16.829,judgeSpeechMusic_20210921_logNormShiftAmp_detection_fixS,2020.1.2,MacIntel,60,,,,,,,,,,,,,,,,,,2,5.9423,,0,0,14,14,3,1,stimuli/stim_20210706_power2amp/equal_lnn_AM0.6Hz_s35_39.m4a,,,,,,,,,,,,
,,,,,,,,,,,,41496,2021-09-28_20h08.16.829,judgeSpeechMusic_20210921_logNormShiftAmp_detection_fixS,2020.1.2,MacIntel,60,,,,,,,,,,,,,,,,,,2,6.3765,,0,0,15,15,59,1,stimuli/stim_20210706_power2amp/equal_lnn_AM3.6Hz_s35_12.m4a,,,,,,,,,,,,
,,,,,,,,,,,,41496,2021-09-28_20h08.16.829,judgeSpeechMusic_20210921_logNormShiftAmp_detection_fixS,2020.1.2,MacIntel,60,,,,,,,,,,,,,,,,,,1,6.5942,,0,0,16,16,69,1,stimuli/stim_20210706_power2amp/equal_lnn_AM4.2Hz_s35_10.m4a,,,,,,,,,,,,
,,,,,,,,,,,,41496,2021-09-28_20h08.16.829,judgeSpeechMusic_20210921_logNormShiftAmp_detection_fixS,2020.1.2,MacIntel,60,,,,,,,,,,,,,,,,,,1,6.891,,0,0,17,17,15,1,stimuli/stim_20210706_power2amp/equal_lnn_AM1.2Hz_s35_34.m4a,,,,,,,,,,,,
,,,,,,,,,,,,41496,2021-09-28_20h08.16.829,judgeSpeechMusic_20210921_logNormShiftAmp_detection_fixS,2020.1.2,MacIntel,60,,,,,,,,,,,,,,,,,,1,6.7267,,0,0,18,18,71,1,stimuli/stim_20210706_power2amp/equal_lnn_AM4.2Hz_s35_28.m4a,,,,,,,,,,,,
,,,,,,,,,,,,41496,2021-09-28_20h08.16.829,judgeSpeechMusic_20210921_logNormShiftAmp_detection_fixS,2020.1.2,MacIntel,60,,,,,,,,,,,,,,,,,,1,8.7601,,0,0,19,19,52,1,stimuli/stim_20210706_power2amp/equal_lnn_AM3.6Hz_s35_24.m4a,,,,,,,,,,,,
,,,,,,,,,,,,41496,2021-09-28_20h08.16.829,judgeSpeechMusic_20210921_logNormShiftAmp_detection_fixS,2020.1.2,MacIntel,60,,,,,,,,,,,,,,,,,,1,6.1655,,0,0,20,20,68,1,stimuli/stim_20210706_power2amp/equal_lnn_AM4.2Hz_s35_48.m4a,,,,,,,,,,,,
,,,,,,,,,,,,41496,2021-09-28_20h08.16.829,judgeSpeechMusic_20210921_logNormShiftAmp_detection_fixS,2020.1.2,MacIntel,60,,,,,,,,,,,,,,,,,,1,6.5247,3,1,0,21,21,61,1,stimuli/stim_20210706_power2amp/equal_lnn_AM4.2Hz_s35_7.m4a,1.1628,,,,,,,,,,,
,,,,,,,,,,,,41496,2021-09-28_20h08.16.829,judgeSpeechMusic_20210921_logNormShiftAmp_detection_fixS,2020.1.2,MacIntel,60,,,,,,,,,,,,,,,,,,2,6.0927,,0,0,22,22,42,1,stimuli/stim_20210706_power2amp/equal_lnn_AM2.4Hz_s35_4.m4a,,,,,,,,,,,,
,,,,,,,,,,,,41496,2021-09-28_20h08.16.829,judgeSpeechMusic_20210921_logNormShiftAmp_detection_fixS,2020.1.2,MacIntel,60,,,,,,,,,,,,,,,,,,1,7.2585,,0,0,23,23,60,1,stimuli/stim_20210706_power2amp/equal_lnn_AM4.2Hz_s35_9.m4a,,,,,,,,,,,,
,,,,,,,,,,,,41496,2021-09-28_20h08.16.829,judgeSpeechMusic_20210921_logNormShiftAmp_detection_fixS,2020.1.2,MacIntel,60,,,,,,,,,,,,,,,,,,2,6.494,,0,0,24,24,7,1,stimuli/stim_20210706_power2amp/equal_lnn_AM0.6Hz_s35_7.m4a,,,,,,,,,,,,
,,,,,,,,,,,,41496,2021-09-28_20h08.16.829,judgeSpeechMusic_20210921_logNormShiftAmp_detection_fixS,2020.1.2,MacIntel,60,,,,,,,,,,,,,,,,,,1,6.9109,,0,0,25,25,2,1,stimuli/stim_20210706_power2amp/equal_lnn_AM0.6Hz_s35_3.m4a,,,,,,,,,,,,
,,,,,,,,,,,,41496,2021-09-28_20h08.16.829,judgeSpeechMusic_20210921_logNormShiftAmp_detection_fixS,2020.1.2,MacIntel,60,,,,,,,,,,,,,,,,,,1,6.6069,,0,0,26,26,73,1,stimuli/stim_20210706_power2amp/equal_lnn_AM4.2Hz_s35_22.m4a,,,,,,,,,,,,
,,,,,,,,,,,,41496,2021-09-28_20h08.16.829,judgeSpeechMusic_20210921_logNormShiftAmp_detection_fixS,2020.1.2,MacIntel,60,,,,,,,,,,,,,,,,,,1,12.8089,,0,0,27,27,5,1,stimuli/stim_20210706_power2amp/equal_lnn_AM0.6Hz_s35_30.m4a,,,,,,,,,,,,
,,,,,,,,,,,,41496,2021-09-28_20h08.16.829,judgeSpeechMusic_20210921_logNormShiftAmp_detection_fixS,2020.1.2,MacIntel,60,,,,,,,,,,,,,,,,,,1,7.8461,,0,0,28,28,47,1,stimuli/stim_20210706_power2amp/equal_lnn_AM3.6Hz_s35_19.m4a,,,,,,,,,,,,
,,,,,,,,,,,,41496,2021-09-28_20h08.16.829,judgeSpeechMusic_20210921_logNormShiftAmp_detection_fixS,2020.1.2,MacIntel,60,,,,,,,,,,,,,,,,,,2,6.6865,,0,0,29,29,25,1,stimuli/stim_20210706_power2amp/equal_lnn_AM1.2Hz_s35_42.m4a,,,,,,,,,,,,
,,,,,,,,,,,,41496,2021-09-28_20h08.16.829,judgeSpeechMusic_20210921_logNormShiftAmp_detection_fixS,2020.1.2,MacIntel,60,,,,,,,,,,,,,,,,,,2,6.8654,,0,0,30,30,1,1,stimuli/stim_20210706_power2amp/equal_lnn_AM0.6Hz_s35_33.m4a,,,,,,,,,,,,
,,,,,,,,,,,,41496,2021-09-28_20h08.16.829,judgeSpeechMusic_20210921_logNormShiftAmp_detection_fixS,2020.1.2,MacIntel,60,,,,,,,,,,,,,,,,,,1,11.409,,0,0,31,31,44,1,stimuli/stim_20210706_power2amp/equal_lnn_AM2.4Hz_s35_10.m4a,,,,,,,,,,,,
,,,,,,,,,,,,41496,2021-09-28_20h08.16.829,judgeSpeechMusic_20210921_logNormShiftAmp_detection_fixS,2020.1.2,MacIntel,60,,,,,,,,,,,,,,,,,,1,5.9782,,0,0,32,32,72,1,stimuli/stim_20210706_power2amp/equal_lnn_AM4.2Hz_s35_14.m4a,,,,,,,,,,,,
,,,,,,,,,,,,41496,2021-09-28_20h08.16.829,judgeSpeechMusic_20210921_logNormShiftAmp_detection_fixS,2020.1.2,MacIntel,60,,,,,,,,,,,,,,,,,,1,6.5935,,0,0,33,33,58,1,stimuli/stim_20210706_power2amp/equal_lnn_AM3.6Hz_s35_17.m4a,,,,,,,,,,,,
,,,,,,,,,,,,41496,2021-09-28_20h08.16.829,judgeSpeechMusic_20210921_logNormShiftAmp_detection_fixS,2020.1.2,MacIntel,60,,,,,,,,,,,,,,,,,,2,5.9584,,0,0,34,34,23,1,stimuli/stim_20210706_power2amp/equal_lnn_AM1.2Hz_s35_37.m4a,,,,,,,,,,,,
,,,,,,,,,,,,41496,2021-09-28_20h08.16.829,judgeSpeechMusic_20210921_logNormShiftAmp_detection_fixS,2020.1.2,MacIntel,60,,,,,,,,,,,,,,,,,,2,6.4083,,0,0,35,35,40,1,stimuli/stim_20210706_power2amp/equal_lnn_AM2.4Hz_s35_40.m4a,,,,,,,,,,,,
,,,,,,,,,,,,41496,2021-09-28_20h08.16.829,judgeSpeechMusic_20210921_logNormShiftAmp_detection_fixS,2020.1.2,MacIntel,60,,,,,,,,,,,,,,,,,,1,5.7286,,0,0,36,36,70,1,stimuli/stim_20210706_power2amp/equal_lnn_AM4.2Hz_s35_42.m4a,,,,,,,,,,,,
,,,,,,,,,,,,41496,2021-09-28_20h08.16.829,judgeSpeechMusic_20210921_logNormShiftAmp_detection_fixS,2020.1.2,MacIntel,60,,,,,,,,,,,,,,,,,,1,6.7422,,0,0,37,37,74,1,stimuli/stim_20210706_power2amp/equal_lnn_AM4.2Hz_s35_24.m4a,,,,,,,,,,,,
,,,,,,,,,,,,41496,2021-09-28_20h08.16.829,judgeSpeechMusic_20210921_logNormShiftAmp_detection_fixS,2020.1.2,MacIntel,60,,,,,,,,,,,,,,,,,,2,7.0753,,0,0,38,38,16,1,stimuli/stim_20210706_power2amp/equal_lnn_AM1.2Hz_s35_7.m4a,,,,,,,,,,,,
,,,,,,,,,,,,41496,2021-09-28_20h08.16.829,judgeSpeechMusic_20210921_logNormShiftAmp_detection_fixS,2020.1.2,MacIntel,60,,,,,,,,,,,,,,,,,,2,8.5759,,0,0,39,39,22,1,stimuli/stim_20210706_power2amp/equal_lnn_AM1.2Hz_s35_1.m4a,,,,,,,,,,,,
,,,,,,,,,,,,41496,2021-09-28_20h08.16.829,judgeSpeechMusic_20210921_logNormShiftAmp_detection_fixS,2020.1.2,MacIntel,60,,,,,,,,,,,,,,,,,,1,7.3296,,0,0,40,40,46,1,stimuli/stim_20210706_power2amp/equal_lnn_AM3.6Hz_s35_7.m4a,,,,,,,,,,,,
,,,,,,,,,,,,41496,2021-09-28_20h08.16.829,judgeSpeechMusic_20210921_logNormShiftAmp_detection_fixS,2020.1.2,MacIntel,60,,,,,,,,,,,,,,,,,,1,6.0935,1,1,0,41,41,57,1,stimuli/stim_20210706_power2amp/equal_lnn_AM3.6Hz_s35_39.m4a,0.8473,,,,,,,,,,,
,,,,,,,,,,,,41496,2021-09-28_20h08.16.829,judgeSpeechMusic_20210921_logNormShiftAmp_detection_fixS,2020.1.2,MacIntel,60,,,,,,,,,,,,,,,,,,2,6.727,,0,0,42,42,27,1,stimuli/stim_20210706_power2amp/equal_lnn_AM1.2Hz_s35_40.m4a,,,,,,,,,,,,
,,,,,,,,,,,,41496,2021-09-28_20h08.16.829,judgeSpeechMusic_20210921_logNormShiftAmp_detection_fixS,2020.1.2,MacIntel,60,,,,,,,,,,,,,,,,,,2,6.175,,0,0,43,43,30,1,stimuli/stim_20210706_power2amp/equal_lnn_AM2.4Hz_s35_35.m4a,,,,,,,,,,,,
,,,,,,,,,,,,41496,2021-09-28_20h08.16.829,judgeSpeechMusic_20210921_logNormShiftAmp_detection_fixS,2020.1.2,MacIntel,60,,,,,,,,,,,,,,,,,,1,6.0282,,0,0,44,44,10,1,stimuli/stim_20210706_power2amp/equal_lnn_AM0.6Hz_s35_42.m4a,,,,,,,,,,,,
,,,,,,,,,,,,41496,2021-09-28_20h08.16.829,judgeSpeechMusic_20210921_logNormShiftAmp_detection_fixS,2020.1.2,MacIntel,60,,,,,,,,,,,,,,,,,,1,6.0435,,0,0,45,45,39,1,stimuli/stim_20210706_power2amp/equal_lnn_AM2.4Hz_s35_11.m4a,,,,,,,,,,,,
,,,,,,,,,,,,41496,2021-09-28_20h08.16.829,judgeSpeechMusic_20210921_logNormShiftAmp_detection_fixS,2020.1.2,MacIntel,60,,,,,,,,,,,,,,,,,,1,7.0605,,0,0,46,46,43,1,stimuli/stim_20210706_power2amp/equal_lnn_AM2.4Hz_s35_46.m4a,,,,,,,,,,,,
,,,,,,,,,,,,41496,2021-09-28_20h08.16.829,judgeSpeechMusic_20210921_logNormShiftAmp_detection_fixS,2020.1.2,MacIntel,60,,,,,,,,,,,,,,,,,,1,6.7252,,0,0,47,47,17,1,stimuli/stim_20210706_power2amp/equal_lnn_AM1.2Hz_s35_30.m4a,,,,,,,,,,,,
,,,,,,,,,,,,41496,2021-09-28_20h08.16.829,judgeSpeechMusic_20210921_logNormShiftAmp_detection_fixS,2020.1.2,MacIntel,60,,,,,,,,,,,,,,,,,,1,6.2773,,0,0,48,48,0,1,stimuli/stim_20210706_power2amp/equal_lnn_AM0.6Hz_s35_10.m4a,,,,,,,,,,,,
,,,,,,,,,,,,41496,2021-09-28_20h08.16.829,judgeSpeechMusic_20210921_logNormShiftAmp_detection_fixS,2020.1.2,MacIntel,60,,,,,,,,,,,,,,,,,,2,8.0761,,0,0,49,49,48,1,stimuli/stim_20210706_power2amp/equal_lnn_AM3.6Hz_s35_34.m4a,,,,,,,,,,,,
,,,,,,,,,,,,41496,2021-09-28_20h08.16.829,judgeSpeechMusic_20210921_logNormShiftAmp_detection_fixS,2020.1.2,MacIntel,60,,,,,,,,,,,,,,,,,,1,15.0279,,0,0,50,50,32,1,stimuli/stim_20210706_power2amp/equal_lnn_AM2.4Hz_s35_34.m4a,,,,,,,,,,,,
,,,,,,,,,,,,41496,2021-09-28_20h08.16.829,judgeSpeechMusic_20210921_logNormShiftAmp_detection_fixS,2020.1.2,MacIntel,60,,,,,,,,,,,,,,,,,,1,6.892,,0,0,51,51,51,1,stimuli/stim_20210706_power2amp/equal_lnn_AM3.6Hz_s35_30.m4a,,,,,,,,,,,,
,,,,,,,,,,,,41496,2021-09-28_20h08.16.829,judgeSpeechMusic_20210921_logNormShiftAmp_detection_fixS,2020.1.2,MacIntel,60,,,,,,,,,,,,,,,,,,2,5.6589,,0,0,52,52,20,1,stimuli/stim_20210706_power2amp/equal_lnn_AM1.2Hz_s35_26.m4a,,,,,,,,,,,,
,,,,,,,,,,,,41496,2021-09-28_20h08.16.829,judgeSpeechMusic_20210921_logNormShiftAmp_detection_fixS,2020.1.2,MacIntel,60,,,,,,,,,,,,,,,,,,2,6.2762,,0,0,53,53,6,1,stimuli/stim_20210706_power2amp/equal_lnn_AM0.6Hz_s35_36.m4a,,,,,,,,,,,,
,,,,,,,,,,,,41496,2021-09-28_20h08.16.829,judgeSpeechMusic_20210921_logNormShiftAmp_detection_fixS,2020.1.2,MacIntel,60,,,,,,,,,,,,,,,,,,1,6.7919,,0,0,54,54,29,1,stimuli/stim_20210706_power2amp/equal_lnn_AM1.2Hz_s35_22.m4a,,,,,,,,,,,,
,,,,,,,,,,,,41496,2021-09-28_20h08.16.829,judgeSpeechMusic_20210921_logNormShiftAmp_detection_fixS,2020.1.2,MacIntel,60,,,,,,,,,,,,,,,,,,2,7.6753,,0,0,55,55,36,1,stimuli/stim_20210706_power2amp/equal_lnn_AM2.4Hz_s35_22.m4a,,,,,,,,,,,,
,,,,,,,,,,,,41496,2021-09-28_20h08.16.829,judgeSpeechMusic_20210921_logNormShiftAmp_detection_fixS,2020.1.2,MacIntel,60,,,,,,,,,,,,,,,,,,1,6.8765,,0,0,56,56,54,1,stimuli/stim_20210706_power2amp/equal_lnn_AM3.6Hz_s35_11.m4a,,,,,,,,,,,,
,,,,,,,,,,,,41496,2021-09-28_20h08.16.829,judgeSpeechMusic_20210921_logNormShiftAmp_detection_fixS,2020.1.2,MacIntel,60,,,,,,,,,,,,,,,,,,2,5.7288,,0,0,57,57,24,1,stimuli/stim_20210706_power2amp/equal_lnn_AM1.2Hz_s35_39.m4a,,,,,,,,,,,,
,,,,,,,,,,,,41496,2021-09-28_20h08.16.829,judgeSpeechMusic_20210921_logNormShiftAmp_detection_fixS,2020.1.2,MacIntel,60,,,,,,,,,,,,,,,,,,1,7.0756,,0,0,58,58,56,1,stimuli/stim_20210706_power2amp/equal_lnn_AM3.6Hz_s35_3.m4a,,,,,,,,,,,,
,,,,,,,,,,,,41496,2021-09-28_20h08.16.829,judgeSpeechMusic_20210921_logNormShiftAmp_detection_fixS,2020.1.2,MacIntel,60,,,,,,,,,,,,,,,,,,1,5.9295,,0,0,59,59,66,1,stimuli/stim_20210706_power2amp/equal_lnn_AM4.2Hz_s35_20.m4a,,,,,,,,,,,,
,,,,,,,,,,,,41496,2021-09-28_20h08.16.829,judgeSpeechMusic_20210921_logNormShiftAmp_detection_fixS,2020.1.2,MacIntel,60,,,,,,,,,,,,,,,,,,1,6.3438,,0,0,60,60,67,1,stimuli/stim_20210706_power2amp/equal_lnn_AM4.2Hz_s35_23.m4a,,,,,,,,,,,,
,,,,,,,,,,,,41496,2021-09-28_20h08.16.829,judgeSpeechMusic_20210921_logNormShiftAmp_detection_fixS,2020.1.2,MacIntel,60,,,,,,,,,,,,,,,,,,1,6.6443,,0,0,61,61,14,1,stimuli/stim_20210706_power2amp/equal_lnn_AM0.6Hz_s35_34.m4a,,,,,,,,,,,,
,,,,,,,,,,,,41496,2021-09-28_20h08.16.829,judgeSpeechMusic_20210921_logNormShiftAmp_detection_fixS,2020.1.2,MacIntel,60,,,,,,,,,,,,,,,,,,2,6.9767,,0,0,62,62,34,1,stimuli/stim_20210706_power2amp/equal_lnn_AM2.4Hz_s35_16.m4a,,,,,,,,,,,,
,,,,,,,,,,,,41496,2021-09-28_20h08.16.829,judgeSpeechMusic_20210921_logNormShiftAmp_detection_fixS,2020.1.2,MacIntel,60,,,,,,,,,,,,,,,,,,1,6.3277,4,1,0,63,63,63,1,stimuli/stim_20210706_power2amp/equal_lnn_AM4.2Hz_s35_41.m4a,0.8987,,,,,,,,,,,
,,,,,,,,,,,,41496,2021-09-28_20h08.16.829,judgeSpeechMusic_20210921_logNormShiftAmp_detection_fixS,2020.1.2,MacIntel,60,,,,,,,,,,,,,,,,,,2,7.4096,,0,0,64,64,18,1,stimuli/stim_20210706_power2amp/equal_lnn_AM1.2Hz_s35_3.m4a,,,,,,,,,,,,
,,,,,,,,,,,,41496,2021-09-28_20h08.16.829,judgeSpeechMusic_20210921_logNormShiftAmp_detection_fixS,2020.1.2,MacIntel,60,,,,,,,,,,,,,,,,,,1,6.3737,,0,0,65,65,35,1,stimuli/stim_20210706_power2amp/equal_lnn_AM2.4Hz_s35_14.m4a,,,,,,,,,,,,
,,,,,,,,,,,,41496,2021-09-28_20h08.16.829,judgeSpeechMusic_20210921_logNormShiftAmp_detection_fixS,2020.1.2,MacIntel,60,,,,,,,,,,,,,,,,,,1,6.4281,,0,0,66,66,38,1,stimuli/stim_20210706_power2amp/equal_lnn_AM2.4Hz_s35_31.m4a,,,,,,,,,,,,
,,,,,,,,,,,,41496,2021-09-28_20h08.16.829,judgeSpeechMusic_20210921_logNormShiftAmp_detection_fixS,2020.1.2,MacIntel,60,,,,,,,,,,,,,,,,,,2,6.9095,,0,0,67,67,33,1,stimuli/stim_20210706_power2amp/equal_lnn_AM2.4Hz_s35_39.m4a,,,,,,,,,,,,
,,,,,,,,,,,,41496,2021-09-28_20h08.16.829,judgeSpeechMusic_20210921_logNormShiftAmp_detection_fixS,2020.1.2,MacIntel,60,,,,,,,,,,,,,,,,,,2,6.1598,,0,0,68,68,41,1,stimuli/stim_20210706_power2amp/equal_lnn_AM2.4Hz_s35_18.m4a,,,,,,,,,,,,
,,,,,,,,,,,,41496,2021-09-28_20h08.16.829,judgeSpeechMusic_20210921_logNormShiftAmp_detection_fixS,2020.1.2,MacIntel,60,,,,,,,,,,,,,,,,,,2,5.8783,,0,0,69,69,12,1,stimuli/stim_20210706_power2amp/equal_lnn_AM0.6Hz_s35_31.m4a,,,,,,,,,,,,
,,,,,,,,,,,,41496,2021-09-28_20h08.16.829,judgeSpeechMusic_20210921_logNormShiftAmp_detection_fixS,2020.1.2,MacIntel,60,,,,,,,,,,,,,,,,,,1,6.4271,,0,0,70,70,37,1,stimuli/stim_20210706_power2amp/equal_lnn_AM2.4Hz_s35_33.m4a,,,,,,,,,,,,
,,,,,,,,,,,,41496,2021-09-28_20h08.16.829,judgeSpeechMusic_20210921_logNormShiftAmp_detection_fixS,2020.1.2,MacIntel,60,,,,,,,,,,,,,,,,,,1,6.3931,,0,0,71,71,55,1,stimuli/stim_20210706_power2amp/equal_lnn_AM3.6Hz_s35_41.m4a,,,,,,,,,,,,
,,,,,,,,,,,,41496,2021-09-28_20h08.16.829,judgeSpeechMusic_20210921_logNormShiftAmp_detection_fixS,2020.1.2,MacIntel,60,,,,,,,,,,,,,,,,,,1,5.9745,,0,0,72,72,65,1,stimuli/stim_20210706_power2amp/equal_lnn_AM4.2Hz_s35_31.m4a,,,,,,,,,,,,
,,,,,,,,,,,,41496,2021-09-28_20h08.16.829,judgeSpeechMusic_20210921_logNormShiftAmp_detection_fixS,2020.1.2,MacIntel,60,,,,,,,,,,,,,,,,,,1,6.4092,,0,0,73,73,64,1,stimuli/stim_20210706_power2amp/equal_lnn_AM4.2Hz_s35_46.m4a,,,,,,,,,,,,
,,,,,,,,,,,,41496,2021-09-28_20h08.16.829,judgeSpeechMusic_20210921_logNormShiftAmp_detection_fixS,2020.1.2,MacIntel,60,,,,,,,,,,,,,,,,,,2,5.8951,,0,0,74,74,4,1,stimuli/stim_20210706_power2amp/equal_lnn_AM0.6Hz_s35_13.m4a,,,,,,,,,,,,
,,,,,,,,,,,,41496,2021-09-28_20h08.16.829,judgeSpeechMusic_20210921_logNormShiftAmp_detection_fixS,2020.1.2,MacIntel,60,,,,,,,,,,,,,,,,,,,,,,,,,,,,,space,19.9308,1,0,2,1,1,SPEECH,stimuli/SPEECH.jpg,,
,,,,,,,,,,,,41496,2021-09-28_20h08.16.829,judgeSpeechMusic_20210921_logNormShiftAmp_detection_fixS,2020.1.2,MacIntel,60,,,,,,0,0,0,0,0,1,stimuli/stim_20210706_power2amp/equal_lnn_AM_training0.9Hz_s35.m4a,,,,,,,,,,,,,,,,,,,,,,,,,,,
,,,,,,,,,,,,41496,2021-09-28_20h08.16.829,judgeSpeechMusic_20210921_logNormShiftAmp_detection_fixS,2020.1.2,MacIntel,60,,,,,,,,,,,,,,space,4.3173,space,0.7159,2,6.1583,,0,0,0,0,31,1,stimuli/stim_20210706_power2amp/equal_lnn_AM2.4Hz_s35_24.m4a,,,,,,,,,,,,
,,,,,,,,,,,,41496,2021-09-28_20h08.16.829,judgeSpeechMusic_20210921_logNormShiftAmp_detection_fixS,2020.1.2,MacIntel,60,,,,,,,,,,,,,,,,,,1,6.1434,,0,0,1,1,57,1,stimuli/stim_20210706_power2amp/equal_lnn_AM3.6Hz_s35_39.m4a,,,,,,,,,,,,
,,,,,,,,,,,,41496,2021-09-28_20h08.16.829,judgeSpeechMusic_20210921_logNormShiftAmp_detection_fixS,2020.1.2,MacIntel,60,,,,,,,,,,,,,,,,,,2,6.0448,,0,0,2,2,61,1,stimuli/stim_20210706_power2amp/equal_lnn_AM4.2Hz_s35_7.m4a,,,,,,,,,,,,
,,,,,,,,,,,,41496,2021-09-28_20h08.16.829,judgeSpeechMusic_20210921_logNormShiftAmp_detection_fixS,2020.1.2,MacIntel,60,,,,,,,,,,,,,,,,,,1,6.2927,,0,0,3,3,50,1,stimuli/stim_20210706_power2amp/equal_lnn_AM3.6Hz_s35_27.m4a,,,,,,,,,,,,
,,,,,,,,,,,,41496,2021-09-28_20h08.16.829,judgeSpeechMusic_20210921_logNormShiftAmp_detection_fixS,2020.1.2,MacIntel,60,,,,,,,,,,,,,,,,,,1,6.243,,0,0,4,4,12,1,stimuli/stim_20210706_power2amp/equal_lnn_AM0.6Hz_s35_31.m4a,,,,,,,,,,,,
,,,,,,,,,,,,41496,2021-09-28_20h08.16.829,judgeSpeechMusic_20210921_logNormShiftAmp_detection_fixS,2020.1.2,MacIntel,60,,,,,,,,,,,,,,,,,,1,6.4264,,0,0,5,5,35,1,stimuli/stim_20210706_power2amp/equal_lnn_AM2.4Hz_s35_14.m4a,,,,,,,,,,,,
,,,,,,,,,,,,41496,2021-09-28_20h08.16.829,judgeSpeechMusic_20210921_logNormShiftAmp_detection_fixS,2020.1.2,MacIntel,60,,,,,,,,,,,,,,,,,,1,6.7923,,0,0,6,6,43,1,stimuli/stim_20210706_power2amp/equal_lnn_AM2.4Hz_s35_46.m4a,,,,,,,,,,,,
,,,,,,,,,,,,41496,2021-09-28_20h08.16.829,judgeSpeechMusic_20210921_logNormShiftAmp_detection_fixS,2020.1.2,MacIntel,60,,,,,,,,,,,,,,,,,,1,6.057,,0,0,7,7,70,1,stimuli/stim_20210706_power2amp/equal_lnn_AM4.2Hz_s35_42.m4a,,,,,,,,,,,,
,,,,,,,,,,,,41496,2021-09-28_20h08.16.829,judgeSpeechMusic_20210921_logNormShiftAmp_detection_fixS,2020.1.2,MacIntel,60,,,,,,,,,,,,,,,,,,1,6.0257,,0,0,8,8,73,1,stimuli/stim_20210706_power2amp/equal_lnn_AM4.2Hz_s35_22.m4a,,,,,,,,,,,,
,,,,,,,,,,,,41496,2021-09-28_20h08.16.829,judgeSpeechMusic_20210921_logNormShiftAmp_detection_fixS,2020.1.2,MacIntel,60,,,,,,,,,,,,,,,,,,2,6.1429,,0,0,9,9,74,1,stimuli/stim_20210706_power2amp/equal_lnn_AM4.2Hz_s35_24.m4a,,,,,,,,,,,,
,,,,,,,,,,,,41496,2021-09-28_20h08.16.829,judgeSpeechMusic_20210921_logNormShiftAmp_detection_fixS,2020.1.2,MacIntel,60,,,,,,,,,,,,,,,,,,2,6.1931,,0,0,10,10,11,1,stimuli/stim_20210706_power2amp/equal_lnn_AM0.6Hz_s35_14.m4a,,,,,,,,,,,,
,,,,,,,,,,,,41496,2021-09-28_20h08.16.829,judgeSpeechMusic_20210921_logNormShiftAmp_detection_fixS,2020.1.2,MacIntel,60,,,,,,,,,,,,,,,,,,2,5.8942,,0,0,11,11,32,1,stimuli/stim_20210706_power2amp/equal_lnn_AM2.4Hz_s35_34.m4a,,,,,,,,,,,,
,,,,,,,,,,,,41496,2021-09-28_20h08.16.829,judgeSpeechMusic_20210921_logNormShiftAmp_detection_fixS,2020.1.2,MacIntel,60,,,,,,,,,,,,,,,,,,1,5.7923,,0,0,12,12,71,1,stimuli/stim_20210706_power2amp/equal_lnn_AM4.2Hz_s35_28.m4a,,,,,,,,,,,,
,,,,,,,,,,,,41496,2021-09-28_20h08.16.829,judgeSpeechMusic_20210921_logNormShiftAmp_detection_fixS,2020.1.2,MacIntel,60,,,,,,,,,,,,,,,,,,1,7.5278,,0,0,13,13,59,1,stimuli/stim_20210706_power2amp/equal_lnn_AM3.6Hz_s35_12.m4a,,,,,,,,,,,,
,,,,,,,,,,,,41496,2021-09-28_20h08.16.829,judgeSpeechMusic_20210921_logNormShiftAmp_detection_fixS,2020.1.2,MacIntel,60,,,,,,,,,,,,,,,,,,1,6.8424,,0,0,14,14,60,1,stimuli/stim_20210706_power2amp/equal_lnn_AM4.2Hz_s35_9.m4a,,,,,,,,,,,,
,,,,,,,,,,,,41496,2021-09-28_20h08.16.829,judgeSpeechMusic_20210921_logNormShiftAmp_detection_fixS,2020.1.2,MacIntel,60,,,,,,,,,,,,,,,,,,2,6.2606,,0,0,15,15,45,1,stimuli/stim_20210706_power2amp/equal_lnn_AM3.6Hz_s35_31.m4a,,,,,,,,,,,,
,,,,,,,,,,,,41496,2021-09-28_20h08.16.829,judgeSpeechMusic_20210921_logNormShiftAmp_detection_fixS,2020.1.2,MacIntel,60,,,,,,,,,,,,,,,,,,1,6.8292,,0,0,16,16,41,1,stimuli/stim_20210706_power2amp/equal_lnn_AM2.4Hz_s35_18.m4a,,,,,,,,,,,,
,,,,,,,,,,,,41496,2021-09-28_20h08.16.829,judgeSpeechMusic_20210921_logNormShiftAmp_detection_fixS,2020.1.2,MacIntel,60,,,,,,,,,,,,,,,,,,2,6.1451,,0,0,17,17,28,1,stimuli/stim_20210706_power2amp/equal_lnn_AM1.2Hz_s35_43.m4a,,,,,,,,,,,,
,,,,,,,,,,,,41496,2021-09-28_20h08.16.829,judgeSpeechMusic_20210921_logNormShiftAmp_detection_fixS,2020.1.2,MacIntel,60,,,,,,,,,,,,,,,,,,1,7.11,,0,0,18,18,55,1,stimuli/stim_20210706_power2amp/equal_lnn_AM3.6Hz_s35_41.m4a,,,,,,,,,,,,
,,,,,,,,,,,,41496,2021-09-28_20h08.16.829,judgeSpeechMusic_20210921_logNormShiftAmp_detection_fixS,2020.1.2,MacIntel,60,,,,,,,,,,,,,,,,,,1,6.2261,,0,0,19,19,21,1,stimuli/stim_20210706_power2amp/equal_lnn_AM1.2Hz_s35_6.m4a,,,,,,,,,,,,
,,,,,,,,,,,,41496,2021-09-28_20h08.16.829,judgeSpeechMusic_20210921_logNormShiftAmp_detection_fixS,2020.1.2,MacIntel,60,,,,,,,,,,,,,,,,,,1,6.6259,,0,0,20,20,36,1,stimuli/stim_20210706_power2amp/equal_lnn_AM2.4Hz_s35_22.m4a,,,,,,,,,,,,
,,,,,,,,,,,,41496,2021-09-28_20h08.16.829,judgeSpeechMusic_20210921_logNormShiftAmp_detection_fixS,2020.1.2,MacIntel,60,,,,,,,,,,,,,,,,,,1,6.9269,3,1,0,21,21,53,1,stimuli/stim_20210706_power2amp/equal_lnn_AM3.6Hz_s35_47.m4a,0.6976,,,,,,,,,,,
,,,,,,,,,,,,41496,2021-09-28_20h08.16.829,judgeSpeechMusic_20210921_logNormShiftAmp_detection_fixS,2020.1.2,MacIntel,60,,,,,,,,,,,,,,,,,,1,8.3243,,0,0,22,22,15,1,stimuli/stim_20210706_power2amp/equal_lnn_AM1.2Hz_s35_34.m4a,,,,,,,,,,,,
,,,,,,,,,,,,41496,2021-09-28_20h08.16.829,judgeSpeechMusic_20210921_logNormShiftAmp_detection_fixS,2020.1.2,MacIntel,60,,,,,,,,,,,,,,,,,,1,6.1746,,0,0,23,23,62,1,stimuli/stim_20210706_power2amp/equal_lnn_AM4.2Hz_s35_47.m4a,,,,,,,,,,,,
,,,,,,,,,,,,41496,2021-09-28_20h08.16.829,judgeSpeechMusic_20210921_logNormShiftAmp_detection_fixS,2020.1.2,MacIntel,60,,,,,,,,,,,,,,,,,,1,6.3931,,0,0,24,24,52,1,stimuli/stim_20210706_power2amp/equal_lnn_AM3.6Hz_s35_24.m4a,,,,,,,,,,,,
,,,,,,,,,,,,41496,2021-09-28_20h08.16.829,judgeSpeechMusic_20210921_logNormShiftAmp_detection_fixS,2020.1.2,MacIntel,60,,,,,,,,,,,,,,,,,,2,6.1767,,0,0,25,25,54,1,stimuli/stim_20210706_power2amp/equal_lnn_AM3.6Hz_s35_11.m4a,,,,,,,,,,,,
,,,,,,,,,,,,41496,2021-09-28_20h08.16.829,judgeSpeechMusic_20210921_logNormShiftAmp_detection_fixS,2020.1.2,MacIntel,60,,,,,,,,,,,,,,,,,,2,8.0434,,0,0,26,26,4,1,stimuli/stim_20210706_power2amp/equal_lnn_AM0.6Hz_s35_13.m4a,,,,,,,,,,,,
,,,,,,,,,,,,41496,2021-09-28_20h08.16.829,judgeSpeechMusic_20210921_logNormShiftAmp_detection_fixS,2020.1.2,MacIntel,60,,,,,,,,,,,,,,,,,,2,7.3287,,0,0,27,27,7,1,stimuli/stim_20210706_power2amp/equal_lnn_AM0.6Hz_s35_7.m4a,,,,,,,,,,,,
,,,,,,,,,,,,41496,2021-09-28_20h08.16.829,judgeSpeechMusic_20210921_logNormShiftAmp_detection_fixS,2020.1.2,MacIntel,60,,,,,,,,,,,,,,,,,,2,7.8081,,0,0,28,28,20,1,stimuli/stim_20210706_power2amp/equal_lnn_AM1.2Hz_s35_26.m4a,,,,,,,,,,,,
,,,,,,,,,,,,41496,2021-09-28_20h08.16.829,judgeSpeechMusic_20210921_logNormShiftAmp_detection_fixS,2020.1.2,MacIntel,60,,,,,,,,,,,,,,,,,,2,7.1766,,0,0,29,29,2,1,stimuli/stim_20210706_power2amp/equal_lnn_AM0.6Hz_s35_3.m4a,,,,,,,,,,,,
,,,,,,,,,,,,41496,2021-09-28_20h08.16.829,judgeSpeechMusic_20210921_logNormShiftAmp_detection_fixS,2020.1.2,MacIntel,60,,,,,,,,,,,,,,,,,,2,6.9108,,0,0,30,30,1,1,stimuli/stim_20210706_power2amp/equal_lnn_AM0.6Hz_s35_33.m4a,,,,,,,,,,,,
,,,,,,,,,,,,41496,2021-09-28_20h08.16.829,judgeSpeechMusic_20210921_logNormShiftAmp_detection_fixS,2020.1.2,MacIntel,60,,,,,,,,,,,,,,,,,,2,6.9602,,0,0,31,31,6,1,stimuli/stim_20210706_power2amp/equal_lnn_AM0.6Hz_s35_36.m4a,,,,,,,,,,,,
,,,,,,,,,,,,41496,2021-09-28_20h08.16.829,judgeSpeechMusic_20210921_logNormShiftAmp_detection_fixS,2020.1.2,MacIntel,60,,,,,,,,,,,,,,,,,,1,6.9932,,0,0,32,32,67,1,stimuli/stim_20210706_power2amp/equal_lnn_AM4.2Hz_s35_23.m4a,,,,,,,,,,,,
,,,,,,,,,,,,41496,2021-09-28_20h08.16.829,judgeSpeechMusic_20210921_logNormShiftAmp_detection_fixS,2020.1.2,MacIntel,60,,,,,,,,,,,,,,,,,,2,6.0455,,0,0,33,33,8,1,stimuli/stim_20210706_power2amp/equal_lnn_AM0.6Hz_s35_26.m4a,,,,,,,,,,,,
,,,,,,,,,,,,41496,2021-09-28_20h08.16.829,judgeSpeechMusic_20210921_logNormShiftAmp_detection_fixS,2020.1.2,MacIntel,60,,,,,,,,,,,,,,,,,,1,5.7442,,0,0,34,34,65,1,stimuli/stim_20210706_power2amp/equal_lnn_AM4.2Hz_s35_31.m4a,,,,,,,,,,,,
,,,,,,,,,,,,41496,2021-09-28_20h08.16.829,judgeSpeechMusic_20210921_logNormShiftAmp_detection_fixS,2020.1.2,MacIntel,60,,,,,,,,,,,,,,,,,,2,6.0759,,0,0,35,35,49,1,stimuli/stim_20210706_power2amp/equal_lnn_AM3.6Hz_s35_23.m4a,,,,,,,,,,,,
,,,,,,,,,,,,41496,2021-09-28_20h08.16.829,judgeSpeechMusic_20210921_logNormShiftAmp_detection_fixS,2020.1.2,MacIntel,60,,,,,,,,,,,,,,,,,,2,6.2145,,0,0,36,36,13,1,stimuli/stim_20210706_power2amp/equal_lnn_AM0.6Hz_s35_17.m4a,,,,,,,,,,,,
,,,,,,,,,,,,41496,2021-09-28_20h08.16.829,judgeSpeechMusic_20210921_logNormShiftAmp_detection_fixS,2020.1.2,MacIntel,60,,,,,,,,,,,,,,,,,,1,7.6258,,0,0,37,37,40,1,stimuli/stim_20210706_power2amp/equal_lnn_AM2.4Hz_s35_40.m4a,,,,,,,,,,,,
,,,,,,,,,,,,41496,2021-09-28_20h08.16.829,judgeSpeechMusic_20210921_logNormShiftAmp_detection_fixS,2020.1.2,MacIntel,60,,,,,,,,,,,,,,,,,,1,6.7368,,0,0,38,38,72,1,stimuli/stim_20210706_power2amp/equal_lnn_AM4.2Hz_s35_14.m4a,,,,,,,,,,,,
,,,,,,,,,,,,41496,2021-09-28_20h08.16.829,judgeSpeechMusic_20210921_logNormShiftAmp_detection_fixS,2020.1.2,MacIntel,60,,,,,,,,,,,,,,,,,,1,6.528,,0,0,39,39,37,1,stimuli/stim_20210706_power2amp/equal_lnn_AM2.4Hz_s35_33.m4a,,,,,,,,,,,,
,,,,,,,,,,,,41496,2021-09-28_20h08.16.829,judgeSpeechMusic_20210921_logNormShiftAmp_detection_fixS,2020.1.2,MacIntel,60,,,,,,,,,,,,,,,,,,2,7.298,,0,0,40,40,34,1,stimuli/stim_20210706_power2amp/equal_lnn_AM2.4Hz_s35_16.m4a,,,,,,,,,,,,
,,,,,,,,,,,,41496,2021-09-28_20h08.16.829,judgeSpeechMusic_20210921_logNormShiftAmp_detection_fixS,2020.1.2,MacIntel,60,,,,,,,,,,,,,,,,,,1,6.9429,3,1,0,41,41,30,1,stimuli/stim_20210706_power2amp/equal_lnn_AM2.4Hz_s35_35.m4a,5.1314,,,,,,,,,,,
,,,,,,,,,,,,41496,2021-09-28_20h08.16.829,judgeSpeechMusic_20210921_logNormShiftAmp_detection_fixS,2020.1.2,MacIntel,60,,,,,,,,,,,,,,,,,,1,7.2261,,0,0,42,42,46,1,stimuli/stim_20210706_power2amp/equal_lnn_AM3.6Hz_s35_7.m4a,,,,,,,,,,,,
,,,,,,,,,,,,41496,2021-09-28_20h08.16.829,judgeSpeechMusic_20210921_logNormShiftAmp_detection_fixS,2020.1.2,MacIntel,60,,,,,,,,,,,,,,,,,,2,7.2603,,0,0,43,43,24,1,stimuli/stim_20210706_power2amp/equal_lnn_AM1.2Hz_s35_39.m4a,,,,,,,,,,,,
,,,,,,,,,,,,41496,2021-09-28_20h08.16.829,judgeSpeechMusic_20210921_logNormShiftAmp_detection_fixS,2020.1.2,MacIntel,60,,,,,,,,,,,,,,,,,,1,6.4106,,0,0,44,44,51,1,stimuli/stim_20210706_power2amp/equal_lnn_AM3.6Hz_s35_30.m4a,,,,,,,,,,,,
,,,,,,,,,,,,41496,2021-09-28_20h08.16.829,judgeSpeechMusic_20210921_logNormShiftAmp_detection_fixS,2020.1.2,MacIntel,60,,,,,,,,,,,,,,,,,,2,6.7411,,0,0,45,45,25,1,stimuli/stim_20210706_power2amp/equal_lnn_AM1.2Hz_s35_42.m4a,,,,,,,,,,,,
,,,,,,,,,,,,41496,2021-09-28_20h08.16.829,judgeSpeechMusic_20210921_logNormShiftAmp_detection_fixS,2020.1.2,MacIntel,60,,,,,,,,,,,,,,,,,,2,6.2925,,0,0,46,46,29,1,stimuli/stim_20210706_power2amp/equal_lnn_AM1.2Hz_s35_22.m4a,,,,,,,,,,,,
,,,,,,,,,,,,41496,2021-09-28_20h08.16.829,judgeSpeechMusic_20210921_logNormShiftAmp_detection_fixS,2020.1.2,MacIntel,60,,,,,,,,,,,,,,,,,,1,8.1266,,0,0,47,47,58,1,stimuli/stim_20210706_power2amp/equal_lnn_AM3.6Hz_s35_17.m4a,,,,,,,,,,,,
,,,,,,,,,,,,41496,2021-09-28_20h08.16.829,judgeSpeechMusic_20210921_logNormShiftAmp_detection_fixS,2020.1.2,MacIntel,60,,,,,,,,,,,,,,,,,,1,7.8423,,0,0,48,48,38,1,stimuli/stim_20210706_power2amp/equal_lnn_AM2.4Hz_s35_31.m4a,,,,,,,,,,,,
,,,,,,,,,,,,41496,2021-09-28_20h08.16.829,judgeSpeechMusic_20210921_logNormShiftAmp_detection_fixS,2020.1.2,MacIntel,60,,,,,,,,,,,,,,,,,,1,6.6448,,0,0,49,49,66,1,stimuli/stim_20210706_power2amp/equal_lnn_AM4.2Hz_s35_20.m4a,,,,,,,,,,,,
,,,,,,,,,,,,41496,2021-09-28_20h08.16.829,judgeSpeechMusic_20210921_logNormShiftAmp_detection_fixS,2020.1.2,MacIntel,60,,,,,,,,,,,,,,,,,,2,7.0975,,0,0,50,50,10,1,stimuli/stim_20210706_power2amp/equal_lnn_AM0.6Hz_s35_42.m4a,,,,,,,,,,,,
,,,,,,,,,,,,41496,2021-09-28_20h08.16.829,judgeSpeechMusic_20210921_logNormShiftAmp_detection_fixS,2020.1.2,MacIntel,60,,,,,,,,,,,,,,,,,,1,6.2429,,0,0,51,51,23,1,stimuli/stim_20210706_power2amp/equal_lnn_AM1.2Hz_s35_37.m4a,,,,,,,,,,,,
,,,,,,,,,,,,41496,2021-09-28_20h08.16.829,judgeSpeechMusic_20210921_logNormShiftAmp_detection_fixS,2020.1.2,MacIntel,60,,,,,,,,,,,,,,,,,,1,6.3271,,0,0,52,52,47,1,stimuli/stim_20210706_power2amp/equal_lnn_AM3.6Hz_s35_19.m4a,,,,,,,,,,,,
,,,,,,,,,,,,41496,2021-09-28_20h08.16.829,judgeSpeechMusic_20210921_logNormShiftAmp_detection_fixS,2020.1.2,MacIntel,60,,,,,,,,,,,,,,,,,,2,6.5767,,0,0,53,53,18,1,stimuli/stim_20210706_power2amp/equal_lnn_AM1.2Hz_s35_3.m4a,,,,,,,,,,,,
,,,,,,,,,,,,41496,2021-09-28_20h08.16.829,judgeSpeechMusic_20210921_logNormShiftAmp_detection_fixS,2020.1.2,MacIntel,60,,,,,,,,,,,,,,,,,,2,6.0109,,0,0,54,54,69,1,stimuli/stim_20210706_power2amp/equal_lnn_AM4.2Hz_s35_10.m4a,,,,,,,,,,,,
,,,,,,,,,,,,41496,2021-09-28_20h08.16.829,judgeSpeechMusic_20210921_logNormShiftAmp_detection_fixS,2020.1.2,MacIntel,60,,,,,,,,,,,,,,,,,,2,6.1273,,0,0,55,55,42,1,stimuli/stim_20210706_power2amp/equal_lnn_AM2.4Hz_s35_4.m4a,,,,,,,,,,,,
,,,,,,,,,,,,41496,2021-09-28_20h08.16.829,judgeSpeechMusic_20210921_logNormShiftAmp_detection_fixS,2020.1.2,MacIntel,60,,,,,,,,,,,,,,,,,,1,6.2091,,0,0,56,56,64,1,stimuli/stim_20210706_power2amp/equal_lnn_AM4.2Hz_s35_46.m4a,,,,,,,,,,,,
,,,,,,,,,,,,41496,2021-09-28_20h08.16.829,judgeSpeechMusic_20210921_logNormShiftAmp_detection_fixS,2020.1.2,MacIntel,60,,,,,,,,,,,,,,,,,,2,5.9093,,0,0,57,57,3,1,stimuli/stim_20210706_power2amp/equal_lnn_AM0.6Hz_s35_39.m4a,,,,,,,,,,,,
,,,,,,,,,,,,41496,2021-09-28_20h08.16.829,judgeSpeechMusic_20210921_logNormShiftAmp_detection_fixS,2020.1.2,MacIntel,60,,,,,,,,,,,,,,,,,,1,6.6094,,0,0,58,58,19,1,stimuli/stim_20210706_power2amp/equal_lnn_AM1.2Hz_s35_35.m4a,,,,,,,,,,,,
,,,,,,,,,,,,41496,2021-09-28_20h08.16.829,judgeSpeechMusic_20210921_logNormShiftAmp_detection_fixS,2020.1.2,MacIntel,60,,,,,,,,,,,,,,,,,,1,6.5786,,0,0,59,59,14,1,stimuli/stim_20210706_power2amp/equal_lnn_AM0.6Hz_s35_34.m4a,,,,,,,,,,,,
,,,,,,,,,,,,41496,2021-09-28_20h08.16.829,judgeSpeechMusic_20210921_logNormShiftAmp_detection_fixS,2020.1.2,MacIntel,60,,,,,,,,,,,,,,,,,,1,6.9951,,0,0,60,60,22,1,stimuli/stim_20210706_power2amp/equal_lnn_AM1.2Hz_s35_1.m4a,,,,,,,,,,,,
,,,,,,,,,,,,41496,2021-09-28_20h08.16.829,judgeSpeechMusic_20210921_logNormShiftAmp_detection_fixS,2020.1.2,MacIntel,60,,,,,,,,,,,,,,,,,,1,7.4429,,0,0,61,61,27,1,stimuli/stim_20210706_power2amp/equal_lnn_AM1.2Hz_s35_40.m4a,,,,,,,,,,,,
,,,,,,,,,,,,41496,2021-09-28_20h08.16.829,judgeSpeechMusic_20210921_logNormShiftAmp_detection_fixS,2020.1.2,MacIntel,60,,,,,,,,,,,,,,,,,,1,5.9279,,0,0,62,62,56,1,stimuli/stim_20210706_power2amp/equal_lnn_AM3.6Hz_s35_3.m4a,,,,,,,,,,,,
,,,,,,,,,,,,41496,2021-09-28_20h08.16.829,judgeSpeechMusic_20210921_logNormShiftAmp_detection_fixS,2020.1.2,MacIntel,60,,,,,,,,,,,,,,,,,,2,6.3255,3,1,0,63,63,26,1,stimuli/stim_20210706_power2amp/equal_lnn_AM1.2Hz_s35_28.m4a,0.6958,,,,,,,,,,,
,,,,,,,,,,,,41496,2021-09-28_20h08.16.829,judgeSpeechMusic_20210921_logNormShiftAmp_detection_fixS,2020.1.2,MacIntel,60,,,,,,,,,,,,,,,,,,2,6.2253,,0,0,64,64,5,1,stimuli/stim_20210706_power2amp/equal_lnn_AM0.6Hz_s35_30.m4a,,,,,,,,,,,,
,,,,,,,,,,,,41496,2021-09-28_20h08.16.829,judgeSpeechMusic_20210921_logNormShiftAmp_detection_fixS,2020.1.2,MacIntel,60,,,,,,,,,,,,,,,,,,2,7.8411,,0,0,65,65,17,1,stimuli/stim_20210706_power2amp/equal_lnn_AM1.2Hz_s35_30.m4a,,,,,,,,,,,,
,,,,,,,,,,,,41496,2021-09-28_20h08.16.829,judgeSpeechMusic_20210921_logNormShiftAmp_detection_fixS,2020.1.2,MacIntel,60,,,,,,,,,,,,,,,,,,1,6.5431,,0,0,66,66,48,1,stimuli/stim_20210706_power2amp/equal_lnn_AM3.6Hz_s35_34.m4a,,,,,,,,,,,,
,,,,,,,,,,,,41496,2021-09-28_20h08.16.829,judgeSpeechMusic_20210921_logNormShiftAmp_detection_fixS,2020.1.2,MacIntel,60,,,,,,,,,,,,,,,,,,1,7.3936,,0,0,67,67,16,1,stimuli/stim_20210706_power2amp/equal_lnn_AM1.2Hz_s35_7.m4a,,,,,,,,,,,,
,,,,,,,,,,,,41496,2021-09-28_20h08.16.829,judgeSpeechMusic_20210921_logNormShiftAmp_detection_fixS,2020.1.2,MacIntel,60,,,,,,,,,,,,,,,,,,1,5.8103,,0,0,68,68,68,1,stimuli/stim_20210706_power2amp/equal_lnn_AM4.2Hz_s35_48.m4a,,,,,,,,,,,,
,,,,,,,,,,,,41496,2021-09-28_20h08.16.829,judgeSpeechMusic_20210921_logNormShiftAmp_detection_fixS,2020.1.2,MacIntel,60,,,,,,,,,,,,,,,,,,2,6.1774,,0,0,69,69,9,1,stimuli/stim_20210706_power2amp/equal_lnn_AM0.6Hz_s35_6.m4a,,,,,,,,,,,,
,,,,,,,,,,,,41496,2021-09-28_20h08.16.829,judgeSpeechMusic_20210921_logNormShiftAmp_detection_fixS,2020.1.2,MacIntel,60,,,,,,,,,,,,,,,,,,1,7.7247,,0,0,70,70,39,1,stimuli/stim_20210706_power2amp/equal_lnn_AM2.4Hz_s35_11.m4a,,,,,,,,,,,,
,,,,,,,,,,,,41496,2021-09-28_20h08.16.829,judgeSpeechMusic_20210921_logNormShiftAmp_detection_fixS,2020.1.2,MacIntel,60,,,,,,,,,,,,,,,,,,1,16.6764,,0,0,71,71,44,1,stimuli/stim_20210706_power2amp/equal_lnn_AM2.4Hz_s35_10.m4a,,,,,,,,,,,,
,,,,,,,,,,,,41496,2021-09-28_20h08.16.829,judgeSpeechMusic_20210921_logNormShiftAmp_detection_fixS,2020.1.2,MacIntel,60,,,,,,,,,,,,,,,,,,1,5.9423,,0,0,72,72,63,1,stimuli/stim_20210706_power2amp/equal_lnn_AM4.2Hz_s35_41.m4a,,,,,,,,,,,,
,,,,,,,,,,,,41496,2021-09-28_20h08.16.829,judgeSpeechMusic_20210921_logNormShiftAmp_detection_fixS,2020.1.2,MacIntel,60,,,,,,,,,,,,,,,,,,2,6.8591,,0,0,73,73,0,1,stimuli/stim_20210706_power2amp/equal_lnn_AM0.6Hz_s35_10.m4a,,,,,,,,,,,,
,,,,,,,,,,,,41496,2021-09-28_20h08.16.829,judgeSpeechMusic_20210921_logNormShiftAmp_detection_fixS,2020.1.2,MacIntel,60,,,,,,,,,,,,,,,,,,1,6.5594,,0,0,74,74,33,1,stimuli/stim_20210706_power2amp/equal_lnn_AM2.4Hz_s35_39.m4a,,,,,,,,,,,,
,,,,,,,,,,,,41496,2021-09-28_20h08.16.829,judgeSpeechMusic_20210921_logNormShiftAmp_detection_fixS,2020.1.2,MacIntel,60,,,,,,,,,,,,,,,,,,,,,,,,,,,,,,,1,1,3,0,1,MUSIC,stimuli/MUSIC.jpg,,
,,,,,,,,,,,,41496,2021-09-28_20h08.16.829,judgeSpeechMusic_20210921_logNormShiftAmp_detection_fixS,2020.1.2,MacIntel,60,,,,,,,,,,,,,,,,,,,,,,,,,,,,,,,,,,,,,,space,5.0954
