headphoneResponse.keys,headphoneResponse.corr,headphoneResponse.rt,headphoneTrial.thisRepN,headphoneTrial.thisTrialN,headphoneTrial.thisN,headphoneTrial.thisIndex,headphoneTrial.ran,headphone_sound1,headphone_sound2,headphone_sound3,corrAns,participant,date,expName,psychopyVersion,OS,frameRate,checkInstruKey.keys,checkInstruKey.rt,trainSlider.response,trainSlider.rt,beepTrainResponse.keys,beepTrainResponse.corr,trainingTrials.thisRepN,trainingTrials.thisTrialN,trainingTrials.thisN,trainingTrials.thisIndex,trainingTrials.ran,trainAudioFile,beepTrainResponse.rt,readyReal_resp.keys,readyReal_resp.rt,checkInstru2_key.keys,checkInstru2_key.rt,ratingSlider.response,ratingSlider.rt,beepResp.keys,beepResp.corr,expTrials.thisRepN,expTrials.thisTrialN,expTrials.thisN,expTrials.thisIndex,expTrials.ran,audioFile,beepResp.rt,switchBlock_space.keys,switchBlock_space.rt,block.thisRepN,block.thisTrialN,block.thisN,block.thisIndex,block.ran,blockName,blockImage,end_resp.keys,end_resp.rt
2,1,0.7028,0,0,0,3,1,stimuli/screen_origin.wav,stimuli/screen_quiet.wav,stimuli/screen_antiphase.wav,2,41541,2021-09-22_21h28.02.688,judgeSpeechMusic_20210921_logNormShiftAmp_detection_fixS,2020.1.2,MacIntel,60,,,,,,,,,,,,,,,,,,,,,,,,,,,,,,,,,,,,,,,
1,1,0.5508,0,1,1,5,1,stimuli/screen_quiet.wav,stimuli/screen_origin.wav,stimuli/screen_antiphase.wav,1,41541,2021-09-22_21h28.02.688,judgeSpeechMusic_20210921_logNormShiftAmp_detection_fixS,2020.1.2,MacIntel,60,,,,,,,,,,,,,,,,,,,,,,,,,,,,,,,,,,,,,,,
1,1,6.4835,0,2,2,4,1,stimuli/screen_quiet.wav,stimuli/screen_antiphase.wav,stimuli/screen_origin.wav,1,41541,2021-09-22_21h28.02.688,judgeSpeechMusic_20210921_logNormShiftAmp_detection_fixS,2020.1.2,MacIntel,60,,,,,,,,,,,,,,,,,,,,,,,,,,,,,,,,,,,,,,,
3,1,0.3037,0,3,3,2,1,stimuli/screen_origin.wav,stimuli/screen_antiphase.wav,stimuli/screen_quiet.wav,3,41541,2021-09-22_21h28.02.688,judgeSpeechMusic_20210921_logNormShiftAmp_detection_fixS,2020.1.2,MacIntel,60,,,,,,,,,,,,,,,,,,,,,,,,,,,,,,,,,,,,,,,
2,1,0.2705,0,4,4,1,1,stimuli/screen_antiphase.wav,stimuli/screen_quiet.wav,stimuli/screen_origin.wav,2,41541,2021-09-22_21h28.02.688,judgeSpeechMusic_20210921_logNormShiftAmp_detection_fixS,2020.1.2,MacIntel,60,,,,,,,,,,,,,,,,,,,,,,,,,,,,,,,,,,,,,,,
3,1,0.3026,0,5,5,0,1,stimuli/screen_antiphase.wav,stimuli/screen_origin.wav,stimuli/screen_quiet.wav,3,41541,2021-09-22_21h28.02.688,judgeSpeechMusic_20210921_logNormShiftAmp_detection_fixS,2020.1.2,MacIntel,60,,,,,,,,,,,,,,,,,,,,,,,,,,,,,,,,,,,,,,,
,,,,,,,,,,,,41541,2021-09-22_21h28.02.688,judgeSpeechMusic_20210921_logNormShiftAmp_detection_fixS,2020.1.2,MacIntel,60,space,1.2285,1,7.0235,,0,0,0,0,3,1,stimuli/stim_20210706_power2amp/equal_lnn_AM_training3.9Hz_s35.m4a,,,,,,,,,,,,,,,,,,,,,,,,,,,
,,,,,,,,,,,,41541,2021-09-22_21h28.02.688,judgeSpeechMusic_20210921_logNormShiftAmp_detection_fixS,2020.1.2,MacIntel,60,,,1,7.3375,,0,0,1,1,0,1,stimuli/stim_20210706_power2amp/equal_lnn_AM_training0.9Hz_s35.m4a,,,,,,,,,,,,,,,,,,,,,,,,,,,
,,,,,,,,,,,,41541,2021-09-22_21h28.02.688,judgeSpeechMusic_20210921_logNormShiftAmp_detection_fixS,2020.1.2,MacIntel,60,,,1,5.8895,3,1,0,2,2,2,1,stimuli/stim_20210706_power2amp/equal_lnn_AM_training3Hz_s35.m4a,2.0576,,,,,,,,,,,,,,,,,,,,,,,,,,
,,,,,,,,,,,,41541,2021-09-22_21h28.02.688,judgeSpeechMusic_20210921_logNormShiftAmp_detection_fixS,2020.1.2,MacIntel,60,,,1,6.4544,,0,0,3,3,1,1,stimuli/stim_20210706_power2amp/equal_lnn_AM_training1.8Hz_s35.m4a,,,,,,,,,,,,,,,,,,,,,,,,,,,
,,,,,,,,,,,,41541,2021-09-22_21h28.02.688,judgeSpeechMusic_20210921_logNormShiftAmp_detection_fixS,2020.1.2,MacIntel,60,,,,,,,,,,,,,,space,5.5612,space,0.6922,2,6.8024,,0,0,0,0,30,1,stimuli/stim_20210706_power2amp/equal_lnn_AM2.4Hz_s35_16.m4a,,,,,,,,,,,,
,,,,,,,,,,,,41541,2021-09-22_21h28.02.688,judgeSpeechMusic_20210921_logNormShiftAmp_detection_fixS,2020.1.2,MacIntel,60,,,,,,,,,,,,,,,,,,1,6.2718,,0,0,1,1,41,1,stimuli/stim_20210706_power2amp/equal_lnn_AM2.4Hz_s35_8.m4a,,,,,,,,,,,,
,,,,,,,,,,,,41541,2021-09-22_21h28.02.688,judgeSpeechMusic_20210921_logNormShiftAmp_detection_fixS,2020.1.2,MacIntel,60,,,,,,,,,,,,,,,,,,2,6.2268,,0,0,2,2,53,1,stimuli/stim_20210706_power2amp/equal_lnn_AM3.6Hz_s35_15.m4a,,,,,,,,,,,,
,,,,,,,,,,,,41541,2021-09-22_21h28.02.688,judgeSpeechMusic_20210921_logNormShiftAmp_detection_fixS,2020.1.2,MacIntel,60,,,,,,,,,,,,,,,,,,1,5.6239,,0,0,3,3,17,1,stimuli/stim_20210706_power2amp/equal_lnn_AM1.2Hz_s35_46.m4a,,,,,,,,,,,,
,,,,,,,,,,,,41541,2021-09-22_21h28.02.688,judgeSpeechMusic_20210921_logNormShiftAmp_detection_fixS,2020.1.2,MacIntel,60,,,,,,,,,,,,,,,,,,1,5.9591,,0,0,4,4,43,1,stimuli/stim_20210706_power2amp/equal_lnn_AM2.4Hz_s35_3.m4a,,,,,,,,,,,,
,,,,,,,,,,,,41541,2021-09-22_21h28.02.688,judgeSpeechMusic_20210921_logNormShiftAmp_detection_fixS,2020.1.2,MacIntel,60,,,,,,,,,,,,,,,,,,1,5.8582,,0,0,5,5,11,1,stimuli/stim_20210706_power2amp/equal_lnn_AM0.6Hz_s35_22.m4a,,,,,,,,,,,,
,,,,,,,,,,,,41541,2021-09-22_21h28.02.688,judgeSpeechMusic_20210921_logNormShiftAmp_detection_fixS,2020.1.2,MacIntel,60,,,,,,,,,,,,,,,,,,2,5.9442,,0,0,6,6,56,1,stimuli/stim_20210706_power2amp/equal_lnn_AM3.6Hz_s35_18.m4a,,,,,,,,,,,,
,,,,,,,,,,,,41541,2021-09-22_21h28.02.688,judgeSpeechMusic_20210921_logNormShiftAmp_detection_fixS,2020.1.2,MacIntel,60,,,,,,,,,,,,,,,,,,1,6.1286,,0,0,7,7,13,1,stimuli/stim_20210706_power2amp/equal_lnn_AM0.6Hz_s35_48.m4a,,,,,,,,,,,,
,,,,,,,,,,,,41541,2021-09-22_21h28.02.688,judgeSpeechMusic_20210921_logNormShiftAmp_detection_fixS,2020.1.2,MacIntel,60,,,,,,,,,,,,,,,,,,2,5.8566,,0,0,8,8,74,1,stimuli/stim_20210706_power2amp/equal_lnn_AM4.2Hz_s35_19.m4a,,,,,,,,,,,,
,,,,,,,,,,,,41541,2021-09-22_21h28.02.688,judgeSpeechMusic_20210921_logNormShiftAmp_detection_fixS,2020.1.2,MacIntel,60,,,,,,,,,,,,,,,,,,1,6.8589,,0,0,9,9,9,1,stimuli/stim_20210706_power2amp/equal_lnn_AM0.6Hz_s35_44.m4a,,,,,,,,,,,,
,,,,,,,,,,,,41541,2021-09-22_21h28.02.688,judgeSpeechMusic_20210921_logNormShiftAmp_detection_fixS,2020.1.2,MacIntel,60,,,,,,,,,,,,,,,,,,2,5.8076,,0,0,10,10,54,1,stimuli/stim_20210706_power2amp/equal_lnn_AM3.6Hz_s35_44.m4a,,,,,,,,,,,,
,,,,,,,,,,,,41541,2021-09-22_21h28.02.688,judgeSpeechMusic_20210921_logNormShiftAmp_detection_fixS,2020.1.2,MacIntel,60,,,,,,,,,,,,,,,,,,1,5.9246,,0,0,11,11,21,1,stimuli/stim_20210706_power2amp/equal_lnn_AM1.2Hz_s35_10.m4a,,,,,,,,,,,,
,,,,,,,,,,,,41541,2021-09-22_21h28.02.688,judgeSpeechMusic_20210921_logNormShiftAmp_detection_fixS,2020.1.2,MacIntel,60,,,,,,,,,,,,,,,,,,1,6.2095,,0,0,12,12,27,1,stimuli/stim_20210706_power2amp/equal_lnn_AM1.2Hz_s35_41.m4a,,,,,,,,,,,,
,,,,,,,,,,,,41541,2021-09-22_21h28.02.688,judgeSpeechMusic_20210921_logNormShiftAmp_detection_fixS,2020.1.2,MacIntel,60,,,,,,,,,,,,,,,,,,1,6.8108,,0,0,13,13,0,1,stimuli/stim_20210706_power2amp/equal_lnn_AM0.6Hz_s35_7.m4a,,,,,,,,,,,,
,,,,,,,,,,,,41541,2021-09-22_21h28.02.688,judgeSpeechMusic_20210921_logNormShiftAmp_detection_fixS,2020.1.2,MacIntel,60,,,,,,,,,,,,,,,,,,1,7.1247,,0,0,14,14,22,1,stimuli/stim_20210706_power2amp/equal_lnn_AM1.2Hz_s35_26.m4a,,,,,,,,,,,,
,,,,,,,,,,,,41541,2021-09-22_21h28.02.688,judgeSpeechMusic_20210921_logNormShiftAmp_detection_fixS,2020.1.2,MacIntel,60,,,,,,,,,,,,,,,,,,2,5.7603,,0,0,15,15,42,1,stimuli/stim_20210706_power2amp/equal_lnn_AM2.4Hz_s35_29.m4a,,,,,,,,,,,,
,,,,,,,,,,,,41541,2021-09-22_21h28.02.688,judgeSpeechMusic_20210921_logNormShiftAmp_detection_fixS,2020.1.2,MacIntel,60,,,,,,,,,,,,,,,,,,1,5.7245,,0,0,16,16,4,1,stimuli/stim_20210706_power2amp/equal_lnn_AM0.6Hz_s35_8.m4a,,,,,,,,,,,,
,,,,,,,,,,,,41541,2021-09-22_21h28.02.688,judgeSpeechMusic_20210921_logNormShiftAmp_detection_fixS,2020.1.2,MacIntel,60,,,,,,,,,,,,,,,,,,1,6.4913,,0,0,17,17,25,1,stimuli/stim_20210706_power2amp/equal_lnn_AM1.2Hz_s35_47.m4a,,,,,,,,,,,,
,,,,,,,,,,,,41541,2021-09-22_21h28.02.688,judgeSpeechMusic_20210921_logNormShiftAmp_detection_fixS,2020.1.2,MacIntel,60,,,,,,,,,,,,,,,,,,2,5.7957,,0,0,18,18,31,1,stimuli/stim_20210706_power2amp/equal_lnn_AM2.4Hz_s35_37.m4a,,,,,,,,,,,,
,,,,,,,,,,,,41541,2021-09-22_21h28.02.688,judgeSpeechMusic_20210921_logNormShiftAmp_detection_fixS,2020.1.2,MacIntel,60,,,,,,,,,,,,,,,,,,2,5.641,,0,0,19,19,59,1,stimuli/stim_20210706_power2amp/equal_lnn_AM3.6Hz_s35_21.m4a,,,,,,,,,,,,
,,,,,,,,,,,,41541,2021-09-22_21h28.02.688,judgeSpeechMusic_20210921_logNormShiftAmp_detection_fixS,2020.1.2,MacIntel,60,,,,,,,,,,,,,,,,,,2,6.1949,,0,0,20,20,38,1,stimuli/stim_20210706_power2amp/equal_lnn_AM2.4Hz_s35_21.m4a,,,,,,,,,,,,
,,,,,,,,,,,,41541,2021-09-22_21h28.02.688,judgeSpeechMusic_20210921_logNormShiftAmp_detection_fixS,2020.1.2,MacIntel,60,,,,,,,,,,,,,,,,,,2,5.8935,,0,0,21,21,73,1,stimuli/stim_20210706_power2amp/equal_lnn_AM4.2Hz_s35_23.m4a,,,,,,,,,,,,
,,,,,,,,,,,,41541,2021-09-22_21h28.02.688,judgeSpeechMusic_20210921_logNormShiftAmp_detection_fixS,2020.1.2,MacIntel,60,,,,,,,,,,,,,,,,,,1,5.6574,4,1,0,22,22,14,1,stimuli/stim_20210706_power2amp/equal_lnn_AM0.6Hz_s35_37.m4a,1.0642,,,,,,,,,,,
,,,,,,,,,,,,41541,2021-09-22_21h28.02.688,judgeSpeechMusic_20210921_logNormShiftAmp_detection_fixS,2020.1.2,MacIntel,60,,,,,,,,,,,,,,,,,,2,5.7904,,0,0,23,23,47,1,stimuli/stim_20210706_power2amp/equal_lnn_AM3.6Hz_s35_13.m4a,,,,,,,,,,,,
,,,,,,,,,,,,41541,2021-09-22_21h28.02.688,judgeSpeechMusic_20210921_logNormShiftAmp_detection_fixS,2020.1.2,MacIntel,60,,,,,,,,,,,,,,,,,,1,5.6224,,0,0,24,24,23,1,stimuli/stim_20210706_power2amp/equal_lnn_AM1.2Hz_s35_27.m4a,,,,,,,,,,,,
,,,,,,,,,,,,41541,2021-09-22_21h28.02.688,judgeSpeechMusic_20210921_logNormShiftAmp_detection_fixS,2020.1.2,MacIntel,60,,,,,,,,,,,,,,,,,,2,5.8925,,0,0,25,25,64,1,stimuli/stim_20210706_power2amp/equal_lnn_AM4.2Hz_s35_30.m4a,,,,,,,,,,,,
,,,,,,,,,,,,41541,2021-09-22_21h28.02.688,judgeSpeechMusic_20210921_logNormShiftAmp_detection_fixS,2020.1.2,MacIntel,60,,,,,,,,,,,,,,,,,,2,5.6099,,0,0,26,26,45,1,stimuli/stim_20210706_power2amp/equal_lnn_AM3.6Hz_s35_23.m4a,,,,,,,,,,,,
,,,,,,,,,,,,41541,2021-09-22_21h28.02.688,judgeSpeechMusic_20210921_logNormShiftAmp_detection_fixS,2020.1.2,MacIntel,60,,,,,,,,,,,,,,,,,,2,5.2608,,0,0,27,27,71,1,stimuli/stim_20210706_power2amp/equal_lnn_AM4.2Hz_s35_39.m4a,,,,,,,,,,,,
,,,,,,,,,,,,41541,2021-09-22_21h28.02.688,judgeSpeechMusic_20210921_logNormShiftAmp_detection_fixS,2020.1.2,MacIntel,60,,,,,,,,,,,,,,,,,,1,5.8126,,0,0,28,28,34,1,stimuli/stim_20210706_power2amp/equal_lnn_AM2.4Hz_s35_13.m4a,,,,,,,,,,,,
,,,,,,,,,,,,41541,2021-09-22_21h28.02.688,judgeSpeechMusic_20210921_logNormShiftAmp_detection_fixS,2020.1.2,MacIntel,60,,,,,,,,,,,,,,,,,,1,5.6082,,0,0,29,29,40,1,stimuli/stim_20210706_power2amp/equal_lnn_AM2.4Hz_s35_4.m4a,,,,,,,,,,,,
,,,,,,,,,,,,41541,2021-09-22_21h28.02.688,judgeSpeechMusic_20210921_logNormShiftAmp_detection_fixS,2020.1.2,MacIntel,60,,,,,,,,,,,,,,,,,,2,5.5262,,0,0,30,30,61,1,stimuli/stim_20210706_power2amp/equal_lnn_AM4.2Hz_s35_36.m4a,,,,,,,,,,,,
,,,,,,,,,,,,41541,2021-09-22_21h28.02.688,judgeSpeechMusic_20210921_logNormShiftAmp_detection_fixS,2020.1.2,MacIntel,60,,,,,,,,,,,,,,,,,,1,5.8079,,0,0,31,31,16,1,stimuli/stim_20210706_power2amp/equal_lnn_AM1.2Hz_s35_35.m4a,,,,,,,,,,,,
,,,,,,,,,,,,41541,2021-09-22_21h28.02.688,judgeSpeechMusic_20210921_logNormShiftAmp_detection_fixS,2020.1.2,MacIntel,60,,,,,,,,,,,,,,,,,,2,5.5432,,0,0,32,32,51,1,stimuli/stim_20210706_power2amp/equal_lnn_AM3.6Hz_s35_49.m4a,,,,,,,,,,,,
,,,,,,,,,,,,41541,2021-09-22_21h28.02.688,judgeSpeechMusic_20210921_logNormShiftAmp_detection_fixS,2020.1.2,MacIntel,60,,,,,,,,,,,,,,,,,,2,5.3408,,0,0,33,33,50,1,stimuli/stim_20210706_power2amp/equal_lnn_AM3.6Hz_s35_29.m4a,,,,,,,,,,,,
,,,,,,,,,,,,41541,2021-09-22_21h28.02.688,judgeSpeechMusic_20210921_logNormShiftAmp_detection_fixS,2020.1.2,MacIntel,60,,,,,,,,,,,,,,,,,,2,5.5115,,0,0,34,34,67,1,stimuli/stim_20210706_power2amp/equal_lnn_AM4.2Hz_s35_13.m4a,,,,,,,,,,,,
,,,,,,,,,,,,41541,2021-09-22_21h28.02.688,judgeSpeechMusic_20210921_logNormShiftAmp_detection_fixS,2020.1.2,MacIntel,60,,,,,,,,,,,,,,,,,,1,5.4244,,0,0,35,35,39,1,stimuli/stim_20210706_power2amp/equal_lnn_AM2.4Hz_s35_24.m4a,,,,,,,,,,,,
,,,,,,,,,,,,41541,2021-09-22_21h28.02.688,judgeSpeechMusic_20210921_logNormShiftAmp_detection_fixS,2020.1.2,MacIntel,60,,,,,,,,,,,,,,,,,,2,5.2923,,0,0,36,36,69,1,stimuli/stim_20210706_power2amp/equal_lnn_AM4.2Hz_s35_26.m4a,,,,,,,,,,,,
,,,,,,,,,,,,41541,2021-09-22_21h28.02.688,judgeSpeechMusic_20210921_logNormShiftAmp_detection_fixS,2020.1.2,MacIntel,60,,,,,,,,,,,,,,,,,,2,5.3317,,0,0,37,37,55,1,stimuli/stim_20210706_power2amp/equal_lnn_AM3.6Hz_s35_16.m4a,,,,,,,,,,,,
,,,,,,,,,,,,41541,2021-09-22_21h28.02.688,judgeSpeechMusic_20210921_logNormShiftAmp_detection_fixS,2020.1.2,MacIntel,60,,,,,,,,,,,,,,,,,,1,5.5595,,0,0,38,38,6,1,stimuli/stim_20210706_power2amp/equal_lnn_AM0.6Hz_s35_25.m4a,,,,,,,,,,,,
,,,,,,,,,,,,41541,2021-09-22_21h28.02.688,judgeSpeechMusic_20210921_logNormShiftAmp_detection_fixS,2020.1.2,MacIntel,60,,,,,,,,,,,,,,,,,,2,5.9447,,0,0,39,39,68,1,stimuli/stim_20210706_power2amp/equal_lnn_AM4.2Hz_s35_35.m4a,,,,,,,,,,,,
,,,,,,,,,,,,41541,2021-09-22_21h28.02.688,judgeSpeechMusic_20210921_logNormShiftAmp_detection_fixS,2020.1.2,MacIntel,60,,,,,,,,,,,,,,,,,,2,5.2441,,0,0,40,40,57,1,stimuli/stim_20210706_power2amp/equal_lnn_AM3.6Hz_s35_22.m4a,,,,,,,,,,,,
,,,,,,,,,,,,41541,2021-09-22_21h28.02.688,judgeSpeechMusic_20210921_logNormShiftAmp_detection_fixS,2020.1.2,MacIntel,60,,,,,,,,,,,,,,,,,,2,5.4096,,0,0,41,41,52,1,stimuli/stim_20210706_power2amp/equal_lnn_AM3.6Hz_s35_50.m4a,,,,,,,,,,,,
,,,,,,,,,,,,41541,2021-09-22_21h28.02.688,judgeSpeechMusic_20210921_logNormShiftAmp_detection_fixS,2020.1.2,MacIntel,60,,,,,,,,,,,,,,,,,,1,5.6073,3,1,0,42,42,18,1,stimuli/stim_20210706_power2amp/equal_lnn_AM1.2Hz_s35_50.m4a,0.7634,,,,,,,,,,,
,,,,,,,,,,,,41541,2021-09-22_21h28.02.688,judgeSpeechMusic_20210921_logNormShiftAmp_detection_fixS,2020.1.2,MacIntel,60,,,,,,,,,,,,,,,,,,1,5.5094,,0,0,43,43,8,1,stimuli/stim_20210706_power2amp/equal_lnn_AM0.6Hz_s35_18.m4a,,,,,,,,,,,,
,,,,,,,,,,,,41541,2021-09-22_21h28.02.688,judgeSpeechMusic_20210921_logNormShiftAmp_detection_fixS,2020.1.2,MacIntel,60,,,,,,,,,,,,,,,,,,2,5.293,,0,0,44,44,62,1,stimuli/stim_20210706_power2amp/equal_lnn_AM4.2Hz_s35_32.m4a,,,,,,,,,,,,
,,,,,,,,,,,,41541,2021-09-22_21h28.02.688,judgeSpeechMusic_20210921_logNormShiftAmp_detection_fixS,2020.1.2,MacIntel,60,,,,,,,,,,,,,,,,,,2,5.2585,,0,0,45,45,72,1,stimuli/stim_20210706_power2amp/equal_lnn_AM4.2Hz_s35_18.m4a,,,,,,,,,,,,
,,,,,,,,,,,,41541,2021-09-22_21h28.02.688,judgeSpeechMusic_20210921_logNormShiftAmp_detection_fixS,2020.1.2,MacIntel,60,,,,,,,,,,,,,,,,,,1,5.4433,,0,0,46,46,3,1,stimuli/stim_20210706_power2amp/equal_lnn_AM0.6Hz_s35_45.m4a,,,,,,,,,,,,
,,,,,,,,,,,,41541,2021-09-22_21h28.02.688,judgeSpeechMusic_20210921_logNormShiftAmp_detection_fixS,2020.1.2,MacIntel,60,,,,,,,,,,,,,,,,,,1,5.3592,,0,0,47,47,48,1,stimuli/stim_20210706_power2amp/equal_lnn_AM3.6Hz_s35_1.m4a,,,,,,,,,,,,
,,,,,,,,,,,,41541,2021-09-22_21h28.02.688,judgeSpeechMusic_20210921_logNormShiftAmp_detection_fixS,2020.1.2,MacIntel,60,,,,,,,,,,,,,,,,,,2,5.3394,,0,0,48,48,36,1,stimuli/stim_20210706_power2amp/equal_lnn_AM2.4Hz_s35_43.m4a,,,,,,,,,,,,
,,,,,,,,,,,,41541,2021-09-22_21h28.02.688,judgeSpeechMusic_20210921_logNormShiftAmp_detection_fixS,2020.1.2,MacIntel,60,,,,,,,,,,,,,,,,,,1,5.3484,,0,0,49,49,29,1,stimuli/stim_20210706_power2amp/equal_lnn_AM1.2Hz_s35_32.m4a,,,,,,,,,,,,
,,,,,,,,,,,,41541,2021-09-22_21h28.02.688,judgeSpeechMusic_20210921_logNormShiftAmp_detection_fixS,2020.1.2,MacIntel,60,,,,,,,,,,,,,,,,,,1,6.3087,,0,0,50,50,12,1,stimuli/stim_20210706_power2amp/equal_lnn_AM0.6Hz_s35_40.m4a,,,,,,,,,,,,
,,,,,,,,,,,,41541,2021-09-22_21h28.02.688,judgeSpeechMusic_20210921_logNormShiftAmp_detection_fixS,2020.1.2,MacIntel,60,,,,,,,,,,,,,,,,,,1,5.3595,,0,0,51,51,20,1,stimuli/stim_20210706_power2amp/equal_lnn_AM1.2Hz_s35_20.m4a,,,,,,,,,,,,
,,,,,,,,,,,,41541,2021-09-22_21h28.02.688,judgeSpeechMusic_20210921_logNormShiftAmp_detection_fixS,2020.1.2,MacIntel,60,,,,,,,,,,,,,,,,,,1,5.4764,,0,0,52,52,19,1,stimuli/stim_20210706_power2amp/equal_lnn_AM1.2Hz_s35_38.m4a,,,,,,,,,,,,
,,,,,,,,,,,,41541,2021-09-22_21h28.02.688,judgeSpeechMusic_20210921_logNormShiftAmp_detection_fixS,2020.1.2,MacIntel,60,,,,,,,,,,,,,,,,,,2,5.7407,,0,0,53,53,46,1,stimuli/stim_20210706_power2amp/equal_lnn_AM3.6Hz_s35_4.m4a,,,,,,,,,,,,
,,,,,,,,,,,,41541,2021-09-22_21h28.02.688,judgeSpeechMusic_20210921_logNormShiftAmp_detection_fixS,2020.1.2,MacIntel,60,,,,,,,,,,,,,,,,,,2,5.7947,,0,0,54,54,44,1,stimuli/stim_20210706_power2amp/equal_lnn_AM2.4Hz_s35_10.m4a,,,,,,,,,,,,
,,,,,,,,,,,,41541,2021-09-22_21h28.02.688,judgeSpeechMusic_20210921_logNormShiftAmp_detection_fixS,2020.1.2,MacIntel,60,,,,,,,,,,,,,,,,,,1,5.8581,,0,0,55,55,2,1,stimuli/stim_20210706_power2amp/equal_lnn_AM0.6Hz_s35_33.m4a,,,,,,,,,,,,
,,,,,,,,,,,,41541,2021-09-22_21h28.02.688,judgeSpeechMusic_20210921_logNormShiftAmp_detection_fixS,2020.1.2,MacIntel,60,,,,,,,,,,,,,,,,,,1,5.4253,,0,0,56,56,1,1,stimuli/stim_20210706_power2amp/equal_lnn_AM0.6Hz_s35_34.m4a,,,,,,,,,,,,
,,,,,,,,,,,,41541,2021-09-22_21h28.02.688,judgeSpeechMusic_20210921_logNormShiftAmp_detection_fixS,2020.1.2,MacIntel,60,,,,,,,,,,,,,,,,,,1,5.4073,,0,0,57,57,65,1,stimuli/stim_20210706_power2amp/equal_lnn_AM4.2Hz_s35_25.m4a,,,,,,,,,,,,
,,,,,,,,,,,,41541,2021-09-22_21h28.02.688,judgeSpeechMusic_20210921_logNormShiftAmp_detection_fixS,2020.1.2,MacIntel,60,,,,,,,,,,,,,,,,,,1,5.5616,,0,0,58,58,70,1,stimuli/stim_20210706_power2amp/equal_lnn_AM4.2Hz_s35_3.m4a,,,,,,,,,,,,
,,,,,,,,,,,,41541,2021-09-22_21h28.02.688,judgeSpeechMusic_20210921_logNormShiftAmp_detection_fixS,2020.1.2,MacIntel,60,,,,,,,,,,,,,,,,,,1,5.5728,,0,0,59,59,32,1,stimuli/stim_20210706_power2amp/equal_lnn_AM2.4Hz_s35_28.m4a,,,,,,,,,,,,
,,,,,,,,,,,,41541,2021-09-22_21h28.02.688,judgeSpeechMusic_20210921_logNormShiftAmp_detection_fixS,2020.1.2,MacIntel,60,,,,,,,,,,,,,,,,,,1,5.5774,2,1,0,60,60,37,1,stimuli/stim_20210706_power2amp/equal_lnn_AM2.4Hz_s35_17.m4a,0.0951,,,,,,,,,,,
,,,,,,,,,,,,41541,2021-09-22_21h28.02.688,judgeSpeechMusic_20210921_logNormShiftAmp_detection_fixS,2020.1.2,MacIntel,60,,,,,,,,,,,,,,,,,,2,5.7123,,0,0,61,61,60,1,stimuli/stim_20210706_power2amp/equal_lnn_AM4.2Hz_s35_42.m4a,,,,,,,,,,,,
,,,,,,,,,,,,41541,2021-09-22_21h28.02.688,judgeSpeechMusic_20210921_logNormShiftAmp_detection_fixS,2020.1.2,MacIntel,60,,,,,,,,,,,,,,,,,,2,6.0776,,0,0,62,62,28,1,stimuli/stim_20210706_power2amp/equal_lnn_AM1.2Hz_s35_3.m4a,,,,,,,,,,,,
,,,,,,,,,,,,41541,2021-09-22_21h28.02.688,judgeSpeechMusic_20210921_logNormShiftAmp_detection_fixS,2020.1.2,MacIntel,60,,,,,,,,,,,,,,,,,,2,6.0395,,0,0,63,63,63,1,stimuli/stim_20210706_power2amp/equal_lnn_AM4.2Hz_s35_41.m4a,,,,,,,,,,,,
,,,,,,,,,,,,41541,2021-09-22_21h28.02.688,judgeSpeechMusic_20210921_logNormShiftAmp_detection_fixS,2020.1.2,MacIntel,60,,,,,,,,,,,,,,,,,,1,5.7231,,0,0,64,64,33,1,stimuli/stim_20210706_power2amp/equal_lnn_AM2.4Hz_s35_11.m4a,,,,,,,,,,,,
,,,,,,,,,,,,41541,2021-09-22_21h28.02.688,judgeSpeechMusic_20210921_logNormShiftAmp_detection_fixS,2020.1.2,MacIntel,60,,,,,,,,,,,,,,,,,,2,5.9401,,0,0,65,65,66,1,stimuli/stim_20210706_power2amp/equal_lnn_AM4.2Hz_s35_12.m4a,,,,,,,,,,,,
,,,,,,,,,,,,41541,2021-09-22_21h28.02.688,judgeSpeechMusic_20210921_logNormShiftAmp_detection_fixS,2020.1.2,MacIntel,60,,,,,,,,,,,,,,,,,,1,5.2758,,0,0,66,66,35,1,stimuli/stim_20210706_power2amp/equal_lnn_AM2.4Hz_s35_39.m4a,,,,,,,,,,,,
,,,,,,,,,,,,41541,2021-09-22_21h28.02.688,judgeSpeechMusic_20210921_logNormShiftAmp_detection_fixS,2020.1.2,MacIntel,60,,,,,,,,,,,,,,,,,,1,5.3914,,0,0,67,67,7,1,stimuli/stim_20210706_power2amp/equal_lnn_AM0.6Hz_s35_21.m4a,,,,,,,,,,,,
,,,,,,,,,,,,41541,2021-09-22_21h28.02.688,judgeSpeechMusic_20210921_logNormShiftAmp_detection_fixS,2020.1.2,MacIntel,60,,,,,,,,,,,,,,,,,,1,5.3604,,0,0,68,68,26,1,stimuli/stim_20210706_power2amp/equal_lnn_AM1.2Hz_s35_25.m4a,,,,,,,,,,,,
,,,,,,,,,,,,41541,2021-09-22_21h28.02.688,judgeSpeechMusic_20210921_logNormShiftAmp_detection_fixS,2020.1.2,MacIntel,60,,,,,,,,,,,,,,,,,,1,5.5085,,0,0,69,69,49,1,stimuli/stim_20210706_power2amp/equal_lnn_AM3.6Hz_s35_39.m4a,,,,,,,,,,,,
,,,,,,,,,,,,41541,2021-09-22_21h28.02.688,judgeSpeechMusic_20210921_logNormShiftAmp_detection_fixS,2020.1.2,MacIntel,60,,,,,,,,,,,,,,,,,,2,5.3297,,0,0,70,70,58,1,stimuli/stim_20210706_power2amp/equal_lnn_AM3.6Hz_s35_6.m4a,,,,,,,,,,,,
,,,,,,,,,,,,41541,2021-09-22_21h28.02.688,judgeSpeechMusic_20210921_logNormShiftAmp_detection_fixS,2020.1.2,MacIntel,60,,,,,,,,,,,,,,,,,,1,5.5057,,0,0,71,71,5,1,stimuli/stim_20210706_power2amp/equal_lnn_AM0.6Hz_s35_30.m4a,,,,,,,,,,,,
,,,,,,,,,,,,41541,2021-09-22_21h28.02.688,judgeSpeechMusic_20210921_logNormShiftAmp_detection_fixS,2020.1.2,MacIntel,60,,,,,,,,,,,,,,,,,,1,5.4083,,0,0,72,72,10,1,stimuli/stim_20210706_power2amp/equal_lnn_AM0.6Hz_s35_24.m4a,,,,,,,,,,,,
,,,,,,,,,,,,41541,2021-09-22_21h28.02.688,judgeSpeechMusic_20210921_logNormShiftAmp_detection_fixS,2020.1.2,MacIntel,60,,,,,,,,,,,,,,,,,,1,5.3599,,0,0,73,73,24,1,stimuli/stim_20210706_power2amp/equal_lnn_AM1.2Hz_s35_8.m4a,,,,,,,,,,,,
,,,,,,,,,,,,41541,2021-09-22_21h28.02.688,judgeSpeechMusic_20210921_logNormShiftAmp_detection_fixS,2020.1.2,MacIntel,60,,,,,,,,,,,,,,,,,,2,5.5452,,0,0,74,74,15,1,stimuli/stim_20210706_power2amp/equal_lnn_AM1.2Hz_s35_29.m4a,,,,,,,,,,,,
,,,,,,,,,,,,41541,2021-09-22_21h28.02.688,judgeSpeechMusic_20210921_logNormShiftAmp_detection_fixS,2020.1.2,MacIntel,60,,,,,,,,,,,,,,,,,,,,,,,,,,,,,space,0.725,0,0,0,0,1,MUSIC,stimuli/MUSIC.jpg,,
,,,,,,,,,,,,41541,2021-09-22_21h28.02.688,judgeSpeechMusic_20210921_logNormShiftAmp_detection_fixS,2020.1.2,MacIntel,60,space,1.3384,1,6.6262,,0,0,0,0,0,1,stimuli/stim_20210706_power2amp/equal_lnn_AM_training0.9Hz_s35.m4a,,,,,,,,,,,,,,,,,,,,,,,,,,,
,,,,,,,,,,,,41541,2021-09-22_21h28.02.688,judgeSpeechMusic_20210921_logNormShiftAmp_detection_fixS,2020.1.2,MacIntel,60,,,2,5.6731,,0,0,1,1,3,1,stimuli/stim_20210706_power2amp/equal_lnn_AM_training3.9Hz_s35.m4a,,,,,,,,,,,,,,,,,,,,,,,,,,,
,,,,,,,,,,,,41541,2021-09-22_21h28.02.688,judgeSpeechMusic_20210921_logNormShiftAmp_detection_fixS,2020.1.2,MacIntel,60,,,2,5.4896,2,1,0,2,2,2,1,stimuli/stim_20210706_power2amp/equal_lnn_AM_training3Hz_s35.m4a,0.778,,,,,,,,,,,,,,,,,,,,,,,,,,
,,,,,,,,,,,,41541,2021-09-22_21h28.02.688,judgeSpeechMusic_20210921_logNormShiftAmp_detection_fixS,2020.1.2,MacIntel,60,,,2,5.6579,,0,0,3,3,1,1,stimuli/stim_20210706_power2amp/equal_lnn_AM_training1.8Hz_s35.m4a,,,,,,,,,,,,,,,,,,,,,,,,,,,
,,,,,,,,,,,,41541,2021-09-22_21h28.02.688,judgeSpeechMusic_20210921_logNormShiftAmp_detection_fixS,2020.1.2,MacIntel,60,,,,,,,,,,,,,,space,0.8183,space,0.6149,2,5.3033,,0,0,0,0,30,1,stimuli/stim_20210706_power2amp/equal_lnn_AM2.4Hz_s35_16.m4a,,,,,,,,,,,,
,,,,,,,,,,,,41541,2021-09-22_21h28.02.688,judgeSpeechMusic_20210921_logNormShiftAmp_detection_fixS,2020.1.2,MacIntel,60,,,,,,,,,,,,,,,,,,2,5.3425,,0,0,1,1,34,1,stimuli/stim_20210706_power2amp/equal_lnn_AM2.4Hz_s35_13.m4a,,,,,,,,,,,,
,,,,,,,,,,,,41541,2021-09-22_21h28.02.688,judgeSpeechMusic_20210921_logNormShiftAmp_detection_fixS,2020.1.2,MacIntel,60,,,,,,,,,,,,,,,,,,1,5.3903,,0,0,2,2,20,1,stimuli/stim_20210706_power2amp/equal_lnn_AM1.2Hz_s35_20.m4a,,,,,,,,,,,,
,,,,,,,,,,,,41541,2021-09-22_21h28.02.688,judgeSpeechMusic_20210921_logNormShiftAmp_detection_fixS,2020.1.2,MacIntel,60,,,,,,,,,,,,,,,,,,1,5.8421,,0,0,3,3,61,1,stimuli/stim_20210706_power2amp/equal_lnn_AM4.2Hz_s35_36.m4a,,,,,,,,,,,,
,,,,,,,,,,,,41541,2021-09-22_21h28.02.688,judgeSpeechMusic_20210921_logNormShiftAmp_detection_fixS,2020.1.2,MacIntel,60,,,,,,,,,,,,,,,,,,1,8.9652,,0,0,4,4,8,1,stimuli/stim_20210706_power2amp/equal_lnn_AM0.6Hz_s35_18.m4a,,,,,,,,,,,,
,,,,,,,,,,,,41541,2021-09-22_21h28.02.688,judgeSpeechMusic_20210921_logNormShiftAmp_detection_fixS,2020.1.2,MacIntel,60,,,,,,,,,,,,,,,,,,1,7.0205,,0,0,5,5,16,1,stimuli/stim_20210706_power2amp/equal_lnn_AM1.2Hz_s35_35.m4a,,,,,,,,,,,,
,,,,,,,,,,,,41541,2021-09-22_21h28.02.688,judgeSpeechMusic_20210921_logNormShiftAmp_detection_fixS,2020.1.2,MacIntel,60,,,,,,,,,,,,,,,,,,1,6.8191,,0,0,6,6,45,1,stimuli/stim_20210706_power2amp/equal_lnn_AM3.6Hz_s35_23.m4a,,,,,,,,,,,,
,,,,,,,,,,,,41541,2021-09-22_21h28.02.688,judgeSpeechMusic_20210921_logNormShiftAmp_detection_fixS,2020.1.2,MacIntel,60,,,,,,,,,,,,,,,,,,2,6.4273,,0,0,7,7,19,1,stimuli/stim_20210706_power2amp/equal_lnn_AM1.2Hz_s35_38.m4a,,,,,,,,,,,,
,,,,,,,,,,,,41541,2021-09-22_21h28.02.688,judgeSpeechMusic_20210921_logNormShiftAmp_detection_fixS,2020.1.2,MacIntel,60,,,,,,,,,,,,,,,,,,2,5.8917,,0,0,8,8,33,1,stimuli/stim_20210706_power2amp/equal_lnn_AM2.4Hz_s35_11.m4a,,,,,,,,,,,,
,,,,,,,,,,,,41541,2021-09-22_21h28.02.688,judgeSpeechMusic_20210921_logNormShiftAmp_detection_fixS,2020.1.2,MacIntel,60,,,,,,,,,,,,,,,,,,2,5.4928,,0,0,9,9,66,1,stimuli/stim_20210706_power2amp/equal_lnn_AM4.2Hz_s35_12.m4a,,,,,,,,,,,,
,,,,,,,,,,,,41541,2021-09-22_21h28.02.688,judgeSpeechMusic_20210921_logNormShiftAmp_detection_fixS,2020.1.2,MacIntel,60,,,,,,,,,,,,,,,,,,2,5.5586,,0,0,10,10,57,1,stimuli/stim_20210706_power2amp/equal_lnn_AM3.6Hz_s35_22.m4a,,,,,,,,,,,,
,,,,,,,,,,,,41541,2021-09-22_21h28.02.688,judgeSpeechMusic_20210921_logNormShiftAmp_detection_fixS,2020.1.2,MacIntel,60,,,,,,,,,,,,,,,,,,1,5.5914,,0,0,11,11,63,1,stimuli/stim_20210706_power2amp/equal_lnn_AM4.2Hz_s35_41.m4a,,,,,,,,,,,,
,,,,,,,,,,,,41541,2021-09-22_21h28.02.688,judgeSpeechMusic_20210921_logNormShiftAmp_detection_fixS,2020.1.2,MacIntel,60,,,,,,,,,,,,,,,,,,1,5.557,,0,0,12,12,52,1,stimuli/stim_20210706_power2amp/equal_lnn_AM3.6Hz_s35_50.m4a,,,,,,,,,,,,
,,,,,,,,,,,,41541,2021-09-22_21h28.02.688,judgeSpeechMusic_20210921_logNormShiftAmp_detection_fixS,2020.1.2,MacIntel,60,,,,,,,,,,,,,,,,,,2,5.7618,,0,0,13,13,36,1,stimuli/stim_20210706_power2amp/equal_lnn_AM2.4Hz_s35_43.m4a,,,,,,,,,,,,
,,,,,,,,,,,,41541,2021-09-22_21h28.02.688,judgeSpeechMusic_20210921_logNormShiftAmp_detection_fixS,2020.1.2,MacIntel,60,,,,,,,,,,,,,,,,,,2,5.7412,,0,0,14,14,48,1,stimuli/stim_20210706_power2amp/equal_lnn_AM3.6Hz_s35_1.m4a,,,,,,,,,,,,
,,,,,,,,,,,,41541,2021-09-22_21h28.02.688,judgeSpeechMusic_20210921_logNormShiftAmp_detection_fixS,2020.1.2,MacIntel,60,,,,,,,,,,,,,,,,,,1,7.2437,,0,0,15,15,17,1,stimuli/stim_20210706_power2amp/equal_lnn_AM1.2Hz_s35_46.m4a,,,,,,,,,,,,
,,,,,,,,,,,,41541,2021-09-22_21h28.02.688,judgeSpeechMusic_20210921_logNormShiftAmp_detection_fixS,2020.1.2,MacIntel,60,,,,,,,,,,,,,,,,,,1,7.3413,,0,0,16,16,10,1,stimuli/stim_20210706_power2amp/equal_lnn_AM0.6Hz_s35_24.m4a,,,,,,,,,,,,
,,,,,,,,,,,,41541,2021-09-22_21h28.02.688,judgeSpeechMusic_20210921_logNormShiftAmp_detection_fixS,2020.1.2,MacIntel,60,,,,,,,,,,,,,,,,,,1,7.6403,,0,0,17,17,65,1,stimuli/stim_20210706_power2amp/equal_lnn_AM4.2Hz_s35_25.m4a,,,,,,,,,,,,
,,,,,,,,,,,,41541,2021-09-22_21h28.02.688,judgeSpeechMusic_20210921_logNormShiftAmp_detection_fixS,2020.1.2,MacIntel,60,,,,,,,,,,,,,,,,,,2,8.3266,,0,0,18,18,68,1,stimuli/stim_20210706_power2amp/equal_lnn_AM4.2Hz_s35_35.m4a,,,,,,,,,,,,
,,,,,,,,,,,,41541,2021-09-22_21h28.02.688,judgeSpeechMusic_20210921_logNormShiftAmp_detection_fixS,2020.1.2,MacIntel,60,,,,,,,,,,,,,,,,,,2,7.9912,,0,0,19,19,26,1,stimuli/stim_20210706_power2amp/equal_lnn_AM1.2Hz_s35_25.m4a,,,,,,,,,,,,
,,,,,,,,,,,,41541,2021-09-22_21h28.02.688,judgeSpeechMusic_20210921_logNormShiftAmp_detection_fixS,2020.1.2,MacIntel,60,,,,,,,,,,,,,,,,,,2,5.8094,,0,0,20,20,40,1,stimuli/stim_20210706_power2amp/equal_lnn_AM2.4Hz_s35_4.m4a,,,,,,,,,,,,
,,,,,,,,,,,,41541,2021-09-22_21h28.02.688,judgeSpeechMusic_20210921_logNormShiftAmp_detection_fixS,2020.1.2,MacIntel,60,,,,,,,,,,,,,,,,,,2,5.3271,,0,0,21,21,55,1,stimuli/stim_20210706_power2amp/equal_lnn_AM3.6Hz_s35_16.m4a,,,,,,,,,,,,
,,,,,,,,,,,,41541,2021-09-22_21h28.02.688,judgeSpeechMusic_20210921_logNormShiftAmp_detection_fixS,2020.1.2,MacIntel,60,,,,,,,,,,,,,,,,,,2,5.4231,2,1,0,22,22,58,1,stimuli/stim_20210706_power2amp/equal_lnn_AM3.6Hz_s35_6.m4a,0.7782,,,,,,,,,,,
,,,,,,,,,,,,41541,2021-09-22_21h28.02.688,judgeSpeechMusic_20210921_logNormShiftAmp_detection_fixS,2020.1.2,MacIntel,60,,,,,,,,,,,,,,,,,,1,6.4923,,0,0,23,23,4,1,stimuli/stim_20210706_power2amp/equal_lnn_AM0.6Hz_s35_8.m4a,,,,,,,,,,,,
,,,,,,,,,,,,41541,2021-09-22_21h28.02.688,judgeSpeechMusic_20210921_logNormShiftAmp_detection_fixS,2020.1.2,MacIntel,60,,,,,,,,,,,,,,,,,,2,5.5442,,0,0,24,24,44,1,stimuli/stim_20210706_power2amp/equal_lnn_AM2.4Hz_s35_10.m4a,,,,,,,,,,,,
,,,,,,,,,,,,41541,2021-09-22_21h28.02.688,judgeSpeechMusic_20210921_logNormShiftAmp_detection_fixS,2020.1.2,MacIntel,60,,,,,,,,,,,,,,,,,,2,5.6638,,0,0,25,25,42,1,stimuli/stim_20210706_power2amp/equal_lnn_AM2.4Hz_s35_29.m4a,,,,,,,,,,,,
,,,,,,,,,,,,41541,2021-09-22_21h28.02.688,judgeSpeechMusic_20210921_logNormShiftAmp_detection_fixS,2020.1.2,MacIntel,60,,,,,,,,,,,,,,,,,,1,6.3258,,0,0,26,26,28,1,stimuli/stim_20210706_power2amp/equal_lnn_AM1.2Hz_s35_3.m4a,,,,,,,,,,,,
,,,,,,,,,,,,41541,2021-09-22_21h28.02.688,judgeSpeechMusic_20210921_logNormShiftAmp_detection_fixS,2020.1.2,MacIntel,60,,,,,,,,,,,,,,,,,,1,9.5948,,0,0,27,27,7,1,stimuli/stim_20210706_power2amp/equal_lnn_AM0.6Hz_s35_21.m4a,,,,,,,,,,,,
,,,,,,,,,,,,41541,2021-09-22_21h28.02.688,judgeSpeechMusic_20210921_logNormShiftAmp_detection_fixS,2020.1.2,MacIntel,60,,,,,,,,,,,,,,,,,,1,6.3597,,0,0,28,28,23,1,stimuli/stim_20210706_power2amp/equal_lnn_AM1.2Hz_s35_27.m4a,,,,,,,,,,,,
,,,,,,,,,,,,41541,2021-09-22_21h28.02.688,judgeSpeechMusic_20210921_logNormShiftAmp_detection_fixS,2020.1.2,MacIntel,60,,,,,,,,,,,,,,,,,,1,5.3433,,0,0,29,29,0,1,stimuli/stim_20210706_power2amp/equal_lnn_AM0.6Hz_s35_7.m4a,,,,,,,,,,,,
,,,,,,,,,,,,41541,2021-09-22_21h28.02.688,judgeSpeechMusic_20210921_logNormShiftAmp_detection_fixS,2020.1.2,MacIntel,60,,,,,,,,,,,,,,,,,,1,6.5588,,0,0,30,30,3,1,stimuli/stim_20210706_power2amp/equal_lnn_AM0.6Hz_s35_45.m4a,,,,,,,,,,,,
,,,,,,,,,,,,41541,2021-09-22_21h28.02.688,judgeSpeechMusic_20210921_logNormShiftAmp_detection_fixS,2020.1.2,MacIntel,60,,,,,,,,,,,,,,,,,,2,6.1443,,0,0,31,31,53,1,stimuli/stim_20210706_power2amp/equal_lnn_AM3.6Hz_s35_15.m4a,,,,,,,,,,,,
,,,,,,,,,,,,41541,2021-09-22_21h28.02.688,judgeSpeechMusic_20210921_logNormShiftAmp_detection_fixS,2020.1.2,MacIntel,60,,,,,,,,,,,,,,,,,,1,6.7914,,0,0,32,32,6,1,stimuli/stim_20210706_power2amp/equal_lnn_AM0.6Hz_s35_25.m4a,,,,,,,,,,,,
,,,,,,,,,,,,41541,2021-09-22_21h28.02.688,judgeSpeechMusic_20210921_logNormShiftAmp_detection_fixS,2020.1.2,MacIntel,60,,,,,,,,,,,,,,,,,,2,6.5396,,0,0,33,33,15,1,stimuli/stim_20210706_power2amp/equal_lnn_AM1.2Hz_s35_29.m4a,,,,,,,,,,,,
,,,,,,,,,,,,41541,2021-09-22_21h28.02.688,judgeSpeechMusic_20210921_logNormShiftAmp_detection_fixS,2020.1.2,MacIntel,60,,,,,,,,,,,,,,,,,,2,5.6914,,0,0,34,34,71,1,stimuli/stim_20210706_power2amp/equal_lnn_AM4.2Hz_s35_39.m4a,,,,,,,,,,,,
,,,,,,,,,,,,41541,2021-09-22_21h28.02.688,judgeSpeechMusic_20210921_logNormShiftAmp_detection_fixS,2020.1.2,MacIntel,60,,,,,,,,,,,,,,,,,,2,6.2256,,0,0,35,35,59,1,stimuli/stim_20210706_power2amp/equal_lnn_AM3.6Hz_s35_21.m4a,,,,,,,,,,,,
,,,,,,,,,,,,41541,2021-09-22_21h28.02.688,judgeSpeechMusic_20210921_logNormShiftAmp_detection_fixS,2020.1.2,MacIntel,60,,,,,,,,,,,,,,,,,,2,5.9118,,0,0,36,36,56,1,stimuli/stim_20210706_power2amp/equal_lnn_AM3.6Hz_s35_18.m4a,,,,,,,,,,,,
,,,,,,,,,,,,41541,2021-09-22_21h28.02.688,judgeSpeechMusic_20210921_logNormShiftAmp_detection_fixS,2020.1.2,MacIntel,60,,,,,,,,,,,,,,,,,,2,6.4778,,0,0,37,37,46,1,stimuli/stim_20210706_power2amp/equal_lnn_AM3.6Hz_s35_4.m4a,,,,,,,,,,,,
,,,,,,,,,,,,41541,2021-09-22_21h28.02.688,judgeSpeechMusic_20210921_logNormShiftAmp_detection_fixS,2020.1.2,MacIntel,60,,,,,,,,,,,,,,,,,,2,6.5912,,0,0,38,38,50,1,stimuli/stim_20210706_power2amp/equal_lnn_AM3.6Hz_s35_29.m4a,,,,,,,,,,,,
,,,,,,,,,,,,41541,2021-09-22_21h28.02.688,judgeSpeechMusic_20210921_logNormShiftAmp_detection_fixS,2020.1.2,MacIntel,60,,,,,,,,,,,,,,,,,,2,5.2594,,0,0,39,39,39,1,stimuli/stim_20210706_power2amp/equal_lnn_AM2.4Hz_s35_24.m4a,,,,,,,,,,,,
,,,,,,,,,,,,41541,2021-09-22_21h28.02.688,judgeSpeechMusic_20210921_logNormShiftAmp_detection_fixS,2020.1.2,MacIntel,60,,,,,,,,,,,,,,,,,,2,5.3261,,0,0,40,40,31,1,stimuli/stim_20210706_power2amp/equal_lnn_AM2.4Hz_s35_37.m4a,,,,,,,,,,,,
,,,,,,,,,,,,41541,2021-09-22_21h28.02.688,judgeSpeechMusic_20210921_logNormShiftAmp_detection_fixS,2020.1.2,MacIntel,60,,,,,,,,,,,,,,,,,,1,5.7757,,0,0,41,41,49,1,stimuli/stim_20210706_power2amp/equal_lnn_AM3.6Hz_s35_39.m4a,,,,,,,,,,,,
,,,,,,,,,,,,41541,2021-09-22_21h28.02.688,judgeSpeechMusic_20210921_logNormShiftAmp_detection_fixS,2020.1.2,MacIntel,60,,,,,,,,,,,,,,,,,,1,5.4282,3,1,0,42,42,21,1,stimuli/stim_20210706_power2amp/equal_lnn_AM1.2Hz_s35_10.m4a,0.7456,,,,,,,,,,,
,,,,,,,,,,,,41541,2021-09-22_21h28.02.688,judgeSpeechMusic_20210921_logNormShiftAmp_detection_fixS,2020.1.2,MacIntel,60,,,,,,,,,,,,,,,,,,1,5.307,,0,0,43,43,14,1,stimuli/stim_20210706_power2amp/equal_lnn_AM0.6Hz_s35_37.m4a,,,,,,,,,,,,
,,,,,,,,,,,,41541,2021-09-22_21h28.02.688,judgeSpeechMusic_20210921_logNormShiftAmp_detection_fixS,2020.1.2,MacIntel,60,,,,,,,,,,,,,,,,,,2,5.7609,,0,0,44,44,35,1,stimuli/stim_20210706_power2amp/equal_lnn_AM2.4Hz_s35_39.m4a,,,,,,,,,,,,
,,,,,,,,,,,,41541,2021-09-22_21h28.02.688,judgeSpeechMusic_20210921_logNormShiftAmp_detection_fixS,2020.1.2,MacIntel,60,,,,,,,,,,,,,,,,,,1,5.9246,,0,0,45,45,2,1,stimuli/stim_20210706_power2amp/equal_lnn_AM0.6Hz_s35_33.m4a,,,,,,,,,,,,
,,,,,,,,,,,,41541,2021-09-22_21h28.02.688,judgeSpeechMusic_20210921_logNormShiftAmp_detection_fixS,2020.1.2,MacIntel,60,,,,,,,,,,,,,,,,,,1,5.2918,,0,0,46,46,64,1,stimuli/stim_20210706_power2amp/equal_lnn_AM4.2Hz_s35_30.m4a,,,,,,,,,,,,
,,,,,,,,,,,,41541,2021-09-22_21h28.02.688,judgeSpeechMusic_20210921_logNormShiftAmp_detection_fixS,2020.1.2,MacIntel,60,,,,,,,,,,,,,,,,,,1,5.4565,,0,0,47,47,25,1,stimuli/stim_20210706_power2amp/equal_lnn_AM1.2Hz_s35_47.m4a,,,,,,,,,,,,
,,,,,,,,,,,,41541,2021-09-22_21h28.02.688,judgeSpeechMusic_20210921_logNormShiftAmp_detection_fixS,2020.1.2,MacIntel,60,,,,,,,,,,,,,,,,,,2,5.8109,,0,0,48,48,41,1,stimuli/stim_20210706_power2amp/equal_lnn_AM2.4Hz_s35_8.m4a,,,,,,,,,,,,
,,,,,,,,,,,,41541,2021-09-22_21h28.02.688,judgeSpeechMusic_20210921_logNormShiftAmp_detection_fixS,2020.1.2,MacIntel,60,,,,,,,,,,,,,,,,,,2,5.3917,,0,0,49,49,54,1,stimuli/stim_20210706_power2amp/equal_lnn_AM3.6Hz_s35_44.m4a,,,,,,,,,,,,
,,,,,,,,,,,,41541,2021-09-22_21h28.02.688,judgeSpeechMusic_20210921_logNormShiftAmp_detection_fixS,2020.1.2,MacIntel,60,,,,,,,,,,,,,,,,,,1,5.2598,,0,0,50,50,74,1,stimuli/stim_20210706_power2amp/equal_lnn_AM4.2Hz_s35_19.m4a,,,,,,,,,,,,
,,,,,,,,,,,,41541,2021-09-22_21h28.02.688,judgeSpeechMusic_20210921_logNormShiftAmp_detection_fixS,2020.1.2,MacIntel,60,,,,,,,,,,,,,,,,,,1,5.3444,,0,0,51,51,11,1,stimuli/stim_20210706_power2amp/equal_lnn_AM0.6Hz_s35_22.m4a,,,,,,,,,,,,
,,,,,,,,,,,,41541,2021-09-22_21h28.02.688,judgeSpeechMusic_20210921_logNormShiftAmp_detection_fixS,2020.1.2,MacIntel,60,,,,,,,,,,,,,,,,,,1,5.9116,,0,0,52,52,62,1,stimuli/stim_20210706_power2amp/equal_lnn_AM4.2Hz_s35_32.m4a,,,,,,,,,,,,
,,,,,,,,,,,,41541,2021-09-22_21h28.02.688,judgeSpeechMusic_20210921_logNormShiftAmp_detection_fixS,2020.1.2,MacIntel,60,,,,,,,,,,,,,,,,,,2,5.5419,,0,0,53,53,69,1,stimuli/stim_20210706_power2amp/equal_lnn_AM4.2Hz_s35_26.m4a,,,,,,,,,,,,
,,,,,,,,,,,,41541,2021-09-22_21h28.02.688,judgeSpeechMusic_20210921_logNormShiftAmp_detection_fixS,2020.1.2,MacIntel,60,,,,,,,,,,,,,,,,,,2,5.3587,,0,0,54,54,73,1,stimuli/stim_20210706_power2amp/equal_lnn_AM4.2Hz_s35_23.m4a,,,,,,,,,,,,
,,,,,,,,,,,,41541,2021-09-22_21h28.02.688,judgeSpeechMusic_20210921_logNormShiftAmp_detection_fixS,2020.1.2,MacIntel,60,,,,,,,,,,,,,,,,,,1,7.0753,,0,0,55,55,18,1,stimuli/stim_20210706_power2amp/equal_lnn_AM1.2Hz_s35_50.m4a,,,,,,,,,,,,
,,,,,,,,,,,,41541,2021-09-22_21h28.02.688,judgeSpeechMusic_20210921_logNormShiftAmp_detection_fixS,2020.1.2,MacIntel,60,,,,,,,,,,,,,,,,,,2,5.8576,,0,0,56,56,72,1,stimuli/stim_20210706_power2amp/equal_lnn_AM4.2Hz_s35_18.m4a,,,,,,,,,,,,
,,,,,,,,,,,,41541,2021-09-22_21h28.02.688,judgeSpeechMusic_20210921_logNormShiftAmp_detection_fixS,2020.1.2,MacIntel,60,,,,,,,,,,,,,,,,,,2,5.5113,,0,0,57,57,37,1,stimuli/stim_20210706_power2amp/equal_lnn_AM2.4Hz_s35_17.m4a,,,,,,,,,,,,
,,,,,,,,,,,,41541,2021-09-22_21h28.02.688,judgeSpeechMusic_20210921_logNormShiftAmp_detection_fixS,2020.1.2,MacIntel,60,,,,,,,,,,,,,,,,,,2,5.2411,,0,0,58,58,38,1,stimuli/stim_20210706_power2amp/equal_lnn_AM2.4Hz_s35_21.m4a,,,,,,,,,,,,
,,,,,,,,,,,,41541,2021-09-22_21h28.02.688,judgeSpeechMusic_20210921_logNormShiftAmp_detection_fixS,2020.1.2,MacIntel,60,,,,,,,,,,,,,,,,,,2,6.1583,,0,0,59,59,51,1,stimuli/stim_20210706_power2amp/equal_lnn_AM3.6Hz_s35_49.m4a,,,,,,,,,,,,
,,,,,,,,,,,,41541,2021-09-22_21h28.02.688,judgeSpeechMusic_20210921_logNormShiftAmp_detection_fixS,2020.1.2,MacIntel,60,,,,,,,,,,,,,,,,,,1,5.394,3,1,0,60,60,43,1,stimuli/stim_20210706_power2amp/equal_lnn_AM2.4Hz_s35_3.m4a,0.4313,,,,,,,,,,,
,,,,,,,,,,,,41541,2021-09-22_21h28.02.688,judgeSpeechMusic_20210921_logNormShiftAmp_detection_fixS,2020.1.2,MacIntel,60,,,,,,,,,,,,,,,,,,1,5.3228,,0,0,61,61,70,1,stimuli/stim_20210706_power2amp/equal_lnn_AM4.2Hz_s35_3.m4a,,,,,,,,,,,,
,,,,,,,,,,,,41541,2021-09-22_21h28.02.688,judgeSpeechMusic_20210921_logNormShiftAmp_detection_fixS,2020.1.2,MacIntel,60,,,,,,,,,,,,,,,,,,1,5.3248,,0,0,62,62,29,1,stimuli/stim_20210706_power2amp/equal_lnn_AM1.2Hz_s35_32.m4a,,,,,,,,,,,,
,,,,,,,,,,,,41541,2021-09-22_21h28.02.688,judgeSpeechMusic_20210921_logNormShiftAmp_detection_fixS,2020.1.2,MacIntel,60,,,,,,,,,,,,,,,,,,2,5.2747,,0,0,63,63,47,1,stimuli/stim_20210706_power2amp/equal_lnn_AM3.6Hz_s35_13.m4a,,,,,,,,,,,,
,,,,,,,,,,,,41541,2021-09-22_21h28.02.688,judgeSpeechMusic_20210921_logNormShiftAmp_detection_fixS,2020.1.2,MacIntel,60,,,,,,,,,,,,,,,,,,1,5.5918,,0,0,64,64,13,1,stimuli/stim_20210706_power2amp/equal_lnn_AM0.6Hz_s35_48.m4a,,,,,,,,,,,,
,,,,,,,,,,,,41541,2021-09-22_21h28.02.688,judgeSpeechMusic_20210921_logNormShiftAmp_detection_fixS,2020.1.2,MacIntel,60,,,,,,,,,,,,,,,,,,1,5.5455,,0,0,65,65,27,1,stimuli/stim_20210706_power2amp/equal_lnn_AM1.2Hz_s35_41.m4a,,,,,,,,,,,,
,,,,,,,,,,,,41541,2021-09-22_21h28.02.688,judgeSpeechMusic_20210921_logNormShiftAmp_detection_fixS,2020.1.2,MacIntel,60,,,,,,,,,,,,,,,,,,1,5.3269,,0,0,66,66,12,1,stimuli/stim_20210706_power2amp/equal_lnn_AM0.6Hz_s35_40.m4a,,,,,,,,,,,,
,,,,,,,,,,,,41541,2021-09-22_21h28.02.688,judgeSpeechMusic_20210921_logNormShiftAmp_detection_fixS,2020.1.2,MacIntel,60,,,,,,,,,,,,,,,,,,1,5.4243,,0,0,67,67,24,1,stimuli/stim_20210706_power2amp/equal_lnn_AM1.2Hz_s35_8.m4a,,,,,,,,,,,,
,,,,,,,,,,,,41541,2021-09-22_21h28.02.688,judgeSpeechMusic_20210921_logNormShiftAmp_detection_fixS,2020.1.2,MacIntel,60,,,,,,,,,,,,,,,,,,1,5.4582,,0,0,68,68,60,1,stimuli/stim_20210706_power2amp/equal_lnn_AM4.2Hz_s35_42.m4a,,,,,,,,,,,,
,,,,,,,,,,,,41541,2021-09-22_21h28.02.688,judgeSpeechMusic_20210921_logNormShiftAmp_detection_fixS,2020.1.2,MacIntel,60,,,,,,,,,,,,,,,,,,1,5.2264,,0,0,69,69,5,1,stimuli/stim_20210706_power2amp/equal_lnn_AM0.6Hz_s35_30.m4a,,,,,,,,,,,,
,,,,,,,,,,,,41541,2021-09-22_21h28.02.688,judgeSpeechMusic_20210921_logNormShiftAmp_detection_fixS,2020.1.2,MacIntel,60,,,,,,,,,,,,,,,,,,2,5.2782,,0,0,70,70,67,1,stimuli/stim_20210706_power2amp/equal_lnn_AM4.2Hz_s35_13.m4a,,,,,,,,,,,,
,,,,,,,,,,,,41541,2021-09-22_21h28.02.688,judgeSpeechMusic_20210921_logNormShiftAmp_detection_fixS,2020.1.2,MacIntel,60,,,,,,,,,,,,,,,,,,1,5.2619,,0,0,71,71,9,1,stimuli/stim_20210706_power2amp/equal_lnn_AM0.6Hz_s35_44.m4a,,,,,,,,,,,,
,,,,,,,,,,,,41541,2021-09-22_21h28.02.688,judgeSpeechMusic_20210921_logNormShiftAmp_detection_fixS,2020.1.2,MacIntel,60,,,,,,,,,,,,,,,,,,2,5.31,,0,0,72,72,32,1,stimuli/stim_20210706_power2amp/equal_lnn_AM2.4Hz_s35_28.m4a,,,,,,,,,,,,
,,,,,,,,,,,,41541,2021-09-22_21h28.02.688,judgeSpeechMusic_20210921_logNormShiftAmp_detection_fixS,2020.1.2,MacIntel,60,,,,,,,,,,,,,,,,,,1,5.2739,,0,0,73,73,1,1,stimuli/stim_20210706_power2amp/equal_lnn_AM0.6Hz_s35_34.m4a,,,,,,,,,,,,
,,,,,,,,,,,,41541,2021-09-22_21h28.02.688,judgeSpeechMusic_20210921_logNormShiftAmp_detection_fixS,2020.1.2,MacIntel,60,,,,,,,,,,,,,,,,,,2,5.5439,,0,0,74,74,22,1,stimuli/stim_20210706_power2amp/equal_lnn_AM1.2Hz_s35_26.m4a,,,,,,,,,,,,
,,,,,,,,,,,,41541,2021-09-22_21h28.02.688,judgeSpeechMusic_20210921_logNormShiftAmp_detection_fixS,2020.1.2,MacIntel,60,,,,,,,,,,,,,,,,,,,,,,,,,,,,,space,0.4294,0,1,1,1,1,SPEECH,stimuli/SPEECH.jpg,,
,,,,,,,,,,,,41541,2021-09-22_21h28.02.688,judgeSpeechMusic_20210921_logNormShiftAmp_detection_fixS,2020.1.2,MacIntel,60,,,,,,0,0,0,0,0,1,stimuli/stim_20210706_power2amp/equal_lnn_AM_training0.9Hz_s35.m4a,,,,,,,,,,,,,,,,,,,,,,,,,,,
,,,,,,,,,,,,41541,2021-09-22_21h28.02.688,judgeSpeechMusic_20210921_logNormShiftAmp_detection_fixS,2020.1.2,MacIntel,60,,,,,,,,,,,,,,space,7.8798,space,0.5347,2,7.1391,,0,0,0,0,33,1,stimuli/stim_20210706_power2amp/equal_lnn_AM2.4Hz_s35_11.m4a,,,,,,,,,,,,
,,,,,,,,,,,,41541,2021-09-22_21h28.02.688,judgeSpeechMusic_20210921_logNormShiftAmp_detection_fixS,2020.1.2,MacIntel,60,,,,,,,,,,,,,,,,,,2,5.6069,,0,0,1,1,29,1,stimuli/stim_20210706_power2amp/equal_lnn_AM1.2Hz_s35_32.m4a,,,,,,,,,,,,
,,,,,,,,,,,,41541,2021-09-22_21h28.02.688,judgeSpeechMusic_20210921_logNormShiftAmp_detection_fixS,2020.1.2,MacIntel,60,,,,,,,,,,,,,,,,,,1,5.4906,,0,0,2,2,40,1,stimuli/stim_20210706_power2amp/equal_lnn_AM2.4Hz_s35_4.m4a,,,,,,,,,,,,
,,,,,,,,,,,,41541,2021-09-22_21h28.02.688,judgeSpeechMusic_20210921_logNormShiftAmp_detection_fixS,2020.1.2,MacIntel,60,,,,,,,,,,,,,,,,,,2,5.3937,,0,0,3,3,62,1,stimuli/stim_20210706_power2amp/equal_lnn_AM4.2Hz_s35_32.m4a,,,,,,,,,,,,
,,,,,,,,,,,,41541,2021-09-22_21h28.02.688,judgeSpeechMusic_20210921_logNormShiftAmp_detection_fixS,2020.1.2,MacIntel,60,,,,,,,,,,,,,,,,,,2,5.4734,,0,0,4,4,10,1,stimuli/stim_20210706_power2amp/equal_lnn_AM0.6Hz_s35_24.m4a,,,,,,,,,,,,
,,,,,,,,,,,,41541,2021-09-22_21h28.02.688,judgeSpeechMusic_20210921_logNormShiftAmp_detection_fixS,2020.1.2,MacIntel,60,,,,,,,,,,,,,,,,,,2,5.4307,,0,0,5,5,9,1,stimuli/stim_20210706_power2amp/equal_lnn_AM0.6Hz_s35_44.m4a,,,,,,,,,,,,
,,,,,,,,,,,,41541,2021-09-22_21h28.02.688,judgeSpeechMusic_20210921_logNormShiftAmp_detection_fixS,2020.1.2,MacIntel,60,,,,,,,,,,,,,,,,,,2,5.426,,0,0,6,6,5,1,stimuli/stim_20210706_power2amp/equal_lnn_AM0.6Hz_s35_30.m4a,,,,,,,,,,,,
,,,,,,,,,,,,41541,2021-09-22_21h28.02.688,judgeSpeechMusic_20210921_logNormShiftAmp_detection_fixS,2020.1.2,MacIntel,60,,,,,,,,,,,,,,,,,,2,5.575,,0,0,7,7,26,1,stimuli/stim_20210706_power2amp/equal_lnn_AM1.2Hz_s35_25.m4a,,,,,,,,,,,,
,,,,,,,,,,,,41541,2021-09-22_21h28.02.688,judgeSpeechMusic_20210921_logNormShiftAmp_detection_fixS,2020.1.2,MacIntel,60,,,,,,,,,,,,,,,,,,2,5.5734,,0,0,8,8,69,1,stimuli/stim_20210706_power2amp/equal_lnn_AM4.2Hz_s35_26.m4a,,,,,,,,,,,,
,,,,,,,,,,,,41541,2021-09-22_21h28.02.688,judgeSpeechMusic_20210921_logNormShiftAmp_detection_fixS,2020.1.2,MacIntel,60,,,,,,,,,,,,,,,,,,2,5.6248,,0,0,9,9,6,1,stimuli/stim_20210706_power2amp/equal_lnn_AM0.6Hz_s35_25.m4a,,,,,,,,,,,,
,,,,,,,,,,,,41541,2021-09-22_21h28.02.688,judgeSpeechMusic_20210921_logNormShiftAmp_detection_fixS,2020.1.2,MacIntel,60,,,,,,,,,,,,,,,,,,2,6.4093,,0,0,10,10,24,1,stimuli/stim_20210706_power2amp/equal_lnn_AM1.2Hz_s35_8.m4a,,,,,,,,,,,,
,,,,,,,,,,,,41541,2021-09-22_21h28.02.688,judgeSpeechMusic_20210921_logNormShiftAmp_detection_fixS,2020.1.2,MacIntel,60,,,,,,,,,,,,,,,,,,2,5.741,,0,0,11,11,18,1,stimuli/stim_20210706_power2amp/equal_lnn_AM1.2Hz_s35_50.m4a,,,,,,,,,,,,
,,,,,,,,,,,,41541,2021-09-22_21h28.02.688,judgeSpeechMusic_20210921_logNormShiftAmp_detection_fixS,2020.1.2,MacIntel,60,,,,,,,,,,,,,,,,,,2,6.0736,,0,0,12,12,17,1,stimuli/stim_20210706_power2amp/equal_lnn_AM1.2Hz_s35_46.m4a,,,,,,,,,,,,
,,,,,,,,,,,,41541,2021-09-22_21h28.02.688,judgeSpeechMusic_20210921_logNormShiftAmp_detection_fixS,2020.1.2,MacIntel,60,,,,,,,,,,,,,,,,,,2,5.4071,,0,0,13,13,58,1,stimuli/stim_20210706_power2amp/equal_lnn_AM3.6Hz_s35_6.m4a,,,,,,,,,,,,
,,,,,,,,,,,,41541,2021-09-22_21h28.02.688,judgeSpeechMusic_20210921_logNormShiftAmp_detection_fixS,2020.1.2,MacIntel,60,,,,,,,,,,,,,,,,,,1,5.7406,,0,0,14,14,39,1,stimuli/stim_20210706_power2amp/equal_lnn_AM2.4Hz_s35_24.m4a,,,,,,,,,,,,
,,,,,,,,,,,,41541,2021-09-22_21h28.02.688,judgeSpeechMusic_20210921_logNormShiftAmp_detection_fixS,2020.1.2,MacIntel,60,,,,,,,,,,,,,,,,,,1,5.5601,,0,0,15,15,42,1,stimuli/stim_20210706_power2amp/equal_lnn_AM2.4Hz_s35_29.m4a,,,,,,,,,,,,
,,,,,,,,,,,,41541,2021-09-22_21h28.02.688,judgeSpeechMusic_20210921_logNormShiftAmp_detection_fixS,2020.1.2,MacIntel,60,,,,,,,,,,,,,,,,,,2,5.5392,,0,0,16,16,36,1,stimuli/stim_20210706_power2amp/equal_lnn_AM2.4Hz_s35_43.m4a,,,,,,,,,,,,
,,,,,,,,,,,,41541,2021-09-22_21h28.02.688,judgeSpeechMusic_20210921_logNormShiftAmp_detection_fixS,2020.1.2,MacIntel,60,,,,,,,,,,,,,,,,,,2,6.2615,,0,0,17,17,37,1,stimuli/stim_20210706_power2amp/equal_lnn_AM2.4Hz_s35_17.m4a,,,,,,,,,,,,
,,,,,,,,,,,,41541,2021-09-22_21h28.02.688,judgeSpeechMusic_20210921_logNormShiftAmp_detection_fixS,2020.1.2,MacIntel,60,,,,,,,,,,,,,,,,,,1,5.9921,,0,0,18,18,22,1,stimuli/stim_20210706_power2amp/equal_lnn_AM1.2Hz_s35_26.m4a,,,,,,,,,,,,
,,,,,,,,,,,,41541,2021-09-22_21h28.02.688,judgeSpeechMusic_20210921_logNormShiftAmp_detection_fixS,2020.1.2,MacIntel,60,,,,,,,,,,,,,,,,,,1,6.0426,,0,0,19,19,30,1,stimuli/stim_20210706_power2amp/equal_lnn_AM2.4Hz_s35_16.m4a,,,,,,,,,,,,
,,,,,,,,,,,,41541,2021-09-22_21h28.02.688,judgeSpeechMusic_20210921_logNormShiftAmp_detection_fixS,2020.1.2,MacIntel,60,,,,,,,,,,,,,,,,,,1,5.8557,,0,0,20,20,74,1,stimuli/stim_20210706_power2amp/equal_lnn_AM4.2Hz_s35_19.m4a,,,,,,,,,,,,
,,,,,,,,,,,,41541,2021-09-22_21h28.02.688,judgeSpeechMusic_20210921_logNormShiftAmp_detection_fixS,2020.1.2,MacIntel,60,,,,,,,,,,,,,,,,,,2,6.5756,,0,0,21,21,54,1,stimuli/stim_20210706_power2amp/equal_lnn_AM3.6Hz_s35_44.m4a,,,,,,,,,,,,
,,,,,,,,,,,,41541,2021-09-22_21h28.02.688,judgeSpeechMusic_20210921_logNormShiftAmp_detection_fixS,2020.1.2,MacIntel,60,,,,,,,,,,,,,,,,,,2,7.0628,4,1,0,22,22,48,1,stimuli/stim_20210706_power2amp/equal_lnn_AM3.6Hz_s35_1.m4a,0.3972,,,,,,,,,,,
,,,,,,,,,,,,41541,2021-09-22_21h28.02.688,judgeSpeechMusic_20210921_logNormShiftAmp_detection_fixS,2020.1.2,MacIntel,60,,,,,,,,,,,,,,,,,,1,7.0773,,0,0,23,23,61,1,stimuli/stim_20210706_power2amp/equal_lnn_AM4.2Hz_s35_36.m4a,,,,,,,,,,,,
,,,,,,,,,,,,41541,2021-09-22_21h28.02.688,judgeSpeechMusic_20210921_logNormShiftAmp_detection_fixS,2020.1.2,MacIntel,60,,,,,,,,,,,,,,,,,,2,5.9753,,0,0,24,24,59,1,stimuli/stim_20210706_power2amp/equal_lnn_AM3.6Hz_s35_21.m4a,,,,,,,,,,,,
,,,,,,,,,,,,41541,2021-09-22_21h28.02.688,judgeSpeechMusic_20210921_logNormShiftAmp_detection_fixS,2020.1.2,MacIntel,60,,,,,,,,,,,,,,,,,,2,6.0091,,0,0,25,25,11,1,stimuli/stim_20210706_power2amp/equal_lnn_AM0.6Hz_s35_22.m4a,,,,,,,,,,,,
,,,,,,,,,,,,41541,2021-09-22_21h28.02.688,judgeSpeechMusic_20210921_logNormShiftAmp_detection_fixS,2020.1.2,MacIntel,60,,,,,,,,,,,,,,,,,,2,6.7131,,0,0,26,26,2,1,stimuli/stim_20210706_power2amp/equal_lnn_AM0.6Hz_s35_33.m4a,,,,,,,,,,,,
,,,,,,,,,,,,41541,2021-09-22_21h28.02.688,judgeSpeechMusic_20210921_logNormShiftAmp_detection_fixS,2020.1.2,MacIntel,60,,,,,,,,,,,,,,,,,,2,7.0398,,0,0,27,27,56,1,stimuli/stim_20210706_power2amp/equal_lnn_AM3.6Hz_s35_18.m4a,,,,,,,,,,,,
,,,,,,,,,,,,41541,2021-09-22_21h28.02.688,judgeSpeechMusic_20210921_logNormShiftAmp_detection_fixS,2020.1.2,MacIntel,60,,,,,,,,,,,,,,,,,,2,6.6757,,0,0,28,28,45,1,stimuli/stim_20210706_power2amp/equal_lnn_AM3.6Hz_s35_23.m4a,,,,,,,,,,,,
,,,,,,,,,,,,41541,2021-09-22_21h28.02.688,judgeSpeechMusic_20210921_logNormShiftAmp_detection_fixS,2020.1.2,MacIntel,60,,,,,,,,,,,,,,,,,,1,6.6078,,0,0,29,29,23,1,stimuli/stim_20210706_power2amp/equal_lnn_AM1.2Hz_s35_27.m4a,,,,,,,,,,,,
,,,,,,,,,,,,41541,2021-09-22_21h28.02.688,judgeSpeechMusic_20210921_logNormShiftAmp_detection_fixS,2020.1.2,MacIntel,60,,,,,,,,,,,,,,,,,,1,6.2221,,0,0,30,30,32,1,stimuli/stim_20210706_power2amp/equal_lnn_AM2.4Hz_s35_28.m4a,,,,,,,,,,,,
,,,,,,,,,,,,41541,2021-09-22_21h28.02.688,judgeSpeechMusic_20210921_logNormShiftAmp_detection_fixS,2020.1.2,MacIntel,60,,,,,,,,,,,,,,,,,,2,6.727,,0,0,31,31,41,1,stimuli/stim_20210706_power2amp/equal_lnn_AM2.4Hz_s35_8.m4a,,,,,,,,,,,,
,,,,,,,,,,,,41541,2021-09-22_21h28.02.688,judgeSpeechMusic_20210921_logNormShiftAmp_detection_fixS,2020.1.2,MacIntel,60,,,,,,,,,,,,,,,,,,2,5.7786,,0,0,32,32,71,1,stimuli/stim_20210706_power2amp/equal_lnn_AM4.2Hz_s35_39.m4a,,,,,,,,,,,,
,,,,,,,,,,,,41541,2021-09-22_21h28.02.688,judgeSpeechMusic_20210921_logNormShiftAmp_detection_fixS,2020.1.2,MacIntel,60,,,,,,,,,,,,,,,,,,1,7.0071,,0,0,33,33,14,1,stimuli/stim_20210706_power2amp/equal_lnn_AM0.6Hz_s35_37.m4a,,,,,,,,,,,,
,,,,,,,,,,,,41541,2021-09-22_21h28.02.688,judgeSpeechMusic_20210921_logNormShiftAmp_detection_fixS,2020.1.2,MacIntel,60,,,,,,,,,,,,,,,,,,2,6.0135,,0,0,34,34,25,1,stimuli/stim_20210706_power2amp/equal_lnn_AM1.2Hz_s35_47.m4a,,,,,,,,,,,,
,,,,,,,,,,,,41541,2021-09-22_21h28.02.688,judgeSpeechMusic_20210921_logNormShiftAmp_detection_fixS,2020.1.2,MacIntel,60,,,,,,,,,,,,,,,,,,2,5.773,,0,0,35,35,49,1,stimuli/stim_20210706_power2amp/equal_lnn_AM3.6Hz_s35_39.m4a,,,,,,,,,,,,
,,,,,,,,,,,,41541,2021-09-22_21h28.02.688,judgeSpeechMusic_20210921_logNormShiftAmp_detection_fixS,2020.1.2,MacIntel,60,,,,,,,,,,,,,,,,,,2,6.9771,,0,0,36,36,3,1,stimuli/stim_20210706_power2amp/equal_lnn_AM0.6Hz_s35_45.m4a,,,,,,,,,,,,
,,,,,,,,,,,,41541,2021-09-22_21h28.02.688,judgeSpeechMusic_20210921_logNormShiftAmp_detection_fixS,2020.1.2,MacIntel,60,,,,,,,,,,,,,,,,,,2,8.3926,,0,0,37,37,68,1,stimuli/stim_20210706_power2amp/equal_lnn_AM4.2Hz_s35_35.m4a,,,,,,,,,,,,
,,,,,,,,,,,,41541,2021-09-22_21h28.02.688,judgeSpeechMusic_20210921_logNormShiftAmp_detection_fixS,2020.1.2,MacIntel,60,,,,,,,,,,,,,,,,,,2,7.0231,,0,0,38,38,52,1,stimuli/stim_20210706_power2amp/equal_lnn_AM3.6Hz_s35_50.m4a,,,,,,,,,,,,
,,,,,,,,,,,,41541,2021-09-22_21h28.02.688,judgeSpeechMusic_20210921_logNormShiftAmp_detection_fixS,2020.1.2,MacIntel,60,,,,,,,,,,,,,,,,,,1,6.0558,,0,0,39,39,46,1,stimuli/stim_20210706_power2amp/equal_lnn_AM3.6Hz_s35_4.m4a,,,,,,,,,,,,
,,,,,,,,,,,,41541,2021-09-22_21h28.02.688,judgeSpeechMusic_20210921_logNormShiftAmp_detection_fixS,2020.1.2,MacIntel,60,,,,,,,,,,,,,,,,,,2,7.8432,,0,0,40,40,47,1,stimuli/stim_20210706_power2amp/equal_lnn_AM3.6Hz_s35_13.m4a,,,,,,,,,,,,
,,,,,,,,,,,,41541,2021-09-22_21h28.02.688,judgeSpeechMusic_20210921_logNormShiftAmp_detection_fixS,2020.1.2,MacIntel,60,,,,,,,,,,,,,,,,,,1,6.9739,,0,0,41,41,57,1,stimuli/stim_20210706_power2amp/equal_lnn_AM3.6Hz_s35_22.m4a,,,,,,,,,,,,
,,,,,,,,,,,,41541,2021-09-22_21h28.02.688,judgeSpeechMusic_20210921_logNormShiftAmp_detection_fixS,2020.1.2,MacIntel,60,,,,,,,,,,,,,,,,,,2,6.0079,3,1,0,42,42,35,1,stimuli/stim_20210706_power2amp/equal_lnn_AM2.4Hz_s35_39.m4a,3.242,,,,,,,,,,,
,,,,,,,,,,,,41541,2021-09-22_21h28.02.688,judgeSpeechMusic_20210921_logNormShiftAmp_detection_fixS,2020.1.2,MacIntel,60,,,,,,,,,,,,,,,,,,1,6.2911,,0,0,43,43,73,1,stimuli/stim_20210706_power2amp/equal_lnn_AM4.2Hz_s35_23.m4a,,,,,,,,,,,,
,,,,,,,,,,,,41541,2021-09-22_21h28.02.688,judgeSpeechMusic_20210921_logNormShiftAmp_detection_fixS,2020.1.2,MacIntel,60,,,,,,,,,,,,,,,,,,1,6.1689,,0,0,44,44,44,1,stimuli/stim_20210706_power2amp/equal_lnn_AM2.4Hz_s35_10.m4a,,,,,,,,,,,,
,,,,,,,,,,,,41541,2021-09-22_21h28.02.688,judgeSpeechMusic_20210921_logNormShiftAmp_detection_fixS,2020.1.2,MacIntel,60,,,,,,,,,,,,,,,,,,2,5.7254,,0,0,45,45,1,1,stimuli/stim_20210706_power2amp/equal_lnn_AM0.6Hz_s35_34.m4a,,,,,,,,,,,,
,,,,,,,,,,,,41541,2021-09-22_21h28.02.688,judgeSpeechMusic_20210921_logNormShiftAmp_detection_fixS,2020.1.2,MacIntel,60,,,,,,,,,,,,,,,,,,2,6.4748,,0,0,46,46,4,1,stimuli/stim_20210706_power2amp/equal_lnn_AM0.6Hz_s35_8.m4a,,,,,,,,,,,,
,,,,,,,,,,,,41541,2021-09-22_21h28.02.688,judgeSpeechMusic_20210921_logNormShiftAmp_detection_fixS,2020.1.2,MacIntel,60,,,,,,,,,,,,,,,,,,1,5.9749,,0,0,47,47,70,1,stimuli/stim_20210706_power2amp/equal_lnn_AM4.2Hz_s35_3.m4a,,,,,,,,,,,,
,,,,,,,,,,,,41541,2021-09-22_21h28.02.688,judgeSpeechMusic_20210921_logNormShiftAmp_detection_fixS,2020.1.2,MacIntel,60,,,,,,,,,,,,,,,,,,1,7.6743,,0,0,48,48,16,1,stimuli/stim_20210706_power2amp/equal_lnn_AM1.2Hz_s35_35.m4a,,,,,,,,,,,,
,,,,,,,,,,,,41541,2021-09-22_21h28.02.688,judgeSpeechMusic_20210921_logNormShiftAmp_detection_fixS,2020.1.2,MacIntel,60,,,,,,,,,,,,,,,,,,2,6.6915,,0,0,49,49,55,1,stimuli/stim_20210706_power2amp/equal_lnn_AM3.6Hz_s35_16.m4a,,,,,,,,,,,,
,,,,,,,,,,,,41541,2021-09-22_21h28.02.688,judgeSpeechMusic_20210921_logNormShiftAmp_detection_fixS,2020.1.2,MacIntel,60,,,,,,,,,,,,,,,,,,1,7.3419,,0,0,50,50,53,1,stimuli/stim_20210706_power2amp/equal_lnn_AM3.6Hz_s35_15.m4a,,,,,,,,,,,,
,,,,,,,,,,,,41541,2021-09-22_21h28.02.688,judgeSpeechMusic_20210921_logNormShiftAmp_detection_fixS,2020.1.2,MacIntel,60,,,,,,,,,,,,,,,,,,1,7.6921,,0,0,51,51,50,1,stimuli/stim_20210706_power2amp/equal_lnn_AM3.6Hz_s35_29.m4a,,,,,,,,,,,,
,,,,,,,,,,,,41541,2021-09-22_21h28.02.688,judgeSpeechMusic_20210921_logNormShiftAmp_detection_fixS,2020.1.2,MacIntel,60,,,,,,,,,,,,,,,,,,2,6.4744,,0,0,52,52,27,1,stimuli/stim_20210706_power2amp/equal_lnn_AM1.2Hz_s35_41.m4a,,,,,,,,,,,,
,,,,,,,,,,,,41541,2021-09-22_21h28.02.688,judgeSpeechMusic_20210921_logNormShiftAmp_detection_fixS,2020.1.2,MacIntel,60,,,,,,,,,,,,,,,,,,1,8.7438,,0,0,53,53,51,1,stimuli/stim_20210706_power2amp/equal_lnn_AM3.6Hz_s35_49.m4a,,,,,,,,,,,,
,,,,,,,,,,,,41541,2021-09-22_21h28.02.688,judgeSpeechMusic_20210921_logNormShiftAmp_detection_fixS,2020.1.2,MacIntel,60,,,,,,,,,,,,,,,,,,1,6.2066,,0,0,54,54,15,1,stimuli/stim_20210706_power2amp/equal_lnn_AM1.2Hz_s35_29.m4a,,,,,,,,,,,,
,,,,,,,,,,,,41541,2021-09-22_21h28.02.688,judgeSpeechMusic_20210921_logNormShiftAmp_detection_fixS,2020.1.2,MacIntel,60,,,,,,,,,,,,,,,,,,2,5.9922,,0,0,55,55,60,1,stimuli/stim_20210706_power2amp/equal_lnn_AM4.2Hz_s35_42.m4a,,,,,,,,,,,,
,,,,,,,,,,,,41541,2021-09-22_21h28.02.688,judgeSpeechMusic_20210921_logNormShiftAmp_detection_fixS,2020.1.2,MacIntel,60,,,,,,,,,,,,,,,,,,2,5.608,,0,0,56,56,34,1,stimuli/stim_20210706_power2amp/equal_lnn_AM2.4Hz_s35_13.m4a,,,,,,,,,,,,
,,,,,,,,,,,,41541,2021-09-22_21h28.02.688,judgeSpeechMusic_20210921_logNormShiftAmp_detection_fixS,2020.1.2,MacIntel,60,,,,,,,,,,,,,,,,,,2,10.7254,,0,0,57,57,13,1,stimuli/stim_20210706_power2amp/equal_lnn_AM0.6Hz_s35_48.m4a,,,,,,,,,,,,
,,,,,,,,,,,,41541,2021-09-22_21h28.02.688,judgeSpeechMusic_20210921_logNormShiftAmp_detection_fixS,2020.1.2,MacIntel,60,,,,,,,,,,,,,,,,,,1,5.9059,,0,0,58,58,64,1,stimuli/stim_20210706_power2amp/equal_lnn_AM4.2Hz_s35_30.m4a,,,,,,,,,,,,
,,,,,,,,,,,,41541,2021-09-22_21h28.02.688,judgeSpeechMusic_20210921_logNormShiftAmp_detection_fixS,2020.1.2,MacIntel,60,,,,,,,,,,,,,,,,,,1,5.2763,,0,0,59,59,67,1,stimuli/stim_20210706_power2amp/equal_lnn_AM4.2Hz_s35_13.m4a,,,,,,,,,,,,
,,,,,,,,,,,,41541,2021-09-22_21h28.02.688,judgeSpeechMusic_20210921_logNormShiftAmp_detection_fixS,2020.1.2,MacIntel,60,,,,,,,,,,,,,,,,,,2,6.3731,1,1,0,60,60,28,1,stimuli/stim_20210706_power2amp/equal_lnn_AM1.2Hz_s35_3.m4a,0.3629,,,,,,,,,,,
,,,,,,,,,,,,41541,2021-09-22_21h28.02.688,judgeSpeechMusic_20210921_logNormShiftAmp_detection_fixS,2020.1.2,MacIntel,60,,,,,,,,,,,,,,,,,,2,5.2549,,0,0,61,61,0,1,stimuli/stim_20210706_power2amp/equal_lnn_AM0.6Hz_s35_7.m4a,,,,,,,,,,,,
,,,,,,,,,,,,41541,2021-09-22_21h28.02.688,judgeSpeechMusic_20210921_logNormShiftAmp_detection_fixS,2020.1.2,MacIntel,60,,,,,,,,,,,,,,,,,,2,6.9053,,0,0,62,62,12,1,stimuli/stim_20210706_power2amp/equal_lnn_AM0.6Hz_s35_40.m4a,,,,,,,,,,,,
,,,,,,,,,,,,41541,2021-09-22_21h28.02.688,judgeSpeechMusic_20210921_logNormShiftAmp_detection_fixS,2020.1.2,MacIntel,60,,,,,,,,,,,,,,,,,,1,5.9135,,0,0,63,63,72,1,stimuli/stim_20210706_power2amp/equal_lnn_AM4.2Hz_s35_18.m4a,,,,,,,,,,,,
,,,,,,,,,,,,41541,2021-09-22_21h28.02.688,judgeSpeechMusic_20210921_logNormShiftAmp_detection_fixS,2020.1.2,MacIntel,60,,,,,,,,,,,,,,,,,,2,8.4058,,0,0,64,64,8,1,stimuli/stim_20210706_power2amp/equal_lnn_AM0.6Hz_s35_18.m4a,,,,,,,,,,,,
,,,,,,,,,,,,41541,2021-09-22_21h28.02.688,judgeSpeechMusic_20210921_logNormShiftAmp_detection_fixS,2020.1.2,MacIntel,60,,,,,,,,,,,,,,,,,,2,6.8574,,0,0,65,65,7,1,stimuli/stim_20210706_power2amp/equal_lnn_AM0.6Hz_s35_21.m4a,,,,,,,,,,,,
,,,,,,,,,,,,41541,2021-09-22_21h28.02.688,judgeSpeechMusic_20210921_logNormShiftAmp_detection_fixS,2020.1.2,MacIntel,60,,,,,,,,,,,,,,,,,,1,7.1434,,0,0,66,66,38,1,stimuli/stim_20210706_power2amp/equal_lnn_AM2.4Hz_s35_21.m4a,,,,,,,,,,,,
,,,,,,,,,,,,41541,2021-09-22_21h28.02.688,judgeSpeechMusic_20210921_logNormShiftAmp_detection_fixS,2020.1.2,MacIntel,60,,,,,,,,,,,,,,,,,,2,8.7328,,0,0,67,67,20,1,stimuli/stim_20210706_power2amp/equal_lnn_AM1.2Hz_s35_20.m4a,,,,,,,,,,,,
,,,,,,,,,,,,41541,2021-09-22_21h28.02.688,judgeSpeechMusic_20210921_logNormShiftAmp_detection_fixS,2020.1.2,MacIntel,60,,,,,,,,,,,,,,,,,,2,5.6083,,0,0,68,68,21,1,stimuli/stim_20210706_power2amp/equal_lnn_AM1.2Hz_s35_10.m4a,,,,,,,,,,,,
,,,,,,,,,,,,41541,2021-09-22_21h28.02.688,judgeSpeechMusic_20210921_logNormShiftAmp_detection_fixS,2020.1.2,MacIntel,60,,,,,,,,,,,,,,,,,,2,6.4756,,0,0,69,69,63,1,stimuli/stim_20210706_power2amp/equal_lnn_AM4.2Hz_s35_41.m4a,,,,,,,,,,,,
,,,,,,,,,,,,41541,2021-09-22_21h28.02.688,judgeSpeechMusic_20210921_logNormShiftAmp_detection_fixS,2020.1.2,MacIntel,60,,,,,,,,,,,,,,,,,,2,20.6753,,0,0,70,70,43,1,stimuli/stim_20210706_power2amp/equal_lnn_AM2.4Hz_s35_3.m4a,,,,,,,,,,,,
,,,,,,,,,,,,41541,2021-09-22_21h28.02.688,judgeSpeechMusic_20210921_logNormShiftAmp_detection_fixS,2020.1.2,MacIntel,60,,,,,,,,,,,,,,,,,,1,9.9424,,0,0,71,71,19,1,stimuli/stim_20210706_power2amp/equal_lnn_AM1.2Hz_s35_38.m4a,,,,,,,,,,,,
,,,,,,,,,,,,41541,2021-09-22_21h28.02.688,judgeSpeechMusic_20210921_logNormShiftAmp_detection_fixS,2020.1.2,MacIntel,60,,,,,,,,,,,,,,,,,,1,6.6595,,0,0,72,72,31,1,stimuli/stim_20210706_power2amp/equal_lnn_AM2.4Hz_s35_37.m4a,,,,,,,,,,,,
,,,,,,,,,,,,41541,2021-09-22_21h28.02.688,judgeSpeechMusic_20210921_logNormShiftAmp_detection_fixS,2020.1.2,MacIntel,60,,,,,,,,,,,,,,,,,,2,6.0393,,0,0,73,73,65,1,stimuli/stim_20210706_power2amp/equal_lnn_AM4.2Hz_s35_25.m4a,,,,,,,,,,,,
,,,,,,,,,,,,41541,2021-09-22_21h28.02.688,judgeSpeechMusic_20210921_logNormShiftAmp_detection_fixS,2020.1.2,MacIntel,60,,,,,,,,,,,,,,,,,,2,7.1446,,0,0,74,74,66,1,stimuli/stim_20210706_power2amp/equal_lnn_AM4.2Hz_s35_12.m4a,,,,,,,,,,,,
,,,,,,,,,,,,41541,2021-09-22_21h28.02.688,judgeSpeechMusic_20210921_logNormShiftAmp_detection_fixS,2020.1.2,MacIntel,60,,,,,,,,,,,,,,,,,,,,,,,,,,,,,space,0.2429,1,0,2,0,1,MUSIC,stimuli/MUSIC.jpg,,
,,,,,,,,,,,,41541,2021-09-22_21h28.02.688,judgeSpeechMusic_20210921_logNormShiftAmp_detection_fixS,2020.1.2,MacIntel,60,,,,,,0,0,0,0,2,1,stimuli/stim_20210706_power2amp/equal_lnn_AM_training3Hz_s35.m4a,,,,,,,,,,,,,,,,,,,,,,,,,,,
,,,,,,,,,,,,41541,2021-09-22_21h28.02.688,judgeSpeechMusic_20210921_logNormShiftAmp_detection_fixS,2020.1.2,MacIntel,60,,,,,,,,,,,,,,space,4.4991,space,0.6674,2,6.7576,,0,0,0,0,19,1,stimuli/stim_20210706_power2amp/equal_lnn_AM1.2Hz_s35_38.m4a,,,,,,,,,,,,
,,,,,,,,,,,,41541,2021-09-22_21h28.02.688,judgeSpeechMusic_20210921_logNormShiftAmp_detection_fixS,2020.1.2,MacIntel,60,,,,,,,,,,,,,,,,,,2,6.2452,,0,0,1,1,60,1,stimuli/stim_20210706_power2amp/equal_lnn_AM4.2Hz_s35_42.m4a,,,,,,,,,,,,
,,,,,,,,,,,,41541,2021-09-22_21h28.02.688,judgeSpeechMusic_20210921_logNormShiftAmp_detection_fixS,2020.1.2,MacIntel,60,,,,,,,,,,,,,,,,,,1,7.4443,,0,0,2,2,30,1,stimuli/stim_20210706_power2amp/equal_lnn_AM2.4Hz_s35_16.m4a,,,,,,,,,,,,
,,,,,,,,,,,,41541,2021-09-22_21h28.02.688,judgeSpeechMusic_20210921_logNormShiftAmp_detection_fixS,2020.1.2,MacIntel,60,,,,,,,,,,,,,,,,,,1,6.7238,,0,0,3,3,13,1,stimuli/stim_20210706_power2amp/equal_lnn_AM0.6Hz_s35_48.m4a,,,,,,,,,,,,
,,,,,,,,,,,,41541,2021-09-22_21h28.02.688,judgeSpeechMusic_20210921_logNormShiftAmp_detection_fixS,2020.1.2,MacIntel,60,,,,,,,,,,,,,,,,,,1,6.0264,,0,0,4,4,20,1,stimuli/stim_20210706_power2amp/equal_lnn_AM1.2Hz_s35_20.m4a,,,,,,,,,,,,
,,,,,,,,,,,,41541,2021-09-22_21h28.02.688,judgeSpeechMusic_20210921_logNormShiftAmp_detection_fixS,2020.1.2,MacIntel,60,,,,,,,,,,,,,,,,,,1,5.2274,,0,0,5,5,63,1,stimuli/stim_20210706_power2amp/equal_lnn_AM4.2Hz_s35_41.m4a,,,,,,,,,,,,
,,,,,,,,,,,,41541,2021-09-22_21h28.02.688,judgeSpeechMusic_20210921_logNormShiftAmp_detection_fixS,2020.1.2,MacIntel,60,,,,,,,,,,,,,,,,,,1,6.0919,,0,0,6,6,14,1,stimuli/stim_20210706_power2amp/equal_lnn_AM0.6Hz_s35_37.m4a,,,,,,,,,,,,
,,,,,,,,,,,,41541,2021-09-22_21h28.02.688,judgeSpeechMusic_20210921_logNormShiftAmp_detection_fixS,2020.1.2,MacIntel,60,,,,,,,,,,,,,,,,,,2,5.8104,,0,0,7,7,15,1,stimuli/stim_20210706_power2amp/equal_lnn_AM1.2Hz_s35_29.m4a,,,,,,,,,,,,
,,,,,,,,,,,,41541,2021-09-22_21h28.02.688,judgeSpeechMusic_20210921_logNormShiftAmp_detection_fixS,2020.1.2,MacIntel,60,,,,,,,,,,,,,,,,,,2,5.9777,,0,0,8,8,16,1,stimuli/stim_20210706_power2amp/equal_lnn_AM1.2Hz_s35_35.m4a,,,,,,,,,,,,
,,,,,,,,,,,,41541,2021-09-22_21h28.02.688,judgeSpeechMusic_20210921_logNormShiftAmp_detection_fixS,2020.1.2,MacIntel,60,,,,,,,,,,,,,,,,,,2,5.2443,,0,0,9,9,38,1,stimuli/stim_20210706_power2amp/equal_lnn_AM2.4Hz_s35_21.m4a,,,,,,,,,,,,
,,,,,,,,,,,,41541,2021-09-22_21h28.02.688,judgeSpeechMusic_20210921_logNormShiftAmp_detection_fixS,2020.1.2,MacIntel,60,,,,,,,,,,,,,,,,,,2,5.6095,,0,0,10,10,37,1,stimuli/stim_20210706_power2amp/equal_lnn_AM2.4Hz_s35_17.m4a,,,,,,,,,,,,
,,,,,,,,,,,,41541,2021-09-22_21h28.02.688,judgeSpeechMusic_20210921_logNormShiftAmp_detection_fixS,2020.1.2,MacIntel,60,,,,,,,,,,,,,,,,,,1,5.5888,,0,0,11,11,72,1,stimuli/stim_20210706_power2amp/equal_lnn_AM4.2Hz_s35_18.m4a,,,,,,,,,,,,
,,,,,,,,,,,,41541,2021-09-22_21h28.02.688,judgeSpeechMusic_20210921_logNormShiftAmp_detection_fixS,2020.1.2,MacIntel,60,,,,,,,,,,,,,,,,,,1,5.7244,,0,0,12,12,51,1,stimuli/stim_20210706_power2amp/equal_lnn_AM3.6Hz_s35_49.m4a,,,,,,,,,,,,
,,,,,,,,,,,,41541,2021-09-22_21h28.02.688,judgeSpeechMusic_20210921_logNormShiftAmp_detection_fixS,2020.1.2,MacIntel,60,,,,,,,,,,,,,,,,,,1,6.8074,,0,0,13,13,44,1,stimuli/stim_20210706_power2amp/equal_lnn_AM2.4Hz_s35_10.m4a,,,,,,,,,,,,
,,,,,,,,,,,,41541,2021-09-22_21h28.02.688,judgeSpeechMusic_20210921_logNormShiftAmp_detection_fixS,2020.1.2,MacIntel,60,,,,,,,,,,,,,,,,,,2,6.9226,,0,0,14,14,47,1,stimuli/stim_20210706_power2amp/equal_lnn_AM3.6Hz_s35_13.m4a,,,,,,,,,,,,
,,,,,,,,,,,,41541,2021-09-22_21h28.02.688,judgeSpeechMusic_20210921_logNormShiftAmp_detection_fixS,2020.1.2,MacIntel,60,,,,,,,,,,,,,,,,,,2,7.1758,,0,0,15,15,25,1,stimuli/stim_20210706_power2amp/equal_lnn_AM1.2Hz_s35_47.m4a,,,,,,,,,,,,
,,,,,,,,,,,,41541,2021-09-22_21h28.02.688,judgeSpeechMusic_20210921_logNormShiftAmp_detection_fixS,2020.1.2,MacIntel,60,,,,,,,,,,,,,,,,,,2,7.9289,,0,0,16,16,10,1,stimuli/stim_20210706_power2amp/equal_lnn_AM0.6Hz_s35_24.m4a,,,,,,,,,,,,
,,,,,,,,,,,,41541,2021-09-22_21h28.02.688,judgeSpeechMusic_20210921_logNormShiftAmp_detection_fixS,2020.1.2,MacIntel,60,,,,,,,,,,,,,,,,,,1,5.6896,,0,0,17,17,0,1,stimuli/stim_20210706_power2amp/equal_lnn_AM0.6Hz_s35_7.m4a,,,,,,,,,,,,
,,,,,,,,,,,,41541,2021-09-22_21h28.02.688,judgeSpeechMusic_20210921_logNormShiftAmp_detection_fixS,2020.1.2,MacIntel,60,,,,,,,,,,,,,,,,,,2,5.5927,,0,0,18,18,58,1,stimuli/stim_20210706_power2amp/equal_lnn_AM3.6Hz_s35_6.m4a,,,,,,,,,,,,
,,,,,,,,,,,,41541,2021-09-22_21h28.02.688,judgeSpeechMusic_20210921_logNormShiftAmp_detection_fixS,2020.1.2,MacIntel,60,,,,,,,,,,,,,,,,,,2,5.3606,,0,0,19,19,57,1,stimuli/stim_20210706_power2amp/equal_lnn_AM3.6Hz_s35_22.m4a,,,,,,,,,,,,
,,,,,,,,,,,,41541,2021-09-22_21h28.02.688,judgeSpeechMusic_20210921_logNormShiftAmp_detection_fixS,2020.1.2,MacIntel,60,,,,,,,,,,,,,,,,,,2,5.2265,,0,0,20,20,40,1,stimuli/stim_20210706_power2amp/equal_lnn_AM2.4Hz_s35_4.m4a,,,,,,,,,,,,
,,,,,,,,,,,,41541,2021-09-22_21h28.02.688,judgeSpeechMusic_20210921_logNormShiftAmp_detection_fixS,2020.1.2,MacIntel,60,,,,,,,,,,,,,,,,,,1,6.3738,,0,0,21,21,70,1,stimuli/stim_20210706_power2amp/equal_lnn_AM4.2Hz_s35_3.m4a,,,,,,,,,,,,
,,,,,,,,,,,,41541,2021-09-22_21h28.02.688,judgeSpeechMusic_20210921_logNormShiftAmp_detection_fixS,2020.1.2,MacIntel,60,,,,,,,,,,,,,,,,,,2,5.3234,4,1,0,22,22,35,1,stimuli/stim_20210706_power2amp/equal_lnn_AM2.4Hz_s35_39.m4a,0.446,,,,,,,,,,,
,,,,,,,,,,,,41541,2021-09-22_21h28.02.688,judgeSpeechMusic_20210921_logNormShiftAmp_detection_fixS,2020.1.2,MacIntel,60,,,,,,,,,,,,,,,,,,1,6.5772,,0,0,23,23,4,1,stimuli/stim_20210706_power2amp/equal_lnn_AM0.6Hz_s35_8.m4a,,,,,,,,,,,,
,,,,,,,,,,,,41541,2021-09-22_21h28.02.688,judgeSpeechMusic_20210921_logNormShiftAmp_detection_fixS,2020.1.2,MacIntel,60,,,,,,,,,,,,,,,,,,1,6.0559,,0,0,24,24,27,1,stimuli/stim_20210706_power2amp/equal_lnn_AM1.2Hz_s35_41.m4a,,,,,,,,,,,,
,,,,,,,,,,,,41541,2021-09-22_21h28.02.688,judgeSpeechMusic_20210921_logNormShiftAmp_detection_fixS,2020.1.2,MacIntel,60,,,,,,,,,,,,,,,,,,2,5.7125,,0,0,25,25,66,1,stimuli/stim_20210706_power2amp/equal_lnn_AM4.2Hz_s35_12.m4a,,,,,,,,,,,,
,,,,,,,,,,,,41541,2021-09-22_21h28.02.688,judgeSpeechMusic_20210921_logNormShiftAmp_detection_fixS,2020.1.2,MacIntel,60,,,,,,,,,,,,,,,,,,2,5.6581,,0,0,26,26,53,1,stimuli/stim_20210706_power2amp/equal_lnn_AM3.6Hz_s35_15.m4a,,,,,,,,,,,,
,,,,,,,,,,,,41541,2021-09-22_21h28.02.688,judgeSpeechMusic_20210921_logNormShiftAmp_detection_fixS,2020.1.2,MacIntel,60,,,,,,,,,,,,,,,,,,1,6.9914,,0,0,27,27,32,1,stimuli/stim_20210706_power2amp/equal_lnn_AM2.4Hz_s35_28.m4a,,,,,,,,,,,,
,,,,,,,,,,,,41541,2021-09-22_21h28.02.688,judgeSpeechMusic_20210921_logNormShiftAmp_detection_fixS,2020.1.2,MacIntel,60,,,,,,,,,,,,,,,,,,1,7.3561,,0,0,28,28,65,1,stimuli/stim_20210706_power2amp/equal_lnn_AM4.2Hz_s35_25.m4a,,,,,,,,,,,,
,,,,,,,,,,,,41541,2021-09-22_21h28.02.688,judgeSpeechMusic_20210921_logNormShiftAmp_detection_fixS,2020.1.2,MacIntel,60,,,,,,,,,,,,,,,,,,2,5.6216,,0,0,29,29,48,1,stimuli/stim_20210706_power2amp/equal_lnn_AM3.6Hz_s35_1.m4a,,,,,,,,,,,,
,,,,,,,,,,,,41541,2021-09-22_21h28.02.688,judgeSpeechMusic_20210921_logNormShiftAmp_detection_fixS,2020.1.2,MacIntel,60,,,,,,,,,,,,,,,,,,2,5.659,,0,0,30,30,52,1,stimuli/stim_20210706_power2amp/equal_lnn_AM3.6Hz_s35_50.m4a,,,,,,,,,,,,
,,,,,,,,,,,,41541,2021-09-22_21h28.02.688,judgeSpeechMusic_20210921_logNormShiftAmp_detection_fixS,2020.1.2,MacIntel,60,,,,,,,,,,,,,,,,,,2,5.5091,,0,0,31,31,74,1,stimuli/stim_20210706_power2amp/equal_lnn_AM4.2Hz_s35_19.m4a,,,,,,,,,,,,
,,,,,,,,,,,,41541,2021-09-22_21h28.02.688,judgeSpeechMusic_20210921_logNormShiftAmp_detection_fixS,2020.1.2,MacIntel,60,,,,,,,,,,,,,,,,,,1,6.3088,,0,0,32,32,24,1,stimuli/stim_20210706_power2amp/equal_lnn_AM1.2Hz_s35_8.m4a,,,,,,,,,,,,
,,,,,,,,,,,,41541,2021-09-22_21h28.02.688,judgeSpeechMusic_20210921_logNormShiftAmp_detection_fixS,2020.1.2,MacIntel,60,,,,,,,,,,,,,,,,,,1,6.9086,,0,0,33,33,42,1,stimuli/stim_20210706_power2amp/equal_lnn_AM2.4Hz_s35_29.m4a,,,,,,,,,,,,
,,,,,,,,,,,,41541,2021-09-22_21h28.02.688,judgeSpeechMusic_20210921_logNormShiftAmp_detection_fixS,2020.1.2,MacIntel,60,,,,,,,,,,,,,,,,,,1,6.3761,,0,0,34,34,43,1,stimuli/stim_20210706_power2amp/equal_lnn_AM2.4Hz_s35_3.m4a,,,,,,,,,,,,
,,,,,,,,,,,,41541,2021-09-22_21h28.02.688,judgeSpeechMusic_20210921_logNormShiftAmp_detection_fixS,2020.1.2,MacIntel,60,,,,,,,,,,,,,,,,,,2,5.6596,,0,0,35,35,46,1,stimuli/stim_20210706_power2amp/equal_lnn_AM3.6Hz_s35_4.m4a,,,,,,,,,,,,
,,,,,,,,,,,,41541,2021-09-22_21h28.02.688,judgeSpeechMusic_20210921_logNormShiftAmp_detection_fixS,2020.1.2,MacIntel,60,,,,,,,,,,,,,,,,,,1,5.658,,0,0,36,36,18,1,stimuli/stim_20210706_power2amp/equal_lnn_AM1.2Hz_s35_50.m4a,,,,,,,,,,,,
,,,,,,,,,,,,41541,2021-09-22_21h28.02.688,judgeSpeechMusic_20210921_logNormShiftAmp_detection_fixS,2020.1.2,MacIntel,60,,,,,,,,,,,,,,,,,,1,6.6262,,0,0,37,37,26,1,stimuli/stim_20210706_power2amp/equal_lnn_AM1.2Hz_s35_25.m4a,,,,,,,,,,,,
,,,,,,,,,,,,41541,2021-09-22_21h28.02.688,judgeSpeechMusic_20210921_logNormShiftAmp_detection_fixS,2020.1.2,MacIntel,60,,,,,,,,,,,,,,,,,,2,5.7741,,0,0,38,38,64,1,stimuli/stim_20210706_power2amp/equal_lnn_AM4.2Hz_s35_30.m4a,,,,,,,,,,,,
,,,,,,,,,,,,41541,2021-09-22_21h28.02.688,judgeSpeechMusic_20210921_logNormShiftAmp_detection_fixS,2020.1.2,MacIntel,60,,,,,,,,,,,,,,,,,,1,6.3644,,0,0,39,39,9,1,stimuli/stim_20210706_power2amp/equal_lnn_AM0.6Hz_s35_44.m4a,,,,,,,,,,,,
,,,,,,,,,,,,41541,2021-09-22_21h28.02.688,judgeSpeechMusic_20210921_logNormShiftAmp_detection_fixS,2020.1.2,MacIntel,60,,,,,,,,,,,,,,,,,,1,5.9934,,0,0,40,40,29,1,stimuli/stim_20210706_power2amp/equal_lnn_AM1.2Hz_s35_32.m4a,,,,,,,,,,,,
,,,,,,,,,,,,41541,2021-09-22_21h28.02.688,judgeSpeechMusic_20210921_logNormShiftAmp_detection_fixS,2020.1.2,MacIntel,60,,,,,,,,,,,,,,,,,,2,6.2956,,0,0,41,41,33,1,stimuli/stim_20210706_power2amp/equal_lnn_AM2.4Hz_s35_11.m4a,,,,,,,,,,,,
,,,,,,,,,,,,41541,2021-09-22_21h28.02.688,judgeSpeechMusic_20210921_logNormShiftAmp_detection_fixS,2020.1.2,MacIntel,60,,,,,,,,,,,,,,,,,,1,6.7269,1,1,0,42,42,28,1,stimuli/stim_20210706_power2amp/equal_lnn_AM1.2Hz_s35_3.m4a,0.5507,,,,,,,,,,,
,,,,,,,,,,,,41541,2021-09-22_21h28.02.688,judgeSpeechMusic_20210921_logNormShiftAmp_detection_fixS,2020.1.2,MacIntel,60,,,,,,,,,,,,,,,,,,2,7.6898,,0,0,43,43,39,1,stimuli/stim_20210706_power2amp/equal_lnn_AM2.4Hz_s35_24.m4a,,,,,,,,,,,,
,,,,,,,,,,,,41541,2021-09-22_21h28.02.688,judgeSpeechMusic_20210921_logNormShiftAmp_detection_fixS,2020.1.2,MacIntel,60,,,,,,,,,,,,,,,,,,1,7.6068,,0,0,44,44,7,1,stimuli/stim_20210706_power2amp/equal_lnn_AM0.6Hz_s35_21.m4a,,,,,,,,,,,,
,,,,,,,,,,,,41541,2021-09-22_21h28.02.688,judgeSpeechMusic_20210921_logNormShiftAmp_detection_fixS,2020.1.2,MacIntel,60,,,,,,,,,,,,,,,,,,1,5.6569,,0,0,45,45,8,1,stimuli/stim_20210706_power2amp/equal_lnn_AM0.6Hz_s35_18.m4a,,,,,,,,,,,,
,,,,,,,,,,,,41541,2021-09-22_21h28.02.688,judgeSpeechMusic_20210921_logNormShiftAmp_detection_fixS,2020.1.2,MacIntel,60,,,,,,,,,,,,,,,,,,1,5.8895,,0,0,46,46,22,1,stimuli/stim_20210706_power2amp/equal_lnn_AM1.2Hz_s35_26.m4a,,,,,,,,,,,,
,,,,,,,,,,,,41541,2021-09-22_21h28.02.688,judgeSpeechMusic_20210921_logNormShiftAmp_detection_fixS,2020.1.2,MacIntel,60,,,,,,,,,,,,,,,,,,2,5.7413,,0,0,47,47,45,1,stimuli/stim_20210706_power2amp/equal_lnn_AM3.6Hz_s35_23.m4a,,,,,,,,,,,,
,,,,,,,,,,,,41541,2021-09-22_21h28.02.688,judgeSpeechMusic_20210921_logNormShiftAmp_detection_fixS,2020.1.2,MacIntel,60,,,,,,,,,,,,,,,,,,2,7.2267,,0,0,48,48,31,1,stimuli/stim_20210706_power2amp/equal_lnn_AM2.4Hz_s35_37.m4a,,,,,,,,,,,,
,,,,,,,,,,,,41541,2021-09-22_21h28.02.688,judgeSpeechMusic_20210921_logNormShiftAmp_detection_fixS,2020.1.2,MacIntel,60,,,,,,,,,,,,,,,,,,1,7.2579,,0,0,49,49,17,1,stimuli/stim_20210706_power2amp/equal_lnn_AM1.2Hz_s35_46.m4a,,,,,,,,,,,,
,,,,,,,,,,,,41541,2021-09-22_21h28.02.688,judgeSpeechMusic_20210921_logNormShiftAmp_detection_fixS,2020.1.2,MacIntel,60,,,,,,,,,,,,,,,,,,2,7.6564,,0,0,50,50,67,1,stimuli/stim_20210706_power2amp/equal_lnn_AM4.2Hz_s35_13.m4a,,,,,,,,,,,,
,,,,,,,,,,,,41541,2021-09-22_21h28.02.688,judgeSpeechMusic_20210921_logNormShiftAmp_detection_fixS,2020.1.2,MacIntel,60,,,,,,,,,,,,,,,,,,2,5.4235,,0,0,51,51,50,1,stimuli/stim_20210706_power2amp/equal_lnn_AM3.6Hz_s35_29.m4a,,,,,,,,,,,,
,,,,,,,,,,,,41541,2021-09-22_21h28.02.688,judgeSpeechMusic_20210921_logNormShiftAmp_detection_fixS,2020.1.2,MacIntel,60,,,,,,,,,,,,,,,,,,1,7.0121,,0,0,52,52,21,1,stimuli/stim_20210706_power2amp/equal_lnn_AM1.2Hz_s35_10.m4a,,,,,,,,,,,,
,,,,,,,,,,,,41541,2021-09-22_21h28.02.688,judgeSpeechMusic_20210921_logNormShiftAmp_detection_fixS,2020.1.2,MacIntel,60,,,,,,,,,,,,,,,,,,2,5.9242,,0,0,53,53,69,1,stimuli/stim_20210706_power2amp/equal_lnn_AM4.2Hz_s35_26.m4a,,,,,,,,,,,,
,,,,,,,,,,,,41541,2021-09-22_21h28.02.688,judgeSpeechMusic_20210921_logNormShiftAmp_detection_fixS,2020.1.2,MacIntel,60,,,,,,,,,,,,,,,,,,1,7.0307,,0,0,54,54,68,1,stimuli/stim_20210706_power2amp/equal_lnn_AM4.2Hz_s35_35.m4a,,,,,,,,,,,,
,,,,,,,,,,,,41541,2021-09-22_21h28.02.688,judgeSpeechMusic_20210921_logNormShiftAmp_detection_fixS,2020.1.2,MacIntel,60,,,,,,,,,,,,,,,,,,2,6.6388,,0,0,55,55,55,1,stimuli/stim_20210706_power2amp/equal_lnn_AM3.6Hz_s35_16.m4a,,,,,,,,,,,,
,,,,,,,,,,,,41541,2021-09-22_21h28.02.688,judgeSpeechMusic_20210921_logNormShiftAmp_detection_fixS,2020.1.2,MacIntel,60,,,,,,,,,,,,,,,,,,1,7.046,,0,0,56,56,3,1,stimuli/stim_20210706_power2amp/equal_lnn_AM0.6Hz_s35_45.m4a,,,,,,,,,,,,
,,,,,,,,,,,,41541,2021-09-22_21h28.02.688,judgeSpeechMusic_20210921_logNormShiftAmp_detection_fixS,2020.1.2,MacIntel,60,,,,,,,,,,,,,,,,,,1,7.0718,,0,0,57,57,23,1,stimuli/stim_20210706_power2amp/equal_lnn_AM1.2Hz_s35_27.m4a,,,,,,,,,,,,
,,,,,,,,,,,,41541,2021-09-22_21h28.02.688,judgeSpeechMusic_20210921_logNormShiftAmp_detection_fixS,2020.1.2,MacIntel,60,,,,,,,,,,,,,,,,,,2,6.7584,,0,0,58,58,71,1,stimuli/stim_20210706_power2amp/equal_lnn_AM4.2Hz_s35_39.m4a,,,,,,,,,,,,
,,,,,,,,,,,,41541,2021-09-22_21h28.02.688,judgeSpeechMusic_20210921_logNormShiftAmp_detection_fixS,2020.1.2,MacIntel,60,,,,,,,,,,,,,,,,,,2,8.7129,,0,0,59,59,36,1,stimuli/stim_20210706_power2amp/equal_lnn_AM2.4Hz_s35_43.m4a,,,,,,,,,,,,
,,,,,,,,,,,,41541,2021-09-22_21h28.02.688,judgeSpeechMusic_20210921_logNormShiftAmp_detection_fixS,2020.1.2,MacIntel,60,,,,,,,,,,,,,,,,,,2,5.6409,1,1,0,60,60,49,1,stimuli/stim_20210706_power2amp/equal_lnn_AM3.6Hz_s35_39.m4a,0.264,,,,,,,,,,,
,,,,,,,,,,,,41541,2021-09-22_21h28.02.688,judgeSpeechMusic_20210921_logNormShiftAmp_detection_fixS,2020.1.2,MacIntel,60,,,,,,,,,,,,,,,,,,1,7.0765,,0,0,61,61,73,1,stimuli/stim_20210706_power2amp/equal_lnn_AM4.2Hz_s35_23.m4a,,,,,,,,,,,,
,,,,,,,,,,,,41541,2021-09-22_21h28.02.688,judgeSpeechMusic_20210921_logNormShiftAmp_detection_fixS,2020.1.2,MacIntel,60,,,,,,,,,,,,,,,,,,1,6.2949,,0,0,62,62,41,1,stimuli/stim_20210706_power2amp/equal_lnn_AM2.4Hz_s35_8.m4a,,,,,,,,,,,,
,,,,,,,,,,,,41541,2021-09-22_21h28.02.688,judgeSpeechMusic_20210921_logNormShiftAmp_detection_fixS,2020.1.2,MacIntel,60,,,,,,,,,,,,,,,,,,1,6.8391,,0,0,63,63,6,1,stimuli/stim_20210706_power2amp/equal_lnn_AM0.6Hz_s35_25.m4a,,,,,,,,,,,,
,,,,,,,,,,,,41541,2021-09-22_21h28.02.688,judgeSpeechMusic_20210921_logNormShiftAmp_detection_fixS,2020.1.2,MacIntel,60,,,,,,,,,,,,,,,,,,1,7.9937,,0,0,64,64,62,1,stimuli/stim_20210706_power2amp/equal_lnn_AM4.2Hz_s35_32.m4a,,,,,,,,,,,,
,,,,,,,,,,,,41541,2021-09-22_21h28.02.688,judgeSpeechMusic_20210921_logNormShiftAmp_detection_fixS,2020.1.2,MacIntel,60,,,,,,,,,,,,,,,,,,1,6.709,,0,0,65,65,12,1,stimuli/stim_20210706_power2amp/equal_lnn_AM0.6Hz_s35_40.m4a,,,,,,,,,,,,
,,,,,,,,,,,,41541,2021-09-22_21h28.02.688,judgeSpeechMusic_20210921_logNormShiftAmp_detection_fixS,2020.1.2,MacIntel,60,,,,,,,,,,,,,,,,,,1,5.6924,,0,0,66,66,5,1,stimuli/stim_20210706_power2amp/equal_lnn_AM0.6Hz_s35_30.m4a,,,,,,,,,,,,
,,,,,,,,,,,,41541,2021-09-22_21h28.02.688,judgeSpeechMusic_20210921_logNormShiftAmp_detection_fixS,2020.1.2,MacIntel,60,,,,,,,,,,,,,,,,,,1,6.1426,,0,0,67,67,1,1,stimuli/stim_20210706_power2amp/equal_lnn_AM0.6Hz_s35_34.m4a,,,,,,,,,,,,
,,,,,,,,,,,,41541,2021-09-22_21h28.02.688,judgeSpeechMusic_20210921_logNormShiftAmp_detection_fixS,2020.1.2,MacIntel,60,,,,,,,,,,,,,,,,,,2,5.6254,,0,0,68,68,56,1,stimuli/stim_20210706_power2amp/equal_lnn_AM3.6Hz_s35_18.m4a,,,,,,,,,,,,
,,,,,,,,,,,,41541,2021-09-22_21h28.02.688,judgeSpeechMusic_20210921_logNormShiftAmp_detection_fixS,2020.1.2,MacIntel,60,,,,,,,,,,,,,,,,,,2,5.6601,,0,0,69,69,54,1,stimuli/stim_20210706_power2amp/equal_lnn_AM3.6Hz_s35_44.m4a,,,,,,,,,,,,
,,,,,,,,,,,,41541,2021-09-22_21h28.02.688,judgeSpeechMusic_20210921_logNormShiftAmp_detection_fixS,2020.1.2,MacIntel,60,,,,,,,,,,,,,,,,,,1,5.7591,,0,0,70,70,11,1,stimuli/stim_20210706_power2amp/equal_lnn_AM0.6Hz_s35_22.m4a,,,,,,,,,,,,
,,,,,,,,,,,,41541,2021-09-22_21h28.02.688,judgeSpeechMusic_20210921_logNormShiftAmp_detection_fixS,2020.1.2,MacIntel,60,,,,,,,,,,,,,,,,,,2,5.6953,,0,0,71,71,61,1,stimuli/stim_20210706_power2amp/equal_lnn_AM4.2Hz_s35_36.m4a,,,,,,,,,,,,
,,,,,,,,,,,,41541,2021-09-22_21h28.02.688,judgeSpeechMusic_20210921_logNormShiftAmp_detection_fixS,2020.1.2,MacIntel,60,,,,,,,,,,,,,,,,,,2,5.774,,0,0,72,72,34,1,stimuli/stim_20210706_power2amp/equal_lnn_AM2.4Hz_s35_13.m4a,,,,,,,,,,,,
,,,,,,,,,,,,41541,2021-09-22_21h28.02.688,judgeSpeechMusic_20210921_logNormShiftAmp_detection_fixS,2020.1.2,MacIntel,60,,,,,,,,,,,,,,,,,,1,7.2241,,0,0,73,73,2,1,stimuli/stim_20210706_power2amp/equal_lnn_AM0.6Hz_s35_33.m4a,,,,,,,,,,,,
,,,,,,,,,,,,41541,2021-09-22_21h28.02.688,judgeSpeechMusic_20210921_logNormShiftAmp_detection_fixS,2020.1.2,MacIntel,60,,,,,,,,,,,,,,,,,,2,7.041,,0,0,74,74,59,1,stimuli/stim_20210706_power2amp/equal_lnn_AM3.6Hz_s35_21.m4a,,,,,,,,,,,,
,,,,,,,,,,,,41541,2021-09-22_21h28.02.688,judgeSpeechMusic_20210921_logNormShiftAmp_detection_fixS,2020.1.2,MacIntel,60,,,,,,,,,,,,,,,,,,,,,,,,,,,,,,,1,1,3,1,1,SPEECH,stimuli/SPEECH.jpg,,
,,,,,,,,,,,,41541,2021-09-22_21h28.02.688,judgeSpeechMusic_20210921_logNormShiftAmp_detection_fixS,2020.1.2,MacIntel,60,,,,,,,,,,,,,,,,,,,,,,,,,,,,,,,,,,,,,,space,1.4343
