headphoneResponse.keys,headphoneResponse.corr,headphoneResponse.rt,headphoneTrial.thisRepN,headphoneTrial.thisTrialN,headphoneTrial.thisN,headphoneTrial.thisIndex,headphoneTrial.ran,headphone_sound1,headphone_sound2,headphone_sound3,corrAns,participant,date,expName,psychopyVersion,OS,frameRate,checkInstruKey.keys,checkInstruKey.rt,trainSlider.response,trainSlider.rt,beepTrainResponse.keys,beepTrainResponse.corr,trainingTrials.thisRepN,trainingTrials.thisTrialN,trainingTrials.thisN,trainingTrials.thisIndex,trainingTrials.ran,trainAudioFile,beepTrainResponse.rt,readyReal_resp.keys,readyReal_resp.rt,checkInstru2_key.keys,checkInstru2_key.rt,ratingSlider.response,ratingSlider.rt,beepResp.keys,beepResp.corr,expTrials.thisRepN,expTrials.thisTrialN,expTrials.thisN,expTrials.thisIndex,expTrials.ran,audioFile,beepResp.rt,switchBlock_space.keys,switchBlock_space.rt,block.thisRepN,block.thisTrialN,block.thisN,block.thisIndex,block.ran,blockName,blockImage,end_resp.keys,end_resp.rt
3,1,0.3916,0,0,0,0,1,stimuli/screen_antiphase.wav,stimuli/screen_origin.wav,stimuli/screen_quiet.wav,3,41607,2021-09-27_17h25.41.549,judgeSpeechMusic_20210921_logNormShiftAmp_detection_fixS,2020.1.2,MacIntel,60,,,,,,,,,,,,,,,,,,,,,,,,,,,,,,,,,,,,,,,
2,1,0.4788,0,1,1,1,1,stimuli/screen_antiphase.wav,stimuli/screen_quiet.wav,stimuli/screen_origin.wav,2,41607,2021-09-27_17h25.41.549,judgeSpeechMusic_20210921_logNormShiftAmp_detection_fixS,2020.1.2,MacIntel,60,,,,,,,,,,,,,,,,,,,,,,,,,,,,,,,,,,,,,,,
3,1,0.2699,0,2,2,2,1,stimuli/screen_origin.wav,stimuli/screen_antiphase.wav,stimuli/screen_quiet.wav,3,41607,2021-09-27_17h25.41.549,judgeSpeechMusic_20210921_logNormShiftAmp_detection_fixS,2020.1.2,MacIntel,60,,,,,,,,,,,,,,,,,,,,,,,,,,,,,,,,,,,,,,,
2,1,0.2378,0,3,3,3,1,stimuli/screen_origin.wav,stimuli/screen_quiet.wav,stimuli/screen_antiphase.wav,2,41607,2021-09-27_17h25.41.549,judgeSpeechMusic_20210921_logNormShiftAmp_detection_fixS,2020.1.2,MacIntel,60,,,,,,,,,,,,,,,,,,,,,,,,,,,,,,,,,,,,,,,
1,1,0.3324,0,4,4,4,1,stimuli/screen_quiet.wav,stimuli/screen_antiphase.wav,stimuli/screen_origin.wav,1,41607,2021-09-27_17h25.41.549,judgeSpeechMusic_20210921_logNormShiftAmp_detection_fixS,2020.1.2,MacIntel,60,,,,,,,,,,,,,,,,,,,,,,,,,,,,,,,,,,,,,,,
1,1,0.3357,0,5,5,5,1,stimuli/screen_quiet.wav,stimuli/screen_origin.wav,stimuli/screen_antiphase.wav,1,41607,2021-09-27_17h25.41.549,judgeSpeechMusic_20210921_logNormShiftAmp_detection_fixS,2020.1.2,MacIntel,60,,,,,,,,,,,,,,,,,,,,,,,,,,,,,,,,,,,,,,,
,,,,,,,,,,,,41607,2021-09-27_17h25.41.549,judgeSpeechMusic_20210921_logNormShiftAmp_detection_fixS,2020.1.2,MacIntel,60,space,0.5505,2,5.5932,,0,0,0,0,1,1,stimuli/stim_20210706_power2amp/equal_lnn_AM_training1.8Hz_s35.m4a,,,,,,,,,,,,,,,,,,,,,,,,,,,
,,,,,,,,,,,,41607,2021-09-27_17h25.41.549,judgeSpeechMusic_20210921_logNormShiftAmp_detection_fixS,2020.1.2,MacIntel,60,,,1,8.1845,,0,0,1,1,3,1,stimuli/stim_20210706_power2amp/equal_lnn_AM_training3.9Hz_s35.m4a,,,,,,,,,,,,,,,,,,,,,,,,,,,
,,,,,,,,,,,,41607,2021-09-27_17h25.41.549,judgeSpeechMusic_20210921_logNormShiftAmp_detection_fixS,2020.1.2,MacIntel,60,,,1,5.5432,2,1,0,2,2,2,1,stimuli/stim_20210706_power2amp/equal_lnn_AM_training3Hz_s35.m4a,0.3289,,,,,,,,,,,,,,,,,,,,,,,,,,
,,,,,,,,,,,,41607,2021-09-27_17h25.41.549,judgeSpeechMusic_20210921_logNormShiftAmp_detection_fixS,2020.1.2,MacIntel,60,,,2,5.6898,,0,0,3,3,0,1,stimuli/stim_20210706_power2amp/equal_lnn_AM_training0.9Hz_s35.m4a,,,,,,,,,,,,,,,,,,,,,,,,,,,
,,,,,,,,,,,,41607,2021-09-27_17h25.41.549,judgeSpeechMusic_20210921_logNormShiftAmp_detection_fixS,2020.1.2,MacIntel,60,,,,,,,,,,,,,,space,0.8639,space,0.4185,2,5.6673,,0,0,0,0,5,1,stimuli/stim_20210706_power2amp/equal_lnn_AM0.6Hz_s35_41.m4a,,,,,,,,,,,,
,,,,,,,,,,,,41607,2021-09-27_17h25.41.549,judgeSpeechMusic_20210921_logNormShiftAmp_detection_fixS,2020.1.2,MacIntel,60,,,,,,,,,,,,,,,,,,2,5.7257,,0,0,1,1,24,1,stimuli/stim_20210706_power2amp/equal_lnn_AM1.2Hz_s35_23.m4a,,,,,,,,,,,,
,,,,,,,,,,,,41607,2021-09-27_17h25.41.549,judgeSpeechMusic_20210921_logNormShiftAmp_detection_fixS,2020.1.2,MacIntel,60,,,,,,,,,,,,,,,,,,2,6.1612,,0,0,2,2,2,1,stimuli/stim_20210706_power2amp/equal_lnn_AM0.6Hz_s35_48.m4a,,,,,,,,,,,,
,,,,,,,,,,,,41607,2021-09-27_17h25.41.549,judgeSpeechMusic_20210921_logNormShiftAmp_detection_fixS,2020.1.2,MacIntel,60,,,,,,,,,,,,,,,,,,1,5.5604,,0,0,3,3,38,1,stimuli/stim_20210706_power2amp/equal_lnn_AM2.4Hz_s35_30.m4a,,,,,,,,,,,,
,,,,,,,,,,,,41607,2021-09-27_17h25.41.549,judgeSpeechMusic_20210921_logNormShiftAmp_detection_fixS,2020.1.2,MacIntel,60,,,,,,,,,,,,,,,,,,2,7.2101,,0,0,4,4,7,1,stimuli/stim_20210706_power2amp/equal_lnn_AM0.6Hz_s35_42.m4a,,,,,,,,,,,,
,,,,,,,,,,,,41607,2021-09-27_17h25.41.549,judgeSpeechMusic_20210921_logNormShiftAmp_detection_fixS,2020.1.2,MacIntel,60,,,,,,,,,,,,,,,,,,1,5.5759,,0,0,5,5,34,1,stimuli/stim_20210706_power2amp/equal_lnn_AM2.4Hz_s35_26.m4a,,,,,,,,,,,,
,,,,,,,,,,,,41607,2021-09-27_17h25.41.549,judgeSpeechMusic_20210921_logNormShiftAmp_detection_fixS,2020.1.2,MacIntel,60,,,,,,,,,,,,,,,,,,2,6.6614,,0,0,6,6,16,1,stimuli/stim_20210706_power2amp/equal_lnn_AM1.2Hz_s35_14.m4a,,,,,,,,,,,,
,,,,,,,,,,,,41607,2021-09-27_17h25.41.549,judgeSpeechMusic_20210921_logNormShiftAmp_detection_fixS,2020.1.2,MacIntel,60,,,,,,,,,,,,,,,,,,1,5.6473,,0,0,7,7,18,1,stimuli/stim_20210706_power2amp/equal_lnn_AM1.2Hz_s35_7.m4a,,,,,,,,,,,,
,,,,,,,,,,,,41607,2021-09-27_17h25.41.549,judgeSpeechMusic_20210921_logNormShiftAmp_detection_fixS,2020.1.2,MacIntel,60,,,,,,,,,,,,,,,,,,2,6.6752,,0,0,8,8,1,1,stimuli/stim_20210706_power2amp/equal_lnn_AM0.6Hz_s35_14.m4a,,,,,,,,,,,,
,,,,,,,,,,,,41607,2021-09-27_17h25.41.549,judgeSpeechMusic_20210921_logNormShiftAmp_detection_fixS,2020.1.2,MacIntel,60,,,,,,,,,,,,,,,,,,1,5.7278,,0,0,9,9,32,1,stimuli/stim_20210706_power2amp/equal_lnn_AM2.4Hz_s35_47.m4a,,,,,,,,,,,,
,,,,,,,,,,,,41607,2021-09-27_17h25.41.549,judgeSpeechMusic_20210921_logNormShiftAmp_detection_fixS,2020.1.2,MacIntel,60,,,,,,,,,,,,,,,,,,1,5.7759,,0,0,10,10,14,1,stimuli/stim_20210706_power2amp/equal_lnn_AM0.6Hz_s35_6.m4a,,,,,,,,,,,,
,,,,,,,,,,,,41607,2021-09-27_17h25.41.549,judgeSpeechMusic_20210921_logNormShiftAmp_detection_fixS,2020.1.2,MacIntel,60,,,,,,,,,,,,,,,,,,1,5.4767,,0,0,11,11,65,1,stimuli/stim_20210706_power2amp/equal_lnn_AM4.2Hz_s35_28.m4a,,,,,,,,,,,,
,,,,,,,,,,,,41607,2021-09-27_17h25.41.549,judgeSpeechMusic_20210921_logNormShiftAmp_detection_fixS,2020.1.2,MacIntel,60,,,,,,,,,,,,,,,,,,2,8.7931,,0,0,12,12,0,1,stimuli/stim_20210706_power2amp/equal_lnn_AM0.6Hz_s35_24.m4a,,,,,,,,,,,,
,,,,,,,,,,,,41607,2021-09-27_17h25.41.549,judgeSpeechMusic_20210921_logNormShiftAmp_detection_fixS,2020.1.2,MacIntel,60,,,,,,,,,,,,,,,,,,1,6.3597,,0,0,13,13,49,1,stimuli/stim_20210706_power2amp/equal_lnn_AM3.6Hz_s35_38.m4a,,,,,,,,,,,,
,,,,,,,,,,,,41607,2021-09-27_17h25.41.549,judgeSpeechMusic_20210921_logNormShiftAmp_detection_fixS,2020.1.2,MacIntel,60,,,,,,,,,,,,,,,,,,1,6.4599,,0,0,14,14,33,1,stimuli/stim_20210706_power2amp/equal_lnn_AM2.4Hz_s35_3.m4a,,,,,,,,,,,,
,,,,,,,,,,,,41607,2021-09-27_17h25.41.549,judgeSpeechMusic_20210921_logNormShiftAmp_detection_fixS,2020.1.2,MacIntel,60,,,,,,,,,,,,,,,,,,2,5.7603,,0,0,15,15,8,1,stimuli/stim_20210706_power2amp/equal_lnn_AM0.6Hz_s35_1.m4a,,,,,,,,,,,,
,,,,,,,,,,,,41607,2021-09-27_17h25.41.549,judgeSpeechMusic_20210921_logNormShiftAmp_detection_fixS,2020.1.2,MacIntel,60,,,,,,,,,,,,,,,,,,2,5.7941,,0,0,16,16,73,1,stimuli/stim_20210706_power2amp/equal_lnn_AM4.2Hz_s35_30.m4a,,,,,,,,,,,,
,,,,,,,,,,,,41607,2021-09-27_17h25.41.549,judgeSpeechMusic_20210921_logNormShiftAmp_detection_fixS,2020.1.2,MacIntel,60,,,,,,,,,,,,,,,,,,2,8.9439,,0,0,17,17,10,1,stimuli/stim_20210706_power2amp/equal_lnn_AM0.6Hz_s35_35.m4a,,,,,,,,,,,,
,,,,,,,,,,,,41607,2021-09-27_17h25.41.549,judgeSpeechMusic_20210921_logNormShiftAmp_detection_fixS,2020.1.2,MacIntel,60,,,,,,,,,,,,,,,,,,1,5.5615,,0,0,18,18,60,1,stimuli/stim_20210706_power2amp/equal_lnn_AM4.2Hz_s35_42.m4a,,,,,,,,,,,,
,,,,,,,,,,,,41607,2021-09-27_17h25.41.549,judgeSpeechMusic_20210921_logNormShiftAmp_detection_fixS,2020.1.2,MacIntel,60,,,,,,,,,,,,,,,,,,2,5.5927,4,1,0,19,19,62,1,stimuli/stim_20210706_power2amp/equal_lnn_AM4.2Hz_s35_14.m4a,0.4929,,,,,,,,,,,
,,,,,,,,,,,,41607,2021-09-27_17h25.41.549,judgeSpeechMusic_20210921_logNormShiftAmp_detection_fixS,2020.1.2,MacIntel,60,,,,,,,,,,,,,,,,,,2,7.2264,,0,0,20,20,26,1,stimuli/stim_20210706_power2amp/equal_lnn_AM1.2Hz_s35_31.m4a,,,,,,,,,,,,
,,,,,,,,,,,,41607,2021-09-27_17h25.41.549,judgeSpeechMusic_20210921_logNormShiftAmp_detection_fixS,2020.1.2,MacIntel,60,,,,,,,,,,,,,,,,,,2,5.6114,,0,0,21,21,4,1,stimuli/stim_20210706_power2amp/equal_lnn_AM0.6Hz_s35_20.m4a,,,,,,,,,,,,
,,,,,,,,,,,,41607,2021-09-27_17h25.41.549,judgeSpeechMusic_20210921_logNormShiftAmp_detection_fixS,2020.1.2,MacIntel,60,,,,,,,,,,,,,,,,,,1,5.5802,,0,0,22,22,43,1,stimuli/stim_20210706_power2amp/equal_lnn_AM2.4Hz_s35_4.m4a,,,,,,,,,,,,
,,,,,,,,,,,,41607,2021-09-27_17h25.41.549,judgeSpeechMusic_20210921_logNormShiftAmp_detection_fixS,2020.1.2,MacIntel,60,,,,,,,,,,,,,,,,,,2,7.9104,,0,0,23,23,47,1,stimuli/stim_20210706_power2amp/equal_lnn_AM3.6Hz_s35_50.m4a,,,,,,,,,,,,
,,,,,,,,,,,,41607,2021-09-27_17h25.41.549,judgeSpeechMusic_20210921_logNormShiftAmp_detection_fixS,2020.1.2,MacIntel,60,,,,,,,,,,,,,,,,,,1,5.5766,,0,0,24,24,37,1,stimuli/stim_20210706_power2amp/equal_lnn_AM2.4Hz_s35_12.m4a,,,,,,,,,,,,
,,,,,,,,,,,,41607,2021-09-27_17h25.41.549,judgeSpeechMusic_20210921_logNormShiftAmp_detection_fixS,2020.1.2,MacIntel,60,,,,,,,,,,,,,,,,,,1,5.7445,,0,0,25,25,68,1,stimuli/stim_20210706_power2amp/equal_lnn_AM4.2Hz_s35_31.m4a,,,,,,,,,,,,
,,,,,,,,,,,,41607,2021-09-27_17h25.41.549,judgeSpeechMusic_20210921_logNormShiftAmp_detection_fixS,2020.1.2,MacIntel,60,,,,,,,,,,,,,,,,,,2,6.5948,,0,0,26,26,39,1,stimuli/stim_20210706_power2amp/equal_lnn_AM2.4Hz_s35_11.m4a,,,,,,,,,,,,
,,,,,,,,,,,,41607,2021-09-27_17h25.41.549,judgeSpeechMusic_20210921_logNormShiftAmp_detection_fixS,2020.1.2,MacIntel,60,,,,,,,,,,,,,,,,,,1,5.9962,,0,0,27,27,51,1,stimuli/stim_20210706_power2amp/equal_lnn_AM3.6Hz_s35_31.m4a,,,,,,,,,,,,
,,,,,,,,,,,,41607,2021-09-27_17h25.41.549,judgeSpeechMusic_20210921_logNormShiftAmp_detection_fixS,2020.1.2,MacIntel,60,,,,,,,,,,,,,,,,,,1,6.0758,,0,0,28,28,66,1,stimuli/stim_20210706_power2amp/equal_lnn_AM4.2Hz_s35_41.m4a,,,,,,,,,,,,
,,,,,,,,,,,,41607,2021-09-27_17h25.41.549,judgeSpeechMusic_20210921_logNormShiftAmp_detection_fixS,2020.1.2,MacIntel,60,,,,,,,,,,,,,,,,,,2,5.7099,,0,0,29,29,22,1,stimuli/stim_20210706_power2amp/equal_lnn_AM1.2Hz_s35_10.m4a,,,,,,,,,,,,
,,,,,,,,,,,,41607,2021-09-27_17h25.41.549,judgeSpeechMusic_20210921_logNormShiftAmp_detection_fixS,2020.1.2,MacIntel,60,,,,,,,,,,,,,,,,,,2,8.3432,,0,0,30,30,31,1,stimuli/stim_20210706_power2amp/equal_lnn_AM2.4Hz_s35_42.m4a,,,,,,,,,,,,
,,,,,,,,,,,,41607,2021-09-27_17h25.41.549,judgeSpeechMusic_20210921_logNormShiftAmp_detection_fixS,2020.1.2,MacIntel,60,,,,,,,,,,,,,,,,,,1,5.7452,,0,0,31,31,69,1,stimuli/stim_20210706_power2amp/equal_lnn_AM4.2Hz_s35_46.m4a,,,,,,,,,,,,
,,,,,,,,,,,,41607,2021-09-27_17h25.41.549,judgeSpeechMusic_20210921_logNormShiftAmp_detection_fixS,2020.1.2,MacIntel,60,,,,,,,,,,,,,,,,,,2,6.5106,,0,0,32,32,29,1,stimuli/stim_20210706_power2amp/equal_lnn_AM1.2Hz_s35_17.m4a,,,,,,,,,,,,
,,,,,,,,,,,,41607,2021-09-27_17h25.41.549,judgeSpeechMusic_20210921_logNormShiftAmp_detection_fixS,2020.1.2,MacIntel,60,,,,,,,,,,,,,,,,,,1,5.7111,,0,0,33,33,63,1,stimuli/stim_20210706_power2amp/equal_lnn_AM4.2Hz_s35_13.m4a,,,,,,,,,,,,
,,,,,,,,,,,,41607,2021-09-27_17h25.41.549,judgeSpeechMusic_20210921_logNormShiftAmp_detection_fixS,2020.1.2,MacIntel,60,,,,,,,,,,,,,,,,,,2,6.6098,,0,0,34,34,67,1,stimuli/stim_20210706_power2amp/equal_lnn_AM4.2Hz_s35_18.m4a,,,,,,,,,,,,
,,,,,,,,,,,,41607,2021-09-27_17h25.41.549,judgeSpeechMusic_20210921_logNormShiftAmp_detection_fixS,2020.1.2,MacIntel,60,,,,,,,,,,,,,,,,,,1,9.3964,,0,0,35,35,45,1,stimuli/stim_20210706_power2amp/equal_lnn_AM3.6Hz_s35_41.m4a,,,,,,,,,,,,
,,,,,,,,,,,,41607,2021-09-27_17h25.41.549,judgeSpeechMusic_20210921_logNormShiftAmp_detection_fixS,2020.1.2,MacIntel,60,,,,,,,,,,,,,,,,,,1,8.3433,,0,0,36,36,70,1,stimuli/stim_20210706_power2amp/equal_lnn_AM4.2Hz_s35_47.m4a,,,,,,,,,,,,
,,,,,,,,,,,,41607,2021-09-27_17h25.41.549,judgeSpeechMusic_20210921_logNormShiftAmp_detection_fixS,2020.1.2,MacIntel,60,,,,,,,,,,,,,,,,,,2,6.3424,,0,0,37,37,64,1,stimuli/stim_20210706_power2amp/equal_lnn_AM4.2Hz_s35_15.m4a,,,,,,,,,,,,
,,,,,,,,,,,,41607,2021-09-27_17h25.41.549,judgeSpeechMusic_20210921_logNormShiftAmp_detection_fixS,2020.1.2,MacIntel,60,,,,,,,,,,,,,,,,,,2,6.2942,,0,0,38,38,52,1,stimuli/stim_20210706_power2amp/equal_lnn_AM3.6Hz_s35_46.m4a,,,,,,,,,,,,
,,,,,,,,,,,,41607,2021-09-27_17h25.41.549,judgeSpeechMusic_20210921_logNormShiftAmp_detection_fixS,2020.1.2,MacIntel,60,,,,,,,,,,,,,,,,,,1,5.6107,,0,0,39,39,50,1,stimuli/stim_20210706_power2amp/equal_lnn_AM3.6Hz_s35_22.m4a,,,,,,,,,,,,
,,,,,,,,,,,,41607,2021-09-27_17h25.41.549,judgeSpeechMusic_20210921_logNormShiftAmp_detection_fixS,2020.1.2,MacIntel,60,,,,,,,,,,,,,,,,,,2,6.8276,,0,0,40,40,48,1,stimuli/stim_20210706_power2amp/equal_lnn_AM3.6Hz_s35_16.m4a,,,,,,,,,,,,
,,,,,,,,,,,,41607,2021-09-27_17h25.41.549,judgeSpeechMusic_20210921_logNormShiftAmp_detection_fixS,2020.1.2,MacIntel,60,,,,,,,,,,,,,,,,,,2,6.0441,4,1,0,41,41,56,1,stimuli/stim_20210706_power2amp/equal_lnn_AM3.6Hz_s35_26.m4a,0.3293,,,,,,,,,,,
,,,,,,,,,,,,41607,2021-09-27_17h25.41.549,judgeSpeechMusic_20210921_logNormShiftAmp_detection_fixS,2020.1.2,MacIntel,60,,,,,,,,,,,,,,,,,,1,19.7933,,0,0,42,42,21,1,stimuli/stim_20210706_power2amp/equal_lnn_AM1.2Hz_s35_13.m4a,,,,,,,,,,,,
,,,,,,,,,,,,41607,2021-09-27_17h25.41.549,judgeSpeechMusic_20210921_logNormShiftAmp_detection_fixS,2020.1.2,MacIntel,60,,,,,,,,,,,,,,,,,,1,6.8272,,0,0,43,43,25,1,stimuli/stim_20210706_power2amp/equal_lnn_AM1.2Hz_s35_11.m4a,,,,,,,,,,,,
,,,,,,,,,,,,41607,2021-09-27_17h25.41.549,judgeSpeechMusic_20210921_logNormShiftAmp_detection_fixS,2020.1.2,MacIntel,60,,,,,,,,,,,,,,,,,,1,9.0131,,0,0,44,44,20,1,stimuli/stim_20210706_power2amp/equal_lnn_AM1.2Hz_s35_28.m4a,,,,,,,,,,,,
,,,,,,,,,,,,41607,2021-09-27_17h25.41.549,judgeSpeechMusic_20210921_logNormShiftAmp_detection_fixS,2020.1.2,MacIntel,60,,,,,,,,,,,,,,,,,,1,8.8102,,0,0,45,45,15,1,stimuli/stim_20210706_power2amp/equal_lnn_AM1.2Hz_s35_33.m4a,,,,,,,,,,,,
,,,,,,,,,,,,41607,2021-09-27_17h25.41.549,judgeSpeechMusic_20210921_logNormShiftAmp_detection_fixS,2020.1.2,MacIntel,60,,,,,,,,,,,,,,,,,,1,7.3429,,0,0,46,46,13,1,stimuli/stim_20210706_power2amp/equal_lnn_AM0.6Hz_s35_16.m4a,,,,,,,,,,,,
,,,,,,,,,,,,41607,2021-09-27_17h25.41.549,judgeSpeechMusic_20210921_logNormShiftAmp_detection_fixS,2020.1.2,MacIntel,60,,,,,,,,,,,,,,,,,,1,6.3604,,0,0,47,47,57,1,stimuli/stim_20210706_power2amp/equal_lnn_AM3.6Hz_s35_44.m4a,,,,,,,,,,,,
,,,,,,,,,,,,41607,2021-09-27_17h25.41.549,judgeSpeechMusic_20210921_logNormShiftAmp_detection_fixS,2020.1.2,MacIntel,60,,,,,,,,,,,,,,,,,,1,13.795,,0,0,48,48,42,1,stimuli/stim_20210706_power2amp/equal_lnn_AM2.4Hz_s35_1.m4a,,,,,,,,,,,,
,,,,,,,,,,,,41607,2021-09-27_17h25.41.549,judgeSpeechMusic_20210921_logNormShiftAmp_detection_fixS,2020.1.2,MacIntel,60,,,,,,,,,,,,,,,,,,2,5.5782,,0,0,49,49,19,1,stimuli/stim_20210706_power2amp/equal_lnn_AM1.2Hz_s35_46.m4a,,,,,,,,,,,,
,,,,,,,,,,,,41607,2021-09-27_17h25.41.549,judgeSpeechMusic_20210921_logNormShiftAmp_detection_fixS,2020.1.2,MacIntel,60,,,,,,,,,,,,,,,,,,2,5.7602,,0,0,50,50,58,1,stimuli/stim_20210706_power2amp/equal_lnn_AM3.6Hz_s35_12.m4a,,,,,,,,,,,,
,,,,,,,,,,,,41607,2021-09-27_17h25.41.549,judgeSpeechMusic_20210921_logNormShiftAmp_detection_fixS,2020.1.2,MacIntel,60,,,,,,,,,,,,,,,,,,1,13.8258,,0,0,51,51,55,1,stimuli/stim_20210706_power2amp/equal_lnn_AM3.6Hz_s35_25.m4a,,,,,,,,,,,,
,,,,,,,,,,,,41607,2021-09-27_17h25.41.549,judgeSpeechMusic_20210921_logNormShiftAmp_detection_fixS,2020.1.2,MacIntel,60,,,,,,,,,,,,,,,,,,1,5.7257,,0,0,52,52,41,1,stimuli/stim_20210706_power2amp/equal_lnn_AM2.4Hz_s35_17.m4a,,,,,,,,,,,,
,,,,,,,,,,,,41607,2021-09-27_17h25.41.549,judgeSpeechMusic_20210921_logNormShiftAmp_detection_fixS,2020.1.2,MacIntel,60,,,,,,,,,,,,,,,,,,2,6.5951,,0,0,53,53,6,1,stimuli/stim_20210706_power2amp/equal_lnn_AM0.6Hz_s35_12.m4a,,,,,,,,,,,,
,,,,,,,,,,,,41607,2021-09-27_17h25.41.549,judgeSpeechMusic_20210921_logNormShiftAmp_detection_fixS,2020.1.2,MacIntel,60,,,,,,,,,,,,,,,,,,1,6.4113,,0,0,54,54,11,1,stimuli/stim_20210706_power2amp/equal_lnn_AM0.6Hz_s35_40.m4a,,,,,,,,,,,,
,,,,,,,,,,,,41607,2021-09-27_17h25.41.549,judgeSpeechMusic_20210921_logNormShiftAmp_detection_fixS,2020.1.2,MacIntel,60,,,,,,,,,,,,,,,,,,2,5.8446,,0,0,55,55,40,1,stimuli/stim_20210706_power2amp/equal_lnn_AM2.4Hz_s35_49.m4a,,,,,,,,,,,,
,,,,,,,,,,,,41607,2021-09-27_17h25.41.549,judgeSpeechMusic_20210921_logNormShiftAmp_detection_fixS,2020.1.2,MacIntel,60,,,,,,,,,,,,,,,,,,1,6.946,,0,0,56,56,3,1,stimuli/stim_20210706_power2amp/equal_lnn_AM0.6Hz_s35_22.m4a,,,,,,,,,,,,
,,,,,,,,,,,,41607,2021-09-27_17h25.41.549,judgeSpeechMusic_20210921_logNormShiftAmp_detection_fixS,2020.1.2,MacIntel,60,,,,,,,,,,,,,,,,,,1,10.3421,,0,0,57,57,23,1,stimuli/stim_20210706_power2amp/equal_lnn_AM1.2Hz_s35_44.m4a,,,,,,,,,,,,
,,,,,,,,,,,,41607,2021-09-27_17h25.41.549,judgeSpeechMusic_20210921_logNormShiftAmp_detection_fixS,2020.1.2,MacIntel,60,,,,,,,,,,,,,,,,,,1,9.8759,,0,0,58,58,61,1,stimuli/stim_20210706_power2amp/equal_lnn_AM4.2Hz_s35_7.m4a,,,,,,,,,,,,
,,,,,,,,,,,,41607,2021-09-27_17h25.41.549,judgeSpeechMusic_20210921_logNormShiftAmp_detection_fixS,2020.1.2,MacIntel,60,,,,,,,,,,,,,,,,,,1,15.9805,,0,0,59,59,54,1,stimuli/stim_20210706_power2amp/equal_lnn_AM3.6Hz_s35_15.m4a,,,,,,,,,,,,
,,,,,,,,,,,,41607,2021-09-27_17h25.41.549,judgeSpeechMusic_20210921_logNormShiftAmp_detection_fixS,2020.1.2,MacIntel,60,,,,,,,,,,,,,,,,,,1,5.6433,,0,0,60,60,59,1,stimuli/stim_20210706_power2amp/equal_lnn_AM3.6Hz_s35_33.m4a,,,,,,,,,,,,
,,,,,,,,,,,,41607,2021-09-27_17h25.41.549,judgeSpeechMusic_20210921_logNormShiftAmp_detection_fixS,2020.1.2,MacIntel,60,,,,,,,,,,,,,,,,,,1,6.4103,,0,0,61,61,53,1,stimuli/stim_20210706_power2amp/equal_lnn_AM3.6Hz_s35_30.m4a,,,,,,,,,,,,
,,,,,,,,,,,,41607,2021-09-27_17h25.41.549,judgeSpeechMusic_20210921_logNormShiftAmp_detection_fixS,2020.1.2,MacIntel,60,,,,,,,,,,,,,,,,,,2,8.0264,,0,0,62,62,44,1,stimuli/stim_20210706_power2amp/equal_lnn_AM2.4Hz_s35_10.m4a,,,,,,,,,,,,
,,,,,,,,,,,,41607,2021-09-27_17h25.41.549,judgeSpeechMusic_20210921_logNormShiftAmp_detection_fixS,2020.1.2,MacIntel,60,,,,,,,,,,,,,,,,,,1,12.4073,4,1,0,63,63,17,1,stimuli/stim_20210706_power2amp/equal_lnn_AM1.2Hz_s35_12.m4a,0.5468,,,,,,,,,,,
,,,,,,,,,,,,41607,2021-09-27_17h25.41.549,judgeSpeechMusic_20210921_logNormShiftAmp_detection_fixS,2020.1.2,MacIntel,60,,,,,,,,,,,,,,,,,,2,5.6424,,0,0,64,64,28,1,stimuli/stim_20210706_power2amp/equal_lnn_AM1.2Hz_s35_50.m4a,,,,,,,,,,,,
,,,,,,,,,,,,41607,2021-09-27_17h25.41.549,judgeSpeechMusic_20210921_logNormShiftAmp_detection_fixS,2020.1.2,MacIntel,60,,,,,,,,,,,,,,,,,,1,12.9932,,0,0,65,65,9,1,stimuli/stim_20210706_power2amp/equal_lnn_AM0.6Hz_s35_37.m4a,,,,,,,,,,,,
,,,,,,,,,,,,41607,2021-09-27_17h25.41.549,judgeSpeechMusic_20210921_logNormShiftAmp_detection_fixS,2020.1.2,MacIntel,60,,,,,,,,,,,,,,,,,,1,6.2978,,0,0,66,66,35,1,stimuli/stim_20210706_power2amp/equal_lnn_AM2.4Hz_s35_16.m4a,,,,,,,,,,,,
,,,,,,,,,,,,41607,2021-09-27_17h25.41.549,judgeSpeechMusic_20210921_logNormShiftAmp_detection_fixS,2020.1.2,MacIntel,60,,,,,,,,,,,,,,,,,,2,6.0085,,0,0,67,67,12,1,stimuli/stim_20210706_power2amp/equal_lnn_AM0.6Hz_s35_50.m4a,,,,,,,,,,,,
,,,,,,,,,,,,41607,2021-09-27_17h25.41.549,judgeSpeechMusic_20210921_logNormShiftAmp_detection_fixS,2020.1.2,MacIntel,60,,,,,,,,,,,,,,,,,,1,6.8421,,0,0,68,68,71,1,stimuli/stim_20210706_power2amp/equal_lnn_AM4.2Hz_s35_10.m4a,,,,,,,,,,,,
,,,,,,,,,,,,41607,2021-09-27_17h25.41.549,judgeSpeechMusic_20210921_logNormShiftAmp_detection_fixS,2020.1.2,MacIntel,60,,,,,,,,,,,,,,,,,,1,16.963,,0,0,69,69,72,1,stimuli/stim_20210706_power2amp/equal_lnn_AM4.2Hz_s35_40.m4a,,,,,,,,,,,,
,,,,,,,,,,,,41607,2021-09-27_17h25.41.549,judgeSpeechMusic_20210921_logNormShiftAmp_detection_fixS,2020.1.2,MacIntel,60,,,,,,,,,,,,,,,,,,2,6.347,,0,0,70,70,46,1,stimuli/stim_20210706_power2amp/equal_lnn_AM3.6Hz_s35_13.m4a,,,,,,,,,,,,
,,,,,,,,,,,,41607,2021-09-27_17h25.41.549,judgeSpeechMusic_20210921_logNormShiftAmp_detection_fixS,2020.1.2,MacIntel,60,,,,,,,,,,,,,,,,,,1,5.677,,0,0,71,71,74,1,stimuli/stim_20210706_power2amp/equal_lnn_AM4.2Hz_s35_48.m4a,,,,,,,,,,,,
,,,,,,,,,,,,41607,2021-09-27_17h25.41.549,judgeSpeechMusic_20210921_logNormShiftAmp_detection_fixS,2020.1.2,MacIntel,60,,,,,,,,,,,,,,,,,,2,5.6091,,0,0,72,72,30,1,stimuli/stim_20210706_power2amp/equal_lnn_AM2.4Hz_s35_41.m4a,,,,,,,,,,,,
,,,,,,,,,,,,41607,2021-09-27_17h25.41.549,judgeSpeechMusic_20210921_logNormShiftAmp_detection_fixS,2020.1.2,MacIntel,60,,,,,,,,,,,,,,,,,,2,6.478,,0,0,73,73,36,1,stimuli/stim_20210706_power2amp/equal_lnn_AM2.4Hz_s35_14.m4a,,,,,,,,,,,,
,,,,,,,,,,,,41607,2021-09-27_17h25.41.549,judgeSpeechMusic_20210921_logNormShiftAmp_detection_fixS,2020.1.2,MacIntel,60,,,,,,,,,,,,,,,,,,2,5.8935,,0,0,74,74,27,1,stimuli/stim_20210706_power2amp/equal_lnn_AM1.2Hz_s35_48.m4a,,,,,,,,,,,,
,,,,,,,,,,,,41607,2021-09-27_17h25.41.549,judgeSpeechMusic_20210921_logNormShiftAmp_detection_fixS,2020.1.2,MacIntel,60,,,,,,,,,,,,,,,,,,,,,,,,,,,,,space,1.1961,0,0,0,0,1,MUSIC,stimuli/MUSIC.jpg,,
,,,,,,,,,,,,41607,2021-09-27_17h25.41.549,judgeSpeechMusic_20210921_logNormShiftAmp_detection_fixS,2020.1.2,MacIntel,60,space,4.0333,1,8.8296,,0,0,0,0,1,1,stimuli/stim_20210706_power2amp/equal_lnn_AM_training1.8Hz_s35.m4a,,,,,,,,,,,,,,,,,,,,,,,,,,,
,,,,,,,,,,,,41607,2021-09-27_17h25.41.549,judgeSpeechMusic_20210921_logNormShiftAmp_detection_fixS,2020.1.2,MacIntel,60,,,1,6.7729,,0,0,1,1,0,1,stimuli/stim_20210706_power2amp/equal_lnn_AM_training0.9Hz_s35.m4a,,,,,,,,,,,,,,,,,,,,,,,,,,,
,,,,,,,,,,,,41607,2021-09-27_17h25.41.549,judgeSpeechMusic_20210921_logNormShiftAmp_detection_fixS,2020.1.2,MacIntel,60,,,2,6.274,1,1,0,2,2,2,1,stimuli/stim_20210706_power2amp/equal_lnn_AM_training3Hz_s35.m4a,1.3284,,,,,,,,,,,,,,,,,,,,,,,,,,
,,,,,,,,,,,,41607,2021-09-27_17h25.41.549,judgeSpeechMusic_20210921_logNormShiftAmp_detection_fixS,2020.1.2,MacIntel,60,,,2,7.1565,,0,0,3,3,3,1,stimuli/stim_20210706_power2amp/equal_lnn_AM_training3.9Hz_s35.m4a,,,,,,,,,,,,,,,,,,,,,,,,,,,
,,,,,,,,,,,,41607,2021-09-27_17h25.41.549,judgeSpeechMusic_20210921_logNormShiftAmp_detection_fixS,2020.1.2,MacIntel,60,,,,,,,,,,,,,,space,5.3116,space,7.9975,1,6.9113,,0,0,0,0,20,1,stimuli/stim_20210706_power2amp/equal_lnn_AM1.2Hz_s35_28.m4a,,,,,,,,,,,,
,,,,,,,,,,,,41607,2021-09-27_17h25.41.549,judgeSpeechMusic_20210921_logNormShiftAmp_detection_fixS,2020.1.2,MacIntel,60,,,,,,,,,,,,,,,,,,1,6.2933,,0,0,1,1,10,1,stimuli/stim_20210706_power2amp/equal_lnn_AM0.6Hz_s35_35.m4a,,,,,,,,,,,,
,,,,,,,,,,,,41607,2021-09-27_17h25.41.549,judgeSpeechMusic_20210921_logNormShiftAmp_detection_fixS,2020.1.2,MacIntel,60,,,,,,,,,,,,,,,,,,1,5.677,,0,0,2,2,29,1,stimuli/stim_20210706_power2amp/equal_lnn_AM1.2Hz_s35_17.m4a,,,,,,,,,,,,
,,,,,,,,,,,,41607,2021-09-27_17h25.41.549,judgeSpeechMusic_20210921_logNormShiftAmp_detection_fixS,2020.1.2,MacIntel,60,,,,,,,,,,,,,,,,,,2,15.0373,,0,0,3,3,33,1,stimuli/stim_20210706_power2amp/equal_lnn_AM2.4Hz_s35_3.m4a,,,,,,,,,,,,
,,,,,,,,,,,,41607,2021-09-27_17h25.41.549,judgeSpeechMusic_20210921_logNormShiftAmp_detection_fixS,2020.1.2,MacIntel,60,,,,,,,,,,,,,,,,,,1,6.404,,0,0,4,4,3,1,stimuli/stim_20210706_power2amp/equal_lnn_AM0.6Hz_s35_22.m4a,,,,,,,,,,,,
,,,,,,,,,,,,41607,2021-09-27_17h25.41.549,judgeSpeechMusic_20210921_logNormShiftAmp_detection_fixS,2020.1.2,MacIntel,60,,,,,,,,,,,,,,,,,,1,5.7476,,0,0,5,5,2,1,stimuli/stim_20210706_power2amp/equal_lnn_AM0.6Hz_s35_48.m4a,,,,,,,,,,,,
,,,,,,,,,,,,41607,2021-09-27_17h25.41.549,judgeSpeechMusic_20210921_logNormShiftAmp_detection_fixS,2020.1.2,MacIntel,60,,,,,,,,,,,,,,,,,,2,5.6085,,0,0,6,6,52,1,stimuli/stim_20210706_power2amp/equal_lnn_AM3.6Hz_s35_46.m4a,,,,,,,,,,,,
,,,,,,,,,,,,41607,2021-09-27_17h25.41.549,judgeSpeechMusic_20210921_logNormShiftAmp_detection_fixS,2020.1.2,MacIntel,60,,,,,,,,,,,,,,,,,,2,5.5721,,0,0,7,7,36,1,stimuli/stim_20210706_power2amp/equal_lnn_AM2.4Hz_s35_14.m4a,,,,,,,,,,,,
,,,,,,,,,,,,41607,2021-09-27_17h25.41.549,judgeSpeechMusic_20210921_logNormShiftAmp_detection_fixS,2020.1.2,MacIntel,60,,,,,,,,,,,,,,,,,,2,5.8583,,0,0,8,8,61,1,stimuli/stim_20210706_power2amp/equal_lnn_AM4.2Hz_s35_7.m4a,,,,,,,,,,,,
,,,,,,,,,,,,41607,2021-09-27_17h25.41.549,judgeSpeechMusic_20210921_logNormShiftAmp_detection_fixS,2020.1.2,MacIntel,60,,,,,,,,,,,,,,,,,,2,6.4881,,0,0,9,9,56,1,stimuli/stim_20210706_power2amp/equal_lnn_AM3.6Hz_s35_26.m4a,,,,,,,,,,,,
,,,,,,,,,,,,41607,2021-09-27_17h25.41.549,judgeSpeechMusic_20210921_logNormShiftAmp_detection_fixS,2020.1.2,MacIntel,60,,,,,,,,,,,,,,,,,,1,6.4596,,0,0,10,10,37,1,stimuli/stim_20210706_power2amp/equal_lnn_AM2.4Hz_s35_12.m4a,,,,,,,,,,,,
,,,,,,,,,,,,41607,2021-09-27_17h25.41.549,judgeSpeechMusic_20210921_logNormShiftAmp_detection_fixS,2020.1.2,MacIntel,60,,,,,,,,,,,,,,,,,,2,6.4426,,0,0,11,11,43,1,stimuli/stim_20210706_power2amp/equal_lnn_AM2.4Hz_s35_4.m4a,,,,,,,,,,,,
,,,,,,,,,,,,41607,2021-09-27_17h25.41.549,judgeSpeechMusic_20210921_logNormShiftAmp_detection_fixS,2020.1.2,MacIntel,60,,,,,,,,,,,,,,,,,,1,5.9116,,0,0,12,12,28,1,stimuli/stim_20210706_power2amp/equal_lnn_AM1.2Hz_s35_50.m4a,,,,,,,,,,,,
,,,,,,,,,,,,41607,2021-09-27_17h25.41.549,judgeSpeechMusic_20210921_logNormShiftAmp_detection_fixS,2020.1.2,MacIntel,60,,,,,,,,,,,,,,,,,,2,7.5779,,0,0,13,13,59,1,stimuli/stim_20210706_power2amp/equal_lnn_AM3.6Hz_s35_33.m4a,,,,,,,,,,,,
,,,,,,,,,,,,41607,2021-09-27_17h25.41.549,judgeSpeechMusic_20210921_logNormShiftAmp_detection_fixS,2020.1.2,MacIntel,60,,,,,,,,,,,,,,,,,,1,6.7443,,0,0,14,14,15,1,stimuli/stim_20210706_power2amp/equal_lnn_AM1.2Hz_s35_33.m4a,,,,,,,,,,,,
,,,,,,,,,,,,41607,2021-09-27_17h25.41.549,judgeSpeechMusic_20210921_logNormShiftAmp_detection_fixS,2020.1.2,MacIntel,60,,,,,,,,,,,,,,,,,,1,5.9784,,0,0,15,15,26,1,stimuli/stim_20210706_power2amp/equal_lnn_AM1.2Hz_s35_31.m4a,,,,,,,,,,,,
,,,,,,,,,,,,41607,2021-09-27_17h25.41.549,judgeSpeechMusic_20210921_logNormShiftAmp_detection_fixS,2020.1.2,MacIntel,60,,,,,,,,,,,,,,,,,,2,5.7306,,0,0,16,16,60,1,stimuli/stim_20210706_power2amp/equal_lnn_AM4.2Hz_s35_42.m4a,,,,,,,,,,,,
,,,,,,,,,,,,41607,2021-09-27_17h25.41.549,judgeSpeechMusic_20210921_logNormShiftAmp_detection_fixS,2020.1.2,MacIntel,60,,,,,,,,,,,,,,,,,,1,6.0592,,0,0,17,17,6,1,stimuli/stim_20210706_power2amp/equal_lnn_AM0.6Hz_s35_12.m4a,,,,,,,,,,,,
,,,,,,,,,,,,41607,2021-09-27_17h25.41.549,judgeSpeechMusic_20210921_logNormShiftAmp_detection_fixS,2020.1.2,MacIntel,60,,,,,,,,,,,,,,,,,,2,6.6448,,0,0,18,18,58,1,stimuli/stim_20210706_power2amp/equal_lnn_AM3.6Hz_s35_12.m4a,,,,,,,,,,,,
,,,,,,,,,,,,41607,2021-09-27_17h25.41.549,judgeSpeechMusic_20210921_logNormShiftAmp_detection_fixS,2020.1.2,MacIntel,60,,,,,,,,,,,,,,,,,,2,6.2605,3,1,0,19,19,66,1,stimuli/stim_20210706_power2amp/equal_lnn_AM4.2Hz_s35_41.m4a,0.6806,,,,,,,,,,,
,,,,,,,,,,,,41607,2021-09-27_17h25.41.549,judgeSpeechMusic_20210921_logNormShiftAmp_detection_fixS,2020.1.2,MacIntel,60,,,,,,,,,,,,,,,,,,2,8.0355,,0,0,20,20,44,1,stimuli/stim_20210706_power2amp/equal_lnn_AM2.4Hz_s35_10.m4a,,,,,,,,,,,,
,,,,,,,,,,,,41607,2021-09-27_17h25.41.549,judgeSpeechMusic_20210921_logNormShiftAmp_detection_fixS,2020.1.2,MacIntel,60,,,,,,,,,,,,,,,,,,2,5.5639,,0,0,21,21,71,1,stimuli/stim_20210706_power2amp/equal_lnn_AM4.2Hz_s35_10.m4a,,,,,,,,,,,,
,,,,,,,,,,,,41607,2021-09-27_17h25.41.549,judgeSpeechMusic_20210921_logNormShiftAmp_detection_fixS,2020.1.2,MacIntel,60,,,,,,,,,,,,,,,,,,2,5.6215,,0,0,22,22,65,1,stimuli/stim_20210706_power2amp/equal_lnn_AM4.2Hz_s35_28.m4a,,,,,,,,,,,,
,,,,,,,,,,,,41607,2021-09-27_17h25.41.549,judgeSpeechMusic_20210921_logNormShiftAmp_detection_fixS,2020.1.2,MacIntel,60,,,,,,,,,,,,,,,,,,1,5.8401,,0,0,23,23,39,1,stimuli/stim_20210706_power2amp/equal_lnn_AM2.4Hz_s35_11.m4a,,,,,,,,,,,,
,,,,,,,,,,,,41607,2021-09-27_17h25.41.549,judgeSpeechMusic_20210921_logNormShiftAmp_detection_fixS,2020.1.2,MacIntel,60,,,,,,,,,,,,,,,,,,2,5.7882,,0,0,24,24,57,1,stimuli/stim_20210706_power2amp/equal_lnn_AM3.6Hz_s35_44.m4a,,,,,,,,,,,,
,,,,,,,,,,,,41607,2021-09-27_17h25.41.549,judgeSpeechMusic_20210921_logNormShiftAmp_detection_fixS,2020.1.2,MacIntel,60,,,,,,,,,,,,,,,,,,2,5.5712,,0,0,25,25,49,1,stimuli/stim_20210706_power2amp/equal_lnn_AM3.6Hz_s35_38.m4a,,,,,,,,,,,,
,,,,,,,,,,,,41607,2021-09-27_17h25.41.549,judgeSpeechMusic_20210921_logNormShiftAmp_detection_fixS,2020.1.2,MacIntel,60,,,,,,,,,,,,,,,,,,1,7.9044,,0,0,26,26,25,1,stimuli/stim_20210706_power2amp/equal_lnn_AM1.2Hz_s35_11.m4a,,,,,,,,,,,,
,,,,,,,,,,,,41607,2021-09-27_17h25.41.549,judgeSpeechMusic_20210921_logNormShiftAmp_detection_fixS,2020.1.2,MacIntel,60,,,,,,,,,,,,,,,,,,1,11.7952,,0,0,27,27,9,1,stimuli/stim_20210706_power2amp/equal_lnn_AM0.6Hz_s35_37.m4a,,,,,,,,,,,,
,,,,,,,,,,,,41607,2021-09-27_17h25.41.549,judgeSpeechMusic_20210921_logNormShiftAmp_detection_fixS,2020.1.2,MacIntel,60,,,,,,,,,,,,,,,,,,2,6.7125,,0,0,28,28,50,1,stimuli/stim_20210706_power2amp/equal_lnn_AM3.6Hz_s35_22.m4a,,,,,,,,,,,,
,,,,,,,,,,,,41607,2021-09-27_17h25.41.549,judgeSpeechMusic_20210921_logNormShiftAmp_detection_fixS,2020.1.2,MacIntel,60,,,,,,,,,,,,,,,,,,2,8.9558,,0,0,29,29,74,1,stimuli/stim_20210706_power2amp/equal_lnn_AM4.2Hz_s35_48.m4a,,,,,,,,,,,,
,,,,,,,,,,,,41607,2021-09-27_17h25.41.549,judgeSpeechMusic_20210921_logNormShiftAmp_detection_fixS,2020.1.2,MacIntel,60,,,,,,,,,,,,,,,,,,1,6.2076,,0,0,30,30,11,1,stimuli/stim_20210706_power2amp/equal_lnn_AM0.6Hz_s35_40.m4a,,,,,,,,,,,,
,,,,,,,,,,,,41607,2021-09-27_17h25.41.549,judgeSpeechMusic_20210921_logNormShiftAmp_detection_fixS,2020.1.2,MacIntel,60,,,,,,,,,,,,,,,,,,1,7.6879,,0,0,31,31,40,1,stimuli/stim_20210706_power2amp/equal_lnn_AM2.4Hz_s35_49.m4a,,,,,,,,,,,,
,,,,,,,,,,,,41607,2021-09-27_17h25.41.549,judgeSpeechMusic_20210921_logNormShiftAmp_detection_fixS,2020.1.2,MacIntel,60,,,,,,,,,,,,,,,,,,1,7.7943,,0,0,32,32,54,1,stimuli/stim_20210706_power2amp/equal_lnn_AM3.6Hz_s35_15.m4a,,,,,,,,,,,,
,,,,,,,,,,,,41607,2021-09-27_17h25.41.549,judgeSpeechMusic_20210921_logNormShiftAmp_detection_fixS,2020.1.2,MacIntel,60,,,,,,,,,,,,,,,,,,1,6.5898,,0,0,33,33,7,1,stimuli/stim_20210706_power2amp/equal_lnn_AM0.6Hz_s35_42.m4a,,,,,,,,,,,,
,,,,,,,,,,,,41607,2021-09-27_17h25.41.549,judgeSpeechMusic_20210921_logNormShiftAmp_detection_fixS,2020.1.2,MacIntel,60,,,,,,,,,,,,,,,,,,1,5.8275,,0,0,34,34,19,1,stimuli/stim_20210706_power2amp/equal_lnn_AM1.2Hz_s35_46.m4a,,,,,,,,,,,,
,,,,,,,,,,,,41607,2021-09-27_17h25.41.549,judgeSpeechMusic_20210921_logNormShiftAmp_detection_fixS,2020.1.2,MacIntel,60,,,,,,,,,,,,,,,,,,1,5.6311,,0,0,35,35,32,1,stimuli/stim_20210706_power2amp/equal_lnn_AM2.4Hz_s35_47.m4a,,,,,,,,,,,,
,,,,,,,,,,,,41607,2021-09-27_17h25.41.549,judgeSpeechMusic_20210921_logNormShiftAmp_detection_fixS,2020.1.2,MacIntel,60,,,,,,,,,,,,,,,,,,1,5.5742,,0,0,36,36,23,1,stimuli/stim_20210706_power2amp/equal_lnn_AM1.2Hz_s35_44.m4a,,,,,,,,,,,,
,,,,,,,,,,,,41607,2021-09-27_17h25.41.549,judgeSpeechMusic_20210921_logNormShiftAmp_detection_fixS,2020.1.2,MacIntel,60,,,,,,,,,,,,,,,,,,2,5.8052,,0,0,37,37,51,1,stimuli/stim_20210706_power2amp/equal_lnn_AM3.6Hz_s35_31.m4a,,,,,,,,,,,,
,,,,,,,,,,,,41607,2021-09-27_17h25.41.549,judgeSpeechMusic_20210921_logNormShiftAmp_detection_fixS,2020.1.2,MacIntel,60,,,,,,,,,,,,,,,,,,2,5.6547,,0,0,38,38,67,1,stimuli/stim_20210706_power2amp/equal_lnn_AM4.2Hz_s35_18.m4a,,,,,,,,,,,,
,,,,,,,,,,,,41607,2021-09-27_17h25.41.549,judgeSpeechMusic_20210921_logNormShiftAmp_detection_fixS,2020.1.2,MacIntel,60,,,,,,,,,,,,,,,,,,1,6.0221,,0,0,39,39,22,1,stimuli/stim_20210706_power2amp/equal_lnn_AM1.2Hz_s35_10.m4a,,,,,,,,,,,,
,,,,,,,,,,,,41607,2021-09-27_17h25.41.549,judgeSpeechMusic_20210921_logNormShiftAmp_detection_fixS,2020.1.2,MacIntel,60,,,,,,,,,,,,,,,,,,1,5.6893,,0,0,40,40,8,1,stimuli/stim_20210706_power2amp/equal_lnn_AM0.6Hz_s35_1.m4a,,,,,,,,,,,,
,,,,,,,,,,,,41607,2021-09-27_17h25.41.549,judgeSpeechMusic_20210921_logNormShiftAmp_detection_fixS,2020.1.2,MacIntel,60,,,,,,,,,,,,,,,,,,1,6.004,2,1,0,41,41,5,1,stimuli/stim_20210706_power2amp/equal_lnn_AM0.6Hz_s35_41.m4a,0.375,,,,,,,,,,,
,,,,,,,,,,,,41607,2021-09-27_17h25.41.549,judgeSpeechMusic_20210921_logNormShiftAmp_detection_fixS,2020.1.2,MacIntel,60,,,,,,,,,,,,,,,,,,2,5.7574,,0,0,42,42,72,1,stimuli/stim_20210706_power2amp/equal_lnn_AM4.2Hz_s35_40.m4a,,,,,,,,,,,,
,,,,,,,,,,,,41607,2021-09-27_17h25.41.549,judgeSpeechMusic_20210921_logNormShiftAmp_detection_fixS,2020.1.2,MacIntel,60,,,,,,,,,,,,,,,,,,2,5.6057,,0,0,43,43,34,1,stimuli/stim_20210706_power2amp/equal_lnn_AM2.4Hz_s35_26.m4a,,,,,,,,,,,,
,,,,,,,,,,,,41607,2021-09-27_17h25.41.549,judgeSpeechMusic_20210921_logNormShiftAmp_detection_fixS,2020.1.2,MacIntel,60,,,,,,,,,,,,,,,,,,2,5.7214,,0,0,44,44,64,1,stimuli/stim_20210706_power2amp/equal_lnn_AM4.2Hz_s35_15.m4a,,,,,,,,,,,,
,,,,,,,,,,,,41607,2021-09-27_17h25.41.549,judgeSpeechMusic_20210921_logNormShiftAmp_detection_fixS,2020.1.2,MacIntel,60,,,,,,,,,,,,,,,,,,1,5.8786,,0,0,45,45,18,1,stimuli/stim_20210706_power2amp/equal_lnn_AM1.2Hz_s35_7.m4a,,,,,,,,,,,,
,,,,,,,,,,,,41607,2021-09-27_17h25.41.549,judgeSpeechMusic_20210921_logNormShiftAmp_detection_fixS,2020.1.2,MacIntel,60,,,,,,,,,,,,,,,,,,2,5.5554,,0,0,46,46,45,1,stimuli/stim_20210706_power2amp/equal_lnn_AM3.6Hz_s35_41.m4a,,,,,,,,,,,,
,,,,,,,,,,,,41607,2021-09-27_17h25.41.549,judgeSpeechMusic_20210921_logNormShiftAmp_detection_fixS,2020.1.2,MacIntel,60,,,,,,,,,,,,,,,,,,2,6.3555,,0,0,47,47,31,1,stimuli/stim_20210706_power2amp/equal_lnn_AM2.4Hz_s35_42.m4a,,,,,,,,,,,,
,,,,,,,,,,,,41607,2021-09-27_17h25.41.549,judgeSpeechMusic_20210921_logNormShiftAmp_detection_fixS,2020.1.2,MacIntel,60,,,,,,,,,,,,,,,,,,1,5.5962,,0,0,48,48,4,1,stimuli/stim_20210706_power2amp/equal_lnn_AM0.6Hz_s35_20.m4a,,,,,,,,,,,,
,,,,,,,,,,,,41607,2021-09-27_17h25.41.549,judgeSpeechMusic_20210921_logNormShiftAmp_detection_fixS,2020.1.2,MacIntel,60,,,,,,,,,,,,,,,,,,2,6.6065,,0,0,49,49,41,1,stimuli/stim_20210706_power2amp/equal_lnn_AM2.4Hz_s35_17.m4a,,,,,,,,,,,,
,,,,,,,,,,,,41607,2021-09-27_17h25.41.549,judgeSpeechMusic_20210921_logNormShiftAmp_detection_fixS,2020.1.2,MacIntel,60,,,,,,,,,,,,,,,,,,2,7.1614,,0,0,50,50,62,1,stimuli/stim_20210706_power2amp/equal_lnn_AM4.2Hz_s35_14.m4a,,,,,,,,,,,,
,,,,,,,,,,,,41607,2021-09-27_17h25.41.549,judgeSpeechMusic_20210921_logNormShiftAmp_detection_fixS,2020.1.2,MacIntel,60,,,,,,,,,,,,,,,,,,1,6.1051,,0,0,51,51,24,1,stimuli/stim_20210706_power2amp/equal_lnn_AM1.2Hz_s35_23.m4a,,,,,,,,,,,,
,,,,,,,,,,,,41607,2021-09-27_17h25.41.549,judgeSpeechMusic_20210921_logNormShiftAmp_detection_fixS,2020.1.2,MacIntel,60,,,,,,,,,,,,,,,,,,1,5.5574,,0,0,52,52,0,1,stimuli/stim_20210706_power2amp/equal_lnn_AM0.6Hz_s35_24.m4a,,,,,,,,,,,,
,,,,,,,,,,,,41607,2021-09-27_17h25.41.549,judgeSpeechMusic_20210921_logNormShiftAmp_detection_fixS,2020.1.2,MacIntel,60,,,,,,,,,,,,,,,,,,2,5.8041,,0,0,53,53,73,1,stimuli/stim_20210706_power2amp/equal_lnn_AM4.2Hz_s35_30.m4a,,,,,,,,,,,,
,,,,,,,,,,,,41607,2021-09-27_17h25.41.549,judgeSpeechMusic_20210921_logNormShiftAmp_detection_fixS,2020.1.2,MacIntel,60,,,,,,,,,,,,,,,,,,1,15.807,,0,0,54,54,21,1,stimuli/stim_20210706_power2amp/equal_lnn_AM1.2Hz_s35_13.m4a,,,,,,,,,,,,
,,,,,,,,,,,,41607,2021-09-27_17h25.41.549,judgeSpeechMusic_20210921_logNormShiftAmp_detection_fixS,2020.1.2,MacIntel,60,,,,,,,,,,,,,,,,,,2,5.6268,,0,0,55,55,69,1,stimuli/stim_20210706_power2amp/equal_lnn_AM4.2Hz_s35_46.m4a,,,,,,,,,,,,
,,,,,,,,,,,,41607,2021-09-27_17h25.41.549,judgeSpeechMusic_20210921_logNormShiftAmp_detection_fixS,2020.1.2,MacIntel,60,,,,,,,,,,,,,,,,,,1,6.0379,,0,0,56,56,35,1,stimuli/stim_20210706_power2amp/equal_lnn_AM2.4Hz_s35_16.m4a,,,,,,,,,,,,
,,,,,,,,,,,,41607,2021-09-27_17h25.41.549,judgeSpeechMusic_20210921_logNormShiftAmp_detection_fixS,2020.1.2,MacIntel,60,,,,,,,,,,,,,,,,,,1,5.6893,,0,0,57,57,17,1,stimuli/stim_20210706_power2amp/equal_lnn_AM1.2Hz_s35_12.m4a,,,,,,,,,,,,
,,,,,,,,,,,,41607,2021-09-27_17h25.41.549,judgeSpeechMusic_20210921_logNormShiftAmp_detection_fixS,2020.1.2,MacIntel,60,,,,,,,,,,,,,,,,,,1,6.0397,,0,0,58,58,30,1,stimuli/stim_20210706_power2amp/equal_lnn_AM2.4Hz_s35_41.m4a,,,,,,,,,,,,
,,,,,,,,,,,,41607,2021-09-27_17h25.41.549,judgeSpeechMusic_20210921_logNormShiftAmp_detection_fixS,2020.1.2,MacIntel,60,,,,,,,,,,,,,,,,,,1,5.5887,,0,0,59,59,16,1,stimuli/stim_20210706_power2amp/equal_lnn_AM1.2Hz_s35_14.m4a,,,,,,,,,,,,
,,,,,,,,,,,,41607,2021-09-27_17h25.41.549,judgeSpeechMusic_20210921_logNormShiftAmp_detection_fixS,2020.1.2,MacIntel,60,,,,,,,,,,,,,,,,,,2,6.639,,0,0,60,60,38,1,stimuli/stim_20210706_power2amp/equal_lnn_AM2.4Hz_s35_30.m4a,,,,,,,,,,,,
,,,,,,,,,,,,41607,2021-09-27_17h25.41.549,judgeSpeechMusic_20210921_logNormShiftAmp_detection_fixS,2020.1.2,MacIntel,60,,,,,,,,,,,,,,,,,,1,8.6807,,0,0,61,61,46,1,stimuli/stim_20210706_power2amp/equal_lnn_AM3.6Hz_s35_13.m4a,,,,,,,,,,,,
,,,,,,,,,,,,41607,2021-09-27_17h25.41.549,judgeSpeechMusic_20210921_logNormShiftAmp_detection_fixS,2020.1.2,MacIntel,60,,,,,,,,,,,,,,,,,,2,5.9581,,0,0,62,62,53,1,stimuli/stim_20210706_power2amp/equal_lnn_AM3.6Hz_s35_30.m4a,,,,,,,,,,,,
,,,,,,,,,,,,41607,2021-09-27_17h25.41.549,judgeSpeechMusic_20210921_logNormShiftAmp_detection_fixS,2020.1.2,MacIntel,60,,,,,,,,,,,,,,,,,,1,6.255,1,1,0,63,63,27,1,stimuli/stim_20210706_power2amp/equal_lnn_AM1.2Hz_s35_48.m4a,0.3134,,,,,,,,,,,
,,,,,,,,,,,,41607,2021-09-27_17h25.41.549,judgeSpeechMusic_20210921_logNormShiftAmp_detection_fixS,2020.1.2,MacIntel,60,,,,,,,,,,,,,,,,,,2,6.4276,,0,0,64,64,47,1,stimuli/stim_20210706_power2amp/equal_lnn_AM3.6Hz_s35_50.m4a,,,,,,,,,,,,
,,,,,,,,,,,,41607,2021-09-27_17h25.41.549,judgeSpeechMusic_20210921_logNormShiftAmp_detection_fixS,2020.1.2,MacIntel,60,,,,,,,,,,,,,,,,,,1,5.6078,,0,0,65,65,13,1,stimuli/stim_20210706_power2amp/equal_lnn_AM0.6Hz_s35_16.m4a,,,,,,,,,,,,
,,,,,,,,,,,,41607,2021-09-27_17h25.41.549,judgeSpeechMusic_20210921_logNormShiftAmp_detection_fixS,2020.1.2,MacIntel,60,,,,,,,,,,,,,,,,,,1,5.6054,,0,0,66,66,12,1,stimuli/stim_20210706_power2amp/equal_lnn_AM0.6Hz_s35_50.m4a,,,,,,,,,,,,
,,,,,,,,,,,,41607,2021-09-27_17h25.41.549,judgeSpeechMusic_20210921_logNormShiftAmp_detection_fixS,2020.1.2,MacIntel,60,,,,,,,,,,,,,,,,,,1,5.4716,,0,0,67,67,14,1,stimuli/stim_20210706_power2amp/equal_lnn_AM0.6Hz_s35_6.m4a,,,,,,,,,,,,
,,,,,,,,,,,,41607,2021-09-27_17h25.41.549,judgeSpeechMusic_20210921_logNormShiftAmp_detection_fixS,2020.1.2,MacIntel,60,,,,,,,,,,,,,,,,,,2,5.9142,,0,0,68,68,42,1,stimuli/stim_20210706_power2amp/equal_lnn_AM2.4Hz_s35_1.m4a,,,,,,,,,,,,
,,,,,,,,,,,,41607,2021-09-27_17h25.41.549,judgeSpeechMusic_20210921_logNormShiftAmp_detection_fixS,2020.1.2,MacIntel,60,,,,,,,,,,,,,,,,,,2,5.6948,,0,0,69,69,48,1,stimuli/stim_20210706_power2amp/equal_lnn_AM3.6Hz_s35_16.m4a,,,,,,,,,,,,
,,,,,,,,,,,,41607,2021-09-27_17h25.41.549,judgeSpeechMusic_20210921_logNormShiftAmp_detection_fixS,2020.1.2,MacIntel,60,,,,,,,,,,,,,,,,,,2,5.8623,,0,0,70,70,55,1,stimuli/stim_20210706_power2amp/equal_lnn_AM3.6Hz_s35_25.m4a,,,,,,,,,,,,
,,,,,,,,,,,,41607,2021-09-27_17h25.41.549,judgeSpeechMusic_20210921_logNormShiftAmp_detection_fixS,2020.1.2,MacIntel,60,,,,,,,,,,,,,,,,,,2,5.7374,,0,0,71,71,70,1,stimuli/stim_20210706_power2amp/equal_lnn_AM4.2Hz_s35_47.m4a,,,,,,,,,,,,
,,,,,,,,,,,,41607,2021-09-27_17h25.41.549,judgeSpeechMusic_20210921_logNormShiftAmp_detection_fixS,2020.1.2,MacIntel,60,,,,,,,,,,,,,,,,,,2,5.7932,,0,0,72,72,68,1,stimuli/stim_20210706_power2amp/equal_lnn_AM4.2Hz_s35_31.m4a,,,,,,,,,,,,
,,,,,,,,,,,,41607,2021-09-27_17h25.41.549,judgeSpeechMusic_20210921_logNormShiftAmp_detection_fixS,2020.1.2,MacIntel,60,,,,,,,,,,,,,,,,,,2,5.5716,,0,0,73,73,63,1,stimuli/stim_20210706_power2amp/equal_lnn_AM4.2Hz_s35_13.m4a,,,,,,,,,,,,
,,,,,,,,,,,,41607,2021-09-27_17h25.41.549,judgeSpeechMusic_20210921_logNormShiftAmp_detection_fixS,2020.1.2,MacIntel,60,,,,,,,,,,,,,,,,,,1,6.6959,,0,0,74,74,1,1,stimuli/stim_20210706_power2amp/equal_lnn_AM0.6Hz_s35_14.m4a,,,,,,,,,,,,
,,,,,,,,,,,,41607,2021-09-27_17h25.41.549,judgeSpeechMusic_20210921_logNormShiftAmp_detection_fixS,2020.1.2,MacIntel,60,,,,,,,,,,,,,,,,,,,,,,,,,,,,,space,0.4095,0,1,1,1,1,SPEECH,stimuli/SPEECH.jpg,,
,,,,,,,,,,,,41607,2021-09-27_17h25.41.549,judgeSpeechMusic_20210921_logNormShiftAmp_detection_fixS,2020.1.2,MacIntel,60,,,,,,0,0,0,0,0,1,stimuli/stim_20210706_power2amp/equal_lnn_AM_training0.9Hz_s35.m4a,,,,,,,,,,,,,,,,,,,,,,,,,,,
,,,,,,,,,,,,41607,2021-09-27_17h25.41.549,judgeSpeechMusic_20210921_logNormShiftAmp_detection_fixS,2020.1.2,MacIntel,60,,,,,,,,,,,,,,space,11.2407,space,0.4104,1,5.8214,,0,0,0,0,8,1,stimuli/stim_20210706_power2amp/equal_lnn_AM0.6Hz_s35_1.m4a,,,,,,,,,,,,
,,,,,,,,,,,,41607,2021-09-27_17h25.41.549,judgeSpeechMusic_20210921_logNormShiftAmp_detection_fixS,2020.1.2,MacIntel,60,,,,,,,,,,,,,,,,,,2,5.6452,,0,0,1,1,31,1,stimuli/stim_20210706_power2amp/equal_lnn_AM2.4Hz_s35_42.m4a,,,,,,,,,,,,
,,,,,,,,,,,,41607,2021-09-27_17h25.41.549,judgeSpeechMusic_20210921_logNormShiftAmp_detection_fixS,2020.1.2,MacIntel,60,,,,,,,,,,,,,,,,,,2,5.5464,,0,0,2,2,62,1,stimuli/stim_20210706_power2amp/equal_lnn_AM4.2Hz_s35_14.m4a,,,,,,,,,,,,
,,,,,,,,,,,,41607,2021-09-27_17h25.41.549,judgeSpeechMusic_20210921_logNormShiftAmp_detection_fixS,2020.1.2,MacIntel,60,,,,,,,,,,,,,,,,,,2,5.5709,,0,0,3,3,57,1,stimuli/stim_20210706_power2amp/equal_lnn_AM3.6Hz_s35_44.m4a,,,,,,,,,,,,
,,,,,,,,,,,,41607,2021-09-27_17h25.41.549,judgeSpeechMusic_20210921_logNormShiftAmp_detection_fixS,2020.1.2,MacIntel,60,,,,,,,,,,,,,,,,,,2,10.2392,,0,0,4,4,44,1,stimuli/stim_20210706_power2amp/equal_lnn_AM2.4Hz_s35_10.m4a,,,,,,,,,,,,
,,,,,,,,,,,,41607,2021-09-27_17h25.41.549,judgeSpeechMusic_20210921_logNormShiftAmp_detection_fixS,2020.1.2,MacIntel,60,,,,,,,,,,,,,,,,,,1,6.0893,,0,0,5,5,33,1,stimuli/stim_20210706_power2amp/equal_lnn_AM2.4Hz_s35_3.m4a,,,,,,,,,,,,
,,,,,,,,,,,,41607,2021-09-27_17h25.41.549,judgeSpeechMusic_20210921_logNormShiftAmp_detection_fixS,2020.1.2,MacIntel,60,,,,,,,,,,,,,,,,,,2,6.703,,0,0,6,6,55,1,stimuli/stim_20210706_power2amp/equal_lnn_AM3.6Hz_s35_25.m4a,,,,,,,,,,,,
,,,,,,,,,,,,41607,2021-09-27_17h25.41.549,judgeSpeechMusic_20210921_logNormShiftAmp_detection_fixS,2020.1.2,MacIntel,60,,,,,,,,,,,,,,,,,,1,5.5921,,0,0,7,7,41,1,stimuli/stim_20210706_power2amp/equal_lnn_AM2.4Hz_s35_17.m4a,,,,,,,,,,,,
,,,,,,,,,,,,41607,2021-09-27_17h25.41.549,judgeSpeechMusic_20210921_logNormShiftAmp_detection_fixS,2020.1.2,MacIntel,60,,,,,,,,,,,,,,,,,,2,5.796,,0,0,8,8,74,1,stimuli/stim_20210706_power2amp/equal_lnn_AM4.2Hz_s35_48.m4a,,,,,,,,,,,,
,,,,,,,,,,,,41607,2021-09-27_17h25.41.549,judgeSpeechMusic_20210921_logNormShiftAmp_detection_fixS,2020.1.2,MacIntel,60,,,,,,,,,,,,,,,,,,1,10.9919,,0,0,9,9,17,1,stimuli/stim_20210706_power2amp/equal_lnn_AM1.2Hz_s35_12.m4a,,,,,,,,,,,,
,,,,,,,,,,,,41607,2021-09-27_17h25.41.549,judgeSpeechMusic_20210921_logNormShiftAmp_detection_fixS,2020.1.2,MacIntel,60,,,,,,,,,,,,,,,,,,2,7.7758,,0,0,10,10,70,1,stimuli/stim_20210706_power2amp/equal_lnn_AM4.2Hz_s35_47.m4a,,,,,,,,,,,,
,,,,,,,,,,,,41607,2021-09-27_17h25.41.549,judgeSpeechMusic_20210921_logNormShiftAmp_detection_fixS,2020.1.2,MacIntel,60,,,,,,,,,,,,,,,,,,2,9.6452,,0,0,11,11,58,1,stimuli/stim_20210706_power2amp/equal_lnn_AM3.6Hz_s35_12.m4a,,,,,,,,,,,,
,,,,,,,,,,,,41607,2021-09-27_17h25.41.549,judgeSpeechMusic_20210921_logNormShiftAmp_detection_fixS,2020.1.2,MacIntel,60,,,,,,,,,,,,,,,,,,1,10.0263,,0,0,12,12,15,1,stimuli/stim_20210706_power2amp/equal_lnn_AM1.2Hz_s35_33.m4a,,,,,,,,,,,,
,,,,,,,,,,,,41607,2021-09-27_17h25.41.549,judgeSpeechMusic_20210921_logNormShiftAmp_detection_fixS,2020.1.2,MacIntel,60,,,,,,,,,,,,,,,,,,1,5.9059,,0,0,13,13,6,1,stimuli/stim_20210706_power2amp/equal_lnn_AM0.6Hz_s35_12.m4a,,,,,,,,,,,,
,,,,,,,,,,,,41607,2021-09-27_17h25.41.549,judgeSpeechMusic_20210921_logNormShiftAmp_detection_fixS,2020.1.2,MacIntel,60,,,,,,,,,,,,,,,,,,1,5.5788,,0,0,14,14,0,1,stimuli/stim_20210706_power2amp/equal_lnn_AM0.6Hz_s35_24.m4a,,,,,,,,,,,,
,,,,,,,,,,,,41607,2021-09-27_17h25.41.549,judgeSpeechMusic_20210921_logNormShiftAmp_detection_fixS,2020.1.2,MacIntel,60,,,,,,,,,,,,,,,,,,2,7.8388,,0,0,15,15,51,1,stimuli/stim_20210706_power2amp/equal_lnn_AM3.6Hz_s35_31.m4a,,,,,,,,,,,,
,,,,,,,,,,,,41607,2021-09-27_17h25.41.549,judgeSpeechMusic_20210921_logNormShiftAmp_detection_fixS,2020.1.2,MacIntel,60,,,,,,,,,,,,,,,,,,2,5.9057,,0,0,16,16,52,1,stimuli/stim_20210706_power2amp/equal_lnn_AM3.6Hz_s35_46.m4a,,,,,,,,,,,,
,,,,,,,,,,,,41607,2021-09-27_17h25.41.549,judgeSpeechMusic_20210921_logNormShiftAmp_detection_fixS,2020.1.2,MacIntel,60,,,,,,,,,,,,,,,,,,1,5.6589,,0,0,17,17,40,1,stimuli/stim_20210706_power2amp/equal_lnn_AM2.4Hz_s35_49.m4a,,,,,,,,,,,,
,,,,,,,,,,,,41607,2021-09-27_17h25.41.549,judgeSpeechMusic_20210921_logNormShiftAmp_detection_fixS,2020.1.2,MacIntel,60,,,,,,,,,,,,,,,,,,2,5.5952,,0,0,18,18,50,1,stimuli/stim_20210706_power2amp/equal_lnn_AM3.6Hz_s35_22.m4a,,,,,,,,,,,,
,,,,,,,,,,,,41607,2021-09-27_17h25.41.549,judgeSpeechMusic_20210921_logNormShiftAmp_detection_fixS,2020.1.2,MacIntel,60,,,,,,,,,,,,,,,,,,1,5.6051,1,1,0,19,19,56,1,stimuli/stim_20210706_power2amp/equal_lnn_AM3.6Hz_s35_26.m4a,0.5736,,,,,,,,,,,
,,,,,,,,,,,,41607,2021-09-27_17h25.41.549,judgeSpeechMusic_20210921_logNormShiftAmp_detection_fixS,2020.1.2,MacIntel,60,,,,,,,,,,,,,,,,,,2,6.7787,,0,0,20,20,49,1,stimuli/stim_20210706_power2amp/equal_lnn_AM3.6Hz_s35_38.m4a,,,,,,,,,,,,
,,,,,,,,,,,,41607,2021-09-27_17h25.41.549,judgeSpeechMusic_20210921_logNormShiftAmp_detection_fixS,2020.1.2,MacIntel,60,,,,,,,,,,,,,,,,,,1,5.8215,,0,0,21,21,7,1,stimuli/stim_20210706_power2amp/equal_lnn_AM0.6Hz_s35_42.m4a,,,,,,,,,,,,
,,,,,,,,,,,,41607,2021-09-27_17h25.41.549,judgeSpeechMusic_20210921_logNormShiftAmp_detection_fixS,2020.1.2,MacIntel,60,,,,,,,,,,,,,,,,,,1,5.6205,,0,0,22,22,18,1,stimuli/stim_20210706_power2amp/equal_lnn_AM1.2Hz_s35_7.m4a,,,,,,,,,,,,
,,,,,,,,,,,,41607,2021-09-27_17h25.41.549,judgeSpeechMusic_20210921_logNormShiftAmp_detection_fixS,2020.1.2,MacIntel,60,,,,,,,,,,,,,,,,,,2,5.644,,0,0,23,23,47,1,stimuli/stim_20210706_power2amp/equal_lnn_AM3.6Hz_s35_50.m4a,,,,,,,,,,,,
,,,,,,,,,,,,41607,2021-09-27_17h25.41.549,judgeSpeechMusic_20210921_logNormShiftAmp_detection_fixS,2020.1.2,MacIntel,60,,,,,,,,,,,,,,,,,,1,5.6977,,0,0,24,24,22,1,stimuli/stim_20210706_power2amp/equal_lnn_AM1.2Hz_s35_10.m4a,,,,,,,,,,,,
,,,,,,,,,,,,41607,2021-09-27_17h25.41.549,judgeSpeechMusic_20210921_logNormShiftAmp_detection_fixS,2020.1.2,MacIntel,60,,,,,,,,,,,,,,,,,,1,7.8925,,0,0,25,25,27,1,stimuli/stim_20210706_power2amp/equal_lnn_AM1.2Hz_s35_48.m4a,,,,,,,,,,,,
,,,,,,,,,,,,41607,2021-09-27_17h25.41.549,judgeSpeechMusic_20210921_logNormShiftAmp_detection_fixS,2020.1.2,MacIntel,60,,,,,,,,,,,,,,,,,,2,8.0728,,0,0,26,26,26,1,stimuli/stim_20210706_power2amp/equal_lnn_AM1.2Hz_s35_31.m4a,,,,,,,,,,,,
,,,,,,,,,,,,41607,2021-09-27_17h25.41.549,judgeSpeechMusic_20210921_logNormShiftAmp_detection_fixS,2020.1.2,MacIntel,60,,,,,,,,,,,,,,,,,,1,5.8211,,0,0,27,27,19,1,stimuli/stim_20210706_power2amp/equal_lnn_AM1.2Hz_s35_46.m4a,,,,,,,,,,,,
,,,,,,,,,,,,41607,2021-09-27_17h25.41.549,judgeSpeechMusic_20210921_logNormShiftAmp_detection_fixS,2020.1.2,MacIntel,60,,,,,,,,,,,,,,,,,,2,5.8101,,0,0,28,28,53,1,stimuli/stim_20210706_power2amp/equal_lnn_AM3.6Hz_s35_30.m4a,,,,,,,,,,,,
,,,,,,,,,,,,41607,2021-09-27_17h25.41.549,judgeSpeechMusic_20210921_logNormShiftAmp_detection_fixS,2020.1.2,MacIntel,60,,,,,,,,,,,,,,,,,,2,5.9889,,0,0,29,29,46,1,stimuli/stim_20210706_power2amp/equal_lnn_AM3.6Hz_s35_13.m4a,,,,,,,,,,,,
,,,,,,,,,,,,41607,2021-09-27_17h25.41.549,judgeSpeechMusic_20210921_logNormShiftAmp_detection_fixS,2020.1.2,MacIntel,60,,,,,,,,,,,,,,,,,,1,8.5445,,0,0,30,30,28,1,stimuli/stim_20210706_power2amp/equal_lnn_AM1.2Hz_s35_50.m4a,,,,,,,,,,,,
,,,,,,,,,,,,41607,2021-09-27_17h25.41.549,judgeSpeechMusic_20210921_logNormShiftAmp_detection_fixS,2020.1.2,MacIntel,60,,,,,,,,,,,,,,,,,,2,6.5772,,0,0,31,31,36,1,stimuli/stim_20210706_power2amp/equal_lnn_AM2.4Hz_s35_14.m4a,,,,,,,,,,,,
,,,,,,,,,,,,41607,2021-09-27_17h25.41.549,judgeSpeechMusic_20210921_logNormShiftAmp_detection_fixS,2020.1.2,MacIntel,60,,,,,,,,,,,,,,,,,,1,8.8591,,0,0,32,32,21,1,stimuli/stim_20210706_power2amp/equal_lnn_AM1.2Hz_s35_13.m4a,,,,,,,,,,,,
,,,,,,,,,,,,41607,2021-09-27_17h25.41.549,judgeSpeechMusic_20210921_logNormShiftAmp_detection_fixS,2020.1.2,MacIntel,60,,,,,,,,,,,,,,,,,,1,5.9113,,0,0,33,33,3,1,stimuli/stim_20210706_power2amp/equal_lnn_AM0.6Hz_s35_22.m4a,,,,,,,,,,,,
,,,,,,,,,,,,41607,2021-09-27_17h25.41.549,judgeSpeechMusic_20210921_logNormShiftAmp_detection_fixS,2020.1.2,MacIntel,60,,,,,,,,,,,,,,,,,,2,5.8055,,0,0,34,34,61,1,stimuli/stim_20210706_power2amp/equal_lnn_AM4.2Hz_s35_7.m4a,,,,,,,,,,,,
,,,,,,,,,,,,41607,2021-09-27_17h25.41.549,judgeSpeechMusic_20210921_logNormShiftAmp_detection_fixS,2020.1.2,MacIntel,60,,,,,,,,,,,,,,,,,,1,5.9229,,0,0,35,35,23,1,stimuli/stim_20210706_power2amp/equal_lnn_AM1.2Hz_s35_44.m4a,,,,,,,,,,,,
,,,,,,,,,,,,41607,2021-09-27_17h25.41.549,judgeSpeechMusic_20210921_logNormShiftAmp_detection_fixS,2020.1.2,MacIntel,60,,,,,,,,,,,,,,,,,,1,9.4477,,0,0,36,36,25,1,stimuli/stim_20210706_power2amp/equal_lnn_AM1.2Hz_s35_11.m4a,,,,,,,,,,,,
,,,,,,,,,,,,41607,2021-09-27_17h25.41.549,judgeSpeechMusic_20210921_logNormShiftAmp_detection_fixS,2020.1.2,MacIntel,60,,,,,,,,,,,,,,,,,,1,9.5751,,0,0,37,37,64,1,stimuli/stim_20210706_power2amp/equal_lnn_AM4.2Hz_s35_15.m4a,,,,,,,,,,,,
,,,,,,,,,,,,41607,2021-09-27_17h25.41.549,judgeSpeechMusic_20210921_logNormShiftAmp_detection_fixS,2020.1.2,MacIntel,60,,,,,,,,,,,,,,,,,,1,8.0375,,0,0,38,38,1,1,stimuli/stim_20210706_power2amp/equal_lnn_AM0.6Hz_s35_14.m4a,,,,,,,,,,,,
,,,,,,,,,,,,41607,2021-09-27_17h25.41.549,judgeSpeechMusic_20210921_logNormShiftAmp_detection_fixS,2020.1.2,MacIntel,60,,,,,,,,,,,,,,,,,,1,6.5605,,0,0,39,39,38,1,stimuli/stim_20210706_power2amp/equal_lnn_AM2.4Hz_s35_30.m4a,,,,,,,,,,,,
,,,,,,,,,,,,41607,2021-09-27_17h25.41.549,judgeSpeechMusic_20210921_logNormShiftAmp_detection_fixS,2020.1.2,MacIntel,60,,,,,,,,,,,,,,,,,,2,5.7256,,0,0,40,40,34,1,stimuli/stim_20210706_power2amp/equal_lnn_AM2.4Hz_s35_26.m4a,,,,,,,,,,,,
,,,,,,,,,,,,41607,2021-09-27_17h25.41.549,judgeSpeechMusic_20210921_logNormShiftAmp_detection_fixS,2020.1.2,MacIntel,60,,,,,,,,,,,,,,,,,,1,5.529,4,1,0,41,41,14,1,stimuli/stim_20210706_power2amp/equal_lnn_AM0.6Hz_s35_6.m4a,0.2428,,,,,,,,,,,
,,,,,,,,,,,,41607,2021-09-27_17h25.41.549,judgeSpeechMusic_20210921_logNormShiftAmp_detection_fixS,2020.1.2,MacIntel,60,,,,,,,,,,,,,,,,,,1,8.2894,,0,0,42,42,54,1,stimuli/stim_20210706_power2amp/equal_lnn_AM3.6Hz_s35_15.m4a,,,,,,,,,,,,
,,,,,,,,,,,,41607,2021-09-27_17h25.41.549,judgeSpeechMusic_20210921_logNormShiftAmp_detection_fixS,2020.1.2,MacIntel,60,,,,,,,,,,,,,,,,,,2,5.6555,,0,0,43,43,65,1,stimuli/stim_20210706_power2amp/equal_lnn_AM4.2Hz_s35_28.m4a,,,,,,,,,,,,
,,,,,,,,,,,,41607,2021-09-27_17h25.41.549,judgeSpeechMusic_20210921_logNormShiftAmp_detection_fixS,2020.1.2,MacIntel,60,,,,,,,,,,,,,,,,,,1,5.69,,0,0,44,44,5,1,stimuli/stim_20210706_power2amp/equal_lnn_AM0.6Hz_s35_41.m4a,,,,,,,,,,,,
,,,,,,,,,,,,41607,2021-09-27_17h25.41.549,judgeSpeechMusic_20210921_logNormShiftAmp_detection_fixS,2020.1.2,MacIntel,60,,,,,,,,,,,,,,,,,,2,5.8437,,0,0,45,45,69,1,stimuli/stim_20210706_power2amp/equal_lnn_AM4.2Hz_s35_46.m4a,,,,,,,,,,,,
,,,,,,,,,,,,41607,2021-09-27_17h25.41.549,judgeSpeechMusic_20210921_logNormShiftAmp_detection_fixS,2020.1.2,MacIntel,60,,,,,,,,,,,,,,,,,,1,7.7127,,0,0,46,46,2,1,stimuli/stim_20210706_power2amp/equal_lnn_AM0.6Hz_s35_48.m4a,,,,,,,,,,,,
,,,,,,,,,,,,41607,2021-09-27_17h25.41.549,judgeSpeechMusic_20210921_logNormShiftAmp_detection_fixS,2020.1.2,MacIntel,60,,,,,,,,,,,,,,,,,,1,6.1875,,0,0,47,47,42,1,stimuli/stim_20210706_power2amp/equal_lnn_AM2.4Hz_s35_1.m4a,,,,,,,,,,,,
,,,,,,,,,,,,41607,2021-09-27_17h25.41.549,judgeSpeechMusic_20210921_logNormShiftAmp_detection_fixS,2020.1.2,MacIntel,60,,,,,,,,,,,,,,,,,,2,9.2224,,0,0,48,48,35,1,stimuli/stim_20210706_power2amp/equal_lnn_AM2.4Hz_s35_16.m4a,,,,,,,,,,,,
,,,,,,,,,,,,41607,2021-09-27_17h25.41.549,judgeSpeechMusic_20210921_logNormShiftAmp_detection_fixS,2020.1.2,MacIntel,60,,,,,,,,,,,,,,,,,,2,6.7117,,0,0,49,49,66,1,stimuli/stim_20210706_power2amp/equal_lnn_AM4.2Hz_s35_41.m4a,,,,,,,,,,,,
,,,,,,,,,,,,41607,2021-09-27_17h25.41.549,judgeSpeechMusic_20210921_logNormShiftAmp_detection_fixS,2020.1.2,MacIntel,60,,,,,,,,,,,,,,,,,,1,6.9137,,0,0,50,50,12,1,stimuli/stim_20210706_power2amp/equal_lnn_AM0.6Hz_s35_50.m4a,,,,,,,,,,,,
,,,,,,,,,,,,41607,2021-09-27_17h25.41.549,judgeSpeechMusic_20210921_logNormShiftAmp_detection_fixS,2020.1.2,MacIntel,60,,,,,,,,,,,,,,,,,,2,7.3782,,0,0,51,51,48,1,stimuli/stim_20210706_power2amp/equal_lnn_AM3.6Hz_s35_16.m4a,,,,,,,,,,,,
,,,,,,,,,,,,41607,2021-09-27_17h25.41.549,judgeSpeechMusic_20210921_logNormShiftAmp_detection_fixS,2020.1.2,MacIntel,60,,,,,,,,,,,,,,,,,,1,12.8288,,0,0,52,52,20,1,stimuli/stim_20210706_power2amp/equal_lnn_AM1.2Hz_s35_28.m4a,,,,,,,,,,,,
,,,,,,,,,,,,41607,2021-09-27_17h25.41.549,judgeSpeechMusic_20210921_logNormShiftAmp_detection_fixS,2020.1.2,MacIntel,60,,,,,,,,,,,,,,,,,,2,5.6749,,0,0,53,53,71,1,stimuli/stim_20210706_power2amp/equal_lnn_AM4.2Hz_s35_10.m4a,,,,,,,,,,,,
,,,,,,,,,,,,41607,2021-09-27_17h25.41.549,judgeSpeechMusic_20210921_logNormShiftAmp_detection_fixS,2020.1.2,MacIntel,60,,,,,,,,,,,,,,,,,,2,6.3227,,0,0,54,54,45,1,stimuli/stim_20210706_power2amp/equal_lnn_AM3.6Hz_s35_41.m4a,,,,,,,,,,,,
,,,,,,,,,,,,41607,2021-09-27_17h25.41.549,judgeSpeechMusic_20210921_logNormShiftAmp_detection_fixS,2020.1.2,MacIntel,60,,,,,,,,,,,,,,,,,,1,5.8298,,0,0,55,55,16,1,stimuli/stim_20210706_power2amp/equal_lnn_AM1.2Hz_s35_14.m4a,,,,,,,,,,,,
,,,,,,,,,,,,41607,2021-09-27_17h25.41.549,judgeSpeechMusic_20210921_logNormShiftAmp_detection_fixS,2020.1.2,MacIntel,60,,,,,,,,,,,,,,,,,,1,8.8383,,0,0,56,56,39,1,stimuli/stim_20210706_power2amp/equal_lnn_AM2.4Hz_s35_11.m4a,,,,,,,,,,,,
,,,,,,,,,,,,41607,2021-09-27_17h25.41.549,judgeSpeechMusic_20210921_logNormShiftAmp_detection_fixS,2020.1.2,MacIntel,60,,,,,,,,,,,,,,,,,,2,8.2044,,0,0,57,57,67,1,stimuli/stim_20210706_power2amp/equal_lnn_AM4.2Hz_s35_18.m4a,,,,,,,,,,,,
,,,,,,,,,,,,41607,2021-09-27_17h25.41.549,judgeSpeechMusic_20210921_logNormShiftAmp_detection_fixS,2020.1.2,MacIntel,60,,,,,,,,,,,,,,,,,,2,5.6421,,0,0,58,58,60,1,stimuli/stim_20210706_power2amp/equal_lnn_AM4.2Hz_s35_42.m4a,,,,,,,,,,,,
,,,,,,,,,,,,41607,2021-09-27_17h25.41.549,judgeSpeechMusic_20210921_logNormShiftAmp_detection_fixS,2020.1.2,MacIntel,60,,,,,,,,,,,,,,,,,,1,5.826,,0,0,59,59,43,1,stimuli/stim_20210706_power2amp/equal_lnn_AM2.4Hz_s35_4.m4a,,,,,,,,,,,,
,,,,,,,,,,,,41607,2021-09-27_17h25.41.549,judgeSpeechMusic_20210921_logNormShiftAmp_detection_fixS,2020.1.2,MacIntel,60,,,,,,,,,,,,,,,,,,1,12.7285,,0,0,60,60,73,1,stimuli/stim_20210706_power2amp/equal_lnn_AM4.2Hz_s35_30.m4a,,,,,,,,,,,,
,,,,,,,,,,,,41607,2021-09-27_17h25.41.549,judgeSpeechMusic_20210921_logNormShiftAmp_detection_fixS,2020.1.2,MacIntel,60,,,,,,,,,,,,,,,,,,1,5.8295,,0,0,61,61,10,1,stimuli/stim_20210706_power2amp/equal_lnn_AM0.6Hz_s35_35.m4a,,,,,,,,,,,,
,,,,,,,,,,,,41607,2021-09-27_17h25.41.549,judgeSpeechMusic_20210921_logNormShiftAmp_detection_fixS,2020.1.2,MacIntel,60,,,,,,,,,,,,,,,,,,2,7.0713,,0,0,62,62,59,1,stimuli/stim_20210706_power2amp/equal_lnn_AM3.6Hz_s35_33.m4a,,,,,,,,,,,,
,,,,,,,,,,,,41607,2021-09-27_17h25.41.549,judgeSpeechMusic_20210921_logNormShiftAmp_detection_fixS,2020.1.2,MacIntel,60,,,,,,,,,,,,,,,,,,2,10.3768,4,1,0,63,63,30,1,stimuli/stim_20210706_power2amp/equal_lnn_AM2.4Hz_s35_41.m4a,0.3251,,,,,,,,,,,
,,,,,,,,,,,,41607,2021-09-27_17h25.41.549,judgeSpeechMusic_20210921_logNormShiftAmp_detection_fixS,2020.1.2,MacIntel,60,,,,,,,,,,,,,,,,,,1,5.988,,0,0,64,64,9,1,stimuli/stim_20210706_power2amp/equal_lnn_AM0.6Hz_s35_37.m4a,,,,,,,,,,,,
,,,,,,,,,,,,41607,2021-09-27_17h25.41.549,judgeSpeechMusic_20210921_logNormShiftAmp_detection_fixS,2020.1.2,MacIntel,60,,,,,,,,,,,,,,,,,,1,6.3389,,0,0,65,65,29,1,stimuli/stim_20210706_power2amp/equal_lnn_AM1.2Hz_s35_17.m4a,,,,,,,,,,,,
,,,,,,,,,,,,41607,2021-09-27_17h25.41.549,judgeSpeechMusic_20210921_logNormShiftAmp_detection_fixS,2020.1.2,MacIntel,60,,,,,,,,,,,,,,,,,,2,11.544,,0,0,66,66,37,1,stimuli/stim_20210706_power2amp/equal_lnn_AM2.4Hz_s35_12.m4a,,,,,,,,,,,,
,,,,,,,,,,,,41607,2021-09-27_17h25.41.549,judgeSpeechMusic_20210921_logNormShiftAmp_detection_fixS,2020.1.2,MacIntel,60,,,,,,,,,,,,,,,,,,1,6.0392,,0,0,67,67,4,1,stimuli/stim_20210706_power2amp/equal_lnn_AM0.6Hz_s35_20.m4a,,,,,,,,,,,,
,,,,,,,,,,,,41607,2021-09-27_17h25.41.549,judgeSpeechMusic_20210921_logNormShiftAmp_detection_fixS,2020.1.2,MacIntel,60,,,,,,,,,,,,,,,,,,1,6.6093,,0,0,68,68,11,1,stimuli/stim_20210706_power2amp/equal_lnn_AM0.6Hz_s35_40.m4a,,,,,,,,,,,,
,,,,,,,,,,,,41607,2021-09-27_17h25.41.549,judgeSpeechMusic_20210921_logNormShiftAmp_detection_fixS,2020.1.2,MacIntel,60,,,,,,,,,,,,,,,,,,1,7.309,,0,0,69,69,32,1,stimuli/stim_20210706_power2amp/equal_lnn_AM2.4Hz_s35_47.m4a,,,,,,,,,,,,
,,,,,,,,,,,,41607,2021-09-27_17h25.41.549,judgeSpeechMusic_20210921_logNormShiftAmp_detection_fixS,2020.1.2,MacIntel,60,,,,,,,,,,,,,,,,,,1,12.5049,,0,0,70,70,68,1,stimuli/stim_20210706_power2amp/equal_lnn_AM4.2Hz_s35_31.m4a,,,,,,,,,,,,
,,,,,,,,,,,,41607,2021-09-27_17h25.41.549,judgeSpeechMusic_20210921_logNormShiftAmp_detection_fixS,2020.1.2,MacIntel,60,,,,,,,,,,,,,,,,,,1,12.3821,,0,0,71,71,24,1,stimuli/stim_20210706_power2amp/equal_lnn_AM1.2Hz_s35_23.m4a,,,,,,,,,,,,
,,,,,,,,,,,,41607,2021-09-27_17h25.41.549,judgeSpeechMusic_20210921_logNormShiftAmp_detection_fixS,2020.1.2,MacIntel,60,,,,,,,,,,,,,,,,,,2,5.7932,,0,0,72,72,63,1,stimuli/stim_20210706_power2amp/equal_lnn_AM4.2Hz_s35_13.m4a,,,,,,,,,,,,
,,,,,,,,,,,,41607,2021-09-27_17h25.41.549,judgeSpeechMusic_20210921_logNormShiftAmp_detection_fixS,2020.1.2,MacIntel,60,,,,,,,,,,,,,,,,,,2,5.5921,,0,0,73,73,72,1,stimuli/stim_20210706_power2amp/equal_lnn_AM4.2Hz_s35_40.m4a,,,,,,,,,,,,
,,,,,,,,,,,,41607,2021-09-27_17h25.41.549,judgeSpeechMusic_20210921_logNormShiftAmp_detection_fixS,2020.1.2,MacIntel,60,,,,,,,,,,,,,,,,,,1,6.2414,,0,0,74,74,13,1,stimuli/stim_20210706_power2amp/equal_lnn_AM0.6Hz_s35_16.m4a,,,,,,,,,,,,
,,,,,,,,,,,,41607,2021-09-27_17h25.41.549,judgeSpeechMusic_20210921_logNormShiftAmp_detection_fixS,2020.1.2,MacIntel,60,,,,,,,,,,,,,,,,,,,,,,,,,,,,,space,0.8296,1,0,2,1,1,SPEECH,stimuli/SPEECH.jpg,,
,,,,,,,,,,,,41607,2021-09-27_17h25.41.549,judgeSpeechMusic_20210921_logNormShiftAmp_detection_fixS,2020.1.2,MacIntel,60,,,,,,0,0,0,0,3,1,stimuli/stim_20210706_power2amp/equal_lnn_AM_training3.9Hz_s35.m4a,,,,,,,,,,,,,,,,,,,,,,,,,,,
,,,,,,,,,,,,41607,2021-09-27_17h25.41.549,judgeSpeechMusic_20210921_logNormShiftAmp_detection_fixS,2020.1.2,MacIntel,60,,,,,,,,,,,,,,space,1.4796,space,1.3689,1,6.5863,,0,0,0,0,59,1,stimuli/stim_20210706_power2amp/equal_lnn_AM3.6Hz_s35_33.m4a,,,,,,,,,,,,
,,,,,,,,,,,,41607,2021-09-27_17h25.41.549,judgeSpeechMusic_20210921_logNormShiftAmp_detection_fixS,2020.1.2,MacIntel,60,,,,,,,,,,,,,,,,,,1,7.455,,0,0,1,1,6,1,stimuli/stim_20210706_power2amp/equal_lnn_AM0.6Hz_s35_12.m4a,,,,,,,,,,,,
,,,,,,,,,,,,41607,2021-09-27_17h25.41.549,judgeSpeechMusic_20210921_logNormShiftAmp_detection_fixS,2020.1.2,MacIntel,60,,,,,,,,,,,,,,,,,,2,8.5044,,0,0,2,2,38,1,stimuli/stim_20210706_power2amp/equal_lnn_AM2.4Hz_s35_30.m4a,,,,,,,,,,,,
,,,,,,,,,,,,41607,2021-09-27_17h25.41.549,judgeSpeechMusic_20210921_logNormShiftAmp_detection_fixS,2020.1.2,MacIntel,60,,,,,,,,,,,,,,,,,,1,23.0423,,0,0,3,3,11,1,stimuli/stim_20210706_power2amp/equal_lnn_AM0.6Hz_s35_40.m4a,,,,,,,,,,,,
,,,,,,,,,,,,41607,2021-09-27_17h25.41.549,judgeSpeechMusic_20210921_logNormShiftAmp_detection_fixS,2020.1.2,MacIntel,60,,,,,,,,,,,,,,,,,,1,9.822,,0,0,4,4,24,1,stimuli/stim_20210706_power2amp/equal_lnn_AM1.2Hz_s35_23.m4a,,,,,,,,,,,,
,,,,,,,,,,,,41607,2021-09-27_17h25.41.549,judgeSpeechMusic_20210921_logNormShiftAmp_detection_fixS,2020.1.2,MacIntel,60,,,,,,,,,,,,,,,,,,1,5.6214,,0,0,5,5,71,1,stimuli/stim_20210706_power2amp/equal_lnn_AM4.2Hz_s35_10.m4a,,,,,,,,,,,,
,,,,,,,,,,,,41607,2021-09-27_17h25.41.549,judgeSpeechMusic_20210921_logNormShiftAmp_detection_fixS,2020.1.2,MacIntel,60,,,,,,,,,,,,,,,,,,1,15.7817,,0,0,6,6,52,1,stimuli/stim_20210706_power2amp/equal_lnn_AM3.6Hz_s35_46.m4a,,,,,,,,,,,,
,,,,,,,,,,,,41607,2021-09-27_17h25.41.549,judgeSpeechMusic_20210921_logNormShiftAmp_detection_fixS,2020.1.2,MacIntel,60,,,,,,,,,,,,,,,,,,2,6.6372,,0,0,7,7,16,1,stimuli/stim_20210706_power2amp/equal_lnn_AM1.2Hz_s35_14.m4a,,,,,,,,,,,,
,,,,,,,,,,,,41607,2021-09-27_17h25.41.549,judgeSpeechMusic_20210921_logNormShiftAmp_detection_fixS,2020.1.2,MacIntel,60,,,,,,,,,,,,,,,,,,1,9.627,,0,0,8,8,14,1,stimuli/stim_20210706_power2amp/equal_lnn_AM0.6Hz_s35_6.m4a,,,,,,,,,,,,
,,,,,,,,,,,,41607,2021-09-27_17h25.41.549,judgeSpeechMusic_20210921_logNormShiftAmp_detection_fixS,2020.1.2,MacIntel,60,,,,,,,,,,,,,,,,,,1,5.8057,,0,0,9,9,51,1,stimuli/stim_20210706_power2amp/equal_lnn_AM3.6Hz_s35_31.m4a,,,,,,,,,,,,
,,,,,,,,,,,,41607,2021-09-27_17h25.41.549,judgeSpeechMusic_20210921_logNormShiftAmp_detection_fixS,2020.1.2,MacIntel,60,,,,,,,,,,,,,,,,,,1,6.777,,0,0,10,10,70,1,stimuli/stim_20210706_power2amp/equal_lnn_AM4.2Hz_s35_47.m4a,,,,,,,,,,,,
,,,,,,,,,,,,41607,2021-09-27_17h25.41.549,judgeSpeechMusic_20210921_logNormShiftAmp_detection_fixS,2020.1.2,MacIntel,60,,,,,,,,,,,,,,,,,,2,5.9426,,0,0,11,11,25,1,stimuli/stim_20210706_power2amp/equal_lnn_AM1.2Hz_s35_11.m4a,,,,,,,,,,,,
,,,,,,,,,,,,41607,2021-09-27_17h25.41.549,judgeSpeechMusic_20210921_logNormShiftAmp_detection_fixS,2020.1.2,MacIntel,60,,,,,,,,,,,,,,,,,,2,5.5261,,0,0,12,12,49,1,stimuli/stim_20210706_power2amp/equal_lnn_AM3.6Hz_s35_38.m4a,,,,,,,,,,,,
,,,,,,,,,,,,41607,2021-09-27_17h25.41.549,judgeSpeechMusic_20210921_logNormShiftAmp_detection_fixS,2020.1.2,MacIntel,60,,,,,,,,,,,,,,,,,,2,5.6048,,0,0,13,13,28,1,stimuli/stim_20210706_power2amp/equal_lnn_AM1.2Hz_s35_50.m4a,,,,,,,,,,,,
,,,,,,,,,,,,41607,2021-09-27_17h25.41.549,judgeSpeechMusic_20210921_logNormShiftAmp_detection_fixS,2020.1.2,MacIntel,60,,,,,,,,,,,,,,,,,,2,5.5256,,0,0,14,14,23,1,stimuli/stim_20210706_power2amp/equal_lnn_AM1.2Hz_s35_44.m4a,,,,,,,,,,,,
,,,,,,,,,,,,41607,2021-09-27_17h25.41.549,judgeSpeechMusic_20210921_logNormShiftAmp_detection_fixS,2020.1.2,MacIntel,60,,,,,,,,,,,,,,,,,,2,6.6385,,0,0,15,15,3,1,stimuli/stim_20210706_power2amp/equal_lnn_AM0.6Hz_s35_22.m4a,,,,,,,,,,,,
,,,,,,,,,,,,41607,2021-09-27_17h25.41.549,judgeSpeechMusic_20210921_logNormShiftAmp_detection_fixS,2020.1.2,MacIntel,60,,,,,,,,,,,,,,,,,,2,10.7388,,0,0,16,16,10,1,stimuli/stim_20210706_power2amp/equal_lnn_AM0.6Hz_s35_35.m4a,,,,,,,,,,,,
,,,,,,,,,,,,41607,2021-09-27_17h25.41.549,judgeSpeechMusic_20210921_logNormShiftAmp_detection_fixS,2020.1.2,MacIntel,60,,,,,,,,,,,,,,,,,,1,10.7222,,0,0,17,17,0,1,stimuli/stim_20210706_power2amp/equal_lnn_AM0.6Hz_s35_24.m4a,,,,,,,,,,,,
,,,,,,,,,,,,41607,2021-09-27_17h25.41.549,judgeSpeechMusic_20210921_logNormShiftAmp_detection_fixS,2020.1.2,MacIntel,60,,,,,,,,,,,,,,,,,,1,14.327,,0,0,18,18,48,1,stimuli/stim_20210706_power2amp/equal_lnn_AM3.6Hz_s35_16.m4a,,,,,,,,,,,,
,,,,,,,,,,,,41607,2021-09-27_17h25.41.549,judgeSpeechMusic_20210921_logNormShiftAmp_detection_fixS,2020.1.2,MacIntel,60,,,,,,,,,,,,,,,,,,1,8.3136,3,1,0,19,19,18,1,stimuli/stim_20210706_power2amp/equal_lnn_AM1.2Hz_s35_7.m4a,0.6914,,,,,,,,,,,
,,,,,,,,,,,,41607,2021-09-27_17h25.41.549,judgeSpeechMusic_20210921_logNormShiftAmp_detection_fixS,2020.1.2,MacIntel,60,,,,,,,,,,,,,,,,,,2,5.6586,,0,0,20,20,13,1,stimuli/stim_20210706_power2amp/equal_lnn_AM0.6Hz_s35_16.m4a,,,,,,,,,,,,
,,,,,,,,,,,,41607,2021-09-27_17h25.41.549,judgeSpeechMusic_20210921_logNormShiftAmp_detection_fixS,2020.1.2,MacIntel,60,,,,,,,,,,,,,,,,,,1,14.2598,,0,0,21,21,72,1,stimuli/stim_20210706_power2amp/equal_lnn_AM4.2Hz_s35_40.m4a,,,,,,,,,,,,
,,,,,,,,,,,,41607,2021-09-27_17h25.41.549,judgeSpeechMusic_20210921_logNormShiftAmp_detection_fixS,2020.1.2,MacIntel,60,,,,,,,,,,,,,,,,,,1,11.6756,,0,0,22,22,61,1,stimuli/stim_20210706_power2amp/equal_lnn_AM4.2Hz_s35_7.m4a,,,,,,,,,,,,
,,,,,,,,,,,,41607,2021-09-27_17h25.41.549,judgeSpeechMusic_20210921_logNormShiftAmp_detection_fixS,2020.1.2,MacIntel,60,,,,,,,,,,,,,,,,,,1,18.0719,,0,0,23,23,54,1,stimuli/stim_20210706_power2amp/equal_lnn_AM3.6Hz_s35_15.m4a,,,,,,,,,,,,
,,,,,,,,,,,,41607,2021-09-27_17h25.41.549,judgeSpeechMusic_20210921_logNormShiftAmp_detection_fixS,2020.1.2,MacIntel,60,,,,,,,,,,,,,,,,,,2,5.6071,,0,0,24,24,22,1,stimuli/stim_20210706_power2amp/equal_lnn_AM1.2Hz_s35_10.m4a,,,,,,,,,,,,
,,,,,,,,,,,,41607,2021-09-27_17h25.41.549,judgeSpeechMusic_20210921_logNormShiftAmp_detection_fixS,2020.1.2,MacIntel,60,,,,,,,,,,,,,,,,,,2,5.6872,,0,0,25,25,57,1,stimuli/stim_20210706_power2amp/equal_lnn_AM3.6Hz_s35_44.m4a,,,,,,,,,,,,
,,,,,,,,,,,,41607,2021-09-27_17h25.41.549,judgeSpeechMusic_20210921_logNormShiftAmp_detection_fixS,2020.1.2,MacIntel,60,,,,,,,,,,,,,,,,,,1,11.6886,,0,0,26,26,44,1,stimuli/stim_20210706_power2amp/equal_lnn_AM2.4Hz_s35_10.m4a,,,,,,,,,,,,
,,,,,,,,,,,,41607,2021-09-27_17h25.41.549,judgeSpeechMusic_20210921_logNormShiftAmp_detection_fixS,2020.1.2,MacIntel,60,,,,,,,,,,,,,,,,,,1,11.6862,,0,0,27,27,20,1,stimuli/stim_20210706_power2amp/equal_lnn_AM1.2Hz_s35_28.m4a,,,,,,,,,,,,
,,,,,,,,,,,,41607,2021-09-27_17h25.41.549,judgeSpeechMusic_20210921_logNormShiftAmp_detection_fixS,2020.1.2,MacIntel,60,,,,,,,,,,,,,,,,,,2,8.1932,,0,0,28,28,17,1,stimuli/stim_20210706_power2amp/equal_lnn_AM1.2Hz_s35_12.m4a,,,,,,,,,,,,
,,,,,,,,,,,,41607,2021-09-27_17h25.41.549,judgeSpeechMusic_20210921_logNormShiftAmp_detection_fixS,2020.1.2,MacIntel,60,,,,,,,,,,,,,,,,,,1,6.9389,,0,0,29,29,50,1,stimuli/stim_20210706_power2amp/equal_lnn_AM3.6Hz_s35_22.m4a,,,,,,,,,,,,
,,,,,,,,,,,,41607,2021-09-27_17h25.41.549,judgeSpeechMusic_20210921_logNormShiftAmp_detection_fixS,2020.1.2,MacIntel,60,,,,,,,,,,,,,,,,,,1,5.6733,,0,0,30,30,60,1,stimuli/stim_20210706_power2amp/equal_lnn_AM4.2Hz_s35_42.m4a,,,,,,,,,,,,
,,,,,,,,,,,,41607,2021-09-27_17h25.41.549,judgeSpeechMusic_20210921_logNormShiftAmp_detection_fixS,2020.1.2,MacIntel,60,,,,,,,,,,,,,,,,,,1,5.5709,,0,0,31,31,69,1,stimuli/stim_20210706_power2amp/equal_lnn_AM4.2Hz_s35_46.m4a,,,,,,,,,,,,
,,,,,,,,,,,,41607,2021-09-27_17h25.41.549,judgeSpeechMusic_20210921_logNormShiftAmp_detection_fixS,2020.1.2,MacIntel,60,,,,,,,,,,,,,,,,,,1,6.079,,0,0,32,32,9,1,stimuli/stim_20210706_power2amp/equal_lnn_AM0.6Hz_s35_37.m4a,,,,,,,,,,,,
,,,,,,,,,,,,41607,2021-09-27_17h25.41.549,judgeSpeechMusic_20210921_logNormShiftAmp_detection_fixS,2020.1.2,MacIntel,60,,,,,,,,,,,,,,,,,,1,5.9049,,0,0,33,33,7,1,stimuli/stim_20210706_power2amp/equal_lnn_AM0.6Hz_s35_42.m4a,,,,,,,,,,,,
,,,,,,,,,,,,41607,2021-09-27_17h25.41.549,judgeSpeechMusic_20210921_logNormShiftAmp_detection_fixS,2020.1.2,MacIntel,60,,,,,,,,,,,,,,,,,,1,6.488,,0,0,34,34,2,1,stimuli/stim_20210706_power2amp/equal_lnn_AM0.6Hz_s35_48.m4a,,,,,,,,,,,,
,,,,,,,,,,,,41607,2021-09-27_17h25.41.549,judgeSpeechMusic_20210921_logNormShiftAmp_detection_fixS,2020.1.2,MacIntel,60,,,,,,,,,,,,,,,,,,1,7.4105,,0,0,35,35,41,1,stimuli/stim_20210706_power2amp/equal_lnn_AM2.4Hz_s35_17.m4a,,,,,,,,,,,,
,,,,,,,,,,,,41607,2021-09-27_17h25.41.549,judgeSpeechMusic_20210921_logNormShiftAmp_detection_fixS,2020.1.2,MacIntel,60,,,,,,,,,,,,,,,,,,2,5.7602,,0,0,36,36,12,1,stimuli/stim_20210706_power2amp/equal_lnn_AM0.6Hz_s35_50.m4a,,,,,,,,,,,,
,,,,,,,,,,,,41607,2021-09-27_17h25.41.549,judgeSpeechMusic_20210921_logNormShiftAmp_detection_fixS,2020.1.2,MacIntel,60,,,,,,,,,,,,,,,,,,1,5.9205,,0,0,37,37,43,1,stimuli/stim_20210706_power2amp/equal_lnn_AM2.4Hz_s35_4.m4a,,,,,,,,,,,,
,,,,,,,,,,,,41607,2021-09-27_17h25.41.549,judgeSpeechMusic_20210921_logNormShiftAmp_detection_fixS,2020.1.2,MacIntel,60,,,,,,,,,,,,,,,,,,1,7.708,,0,0,38,38,29,1,stimuli/stim_20210706_power2amp/equal_lnn_AM1.2Hz_s35_17.m4a,,,,,,,,,,,,
,,,,,,,,,,,,41607,2021-09-27_17h25.41.549,judgeSpeechMusic_20210921_logNormShiftAmp_detection_fixS,2020.1.2,MacIntel,60,,,,,,,,,,,,,,,,,,2,5.8116,,0,0,39,39,58,1,stimuli/stim_20210706_power2amp/equal_lnn_AM3.6Hz_s35_12.m4a,,,,,,,,,,,,
,,,,,,,,,,,,41607,2021-09-27_17h25.41.549,judgeSpeechMusic_20210921_logNormShiftAmp_detection_fixS,2020.1.2,MacIntel,60,,,,,,,,,,,,,,,,,,1,14.6074,,0,0,40,40,74,1,stimuli/stim_20210706_power2amp/equal_lnn_AM4.2Hz_s35_48.m4a,,,,,,,,,,,,
,,,,,,,,,,,,41607,2021-09-27_17h25.41.549,judgeSpeechMusic_20210921_logNormShiftAmp_detection_fixS,2020.1.2,MacIntel,60,,,,,,,,,,,,,,,,,,2,6.4925,2,1,0,41,41,21,1,stimuli/stim_20210706_power2amp/equal_lnn_AM1.2Hz_s35_13.m4a,1.1959,,,,,,,,,,,
,,,,,,,,,,,,41607,2021-09-27_17h25.41.549,judgeSpeechMusic_20210921_logNormShiftAmp_detection_fixS,2020.1.2,MacIntel,60,,,,,,,,,,,,,,,,,,1,11.3046,,0,0,42,42,27,1,stimuli/stim_20210706_power2amp/equal_lnn_AM1.2Hz_s35_48.m4a,,,,,,,,,,,,
,,,,,,,,,,,,41607,2021-09-27_17h25.41.549,judgeSpeechMusic_20210921_logNormShiftAmp_detection_fixS,2020.1.2,MacIntel,60,,,,,,,,,,,,,,,,,,1,8.9101,,0,0,43,43,31,1,stimuli/stim_20210706_power2amp/equal_lnn_AM2.4Hz_s35_42.m4a,,,,,,,,,,,,
,,,,,,,,,,,,41607,2021-09-27_17h25.41.549,judgeSpeechMusic_20210921_logNormShiftAmp_detection_fixS,2020.1.2,MacIntel,60,,,,,,,,,,,,,,,,,,2,7.4881,,0,0,44,44,26,1,stimuli/stim_20210706_power2amp/equal_lnn_AM1.2Hz_s35_31.m4a,,,,,,,,,,,,
,,,,,,,,,,,,41607,2021-09-27_17h25.41.549,judgeSpeechMusic_20210921_logNormShiftAmp_detection_fixS,2020.1.2,MacIntel,60,,,,,,,,,,,,,,,,,,2,7.4212,,0,0,45,45,30,1,stimuli/stim_20210706_power2amp/equal_lnn_AM2.4Hz_s35_41.m4a,,,,,,,,,,,,
,,,,,,,,,,,,41607,2021-09-27_17h25.41.549,judgeSpeechMusic_20210921_logNormShiftAmp_detection_fixS,2020.1.2,MacIntel,60,,,,,,,,,,,,,,,,,,1,13.9626,,0,0,46,46,19,1,stimuli/stim_20210706_power2amp/equal_lnn_AM1.2Hz_s35_46.m4a,,,,,,,,,,,,
,,,,,,,,,,,,41607,2021-09-27_17h25.41.549,judgeSpeechMusic_20210921_logNormShiftAmp_detection_fixS,2020.1.2,MacIntel,60,,,,,,,,,,,,,,,,,,1,18.6739,,0,0,47,47,40,1,stimuli/stim_20210706_power2amp/equal_lnn_AM2.4Hz_s35_49.m4a,,,,,,,,,,,,
,,,,,,,,,,,,41607,2021-09-27_17h25.41.549,judgeSpeechMusic_20210921_logNormShiftAmp_detection_fixS,2020.1.2,MacIntel,60,,,,,,,,,,,,,,,,,,1,6.3714,,0,0,48,48,34,1,stimuli/stim_20210706_power2amp/equal_lnn_AM2.4Hz_s35_26.m4a,,,,,,,,,,,,
,,,,,,,,,,,,41607,2021-09-27_17h25.41.549,judgeSpeechMusic_20210921_logNormShiftAmp_detection_fixS,2020.1.2,MacIntel,60,,,,,,,,,,,,,,,,,,1,5.972,,0,0,49,49,36,1,stimuli/stim_20210706_power2amp/equal_lnn_AM2.4Hz_s35_14.m4a,,,,,,,,,,,,
,,,,,,,,,,,,41607,2021-09-27_17h25.41.549,judgeSpeechMusic_20210921_logNormShiftAmp_detection_fixS,2020.1.2,MacIntel,60,,,,,,,,,,,,,,,,,,2,5.6567,,0,0,50,50,1,1,stimuli/stim_20210706_power2amp/equal_lnn_AM0.6Hz_s35_14.m4a,,,,,,,,,,,,
,,,,,,,,,,,,41607,2021-09-27_17h25.41.549,judgeSpeechMusic_20210921_logNormShiftAmp_detection_fixS,2020.1.2,MacIntel,60,,,,,,,,,,,,,,,,,,2,7.3744,,0,0,51,51,47,1,stimuli/stim_20210706_power2amp/equal_lnn_AM3.6Hz_s35_50.m4a,,,,,,,,,,,,
,,,,,,,,,,,,41607,2021-09-27_17h25.41.549,judgeSpeechMusic_20210921_logNormShiftAmp_detection_fixS,2020.1.2,MacIntel,60,,,,,,,,,,,,,,,,,,1,9.3276,,0,0,52,52,15,1,stimuli/stim_20210706_power2amp/equal_lnn_AM1.2Hz_s35_33.m4a,,,,,,,,,,,,
,,,,,,,,,,,,41607,2021-09-27_17h25.41.549,judgeSpeechMusic_20210921_logNormShiftAmp_detection_fixS,2020.1.2,MacIntel,60,,,,,,,,,,,,,,,,,,1,8.9889,,0,0,53,53,62,1,stimuli/stim_20210706_power2amp/equal_lnn_AM4.2Hz_s35_14.m4a,,,,,,,,,,,,
,,,,,,,,,,,,41607,2021-09-27_17h25.41.549,judgeSpeechMusic_20210921_logNormShiftAmp_detection_fixS,2020.1.2,MacIntel,60,,,,,,,,,,,,,,,,,,1,17.5868,,0,0,54,54,63,1,stimuli/stim_20210706_power2amp/equal_lnn_AM4.2Hz_s35_13.m4a,,,,,,,,,,,,
,,,,,,,,,,,,41607,2021-09-27_17h25.41.549,judgeSpeechMusic_20210921_logNormShiftAmp_detection_fixS,2020.1.2,MacIntel,60,,,,,,,,,,,,,,,,,,1,11.2887,,0,0,55,55,37,1,stimuli/stim_20210706_power2amp/equal_lnn_AM2.4Hz_s35_12.m4a,,,,,,,,,,,,
,,,,,,,,,,,,41607,2021-09-27_17h25.41.549,judgeSpeechMusic_20210921_logNormShiftAmp_detection_fixS,2020.1.2,MacIntel,60,,,,,,,,,,,,,,,,,,1,17.9268,,0,0,56,56,35,1,stimuli/stim_20210706_power2amp/equal_lnn_AM2.4Hz_s35_16.m4a,,,,,,,,,,,,
,,,,,,,,,,,,41607,2021-09-27_17h25.41.549,judgeSpeechMusic_20210921_logNormShiftAmp_detection_fixS,2020.1.2,MacIntel,60,,,,,,,,,,,,,,,,,,1,6.0363,,0,0,57,57,33,1,stimuli/stim_20210706_power2amp/equal_lnn_AM2.4Hz_s35_3.m4a,,,,,,,,,,,,
,,,,,,,,,,,,41607,2021-09-27_17h25.41.549,judgeSpeechMusic_20210921_logNormShiftAmp_detection_fixS,2020.1.2,MacIntel,60,,,,,,,,,,,,,,,,,,2,9.0764,,0,0,58,58,39,1,stimuli/stim_20210706_power2amp/equal_lnn_AM2.4Hz_s35_11.m4a,,,,,,,,,,,,
,,,,,,,,,,,,41607,2021-09-27_17h25.41.549,judgeSpeechMusic_20210921_logNormShiftAmp_detection_fixS,2020.1.2,MacIntel,60,,,,,,,,,,,,,,,,,,1,6.0263,,0,0,59,59,66,1,stimuli/stim_20210706_power2amp/equal_lnn_AM4.2Hz_s35_41.m4a,,,,,,,,,,,,
,,,,,,,,,,,,41607,2021-09-27_17h25.41.549,judgeSpeechMusic_20210921_logNormShiftAmp_detection_fixS,2020.1.2,MacIntel,60,,,,,,,,,,,,,,,,,,2,8.2367,,0,0,60,60,56,1,stimuli/stim_20210706_power2amp/equal_lnn_AM3.6Hz_s35_26.m4a,,,,,,,,,,,,
,,,,,,,,,,,,41607,2021-09-27_17h25.41.549,judgeSpeechMusic_20210921_logNormShiftAmp_detection_fixS,2020.1.2,MacIntel,60,,,,,,,,,,,,,,,,,,2,5.6216,,0,0,61,61,8,1,stimuli/stim_20210706_power2amp/equal_lnn_AM0.6Hz_s35_1.m4a,,,,,,,,,,,,
,,,,,,,,,,,,41607,2021-09-27_17h25.41.549,judgeSpeechMusic_20210921_logNormShiftAmp_detection_fixS,2020.1.2,MacIntel,60,,,,,,,,,,,,,,,,,,2,5.554,,0,0,62,62,73,1,stimuli/stim_20210706_power2amp/equal_lnn_AM4.2Hz_s35_30.m4a,,,,,,,,,,,,
,,,,,,,,,,,,41607,2021-09-27_17h25.41.549,judgeSpeechMusic_20210921_logNormShiftAmp_detection_fixS,2020.1.2,MacIntel,60,,,,,,,,,,,,,,,,,,1,14.1397,1,1,0,63,63,67,1,stimuli/stim_20210706_power2amp/equal_lnn_AM4.2Hz_s35_18.m4a,0.8127,,,,,,,,,,,
,,,,,,,,,,,,41607,2021-09-27_17h25.41.549,judgeSpeechMusic_20210921_logNormShiftAmp_detection_fixS,2020.1.2,MacIntel,60,,,,,,,,,,,,,,,,,,2,5.9377,,0,0,64,64,4,1,stimuli/stim_20210706_power2amp/equal_lnn_AM0.6Hz_s35_20.m4a,,,,,,,,,,,,
,,,,,,,,,,,,41607,2021-09-27_17h25.41.549,judgeSpeechMusic_20210921_logNormShiftAmp_detection_fixS,2020.1.2,MacIntel,60,,,,,,,,,,,,,,,,,,1,17.3059,,0,0,65,65,46,1,stimuli/stim_20210706_power2amp/equal_lnn_AM3.6Hz_s35_13.m4a,,,,,,,,,,,,
,,,,,,,,,,,,41607,2021-09-27_17h25.41.549,judgeSpeechMusic_20210921_logNormShiftAmp_detection_fixS,2020.1.2,MacIntel,60,,,,,,,,,,,,,,,,,,1,5.7285,,0,0,66,66,55,1,stimuli/stim_20210706_power2amp/equal_lnn_AM3.6Hz_s35_25.m4a,,,,,,,,,,,,
,,,,,,,,,,,,41607,2021-09-27_17h25.41.549,judgeSpeechMusic_20210921_logNormShiftAmp_detection_fixS,2020.1.2,MacIntel,60,,,,,,,,,,,,,,,,,,1,12.1109,,0,0,67,67,5,1,stimuli/stim_20210706_power2amp/equal_lnn_AM0.6Hz_s35_41.m4a,,,,,,,,,,,,
,,,,,,,,,,,,41607,2021-09-27_17h25.41.549,judgeSpeechMusic_20210921_logNormShiftAmp_detection_fixS,2020.1.2,MacIntel,60,,,,,,,,,,,,,,,,,,1,6.5112,,0,0,68,68,68,1,stimuli/stim_20210706_power2amp/equal_lnn_AM4.2Hz_s35_31.m4a,,,,,,,,,,,,
,,,,,,,,,,,,41607,2021-09-27_17h25.41.549,judgeSpeechMusic_20210921_logNormShiftAmp_detection_fixS,2020.1.2,MacIntel,60,,,,,,,,,,,,,,,,,,1,6.7556,,0,0,69,69,65,1,stimuli/stim_20210706_power2amp/equal_lnn_AM4.2Hz_s35_28.m4a,,,,,,,,,,,,
,,,,,,,,,,,,41607,2021-09-27_17h25.41.549,judgeSpeechMusic_20210921_logNormShiftAmp_detection_fixS,2020.1.2,MacIntel,60,,,,,,,,,,,,,,,,,,2,5.6623,,0,0,70,70,53,1,stimuli/stim_20210706_power2amp/equal_lnn_AM3.6Hz_s35_30.m4a,,,,,,,,,,,,
,,,,,,,,,,,,41607,2021-09-27_17h25.41.549,judgeSpeechMusic_20210921_logNormShiftAmp_detection_fixS,2020.1.2,MacIntel,60,,,,,,,,,,,,,,,,,,1,19.0609,,0,0,71,71,32,1,stimuli/stim_20210706_power2amp/equal_lnn_AM2.4Hz_s35_47.m4a,,,,,,,,,,,,
,,,,,,,,,,,,41607,2021-09-27_17h25.41.549,judgeSpeechMusic_20210921_logNormShiftAmp_detection_fixS,2020.1.2,MacIntel,60,,,,,,,,,,,,,,,,,,2,5.6206,,0,0,72,72,42,1,stimuli/stim_20210706_power2amp/equal_lnn_AM2.4Hz_s35_1.m4a,,,,,,,,,,,,
,,,,,,,,,,,,41607,2021-09-27_17h25.41.549,judgeSpeechMusic_20210921_logNormShiftAmp_detection_fixS,2020.1.2,MacIntel,60,,,,,,,,,,,,,,,,,,1,12.945,,0,0,73,73,64,1,stimuli/stim_20210706_power2amp/equal_lnn_AM4.2Hz_s35_15.m4a,,,,,,,,,,,,
,,,,,,,,,,,,41607,2021-09-27_17h25.41.549,judgeSpeechMusic_20210921_logNormShiftAmp_detection_fixS,2020.1.2,MacIntel,60,,,,,,,,,,,,,,,,,,1,24.1603,,0,0,74,74,45,1,stimuli/stim_20210706_power2amp/equal_lnn_AM3.6Hz_s35_41.m4a,,,,,,,,,,,,
,,,,,,,,,,,,41607,2021-09-27_17h25.41.549,judgeSpeechMusic_20210921_logNormShiftAmp_detection_fixS,2020.1.2,MacIntel,60,,,,,,,,,,,,,,,,,,,,,,,,,,,,,,,1,1,3,0,1,MUSIC,stimuli/MUSIC.jpg,,
,,,,,,,,,,,,41607,2021-09-27_17h25.41.549,judgeSpeechMusic_20210921_logNormShiftAmp_detection_fixS,2020.1.2,MacIntel,60,,,,,,,,,,,,,,,,,,,,,,,,,,,,,,,,,,,,,,space,1.6493
