headphoneResponse.keys,headphoneResponse.corr,headphoneResponse.rt,headphoneTrial.thisRepN,headphoneTrial.thisTrialN,headphoneTrial.thisN,headphoneTrial.thisIndex,headphoneTrial.ran,headphone_sound1,headphone_sound2,headphone_sound3,corrAns,participant,date,expName,psychopyVersion,OS,frameRate,checkInstruKey.keys,checkInstruKey.rt,trainSlider.response,trainSlider.rt,beepTrainResponse.keys,beepTrainResponse.corr,trainingTrials.thisRepN,trainingTrials.thisTrialN,trainingTrials.thisN,trainingTrials.thisIndex,trainingTrials.ran,trainAudioFile,beepTrainResponse.rt,readyReal_resp.keys,readyReal_resp.rt,checkInstru2_key.keys,checkInstru2_key.rt,ratingSlider.response,ratingSlider.rt,beepResp.keys,beepResp.corr,expTrials.thisRepN,expTrials.thisTrialN,expTrials.thisN,expTrials.thisIndex,expTrials.ran,audioFile,beepResp.rt,switchBlock_space.keys,switchBlock_space.rt,block.thisRepN,block.thisTrialN,block.thisN,block.thisIndex,block.ran,blockName,blockImage,end_resp.keys,end_resp.rt
3,1,1.1112,0,0,0,2,1,stimuli/screen_origin.wav,stimuli/screen_antiphase.wav,stimuli/screen_quiet.wav,3,41629,2021-09-26_14h59.10.275,judgeSpeechMusic_20210921_logNormShiftAmp_detection_fixS,2020.1.2,MacIntel,60,,,,,,,,,,,,,,,,,,,,,,,,,,,,,,,,,,,,,,,
1,1,0.6501,0,1,1,4,1,stimuli/screen_quiet.wav,stimuli/screen_antiphase.wav,stimuli/screen_origin.wav,1,41629,2021-09-26_14h59.10.275,judgeSpeechMusic_20210921_logNormShiftAmp_detection_fixS,2020.1.2,MacIntel,60,,,,,,,,,,,,,,,,,,,,,,,,,,,,,,,,,,,,,,,
2,1,0.7362,0,2,2,1,1,stimuli/screen_antiphase.wav,stimuli/screen_quiet.wav,stimuli/screen_origin.wav,2,41629,2021-09-26_14h59.10.275,judgeSpeechMusic_20210921_logNormShiftAmp_detection_fixS,2020.1.2,MacIntel,60,,,,,,,,,,,,,,,,,,,,,,,,,,,,,,,,,,,,,,,
2,1,0.4346,0,3,3,3,1,stimuli/screen_origin.wav,stimuli/screen_quiet.wav,stimuli/screen_antiphase.wav,2,41629,2021-09-26_14h59.10.275,judgeSpeechMusic_20210921_logNormShiftAmp_detection_fixS,2020.1.2,MacIntel,60,,,,,,,,,,,,,,,,,,,,,,,,,,,,,,,,,,,,,,,
3,1,0.3666,0,4,4,0,1,stimuli/screen_antiphase.wav,stimuli/screen_origin.wav,stimuli/screen_quiet.wav,3,41629,2021-09-26_14h59.10.275,judgeSpeechMusic_20210921_logNormShiftAmp_detection_fixS,2020.1.2,MacIntel,60,,,,,,,,,,,,,,,,,,,,,,,,,,,,,,,,,,,,,,,
1,1,0.4806,0,5,5,5,1,stimuli/screen_quiet.wav,stimuli/screen_origin.wav,stimuli/screen_antiphase.wav,1,41629,2021-09-26_14h59.10.275,judgeSpeechMusic_20210921_logNormShiftAmp_detection_fixS,2020.1.2,MacIntel,60,,,,,,,,,,,,,,,,,,,,,,,,,,,,,,,,,,,,,,,
,,,,,,,,,,,,41629,2021-09-26_14h59.10.275,judgeSpeechMusic_20210921_logNormShiftAmp_detection_fixS,2020.1.2,MacIntel,60,space,1.3191,1,8.6422,,0,0,0,0,2,1,stimuli/stim_20210706_power2amp/equal_lnn_AM_training3Hz_s35.m4a,,,,,,,,,,,,,,,,,,,,,,,,,,,
,,,,,,,,,,,,41629,2021-09-26_14h59.10.275,judgeSpeechMusic_20210921_logNormShiftAmp_detection_fixS,2020.1.2,MacIntel,60,,,1,7.2915,,0,0,1,1,0,1,stimuli/stim_20210706_power2amp/equal_lnn_AM_training0.9Hz_s35.m4a,,,,,,,,,,,,,,,,,,,,,,,,,,,
,,,,,,,,,,,,41629,2021-09-26_14h59.10.275,judgeSpeechMusic_20210921_logNormShiftAmp_detection_fixS,2020.1.2,MacIntel,60,,,1,7.2944,2,1,0,2,2,3,1,stimuli/stim_20210706_power2amp/equal_lnn_AM_training3.9Hz_s35.m4a,2.5473,,,,,,,,,,,,,,,,,,,,,,,,,,
,,,,,,,,,,,,41629,2021-09-26_14h59.10.275,judgeSpeechMusic_20210921_logNormShiftAmp_detection_fixS,2020.1.2,MacIntel,60,,,1,6.9711,,0,0,3,3,1,1,stimuli/stim_20210706_power2amp/equal_lnn_AM_training1.8Hz_s35.m4a,,,,,,,,,,,,,,,,,,,,,,,,,,,
,,,,,,,,,,,,41629,2021-09-26_14h59.10.275,judgeSpeechMusic_20210921_logNormShiftAmp_detection_fixS,2020.1.2,MacIntel,60,,,,,,,,,,,,,,space,5.2792,space,1.5494,1,7.3922,,0,0,0,0,23,1,stimuli/stim_20210706_power2amp/equal_lnn_AM1.2Hz_s35_24.m4a,,,,,,,,,,,,
,,,,,,,,,,,,41629,2021-09-26_14h59.10.275,judgeSpeechMusic_20210921_logNormShiftAmp_detection_fixS,2020.1.2,MacIntel,60,,,,,,,,,,,,,,,,,,1,6.121,,0,0,1,1,26,1,stimuli/stim_20210706_power2amp/equal_lnn_AM1.2Hz_s35_3.m4a,,,,,,,,,,,,
,,,,,,,,,,,,41629,2021-09-26_14h59.10.275,judgeSpeechMusic_20210921_logNormShiftAmp_detection_fixS,2020.1.2,MacIntel,60,,,,,,,,,,,,,,,,,,2,7.621,,0,0,2,2,62,1,stimuli/stim_20210706_power2amp/equal_lnn_AM4.2Hz_s35_41.m4a,,,,,,,,,,,,
,,,,,,,,,,,,41629,2021-09-26_14h59.10.275,judgeSpeechMusic_20210921_logNormShiftAmp_detection_fixS,2020.1.2,MacIntel,60,,,,,,,,,,,,,,,,,,1,6.8224,,0,0,3,3,44,1,stimuli/stim_20210706_power2amp/equal_lnn_AM2.4Hz_s35_50.m4a,,,,,,,,,,,,
,,,,,,,,,,,,41629,2021-09-26_14h59.10.275,judgeSpeechMusic_20210921_logNormShiftAmp_detection_fixS,2020.1.2,MacIntel,60,,,,,,,,,,,,,,,,,,1,6.0958,,0,0,4,4,71,1,stimuli/stim_20210706_power2amp/equal_lnn_AM4.2Hz_s35_47.m4a,,,,,,,,,,,,
,,,,,,,,,,,,41629,2021-09-26_14h59.10.275,judgeSpeechMusic_20210921_logNormShiftAmp_detection_fixS,2020.1.2,MacIntel,60,,,,,,,,,,,,,,,,,,1,5.7571,,0,0,5,5,49,1,stimuli/stim_20210706_power2amp/equal_lnn_AM3.6Hz_s35_26.m4a,,,,,,,,,,,,
,,,,,,,,,,,,41629,2021-09-26_14h59.10.275,judgeSpeechMusic_20210921_logNormShiftAmp_detection_fixS,2020.1.2,MacIntel,60,,,,,,,,,,,,,,,,,,1,6.2045,,0,0,6,6,6,1,stimuli/stim_20210706_power2amp/equal_lnn_AM0.6Hz_s35_27.m4a,,,,,,,,,,,,
,,,,,,,,,,,,41629,2021-09-26_14h59.10.275,judgeSpeechMusic_20210921_logNormShiftAmp_detection_fixS,2020.1.2,MacIntel,60,,,,,,,,,,,,,,,,,,2,6.5059,,0,0,7,7,27,1,stimuli/stim_20210706_power2amp/equal_lnn_AM1.2Hz_s35_38.m4a,,,,,,,,,,,,
,,,,,,,,,,,,41629,2021-09-26_14h59.10.275,judgeSpeechMusic_20210921_logNormShiftAmp_detection_fixS,2020.1.2,MacIntel,60,,,,,,,,,,,,,,,,,,1,6.5732,,0,0,8,8,0,1,stimuli/stim_20210706_power2amp/equal_lnn_AM0.6Hz_s35_30.m4a,,,,,,,,,,,,
,,,,,,,,,,,,41629,2021-09-26_14h59.10.275,judgeSpeechMusic_20210921_logNormShiftAmp_detection_fixS,2020.1.2,MacIntel,60,,,,,,,,,,,,,,,,,,2,6.4562,,0,0,9,9,68,1,stimuli/stim_20210706_power2amp/equal_lnn_AM4.2Hz_s35_14.m4a,,,,,,,,,,,,
,,,,,,,,,,,,41629,2021-09-26_14h59.10.275,judgeSpeechMusic_20210921_logNormShiftAmp_detection_fixS,2020.1.2,MacIntel,60,,,,,,,,,,,,,,,,,,1,5.9721,,0,0,10,10,15,1,stimuli/stim_20210706_power2amp/equal_lnn_AM1.2Hz_s35_2.m4a,,,,,,,,,,,,
,,,,,,,,,,,,41629,2021-09-26_14h59.10.275,judgeSpeechMusic_20210921_logNormShiftAmp_detection_fixS,2020.1.2,MacIntel,60,,,,,,,,,,,,,,,,,,1,5.7728,,0,0,11,11,37,1,stimuli/stim_20210706_power2amp/equal_lnn_AM2.4Hz_s35_34.m4a,,,,,,,,,,,,
,,,,,,,,,,,,41629,2021-09-26_14h59.10.275,judgeSpeechMusic_20210921_logNormShiftAmp_detection_fixS,2020.1.2,MacIntel,60,,,,,,,,,,,,,,,,,,1,5.8224,,0,0,12,12,46,1,stimuli/stim_20210706_power2amp/equal_lnn_AM3.6Hz_s35_46.m4a,,,,,,,,,,,,
,,,,,,,,,,,,41629,2021-09-26_14h59.10.275,judgeSpeechMusic_20210921_logNormShiftAmp_detection_fixS,2020.1.2,MacIntel,60,,,,,,,,,,,,,,,,,,1,5.6915,,0,0,13,13,55,1,stimuli/stim_20210706_power2amp/equal_lnn_AM3.6Hz_s35_18.m4a,,,,,,,,,,,,
,,,,,,,,,,,,41629,2021-09-26_14h59.10.275,judgeSpeechMusic_20210921_logNormShiftAmp_detection_fixS,2020.1.2,MacIntel,60,,,,,,,,,,,,,,,,,,1,5.6752,,0,0,14,14,70,1,stimuli/stim_20210706_power2amp/equal_lnn_AM4.2Hz_s35_21.m4a,,,,,,,,,,,,
,,,,,,,,,,,,41629,2021-09-26_14h59.10.275,judgeSpeechMusic_20210921_logNormShiftAmp_detection_fixS,2020.1.2,MacIntel,60,,,,,,,,,,,,,,,,,,1,5.724,,0,0,15,15,32,1,stimuli/stim_20210706_power2amp/equal_lnn_AM2.4Hz_s35_6.m4a,,,,,,,,,,,,
,,,,,,,,,,,,41629,2021-09-26_14h59.10.275,judgeSpeechMusic_20210921_logNormShiftAmp_detection_fixS,2020.1.2,MacIntel,60,,,,,,,,,,,,,,,,,,1,5.6905,,0,0,16,16,7,1,stimuli/stim_20210706_power2amp/equal_lnn_AM0.6Hz_s35_3.m4a,,,,,,,,,,,,
,,,,,,,,,,,,41629,2021-09-26_14h59.10.275,judgeSpeechMusic_20210921_logNormShiftAmp_detection_fixS,2020.1.2,MacIntel,60,,,,,,,,,,,,,,,,,,1,5.7916,,0,0,17,17,40,1,stimuli/stim_20210706_power2amp/equal_lnn_AM2.4Hz_s35_26.m4a,,,,,,,,,,,,
,,,,,,,,,,,,41629,2021-09-26_14h59.10.275,judgeSpeechMusic_20210921_logNormShiftAmp_detection_fixS,2020.1.2,MacIntel,60,,,,,,,,,,,,,,,,,,1,5.8387,,0,0,18,18,8,1,stimuli/stim_20210706_power2amp/equal_lnn_AM0.6Hz_s35_4.m4a,,,,,,,,,,,,
,,,,,,,,,,,,41629,2021-09-26_14h59.10.275,judgeSpeechMusic_20210921_logNormShiftAmp_detection_fixS,2020.1.2,MacIntel,60,,,,,,,,,,,,,,,,,,1,5.7112,,0,0,19,19,66,1,stimuli/stim_20210706_power2amp/equal_lnn_AM4.2Hz_s35_12.m4a,,,,,,,,,,,,
,,,,,,,,,,,,41629,2021-09-26_14h59.10.275,judgeSpeechMusic_20210921_logNormShiftAmp_detection_fixS,2020.1.2,MacIntel,60,,,,,,,,,,,,,,,,,,1,5.8889,1,1,0,20,20,25,1,stimuli/stim_20210706_power2amp/equal_lnn_AM1.2Hz_s35_43.m4a,1.1094,,,,,,,,,,,
,,,,,,,,,,,,41629,2021-09-26_14h59.10.275,judgeSpeechMusic_20210921_logNormShiftAmp_detection_fixS,2020.1.2,MacIntel,60,,,,,,,,,,,,,,,,,,1,5.8893,,0,0,21,21,13,1,stimuli/stim_20210706_power2amp/equal_lnn_AM0.6Hz_s35_48.m4a,,,,,,,,,,,,
,,,,,,,,,,,,41629,2021-09-26_14h59.10.275,judgeSpeechMusic_20210921_logNormShiftAmp_detection_fixS,2020.1.2,MacIntel,60,,,,,,,,,,,,,,,,,,1,5.7404,,0,0,22,22,52,1,stimuli/stim_20210706_power2amp/equal_lnn_AM3.6Hz_s35_33.m4a,,,,,,,,,,,,
,,,,,,,,,,,,41629,2021-09-26_14h59.10.275,judgeSpeechMusic_20210921_logNormShiftAmp_detection_fixS,2020.1.2,MacIntel,60,,,,,,,,,,,,,,,,,,1,5.7435,,0,0,23,23,65,1,stimuli/stim_20210706_power2amp/equal_lnn_AM4.2Hz_s35_11.m4a,,,,,,,,,,,,
,,,,,,,,,,,,41629,2021-09-26_14h59.10.275,judgeSpeechMusic_20210921_logNormShiftAmp_detection_fixS,2020.1.2,MacIntel,60,,,,,,,,,,,,,,,,,,1,5.7602,,0,0,24,24,33,1,stimuli/stim_20210706_power2amp/equal_lnn_AM2.4Hz_s35_10.m4a,,,,,,,,,,,,
,,,,,,,,,,,,41629,2021-09-26_14h59.10.275,judgeSpeechMusic_20210921_logNormShiftAmp_detection_fixS,2020.1.2,MacIntel,60,,,,,,,,,,,,,,,,,,1,5.6699,,0,0,25,25,59,1,stimuli/stim_20210706_power2amp/equal_lnn_AM3.6Hz_s35_9.m4a,,,,,,,,,,,,
,,,,,,,,,,,,41629,2021-09-26_14h59.10.275,judgeSpeechMusic_20210921_logNormShiftAmp_detection_fixS,2020.1.2,MacIntel,60,,,,,,,,,,,,,,,,,,1,5.8783,,0,0,26,26,57,1,stimuli/stim_20210706_power2amp/equal_lnn_AM3.6Hz_s35_3.m4a,,,,,,,,,,,,
,,,,,,,,,,,,41629,2021-09-26_14h59.10.275,judgeSpeechMusic_20210921_logNormShiftAmp_detection_fixS,2020.1.2,MacIntel,60,,,,,,,,,,,,,,,,,,1,6.718,,0,0,27,27,51,1,stimuli/stim_20210706_power2amp/equal_lnn_AM3.6Hz_s35_14.m4a,,,,,,,,,,,,
,,,,,,,,,,,,41629,2021-09-26_14h59.10.275,judgeSpeechMusic_20210921_logNormShiftAmp_detection_fixS,2020.1.2,MacIntel,60,,,,,,,,,,,,,,,,,,1,5.9779,,0,0,28,28,18,1,stimuli/stim_20210706_power2amp/equal_lnn_AM1.2Hz_s35_45.m4a,,,,,,,,,,,,
,,,,,,,,,,,,41629,2021-09-26_14h59.10.275,judgeSpeechMusic_20210921_logNormShiftAmp_detection_fixS,2020.1.2,MacIntel,60,,,,,,,,,,,,,,,,,,1,5.9081,,0,0,29,29,36,1,stimuli/stim_20210706_power2amp/equal_lnn_AM2.4Hz_s35_32.m4a,,,,,,,,,,,,
,,,,,,,,,,,,41629,2021-09-26_14h59.10.275,judgeSpeechMusic_20210921_logNormShiftAmp_detection_fixS,2020.1.2,MacIntel,60,,,,,,,,,,,,,,,,,,1,6.1397,,0,0,30,30,1,1,stimuli/stim_20210706_power2amp/equal_lnn_AM0.6Hz_s35_43.m4a,,,,,,,,,,,,
,,,,,,,,,,,,41629,2021-09-26_14h59.10.275,judgeSpeechMusic_20210921_logNormShiftAmp_detection_fixS,2020.1.2,MacIntel,60,,,,,,,,,,,,,,,,,,1,6.5562,,0,0,31,31,31,1,stimuli/stim_20210706_power2amp/equal_lnn_AM2.4Hz_s35_19.m4a,,,,,,,,,,,,
,,,,,,,,,,,,41629,2021-09-26_14h59.10.275,judgeSpeechMusic_20210921_logNormShiftAmp_detection_fixS,2020.1.2,MacIntel,60,,,,,,,,,,,,,,,,,,1,5.9228,,0,0,32,32,73,1,stimuli/stim_20210706_power2amp/equal_lnn_AM4.2Hz_s35_32.m4a,,,,,,,,,,,,
,,,,,,,,,,,,41629,2021-09-26_14h59.10.275,judgeSpeechMusic_20210921_logNormShiftAmp_detection_fixS,2020.1.2,MacIntel,60,,,,,,,,,,,,,,,,,,1,6.2604,,0,0,33,33,48,1,stimuli/stim_20210706_power2amp/equal_lnn_AM3.6Hz_s35_24.m4a,,,,,,,,,,,,
,,,,,,,,,,,,41629,2021-09-26_14h59.10.275,judgeSpeechMusic_20210921_logNormShiftAmp_detection_fixS,2020.1.2,MacIntel,60,,,,,,,,,,,,,,,,,,1,5.8554,,0,0,34,34,19,1,stimuli/stim_20210706_power2amp/equal_lnn_AM1.2Hz_s35_48.m4a,,,,,,,,,,,,
,,,,,,,,,,,,41629,2021-09-26_14h59.10.275,judgeSpeechMusic_20210921_logNormShiftAmp_detection_fixS,2020.1.2,MacIntel,60,,,,,,,,,,,,,,,,,,1,6.0316,,0,0,35,35,69,1,stimuli/stim_20210706_power2amp/equal_lnn_AM4.2Hz_s35_50.m4a,,,,,,,,,,,,
,,,,,,,,,,,,41629,2021-09-26_14h59.10.275,judgeSpeechMusic_20210921_logNormShiftAmp_detection_fixS,2020.1.2,MacIntel,60,,,,,,,,,,,,,,,,,,1,5.9449,,0,0,36,36,29,1,stimuli/stim_20210706_power2amp/equal_lnn_AM1.2Hz_s35_30.m4a,,,,,,,,,,,,
,,,,,,,,,,,,41629,2021-09-26_14h59.10.275,judgeSpeechMusic_20210921_logNormShiftAmp_detection_fixS,2020.1.2,MacIntel,60,,,,,,,,,,,,,,,,,,1,6.6766,,0,0,37,37,58,1,stimuli/stim_20210706_power2amp/equal_lnn_AM3.6Hz_s35_6.m4a,,,,,,,,,,,,
,,,,,,,,,,,,41629,2021-09-26_14h59.10.275,judgeSpeechMusic_20210921_logNormShiftAmp_detection_fixS,2020.1.2,MacIntel,60,,,,,,,,,,,,,,,,,,1,6.1597,,0,0,38,38,3,1,stimuli/stim_20210706_power2amp/equal_lnn_AM0.6Hz_s35_25.m4a,,,,,,,,,,,,
,,,,,,,,,,,,41629,2021-09-26_14h59.10.275,judgeSpeechMusic_20210921_logNormShiftAmp_detection_fixS,2020.1.2,MacIntel,60,,,,,,,,,,,,,,,,,,1,5.9411,,0,0,39,39,42,1,stimuli/stim_20210706_power2amp/equal_lnn_AM2.4Hz_s35_4.m4a,,,,,,,,,,,,
,,,,,,,,,,,,41629,2021-09-26_14h59.10.275,judgeSpeechMusic_20210921_logNormShiftAmp_detection_fixS,2020.1.2,MacIntel,60,,,,,,,,,,,,,,,,,,1,6.1568,,0,0,40,40,45,1,stimuli/stim_20210706_power2amp/equal_lnn_AM3.6Hz_s35_20.m4a,,,,,,,,,,,,
,,,,,,,,,,,,41629,2021-09-26_14h59.10.275,judgeSpeechMusic_20210921_logNormShiftAmp_detection_fixS,2020.1.2,MacIntel,60,,,,,,,,,,,,,,,,,,1,6.1174,1,1,0,41,41,2,1,stimuli/stim_20210706_power2amp/equal_lnn_AM0.6Hz_s35_17.m4a,1.324,,,,,,,,,,,
,,,,,,,,,,,,41629,2021-09-26_14h59.10.275,judgeSpeechMusic_20210921_logNormShiftAmp_detection_fixS,2020.1.2,MacIntel,60,,,,,,,,,,,,,,,,,,1,6.5781,,0,0,42,42,72,1,stimuli/stim_20210706_power2amp/equal_lnn_AM4.2Hz_s35_6.m4a,,,,,,,,,,,,
,,,,,,,,,,,,41629,2021-09-26_14h59.10.275,judgeSpeechMusic_20210921_logNormShiftAmp_detection_fixS,2020.1.2,MacIntel,60,,,,,,,,,,,,,,,,,,1,6.3929,,0,0,43,43,9,1,stimuli/stim_20210706_power2amp/equal_lnn_AM0.6Hz_s35_32.m4a,,,,,,,,,,,,
,,,,,,,,,,,,41629,2021-09-26_14h59.10.275,judgeSpeechMusic_20210921_logNormShiftAmp_detection_fixS,2020.1.2,MacIntel,60,,,,,,,,,,,,,,,,,,1,5.8927,,0,0,44,44,47,1,stimuli/stim_20210706_power2amp/equal_lnn_AM3.6Hz_s35_42.m4a,,,,,,,,,,,,
,,,,,,,,,,,,41629,2021-09-26_14h59.10.275,judgeSpeechMusic_20210921_logNormShiftAmp_detection_fixS,2020.1.2,MacIntel,60,,,,,,,,,,,,,,,,,,1,6.3746,,0,0,45,45,14,1,stimuli/stim_20210706_power2amp/equal_lnn_AM0.6Hz_s35_34.m4a,,,,,,,,,,,,
,,,,,,,,,,,,41629,2021-09-26_14h59.10.275,judgeSpeechMusic_20210921_logNormShiftAmp_detection_fixS,2020.1.2,MacIntel,60,,,,,,,,,,,,,,,,,,1,5.8061,,0,0,46,46,61,1,stimuli/stim_20210706_power2amp/equal_lnn_AM4.2Hz_s35_5.m4a,,,,,,,,,,,,
,,,,,,,,,,,,41629,2021-09-26_14h59.10.275,judgeSpeechMusic_20210921_logNormShiftAmp_detection_fixS,2020.1.2,MacIntel,60,,,,,,,,,,,,,,,,,,1,5.7928,,0,0,47,47,11,1,stimuli/stim_20210706_power2amp/equal_lnn_AM0.6Hz_s35_37.m4a,,,,,,,,,,,,
,,,,,,,,,,,,41629,2021-09-26_14h59.10.275,judgeSpeechMusic_20210921_logNormShiftAmp_detection_fixS,2020.1.2,MacIntel,60,,,,,,,,,,,,,,,,,,1,6.0216,,0,0,48,48,67,1,stimuli/stim_20210706_power2amp/equal_lnn_AM4.2Hz_s35_25.m4a,,,,,,,,,,,,
,,,,,,,,,,,,41629,2021-09-26_14h59.10.275,judgeSpeechMusic_20210921_logNormShiftAmp_detection_fixS,2020.1.2,MacIntel,60,,,,,,,,,,,,,,,,,,1,6.2348,,0,0,49,49,50,1,stimuli/stim_20210706_power2amp/equal_lnn_AM3.6Hz_s35_21.m4a,,,,,,,,,,,,
,,,,,,,,,,,,41629,2021-09-26_14h59.10.275,judgeSpeechMusic_20210921_logNormShiftAmp_detection_fixS,2020.1.2,MacIntel,60,,,,,,,,,,,,,,,,,,1,5.802,,0,0,50,50,38,1,stimuli/stim_20210706_power2amp/equal_lnn_AM2.4Hz_s35_11.m4a,,,,,,,,,,,,
,,,,,,,,,,,,41629,2021-09-26_14h59.10.275,judgeSpeechMusic_20210921_logNormShiftAmp_detection_fixS,2020.1.2,MacIntel,60,,,,,,,,,,,,,,,,,,1,5.8144,,0,0,51,51,43,1,stimuli/stim_20210706_power2amp/equal_lnn_AM2.4Hz_s35_9.m4a,,,,,,,,,,,,
,,,,,,,,,,,,41629,2021-09-26_14h59.10.275,judgeSpeechMusic_20210921_logNormShiftAmp_detection_fixS,2020.1.2,MacIntel,60,,,,,,,,,,,,,,,,,,1,6.4507,,0,0,52,52,5,1,stimuli/stim_20210706_power2amp/equal_lnn_AM0.6Hz_s35_8.m4a,,,,,,,,,,,,
,,,,,,,,,,,,41629,2021-09-26_14h59.10.275,judgeSpeechMusic_20210921_logNormShiftAmp_detection_fixS,2020.1.2,MacIntel,60,,,,,,,,,,,,,,,,,,1,5.9249,,0,0,53,53,12,1,stimuli/stim_20210706_power2amp/equal_lnn_AM0.6Hz_s35_50.m4a,,,,,,,,,,,,
,,,,,,,,,,,,41629,2021-09-26_14h59.10.275,judgeSpeechMusic_20210921_logNormShiftAmp_detection_fixS,2020.1.2,MacIntel,60,,,,,,,,,,,,,,,,,,1,6.1417,,0,0,54,54,34,1,stimuli/stim_20210706_power2amp/equal_lnn_AM2.4Hz_s35_35.m4a,,,,,,,,,,,,
,,,,,,,,,,,,41629,2021-09-26_14h59.10.275,judgeSpeechMusic_20210921_logNormShiftAmp_detection_fixS,2020.1.2,MacIntel,60,,,,,,,,,,,,,,,,,,1,5.8703,,0,0,55,55,22,1,stimuli/stim_20210706_power2amp/equal_lnn_AM1.2Hz_s35_32.m4a,,,,,,,,,,,,
,,,,,,,,,,,,41629,2021-09-26_14h59.10.275,judgeSpeechMusic_20210921_logNormShiftAmp_detection_fixS,2020.1.2,MacIntel,60,,,,,,,,,,,,,,,,,,1,5.7592,,0,0,56,56,60,1,stimuli/stim_20210706_power2amp/equal_lnn_AM4.2Hz_s35_37.m4a,,,,,,,,,,,,
,,,,,,,,,,,,41629,2021-09-26_14h59.10.275,judgeSpeechMusic_20210921_logNormShiftAmp_detection_fixS,2020.1.2,MacIntel,60,,,,,,,,,,,,,,,,,,1,5.8425,,0,0,57,57,10,1,stimuli/stim_20210706_power2amp/equal_lnn_AM0.6Hz_s35_10.m4a,,,,,,,,,,,,
,,,,,,,,,,,,41629,2021-09-26_14h59.10.275,judgeSpeechMusic_20210921_logNormShiftAmp_detection_fixS,2020.1.2,MacIntel,60,,,,,,,,,,,,,,,,,,1,6.2109,,0,0,58,58,39,1,stimuli/stim_20210706_power2amp/equal_lnn_AM2.4Hz_s35_7.m4a,,,,,,,,,,,,
,,,,,,,,,,,,41629,2021-09-26_14h59.10.275,judgeSpeechMusic_20210921_logNormShiftAmp_detection_fixS,2020.1.2,MacIntel,60,,,,,,,,,,,,,,,,,,1,5.9908,,0,0,59,59,35,1,stimuli/stim_20210706_power2amp/equal_lnn_AM2.4Hz_s35_45.m4a,,,,,,,,,,,,
,,,,,,,,,,,,41629,2021-09-26_14h59.10.275,judgeSpeechMusic_20210921_logNormShiftAmp_detection_fixS,2020.1.2,MacIntel,60,,,,,,,,,,,,,,,,,,1,6.5918,,0,0,60,60,24,1,stimuli/stim_20210706_power2amp/equal_lnn_AM1.2Hz_s35_5.m4a,,,,,,,,,,,,
,,,,,,,,,,,,41629,2021-09-26_14h59.10.275,judgeSpeechMusic_20210921_logNormShiftAmp_detection_fixS,2020.1.2,MacIntel,60,,,,,,,,,,,,,,,,,,1,5.9423,4,1,0,61,61,54,1,stimuli/stim_20210706_power2amp/equal_lnn_AM3.6Hz_s35_40.m4a,1.1465,,,,,,,,,,,
,,,,,,,,,,,,41629,2021-09-26_14h59.10.275,judgeSpeechMusic_20210921_logNormShiftAmp_detection_fixS,2020.1.2,MacIntel,60,,,,,,,,,,,,,,,,,,1,6.0256,,0,0,62,62,64,1,stimuli/stim_20210706_power2amp/equal_lnn_AM4.2Hz_s35_31.m4a,,,,,,,,,,,,
,,,,,,,,,,,,41629,2021-09-26_14h59.10.275,judgeSpeechMusic_20210921_logNormShiftAmp_detection_fixS,2020.1.2,MacIntel,60,,,,,,,,,,,,,,,,,,1,5.851,,0,0,63,63,53,1,stimuli/stim_20210706_power2amp/equal_lnn_AM3.6Hz_s35_50.m4a,,,,,,,,,,,,
,,,,,,,,,,,,41629,2021-09-26_14h59.10.275,judgeSpeechMusic_20210921_logNormShiftAmp_detection_fixS,2020.1.2,MacIntel,60,,,,,,,,,,,,,,,,,,1,5.9094,,0,0,64,64,16,1,stimuli/stim_20210706_power2amp/equal_lnn_AM1.2Hz_s35_27.m4a,,,,,,,,,,,,
,,,,,,,,,,,,41629,2021-09-26_14h59.10.275,judgeSpeechMusic_20210921_logNormShiftAmp_detection_fixS,2020.1.2,MacIntel,60,,,,,,,,,,,,,,,,,,1,6.0437,,0,0,65,65,4,1,stimuli/stim_20210706_power2amp/equal_lnn_AM0.6Hz_s35_24.m4a,,,,,,,,,,,,
,,,,,,,,,,,,41629,2021-09-26_14h59.10.275,judgeSpeechMusic_20210921_logNormShiftAmp_detection_fixS,2020.1.2,MacIntel,60,,,,,,,,,,,,,,,,,,1,6.7262,,0,0,66,66,30,1,stimuli/stim_20210706_power2amp/equal_lnn_AM2.4Hz_s35_2.m4a,,,,,,,,,,,,
,,,,,,,,,,,,41629,2021-09-26_14h59.10.275,judgeSpeechMusic_20210921_logNormShiftAmp_detection_fixS,2020.1.2,MacIntel,60,,,,,,,,,,,,,,,,,,1,6.0924,,0,0,67,67,20,1,stimuli/stim_20210706_power2amp/equal_lnn_AM1.2Hz_s35_33.m4a,,,,,,,,,,,,
,,,,,,,,,,,,41629,2021-09-26_14h59.10.275,judgeSpeechMusic_20210921_logNormShiftAmp_detection_fixS,2020.1.2,MacIntel,60,,,,,,,,,,,,,,,,,,1,5.9717,,0,0,68,68,74,1,stimuli/stim_20210706_power2amp/equal_lnn_AM4.2Hz_s35_44.m4a,,,,,,,,,,,,
,,,,,,,,,,,,41629,2021-09-26_14h59.10.275,judgeSpeechMusic_20210921_logNormShiftAmp_detection_fixS,2020.1.2,MacIntel,60,,,,,,,,,,,,,,,,,,1,6.3428,,0,0,69,69,63,1,stimuli/stim_20210706_power2amp/equal_lnn_AM4.2Hz_s35_35.m4a,,,,,,,,,,,,
,,,,,,,,,,,,41629,2021-09-26_14h59.10.275,judgeSpeechMusic_20210921_logNormShiftAmp_detection_fixS,2020.1.2,MacIntel,60,,,,,,,,,,,,,,,,,,1,6.4303,,0,0,70,70,41,1,stimuli/stim_20210706_power2amp/equal_lnn_AM2.4Hz_s35_17.m4a,,,,,,,,,,,,
,,,,,,,,,,,,41629,2021-09-26_14h59.10.275,judgeSpeechMusic_20210921_logNormShiftAmp_detection_fixS,2020.1.2,MacIntel,60,,,,,,,,,,,,,,,,,,1,6.1852,,0,0,71,71,28,1,stimuli/stim_20210706_power2amp/equal_lnn_AM1.2Hz_s35_34.m4a,,,,,,,,,,,,
,,,,,,,,,,,,41629,2021-09-26_14h59.10.275,judgeSpeechMusic_20210921_logNormShiftAmp_detection_fixS,2020.1.2,MacIntel,60,,,,,,,,,,,,,,,,,,1,5.8251,,0,0,72,72,56,1,stimuli/stim_20210706_power2amp/equal_lnn_AM3.6Hz_s35_22.m4a,,,,,,,,,,,,
,,,,,,,,,,,,41629,2021-09-26_14h59.10.275,judgeSpeechMusic_20210921_logNormShiftAmp_detection_fixS,2020.1.2,MacIntel,60,,,,,,,,,,,,,,,,,,1,5.8756,,0,0,73,73,17,1,stimuli/stim_20210706_power2amp/equal_lnn_AM1.2Hz_s35_26.m4a,,,,,,,,,,,,
,,,,,,,,,,,,41629,2021-09-26_14h59.10.275,judgeSpeechMusic_20210921_logNormShiftAmp_detection_fixS,2020.1.2,MacIntel,60,,,,,,,,,,,,,,,,,,1,5.9025,,0,0,74,74,21,1,stimuli/stim_20210706_power2amp/equal_lnn_AM1.2Hz_s35_1.m4a,,,,,,,,,,,,
,,,,,,,,,,,,41629,2021-09-26_14h59.10.275,judgeSpeechMusic_20210921_logNormShiftAmp_detection_fixS,2020.1.2,MacIntel,60,,,,,,,,,,,,,,,,,,,,,,,,,,,,,space,3.4763,0,0,0,0,1,MUSIC,stimuli/MUSIC.jpg,,
,,,,,,,,,,,,41629,2021-09-26_14h59.10.275,judgeSpeechMusic_20210921_logNormShiftAmp_detection_fixS,2020.1.2,MacIntel,60,space,0.7269,1,7.8769,,0,0,0,0,0,1,stimuli/stim_20210706_power2amp/equal_lnn_AM_training0.9Hz_s35.m4a,,,,,,,,,,,,,,,,,,,,,,,,,,,
,,,,,,,,,,,,41629,2021-09-26_14h59.10.275,judgeSpeechMusic_20210921_logNormShiftAmp_detection_fixS,2020.1.2,MacIntel,60,,,1,6.1353,,0,0,1,1,1,1,stimuli/stim_20210706_power2amp/equal_lnn_AM_training1.8Hz_s35.m4a,,,,,,,,,,,,,,,,,,,,,,,,,,,
,,,,,,,,,,,,41629,2021-09-26_14h59.10.275,judgeSpeechMusic_20210921_logNormShiftAmp_detection_fixS,2020.1.2,MacIntel,60,,,1,6.867,3,1,0,2,2,3,1,stimuli/stim_20210706_power2amp/equal_lnn_AM_training3.9Hz_s35.m4a,1.8601,,,,,,,,,,,,,,,,,,,,,,,,,,
,,,,,,,,,,,,41629,2021-09-26_14h59.10.275,judgeSpeechMusic_20210921_logNormShiftAmp_detection_fixS,2020.1.2,MacIntel,60,,,1,6.7565,,0,0,3,3,2,1,stimuli/stim_20210706_power2amp/equal_lnn_AM_training3Hz_s35.m4a,,,,,,,,,,,,,,,,,,,,,,,,,,,
,,,,,,,,,,,,41629,2021-09-26_14h59.10.275,judgeSpeechMusic_20210921_logNormShiftAmp_detection_fixS,2020.1.2,MacIntel,60,,,,,,,,,,,,,,space,4.3028,space,0.6731,1,6.433,,0,0,0,0,15,1,stimuli/stim_20210706_power2amp/equal_lnn_AM1.2Hz_s35_2.m4a,,,,,,,,,,,,
,,,,,,,,,,,,41629,2021-09-26_14h59.10.275,judgeSpeechMusic_20210921_logNormShiftAmp_detection_fixS,2020.1.2,MacIntel,60,,,,,,,,,,,,,,,,,,1,6.2423,,0,0,1,1,11,1,stimuli/stim_20210706_power2amp/equal_lnn_AM0.6Hz_s35_37.m4a,,,,,,,,,,,,
,,,,,,,,,,,,41629,2021-09-26_14h59.10.275,judgeSpeechMusic_20210921_logNormShiftAmp_detection_fixS,2020.1.2,MacIntel,60,,,,,,,,,,,,,,,,,,1,5.9727,,0,0,2,2,43,1,stimuli/stim_20210706_power2amp/equal_lnn_AM2.4Hz_s35_9.m4a,,,,,,,,,,,,
,,,,,,,,,,,,41629,2021-09-26_14h59.10.275,judgeSpeechMusic_20210921_logNormShiftAmp_detection_fixS,2020.1.2,MacIntel,60,,,,,,,,,,,,,,,,,,1,6.6712,,0,0,3,3,0,1,stimuli/stim_20210706_power2amp/equal_lnn_AM0.6Hz_s35_30.m4a,,,,,,,,,,,,
,,,,,,,,,,,,41629,2021-09-26_14h59.10.275,judgeSpeechMusic_20210921_logNormShiftAmp_detection_fixS,2020.1.2,MacIntel,60,,,,,,,,,,,,,,,,,,1,6.1572,,0,0,4,4,28,1,stimuli/stim_20210706_power2amp/equal_lnn_AM1.2Hz_s35_34.m4a,,,,,,,,,,,,
,,,,,,,,,,,,41629,2021-09-26_14h59.10.275,judgeSpeechMusic_20210921_logNormShiftAmp_detection_fixS,2020.1.2,MacIntel,60,,,,,,,,,,,,,,,,,,1,6.0614,,0,0,5,5,26,1,stimuli/stim_20210706_power2amp/equal_lnn_AM1.2Hz_s35_3.m4a,,,,,,,,,,,,
,,,,,,,,,,,,41629,2021-09-26_14h59.10.275,judgeSpeechMusic_20210921_logNormShiftAmp_detection_fixS,2020.1.2,MacIntel,60,,,,,,,,,,,,,,,,,,1,6.9564,,0,0,6,6,31,1,stimuli/stim_20210706_power2amp/equal_lnn_AM2.4Hz_s35_19.m4a,,,,,,,,,,,,
,,,,,,,,,,,,41629,2021-09-26_14h59.10.275,judgeSpeechMusic_20210921_logNormShiftAmp_detection_fixS,2020.1.2,MacIntel,60,,,,,,,,,,,,,,,,,,1,6.359,,0,0,7,7,27,1,stimuli/stim_20210706_power2amp/equal_lnn_AM1.2Hz_s35_38.m4a,,,,,,,,,,,,
,,,,,,,,,,,,41629,2021-09-26_14h59.10.275,judgeSpeechMusic_20210921_logNormShiftAmp_detection_fixS,2020.1.2,MacIntel,60,,,,,,,,,,,,,,,,,,1,6.0582,,0,0,8,8,53,1,stimuli/stim_20210706_power2amp/equal_lnn_AM3.6Hz_s35_50.m4a,,,,,,,,,,,,
,,,,,,,,,,,,41629,2021-09-26_14h59.10.275,judgeSpeechMusic_20210921_logNormShiftAmp_detection_fixS,2020.1.2,MacIntel,60,,,,,,,,,,,,,,,,,,1,5.9527,,0,0,9,9,63,1,stimuli/stim_20210706_power2amp/equal_lnn_AM4.2Hz_s35_35.m4a,,,,,,,,,,,,
,,,,,,,,,,,,41629,2021-09-26_14h59.10.275,judgeSpeechMusic_20210921_logNormShiftAmp_detection_fixS,2020.1.2,MacIntel,60,,,,,,,,,,,,,,,,,,1,5.8789,,0,0,10,10,74,1,stimuli/stim_20210706_power2amp/equal_lnn_AM4.2Hz_s35_44.m4a,,,,,,,,,,,,
,,,,,,,,,,,,41629,2021-09-26_14h59.10.275,judgeSpeechMusic_20210921_logNormShiftAmp_detection_fixS,2020.1.2,MacIntel,60,,,,,,,,,,,,,,,,,,1,6.4905,,0,0,11,11,30,1,stimuli/stim_20210706_power2amp/equal_lnn_AM2.4Hz_s35_2.m4a,,,,,,,,,,,,
,,,,,,,,,,,,41629,2021-09-26_14h59.10.275,judgeSpeechMusic_20210921_logNormShiftAmp_detection_fixS,2020.1.2,MacIntel,60,,,,,,,,,,,,,,,,,,1,5.777,,0,0,12,12,67,1,stimuli/stim_20210706_power2amp/equal_lnn_AM4.2Hz_s35_25.m4a,,,,,,,,,,,,
,,,,,,,,,,,,41629,2021-09-26_14h59.10.275,judgeSpeechMusic_20210921_logNormShiftAmp_detection_fixS,2020.1.2,MacIntel,60,,,,,,,,,,,,,,,,,,1,5.8927,,0,0,13,13,29,1,stimuli/stim_20210706_power2amp/equal_lnn_AM1.2Hz_s35_30.m4a,,,,,,,,,,,,
,,,,,,,,,,,,41629,2021-09-26_14h59.10.275,judgeSpeechMusic_20210921_logNormShiftAmp_detection_fixS,2020.1.2,MacIntel,60,,,,,,,,,,,,,,,,,,1,5.826,,0,0,14,14,59,1,stimuli/stim_20210706_power2amp/equal_lnn_AM3.6Hz_s35_9.m4a,,,,,,,,,,,,
,,,,,,,,,,,,41629,2021-09-26_14h59.10.275,judgeSpeechMusic_20210921_logNormShiftAmp_detection_fixS,2020.1.2,MacIntel,60,,,,,,,,,,,,,,,,,,1,5.8941,,0,0,15,15,58,1,stimuli/stim_20210706_power2amp/equal_lnn_AM3.6Hz_s35_6.m4a,,,,,,,,,,,,
,,,,,,,,,,,,41629,2021-09-26_14h59.10.275,judgeSpeechMusic_20210921_logNormShiftAmp_detection_fixS,2020.1.2,MacIntel,60,,,,,,,,,,,,,,,,,,1,6.0082,,0,0,16,16,36,1,stimuli/stim_20210706_power2amp/equal_lnn_AM2.4Hz_s35_32.m4a,,,,,,,,,,,,
,,,,,,,,,,,,41629,2021-09-26_14h59.10.275,judgeSpeechMusic_20210921_logNormShiftAmp_detection_fixS,2020.1.2,MacIntel,60,,,,,,,,,,,,,,,,,,1,6.6697,,0,0,17,17,10,1,stimuli/stim_20210706_power2amp/equal_lnn_AM0.6Hz_s35_10.m4a,,,,,,,,,,,,
,,,,,,,,,,,,41629,2021-09-26_14h59.10.275,judgeSpeechMusic_20210921_logNormShiftAmp_detection_fixS,2020.1.2,MacIntel,60,,,,,,,,,,,,,,,,,,1,5.9093,,0,0,18,18,34,1,stimuli/stim_20210706_power2amp/equal_lnn_AM2.4Hz_s35_35.m4a,,,,,,,,,,,,
,,,,,,,,,,,,41629,2021-09-26_14h59.10.275,judgeSpeechMusic_20210921_logNormShiftAmp_detection_fixS,2020.1.2,MacIntel,60,,,,,,,,,,,,,,,,,,1,5.8245,,0,0,19,19,71,1,stimuli/stim_20210706_power2amp/equal_lnn_AM4.2Hz_s35_47.m4a,,,,,,,,,,,,
,,,,,,,,,,,,41629,2021-09-26_14h59.10.275,judgeSpeechMusic_20210921_logNormShiftAmp_detection_fixS,2020.1.2,MacIntel,60,,,,,,,,,,,,,,,,,,1,5.7613,3,1,0,20,20,38,1,stimuli/stim_20210706_power2amp/equal_lnn_AM2.4Hz_s35_11.m4a,1.3173,,,,,,,,,,,
,,,,,,,,,,,,41629,2021-09-26_14h59.10.275,judgeSpeechMusic_20210921_logNormShiftAmp_detection_fixS,2020.1.2,MacIntel,60,,,,,,,,,,,,,,,,,,1,6.0402,,0,0,21,21,35,1,stimuli/stim_20210706_power2amp/equal_lnn_AM2.4Hz_s35_45.m4a,,,,,,,,,,,,
,,,,,,,,,,,,41629,2021-09-26_14h59.10.275,judgeSpeechMusic_20210921_logNormShiftAmp_detection_fixS,2020.1.2,MacIntel,60,,,,,,,,,,,,,,,,,,1,5.7412,,0,0,22,22,45,1,stimuli/stim_20210706_power2amp/equal_lnn_AM3.6Hz_s35_20.m4a,,,,,,,,,,,,
,,,,,,,,,,,,41629,2021-09-26_14h59.10.275,judgeSpeechMusic_20210921_logNormShiftAmp_detection_fixS,2020.1.2,MacIntel,60,,,,,,,,,,,,,,,,,,1,5.6669,,0,0,23,23,42,1,stimuli/stim_20210706_power2amp/equal_lnn_AM2.4Hz_s35_4.m4a,,,,,,,,,,,,
,,,,,,,,,,,,41629,2021-09-26_14h59.10.275,judgeSpeechMusic_20210921_logNormShiftAmp_detection_fixS,2020.1.2,MacIntel,60,,,,,,,,,,,,,,,,,,1,5.7897,,0,0,24,24,61,1,stimuli/stim_20210706_power2amp/equal_lnn_AM4.2Hz_s35_5.m4a,,,,,,,,,,,,
,,,,,,,,,,,,41629,2021-09-26_14h59.10.275,judgeSpeechMusic_20210921_logNormShiftAmp_detection_fixS,2020.1.2,MacIntel,60,,,,,,,,,,,,,,,,,,1,5.8104,,0,0,25,25,3,1,stimuli/stim_20210706_power2amp/equal_lnn_AM0.6Hz_s35_25.m4a,,,,,,,,,,,,
,,,,,,,,,,,,41629,2021-09-26_14h59.10.275,judgeSpeechMusic_20210921_logNormShiftAmp_detection_fixS,2020.1.2,MacIntel,60,,,,,,,,,,,,,,,,,,1,5.728,,0,0,26,26,9,1,stimuli/stim_20210706_power2amp/equal_lnn_AM0.6Hz_s35_32.m4a,,,,,,,,,,,,
,,,,,,,,,,,,41629,2021-09-26_14h59.10.275,judgeSpeechMusic_20210921_logNormShiftAmp_detection_fixS,2020.1.2,MacIntel,60,,,,,,,,,,,,,,,,,,1,5.7102,,0,0,27,27,1,1,stimuli/stim_20210706_power2amp/equal_lnn_AM0.6Hz_s35_43.m4a,,,,,,,,,,,,
,,,,,,,,,,,,41629,2021-09-26_14h59.10.275,judgeSpeechMusic_20210921_logNormShiftAmp_detection_fixS,2020.1.2,MacIntel,60,,,,,,,,,,,,,,,,,,1,5.6757,,0,0,28,28,70,1,stimuli/stim_20210706_power2amp/equal_lnn_AM4.2Hz_s35_21.m4a,,,,,,,,,,,,
,,,,,,,,,,,,41629,2021-09-26_14h59.10.275,judgeSpeechMusic_20210921_logNormShiftAmp_detection_fixS,2020.1.2,MacIntel,60,,,,,,,,,,,,,,,,,,1,5.7932,,0,0,29,29,4,1,stimuli/stim_20210706_power2amp/equal_lnn_AM0.6Hz_s35_24.m4a,,,,,,,,,,,,
,,,,,,,,,,,,41629,2021-09-26_14h59.10.275,judgeSpeechMusic_20210921_logNormShiftAmp_detection_fixS,2020.1.2,MacIntel,60,,,,,,,,,,,,,,,,,,1,6.1474,,0,0,30,30,20,1,stimuli/stim_20210706_power2amp/equal_lnn_AM1.2Hz_s35_33.m4a,,,,,,,,,,,,
,,,,,,,,,,,,41629,2021-09-26_14h59.10.275,judgeSpeechMusic_20210921_logNormShiftAmp_detection_fixS,2020.1.2,MacIntel,60,,,,,,,,,,,,,,,,,,1,7.3731,,0,0,31,31,25,1,stimuli/stim_20210706_power2amp/equal_lnn_AM1.2Hz_s35_43.m4a,,,,,,,,,,,,
,,,,,,,,,,,,41629,2021-09-26_14h59.10.275,judgeSpeechMusic_20210921_logNormShiftAmp_detection_fixS,2020.1.2,MacIntel,60,,,,,,,,,,,,,,,,,,1,5.9351,,0,0,32,32,14,1,stimuli/stim_20210706_power2amp/equal_lnn_AM0.6Hz_s35_34.m4a,,,,,,,,,,,,
,,,,,,,,,,,,41629,2021-09-26_14h59.10.275,judgeSpeechMusic_20210921_logNormShiftAmp_detection_fixS,2020.1.2,MacIntel,60,,,,,,,,,,,,,,,,,,1,5.9078,,0,0,33,33,62,1,stimuli/stim_20210706_power2amp/equal_lnn_AM4.2Hz_s35_41.m4a,,,,,,,,,,,,
,,,,,,,,,,,,41629,2021-09-26_14h59.10.275,judgeSpeechMusic_20210921_logNormShiftAmp_detection_fixS,2020.1.2,MacIntel,60,,,,,,,,,,,,,,,,,,1,5.9698,,0,0,34,34,57,1,stimuli/stim_20210706_power2amp/equal_lnn_AM3.6Hz_s35_3.m4a,,,,,,,,,,,,
,,,,,,,,,,,,41629,2021-09-26_14h59.10.275,judgeSpeechMusic_20210921_logNormShiftAmp_detection_fixS,2020.1.2,MacIntel,60,,,,,,,,,,,,,,,,,,1,5.8442,,0,0,35,35,39,1,stimuli/stim_20210706_power2amp/equal_lnn_AM2.4Hz_s35_7.m4a,,,,,,,,,,,,
,,,,,,,,,,,,41629,2021-09-26_14h59.10.275,judgeSpeechMusic_20210921_logNormShiftAmp_detection_fixS,2020.1.2,MacIntel,60,,,,,,,,,,,,,,,,,,1,6.1581,,0,0,36,36,37,1,stimuli/stim_20210706_power2amp/equal_lnn_AM2.4Hz_s35_34.m4a,,,,,,,,,,,,
,,,,,,,,,,,,41629,2021-09-26_14h59.10.275,judgeSpeechMusic_20210921_logNormShiftAmp_detection_fixS,2020.1.2,MacIntel,60,,,,,,,,,,,,,,,,,,1,5.845,,0,0,37,37,50,1,stimuli/stim_20210706_power2amp/equal_lnn_AM3.6Hz_s35_21.m4a,,,,,,,,,,,,
,,,,,,,,,,,,41629,2021-09-26_14h59.10.275,judgeSpeechMusic_20210921_logNormShiftAmp_detection_fixS,2020.1.2,MacIntel,60,,,,,,,,,,,,,,,,,,1,6.1259,,0,0,38,38,12,1,stimuli/stim_20210706_power2amp/equal_lnn_AM0.6Hz_s35_50.m4a,,,,,,,,,,,,
,,,,,,,,,,,,41629,2021-09-26_14h59.10.275,judgeSpeechMusic_20210921_logNormShiftAmp_detection_fixS,2020.1.2,MacIntel,60,,,,,,,,,,,,,,,,,,1,6.0584,,0,0,39,39,2,1,stimuli/stim_20210706_power2amp/equal_lnn_AM0.6Hz_s35_17.m4a,,,,,,,,,,,,
,,,,,,,,,,,,41629,2021-09-26_14h59.10.275,judgeSpeechMusic_20210921_logNormShiftAmp_detection_fixS,2020.1.2,MacIntel,60,,,,,,,,,,,,,,,,,,1,5.8587,,0,0,40,40,44,1,stimuli/stim_20210706_power2amp/equal_lnn_AM2.4Hz_s35_50.m4a,,,,,,,,,,,,
,,,,,,,,,,,,41629,2021-09-26_14h59.10.275,judgeSpeechMusic_20210921_logNormShiftAmp_detection_fixS,2020.1.2,MacIntel,60,,,,,,,,,,,,,,,,,,1,5.7467,1,1,0,41,41,69,1,stimuli/stim_20210706_power2amp/equal_lnn_AM4.2Hz_s35_50.m4a,1.4468,,,,,,,,,,,
,,,,,,,,,,,,41629,2021-09-26_14h59.10.275,judgeSpeechMusic_20210921_logNormShiftAmp_detection_fixS,2020.1.2,MacIntel,60,,,,,,,,,,,,,,,,,,1,6.0618,,0,0,42,42,48,1,stimuli/stim_20210706_power2amp/equal_lnn_AM3.6Hz_s35_24.m4a,,,,,,,,,,,,
,,,,,,,,,,,,41629,2021-09-26_14h59.10.275,judgeSpeechMusic_20210921_logNormShiftAmp_detection_fixS,2020.1.2,MacIntel,60,,,,,,,,,,,,,,,,,,1,6.3271,,0,0,43,43,16,1,stimuli/stim_20210706_power2amp/equal_lnn_AM1.2Hz_s35_27.m4a,,,,,,,,,,,,
,,,,,,,,,,,,41629,2021-09-26_14h59.10.275,judgeSpeechMusic_20210921_logNormShiftAmp_detection_fixS,2020.1.2,MacIntel,60,,,,,,,,,,,,,,,,,,1,5.8237,,0,0,44,44,21,1,stimuli/stim_20210706_power2amp/equal_lnn_AM1.2Hz_s35_1.m4a,,,,,,,,,,,,
,,,,,,,,,,,,41629,2021-09-26_14h59.10.275,judgeSpeechMusic_20210921_logNormShiftAmp_detection_fixS,2020.1.2,MacIntel,60,,,,,,,,,,,,,,,,,,1,5.9945,,0,0,45,45,18,1,stimuli/stim_20210706_power2amp/equal_lnn_AM1.2Hz_s35_45.m4a,,,,,,,,,,,,
,,,,,,,,,,,,41629,2021-09-26_14h59.10.275,judgeSpeechMusic_20210921_logNormShiftAmp_detection_fixS,2020.1.2,MacIntel,60,,,,,,,,,,,,,,,,,,1,5.6723,,0,0,46,46,22,1,stimuli/stim_20210706_power2amp/equal_lnn_AM1.2Hz_s35_32.m4a,,,,,,,,,,,,
,,,,,,,,,,,,41629,2021-09-26_14h59.10.275,judgeSpeechMusic_20210921_logNormShiftAmp_detection_fixS,2020.1.2,MacIntel,60,,,,,,,,,,,,,,,,,,1,5.8932,,0,0,47,47,17,1,stimuli/stim_20210706_power2amp/equal_lnn_AM1.2Hz_s35_26.m4a,,,,,,,,,,,,
,,,,,,,,,,,,41629,2021-09-26_14h59.10.275,judgeSpeechMusic_20210921_logNormShiftAmp_detection_fixS,2020.1.2,MacIntel,60,,,,,,,,,,,,,,,,,,1,5.7419,,0,0,48,48,56,1,stimuli/stim_20210706_power2amp/equal_lnn_AM3.6Hz_s35_22.m4a,,,,,,,,,,,,
,,,,,,,,,,,,41629,2021-09-26_14h59.10.275,judgeSpeechMusic_20210921_logNormShiftAmp_detection_fixS,2020.1.2,MacIntel,60,,,,,,,,,,,,,,,,,,1,5.9441,,0,0,49,49,7,1,stimuli/stim_20210706_power2amp/equal_lnn_AM0.6Hz_s35_3.m4a,,,,,,,,,,,,
,,,,,,,,,,,,41629,2021-09-26_14h59.10.275,judgeSpeechMusic_20210921_logNormShiftAmp_detection_fixS,2020.1.2,MacIntel,60,,,,,,,,,,,,,,,,,,1,5.8774,,0,0,50,50,41,1,stimuli/stim_20210706_power2amp/equal_lnn_AM2.4Hz_s35_17.m4a,,,,,,,,,,,,
,,,,,,,,,,,,41629,2021-09-26_14h59.10.275,judgeSpeechMusic_20210921_logNormShiftAmp_detection_fixS,2020.1.2,MacIntel,60,,,,,,,,,,,,,,,,,,1,5.8219,,0,0,51,51,5,1,stimuli/stim_20210706_power2amp/equal_lnn_AM0.6Hz_s35_8.m4a,,,,,,,,,,,,
,,,,,,,,,,,,41629,2021-09-26_14h59.10.275,judgeSpeechMusic_20210921_logNormShiftAmp_detection_fixS,2020.1.2,MacIntel,60,,,,,,,,,,,,,,,,,,1,5.9123,,0,0,52,52,32,1,stimuli/stim_20210706_power2amp/equal_lnn_AM2.4Hz_s35_6.m4a,,,,,,,,,,,,
,,,,,,,,,,,,41629,2021-09-26_14h59.10.275,judgeSpeechMusic_20210921_logNormShiftAmp_detection_fixS,2020.1.2,MacIntel,60,,,,,,,,,,,,,,,,,,1,5.803,,0,0,53,53,40,1,stimuli/stim_20210706_power2amp/equal_lnn_AM2.4Hz_s35_26.m4a,,,,,,,,,,,,
,,,,,,,,,,,,41629,2021-09-26_14h59.10.275,judgeSpeechMusic_20210921_logNormShiftAmp_detection_fixS,2020.1.2,MacIntel,60,,,,,,,,,,,,,,,,,,1,5.7599,,0,0,54,54,52,1,stimuli/stim_20210706_power2amp/equal_lnn_AM3.6Hz_s35_33.m4a,,,,,,,,,,,,
,,,,,,,,,,,,41629,2021-09-26_14h59.10.275,judgeSpeechMusic_20210921_logNormShiftAmp_detection_fixS,2020.1.2,MacIntel,60,,,,,,,,,,,,,,,,,,1,5.8588,,0,0,55,55,64,1,stimuli/stim_20210706_power2amp/equal_lnn_AM4.2Hz_s35_31.m4a,,,,,,,,,,,,
,,,,,,,,,,,,41629,2021-09-26_14h59.10.275,judgeSpeechMusic_20210921_logNormShiftAmp_detection_fixS,2020.1.2,MacIntel,60,,,,,,,,,,,,,,,,,,1,5.9122,,0,0,56,56,24,1,stimuli/stim_20210706_power2amp/equal_lnn_AM1.2Hz_s35_5.m4a,,,,,,,,,,,,
,,,,,,,,,,,,41629,2021-09-26_14h59.10.275,judgeSpeechMusic_20210921_logNormShiftAmp_detection_fixS,2020.1.2,MacIntel,60,,,,,,,,,,,,,,,,,,1,5.7228,,0,0,57,57,51,1,stimuli/stim_20210706_power2amp/equal_lnn_AM3.6Hz_s35_14.m4a,,,,,,,,,,,,
,,,,,,,,,,,,41629,2021-09-26_14h59.10.275,judgeSpeechMusic_20210921_logNormShiftAmp_detection_fixS,2020.1.2,MacIntel,60,,,,,,,,,,,,,,,,,,1,5.722,,0,0,58,58,49,1,stimuli/stim_20210706_power2amp/equal_lnn_AM3.6Hz_s35_26.m4a,,,,,,,,,,,,
,,,,,,,,,,,,41629,2021-09-26_14h59.10.275,judgeSpeechMusic_20210921_logNormShiftAmp_detection_fixS,2020.1.2,MacIntel,60,,,,,,,,,,,,,,,,,,1,5.6595,,0,0,59,59,60,1,stimuli/stim_20210706_power2amp/equal_lnn_AM4.2Hz_s35_37.m4a,,,,,,,,,,,,
,,,,,,,,,,,,41629,2021-09-26_14h59.10.275,judgeSpeechMusic_20210921_logNormShiftAmp_detection_fixS,2020.1.2,MacIntel,60,,,,,,,,,,,,,,,,,,1,5.6476,,0,0,60,60,19,1,stimuli/stim_20210706_power2amp/equal_lnn_AM1.2Hz_s35_48.m4a,,,,,,,,,,,,
,,,,,,,,,,,,41629,2021-09-26_14h59.10.275,judgeSpeechMusic_20210921_logNormShiftAmp_detection_fixS,2020.1.2,MacIntel,60,,,,,,,,,,,,,,,,,,1,5.6083,3,1,0,61,61,55,1,stimuli/stim_20210706_power2amp/equal_lnn_AM3.6Hz_s35_18.m4a,1.4112,,,,,,,,,,,
,,,,,,,,,,,,41629,2021-09-26_14h59.10.275,judgeSpeechMusic_20210921_logNormShiftAmp_detection_fixS,2020.1.2,MacIntel,60,,,,,,,,,,,,,,,,,,1,5.792,,0,0,62,62,54,1,stimuli/stim_20210706_power2amp/equal_lnn_AM3.6Hz_s35_40.m4a,,,,,,,,,,,,
,,,,,,,,,,,,41629,2021-09-26_14h59.10.275,judgeSpeechMusic_20210921_logNormShiftAmp_detection_fixS,2020.1.2,MacIntel,60,,,,,,,,,,,,,,,,,,1,5.9402,,0,0,63,63,23,1,stimuli/stim_20210706_power2amp/equal_lnn_AM1.2Hz_s35_24.m4a,,,,,,,,,,,,
,,,,,,,,,,,,41629,2021-09-26_14h59.10.275,judgeSpeechMusic_20210921_logNormShiftAmp_detection_fixS,2020.1.2,MacIntel,60,,,,,,,,,,,,,,,,,,1,5.654,,0,0,64,64,72,1,stimuli/stim_20210706_power2amp/equal_lnn_AM4.2Hz_s35_6.m4a,,,,,,,,,,,,
,,,,,,,,,,,,41629,2021-09-26_14h59.10.275,judgeSpeechMusic_20210921_logNormShiftAmp_detection_fixS,2020.1.2,MacIntel,60,,,,,,,,,,,,,,,,,,1,5.7042,,0,0,65,65,6,1,stimuli/stim_20210706_power2amp/equal_lnn_AM0.6Hz_s35_27.m4a,,,,,,,,,,,,
,,,,,,,,,,,,41629,2021-09-26_14h59.10.275,judgeSpeechMusic_20210921_logNormShiftAmp_detection_fixS,2020.1.2,MacIntel,60,,,,,,,,,,,,,,,,,,1,5.7623,,0,0,66,66,8,1,stimuli/stim_20210706_power2amp/equal_lnn_AM0.6Hz_s35_4.m4a,,,,,,,,,,,,
,,,,,,,,,,,,41629,2021-09-26_14h59.10.275,judgeSpeechMusic_20210921_logNormShiftAmp_detection_fixS,2020.1.2,MacIntel,60,,,,,,,,,,,,,,,,,,1,5.8225,,0,0,67,67,33,1,stimuli/stim_20210706_power2amp/equal_lnn_AM2.4Hz_s35_10.m4a,,,,,,,,,,,,
,,,,,,,,,,,,41629,2021-09-26_14h59.10.275,judgeSpeechMusic_20210921_logNormShiftAmp_detection_fixS,2020.1.2,MacIntel,60,,,,,,,,,,,,,,,,,,1,5.6589,,0,0,68,68,73,1,stimuli/stim_20210706_power2amp/equal_lnn_AM4.2Hz_s35_32.m4a,,,,,,,,,,,,
,,,,,,,,,,,,41629,2021-09-26_14h59.10.275,judgeSpeechMusic_20210921_logNormShiftAmp_detection_fixS,2020.1.2,MacIntel,60,,,,,,,,,,,,,,,,,,1,5.8781,,0,0,69,69,13,1,stimuli/stim_20210706_power2amp/equal_lnn_AM0.6Hz_s35_48.m4a,,,,,,,,,,,,
,,,,,,,,,,,,41629,2021-09-26_14h59.10.275,judgeSpeechMusic_20210921_logNormShiftAmp_detection_fixS,2020.1.2,MacIntel,60,,,,,,,,,,,,,,,,,,1,6.0371,,0,0,70,70,65,1,stimuli/stim_20210706_power2amp/equal_lnn_AM4.2Hz_s35_11.m4a,,,,,,,,,,,,
,,,,,,,,,,,,41629,2021-09-26_14h59.10.275,judgeSpeechMusic_20210921_logNormShiftAmp_detection_fixS,2020.1.2,MacIntel,60,,,,,,,,,,,,,,,,,,1,5.9902,,0,0,71,71,47,1,stimuli/stim_20210706_power2amp/equal_lnn_AM3.6Hz_s35_42.m4a,,,,,,,,,,,,
,,,,,,,,,,,,41629,2021-09-26_14h59.10.275,judgeSpeechMusic_20210921_logNormShiftAmp_detection_fixS,2020.1.2,MacIntel,60,,,,,,,,,,,,,,,,,,1,5.7697,,0,0,72,72,68,1,stimuli/stim_20210706_power2amp/equal_lnn_AM4.2Hz_s35_14.m4a,,,,,,,,,,,,
,,,,,,,,,,,,41629,2021-09-26_14h59.10.275,judgeSpeechMusic_20210921_logNormShiftAmp_detection_fixS,2020.1.2,MacIntel,60,,,,,,,,,,,,,,,,,,1,5.793,,0,0,73,73,46,1,stimuli/stim_20210706_power2amp/equal_lnn_AM3.6Hz_s35_46.m4a,,,,,,,,,,,,
,,,,,,,,,,,,41629,2021-09-26_14h59.10.275,judgeSpeechMusic_20210921_logNormShiftAmp_detection_fixS,2020.1.2,MacIntel,60,,,,,,,,,,,,,,,,,,1,5.7416,,0,0,74,74,66,1,stimuli/stim_20210706_power2amp/equal_lnn_AM4.2Hz_s35_12.m4a,,,,,,,,,,,,
,,,,,,,,,,,,41629,2021-09-26_14h59.10.275,judgeSpeechMusic_20210921_logNormShiftAmp_detection_fixS,2020.1.2,MacIntel,60,,,,,,,,,,,,,,,,,,,,,,,,,,,,,space,0.7107,0,1,1,1,1,SPEECH,stimuli/SPEECH.jpg,,
,,,,,,,,,,,,41629,2021-09-26_14h59.10.275,judgeSpeechMusic_20210921_logNormShiftAmp_detection_fixS,2020.1.2,MacIntel,60,,,,,,0,0,0,0,3,1,stimuli/stim_20210706_power2amp/equal_lnn_AM_training3.9Hz_s35.m4a,,,,,,,,,,,,,,,,,,,,,,,,,,,
,,,,,,,,,,,,41629,2021-09-26_14h59.10.275,judgeSpeechMusic_20210921_logNormShiftAmp_detection_fixS,2020.1.2,MacIntel,60,,,,,,,,,,,,,,space,5.5823,space,0.4825,1,6.3006,,0,0,0,0,24,1,stimuli/stim_20210706_power2amp/equal_lnn_AM1.2Hz_s35_5.m4a,,,,,,,,,,,,
,,,,,,,,,,,,41629,2021-09-26_14h59.10.275,judgeSpeechMusic_20210921_logNormShiftAmp_detection_fixS,2020.1.2,MacIntel,60,,,,,,,,,,,,,,,,,,1,5.9451,,0,0,1,1,9,1,stimuli/stim_20210706_power2amp/equal_lnn_AM0.6Hz_s35_32.m4a,,,,,,,,,,,,
,,,,,,,,,,,,41629,2021-09-26_14h59.10.275,judgeSpeechMusic_20210921_logNormShiftAmp_detection_fixS,2020.1.2,MacIntel,60,,,,,,,,,,,,,,,,,,1,7.5228,,0,0,2,2,30,1,stimuli/stim_20210706_power2amp/equal_lnn_AM2.4Hz_s35_2.m4a,,,,,,,,,,,,
,,,,,,,,,,,,41629,2021-09-26_14h59.10.275,judgeSpeechMusic_20210921_logNormShiftAmp_detection_fixS,2020.1.2,MacIntel,60,,,,,,,,,,,,,,,,,,1,5.7429,,0,0,3,3,69,1,stimuli/stim_20210706_power2amp/equal_lnn_AM4.2Hz_s35_50.m4a,,,,,,,,,,,,
,,,,,,,,,,,,41629,2021-09-26_14h59.10.275,judgeSpeechMusic_20210921_logNormShiftAmp_detection_fixS,2020.1.2,MacIntel,60,,,,,,,,,,,,,,,,,,1,6.2453,,0,0,4,4,11,1,stimuli/stim_20210706_power2amp/equal_lnn_AM0.6Hz_s35_37.m4a,,,,,,,,,,,,
,,,,,,,,,,,,41629,2021-09-26_14h59.10.275,judgeSpeechMusic_20210921_logNormShiftAmp_detection_fixS,2020.1.2,MacIntel,60,,,,,,,,,,,,,,,,,,1,5.7737,,0,0,5,5,48,1,stimuli/stim_20210706_power2amp/equal_lnn_AM3.6Hz_s35_24.m4a,,,,,,,,,,,,
,,,,,,,,,,,,41629,2021-09-26_14h59.10.275,judgeSpeechMusic_20210921_logNormShiftAmp_detection_fixS,2020.1.2,MacIntel,60,,,,,,,,,,,,,,,,,,1,5.6447,,0,0,6,6,34,1,stimuli/stim_20210706_power2amp/equal_lnn_AM2.4Hz_s35_35.m4a,,,,,,,,,,,,
,,,,,,,,,,,,41629,2021-09-26_14h59.10.275,judgeSpeechMusic_20210921_logNormShiftAmp_detection_fixS,2020.1.2,MacIntel,60,,,,,,,,,,,,,,,,,,1,5.7251,,0,0,7,7,40,1,stimuli/stim_20210706_power2amp/equal_lnn_AM2.4Hz_s35_26.m4a,,,,,,,,,,,,
,,,,,,,,,,,,41629,2021-09-26_14h59.10.275,judgeSpeechMusic_20210921_logNormShiftAmp_detection_fixS,2020.1.2,MacIntel,60,,,,,,,,,,,,,,,,,,1,5.7284,,0,0,8,8,15,1,stimuli/stim_20210706_power2amp/equal_lnn_AM1.2Hz_s35_2.m4a,,,,,,,,,,,,
,,,,,,,,,,,,41629,2021-09-26_14h59.10.275,judgeSpeechMusic_20210921_logNormShiftAmp_detection_fixS,2020.1.2,MacIntel,60,,,,,,,,,,,,,,,,,,1,5.6928,,0,0,9,9,20,1,stimuli/stim_20210706_power2amp/equal_lnn_AM1.2Hz_s35_33.m4a,,,,,,,,,,,,
,,,,,,,,,,,,41629,2021-09-26_14h59.10.275,judgeSpeechMusic_20210921_logNormShiftAmp_detection_fixS,2020.1.2,MacIntel,60,,,,,,,,,,,,,,,,,,1,5.9761,,0,0,10,10,59,1,stimuli/stim_20210706_power2amp/equal_lnn_AM3.6Hz_s35_9.m4a,,,,,,,,,,,,
,,,,,,,,,,,,41629,2021-09-26_14h59.10.275,judgeSpeechMusic_20210921_logNormShiftAmp_detection_fixS,2020.1.2,MacIntel,60,,,,,,,,,,,,,,,,,,1,5.642,,0,0,11,11,31,1,stimuli/stim_20210706_power2amp/equal_lnn_AM2.4Hz_s35_19.m4a,,,,,,,,,,,,
,,,,,,,,,,,,41629,2021-09-26_14h59.10.275,judgeSpeechMusic_20210921_logNormShiftAmp_detection_fixS,2020.1.2,MacIntel,60,,,,,,,,,,,,,,,,,,1,5.6622,,0,0,12,12,12,1,stimuli/stim_20210706_power2amp/equal_lnn_AM0.6Hz_s35_50.m4a,,,,,,,,,,,,
,,,,,,,,,,,,41629,2021-09-26_14h59.10.275,judgeSpeechMusic_20210921_logNormShiftAmp_detection_fixS,2020.1.2,MacIntel,60,,,,,,,,,,,,,,,,,,1,5.674,,0,0,13,13,73,1,stimuli/stim_20210706_power2amp/equal_lnn_AM4.2Hz_s35_32.m4a,,,,,,,,,,,,
,,,,,,,,,,,,41629,2021-09-26_14h59.10.275,judgeSpeechMusic_20210921_logNormShiftAmp_detection_fixS,2020.1.2,MacIntel,60,,,,,,,,,,,,,,,,,,1,5.6085,,0,0,14,14,51,1,stimuli/stim_20210706_power2amp/equal_lnn_AM3.6Hz_s35_14.m4a,,,,,,,,,,,,
,,,,,,,,,,,,41629,2021-09-26_14h59.10.275,judgeSpeechMusic_20210921_logNormShiftAmp_detection_fixS,2020.1.2,MacIntel,60,,,,,,,,,,,,,,,,,,1,5.8088,,0,0,15,15,10,1,stimuli/stim_20210706_power2amp/equal_lnn_AM0.6Hz_s35_10.m4a,,,,,,,,,,,,
,,,,,,,,,,,,41629,2021-09-26_14h59.10.275,judgeSpeechMusic_20210921_logNormShiftAmp_detection_fixS,2020.1.2,MacIntel,60,,,,,,,,,,,,,,,,,,1,6.858,,0,0,16,16,19,1,stimuli/stim_20210706_power2amp/equal_lnn_AM1.2Hz_s35_48.m4a,,,,,,,,,,,,
,,,,,,,,,,,,41629,2021-09-26_14h59.10.275,judgeSpeechMusic_20210921_logNormShiftAmp_detection_fixS,2020.1.2,MacIntel,60,,,,,,,,,,,,,,,,,,1,6.3265,,0,0,17,17,27,1,stimuli/stim_20210706_power2amp/equal_lnn_AM1.2Hz_s35_38.m4a,,,,,,,,,,,,
,,,,,,,,,,,,41629,2021-09-26_14h59.10.275,judgeSpeechMusic_20210921_logNormShiftAmp_detection_fixS,2020.1.2,MacIntel,60,,,,,,,,,,,,,,,,,,1,5.9249,,0,0,18,18,35,1,stimuli/stim_20210706_power2amp/equal_lnn_AM2.4Hz_s35_45.m4a,,,,,,,,,,,,
,,,,,,,,,,,,41629,2021-09-26_14h59.10.275,judgeSpeechMusic_20210921_logNormShiftAmp_detection_fixS,2020.1.2,MacIntel,60,,,,,,,,,,,,,,,,,,1,6.9941,,0,0,19,19,26,1,stimuli/stim_20210706_power2amp/equal_lnn_AM1.2Hz_s35_3.m4a,,,,,,,,,,,,
,,,,,,,,,,,,41629,2021-09-26_14h59.10.275,judgeSpeechMusic_20210921_logNormShiftAmp_detection_fixS,2020.1.2,MacIntel,60,,,,,,,,,,,,,,,,,,1,6.0574,2,1,0,20,20,13,1,stimuli/stim_20210706_power2amp/equal_lnn_AM0.6Hz_s35_48.m4a,0.4946,,,,,,,,,,,
,,,,,,,,,,,,41629,2021-09-26_14h59.10.275,judgeSpeechMusic_20210921_logNormShiftAmp_detection_fixS,2020.1.2,MacIntel,60,,,,,,,,,,,,,,,,,,1,5.9083,,0,0,21,21,60,1,stimuli/stim_20210706_power2amp/equal_lnn_AM4.2Hz_s35_37.m4a,,,,,,,,,,,,
,,,,,,,,,,,,41629,2021-09-26_14h59.10.275,judgeSpeechMusic_20210921_logNormShiftAmp_detection_fixS,2020.1.2,MacIntel,60,,,,,,,,,,,,,,,,,,1,8.3449,,0,0,22,22,2,1,stimuli/stim_20210706_power2amp/equal_lnn_AM0.6Hz_s35_17.m4a,,,,,,,,,,,,
,,,,,,,,,,,,41629,2021-09-26_14h59.10.275,judgeSpeechMusic_20210921_logNormShiftAmp_detection_fixS,2020.1.2,MacIntel,60,,,,,,,,,,,,,,,,,,1,5.888,,0,0,23,23,72,1,stimuli/stim_20210706_power2amp/equal_lnn_AM4.2Hz_s35_6.m4a,,,,,,,,,,,,
,,,,,,,,,,,,41629,2021-09-26_14h59.10.275,judgeSpeechMusic_20210921_logNormShiftAmp_detection_fixS,2020.1.2,MacIntel,60,,,,,,,,,,,,,,,,,,1,5.8763,,0,0,24,24,74,1,stimuli/stim_20210706_power2amp/equal_lnn_AM4.2Hz_s35_44.m4a,,,,,,,,,,,,
,,,,,,,,,,,,41629,2021-09-26_14h59.10.275,judgeSpeechMusic_20210921_logNormShiftAmp_detection_fixS,2020.1.2,MacIntel,60,,,,,,,,,,,,,,,,,,1,5.9089,,0,0,25,25,58,1,stimuli/stim_20210706_power2amp/equal_lnn_AM3.6Hz_s35_6.m4a,,,,,,,,,,,,
,,,,,,,,,,,,41629,2021-09-26_14h59.10.275,judgeSpeechMusic_20210921_logNormShiftAmp_detection_fixS,2020.1.2,MacIntel,60,,,,,,,,,,,,,,,,,,1,6.0261,,0,0,26,26,1,1,stimuli/stim_20210706_power2amp/equal_lnn_AM0.6Hz_s35_43.m4a,,,,,,,,,,,,
,,,,,,,,,,,,41629,2021-09-26_14h59.10.275,judgeSpeechMusic_20210921_logNormShiftAmp_detection_fixS,2020.1.2,MacIntel,60,,,,,,,,,,,,,,,,,,1,6.241,,0,0,27,27,47,1,stimuli/stim_20210706_power2amp/equal_lnn_AM3.6Hz_s35_42.m4a,,,,,,,,,,,,
,,,,,,,,,,,,41629,2021-09-26_14h59.10.275,judgeSpeechMusic_20210921_logNormShiftAmp_detection_fixS,2020.1.2,MacIntel,60,,,,,,,,,,,,,,,,,,1,5.908,,0,0,28,28,41,1,stimuli/stim_20210706_power2amp/equal_lnn_AM2.4Hz_s35_17.m4a,,,,,,,,,,,,
,,,,,,,,,,,,41629,2021-09-26_14h59.10.275,judgeSpeechMusic_20210921_logNormShiftAmp_detection_fixS,2020.1.2,MacIntel,60,,,,,,,,,,,,,,,,,,1,6.4757,,0,0,29,29,8,1,stimuli/stim_20210706_power2amp/equal_lnn_AM0.6Hz_s35_4.m4a,,,,,,,,,,,,
,,,,,,,,,,,,41629,2021-09-26_14h59.10.275,judgeSpeechMusic_20210921_logNormShiftAmp_detection_fixS,2020.1.2,MacIntel,60,,,,,,,,,,,,,,,,,,1,6.9741,,0,0,30,30,56,1,stimuli/stim_20210706_power2amp/equal_lnn_AM3.6Hz_s35_22.m4a,,,,,,,,,,,,
,,,,,,,,,,,,41629,2021-09-26_14h59.10.275,judgeSpeechMusic_20210921_logNormShiftAmp_detection_fixS,2020.1.2,MacIntel,60,,,,,,,,,,,,,,,,,,1,6.0943,,0,0,31,31,6,1,stimuli/stim_20210706_power2amp/equal_lnn_AM0.6Hz_s35_27.m4a,,,,,,,,,,,,
,,,,,,,,,,,,41629,2021-09-26_14h59.10.275,judgeSpeechMusic_20210921_logNormShiftAmp_detection_fixS,2020.1.2,MacIntel,60,,,,,,,,,,,,,,,,,,1,5.8955,,0,0,32,32,68,1,stimuli/stim_20210706_power2amp/equal_lnn_AM4.2Hz_s35_14.m4a,,,,,,,,,,,,
,,,,,,,,,,,,41629,2021-09-26_14h59.10.275,judgeSpeechMusic_20210921_logNormShiftAmp_detection_fixS,2020.1.2,MacIntel,60,,,,,,,,,,,,,,,,,,1,5.7083,,0,0,33,33,57,1,stimuli/stim_20210706_power2amp/equal_lnn_AM3.6Hz_s35_3.m4a,,,,,,,,,,,,
,,,,,,,,,,,,41629,2021-09-26_14h59.10.275,judgeSpeechMusic_20210921_logNormShiftAmp_detection_fixS,2020.1.2,MacIntel,60,,,,,,,,,,,,,,,,,,1,6.8927,,0,0,34,34,16,1,stimuli/stim_20210706_power2amp/equal_lnn_AM1.2Hz_s35_27.m4a,,,,,,,,,,,,
,,,,,,,,,,,,41629,2021-09-26_14h59.10.275,judgeSpeechMusic_20210921_logNormShiftAmp_detection_fixS,2020.1.2,MacIntel,60,,,,,,,,,,,,,,,,,,1,6.6256,,0,0,35,35,44,1,stimuli/stim_20210706_power2amp/equal_lnn_AM2.4Hz_s35_50.m4a,,,,,,,,,,,,
,,,,,,,,,,,,41629,2021-09-26_14h59.10.275,judgeSpeechMusic_20210921_logNormShiftAmp_detection_fixS,2020.1.2,MacIntel,60,,,,,,,,,,,,,,,,,,1,6.5392,,0,0,36,36,52,1,stimuli/stim_20210706_power2amp/equal_lnn_AM3.6Hz_s35_33.m4a,,,,,,,,,,,,
,,,,,,,,,,,,41629,2021-09-26_14h59.10.275,judgeSpeechMusic_20210921_logNormShiftAmp_detection_fixS,2020.1.2,MacIntel,60,,,,,,,,,,,,,,,,,,1,6.3437,,0,0,37,37,14,1,stimuli/stim_20210706_power2amp/equal_lnn_AM0.6Hz_s35_34.m4a,,,,,,,,,,,,
,,,,,,,,,,,,41629,2021-09-26_14h59.10.275,judgeSpeechMusic_20210921_logNormShiftAmp_detection_fixS,2020.1.2,MacIntel,60,,,,,,,,,,,,,,,,,,1,6.2424,,0,0,38,38,17,1,stimuli/stim_20210706_power2amp/equal_lnn_AM1.2Hz_s35_26.m4a,,,,,,,,,,,,
,,,,,,,,,,,,41629,2021-09-26_14h59.10.275,judgeSpeechMusic_20210921_logNormShiftAmp_detection_fixS,2020.1.2,MacIntel,60,,,,,,,,,,,,,,,,,,1,6.1625,,0,0,39,39,45,1,stimuli/stim_20210706_power2amp/equal_lnn_AM3.6Hz_s35_20.m4a,,,,,,,,,,,,
,,,,,,,,,,,,41629,2021-09-26_14h59.10.275,judgeSpeechMusic_20210921_logNormShiftAmp_detection_fixS,2020.1.2,MacIntel,60,,,,,,,,,,,,,,,,,,1,7.5278,,0,0,40,40,50,1,stimuli/stim_20210706_power2amp/equal_lnn_AM3.6Hz_s35_21.m4a,,,,,,,,,,,,
,,,,,,,,,,,,41629,2021-09-26_14h59.10.275,judgeSpeechMusic_20210921_logNormShiftAmp_detection_fixS,2020.1.2,MacIntel,60,,,,,,,,,,,,,,,,,,1,6.1772,2,1,0,41,41,63,1,stimuli/stim_20210706_power2amp/equal_lnn_AM4.2Hz_s35_35.m4a,0.5463,,,,,,,,,,,
,,,,,,,,,,,,41629,2021-09-26_14h59.10.275,judgeSpeechMusic_20210921_logNormShiftAmp_detection_fixS,2020.1.2,MacIntel,60,,,,,,,,,,,,,,,,,,1,6.3049,,0,0,42,42,4,1,stimuli/stim_20210706_power2amp/equal_lnn_AM0.6Hz_s35_24.m4a,,,,,,,,,,,,
,,,,,,,,,,,,41629,2021-09-26_14h59.10.275,judgeSpeechMusic_20210921_logNormShiftAmp_detection_fixS,2020.1.2,MacIntel,60,,,,,,,,,,,,,,,,,,1,6.0058,,0,0,43,43,39,1,stimuli/stim_20210706_power2amp/equal_lnn_AM2.4Hz_s35_7.m4a,,,,,,,,,,,,
,,,,,,,,,,,,41629,2021-09-26_14h59.10.275,judgeSpeechMusic_20210921_logNormShiftAmp_detection_fixS,2020.1.2,MacIntel,60,,,,,,,,,,,,,,,,,,1,6.0352,,0,0,44,44,7,1,stimuli/stim_20210706_power2amp/equal_lnn_AM0.6Hz_s35_3.m4a,,,,,,,,,,,,
,,,,,,,,,,,,41629,2021-09-26_14h59.10.275,judgeSpeechMusic_20210921_logNormShiftAmp_detection_fixS,2020.1.2,MacIntel,60,,,,,,,,,,,,,,,,,,1,6.5877,,0,0,45,45,21,1,stimuli/stim_20210706_power2amp/equal_lnn_AM1.2Hz_s35_1.m4a,,,,,,,,,,,,
,,,,,,,,,,,,41629,2021-09-26_14h59.10.275,judgeSpeechMusic_20210921_logNormShiftAmp_detection_fixS,2020.1.2,MacIntel,60,,,,,,,,,,,,,,,,,,1,5.7911,,0,0,46,46,61,1,stimuli/stim_20210706_power2amp/equal_lnn_AM4.2Hz_s35_5.m4a,,,,,,,,,,,,
,,,,,,,,,,,,41629,2021-09-26_14h59.10.275,judgeSpeechMusic_20210921_logNormShiftAmp_detection_fixS,2020.1.2,MacIntel,60,,,,,,,,,,,,,,,,,,1,5.6082,,0,0,47,47,54,1,stimuli/stim_20210706_power2amp/equal_lnn_AM3.6Hz_s35_40.m4a,,,,,,,,,,,,
,,,,,,,,,,,,41629,2021-09-26_14h59.10.275,judgeSpeechMusic_20210921_logNormShiftAmp_detection_fixS,2020.1.2,MacIntel,60,,,,,,,,,,,,,,,,,,1,5.6549,,0,0,48,48,29,1,stimuli/stim_20210706_power2amp/equal_lnn_AM1.2Hz_s35_30.m4a,,,,,,,,,,,,
,,,,,,,,,,,,41629,2021-09-26_14h59.10.275,judgeSpeechMusic_20210921_logNormShiftAmp_detection_fixS,2020.1.2,MacIntel,60,,,,,,,,,,,,,,,,,,1,5.678,,0,0,49,49,37,1,stimuli/stim_20210706_power2amp/equal_lnn_AM2.4Hz_s35_34.m4a,,,,,,,,,,,,
,,,,,,,,,,,,41629,2021-09-26_14h59.10.275,judgeSpeechMusic_20210921_logNormShiftAmp_detection_fixS,2020.1.2,MacIntel,60,,,,,,,,,,,,,,,,,,1,6.1095,,0,0,50,50,42,1,stimuli/stim_20210706_power2amp/equal_lnn_AM2.4Hz_s35_4.m4a,,,,,,,,,,,,
,,,,,,,,,,,,41629,2021-09-26_14h59.10.275,judgeSpeechMusic_20210921_logNormShiftAmp_detection_fixS,2020.1.2,MacIntel,60,,,,,,,,,,,,,,,,,,1,5.8398,,0,0,51,51,46,1,stimuli/stim_20210706_power2amp/equal_lnn_AM3.6Hz_s35_46.m4a,,,,,,,,,,,,
,,,,,,,,,,,,41629,2021-09-26_14h59.10.275,judgeSpeechMusic_20210921_logNormShiftAmp_detection_fixS,2020.1.2,MacIntel,60,,,,,,,,,,,,,,,,,,1,5.8896,,0,0,52,52,64,1,stimuli/stim_20210706_power2amp/equal_lnn_AM4.2Hz_s35_31.m4a,,,,,,,,,,,,
,,,,,,,,,,,,41629,2021-09-26_14h59.10.275,judgeSpeechMusic_20210921_logNormShiftAmp_detection_fixS,2020.1.2,MacIntel,60,,,,,,,,,,,,,,,,,,1,5.7252,,0,0,53,53,36,1,stimuli/stim_20210706_power2amp/equal_lnn_AM2.4Hz_s35_32.m4a,,,,,,,,,,,,
,,,,,,,,,,,,41629,2021-09-26_14h59.10.275,judgeSpeechMusic_20210921_logNormShiftAmp_detection_fixS,2020.1.2,MacIntel,60,,,,,,,,,,,,,,,,,,1,5.6887,,0,0,54,54,66,1,stimuli/stim_20210706_power2amp/equal_lnn_AM4.2Hz_s35_12.m4a,,,,,,,,,,,,
,,,,,,,,,,,,41629,2021-09-26_14h59.10.275,judgeSpeechMusic_20210921_logNormShiftAmp_detection_fixS,2020.1.2,MacIntel,60,,,,,,,,,,,,,,,,,,1,5.714,,0,0,55,55,43,1,stimuli/stim_20210706_power2amp/equal_lnn_AM2.4Hz_s35_9.m4a,,,,,,,,,,,,
,,,,,,,,,,,,41629,2021-09-26_14h59.10.275,judgeSpeechMusic_20210921_logNormShiftAmp_detection_fixS,2020.1.2,MacIntel,60,,,,,,,,,,,,,,,,,,1,5.6382,,0,0,56,56,25,1,stimuli/stim_20210706_power2amp/equal_lnn_AM1.2Hz_s35_43.m4a,,,,,,,,,,,,
,,,,,,,,,,,,41629,2021-09-26_14h59.10.275,judgeSpeechMusic_20210921_logNormShiftAmp_detection_fixS,2020.1.2,MacIntel,60,,,,,,,,,,,,,,,,,,1,5.6576,,0,0,57,57,70,1,stimuli/stim_20210706_power2amp/equal_lnn_AM4.2Hz_s35_21.m4a,,,,,,,,,,,,
,,,,,,,,,,,,41629,2021-09-26_14h59.10.275,judgeSpeechMusic_20210921_logNormShiftAmp_detection_fixS,2020.1.2,MacIntel,60,,,,,,,,,,,,,,,,,,1,5.8468,,0,0,58,58,23,1,stimuli/stim_20210706_power2amp/equal_lnn_AM1.2Hz_s35_24.m4a,,,,,,,,,,,,
,,,,,,,,,,,,41629,2021-09-26_14h59.10.275,judgeSpeechMusic_20210921_logNormShiftAmp_detection_fixS,2020.1.2,MacIntel,60,,,,,,,,,,,,,,,,,,1,5.7428,,0,0,59,59,65,1,stimuli/stim_20210706_power2amp/equal_lnn_AM4.2Hz_s35_11.m4a,,,,,,,,,,,,
,,,,,,,,,,,,41629,2021-09-26_14h59.10.275,judgeSpeechMusic_20210921_logNormShiftAmp_detection_fixS,2020.1.2,MacIntel,60,,,,,,,,,,,,,,,,,,1,5.6734,,0,0,60,60,62,1,stimuli/stim_20210706_power2amp/equal_lnn_AM4.2Hz_s35_41.m4a,,,,,,,,,,,,
,,,,,,,,,,,,41629,2021-09-26_14h59.10.275,judgeSpeechMusic_20210921_logNormShiftAmp_detection_fixS,2020.1.2,MacIntel,60,,,,,,,,,,,,,,,,,,1,5.7095,2,1,0,61,61,32,1,stimuli/stim_20210706_power2amp/equal_lnn_AM2.4Hz_s35_6.m4a,1.3588,,,,,,,,,,,
,,,,,,,,,,,,41629,2021-09-26_14h59.10.275,judgeSpeechMusic_20210921_logNormShiftAmp_detection_fixS,2020.1.2,MacIntel,60,,,,,,,,,,,,,,,,,,1,5.7403,,0,0,62,62,67,1,stimuli/stim_20210706_power2amp/equal_lnn_AM4.2Hz_s35_25.m4a,,,,,,,,,,,,
,,,,,,,,,,,,41629,2021-09-26_14h59.10.275,judgeSpeechMusic_20210921_logNormShiftAmp_detection_fixS,2020.1.2,MacIntel,60,,,,,,,,,,,,,,,,,,1,5.6586,,0,0,63,63,18,1,stimuli/stim_20210706_power2amp/equal_lnn_AM1.2Hz_s35_45.m4a,,,,,,,,,,,,
,,,,,,,,,,,,41629,2021-09-26_14h59.10.275,judgeSpeechMusic_20210921_logNormShiftAmp_detection_fixS,2020.1.2,MacIntel,60,,,,,,,,,,,,,,,,,,1,5.7561,,0,0,64,64,5,1,stimuli/stim_20210706_power2amp/equal_lnn_AM0.6Hz_s35_8.m4a,,,,,,,,,,,,
,,,,,,,,,,,,41629,2021-09-26_14h59.10.275,judgeSpeechMusic_20210921_logNormShiftAmp_detection_fixS,2020.1.2,MacIntel,60,,,,,,,,,,,,,,,,,,1,5.6838,,0,0,65,65,28,1,stimuli/stim_20210706_power2amp/equal_lnn_AM1.2Hz_s35_34.m4a,,,,,,,,,,,,
,,,,,,,,,,,,41629,2021-09-26_14h59.10.275,judgeSpeechMusic_20210921_logNormShiftAmp_detection_fixS,2020.1.2,MacIntel,60,,,,,,,,,,,,,,,,,,1,5.6715,,0,0,66,66,38,1,stimuli/stim_20210706_power2amp/equal_lnn_AM2.4Hz_s35_11.m4a,,,,,,,,,,,,
,,,,,,,,,,,,41629,2021-09-26_14h59.10.275,judgeSpeechMusic_20210921_logNormShiftAmp_detection_fixS,2020.1.2,MacIntel,60,,,,,,,,,,,,,,,,,,1,5.8231,,0,0,67,67,49,1,stimuli/stim_20210706_power2amp/equal_lnn_AM3.6Hz_s35_26.m4a,,,,,,,,,,,,
,,,,,,,,,,,,41629,2021-09-26_14h59.10.275,judgeSpeechMusic_20210921_logNormShiftAmp_detection_fixS,2020.1.2,MacIntel,60,,,,,,,,,,,,,,,,,,1,5.8035,,0,0,68,68,53,1,stimuli/stim_20210706_power2amp/equal_lnn_AM3.6Hz_s35_50.m4a,,,,,,,,,,,,
,,,,,,,,,,,,41629,2021-09-26_14h59.10.275,judgeSpeechMusic_20210921_logNormShiftAmp_detection_fixS,2020.1.2,MacIntel,60,,,,,,,,,,,,,,,,,,1,5.842,,0,0,69,69,33,1,stimuli/stim_20210706_power2amp/equal_lnn_AM2.4Hz_s35_10.m4a,,,,,,,,,,,,
,,,,,,,,,,,,41629,2021-09-26_14h59.10.275,judgeSpeechMusic_20210921_logNormShiftAmp_detection_fixS,2020.1.2,MacIntel,60,,,,,,,,,,,,,,,,,,1,7.8579,,0,0,70,70,3,1,stimuli/stim_20210706_power2amp/equal_lnn_AM0.6Hz_s35_25.m4a,,,,,,,,,,,,
,,,,,,,,,,,,41629,2021-09-26_14h59.10.275,judgeSpeechMusic_20210921_logNormShiftAmp_detection_fixS,2020.1.2,MacIntel,60,,,,,,,,,,,,,,,,,,1,5.7209,,0,0,71,71,22,1,stimuli/stim_20210706_power2amp/equal_lnn_AM1.2Hz_s35_32.m4a,,,,,,,,,,,,
,,,,,,,,,,,,41629,2021-09-26_14h59.10.275,judgeSpeechMusic_20210921_logNormShiftAmp_detection_fixS,2020.1.2,MacIntel,60,,,,,,,,,,,,,,,,,,1,5.7258,,0,0,72,72,71,1,stimuli/stim_20210706_power2amp/equal_lnn_AM4.2Hz_s35_47.m4a,,,,,,,,,,,,
,,,,,,,,,,,,41629,2021-09-26_14h59.10.275,judgeSpeechMusic_20210921_logNormShiftAmp_detection_fixS,2020.1.2,MacIntel,60,,,,,,,,,,,,,,,,,,1,5.6548,,0,0,73,73,0,1,stimuli/stim_20210706_power2amp/equal_lnn_AM0.6Hz_s35_30.m4a,,,,,,,,,,,,
,,,,,,,,,,,,41629,2021-09-26_14h59.10.275,judgeSpeechMusic_20210921_logNormShiftAmp_detection_fixS,2020.1.2,MacIntel,60,,,,,,,,,,,,,,,,,,1,5.6274,,0,0,74,74,55,1,stimuli/stim_20210706_power2amp/equal_lnn_AM3.6Hz_s35_18.m4a,,,,,,,,,,,,
,,,,,,,,,,,,41629,2021-09-26_14h59.10.275,judgeSpeechMusic_20210921_logNormShiftAmp_detection_fixS,2020.1.2,MacIntel,60,,,,,,,,,,,,,,,,,,,,,,,,,,,,,space,0.9279,1,0,2,0,1,MUSIC,stimuli/MUSIC.jpg,,
,,,,,,,,,,,,41629,2021-09-26_14h59.10.275,judgeSpeechMusic_20210921_logNormShiftAmp_detection_fixS,2020.1.2,MacIntel,60,,,,,,0,0,0,0,3,1,stimuli/stim_20210706_power2amp/equal_lnn_AM_training3.9Hz_s35.m4a,,,,,,,,,,,,,,,,,,,,,,,,,,,
,,,,,,,,,,,,41629,2021-09-26_14h59.10.275,judgeSpeechMusic_20210921_logNormShiftAmp_detection_fixS,2020.1.2,MacIntel,60,,,,,,,,,,,,,,space,5.3945,space,0.7193,1,5.689,,0,0,0,0,45,1,stimuli/stim_20210706_power2amp/equal_lnn_AM3.6Hz_s35_20.m4a,,,,,,,,,,,,
,,,,,,,,,,,,41629,2021-09-26_14h59.10.275,judgeSpeechMusic_20210921_logNormShiftAmp_detection_fixS,2020.1.2,MacIntel,60,,,,,,,,,,,,,,,,,,1,5.9701,,0,0,1,1,11,1,stimuli/stim_20210706_power2amp/equal_lnn_AM0.6Hz_s35_37.m4a,,,,,,,,,,,,
,,,,,,,,,,,,41629,2021-09-26_14h59.10.275,judgeSpeechMusic_20210921_logNormShiftAmp_detection_fixS,2020.1.2,MacIntel,60,,,,,,,,,,,,,,,,,,1,5.6917,,0,0,2,2,50,1,stimuli/stim_20210706_power2amp/equal_lnn_AM3.6Hz_s35_21.m4a,,,,,,,,,,,,
,,,,,,,,,,,,41629,2021-09-26_14h59.10.275,judgeSpeechMusic_20210921_logNormShiftAmp_detection_fixS,2020.1.2,MacIntel,60,,,,,,,,,,,,,,,,,,1,5.8217,,0,0,3,3,28,1,stimuli/stim_20210706_power2amp/equal_lnn_AM1.2Hz_s35_34.m4a,,,,,,,,,,,,
,,,,,,,,,,,,41629,2021-09-26_14h59.10.275,judgeSpeechMusic_20210921_logNormShiftAmp_detection_fixS,2020.1.2,MacIntel,60,,,,,,,,,,,,,,,,,,1,5.6744,,0,0,4,4,44,1,stimuli/stim_20210706_power2amp/equal_lnn_AM2.4Hz_s35_50.m4a,,,,,,,,,,,,
,,,,,,,,,,,,41629,2021-09-26_14h59.10.275,judgeSpeechMusic_20210921_logNormShiftAmp_detection_fixS,2020.1.2,MacIntel,60,,,,,,,,,,,,,,,,,,1,5.7038,,0,0,5,5,72,1,stimuli/stim_20210706_power2amp/equal_lnn_AM4.2Hz_s35_6.m4a,,,,,,,,,,,,
,,,,,,,,,,,,41629,2021-09-26_14h59.10.275,judgeSpeechMusic_20210921_logNormShiftAmp_detection_fixS,2020.1.2,MacIntel,60,,,,,,,,,,,,,,,,,,1,5.6865,,0,0,6,6,25,1,stimuli/stim_20210706_power2amp/equal_lnn_AM1.2Hz_s35_43.m4a,,,,,,,,,,,,
,,,,,,,,,,,,41629,2021-09-26_14h59.10.275,judgeSpeechMusic_20210921_logNormShiftAmp_detection_fixS,2020.1.2,MacIntel,60,,,,,,,,,,,,,,,,,,1,5.7098,,0,0,7,7,3,1,stimuli/stim_20210706_power2amp/equal_lnn_AM0.6Hz_s35_25.m4a,,,,,,,,,,,,
,,,,,,,,,,,,41629,2021-09-26_14h59.10.275,judgeSpeechMusic_20210921_logNormShiftAmp_detection_fixS,2020.1.2,MacIntel,60,,,,,,,,,,,,,,,,,,1,6.117,,0,0,8,8,2,1,stimuli/stim_20210706_power2amp/equal_lnn_AM0.6Hz_s35_17.m4a,,,,,,,,,,,,
,,,,,,,,,,,,41629,2021-09-26_14h59.10.275,judgeSpeechMusic_20210921_logNormShiftAmp_detection_fixS,2020.1.2,MacIntel,60,,,,,,,,,,,,,,,,,,1,5.6784,,0,0,9,9,30,1,stimuli/stim_20210706_power2amp/equal_lnn_AM2.4Hz_s35_2.m4a,,,,,,,,,,,,
,,,,,,,,,,,,41629,2021-09-26_14h59.10.275,judgeSpeechMusic_20210921_logNormShiftAmp_detection_fixS,2020.1.2,MacIntel,60,,,,,,,,,,,,,,,,,,1,5.8279,,0,0,10,10,32,1,stimuli/stim_20210706_power2amp/equal_lnn_AM2.4Hz_s35_6.m4a,,,,,,,,,,,,
,,,,,,,,,,,,41629,2021-09-26_14h59.10.275,judgeSpeechMusic_20210921_logNormShiftAmp_detection_fixS,2020.1.2,MacIntel,60,,,,,,,,,,,,,,,,,,1,5.7451,,0,0,11,11,17,1,stimuli/stim_20210706_power2amp/equal_lnn_AM1.2Hz_s35_26.m4a,,,,,,,,,,,,
,,,,,,,,,,,,41629,2021-09-26_14h59.10.275,judgeSpeechMusic_20210921_logNormShiftAmp_detection_fixS,2020.1.2,MacIntel,60,,,,,,,,,,,,,,,,,,1,6.0375,,0,0,12,12,70,1,stimuli/stim_20210706_power2amp/equal_lnn_AM4.2Hz_s35_21.m4a,,,,,,,,,,,,
,,,,,,,,,,,,41629,2021-09-26_14h59.10.275,judgeSpeechMusic_20210921_logNormShiftAmp_detection_fixS,2020.1.2,MacIntel,60,,,,,,,,,,,,,,,,,,1,5.6895,,0,0,13,13,58,1,stimuli/stim_20210706_power2amp/equal_lnn_AM3.6Hz_s35_6.m4a,,,,,,,,,,,,
,,,,,,,,,,,,41629,2021-09-26_14h59.10.275,judgeSpeechMusic_20210921_logNormShiftAmp_detection_fixS,2020.1.2,MacIntel,60,,,,,,,,,,,,,,,,,,1,5.7226,,0,0,14,14,40,1,stimuli/stim_20210706_power2amp/equal_lnn_AM2.4Hz_s35_26.m4a,,,,,,,,,,,,
,,,,,,,,,,,,41629,2021-09-26_14h59.10.275,judgeSpeechMusic_20210921_logNormShiftAmp_detection_fixS,2020.1.2,MacIntel,60,,,,,,,,,,,,,,,,,,1,5.7604,,0,0,15,15,57,1,stimuli/stim_20210706_power2amp/equal_lnn_AM3.6Hz_s35_3.m4a,,,,,,,,,,,,
,,,,,,,,,,,,41629,2021-09-26_14h59.10.275,judgeSpeechMusic_20210921_logNormShiftAmp_detection_fixS,2020.1.2,MacIntel,60,,,,,,,,,,,,,,,,,,1,5.6963,,0,0,16,16,71,1,stimuli/stim_20210706_power2amp/equal_lnn_AM4.2Hz_s35_47.m4a,,,,,,,,,,,,
,,,,,,,,,,,,41629,2021-09-26_14h59.10.275,judgeSpeechMusic_20210921_logNormShiftAmp_detection_fixS,2020.1.2,MacIntel,60,,,,,,,,,,,,,,,,,,1,5.6845,,0,0,17,17,52,1,stimuli/stim_20210706_power2amp/equal_lnn_AM3.6Hz_s35_33.m4a,,,,,,,,,,,,
,,,,,,,,,,,,41629,2021-09-26_14h59.10.275,judgeSpeechMusic_20210921_logNormShiftAmp_detection_fixS,2020.1.2,MacIntel,60,,,,,,,,,,,,,,,,,,1,5.8917,,0,0,18,18,68,1,stimuli/stim_20210706_power2amp/equal_lnn_AM4.2Hz_s35_14.m4a,,,,,,,,,,,,
,,,,,,,,,,,,41629,2021-09-26_14h59.10.275,judgeSpeechMusic_20210921_logNormShiftAmp_detection_fixS,2020.1.2,MacIntel,60,,,,,,,,,,,,,,,,,,1,5.7217,,0,0,19,19,19,1,stimuli/stim_20210706_power2amp/equal_lnn_AM1.2Hz_s35_48.m4a,,,,,,,,,,,,
,,,,,,,,,,,,41629,2021-09-26_14h59.10.275,judgeSpeechMusic_20210921_logNormShiftAmp_detection_fixS,2020.1.2,MacIntel,60,,,,,,,,,,,,,,,,,,1,6.2586,3,1,0,20,20,66,1,stimuli/stim_20210706_power2amp/equal_lnn_AM4.2Hz_s35_12.m4a,1.3127,,,,,,,,,,,
,,,,,,,,,,,,41629,2021-09-26_14h59.10.275,judgeSpeechMusic_20210921_logNormShiftAmp_detection_fixS,2020.1.2,MacIntel,60,,,,,,,,,,,,,,,,,,1,6.2875,,0,0,21,21,69,1,stimuli/stim_20210706_power2amp/equal_lnn_AM4.2Hz_s35_50.m4a,,,,,,,,,,,,
,,,,,,,,,,,,41629,2021-09-26_14h59.10.275,judgeSpeechMusic_20210921_logNormShiftAmp_detection_fixS,2020.1.2,MacIntel,60,,,,,,,,,,,,,,,,,,1,5.8784,,0,0,22,22,18,1,stimuli/stim_20210706_power2amp/equal_lnn_AM1.2Hz_s35_45.m4a,,,,,,,,,,,,
,,,,,,,,,,,,41629,2021-09-26_14h59.10.275,judgeSpeechMusic_20210921_logNormShiftAmp_detection_fixS,2020.1.2,MacIntel,60,,,,,,,,,,,,,,,,,,1,5.6566,,0,0,23,23,27,1,stimuli/stim_20210706_power2amp/equal_lnn_AM1.2Hz_s35_38.m4a,,,,,,,,,,,,
,,,,,,,,,,,,41629,2021-09-26_14h59.10.275,judgeSpeechMusic_20210921_logNormShiftAmp_detection_fixS,2020.1.2,MacIntel,60,,,,,,,,,,,,,,,,,,1,5.6592,,0,0,24,24,12,1,stimuli/stim_20210706_power2amp/equal_lnn_AM0.6Hz_s35_50.m4a,,,,,,,,,,,,
,,,,,,,,,,,,41629,2021-09-26_14h59.10.275,judgeSpeechMusic_20210921_logNormShiftAmp_detection_fixS,2020.1.2,MacIntel,60,,,,,,,,,,,,,,,,,,1,5.7242,,0,0,25,25,53,1,stimuli/stim_20210706_power2amp/equal_lnn_AM3.6Hz_s35_50.m4a,,,,,,,,,,,,
,,,,,,,,,,,,41629,2021-09-26_14h59.10.275,judgeSpeechMusic_20210921_logNormShiftAmp_detection_fixS,2020.1.2,MacIntel,60,,,,,,,,,,,,,,,,,,1,5.7685,,0,0,26,26,10,1,stimuli/stim_20210706_power2amp/equal_lnn_AM0.6Hz_s35_10.m4a,,,,,,,,,,,,
,,,,,,,,,,,,41629,2021-09-26_14h59.10.275,judgeSpeechMusic_20210921_logNormShiftAmp_detection_fixS,2020.1.2,MacIntel,60,,,,,,,,,,,,,,,,,,1,5.6766,,0,0,27,27,1,1,stimuli/stim_20210706_power2amp/equal_lnn_AM0.6Hz_s35_43.m4a,,,,,,,,,,,,
,,,,,,,,,,,,41629,2021-09-26_14h59.10.275,judgeSpeechMusic_20210921_logNormShiftAmp_detection_fixS,2020.1.2,MacIntel,60,,,,,,,,,,,,,,,,,,1,5.758,,0,0,28,28,48,1,stimuli/stim_20210706_power2amp/equal_lnn_AM3.6Hz_s35_24.m4a,,,,,,,,,,,,
,,,,,,,,,,,,41629,2021-09-26_14h59.10.275,judgeSpeechMusic_20210921_logNormShiftAmp_detection_fixS,2020.1.2,MacIntel,60,,,,,,,,,,,,,,,,,,1,5.6488,,0,0,29,29,35,1,stimuli/stim_20210706_power2amp/equal_lnn_AM2.4Hz_s35_45.m4a,,,,,,,,,,,,
,,,,,,,,,,,,41629,2021-09-26_14h59.10.275,judgeSpeechMusic_20210921_logNormShiftAmp_detection_fixS,2020.1.2,MacIntel,60,,,,,,,,,,,,,,,,,,1,5.7453,,0,0,30,30,8,1,stimuli/stim_20210706_power2amp/equal_lnn_AM0.6Hz_s35_4.m4a,,,,,,,,,,,,
,,,,,,,,,,,,41629,2021-09-26_14h59.10.275,judgeSpeechMusic_20210921_logNormShiftAmp_detection_fixS,2020.1.2,MacIntel,60,,,,,,,,,,,,,,,,,,1,5.8229,,0,0,31,31,24,1,stimuli/stim_20210706_power2amp/equal_lnn_AM1.2Hz_s35_5.m4a,,,,,,,,,,,,
,,,,,,,,,,,,41629,2021-09-26_14h59.10.275,judgeSpeechMusic_20210921_logNormShiftAmp_detection_fixS,2020.1.2,MacIntel,60,,,,,,,,,,,,,,,,,,1,5.7875,,0,0,32,32,60,1,stimuli/stim_20210706_power2amp/equal_lnn_AM4.2Hz_s35_37.m4a,,,,,,,,,,,,
,,,,,,,,,,,,41629,2021-09-26_14h59.10.275,judgeSpeechMusic_20210921_logNormShiftAmp_detection_fixS,2020.1.2,MacIntel,60,,,,,,,,,,,,,,,,,,1,5.8276,,0,0,33,33,73,1,stimuli/stim_20210706_power2amp/equal_lnn_AM4.2Hz_s35_32.m4a,,,,,,,,,,,,
,,,,,,,,,,,,41629,2021-09-26_14h59.10.275,judgeSpeechMusic_20210921_logNormShiftAmp_detection_fixS,2020.1.2,MacIntel,60,,,,,,,,,,,,,,,,,,1,5.7364,,0,0,34,34,62,1,stimuli/stim_20210706_power2amp/equal_lnn_AM4.2Hz_s35_41.m4a,,,,,,,,,,,,
,,,,,,,,,,,,41629,2021-09-26_14h59.10.275,judgeSpeechMusic_20210921_logNormShiftAmp_detection_fixS,2020.1.2,MacIntel,60,,,,,,,,,,,,,,,,,,1,5.7716,,0,0,35,35,13,1,stimuli/stim_20210706_power2amp/equal_lnn_AM0.6Hz_s35_48.m4a,,,,,,,,,,,,
,,,,,,,,,,,,41629,2021-09-26_14h59.10.275,judgeSpeechMusic_20210921_logNormShiftAmp_detection_fixS,2020.1.2,MacIntel,60,,,,,,,,,,,,,,,,,,1,5.6957,,0,0,36,36,61,1,stimuli/stim_20210706_power2amp/equal_lnn_AM4.2Hz_s35_5.m4a,,,,,,,,,,,,
,,,,,,,,,,,,41629,2021-09-26_14h59.10.275,judgeSpeechMusic_20210921_logNormShiftAmp_detection_fixS,2020.1.2,MacIntel,60,,,,,,,,,,,,,,,,,,1,5.6699,,0,0,37,37,36,1,stimuli/stim_20210706_power2amp/equal_lnn_AM2.4Hz_s35_32.m4a,,,,,,,,,,,,
,,,,,,,,,,,,41629,2021-09-26_14h59.10.275,judgeSpeechMusic_20210921_logNormShiftAmp_detection_fixS,2020.1.2,MacIntel,60,,,,,,,,,,,,,,,,,,1,5.6431,,0,0,38,38,64,1,stimuli/stim_20210706_power2amp/equal_lnn_AM4.2Hz_s35_31.m4a,,,,,,,,,,,,
,,,,,,,,,,,,41629,2021-09-26_14h59.10.275,judgeSpeechMusic_20210921_logNormShiftAmp_detection_fixS,2020.1.2,MacIntel,60,,,,,,,,,,,,,,,,,,1,5.6397,,0,0,39,39,49,1,stimuli/stim_20210706_power2amp/equal_lnn_AM3.6Hz_s35_26.m4a,,,,,,,,,,,,
,,,,,,,,,,,,41629,2021-09-26_14h59.10.275,judgeSpeechMusic_20210921_logNormShiftAmp_detection_fixS,2020.1.2,MacIntel,60,,,,,,,,,,,,,,,,,,1,5.6626,,0,0,40,40,54,1,stimuli/stim_20210706_power2amp/equal_lnn_AM3.6Hz_s35_40.m4a,,,,,,,,,,,,
,,,,,,,,,,,,41629,2021-09-26_14h59.10.275,judgeSpeechMusic_20210921_logNormShiftAmp_detection_fixS,2020.1.2,MacIntel,60,,,,,,,,,,,,,,,,,,1,5.7053,2,1,0,41,41,37,1,stimuli/stim_20210706_power2amp/equal_lnn_AM2.4Hz_s35_34.m4a,1.3629,,,,,,,,,,,
,,,,,,,,,,,,41629,2021-09-26_14h59.10.275,judgeSpeechMusic_20210921_logNormShiftAmp_detection_fixS,2020.1.2,MacIntel,60,,,,,,,,,,,,,,,,,,1,6.1773,,0,0,42,42,23,1,stimuli/stim_20210706_power2amp/equal_lnn_AM1.2Hz_s35_24.m4a,,,,,,,,,,,,
,,,,,,,,,,,,41629,2021-09-26_14h59.10.275,judgeSpeechMusic_20210921_logNormShiftAmp_detection_fixS,2020.1.2,MacIntel,60,,,,,,,,,,,,,,,,,,1,5.7377,,0,0,43,43,41,1,stimuli/stim_20210706_power2amp/equal_lnn_AM2.4Hz_s35_17.m4a,,,,,,,,,,,,
,,,,,,,,,,,,41629,2021-09-26_14h59.10.275,judgeSpeechMusic_20210921_logNormShiftAmp_detection_fixS,2020.1.2,MacIntel,60,,,,,,,,,,,,,,,,,,1,5.7032,,0,0,44,44,29,1,stimuli/stim_20210706_power2amp/equal_lnn_AM1.2Hz_s35_30.m4a,,,,,,,,,,,,
,,,,,,,,,,,,41629,2021-09-26_14h59.10.275,judgeSpeechMusic_20210921_logNormShiftAmp_detection_fixS,2020.1.2,MacIntel,60,,,,,,,,,,,,,,,,,,1,6.2406,,0,0,45,45,56,1,stimuli/stim_20210706_power2amp/equal_lnn_AM3.6Hz_s35_22.m4a,,,,,,,,,,,,
,,,,,,,,,,,,41629,2021-09-26_14h59.10.275,judgeSpeechMusic_20210921_logNormShiftAmp_detection_fixS,2020.1.2,MacIntel,60,,,,,,,,,,,,,,,,,,1,6.3411,,0,0,46,46,46,1,stimuli/stim_20210706_power2amp/equal_lnn_AM3.6Hz_s35_46.m4a,,,,,,,,,,,,
,,,,,,,,,,,,41629,2021-09-26_14h59.10.275,judgeSpeechMusic_20210921_logNormShiftAmp_detection_fixS,2020.1.2,MacIntel,60,,,,,,,,,,,,,,,,,,1,6.1562,,0,0,47,47,9,1,stimuli/stim_20210706_power2amp/equal_lnn_AM0.6Hz_s35_32.m4a,,,,,,,,,,,,
,,,,,,,,,,,,41629,2021-09-26_14h59.10.275,judgeSpeechMusic_20210921_logNormShiftAmp_detection_fixS,2020.1.2,MacIntel,60,,,,,,,,,,,,,,,,,,1,6.1768,,0,0,48,48,26,1,stimuli/stim_20210706_power2amp/equal_lnn_AM1.2Hz_s35_3.m4a,,,,,,,,,,,,
,,,,,,,,,,,,41629,2021-09-26_14h59.10.275,judgeSpeechMusic_20210921_logNormShiftAmp_detection_fixS,2020.1.2,MacIntel,60,,,,,,,,,,,,,,,,,,1,6.1539,,0,0,49,49,34,1,stimuli/stim_20210706_power2amp/equal_lnn_AM2.4Hz_s35_35.m4a,,,,,,,,,,,,
,,,,,,,,,,,,41629,2021-09-26_14h59.10.275,judgeSpeechMusic_20210921_logNormShiftAmp_detection_fixS,2020.1.2,MacIntel,60,,,,,,,,,,,,,,,,,,1,6.5859,,0,0,50,50,20,1,stimuli/stim_20210706_power2amp/equal_lnn_AM1.2Hz_s35_33.m4a,,,,,,,,,,,,
,,,,,,,,,,,,41629,2021-09-26_14h59.10.275,judgeSpeechMusic_20210921_logNormShiftAmp_detection_fixS,2020.1.2,MacIntel,60,,,,,,,,,,,,,,,,,,1,6.275,,0,0,51,51,55,1,stimuli/stim_20210706_power2amp/equal_lnn_AM3.6Hz_s35_18.m4a,,,,,,,,,,,,
,,,,,,,,,,,,41629,2021-09-26_14h59.10.275,judgeSpeechMusic_20210921_logNormShiftAmp_detection_fixS,2020.1.2,MacIntel,60,,,,,,,,,,,,,,,,,,1,7.3918,,0,0,52,52,21,1,stimuli/stim_20210706_power2amp/equal_lnn_AM1.2Hz_s35_1.m4a,,,,,,,,,,,,
,,,,,,,,,,,,41629,2021-09-26_14h59.10.275,judgeSpeechMusic_20210921_logNormShiftAmp_detection_fixS,2020.1.2,MacIntel,60,,,,,,,,,,,,,,,,,,1,6.1599,,0,0,53,53,31,1,stimuli/stim_20210706_power2amp/equal_lnn_AM2.4Hz_s35_19.m4a,,,,,,,,,,,,
,,,,,,,,,,,,41629,2021-09-26_14h59.10.275,judgeSpeechMusic_20210921_logNormShiftAmp_detection_fixS,2020.1.2,MacIntel,60,,,,,,,,,,,,,,,,,,1,5.7687,,0,0,54,54,74,1,stimuli/stim_20210706_power2amp/equal_lnn_AM4.2Hz_s35_44.m4a,,,,,,,,,,,,
,,,,,,,,,,,,41629,2021-09-26_14h59.10.275,judgeSpeechMusic_20210921_logNormShiftAmp_detection_fixS,2020.1.2,MacIntel,60,,,,,,,,,,,,,,,,,,1,5.9969,,0,0,55,55,59,1,stimuli/stim_20210706_power2amp/equal_lnn_AM3.6Hz_s35_9.m4a,,,,,,,,,,,,
,,,,,,,,,,,,41629,2021-09-26_14h59.10.275,judgeSpeechMusic_20210921_logNormShiftAmp_detection_fixS,2020.1.2,MacIntel,60,,,,,,,,,,,,,,,,,,1,6.2894,,0,0,56,56,6,1,stimuli/stim_20210706_power2amp/equal_lnn_AM0.6Hz_s35_27.m4a,,,,,,,,,,,,
,,,,,,,,,,,,41629,2021-09-26_14h59.10.275,judgeSpeechMusic_20210921_logNormShiftAmp_detection_fixS,2020.1.2,MacIntel,60,,,,,,,,,,,,,,,,,,1,6.7261,,0,0,57,57,33,1,stimuli/stim_20210706_power2amp/equal_lnn_AM2.4Hz_s35_10.m4a,,,,,,,,,,,,
,,,,,,,,,,,,41629,2021-09-26_14h59.10.275,judgeSpeechMusic_20210921_logNormShiftAmp_detection_fixS,2020.1.2,MacIntel,60,,,,,,,,,,,,,,,,,,1,6.0255,,0,0,58,58,22,1,stimuli/stim_20210706_power2amp/equal_lnn_AM1.2Hz_s35_32.m4a,,,,,,,,,,,,
,,,,,,,,,,,,41629,2021-09-26_14h59.10.275,judgeSpeechMusic_20210921_logNormShiftAmp_detection_fixS,2020.1.2,MacIntel,60,,,,,,,,,,,,,,,,,,1,6.0407,,0,0,59,59,15,1,stimuli/stim_20210706_power2amp/equal_lnn_AM1.2Hz_s35_2.m4a,,,,,,,,,,,,
,,,,,,,,,,,,41629,2021-09-26_14h59.10.275,judgeSpeechMusic_20210921_logNormShiftAmp_detection_fixS,2020.1.2,MacIntel,60,,,,,,,,,,,,,,,,,,1,5.7791,,0,0,60,60,4,1,stimuli/stim_20210706_power2amp/equal_lnn_AM0.6Hz_s35_24.m4a,,,,,,,,,,,,
,,,,,,,,,,,,41629,2021-09-26_14h59.10.275,judgeSpeechMusic_20210921_logNormShiftAmp_detection_fixS,2020.1.2,MacIntel,60,,,,,,,,,,,,,,,,,,1,6.1855,2,1,0,61,61,0,1,stimuli/stim_20210706_power2amp/equal_lnn_AM0.6Hz_s35_30.m4a,1.5481,,,,,,,,,,,
,,,,,,,,,,,,41629,2021-09-26_14h59.10.275,judgeSpeechMusic_20210921_logNormShiftAmp_detection_fixS,2020.1.2,MacIntel,60,,,,,,,,,,,,,,,,,,1,6.2568,,0,0,62,62,16,1,stimuli/stim_20210706_power2amp/equal_lnn_AM1.2Hz_s35_27.m4a,,,,,,,,,,,,
,,,,,,,,,,,,41629,2021-09-26_14h59.10.275,judgeSpeechMusic_20210921_logNormShiftAmp_detection_fixS,2020.1.2,MacIntel,60,,,,,,,,,,,,,,,,,,1,5.9926,,0,0,63,63,51,1,stimuli/stim_20210706_power2amp/equal_lnn_AM3.6Hz_s35_14.m4a,,,,,,,,,,,,
,,,,,,,,,,,,41629,2021-09-26_14h59.10.275,judgeSpeechMusic_20210921_logNormShiftAmp_detection_fixS,2020.1.2,MacIntel,60,,,,,,,,,,,,,,,,,,1,6.1227,,0,0,64,64,42,1,stimuli/stim_20210706_power2amp/equal_lnn_AM2.4Hz_s35_4.m4a,,,,,,,,,,,,
,,,,,,,,,,,,41629,2021-09-26_14h59.10.275,judgeSpeechMusic_20210921_logNormShiftAmp_detection_fixS,2020.1.2,MacIntel,60,,,,,,,,,,,,,,,,,,1,5.9902,,0,0,65,65,47,1,stimuli/stim_20210706_power2amp/equal_lnn_AM3.6Hz_s35_42.m4a,,,,,,,,,,,,
,,,,,,,,,,,,41629,2021-09-26_14h59.10.275,judgeSpeechMusic_20210921_logNormShiftAmp_detection_fixS,2020.1.2,MacIntel,60,,,,,,,,,,,,,,,,,,1,6.059,,0,0,66,66,7,1,stimuli/stim_20210706_power2amp/equal_lnn_AM0.6Hz_s35_3.m4a,,,,,,,,,,,,
,,,,,,,,,,,,41629,2021-09-26_14h59.10.275,judgeSpeechMusic_20210921_logNormShiftAmp_detection_fixS,2020.1.2,MacIntel,60,,,,,,,,,,,,,,,,,,1,5.7949,,0,0,67,67,39,1,stimuli/stim_20210706_power2amp/equal_lnn_AM2.4Hz_s35_7.m4a,,,,,,,,,,,,
,,,,,,,,,,,,41629,2021-09-26_14h59.10.275,judgeSpeechMusic_20210921_logNormShiftAmp_detection_fixS,2020.1.2,MacIntel,60,,,,,,,,,,,,,,,,,,1,6.1396,,0,0,68,68,63,1,stimuli/stim_20210706_power2amp/equal_lnn_AM4.2Hz_s35_35.m4a,,,,,,,,,,,,
,,,,,,,,,,,,41629,2021-09-26_14h59.10.275,judgeSpeechMusic_20210921_logNormShiftAmp_detection_fixS,2020.1.2,MacIntel,60,,,,,,,,,,,,,,,,,,1,5.7717,,0,0,69,69,67,1,stimuli/stim_20210706_power2amp/equal_lnn_AM4.2Hz_s35_25.m4a,,,,,,,,,,,,
,,,,,,,,,,,,41629,2021-09-26_14h59.10.275,judgeSpeechMusic_20210921_logNormShiftAmp_detection_fixS,2020.1.2,MacIntel,60,,,,,,,,,,,,,,,,,,1,6.3045,,0,0,70,70,14,1,stimuli/stim_20210706_power2amp/equal_lnn_AM0.6Hz_s35_34.m4a,,,,,,,,,,,,
,,,,,,,,,,,,41629,2021-09-26_14h59.10.275,judgeSpeechMusic_20210921_logNormShiftAmp_detection_fixS,2020.1.2,MacIntel,60,,,,,,,,,,,,,,,,,,1,5.8791,,0,0,71,71,5,1,stimuli/stim_20210706_power2amp/equal_lnn_AM0.6Hz_s35_8.m4a,,,,,,,,,,,,
,,,,,,,,,,,,41629,2021-09-26_14h59.10.275,judgeSpeechMusic_20210921_logNormShiftAmp_detection_fixS,2020.1.2,MacIntel,60,,,,,,,,,,,,,,,,,,1,5.985,,0,0,72,72,38,1,stimuli/stim_20210706_power2amp/equal_lnn_AM2.4Hz_s35_11.m4a,,,,,,,,,,,,
,,,,,,,,,,,,41629,2021-09-26_14h59.10.275,judgeSpeechMusic_20210921_logNormShiftAmp_detection_fixS,2020.1.2,MacIntel,60,,,,,,,,,,,,,,,,,,1,6.1256,,0,0,73,73,65,1,stimuli/stim_20210706_power2amp/equal_lnn_AM4.2Hz_s35_11.m4a,,,,,,,,,,,,
,,,,,,,,,,,,41629,2021-09-26_14h59.10.275,judgeSpeechMusic_20210921_logNormShiftAmp_detection_fixS,2020.1.2,MacIntel,60,,,,,,,,,,,,,,,,,,1,5.8761,,0,0,74,74,43,1,stimuli/stim_20210706_power2amp/equal_lnn_AM2.4Hz_s35_9.m4a,,,,,,,,,,,,
,,,,,,,,,,,,41629,2021-09-26_14h59.10.275,judgeSpeechMusic_20210921_logNormShiftAmp_detection_fixS,2020.1.2,MacIntel,60,,,,,,,,,,,,,,,,,,,,,,,,,,,,,,,1,1,3,1,1,SPEECH,stimuli/SPEECH.jpg,,
,,,,,,,,,,,,41629,2021-09-26_14h59.10.275,judgeSpeechMusic_20210921_logNormShiftAmp_detection_fixS,2020.1.2,MacIntel,60,,,,,,,,,,,,,,,,,,,,,,,,,,,,,,,,,,,,,,space,7.2818
