volAdjustRep.thisRepN,volAdjustRep.thisTrialN,volAdjustRep.thisN,volAdjustRep.thisIndex,volAdjustRep.ran,participant,date,expName,psychopyVersion,OS,frameRate,headphoneResponse.keys,headphoneResponse.corr,headphoneResponse.rt,headphoneTrial.thisRepN,headphoneTrial.thisTrialN,headphoneTrial.thisN,headphoneTrial.thisIndex,headphoneTrial.ran,headphone_sound1,headphone_sound2,headphone_sound3,corrAns,checkInstruKey.keys,checkInstruKey.rt,trainSlider.response,trainSlider.rt,beepTrainResponse.keys,beepTrainResponse.corr,trainingTrials.thisRepN,trainingTrials.thisTrialN,trainingTrials.thisN,trainingTrials.thisIndex,trainingTrials.ran,trainAudioFile,beepTrainResponse.rt,readyReal_resp.keys,readyReal_resp.rt,checkInstru2_key.keys,checkInstru2_key.rt,ratingSlider.response,ratingSlider.rt,beepResp.keys,beepResp.corr,expTrials.thisRepN,expTrials.thisTrialN,expTrials.thisN,expTrials.thisIndex,expTrials.ran,audioFile,beepResp.rt,switchBlock_space.keys,switchBlock_space.rt,block.thisRepN,block.thisTrialN,block.thisN,block.thisIndex,block.ran,blockName,blockImage,end_resp.keys,end_resp.rt
0,0,0,0,1,41646,2021-09-26_14h42.02.711,judgeSpeechMusic_20210921_logNormShiftAmp_detection_fixS,2020.1.2,MacIntel,60,,,,,,,,,,,,,,,,,,,,,,,,,,,,,,,,,,,,,,,,,,,,,,,,,,,
,,,,,41646,2021-09-26_14h42.02.711,judgeSpeechMusic_20210921_logNormShiftAmp_detection_fixS,2020.1.2,MacIntel,60,1,1,1.996,0,0,0,4,1,stimuli/screen_quiet.wav,stimuli/screen_antiphase.wav,stimuli/screen_origin.wav,1,,,,,,,,,,,,,,,,,,,,,,,,,,,,,,,,,,,,,,,
,,,,,41646,2021-09-26_14h42.02.711,judgeSpeechMusic_20210921_logNormShiftAmp_detection_fixS,2020.1.2,MacIntel,60,1,1,3.1,0,1,1,5,1,stimuli/screen_quiet.wav,stimuli/screen_origin.wav,stimuli/screen_antiphase.wav,1,,,,,,,,,,,,,,,,,,,,,,,,,,,,,,,,,,,,,,,
,,,,,41646,2021-09-26_14h42.02.711,judgeSpeechMusic_20210921_logNormShiftAmp_detection_fixS,2020.1.2,MacIntel,60,3,1,0.5334,0,2,2,0,1,stimuli/screen_antiphase.wav,stimuli/screen_origin.wav,stimuli/screen_quiet.wav,3,,,,,,,,,,,,,,,,,,,,,,,,,,,,,,,,,,,,,,,
,,,,,41646,2021-09-26_14h42.02.711,judgeSpeechMusic_20210921_logNormShiftAmp_detection_fixS,2020.1.2,MacIntel,60,2,1,0.7501,0,3,3,1,1,stimuli/screen_antiphase.wav,stimuli/screen_quiet.wav,stimuli/screen_origin.wav,2,,,,,,,,,,,,,,,,,,,,,,,,,,,,,,,,,,,,,,,
,,,,,41646,2021-09-26_14h42.02.711,judgeSpeechMusic_20210921_logNormShiftAmp_detection_fixS,2020.1.2,MacIntel,60,3,1,0.67,0,4,4,2,1,stimuli/screen_origin.wav,stimuli/screen_antiphase.wav,stimuli/screen_quiet.wav,3,,,,,,,,,,,,,,,,,,,,,,,,,,,,,,,,,,,,,,,
,,,,,41646,2021-09-26_14h42.02.711,judgeSpeechMusic_20210921_logNormShiftAmp_detection_fixS,2020.1.2,MacIntel,60,2,1,0.5396,0,5,5,3,1,stimuli/screen_origin.wav,stimuli/screen_quiet.wav,stimuli/screen_antiphase.wav,2,,,,,,,,,,,,,,,,,,,,,,,,,,,,,,,,,,,,,,,
,,,,,41646,2021-09-26_14h42.02.711,judgeSpeechMusic_20210921_logNormShiftAmp_detection_fixS,2020.1.2,MacIntel,60,,,,,,,,,,,,,space,1.2027,1,10.7598,,0,0,0,0,0,1,stimuli/stim_20210706_power2amp/equal_lnn_AM_training0.9Hz_s35.m4a,,,,,,,,,,,,,,,,,,,,,,,,,,,
,,,,,41646,2021-09-26_14h42.02.711,judgeSpeechMusic_20210921_logNormShiftAmp_detection_fixS,2020.1.2,MacIntel,60,,,,,,,,,,,,,,,2,6.4763,,0,0,1,1,1,1,stimuli/stim_20210706_power2amp/equal_lnn_AM_training1.8Hz_s35.m4a,,,,,,,,,,,,,,,,,,,,,,,,,,,
,,,,,41646,2021-09-26_14h42.02.711,judgeSpeechMusic_20210921_logNormShiftAmp_detection_fixS,2020.1.2,MacIntel,60,,,,,,,,,,,,,,,2,6.3273,2,1,0,2,2,3,1,stimuli/stim_20210706_power2amp/equal_lnn_AM_training3.9Hz_s35.m4a,1.0084,,,,,,,,,,,,,,,,,,,,,,,,,,
,,,,,41646,2021-09-26_14h42.02.711,judgeSpeechMusic_20210921_logNormShiftAmp_detection_fixS,2020.1.2,MacIntel,60,,,,,,,,,,,,,,,1,8.5567,,0,0,3,3,2,1,stimuli/stim_20210706_power2amp/equal_lnn_AM_training3Hz_s35.m4a,,,,,,,,,,,,,,,,,,,,,,,,,,,
,,,,,41646,2021-09-26_14h42.02.711,judgeSpeechMusic_20210921_logNormShiftAmp_detection_fixS,2020.1.2,MacIntel,60,,,,,,,,,,,,,,,,,,,,,,,,,,space,3.6808,space,0.9508,2,7.3646,,0,0,0,0,70,1,stimuli/stim_20210706_power2amp/equal_lnn_AM4.2Hz_s35_10.m4a,,,,,,,,,,,,
,,,,,41646,2021-09-26_14h42.02.711,judgeSpeechMusic_20210921_logNormShiftAmp_detection_fixS,2020.1.2,MacIntel,60,,,,,,,,,,,,,,,,,,,,,,,,,,,,,,1,6.0087,,0,0,1,1,21,1,stimuli/stim_20210706_power2amp/equal_lnn_AM1.2Hz_s35_10.m4a,,,,,,,,,,,,
,,,,,41646,2021-09-26_14h42.02.711,judgeSpeechMusic_20210921_logNormShiftAmp_detection_fixS,2020.1.2,MacIntel,60,,,,,,,,,,,,,,,,,,,,,,,,,,,,,,2,7.1566,,0,0,2,2,67,1,stimuli/stim_20210706_power2amp/equal_lnn_AM4.2Hz_s35_33.m4a,,,,,,,,,,,,
,,,,,41646,2021-09-26_14h42.02.711,judgeSpeechMusic_20210921_logNormShiftAmp_detection_fixS,2020.1.2,MacIntel,60,,,,,,,,,,,,,,,,,,,,,,,,,,,,,,1,7.7253,,0,0,3,3,53,1,stimuli/stim_20210706_power2amp/equal_lnn_AM3.6Hz_s35_22.m4a,,,,,,,,,,,,
,,,,,41646,2021-09-26_14h42.02.711,judgeSpeechMusic_20210921_logNormShiftAmp_detection_fixS,2020.1.2,MacIntel,60,,,,,,,,,,,,,,,,,,,,,,,,,,,,,,2,6.34,,0,0,4,4,36,1,stimuli/stim_20210706_power2amp/equal_lnn_AM2.4Hz_s35_37.m4a,,,,,,,,,,,,
,,,,,41646,2021-09-26_14h42.02.711,judgeSpeechMusic_20210921_logNormShiftAmp_detection_fixS,2020.1.2,MacIntel,60,,,,,,,,,,,,,,,,,,,,,,,,,,,,,,1,6.2398,,0,0,5,5,22,1,stimuli/stim_20210706_power2amp/equal_lnn_AM1.2Hz_s35_19.m4a,,,,,,,,,,,,
,,,,,41646,2021-09-26_14h42.02.711,judgeSpeechMusic_20210921_logNormShiftAmp_detection_fixS,2020.1.2,MacIntel,60,,,,,,,,,,,,,,,,,,,,,,,,,,,,,,1,6.6611,,0,0,6,6,29,1,stimuli/stim_20210706_power2amp/equal_lnn_AM1.2Hz_s35_47.m4a,,,,,,,,,,,,
,,,,,41646,2021-09-26_14h42.02.711,judgeSpeechMusic_20210921_logNormShiftAmp_detection_fixS,2020.1.2,MacIntel,60,,,,,,,,,,,,,,,,,,,,,,,,,,,,,,2,6.8136,,0,0,7,7,18,1,stimuli/stim_20210706_power2amp/equal_lnn_AM1.2Hz_s35_39.m4a,,,,,,,,,,,,
,,,,,41646,2021-09-26_14h42.02.711,judgeSpeechMusic_20210921_logNormShiftAmp_detection_fixS,2020.1.2,MacIntel,60,,,,,,,,,,,,,,,,,,,,,,,,,,,,,,1,6.5264,,0,0,8,8,48,1,stimuli/stim_20210706_power2amp/equal_lnn_AM3.6Hz_s35_15.m4a,,,,,,,,,,,,
,,,,,41646,2021-09-26_14h42.02.711,judgeSpeechMusic_20210921_logNormShiftAmp_detection_fixS,2020.1.2,MacIntel,60,,,,,,,,,,,,,,,,,,,,,,,,,,,,,,2,5.9765,,0,0,9,9,27,1,stimuli/stim_20210706_power2amp/equal_lnn_AM1.2Hz_s35_38.m4a,,,,,,,,,,,,
,,,,,41646,2021-09-26_14h42.02.711,judgeSpeechMusic_20210921_logNormShiftAmp_detection_fixS,2020.1.2,MacIntel,60,,,,,,,,,,,,,,,,,,,,,,,,,,,,,,1,6.1092,,0,0,10,10,1,1,stimuli/stim_20210706_power2amp/equal_lnn_AM0.6Hz_s35_45.m4a,,,,,,,,,,,,
,,,,,41646,2021-09-26_14h42.02.711,judgeSpeechMusic_20210921_logNormShiftAmp_detection_fixS,2020.1.2,MacIntel,60,,,,,,,,,,,,,,,,,,,,,,,,,,,,,,2,5.8912,,0,0,11,11,72,1,stimuli/stim_20210706_power2amp/equal_lnn_AM4.2Hz_s35_24.m4a,,,,,,,,,,,,
,,,,,41646,2021-09-26_14h42.02.711,judgeSpeechMusic_20210921_logNormShiftAmp_detection_fixS,2020.1.2,MacIntel,60,,,,,,,,,,,,,,,,,,,,,,,,,,,,,,2,5.9086,,0,0,12,12,40,1,stimuli/stim_20210706_power2amp/equal_lnn_AM2.4Hz_s35_24.m4a,,,,,,,,,,,,
,,,,,41646,2021-09-26_14h42.02.711,judgeSpeechMusic_20210921_logNormShiftAmp_detection_fixS,2020.1.2,MacIntel,60,,,,,,,,,,,,,,,,,,,,,,,,,,,,,,1,5.9424,,0,0,13,13,8,1,stimuli/stim_20210706_power2amp/equal_lnn_AM0.6Hz_s35_1.m4a,,,,,,,,,,,,
,,,,,41646,2021-09-26_14h42.02.711,judgeSpeechMusic_20210921_logNormShiftAmp_detection_fixS,2020.1.2,MacIntel,60,,,,,,,,,,,,,,,,,,,,,,,,,,,,,,2,5.8431,,0,0,14,14,62,1,stimuli/stim_20210706_power2amp/equal_lnn_AM4.2Hz_s35_49.m4a,,,,,,,,,,,,
,,,,,41646,2021-09-26_14h42.02.711,judgeSpeechMusic_20210921_logNormShiftAmp_detection_fixS,2020.1.2,MacIntel,60,,,,,,,,,,,,,,,,,,,,,,,,,,,,,,1,5.9942,,0,0,15,15,44,1,stimuli/stim_20210706_power2amp/equal_lnn_AM2.4Hz_s35_7.m4a,,,,,,,,,,,,
,,,,,41646,2021-09-26_14h42.02.711,judgeSpeechMusic_20210921_logNormShiftAmp_detection_fixS,2020.1.2,MacIntel,60,,,,,,,,,,,,,,,,,,,,,,,,,,,,,,2,6.0398,,0,0,16,16,32,1,stimuli/stim_20210706_power2amp/equal_lnn_AM2.4Hz_s35_17.m4a,,,,,,,,,,,,
,,,,,41646,2021-09-26_14h42.02.711,judgeSpeechMusic_20210921_logNormShiftAmp_detection_fixS,2020.1.2,MacIntel,60,,,,,,,,,,,,,,,,,,,,,,,,,,,,,,2,6.6603,,0,0,17,17,46,1,stimuli/stim_20210706_power2amp/equal_lnn_AM3.6Hz_s35_5.m4a,,,,,,,,,,,,
,,,,,41646,2021-09-26_14h42.02.711,judgeSpeechMusic_20210921_logNormShiftAmp_detection_fixS,2020.1.2,MacIntel,60,,,,,,,,,,,,,,,,,,,,,,,,,,,,,,1,6.9281,,0,0,18,18,63,1,stimuli/stim_20210706_power2amp/equal_lnn_AM4.2Hz_s35_2.m4a,,,,,,,,,,,,
,,,,,41646,2021-09-26_14h42.02.711,judgeSpeechMusic_20210921_logNormShiftAmp_detection_fixS,2020.1.2,MacIntel,60,,,,,,,,,,,,,,,,,,,,,,,,,,,,,,2,6.2066,,0,0,19,19,25,1,stimuli/stim_20210706_power2amp/equal_lnn_AM1.2Hz_s35_31.m4a,,,,,,,,,,,,
,,,,,41646,2021-09-26_14h42.02.711,judgeSpeechMusic_20210921_logNormShiftAmp_detection_fixS,2020.1.2,MacIntel,60,,,,,,,,,,,,,,,,,,,,,,,,,,,,,,1,8.0296,,0,0,20,20,24,1,stimuli/stim_20210706_power2amp/equal_lnn_AM1.2Hz_s35_40.m4a,,,,,,,,,,,,
,,,,,41646,2021-09-26_14h42.02.711,judgeSpeechMusic_20210921_logNormShiftAmp_detection_fixS,2020.1.2,MacIntel,60,,,,,,,,,,,,,,,,,,,,,,,,,,,,,,1,6.3769,,0,0,21,21,68,1,stimuli/stim_20210706_power2amp/equal_lnn_AM4.2Hz_s35_14.m4a,,,,,,,,,,,,
,,,,,41646,2021-09-26_14h42.02.711,judgeSpeechMusic_20210921_logNormShiftAmp_detection_fixS,2020.1.2,MacIntel,60,,,,,,,,,,,,,,,,,,,,,,,,,,,,,,2,5.8874,3,1,0,22,22,52,1,stimuli/stim_20210706_power2amp/equal_lnn_AM3.6Hz_s35_24.m4a,1.3917,,,,,,,,,,,
,,,,,41646,2021-09-26_14h42.02.711,judgeSpeechMusic_20210921_logNormShiftAmp_detection_fixS,2020.1.2,MacIntel,60,,,,,,,,,,,,,,,,,,,,,,,,,,,,,,1,5.992,,0,0,23,23,23,1,stimuli/stim_20210706_power2amp/equal_lnn_AM1.2Hz_s35_43.m4a,,,,,,,,,,,,
,,,,,41646,2021-09-26_14h42.02.711,judgeSpeechMusic_20210921_logNormShiftAmp_detection_fixS,2020.1.2,MacIntel,60,,,,,,,,,,,,,,,,,,,,,,,,,,,,,,2,6.1589,,0,0,24,24,54,1,stimuli/stim_20210706_power2amp/equal_lnn_AM3.6Hz_s35_10.m4a,,,,,,,,,,,,
,,,,,41646,2021-09-26_14h42.02.711,judgeSpeechMusic_20210921_logNormShiftAmp_detection_fixS,2020.1.2,MacIntel,60,,,,,,,,,,,,,,,,,,,,,,,,,,,,,,1,8.1306,,0,0,25,25,7,1,stimuli/stim_20210706_power2amp/equal_lnn_AM0.6Hz_s35_32.m4a,,,,,,,,,,,,
,,,,,41646,2021-09-26_14h42.02.711,judgeSpeechMusic_20210921_logNormShiftAmp_detection_fixS,2020.1.2,MacIntel,60,,,,,,,,,,,,,,,,,,,,,,,,,,,,,,2,6.6559,,0,0,26,26,60,1,stimuli/stim_20210706_power2amp/equal_lnn_AM4.2Hz_s35_4.m4a,,,,,,,,,,,,
,,,,,41646,2021-09-26_14h42.02.711,judgeSpeechMusic_20210921_logNormShiftAmp_detection_fixS,2020.1.2,MacIntel,60,,,,,,,,,,,,,,,,,,,,,,,,,,,,,,1,6.2275,,0,0,27,27,26,1,stimuli/stim_20210706_power2amp/equal_lnn_AM1.2Hz_s35_8.m4a,,,,,,,,,,,,
,,,,,41646,2021-09-26_14h42.02.711,judgeSpeechMusic_20210921_logNormShiftAmp_detection_fixS,2020.1.2,MacIntel,60,,,,,,,,,,,,,,,,,,,,,,,,,,,,,,2,5.8758,,0,0,28,28,59,1,stimuli/stim_20210706_power2amp/equal_lnn_AM3.6Hz_s35_46.m4a,,,,,,,,,,,,
,,,,,41646,2021-09-26_14h42.02.711,judgeSpeechMusic_20210921_logNormShiftAmp_detection_fixS,2020.1.2,MacIntel,60,,,,,,,,,,,,,,,,,,,,,,,,,,,,,,2,5.99,,0,0,29,29,45,1,stimuli/stim_20210706_power2amp/equal_lnn_AM3.6Hz_s35_33.m4a,,,,,,,,,,,,
,,,,,41646,2021-09-26_14h42.02.711,judgeSpeechMusic_20210921_logNormShiftAmp_detection_fixS,2020.1.2,MacIntel,60,,,,,,,,,,,,,,,,,,,,,,,,,,,,,,2,6.0244,,0,0,30,30,58,1,stimuli/stim_20210706_power2amp/equal_lnn_AM3.6Hz_s35_17.m4a,,,,,,,,,,,,
,,,,,41646,2021-09-26_14h42.02.711,judgeSpeechMusic_20210921_logNormShiftAmp_detection_fixS,2020.1.2,MacIntel,60,,,,,,,,,,,,,,,,,,,,,,,,,,,,,,2,6.3933,,0,0,31,31,64,1,stimuli/stim_20210706_power2amp/equal_lnn_AM4.2Hz_s35_9.m4a,,,,,,,,,,,,
,,,,,41646,2021-09-26_14h42.02.711,judgeSpeechMusic_20210921_logNormShiftAmp_detection_fixS,2020.1.2,MacIntel,60,,,,,,,,,,,,,,,,,,,,,,,,,,,,,,2,5.8062,,0,0,32,32,74,1,stimuli/stim_20210706_power2amp/equal_lnn_AM4.2Hz_s35_36.m4a,,,,,,,,,,,,
,,,,,41646,2021-09-26_14h42.02.711,judgeSpeechMusic_20210921_logNormShiftAmp_detection_fixS,2020.1.2,MacIntel,60,,,,,,,,,,,,,,,,,,,,,,,,,,,,,,1,6.2224,,0,0,33,33,30,1,stimuli/stim_20210706_power2amp/equal_lnn_AM2.4Hz_s35_25.m4a,,,,,,,,,,,,
,,,,,41646,2021-09-26_14h42.02.711,judgeSpeechMusic_20210921_logNormShiftAmp_detection_fixS,2020.1.2,MacIntel,60,,,,,,,,,,,,,,,,,,,,,,,,,,,,,,1,6.1801,,0,0,34,34,15,1,stimuli/stim_20210706_power2amp/equal_lnn_AM1.2Hz_s35_26.m4a,,,,,,,,,,,,
,,,,,41646,2021-09-26_14h42.02.711,judgeSpeechMusic_20210921_logNormShiftAmp_detection_fixS,2020.1.2,MacIntel,60,,,,,,,,,,,,,,,,,,,,,,,,,,,,,,1,6.3309,,0,0,35,35,69,1,stimuli/stim_20210706_power2amp/equal_lnn_AM4.2Hz_s35_1.m4a,,,,,,,,,,,,
,,,,,41646,2021-09-26_14h42.02.711,judgeSpeechMusic_20210921_logNormShiftAmp_detection_fixS,2020.1.2,MacIntel,60,,,,,,,,,,,,,,,,,,,,,,,,,,,,,,1,6.0113,,0,0,36,36,37,1,stimuli/stim_20210706_power2amp/equal_lnn_AM2.4Hz_s35_31.m4a,,,,,,,,,,,,
,,,,,41646,2021-09-26_14h42.02.711,judgeSpeechMusic_20210921_logNormShiftAmp_detection_fixS,2020.1.2,MacIntel,60,,,,,,,,,,,,,,,,,,,,,,,,,,,,,,1,5.8256,,0,0,37,37,9,1,stimuli/stim_20210706_power2amp/equal_lnn_AM0.6Hz_s35_3.m4a,,,,,,,,,,,,
,,,,,41646,2021-09-26_14h42.02.711,judgeSpeechMusic_20210921_logNormShiftAmp_detection_fixS,2020.1.2,MacIntel,60,,,,,,,,,,,,,,,,,,,,,,,,,,,,,,1,5.9263,,0,0,38,38,3,1,stimuli/stim_20210706_power2amp/equal_lnn_AM0.6Hz_s35_36.m4a,,,,,,,,,,,,
,,,,,41646,2021-09-26_14h42.02.711,judgeSpeechMusic_20210921_logNormShiftAmp_detection_fixS,2020.1.2,MacIntel,60,,,,,,,,,,,,,,,,,,,,,,,,,,,,,,1,6.9589,,0,0,39,39,14,1,stimuli/stim_20210706_power2amp/equal_lnn_AM0.6Hz_s35_12.m4a,,,,,,,,,,,,
,,,,,41646,2021-09-26_14h42.02.711,judgeSpeechMusic_20210921_logNormShiftAmp_detection_fixS,2020.1.2,MacIntel,60,,,,,,,,,,,,,,,,,,,,,,,,,,,,,,1,7.7296,,0,0,40,40,12,1,stimuli/stim_20210706_power2amp/equal_lnn_AM0.6Hz_s35_18.m4a,,,,,,,,,,,,
,,,,,41646,2021-09-26_14h42.02.711,judgeSpeechMusic_20210921_logNormShiftAmp_detection_fixS,2020.1.2,MacIntel,60,,,,,,,,,,,,,,,,,,,,,,,,,,,,,,2,5.9452,,0,0,41,41,71,1,stimuli/stim_20210706_power2amp/equal_lnn_AM4.2Hz_s35_15.m4a,,,,,,,,,,,,
,,,,,41646,2021-09-26_14h42.02.711,judgeSpeechMusic_20210921_logNormShiftAmp_detection_fixS,2020.1.2,MacIntel,60,,,,,,,,,,,,,,,,,,,,,,,,,,,,,,2,5.8433,,0,0,42,42,43,1,stimuli/stim_20210706_power2amp/equal_lnn_AM2.4Hz_s35_42.m4a,,,,,,,,,,,,
,,,,,41646,2021-09-26_14h42.02.711,judgeSpeechMusic_20210921_logNormShiftAmp_detection_fixS,2020.1.2,MacIntel,60,,,,,,,,,,,,,,,,,,,,,,,,,,,,,,1,6.126,1,1,0,43,43,41,1,stimuli/stim_20210706_power2amp/equal_lnn_AM2.4Hz_s35_35.m4a,1.4956,,,,,,,,,,,
,,,,,41646,2021-09-26_14h42.02.711,judgeSpeechMusic_20210921_logNormShiftAmp_detection_fixS,2020.1.2,MacIntel,60,,,,,,,,,,,,,,,,,,,,,,,,,,,,,,1,7.0612,,0,0,44,44,19,1,stimuli/stim_20210706_power2amp/equal_lnn_AM1.2Hz_s35_36.m4a,,,,,,,,,,,,
,,,,,41646,2021-09-26_14h42.02.711,judgeSpeechMusic_20210921_logNormShiftAmp_detection_fixS,2020.1.2,MacIntel,60,,,,,,,,,,,,,,,,,,,,,,,,,,,,,,2,6.7085,,0,0,45,45,34,1,stimuli/stim_20210706_power2amp/equal_lnn_AM2.4Hz_s35_46.m4a,,,,,,,,,,,,
,,,,,41646,2021-09-26_14h42.02.711,judgeSpeechMusic_20210921_logNormShiftAmp_detection_fixS,2020.1.2,MacIntel,60,,,,,,,,,,,,,,,,,,,,,,,,,,,,,,1,7.3774,,0,0,46,46,11,1,stimuli/stim_20210706_power2amp/equal_lnn_AM0.6Hz_s35_17.m4a,,,,,,,,,,,,
,,,,,41646,2021-09-26_14h42.02.711,judgeSpeechMusic_20210921_logNormShiftAmp_detection_fixS,2020.1.2,MacIntel,60,,,,,,,,,,,,,,,,,,,,,,,,,,,,,,1,7.1916,,0,0,47,47,28,1,stimuli/stim_20210706_power2amp/equal_lnn_AM1.2Hz_s35_4.m4a,,,,,,,,,,,,
,,,,,41646,2021-09-26_14h42.02.711,judgeSpeechMusic_20210921_logNormShiftAmp_detection_fixS,2020.1.2,MacIntel,60,,,,,,,,,,,,,,,,,,,,,,,,,,,,,,2,6.1232,,0,0,48,48,57,1,stimuli/stim_20210706_power2amp/equal_lnn_AM3.6Hz_s35_35.m4a,,,,,,,,,,,,
,,,,,41646,2021-09-26_14h42.02.711,judgeSpeechMusic_20210921_logNormShiftAmp_detection_fixS,2020.1.2,MacIntel,60,,,,,,,,,,,,,,,,,,,,,,,,,,,,,,2,9.1938,,0,0,49,49,35,1,stimuli/stim_20210706_power2amp/equal_lnn_AM2.4Hz_s35_36.m4a,,,,,,,,,,,,
,,,,,41646,2021-09-26_14h42.02.711,judgeSpeechMusic_20210921_logNormShiftAmp_detection_fixS,2020.1.2,MacIntel,60,,,,,,,,,,,,,,,,,,,,,,,,,,,,,,1,8.5427,,0,0,50,50,33,1,stimuli/stim_20210706_power2amp/equal_lnn_AM2.4Hz_s35_50.m4a,,,,,,,,,,,,
,,,,,41646,2021-09-26_14h42.02.711,judgeSpeechMusic_20210921_logNormShiftAmp_detection_fixS,2020.1.2,MacIntel,60,,,,,,,,,,,,,,,,,,,,,,,,,,,,,,2,7.1256,,0,0,51,51,31,1,stimuli/stim_20210706_power2amp/equal_lnn_AM2.4Hz_s35_12.m4a,,,,,,,,,,,,
,,,,,41646,2021-09-26_14h42.02.711,judgeSpeechMusic_20210921_logNormShiftAmp_detection_fixS,2020.1.2,MacIntel,60,,,,,,,,,,,,,,,,,,,,,,,,,,,,,,1,8.0275,,0,0,52,52,20,1,stimuli/stim_20210706_power2amp/equal_lnn_AM1.2Hz_s35_11.m4a,,,,,,,,,,,,
,,,,,41646,2021-09-26_14h42.02.711,judgeSpeechMusic_20210921_logNormShiftAmp_detection_fixS,2020.1.2,MacIntel,60,,,,,,,,,,,,,,,,,,,,,,,,,,,,,,1,8.9905,,0,0,53,53,6,1,stimuli/stim_20210706_power2amp/equal_lnn_AM0.6Hz_s35_42.m4a,,,,,,,,,,,,
,,,,,41646,2021-09-26_14h42.02.711,judgeSpeechMusic_20210921_logNormShiftAmp_detection_fixS,2020.1.2,MacIntel,60,,,,,,,,,,,,,,,,,,,,,,,,,,,,,,2,7.34,,0,0,54,54,73,1,stimuli/stim_20210706_power2amp/equal_lnn_AM4.2Hz_s35_5.m4a,,,,,,,,,,,,
,,,,,41646,2021-09-26_14h42.02.711,judgeSpeechMusic_20210921_logNormShiftAmp_detection_fixS,2020.1.2,MacIntel,60,,,,,,,,,,,,,,,,,,,,,,,,,,,,,,1,6.5565,,0,0,55,55,10,1,stimuli/stim_20210706_power2amp/equal_lnn_AM0.6Hz_s35_27.m4a,,,,,,,,,,,,
,,,,,41646,2021-09-26_14h42.02.711,judgeSpeechMusic_20210921_logNormShiftAmp_detection_fixS,2020.1.2,MacIntel,60,,,,,,,,,,,,,,,,,,,,,,,,,,,,,,2,6.4728,,0,0,56,56,39,1,stimuli/stim_20210706_power2amp/equal_lnn_AM2.4Hz_s35_38.m4a,,,,,,,,,,,,
,,,,,41646,2021-09-26_14h42.02.711,judgeSpeechMusic_20210921_logNormShiftAmp_detection_fixS,2020.1.2,MacIntel,60,,,,,,,,,,,,,,,,,,,,,,,,,,,,,,2,7.9621,,0,0,57,57,49,1,stimuli/stim_20210706_power2amp/equal_lnn_AM3.6Hz_s35_11.m4a,,,,,,,,,,,,
,,,,,41646,2021-09-26_14h42.02.711,judgeSpeechMusic_20210921_logNormShiftAmp_detection_fixS,2020.1.2,MacIntel,60,,,,,,,,,,,,,,,,,,,,,,,,,,,,,,1,6.6271,,0,0,58,58,2,1,stimuli/stim_20210706_power2amp/equal_lnn_AM0.6Hz_s35_50.m4a,,,,,,,,,,,,
,,,,,41646,2021-09-26_14h42.02.711,judgeSpeechMusic_20210921_logNormShiftAmp_detection_fixS,2020.1.2,MacIntel,60,,,,,,,,,,,,,,,,,,,,,,,,,,,,,,2,8.6425,,0,0,59,59,50,1,stimuli/stim_20210706_power2amp/equal_lnn_AM3.6Hz_s35_16.m4a,,,,,,,,,,,,
,,,,,41646,2021-09-26_14h42.02.711,judgeSpeechMusic_20210921_logNormShiftAmp_detection_fixS,2020.1.2,MacIntel,60,,,,,,,,,,,,,,,,,,,,,,,,,,,,,,2,7.5612,,0,0,60,60,56,1,stimuli/stim_20210706_power2amp/equal_lnn_AM3.6Hz_s35_39.m4a,,,,,,,,,,,,
,,,,,41646,2021-09-26_14h42.02.711,judgeSpeechMusic_20210921_logNormShiftAmp_detection_fixS,2020.1.2,MacIntel,60,,,,,,,,,,,,,,,,,,,,,,,,,,,,,,1,7.1583,,0,0,61,61,17,1,stimuli/stim_20210706_power2amp/equal_lnn_AM1.2Hz_s35_20.m4a,,,,,,,,,,,,
,,,,,41646,2021-09-26_14h42.02.711,judgeSpeechMusic_20210921_logNormShiftAmp_detection_fixS,2020.1.2,MacIntel,60,,,,,,,,,,,,,,,,,,,,,,,,,,,,,,2,7.5905,,0,0,62,62,42,1,stimuli/stim_20210706_power2amp/equal_lnn_AM2.4Hz_s35_47.m4a,,,,,,,,,,,,
,,,,,41646,2021-09-26_14h42.02.711,judgeSpeechMusic_20210921_logNormShiftAmp_detection_fixS,2020.1.2,MacIntel,60,,,,,,,,,,,,,,,,,,,,,,,,,,,,,,2,6.1737,,0,0,63,63,47,1,stimuli/stim_20210706_power2amp/equal_lnn_AM3.6Hz_s35_8.m4a,,,,,,,,,,,,
,,,,,41646,2021-09-26_14h42.02.711,judgeSpeechMusic_20210921_logNormShiftAmp_detection_fixS,2020.1.2,MacIntel,60,,,,,,,,,,,,,,,,,,,,,,,,,,,,,,1,6.1105,,0,0,64,64,0,1,stimuli/stim_20210706_power2amp/equal_lnn_AM0.6Hz_s35_21.m4a,,,,,,,,,,,,
,,,,,41646,2021-09-26_14h42.02.711,judgeSpeechMusic_20210921_logNormShiftAmp_detection_fixS,2020.1.2,MacIntel,60,,,,,,,,,,,,,,,,,,,,,,,,,,,,,,2,6.3433,1,1,0,65,65,16,1,stimuli/stim_20210706_power2amp/equal_lnn_AM1.2Hz_s35_50.m4a,0.6577,,,,,,,,,,,
,,,,,41646,2021-09-26_14h42.02.711,judgeSpeechMusic_20210921_logNormShiftAmp_detection_fixS,2020.1.2,MacIntel,60,,,,,,,,,,,,,,,,,,,,,,,,,,,,,,2,7.2296,,0,0,66,66,13,1,stimuli/stim_20210706_power2amp/equal_lnn_AM0.6Hz_s35_14.m4a,,,,,,,,,,,,
,,,,,41646,2021-09-26_14h42.02.711,judgeSpeechMusic_20210921_logNormShiftAmp_detection_fixS,2020.1.2,MacIntel,60,,,,,,,,,,,,,,,,,,,,,,,,,,,,,,2,6.8422,,0,0,67,67,65,1,stimuli/stim_20210706_power2amp/equal_lnn_AM4.2Hz_s35_8.m4a,,,,,,,,,,,,
,,,,,41646,2021-09-26_14h42.02.711,judgeSpeechMusic_20210921_logNormShiftAmp_detection_fixS,2020.1.2,MacIntel,60,,,,,,,,,,,,,,,,,,,,,,,,,,,,,,2,6.3791,,0,0,68,68,51,1,stimuli/stim_20210706_power2amp/equal_lnn_AM3.6Hz_s35_9.m4a,,,,,,,,,,,,
,,,,,41646,2021-09-26_14h42.02.711,judgeSpeechMusic_20210921_logNormShiftAmp_detection_fixS,2020.1.2,MacIntel,60,,,,,,,,,,,,,,,,,,,,,,,,,,,,,,1,6.3907,,0,0,69,69,55,1,stimuli/stim_20210706_power2amp/equal_lnn_AM3.6Hz_s35_50.m4a,,,,,,,,,,,,
,,,,,41646,2021-09-26_14h42.02.711,judgeSpeechMusic_20210921_logNormShiftAmp_detection_fixS,2020.1.2,MacIntel,60,,,,,,,,,,,,,,,,,,,,,,,,,,,,,,1,6.9598,,0,0,70,70,38,1,stimuli/stim_20210706_power2amp/equal_lnn_AM2.4Hz_s35_39.m4a,,,,,,,,,,,,
,,,,,41646,2021-09-26_14h42.02.711,judgeSpeechMusic_20210921_logNormShiftAmp_detection_fixS,2020.1.2,MacIntel,60,,,,,,,,,,,,,,,,,,,,,,,,,,,,,,1,6.3257,,0,0,71,71,4,1,stimuli/stim_20210706_power2amp/equal_lnn_AM0.6Hz_s35_23.m4a,,,,,,,,,,,,
,,,,,41646,2021-09-26_14h42.02.711,judgeSpeechMusic_20210921_logNormShiftAmp_detection_fixS,2020.1.2,MacIntel,60,,,,,,,,,,,,,,,,,,,,,,,,,,,,,,2,6.1761,,0,0,72,72,66,1,stimuli/stim_20210706_power2amp/equal_lnn_AM4.2Hz_s35_29.m4a,,,,,,,,,,,,
,,,,,41646,2021-09-26_14h42.02.711,judgeSpeechMusic_20210921_logNormShiftAmp_detection_fixS,2020.1.2,MacIntel,60,,,,,,,,,,,,,,,,,,,,,,,,,,,,,,2,6.2941,,0,0,73,73,61,1,stimuli/stim_20210706_power2amp/equal_lnn_AM4.2Hz_s35_7.m4a,,,,,,,,,,,,
,,,,,41646,2021-09-26_14h42.02.711,judgeSpeechMusic_20210921_logNormShiftAmp_detection_fixS,2020.1.2,MacIntel,60,,,,,,,,,,,,,,,,,,,,,,,,,,,,,,1,6.7938,,0,0,74,74,5,1,stimuli/stim_20210706_power2amp/equal_lnn_AM0.6Hz_s35_7.m4a,,,,,,,,,,,,
,,,,,41646,2021-09-26_14h42.02.711,judgeSpeechMusic_20210921_logNormShiftAmp_detection_fixS,2020.1.2,MacIntel,60,,,,,,,,,,,,,,,,,,,,,,,,,,,,,,,,,,,,,,,,,space,0.8952,0,0,0,0,1,MUSIC,stimuli/MUSIC.jpg,,
,,,,,41646,2021-09-26_14h42.02.711,judgeSpeechMusic_20210921_logNormShiftAmp_detection_fixS,2020.1.2,MacIntel,60,,,,,,,,,,,,,space,1.6106,2,9.6085,,0,0,0,0,2,1,stimuli/stim_20210706_power2amp/equal_lnn_AM_training3Hz_s35.m4a,,,,,,,,,,,,,,,,,,,,,,,,,,,
,,,,,41646,2021-09-26_14h42.02.711,judgeSpeechMusic_20210921_logNormShiftAmp_detection_fixS,2020.1.2,MacIntel,60,,,,,,,,,,,,,,,1,10.6241,,0,0,1,1,1,1,stimuli/stim_20210706_power2amp/equal_lnn_AM_training1.8Hz_s35.m4a,,,,,,,,,,,,,,,,,,,,,,,,,,,
,,,,,41646,2021-09-26_14h42.02.711,judgeSpeechMusic_20210921_logNormShiftAmp_detection_fixS,2020.1.2,MacIntel,60,,,,,,,,,,,,,,,1,6.3926,3,1,0,2,2,0,1,stimuli/stim_20210706_power2amp/equal_lnn_AM_training0.9Hz_s35.m4a,1.4237,,,,,,,,,,,,,,,,,,,,,,,,,,
,,,,,41646,2021-09-26_14h42.02.711,judgeSpeechMusic_20210921_logNormShiftAmp_detection_fixS,2020.1.2,MacIntel,60,,,,,,,,,,,,,,,1,6.395,,0,0,3,3,3,1,stimuli/stim_20210706_power2amp/equal_lnn_AM_training3.9Hz_s35.m4a,,,,,,,,,,,,,,,,,,,,,,,,,,,
,,,,,41646,2021-09-26_14h42.02.711,judgeSpeechMusic_20210921_logNormShiftAmp_detection_fixS,2020.1.2,MacIntel,60,,,,,,,,,,,,,,,,,,,,,,,,,,space,2.8794,space,2.7315,2,7.1398,,0,0,0,0,58,1,stimuli/stim_20210706_power2amp/equal_lnn_AM3.6Hz_s35_17.m4a,,,,,,,,,,,,
,,,,,41646,2021-09-26_14h42.02.711,judgeSpeechMusic_20210921_logNormShiftAmp_detection_fixS,2020.1.2,MacIntel,60,,,,,,,,,,,,,,,,,,,,,,,,,,,,,,1,6.8757,,0,0,1,1,4,1,stimuli/stim_20210706_power2amp/equal_lnn_AM0.6Hz_s35_23.m4a,,,,,,,,,,,,
,,,,,41646,2021-09-26_14h42.02.711,judgeSpeechMusic_20210921_logNormShiftAmp_detection_fixS,2020.1.2,MacIntel,60,,,,,,,,,,,,,,,,,,,,,,,,,,,,,,2,7.0593,,0,0,2,2,41,1,stimuli/stim_20210706_power2amp/equal_lnn_AM2.4Hz_s35_35.m4a,,,,,,,,,,,,
,,,,,41646,2021-09-26_14h42.02.711,judgeSpeechMusic_20210921_logNormShiftAmp_detection_fixS,2020.1.2,MacIntel,60,,,,,,,,,,,,,,,,,,,,,,,,,,,,,,1,7.2083,,0,0,3,3,1,1,stimuli/stim_20210706_power2amp/equal_lnn_AM0.6Hz_s35_45.m4a,,,,,,,,,,,,
,,,,,41646,2021-09-26_14h42.02.711,judgeSpeechMusic_20210921_logNormShiftAmp_detection_fixS,2020.1.2,MacIntel,60,,,,,,,,,,,,,,,,,,,,,,,,,,,,,,2,6.7133,,0,0,4,4,13,1,stimuli/stim_20210706_power2amp/equal_lnn_AM0.6Hz_s35_14.m4a,,,,,,,,,,,,
,,,,,41646,2021-09-26_14h42.02.711,judgeSpeechMusic_20210921_logNormShiftAmp_detection_fixS,2020.1.2,MacIntel,60,,,,,,,,,,,,,,,,,,,,,,,,,,,,,,1,12.3741,,0,0,5,5,10,1,stimuli/stim_20210706_power2amp/equal_lnn_AM0.6Hz_s35_27.m4a,,,,,,,,,,,,
,,,,,41646,2021-09-26_14h42.02.711,judgeSpeechMusic_20210921_logNormShiftAmp_detection_fixS,2020.1.2,MacIntel,60,,,,,,,,,,,,,,,,,,,,,,,,,,,,,,2,7.2756,,0,0,6,6,51,1,stimuli/stim_20210706_power2amp/equal_lnn_AM3.6Hz_s35_9.m4a,,,,,,,,,,,,
,,,,,41646,2021-09-26_14h42.02.711,judgeSpeechMusic_20210921_logNormShiftAmp_detection_fixS,2020.1.2,MacIntel,60,,,,,,,,,,,,,,,,,,,,,,,,,,,,,,2,6.6264,,0,0,7,7,68,1,stimuli/stim_20210706_power2amp/equal_lnn_AM4.2Hz_s35_14.m4a,,,,,,,,,,,,
,,,,,41646,2021-09-26_14h42.02.711,judgeSpeechMusic_20210921_logNormShiftAmp_detection_fixS,2020.1.2,MacIntel,60,,,,,,,,,,,,,,,,,,,,,,,,,,,,,,2,6.4096,,0,0,8,8,38,1,stimuli/stim_20210706_power2amp/equal_lnn_AM2.4Hz_s35_39.m4a,,,,,,,,,,,,
,,,,,41646,2021-09-26_14h42.02.711,judgeSpeechMusic_20210921_logNormShiftAmp_detection_fixS,2020.1.2,MacIntel,60,,,,,,,,,,,,,,,,,,,,,,,,,,,,,,1,7.01,,0,0,9,9,15,1,stimuli/stim_20210706_power2amp/equal_lnn_AM1.2Hz_s35_26.m4a,,,,,,,,,,,,
,,,,,41646,2021-09-26_14h42.02.711,judgeSpeechMusic_20210921_logNormShiftAmp_detection_fixS,2020.1.2,MacIntel,60,,,,,,,,,,,,,,,,,,,,,,,,,,,,,,2,6.8099,,0,0,10,10,39,1,stimuli/stim_20210706_power2amp/equal_lnn_AM2.4Hz_s35_38.m4a,,,,,,,,,,,,
,,,,,41646,2021-09-26_14h42.02.711,judgeSpeechMusic_20210921_logNormShiftAmp_detection_fixS,2020.1.2,MacIntel,60,,,,,,,,,,,,,,,,,,,,,,,,,,,,,,1,6.8097,,0,0,11,11,21,1,stimuli/stim_20210706_power2amp/equal_lnn_AM1.2Hz_s35_10.m4a,,,,,,,,,,,,
,,,,,41646,2021-09-26_14h42.02.711,judgeSpeechMusic_20210921_logNormShiftAmp_detection_fixS,2020.1.2,MacIntel,60,,,,,,,,,,,,,,,,,,,,,,,,,,,,,,2,7.5099,,0,0,12,12,57,1,stimuli/stim_20210706_power2amp/equal_lnn_AM3.6Hz_s35_35.m4a,,,,,,,,,,,,
,,,,,41646,2021-09-26_14h42.02.711,judgeSpeechMusic_20210921_logNormShiftAmp_detection_fixS,2020.1.2,MacIntel,60,,,,,,,,,,,,,,,,,,,,,,,,,,,,,,1,6.6599,,0,0,13,13,59,1,stimuli/stim_20210706_power2amp/equal_lnn_AM3.6Hz_s35_46.m4a,,,,,,,,,,,,
,,,,,41646,2021-09-26_14h42.02.711,judgeSpeechMusic_20210921_logNormShiftAmp_detection_fixS,2020.1.2,MacIntel,60,,,,,,,,,,,,,,,,,,,,,,,,,,,,,,2,6.0427,,0,0,14,14,32,1,stimuli/stim_20210706_power2amp/equal_lnn_AM2.4Hz_s35_17.m4a,,,,,,,,,,,,
,,,,,41646,2021-09-26_14h42.02.711,judgeSpeechMusic_20210921_logNormShiftAmp_detection_fixS,2020.1.2,MacIntel,60,,,,,,,,,,,,,,,,,,,,,,,,,,,,,,2,7.0422,,0,0,15,15,29,1,stimuli/stim_20210706_power2amp/equal_lnn_AM1.2Hz_s35_47.m4a,,,,,,,,,,,,
,,,,,41646,2021-09-26_14h42.02.711,judgeSpeechMusic_20210921_logNormShiftAmp_detection_fixS,2020.1.2,MacIntel,60,,,,,,,,,,,,,,,,,,,,,,,,,,,,,,2,8.1431,,0,0,16,16,63,1,stimuli/stim_20210706_power2amp/equal_lnn_AM4.2Hz_s35_2.m4a,,,,,,,,,,,,
,,,,,41646,2021-09-26_14h42.02.711,judgeSpeechMusic_20210921_logNormShiftAmp_detection_fixS,2020.1.2,MacIntel,60,,,,,,,,,,,,,,,,,,,,,,,,,,,,,,1,5.8263,,0,0,17,17,69,1,stimuli/stim_20210706_power2amp/equal_lnn_AM4.2Hz_s35_1.m4a,,,,,,,,,,,,
,,,,,41646,2021-09-26_14h42.02.711,judgeSpeechMusic_20210921_logNormShiftAmp_detection_fixS,2020.1.2,MacIntel,60,,,,,,,,,,,,,,,,,,,,,,,,,,,,,,1,6.1636,,0,0,18,18,55,1,stimuli/stim_20210706_power2amp/equal_lnn_AM3.6Hz_s35_50.m4a,,,,,,,,,,,,
,,,,,41646,2021-09-26_14h42.02.711,judgeSpeechMusic_20210921_logNormShiftAmp_detection_fixS,2020.1.2,MacIntel,60,,,,,,,,,,,,,,,,,,,,,,,,,,,,,,1,6.2926,,0,0,19,19,0,1,stimuli/stim_20210706_power2amp/equal_lnn_AM0.6Hz_s35_21.m4a,,,,,,,,,,,,
,,,,,41646,2021-09-26_14h42.02.711,judgeSpeechMusic_20210921_logNormShiftAmp_detection_fixS,2020.1.2,MacIntel,60,,,,,,,,,,,,,,,,,,,,,,,,,,,,,,2,6.364,,0,0,20,20,20,1,stimuli/stim_20210706_power2amp/equal_lnn_AM1.2Hz_s35_11.m4a,,,,,,,,,,,,
,,,,,41646,2021-09-26_14h42.02.711,judgeSpeechMusic_20210921_logNormShiftAmp_detection_fixS,2020.1.2,MacIntel,60,,,,,,,,,,,,,,,,,,,,,,,,,,,,,,1,7.1604,,0,0,21,21,11,1,stimuli/stim_20210706_power2amp/equal_lnn_AM0.6Hz_s35_17.m4a,,,,,,,,,,,,
,,,,,41646,2021-09-26_14h42.02.711,judgeSpeechMusic_20210921_logNormShiftAmp_detection_fixS,2020.1.2,MacIntel,60,,,,,,,,,,,,,,,,,,,,,,,,,,,,,,1,8.3796,1,1,0,22,22,28,1,stimuli/stim_20210706_power2amp/equal_lnn_AM1.2Hz_s35_4.m4a,3.2446,,,,,,,,,,,
,,,,,41646,2021-09-26_14h42.02.711,judgeSpeechMusic_20210921_logNormShiftAmp_detection_fixS,2020.1.2,MacIntel,60,,,,,,,,,,,,,,,,,,,,,,,,,,,,,,2,6.5935,,0,0,23,23,60,1,stimuli/stim_20210706_power2amp/equal_lnn_AM4.2Hz_s35_4.m4a,,,,,,,,,,,,
,,,,,41646,2021-09-26_14h42.02.711,judgeSpeechMusic_20210921_logNormShiftAmp_detection_fixS,2020.1.2,MacIntel,60,,,,,,,,,,,,,,,,,,,,,,,,,,,,,,2,7.942,,0,0,24,24,43,1,stimuli/stim_20210706_power2amp/equal_lnn_AM2.4Hz_s35_42.m4a,,,,,,,,,,,,
,,,,,41646,2021-09-26_14h42.02.711,judgeSpeechMusic_20210921_logNormShiftAmp_detection_fixS,2020.1.2,MacIntel,60,,,,,,,,,,,,,,,,,,,,,,,,,,,,,,2,7.4137,,0,0,25,25,31,1,stimuli/stim_20210706_power2amp/equal_lnn_AM2.4Hz_s35_12.m4a,,,,,,,,,,,,
,,,,,41646,2021-09-26_14h42.02.711,judgeSpeechMusic_20210921_logNormShiftAmp_detection_fixS,2020.1.2,MacIntel,60,,,,,,,,,,,,,,,,,,,,,,,,,,,,,,1,8.1143,,0,0,26,26,44,1,stimuli/stim_20210706_power2amp/equal_lnn_AM2.4Hz_s35_7.m4a,,,,,,,,,,,,
,,,,,41646,2021-09-26_14h42.02.711,judgeSpeechMusic_20210921_logNormShiftAmp_detection_fixS,2020.1.2,MacIntel,60,,,,,,,,,,,,,,,,,,,,,,,,,,,,,,1,7.0406,,0,0,27,27,12,1,stimuli/stim_20210706_power2amp/equal_lnn_AM0.6Hz_s35_18.m4a,,,,,,,,,,,,
,,,,,41646,2021-09-26_14h42.02.711,judgeSpeechMusic_20210921_logNormShiftAmp_detection_fixS,2020.1.2,MacIntel,60,,,,,,,,,,,,,,,,,,,,,,,,,,,,,,1,7.8917,,0,0,28,28,7,1,stimuli/stim_20210706_power2amp/equal_lnn_AM0.6Hz_s35_32.m4a,,,,,,,,,,,,
,,,,,41646,2021-09-26_14h42.02.711,judgeSpeechMusic_20210921_logNormShiftAmp_detection_fixS,2020.1.2,MacIntel,60,,,,,,,,,,,,,,,,,,,,,,,,,,,,,,2,6.7807,,0,0,29,29,25,1,stimuli/stim_20210706_power2amp/equal_lnn_AM1.2Hz_s35_31.m4a,,,,,,,,,,,,
,,,,,41646,2021-09-26_14h42.02.711,judgeSpeechMusic_20210921_logNormShiftAmp_detection_fixS,2020.1.2,MacIntel,60,,,,,,,,,,,,,,,,,,,,,,,,,,,,,,1,6.4098,,0,0,30,30,64,1,stimuli/stim_20210706_power2amp/equal_lnn_AM4.2Hz_s35_9.m4a,,,,,,,,,,,,
,,,,,41646,2021-09-26_14h42.02.711,judgeSpeechMusic_20210921_logNormShiftAmp_detection_fixS,2020.1.2,MacIntel,60,,,,,,,,,,,,,,,,,,,,,,,,,,,,,,1,6.9594,,0,0,31,31,6,1,stimuli/stim_20210706_power2amp/equal_lnn_AM0.6Hz_s35_42.m4a,,,,,,,,,,,,
,,,,,41646,2021-09-26_14h42.02.711,judgeSpeechMusic_20210921_logNormShiftAmp_detection_fixS,2020.1.2,MacIntel,60,,,,,,,,,,,,,,,,,,,,,,,,,,,,,,1,6.808,,0,0,32,32,9,1,stimuli/stim_20210706_power2amp/equal_lnn_AM0.6Hz_s35_3.m4a,,,,,,,,,,,,
,,,,,41646,2021-09-26_14h42.02.711,judgeSpeechMusic_20210921_logNormShiftAmp_detection_fixS,2020.1.2,MacIntel,60,,,,,,,,,,,,,,,,,,,,,,,,,,,,,,1,5.7602,,0,0,33,33,72,1,stimuli/stim_20210706_power2amp/equal_lnn_AM4.2Hz_s35_24.m4a,,,,,,,,,,,,
,,,,,41646,2021-09-26_14h42.02.711,judgeSpeechMusic_20210921_logNormShiftAmp_detection_fixS,2020.1.2,MacIntel,60,,,,,,,,,,,,,,,,,,,,,,,,,,,,,,2,6.8269,,0,0,34,34,52,1,stimuli/stim_20210706_power2amp/equal_lnn_AM3.6Hz_s35_24.m4a,,,,,,,,,,,,
,,,,,41646,2021-09-26_14h42.02.711,judgeSpeechMusic_20210921_logNormShiftAmp_detection_fixS,2020.1.2,MacIntel,60,,,,,,,,,,,,,,,,,,,,,,,,,,,,,,2,6.775,,0,0,35,35,48,1,stimuli/stim_20210706_power2amp/equal_lnn_AM3.6Hz_s35_15.m4a,,,,,,,,,,,,
,,,,,41646,2021-09-26_14h42.02.711,judgeSpeechMusic_20210921_logNormShiftAmp_detection_fixS,2020.1.2,MacIntel,60,,,,,,,,,,,,,,,,,,,,,,,,,,,,,,2,6.2592,,0,0,36,36,53,1,stimuli/stim_20210706_power2amp/equal_lnn_AM3.6Hz_s35_22.m4a,,,,,,,,,,,,
,,,,,41646,2021-09-26_14h42.02.711,judgeSpeechMusic_20210921_logNormShiftAmp_detection_fixS,2020.1.2,MacIntel,60,,,,,,,,,,,,,,,,,,,,,,,,,,,,,,1,7.4752,,0,0,37,37,27,1,stimuli/stim_20210706_power2amp/equal_lnn_AM1.2Hz_s35_38.m4a,,,,,,,,,,,,
,,,,,41646,2021-09-26_14h42.02.711,judgeSpeechMusic_20210921_logNormShiftAmp_detection_fixS,2020.1.2,MacIntel,60,,,,,,,,,,,,,,,,,,,,,,,,,,,,,,1,7.2254,,0,0,38,38,23,1,stimuli/stim_20210706_power2amp/equal_lnn_AM1.2Hz_s35_43.m4a,,,,,,,,,,,,
,,,,,41646,2021-09-26_14h42.02.711,judgeSpeechMusic_20210921_logNormShiftAmp_detection_fixS,2020.1.2,MacIntel,60,,,,,,,,,,,,,,,,,,,,,,,,,,,,,,2,7.0929,,0,0,39,39,40,1,stimuli/stim_20210706_power2amp/equal_lnn_AM2.4Hz_s35_24.m4a,,,,,,,,,,,,
,,,,,41646,2021-09-26_14h42.02.711,judgeSpeechMusic_20210921_logNormShiftAmp_detection_fixS,2020.1.2,MacIntel,60,,,,,,,,,,,,,,,,,,,,,,,,,,,,,,1,6.576,,0,0,40,40,3,1,stimuli/stim_20210706_power2amp/equal_lnn_AM0.6Hz_s35_36.m4a,,,,,,,,,,,,
,,,,,41646,2021-09-26_14h42.02.711,judgeSpeechMusic_20210921_logNormShiftAmp_detection_fixS,2020.1.2,MacIntel,60,,,,,,,,,,,,,,,,,,,,,,,,,,,,,,2,7.0151,,0,0,41,41,16,1,stimuli/stim_20210706_power2amp/equal_lnn_AM1.2Hz_s35_50.m4a,,,,,,,,,,,,
,,,,,41646,2021-09-26_14h42.02.711,judgeSpeechMusic_20210921_logNormShiftAmp_detection_fixS,2020.1.2,MacIntel,60,,,,,,,,,,,,,,,,,,,,,,,,,,,,,,1,6.4754,,0,0,42,42,70,1,stimuli/stim_20210706_power2amp/equal_lnn_AM4.2Hz_s35_10.m4a,,,,,,,,,,,,
,,,,,41646,2021-09-26_14h42.02.711,judgeSpeechMusic_20210921_logNormShiftAmp_detection_fixS,2020.1.2,MacIntel,60,,,,,,,,,,,,,,,,,,,,,,,,,,,,,,2,6.926,1,1,0,43,43,74,1,stimuli/stim_20210706_power2amp/equal_lnn_AM4.2Hz_s35_36.m4a,0.4972,,,,,,,,,,,
,,,,,41646,2021-09-26_14h42.02.711,judgeSpeechMusic_20210921_logNormShiftAmp_detection_fixS,2020.1.2,MacIntel,60,,,,,,,,,,,,,,,,,,,,,,,,,,,,,,2,7.4246,,0,0,44,44,37,1,stimuli/stim_20210706_power2amp/equal_lnn_AM2.4Hz_s35_31.m4a,,,,,,,,,,,,
,,,,,41646,2021-09-26_14h42.02.711,judgeSpeechMusic_20210921_logNormShiftAmp_detection_fixS,2020.1.2,MacIntel,60,,,,,,,,,,,,,,,,,,,,,,,,,,,,,,2,6.6267,,0,0,45,45,54,1,stimuli/stim_20210706_power2amp/equal_lnn_AM3.6Hz_s35_10.m4a,,,,,,,,,,,,
,,,,,41646,2021-09-26_14h42.02.711,judgeSpeechMusic_20210921_logNormShiftAmp_detection_fixS,2020.1.2,MacIntel,60,,,,,,,,,,,,,,,,,,,,,,,,,,,,,,1,7.0435,,0,0,46,46,50,1,stimuli/stim_20210706_power2amp/equal_lnn_AM3.6Hz_s35_16.m4a,,,,,,,,,,,,
,,,,,41646,2021-09-26_14h42.02.711,judgeSpeechMusic_20210921_logNormShiftAmp_detection_fixS,2020.1.2,MacIntel,60,,,,,,,,,,,,,,,,,,,,,,,,,,,,,,1,7.409,,0,0,47,47,35,1,stimuli/stim_20210706_power2amp/equal_lnn_AM2.4Hz_s35_36.m4a,,,,,,,,,,,,
,,,,,41646,2021-09-26_14h42.02.711,judgeSpeechMusic_20210921_logNormShiftAmp_detection_fixS,2020.1.2,MacIntel,60,,,,,,,,,,,,,,,,,,,,,,,,,,,,,,1,6.5428,,0,0,48,48,2,1,stimuli/stim_20210706_power2amp/equal_lnn_AM0.6Hz_s35_50.m4a,,,,,,,,,,,,
,,,,,41646,2021-09-26_14h42.02.711,judgeSpeechMusic_20210921_logNormShiftAmp_detection_fixS,2020.1.2,MacIntel,60,,,,,,,,,,,,,,,,,,,,,,,,,,,,,,1,7.297,,0,0,49,49,45,1,stimuli/stim_20210706_power2amp/equal_lnn_AM3.6Hz_s35_33.m4a,,,,,,,,,,,,
,,,,,41646,2021-09-26_14h42.02.711,judgeSpeechMusic_20210921_logNormShiftAmp_detection_fixS,2020.1.2,MacIntel,60,,,,,,,,,,,,,,,,,,,,,,,,,,,,,,2,8.1957,,0,0,50,50,61,1,stimuli/stim_20210706_power2amp/equal_lnn_AM4.2Hz_s35_7.m4a,,,,,,,,,,,,
,,,,,41646,2021-09-26_14h42.02.711,judgeSpeechMusic_20210921_logNormShiftAmp_detection_fixS,2020.1.2,MacIntel,60,,,,,,,,,,,,,,,,,,,,,,,,,,,,,,2,7.9581,,0,0,51,51,33,1,stimuli/stim_20210706_power2amp/equal_lnn_AM2.4Hz_s35_50.m4a,,,,,,,,,,,,
,,,,,41646,2021-09-26_14h42.02.711,judgeSpeechMusic_20210921_logNormShiftAmp_detection_fixS,2020.1.2,MacIntel,60,,,,,,,,,,,,,,,,,,,,,,,,,,,,,,1,45.2934,,0,0,52,52,62,1,stimuli/stim_20210706_power2amp/equal_lnn_AM4.2Hz_s35_49.m4a,,,,,,,,,,,,
,,,,,41646,2021-09-26_14h42.02.711,judgeSpeechMusic_20210921_logNormShiftAmp_detection_fixS,2020.1.2,MacIntel,60,,,,,,,,,,,,,,,,,,,,,,,,,,,,,,2,6.342,,0,0,53,53,56,1,stimuli/stim_20210706_power2amp/equal_lnn_AM3.6Hz_s35_39.m4a,,,,,,,,,,,,
,,,,,41646,2021-09-26_14h42.02.711,judgeSpeechMusic_20210921_logNormShiftAmp_detection_fixS,2020.1.2,MacIntel,60,,,,,,,,,,,,,,,,,,,,,,,,,,,,,,1,6.2927,,0,0,54,54,73,1,stimuli/stim_20210706_power2amp/equal_lnn_AM4.2Hz_s35_5.m4a,,,,,,,,,,,,
,,,,,41646,2021-09-26_14h42.02.711,judgeSpeechMusic_20210921_logNormShiftAmp_detection_fixS,2020.1.2,MacIntel,60,,,,,,,,,,,,,,,,,,,,,,,,,,,,,,1,12.3933,,0,0,55,55,26,1,stimuli/stim_20210706_power2amp/equal_lnn_AM1.2Hz_s35_8.m4a,,,,,,,,,,,,
,,,,,41646,2021-09-26_14h42.02.711,judgeSpeechMusic_20210921_logNormShiftAmp_detection_fixS,2020.1.2,MacIntel,60,,,,,,,,,,,,,,,,,,,,,,,,,,,,,,2,6.31,,0,0,56,56,47,1,stimuli/stim_20210706_power2amp/equal_lnn_AM3.6Hz_s35_8.m4a,,,,,,,,,,,,
,,,,,41646,2021-09-26_14h42.02.711,judgeSpeechMusic_20210921_logNormShiftAmp_detection_fixS,2020.1.2,MacIntel,60,,,,,,,,,,,,,,,,,,,,,,,,,,,,,,1,6.8472,,0,0,57,57,42,1,stimuli/stim_20210706_power2amp/equal_lnn_AM2.4Hz_s35_47.m4a,,,,,,,,,,,,
,,,,,41646,2021-09-26_14h42.02.711,judgeSpeechMusic_20210921_logNormShiftAmp_detection_fixS,2020.1.2,MacIntel,60,,,,,,,,,,,,,,,,,,,,,,,,,,,,,,2,7.0301,,0,0,58,58,66,1,stimuli/stim_20210706_power2amp/equal_lnn_AM4.2Hz_s35_29.m4a,,,,,,,,,,,,
,,,,,41646,2021-09-26_14h42.02.711,judgeSpeechMusic_20210921_logNormShiftAmp_detection_fixS,2020.1.2,MacIntel,60,,,,,,,,,,,,,,,,,,,,,,,,,,,,,,1,6.293,,0,0,59,59,18,1,stimuli/stim_20210706_power2amp/equal_lnn_AM1.2Hz_s35_39.m4a,,,,,,,,,,,,
,,,,,41646,2021-09-26_14h42.02.711,judgeSpeechMusic_20210921_logNormShiftAmp_detection_fixS,2020.1.2,MacIntel,60,,,,,,,,,,,,,,,,,,,,,,,,,,,,,,2,6.8106,,0,0,60,60,46,1,stimuli/stim_20210706_power2amp/equal_lnn_AM3.6Hz_s35_5.m4a,,,,,,,,,,,,
,,,,,41646,2021-09-26_14h42.02.711,judgeSpeechMusic_20210921_logNormShiftAmp_detection_fixS,2020.1.2,MacIntel,60,,,,,,,,,,,,,,,,,,,,,,,,,,,,,,1,10.5925,,0,0,61,61,24,1,stimuli/stim_20210706_power2amp/equal_lnn_AM1.2Hz_s35_40.m4a,,,,,,,,,,,,
,,,,,41646,2021-09-26_14h42.02.711,judgeSpeechMusic_20210921_logNormShiftAmp_detection_fixS,2020.1.2,MacIntel,60,,,,,,,,,,,,,,,,,,,,,,,,,,,,,,1,6.2926,,0,0,62,62,19,1,stimuli/stim_20210706_power2amp/equal_lnn_AM1.2Hz_s35_36.m4a,,,,,,,,,,,,
,,,,,41646,2021-09-26_14h42.02.711,judgeSpeechMusic_20210921_logNormShiftAmp_detection_fixS,2020.1.2,MacIntel,60,,,,,,,,,,,,,,,,,,,,,,,,,,,,,,1,6.3247,,0,0,63,63,14,1,stimuli/stim_20210706_power2amp/equal_lnn_AM0.6Hz_s35_12.m4a,,,,,,,,,,,,
,,,,,41646,2021-09-26_14h42.02.711,judgeSpeechMusic_20210921_logNormShiftAmp_detection_fixS,2020.1.2,MacIntel,60,,,,,,,,,,,,,,,,,,,,,,,,,,,,,,1,6.1275,,0,0,64,64,8,1,stimuli/stim_20210706_power2amp/equal_lnn_AM0.6Hz_s35_1.m4a,,,,,,,,,,,,
,,,,,41646,2021-09-26_14h42.02.711,judgeSpeechMusic_20210921_logNormShiftAmp_detection_fixS,2020.1.2,MacIntel,60,,,,,,,,,,,,,,,,,,,,,,,,,,,,,,2,5.7478,1,1,0,65,65,36,1,stimuli/stim_20210706_power2amp/equal_lnn_AM2.4Hz_s35_37.m4a,1.2315,,,,,,,,,,,
,,,,,41646,2021-09-26_14h42.02.711,judgeSpeechMusic_20210921_logNormShiftAmp_detection_fixS,2020.1.2,MacIntel,60,,,,,,,,,,,,,,,,,,,,,,,,,,,,,,2,6.9064,,0,0,66,66,30,1,stimuli/stim_20210706_power2amp/equal_lnn_AM2.4Hz_s35_25.m4a,,,,,,,,,,,,
,,,,,41646,2021-09-26_14h42.02.711,judgeSpeechMusic_20210921_logNormShiftAmp_detection_fixS,2020.1.2,MacIntel,60,,,,,,,,,,,,,,,,,,,,,,,,,,,,,,1,7.5763,,0,0,67,67,71,1,stimuli/stim_20210706_power2amp/equal_lnn_AM4.2Hz_s35_15.m4a,,,,,,,,,,,,
,,,,,41646,2021-09-26_14h42.02.711,judgeSpeechMusic_20210921_logNormShiftAmp_detection_fixS,2020.1.2,MacIntel,60,,,,,,,,,,,,,,,,,,,,,,,,,,,,,,2,6.7806,,0,0,68,68,22,1,stimuli/stim_20210706_power2amp/equal_lnn_AM1.2Hz_s35_19.m4a,,,,,,,,,,,,
,,,,,41646,2021-09-26_14h42.02.711,judgeSpeechMusic_20210921_logNormShiftAmp_detection_fixS,2020.1.2,MacIntel,60,,,,,,,,,,,,,,,,,,,,,,,,,,,,,,2,8.226,,0,0,69,69,34,1,stimuli/stim_20210706_power2amp/equal_lnn_AM2.4Hz_s35_46.m4a,,,,,,,,,,,,
,,,,,41646,2021-09-26_14h42.02.711,judgeSpeechMusic_20210921_logNormShiftAmp_detection_fixS,2020.1.2,MacIntel,60,,,,,,,,,,,,,,,,,,,,,,,,,,,,,,2,6.427,,0,0,70,70,67,1,stimuli/stim_20210706_power2amp/equal_lnn_AM4.2Hz_s35_33.m4a,,,,,,,,,,,,
,,,,,41646,2021-09-26_14h42.02.711,judgeSpeechMusic_20210921_logNormShiftAmp_detection_fixS,2020.1.2,MacIntel,60,,,,,,,,,,,,,,,,,,,,,,,,,,,,,,1,10.9921,,0,0,71,71,49,1,stimuli/stim_20210706_power2amp/equal_lnn_AM3.6Hz_s35_11.m4a,,,,,,,,,,,,
,,,,,41646,2021-09-26_14h42.02.711,judgeSpeechMusic_20210921_logNormShiftAmp_detection_fixS,2020.1.2,MacIntel,60,,,,,,,,,,,,,,,,,,,,,,,,,,,,,,1,6.0417,,0,0,72,72,5,1,stimuli/stim_20210706_power2amp/equal_lnn_AM0.6Hz_s35_7.m4a,,,,,,,,,,,,
,,,,,41646,2021-09-26_14h42.02.711,judgeSpeechMusic_20210921_logNormShiftAmp_detection_fixS,2020.1.2,MacIntel,60,,,,,,,,,,,,,,,,,,,,,,,,,,,,,,2,7.5591,,0,0,73,73,65,1,stimuli/stim_20210706_power2amp/equal_lnn_AM4.2Hz_s35_8.m4a,,,,,,,,,,,,
,,,,,41646,2021-09-26_14h42.02.711,judgeSpeechMusic_20210921_logNormShiftAmp_detection_fixS,2020.1.2,MacIntel,60,,,,,,,,,,,,,,,,,,,,,,,,,,,,,,2,6.8058,,0,0,74,74,17,1,stimuli/stim_20210706_power2amp/equal_lnn_AM1.2Hz_s35_20.m4a,,,,,,,,,,,,
,,,,,41646,2021-09-26_14h42.02.711,judgeSpeechMusic_20210921_logNormShiftAmp_detection_fixS,2020.1.2,MacIntel,60,,,,,,,,,,,,,,,,,,,,,,,,,,,,,,,,,,,,,,,,,space,0.7115,0,1,1,1,1,SPEECH,stimuli/SPEECH.jpg,,
,,,,,41646,2021-09-26_14h42.02.711,judgeSpeechMusic_20210921_logNormShiftAmp_detection_fixS,2020.1.2,MacIntel,60,,,,,,,,,,,,,,,,,,0,0,0,0,0,1,stimuli/stim_20210706_power2amp/equal_lnn_AM_training0.9Hz_s35.m4a,,,,,,,,,,,,,,,,,,,,,,,,,,,
,,,,,41646,2021-09-26_14h42.02.711,judgeSpeechMusic_20210921_logNormShiftAmp_detection_fixS,2020.1.2,MacIntel,60,,,,,,,,,,,,,,,,,,,,,,,,,,space,3.7975,space,2.4141,1,8.1902,,0,0,0,0,50,1,stimuli/stim_20210706_power2amp/equal_lnn_AM3.6Hz_s35_16.m4a,,,,,,,,,,,,
,,,,,41646,2021-09-26_14h42.02.711,judgeSpeechMusic_20210921_logNormShiftAmp_detection_fixS,2020.1.2,MacIntel,60,,,,,,,,,,,,,,,,,,,,,,,,,,,,,,2,6.7763,,0,0,1,1,37,1,stimuli/stim_20210706_power2amp/equal_lnn_AM2.4Hz_s35_31.m4a,,,,,,,,,,,,
,,,,,41646,2021-09-26_14h42.02.711,judgeSpeechMusic_20210921_logNormShiftAmp_detection_fixS,2020.1.2,MacIntel,60,,,,,,,,,,,,,,,,,,,,,,,,,,,,,,1,6.4932,,0,0,2,2,28,1,stimuli/stim_20210706_power2amp/equal_lnn_AM1.2Hz_s35_4.m4a,,,,,,,,,,,,
,,,,,41646,2021-09-26_14h42.02.711,judgeSpeechMusic_20210921_logNormShiftAmp_detection_fixS,2020.1.2,MacIntel,60,,,,,,,,,,,,,,,,,,,,,,,,,,,,,,1,7.5255,,0,0,3,3,49,1,stimuli/stim_20210706_power2amp/equal_lnn_AM3.6Hz_s35_11.m4a,,,,,,,,,,,,
,,,,,41646,2021-09-26_14h42.02.711,judgeSpeechMusic_20210921_logNormShiftAmp_detection_fixS,2020.1.2,MacIntel,60,,,,,,,,,,,,,,,,,,,,,,,,,,,,,,1,7.4269,,0,0,4,4,11,1,stimuli/stim_20210706_power2amp/equal_lnn_AM0.6Hz_s35_17.m4a,,,,,,,,,,,,
,,,,,41646,2021-09-26_14h42.02.711,judgeSpeechMusic_20210921_logNormShiftAmp_detection_fixS,2020.1.2,MacIntel,60,,,,,,,,,,,,,,,,,,,,,,,,,,,,,,1,6.4592,,0,0,5,5,8,1,stimuli/stim_20210706_power2amp/equal_lnn_AM0.6Hz_s35_1.m4a,,,,,,,,,,,,
,,,,,41646,2021-09-26_14h42.02.711,judgeSpeechMusic_20210921_logNormShiftAmp_detection_fixS,2020.1.2,MacIntel,60,,,,,,,,,,,,,,,,,,,,,,,,,,,,,,2,6.3925,,0,0,6,6,54,1,stimuli/stim_20210706_power2amp/equal_lnn_AM3.6Hz_s35_10.m4a,,,,,,,,,,,,
,,,,,41646,2021-09-26_14h42.02.711,judgeSpeechMusic_20210921_logNormShiftAmp_detection_fixS,2020.1.2,MacIntel,60,,,,,,,,,,,,,,,,,,,,,,,,,,,,,,2,6.2261,,0,0,7,7,63,1,stimuli/stim_20210706_power2amp/equal_lnn_AM4.2Hz_s35_2.m4a,,,,,,,,,,,,
,,,,,41646,2021-09-26_14h42.02.711,judgeSpeechMusic_20210921_logNormShiftAmp_detection_fixS,2020.1.2,MacIntel,60,,,,,,,,,,,,,,,,,,,,,,,,,,,,,,1,6.374,,0,0,8,8,14,1,stimuli/stim_20210706_power2amp/equal_lnn_AM0.6Hz_s35_12.m4a,,,,,,,,,,,,
,,,,,41646,2021-09-26_14h42.02.711,judgeSpeechMusic_20210921_logNormShiftAmp_detection_fixS,2020.1.2,MacIntel,60,,,,,,,,,,,,,,,,,,,,,,,,,,,,,,2,7.6596,,0,0,9,9,53,1,stimuli/stim_20210706_power2amp/equal_lnn_AM3.6Hz_s35_22.m4a,,,,,,,,,,,,
,,,,,41646,2021-09-26_14h42.02.711,judgeSpeechMusic_20210921_logNormShiftAmp_detection_fixS,2020.1.2,MacIntel,60,,,,,,,,,,,,,,,,,,,,,,,,,,,,,,2,8.3425,,0,0,10,10,61,1,stimuli/stim_20210706_power2amp/equal_lnn_AM4.2Hz_s35_7.m4a,,,,,,,,,,,,
,,,,,41646,2021-09-26_14h42.02.711,judgeSpeechMusic_20210921_logNormShiftAmp_detection_fixS,2020.1.2,MacIntel,60,,,,,,,,,,,,,,,,,,,,,,,,,,,,,,1,7.3268,,0,0,11,11,10,1,stimuli/stim_20210706_power2amp/equal_lnn_AM0.6Hz_s35_27.m4a,,,,,,,,,,,,
,,,,,41646,2021-09-26_14h42.02.711,judgeSpeechMusic_20210921_logNormShiftAmp_detection_fixS,2020.1.2,MacIntel,60,,,,,,,,,,,,,,,,,,,,,,,,,,,,,,2,9.475,,0,0,12,12,52,1,stimuli/stim_20210706_power2amp/equal_lnn_AM3.6Hz_s35_24.m4a,,,,,,,,,,,,
,,,,,41646,2021-09-26_14h42.02.711,judgeSpeechMusic_20210921_logNormShiftAmp_detection_fixS,2020.1.2,MacIntel,60,,,,,,,,,,,,,,,,,,,,,,,,,,,,,,1,10.2579,,0,0,13,13,26,1,stimuli/stim_20210706_power2amp/equal_lnn_AM1.2Hz_s35_8.m4a,,,,,,,,,,,,
,,,,,41646,2021-09-26_14h42.02.711,judgeSpeechMusic_20210921_logNormShiftAmp_detection_fixS,2020.1.2,MacIntel,60,,,,,,,,,,,,,,,,,,,,,,,,,,,,,,2,8.5585,,0,0,14,14,46,1,stimuli/stim_20210706_power2amp/equal_lnn_AM3.6Hz_s35_5.m4a,,,,,,,,,,,,
,,,,,41646,2021-09-26_14h42.02.711,judgeSpeechMusic_20210921_logNormShiftAmp_detection_fixS,2020.1.2,MacIntel,60,,,,,,,,,,,,,,,,,,,,,,,,,,,,,,2,6.4623,,0,0,15,15,56,1,stimuli/stim_20210706_power2amp/equal_lnn_AM3.6Hz_s35_39.m4a,,,,,,,,,,,,
,,,,,41646,2021-09-26_14h42.02.711,judgeSpeechMusic_20210921_logNormShiftAmp_detection_fixS,2020.1.2,MacIntel,60,,,,,,,,,,,,,,,,,,,,,,,,,,,,,,1,6.2762,,0,0,16,16,4,1,stimuli/stim_20210706_power2amp/equal_lnn_AM0.6Hz_s35_23.m4a,,,,,,,,,,,,
,,,,,41646,2021-09-26_14h42.02.711,judgeSpeechMusic_20210921_logNormShiftAmp_detection_fixS,2020.1.2,MacIntel,60,,,,,,,,,,,,,,,,,,,,,,,,,,,,,,1,7.0582,,0,0,17,17,23,1,stimuli/stim_20210706_power2amp/equal_lnn_AM1.2Hz_s35_43.m4a,,,,,,,,,,,,
,,,,,41646,2021-09-26_14h42.02.711,judgeSpeechMusic_20210921_logNormShiftAmp_detection_fixS,2020.1.2,MacIntel,60,,,,,,,,,,,,,,,,,,,,,,,,,,,,,,2,7.1075,,0,0,18,18,65,1,stimuli/stim_20210706_power2amp/equal_lnn_AM4.2Hz_s35_8.m4a,,,,,,,,,,,,
,,,,,41646,2021-09-26_14h42.02.711,judgeSpeechMusic_20210921_logNormShiftAmp_detection_fixS,2020.1.2,MacIntel,60,,,,,,,,,,,,,,,,,,,,,,,,,,,,,,1,7.577,,0,0,19,19,42,1,stimuli/stim_20210706_power2amp/equal_lnn_AM2.4Hz_s35_47.m4a,,,,,,,,,,,,
,,,,,41646,2021-09-26_14h42.02.711,judgeSpeechMusic_20210921_logNormShiftAmp_detection_fixS,2020.1.2,MacIntel,60,,,,,,,,,,,,,,,,,,,,,,,,,,,,,,2,7.093,,0,0,20,20,60,1,stimuli/stim_20210706_power2amp/equal_lnn_AM4.2Hz_s35_4.m4a,,,,,,,,,,,,
,,,,,41646,2021-09-26_14h42.02.711,judgeSpeechMusic_20210921_logNormShiftAmp_detection_fixS,2020.1.2,MacIntel,60,,,,,,,,,,,,,,,,,,,,,,,,,,,,,,2,6.0087,,0,0,21,21,57,1,stimuli/stim_20210706_power2amp/equal_lnn_AM3.6Hz_s35_35.m4a,,,,,,,,,,,,
,,,,,41646,2021-09-26_14h42.02.711,judgeSpeechMusic_20210921_logNormShiftAmp_detection_fixS,2020.1.2,MacIntel,60,,,,,,,,,,,,,,,,,,,,,,,,,,,,,,1,8.8929,1,1,0,22,22,45,1,stimuli/stim_20210706_power2amp/equal_lnn_AM3.6Hz_s35_33.m4a,1.4764,,,,,,,,,,,
,,,,,41646,2021-09-26_14h42.02.711,judgeSpeechMusic_20210921_logNormShiftAmp_detection_fixS,2020.1.2,MacIntel,60,,,,,,,,,,,,,,,,,,,,,,,,,,,,,,1,12.5456,,0,0,23,23,22,1,stimuli/stim_20210706_power2amp/equal_lnn_AM1.2Hz_s35_19.m4a,,,,,,,,,,,,
,,,,,41646,2021-09-26_14h42.02.711,judgeSpeechMusic_20210921_logNormShiftAmp_detection_fixS,2020.1.2,MacIntel,60,,,,,,,,,,,,,,,,,,,,,,,,,,,,,,1,8.4437,,0,0,24,24,6,1,stimuli/stim_20210706_power2amp/equal_lnn_AM0.6Hz_s35_42.m4a,,,,,,,,,,,,
,,,,,41646,2021-09-26_14h42.02.711,judgeSpeechMusic_20210921_logNormShiftAmp_detection_fixS,2020.1.2,MacIntel,60,,,,,,,,,,,,,,,,,,,,,,,,,,,,,,1,10.8496,,0,0,25,25,30,1,stimuli/stim_20210706_power2amp/equal_lnn_AM2.4Hz_s35_25.m4a,,,,,,,,,,,,
,,,,,41646,2021-09-26_14h42.02.711,judgeSpeechMusic_20210921_logNormShiftAmp_detection_fixS,2020.1.2,MacIntel,60,,,,,,,,,,,,,,,,,,,,,,,,,,,,,,1,22.2422,,0,0,26,26,19,1,stimuli/stim_20210706_power2amp/equal_lnn_AM1.2Hz_s35_36.m4a,,,,,,,,,,,,
,,,,,41646,2021-09-26_14h42.02.711,judgeSpeechMusic_20210921_logNormShiftAmp_detection_fixS,2020.1.2,MacIntel,60,,,,,,,,,,,,,,,,,,,,,,,,,,,,,,1,6.4716,,0,0,27,27,15,1,stimuli/stim_20210706_power2amp/equal_lnn_AM1.2Hz_s35_26.m4a,,,,,,,,,,,,
,,,,,41646,2021-09-26_14h42.02.711,judgeSpeechMusic_20210921_logNormShiftAmp_detection_fixS,2020.1.2,MacIntel,60,,,,,,,,,,,,,,,,,,,,,,,,,,,,,,1,7.4085,,0,0,28,28,47,1,stimuli/stim_20210706_power2amp/equal_lnn_AM3.6Hz_s35_8.m4a,,,,,,,,,,,,
,,,,,41646,2021-09-26_14h42.02.711,judgeSpeechMusic_20210921_logNormShiftAmp_detection_fixS,2020.1.2,MacIntel,60,,,,,,,,,,,,,,,,,,,,,,,,,,,,,,2,8.1056,,0,0,29,29,58,1,stimuli/stim_20210706_power2amp/equal_lnn_AM3.6Hz_s35_17.m4a,,,,,,,,,,,,
,,,,,41646,2021-09-26_14h42.02.711,judgeSpeechMusic_20210921_logNormShiftAmp_detection_fixS,2020.1.2,MacIntel,60,,,,,,,,,,,,,,,,,,,,,,,,,,,,,,2,8.3433,,0,0,30,30,74,1,stimuli/stim_20210706_power2amp/equal_lnn_AM4.2Hz_s35_36.m4a,,,,,,,,,,,,
,,,,,41646,2021-09-26_14h42.02.711,judgeSpeechMusic_20210921_logNormShiftAmp_detection_fixS,2020.1.2,MacIntel,60,,,,,,,,,,,,,,,,,,,,,,,,,,,,,,2,10.9561,,0,0,31,31,33,1,stimuli/stim_20210706_power2amp/equal_lnn_AM2.4Hz_s35_50.m4a,,,,,,,,,,,,
,,,,,41646,2021-09-26_14h42.02.711,judgeSpeechMusic_20210921_logNormShiftAmp_detection_fixS,2020.1.2,MacIntel,60,,,,,,,,,,,,,,,,,,,,,,,,,,,,,,1,9.7427,,0,0,32,32,21,1,stimuli/stim_20210706_power2amp/equal_lnn_AM1.2Hz_s35_10.m4a,,,,,,,,,,,,
,,,,,41646,2021-09-26_14h42.02.711,judgeSpeechMusic_20210921_logNormShiftAmp_detection_fixS,2020.1.2,MacIntel,60,,,,,,,,,,,,,,,,,,,,,,,,,,,,,,1,13.5932,,0,0,33,33,3,1,stimuli/stim_20210706_power2amp/equal_lnn_AM0.6Hz_s35_36.m4a,,,,,,,,,,,,
,,,,,41646,2021-09-26_14h42.02.711,judgeSpeechMusic_20210921_logNormShiftAmp_detection_fixS,2020.1.2,MacIntel,60,,,,,,,,,,,,,,,,,,,,,,,,,,,,,,2,8.9923,,0,0,34,34,39,1,stimuli/stim_20210706_power2amp/equal_lnn_AM2.4Hz_s35_38.m4a,,,,,,,,,,,,
,,,,,41646,2021-09-26_14h42.02.711,judgeSpeechMusic_20210921_logNormShiftAmp_detection_fixS,2020.1.2,MacIntel,60,,,,,,,,,,,,,,,,,,,,,,,,,,,,,,1,7.3921,,0,0,35,35,17,1,stimuli/stim_20210706_power2amp/equal_lnn_AM1.2Hz_s35_20.m4a,,,,,,,,,,,,
,,,,,41646,2021-09-26_14h42.02.711,judgeSpeechMusic_20210921_logNormShiftAmp_detection_fixS,2020.1.2,MacIntel,60,,,,,,,,,,,,,,,,,,,,,,,,,,,,,,1,6.6288,,0,0,36,36,71,1,stimuli/stim_20210706_power2amp/equal_lnn_AM4.2Hz_s35_15.m4a,,,,,,,,,,,,
,,,,,41646,2021-09-26_14h42.02.711,judgeSpeechMusic_20210921_logNormShiftAmp_detection_fixS,2020.1.2,MacIntel,60,,,,,,,,,,,,,,,,,,,,,,,,,,,,,,1,8.2928,,0,0,37,37,48,1,stimuli/stim_20210706_power2amp/equal_lnn_AM3.6Hz_s35_15.m4a,,,,,,,,,,,,
,,,,,41646,2021-09-26_14h42.02.711,judgeSpeechMusic_20210921_logNormShiftAmp_detection_fixS,2020.1.2,MacIntel,60,,,,,,,,,,,,,,,,,,,,,,,,,,,,,,1,8.0093,,0,0,38,38,9,1,stimuli/stim_20210706_power2amp/equal_lnn_AM0.6Hz_s35_3.m4a,,,,,,,,,,,,
,,,,,41646,2021-09-26_14h42.02.711,judgeSpeechMusic_20210921_logNormShiftAmp_detection_fixS,2020.1.2,MacIntel,60,,,,,,,,,,,,,,,,,,,,,,,,,,,,,,1,7.2461,,0,0,39,39,5,1,stimuli/stim_20210706_power2amp/equal_lnn_AM0.6Hz_s35_7.m4a,,,,,,,,,,,,
,,,,,41646,2021-09-26_14h42.02.711,judgeSpeechMusic_20210921_logNormShiftAmp_detection_fixS,2020.1.2,MacIntel,60,,,,,,,,,,,,,,,,,,,,,,,,,,,,,,2,7.2925,,0,0,40,40,44,1,stimuli/stim_20210706_power2amp/equal_lnn_AM2.4Hz_s35_7.m4a,,,,,,,,,,,,
,,,,,41646,2021-09-26_14h42.02.711,judgeSpeechMusic_20210921_logNormShiftAmp_detection_fixS,2020.1.2,MacIntel,60,,,,,,,,,,,,,,,,,,,,,,,,,,,,,,2,7.7086,,0,0,41,41,55,1,stimuli/stim_20210706_power2amp/equal_lnn_AM3.6Hz_s35_50.m4a,,,,,,,,,,,,
,,,,,41646,2021-09-26_14h42.02.711,judgeSpeechMusic_20210921_logNormShiftAmp_detection_fixS,2020.1.2,MacIntel,60,,,,,,,,,,,,,,,,,,,,,,,,,,,,,,2,7.1755,,0,0,42,42,66,1,stimuli/stim_20210706_power2amp/equal_lnn_AM4.2Hz_s35_29.m4a,,,,,,,,,,,,
,,,,,41646,2021-09-26_14h42.02.711,judgeSpeechMusic_20210921_logNormShiftAmp_detection_fixS,2020.1.2,MacIntel,60,,,,,,,,,,,,,,,,,,,,,,,,,,,,,,1,8.3081,3,1,0,43,43,13,1,stimuli/stim_20210706_power2amp/equal_lnn_AM0.6Hz_s35_14.m4a,1.0742,,,,,,,,,,,
,,,,,41646,2021-09-26_14h42.02.711,judgeSpeechMusic_20210921_logNormShiftAmp_detection_fixS,2020.1.2,MacIntel,60,,,,,,,,,,,,,,,,,,,,,,,,,,,,,,1,7.2127,,0,0,44,44,64,1,stimuli/stim_20210706_power2amp/equal_lnn_AM4.2Hz_s35_9.m4a,,,,,,,,,,,,
,,,,,41646,2021-09-26_14h42.02.711,judgeSpeechMusic_20210921_logNormShiftAmp_detection_fixS,2020.1.2,MacIntel,60,,,,,,,,,,,,,,,,,,,,,,,,,,,,,,1,6.3418,,0,0,45,45,29,1,stimuli/stim_20210706_power2amp/equal_lnn_AM1.2Hz_s35_47.m4a,,,,,,,,,,,,
,,,,,41646,2021-09-26_14h42.02.711,judgeSpeechMusic_20210921_logNormShiftAmp_detection_fixS,2020.1.2,MacIntel,60,,,,,,,,,,,,,,,,,,,,,,,,,,,,,,1,9.1752,,0,0,46,46,7,1,stimuli/stim_20210706_power2amp/equal_lnn_AM0.6Hz_s35_32.m4a,,,,,,,,,,,,
,,,,,41646,2021-09-26_14h42.02.711,judgeSpeechMusic_20210921_logNormShiftAmp_detection_fixS,2020.1.2,MacIntel,60,,,,,,,,,,,,,,,,,,,,,,,,,,,,,,1,6.9096,,0,0,47,47,2,1,stimuli/stim_20210706_power2amp/equal_lnn_AM0.6Hz_s35_50.m4a,,,,,,,,,,,,
,,,,,41646,2021-09-26_14h42.02.711,judgeSpeechMusic_20210921_logNormShiftAmp_detection_fixS,2020.1.2,MacIntel,60,,,,,,,,,,,,,,,,,,,,,,,,,,,,,,2,8.0256,,0,0,48,48,38,1,stimuli/stim_20210706_power2amp/equal_lnn_AM2.4Hz_s35_39.m4a,,,,,,,,,,,,
,,,,,41646,2021-09-26_14h42.02.711,judgeSpeechMusic_20210921_logNormShiftAmp_detection_fixS,2020.1.2,MacIntel,60,,,,,,,,,,,,,,,,,,,,,,,,,,,,,,1,6.7106,,0,0,49,49,68,1,stimuli/stim_20210706_power2amp/equal_lnn_AM4.2Hz_s35_14.m4a,,,,,,,,,,,,
,,,,,41646,2021-09-26_14h42.02.711,judgeSpeechMusic_20210921_logNormShiftAmp_detection_fixS,2020.1.2,MacIntel,60,,,,,,,,,,,,,,,,,,,,,,,,,,,,,,2,6.6263,,0,0,50,50,34,1,stimuli/stim_20210706_power2amp/equal_lnn_AM2.4Hz_s35_46.m4a,,,,,,,,,,,,
,,,,,41646,2021-09-26_14h42.02.711,judgeSpeechMusic_20210921_logNormShiftAmp_detection_fixS,2020.1.2,MacIntel,60,,,,,,,,,,,,,,,,,,,,,,,,,,,,,,2,8.4424,,0,0,51,51,18,1,stimuli/stim_20210706_power2amp/equal_lnn_AM1.2Hz_s35_39.m4a,,,,,,,,,,,,
,,,,,41646,2021-09-26_14h42.02.711,judgeSpeechMusic_20210921_logNormShiftAmp_detection_fixS,2020.1.2,MacIntel,60,,,,,,,,,,,,,,,,,,,,,,,,,,,,,,1,6.8599,,0,0,52,52,73,1,stimuli/stim_20210706_power2amp/equal_lnn_AM4.2Hz_s35_5.m4a,,,,,,,,,,,,
,,,,,41646,2021-09-26_14h42.02.711,judgeSpeechMusic_20210921_logNormShiftAmp_detection_fixS,2020.1.2,MacIntel,60,,,,,,,,,,,,,,,,,,,,,,,,,,,,,,2,8.2422,,0,0,53,53,43,1,stimuli/stim_20210706_power2amp/equal_lnn_AM2.4Hz_s35_42.m4a,,,,,,,,,,,,
,,,,,41646,2021-09-26_14h42.02.711,judgeSpeechMusic_20210921_logNormShiftAmp_detection_fixS,2020.1.2,MacIntel,60,,,,,,,,,,,,,,,,,,,,,,,,,,,,,,2,10.9223,,0,0,54,54,27,1,stimuli/stim_20210706_power2amp/equal_lnn_AM1.2Hz_s35_38.m4a,,,,,,,,,,,,
,,,,,41646,2021-09-26_14h42.02.711,judgeSpeechMusic_20210921_logNormShiftAmp_detection_fixS,2020.1.2,MacIntel,60,,,,,,,,,,,,,,,,,,,,,,,,,,,,,,1,6.2581,,0,0,55,55,20,1,stimuli/stim_20210706_power2amp/equal_lnn_AM1.2Hz_s35_11.m4a,,,,,,,,,,,,
,,,,,41646,2021-09-26_14h42.02.711,judgeSpeechMusic_20210921_logNormShiftAmp_detection_fixS,2020.1.2,MacIntel,60,,,,,,,,,,,,,,,,,,,,,,,,,,,,,,2,7.1294,,0,0,56,56,32,1,stimuli/stim_20210706_power2amp/equal_lnn_AM2.4Hz_s35_17.m4a,,,,,,,,,,,,
,,,,,41646,2021-09-26_14h42.02.711,judgeSpeechMusic_20210921_logNormShiftAmp_detection_fixS,2020.1.2,MacIntel,60,,,,,,,,,,,,,,,,,,,,,,,,,,,,,,1,11.3273,,0,0,57,57,67,1,stimuli/stim_20210706_power2amp/equal_lnn_AM4.2Hz_s35_33.m4a,,,,,,,,,,,,
,,,,,41646,2021-09-26_14h42.02.711,judgeSpeechMusic_20210921_logNormShiftAmp_detection_fixS,2020.1.2,MacIntel,60,,,,,,,,,,,,,,,,,,,,,,,,,,,,,,2,9.5435,,0,0,58,58,72,1,stimuli/stim_20210706_power2amp/equal_lnn_AM4.2Hz_s35_24.m4a,,,,,,,,,,,,
,,,,,41646,2021-09-26_14h42.02.711,judgeSpeechMusic_20210921_logNormShiftAmp_detection_fixS,2020.1.2,MacIntel,60,,,,,,,,,,,,,,,,,,,,,,,,,,,,,,1,8.5452,,0,0,59,59,16,1,stimuli/stim_20210706_power2amp/equal_lnn_AM1.2Hz_s35_50.m4a,,,,,,,,,,,,
,,,,,41646,2021-09-26_14h42.02.711,judgeSpeechMusic_20210921_logNormShiftAmp_detection_fixS,2020.1.2,MacIntel,60,,,,,,,,,,,,,,,,,,,,,,,,,,,,,,1,12.9601,,0,0,60,60,12,1,stimuli/stim_20210706_power2amp/equal_lnn_AM0.6Hz_s35_18.m4a,,,,,,,,,,,,
,,,,,41646,2021-09-26_14h42.02.711,judgeSpeechMusic_20210921_logNormShiftAmp_detection_fixS,2020.1.2,MacIntel,60,,,,,,,,,,,,,,,,,,,,,,,,,,,,,,2,15.2256,,0,0,61,61,24,1,stimuli/stim_20210706_power2amp/equal_lnn_AM1.2Hz_s35_40.m4a,,,,,,,,,,,,
,,,,,41646,2021-09-26_14h42.02.711,judgeSpeechMusic_20210921_logNormShiftAmp_detection_fixS,2020.1.2,MacIntel,60,,,,,,,,,,,,,,,,,,,,,,,,,,,,,,1,6.4251,,0,0,62,62,69,1,stimuli/stim_20210706_power2amp/equal_lnn_AM4.2Hz_s35_1.m4a,,,,,,,,,,,,
,,,,,41646,2021-09-26_14h42.02.711,judgeSpeechMusic_20210921_logNormShiftAmp_detection_fixS,2020.1.2,MacIntel,60,,,,,,,,,,,,,,,,,,,,,,,,,,,,,,1,7.0763,,0,0,63,63,36,1,stimuli/stim_20210706_power2amp/equal_lnn_AM2.4Hz_s35_37.m4a,,,,,,,,,,,,
,,,,,41646,2021-09-26_14h42.02.711,judgeSpeechMusic_20210921_logNormShiftAmp_detection_fixS,2020.1.2,MacIntel,60,,,,,,,,,,,,,,,,,,,,,,,,,,,,,,2,6.4394,,0,0,64,64,70,1,stimuli/stim_20210706_power2amp/equal_lnn_AM4.2Hz_s35_10.m4a,,,,,,,,,,,,
,,,,,41646,2021-09-26_14h42.02.711,judgeSpeechMusic_20210921_logNormShiftAmp_detection_fixS,2020.1.2,MacIntel,60,,,,,,,,,,,,,,,,,,,,,,,,,,,,,,2,7.5756,4,1,0,65,65,41,1,stimuli/stim_20210706_power2amp/equal_lnn_AM2.4Hz_s35_35.m4a,3.8265,,,,,,,,,,,
,,,,,41646,2021-09-26_14h42.02.711,judgeSpeechMusic_20210921_logNormShiftAmp_detection_fixS,2020.1.2,MacIntel,60,,,,,,,,,,,,,,,,,,,,,,,,,,,,,,1,8.6936,,0,0,66,66,31,1,stimuli/stim_20210706_power2amp/equal_lnn_AM2.4Hz_s35_12.m4a,,,,,,,,,,,,
,,,,,41646,2021-09-26_14h42.02.711,judgeSpeechMusic_20210921_logNormShiftAmp_detection_fixS,2020.1.2,MacIntel,60,,,,,,,,,,,,,,,,,,,,,,,,,,,,,,1,6.9939,,0,0,67,67,35,1,stimuli/stim_20210706_power2amp/equal_lnn_AM2.4Hz_s35_36.m4a,,,,,,,,,,,,
,,,,,41646,2021-09-26_14h42.02.711,judgeSpeechMusic_20210921_logNormShiftAmp_detection_fixS,2020.1.2,MacIntel,60,,,,,,,,,,,,,,,,,,,,,,,,,,,,,,2,6.3272,,0,0,68,68,51,1,stimuli/stim_20210706_power2amp/equal_lnn_AM3.6Hz_s35_9.m4a,,,,,,,,,,,,
,,,,,41646,2021-09-26_14h42.02.711,judgeSpeechMusic_20210921_logNormShiftAmp_detection_fixS,2020.1.2,MacIntel,60,,,,,,,,,,,,,,,,,,,,,,,,,,,,,,2,7.1584,,0,0,69,69,62,1,stimuli/stim_20210706_power2amp/equal_lnn_AM4.2Hz_s35_49.m4a,,,,,,,,,,,,
,,,,,41646,2021-09-26_14h42.02.711,judgeSpeechMusic_20210921_logNormShiftAmp_detection_fixS,2020.1.2,MacIntel,60,,,,,,,,,,,,,,,,,,,,,,,,,,,,,,1,7.2103,,0,0,70,70,0,1,stimuli/stim_20210706_power2amp/equal_lnn_AM0.6Hz_s35_21.m4a,,,,,,,,,,,,
,,,,,41646,2021-09-26_14h42.02.711,judgeSpeechMusic_20210921_logNormShiftAmp_detection_fixS,2020.1.2,MacIntel,60,,,,,,,,,,,,,,,,,,,,,,,,,,,,,,2,6.9286,,0,0,71,71,25,1,stimuli/stim_20210706_power2amp/equal_lnn_AM1.2Hz_s35_31.m4a,,,,,,,,,,,,
,,,,,41646,2021-09-26_14h42.02.711,judgeSpeechMusic_20210921_logNormShiftAmp_detection_fixS,2020.1.2,MacIntel,60,,,,,,,,,,,,,,,,,,,,,,,,,,,,,,1,9.0103,,0,0,72,72,1,1,stimuli/stim_20210706_power2amp/equal_lnn_AM0.6Hz_s35_45.m4a,,,,,,,,,,,,
,,,,,41646,2021-09-26_14h42.02.711,judgeSpeechMusic_20210921_logNormShiftAmp_detection_fixS,2020.1.2,MacIntel,60,,,,,,,,,,,,,,,,,,,,,,,,,,,,,,2,8.3407,,0,0,73,73,40,1,stimuli/stim_20210706_power2amp/equal_lnn_AM2.4Hz_s35_24.m4a,,,,,,,,,,,,
,,,,,41646,2021-09-26_14h42.02.711,judgeSpeechMusic_20210921_logNormShiftAmp_detection_fixS,2020.1.2,MacIntel,60,,,,,,,,,,,,,,,,,,,,,,,,,,,,,,2,6.7742,,0,0,74,74,59,1,stimuli/stim_20210706_power2amp/equal_lnn_AM3.6Hz_s35_46.m4a,,,,,,,,,,,,
,,,,,41646,2021-09-26_14h42.02.711,judgeSpeechMusic_20210921_logNormShiftAmp_detection_fixS,2020.1.2,MacIntel,60,,,,,,,,,,,,,,,,,,,,,,,,,,,,,,,,,,,,,,,,,space,5.5606,1,0,2,0,1,MUSIC,stimuli/MUSIC.jpg,,
,,,,,41646,2021-09-26_14h42.02.711,judgeSpeechMusic_20210921_logNormShiftAmp_detection_fixS,2020.1.2,MacIntel,60,,,,,,,,,,,,,,,,,,0,0,0,0,0,1,stimuli/stim_20210706_power2amp/equal_lnn_AM_training0.9Hz_s35.m4a,,,,,,,,,,,,,,,,,,,,,,,,,,,
,,,,,41646,2021-09-26_14h42.02.711,judgeSpeechMusic_20210921_logNormShiftAmp_detection_fixS,2020.1.2,MacIntel,60,,,,,,,,,,,,,,,,,,,,,,,,,,space,3.8852,space,4.8122,2,6.3753,,0,0,0,0,40,1,stimuli/stim_20210706_power2amp/equal_lnn_AM2.4Hz_s35_24.m4a,,,,,,,,,,,,
,,,,,41646,2021-09-26_14h42.02.711,judgeSpeechMusic_20210921_logNormShiftAmp_detection_fixS,2020.1.2,MacIntel,60,,,,,,,,,,,,,,,,,,,,,,,,,,,,,,1,7.3594,,0,0,1,1,74,1,stimuli/stim_20210706_power2amp/equal_lnn_AM4.2Hz_s35_36.m4a,,,,,,,,,,,,
,,,,,41646,2021-09-26_14h42.02.711,judgeSpeechMusic_20210921_logNormShiftAmp_detection_fixS,2020.1.2,MacIntel,60,,,,,,,,,,,,,,,,,,,,,,,,,,,,,,2,8.9263,,0,0,2,2,35,1,stimuli/stim_20210706_power2amp/equal_lnn_AM2.4Hz_s35_36.m4a,,,,,,,,,,,,
,,,,,41646,2021-09-26_14h42.02.711,judgeSpeechMusic_20210921_logNormShiftAmp_detection_fixS,2020.1.2,MacIntel,60,,,,,,,,,,,,,,,,,,,,,,,,,,,,,,2,6.8573,,0,0,3,3,46,1,stimuli/stim_20210706_power2amp/equal_lnn_AM3.6Hz_s35_5.m4a,,,,,,,,,,,,
,,,,,41646,2021-09-26_14h42.02.711,judgeSpeechMusic_20210921_logNormShiftAmp_detection_fixS,2020.1.2,MacIntel,60,,,,,,,,,,,,,,,,,,,,,,,,,,,,,,2,8.8635,,0,0,4,4,17,1,stimuli/stim_20210706_power2amp/equal_lnn_AM1.2Hz_s35_20.m4a,,,,,,,,,,,,
,,,,,41646,2021-09-26_14h42.02.711,judgeSpeechMusic_20210921_logNormShiftAmp_detection_fixS,2020.1.2,MacIntel,60,,,,,,,,,,,,,,,,,,,,,,,,,,,,,,1,9.0427,,0,0,5,5,57,1,stimuli/stim_20210706_power2amp/equal_lnn_AM3.6Hz_s35_35.m4a,,,,,,,,,,,,
,,,,,41646,2021-09-26_14h42.02.711,judgeSpeechMusic_20210921_logNormShiftAmp_detection_fixS,2020.1.2,MacIntel,60,,,,,,,,,,,,,,,,,,,,,,,,,,,,,,1,11.893,,0,0,6,6,14,1,stimuli/stim_20210706_power2amp/equal_lnn_AM0.6Hz_s35_12.m4a,,,,,,,,,,,,
,,,,,41646,2021-09-26_14h42.02.711,judgeSpeechMusic_20210921_logNormShiftAmp_detection_fixS,2020.1.2,MacIntel,60,,,,,,,,,,,,,,,,,,,,,,,,,,,,,,1,6.6644,,0,0,7,7,9,1,stimuli/stim_20210706_power2amp/equal_lnn_AM0.6Hz_s35_3.m4a,,,,,,,,,,,,
,,,,,41646,2021-09-26_14h42.02.711,judgeSpeechMusic_20210921_logNormShiftAmp_detection_fixS,2020.1.2,MacIntel,60,,,,,,,,,,,,,,,,,,,,,,,,,,,,,,1,8.0085,,0,0,8,8,10,1,stimuli/stim_20210706_power2amp/equal_lnn_AM0.6Hz_s35_27.m4a,,,,,,,,,,,,
,,,,,41646,2021-09-26_14h42.02.711,judgeSpeechMusic_20210921_logNormShiftAmp_detection_fixS,2020.1.2,MacIntel,60,,,,,,,,,,,,,,,,,,,,,,,,,,,,,,2,8.0262,,0,0,9,9,50,1,stimuli/stim_20210706_power2amp/equal_lnn_AM3.6Hz_s35_16.m4a,,,,,,,,,,,,
,,,,,41646,2021-09-26_14h42.02.711,judgeSpeechMusic_20210921_logNormShiftAmp_detection_fixS,2020.1.2,MacIntel,60,,,,,,,,,,,,,,,,,,,,,,,,,,,,,,1,9.127,,0,0,10,10,68,1,stimuli/stim_20210706_power2amp/equal_lnn_AM4.2Hz_s35_14.m4a,,,,,,,,,,,,
,,,,,41646,2021-09-26_14h42.02.711,judgeSpeechMusic_20210921_logNormShiftAmp_detection_fixS,2020.1.2,MacIntel,60,,,,,,,,,,,,,,,,,,,,,,,,,,,,,,1,6.7102,,0,0,11,11,23,1,stimuli/stim_20210706_power2amp/equal_lnn_AM1.2Hz_s35_43.m4a,,,,,,,,,,,,
,,,,,41646,2021-09-26_14h42.02.711,judgeSpeechMusic_20210921_logNormShiftAmp_detection_fixS,2020.1.2,MacIntel,60,,,,,,,,,,,,,,,,,,,,,,,,,,,,,,2,6.2423,,0,0,12,12,71,1,stimuli/stim_20210706_power2amp/equal_lnn_AM4.2Hz_s35_15.m4a,,,,,,,,,,,,
,,,,,41646,2021-09-26_14h42.02.711,judgeSpeechMusic_20210921_logNormShiftAmp_detection_fixS,2020.1.2,MacIntel,60,,,,,,,,,,,,,,,,,,,,,,,,,,,,,,1,7.0427,,0,0,13,13,0,1,stimuli/stim_20210706_power2amp/equal_lnn_AM0.6Hz_s35_21.m4a,,,,,,,,,,,,
,,,,,41646,2021-09-26_14h42.02.711,judgeSpeechMusic_20210921_logNormShiftAmp_detection_fixS,2020.1.2,MacIntel,60,,,,,,,,,,,,,,,,,,,,,,,,,,,,,,2,11.5911,,0,0,14,14,26,1,stimuli/stim_20210706_power2amp/equal_lnn_AM1.2Hz_s35_8.m4a,,,,,,,,,,,,
,,,,,41646,2021-09-26_14h42.02.711,judgeSpeechMusic_20210921_logNormShiftAmp_detection_fixS,2020.1.2,MacIntel,60,,,,,,,,,,,,,,,,,,,,,,,,,,,,,,2,9.7764,,0,0,15,15,55,1,stimuli/stim_20210706_power2amp/equal_lnn_AM3.6Hz_s35_50.m4a,,,,,,,,,,,,
,,,,,41646,2021-09-26_14h42.02.711,judgeSpeechMusic_20210921_logNormShiftAmp_detection_fixS,2020.1.2,MacIntel,60,,,,,,,,,,,,,,,,,,,,,,,,,,,,,,2,10.0589,,0,0,16,16,42,1,stimuli/stim_20210706_power2amp/equal_lnn_AM2.4Hz_s35_47.m4a,,,,,,,,,,,,
,,,,,41646,2021-09-26_14h42.02.711,judgeSpeechMusic_20210921_logNormShiftAmp_detection_fixS,2020.1.2,MacIntel,60,,,,,,,,,,,,,,,,,,,,,,,,,,,,,,2,10.5931,,0,0,17,17,70,1,stimuli/stim_20210706_power2amp/equal_lnn_AM4.2Hz_s35_10.m4a,,,,,,,,,,,,
,,,,,41646,2021-09-26_14h42.02.711,judgeSpeechMusic_20210921_logNormShiftAmp_detection_fixS,2020.1.2,MacIntel,60,,,,,,,,,,,,,,,,,,,,,,,,,,,,,,2,16.1973,,0,0,18,18,59,1,stimuli/stim_20210706_power2amp/equal_lnn_AM3.6Hz_s35_46.m4a,,,,,,,,,,,,
,,,,,41646,2021-09-26_14h42.02.711,judgeSpeechMusic_20210921_logNormShiftAmp_detection_fixS,2020.1.2,MacIntel,60,,,,,,,,,,,,,,,,,,,,,,,,,,,,,,2,13.7076,,0,0,19,19,67,1,stimuli/stim_20210706_power2amp/equal_lnn_AM4.2Hz_s35_33.m4a,,,,,,,,,,,,
,,,,,41646,2021-09-26_14h42.02.711,judgeSpeechMusic_20210921_logNormShiftAmp_detection_fixS,2020.1.2,MacIntel,60,,,,,,,,,,,,,,,,,,,,,,,,,,,,,,1,8.6249,,0,0,20,20,22,1,stimuli/stim_20210706_power2amp/equal_lnn_AM1.2Hz_s35_19.m4a,,,,,,,,,,,,
,,,,,41646,2021-09-26_14h42.02.711,judgeSpeechMusic_20210921_logNormShiftAmp_detection_fixS,2020.1.2,MacIntel,60,,,,,,,,,,,,,,,,,,,,,,,,,,,,,,1,6.8092,,0,0,21,21,4,1,stimuli/stim_20210706_power2amp/equal_lnn_AM0.6Hz_s35_23.m4a,,,,,,,,,,,,
,,,,,41646,2021-09-26_14h42.02.711,judgeSpeechMusic_20210921_logNormShiftAmp_detection_fixS,2020.1.2,MacIntel,60,,,,,,,,,,,,,,,,,,,,,,,,,,,,,,1,7.6931,4,1,0,22,22,16,1,stimuli/stim_20210706_power2amp/equal_lnn_AM1.2Hz_s35_50.m4a,2.845,,,,,,,,,,,
,,,,,41646,2021-09-26_14h42.02.711,judgeSpeechMusic_20210921_logNormShiftAmp_detection_fixS,2020.1.2,MacIntel,60,,,,,,,,,,,,,,,,,,,,,,,,,,,,,,1,16.9253,,0,0,23,23,39,1,stimuli/stim_20210706_power2amp/equal_lnn_AM2.4Hz_s35_38.m4a,,,,,,,,,,,,
,,,,,41646,2021-09-26_14h42.02.711,judgeSpeechMusic_20210921_logNormShiftAmp_detection_fixS,2020.1.2,MacIntel,60,,,,,,,,,,,,,,,,,,,,,,,,,,,,,,1,6.8596,,0,0,24,24,12,1,stimuli/stim_20210706_power2amp/equal_lnn_AM0.6Hz_s35_18.m4a,,,,,,,,,,,,
,,,,,41646,2021-09-26_14h42.02.711,judgeSpeechMusic_20210921_logNormShiftAmp_detection_fixS,2020.1.2,MacIntel,60,,,,,,,,,,,,,,,,,,,,,,,,,,,,,,1,7.3424,,0,0,25,25,1,1,stimuli/stim_20210706_power2amp/equal_lnn_AM0.6Hz_s35_45.m4a,,,,,,,,,,,,
,,,,,41646,2021-09-26_14h42.02.711,judgeSpeechMusic_20210921_logNormShiftAmp_detection_fixS,2020.1.2,MacIntel,60,,,,,,,,,,,,,,,,,,,,,,,,,,,,,,2,7.6232,,0,0,26,26,52,1,stimuli/stim_20210706_power2amp/equal_lnn_AM3.6Hz_s35_24.m4a,,,,,,,,,,,,
,,,,,41646,2021-09-26_14h42.02.711,judgeSpeechMusic_20210921_logNormShiftAmp_detection_fixS,2020.1.2,MacIntel,60,,,,,,,,,,,,,,,,,,,,,,,,,,,,,,1,6.6763,,0,0,27,27,6,1,stimuli/stim_20210706_power2amp/equal_lnn_AM0.6Hz_s35_42.m4a,,,,,,,,,,,,
,,,,,41646,2021-09-26_14h42.02.711,judgeSpeechMusic_20210921_logNormShiftAmp_detection_fixS,2020.1.2,MacIntel,60,,,,,,,,,,,,,,,,,,,,,,,,,,,,,,1,9.6265,,0,0,28,28,24,1,stimuli/stim_20210706_power2amp/equal_lnn_AM1.2Hz_s35_40.m4a,,,,,,,,,,,,
,,,,,41646,2021-09-26_14h42.02.711,judgeSpeechMusic_20210921_logNormShiftAmp_detection_fixS,2020.1.2,MacIntel,60,,,,,,,,,,,,,,,,,,,,,,,,,,,,,,1,12.3747,,0,0,29,29,20,1,stimuli/stim_20210706_power2amp/equal_lnn_AM1.2Hz_s35_11.m4a,,,,,,,,,,,,
,,,,,41646,2021-09-26_14h42.02.711,judgeSpeechMusic_20210921_logNormShiftAmp_detection_fixS,2020.1.2,MacIntel,60,,,,,,,,,,,,,,,,,,,,,,,,,,,,,,1,8.2446,,0,0,30,30,11,1,stimuli/stim_20210706_power2amp/equal_lnn_AM0.6Hz_s35_17.m4a,,,,,,,,,,,,
,,,,,41646,2021-09-26_14h42.02.711,judgeSpeechMusic_20210921_logNormShiftAmp_detection_fixS,2020.1.2,MacIntel,60,,,,,,,,,,,,,,,,,,,,,,,,,,,,,,2,7.1093,,0,0,31,31,27,1,stimuli/stim_20210706_power2amp/equal_lnn_AM1.2Hz_s35_38.m4a,,,,,,,,,,,,
,,,,,41646,2021-09-26_14h42.02.711,judgeSpeechMusic_20210921_logNormShiftAmp_detection_fixS,2020.1.2,MacIntel,60,,,,,,,,,,,,,,,,,,,,,,,,,,,,,,2,10.1585,,0,0,32,32,51,1,stimuli/stim_20210706_power2amp/equal_lnn_AM3.6Hz_s35_9.m4a,,,,,,,,,,,,
,,,,,41646,2021-09-26_14h42.02.711,judgeSpeechMusic_20210921_logNormShiftAmp_detection_fixS,2020.1.2,MacIntel,60,,,,,,,,,,,,,,,,,,,,,,,,,,,,,,1,6.4593,,0,0,33,33,54,1,stimuli/stim_20210706_power2amp/equal_lnn_AM3.6Hz_s35_10.m4a,,,,,,,,,,,,
,,,,,41646,2021-09-26_14h42.02.711,judgeSpeechMusic_20210921_logNormShiftAmp_detection_fixS,2020.1.2,MacIntel,60,,,,,,,,,,,,,,,,,,,,,,,,,,,,,,1,7.6967,,0,0,34,34,73,1,stimuli/stim_20210706_power2amp/equal_lnn_AM4.2Hz_s35_5.m4a,,,,,,,,,,,,
,,,,,41646,2021-09-26_14h42.02.711,judgeSpeechMusic_20210921_logNormShiftAmp_detection_fixS,2020.1.2,MacIntel,60,,,,,,,,,,,,,,,,,,,,,,,,,,,,,,2,10.5436,,0,0,35,35,49,1,stimuli/stim_20210706_power2amp/equal_lnn_AM3.6Hz_s35_11.m4a,,,,,,,,,,,,
,,,,,41646,2021-09-26_14h42.02.711,judgeSpeechMusic_20210921_logNormShiftAmp_detection_fixS,2020.1.2,MacIntel,60,,,,,,,,,,,,,,,,,,,,,,,,,,,,,,2,6.0255,,0,0,36,36,36,1,stimuli/stim_20210706_power2amp/equal_lnn_AM2.4Hz_s35_37.m4a,,,,,,,,,,,,
,,,,,41646,2021-09-26_14h42.02.711,judgeSpeechMusic_20210921_logNormShiftAmp_detection_fixS,2020.1.2,MacIntel,60,,,,,,,,,,,,,,,,,,,,,,,,,,,,,,2,11.0764,,0,0,37,37,53,1,stimuli/stim_20210706_power2amp/equal_lnn_AM3.6Hz_s35_22.m4a,,,,,,,,,,,,
,,,,,41646,2021-09-26_14h42.02.711,judgeSpeechMusic_20210921_logNormShiftAmp_detection_fixS,2020.1.2,MacIntel,60,,,,,,,,,,,,,,,,,,,,,,,,,,,,,,1,6.9963,,0,0,38,38,31,1,stimuli/stim_20210706_power2amp/equal_lnn_AM2.4Hz_s35_12.m4a,,,,,,,,,,,,
,,,,,41646,2021-09-26_14h42.02.711,judgeSpeechMusic_20210921_logNormShiftAmp_detection_fixS,2020.1.2,MacIntel,60,,,,,,,,,,,,,,,,,,,,,,,,,,,,,,2,10.6928,,0,0,39,39,58,1,stimuli/stim_20210706_power2amp/equal_lnn_AM3.6Hz_s35_17.m4a,,,,,,,,,,,,
,,,,,41646,2021-09-26_14h42.02.711,judgeSpeechMusic_20210921_logNormShiftAmp_detection_fixS,2020.1.2,MacIntel,60,,,,,,,,,,,,,,,,,,,,,,,,,,,,,,2,8.5601,,0,0,40,40,41,1,stimuli/stim_20210706_power2amp/equal_lnn_AM2.4Hz_s35_35.m4a,,,,,,,,,,,,
,,,,,41646,2021-09-26_14h42.02.711,judgeSpeechMusic_20210921_logNormShiftAmp_detection_fixS,2020.1.2,MacIntel,60,,,,,,,,,,,,,,,,,,,,,,,,,,,,,,2,9.9754,,0,0,41,41,60,1,stimuli/stim_20210706_power2amp/equal_lnn_AM4.2Hz_s35_4.m4a,,,,,,,,,,,,
,,,,,41646,2021-09-26_14h42.02.711,judgeSpeechMusic_20210921_logNormShiftAmp_detection_fixS,2020.1.2,MacIntel,60,,,,,,,,,,,,,,,,,,,,,,,,,,,,,,1,10.1797,,0,0,42,42,32,1,stimuli/stim_20210706_power2amp/equal_lnn_AM2.4Hz_s35_17.m4a,,,,,,,,,,,,
,,,,,41646,2021-09-26_14h42.02.711,judgeSpeechMusic_20210921_logNormShiftAmp_detection_fixS,2020.1.2,MacIntel,60,,,,,,,,,,,,,,,,,,,,,,,,,,,,,,1,10.8091,2,1,0,43,43,34,1,stimuli/stim_20210706_power2amp/equal_lnn_AM2.4Hz_s35_46.m4a,1.1768,,,,,,,,,,,
,,,,,41646,2021-09-26_14h42.02.711,judgeSpeechMusic_20210921_logNormShiftAmp_detection_fixS,2020.1.2,MacIntel,60,,,,,,,,,,,,,,,,,,,,,,,,,,,,,,1,7.0585,,0,0,44,44,72,1,stimuli/stim_20210706_power2amp/equal_lnn_AM4.2Hz_s35_24.m4a,,,,,,,,,,,,
,,,,,41646,2021-09-26_14h42.02.711,judgeSpeechMusic_20210921_logNormShiftAmp_detection_fixS,2020.1.2,MacIntel,60,,,,,,,,,,,,,,,,,,,,,,,,,,,,,,1,5.8977,,0,0,45,45,21,1,stimuli/stim_20210706_power2amp/equal_lnn_AM1.2Hz_s35_10.m4a,,,,,,,,,,,,
,,,,,41646,2021-09-26_14h42.02.711,judgeSpeechMusic_20210921_logNormShiftAmp_detection_fixS,2020.1.2,MacIntel,60,,,,,,,,,,,,,,,,,,,,,,,,,,,,,,2,11.2262,,0,0,46,46,37,1,stimuli/stim_20210706_power2amp/equal_lnn_AM2.4Hz_s35_31.m4a,,,,,,,,,,,,
,,,,,41646,2021-09-26_14h42.02.711,judgeSpeechMusic_20210921_logNormShiftAmp_detection_fixS,2020.1.2,MacIntel,60,,,,,,,,,,,,,,,,,,,,,,,,,,,,,,1,12.0972,,0,0,47,47,13,1,stimuli/stim_20210706_power2amp/equal_lnn_AM0.6Hz_s35_14.m4a,,,,,,,,,,,,
,,,,,41646,2021-09-26_14h42.02.711,judgeSpeechMusic_20210921_logNormShiftAmp_detection_fixS,2020.1.2,MacIntel,60,,,,,,,,,,,,,,,,,,,,,,,,,,,,,,1,10.1253,,0,0,48,48,18,1,stimuli/stim_20210706_power2amp/equal_lnn_AM1.2Hz_s35_39.m4a,,,,,,,,,,,,
,,,,,41646,2021-09-26_14h42.02.711,judgeSpeechMusic_20210921_logNormShiftAmp_detection_fixS,2020.1.2,MacIntel,60,,,,,,,,,,,,,,,,,,,,,,,,,,,,,,1,14.2754,,0,0,49,49,29,1,stimuli/stim_20210706_power2amp/equal_lnn_AM1.2Hz_s35_47.m4a,,,,,,,,,,,,
,,,,,41646,2021-09-26_14h42.02.711,judgeSpeechMusic_20210921_logNormShiftAmp_detection_fixS,2020.1.2,MacIntel,60,,,,,,,,,,,,,,,,,,,,,,,,,,,,,,2,8.176,,0,0,50,50,66,1,stimuli/stim_20210706_power2amp/equal_lnn_AM4.2Hz_s35_29.m4a,,,,,,,,,,,,
,,,,,41646,2021-09-26_14h42.02.711,judgeSpeechMusic_20210921_logNormShiftAmp_detection_fixS,2020.1.2,MacIntel,60,,,,,,,,,,,,,,,,,,,,,,,,,,,,,,1,7.9433,,0,0,51,51,28,1,stimuli/stim_20210706_power2amp/equal_lnn_AM1.2Hz_s35_4.m4a,,,,,,,,,,,,
,,,,,41646,2021-09-26_14h42.02.711,judgeSpeechMusic_20210921_logNormShiftAmp_detection_fixS,2020.1.2,MacIntel,60,,,,,,,,,,,,,,,,,,,,,,,,,,,,,,1,7.1755,,0,0,52,52,3,1,stimuli/stim_20210706_power2amp/equal_lnn_AM0.6Hz_s35_36.m4a,,,,,,,,,,,,
,,,,,41646,2021-09-26_14h42.02.711,judgeSpeechMusic_20210921_logNormShiftAmp_detection_fixS,2020.1.2,MacIntel,60,,,,,,,,,,,,,,,,,,,,,,,,,,,,,,1,9.5958,,0,0,53,53,8,1,stimuli/stim_20210706_power2amp/equal_lnn_AM0.6Hz_s35_1.m4a,,,,,,,,,,,,
,,,,,41646,2021-09-26_14h42.02.711,judgeSpeechMusic_20210921_logNormShiftAmp_detection_fixS,2020.1.2,MacIntel,60,,,,,,,,,,,,,,,,,,,,,,,,,,,,,,2,10.0759,,0,0,54,54,69,1,stimuli/stim_20210706_power2amp/equal_lnn_AM4.2Hz_s35_1.m4a,,,,,,,,,,,,
,,,,,41646,2021-09-26_14h42.02.711,judgeSpeechMusic_20210921_logNormShiftAmp_detection_fixS,2020.1.2,MacIntel,60,,,,,,,,,,,,,,,,,,,,,,,,,,,,,,2,6.8279,,0,0,55,55,63,1,stimuli/stim_20210706_power2amp/equal_lnn_AM4.2Hz_s35_2.m4a,,,,,,,,,,,,
,,,,,41646,2021-09-26_14h42.02.711,judgeSpeechMusic_20210921_logNormShiftAmp_detection_fixS,2020.1.2,MacIntel,60,,,,,,,,,,,,,,,,,,,,,,,,,,,,,,2,10.974,,0,0,56,56,45,1,stimuli/stim_20210706_power2amp/equal_lnn_AM3.6Hz_s35_33.m4a,,,,,,,,,,,,
,,,,,41646,2021-09-26_14h42.02.711,judgeSpeechMusic_20210921_logNormShiftAmp_detection_fixS,2020.1.2,MacIntel,60,,,,,,,,,,,,,,,,,,,,,,,,,,,,,,2,7.9604,,0,0,57,57,47,1,stimuli/stim_20210706_power2amp/equal_lnn_AM3.6Hz_s35_8.m4a,,,,,,,,,,,,
,,,,,41646,2021-09-26_14h42.02.711,judgeSpeechMusic_20210921_logNormShiftAmp_detection_fixS,2020.1.2,MacIntel,60,,,,,,,,,,,,,,,,,,,,,,,,,,,,,,2,7.4246,,0,0,58,58,64,1,stimuli/stim_20210706_power2amp/equal_lnn_AM4.2Hz_s35_9.m4a,,,,,,,,,,,,
,,,,,41646,2021-09-26_14h42.02.711,judgeSpeechMusic_20210921_logNormShiftAmp_detection_fixS,2020.1.2,MacIntel,60,,,,,,,,,,,,,,,,,,,,,,,,,,,,,,1,7.7772,,0,0,59,59,19,1,stimuli/stim_20210706_power2amp/equal_lnn_AM1.2Hz_s35_36.m4a,,,,,,,,,,,,
,,,,,41646,2021-09-26_14h42.02.711,judgeSpeechMusic_20210921_logNormShiftAmp_detection_fixS,2020.1.2,MacIntel,60,,,,,,,,,,,,,,,,,,,,,,,,,,,,,,1,61.9072,,0,0,60,60,65,1,stimuli/stim_20210706_power2amp/equal_lnn_AM4.2Hz_s35_8.m4a,,,,,,,,,,,,
,,,,,41646,2021-09-26_14h42.02.711,judgeSpeechMusic_20210921_logNormShiftAmp_detection_fixS,2020.1.2,MacIntel,60,,,,,,,,,,,,,,,,,,,,,,,,,,,,,,2,5.7263,,0,0,61,61,48,1,stimuli/stim_20210706_power2amp/equal_lnn_AM3.6Hz_s35_15.m4a,,,,,,,,,,,,
,,,,,41646,2021-09-26_14h42.02.711,judgeSpeechMusic_20210921_logNormShiftAmp_detection_fixS,2020.1.2,MacIntel,60,,,,,,,,,,,,,,,,,,,,,,,,,,,,,,2,7.0257,,0,0,62,62,43,1,stimuli/stim_20210706_power2amp/equal_lnn_AM2.4Hz_s35_42.m4a,,,,,,,,,,,,
,,,,,41646,2021-09-26_14h42.02.711,judgeSpeechMusic_20210921_logNormShiftAmp_detection_fixS,2020.1.2,MacIntel,60,,,,,,,,,,,,,,,,,,,,,,,,,,,,,,2,5.7105,,0,0,63,63,56,1,stimuli/stim_20210706_power2amp/equal_lnn_AM3.6Hz_s35_39.m4a,,,,,,,,,,,,
,,,,,41646,2021-09-26_14h42.02.711,judgeSpeechMusic_20210921_logNormShiftAmp_detection_fixS,2020.1.2,MacIntel,60,,,,,,,,,,,,,,,,,,,,,,,,,,,,,,2,7.9912,,0,0,64,64,30,1,stimuli/stim_20210706_power2amp/equal_lnn_AM2.4Hz_s35_25.m4a,,,,,,,,,,,,
,,,,,41646,2021-09-26_14h42.02.711,judgeSpeechMusic_20210921_logNormShiftAmp_detection_fixS,2020.1.2,MacIntel,60,,,,,,,,,,,,,,,,,,,,,,,,,,,,,,1,5.7258,2,1,0,65,65,44,1,stimuli/stim_20210706_power2amp/equal_lnn_AM2.4Hz_s35_7.m4a,5.292,,,,,,,,,,,
,,,,,41646,2021-09-26_14h42.02.711,judgeSpeechMusic_20210921_logNormShiftAmp_detection_fixS,2020.1.2,MacIntel,60,,,,,,,,,,,,,,,,,,,,,,,,,,,,,,1,6.5764,,0,0,66,66,25,1,stimuli/stim_20210706_power2amp/equal_lnn_AM1.2Hz_s35_31.m4a,,,,,,,,,,,,
,,,,,41646,2021-09-26_14h42.02.711,judgeSpeechMusic_20210921_logNormShiftAmp_detection_fixS,2020.1.2,MacIntel,60,,,,,,,,,,,,,,,,,,,,,,,,,,,,,,2,6.3088,,0,0,67,67,38,1,stimuli/stim_20210706_power2amp/equal_lnn_AM2.4Hz_s35_39.m4a,,,,,,,,,,,,
,,,,,41646,2021-09-26_14h42.02.711,judgeSpeechMusic_20210921_logNormShiftAmp_detection_fixS,2020.1.2,MacIntel,60,,,,,,,,,,,,,,,,,,,,,,,,,,,,,,1,6.3765,,0,0,68,68,7,1,stimuli/stim_20210706_power2amp/equal_lnn_AM0.6Hz_s35_32.m4a,,,,,,,,,,,,
,,,,,41646,2021-09-26_14h42.02.711,judgeSpeechMusic_20210921_logNormShiftAmp_detection_fixS,2020.1.2,MacIntel,60,,,,,,,,,,,,,,,,,,,,,,,,,,,,,,2,5.7087,,0,0,69,69,33,1,stimuli/stim_20210706_power2amp/equal_lnn_AM2.4Hz_s35_50.m4a,,,,,,,,,,,,
,,,,,41646,2021-09-26_14h42.02.711,judgeSpeechMusic_20210921_logNormShiftAmp_detection_fixS,2020.1.2,MacIntel,60,,,,,,,,,,,,,,,,,,,,,,,,,,,,,,1,6.6764,,0,0,70,70,2,1,stimuli/stim_20210706_power2amp/equal_lnn_AM0.6Hz_s35_50.m4a,,,,,,,,,,,,
,,,,,41646,2021-09-26_14h42.02.711,judgeSpeechMusic_20210921_logNormShiftAmp_detection_fixS,2020.1.2,MacIntel,60,,,,,,,,,,,,,,,,,,,,,,,,,,,,,,2,5.9312,,0,0,71,71,61,1,stimuli/stim_20210706_power2amp/equal_lnn_AM4.2Hz_s35_7.m4a,,,,,,,,,,,,
,,,,,41646,2021-09-26_14h42.02.711,judgeSpeechMusic_20210921_logNormShiftAmp_detection_fixS,2020.1.2,MacIntel,60,,,,,,,,,,,,,,,,,,,,,,,,,,,,,,1,7.7965,,0,0,72,72,5,1,stimuli/stim_20210706_power2amp/equal_lnn_AM0.6Hz_s35_7.m4a,,,,,,,,,,,,
,,,,,41646,2021-09-26_14h42.02.711,judgeSpeechMusic_20210921_logNormShiftAmp_detection_fixS,2020.1.2,MacIntel,60,,,,,,,,,,,,,,,,,,,,,,,,,,,,,,1,8.4593,,0,0,73,73,62,1,stimuli/stim_20210706_power2amp/equal_lnn_AM4.2Hz_s35_49.m4a,,,,,,,,,,,,
,,,,,41646,2021-09-26_14h42.02.711,judgeSpeechMusic_20210921_logNormShiftAmp_detection_fixS,2020.1.2,MacIntel,60,,,,,,,,,,,,,,,,,,,,,,,,,,,,,,2,6.7479,,0,0,74,74,15,1,stimuli/stim_20210706_power2amp/equal_lnn_AM1.2Hz_s35_26.m4a,,,,,,,,,,,,
,,,,,41646,2021-09-26_14h42.02.711,judgeSpeechMusic_20210921_logNormShiftAmp_detection_fixS,2020.1.2,MacIntel,60,,,,,,,,,,,,,,,,,,,,,,,,,,,,,,,,,,,,,,,,,,,1,1,3,1,1,SPEECH,stimuli/SPEECH.jpg,,
,,,,,41646,2021-09-26_14h42.02.711,judgeSpeechMusic_20210921_logNormShiftAmp_detection_fixS,2020.1.2,MacIntel,60,,,,,,,,,,,,,,,,,,,,,,,,,,,,,,,,,,,,,,,,,,,,,,,,,,space,4.8226
