volAdjustRep.thisRepN,volAdjustRep.thisTrialN,volAdjustRep.thisN,volAdjustRep.thisIndex,volAdjustRep.ran,participant,date,expName,psychopyVersion,OS,frameRate,headphoneResponse.keys,headphoneResponse.corr,headphoneResponse.rt,headphoneTrial.thisRepN,headphoneTrial.thisTrialN,headphoneTrial.thisN,headphoneTrial.thisIndex,headphoneTrial.ran,headphone_sound1,headphone_sound2,headphone_sound3,corrAns,checkInstruKey.keys,checkInstruKey.rt,trainSlider.response,trainSlider.rt,beepTrainResponse.keys,beepTrainResponse.corr,trainingTrials.thisRepN,trainingTrials.thisTrialN,trainingTrials.thisN,trainingTrials.thisIndex,trainingTrials.ran,trainAudioFile,beepTrainResponse.rt,readyReal_resp.keys,readyReal_resp.rt,checkInstru2_key.keys,checkInstru2_key.rt,ratingSlider.response,ratingSlider.rt,beepResp.keys,beepResp.corr,expTrials.thisRepN,expTrials.thisTrialN,expTrials.thisN,expTrials.thisIndex,expTrials.ran,audioFile,beepResp.rt,switchBlock_space.keys,switchBlock_space.rt,block.thisRepN,block.thisTrialN,block.thisN,block.thisIndex,block.ran,blockName,blockImage,end_resp.keys,end_resp.rt
0,0,0,0,1,41658,2021-09-24_14h39.47.878,judgeSpeechMusic_20210921_logNormShiftAmp_detection_fixS,2020.1.2,Win32,60,,,,,,,,,,,,,,,,,,,,,,,,,,,,,,,,,,,,,,,,,,,,,,,,,,,
,,,,,41658,2021-09-24_14h39.47.878,judgeSpeechMusic_20210921_logNormShiftAmp_detection_fixS,2020.1.2,Win32,60,1,1,7.099,0,0,0,5,1,stimuli/screen_quiet.wav,stimuli/screen_origin.wav,stimuli/screen_antiphase.wav,1,,,,,,,,,,,,,,,,,,,,,,,,,,,,,,,,,,,,,,,
,,,,,41658,2021-09-24_14h39.47.878,judgeSpeechMusic_20210921_logNormShiftAmp_detection_fixS,2020.1.2,Win32,60,3,1,0.5216,0,1,1,2,1,stimuli/screen_origin.wav,stimuli/screen_antiphase.wav,stimuli/screen_quiet.wav,3,,,,,,,,,,,,,,,,,,,,,,,,,,,,,,,,,,,,,,,
,,,,,41658,2021-09-24_14h39.47.878,judgeSpeechMusic_20210921_logNormShiftAmp_detection_fixS,2020.1.2,Win32,60,1,1,1.4264,0,2,2,4,1,stimuli/screen_quiet.wav,stimuli/screen_antiphase.wav,stimuli/screen_origin.wav,1,,,,,,,,,,,,,,,,,,,,,,,,,,,,,,,,,,,,,,,
,,,,,41658,2021-09-24_14h39.47.878,judgeSpeechMusic_20210921_logNormShiftAmp_detection_fixS,2020.1.2,Win32,60,2,1,0.61,0,3,3,1,1,stimuli/screen_antiphase.wav,stimuli/screen_quiet.wav,stimuli/screen_origin.wav,2,,,,,,,,,,,,,,,,,,,,,,,,,,,,,,,,,,,,,,,
,,,,,41658,2021-09-24_14h39.47.878,judgeSpeechMusic_20210921_logNormShiftAmp_detection_fixS,2020.1.2,Win32,60,3,1,0.4779,0,4,4,0,1,stimuli/screen_antiphase.wav,stimuli/screen_origin.wav,stimuli/screen_quiet.wav,3,,,,,,,,,,,,,,,,,,,,,,,,,,,,,,,,,,,,,,,
,,,,,41658,2021-09-24_14h39.47.878,judgeSpeechMusic_20210921_logNormShiftAmp_detection_fixS,2020.1.2,Win32,60,2,1,0.4533,0,5,5,3,1,stimuli/screen_origin.wav,stimuli/screen_quiet.wav,stimuli/screen_antiphase.wav,2,,,,,,,,,,,,,,,,,,,,,,,,,,,,,,,,,,,,,,,
,,,,,41658,2021-09-24_14h39.47.878,judgeSpeechMusic_20210921_logNormShiftAmp_detection_fixS,2020.1.2,Win32,60,,,,,,,,,,,,,space,1.4843,1,9.6762,,0,0,0,0,1,1,stimuli/stim_20210706_power2amp/equal_lnn_AM_training1.8Hz_s35.m4a,,,,,,,,,,,,,,,,,,,,,,,,,,,
,,,,,41658,2021-09-24_14h39.47.878,judgeSpeechMusic_20210921_logNormShiftAmp_detection_fixS,2020.1.2,Win32,60,,,,,,,,,,,,,,,1,9.432,,0,0,1,1,2,1,stimuli/stim_20210706_power2amp/equal_lnn_AM_training3Hz_s35.m4a,,,,,,,,,,,,,,,,,,,,,,,,,,,
,,,,,41658,2021-09-24_14h39.47.878,judgeSpeechMusic_20210921_logNormShiftAmp_detection_fixS,2020.1.2,Win32,60,,,,,,,,,,,,,,,1,13.9205,1,1,0,2,2,3,1,stimuli/stim_20210706_power2amp/equal_lnn_AM_training3.9Hz_s35.m4a,1.6788,,,,,,,,,,,,,,,,,,,,,,,,,,
,,,,,41658,2021-09-24_14h39.47.878,judgeSpeechMusic_20210921_logNormShiftAmp_detection_fixS,2020.1.2,Win32,60,,,,,,,,,,,,,,,2,15.0617,,0,0,3,3,0,1,stimuli/stim_20210706_power2amp/equal_lnn_AM_training0.9Hz_s35.m4a,,,,,,,,,,,,,,,,,,,,,,,,,,,
,,,,,41658,2021-09-24_14h39.47.878,judgeSpeechMusic_20210921_logNormShiftAmp_detection_fixS,2020.1.2,Win32,60,,,,,,,,,,,,,,,,,,,,,,,,,,space,9.0003,space,0.6163,1,7.8365,,0,0,0,0,5,1,stimuli/stim_20210706_power2amp/equal_lnn_AM0.6Hz_s35_43.m4a,,,,,,,,,,,,
,,,,,41658,2021-09-24_14h39.47.878,judgeSpeechMusic_20210921_logNormShiftAmp_detection_fixS,2020.1.2,Win32,60,,,,,,,,,,,,,,,,,,,,,,,,,,,,,,1,7.3558,,0,0,1,1,66,1,stimuli/stim_20210706_power2amp/equal_lnn_AM4.2Hz_s35_37.m4a,,,,,,,,,,,,
,,,,,41658,2021-09-24_14h39.47.878,judgeSpeechMusic_20210921_logNormShiftAmp_detection_fixS,2020.1.2,Win32,60,,,,,,,,,,,,,,,,,,,,,,,,,,,,,,1,22.1242,,0,0,2,2,60,1,stimuli/stim_20210706_power2amp/equal_lnn_AM4.2Hz_s35_19.m4a,,,,,,,,,,,,
,,,,,41658,2021-09-24_14h39.47.878,judgeSpeechMusic_20210921_logNormShiftAmp_detection_fixS,2020.1.2,Win32,60,,,,,,,,,,,,,,,,,,,,,,,,,,,,,,2,13.62,,0,0,3,3,31,1,stimuli/stim_20210706_power2amp/equal_lnn_AM2.4Hz_s35_25.m4a,,,,,,,,,,,,
,,,,,41658,2021-09-24_14h39.47.878,judgeSpeechMusic_20210921_logNormShiftAmp_detection_fixS,2020.1.2,Win32,60,,,,,,,,,,,,,,,,,,,,,,,,,,,,,,1,9.1161,,0,0,4,4,33,1,stimuli/stim_20210706_power2amp/equal_lnn_AM2.4Hz_s35_26.m4a,,,,,,,,,,,,
,,,,,41658,2021-09-24_14h39.47.878,judgeSpeechMusic_20210921_logNormShiftAmp_detection_fixS,2020.1.2,Win32,60,,,,,,,,,,,,,,,,,,,,,,,,,,,,,,2,6.2068,,0,0,5,5,45,1,stimuli/stim_20210706_power2amp/equal_lnn_AM3.6Hz_s35_33.m4a,,,,,,,,,,,,
,,,,,41658,2021-09-24_14h39.47.878,judgeSpeechMusic_20210921_logNormShiftAmp_detection_fixS,2020.1.2,Win32,60,,,,,,,,,,,,,,,,,,,,,,,,,,,,,,2,7.8538,,0,0,6,6,10,1,stimuli/stim_20210706_power2amp/equal_lnn_AM0.6Hz_s35_15.m4a,,,,,,,,,,,,
,,,,,41658,2021-09-24_14h39.47.878,judgeSpeechMusic_20210921_logNormShiftAmp_detection_fixS,2020.1.2,Win32,60,,,,,,,,,,,,,,,,,,,,,,,,,,,,,,1,7.0571,,0,0,7,7,50,1,stimuli/stim_20210706_power2amp/equal_lnn_AM3.6Hz_s35_24.m4a,,,,,,,,,,,,
,,,,,41658,2021-09-24_14h39.47.878,judgeSpeechMusic_20210921_logNormShiftAmp_detection_fixS,2020.1.2,Win32,60,,,,,,,,,,,,,,,,,,,,,,,,,,,,,,2,6.2555,,0,0,8,8,26,1,stimuli/stim_20210706_power2amp/equal_lnn_AM1.2Hz_s35_17.m4a,,,,,,,,,,,,
,,,,,41658,2021-09-24_14h39.47.878,judgeSpeechMusic_20210921_logNormShiftAmp_detection_fixS,2020.1.2,Win32,60,,,,,,,,,,,,,,,,,,,,,,,,,,,,,,1,6.4535,,0,0,9,9,21,1,stimuli/stim_20210706_power2amp/equal_lnn_AM1.2Hz_s35_33.m4a,,,,,,,,,,,,
,,,,,41658,2021-09-24_14h39.47.878,judgeSpeechMusic_20210921_logNormShiftAmp_detection_fixS,2020.1.2,Win32,60,,,,,,,,,,,,,,,,,,,,,,,,,,,,,,2,6.2719,,0,0,10,10,38,1,stimuli/stim_20210706_power2amp/equal_lnn_AM2.4Hz_s35_29.m4a,,,,,,,,,,,,
,,,,,41658,2021-09-24_14h39.47.878,judgeSpeechMusic_20210921_logNormShiftAmp_detection_fixS,2020.1.2,Win32,60,,,,,,,,,,,,,,,,,,,,,,,,,,,,,,2,7.2396,,0,0,11,11,30,1,stimuli/stim_20210706_power2amp/equal_lnn_AM2.4Hz_s35_38.m4a,,,,,,,,,,,,
,,,,,41658,2021-09-24_14h39.47.878,judgeSpeechMusic_20210921_logNormShiftAmp_detection_fixS,2020.1.2,Win32,60,,,,,,,,,,,,,,,,,,,,,,,,,,,,,,1,7.5209,,0,0,12,12,42,1,stimuli/stim_20210706_power2amp/equal_lnn_AM2.4Hz_s35_35.m4a,,,,,,,,,,,,
,,,,,41658,2021-09-24_14h39.47.878,judgeSpeechMusic_20210921_logNormShiftAmp_detection_fixS,2020.1.2,Win32,60,,,,,,,,,,,,,,,,,,,,,,,,,,,,,,2,9.3553,,0,0,13,13,13,1,stimuli/stim_20210706_power2amp/equal_lnn_AM0.6Hz_s35_36.m4a,,,,,,,,,,,,
,,,,,41658,2021-09-24_14h39.47.878,judgeSpeechMusic_20210921_logNormShiftAmp_detection_fixS,2020.1.2,Win32,60,,,,,,,,,,,,,,,,,,,,,,,,,,,,,,1,6.8839,,0,0,14,14,39,1,stimuli/stim_20210706_power2amp/equal_lnn_AM2.4Hz_s35_14.m4a,,,,,,,,,,,,
,,,,,41658,2021-09-24_14h39.47.878,judgeSpeechMusic_20210921_logNormShiftAmp_detection_fixS,2020.1.2,Win32,60,,,,,,,,,,,,,,,,,,,,,,,,,,,,,,2,8.3398,,0,0,15,15,70,1,stimuli/stim_20210706_power2amp/equal_lnn_AM4.2Hz_s35_46.m4a,,,,,,,,,,,,
,,,,,41658,2021-09-24_14h39.47.878,judgeSpeechMusic_20210921_logNormShiftAmp_detection_fixS,2020.1.2,Win32,60,,,,,,,,,,,,,,,,,,,,,,,,,,,,,,2,6.3342,,0,0,16,16,23,1,stimuli/stim_20210706_power2amp/equal_lnn_AM1.2Hz_s35_41.m4a,,,,,,,,,,,,
,,,,,41658,2021-09-24_14h39.47.878,judgeSpeechMusic_20210921_logNormShiftAmp_detection_fixS,2020.1.2,Win32,60,,,,,,,,,,,,,,,,,,,,,,,,,,,,,,2,17.2934,,0,0,17,17,27,1,stimuli/stim_20210706_power2amp/equal_lnn_AM1.2Hz_s35_40.m4a,,,,,,,,,,,,
,,,,,41658,2021-09-24_14h39.47.878,judgeSpeechMusic_20210921_logNormShiftAmp_detection_fixS,2020.1.2,Win32,60,,,,,,,,,,,,,,,,,,,,,,,,,,,,,,2,6.5884,,0,0,18,18,11,1,stimuli/stim_20210706_power2amp/equal_lnn_AM0.6Hz_s35_18.m4a,,,,,,,,,,,,
,,,,,41658,2021-09-24_14h39.47.878,judgeSpeechMusic_20210921_logNormShiftAmp_detection_fixS,2020.1.2,Win32,60,,,,,,,,,,,,,,,,,,,,,,,,,,,,,,2,10.1189,,0,0,19,19,3,1,stimuli/stim_20210706_power2amp/equal_lnn_AM0.6Hz_s35_33.m4a,,,,,,,,,,,,
,,,,,41658,2021-09-24_14h39.47.878,judgeSpeechMusic_20210921_logNormShiftAmp_detection_fixS,2020.1.2,Win32,60,,,,,,,,,,,,,,,,,,,,,,,,,,,,,,1,9.0376,,0,0,20,20,49,1,stimuli/stim_20210706_power2amp/equal_lnn_AM3.6Hz_s35_13.m4a,,,,,,,,,,,,
,,,,,41658,2021-09-24_14h39.47.878,judgeSpeechMusic_20210921_logNormShiftAmp_detection_fixS,2020.1.2,Win32,60,,,,,,,,,,,,,,,,,,,,,,,,,,,,,,1,6.1287,,0,0,21,21,1,1,stimuli/stim_20210706_power2amp/equal_lnn_AM0.6Hz_s35_4.m4a,,,,,,,,,,,,
,,,,,41658,2021-09-24_14h39.47.878,judgeSpeechMusic_20210921_logNormShiftAmp_detection_fixS,2020.1.2,Win32,60,,,,,,,,,,,,,,,,,,,,,,,,,,,,,,2,6.2736,1,1,0,22,22,61,1,stimuli/stim_20210706_power2amp/equal_lnn_AM4.2Hz_s35_17.m4a,1.1912,,,,,,,,,,,
,,,,,41658,2021-09-24_14h39.47.878,judgeSpeechMusic_20210921_logNormShiftAmp_detection_fixS,2020.1.2,Win32,60,,,,,,,,,,,,,,,,,,,,,,,,,,,,,,1,9.8591,,0,0,23,23,68,1,stimuli/stim_20210706_power2amp/equal_lnn_AM4.2Hz_s35_2.m4a,,,,,,,,,,,,
,,,,,41658,2021-09-24_14h39.47.878,judgeSpeechMusic_20210921_logNormShiftAmp_detection_fixS,2020.1.2,Win32,60,,,,,,,,,,,,,,,,,,,,,,,,,,,,,,2,6.3351,,0,0,24,24,20,1,stimuli/stim_20210706_power2amp/equal_lnn_AM1.2Hz_s35_38.m4a,,,,,,,,,,,,
,,,,,41658,2021-09-24_14h39.47.878,judgeSpeechMusic_20210921_logNormShiftAmp_detection_fixS,2020.1.2,Win32,60,,,,,,,,,,,,,,,,,,,,,,,,,,,,,,1,7.5717,,0,0,25,25,18,1,stimuli/stim_20210706_power2amp/equal_lnn_AM1.2Hz_s35_43.m4a,,,,,,,,,,,,
,,,,,41658,2021-09-24_14h39.47.878,judgeSpeechMusic_20210921_logNormShiftAmp_detection_fixS,2020.1.2,Win32,60,,,,,,,,,,,,,,,,,,,,,,,,,,,,,,1,6.8918,,0,0,26,26,59,1,stimuli/stim_20210706_power2amp/equal_lnn_AM3.6Hz_s35_42.m4a,,,,,,,,,,,,
,,,,,41658,2021-09-24_14h39.47.878,judgeSpeechMusic_20210921_logNormShiftAmp_detection_fixS,2020.1.2,Win32,60,,,,,,,,,,,,,,,,,,,,,,,,,,,,,,2,6.3352,,0,0,27,27,29,1,stimuli/stim_20210706_power2amp/equal_lnn_AM1.2Hz_s35_44.m4a,,,,,,,,,,,,
,,,,,41658,2021-09-24_14h39.47.878,judgeSpeechMusic_20210921_logNormShiftAmp_detection_fixS,2020.1.2,Win32,60,,,,,,,,,,,,,,,,,,,,,,,,,,,,,,2,5.9569,,0,0,28,28,12,1,stimuli/stim_20210706_power2amp/equal_lnn_AM0.6Hz_s35_39.m4a,,,,,,,,,,,,
,,,,,41658,2021-09-24_14h39.47.878,judgeSpeechMusic_20210921_logNormShiftAmp_detection_fixS,2020.1.2,Win32,60,,,,,,,,,,,,,,,,,,,,,,,,,,,,,,2,8.2042,,0,0,29,29,4,1,stimuli/stim_20210706_power2amp/equal_lnn_AM0.6Hz_s35_28.m4a,,,,,,,,,,,,
,,,,,41658,2021-09-24_14h39.47.878,judgeSpeechMusic_20210921_logNormShiftAmp_detection_fixS,2020.1.2,Win32,60,,,,,,,,,,,,,,,,,,,,,,,,,,,,,,1,6.8994,,0,0,30,30,51,1,stimuli/stim_20210706_power2amp/equal_lnn_AM3.6Hz_s35_16.m4a,,,,,,,,,,,,
,,,,,41658,2021-09-24_14h39.47.878,judgeSpeechMusic_20210921_logNormShiftAmp_detection_fixS,2020.1.2,Win32,60,,,,,,,,,,,,,,,,,,,,,,,,,,,,,,1,7.122,,0,0,31,31,15,1,stimuli/stim_20210706_power2amp/equal_lnn_AM1.2Hz_s35_2.m4a,,,,,,,,,,,,
,,,,,41658,2021-09-24_14h39.47.878,judgeSpeechMusic_20210921_logNormShiftAmp_detection_fixS,2020.1.2,Win32,60,,,,,,,,,,,,,,,,,,,,,,,,,,,,,,2,5.9249,,0,0,32,32,57,1,stimuli/stim_20210706_power2amp/equal_lnn_AM3.6Hz_s35_30.m4a,,,,,,,,,,,,
,,,,,41658,2021-09-24_14h39.47.878,judgeSpeechMusic_20210921_logNormShiftAmp_detection_fixS,2020.1.2,Win32,60,,,,,,,,,,,,,,,,,,,,,,,,,,,,,,1,6.8571,,0,0,33,33,24,1,stimuli/stim_20210706_power2amp/equal_lnn_AM1.2Hz_s35_14.m4a,,,,,,,,,,,,
,,,,,41658,2021-09-24_14h39.47.878,judgeSpeechMusic_20210921_logNormShiftAmp_detection_fixS,2020.1.2,Win32,60,,,,,,,,,,,,,,,,,,,,,,,,,,,,,,1,7.051,,0,0,34,34,63,1,stimuli/stim_20210706_power2amp/equal_lnn_AM4.2Hz_s35_27.m4a,,,,,,,,,,,,
,,,,,41658,2021-09-24_14h39.47.878,judgeSpeechMusic_20210921_logNormShiftAmp_detection_fixS,2020.1.2,Win32,60,,,,,,,,,,,,,,,,,,,,,,,,,,,,,,2,6.7311,,0,0,35,35,9,1,stimuli/stim_20210706_power2amp/equal_lnn_AM0.6Hz_s35_40.m4a,,,,,,,,,,,,
,,,,,41658,2021-09-24_14h39.47.878,judgeSpeechMusic_20210921_logNormShiftAmp_detection_fixS,2020.1.2,Win32,60,,,,,,,,,,,,,,,,,,,,,,,,,,,,,,1,10.0341,,0,0,36,36,40,1,stimuli/stim_20210706_power2amp/equal_lnn_AM2.4Hz_s35_31.m4a,,,,,,,,,,,,
,,,,,41658,2021-09-24_14h39.47.878,judgeSpeechMusic_20210921_logNormShiftAmp_detection_fixS,2020.1.2,Win32,60,,,,,,,,,,,,,,,,,,,,,,,,,,,,,,1,5.9342,,0,0,37,37,16,1,stimuli/stim_20210706_power2amp/equal_lnn_AM1.2Hz_s35_35.m4a,,,,,,,,,,,,
,,,,,41658,2021-09-24_14h39.47.878,judgeSpeechMusic_20210921_logNormShiftAmp_detection_fixS,2020.1.2,Win32,60,,,,,,,,,,,,,,,,,,,,,,,,,,,,,,2,5.9296,,0,0,38,38,64,1,stimuli/stim_20210706_power2amp/equal_lnn_AM4.2Hz_s35_45.m4a,,,,,,,,,,,,
,,,,,41658,2021-09-24_14h39.47.878,judgeSpeechMusic_20210921_logNormShiftAmp_detection_fixS,2020.1.2,Win32,60,,,,,,,,,,,,,,,,,,,,,,,,,,,,,,2,6.1727,,0,0,39,39,34,1,stimuli/stim_20210706_power2amp/equal_lnn_AM2.4Hz_s35_2.m4a,,,,,,,,,,,,
,,,,,41658,2021-09-24_14h39.47.878,judgeSpeechMusic_20210921_logNormShiftAmp_detection_fixS,2020.1.2,Win32,60,,,,,,,,,,,,,,,,,,,,,,,,,,,,,,1,5.97,,0,0,40,40,43,1,stimuli/stim_20210706_power2amp/equal_lnn_AM2.4Hz_s35_24.m4a,,,,,,,,,,,,
,,,,,41658,2021-09-24_14h39.47.878,judgeSpeechMusic_20210921_logNormShiftAmp_detection_fixS,2020.1.2,Win32,60,,,,,,,,,,,,,,,,,,,,,,,,,,,,,,2,7.6932,,0,0,41,41,44,1,stimuli/stim_20210706_power2amp/equal_lnn_AM2.4Hz_s35_10.m4a,,,,,,,,,,,,
,,,,,41658,2021-09-24_14h39.47.878,judgeSpeechMusic_20210921_logNormShiftAmp_detection_fixS,2020.1.2,Win32,60,,,,,,,,,,,,,,,,,,,,,,,,,,,,,,2,6.3275,,0,0,42,42,8,1,stimuli/stim_20210706_power2amp/equal_lnn_AM0.6Hz_s35_34.m4a,,,,,,,,,,,,
,,,,,41658,2021-09-24_14h39.47.878,judgeSpeechMusic_20210921_logNormShiftAmp_detection_fixS,2020.1.2,Win32,60,,,,,,,,,,,,,,,,,,,,,,,,,,,,,,2,6.5517,,0,0,43,43,58,1,stimuli/stim_20210706_power2amp/equal_lnn_AM3.6Hz_s35_8.m4a,,,,,,,,,,,,
,,,,,41658,2021-09-24_14h39.47.878,judgeSpeechMusic_20210921_logNormShiftAmp_detection_fixS,2020.1.2,Win32,60,,,,,,,,,,,,,,,,,,,,,,,,,,,,,,2,7.5655,4,1,0,44,44,36,1,stimuli/stim_20210706_power2amp/equal_lnn_AM2.4Hz_s35_6.m4a,1.3774,,,,,,,,,,,
,,,,,41658,2021-09-24_14h39.47.878,judgeSpeechMusic_20210921_logNormShiftAmp_detection_fixS,2020.1.2,Win32,60,,,,,,,,,,,,,,,,,,,,,,,,,,,,,,2,8.9135,,0,0,45,45,0,1,stimuli/stim_20210706_power2amp/equal_lnn_AM0.6Hz_s35_41.m4a,,,,,,,,,,,,
,,,,,41658,2021-09-24_14h39.47.878,judgeSpeechMusic_20210921_logNormShiftAmp_detection_fixS,2020.1.2,Win32,60,,,,,,,,,,,,,,,,,,,,,,,,,,,,,,1,6.7516,,0,0,46,46,47,1,stimuli/stim_20210706_power2amp/equal_lnn_AM3.6Hz_s35_4.m4a,,,,,,,,,,,,
,,,,,41658,2021-09-24_14h39.47.878,judgeSpeechMusic_20210921_logNormShiftAmp_detection_fixS,2020.1.2,Win32,60,,,,,,,,,,,,,,,,,,,,,,,,,,,,,,2,5.99,,0,0,47,47,48,1,stimuli/stim_20210706_power2amp/equal_lnn_AM3.6Hz_s35_19.m4a,,,,,,,,,,,,
,,,,,41658,2021-09-24_14h39.47.878,judgeSpeechMusic_20210921_logNormShiftAmp_detection_fixS,2020.1.2,Win32,60,,,,,,,,,,,,,,,,,,,,,,,,,,,,,,1,5.9515,,0,0,48,48,35,1,stimuli/stim_20210706_power2amp/equal_lnn_AM2.4Hz_s35_43.m4a,,,,,,,,,,,,
,,,,,41658,2021-09-24_14h39.47.878,judgeSpeechMusic_20210921_logNormShiftAmp_detection_fixS,2020.1.2,Win32,60,,,,,,,,,,,,,,,,,,,,,,,,,,,,,,1,6.27,,0,0,49,49,54,1,stimuli/stim_20210706_power2amp/equal_lnn_AM3.6Hz_s35_43.m4a,,,,,,,,,,,,
,,,,,41658,2021-09-24_14h39.47.878,judgeSpeechMusic_20210921_logNormShiftAmp_detection_fixS,2020.1.2,Win32,60,,,,,,,,,,,,,,,,,,,,,,,,,,,,,,1,6.7772,,0,0,50,50,69,1,stimuli/stim_20210706_power2amp/equal_lnn_AM4.2Hz_s35_35.m4a,,,,,,,,,,,,
,,,,,41658,2021-09-24_14h39.47.878,judgeSpeechMusic_20210921_logNormShiftAmp_detection_fixS,2020.1.2,Win32,60,,,,,,,,,,,,,,,,,,,,,,,,,,,,,,2,6.4007,,0,0,51,51,74,1,stimuli/stim_20210706_power2amp/equal_lnn_AM4.2Hz_s35_24.m4a,,,,,,,,,,,,
,,,,,41658,2021-09-24_14h39.47.878,judgeSpeechMusic_20210921_logNormShiftAmp_detection_fixS,2020.1.2,Win32,60,,,,,,,,,,,,,,,,,,,,,,,,,,,,,,2,7.4293,,0,0,52,52,41,1,stimuli/stim_20210706_power2amp/equal_lnn_AM2.4Hz_s35_5.m4a,,,,,,,,,,,,
,,,,,41658,2021-09-24_14h39.47.878,judgeSpeechMusic_20210921_logNormShiftAmp_detection_fixS,2020.1.2,Win32,60,,,,,,,,,,,,,,,,,,,,,,,,,,,,,,1,6.5024,,0,0,53,53,17,1,stimuli/stim_20210706_power2amp/equal_lnn_AM1.2Hz_s35_47.m4a,,,,,,,,,,,,
,,,,,41658,2021-09-24_14h39.47.878,judgeSpeechMusic_20210921_logNormShiftAmp_detection_fixS,2020.1.2,Win32,60,,,,,,,,,,,,,,,,,,,,,,,,,,,,,,1,6.3515,,0,0,54,54,53,1,stimuli/stim_20210706_power2amp/equal_lnn_AM3.6Hz_s35_44.m4a,,,,,,,,,,,,
,,,,,41658,2021-09-24_14h39.47.878,judgeSpeechMusic_20210921_logNormShiftAmp_detection_fixS,2020.1.2,Win32,60,,,,,,,,,,,,,,,,,,,,,,,,,,,,,,1,6.4937,,0,0,55,55,6,1,stimuli/stim_20210706_power2amp/equal_lnn_AM0.6Hz_s35_9.m4a,,,,,,,,,,,,
,,,,,41658,2021-09-24_14h39.47.878,judgeSpeechMusic_20210921_logNormShiftAmp_detection_fixS,2020.1.2,Win32,60,,,,,,,,,,,,,,,,,,,,,,,,,,,,,,1,7.7411,,0,0,56,56,67,1,stimuli/stim_20210706_power2amp/equal_lnn_AM4.2Hz_s35_6.m4a,,,,,,,,,,,,
,,,,,41658,2021-09-24_14h39.47.878,judgeSpeechMusic_20210921_logNormShiftAmp_detection_fixS,2020.1.2,Win32,60,,,,,,,,,,,,,,,,,,,,,,,,,,,,,,2,7.0602,,0,0,57,57,52,1,stimuli/stim_20210706_power2amp/equal_lnn_AM3.6Hz_s35_20.m4a,,,,,,,,,,,,
,,,,,41658,2021-09-24_14h39.47.878,judgeSpeechMusic_20210921_logNormShiftAmp_detection_fixS,2020.1.2,Win32,60,,,,,,,,,,,,,,,,,,,,,,,,,,,,,,2,8.0518,,0,0,58,58,25,1,stimuli/stim_20210706_power2amp/equal_lnn_AM1.2Hz_s35_34.m4a,,,,,,,,,,,,
,,,,,41658,2021-09-24_14h39.47.878,judgeSpeechMusic_20210921_logNormShiftAmp_detection_fixS,2020.1.2,Win32,60,,,,,,,,,,,,,,,,,,,,,,,,,,,,,,1,5.9593,,0,0,59,59,32,1,stimuli/stim_20210706_power2amp/equal_lnn_AM2.4Hz_s35_34.m4a,,,,,,,,,,,,
,,,,,41658,2021-09-24_14h39.47.878,judgeSpeechMusic_20210921_logNormShiftAmp_detection_fixS,2020.1.2,Win32,60,,,,,,,,,,,,,,,,,,,,,,,,,,,,,,1,6.3712,,0,0,60,60,19,1,stimuli/stim_20210706_power2amp/equal_lnn_AM1.2Hz_s35_7.m4a,,,,,,,,,,,,
,,,,,41658,2021-09-24_14h39.47.878,judgeSpeechMusic_20210921_logNormShiftAmp_detection_fixS,2020.1.2,Win32,60,,,,,,,,,,,,,,,,,,,,,,,,,,,,,,1,6.8354,,0,0,61,61,73,1,stimuli/stim_20210706_power2amp/equal_lnn_AM4.2Hz_s35_9.m4a,,,,,,,,,,,,
,,,,,41658,2021-09-24_14h39.47.878,judgeSpeechMusic_20210921_logNormShiftAmp_detection_fixS,2020.1.2,Win32,60,,,,,,,,,,,,,,,,,,,,,,,,,,,,,,2,7.0252,,0,0,62,62,14,1,stimuli/stim_20210706_power2amp/equal_lnn_AM0.6Hz_s35_19.m4a,,,,,,,,,,,,
,,,,,41658,2021-09-24_14h39.47.878,judgeSpeechMusic_20210921_logNormShiftAmp_detection_fixS,2020.1.2,Win32,60,,,,,,,,,,,,,,,,,,,,,,,,,,,,,,2,7.0073,,0,0,63,63,37,1,stimuli/stim_20210706_power2amp/equal_lnn_AM2.4Hz_s35_42.m4a,,,,,,,,,,,,
,,,,,41658,2021-09-24_14h39.47.878,judgeSpeechMusic_20210921_logNormShiftAmp_detection_fixS,2020.1.2,Win32,60,,,,,,,,,,,,,,,,,,,,,,,,,,,,,,2,7.0352,4,1,0,64,64,55,1,stimuli/stim_20210706_power2amp/equal_lnn_AM3.6Hz_s35_25.m4a,1.5037,,,,,,,,,,,
,,,,,41658,2021-09-24_14h39.47.878,judgeSpeechMusic_20210921_logNormShiftAmp_detection_fixS,2020.1.2,Win32,60,,,,,,,,,,,,,,,,,,,,,,,,,,,,,,1,6.251,,0,0,65,65,72,1,stimuli/stim_20210706_power2amp/equal_lnn_AM4.2Hz_s35_7.m4a,,,,,,,,,,,,
,,,,,41658,2021-09-24_14h39.47.878,judgeSpeechMusic_20210921_logNormShiftAmp_detection_fixS,2020.1.2,Win32,60,,,,,,,,,,,,,,,,,,,,,,,,,,,,,,1,6.2888,,0,0,66,66,28,1,stimuli/stim_20210706_power2amp/equal_lnn_AM1.2Hz_s35_23.m4a,,,,,,,,,,,,
,,,,,41658,2021-09-24_14h39.47.878,judgeSpeechMusic_20210921_logNormShiftAmp_detection_fixS,2020.1.2,Win32,60,,,,,,,,,,,,,,,,,,,,,,,,,,,,,,2,7.0352,,0,0,67,67,46,1,stimuli/stim_20210706_power2amp/equal_lnn_AM3.6Hz_s35_6.m4a,,,,,,,,,,,,
,,,,,41658,2021-09-24_14h39.47.878,judgeSpeechMusic_20210921_logNormShiftAmp_detection_fixS,2020.1.2,Win32,60,,,,,,,,,,,,,,,,,,,,,,,,,,,,,,2,6.9914,,0,0,68,68,56,1,stimuli/stim_20210706_power2amp/equal_lnn_AM3.6Hz_s35_35.m4a,,,,,,,,,,,,
,,,,,41658,2021-09-24_14h39.47.878,judgeSpeechMusic_20210921_logNormShiftAmp_detection_fixS,2020.1.2,Win32,60,,,,,,,,,,,,,,,,,,,,,,,,,,,,,,1,7.2732,,0,0,69,69,22,1,stimuli/stim_20210706_power2amp/equal_lnn_AM1.2Hz_s35_46.m4a,,,,,,,,,,,,
,,,,,41658,2021-09-24_14h39.47.878,judgeSpeechMusic_20210921_logNormShiftAmp_detection_fixS,2020.1.2,Win32,60,,,,,,,,,,,,,,,,,,,,,,,,,,,,,,1,7.2947,,0,0,70,70,62,1,stimuli/stim_20210706_power2amp/equal_lnn_AM4.2Hz_s35_38.m4a,,,,,,,,,,,,
,,,,,41658,2021-09-24_14h39.47.878,judgeSpeechMusic_20210921_logNormShiftAmp_detection_fixS,2020.1.2,Win32,60,,,,,,,,,,,,,,,,,,,,,,,,,,,,,,2,6.4339,,0,0,71,71,2,1,stimuli/stim_20210706_power2amp/equal_lnn_AM0.6Hz_s35_49.m4a,,,,,,,,,,,,
,,,,,41658,2021-09-24_14h39.47.878,judgeSpeechMusic_20210921_logNormShiftAmp_detection_fixS,2020.1.2,Win32,60,,,,,,,,,,,,,,,,,,,,,,,,,,,,,,2,5.8638,,0,0,72,72,7,1,stimuli/stim_20210706_power2amp/equal_lnn_AM0.6Hz_s35_24.m4a,,,,,,,,,,,,
,,,,,41658,2021-09-24_14h39.47.878,judgeSpeechMusic_20210921_logNormShiftAmp_detection_fixS,2020.1.2,Win32,60,,,,,,,,,,,,,,,,,,,,,,,,,,,,,,2,7.135,,0,0,73,73,65,1,stimuli/stim_20210706_power2amp/equal_lnn_AM4.2Hz_s35_31.m4a,,,,,,,,,,,,
,,,,,41658,2021-09-24_14h39.47.878,judgeSpeechMusic_20210921_logNormShiftAmp_detection_fixS,2020.1.2,Win32,60,,,,,,,,,,,,,,,,,,,,,,,,,,,,,,1,8.0771,,0,0,74,74,71,1,stimuli/stim_20210706_power2amp/equal_lnn_AM4.2Hz_s35_4.m4a,,,,,,,,,,,,
,,,,,41658,2021-09-24_14h39.47.878,judgeSpeechMusic_20210921_logNormShiftAmp_detection_fixS,2020.1.2,Win32,60,,,,,,,,,,,,,,,,,,,,,,,,,,,,,,,,,,,,,,,,,space,0.514,0,0,0,0,1,MUSIC,stimuli/MUSIC.jpg,,
,,,,,41658,2021-09-24_14h39.47.878,judgeSpeechMusic_20210921_logNormShiftAmp_detection_fixS,2020.1.2,Win32,60,,,,,,,,,,,,,space,0.2742,2,21.7764,,0,0,0,0,3,1,stimuli/stim_20210706_power2amp/equal_lnn_AM_training3.9Hz_s35.m4a,,,,,,,,,,,,,,,,,,,,,,,,,,,
,,,,,41658,2021-09-24_14h39.47.878,judgeSpeechMusic_20210921_logNormShiftAmp_detection_fixS,2020.1.2,Win32,60,,,,,,,,,,,,,,,1,6.2632,,0,0,1,1,0,1,stimuli/stim_20210706_power2amp/equal_lnn_AM_training0.9Hz_s35.m4a,,,,,,,,,,,,,,,,,,,,,,,,,,,
,,,,,41658,2021-09-24_14h39.47.878,judgeSpeechMusic_20210921_logNormShiftAmp_detection_fixS,2020.1.2,Win32,60,,,,,,,,,,,,,,,1,6.2976,4,1,0,2,2,2,1,stimuli/stim_20210706_power2amp/equal_lnn_AM_training3Hz_s35.m4a,1.1809,,,,,,,,,,,,,,,,,,,,,,,,,,
,,,,,41658,2021-09-24_14h39.47.878,judgeSpeechMusic_20210921_logNormShiftAmp_detection_fixS,2020.1.2,Win32,60,,,,,,,,,,,,,,,1,9.7638,,0,0,3,3,1,1,stimuli/stim_20210706_power2amp/equal_lnn_AM_training1.8Hz_s35.m4a,,,,,,,,,,,,,,,,,,,,,,,,,,,
,,,,,41658,2021-09-24_14h39.47.878,judgeSpeechMusic_20210921_logNormShiftAmp_detection_fixS,2020.1.2,Win32,60,,,,,,,,,,,,,,,,,,,,,,,,,,space,1.3119,space,0.3524,2,6.8873,,0,0,0,0,65,1,stimuli/stim_20210706_power2amp/equal_lnn_AM4.2Hz_s35_31.m4a,,,,,,,,,,,,
,,,,,41658,2021-09-24_14h39.47.878,judgeSpeechMusic_20210921_logNormShiftAmp_detection_fixS,2020.1.2,Win32,60,,,,,,,,,,,,,,,,,,,,,,,,,,,,,,2,5.9887,,0,0,1,1,73,1,stimuli/stim_20210706_power2amp/equal_lnn_AM4.2Hz_s35_9.m4a,,,,,,,,,,,,
,,,,,41658,2021-09-24_14h39.47.878,judgeSpeechMusic_20210921_logNormShiftAmp_detection_fixS,2020.1.2,Win32,60,,,,,,,,,,,,,,,,,,,,,,,,,,,,,,1,6.3172,,0,0,2,2,47,1,stimuli/stim_20210706_power2amp/equal_lnn_AM3.6Hz_s35_4.m4a,,,,,,,,,,,,
,,,,,41658,2021-09-24_14h39.47.878,judgeSpeechMusic_20210921_logNormShiftAmp_detection_fixS,2020.1.2,Win32,60,,,,,,,,,,,,,,,,,,,,,,,,,,,,,,1,6.2296,,0,0,3,3,29,1,stimuli/stim_20210706_power2amp/equal_lnn_AM1.2Hz_s35_44.m4a,,,,,,,,,,,,
,,,,,41658,2021-09-24_14h39.47.878,judgeSpeechMusic_20210921_logNormShiftAmp_detection_fixS,2020.1.2,Win32,60,,,,,,,,,,,,,,,,,,,,,,,,,,,,,,1,9.0191,,0,0,4,4,19,1,stimuli/stim_20210706_power2amp/equal_lnn_AM1.2Hz_s35_7.m4a,,,,,,,,,,,,
,,,,,41658,2021-09-24_14h39.47.878,judgeSpeechMusic_20210921_logNormShiftAmp_detection_fixS,2020.1.2,Win32,60,,,,,,,,,,,,,,,,,,,,,,,,,,,,,,2,6.6882,,0,0,5,5,44,1,stimuli/stim_20210706_power2amp/equal_lnn_AM2.4Hz_s35_10.m4a,,,,,,,,,,,,
,,,,,41658,2021-09-24_14h39.47.878,judgeSpeechMusic_20210921_logNormShiftAmp_detection_fixS,2020.1.2,Win32,60,,,,,,,,,,,,,,,,,,,,,,,,,,,,,,1,8.4666,,0,0,6,6,18,1,stimuli/stim_20210706_power2amp/equal_lnn_AM1.2Hz_s35_43.m4a,,,,,,,,,,,,
,,,,,41658,2021-09-24_14h39.47.878,judgeSpeechMusic_20210921_logNormShiftAmp_detection_fixS,2020.1.2,Win32,60,,,,,,,,,,,,,,,,,,,,,,,,,,,,,,1,8.9096,,0,0,7,7,9,1,stimuli/stim_20210706_power2amp/equal_lnn_AM0.6Hz_s35_40.m4a,,,,,,,,,,,,
,,,,,41658,2021-09-24_14h39.47.878,judgeSpeechMusic_20210921_logNormShiftAmp_detection_fixS,2020.1.2,Win32,60,,,,,,,,,,,,,,,,,,,,,,,,,,,,,,1,6.2837,,0,0,8,8,40,1,stimuli/stim_20210706_power2amp/equal_lnn_AM2.4Hz_s35_31.m4a,,,,,,,,,,,,
,,,,,41658,2021-09-24_14h39.47.878,judgeSpeechMusic_20210921_logNormShiftAmp_detection_fixS,2020.1.2,Win32,60,,,,,,,,,,,,,,,,,,,,,,,,,,,,,,2,6.4505,,0,0,9,9,30,1,stimuli/stim_20210706_power2amp/equal_lnn_AM2.4Hz_s35_38.m4a,,,,,,,,,,,,
,,,,,41658,2021-09-24_14h39.47.878,judgeSpeechMusic_20210921_logNormShiftAmp_detection_fixS,2020.1.2,Win32,60,,,,,,,,,,,,,,,,,,,,,,,,,,,,,,1,6.8672,,0,0,10,10,17,1,stimuli/stim_20210706_power2amp/equal_lnn_AM1.2Hz_s35_47.m4a,,,,,,,,,,,,
,,,,,41658,2021-09-24_14h39.47.878,judgeSpeechMusic_20210921_logNormShiftAmp_detection_fixS,2020.1.2,Win32,60,,,,,,,,,,,,,,,,,,,,,,,,,,,,,,2,6.3661,,0,0,11,11,52,1,stimuli/stim_20210706_power2amp/equal_lnn_AM3.6Hz_s35_20.m4a,,,,,,,,,,,,
,,,,,41658,2021-09-24_14h39.47.878,judgeSpeechMusic_20210921_logNormShiftAmp_detection_fixS,2020.1.2,Win32,60,,,,,,,,,,,,,,,,,,,,,,,,,,,,,,1,6.2087,,0,0,12,12,20,1,stimuli/stim_20210706_power2amp/equal_lnn_AM1.2Hz_s35_38.m4a,,,,,,,,,,,,
,,,,,41658,2021-09-24_14h39.47.878,judgeSpeechMusic_20210921_logNormShiftAmp_detection_fixS,2020.1.2,Win32,60,,,,,,,,,,,,,,,,,,,,,,,,,,,,,,1,6.5235,,0,0,13,13,32,1,stimuli/stim_20210706_power2amp/equal_lnn_AM2.4Hz_s35_34.m4a,,,,,,,,,,,,
,,,,,41658,2021-09-24_14h39.47.878,judgeSpeechMusic_20210921_logNormShiftAmp_detection_fixS,2020.1.2,Win32,60,,,,,,,,,,,,,,,,,,,,,,,,,,,,,,1,5.823,,0,0,14,14,0,1,stimuli/stim_20210706_power2amp/equal_lnn_AM0.6Hz_s35_41.m4a,,,,,,,,,,,,
,,,,,41658,2021-09-24_14h39.47.878,judgeSpeechMusic_20210921_logNormShiftAmp_detection_fixS,2020.1.2,Win32,60,,,,,,,,,,,,,,,,,,,,,,,,,,,,,,1,6.2832,,0,0,15,15,27,1,stimuli/stim_20210706_power2amp/equal_lnn_AM1.2Hz_s35_40.m4a,,,,,,,,,,,,
,,,,,41658,2021-09-24_14h39.47.878,judgeSpeechMusic_20210921_logNormShiftAmp_detection_fixS,2020.1.2,Win32,60,,,,,,,,,,,,,,,,,,,,,,,,,,,,,,2,7.7136,,0,0,16,16,41,1,stimuli/stim_20210706_power2amp/equal_lnn_AM2.4Hz_s35_5.m4a,,,,,,,,,,,,
,,,,,41658,2021-09-24_14h39.47.878,judgeSpeechMusic_20210921_logNormShiftAmp_detection_fixS,2020.1.2,Win32,60,,,,,,,,,,,,,,,,,,,,,,,,,,,,,,1,6.1515,,0,0,17,17,58,1,stimuli/stim_20210706_power2amp/equal_lnn_AM3.6Hz_s35_8.m4a,,,,,,,,,,,,
,,,,,41658,2021-09-24_14h39.47.878,judgeSpeechMusic_20210921_logNormShiftAmp_detection_fixS,2020.1.2,Win32,60,,,,,,,,,,,,,,,,,,,,,,,,,,,,,,1,6.0335,,0,0,18,18,3,1,stimuli/stim_20210706_power2amp/equal_lnn_AM0.6Hz_s35_33.m4a,,,,,,,,,,,,
,,,,,41658,2021-09-24_14h39.47.878,judgeSpeechMusic_20210921_logNormShiftAmp_detection_fixS,2020.1.2,Win32,60,,,,,,,,,,,,,,,,,,,,,,,,,,,,,,2,5.8673,,0,0,19,19,50,1,stimuli/stim_20210706_power2amp/equal_lnn_AM3.6Hz_s35_24.m4a,,,,,,,,,,,,
,,,,,41658,2021-09-24_14h39.47.878,judgeSpeechMusic_20210921_logNormShiftAmp_detection_fixS,2020.1.2,Win32,60,,,,,,,,,,,,,,,,,,,,,,,,,,,,,,1,6.012,,0,0,20,20,11,1,stimuli/stim_20210706_power2amp/equal_lnn_AM0.6Hz_s35_18.m4a,,,,,,,,,,,,
,,,,,41658,2021-09-24_14h39.47.878,judgeSpeechMusic_20210921_logNormShiftAmp_detection_fixS,2020.1.2,Win32,60,,,,,,,,,,,,,,,,,,,,,,,,,,,,,,1,6.3339,,0,0,21,21,7,1,stimuli/stim_20210706_power2amp/equal_lnn_AM0.6Hz_s35_24.m4a,,,,,,,,,,,,
,,,,,41658,2021-09-24_14h39.47.878,judgeSpeechMusic_20210921_logNormShiftAmp_detection_fixS,2020.1.2,Win32,60,,,,,,,,,,,,,,,,,,,,,,,,,,,,,,1,6.843,4,1,0,22,22,63,1,stimuli/stim_20210706_power2amp/equal_lnn_AM4.2Hz_s35_27.m4a,3.3144,,,,,,,,,,,
,,,,,41658,2021-09-24_14h39.47.878,judgeSpeechMusic_20210921_logNormShiftAmp_detection_fixS,2020.1.2,Win32,60,,,,,,,,,,,,,,,,,,,,,,,,,,,,,,1,6.1074,,0,0,23,23,72,1,stimuli/stim_20210706_power2amp/equal_lnn_AM4.2Hz_s35_7.m4a,,,,,,,,,,,,
,,,,,41658,2021-09-24_14h39.47.878,judgeSpeechMusic_20210921_logNormShiftAmp_detection_fixS,2020.1.2,Win32,60,,,,,,,,,,,,,,,,,,,,,,,,,,,,,,2,5.9656,,0,0,24,24,71,1,stimuli/stim_20210706_power2amp/equal_lnn_AM4.2Hz_s35_4.m4a,,,,,,,,,,,,
,,,,,41658,2021-09-24_14h39.47.878,judgeSpeechMusic_20210921_logNormShiftAmp_detection_fixS,2020.1.2,Win32,60,,,,,,,,,,,,,,,,,,,,,,,,,,,,,,2,6.0468,,0,0,25,25,46,1,stimuli/stim_20210706_power2amp/equal_lnn_AM3.6Hz_s35_6.m4a,,,,,,,,,,,,
,,,,,41658,2021-09-24_14h39.47.878,judgeSpeechMusic_20210921_logNormShiftAmp_detection_fixS,2020.1.2,Win32,60,,,,,,,,,,,,,,,,,,,,,,,,,,,,,,1,6.6464,,0,0,26,26,24,1,stimuli/stim_20210706_power2amp/equal_lnn_AM1.2Hz_s35_14.m4a,,,,,,,,,,,,
,,,,,41658,2021-09-24_14h39.47.878,judgeSpeechMusic_20210921_logNormShiftAmp_detection_fixS,2020.1.2,Win32,60,,,,,,,,,,,,,,,,,,,,,,,,,,,,,,1,6.4802,,0,0,27,27,74,1,stimuli/stim_20210706_power2amp/equal_lnn_AM4.2Hz_s35_24.m4a,,,,,,,,,,,,
,,,,,41658,2021-09-24_14h39.47.878,judgeSpeechMusic_20210921_logNormShiftAmp_detection_fixS,2020.1.2,Win32,60,,,,,,,,,,,,,,,,,,,,,,,,,,,,,,1,6.3602,,0,0,28,28,43,1,stimuli/stim_20210706_power2amp/equal_lnn_AM2.4Hz_s35_24.m4a,,,,,,,,,,,,
,,,,,41658,2021-09-24_14h39.47.878,judgeSpeechMusic_20210921_logNormShiftAmp_detection_fixS,2020.1.2,Win32,60,,,,,,,,,,,,,,,,,,,,,,,,,,,,,,1,6.4712,,0,0,29,29,23,1,stimuli/stim_20210706_power2amp/equal_lnn_AM1.2Hz_s35_41.m4a,,,,,,,,,,,,
,,,,,41658,2021-09-24_14h39.47.878,judgeSpeechMusic_20210921_logNormShiftAmp_detection_fixS,2020.1.2,Win32,60,,,,,,,,,,,,,,,,,,,,,,,,,,,,,,2,6.7682,,0,0,30,30,59,1,stimuli/stim_20210706_power2amp/equal_lnn_AM3.6Hz_s35_42.m4a,,,,,,,,,,,,
,,,,,41658,2021-09-24_14h39.47.878,judgeSpeechMusic_20210921_logNormShiftAmp_detection_fixS,2020.1.2,Win32,60,,,,,,,,,,,,,,,,,,,,,,,,,,,,,,2,7.8852,,0,0,31,31,61,1,stimuli/stim_20210706_power2amp/equal_lnn_AM4.2Hz_s35_17.m4a,,,,,,,,,,,,
,,,,,41658,2021-09-24_14h39.47.878,judgeSpeechMusic_20210921_logNormShiftAmp_detection_fixS,2020.1.2,Win32,60,,,,,,,,,,,,,,,,,,,,,,,,,,,,,,1,5.8866,,0,0,32,32,13,1,stimuli/stim_20210706_power2amp/equal_lnn_AM0.6Hz_s35_36.m4a,,,,,,,,,,,,
,,,,,41658,2021-09-24_14h39.47.878,judgeSpeechMusic_20210921_logNormShiftAmp_detection_fixS,2020.1.2,Win32,60,,,,,,,,,,,,,,,,,,,,,,,,,,,,,,1,5.989,,0,0,33,33,14,1,stimuli/stim_20210706_power2amp/equal_lnn_AM0.6Hz_s35_19.m4a,,,,,,,,,,,,
,,,,,41658,2021-09-24_14h39.47.878,judgeSpeechMusic_20210921_logNormShiftAmp_detection_fixS,2020.1.2,Win32,60,,,,,,,,,,,,,,,,,,,,,,,,,,,,,,1,10.9528,,0,0,34,34,25,1,stimuli/stim_20210706_power2amp/equal_lnn_AM1.2Hz_s35_34.m4a,,,,,,,,,,,,
,,,,,41658,2021-09-24_14h39.47.878,judgeSpeechMusic_20210921_logNormShiftAmp_detection_fixS,2020.1.2,Win32,60,,,,,,,,,,,,,,,,,,,,,,,,,,,,,,2,7.8724,,0,0,35,35,51,1,stimuli/stim_20210706_power2amp/equal_lnn_AM3.6Hz_s35_16.m4a,,,,,,,,,,,,
,,,,,41658,2021-09-24_14h39.47.878,judgeSpeechMusic_20210921_logNormShiftAmp_detection_fixS,2020.1.2,Win32,60,,,,,,,,,,,,,,,,,,,,,,,,,,,,,,1,10.0849,,0,0,36,36,22,1,stimuli/stim_20210706_power2amp/equal_lnn_AM1.2Hz_s35_46.m4a,,,,,,,,,,,,
,,,,,41658,2021-09-24_14h39.47.878,judgeSpeechMusic_20210921_logNormShiftAmp_detection_fixS,2020.1.2,Win32,60,,,,,,,,,,,,,,,,,,,,,,,,,,,,,,1,21.7054,,0,0,37,37,69,1,stimuli/stim_20210706_power2amp/equal_lnn_AM4.2Hz_s35_35.m4a,,,,,,,,,,,,
,,,,,41658,2021-09-24_14h39.47.878,judgeSpeechMusic_20210921_logNormShiftAmp_detection_fixS,2020.1.2,Win32,60,,,,,,,,,,,,,,,,,,,,,,,,,,,,,,1,6.0996,,0,0,38,38,12,1,stimuli/stim_20210706_power2amp/equal_lnn_AM0.6Hz_s35_39.m4a,,,,,,,,,,,,
,,,,,41658,2021-09-24_14h39.47.878,judgeSpeechMusic_20210921_logNormShiftAmp_detection_fixS,2020.1.2,Win32,60,,,,,,,,,,,,,,,,,,,,,,,,,,,,,,1,8.0956,,0,0,39,39,33,1,stimuli/stim_20210706_power2amp/equal_lnn_AM2.4Hz_s35_26.m4a,,,,,,,,,,,,
,,,,,41658,2021-09-24_14h39.47.878,judgeSpeechMusic_20210921_logNormShiftAmp_detection_fixS,2020.1.2,Win32,60,,,,,,,,,,,,,,,,,,,,,,,,,,,,,,2,6.9922,,0,0,40,40,62,1,stimuli/stim_20210706_power2amp/equal_lnn_AM4.2Hz_s35_38.m4a,,,,,,,,,,,,
,,,,,41658,2021-09-24_14h39.47.878,judgeSpeechMusic_20210921_logNormShiftAmp_detection_fixS,2020.1.2,Win32,60,,,,,,,,,,,,,,,,,,,,,,,,,,,,,,2,5.892,,0,0,41,41,45,1,stimuli/stim_20210706_power2amp/equal_lnn_AM3.6Hz_s35_33.m4a,,,,,,,,,,,,
,,,,,41658,2021-09-24_14h39.47.878,judgeSpeechMusic_20210921_logNormShiftAmp_detection_fixS,2020.1.2,Win32,60,,,,,,,,,,,,,,,,,,,,,,,,,,,,,,2,5.9549,,0,0,42,42,55,1,stimuli/stim_20210706_power2amp/equal_lnn_AM3.6Hz_s35_25.m4a,,,,,,,,,,,,
,,,,,41658,2021-09-24_14h39.47.878,judgeSpeechMusic_20210921_logNormShiftAmp_detection_fixS,2020.1.2,Win32,60,,,,,,,,,,,,,,,,,,,,,,,,,,,,,,1,9.3031,,0,0,43,43,6,1,stimuli/stim_20210706_power2amp/equal_lnn_AM0.6Hz_s35_9.m4a,,,,,,,,,,,,
,,,,,41658,2021-09-24_14h39.47.878,judgeSpeechMusic_20210921_logNormShiftAmp_detection_fixS,2020.1.2,Win32,60,,,,,,,,,,,,,,,,,,,,,,,,,,,,,,1,5.8536,3,1,0,44,44,15,1,stimuli/stim_20210706_power2amp/equal_lnn_AM1.2Hz_s35_2.m4a,0.971,,,,,,,,,,,
,,,,,41658,2021-09-24_14h39.47.878,judgeSpeechMusic_20210921_logNormShiftAmp_detection_fixS,2020.1.2,Win32,60,,,,,,,,,,,,,,,,,,,,,,,,,,,,,,2,6.018,,0,0,45,45,31,1,stimuli/stim_20210706_power2amp/equal_lnn_AM2.4Hz_s35_25.m4a,,,,,,,,,,,,
,,,,,41658,2021-09-24_14h39.47.878,judgeSpeechMusic_20210921_logNormShiftAmp_detection_fixS,2020.1.2,Win32,60,,,,,,,,,,,,,,,,,,,,,,,,,,,,,,1,6.4225,,0,0,46,46,16,1,stimuli/stim_20210706_power2amp/equal_lnn_AM1.2Hz_s35_35.m4a,,,,,,,,,,,,
,,,,,41658,2021-09-24_14h39.47.878,judgeSpeechMusic_20210921_logNormShiftAmp_detection_fixS,2020.1.2,Win32,60,,,,,,,,,,,,,,,,,,,,,,,,,,,,,,2,7.4036,,0,0,47,47,57,1,stimuli/stim_20210706_power2amp/equal_lnn_AM3.6Hz_s35_30.m4a,,,,,,,,,,,,
,,,,,41658,2021-09-24_14h39.47.878,judgeSpeechMusic_20210921_logNormShiftAmp_detection_fixS,2020.1.2,Win32,60,,,,,,,,,,,,,,,,,,,,,,,,,,,,,,1,29.0913,,0,0,48,48,42,1,stimuli/stim_20210706_power2amp/equal_lnn_AM2.4Hz_s35_35.m4a,,,,,,,,,,,,
,,,,,41658,2021-09-24_14h39.47.878,judgeSpeechMusic_20210921_logNormShiftAmp_detection_fixS,2020.1.2,Win32,60,,,,,,,,,,,,,,,,,,,,,,,,,,,,,,1,5.938,,0,0,49,49,36,1,stimuli/stim_20210706_power2amp/equal_lnn_AM2.4Hz_s35_6.m4a,,,,,,,,,,,,
,,,,,41658,2021-09-24_14h39.47.878,judgeSpeechMusic_20210921_logNormShiftAmp_detection_fixS,2020.1.2,Win32,60,,,,,,,,,,,,,,,,,,,,,,,,,,,,,,2,6.0037,,0,0,50,50,64,1,stimuli/stim_20210706_power2amp/equal_lnn_AM4.2Hz_s35_45.m4a,,,,,,,,,,,,
,,,,,41658,2021-09-24_14h39.47.878,judgeSpeechMusic_20210921_logNormShiftAmp_detection_fixS,2020.1.2,Win32,60,,,,,,,,,,,,,,,,,,,,,,,,,,,,,,2,6.7776,,0,0,51,51,48,1,stimuli/stim_20210706_power2amp/equal_lnn_AM3.6Hz_s35_19.m4a,,,,,,,,,,,,
,,,,,41658,2021-09-24_14h39.47.878,judgeSpeechMusic_20210921_logNormShiftAmp_detection_fixS,2020.1.2,Win32,60,,,,,,,,,,,,,,,,,,,,,,,,,,,,,,1,5.8492,,0,0,52,52,10,1,stimuli/stim_20210706_power2amp/equal_lnn_AM0.6Hz_s35_15.m4a,,,,,,,,,,,,
,,,,,41658,2021-09-24_14h39.47.878,judgeSpeechMusic_20210921_logNormShiftAmp_detection_fixS,2020.1.2,Win32,60,,,,,,,,,,,,,,,,,,,,,,,,,,,,,,1,6.0078,,0,0,53,53,49,1,stimuli/stim_20210706_power2amp/equal_lnn_AM3.6Hz_s35_13.m4a,,,,,,,,,,,,
,,,,,41658,2021-09-24_14h39.47.878,judgeSpeechMusic_20210921_logNormShiftAmp_detection_fixS,2020.1.2,Win32,60,,,,,,,,,,,,,,,,,,,,,,,,,,,,,,2,10.5024,,0,0,54,54,68,1,stimuli/stim_20210706_power2amp/equal_lnn_AM4.2Hz_s35_2.m4a,,,,,,,,,,,,
,,,,,41658,2021-09-24_14h39.47.878,judgeSpeechMusic_20210921_logNormShiftAmp_detection_fixS,2020.1.2,Win32,60,,,,,,,,,,,,,,,,,,,,,,,,,,,,,,1,7.0506,,0,0,55,55,8,1,stimuli/stim_20210706_power2amp/equal_lnn_AM0.6Hz_s35_34.m4a,,,,,,,,,,,,
,,,,,41658,2021-09-24_14h39.47.878,judgeSpeechMusic_20210921_logNormShiftAmp_detection_fixS,2020.1.2,Win32,60,,,,,,,,,,,,,,,,,,,,,,,,,,,,,,1,8.5126,,0,0,56,56,28,1,stimuli/stim_20210706_power2amp/equal_lnn_AM1.2Hz_s35_23.m4a,,,,,,,,,,,,
,,,,,41658,2021-09-24_14h39.47.878,judgeSpeechMusic_20210921_logNormShiftAmp_detection_fixS,2020.1.2,Win32,60,,,,,,,,,,,,,,,,,,,,,,,,,,,,,,1,21.1137,,0,0,57,57,21,1,stimuli/stim_20210706_power2amp/equal_lnn_AM1.2Hz_s35_33.m4a,,,,,,,,,,,,
,,,,,41658,2021-09-24_14h39.47.878,judgeSpeechMusic_20210921_logNormShiftAmp_detection_fixS,2020.1.2,Win32,60,,,,,,,,,,,,,,,,,,,,,,,,,,,,,,2,6.4999,,0,0,58,58,34,1,stimuli/stim_20210706_power2amp/equal_lnn_AM2.4Hz_s35_2.m4a,,,,,,,,,,,,
,,,,,41658,2021-09-24_14h39.47.878,judgeSpeechMusic_20210921_logNormShiftAmp_detection_fixS,2020.1.2,Win32,60,,,,,,,,,,,,,,,,,,,,,,,,,,,,,,1,5.9497,,0,0,59,59,26,1,stimuli/stim_20210706_power2amp/equal_lnn_AM1.2Hz_s35_17.m4a,,,,,,,,,,,,
,,,,,41658,2021-09-24_14h39.47.878,judgeSpeechMusic_20210921_logNormShiftAmp_detection_fixS,2020.1.2,Win32,60,,,,,,,,,,,,,,,,,,,,,,,,,,,,,,2,6.0206,,0,0,60,60,54,1,stimuli/stim_20210706_power2amp/equal_lnn_AM3.6Hz_s35_43.m4a,,,,,,,,,,,,
,,,,,41658,2021-09-24_14h39.47.878,judgeSpeechMusic_20210921_logNormShiftAmp_detection_fixS,2020.1.2,Win32,60,,,,,,,,,,,,,,,,,,,,,,,,,,,,,,1,9.6923,,0,0,61,61,53,1,stimuli/stim_20210706_power2amp/equal_lnn_AM3.6Hz_s35_44.m4a,,,,,,,,,,,,
,,,,,41658,2021-09-24_14h39.47.878,judgeSpeechMusic_20210921_logNormShiftAmp_detection_fixS,2020.1.2,Win32,60,,,,,,,,,,,,,,,,,,,,,,,,,,,,,,2,6.0668,,0,0,62,62,67,1,stimuli/stim_20210706_power2amp/equal_lnn_AM4.2Hz_s35_6.m4a,,,,,,,,,,,,
,,,,,41658,2021-09-24_14h39.47.878,judgeSpeechMusic_20210921_logNormShiftAmp_detection_fixS,2020.1.2,Win32,60,,,,,,,,,,,,,,,,,,,,,,,,,,,,,,2,8.5686,,0,0,63,63,37,1,stimuli/stim_20210706_power2amp/equal_lnn_AM2.4Hz_s35_42.m4a,,,,,,,,,,,,
,,,,,41658,2021-09-24_14h39.47.878,judgeSpeechMusic_20210921_logNormShiftAmp_detection_fixS,2020.1.2,Win32,60,,,,,,,,,,,,,,,,,,,,,,,,,,,,,,2,7.4154,4,1,0,64,64,70,1,stimuli/stim_20210706_power2amp/equal_lnn_AM4.2Hz_s35_46.m4a,1.0629,,,,,,,,,,,
,,,,,41658,2021-09-24_14h39.47.878,judgeSpeechMusic_20210921_logNormShiftAmp_detection_fixS,2020.1.2,Win32,60,,,,,,,,,,,,,,,,,,,,,,,,,,,,,,1,5.9724,,0,0,65,65,1,1,stimuli/stim_20210706_power2amp/equal_lnn_AM0.6Hz_s35_4.m4a,,,,,,,,,,,,
,,,,,41658,2021-09-24_14h39.47.878,judgeSpeechMusic_20210921_logNormShiftAmp_detection_fixS,2020.1.2,Win32,60,,,,,,,,,,,,,,,,,,,,,,,,,,,,,,1,5.9681,,0,0,66,66,2,1,stimuli/stim_20210706_power2amp/equal_lnn_AM0.6Hz_s35_49.m4a,,,,,,,,,,,,
,,,,,41658,2021-09-24_14h39.47.878,judgeSpeechMusic_20210921_logNormShiftAmp_detection_fixS,2020.1.2,Win32,60,,,,,,,,,,,,,,,,,,,,,,,,,,,,,,1,6.0079,,0,0,67,67,4,1,stimuli/stim_20210706_power2amp/equal_lnn_AM0.6Hz_s35_28.m4a,,,,,,,,,,,,
,,,,,41658,2021-09-24_14h39.47.878,judgeSpeechMusic_20210921_logNormShiftAmp_detection_fixS,2020.1.2,Win32,60,,,,,,,,,,,,,,,,,,,,,,,,,,,,,,1,6.4667,,0,0,68,68,5,1,stimuli/stim_20210706_power2amp/equal_lnn_AM0.6Hz_s35_43.m4a,,,,,,,,,,,,
,,,,,41658,2021-09-24_14h39.47.878,judgeSpeechMusic_20210921_logNormShiftAmp_detection_fixS,2020.1.2,Win32,60,,,,,,,,,,,,,,,,,,,,,,,,,,,,,,1,6.2286,,0,0,69,69,66,1,stimuli/stim_20210706_power2amp/equal_lnn_AM4.2Hz_s35_37.m4a,,,,,,,,,,,,
,,,,,41658,2021-09-24_14h39.47.878,judgeSpeechMusic_20210921_logNormShiftAmp_detection_fixS,2020.1.2,Win32,60,,,,,,,,,,,,,,,,,,,,,,,,,,,,,,1,7.3931,,0,0,70,70,60,1,stimuli/stim_20210706_power2amp/equal_lnn_AM4.2Hz_s35_19.m4a,,,,,,,,,,,,
,,,,,41658,2021-09-24_14h39.47.878,judgeSpeechMusic_20210921_logNormShiftAmp_detection_fixS,2020.1.2,Win32,60,,,,,,,,,,,,,,,,,,,,,,,,,,,,,,1,8.6867,,0,0,71,71,56,1,stimuli/stim_20210706_power2amp/equal_lnn_AM3.6Hz_s35_35.m4a,,,,,,,,,,,,
,,,,,41658,2021-09-24_14h39.47.878,judgeSpeechMusic_20210921_logNormShiftAmp_detection_fixS,2020.1.2,Win32,60,,,,,,,,,,,,,,,,,,,,,,,,,,,,,,1,6.7493,,0,0,72,72,38,1,stimuli/stim_20210706_power2amp/equal_lnn_AM2.4Hz_s35_29.m4a,,,,,,,,,,,,
,,,,,41658,2021-09-24_14h39.47.878,judgeSpeechMusic_20210921_logNormShiftAmp_detection_fixS,2020.1.2,Win32,60,,,,,,,,,,,,,,,,,,,,,,,,,,,,,,1,6.1832,,0,0,73,73,39,1,stimuli/stim_20210706_power2amp/equal_lnn_AM2.4Hz_s35_14.m4a,,,,,,,,,,,,
,,,,,41658,2021-09-24_14h39.47.878,judgeSpeechMusic_20210921_logNormShiftAmp_detection_fixS,2020.1.2,Win32,60,,,,,,,,,,,,,,,,,,,,,,,,,,,,,,2,5.952,,0,0,74,74,35,1,stimuli/stim_20210706_power2amp/equal_lnn_AM2.4Hz_s35_43.m4a,,,,,,,,,,,,
,,,,,41658,2021-09-24_14h39.47.878,judgeSpeechMusic_20210921_logNormShiftAmp_detection_fixS,2020.1.2,Win32,60,,,,,,,,,,,,,,,,,,,,,,,,,,,,,,,,,,,,,,,,,space,0.5376,0,1,1,1,1,SPEECH,stimuli/SPEECH.jpg,,
,,,,,41658,2021-09-24_14h39.47.878,judgeSpeechMusic_20210921_logNormShiftAmp_detection_fixS,2020.1.2,Win32,60,,,,,,,,,,,,,,,,,,0,0,0,0,2,1,stimuli/stim_20210706_power2amp/equal_lnn_AM_training3Hz_s35.m4a,,,,,,,,,,,,,,,,,,,,,,,,,,,
,,,,,41658,2021-09-24_14h39.47.878,judgeSpeechMusic_20210921_logNormShiftAmp_detection_fixS,2020.1.2,Win32,60,,,,,,,,,,,,,,,,,,,,,,,,,,space,5.4078,space,0.5171,2,6.6365,,0,0,0,0,20,1,stimuli/stim_20210706_power2amp/equal_lnn_AM1.2Hz_s35_38.m4a,,,,,,,,,,,,
,,,,,41658,2021-09-24_14h39.47.878,judgeSpeechMusic_20210921_logNormShiftAmp_detection_fixS,2020.1.2,Win32,60,,,,,,,,,,,,,,,,,,,,,,,,,,,,,,2,5.9838,,0,0,1,1,55,1,stimuli/stim_20210706_power2amp/equal_lnn_AM3.6Hz_s35_25.m4a,,,,,,,,,,,,
,,,,,41658,2021-09-24_14h39.47.878,judgeSpeechMusic_20210921_logNormShiftAmp_detection_fixS,2020.1.2,Win32,60,,,,,,,,,,,,,,,,,,,,,,,,,,,,,,2,6.233,,0,0,2,2,41,1,stimuli/stim_20210706_power2amp/equal_lnn_AM2.4Hz_s35_5.m4a,,,,,,,,,,,,
,,,,,41658,2021-09-24_14h39.47.878,judgeSpeechMusic_20210921_logNormShiftAmp_detection_fixS,2020.1.2,Win32,60,,,,,,,,,,,,,,,,,,,,,,,,,,,,,,1,8.3195,,0,0,3,3,61,1,stimuli/stim_20210706_power2amp/equal_lnn_AM4.2Hz_s35_17.m4a,,,,,,,,,,,,
,,,,,41658,2021-09-24_14h39.47.878,judgeSpeechMusic_20210921_logNormShiftAmp_detection_fixS,2020.1.2,Win32,60,,,,,,,,,,,,,,,,,,,,,,,,,,,,,,1,8.3328,,0,0,4,4,48,1,stimuli/stim_20210706_power2amp/equal_lnn_AM3.6Hz_s35_19.m4a,,,,,,,,,,,,
,,,,,41658,2021-09-24_14h39.47.878,judgeSpeechMusic_20210921_logNormShiftAmp_detection_fixS,2020.1.2,Win32,60,,,,,,,,,,,,,,,,,,,,,,,,,,,,,,2,7.3006,,0,0,5,5,46,1,stimuli/stim_20210706_power2amp/equal_lnn_AM3.6Hz_s35_6.m4a,,,,,,,,,,,,
,,,,,41658,2021-09-24_14h39.47.878,judgeSpeechMusic_20210921_logNormShiftAmp_detection_fixS,2020.1.2,Win32,60,,,,,,,,,,,,,,,,,,,,,,,,,,,,,,2,7.6999,,0,0,6,6,30,1,stimuli/stim_20210706_power2amp/equal_lnn_AM2.4Hz_s35_38.m4a,,,,,,,,,,,,
,,,,,41658,2021-09-24_14h39.47.878,judgeSpeechMusic_20210921_logNormShiftAmp_detection_fixS,2020.1.2,Win32,60,,,,,,,,,,,,,,,,,,,,,,,,,,,,,,2,13.5476,,0,0,7,7,47,1,stimuli/stim_20210706_power2amp/equal_lnn_AM3.6Hz_s35_4.m4a,,,,,,,,,,,,
,,,,,41658,2021-09-24_14h39.47.878,judgeSpeechMusic_20210921_logNormShiftAmp_detection_fixS,2020.1.2,Win32,60,,,,,,,,,,,,,,,,,,,,,,,,,,,,,,2,6.9504,,0,0,8,8,22,1,stimuli/stim_20210706_power2amp/equal_lnn_AM1.2Hz_s35_46.m4a,,,,,,,,,,,,
,,,,,41658,2021-09-24_14h39.47.878,judgeSpeechMusic_20210921_logNormShiftAmp_detection_fixS,2020.1.2,Win32,60,,,,,,,,,,,,,,,,,,,,,,,,,,,,,,2,6.5834,,0,0,9,9,16,1,stimuli/stim_20210706_power2amp/equal_lnn_AM1.2Hz_s35_35.m4a,,,,,,,,,,,,
,,,,,41658,2021-09-24_14h39.47.878,judgeSpeechMusic_20210921_logNormShiftAmp_detection_fixS,2020.1.2,Win32,60,,,,,,,,,,,,,,,,,,,,,,,,,,,,,,2,10.3465,,0,0,10,10,4,1,stimuli/stim_20210706_power2amp/equal_lnn_AM0.6Hz_s35_28.m4a,,,,,,,,,,,,
,,,,,41658,2021-09-24_14h39.47.878,judgeSpeechMusic_20210921_logNormShiftAmp_detection_fixS,2020.1.2,Win32,60,,,,,,,,,,,,,,,,,,,,,,,,,,,,,,1,6.6547,,0,0,11,11,7,1,stimuli/stim_20210706_power2amp/equal_lnn_AM0.6Hz_s35_24.m4a,,,,,,,,,,,,
,,,,,41658,2021-09-24_14h39.47.878,judgeSpeechMusic_20210921_logNormShiftAmp_detection_fixS,2020.1.2,Win32,60,,,,,,,,,,,,,,,,,,,,,,,,,,,,,,1,9.1549,,0,0,12,12,15,1,stimuli/stim_20210706_power2amp/equal_lnn_AM1.2Hz_s35_2.m4a,,,,,,,,,,,,
,,,,,41658,2021-09-24_14h39.47.878,judgeSpeechMusic_20210921_logNormShiftAmp_detection_fixS,2020.1.2,Win32,60,,,,,,,,,,,,,,,,,,,,,,,,,,,,,,2,6.2247,,0,0,13,13,8,1,stimuli/stim_20210706_power2amp/equal_lnn_AM0.6Hz_s35_34.m4a,,,,,,,,,,,,
,,,,,41658,2021-09-24_14h39.47.878,judgeSpeechMusic_20210921_logNormShiftAmp_detection_fixS,2020.1.2,Win32,60,,,,,,,,,,,,,,,,,,,,,,,,,,,,,,2,5.9838,,0,0,14,14,13,1,stimuli/stim_20210706_power2amp/equal_lnn_AM0.6Hz_s35_36.m4a,,,,,,,,,,,,
,,,,,41658,2021-09-24_14h39.47.878,judgeSpeechMusic_20210921_logNormShiftAmp_detection_fixS,2020.1.2,Win32,60,,,,,,,,,,,,,,,,,,,,,,,,,,,,,,1,6.8136,,0,0,15,15,35,1,stimuli/stim_20210706_power2amp/equal_lnn_AM2.4Hz_s35_43.m4a,,,,,,,,,,,,
,,,,,41658,2021-09-24_14h39.47.878,judgeSpeechMusic_20210921_logNormShiftAmp_detection_fixS,2020.1.2,Win32,60,,,,,,,,,,,,,,,,,,,,,,,,,,,,,,2,7.2507,,0,0,16,16,29,1,stimuli/stim_20210706_power2amp/equal_lnn_AM1.2Hz_s35_44.m4a,,,,,,,,,,,,
,,,,,41658,2021-09-24_14h39.47.878,judgeSpeechMusic_20210921_logNormShiftAmp_detection_fixS,2020.1.2,Win32,60,,,,,,,,,,,,,,,,,,,,,,,,,,,,,,2,6.217,,0,0,17,17,74,1,stimuli/stim_20210706_power2amp/equal_lnn_AM4.2Hz_s35_24.m4a,,,,,,,,,,,,
,,,,,41658,2021-09-24_14h39.47.878,judgeSpeechMusic_20210921_logNormShiftAmp_detection_fixS,2020.1.2,Win32,60,,,,,,,,,,,,,,,,,,,,,,,,,,,,,,1,7.0504,,0,0,18,18,44,1,stimuli/stim_20210706_power2amp/equal_lnn_AM2.4Hz_s35_10.m4a,,,,,,,,,,,,
,,,,,41658,2021-09-24_14h39.47.878,judgeSpeechMusic_20210921_logNormShiftAmp_detection_fixS,2020.1.2,Win32,60,,,,,,,,,,,,,,,,,,,,,,,,,,,,,,1,12.8953,,0,0,19,19,50,1,stimuli/stim_20210706_power2amp/equal_lnn_AM3.6Hz_s35_24.m4a,,,,,,,,,,,,
,,,,,41658,2021-09-24_14h39.47.878,judgeSpeechMusic_20210921_logNormShiftAmp_detection_fixS,2020.1.2,Win32,60,,,,,,,,,,,,,,,,,,,,,,,,,,,,,,2,7.5655,,0,0,20,20,64,1,stimuli/stim_20210706_power2amp/equal_lnn_AM4.2Hz_s35_45.m4a,,,,,,,,,,,,
,,,,,41658,2021-09-24_14h39.47.878,judgeSpeechMusic_20210921_logNormShiftAmp_detection_fixS,2020.1.2,Win32,60,,,,,,,,,,,,,,,,,,,,,,,,,,,,,,2,5.9291,,0,0,21,21,3,1,stimuli/stim_20210706_power2amp/equal_lnn_AM0.6Hz_s35_33.m4a,,,,,,,,,,,,
,,,,,41658,2021-09-24_14h39.47.878,judgeSpeechMusic_20210921_logNormShiftAmp_detection_fixS,2020.1.2,Win32,60,,,,,,,,,,,,,,,,,,,,,,,,,,,,,,1,6.2134,1,1,0,22,22,67,1,stimuli/stim_20210706_power2amp/equal_lnn_AM4.2Hz_s35_6.m4a,1.4878,,,,,,,,,,,
,,,,,41658,2021-09-24_14h39.47.878,judgeSpeechMusic_20210921_logNormShiftAmp_detection_fixS,2020.1.2,Win32,60,,,,,,,,,,,,,,,,,,,,,,,,,,,,,,1,6.2293,,0,0,23,23,1,1,stimuli/stim_20210706_power2amp/equal_lnn_AM0.6Hz_s35_4.m4a,,,,,,,,,,,,
,,,,,41658,2021-09-24_14h39.47.878,judgeSpeechMusic_20210921_logNormShiftAmp_detection_fixS,2020.1.2,Win32,60,,,,,,,,,,,,,,,,,,,,,,,,,,,,,,1,7.0966,,0,0,24,24,66,1,stimuli/stim_20210706_power2amp/equal_lnn_AM4.2Hz_s35_37.m4a,,,,,,,,,,,,
,,,,,41658,2021-09-24_14h39.47.878,judgeSpeechMusic_20210921_logNormShiftAmp_detection_fixS,2020.1.2,Win32,60,,,,,,,,,,,,,,,,,,,,,,,,,,,,,,2,5.9861,,0,0,25,25,2,1,stimuli/stim_20210706_power2amp/equal_lnn_AM0.6Hz_s35_49.m4a,,,,,,,,,,,,
,,,,,41658,2021-09-24_14h39.47.878,judgeSpeechMusic_20210921_logNormShiftAmp_detection_fixS,2020.1.2,Win32,60,,,,,,,,,,,,,,,,,,,,,,,,,,,,,,2,6.6014,,0,0,26,26,59,1,stimuli/stim_20210706_power2amp/equal_lnn_AM3.6Hz_s35_42.m4a,,,,,,,,,,,,
,,,,,41658,2021-09-24_14h39.47.878,judgeSpeechMusic_20210921_logNormShiftAmp_detection_fixS,2020.1.2,Win32,60,,,,,,,,,,,,,,,,,,,,,,,,,,,,,,1,7.1336,,0,0,27,27,73,1,stimuli/stim_20210706_power2amp/equal_lnn_AM4.2Hz_s35_9.m4a,,,,,,,,,,,,
,,,,,41658,2021-09-24_14h39.47.878,judgeSpeechMusic_20210921_logNormShiftAmp_detection_fixS,2020.1.2,Win32,60,,,,,,,,,,,,,,,,,,,,,,,,,,,,,,2,8.7438,,0,0,28,28,25,1,stimuli/stim_20210706_power2amp/equal_lnn_AM1.2Hz_s35_34.m4a,,,,,,,,,,,,
,,,,,41658,2021-09-24_14h39.47.878,judgeSpeechMusic_20210921_logNormShiftAmp_detection_fixS,2020.1.2,Win32,60,,,,,,,,,,,,,,,,,,,,,,,,,,,,,,2,6.2002,,0,0,29,29,43,1,stimuli/stim_20210706_power2amp/equal_lnn_AM2.4Hz_s35_24.m4a,,,,,,,,,,,,
,,,,,41658,2021-09-24_14h39.47.878,judgeSpeechMusic_20210921_logNormShiftAmp_detection_fixS,2020.1.2,Win32,60,,,,,,,,,,,,,,,,,,,,,,,,,,,,,,2,6.9127,,0,0,30,30,10,1,stimuli/stim_20210706_power2amp/equal_lnn_AM0.6Hz_s35_15.m4a,,,,,,,,,,,,
,,,,,41658,2021-09-24_14h39.47.878,judgeSpeechMusic_20210921_logNormShiftAmp_detection_fixS,2020.1.2,Win32,60,,,,,,,,,,,,,,,,,,,,,,,,,,,,,,2,7.3036,,0,0,31,31,62,1,stimuli/stim_20210706_power2amp/equal_lnn_AM4.2Hz_s35_38.m4a,,,,,,,,,,,,
,,,,,41658,2021-09-24_14h39.47.878,judgeSpeechMusic_20210921_logNormShiftAmp_detection_fixS,2020.1.2,Win32,60,,,,,,,,,,,,,,,,,,,,,,,,,,,,,,1,17.6497,,0,0,32,32,17,1,stimuli/stim_20210706_power2amp/equal_lnn_AM1.2Hz_s35_47.m4a,,,,,,,,,,,,
,,,,,41658,2021-09-24_14h39.47.878,judgeSpeechMusic_20210921_logNormShiftAmp_detection_fixS,2020.1.2,Win32,60,,,,,,,,,,,,,,,,,,,,,,,,,,,,,,2,7.9512,,0,0,33,33,49,1,stimuli/stim_20210706_power2amp/equal_lnn_AM3.6Hz_s35_13.m4a,,,,,,,,,,,,
,,,,,41658,2021-09-24_14h39.47.878,judgeSpeechMusic_20210921_logNormShiftAmp_detection_fixS,2020.1.2,Win32,60,,,,,,,,,,,,,,,,,,,,,,,,,,,,,,1,13.8306,,0,0,34,34,69,1,stimuli/stim_20210706_power2amp/equal_lnn_AM4.2Hz_s35_35.m4a,,,,,,,,,,,,
,,,,,41658,2021-09-24_14h39.47.878,judgeSpeechMusic_20210921_logNormShiftAmp_detection_fixS,2020.1.2,Win32,60,,,,,,,,,,,,,,,,,,,,,,,,,,,,,,1,7.0383,,0,0,35,35,65,1,stimuli/stim_20210706_power2amp/equal_lnn_AM4.2Hz_s35_31.m4a,,,,,,,,,,,,
,,,,,41658,2021-09-24_14h39.47.878,judgeSpeechMusic_20210921_logNormShiftAmp_detection_fixS,2020.1.2,Win32,60,,,,,,,,,,,,,,,,,,,,,,,,,,,,,,2,5.9824,,0,0,36,36,23,1,stimuli/stim_20210706_power2amp/equal_lnn_AM1.2Hz_s35_41.m4a,,,,,,,,,,,,
,,,,,41658,2021-09-24_14h39.47.878,judgeSpeechMusic_20210921_logNormShiftAmp_detection_fixS,2020.1.2,Win32,60,,,,,,,,,,,,,,,,,,,,,,,,,,,,,,1,14.1121,,0,0,37,37,53,1,stimuli/stim_20210706_power2amp/equal_lnn_AM3.6Hz_s35_44.m4a,,,,,,,,,,,,
,,,,,41658,2021-09-24_14h39.47.878,judgeSpeechMusic_20210921_logNormShiftAmp_detection_fixS,2020.1.2,Win32,60,,,,,,,,,,,,,,,,,,,,,,,,,,,,,,2,63.6442,,0,0,38,38,19,1,stimuli/stim_20210706_power2amp/equal_lnn_AM1.2Hz_s35_7.m4a,,,,,,,,,,,,
,,,,,41658,2021-09-24_14h39.47.878,judgeSpeechMusic_20210921_logNormShiftAmp_detection_fixS,2020.1.2,Win32,60,,,,,,,,,,,,,,,,,,,,,,,,,,,,,,2,5.9864,,0,0,39,39,5,1,stimuli/stim_20210706_power2amp/equal_lnn_AM0.6Hz_s35_43.m4a,,,,,,,,,,,,
,,,,,41658,2021-09-24_14h39.47.878,judgeSpeechMusic_20210921_logNormShiftAmp_detection_fixS,2020.1.2,Win32,60,,,,,,,,,,,,,,,,,,,,,,,,,,,,,,2,6.8837,,0,0,40,40,14,1,stimuli/stim_20210706_power2amp/equal_lnn_AM0.6Hz_s35_19.m4a,,,,,,,,,,,,
,,,,,41658,2021-09-24_14h39.47.878,judgeSpeechMusic_20210921_logNormShiftAmp_detection_fixS,2020.1.2,Win32,60,,,,,,,,,,,,,,,,,,,,,,,,,,,,,,2,8.1964,,0,0,41,41,45,1,stimuli/stim_20210706_power2amp/equal_lnn_AM3.6Hz_s35_33.m4a,,,,,,,,,,,,
,,,,,41658,2021-09-24_14h39.47.878,judgeSpeechMusic_20210921_logNormShiftAmp_detection_fixS,2020.1.2,Win32,60,,,,,,,,,,,,,,,,,,,,,,,,,,,,,,2,6.7051,,0,0,42,42,28,1,stimuli/stim_20210706_power2amp/equal_lnn_AM1.2Hz_s35_23.m4a,,,,,,,,,,,,
,,,,,41658,2021-09-24_14h39.47.878,judgeSpeechMusic_20210921_logNormShiftAmp_detection_fixS,2020.1.2,Win32,60,,,,,,,,,,,,,,,,,,,,,,,,,,,,,,2,6.0055,,0,0,43,43,52,1,stimuli/stim_20210706_power2amp/equal_lnn_AM3.6Hz_s35_20.m4a,,,,,,,,,,,,
,,,,,41658,2021-09-24_14h39.47.878,judgeSpeechMusic_20210921_logNormShiftAmp_detection_fixS,2020.1.2,Win32,60,,,,,,,,,,,,,,,,,,,,,,,,,,,,,,1,6.4663,4,1,0,44,44,31,1,stimuli/stim_20210706_power2amp/equal_lnn_AM2.4Hz_s35_25.m4a,0.9212,,,,,,,,,,,
,,,,,41658,2021-09-24_14h39.47.878,judgeSpeechMusic_20210921_logNormShiftAmp_detection_fixS,2020.1.2,Win32,60,,,,,,,,,,,,,,,,,,,,,,,,,,,,,,2,7.5327,,0,0,45,45,0,1,stimuli/stim_20210706_power2amp/equal_lnn_AM0.6Hz_s35_41.m4a,,,,,,,,,,,,
,,,,,41658,2021-09-24_14h39.47.878,judgeSpeechMusic_20210921_logNormShiftAmp_detection_fixS,2020.1.2,Win32,60,,,,,,,,,,,,,,,,,,,,,,,,,,,,,,2,6.8218,,0,0,46,46,54,1,stimuli/stim_20210706_power2amp/equal_lnn_AM3.6Hz_s35_43.m4a,,,,,,,,,,,,
,,,,,41658,2021-09-24_14h39.47.878,judgeSpeechMusic_20210921_logNormShiftAmp_detection_fixS,2020.1.2,Win32,60,,,,,,,,,,,,,,,,,,,,,,,,,,,,,,1,6.0492,,0,0,47,47,34,1,stimuli/stim_20210706_power2amp/equal_lnn_AM2.4Hz_s35_2.m4a,,,,,,,,,,,,
,,,,,41658,2021-09-24_14h39.47.878,judgeSpeechMusic_20210921_logNormShiftAmp_detection_fixS,2020.1.2,Win32,60,,,,,,,,,,,,,,,,,,,,,,,,,,,,,,1,6.0468,,0,0,48,48,37,1,stimuli/stim_20210706_power2amp/equal_lnn_AM2.4Hz_s35_42.m4a,,,,,,,,,,,,
,,,,,41658,2021-09-24_14h39.47.878,judgeSpeechMusic_20210921_logNormShiftAmp_detection_fixS,2020.1.2,Win32,60,,,,,,,,,,,,,,,,,,,,,,,,,,,,,,1,6.7128,,0,0,49,49,36,1,stimuli/stim_20210706_power2amp/equal_lnn_AM2.4Hz_s35_6.m4a,,,,,,,,,,,,
,,,,,41658,2021-09-24_14h39.47.878,judgeSpeechMusic_20210921_logNormShiftAmp_detection_fixS,2020.1.2,Win32,60,,,,,,,,,,,,,,,,,,,,,,,,,,,,,,2,6.3512,,0,0,50,50,27,1,stimuli/stim_20210706_power2amp/equal_lnn_AM1.2Hz_s35_40.m4a,,,,,,,,,,,,
,,,,,41658,2021-09-24_14h39.47.878,judgeSpeechMusic_20210921_logNormShiftAmp_detection_fixS,2020.1.2,Win32,60,,,,,,,,,,,,,,,,,,,,,,,,,,,,,,2,5.9215,,0,0,51,51,26,1,stimuli/stim_20210706_power2amp/equal_lnn_AM1.2Hz_s35_17.m4a,,,,,,,,,,,,
,,,,,41658,2021-09-24_14h39.47.878,judgeSpeechMusic_20210921_logNormShiftAmp_detection_fixS,2020.1.2,Win32,60,,,,,,,,,,,,,,,,,,,,,,,,,,,,,,2,6.5162,,0,0,52,52,18,1,stimuli/stim_20210706_power2amp/equal_lnn_AM1.2Hz_s35_43.m4a,,,,,,,,,,,,
,,,,,41658,2021-09-24_14h39.47.878,judgeSpeechMusic_20210921_logNormShiftAmp_detection_fixS,2020.1.2,Win32,60,,,,,,,,,,,,,,,,,,,,,,,,,,,,,,1,7.3065,,0,0,53,53,32,1,stimuli/stim_20210706_power2amp/equal_lnn_AM2.4Hz_s35_34.m4a,,,,,,,,,,,,
,,,,,41658,2021-09-24_14h39.47.878,judgeSpeechMusic_20210921_logNormShiftAmp_detection_fixS,2020.1.2,Win32,60,,,,,,,,,,,,,,,,,,,,,,,,,,,,,,2,7.7892,,0,0,54,54,24,1,stimuli/stim_20210706_power2amp/equal_lnn_AM1.2Hz_s35_14.m4a,,,,,,,,,,,,
,,,,,41658,2021-09-24_14h39.47.878,judgeSpeechMusic_20210921_logNormShiftAmp_detection_fixS,2020.1.2,Win32,60,,,,,,,,,,,,,,,,,,,,,,,,,,,,,,2,7.1167,,0,0,55,55,56,1,stimuli/stim_20210706_power2amp/equal_lnn_AM3.6Hz_s35_35.m4a,,,,,,,,,,,,
,,,,,41658,2021-09-24_14h39.47.878,judgeSpeechMusic_20210921_logNormShiftAmp_detection_fixS,2020.1.2,Win32,60,,,,,,,,,,,,,,,,,,,,,,,,,,,,,,2,5.9008,,0,0,56,56,39,1,stimuli/stim_20210706_power2amp/equal_lnn_AM2.4Hz_s35_14.m4a,,,,,,,,,,,,
,,,,,41658,2021-09-24_14h39.47.878,judgeSpeechMusic_20210921_logNormShiftAmp_detection_fixS,2020.1.2,Win32,60,,,,,,,,,,,,,,,,,,,,,,,,,,,,,,2,8.2701,,0,0,57,57,40,1,stimuli/stim_20210706_power2amp/equal_lnn_AM2.4Hz_s35_31.m4a,,,,,,,,,,,,
,,,,,41658,2021-09-24_14h39.47.878,judgeSpeechMusic_20210921_logNormShiftAmp_detection_fixS,2020.1.2,Win32,60,,,,,,,,,,,,,,,,,,,,,,,,,,,,,,2,6.7356,,0,0,58,58,11,1,stimuli/stim_20210706_power2amp/equal_lnn_AM0.6Hz_s35_18.m4a,,,,,,,,,,,,
,,,,,41658,2021-09-24_14h39.47.878,judgeSpeechMusic_20210921_logNormShiftAmp_detection_fixS,2020.1.2,Win32,60,,,,,,,,,,,,,,,,,,,,,,,,,,,,,,1,6.4167,,0,0,59,59,68,1,stimuli/stim_20210706_power2amp/equal_lnn_AM4.2Hz_s35_2.m4a,,,,,,,,,,,,
,,,,,41658,2021-09-24_14h39.47.878,judgeSpeechMusic_20210921_logNormShiftAmp_detection_fixS,2020.1.2,Win32,60,,,,,,,,,,,,,,,,,,,,,,,,,,,,,,1,10.9933,,0,0,60,60,63,1,stimuli/stim_20210706_power2amp/equal_lnn_AM4.2Hz_s35_27.m4a,,,,,,,,,,,,
,,,,,41658,2021-09-24_14h39.47.878,judgeSpeechMusic_20210921_logNormShiftAmp_detection_fixS,2020.1.2,Win32,60,,,,,,,,,,,,,,,,,,,,,,,,,,,,,,2,5.8227,,0,0,61,61,72,1,stimuli/stim_20210706_power2amp/equal_lnn_AM4.2Hz_s35_7.m4a,,,,,,,,,,,,
,,,,,41658,2021-09-24_14h39.47.878,judgeSpeechMusic_20210921_logNormShiftAmp_detection_fixS,2020.1.2,Win32,60,,,,,,,,,,,,,,,,,,,,,,,,,,,,,,2,6.261,,0,0,62,62,12,1,stimuli/stim_20210706_power2amp/equal_lnn_AM0.6Hz_s35_39.m4a,,,,,,,,,,,,
,,,,,41658,2021-09-24_14h39.47.878,judgeSpeechMusic_20210921_logNormShiftAmp_detection_fixS,2020.1.2,Win32,60,,,,,,,,,,,,,,,,,,,,,,,,,,,,,,2,6.017,,0,0,63,63,21,1,stimuli/stim_20210706_power2amp/equal_lnn_AM1.2Hz_s35_33.m4a,,,,,,,,,,,,
,,,,,41658,2021-09-24_14h39.47.878,judgeSpeechMusic_20210921_logNormShiftAmp_detection_fixS,2020.1.2,Win32,60,,,,,,,,,,,,,,,,,,,,,,,,,,,,,,2,5.8036,3,1,0,64,64,9,1,stimuli/stim_20210706_power2amp/equal_lnn_AM0.6Hz_s35_40.m4a,0.4582,,,,,,,,,,,
,,,,,41658,2021-09-24_14h39.47.878,judgeSpeechMusic_20210921_logNormShiftAmp_detection_fixS,2020.1.2,Win32,60,,,,,,,,,,,,,,,,,,,,,,,,,,,,,,2,6.1331,,0,0,65,65,6,1,stimuli/stim_20210706_power2amp/equal_lnn_AM0.6Hz_s35_9.m4a,,,,,,,,,,,,
,,,,,41658,2021-09-24_14h39.47.878,judgeSpeechMusic_20210921_logNormShiftAmp_detection_fixS,2020.1.2,Win32,60,,,,,,,,,,,,,,,,,,,,,,,,,,,,,,1,5.9973,,0,0,66,66,38,1,stimuli/stim_20210706_power2amp/equal_lnn_AM2.4Hz_s35_29.m4a,,,,,,,,,,,,
,,,,,41658,2021-09-24_14h39.47.878,judgeSpeechMusic_20210921_logNormShiftAmp_detection_fixS,2020.1.2,Win32,60,,,,,,,,,,,,,,,,,,,,,,,,,,,,,,1,7.208,,0,0,67,67,58,1,stimuli/stim_20210706_power2amp/equal_lnn_AM3.6Hz_s35_8.m4a,,,,,,,,,,,,
,,,,,41658,2021-09-24_14h39.47.878,judgeSpeechMusic_20210921_logNormShiftAmp_detection_fixS,2020.1.2,Win32,60,,,,,,,,,,,,,,,,,,,,,,,,,,,,,,1,7.2072,,0,0,68,68,71,1,stimuli/stim_20210706_power2amp/equal_lnn_AM4.2Hz_s35_4.m4a,,,,,,,,,,,,
,,,,,41658,2021-09-24_14h39.47.878,judgeSpeechMusic_20210921_logNormShiftAmp_detection_fixS,2020.1.2,Win32,60,,,,,,,,,,,,,,,,,,,,,,,,,,,,,,1,7.1668,,0,0,69,69,51,1,stimuli/stim_20210706_power2amp/equal_lnn_AM3.6Hz_s35_16.m4a,,,,,,,,,,,,
,,,,,41658,2021-09-24_14h39.47.878,judgeSpeechMusic_20210921_logNormShiftAmp_detection_fixS,2020.1.2,Win32,60,,,,,,,,,,,,,,,,,,,,,,,,,,,,,,1,7.1972,,0,0,70,70,57,1,stimuli/stim_20210706_power2amp/equal_lnn_AM3.6Hz_s35_30.m4a,,,,,,,,,,,,
,,,,,41658,2021-09-24_14h39.47.878,judgeSpeechMusic_20210921_logNormShiftAmp_detection_fixS,2020.1.2,Win32,60,,,,,,,,,,,,,,,,,,,,,,,,,,,,,,2,6.4309,,0,0,71,71,42,1,stimuli/stim_20210706_power2amp/equal_lnn_AM2.4Hz_s35_35.m4a,,,,,,,,,,,,
,,,,,41658,2021-09-24_14h39.47.878,judgeSpeechMusic_20210921_logNormShiftAmp_detection_fixS,2020.1.2,Win32,60,,,,,,,,,,,,,,,,,,,,,,,,,,,,,,2,6.6371,,0,0,72,72,33,1,stimuli/stim_20210706_power2amp/equal_lnn_AM2.4Hz_s35_26.m4a,,,,,,,,,,,,
,,,,,41658,2021-09-24_14h39.47.878,judgeSpeechMusic_20210921_logNormShiftAmp_detection_fixS,2020.1.2,Win32,60,,,,,,,,,,,,,,,,,,,,,,,,,,,,,,2,6.1231,,0,0,73,73,60,1,stimuli/stim_20210706_power2amp/equal_lnn_AM4.2Hz_s35_19.m4a,,,,,,,,,,,,
,,,,,41658,2021-09-24_14h39.47.878,judgeSpeechMusic_20210921_logNormShiftAmp_detection_fixS,2020.1.2,Win32,60,,,,,,,,,,,,,,,,,,,,,,,,,,,,,,1,6.0502,,0,0,74,74,70,1,stimuli/stim_20210706_power2amp/equal_lnn_AM4.2Hz_s35_46.m4a,,,,,,,,,,,,
,,,,,41658,2021-09-24_14h39.47.878,judgeSpeechMusic_20210921_logNormShiftAmp_detection_fixS,2020.1.2,Win32,60,,,,,,,,,,,,,,,,,,,,,,,,,,,,,,,,,,,,,,,,,space,0.2995,1,0,2,0,1,MUSIC,stimuli/MUSIC.jpg,,
,,,,,41658,2021-09-24_14h39.47.878,judgeSpeechMusic_20210921_logNormShiftAmp_detection_fixS,2020.1.2,Win32,60,,,,,,,,,,,,,,,,,,0,0,0,0,1,1,stimuli/stim_20210706_power2amp/equal_lnn_AM_training1.8Hz_s35.m4a,,,,,,,,,,,,,,,,,,,,,,,,,,,
,,,,,41658,2021-09-24_14h39.47.878,judgeSpeechMusic_20210921_logNormShiftAmp_detection_fixS,2020.1.2,Win32,60,,,,,,,,,,,,,,,,,,,,,,,,,,space,1.4433,space,0.4171,1,6.6817,,0,0,0,0,50,1,stimuli/stim_20210706_power2amp/equal_lnn_AM3.6Hz_s35_24.m4a,,,,,,,,,,,,
,,,,,41658,2021-09-24_14h39.47.878,judgeSpeechMusic_20210921_logNormShiftAmp_detection_fixS,2020.1.2,Win32,60,,,,,,,,,,,,,,,,,,,,,,,,,,,,,,1,6.4523,,0,0,1,1,18,1,stimuli/stim_20210706_power2amp/equal_lnn_AM1.2Hz_s35_43.m4a,,,,,,,,,,,,
,,,,,41658,2021-09-24_14h39.47.878,judgeSpeechMusic_20210921_logNormShiftAmp_detection_fixS,2020.1.2,Win32,60,,,,,,,,,,,,,,,,,,,,,,,,,,,,,,1,6.1499,,0,0,2,2,10,1,stimuli/stim_20210706_power2amp/equal_lnn_AM0.6Hz_s35_15.m4a,,,,,,,,,,,,
,,,,,41658,2021-09-24_14h39.47.878,judgeSpeechMusic_20210921_logNormShiftAmp_detection_fixS,2020.1.2,Win32,60,,,,,,,,,,,,,,,,,,,,,,,,,,,,,,1,10.2457,,0,0,3,3,29,1,stimuli/stim_20210706_power2amp/equal_lnn_AM1.2Hz_s35_44.m4a,,,,,,,,,,,,
,,,,,41658,2021-09-24_14h39.47.878,judgeSpeechMusic_20210921_logNormShiftAmp_detection_fixS,2020.1.2,Win32,60,,,,,,,,,,,,,,,,,,,,,,,,,,,,,,2,5.9867,,0,0,4,4,11,1,stimuli/stim_20210706_power2amp/equal_lnn_AM0.6Hz_s35_18.m4a,,,,,,,,,,,,
,,,,,41658,2021-09-24_14h39.47.878,judgeSpeechMusic_20210921_logNormShiftAmp_detection_fixS,2020.1.2,Win32,60,,,,,,,,,,,,,,,,,,,,,,,,,,,,,,1,6.8047,,0,0,5,5,74,1,stimuli/stim_20210706_power2amp/equal_lnn_AM4.2Hz_s35_24.m4a,,,,,,,,,,,,
,,,,,41658,2021-09-24_14h39.47.878,judgeSpeechMusic_20210921_logNormShiftAmp_detection_fixS,2020.1.2,Win32,60,,,,,,,,,,,,,,,,,,,,,,,,,,,,,,2,5.9331,,0,0,6,6,64,1,stimuli/stim_20210706_power2amp/equal_lnn_AM4.2Hz_s35_45.m4a,,,,,,,,,,,,
,,,,,41658,2021-09-24_14h39.47.878,judgeSpeechMusic_20210921_logNormShiftAmp_detection_fixS,2020.1.2,Win32,60,,,,,,,,,,,,,,,,,,,,,,,,,,,,,,2,5.7651,,0,0,7,7,63,1,stimuli/stim_20210706_power2amp/equal_lnn_AM4.2Hz_s35_27.m4a,,,,,,,,,,,,
,,,,,41658,2021-09-24_14h39.47.878,judgeSpeechMusic_20210921_logNormShiftAmp_detection_fixS,2020.1.2,Win32,60,,,,,,,,,,,,,,,,,,,,,,,,,,,,,,1,6.6254,,0,0,8,8,37,1,stimuli/stim_20210706_power2amp/equal_lnn_AM2.4Hz_s35_42.m4a,,,,,,,,,,,,
,,,,,41658,2021-09-24_14h39.47.878,judgeSpeechMusic_20210921_logNormShiftAmp_detection_fixS,2020.1.2,Win32,60,,,,,,,,,,,,,,,,,,,,,,,,,,,,,,1,6.4835,,0,0,9,9,17,1,stimuli/stim_20210706_power2amp/equal_lnn_AM1.2Hz_s35_47.m4a,,,,,,,,,,,,
,,,,,41658,2021-09-24_14h39.47.878,judgeSpeechMusic_20210921_logNormShiftAmp_detection_fixS,2020.1.2,Win32,60,,,,,,,,,,,,,,,,,,,,,,,,,,,,,,2,7.6981,,0,0,10,10,32,1,stimuli/stim_20210706_power2amp/equal_lnn_AM2.4Hz_s35_34.m4a,,,,,,,,,,,,
,,,,,41658,2021-09-24_14h39.47.878,judgeSpeechMusic_20210921_logNormShiftAmp_detection_fixS,2020.1.2,Win32,60,,,,,,,,,,,,,,,,,,,,,,,,,,,,,,2,6.1463,,0,0,11,11,35,1,stimuli/stim_20210706_power2amp/equal_lnn_AM2.4Hz_s35_43.m4a,,,,,,,,,,,,
,,,,,41658,2021-09-24_14h39.47.878,judgeSpeechMusic_20210921_logNormShiftAmp_detection_fixS,2020.1.2,Win32,60,,,,,,,,,,,,,,,,,,,,,,,,,,,,,,2,6.1862,,0,0,12,12,62,1,stimuli/stim_20210706_power2amp/equal_lnn_AM4.2Hz_s35_38.m4a,,,,,,,,,,,,
,,,,,41658,2021-09-24_14h39.47.878,judgeSpeechMusic_20210921_logNormShiftAmp_detection_fixS,2020.1.2,Win32,60,,,,,,,,,,,,,,,,,,,,,,,,,,,,,,1,6.0045,,0,0,13,13,38,1,stimuli/stim_20210706_power2amp/equal_lnn_AM2.4Hz_s35_29.m4a,,,,,,,,,,,,
,,,,,41658,2021-09-24_14h39.47.878,judgeSpeechMusic_20210921_logNormShiftAmp_detection_fixS,2020.1.2,Win32,60,,,,,,,,,,,,,,,,,,,,,,,,,,,,,,1,6.384,,0,0,14,14,30,1,stimuli/stim_20210706_power2amp/equal_lnn_AM2.4Hz_s35_38.m4a,,,,,,,,,,,,
,,,,,41658,2021-09-24_14h39.47.878,judgeSpeechMusic_20210921_logNormShiftAmp_detection_fixS,2020.1.2,Win32,60,,,,,,,,,,,,,,,,,,,,,,,,,,,,,,1,6.1375,,0,0,15,15,28,1,stimuli/stim_20210706_power2amp/equal_lnn_AM1.2Hz_s35_23.m4a,,,,,,,,,,,,
,,,,,41658,2021-09-24_14h39.47.878,judgeSpeechMusic_20210921_logNormShiftAmp_detection_fixS,2020.1.2,Win32,60,,,,,,,,,,,,,,,,,,,,,,,,,,,,,,2,6.4667,,0,0,16,16,71,1,stimuli/stim_20210706_power2amp/equal_lnn_AM4.2Hz_s35_4.m4a,,,,,,,,,,,,
,,,,,41658,2021-09-24_14h39.47.878,judgeSpeechMusic_20210921_logNormShiftAmp_detection_fixS,2020.1.2,Win32,60,,,,,,,,,,,,,,,,,,,,,,,,,,,,,,1,6.1817,,0,0,17,17,21,1,stimuli/stim_20210706_power2amp/equal_lnn_AM1.2Hz_s35_33.m4a,,,,,,,,,,,,
,,,,,41658,2021-09-24_14h39.47.878,judgeSpeechMusic_20210921_logNormShiftAmp_detection_fixS,2020.1.2,Win32,60,,,,,,,,,,,,,,,,,,,,,,,,,,,,,,2,6.3677,,0,0,18,18,69,1,stimuli/stim_20210706_power2amp/equal_lnn_AM4.2Hz_s35_35.m4a,,,,,,,,,,,,
,,,,,41658,2021-09-24_14h39.47.878,judgeSpeechMusic_20210921_logNormShiftAmp_detection_fixS,2020.1.2,Win32,60,,,,,,,,,,,,,,,,,,,,,,,,,,,,,,1,6.329,,0,0,19,19,24,1,stimuli/stim_20210706_power2amp/equal_lnn_AM1.2Hz_s35_14.m4a,,,,,,,,,,,,
,,,,,41658,2021-09-24_14h39.47.878,judgeSpeechMusic_20210921_logNormShiftAmp_detection_fixS,2020.1.2,Win32,60,,,,,,,,,,,,,,,,,,,,,,,,,,,,,,1,6.818,,0,0,20,20,44,1,stimuli/stim_20210706_power2amp/equal_lnn_AM2.4Hz_s35_10.m4a,,,,,,,,,,,,
,,,,,41658,2021-09-24_14h39.47.878,judgeSpeechMusic_20210921_logNormShiftAmp_detection_fixS,2020.1.2,Win32,60,,,,,,,,,,,,,,,,,,,,,,,,,,,,,,2,6.1117,,0,0,21,21,61,1,stimuli/stim_20210706_power2amp/equal_lnn_AM4.2Hz_s35_17.m4a,,,,,,,,,,,,
,,,,,41658,2021-09-24_14h39.47.878,judgeSpeechMusic_20210921_logNormShiftAmp_detection_fixS,2020.1.2,Win32,60,,,,,,,,,,,,,,,,,,,,,,,,,,,,,,1,6.3974,2,1,0,22,22,19,1,stimuli/stim_20210706_power2amp/equal_lnn_AM1.2Hz_s35_7.m4a,0.9401,,,,,,,,,,,
,,,,,41658,2021-09-24_14h39.47.878,judgeSpeechMusic_20210921_logNormShiftAmp_detection_fixS,2020.1.2,Win32,60,,,,,,,,,,,,,,,,,,,,,,,,,,,,,,1,6.6076,,0,0,23,23,46,1,stimuli/stim_20210706_power2amp/equal_lnn_AM3.6Hz_s35_6.m4a,,,,,,,,,,,,
,,,,,41658,2021-09-24_14h39.47.878,judgeSpeechMusic_20210921_logNormShiftAmp_detection_fixS,2020.1.2,Win32,60,,,,,,,,,,,,,,,,,,,,,,,,,,,,,,2,6.35,,0,0,24,24,68,1,stimuli/stim_20210706_power2amp/equal_lnn_AM4.2Hz_s35_2.m4a,,,,,,,,,,,,
,,,,,41658,2021-09-24_14h39.47.878,judgeSpeechMusic_20210921_logNormShiftAmp_detection_fixS,2020.1.2,Win32,60,,,,,,,,,,,,,,,,,,,,,,,,,,,,,,2,6.1294,,0,0,25,25,51,1,stimuli/stim_20210706_power2amp/equal_lnn_AM3.6Hz_s35_16.m4a,,,,,,,,,,,,
,,,,,41658,2021-09-24_14h39.47.878,judgeSpeechMusic_20210921_logNormShiftAmp_detection_fixS,2020.1.2,Win32,60,,,,,,,,,,,,,,,,,,,,,,,,,,,,,,1,6.4119,,0,0,26,26,7,1,stimuli/stim_20210706_power2amp/equal_lnn_AM0.6Hz_s35_24.m4a,,,,,,,,,,,,
,,,,,41658,2021-09-24_14h39.47.878,judgeSpeechMusic_20210921_logNormShiftAmp_detection_fixS,2020.1.2,Win32,60,,,,,,,,,,,,,,,,,,,,,,,,,,,,,,1,10.3466,,0,0,27,27,53,1,stimuli/stim_20210706_power2amp/equal_lnn_AM3.6Hz_s35_44.m4a,,,,,,,,,,,,
,,,,,41658,2021-09-24_14h39.47.878,judgeSpeechMusic_20210921_logNormShiftAmp_detection_fixS,2020.1.2,Win32,60,,,,,,,,,,,,,,,,,,,,,,,,,,,,,,2,6.7171,,0,0,28,28,45,1,stimuli/stim_20210706_power2amp/equal_lnn_AM3.6Hz_s35_33.m4a,,,,,,,,,,,,
,,,,,41658,2021-09-24_14h39.47.878,judgeSpeechMusic_20210921_logNormShiftAmp_detection_fixS,2020.1.2,Win32,60,,,,,,,,,,,,,,,,,,,,,,,,,,,,,,1,6.3831,,0,0,29,29,43,1,stimuli/stim_20210706_power2amp/equal_lnn_AM2.4Hz_s35_24.m4a,,,,,,,,,,,,
,,,,,41658,2021-09-24_14h39.47.878,judgeSpeechMusic_20210921_logNormShiftAmp_detection_fixS,2020.1.2,Win32,60,,,,,,,,,,,,,,,,,,,,,,,,,,,,,,1,9.3906,,0,0,30,30,6,1,stimuli/stim_20210706_power2amp/equal_lnn_AM0.6Hz_s35_9.m4a,,,,,,,,,,,,
,,,,,41658,2021-09-24_14h39.47.878,judgeSpeechMusic_20210921_logNormShiftAmp_detection_fixS,2020.1.2,Win32,60,,,,,,,,,,,,,,,,,,,,,,,,,,,,,,1,5.9496,,0,0,31,31,0,1,stimuli/stim_20210706_power2amp/equal_lnn_AM0.6Hz_s35_41.m4a,,,,,,,,,,,,
,,,,,41658,2021-09-24_14h39.47.878,judgeSpeechMusic_20210921_logNormShiftAmp_detection_fixS,2020.1.2,Win32,60,,,,,,,,,,,,,,,,,,,,,,,,,,,,,,1,6.612,,0,0,32,32,52,1,stimuli/stim_20210706_power2amp/equal_lnn_AM3.6Hz_s35_20.m4a,,,,,,,,,,,,
,,,,,41658,2021-09-24_14h39.47.878,judgeSpeechMusic_20210921_logNormShiftAmp_detection_fixS,2020.1.2,Win32,60,,,,,,,,,,,,,,,,,,,,,,,,,,,,,,2,6.0875,,0,0,33,33,42,1,stimuli/stim_20210706_power2amp/equal_lnn_AM2.4Hz_s35_35.m4a,,,,,,,,,,,,
,,,,,41658,2021-09-24_14h39.47.878,judgeSpeechMusic_20210921_logNormShiftAmp_detection_fixS,2020.1.2,Win32,60,,,,,,,,,,,,,,,,,,,,,,,,,,,,,,1,6.9498,,0,0,34,34,58,1,stimuli/stim_20210706_power2amp/equal_lnn_AM3.6Hz_s35_8.m4a,,,,,,,,,,,,
,,,,,41658,2021-09-24_14h39.47.878,judgeSpeechMusic_20210921_logNormShiftAmp_detection_fixS,2020.1.2,Win32,60,,,,,,,,,,,,,,,,,,,,,,,,,,,,,,1,9.2461,,0,0,35,35,59,1,stimuli/stim_20210706_power2amp/equal_lnn_AM3.6Hz_s35_42.m4a,,,,,,,,,,,,
,,,,,41658,2021-09-24_14h39.47.878,judgeSpeechMusic_20210921_logNormShiftAmp_detection_fixS,2020.1.2,Win32,60,,,,,,,,,,,,,,,,,,,,,,,,,,,,,,2,7.1698,,0,0,36,36,56,1,stimuli/stim_20210706_power2amp/equal_lnn_AM3.6Hz_s35_35.m4a,,,,,,,,,,,,
,,,,,41658,2021-09-24_14h39.47.878,judgeSpeechMusic_20210921_logNormShiftAmp_detection_fixS,2020.1.2,Win32,60,,,,,,,,,,,,,,,,,,,,,,,,,,,,,,1,6.485,,0,0,37,37,8,1,stimuli/stim_20210706_power2amp/equal_lnn_AM0.6Hz_s35_34.m4a,,,,,,,,,,,,
,,,,,41658,2021-09-24_14h39.47.878,judgeSpeechMusic_20210921_logNormShiftAmp_detection_fixS,2020.1.2,Win32,60,,,,,,,,,,,,,,,,,,,,,,,,,,,,,,2,7.8166,,0,0,38,38,36,1,stimuli/stim_20210706_power2amp/equal_lnn_AM2.4Hz_s35_6.m4a,,,,,,,,,,,,
,,,,,41658,2021-09-24_14h39.47.878,judgeSpeechMusic_20210921_logNormShiftAmp_detection_fixS,2020.1.2,Win32,60,,,,,,,,,,,,,,,,,,,,,,,,,,,,,,1,5.9839,,0,0,39,39,15,1,stimuli/stim_20210706_power2amp/equal_lnn_AM1.2Hz_s35_2.m4a,,,,,,,,,,,,
,,,,,41658,2021-09-24_14h39.47.878,judgeSpeechMusic_20210921_logNormShiftAmp_detection_fixS,2020.1.2,Win32,60,,,,,,,,,,,,,,,,,,,,,,,,,,,,,,1,6.9975,,0,0,40,40,57,1,stimuli/stim_20210706_power2amp/equal_lnn_AM3.6Hz_s35_30.m4a,,,,,,,,,,,,
,,,,,41658,2021-09-24_14h39.47.878,judgeSpeechMusic_20210921_logNormShiftAmp_detection_fixS,2020.1.2,Win32,60,,,,,,,,,,,,,,,,,,,,,,,,,,,,,,1,6.1474,,0,0,41,41,25,1,stimuli/stim_20210706_power2amp/equal_lnn_AM1.2Hz_s35_34.m4a,,,,,,,,,,,,
,,,,,41658,2021-09-24_14h39.47.878,judgeSpeechMusic_20210921_logNormShiftAmp_detection_fixS,2020.1.2,Win32,60,,,,,,,,,,,,,,,,,,,,,,,,,,,,,,1,7.1127,,0,0,42,42,12,1,stimuli/stim_20210706_power2amp/equal_lnn_AM0.6Hz_s35_39.m4a,,,,,,,,,,,,
,,,,,41658,2021-09-24_14h39.47.878,judgeSpeechMusic_20210921_logNormShiftAmp_detection_fixS,2020.1.2,Win32,60,,,,,,,,,,,,,,,,,,,,,,,,,,,,,,1,6.2128,,0,0,43,43,23,1,stimuli/stim_20210706_power2amp/equal_lnn_AM1.2Hz_s35_41.m4a,,,,,,,,,,,,
,,,,,41658,2021-09-24_14h39.47.878,judgeSpeechMusic_20210921_logNormShiftAmp_detection_fixS,2020.1.2,Win32,60,,,,,,,,,,,,,,,,,,,,,,,,,,,,,,1,6.188,3,1,0,44,44,20,1,stimuli/stim_20210706_power2amp/equal_lnn_AM1.2Hz_s35_38.m4a,1.1256,,,,,,,,,,,
,,,,,41658,2021-09-24_14h39.47.878,judgeSpeechMusic_20210921_logNormShiftAmp_detection_fixS,2020.1.2,Win32,60,,,,,,,,,,,,,,,,,,,,,,,,,,,,,,1,6.2489,,0,0,45,45,54,1,stimuli/stim_20210706_power2amp/equal_lnn_AM3.6Hz_s35_43.m4a,,,,,,,,,,,,
,,,,,41658,2021-09-24_14h39.47.878,judgeSpeechMusic_20210921_logNormShiftAmp_detection_fixS,2020.1.2,Win32,60,,,,,,,,,,,,,,,,,,,,,,,,,,,,,,2,5.9967,,0,0,46,46,65,1,stimuli/stim_20210706_power2amp/equal_lnn_AM4.2Hz_s35_31.m4a,,,,,,,,,,,,
,,,,,41658,2021-09-24_14h39.47.878,judgeSpeechMusic_20210921_logNormShiftAmp_detection_fixS,2020.1.2,Win32,60,,,,,,,,,,,,,,,,,,,,,,,,,,,,,,2,5.9047,,0,0,47,47,73,1,stimuli/stim_20210706_power2amp/equal_lnn_AM4.2Hz_s35_9.m4a,,,,,,,,,,,,
,,,,,41658,2021-09-24_14h39.47.878,judgeSpeechMusic_20210921_logNormShiftAmp_detection_fixS,2020.1.2,Win32,60,,,,,,,,,,,,,,,,,,,,,,,,,,,,,,2,6.3546,,0,0,48,48,33,1,stimuli/stim_20210706_power2amp/equal_lnn_AM2.4Hz_s35_26.m4a,,,,,,,,,,,,
,,,,,41658,2021-09-24_14h39.47.878,judgeSpeechMusic_20210921_logNormShiftAmp_detection_fixS,2020.1.2,Win32,60,,,,,,,,,,,,,,,,,,,,,,,,,,,,,,1,6.4478,,0,0,49,49,41,1,stimuli/stim_20210706_power2amp/equal_lnn_AM2.4Hz_s35_5.m4a,,,,,,,,,,,,
,,,,,41658,2021-09-24_14h39.47.878,judgeSpeechMusic_20210921_logNormShiftAmp_detection_fixS,2020.1.2,Win32,60,,,,,,,,,,,,,,,,,,,,,,,,,,,,,,1,7.4704,,0,0,50,50,2,1,stimuli/stim_20210706_power2amp/equal_lnn_AM0.6Hz_s35_49.m4a,,,,,,,,,,,,
,,,,,41658,2021-09-24_14h39.47.878,judgeSpeechMusic_20210921_logNormShiftAmp_detection_fixS,2020.1.2,Win32,60,,,,,,,,,,,,,,,,,,,,,,,,,,,,,,2,7.3763,,0,0,51,51,70,1,stimuli/stim_20210706_power2amp/equal_lnn_AM4.2Hz_s35_46.m4a,,,,,,,,,,,,
,,,,,41658,2021-09-24_14h39.47.878,judgeSpeechMusic_20210921_logNormShiftAmp_detection_fixS,2020.1.2,Win32,60,,,,,,,,,,,,,,,,,,,,,,,,,,,,,,1,12.5151,,0,0,52,52,34,1,stimuli/stim_20210706_power2amp/equal_lnn_AM2.4Hz_s35_2.m4a,,,,,,,,,,,,
,,,,,41658,2021-09-24_14h39.47.878,judgeSpeechMusic_20210921_logNormShiftAmp_detection_fixS,2020.1.2,Win32,60,,,,,,,,,,,,,,,,,,,,,,,,,,,,,,1,5.985,,0,0,53,53,4,1,stimuli/stim_20210706_power2amp/equal_lnn_AM0.6Hz_s35_28.m4a,,,,,,,,,,,,
,,,,,41658,2021-09-24_14h39.47.878,judgeSpeechMusic_20210921_logNormShiftAmp_detection_fixS,2020.1.2,Win32,60,,,,,,,,,,,,,,,,,,,,,,,,,,,,,,2,6.8195,,0,0,54,54,31,1,stimuli/stim_20210706_power2amp/equal_lnn_AM2.4Hz_s35_25.m4a,,,,,,,,,,,,
,,,,,41658,2021-09-24_14h39.47.878,judgeSpeechMusic_20210921_logNormShiftAmp_detection_fixS,2020.1.2,Win32,60,,,,,,,,,,,,,,,,,,,,,,,,,,,,,,1,6.1,,0,0,55,55,1,1,stimuli/stim_20210706_power2amp/equal_lnn_AM0.6Hz_s35_4.m4a,,,,,,,,,,,,
,,,,,41658,2021-09-24_14h39.47.878,judgeSpeechMusic_20210921_logNormShiftAmp_detection_fixS,2020.1.2,Win32,60,,,,,,,,,,,,,,,,,,,,,,,,,,,,,,1,7.9279,,0,0,56,56,16,1,stimuli/stim_20210706_power2amp/equal_lnn_AM1.2Hz_s35_35.m4a,,,,,,,,,,,,
,,,,,41658,2021-09-24_14h39.47.878,judgeSpeechMusic_20210921_logNormShiftAmp_detection_fixS,2020.1.2,Win32,60,,,,,,,,,,,,,,,,,,,,,,,,,,,,,,2,6.1055,,0,0,57,57,60,1,stimuli/stim_20210706_power2amp/equal_lnn_AM4.2Hz_s35_19.m4a,,,,,,,,,,,,
,,,,,41658,2021-09-24_14h39.47.878,judgeSpeechMusic_20210921_logNormShiftAmp_detection_fixS,2020.1.2,Win32,60,,,,,,,,,,,,,,,,,,,,,,,,,,,,,,1,6.2499,,0,0,58,58,3,1,stimuli/stim_20210706_power2amp/equal_lnn_AM0.6Hz_s35_33.m4a,,,,,,,,,,,,
,,,,,41658,2021-09-24_14h39.47.878,judgeSpeechMusic_20210921_logNormShiftAmp_detection_fixS,2020.1.2,Win32,60,,,,,,,,,,,,,,,,,,,,,,,,,,,,,,2,6.2227,,0,0,59,59,48,1,stimuli/stim_20210706_power2amp/equal_lnn_AM3.6Hz_s35_19.m4a,,,,,,,,,,,,
,,,,,41658,2021-09-24_14h39.47.878,judgeSpeechMusic_20210921_logNormShiftAmp_detection_fixS,2020.1.2,Win32,60,,,,,,,,,,,,,,,,,,,,,,,,,,,,,,2,6.884,,0,0,60,60,49,1,stimuli/stim_20210706_power2amp/equal_lnn_AM3.6Hz_s35_13.m4a,,,,,,,,,,,,
,,,,,41658,2021-09-24_14h39.47.878,judgeSpeechMusic_20210921_logNormShiftAmp_detection_fixS,2020.1.2,Win32,60,,,,,,,,,,,,,,,,,,,,,,,,,,,,,,1,6.4788,,0,0,61,61,5,1,stimuli/stim_20210706_power2amp/equal_lnn_AM0.6Hz_s35_43.m4a,,,,,,,,,,,,
,,,,,41658,2021-09-24_14h39.47.878,judgeSpeechMusic_20210921_logNormShiftAmp_detection_fixS,2020.1.2,Win32,60,,,,,,,,,,,,,,,,,,,,,,,,,,,,,,2,8.5114,,0,0,62,62,66,1,stimuli/stim_20210706_power2amp/equal_lnn_AM4.2Hz_s35_37.m4a,,,,,,,,,,,,
,,,,,41658,2021-09-24_14h39.47.878,judgeSpeechMusic_20210921_logNormShiftAmp_detection_fixS,2020.1.2,Win32,60,,,,,,,,,,,,,,,,,,,,,,,,,,,,,,1,6.1157,,0,0,63,63,72,1,stimuli/stim_20210706_power2amp/equal_lnn_AM4.2Hz_s35_7.m4a,,,,,,,,,,,,
,,,,,41658,2021-09-24_14h39.47.878,judgeSpeechMusic_20210921_logNormShiftAmp_detection_fixS,2020.1.2,Win32,60,,,,,,,,,,,,,,,,,,,,,,,,,,,,,,2,9.6695,4,1,0,64,64,67,1,stimuli/stim_20210706_power2amp/equal_lnn_AM4.2Hz_s35_6.m4a,0.6044,,,,,,,,,,,
,,,,,41658,2021-09-24_14h39.47.878,judgeSpeechMusic_20210921_logNormShiftAmp_detection_fixS,2020.1.2,Win32,60,,,,,,,,,,,,,,,,,,,,,,,,,,,,,,1,6.3277,,0,0,65,65,14,1,stimuli/stim_20210706_power2amp/equal_lnn_AM0.6Hz_s35_19.m4a,,,,,,,,,,,,
,,,,,41658,2021-09-24_14h39.47.878,judgeSpeechMusic_20210921_logNormShiftAmp_detection_fixS,2020.1.2,Win32,60,,,,,,,,,,,,,,,,,,,,,,,,,,,,,,1,6.2797,,0,0,66,66,9,1,stimuli/stim_20210706_power2amp/equal_lnn_AM0.6Hz_s35_40.m4a,,,,,,,,,,,,
,,,,,41658,2021-09-24_14h39.47.878,judgeSpeechMusic_20210921_logNormShiftAmp_detection_fixS,2020.1.2,Win32,60,,,,,,,,,,,,,,,,,,,,,,,,,,,,,,1,7.3291,,0,0,67,67,39,1,stimuli/stim_20210706_power2amp/equal_lnn_AM2.4Hz_s35_14.m4a,,,,,,,,,,,,
,,,,,41658,2021-09-24_14h39.47.878,judgeSpeechMusic_20210921_logNormShiftAmp_detection_fixS,2020.1.2,Win32,60,,,,,,,,,,,,,,,,,,,,,,,,,,,,,,1,8.0292,,0,0,68,68,22,1,stimuli/stim_20210706_power2amp/equal_lnn_AM1.2Hz_s35_46.m4a,,,,,,,,,,,,
,,,,,41658,2021-09-24_14h39.47.878,judgeSpeechMusic_20210921_logNormShiftAmp_detection_fixS,2020.1.2,Win32,60,,,,,,,,,,,,,,,,,,,,,,,,,,,,,,1,7.1963,,0,0,69,69,27,1,stimuli/stim_20210706_power2amp/equal_lnn_AM1.2Hz_s35_40.m4a,,,,,,,,,,,,
,,,,,41658,2021-09-24_14h39.47.878,judgeSpeechMusic_20210921_logNormShiftAmp_detection_fixS,2020.1.2,Win32,60,,,,,,,,,,,,,,,,,,,,,,,,,,,,,,2,5.8785,,0,0,70,70,55,1,stimuli/stim_20210706_power2amp/equal_lnn_AM3.6Hz_s35_25.m4a,,,,,,,,,,,,
,,,,,41658,2021-09-24_14h39.47.878,judgeSpeechMusic_20210921_logNormShiftAmp_detection_fixS,2020.1.2,Win32,60,,,,,,,,,,,,,,,,,,,,,,,,,,,,,,2,5.8889,,0,0,71,71,40,1,stimuli/stim_20210706_power2amp/equal_lnn_AM2.4Hz_s35_31.m4a,,,,,,,,,,,,
,,,,,41658,2021-09-24_14h39.47.878,judgeSpeechMusic_20210921_logNormShiftAmp_detection_fixS,2020.1.2,Win32,60,,,,,,,,,,,,,,,,,,,,,,,,,,,,,,2,6.1866,,0,0,72,72,47,1,stimuli/stim_20210706_power2amp/equal_lnn_AM3.6Hz_s35_4.m4a,,,,,,,,,,,,
,,,,,41658,2021-09-24_14h39.47.878,judgeSpeechMusic_20210921_logNormShiftAmp_detection_fixS,2020.1.2,Win32,60,,,,,,,,,,,,,,,,,,,,,,,,,,,,,,1,9.0793,,0,0,73,73,13,1,stimuli/stim_20210706_power2amp/equal_lnn_AM0.6Hz_s35_36.m4a,,,,,,,,,,,,
,,,,,41658,2021-09-24_14h39.47.878,judgeSpeechMusic_20210921_logNormShiftAmp_detection_fixS,2020.1.2,Win32,60,,,,,,,,,,,,,,,,,,,,,,,,,,,,,,1,5.949,,0,0,74,74,26,1,stimuli/stim_20210706_power2amp/equal_lnn_AM1.2Hz_s35_17.m4a,,,,,,,,,,,,
,,,,,41658,2021-09-24_14h39.47.878,judgeSpeechMusic_20210921_logNormShiftAmp_detection_fixS,2020.1.2,Win32,60,,,,,,,,,,,,,,,,,,,,,,,,,,,,,,,,,,,,,,,,,,,1,1,3,1,1,SPEECH,stimuli/SPEECH.jpg,,
,,,,,41658,2021-09-24_14h39.47.878,judgeSpeechMusic_20210921_logNormShiftAmp_detection_fixS,2020.1.2,Win32,60,,,,,,,,,,,,,,,,,,,,,,,,,,,,,,,,,,,,,,,,,,,,,,,,,,space,5.1168
