headphoneResponse.keys,headphoneResponse.corr,headphoneResponse.rt,headphoneTrial.thisRepN,headphoneTrial.thisTrialN,headphoneTrial.thisN,headphoneTrial.thisIndex,headphoneTrial.ran,headphone_sound1,headphone_sound2,headphone_sound3,corrAns,participant,date,expName,psychopyVersion,OS,frameRate,checkInstruKey.keys,checkInstruKey.rt,trainSlider.response,trainSlider.rt,beepTrainResponse.keys,beepTrainResponse.corr,trainingTrials.thisRepN,trainingTrials.thisTrialN,trainingTrials.thisN,trainingTrials.thisIndex,trainingTrials.ran,trainAudioFile,beepTrainResponse.rt,readyReal_resp.keys,readyReal_resp.rt,checkInstru2_key.keys,checkInstru2_key.rt,ratingSlider.response,ratingSlider.rt,beepResp.keys,beepResp.corr,expTrials.thisRepN,expTrials.thisTrialN,expTrials.thisN,expTrials.thisIndex,expTrials.ran,audioFile,beepResp.rt,switchBlock_space.keys,switchBlock_space.rt,block.thisRepN,block.thisTrialN,block.thisN,block.thisIndex,block.ran,blockName,blockImage,end_resp.keys,end_resp.rt
1,1,0.517,0,0,0,4,1,stimuli/screen_quiet.wav,stimuli/screen_antiphase.wav,stimuli/screen_origin.wav,1,41704,2021-09-22_17h03.26.799,judgeSpeechMusic_20210921_logNormShiftAmp_detection_fixS,2020.1.2,Linux x86_64,60,,,,,,,,,,,,,,,,,,,,,,,,,,,,,,,,,,,,,,,
2,1,0.4045,0,1,1,3,1,stimuli/screen_origin.wav,stimuli/screen_quiet.wav,stimuli/screen_antiphase.wav,2,41704,2021-09-22_17h03.26.799,judgeSpeechMusic_20210921_logNormShiftAmp_detection_fixS,2020.1.2,Linux x86_64,60,,,,,,,,,,,,,,,,,,,,,,,,,,,,,,,,,,,,,,,
3,1,0.331,0,2,2,2,1,stimuli/screen_origin.wav,stimuli/screen_antiphase.wav,stimuli/screen_quiet.wav,3,41704,2021-09-22_17h03.26.799,judgeSpeechMusic_20210921_logNormShiftAmp_detection_fixS,2020.1.2,Linux x86_64,60,,,,,,,,,,,,,,,,,,,,,,,,,,,,,,,,,,,,,,,
1,1,0.3863,0,3,3,5,1,stimuli/screen_quiet.wav,stimuli/screen_origin.wav,stimuli/screen_antiphase.wav,1,41704,2021-09-22_17h03.26.799,judgeSpeechMusic_20210921_logNormShiftAmp_detection_fixS,2020.1.2,Linux x86_64,60,,,,,,,,,,,,,,,,,,,,,,,,,,,,,,,,,,,,,,,
2,1,0.2801,0,4,4,1,1,stimuli/screen_antiphase.wav,stimuli/screen_quiet.wav,stimuli/screen_origin.wav,2,41704,2021-09-22_17h03.26.799,judgeSpeechMusic_20210921_logNormShiftAmp_detection_fixS,2020.1.2,Linux x86_64,60,,,,,,,,,,,,,,,,,,,,,,,,,,,,,,,,,,,,,,,
3,1,0.5525,0,5,5,0,1,stimuli/screen_antiphase.wav,stimuli/screen_origin.wav,stimuli/screen_quiet.wav,3,41704,2021-09-22_17h03.26.799,judgeSpeechMusic_20210921_logNormShiftAmp_detection_fixS,2020.1.2,Linux x86_64,60,,,,,,,,,,,,,,,,,,,,,,,,,,,,,,,,,,,,,,,
,,,,,,,,,,,,41704,2021-09-22_17h03.26.799,judgeSpeechMusic_20210921_logNormShiftAmp_detection_fixS,2020.1.2,Linux x86_64,60,space,0.5351,1,13.9854,,0,0,0,0,2,1,stimuli/stim_20210706_power2amp/equal_lnn_AM_training3Hz_s35.m4a,,,,,,,,,,,,,,,,,,,,,,,,,,,
,,,,,,,,,,,,41704,2021-09-22_17h03.26.799,judgeSpeechMusic_20210921_logNormShiftAmp_detection_fixS,2020.1.2,Linux x86_64,60,,,1,12.9932,,0,0,1,1,3,1,stimuli/stim_20210706_power2amp/equal_lnn_AM_training3.9Hz_s35.m4a,,,,,,,,,,,,,,,,,,,,,,,,,,,
,,,,,,,,,,,,41704,2021-09-22_17h03.26.799,judgeSpeechMusic_20210921_logNormShiftAmp_detection_fixS,2020.1.2,Linux x86_64,60,,,1,10.574,4,1,0,2,2,1,1,stimuli/stim_20210706_power2amp/equal_lnn_AM_training1.8Hz_s35.m4a,5.4911,,,,,,,,,,,,,,,,,,,,,,,,,,
,,,,,,,,,,,,41704,2021-09-22_17h03.26.799,judgeSpeechMusic_20210921_logNormShiftAmp_detection_fixS,2020.1.2,Linux x86_64,60,,,2,10.0695,,0,0,3,3,0,1,stimuli/stim_20210706_power2amp/equal_lnn_AM_training0.9Hz_s35.m4a,,,,,,,,,,,,,,,,,,,,,,,,,,,
,,,,,,,,,,,,41704,2021-09-22_17h03.26.799,judgeSpeechMusic_20210921_logNormShiftAmp_detection_fixS,2020.1.2,Linux x86_64,60,,,,,,,,,,,,,,space,13.6915,space,1.9189,1,8.6943,,0,0,0,0,14,1,stimuli/stim_20210706_power2amp/equal_lnn_AM0.6Hz_s35_13.m4a,,,,,,,,,,,,
,,,,,,,,,,,,41704,2021-09-22_17h03.26.799,judgeSpeechMusic_20210921_logNormShiftAmp_detection_fixS,2020.1.2,Linux x86_64,60,,,,,,,,,,,,,,,,,,2,6.0075,,0,0,1,1,57,1,stimuli/stim_20210706_power2amp/equal_lnn_AM3.6Hz_s35_1.m4a,,,,,,,,,,,,
,,,,,,,,,,,,41704,2021-09-22_17h03.26.799,judgeSpeechMusic_20210921_logNormShiftAmp_detection_fixS,2020.1.2,Linux x86_64,60,,,,,,,,,,,,,,,,,,2,6.4043,,0,0,2,2,44,1,stimuli/stim_20210706_power2amp/equal_lnn_AM2.4Hz_s35_18.m4a,,,,,,,,,,,,
,,,,,,,,,,,,41704,2021-09-22_17h03.26.799,judgeSpeechMusic_20210921_logNormShiftAmp_detection_fixS,2020.1.2,Linux x86_64,60,,,,,,,,,,,,,,,,,,1,5.8793,,0,0,3,3,32,1,stimuli/stim_20210706_power2amp/equal_lnn_AM2.4Hz_s35_31.m4a,,,,,,,,,,,,
,,,,,,,,,,,,41704,2021-09-22_17h03.26.799,judgeSpeechMusic_20210921_logNormShiftAmp_detection_fixS,2020.1.2,Linux x86_64,60,,,,,,,,,,,,,,,,,,2,6.0163,,0,0,4,4,71,1,stimuli/stim_20210706_power2amp/equal_lnn_AM4.2Hz_s35_14.m4a,,,,,,,,,,,,
,,,,,,,,,,,,41704,2021-09-22_17h03.26.799,judgeSpeechMusic_20210921_logNormShiftAmp_detection_fixS,2020.1.2,Linux x86_64,60,,,,,,,,,,,,,,,,,,1,5.8497,,0,0,5,5,38,1,stimuli/stim_20210706_power2amp/equal_lnn_AM2.4Hz_s35_12.m4a,,,,,,,,,,,,
,,,,,,,,,,,,41704,2021-09-22_17h03.26.799,judgeSpeechMusic_20210921_logNormShiftAmp_detection_fixS,2020.1.2,Linux x86_64,60,,,,,,,,,,,,,,,,,,1,6.6187,,0,0,6,6,13,1,stimuli/stim_20210706_power2amp/equal_lnn_AM0.6Hz_s35_37.m4a,,,,,,,,,,,,
,,,,,,,,,,,,41704,2021-09-22_17h03.26.799,judgeSpeechMusic_20210921_logNormShiftAmp_detection_fixS,2020.1.2,Linux x86_64,60,,,,,,,,,,,,,,,,,,2,6.7309,,0,0,7,7,41,1,stimuli/stim_20210706_power2amp/equal_lnn_AM2.4Hz_s35_30.m4a,,,,,,,,,,,,
,,,,,,,,,,,,41704,2021-09-22_17h03.26.799,judgeSpeechMusic_20210921_logNormShiftAmp_detection_fixS,2020.1.2,Linux x86_64,60,,,,,,,,,,,,,,,,,,1,6.2374,,0,0,8,8,1,1,stimuli/stim_20210706_power2amp/equal_lnn_AM0.6Hz_s35_33.m4a,,,,,,,,,,,,
,,,,,,,,,,,,41704,2021-09-22_17h03.26.799,judgeSpeechMusic_20210921_logNormShiftAmp_detection_fixS,2020.1.2,Linux x86_64,60,,,,,,,,,,,,,,,,,,2,6.0291,,0,0,9,9,46,1,stimuli/stim_20210706_power2amp/equal_lnn_AM3.6Hz_s35_33.m4a,,,,,,,,,,,,
,,,,,,,,,,,,41704,2021-09-22_17h03.26.799,judgeSpeechMusic_20210921_logNormShiftAmp_detection_fixS,2020.1.2,Linux x86_64,60,,,,,,,,,,,,,,,,,,1,7.062,,0,0,10,10,19,1,stimuli/stim_20210706_power2amp/equal_lnn_AM1.2Hz_s35_2.m4a,,,,,,,,,,,,
,,,,,,,,,,,,41704,2021-09-22_17h03.26.799,judgeSpeechMusic_20210921_logNormShiftAmp_detection_fixS,2020.1.2,Linux x86_64,60,,,,,,,,,,,,,,,,,,1,7.8149,,0,0,11,11,0,1,stimuli/stim_20210706_power2amp/equal_lnn_AM0.6Hz_s35_40.m4a,,,,,,,,,,,,
,,,,,,,,,,,,41704,2021-09-22_17h03.26.799,judgeSpeechMusic_20210921_logNormShiftAmp_detection_fixS,2020.1.2,Linux x86_64,60,,,,,,,,,,,,,,,,,,2,9.0181,,0,0,12,12,74,1,stimuli/stim_20210706_power2amp/equal_lnn_AM4.2Hz_s35_11.m4a,,,,,,,,,,,,
,,,,,,,,,,,,41704,2021-09-22_17h03.26.799,judgeSpeechMusic_20210921_logNormShiftAmp_detection_fixS,2020.1.2,Linux x86_64,60,,,,,,,,,,,,,,,,,,2,6.0334,,0,0,13,13,50,1,stimuli/stim_20210706_power2amp/equal_lnn_AM3.6Hz_s35_26.m4a,,,,,,,,,,,,
,,,,,,,,,,,,41704,2021-09-22_17h03.26.799,judgeSpeechMusic_20210921_logNormShiftAmp_detection_fixS,2020.1.2,Linux x86_64,60,,,,,,,,,,,,,,,,,,1,5.8845,,0,0,14,14,4,1,stimuli/stim_20210706_power2amp/equal_lnn_AM0.6Hz_s35_28.m4a,,,,,,,,,,,,
,,,,,,,,,,,,41704,2021-09-22_17h03.26.799,judgeSpeechMusic_20210921_logNormShiftAmp_detection_fixS,2020.1.2,Linux x86_64,60,,,,,,,,,,,,,,,,,,1,7.6255,,0,0,15,15,28,1,stimuli/stim_20210706_power2amp/equal_lnn_AM1.2Hz_s35_43.m4a,,,,,,,,,,,,
,,,,,,,,,,,,41704,2021-09-22_17h03.26.799,judgeSpeechMusic_20210921_logNormShiftAmp_detection_fixS,2020.1.2,Linux x86_64,60,,,,,,,,,,,,,,,,,,2,6.0821,,0,0,16,16,60,1,stimuli/stim_20210706_power2amp/equal_lnn_AM4.2Hz_s35_28.m4a,,,,,,,,,,,,
,,,,,,,,,,,,41704,2021-09-22_17h03.26.799,judgeSpeechMusic_20210921_logNormShiftAmp_detection_fixS,2020.1.2,Linux x86_64,60,,,,,,,,,,,,,,,,,,1,12.3943,,0,0,17,17,3,1,stimuli/stim_20210706_power2amp/equal_lnn_AM0.6Hz_s35_50.m4a,,,,,,,,,,,,
,,,,,,,,,,,,41704,2021-09-22_17h03.26.799,judgeSpeechMusic_20210921_logNormShiftAmp_detection_fixS,2020.1.2,Linux x86_64,60,,,,,,,,,,,,,,,,,,1,7.3146,3,1,0,18,18,43,1,stimuli/stim_20210706_power2amp/equal_lnn_AM2.4Hz_s35_40.m4a,3.9041,,,,,,,,,,,
,,,,,,,,,,,,41704,2021-09-22_17h03.26.799,judgeSpeechMusic_20210921_logNormShiftAmp_detection_fixS,2020.1.2,Linux x86_64,60,,,,,,,,,,,,,,,,,,1,7.2174,,0,0,19,19,15,1,stimuli/stim_20210706_power2amp/equal_lnn_AM1.2Hz_s35_45.m4a,,,,,,,,,,,,
,,,,,,,,,,,,41704,2021-09-22_17h03.26.799,judgeSpeechMusic_20210921_logNormShiftAmp_detection_fixS,2020.1.2,Linux x86_64,60,,,,,,,,,,,,,,,,,,2,6.2283,,0,0,20,20,61,1,stimuli/stim_20210706_power2amp/equal_lnn_AM4.2Hz_s35_29.m4a,,,,,,,,,,,,
,,,,,,,,,,,,41704,2021-09-22_17h03.26.799,judgeSpeechMusic_20210921_logNormShiftAmp_detection_fixS,2020.1.2,Linux x86_64,60,,,,,,,,,,,,,,,,,,1,5.7971,,0,0,21,21,49,1,stimuli/stim_20210706_power2amp/equal_lnn_AM3.6Hz_s35_43.m4a,,,,,,,,,,,,
,,,,,,,,,,,,41704,2021-09-22_17h03.26.799,judgeSpeechMusic_20210921_logNormShiftAmp_detection_fixS,2020.1.2,Linux x86_64,60,,,,,,,,,,,,,,,,,,2,6.258,,0,0,22,22,11,1,stimuli/stim_20210706_power2amp/equal_lnn_AM0.6Hz_s35_31.m4a,,,,,,,,,,,,
,,,,,,,,,,,,41704,2021-09-22_17h03.26.799,judgeSpeechMusic_20210921_logNormShiftAmp_detection_fixS,2020.1.2,Linux x86_64,60,,,,,,,,,,,,,,,,,,1,6.1618,,0,0,23,23,51,1,stimuli/stim_20210706_power2amp/equal_lnn_AM3.6Hz_s35_12.m4a,,,,,,,,,,,,
,,,,,,,,,,,,41704,2021-09-22_17h03.26.799,judgeSpeechMusic_20210921_logNormShiftAmp_detection_fixS,2020.1.2,Linux x86_64,60,,,,,,,,,,,,,,,,,,2,6.2278,,0,0,24,24,45,1,stimuli/stim_20210706_power2amp/equal_lnn_AM3.6Hz_s35_35.m4a,,,,,,,,,,,,
,,,,,,,,,,,,41704,2021-09-22_17h03.26.799,judgeSpeechMusic_20210921_logNormShiftAmp_detection_fixS,2020.1.2,Linux x86_64,60,,,,,,,,,,,,,,,,,,1,6.4154,,0,0,25,25,34,1,stimuli/stim_20210706_power2amp/equal_lnn_AM2.4Hz_s35_42.m4a,,,,,,,,,,,,
,,,,,,,,,,,,41704,2021-09-22_17h03.26.799,judgeSpeechMusic_20210921_logNormShiftAmp_detection_fixS,2020.1.2,Linux x86_64,60,,,,,,,,,,,,,,,,,,1,9.0412,,0,0,26,26,59,1,stimuli/stim_20210706_power2amp/equal_lnn_AM3.6Hz_s35_5.m4a,,,,,,,,,,,,
,,,,,,,,,,,,41704,2021-09-22_17h03.26.799,judgeSpeechMusic_20210921_logNormShiftAmp_detection_fixS,2020.1.2,Linux x86_64,60,,,,,,,,,,,,,,,,,,1,6.0845,,0,0,27,27,52,1,stimuli/stim_20210706_power2amp/equal_lnn_AM3.6Hz_s35_10.m4a,,,,,,,,,,,,
,,,,,,,,,,,,41704,2021-09-22_17h03.26.799,judgeSpeechMusic_20210921_logNormShiftAmp_detection_fixS,2020.1.2,Linux x86_64,60,,,,,,,,,,,,,,,,,,2,6.5847,,0,0,28,28,70,1,stimuli/stim_20210706_power2amp/equal_lnn_AM4.2Hz_s35_22.m4a,,,,,,,,,,,,
,,,,,,,,,,,,41704,2021-09-22_17h03.26.799,judgeSpeechMusic_20210921_logNormShiftAmp_detection_fixS,2020.1.2,Linux x86_64,60,,,,,,,,,,,,,,,,,,1,6.4671,,0,0,29,29,36,1,stimuli/stim_20210706_power2amp/equal_lnn_AM2.4Hz_s35_45.m4a,,,,,,,,,,,,
,,,,,,,,,,,,41704,2021-09-22_17h03.26.799,judgeSpeechMusic_20210921_logNormShiftAmp_detection_fixS,2020.1.2,Linux x86_64,60,,,,,,,,,,,,,,,,,,2,6.1791,,0,0,30,30,67,1,stimuli/stim_20210706_power2amp/equal_lnn_AM4.2Hz_s35_9.m4a,,,,,,,,,,,,
,,,,,,,,,,,,41704,2021-09-22_17h03.26.799,judgeSpeechMusic_20210921_logNormShiftAmp_detection_fixS,2020.1.2,Linux x86_64,60,,,,,,,,,,,,,,,,,,1,150.5344,,0,0,31,31,30,1,stimuli/stim_20210706_power2amp/equal_lnn_AM2.4Hz_s35_29.m4a,,,,,,,,,,,,
,,,,,,,,,,,,41704,2021-09-22_17h03.26.799,judgeSpeechMusic_20210921_logNormShiftAmp_detection_fixS,2020.1.2,Linux x86_64,60,,,,,,,,,,,,,,,,,,1,10.5395,,0,0,32,32,29,1,stimuli/stim_20210706_power2amp/equal_lnn_AM1.2Hz_s35_41.m4a,,,,,,,,,,,,
,,,,,,,,,,,,41704,2021-09-22_17h03.26.799,judgeSpeechMusic_20210921_logNormShiftAmp_detection_fixS,2020.1.2,Linux x86_64,60,,,,,,,,,,,,,,,,,,2,6.1467,,0,0,33,33,5,1,stimuli/stim_20210706_power2amp/equal_lnn_AM0.6Hz_s35_17.m4a,,,,,,,,,,,,
,,,,,,,,,,,,41704,2021-09-22_17h03.26.799,judgeSpeechMusic_20210921_logNormShiftAmp_detection_fixS,2020.1.2,Linux x86_64,60,,,,,,,,,,,,,,,,,,1,8.4154,,0,0,34,34,23,1,stimuli/stim_20210706_power2amp/equal_lnn_AM1.2Hz_s35_33.m4a,,,,,,,,,,,,
,,,,,,,,,,,,41704,2021-09-22_17h03.26.799,judgeSpeechMusic_20210921_logNormShiftAmp_detection_fixS,2020.1.2,Linux x86_64,60,,,,,,,,,,,,,,,,,,2,6.6685,,0,0,35,35,63,1,stimuli/stim_20210706_power2amp/equal_lnn_AM4.2Hz_s35_39.m4a,,,,,,,,,,,,
,,,,,,,,,,,,41704,2021-09-22_17h03.26.799,judgeSpeechMusic_20210921_logNormShiftAmp_detection_fixS,2020.1.2,Linux x86_64,60,,,,,,,,,,,,,,,,,,2,8.4684,,0,0,36,36,22,1,stimuli/stim_20210706_power2amp/equal_lnn_AM1.2Hz_s35_44.m4a,,,,,,,,,,,,
,,,,,,,,,,,,41704,2021-09-22_17h03.26.799,judgeSpeechMusic_20210921_logNormShiftAmp_detection_fixS,2020.1.2,Linux x86_64,60,,,,,,,,,,,,,,,,,,1,6.1126,,0,0,37,37,24,1,stimuli/stim_20210706_power2amp/equal_lnn_AM1.2Hz_s35_11.m4a,,,,,,,,,,,,
,,,,,,,,,,,,41704,2021-09-22_17h03.26.799,judgeSpeechMusic_20210921_logNormShiftAmp_detection_fixS,2020.1.2,Linux x86_64,60,,,,,,,,,,,,,,,,,,1,8.6231,,0,0,38,38,26,1,stimuli/stim_20210706_power2amp/equal_lnn_AM1.2Hz_s35_9.m4a,,,,,,,,,,,,
,,,,,,,,,,,,41704,2021-09-22_17h03.26.799,judgeSpeechMusic_20210921_logNormShiftAmp_detection_fixS,2020.1.2,Linux x86_64,60,,,,,,,,,,,,,,,,,,2,8.2363,,0,0,39,39,17,1,stimuli/stim_20210706_power2amp/equal_lnn_AM1.2Hz_s35_31.m4a,,,,,,,,,,,,
,,,,,,,,,,,,41704,2021-09-22_17h03.26.799,judgeSpeechMusic_20210921_logNormShiftAmp_detection_fixS,2020.1.2,Linux x86_64,60,,,,,,,,,,,,,,,,,,1,94.5831,3,1,0,40,40,27,1,stimuli/stim_20210706_power2amp/equal_lnn_AM1.2Hz_s35_38.m4a,4.246,,,,,,,,,,,
,,,,,,,,,,,,41704,2021-09-22_17h03.26.799,judgeSpeechMusic_20210921_logNormShiftAmp_detection_fixS,2020.1.2,Linux x86_64,60,,,,,,,,,,,,,,,,,,2,14.5076,,0,0,41,41,54,1,stimuli/stim_20210706_power2amp/equal_lnn_AM3.6Hz_s35_24.m4a,,,,,,,,,,,,
,,,,,,,,,,,,41704,2021-09-22_17h03.26.799,judgeSpeechMusic_20210921_logNormShiftAmp_detection_fixS,2020.1.2,Linux x86_64,60,,,,,,,,,,,,,,,,,,1,5.8077,,0,0,42,42,21,1,stimuli/stim_20210706_power2amp/equal_lnn_AM1.2Hz_s35_49.m4a,,,,,,,,,,,,
,,,,,,,,,,,,41704,2021-09-22_17h03.26.799,judgeSpeechMusic_20210921_logNormShiftAmp_detection_fixS,2020.1.2,Linux x86_64,60,,,,,,,,,,,,,,,,,,2,6.5623,,0,0,43,43,66,1,stimuli/stim_20210706_power2amp/equal_lnn_AM4.2Hz_s35_34.m4a,,,,,,,,,,,,
,,,,,,,,,,,,41704,2021-09-22_17h03.26.799,judgeSpeechMusic_20210921_logNormShiftAmp_detection_fixS,2020.1.2,Linux x86_64,60,,,,,,,,,,,,,,,,,,2,5.7492,,0,0,44,44,31,1,stimuli/stim_20210706_power2amp/equal_lnn_AM2.4Hz_s35_32.m4a,,,,,,,,,,,,
,,,,,,,,,,,,41704,2021-09-22_17h03.26.799,judgeSpeechMusic_20210921_logNormShiftAmp_detection_fixS,2020.1.2,Linux x86_64,60,,,,,,,,,,,,,,,,,,2,5.9472,,0,0,45,45,68,1,stimuli/stim_20210706_power2amp/equal_lnn_AM4.2Hz_s35_20.m4a,,,,,,,,,,,,
,,,,,,,,,,,,41704,2021-09-22_17h03.26.799,judgeSpeechMusic_20210921_logNormShiftAmp_detection_fixS,2020.1.2,Linux x86_64,60,,,,,,,,,,,,,,,,,,2,6.0826,,0,0,46,46,33,1,stimuli/stim_20210706_power2amp/equal_lnn_AM2.4Hz_s35_48.m4a,,,,,,,,,,,,
,,,,,,,,,,,,41704,2021-09-22_17h03.26.799,judgeSpeechMusic_20210921_logNormShiftAmp_detection_fixS,2020.1.2,Linux x86_64,60,,,,,,,,,,,,,,,,,,2,6.6821,,0,0,47,47,55,1,stimuli/stim_20210706_power2amp/equal_lnn_AM3.6Hz_s35_41.m4a,,,,,,,,,,,,
,,,,,,,,,,,,41704,2021-09-22_17h03.26.799,judgeSpeechMusic_20210921_logNormShiftAmp_detection_fixS,2020.1.2,Linux x86_64,60,,,,,,,,,,,,,,,,,,1,8.0358,,0,0,48,48,40,1,stimuli/stim_20210706_power2amp/equal_lnn_AM2.4Hz_s35_23.m4a,,,,,,,,,,,,
,,,,,,,,,,,,41704,2021-09-22_17h03.26.799,judgeSpeechMusic_20210921_logNormShiftAmp_detection_fixS,2020.1.2,Linux x86_64,60,,,,,,,,,,,,,,,,,,1,5.8669,,0,0,49,49,16,1,stimuli/stim_20210706_power2amp/equal_lnn_AM1.2Hz_s35_32.m4a,,,,,,,,,,,,
,,,,,,,,,,,,41704,2021-09-22_17h03.26.799,judgeSpeechMusic_20210921_logNormShiftAmp_detection_fixS,2020.1.2,Linux x86_64,60,,,,,,,,,,,,,,,,,,2,8.8642,,0,0,50,50,18,1,stimuli/stim_20210706_power2amp/equal_lnn_AM1.2Hz_s35_19.m4a,,,,,,,,,,,,
,,,,,,,,,,,,41704,2021-09-22_17h03.26.799,judgeSpeechMusic_20210921_logNormShiftAmp_detection_fixS,2020.1.2,Linux x86_64,60,,,,,,,,,,,,,,,,,,2,6.3946,,0,0,51,51,58,1,stimuli/stim_20210706_power2amp/equal_lnn_AM3.6Hz_s35_16.m4a,,,,,,,,,,,,
,,,,,,,,,,,,41704,2021-09-22_17h03.26.799,judgeSpeechMusic_20210921_logNormShiftAmp_detection_fixS,2020.1.2,Linux x86_64,60,,,,,,,,,,,,,,,,,,2,6.1859,,0,0,52,52,39,1,stimuli/stim_20210706_power2amp/equal_lnn_AM2.4Hz_s35_13.m4a,,,,,,,,,,,,
,,,,,,,,,,,,41704,2021-09-22_17h03.26.799,judgeSpeechMusic_20210921_logNormShiftAmp_detection_fixS,2020.1.2,Linux x86_64,60,,,,,,,,,,,,,,,,,,1,5.7486,,0,0,53,53,20,1,stimuli/stim_20210706_power2amp/equal_lnn_AM1.2Hz_s35_25.m4a,,,,,,,,,,,,
,,,,,,,,,,,,41704,2021-09-22_17h03.26.799,judgeSpeechMusic_20210921_logNormShiftAmp_detection_fixS,2020.1.2,Linux x86_64,60,,,,,,,,,,,,,,,,,,1,7.3155,,0,0,54,54,25,1,stimuli/stim_20210706_power2amp/equal_lnn_AM1.2Hz_s35_21.m4a,,,,,,,,,,,,
,,,,,,,,,,,,41704,2021-09-22_17h03.26.799,judgeSpeechMusic_20210921_logNormShiftAmp_detection_fixS,2020.1.2,Linux x86_64,60,,,,,,,,,,,,,,,,,,1,9.0022,,0,0,55,55,8,1,stimuli/stim_20210706_power2amp/equal_lnn_AM0.6Hz_s35_16.m4a,,,,,,,,,,,,
,,,,,,,,,,,,41704,2021-09-22_17h03.26.799,judgeSpeechMusic_20210921_logNormShiftAmp_detection_fixS,2020.1.2,Linux x86_64,60,,,,,,,,,,,,,,,,,,2,5.8231,,0,0,56,56,64,1,stimuli/stim_20210706_power2amp/equal_lnn_AM4.2Hz_s35_4.m4a,,,,,,,,,,,,
,,,,,,,,,,,,41704,2021-09-22_17h03.26.799,judgeSpeechMusic_20210921_logNormShiftAmp_detection_fixS,2020.1.2,Linux x86_64,60,,,,,,,,,,,,,,,,,,1,10.4183,,0,0,57,57,12,1,stimuli/stim_20210706_power2amp/equal_lnn_AM0.6Hz_s35_12.m4a,,,,,,,,,,,,
,,,,,,,,,,,,41704,2021-09-22_17h03.26.799,judgeSpeechMusic_20210921_logNormShiftAmp_detection_fixS,2020.1.2,Linux x86_64,60,,,,,,,,,,,,,,,,,,2,14.8439,,0,0,58,58,56,1,stimuli/stim_20210706_power2amp/equal_lnn_AM3.6Hz_s35_3.m4a,,,,,,,,,,,,
,,,,,,,,,,,,41704,2021-09-22_17h03.26.799,judgeSpeechMusic_20210921_logNormShiftAmp_detection_fixS,2020.1.2,Linux x86_64,60,,,,,,,,,,,,,,,,,,1,6.8523,,0,0,59,59,9,1,stimuli/stim_20210706_power2amp/equal_lnn_AM0.6Hz_s35_21.m4a,,,,,,,,,,,,
,,,,,,,,,,,,41704,2021-09-22_17h03.26.799,judgeSpeechMusic_20210921_logNormShiftAmp_detection_fixS,2020.1.2,Linux x86_64,60,,,,,,,,,,,,,,,,,,2,5.9696,,0,0,60,60,48,1,stimuli/stim_20210706_power2amp/equal_lnn_AM3.6Hz_s35_20.m4a,,,,,,,,,,,,
,,,,,,,,,,,,41704,2021-09-22_17h03.26.799,judgeSpeechMusic_20210921_logNormShiftAmp_detection_fixS,2020.1.2,Linux x86_64,60,,,,,,,,,,,,,,,,,,1,5.7805,4,1,0,61,61,53,1,stimuli/stim_20210706_power2amp/equal_lnn_AM3.6Hz_s35_50.m4a,3.6379,,,,,,,,,,,
,,,,,,,,,,,,41704,2021-09-22_17h03.26.799,judgeSpeechMusic_20210921_logNormShiftAmp_detection_fixS,2020.1.2,Linux x86_64,60,,,,,,,,,,,,,,,,,,1,17.4301,,0,0,62,62,7,1,stimuli/stim_20210706_power2amp/equal_lnn_AM0.6Hz_s35_47.m4a,,,,,,,,,,,,
,,,,,,,,,,,,41704,2021-09-22_17h03.26.799,judgeSpeechMusic_20210921_logNormShiftAmp_detection_fixS,2020.1.2,Linux x86_64,60,,,,,,,,,,,,,,,,,,2,55.0964,,0,0,63,63,69,1,stimuli/stim_20210706_power2amp/equal_lnn_AM4.2Hz_s35_37.m4a,,,,,,,,,,,,
,,,,,,,,,,,,41704,2021-09-22_17h03.26.799,judgeSpeechMusic_20210921_logNormShiftAmp_detection_fixS,2020.1.2,Linux x86_64,60,,,,,,,,,,,,,,,,,,1,6.2508,,0,0,64,64,65,1,stimuli/stim_20210706_power2amp/equal_lnn_AM4.2Hz_s35_17.m4a,,,,,,,,,,,,
,,,,,,,,,,,,41704,2021-09-22_17h03.26.799,judgeSpeechMusic_20210921_logNormShiftAmp_detection_fixS,2020.1.2,Linux x86_64,60,,,,,,,,,,,,,,,,,,1,9.6678,,0,0,65,65,62,1,stimuli/stim_20210706_power2amp/equal_lnn_AM4.2Hz_s35_1.m4a,,,,,,,,,,,,
,,,,,,,,,,,,41704,2021-09-22_17h03.26.799,judgeSpeechMusic_20210921_logNormShiftAmp_detection_fixS,2020.1.2,Linux x86_64,60,,,,,,,,,,,,,,,,,,2,6.5474,,0,0,66,66,35,1,stimuli/stim_20210706_power2amp/equal_lnn_AM2.4Hz_s35_26.m4a,,,,,,,,,,,,
,,,,,,,,,,,,41704,2021-09-22_17h03.26.799,judgeSpeechMusic_20210921_logNormShiftAmp_detection_fixS,2020.1.2,Linux x86_64,60,,,,,,,,,,,,,,,,,,2,6.3288,,0,0,67,67,72,1,stimuli/stim_20210706_power2amp/equal_lnn_AM4.2Hz_s35_19.m4a,,,,,,,,,,,,
,,,,,,,,,,,,41704,2021-09-22_17h03.26.799,judgeSpeechMusic_20210921_logNormShiftAmp_detection_fixS,2020.1.2,Linux x86_64,60,,,,,,,,,,,,,,,,,,2,6.0712,,0,0,68,68,2,1,stimuli/stim_20210706_power2amp/equal_lnn_AM0.6Hz_s35_23.m4a,,,,,,,,,,,,
,,,,,,,,,,,,41704,2021-09-22_17h03.26.799,judgeSpeechMusic_20210921_logNormShiftAmp_detection_fixS,2020.1.2,Linux x86_64,60,,,,,,,,,,,,,,,,,,2,7.1595,,0,0,69,69,6,1,stimuli/stim_20210706_power2amp/equal_lnn_AM0.6Hz_s35_46.m4a,,,,,,,,,,,,
,,,,,,,,,,,,41704,2021-09-22_17h03.26.799,judgeSpeechMusic_20210921_logNormShiftAmp_detection_fixS,2020.1.2,Linux x86_64,60,,,,,,,,,,,,,,,,,,2,56.7913,,0,0,70,70,73,1,stimuli/stim_20210706_power2amp/equal_lnn_AM4.2Hz_s35_26.m4a,,,,,,,,,,,,
,,,,,,,,,,,,41704,2021-09-22_17h03.26.799,judgeSpeechMusic_20210921_logNormShiftAmp_detection_fixS,2020.1.2,Linux x86_64,60,,,,,,,,,,,,,,,,,,2,59.2367,,0,0,71,71,10,1,stimuli/stim_20210706_power2amp/equal_lnn_AM0.6Hz_s35_36.m4a,,,,,,,,,,,,
,,,,,,,,,,,,41704,2021-09-22_17h03.26.799,judgeSpeechMusic_20210921_logNormShiftAmp_detection_fixS,2020.1.2,Linux x86_64,60,,,,,,,,,,,,,,,,,,2,7.0185,,0,0,72,72,37,1,stimuli/stim_20210706_power2amp/equal_lnn_AM2.4Hz_s35_50.m4a,,,,,,,,,,,,
,,,,,,,,,,,,41704,2021-09-22_17h03.26.799,judgeSpeechMusic_20210921_logNormShiftAmp_detection_fixS,2020.1.2,Linux x86_64,60,,,,,,,,,,,,,,,,,,1,6.3318,,0,0,73,73,42,1,stimuli/stim_20210706_power2amp/equal_lnn_AM2.4Hz_s35_20.m4a,,,,,,,,,,,,
,,,,,,,,,,,,41704,2021-09-22_17h03.26.799,judgeSpeechMusic_20210921_logNormShiftAmp_detection_fixS,2020.1.2,Linux x86_64,60,,,,,,,,,,,,,,,,,,1,7.0979,,0,0,74,74,47,1,stimuli/stim_20210706_power2amp/equal_lnn_AM3.6Hz_s35_18.m4a,,,,,,,,,,,,
,,,,,,,,,,,,41704,2021-09-22_17h03.26.799,judgeSpeechMusic_20210921_logNormShiftAmp_detection_fixS,2020.1.2,Linux x86_64,60,,,,,,,,,,,,,,,,,,,,,,,,,,,,,space,20.068,0,0,0,0,1,MUSIC,stimuli/MUSIC.jpg,,
,,,,,,,,,,,,41704,2021-09-22_17h03.26.799,judgeSpeechMusic_20210921_logNormShiftAmp_detection_fixS,2020.1.2,Linux x86_64,60,space,1.6591,1,7.052,,0,0,0,0,3,1,stimuli/stim_20210706_power2amp/equal_lnn_AM_training3.9Hz_s35.m4a,,,,,,,,,,,,,,,,,,,,,,,,,,,
,,,,,,,,,,,,41704,2021-09-22_17h03.26.799,judgeSpeechMusic_20210921_logNormShiftAmp_detection_fixS,2020.1.2,Linux x86_64,60,,,1,9.9013,,0,0,1,1,0,1,stimuli/stim_20210706_power2amp/equal_lnn_AM_training0.9Hz_s35.m4a,,,,,,,,,,,,,,,,,,,,,,,,,,,
,,,,,,,,,,,,41704,2021-09-22_17h03.26.799,judgeSpeechMusic_20210921_logNormShiftAmp_detection_fixS,2020.1.2,Linux x86_64,60,,,1,9.1251,2,1,0,2,2,1,1,stimuli/stim_20210706_power2amp/equal_lnn_AM_training1.8Hz_s35.m4a,1.5307,,,,,,,,,,,,,,,,,,,,,,,,,,
,,,,,,,,,,,,41704,2021-09-22_17h03.26.799,judgeSpeechMusic_20210921_logNormShiftAmp_detection_fixS,2020.1.2,Linux x86_64,60,,,2,5.8814,,0,0,3,3,2,1,stimuli/stim_20210706_power2amp/equal_lnn_AM_training3Hz_s35.m4a,,,,,,,,,,,,,,,,,,,,,,,,,,,
,,,,,,,,,,,,41704,2021-09-22_17h03.26.799,judgeSpeechMusic_20210921_logNormShiftAmp_detection_fixS,2020.1.2,Linux x86_64,60,,,,,,,,,,,,,,space,6.7169,space,28.008,1,6.4746,,0,0,0,0,62,1,stimuli/stim_20210706_power2amp/equal_lnn_AM4.2Hz_s35_1.m4a,,,,,,,,,,,,
,,,,,,,,,,,,41704,2021-09-22_17h03.26.799,judgeSpeechMusic_20210921_logNormShiftAmp_detection_fixS,2020.1.2,Linux x86_64,60,,,,,,,,,,,,,,,,,,1,7.6422,,0,0,1,1,26,1,stimuli/stim_20210706_power2amp/equal_lnn_AM1.2Hz_s35_9.m4a,,,,,,,,,,,,
,,,,,,,,,,,,41704,2021-09-22_17h03.26.799,judgeSpeechMusic_20210921_logNormShiftAmp_detection_fixS,2020.1.2,Linux x86_64,60,,,,,,,,,,,,,,,,,,1,6.8978,,0,0,2,2,19,1,stimuli/stim_20210706_power2amp/equal_lnn_AM1.2Hz_s35_2.m4a,,,,,,,,,,,,
,,,,,,,,,,,,41704,2021-09-22_17h03.26.799,judgeSpeechMusic_20210921_logNormShiftAmp_detection_fixS,2020.1.2,Linux x86_64,60,,,,,,,,,,,,,,,,,,2,5.8567,,0,0,3,3,63,1,stimuli/stim_20210706_power2amp/equal_lnn_AM4.2Hz_s35_39.m4a,,,,,,,,,,,,
,,,,,,,,,,,,41704,2021-09-22_17h03.26.799,judgeSpeechMusic_20210921_logNormShiftAmp_detection_fixS,2020.1.2,Linux x86_64,60,,,,,,,,,,,,,,,,,,2,6.4318,,0,0,4,4,8,1,stimuli/stim_20210706_power2amp/equal_lnn_AM0.6Hz_s35_16.m4a,,,,,,,,,,,,
,,,,,,,,,,,,41704,2021-09-22_17h03.26.799,judgeSpeechMusic_20210921_logNormShiftAmp_detection_fixS,2020.1.2,Linux x86_64,60,,,,,,,,,,,,,,,,,,2,7.3559,,0,0,5,5,56,1,stimuli/stim_20210706_power2amp/equal_lnn_AM3.6Hz_s35_3.m4a,,,,,,,,,,,,
,,,,,,,,,,,,41704,2021-09-22_17h03.26.799,judgeSpeechMusic_20210921_logNormShiftAmp_detection_fixS,2020.1.2,Linux x86_64,60,,,,,,,,,,,,,,,,,,2,7.6378,,0,0,6,6,48,1,stimuli/stim_20210706_power2amp/equal_lnn_AM3.6Hz_s35_20.m4a,,,,,,,,,,,,
,,,,,,,,,,,,41704,2021-09-22_17h03.26.799,judgeSpeechMusic_20210921_logNormShiftAmp_detection_fixS,2020.1.2,Linux x86_64,60,,,,,,,,,,,,,,,,,,2,5.9175,,0,0,7,7,73,1,stimuli/stim_20210706_power2amp/equal_lnn_AM4.2Hz_s35_26.m4a,,,,,,,,,,,,
,,,,,,,,,,,,41704,2021-09-22_17h03.26.799,judgeSpeechMusic_20210921_logNormShiftAmp_detection_fixS,2020.1.2,Linux x86_64,60,,,,,,,,,,,,,,,,,,1,6.0491,,0,0,8,8,15,1,stimuli/stim_20210706_power2amp/equal_lnn_AM1.2Hz_s35_45.m4a,,,,,,,,,,,,
,,,,,,,,,,,,41704,2021-09-22_17h03.26.799,judgeSpeechMusic_20210921_logNormShiftAmp_detection_fixS,2020.1.2,Linux x86_64,60,,,,,,,,,,,,,,,,,,1,5.898,,0,0,9,9,1,1,stimuli/stim_20210706_power2amp/equal_lnn_AM0.6Hz_s35_33.m4a,,,,,,,,,,,,
,,,,,,,,,,,,41704,2021-09-22_17h03.26.799,judgeSpeechMusic_20210921_logNormShiftAmp_detection_fixS,2020.1.2,Linux x86_64,60,,,,,,,,,,,,,,,,,,2,6.2888,,0,0,10,10,38,1,stimuli/stim_20210706_power2amp/equal_lnn_AM2.4Hz_s35_12.m4a,,,,,,,,,,,,
,,,,,,,,,,,,41704,2021-09-22_17h03.26.799,judgeSpeechMusic_20210921_logNormShiftAmp_detection_fixS,2020.1.2,Linux x86_64,60,,,,,,,,,,,,,,,,,,2,6.8097,,0,0,11,11,2,1,stimuli/stim_20210706_power2amp/equal_lnn_AM0.6Hz_s35_23.m4a,,,,,,,,,,,,
,,,,,,,,,,,,41704,2021-09-22_17h03.26.799,judgeSpeechMusic_20210921_logNormShiftAmp_detection_fixS,2020.1.2,Linux x86_64,60,,,,,,,,,,,,,,,,,,1,7.4881,,0,0,12,12,59,1,stimuli/stim_20210706_power2amp/equal_lnn_AM3.6Hz_s35_5.m4a,,,,,,,,,,,,
,,,,,,,,,,,,41704,2021-09-22_17h03.26.799,judgeSpeechMusic_20210921_logNormShiftAmp_detection_fixS,2020.1.2,Linux x86_64,60,,,,,,,,,,,,,,,,,,1,17.4645,,0,0,13,13,36,1,stimuli/stim_20210706_power2amp/equal_lnn_AM2.4Hz_s35_45.m4a,,,,,,,,,,,,
,,,,,,,,,,,,41704,2021-09-22_17h03.26.799,judgeSpeechMusic_20210921_logNormShiftAmp_detection_fixS,2020.1.2,Linux x86_64,60,,,,,,,,,,,,,,,,,,1,5.765,,0,0,14,14,6,1,stimuli/stim_20210706_power2amp/equal_lnn_AM0.6Hz_s35_46.m4a,,,,,,,,,,,,
,,,,,,,,,,,,41704,2021-09-22_17h03.26.799,judgeSpeechMusic_20210921_logNormShiftAmp_detection_fixS,2020.1.2,Linux x86_64,60,,,,,,,,,,,,,,,,,,2,6.6172,,0,0,15,15,25,1,stimuli/stim_20210706_power2amp/equal_lnn_AM1.2Hz_s35_21.m4a,,,,,,,,,,,,
,,,,,,,,,,,,41704,2021-09-22_17h03.26.799,judgeSpeechMusic_20210921_logNormShiftAmp_detection_fixS,2020.1.2,Linux x86_64,60,,,,,,,,,,,,,,,,,,1,6.7832,,0,0,16,16,28,1,stimuli/stim_20210706_power2amp/equal_lnn_AM1.2Hz_s35_43.m4a,,,,,,,,,,,,
,,,,,,,,,,,,41704,2021-09-22_17h03.26.799,judgeSpeechMusic_20210921_logNormShiftAmp_detection_fixS,2020.1.2,Linux x86_64,60,,,,,,,,,,,,,,,,,,1,8.0022,,0,0,17,17,70,1,stimuli/stim_20210706_power2amp/equal_lnn_AM4.2Hz_s35_22.m4a,,,,,,,,,,,,
,,,,,,,,,,,,41704,2021-09-22_17h03.26.799,judgeSpeechMusic_20210921_logNormShiftAmp_detection_fixS,2020.1.2,Linux x86_64,60,,,,,,,,,,,,,,,,,,2,5.7137,1,1,0,18,18,66,1,stimuli/stim_20210706_power2amp/equal_lnn_AM4.2Hz_s35_34.m4a,1.3435,,,,,,,,,,,
,,,,,,,,,,,,41704,2021-09-22_17h03.26.799,judgeSpeechMusic_20210921_logNormShiftAmp_detection_fixS,2020.1.2,Linux x86_64,60,,,,,,,,,,,,,,,,,,1,7.0529,,0,0,19,19,11,1,stimuli/stim_20210706_power2amp/equal_lnn_AM0.6Hz_s35_31.m4a,,,,,,,,,,,,
,,,,,,,,,,,,41704,2021-09-22_17h03.26.799,judgeSpeechMusic_20210921_logNormShiftAmp_detection_fixS,2020.1.2,Linux x86_64,60,,,,,,,,,,,,,,,,,,2,6.2985,,0,0,20,20,22,1,stimuli/stim_20210706_power2amp/equal_lnn_AM1.2Hz_s35_44.m4a,,,,,,,,,,,,
,,,,,,,,,,,,41704,2021-09-22_17h03.26.799,judgeSpeechMusic_20210921_logNormShiftAmp_detection_fixS,2020.1.2,Linux x86_64,60,,,,,,,,,,,,,,,,,,2,5.7175,,0,0,21,21,50,1,stimuli/stim_20210706_power2amp/equal_lnn_AM3.6Hz_s35_26.m4a,,,,,,,,,,,,
,,,,,,,,,,,,41704,2021-09-22_17h03.26.799,judgeSpeechMusic_20210921_logNormShiftAmp_detection_fixS,2020.1.2,Linux x86_64,60,,,,,,,,,,,,,,,,,,1,5.8665,,0,0,22,22,18,1,stimuli/stim_20210706_power2amp/equal_lnn_AM1.2Hz_s35_19.m4a,,,,,,,,,,,,
,,,,,,,,,,,,41704,2021-09-22_17h03.26.799,judgeSpeechMusic_20210921_logNormShiftAmp_detection_fixS,2020.1.2,Linux x86_64,60,,,,,,,,,,,,,,,,,,2,6.0049,,0,0,23,23,53,1,stimuli/stim_20210706_power2amp/equal_lnn_AM3.6Hz_s35_50.m4a,,,,,,,,,,,,
,,,,,,,,,,,,41704,2021-09-22_17h03.26.799,judgeSpeechMusic_20210921_logNormShiftAmp_detection_fixS,2020.1.2,Linux x86_64,60,,,,,,,,,,,,,,,,,,2,5.6638,,0,0,24,24,65,1,stimuli/stim_20210706_power2amp/equal_lnn_AM4.2Hz_s35_17.m4a,,,,,,,,,,,,
,,,,,,,,,,,,41704,2021-09-22_17h03.26.799,judgeSpeechMusic_20210921_logNormShiftAmp_detection_fixS,2020.1.2,Linux x86_64,60,,,,,,,,,,,,,,,,,,1,6.3412,,0,0,25,25,52,1,stimuli/stim_20210706_power2amp/equal_lnn_AM3.6Hz_s35_10.m4a,,,,,,,,,,,,
,,,,,,,,,,,,41704,2021-09-22_17h03.26.799,judgeSpeechMusic_20210921_logNormShiftAmp_detection_fixS,2020.1.2,Linux x86_64,60,,,,,,,,,,,,,,,,,,1,7.4421,,0,0,26,26,3,1,stimuli/stim_20210706_power2amp/equal_lnn_AM0.6Hz_s35_50.m4a,,,,,,,,,,,,
,,,,,,,,,,,,41704,2021-09-22_17h03.26.799,judgeSpeechMusic_20210921_logNormShiftAmp_detection_fixS,2020.1.2,Linux x86_64,60,,,,,,,,,,,,,,,,,,2,10.501,,0,0,27,27,55,1,stimuli/stim_20210706_power2amp/equal_lnn_AM3.6Hz_s35_41.m4a,,,,,,,,,,,,
,,,,,,,,,,,,41704,2021-09-22_17h03.26.799,judgeSpeechMusic_20210921_logNormShiftAmp_detection_fixS,2020.1.2,Linux x86_64,60,,,,,,,,,,,,,,,,,,2,11.0637,,0,0,28,28,42,1,stimuli/stim_20210706_power2amp/equal_lnn_AM2.4Hz_s35_20.m4a,,,,,,,,,,,,
,,,,,,,,,,,,41704,2021-09-22_17h03.26.799,judgeSpeechMusic_20210921_logNormShiftAmp_detection_fixS,2020.1.2,Linux x86_64,60,,,,,,,,,,,,,,,,,,1,9.545,,0,0,29,29,30,1,stimuli/stim_20210706_power2amp/equal_lnn_AM2.4Hz_s35_29.m4a,,,,,,,,,,,,
,,,,,,,,,,,,41704,2021-09-22_17h03.26.799,judgeSpeechMusic_20210921_logNormShiftAmp_detection_fixS,2020.1.2,Linux x86_64,60,,,,,,,,,,,,,,,,,,1,6.0655,,0,0,30,30,13,1,stimuli/stim_20210706_power2amp/equal_lnn_AM0.6Hz_s35_37.m4a,,,,,,,,,,,,
,,,,,,,,,,,,41704,2021-09-22_17h03.26.799,judgeSpeechMusic_20210921_logNormShiftAmp_detection_fixS,2020.1.2,Linux x86_64,60,,,,,,,,,,,,,,,,,,1,8.4304,,0,0,31,31,5,1,stimuli/stim_20210706_power2amp/equal_lnn_AM0.6Hz_s35_17.m4a,,,,,,,,,,,,
,,,,,,,,,,,,41704,2021-09-22_17h03.26.799,judgeSpeechMusic_20210921_logNormShiftAmp_detection_fixS,2020.1.2,Linux x86_64,60,,,,,,,,,,,,,,,,,,2,5.9062,,0,0,32,32,41,1,stimuli/stim_20210706_power2amp/equal_lnn_AM2.4Hz_s35_30.m4a,,,,,,,,,,,,
,,,,,,,,,,,,41704,2021-09-22_17h03.26.799,judgeSpeechMusic_20210921_logNormShiftAmp_detection_fixS,2020.1.2,Linux x86_64,60,,,,,,,,,,,,,,,,,,1,10.5241,,0,0,33,33,17,1,stimuli/stim_20210706_power2amp/equal_lnn_AM1.2Hz_s35_31.m4a,,,,,,,,,,,,
,,,,,,,,,,,,41704,2021-09-22_17h03.26.799,judgeSpeechMusic_20210921_logNormShiftAmp_detection_fixS,2020.1.2,Linux x86_64,60,,,,,,,,,,,,,,,,,,1,8.9217,,0,0,34,34,21,1,stimuli/stim_20210706_power2amp/equal_lnn_AM1.2Hz_s35_49.m4a,,,,,,,,,,,,
,,,,,,,,,,,,41704,2021-09-22_17h03.26.799,judgeSpeechMusic_20210921_logNormShiftAmp_detection_fixS,2020.1.2,Linux x86_64,60,,,,,,,,,,,,,,,,,,2,6.9149,,0,0,35,35,58,1,stimuli/stim_20210706_power2amp/equal_lnn_AM3.6Hz_s35_16.m4a,,,,,,,,,,,,
,,,,,,,,,,,,41704,2021-09-22_17h03.26.799,judgeSpeechMusic_20210921_logNormShiftAmp_detection_fixS,2020.1.2,Linux x86_64,60,,,,,,,,,,,,,,,,,,2,6.6155,,0,0,36,36,69,1,stimuli/stim_20210706_power2amp/equal_lnn_AM4.2Hz_s35_37.m4a,,,,,,,,,,,,
,,,,,,,,,,,,41704,2021-09-22_17h03.26.799,judgeSpeechMusic_20210921_logNormShiftAmp_detection_fixS,2020.1.2,Linux x86_64,60,,,,,,,,,,,,,,,,,,2,22.4326,,0,0,37,37,37,1,stimuli/stim_20210706_power2amp/equal_lnn_AM2.4Hz_s35_50.m4a,,,,,,,,,,,,
,,,,,,,,,,,,41704,2021-09-22_17h03.26.799,judgeSpeechMusic_20210921_logNormShiftAmp_detection_fixS,2020.1.2,Linux x86_64,60,,,,,,,,,,,,,,,,,,1,6.0949,,0,0,38,38,14,1,stimuli/stim_20210706_power2amp/equal_lnn_AM0.6Hz_s35_13.m4a,,,,,,,,,,,,
,,,,,,,,,,,,41704,2021-09-22_17h03.26.799,judgeSpeechMusic_20210921_logNormShiftAmp_detection_fixS,2020.1.2,Linux x86_64,60,,,,,,,,,,,,,,,,,,2,15.6665,,0,0,39,39,49,1,stimuli/stim_20210706_power2amp/equal_lnn_AM3.6Hz_s35_43.m4a,,,,,,,,,,,,
,,,,,,,,,,,,41704,2021-09-22_17h03.26.799,judgeSpeechMusic_20210921_logNormShiftAmp_detection_fixS,2020.1.2,Linux x86_64,60,,,,,,,,,,,,,,,,,,2,25.5031,1,1,0,40,40,72,1,stimuli/stim_20210706_power2amp/equal_lnn_AM4.2Hz_s35_19.m4a,0.7054,,,,,,,,,,,
,,,,,,,,,,,,41704,2021-09-22_17h03.26.799,judgeSpeechMusic_20210921_logNormShiftAmp_detection_fixS,2020.1.2,Linux x86_64,60,,,,,,,,,,,,,,,,,,2,5.7971,,0,0,41,41,10,1,stimuli/stim_20210706_power2amp/equal_lnn_AM0.6Hz_s35_36.m4a,,,,,,,,,,,,
,,,,,,,,,,,,41704,2021-09-22_17h03.26.799,judgeSpeechMusic_20210921_logNormShiftAmp_detection_fixS,2020.1.2,Linux x86_64,60,,,,,,,,,,,,,,,,,,2,5.775,,0,0,42,42,27,1,stimuli/stim_20210706_power2amp/equal_lnn_AM1.2Hz_s35_38.m4a,,,,,,,,,,,,
,,,,,,,,,,,,41704,2021-09-22_17h03.26.799,judgeSpeechMusic_20210921_logNormShiftAmp_detection_fixS,2020.1.2,Linux x86_64,60,,,,,,,,,,,,,,,,,,1,6.0774,,0,0,43,43,43,1,stimuli/stim_20210706_power2amp/equal_lnn_AM2.4Hz_s35_40.m4a,,,,,,,,,,,,
,,,,,,,,,,,,41704,2021-09-22_17h03.26.799,judgeSpeechMusic_20210921_logNormShiftAmp_detection_fixS,2020.1.2,Linux x86_64,60,,,,,,,,,,,,,,,,,,1,6.5521,,0,0,44,44,33,1,stimuli/stim_20210706_power2amp/equal_lnn_AM2.4Hz_s35_48.m4a,,,,,,,,,,,,
,,,,,,,,,,,,41704,2021-09-22_17h03.26.799,judgeSpeechMusic_20210921_logNormShiftAmp_detection_fixS,2020.1.2,Linux x86_64,60,,,,,,,,,,,,,,,,,,1,5.6459,,0,0,45,45,51,1,stimuli/stim_20210706_power2amp/equal_lnn_AM3.6Hz_s35_12.m4a,,,,,,,,,,,,
,,,,,,,,,,,,41704,2021-09-22_17h03.26.799,judgeSpeechMusic_20210921_logNormShiftAmp_detection_fixS,2020.1.2,Linux x86_64,60,,,,,,,,,,,,,,,,,,1,27.7801,,0,0,46,46,74,1,stimuli/stim_20210706_power2amp/equal_lnn_AM4.2Hz_s35_11.m4a,,,,,,,,,,,,
,,,,,,,,,,,,41704,2021-09-22_17h03.26.799,judgeSpeechMusic_20210921_logNormShiftAmp_detection_fixS,2020.1.2,Linux x86_64,60,,,,,,,,,,,,,,,,,,2,6.7487,,0,0,47,47,60,1,stimuli/stim_20210706_power2amp/equal_lnn_AM4.2Hz_s35_28.m4a,,,,,,,,,,,,
,,,,,,,,,,,,41704,2021-09-22_17h03.26.799,judgeSpeechMusic_20210921_logNormShiftAmp_detection_fixS,2020.1.2,Linux x86_64,60,,,,,,,,,,,,,,,,,,1,7.1369,,0,0,48,48,24,1,stimuli/stim_20210706_power2amp/equal_lnn_AM1.2Hz_s35_11.m4a,,,,,,,,,,,,
,,,,,,,,,,,,41704,2021-09-22_17h03.26.799,judgeSpeechMusic_20210921_logNormShiftAmp_detection_fixS,2020.1.2,Linux x86_64,60,,,,,,,,,,,,,,,,,,2,24.4208,,0,0,49,49,16,1,stimuli/stim_20210706_power2amp/equal_lnn_AM1.2Hz_s35_32.m4a,,,,,,,,,,,,
,,,,,,,,,,,,41704,2021-09-22_17h03.26.799,judgeSpeechMusic_20210921_logNormShiftAmp_detection_fixS,2020.1.2,Linux x86_64,60,,,,,,,,,,,,,,,,,,1,22.2035,,0,0,50,50,67,1,stimuli/stim_20210706_power2amp/equal_lnn_AM4.2Hz_s35_9.m4a,,,,,,,,,,,,
,,,,,,,,,,,,41704,2021-09-22_17h03.26.799,judgeSpeechMusic_20210921_logNormShiftAmp_detection_fixS,2020.1.2,Linux x86_64,60,,,,,,,,,,,,,,,,,,1,13.9331,,0,0,51,51,39,1,stimuli/stim_20210706_power2amp/equal_lnn_AM2.4Hz_s35_13.m4a,,,,,,,,,,,,
,,,,,,,,,,,,41704,2021-09-22_17h03.26.799,judgeSpeechMusic_20210921_logNormShiftAmp_detection_fixS,2020.1.2,Linux x86_64,60,,,,,,,,,,,,,,,,,,2,59.3913,,0,0,52,52,23,1,stimuli/stim_20210706_power2amp/equal_lnn_AM1.2Hz_s35_33.m4a,,,,,,,,,,,,
,,,,,,,,,,,,41704,2021-09-22_17h03.26.799,judgeSpeechMusic_20210921_logNormShiftAmp_detection_fixS,2020.1.2,Linux x86_64,60,,,,,,,,,,,,,,,,,,2,47.5352,,0,0,53,53,20,1,stimuli/stim_20210706_power2amp/equal_lnn_AM1.2Hz_s35_25.m4a,,,,,,,,,,,,
,,,,,,,,,,,,41704,2021-09-22_17h03.26.799,judgeSpeechMusic_20210921_logNormShiftAmp_detection_fixS,2020.1.2,Linux x86_64,60,,,,,,,,,,,,,,,,,,2,6.7845,,0,0,54,54,61,1,stimuli/stim_20210706_power2amp/equal_lnn_AM4.2Hz_s35_29.m4a,,,,,,,,,,,,
,,,,,,,,,,,,41704,2021-09-22_17h03.26.799,judgeSpeechMusic_20210921_logNormShiftAmp_detection_fixS,2020.1.2,Linux x86_64,60,,,,,,,,,,,,,,,,,,2,68.6199,,0,0,55,55,44,1,stimuli/stim_20210706_power2amp/equal_lnn_AM2.4Hz_s35_18.m4a,,,,,,,,,,,,
,,,,,,,,,,,,41704,2021-09-22_17h03.26.799,judgeSpeechMusic_20210921_logNormShiftAmp_detection_fixS,2020.1.2,Linux x86_64,60,,,,,,,,,,,,,,,,,,2,13.5304,,0,0,56,56,57,1,stimuli/stim_20210706_power2amp/equal_lnn_AM3.6Hz_s35_1.m4a,,,,,,,,,,,,
,,,,,,,,,,,,41704,2021-09-22_17h03.26.799,judgeSpeechMusic_20210921_logNormShiftAmp_detection_fixS,2020.1.2,Linux x86_64,60,,,,,,,,,,,,,,,,,,2,39.7434,,0,0,57,57,7,1,stimuli/stim_20210706_power2amp/equal_lnn_AM0.6Hz_s35_47.m4a,,,,,,,,,,,,
,,,,,,,,,,,,41704,2021-09-22_17h03.26.799,judgeSpeechMusic_20210921_logNormShiftAmp_detection_fixS,2020.1.2,Linux x86_64,60,,,,,,,,,,,,,,,,,,2,11.144,,0,0,58,58,46,1,stimuli/stim_20210706_power2amp/equal_lnn_AM3.6Hz_s35_33.m4a,,,,,,,,,,,,
,,,,,,,,,,,,41704,2021-09-22_17h03.26.799,judgeSpeechMusic_20210921_logNormShiftAmp_detection_fixS,2020.1.2,Linux x86_64,60,,,,,,,,,,,,,,,,,,1,24.2343,,0,0,59,59,68,1,stimuli/stim_20210706_power2amp/equal_lnn_AM4.2Hz_s35_20.m4a,,,,,,,,,,,,
,,,,,,,,,,,,41704,2021-09-22_17h03.26.799,judgeSpeechMusic_20210921_logNormShiftAmp_detection_fixS,2020.1.2,Linux x86_64,60,,,,,,,,,,,,,,,,,,2,6.4495,,0,0,60,60,40,1,stimuli/stim_20210706_power2amp/equal_lnn_AM2.4Hz_s35_23.m4a,,,,,,,,,,,,
,,,,,,,,,,,,41704,2021-09-22_17h03.26.799,judgeSpeechMusic_20210921_logNormShiftAmp_detection_fixS,2020.1.2,Linux x86_64,60,,,,,,,,,,,,,,,,,,1,55.1804,3,1,0,61,61,9,1,stimuli/stim_20210706_power2amp/equal_lnn_AM0.6Hz_s35_21.m4a,1.2169,,,,,,,,,,,
,,,,,,,,,,,,41704,2021-09-22_17h03.26.799,judgeSpeechMusic_20210921_logNormShiftAmp_detection_fixS,2020.1.2,Linux x86_64,60,,,,,,,,,,,,,,,,,,1,34.2551,,0,0,62,62,54,1,stimuli/stim_20210706_power2amp/equal_lnn_AM3.6Hz_s35_24.m4a,,,,,,,,,,,,
,,,,,,,,,,,,41704,2021-09-22_17h03.26.799,judgeSpeechMusic_20210921_logNormShiftAmp_detection_fixS,2020.1.2,Linux x86_64,60,,,,,,,,,,,,,,,,,,1,7.2529,,0,0,63,63,29,1,stimuli/stim_20210706_power2amp/equal_lnn_AM1.2Hz_s35_41.m4a,,,,,,,,,,,,
,,,,,,,,,,,,41704,2021-09-22_17h03.26.799,judgeSpeechMusic_20210921_logNormShiftAmp_detection_fixS,2020.1.2,Linux x86_64,60,,,,,,,,,,,,,,,,,,1,8.3677,,0,0,64,64,32,1,stimuli/stim_20210706_power2amp/equal_lnn_AM2.4Hz_s35_31.m4a,,,,,,,,,,,,
,,,,,,,,,,,,41704,2021-09-22_17h03.26.799,judgeSpeechMusic_20210921_logNormShiftAmp_detection_fixS,2020.1.2,Linux x86_64,60,,,,,,,,,,,,,,,,,,1,11.8613,,0,0,65,65,0,1,stimuli/stim_20210706_power2amp/equal_lnn_AM0.6Hz_s35_40.m4a,,,,,,,,,,,,
,,,,,,,,,,,,41704,2021-09-22_17h03.26.799,judgeSpeechMusic_20210921_logNormShiftAmp_detection_fixS,2020.1.2,Linux x86_64,60,,,,,,,,,,,,,,,,,,2,5.6806,,0,0,66,66,4,1,stimuli/stim_20210706_power2amp/equal_lnn_AM0.6Hz_s35_28.m4a,,,,,,,,,,,,
,,,,,,,,,,,,41704,2021-09-22_17h03.26.799,judgeSpeechMusic_20210921_logNormShiftAmp_detection_fixS,2020.1.2,Linux x86_64,60,,,,,,,,,,,,,,,,,,2,16.7831,,0,0,67,67,12,1,stimuli/stim_20210706_power2amp/equal_lnn_AM0.6Hz_s35_12.m4a,,,,,,,,,,,,
,,,,,,,,,,,,41704,2021-09-22_17h03.26.799,judgeSpeechMusic_20210921_logNormShiftAmp_detection_fixS,2020.1.2,Linux x86_64,60,,,,,,,,,,,,,,,,,,2,23.4736,,0,0,68,68,47,1,stimuli/stim_20210706_power2amp/equal_lnn_AM3.6Hz_s35_18.m4a,,,,,,,,,,,,
,,,,,,,,,,,,41704,2021-09-22_17h03.26.799,judgeSpeechMusic_20210921_logNormShiftAmp_detection_fixS,2020.1.2,Linux x86_64,60,,,,,,,,,,,,,,,,,,2,9.3847,,0,0,69,69,34,1,stimuli/stim_20210706_power2amp/equal_lnn_AM2.4Hz_s35_42.m4a,,,,,,,,,,,,
,,,,,,,,,,,,41704,2021-09-22_17h03.26.799,judgeSpeechMusic_20210921_logNormShiftAmp_detection_fixS,2020.1.2,Linux x86_64,60,,,,,,,,,,,,,,,,,,1,8.0308,,0,0,70,70,71,1,stimuli/stim_20210706_power2amp/equal_lnn_AM4.2Hz_s35_14.m4a,,,,,,,,,,,,
,,,,,,,,,,,,41704,2021-09-22_17h03.26.799,judgeSpeechMusic_20210921_logNormShiftAmp_detection_fixS,2020.1.2,Linux x86_64,60,,,,,,,,,,,,,,,,,,2,11.4962,,0,0,71,71,31,1,stimuli/stim_20210706_power2amp/equal_lnn_AM2.4Hz_s35_32.m4a,,,,,,,,,,,,
,,,,,,,,,,,,41704,2021-09-22_17h03.26.799,judgeSpeechMusic_20210921_logNormShiftAmp_detection_fixS,2020.1.2,Linux x86_64,60,,,,,,,,,,,,,,,,,,2,10.0629,,0,0,72,72,45,1,stimuli/stim_20210706_power2amp/equal_lnn_AM3.6Hz_s35_35.m4a,,,,,,,,,,,,
,,,,,,,,,,,,41704,2021-09-22_17h03.26.799,judgeSpeechMusic_20210921_logNormShiftAmp_detection_fixS,2020.1.2,Linux x86_64,60,,,,,,,,,,,,,,,,,,2,10.4836,,0,0,73,73,64,1,stimuli/stim_20210706_power2amp/equal_lnn_AM4.2Hz_s35_4.m4a,,,,,,,,,,,,
,,,,,,,,,,,,41704,2021-09-22_17h03.26.799,judgeSpeechMusic_20210921_logNormShiftAmp_detection_fixS,2020.1.2,Linux x86_64,60,,,,,,,,,,,,,,,,,,2,23.0133,,0,0,74,74,35,1,stimuli/stim_20210706_power2amp/equal_lnn_AM2.4Hz_s35_26.m4a,,,,,,,,,,,,
,,,,,,,,,,,,41704,2021-09-22_17h03.26.799,judgeSpeechMusic_20210921_logNormShiftAmp_detection_fixS,2020.1.2,Linux x86_64,60,,,,,,,,,,,,,,,,,,,,,,,,,,,,,space,0.5024,0,1,1,1,1,SPEECH,stimuli/SPEECH.jpg,,
,,,,,,,,,,,,41704,2021-09-22_17h03.26.799,judgeSpeechMusic_20210921_logNormShiftAmp_detection_fixS,2020.1.2,Linux x86_64,60,,,,,,0,0,0,0,1,1,stimuli/stim_20210706_power2amp/equal_lnn_AM_training1.8Hz_s35.m4a,,,,,,,,,,,,,,,,,,,,,,,,,,,
,,,,,,,,,,,,41704,2021-09-22_17h03.26.799,judgeSpeechMusic_20210921_logNormShiftAmp_detection_fixS,2020.1.2,Linux x86_64,60,,,,,,,,,,,,,,space,7.945,space,46.4888,2,22.4504,,0,0,0,0,38,1,stimuli/stim_20210706_power2amp/equal_lnn_AM2.4Hz_s35_12.m4a,,,,,,,,,,,,
,,,,,,,,,,,,41704,2021-09-22_17h03.26.799,judgeSpeechMusic_20210921_logNormShiftAmp_detection_fixS,2020.1.2,Linux x86_64,60,,,,,,,,,,,,,,,,,,1,8.2684,,0,0,1,1,32,1,stimuli/stim_20210706_power2amp/equal_lnn_AM2.4Hz_s35_31.m4a,,,,,,,,,,,,
,,,,,,,,,,,,41704,2021-09-22_17h03.26.799,judgeSpeechMusic_20210921_logNormShiftAmp_detection_fixS,2020.1.2,Linux x86_64,60,,,,,,,,,,,,,,,,,,2,19.5443,,0,0,2,2,18,1,stimuli/stim_20210706_power2amp/equal_lnn_AM1.2Hz_s35_19.m4a,,,,,,,,,,,,
,,,,,,,,,,,,41704,2021-09-22_17h03.26.799,judgeSpeechMusic_20210921_logNormShiftAmp_detection_fixS,2020.1.2,Linux x86_64,60,,,,,,,,,,,,,,,,,,2,26.4224,,0,0,3,3,45,1,stimuli/stim_20210706_power2amp/equal_lnn_AM3.6Hz_s35_35.m4a,,,,,,,,,,,,
,,,,,,,,,,,,41704,2021-09-22_17h03.26.799,judgeSpeechMusic_20210921_logNormShiftAmp_detection_fixS,2020.1.2,Linux x86_64,60,,,,,,,,,,,,,,,,,,2,6.9221,,0,0,4,4,46,1,stimuli/stim_20210706_power2amp/equal_lnn_AM3.6Hz_s35_33.m4a,,,,,,,,,,,,
,,,,,,,,,,,,41704,2021-09-22_17h03.26.799,judgeSpeechMusic_20210921_logNormShiftAmp_detection_fixS,2020.1.2,Linux x86_64,60,,,,,,,,,,,,,,,,,,1,5.7684,,0,0,5,5,66,1,stimuli/stim_20210706_power2amp/equal_lnn_AM4.2Hz_s35_34.m4a,,,,,,,,,,,,
,,,,,,,,,,,,41704,2021-09-22_17h03.26.799,judgeSpeechMusic_20210921_logNormShiftAmp_detection_fixS,2020.1.2,Linux x86_64,60,,,,,,,,,,,,,,,,,,2,6.347,,0,0,6,6,16,1,stimuli/stim_20210706_power2amp/equal_lnn_AM1.2Hz_s35_32.m4a,,,,,,,,,,,,
,,,,,,,,,,,,41704,2021-09-22_17h03.26.799,judgeSpeechMusic_20210921_logNormShiftAmp_detection_fixS,2020.1.2,Linux x86_64,60,,,,,,,,,,,,,,,,,,1,5.4247,,0,0,7,7,48,1,stimuli/stim_20210706_power2amp/equal_lnn_AM3.6Hz_s35_20.m4a,,,,,,,,,,,,
,,,,,,,,,,,,41704,2021-09-22_17h03.26.799,judgeSpeechMusic_20210921_logNormShiftAmp_detection_fixS,2020.1.2,Linux x86_64,60,,,,,,,,,,,,,,,,,,1,7.7261,,0,0,8,8,28,1,stimuli/stim_20210706_power2amp/equal_lnn_AM1.2Hz_s35_43.m4a,,,,,,,,,,,,
,,,,,,,,,,,,41704,2021-09-22_17h03.26.799,judgeSpeechMusic_20210921_logNormShiftAmp_detection_fixS,2020.1.2,Linux x86_64,60,,,,,,,,,,,,,,,,,,1,18.0596,,0,0,9,9,71,1,stimuli/stim_20210706_power2amp/equal_lnn_AM4.2Hz_s35_14.m4a,,,,,,,,,,,,
,,,,,,,,,,,,41704,2021-09-22_17h03.26.799,judgeSpeechMusic_20210921_logNormShiftAmp_detection_fixS,2020.1.2,Linux x86_64,60,,,,,,,,,,,,,,,,,,1,10.6175,,0,0,10,10,57,1,stimuli/stim_20210706_power2amp/equal_lnn_AM3.6Hz_s35_1.m4a,,,,,,,,,,,,
,,,,,,,,,,,,41704,2021-09-22_17h03.26.799,judgeSpeechMusic_20210921_logNormShiftAmp_detection_fixS,2020.1.2,Linux x86_64,60,,,,,,,,,,,,,,,,,,1,5.6178,,0,0,11,11,39,1,stimuli/stim_20210706_power2amp/equal_lnn_AM2.4Hz_s35_13.m4a,,,,,,,,,,,,
,,,,,,,,,,,,41704,2021-09-22_17h03.26.799,judgeSpeechMusic_20210921_logNormShiftAmp_detection_fixS,2020.1.2,Linux x86_64,60,,,,,,,,,,,,,,,,,,2,35.8372,,0,0,12,12,73,1,stimuli/stim_20210706_power2amp/equal_lnn_AM4.2Hz_s35_26.m4a,,,,,,,,,,,,
,,,,,,,,,,,,41704,2021-09-22_17h03.26.799,judgeSpeechMusic_20210921_logNormShiftAmp_detection_fixS,2020.1.2,Linux x86_64,60,,,,,,,,,,,,,,,,,,1,11.3237,,0,0,13,13,68,1,stimuli/stim_20210706_power2amp/equal_lnn_AM4.2Hz_s35_20.m4a,,,,,,,,,,,,
,,,,,,,,,,,,41704,2021-09-22_17h03.26.799,judgeSpeechMusic_20210921_logNormShiftAmp_detection_fixS,2020.1.2,Linux x86_64,60,,,,,,,,,,,,,,,,,,1,21.4167,,0,0,14,14,27,1,stimuli/stim_20210706_power2amp/equal_lnn_AM1.2Hz_s35_38.m4a,,,,,,,,,,,,
,,,,,,,,,,,,41704,2021-09-22_17h03.26.799,judgeSpeechMusic_20210921_logNormShiftAmp_detection_fixS,2020.1.2,Linux x86_64,60,,,,,,,,,,,,,,,,,,1,6.1111,,0,0,15,15,74,1,stimuli/stim_20210706_power2amp/equal_lnn_AM4.2Hz_s35_11.m4a,,,,,,,,,,,,
,,,,,,,,,,,,41704,2021-09-22_17h03.26.799,judgeSpeechMusic_20210921_logNormShiftAmp_detection_fixS,2020.1.2,Linux x86_64,60,,,,,,,,,,,,,,,,,,1,7.6506,,0,0,16,16,10,1,stimuli/stim_20210706_power2amp/equal_lnn_AM0.6Hz_s35_36.m4a,,,,,,,,,,,,
,,,,,,,,,,,,41704,2021-09-22_17h03.26.799,judgeSpeechMusic_20210921_logNormShiftAmp_detection_fixS,2020.1.2,Linux x86_64,60,,,,,,,,,,,,,,,,,,2,13.7499,,0,0,17,17,55,1,stimuli/stim_20210706_power2amp/equal_lnn_AM3.6Hz_s35_41.m4a,,,,,,,,,,,,
,,,,,,,,,,,,41704,2021-09-22_17h03.26.799,judgeSpeechMusic_20210921_logNormShiftAmp_detection_fixS,2020.1.2,Linux x86_64,60,,,,,,,,,,,,,,,,,,2,21.1229,4,1,0,18,18,58,1,stimuli/stim_20210706_power2amp/equal_lnn_AM3.6Hz_s35_16.m4a,2.7099,,,,,,,,,,,
,,,,,,,,,,,,41704,2021-09-22_17h03.26.799,judgeSpeechMusic_20210921_logNormShiftAmp_detection_fixS,2020.1.2,Linux x86_64,60,,,,,,,,,,,,,,,,,,2,37.2184,,0,0,19,19,24,1,stimuli/stim_20210706_power2amp/equal_lnn_AM1.2Hz_s35_11.m4a,,,,,,,,,,,,
,,,,,,,,,,,,41704,2021-09-22_17h03.26.799,judgeSpeechMusic_20210921_logNormShiftAmp_detection_fixS,2020.1.2,Linux x86_64,60,,,,,,,,,,,,,,,,,,2,38.8278,,0,0,20,20,21,1,stimuli/stim_20210706_power2amp/equal_lnn_AM1.2Hz_s35_49.m4a,,,,,,,,,,,,
,,,,,,,,,,,,41704,2021-09-22_17h03.26.799,judgeSpeechMusic_20210921_logNormShiftAmp_detection_fixS,2020.1.2,Linux x86_64,60,,,,,,,,,,,,,,,,,,1,10.2763,,0,0,21,21,13,1,stimuli/stim_20210706_power2amp/equal_lnn_AM0.6Hz_s35_37.m4a,,,,,,,,,,,,
,,,,,,,,,,,,41704,2021-09-22_17h03.26.799,judgeSpeechMusic_20210921_logNormShiftAmp_detection_fixS,2020.1.2,Linux x86_64,60,,,,,,,,,,,,,,,,,,1,29.8132,,0,0,22,22,41,1,stimuli/stim_20210706_power2amp/equal_lnn_AM2.4Hz_s35_30.m4a,,,,,,,,,,,,
,,,,,,,,,,,,41704,2021-09-22_17h03.26.799,judgeSpeechMusic_20210921_logNormShiftAmp_detection_fixS,2020.1.2,Linux x86_64,60,,,,,,,,,,,,,,,,,,1,6.1457,,0,0,23,23,20,1,stimuli/stim_20210706_power2amp/equal_lnn_AM1.2Hz_s35_25.m4a,,,,,,,,,,,,
,,,,,,,,,,,,41704,2021-09-22_17h03.26.799,judgeSpeechMusic_20210921_logNormShiftAmp_detection_fixS,2020.1.2,Linux x86_64,60,,,,,,,,,,,,,,,,,,2,5.754,,0,0,24,24,36,1,stimuli/stim_20210706_power2amp/equal_lnn_AM2.4Hz_s35_45.m4a,,,,,,,,,,,,
,,,,,,,,,,,,41704,2021-09-22_17h03.26.799,judgeSpeechMusic_20210921_logNormShiftAmp_detection_fixS,2020.1.2,Linux x86_64,60,,,,,,,,,,,,,,,,,,2,10.528,,0,0,25,25,23,1,stimuli/stim_20210706_power2amp/equal_lnn_AM1.2Hz_s35_33.m4a,,,,,,,,,,,,
,,,,,,,,,,,,41704,2021-09-22_17h03.26.799,judgeSpeechMusic_20210921_logNormShiftAmp_detection_fixS,2020.1.2,Linux x86_64,60,,,,,,,,,,,,,,,,,,1,10.3619,,0,0,26,26,29,1,stimuli/stim_20210706_power2amp/equal_lnn_AM1.2Hz_s35_41.m4a,,,,,,,,,,,,
,,,,,,,,,,,,41704,2021-09-22_17h03.26.799,judgeSpeechMusic_20210921_logNormShiftAmp_detection_fixS,2020.1.2,Linux x86_64,60,,,,,,,,,,,,,,,,,,1,6.2116,,0,0,27,27,12,1,stimuli/stim_20210706_power2amp/equal_lnn_AM0.6Hz_s35_12.m4a,,,,,,,,,,,,
,,,,,,,,,,,,41704,2021-09-22_17h03.26.799,judgeSpeechMusic_20210921_logNormShiftAmp_detection_fixS,2020.1.2,Linux x86_64,60,,,,,,,,,,,,,,,,,,1,44.5674,,0,0,28,28,51,1,stimuli/stim_20210706_power2amp/equal_lnn_AM3.6Hz_s35_12.m4a,,,,,,,,,,,,
,,,,,,,,,,,,41704,2021-09-22_17h03.26.799,judgeSpeechMusic_20210921_logNormShiftAmp_detection_fixS,2020.1.2,Linux x86_64,60,,,,,,,,,,,,,,,,,,1,122.4287,,0,0,29,29,2,1,stimuli/stim_20210706_power2amp/equal_lnn_AM0.6Hz_s35_23.m4a,,,,,,,,,,,,
,,,,,,,,,,,,41704,2021-09-22_17h03.26.799,judgeSpeechMusic_20210921_logNormShiftAmp_detection_fixS,2020.1.2,Linux x86_64,60,,,,,,,,,,,,,,,,,,2,8.9149,,0,0,30,30,52,1,stimuli/stim_20210706_power2amp/equal_lnn_AM3.6Hz_s35_10.m4a,,,,,,,,,,,,
,,,,,,,,,,,,41704,2021-09-22_17h03.26.799,judgeSpeechMusic_20210921_logNormShiftAmp_detection_fixS,2020.1.2,Linux x86_64,60,,,,,,,,,,,,,,,,,,2,8.4512,,0,0,31,31,67,1,stimuli/stim_20210706_power2amp/equal_lnn_AM4.2Hz_s35_9.m4a,,,,,,,,,,,,
,,,,,,,,,,,,41704,2021-09-22_17h03.26.799,judgeSpeechMusic_20210921_logNormShiftAmp_detection_fixS,2020.1.2,Linux x86_64,60,,,,,,,,,,,,,,,,,,1,20.4523,,0,0,32,32,3,1,stimuli/stim_20210706_power2amp/equal_lnn_AM0.6Hz_s35_50.m4a,,,,,,,,,,,,
,,,,,,,,,,,,41704,2021-09-22_17h03.26.799,judgeSpeechMusic_20210921_logNormShiftAmp_detection_fixS,2020.1.2,Linux x86_64,60,,,,,,,,,,,,,,,,,,2,18.7282,,0,0,33,33,50,1,stimuli/stim_20210706_power2amp/equal_lnn_AM3.6Hz_s35_26.m4a,,,,,,,,,,,,
,,,,,,,,,,,,41704,2021-09-22_17h03.26.799,judgeSpeechMusic_20210921_logNormShiftAmp_detection_fixS,2020.1.2,Linux x86_64,60,,,,,,,,,,,,,,,,,,1,25.9896,,0,0,34,34,9,1,stimuli/stim_20210706_power2amp/equal_lnn_AM0.6Hz_s35_21.m4a,,,,,,,,,,,,
,,,,,,,,,,,,41704,2021-09-22_17h03.26.799,judgeSpeechMusic_20210921_logNormShiftAmp_detection_fixS,2020.1.2,Linux x86_64,60,,,,,,,,,,,,,,,,,,2,17.196,,0,0,35,35,31,1,stimuli/stim_20210706_power2amp/equal_lnn_AM2.4Hz_s35_32.m4a,,,,,,,,,,,,
,,,,,,,,,,,,41704,2021-09-22_17h03.26.799,judgeSpeechMusic_20210921_logNormShiftAmp_detection_fixS,2020.1.2,Linux x86_64,60,,,,,,,,,,,,,,,,,,1,10.7199,,0,0,36,36,64,1,stimuli/stim_20210706_power2amp/equal_lnn_AM4.2Hz_s35_4.m4a,,,,,,,,,,,,
,,,,,,,,,,,,41704,2021-09-22_17h03.26.799,judgeSpeechMusic_20210921_logNormShiftAmp_detection_fixS,2020.1.2,Linux x86_64,60,,,,,,,,,,,,,,,,,,1,8.9113,,0,0,37,37,54,1,stimuli/stim_20210706_power2amp/equal_lnn_AM3.6Hz_s35_24.m4a,,,,,,,,,,,,
,,,,,,,,,,,,41704,2021-09-22_17h03.26.799,judgeSpeechMusic_20210921_logNormShiftAmp_detection_fixS,2020.1.2,Linux x86_64,60,,,,,,,,,,,,,,,,,,2,9.5229,,0,0,38,38,37,1,stimuli/stim_20210706_power2amp/equal_lnn_AM2.4Hz_s35_50.m4a,,,,,,,,,,,,
,,,,,,,,,,,,41704,2021-09-22_17h03.26.799,judgeSpeechMusic_20210921_logNormShiftAmp_detection_fixS,2020.1.2,Linux x86_64,60,,,,,,,,,,,,,,,,,,2,7.4324,,0,0,39,39,63,1,stimuli/stim_20210706_power2amp/equal_lnn_AM4.2Hz_s35_39.m4a,,,,,,,,,,,,
,,,,,,,,,,,,41704,2021-09-22_17h03.26.799,judgeSpeechMusic_20210921_logNormShiftAmp_detection_fixS,2020.1.2,Linux x86_64,60,,,,,,,,,,,,,,,,,,2,18.0127,4,1,0,40,40,14,1,stimuli/stim_20210706_power2amp/equal_lnn_AM0.6Hz_s35_13.m4a,4.7081,,,,,,,,,,,
,,,,,,,,,,,,41704,2021-09-22_17h03.26.799,judgeSpeechMusic_20210921_logNormShiftAmp_detection_fixS,2020.1.2,Linux x86_64,60,,,,,,,,,,,,,,,,,,2,17.2775,,0,0,41,41,6,1,stimuli/stim_20210706_power2amp/equal_lnn_AM0.6Hz_s35_46.m4a,,,,,,,,,,,,
,,,,,,,,,,,,41704,2021-09-22_17h03.26.799,judgeSpeechMusic_20210921_logNormShiftAmp_detection_fixS,2020.1.2,Linux x86_64,60,,,,,,,,,,,,,,,,,,2,10.2792,,0,0,42,42,49,1,stimuli/stim_20210706_power2amp/equal_lnn_AM3.6Hz_s35_43.m4a,,,,,,,,,,,,
,,,,,,,,,,,,41704,2021-09-22_17h03.26.799,judgeSpeechMusic_20210921_logNormShiftAmp_detection_fixS,2020.1.2,Linux x86_64,60,,,,,,,,,,,,,,,,,,2,12.6837,,0,0,43,43,60,1,stimuli/stim_20210706_power2amp/equal_lnn_AM4.2Hz_s35_28.m4a,,,,,,,,,,,,
,,,,,,,,,,,,41704,2021-09-22_17h03.26.799,judgeSpeechMusic_20210921_logNormShiftAmp_detection_fixS,2020.1.2,Linux x86_64,60,,,,,,,,,,,,,,,,,,2,67.6327,,0,0,44,44,56,1,stimuli/stim_20210706_power2amp/equal_lnn_AM3.6Hz_s35_3.m4a,,,,,,,,,,,,
,,,,,,,,,,,,41704,2021-09-22_17h03.26.799,judgeSpeechMusic_20210921_logNormShiftAmp_detection_fixS,2020.1.2,Linux x86_64,60,,,,,,,,,,,,,,,,,,1,54.8041,,0,0,45,45,34,1,stimuli/stim_20210706_power2amp/equal_lnn_AM2.4Hz_s35_42.m4a,,,,,,,,,,,,
,,,,,,,,,,,,41704,2021-09-22_17h03.26.799,judgeSpeechMusic_20210921_logNormShiftAmp_detection_fixS,2020.1.2,Linux x86_64,60,,,,,,,,,,,,,,,,,,1,42.2888,,0,0,46,46,5,1,stimuli/stim_20210706_power2amp/equal_lnn_AM0.6Hz_s35_17.m4a,,,,,,,,,,,,
,,,,,,,,,,,,41704,2021-09-22_17h03.26.799,judgeSpeechMusic_20210921_logNormShiftAmp_detection_fixS,2020.1.2,Linux x86_64,60,,,,,,,,,,,,,,,,,,2,23.1644,,0,0,47,47,0,1,stimuli/stim_20210706_power2amp/equal_lnn_AM0.6Hz_s35_40.m4a,,,,,,,,,,,,
,,,,,,,,,,,,41704,2021-09-22_17h03.26.799,judgeSpeechMusic_20210921_logNormShiftAmp_detection_fixS,2020.1.2,Linux x86_64,60,,,,,,,,,,,,,,,,,,2,15.4476,,0,0,48,48,62,1,stimuli/stim_20210706_power2amp/equal_lnn_AM4.2Hz_s35_1.m4a,,,,,,,,,,,,
,,,,,,,,,,,,41704,2021-09-22_17h03.26.799,judgeSpeechMusic_20210921_logNormShiftAmp_detection_fixS,2020.1.2,Linux x86_64,60,,,,,,,,,,,,,,,,,,1,38.6132,,0,0,49,49,70,1,stimuli/stim_20210706_power2amp/equal_lnn_AM4.2Hz_s35_22.m4a,,,,,,,,,,,,
,,,,,,,,,,,,41704,2021-09-22_17h03.26.799,judgeSpeechMusic_20210921_logNormShiftAmp_detection_fixS,2020.1.2,Linux x86_64,60,,,,,,,,,,,,,,,,,,2,16.4416,,0,0,50,50,72,1,stimuli/stim_20210706_power2amp/equal_lnn_AM4.2Hz_s35_19.m4a,,,,,,,,,,,,
,,,,,,,,,,,,41704,2021-09-22_17h03.26.799,judgeSpeechMusic_20210921_logNormShiftAmp_detection_fixS,2020.1.2,Linux x86_64,60,,,,,,,,,,,,,,,,,,2,9.8495,,0,0,51,51,15,1,stimuli/stim_20210706_power2amp/equal_lnn_AM1.2Hz_s35_45.m4a,,,,,,,,,,,,
,,,,,,,,,,,,41704,2021-09-22_17h03.26.799,judgeSpeechMusic_20210921_logNormShiftAmp_detection_fixS,2020.1.2,Linux x86_64,60,,,,,,,,,,,,,,,,,,2,12.1245,,0,0,52,52,53,1,stimuli/stim_20210706_power2amp/equal_lnn_AM3.6Hz_s35_50.m4a,,,,,,,,,,,,
,,,,,,,,,,,,41704,2021-09-22_17h03.26.799,judgeSpeechMusic_20210921_logNormShiftAmp_detection_fixS,2020.1.2,Linux x86_64,60,,,,,,,,,,,,,,,,,,2,21.2145,,0,0,53,53,25,1,stimuli/stim_20210706_power2amp/equal_lnn_AM1.2Hz_s35_21.m4a,,,,,,,,,,,,
,,,,,,,,,,,,41704,2021-09-22_17h03.26.799,judgeSpeechMusic_20210921_logNormShiftAmp_detection_fixS,2020.1.2,Linux x86_64,60,,,,,,,,,,,,,,,,,,2,28.6389,,0,0,54,54,7,1,stimuli/stim_20210706_power2amp/equal_lnn_AM0.6Hz_s35_47.m4a,,,,,,,,,,,,
,,,,,,,,,,,,41704,2021-09-22_17h03.26.799,judgeSpeechMusic_20210921_logNormShiftAmp_detection_fixS,2020.1.2,Linux x86_64,60,,,,,,,,,,,,,,,,,,1,6.0511,,0,0,55,55,11,1,stimuli/stim_20210706_power2amp/equal_lnn_AM0.6Hz_s35_31.m4a,,,,,,,,,,,,
,,,,,,,,,,,,41704,2021-09-22_17h03.26.799,judgeSpeechMusic_20210921_logNormShiftAmp_detection_fixS,2020.1.2,Linux x86_64,60,,,,,,,,,,,,,,,,,,1,34.6099,,0,0,56,56,19,1,stimuli/stim_20210706_power2amp/equal_lnn_AM1.2Hz_s35_2.m4a,,,,,,,,,,,,
,,,,,,,,,,,,41704,2021-09-22_17h03.26.799,judgeSpeechMusic_20210921_logNormShiftAmp_detection_fixS,2020.1.2,Linux x86_64,60,,,,,,,,,,,,,,,,,,2,28.288,,0,0,57,57,17,1,stimuli/stim_20210706_power2amp/equal_lnn_AM1.2Hz_s35_31.m4a,,,,,,,,,,,,
,,,,,,,,,,,,41704,2021-09-22_17h03.26.799,judgeSpeechMusic_20210921_logNormShiftAmp_detection_fixS,2020.1.2,Linux x86_64,60,,,,,,,,,,,,,,,,,,2,14.6433,,0,0,58,58,42,1,stimuli/stim_20210706_power2amp/equal_lnn_AM2.4Hz_s35_20.m4a,,,,,,,,,,,,
,,,,,,,,,,,,41704,2021-09-22_17h03.26.799,judgeSpeechMusic_20210921_logNormShiftAmp_detection_fixS,2020.1.2,Linux x86_64,60,,,,,,,,,,,,,,,,,,2,36.2912,,0,0,59,59,26,1,stimuli/stim_20210706_power2amp/equal_lnn_AM1.2Hz_s35_9.m4a,,,,,,,,,,,,
,,,,,,,,,,,,41704,2021-09-22_17h03.26.799,judgeSpeechMusic_20210921_logNormShiftAmp_detection_fixS,2020.1.2,Linux x86_64,60,,,,,,,,,,,,,,,,,,2,28.275,,0,0,60,60,47,1,stimuli/stim_20210706_power2amp/equal_lnn_AM3.6Hz_s35_18.m4a,,,,,,,,,,,,
,,,,,,,,,,,,41704,2021-09-22_17h03.26.799,judgeSpeechMusic_20210921_logNormShiftAmp_detection_fixS,2020.1.2,Linux x86_64,60,,,,,,,,,,,,,,,,,,2,25.3488,4,1,0,61,61,4,1,stimuli/stim_20210706_power2amp/equal_lnn_AM0.6Hz_s35_28.m4a,7.0236,,,,,,,,,,,
,,,,,,,,,,,,41704,2021-09-22_17h03.26.799,judgeSpeechMusic_20210921_logNormShiftAmp_detection_fixS,2020.1.2,Linux x86_64,60,,,,,,,,,,,,,,,,,,1,26.3446,,0,0,62,62,22,1,stimuli/stim_20210706_power2amp/equal_lnn_AM1.2Hz_s35_44.m4a,,,,,,,,,,,,
,,,,,,,,,,,,41704,2021-09-22_17h03.26.799,judgeSpeechMusic_20210921_logNormShiftAmp_detection_fixS,2020.1.2,Linux x86_64,60,,,,,,,,,,,,,,,,,,2,23.3739,,0,0,63,63,30,1,stimuli/stim_20210706_power2amp/equal_lnn_AM2.4Hz_s35_29.m4a,,,,,,,,,,,,
,,,,,,,,,,,,41704,2021-09-22_17h03.26.799,judgeSpeechMusic_20210921_logNormShiftAmp_detection_fixS,2020.1.2,Linux x86_64,60,,,,,,,,,,,,,,,,,,2,20.7343,,0,0,64,64,43,1,stimuli/stim_20210706_power2amp/equal_lnn_AM2.4Hz_s35_40.m4a,,,,,,,,,,,,
,,,,,,,,,,,,41704,2021-09-22_17h03.26.799,judgeSpeechMusic_20210921_logNormShiftAmp_detection_fixS,2020.1.2,Linux x86_64,60,,,,,,,,,,,,,,,,,,2,25.8688,,0,0,65,65,61,1,stimuli/stim_20210706_power2amp/equal_lnn_AM4.2Hz_s35_29.m4a,,,,,,,,,,,,
,,,,,,,,,,,,41704,2021-09-22_17h03.26.799,judgeSpeechMusic_20210921_logNormShiftAmp_detection_fixS,2020.1.2,Linux x86_64,60,,,,,,,,,,,,,,,,,,2,41.71,,0,0,66,66,40,1,stimuli/stim_20210706_power2amp/equal_lnn_AM2.4Hz_s35_23.m4a,,,,,,,,,,,,
,,,,,,,,,,,,41704,2021-09-22_17h03.26.799,judgeSpeechMusic_20210921_logNormShiftAmp_detection_fixS,2020.1.2,Linux x86_64,60,,,,,,,,,,,,,,,,,,1,22.3775,,0,0,67,67,33,1,stimuli/stim_20210706_power2amp/equal_lnn_AM2.4Hz_s35_48.m4a,,,,,,,,,,,,
,,,,,,,,,,,,41704,2021-09-22_17h03.26.799,judgeSpeechMusic_20210921_logNormShiftAmp_detection_fixS,2020.1.2,Linux x86_64,60,,,,,,,,,,,,,,,,,,2,11.7179,,0,0,68,68,69,1,stimuli/stim_20210706_power2amp/equal_lnn_AM4.2Hz_s35_37.m4a,,,,,,,,,,,,
,,,,,,,,,,,,41704,2021-09-22_17h03.26.799,judgeSpeechMusic_20210921_logNormShiftAmp_detection_fixS,2020.1.2,Linux x86_64,60,,,,,,,,,,,,,,,,,,2,15.1619,,0,0,69,69,59,1,stimuli/stim_20210706_power2amp/equal_lnn_AM3.6Hz_s35_5.m4a,,,,,,,,,,,,
,,,,,,,,,,,,41704,2021-09-22_17h03.26.799,judgeSpeechMusic_20210921_logNormShiftAmp_detection_fixS,2020.1.2,Linux x86_64,60,,,,,,,,,,,,,,,,,,2,6.4188,,0,0,70,70,65,1,stimuli/stim_20210706_power2amp/equal_lnn_AM4.2Hz_s35_17.m4a,,,,,,,,,,,,
,,,,,,,,,,,,41704,2021-09-22_17h03.26.799,judgeSpeechMusic_20210921_logNormShiftAmp_detection_fixS,2020.1.2,Linux x86_64,60,,,,,,,,,,,,,,,,,,1,22.3451,,0,0,71,71,35,1,stimuli/stim_20210706_power2amp/equal_lnn_AM2.4Hz_s35_26.m4a,,,,,,,,,,,,
,,,,,,,,,,,,41704,2021-09-22_17h03.26.799,judgeSpeechMusic_20210921_logNormShiftAmp_detection_fixS,2020.1.2,Linux x86_64,60,,,,,,,,,,,,,,,,,,1,8.0304,,0,0,72,72,1,1,stimuli/stim_20210706_power2amp/equal_lnn_AM0.6Hz_s35_33.m4a,,,,,,,,,,,,
,,,,,,,,,,,,41704,2021-09-22_17h03.26.799,judgeSpeechMusic_20210921_logNormShiftAmp_detection_fixS,2020.1.2,Linux x86_64,60,,,,,,,,,,,,,,,,,,1,22.2811,,0,0,73,73,8,1,stimuli/stim_20210706_power2amp/equal_lnn_AM0.6Hz_s35_16.m4a,,,,,,,,,,,,
,,,,,,,,,,,,41704,2021-09-22_17h03.26.799,judgeSpeechMusic_20210921_logNormShiftAmp_detection_fixS,2020.1.2,Linux x86_64,60,,,,,,,,,,,,,,,,,,2,9.8127,,0,0,74,74,44,1,stimuli/stim_20210706_power2amp/equal_lnn_AM2.4Hz_s35_18.m4a,,,,,,,,,,,,
,,,,,,,,,,,,41704,2021-09-22_17h03.26.799,judgeSpeechMusic_20210921_logNormShiftAmp_detection_fixS,2020.1.2,Linux x86_64,60,,,,,,,,,,,,,,,,,,,,,,,,,,,,,space,6.8889,1,0,2,0,1,MUSIC,stimuli/MUSIC.jpg,,
,,,,,,,,,,,,41704,2021-09-22_17h03.26.799,judgeSpeechMusic_20210921_logNormShiftAmp_detection_fixS,2020.1.2,Linux x86_64,60,,,,,,0,0,0,0,0,1,stimuli/stim_20210706_power2amp/equal_lnn_AM_training0.9Hz_s35.m4a,,,,,,,,,,,,,,,,,,,,,,,,,,,
,,,,,,,,,,,,41704,2021-09-22_17h03.26.799,judgeSpeechMusic_20210921_logNormShiftAmp_detection_fixS,2020.1.2,Linux x86_64,60,,,,,,,,,,,,,,space,3.0678,space,0.4349,2,10.6914,,0,0,0,0,12,1,stimuli/stim_20210706_power2amp/equal_lnn_AM0.6Hz_s35_12.m4a,,,,,,,,,,,,
,,,,,,,,,,,,41704,2021-09-22_17h03.26.799,judgeSpeechMusic_20210921_logNormShiftAmp_detection_fixS,2020.1.2,Linux x86_64,60,,,,,,,,,,,,,,,,,,2,6.2955,,0,0,1,1,39,1,stimuli/stim_20210706_power2amp/equal_lnn_AM2.4Hz_s35_13.m4a,,,,,,,,,,,,
,,,,,,,,,,,,41704,2021-09-22_17h03.26.799,judgeSpeechMusic_20210921_logNormShiftAmp_detection_fixS,2020.1.2,Linux x86_64,60,,,,,,,,,,,,,,,,,,2,15.6367,,0,0,2,2,52,1,stimuli/stim_20210706_power2amp/equal_lnn_AM3.6Hz_s35_10.m4a,,,,,,,,,,,,
,,,,,,,,,,,,41704,2021-09-22_17h03.26.799,judgeSpeechMusic_20210921_logNormShiftAmp_detection_fixS,2020.1.2,Linux x86_64,60,,,,,,,,,,,,,,,,,,2,23.014,,0,0,3,3,60,1,stimuli/stim_20210706_power2amp/equal_lnn_AM4.2Hz_s35_28.m4a,,,,,,,,,,,,
,,,,,,,,,,,,41704,2021-09-22_17h03.26.799,judgeSpeechMusic_20210921_logNormShiftAmp_detection_fixS,2020.1.2,Linux x86_64,60,,,,,,,,,,,,,,,,,,2,10.8629,,0,0,4,4,50,1,stimuli/stim_20210706_power2amp/equal_lnn_AM3.6Hz_s35_26.m4a,,,,,,,,,,,,
,,,,,,,,,,,,41704,2021-09-22_17h03.26.799,judgeSpeechMusic_20210921_logNormShiftAmp_detection_fixS,2020.1.2,Linux x86_64,60,,,,,,,,,,,,,,,,,,2,14.9359,,0,0,5,5,14,1,stimuli/stim_20210706_power2amp/equal_lnn_AM0.6Hz_s35_13.m4a,,,,,,,,,,,,
,,,,,,,,,,,,41704,2021-09-22_17h03.26.799,judgeSpeechMusic_20210921_logNormShiftAmp_detection_fixS,2020.1.2,Linux x86_64,60,,,,,,,,,,,,,,,,,,2,11.5152,,0,0,6,6,69,1,stimuli/stim_20210706_power2amp/equal_lnn_AM4.2Hz_s35_37.m4a,,,,,,,,,,,,
,,,,,,,,,,,,41704,2021-09-22_17h03.26.799,judgeSpeechMusic_20210921_logNormShiftAmp_detection_fixS,2020.1.2,Linux x86_64,60,,,,,,,,,,,,,,,,,,1,13.8612,,0,0,7,7,40,1,stimuli/stim_20210706_power2amp/equal_lnn_AM2.4Hz_s35_23.m4a,,,,,,,,,,,,
,,,,,,,,,,,,41704,2021-09-22_17h03.26.799,judgeSpeechMusic_20210921_logNormShiftAmp_detection_fixS,2020.1.2,Linux x86_64,60,,,,,,,,,,,,,,,,,,2,48.0682,,0,0,8,8,62,1,stimuli/stim_20210706_power2amp/equal_lnn_AM4.2Hz_s35_1.m4a,,,,,,,,,,,,
,,,,,,,,,,,,41704,2021-09-22_17h03.26.799,judgeSpeechMusic_20210921_logNormShiftAmp_detection_fixS,2020.1.2,Linux x86_64,60,,,,,,,,,,,,,,,,,,1,15.1776,,0,0,9,9,29,1,stimuli/stim_20210706_power2amp/equal_lnn_AM1.2Hz_s35_41.m4a,,,,,,,,,,,,
,,,,,,,,,,,,41704,2021-09-22_17h03.26.799,judgeSpeechMusic_20210921_logNormShiftAmp_detection_fixS,2020.1.2,Linux x86_64,60,,,,,,,,,,,,,,,,,,2,6.1538,,0,0,10,10,45,1,stimuli/stim_20210706_power2amp/equal_lnn_AM3.6Hz_s35_35.m4a,,,,,,,,,,,,
,,,,,,,,,,,,41704,2021-09-22_17h03.26.799,judgeSpeechMusic_20210921_logNormShiftAmp_detection_fixS,2020.1.2,Linux x86_64,60,,,,,,,,,,,,,,,,,,2,11.141,,0,0,11,11,36,1,stimuli/stim_20210706_power2amp/equal_lnn_AM2.4Hz_s35_45.m4a,,,,,,,,,,,,
,,,,,,,,,,,,41704,2021-09-22_17h03.26.799,judgeSpeechMusic_20210921_logNormShiftAmp_detection_fixS,2020.1.2,Linux x86_64,60,,,,,,,,,,,,,,,,,,2,17.6553,,0,0,12,12,56,1,stimuli/stim_20210706_power2amp/equal_lnn_AM3.6Hz_s35_3.m4a,,,,,,,,,,,,
,,,,,,,,,,,,41704,2021-09-22_17h03.26.799,judgeSpeechMusic_20210921_logNormShiftAmp_detection_fixS,2020.1.2,Linux x86_64,60,,,,,,,,,,,,,,,,,,2,21.6838,,0,0,13,13,31,1,stimuli/stim_20210706_power2amp/equal_lnn_AM2.4Hz_s35_32.m4a,,,,,,,,,,,,
,,,,,,,,,,,,41704,2021-09-22_17h03.26.799,judgeSpeechMusic_20210921_logNormShiftAmp_detection_fixS,2020.1.2,Linux x86_64,60,,,,,,,,,,,,,,,,,,1,24.6792,,0,0,14,14,71,1,stimuli/stim_20210706_power2amp/equal_lnn_AM4.2Hz_s35_14.m4a,,,,,,,,,,,,
,,,,,,,,,,,,41704,2021-09-22_17h03.26.799,judgeSpeechMusic_20210921_logNormShiftAmp_detection_fixS,2020.1.2,Linux x86_64,60,,,,,,,,,,,,,,,,,,2,6.5806,,0,0,15,15,37,1,stimuli/stim_20210706_power2amp/equal_lnn_AM2.4Hz_s35_50.m4a,,,,,,,,,,,,
,,,,,,,,,,,,41704,2021-09-22_17h03.26.799,judgeSpeechMusic_20210921_logNormShiftAmp_detection_fixS,2020.1.2,Linux x86_64,60,,,,,,,,,,,,,,,,,,1,13.4833,,0,0,16,16,3,1,stimuli/stim_20210706_power2amp/equal_lnn_AM0.6Hz_s35_50.m4a,,,,,,,,,,,,
,,,,,,,,,,,,41704,2021-09-22_17h03.26.799,judgeSpeechMusic_20210921_logNormShiftAmp_detection_fixS,2020.1.2,Linux x86_64,60,,,,,,,,,,,,,,,,,,2,8.997,,0,0,17,17,9,1,stimuli/stim_20210706_power2amp/equal_lnn_AM0.6Hz_s35_21.m4a,,,,,,,,,,,,
,,,,,,,,,,,,41704,2021-09-22_17h03.26.799,judgeSpeechMusic_20210921_logNormShiftAmp_detection_fixS,2020.1.2,Linux x86_64,60,,,,,,,,,,,,,,,,,,1,8.7152,1,1,0,18,18,17,1,stimuli/stim_20210706_power2amp/equal_lnn_AM1.2Hz_s35_31.m4a,1.9311,,,,,,,,,,,
,,,,,,,,,,,,41704,2021-09-22_17h03.26.799,judgeSpeechMusic_20210921_logNormShiftAmp_detection_fixS,2020.1.2,Linux x86_64,60,,,,,,,,,,,,,,,,,,1,8.4337,,0,0,19,19,65,1,stimuli/stim_20210706_power2amp/equal_lnn_AM4.2Hz_s35_17.m4a,,,,,,,,,,,,
,,,,,,,,,,,,41704,2021-09-22_17h03.26.799,judgeSpeechMusic_20210921_logNormShiftAmp_detection_fixS,2020.1.2,Linux x86_64,60,,,,,,,,,,,,,,,,,,2,19.0248,,0,0,20,20,18,1,stimuli/stim_20210706_power2amp/equal_lnn_AM1.2Hz_s35_19.m4a,,,,,,,,,,,,
,,,,,,,,,,,,41704,2021-09-22_17h03.26.799,judgeSpeechMusic_20210921_logNormShiftAmp_detection_fixS,2020.1.2,Linux x86_64,60,,,,,,,,,,,,,,,,,,2,9.4727,,0,0,21,21,11,1,stimuli/stim_20210706_power2amp/equal_lnn_AM0.6Hz_s35_31.m4a,,,,,,,,,,,,
,,,,,,,,,,,,41704,2021-09-22_17h03.26.799,judgeSpeechMusic_20210921_logNormShiftAmp_detection_fixS,2020.1.2,Linux x86_64,60,,,,,,,,,,,,,,,,,,2,14.2543,,0,0,22,22,54,1,stimuli/stim_20210706_power2amp/equal_lnn_AM3.6Hz_s35_24.m4a,,,,,,,,,,,,
,,,,,,,,,,,,41704,2021-09-22_17h03.26.799,judgeSpeechMusic_20210921_logNormShiftAmp_detection_fixS,2020.1.2,Linux x86_64,60,,,,,,,,,,,,,,,,,,1,25.3212,,0,0,23,23,2,1,stimuli/stim_20210706_power2amp/equal_lnn_AM0.6Hz_s35_23.m4a,,,,,,,,,,,,
,,,,,,,,,,,,41704,2021-09-22_17h03.26.799,judgeSpeechMusic_20210921_logNormShiftAmp_detection_fixS,2020.1.2,Linux x86_64,60,,,,,,,,,,,,,,,,,,2,22.7248,,0,0,24,24,10,1,stimuli/stim_20210706_power2amp/equal_lnn_AM0.6Hz_s35_36.m4a,,,,,,,,,,,,
,,,,,,,,,,,,41704,2021-09-22_17h03.26.799,judgeSpeechMusic_20210921_logNormShiftAmp_detection_fixS,2020.1.2,Linux x86_64,60,,,,,,,,,,,,,,,,,,2,7.6692,,0,0,25,25,22,1,stimuli/stim_20210706_power2amp/equal_lnn_AM1.2Hz_s35_44.m4a,,,,,,,,,,,,
,,,,,,,,,,,,41704,2021-09-22_17h03.26.799,judgeSpeechMusic_20210921_logNormShiftAmp_detection_fixS,2020.1.2,Linux x86_64,60,,,,,,,,,,,,,,,,,,1,7.1772,,0,0,26,26,5,1,stimuli/stim_20210706_power2amp/equal_lnn_AM0.6Hz_s35_17.m4a,,,,,,,,,,,,
,,,,,,,,,,,,41704,2021-09-22_17h03.26.799,judgeSpeechMusic_20210921_logNormShiftAmp_detection_fixS,2020.1.2,Linux x86_64,60,,,,,,,,,,,,,,,,,,2,13.9206,,0,0,27,27,25,1,stimuli/stim_20210706_power2amp/equal_lnn_AM1.2Hz_s35_21.m4a,,,,,,,,,,,,
,,,,,,,,,,,,41704,2021-09-22_17h03.26.799,judgeSpeechMusic_20210921_logNormShiftAmp_detection_fixS,2020.1.2,Linux x86_64,60,,,,,,,,,,,,,,,,,,2,11.9895,,0,0,28,28,41,1,stimuli/stim_20210706_power2amp/equal_lnn_AM2.4Hz_s35_30.m4a,,,,,,,,,,,,
,,,,,,,,,,,,41704,2021-09-22_17h03.26.799,judgeSpeechMusic_20210921_logNormShiftAmp_detection_fixS,2020.1.2,Linux x86_64,60,,,,,,,,,,,,,,,,,,1,16.9967,,0,0,29,29,61,1,stimuli/stim_20210706_power2amp/equal_lnn_AM4.2Hz_s35_29.m4a,,,,,,,,,,,,
,,,,,,,,,,,,41704,2021-09-22_17h03.26.799,judgeSpeechMusic_20210921_logNormShiftAmp_detection_fixS,2020.1.2,Linux x86_64,60,,,,,,,,,,,,,,,,,,1,9.5757,,0,0,30,30,35,1,stimuli/stim_20210706_power2amp/equal_lnn_AM2.4Hz_s35_26.m4a,,,,,,,,,,,,
,,,,,,,,,,,,41704,2021-09-22_17h03.26.799,judgeSpeechMusic_20210921_logNormShiftAmp_detection_fixS,2020.1.2,Linux x86_64,60,,,,,,,,,,,,,,,,,,1,5.7818,,0,0,31,31,19,1,stimuli/stim_20210706_power2amp/equal_lnn_AM1.2Hz_s35_2.m4a,,,,,,,,,,,,
,,,,,,,,,,,,41704,2021-09-22_17h03.26.799,judgeSpeechMusic_20210921_logNormShiftAmp_detection_fixS,2020.1.2,Linux x86_64,60,,,,,,,,,,,,,,,,,,2,5.7349,,0,0,32,32,63,1,stimuli/stim_20210706_power2amp/equal_lnn_AM4.2Hz_s35_39.m4a,,,,,,,,,,,,
,,,,,,,,,,,,41704,2021-09-22_17h03.26.799,judgeSpeechMusic_20210921_logNormShiftAmp_detection_fixS,2020.1.2,Linux x86_64,60,,,,,,,,,,,,,,,,,,2,9.2127,,0,0,33,33,15,1,stimuli/stim_20210706_power2amp/equal_lnn_AM1.2Hz_s35_45.m4a,,,,,,,,,,,,
,,,,,,,,,,,,41704,2021-09-22_17h03.26.799,judgeSpeechMusic_20210921_logNormShiftAmp_detection_fixS,2020.1.2,Linux x86_64,60,,,,,,,,,,,,,,,,,,2,8.6866,,0,0,34,34,68,1,stimuli/stim_20210706_power2amp/equal_lnn_AM4.2Hz_s35_20.m4a,,,,,,,,,,,,
,,,,,,,,,,,,41704,2021-09-22_17h03.26.799,judgeSpeechMusic_20210921_logNormShiftAmp_detection_fixS,2020.1.2,Linux x86_64,60,,,,,,,,,,,,,,,,,,2,8.4031,,0,0,35,35,53,1,stimuli/stim_20210706_power2amp/equal_lnn_AM3.6Hz_s35_50.m4a,,,,,,,,,,,,
,,,,,,,,,,,,41704,2021-09-22_17h03.26.799,judgeSpeechMusic_20210921_logNormShiftAmp_detection_fixS,2020.1.2,Linux x86_64,60,,,,,,,,,,,,,,,,,,1,12.4851,,0,0,36,36,72,1,stimuli/stim_20210706_power2amp/equal_lnn_AM4.2Hz_s35_19.m4a,,,,,,,,,,,,
,,,,,,,,,,,,41704,2021-09-22_17h03.26.799,judgeSpeechMusic_20210921_logNormShiftAmp_detection_fixS,2020.1.2,Linux x86_64,60,,,,,,,,,,,,,,,,,,2,14.2283,,0,0,37,37,4,1,stimuli/stim_20210706_power2amp/equal_lnn_AM0.6Hz_s35_28.m4a,,,,,,,,,,,,
,,,,,,,,,,,,41704,2021-09-22_17h03.26.799,judgeSpeechMusic_20210921_logNormShiftAmp_detection_fixS,2020.1.2,Linux x86_64,60,,,,,,,,,,,,,,,,,,2,7.6027,,0,0,38,38,32,1,stimuli/stim_20210706_power2amp/equal_lnn_AM2.4Hz_s35_31.m4a,,,,,,,,,,,,
,,,,,,,,,,,,41704,2021-09-22_17h03.26.799,judgeSpeechMusic_20210921_logNormShiftAmp_detection_fixS,2020.1.2,Linux x86_64,60,,,,,,,,,,,,,,,,,,2,6.5769,,0,0,39,39,6,1,stimuli/stim_20210706_power2amp/equal_lnn_AM0.6Hz_s35_46.m4a,,,,,,,,,,,,
,,,,,,,,,,,,41704,2021-09-22_17h03.26.799,judgeSpeechMusic_20210921_logNormShiftAmp_detection_fixS,2020.1.2,Linux x86_64,60,,,,,,,,,,,,,,,,,,1,13.7558,1,1,0,40,40,16,1,stimuli/stim_20210706_power2amp/equal_lnn_AM1.2Hz_s35_32.m4a,0.8955,,,,,,,,,,,
,,,,,,,,,,,,41704,2021-09-22_17h03.26.799,judgeSpeechMusic_20210921_logNormShiftAmp_detection_fixS,2020.1.2,Linux x86_64,60,,,,,,,,,,,,,,,,,,1,13.336,,0,0,41,41,49,1,stimuli/stim_20210706_power2amp/equal_lnn_AM3.6Hz_s35_43.m4a,,,,,,,,,,,,
,,,,,,,,,,,,41704,2021-09-22_17h03.26.799,judgeSpeechMusic_20210921_logNormShiftAmp_detection_fixS,2020.1.2,Linux x86_64,60,,,,,,,,,,,,,,,,,,2,8.7634,,0,0,42,42,58,1,stimuli/stim_20210706_power2amp/equal_lnn_AM3.6Hz_s35_16.m4a,,,,,,,,,,,,
,,,,,,,,,,,,41704,2021-09-22_17h03.26.799,judgeSpeechMusic_20210921_logNormShiftAmp_detection_fixS,2020.1.2,Linux x86_64,60,,,,,,,,,,,,,,,,,,2,16.2829,,0,0,43,43,26,1,stimuli/stim_20210706_power2amp/equal_lnn_AM1.2Hz_s35_9.m4a,,,,,,,,,,,,
,,,,,,,,,,,,41704,2021-09-22_17h03.26.799,judgeSpeechMusic_20210921_logNormShiftAmp_detection_fixS,2020.1.2,Linux x86_64,60,,,,,,,,,,,,,,,,,,2,23.3454,,0,0,44,44,66,1,stimuli/stim_20210706_power2amp/equal_lnn_AM4.2Hz_s35_34.m4a,,,,,,,,,,,,
,,,,,,,,,,,,41704,2021-09-22_17h03.26.799,judgeSpeechMusic_20210921_logNormShiftAmp_detection_fixS,2020.1.2,Linux x86_64,60,,,,,,,,,,,,,,,,,,1,11.2171,,0,0,45,45,13,1,stimuli/stim_20210706_power2amp/equal_lnn_AM0.6Hz_s35_37.m4a,,,,,,,,,,,,
,,,,,,,,,,,,41704,2021-09-22_17h03.26.799,judgeSpeechMusic_20210921_logNormShiftAmp_detection_fixS,2020.1.2,Linux x86_64,60,,,,,,,,,,,,,,,,,,2,12.6915,,0,0,46,46,59,1,stimuli/stim_20210706_power2amp/equal_lnn_AM3.6Hz_s35_5.m4a,,,,,,,,,,,,
,,,,,,,,,,,,41704,2021-09-22_17h03.26.799,judgeSpeechMusic_20210921_logNormShiftAmp_detection_fixS,2020.1.2,Linux x86_64,60,,,,,,,,,,,,,,,,,,2,12.1769,,0,0,47,47,8,1,stimuli/stim_20210706_power2amp/equal_lnn_AM0.6Hz_s35_16.m4a,,,,,,,,,,,,
,,,,,,,,,,,,41704,2021-09-22_17h03.26.799,judgeSpeechMusic_20210921_logNormShiftAmp_detection_fixS,2020.1.2,Linux x86_64,60,,,,,,,,,,,,,,,,,,2,7.7867,,0,0,48,48,46,1,stimuli/stim_20210706_power2amp/equal_lnn_AM3.6Hz_s35_33.m4a,,,,,,,,,,,,
,,,,,,,,,,,,41704,2021-09-22_17h03.26.799,judgeSpeechMusic_20210921_logNormShiftAmp_detection_fixS,2020.1.2,Linux x86_64,60,,,,,,,,,,,,,,,,,,2,7.1898,,0,0,49,49,30,1,stimuli/stim_20210706_power2amp/equal_lnn_AM2.4Hz_s35_29.m4a,,,,,,,,,,,,
,,,,,,,,,,,,41704,2021-09-22_17h03.26.799,judgeSpeechMusic_20210921_logNormShiftAmp_detection_fixS,2020.1.2,Linux x86_64,60,,,,,,,,,,,,,,,,,,1,12.5341,,0,0,50,50,23,1,stimuli/stim_20210706_power2amp/equal_lnn_AM1.2Hz_s35_33.m4a,,,,,,,,,,,,
,,,,,,,,,,,,41704,2021-09-22_17h03.26.799,judgeSpeechMusic_20210921_logNormShiftAmp_detection_fixS,2020.1.2,Linux x86_64,60,,,,,,,,,,,,,,,,,,1,12.48,,0,0,51,51,44,1,stimuli/stim_20210706_power2amp/equal_lnn_AM2.4Hz_s35_18.m4a,,,,,,,,,,,,
,,,,,,,,,,,,41704,2021-09-22_17h03.26.799,judgeSpeechMusic_20210921_logNormShiftAmp_detection_fixS,2020.1.2,Linux x86_64,60,,,,,,,,,,,,,,,,,,2,7.0016,,0,0,52,52,73,1,stimuli/stim_20210706_power2amp/equal_lnn_AM4.2Hz_s35_26.m4a,,,,,,,,,,,,
,,,,,,,,,,,,41704,2021-09-22_17h03.26.799,judgeSpeechMusic_20210921_logNormShiftAmp_detection_fixS,2020.1.2,Linux x86_64,60,,,,,,,,,,,,,,,,,,1,9.2793,,0,0,53,53,0,1,stimuli/stim_20210706_power2amp/equal_lnn_AM0.6Hz_s35_40.m4a,,,,,,,,,,,,
,,,,,,,,,,,,41704,2021-09-22_17h03.26.799,judgeSpeechMusic_20210921_logNormShiftAmp_detection_fixS,2020.1.2,Linux x86_64,60,,,,,,,,,,,,,,,,,,1,16.7429,,0,0,54,54,47,1,stimuli/stim_20210706_power2amp/equal_lnn_AM3.6Hz_s35_18.m4a,,,,,,,,,,,,
,,,,,,,,,,,,41704,2021-09-22_17h03.26.799,judgeSpeechMusic_20210921_logNormShiftAmp_detection_fixS,2020.1.2,Linux x86_64,60,,,,,,,,,,,,,,,,,,1,6.9706,,0,0,55,55,28,1,stimuli/stim_20210706_power2amp/equal_lnn_AM1.2Hz_s35_43.m4a,,,,,,,,,,,,
,,,,,,,,,,,,41704,2021-09-22_17h03.26.799,judgeSpeechMusic_20210921_logNormShiftAmp_detection_fixS,2020.1.2,Linux x86_64,60,,,,,,,,,,,,,,,,,,2,16.2568,,0,0,56,56,38,1,stimuli/stim_20210706_power2amp/equal_lnn_AM2.4Hz_s35_12.m4a,,,,,,,,,,,,
,,,,,,,,,,,,41704,2021-09-22_17h03.26.799,judgeSpeechMusic_20210921_logNormShiftAmp_detection_fixS,2020.1.2,Linux x86_64,60,,,,,,,,,,,,,,,,,,1,16.0808,,0,0,57,57,20,1,stimuli/stim_20210706_power2amp/equal_lnn_AM1.2Hz_s35_25.m4a,,,,,,,,,,,,
,,,,,,,,,,,,41704,2021-09-22_17h03.26.799,judgeSpeechMusic_20210921_logNormShiftAmp_detection_fixS,2020.1.2,Linux x86_64,60,,,,,,,,,,,,,,,,,,2,14.9282,,0,0,58,58,1,1,stimuli/stim_20210706_power2amp/equal_lnn_AM0.6Hz_s35_33.m4a,,,,,,,,,,,,
,,,,,,,,,,,,41704,2021-09-22_17h03.26.799,judgeSpeechMusic_20210921_logNormShiftAmp_detection_fixS,2020.1.2,Linux x86_64,60,,,,,,,,,,,,,,,,,,2,10.5971,,0,0,59,59,27,1,stimuli/stim_20210706_power2amp/equal_lnn_AM1.2Hz_s35_38.m4a,,,,,,,,,,,,
,,,,,,,,,,,,41704,2021-09-22_17h03.26.799,judgeSpeechMusic_20210921_logNormShiftAmp_detection_fixS,2020.1.2,Linux x86_64,60,,,,,,,,,,,,,,,,,,2,12.7845,,0,0,60,60,48,1,stimuli/stim_20210706_power2amp/equal_lnn_AM3.6Hz_s35_20.m4a,,,,,,,,,,,,
,,,,,,,,,,,,41704,2021-09-22_17h03.26.799,judgeSpeechMusic_20210921_logNormShiftAmp_detection_fixS,2020.1.2,Linux x86_64,60,,,,,,,,,,,,,,,,,,2,6.8984,3,1,0,61,61,21,1,stimuli/stim_20210706_power2amp/equal_lnn_AM1.2Hz_s35_49.m4a,4.1823,,,,,,,,,,,
,,,,,,,,,,,,41704,2021-09-22_17h03.26.799,judgeSpeechMusic_20210921_logNormShiftAmp_detection_fixS,2020.1.2,Linux x86_64,60,,,,,,,,,,,,,,,,,,1,7.496,,0,0,62,62,74,1,stimuli/stim_20210706_power2amp/equal_lnn_AM4.2Hz_s35_11.m4a,,,,,,,,,,,,
,,,,,,,,,,,,41704,2021-09-22_17h03.26.799,judgeSpeechMusic_20210921_logNormShiftAmp_detection_fixS,2020.1.2,Linux x86_64,60,,,,,,,,,,,,,,,,,,2,18.4997,,0,0,63,63,64,1,stimuli/stim_20210706_power2amp/equal_lnn_AM4.2Hz_s35_4.m4a,,,,,,,,,,,,
,,,,,,,,,,,,41704,2021-09-22_17h03.26.799,judgeSpeechMusic_20210921_logNormShiftAmp_detection_fixS,2020.1.2,Linux x86_64,60,,,,,,,,,,,,,,,,,,1,22.1138,,0,0,64,64,43,1,stimuli/stim_20210706_power2amp/equal_lnn_AM2.4Hz_s35_40.m4a,,,,,,,,,,,,
,,,,,,,,,,,,41704,2021-09-22_17h03.26.799,judgeSpeechMusic_20210921_logNormShiftAmp_detection_fixS,2020.1.2,Linux x86_64,60,,,,,,,,,,,,,,,,,,2,14.228,,0,0,65,65,55,1,stimuli/stim_20210706_power2amp/equal_lnn_AM3.6Hz_s35_41.m4a,,,,,,,,,,,,
,,,,,,,,,,,,41704,2021-09-22_17h03.26.799,judgeSpeechMusic_20210921_logNormShiftAmp_detection_fixS,2020.1.2,Linux x86_64,60,,,,,,,,,,,,,,,,,,1,7.6669,,0,0,66,66,24,1,stimuli/stim_20210706_power2amp/equal_lnn_AM1.2Hz_s35_11.m4a,,,,,,,,,,,,
,,,,,,,,,,,,41704,2021-09-22_17h03.26.799,judgeSpeechMusic_20210921_logNormShiftAmp_detection_fixS,2020.1.2,Linux x86_64,60,,,,,,,,,,,,,,,,,,2,5.8972,,0,0,67,67,42,1,stimuli/stim_20210706_power2amp/equal_lnn_AM2.4Hz_s35_20.m4a,,,,,,,,,,,,
,,,,,,,,,,,,41704,2021-09-22_17h03.26.799,judgeSpeechMusic_20210921_logNormShiftAmp_detection_fixS,2020.1.2,Linux x86_64,60,,,,,,,,,,,,,,,,,,2,6.6317,,0,0,68,68,33,1,stimuli/stim_20210706_power2amp/equal_lnn_AM2.4Hz_s35_48.m4a,,,,,,,,,,,,
,,,,,,,,,,,,41704,2021-09-22_17h03.26.799,judgeSpeechMusic_20210921_logNormShiftAmp_detection_fixS,2020.1.2,Linux x86_64,60,,,,,,,,,,,,,,,,,,2,15.3277,,0,0,69,69,34,1,stimuli/stim_20210706_power2amp/equal_lnn_AM2.4Hz_s35_42.m4a,,,,,,,,,,,,
,,,,,,,,,,,,41704,2021-09-22_17h03.26.799,judgeSpeechMusic_20210921_logNormShiftAmp_detection_fixS,2020.1.2,Linux x86_64,60,,,,,,,,,,,,,,,,,,2,7.3492,,0,0,70,70,70,1,stimuli/stim_20210706_power2amp/equal_lnn_AM4.2Hz_s35_22.m4a,,,,,,,,,,,,
,,,,,,,,,,,,41704,2021-09-22_17h03.26.799,judgeSpeechMusic_20210921_logNormShiftAmp_detection_fixS,2020.1.2,Linux x86_64,60,,,,,,,,,,,,,,,,,,2,7.1661,,0,0,71,71,57,1,stimuli/stim_20210706_power2amp/equal_lnn_AM3.6Hz_s35_1.m4a,,,,,,,,,,,,
,,,,,,,,,,,,41704,2021-09-22_17h03.26.799,judgeSpeechMusic_20210921_logNormShiftAmp_detection_fixS,2020.1.2,Linux x86_64,60,,,,,,,,,,,,,,,,,,1,8.3076,,0,0,72,72,67,1,stimuli/stim_20210706_power2amp/equal_lnn_AM4.2Hz_s35_9.m4a,,,,,,,,,,,,
,,,,,,,,,,,,41704,2021-09-22_17h03.26.799,judgeSpeechMusic_20210921_logNormShiftAmp_detection_fixS,2020.1.2,Linux x86_64,60,,,,,,,,,,,,,,,,,,2,15.3718,,0,0,73,73,51,1,stimuli/stim_20210706_power2amp/equal_lnn_AM3.6Hz_s35_12.m4a,,,,,,,,,,,,
,,,,,,,,,,,,41704,2021-09-22_17h03.26.799,judgeSpeechMusic_20210921_logNormShiftAmp_detection_fixS,2020.1.2,Linux x86_64,60,,,,,,,,,,,,,,,,,,1,9.0723,,0,0,74,74,7,1,stimuli/stim_20210706_power2amp/equal_lnn_AM0.6Hz_s35_47.m4a,,,,,,,,,,,,
,,,,,,,,,,,,41704,2021-09-22_17h03.26.799,judgeSpeechMusic_20210921_logNormShiftAmp_detection_fixS,2020.1.2,Linux x86_64,60,,,,,,,,,,,,,,,,,,,,,,,,,,,,,,,1,1,3,1,1,SPEECH,stimuli/SPEECH.jpg,,
,,,,,,,,,,,,41704,2021-09-22_17h03.26.799,judgeSpeechMusic_20210921_logNormShiftAmp_detection_fixS,2020.1.2,Linux x86_64,60,,,,,,,,,,,,,,,,,,,,,,,,,,,,,,,,,,,,,,space,13.016
