volAdjustRep.thisRepN,volAdjustRep.thisTrialN,volAdjustRep.thisN,volAdjustRep.thisIndex,volAdjustRep.ran,participant,date,expName,psychopyVersion,OS,frameRate,headphoneResponse.keys,headphoneResponse.corr,headphoneResponse.rt,headphoneTrial.thisRepN,headphoneTrial.thisTrialN,headphoneTrial.thisN,headphoneTrial.thisIndex,headphoneTrial.ran,headphone_sound1,headphone_sound2,headphone_sound3,corrAns,checkInstruKey.keys,checkInstruKey.rt,trainSlider.response,trainSlider.rt,beepTrainResponse.keys,beepTrainResponse.corr,trainingTrials.thisRepN,trainingTrials.thisTrialN,trainingTrials.thisN,trainingTrials.thisIndex,trainingTrials.ran,trainAudioFile,beepTrainResponse.rt,readyReal_resp.keys,readyReal_resp.rt,checkInstru2_key.keys,checkInstru2_key.rt,ratingSlider.response,ratingSlider.rt,beepResp.keys,beepResp.corr,expTrials.thisRepN,expTrials.thisTrialN,expTrials.thisN,expTrials.thisIndex,expTrials.ran,audioFile,beepResp.rt,switchBlock_space.keys,switchBlock_space.rt,block.thisRepN,block.thisTrialN,block.thisN,block.thisIndex,block.ran,blockName,blockImage,end_resp.keys,end_resp.rt
0,0,0,0,1,41712,2021-09-26_23h20.13.981,judgeSpeechMusic_20210921_logNormShiftAmp_detection_fixS,2020.1.2,MacIntel,60,,,,,,,,,,,,,,,,,,,,,,,,,,,,,,,,,,,,,,,,,,,,,,,,,,,
,,,,,41712,2021-09-26_23h20.13.981,judgeSpeechMusic_20210921_logNormShiftAmp_detection_fixS,2020.1.2,MacIntel,60,2,1,2.54216,0,0,0,1,1,stimuli/screen_antiphase.wav,stimuli/screen_quiet.wav,stimuli/screen_origin.wav,2,,,,,,,,,,,,,,,,,,,,,,,,,,,,,,,,,,,,,,,
,,,,,41712,2021-09-26_23h20.13.981,judgeSpeechMusic_20210921_logNormShiftAmp_detection_fixS,2020.1.2,MacIntel,60,2,1,0.784315,0,1,1,3,1,stimuli/screen_origin.wav,stimuli/screen_quiet.wav,stimuli/screen_antiphase.wav,2,,,,,,,,,,,,,,,,,,,,,,,,,,,,,,,,,,,,,,,
,,,,,41712,2021-09-26_23h20.13.981,judgeSpeechMusic_20210921_logNormShiftAmp_detection_fixS,2020.1.2,MacIntel,60,1,1,0.615435,0,2,2,5,1,stimuli/screen_quiet.wav,stimuli/screen_origin.wav,stimuli/screen_antiphase.wav,1,,,,,,,,,,,,,,,,,,,,,,,,,,,,,,,,,,,,,,,
,,,,,41712,2021-09-26_23h20.13.981,judgeSpeechMusic_20210921_logNormShiftAmp_detection_fixS,2020.1.2,MacIntel,60,3,1,0.758525,0,3,3,2,1,stimuli/screen_origin.wav,stimuli/screen_antiphase.wav,stimuli/screen_quiet.wav,3,,,,,,,,,,,,,,,,,,,,,,,,,,,,,,,,,,,,,,,
,,,,,41712,2021-09-26_23h20.13.981,judgeSpeechMusic_20210921_logNormShiftAmp_detection_fixS,2020.1.2,MacIntel,60,3,0,0.38425,0,4,4,4,1,stimuli/screen_quiet.wav,stimuli/screen_antiphase.wav,stimuli/screen_origin.wav,1,,,,,,,,,,,,,,,,,,,,,,,,,,,,,,,,,,,,,,,
,,,,,41712,2021-09-26_23h20.13.981,judgeSpeechMusic_20210921_logNormShiftAmp_detection_fixS,2020.1.2,MacIntel,60,3,1,0.308235,0,5,5,0,1,stimuli/screen_antiphase.wav,stimuli/screen_origin.wav,stimuli/screen_quiet.wav,3,,,,,,,,,,,,,,,,,,,,,,,,,,,,,,,,,,,,,,,
,,,,,41712,2021-09-26_23h20.13.981,judgeSpeechMusic_20210921_logNormShiftAmp_detection_fixS,2020.1.2,MacIntel,60,,,,,,,,,,,,,space,1.98932,1,60.00848,,0,0,0,0,3,1,stimuli/stim_20210706_power2amp/equal_lnn_AM_training3.9Hz_s35.m4a,,,,,,,,,,,,,,,,,,,,,,,,,,,
,,,,,41712,2021-09-26_23h20.13.981,judgeSpeechMusic_20210921_logNormShiftAmp_detection_fixS,2020.1.2,MacIntel,60,,,,,,,,,,,,,,,1,8.73697,,0,0,1,1,1,1,stimuli/stim_20210706_power2amp/equal_lnn_AM_training1.8Hz_s35.m4a,,,,,,,,,,,,,,,,,,,,,,,,,,,
,,,,,41712,2021-09-26_23h20.13.981,judgeSpeechMusic_20210921_logNormShiftAmp_detection_fixS,2020.1.2,MacIntel,60,,,,,,,,,,,,,,,1,7.37806,2,1,0,2,2,2,1,stimuli/stim_20210706_power2amp/equal_lnn_AM_training3Hz_s35.m4a,1.25902,,,,,,,,,,,,,,,,,,,,,,,,,,
,,,,,41712,2021-09-26_23h20.13.981,judgeSpeechMusic_20210921_logNormShiftAmp_detection_fixS,2020.1.2,MacIntel,60,,,,,,,,,,,,,,,1,6.67482,,0,0,3,3,0,1,stimuli/stim_20210706_power2amp/equal_lnn_AM_training0.9Hz_s35.m4a,,,,,,,,,,,,,,,,,,,,,,,,,,,
,,,,,41712,2021-09-26_23h20.13.981,judgeSpeechMusic_20210921_logNormShiftAmp_detection_fixS,2020.1.2,MacIntel,60,,,,,,,,,,,,,,,,,,,,,,,,,,space,4.87735,space,0.710945,2,6.58053,,0,0,0,0,68,1,stimuli/stim_20210706_power2amp/equal_lnn_AM4.2Hz_s35_14.m4a,,,,,,,,,,,,
,,,,,41712,2021-09-26_23h20.13.981,judgeSpeechMusic_20210921_logNormShiftAmp_detection_fixS,2020.1.2,MacIntel,60,,,,,,,,,,,,,,,,,,,,,,,,,,,,,,2,6.777575,,0,0,1,1,36,1,stimuli/stim_20210706_power2amp/equal_lnn_AM2.4Hz_s35_32.m4a,,,,,,,,,,,,
,,,,,41712,2021-09-26_23h20.13.981,judgeSpeechMusic_20210921_logNormShiftAmp_detection_fixS,2020.1.2,MacIntel,60,,,,,,,,,,,,,,,,,,,,,,,,,,,,,,1,6.12447,,0,0,2,2,60,1,stimuli/stim_20210706_power2amp/equal_lnn_AM4.2Hz_s35_37.m4a,,,,,,,,,,,,
,,,,,41712,2021-09-26_23h20.13.981,judgeSpeechMusic_20210921_logNormShiftAmp_detection_fixS,2020.1.2,MacIntel,60,,,,,,,,,,,,,,,,,,,,,,,,,,,,,,1,6.07436,,0,0,3,3,6,1,stimuli/stim_20210706_power2amp/equal_lnn_AM0.6Hz_s35_27.m4a,,,,,,,,,,,,
,,,,,41712,2021-09-26_23h20.13.981,judgeSpeechMusic_20210921_logNormShiftAmp_detection_fixS,2020.1.2,MacIntel,60,,,,,,,,,,,,,,,,,,,,,,,,,,,,,,1,5.878975,,0,0,4,4,9,1,stimuli/stim_20210706_power2amp/equal_lnn_AM0.6Hz_s35_32.m4a,,,,,,,,,,,,
,,,,,41712,2021-09-26_23h20.13.981,judgeSpeechMusic_20210921_logNormShiftAmp_detection_fixS,2020.1.2,MacIntel,60,,,,,,,,,,,,,,,,,,,,,,,,,,,,,,2,6.261225,,0,0,5,5,24,1,stimuli/stim_20210706_power2amp/equal_lnn_AM1.2Hz_s35_5.m4a,,,,,,,,,,,,
,,,,,41712,2021-09-26_23h20.13.981,judgeSpeechMusic_20210921_logNormShiftAmp_detection_fixS,2020.1.2,MacIntel,60,,,,,,,,,,,,,,,,,,,,,,,,,,,,,,2,6.198515,,0,0,6,6,50,1,stimuli/stim_20210706_power2amp/equal_lnn_AM3.6Hz_s35_21.m4a,,,,,,,,,,,,
,,,,,41712,2021-09-26_23h20.13.981,judgeSpeechMusic_20210921_logNormShiftAmp_detection_fixS,2020.1.2,MacIntel,60,,,,,,,,,,,,,,,,,,,,,,,,,,,,,,2,6.693415,,0,0,7,7,67,1,stimuli/stim_20210706_power2amp/equal_lnn_AM4.2Hz_s35_25.m4a,,,,,,,,,,,,
,,,,,41712,2021-09-26_23h20.13.981,judgeSpeechMusic_20210921_logNormShiftAmp_detection_fixS,2020.1.2,MacIntel,60,,,,,,,,,,,,,,,,,,,,,,,,,,,,,,1,6.19005,,0,0,8,8,45,1,stimuli/stim_20210706_power2amp/equal_lnn_AM3.6Hz_s35_20.m4a,,,,,,,,,,,,
,,,,,41712,2021-09-26_23h20.13.981,judgeSpeechMusic_20210921_logNormShiftAmp_detection_fixS,2020.1.2,MacIntel,60,,,,,,,,,,,,,,,,,,,,,,,,,,,,,,1,6.28101,,0,0,9,9,19,1,stimuli/stim_20210706_power2amp/equal_lnn_AM1.2Hz_s35_48.m4a,,,,,,,,,,,,
,,,,,41712,2021-09-26_23h20.13.981,judgeSpeechMusic_20210921_logNormShiftAmp_detection_fixS,2020.1.2,MacIntel,60,,,,,,,,,,,,,,,,,,,,,,,,,,,,,,1,7.170865,,0,0,10,10,37,1,stimuli/stim_20210706_power2amp/equal_lnn_AM2.4Hz_s35_34.m4a,,,,,,,,,,,,
,,,,,41712,2021-09-26_23h20.13.981,judgeSpeechMusic_20210921_logNormShiftAmp_detection_fixS,2020.1.2,MacIntel,60,,,,,,,,,,,,,,,,,,,,,,,,,,,,,,1,6.473035,,0,0,11,11,30,1,stimuli/stim_20210706_power2amp/equal_lnn_AM2.4Hz_s35_2.m4a,,,,,,,,,,,,
,,,,,41712,2021-09-26_23h20.13.981,judgeSpeechMusic_20210921_logNormShiftAmp_detection_fixS,2020.1.2,MacIntel,60,,,,,,,,,,,,,,,,,,,,,,,,,,,,,,2,5.924155,,0,0,12,12,40,1,stimuli/stim_20210706_power2amp/equal_lnn_AM2.4Hz_s35_26.m4a,,,,,,,,,,,,
,,,,,41712,2021-09-26_23h20.13.981,judgeSpeechMusic_20210921_logNormShiftAmp_detection_fixS,2020.1.2,MacIntel,60,,,,,,,,,,,,,,,,,,,,,,,,,,,,,,2,7.33972,,0,0,13,13,8,1,stimuli/stim_20210706_power2amp/equal_lnn_AM0.6Hz_s35_4.m4a,,,,,,,,,,,,
,,,,,41712,2021-09-26_23h20.13.981,judgeSpeechMusic_20210921_logNormShiftAmp_detection_fixS,2020.1.2,MacIntel,60,,,,,,,,,,,,,,,,,,,,,,,,,,,,,,1,6.904625,,0,0,14,14,34,1,stimuli/stim_20210706_power2amp/equal_lnn_AM2.4Hz_s35_35.m4a,,,,,,,,,,,,
,,,,,41712,2021-09-26_23h20.13.981,judgeSpeechMusic_20210921_logNormShiftAmp_detection_fixS,2020.1.2,MacIntel,60,,,,,,,,,,,,,,,,,,,,,,,,,,,,,,2,6.873795,,0,0,15,15,65,1,stimuli/stim_20210706_power2amp/equal_lnn_AM4.2Hz_s35_11.m4a,,,,,,,,,,,,
,,,,,41712,2021-09-26_23h20.13.981,judgeSpeechMusic_20210921_logNormShiftAmp_detection_fixS,2020.1.2,MacIntel,60,,,,,,,,,,,,,,,,,,,,,,,,,,,,,,2,6.730435,,0,0,16,16,32,1,stimuli/stim_20210706_power2amp/equal_lnn_AM2.4Hz_s35_6.m4a,,,,,,,,,,,,
,,,,,41712,2021-09-26_23h20.13.981,judgeSpeechMusic_20210921_logNormShiftAmp_detection_fixS,2020.1.2,MacIntel,60,,,,,,,,,,,,,,,,,,,,,,,,,,,,,,2,6.72275,,0,0,17,17,56,1,stimuli/stim_20210706_power2amp/equal_lnn_AM3.6Hz_s35_22.m4a,,,,,,,,,,,,
,,,,,41712,2021-09-26_23h20.13.981,judgeSpeechMusic_20210921_logNormShiftAmp_detection_fixS,2020.1.2,MacIntel,60,,,,,,,,,,,,,,,,,,,,,,,,,,,,,,1,6.890535,,0,0,18,18,10,1,stimuli/stim_20210706_power2amp/equal_lnn_AM0.6Hz_s35_10.m4a,,,,,,,,,,,,
,,,,,41712,2021-09-26_23h20.13.981,judgeSpeechMusic_20210921_logNormShiftAmp_detection_fixS,2020.1.2,MacIntel,60,,,,,,,,,,,,,,,,,,,,,,,,,,,,,,1,6.24166,1,1,0,19,19,23,1,stimuli/stim_20210706_power2amp/equal_lnn_AM1.2Hz_s35_24.m4a,0.86248,,,,,,,,,,,
,,,,,41712,2021-09-26_23h20.13.981,judgeSpeechMusic_20210921_logNormShiftAmp_detection_fixS,2020.1.2,MacIntel,60,,,,,,,,,,,,,,,,,,,,,,,,,,,,,,1,7.83209,,0,0,20,20,11,1,stimuli/stim_20210706_power2amp/equal_lnn_AM0.6Hz_s35_37.m4a,,,,,,,,,,,,
,,,,,41712,2021-09-26_23h20.13.981,judgeSpeechMusic_20210921_logNormShiftAmp_detection_fixS,2020.1.2,MacIntel,60,,,,,,,,,,,,,,,,,,,,,,,,,,,,,,2,7.72329,,0,0,21,21,31,1,stimuli/stim_20210706_power2amp/equal_lnn_AM2.4Hz_s35_19.m4a,,,,,,,,,,,,
,,,,,41712,2021-09-26_23h20.13.981,judgeSpeechMusic_20210921_logNormShiftAmp_detection_fixS,2020.1.2,MacIntel,60,,,,,,,,,,,,,,,,,,,,,,,,,,,,,,2,7.311765,,0,0,22,22,18,1,stimuli/stim_20210706_power2amp/equal_lnn_AM1.2Hz_s35_45.m4a,,,,,,,,,,,,
,,,,,41712,2021-09-26_23h20.13.981,judgeSpeechMusic_20210921_logNormShiftAmp_detection_fixS,2020.1.2,MacIntel,60,,,,,,,,,,,,,,,,,,,,,,,,,,,,,,2,6.656315,,0,0,23,23,39,1,stimuli/stim_20210706_power2amp/equal_lnn_AM2.4Hz_s35_7.m4a,,,,,,,,,,,,
,,,,,41712,2021-09-26_23h20.13.981,judgeSpeechMusic_20210921_logNormShiftAmp_detection_fixS,2020.1.2,MacIntel,60,,,,,,,,,,,,,,,,,,,,,,,,,,,,,,2,9.04136,,0,0,24,24,46,1,stimuli/stim_20210706_power2amp/equal_lnn_AM3.6Hz_s35_46.m4a,,,,,,,,,,,,
,,,,,41712,2021-09-26_23h20.13.981,judgeSpeechMusic_20210921_logNormShiftAmp_detection_fixS,2020.1.2,MacIntel,60,,,,,,,,,,,,,,,,,,,,,,,,,,,,,,2,14.678335,,0,0,25,25,42,1,stimuli/stim_20210706_power2amp/equal_lnn_AM2.4Hz_s35_4.m4a,,,,,,,,,,,,
,,,,,41712,2021-09-26_23h20.13.981,judgeSpeechMusic_20210921_logNormShiftAmp_detection_fixS,2020.1.2,MacIntel,60,,,,,,,,,,,,,,,,,,,,,,,,,,,,,,2,12.17094,,0,0,26,26,17,1,stimuli/stim_20210706_power2amp/equal_lnn_AM1.2Hz_s35_26.m4a,,,,,,,,,,,,
,,,,,41712,2021-09-26_23h20.13.981,judgeSpeechMusic_20210921_logNormShiftAmp_detection_fixS,2020.1.2,MacIntel,60,,,,,,,,,,,,,,,,,,,,,,,,,,,,,,2,10.25339,,0,0,27,27,48,1,stimuli/stim_20210706_power2amp/equal_lnn_AM3.6Hz_s35_24.m4a,,,,,,,,,,,,
,,,,,41712,2021-09-26_23h20.13.981,judgeSpeechMusic_20210921_logNormShiftAmp_detection_fixS,2020.1.2,MacIntel,60,,,,,,,,,,,,,,,,,,,,,,,,,,,,,,2,48.64286,,0,0,28,28,53,1,stimuli/stim_20210706_power2amp/equal_lnn_AM3.6Hz_s35_50.m4a,,,,,,,,,,,,
,,,,,41712,2021-09-26_23h20.13.981,judgeSpeechMusic_20210921_logNormShiftAmp_detection_fixS,2020.1.2,MacIntel,60,,,,,,,,,,,,,,,,,,,,,,,,,,,,,,1,49.33096,,0,0,29,29,47,1,stimuli/stim_20210706_power2amp/equal_lnn_AM3.6Hz_s35_42.m4a,,,,,,,,,,,,
,,,,,41712,2021-09-26_23h20.13.981,judgeSpeechMusic_20210921_logNormShiftAmp_detection_fixS,2020.1.2,MacIntel,60,,,,,,,,,,,,,,,,,,,,,,,,,,,,,,2,7.5738,,0,0,30,30,29,1,stimuli/stim_20210706_power2amp/equal_lnn_AM1.2Hz_s35_30.m4a,,,,,,,,,,,,
,,,,,41712,2021-09-26_23h20.13.981,judgeSpeechMusic_20210921_logNormShiftAmp_detection_fixS,2020.1.2,MacIntel,60,,,,,,,,,,,,,,,,,,,,,,,,,,,,,,1,160.42137,,0,0,31,31,74,1,stimuli/stim_20210706_power2amp/equal_lnn_AM4.2Hz_s35_44.m4a,,,,,,,,,,,,
,,,,,41712,2021-09-26_23h20.13.981,judgeSpeechMusic_20210921_logNormShiftAmp_detection_fixS,2020.1.2,MacIntel,60,,,,,,,,,,,,,,,,,,,,,,,,,,,,,,1,6.174015,,0,0,32,32,61,1,stimuli/stim_20210706_power2amp/equal_lnn_AM4.2Hz_s35_5.m4a,,,,,,,,,,,,
,,,,,41712,2021-09-26_23h20.13.981,judgeSpeechMusic_20210921_logNormShiftAmp_detection_fixS,2020.1.2,MacIntel,60,,,,,,,,,,,,,,,,,,,,,,,,,,,,,,1,7.41392,,0,0,33,33,22,1,stimuli/stim_20210706_power2amp/equal_lnn_AM1.2Hz_s35_32.m4a,,,,,,,,,,,,
,,,,,41712,2021-09-26_23h20.13.981,judgeSpeechMusic_20210921_logNormShiftAmp_detection_fixS,2020.1.2,MacIntel,60,,,,,,,,,,,,,,,,,,,,,,,,,,,,,,1,33.941455,,0,0,34,34,12,1,stimuli/stim_20210706_power2amp/equal_lnn_AM0.6Hz_s35_50.m4a,,,,,,,,,,,,
,,,,,41712,2021-09-26_23h20.13.981,judgeSpeechMusic_20210921_logNormShiftAmp_detection_fixS,2020.1.2,MacIntel,60,,,,,,,,,,,,,,,,,,,,,,,,,,,,,,1,118.8756,,0,0,35,35,7,1,stimuli/stim_20210706_power2amp/equal_lnn_AM0.6Hz_s35_3.m4a,,,,,,,,,,,,
,,,,,41712,2021-09-26_23h20.13.981,judgeSpeechMusic_20210921_logNormShiftAmp_detection_fixS,2020.1.2,MacIntel,60,,,,,,,,,,,,,,,,,,,,,,,,,,,,,,1,5.930495,,0,0,36,36,73,1,stimuli/stim_20210706_power2amp/equal_lnn_AM4.2Hz_s35_32.m4a,,,,,,,,,,,,
,,,,,41712,2021-09-26_23h20.13.981,judgeSpeechMusic_20210921_logNormShiftAmp_detection_fixS,2020.1.2,MacIntel,60,,,,,,,,,,,,,,,,,,,,,,,,,,,,,,1,6.92701,,0,0,37,37,58,1,stimuli/stim_20210706_power2amp/equal_lnn_AM3.6Hz_s35_6.m4a,,,,,,,,,,,,
,,,,,41712,2021-09-26_23h20.13.981,judgeSpeechMusic_20210921_logNormShiftAmp_detection_fixS,2020.1.2,MacIntel,60,,,,,,,,,,,,,,,,,,,,,,,,,,,,,,2,5.791075,,0,0,38,38,49,1,stimuli/stim_20210706_power2amp/equal_lnn_AM3.6Hz_s35_26.m4a,,,,,,,,,,,,
,,,,,41712,2021-09-26_23h20.13.981,judgeSpeechMusic_20210921_logNormShiftAmp_detection_fixS,2020.1.2,MacIntel,60,,,,,,,,,,,,,,,,,,,,,,,,,,,,,,2,7.094645,,0,0,39,39,62,1,stimuli/stim_20210706_power2amp/equal_lnn_AM4.2Hz_s35_41.m4a,,,,,,,,,,,,
,,,,,41712,2021-09-26_23h20.13.981,judgeSpeechMusic_20210921_logNormShiftAmp_detection_fixS,2020.1.2,MacIntel,60,,,,,,,,,,,,,,,,,,,,,,,,,,,,,,2,26.10919,1,1,0,40,40,25,1,stimuli/stim_20210706_power2amp/equal_lnn_AM1.2Hz_s35_43.m4a,1.896525,,,,,,,,,,,
,,,,,41712,2021-09-26_23h20.13.981,judgeSpeechMusic_20210921_logNormShiftAmp_detection_fixS,2020.1.2,MacIntel,60,,,,,,,,,,,,,,,,,,,,,,,,,,,,,,2,148.55395,,0,0,41,41,21,1,stimuli/stim_20210706_power2amp/equal_lnn_AM1.2Hz_s35_1.m4a,,,,,,,,,,,,
,,,,,41712,2021-09-26_23h20.13.981,judgeSpeechMusic_20210921_logNormShiftAmp_detection_fixS,2020.1.2,MacIntel,60,,,,,,,,,,,,,,,,,,,,,,,,,,,,,,1,6.37662,,0,0,42,42,13,1,stimuli/stim_20210706_power2amp/equal_lnn_AM0.6Hz_s35_48.m4a,,,,,,,,,,,,
,,,,,41712,2021-09-26_23h20.13.981,judgeSpeechMusic_20210921_logNormShiftAmp_detection_fixS,2020.1.2,MacIntel,60,,,,,,,,,,,,,,,,,,,,,,,,,,,,,,2,6.933165,,0,0,43,43,55,1,stimuli/stim_20210706_power2amp/equal_lnn_AM3.6Hz_s35_18.m4a,,,,,,,,,,,,
,,,,,41712,2021-09-26_23h20.13.981,judgeSpeechMusic_20210921_logNormShiftAmp_detection_fixS,2020.1.2,MacIntel,60,,,,,,,,,,,,,,,,,,,,,,,,,,,,,,2,6.1707,,0,0,44,44,72,1,stimuli/stim_20210706_power2amp/equal_lnn_AM4.2Hz_s35_6.m4a,,,,,,,,,,,,
,,,,,41712,2021-09-26_23h20.13.981,judgeSpeechMusic_20210921_logNormShiftAmp_detection_fixS,2020.1.2,MacIntel,60,,,,,,,,,,,,,,,,,,,,,,,,,,,,,,2,13.94625,,0,0,45,45,52,1,stimuli/stim_20210706_power2amp/equal_lnn_AM3.6Hz_s35_33.m4a,,,,,,,,,,,,
,,,,,41712,2021-09-26_23h20.13.981,judgeSpeechMusic_20210921_logNormShiftAmp_detection_fixS,2020.1.2,MacIntel,60,,,,,,,,,,,,,,,,,,,,,,,,,,,,,,1,133.407425,,0,0,46,46,3,1,stimuli/stim_20210706_power2amp/equal_lnn_AM0.6Hz_s35_25.m4a,,,,,,,,,,,,
,,,,,41712,2021-09-26_23h20.13.981,judgeSpeechMusic_20210921_logNormShiftAmp_detection_fixS,2020.1.2,MacIntel,60,,,,,,,,,,,,,,,,,,,,,,,,,,,,,,2,7.59196,,0,0,47,47,33,1,stimuli/stim_20210706_power2amp/equal_lnn_AM2.4Hz_s35_10.m4a,,,,,,,,,,,,
,,,,,41712,2021-09-26_23h20.13.981,judgeSpeechMusic_20210921_logNormShiftAmp_detection_fixS,2020.1.2,MacIntel,60,,,,,,,,,,,,,,,,,,,,,,,,,,,,,,2,5.67949,,0,0,48,48,26,1,stimuli/stim_20210706_power2amp/equal_lnn_AM1.2Hz_s35_3.m4a,,,,,,,,,,,,
,,,,,41712,2021-09-26_23h20.13.981,judgeSpeechMusic_20210921_logNormShiftAmp_detection_fixS,2020.1.2,MacIntel,60,,,,,,,,,,,,,,,,,,,,,,,,,,,,,,2,6.480585,,0,0,49,49,51,1,stimuli/stim_20210706_power2amp/equal_lnn_AM3.6Hz_s35_14.m4a,,,,,,,,,,,,
,,,,,41712,2021-09-26_23h20.13.981,judgeSpeechMusic_20210921_logNormShiftAmp_detection_fixS,2020.1.2,MacIntel,60,,,,,,,,,,,,,,,,,,,,,,,,,,,,,,2,9.34303,,0,0,50,50,54,1,stimuli/stim_20210706_power2amp/equal_lnn_AM3.6Hz_s35_40.m4a,,,,,,,,,,,,
,,,,,41712,2021-09-26_23h20.13.981,judgeSpeechMusic_20210921_logNormShiftAmp_detection_fixS,2020.1.2,MacIntel,60,,,,,,,,,,,,,,,,,,,,,,,,,,,,,,2,9.56281,,0,0,51,51,69,1,stimuli/stim_20210706_power2amp/equal_lnn_AM4.2Hz_s35_50.m4a,,,,,,,,,,,,
,,,,,41712,2021-09-26_23h20.13.981,judgeSpeechMusic_20210921_logNormShiftAmp_detection_fixS,2020.1.2,MacIntel,60,,,,,,,,,,,,,,,,,,,,,,,,,,,,,,1,6.6286,,0,0,52,52,38,1,stimuli/stim_20210706_power2amp/equal_lnn_AM2.4Hz_s35_11.m4a,,,,,,,,,,,,
,,,,,41712,2021-09-26_23h20.13.981,judgeSpeechMusic_20210921_logNormShiftAmp_detection_fixS,2020.1.2,MacIntel,60,,,,,,,,,,,,,,,,,,,,,,,,,,,,,,1,6.92424,,0,0,53,53,41,1,stimuli/stim_20210706_power2amp/equal_lnn_AM2.4Hz_s35_17.m4a,,,,,,,,,,,,
,,,,,41712,2021-09-26_23h20.13.981,judgeSpeechMusic_20210921_logNormShiftAmp_detection_fixS,2020.1.2,MacIntel,60,,,,,,,,,,,,,,,,,,,,,,,,,,,,,,2,7.126025,,0,0,54,54,66,1,stimuli/stim_20210706_power2amp/equal_lnn_AM4.2Hz_s35_12.m4a,,,,,,,,,,,,
,,,,,41712,2021-09-26_23h20.13.981,judgeSpeechMusic_20210921_logNormShiftAmp_detection_fixS,2020.1.2,MacIntel,60,,,,,,,,,,,,,,,,,,,,,,,,,,,,,,1,6.34084,,0,0,55,55,16,1,stimuli/stim_20210706_power2amp/equal_lnn_AM1.2Hz_s35_27.m4a,,,,,,,,,,,,
,,,,,41712,2021-09-26_23h20.13.981,judgeSpeechMusic_20210921_logNormShiftAmp_detection_fixS,2020.1.2,MacIntel,60,,,,,,,,,,,,,,,,,,,,,,,,,,,,,,2,7.32972,,0,0,56,56,43,1,stimuli/stim_20210706_power2amp/equal_lnn_AM2.4Hz_s35_9.m4a,,,,,,,,,,,,
,,,,,41712,2021-09-26_23h20.13.981,judgeSpeechMusic_20210921_logNormShiftAmp_detection_fixS,2020.1.2,MacIntel,60,,,,,,,,,,,,,,,,,,,,,,,,,,,,,,2,17.2733,,0,0,57,57,35,1,stimuli/stim_20210706_power2amp/equal_lnn_AM2.4Hz_s35_45.m4a,,,,,,,,,,,,
,,,,,41712,2021-09-26_23h20.13.981,judgeSpeechMusic_20210921_logNormShiftAmp_detection_fixS,2020.1.2,MacIntel,60,,,,,,,,,,,,,,,,,,,,,,,,,,,,,,1,6.690385,,0,0,58,58,28,1,stimuli/stim_20210706_power2amp/equal_lnn_AM1.2Hz_s35_34.m4a,,,,,,,,,,,,
,,,,,41712,2021-09-26_23h20.13.981,judgeSpeechMusic_20210921_logNormShiftAmp_detection_fixS,2020.1.2,MacIntel,60,,,,,,,,,,,,,,,,,,,,,,,,,,,,,,1,5.647425,,0,0,59,59,0,1,stimuli/stim_20210706_power2amp/equal_lnn_AM0.6Hz_s35_30.m4a,,,,,,,,,,,,
,,,,,41712,2021-09-26_23h20.13.981,judgeSpeechMusic_20210921_logNormShiftAmp_detection_fixS,2020.1.2,MacIntel,60,,,,,,,,,,,,,,,,,,,,,,,,,,,,,,1,10.08663,,0,0,60,60,1,1,stimuli/stim_20210706_power2amp/equal_lnn_AM0.6Hz_s35_43.m4a,,,,,,,,,,,,
,,,,,41712,2021-09-26_23h20.13.981,judgeSpeechMusic_20210921_logNormShiftAmp_detection_fixS,2020.1.2,MacIntel,60,,,,,,,,,,,,,,,,,,,,,,,,,,,,,,1,6.359585,1,1,0,61,61,59,1,stimuli/stim_20210706_power2amp/equal_lnn_AM3.6Hz_s35_9.m4a,0.84941,,,,,,,,,,,
,,,,,41712,2021-09-26_23h20.13.981,judgeSpeechMusic_20210921_logNormShiftAmp_detection_fixS,2020.1.2,MacIntel,60,,,,,,,,,,,,,,,,,,,,,,,,,,,,,,1,17.408375,,0,0,62,62,27,1,stimuli/stim_20210706_power2amp/equal_lnn_AM1.2Hz_s35_38.m4a,,,,,,,,,,,,
,,,,,41712,2021-09-26_23h20.13.981,judgeSpeechMusic_20210921_logNormShiftAmp_detection_fixS,2020.1.2,MacIntel,60,,,,,,,,,,,,,,,,,,,,,,,,,,,,,,2,8.210395,,0,0,63,63,63,1,stimuli/stim_20210706_power2amp/equal_lnn_AM4.2Hz_s35_35.m4a,,,,,,,,,,,,
,,,,,41712,2021-09-26_23h20.13.981,judgeSpeechMusic_20210921_logNormShiftAmp_detection_fixS,2020.1.2,MacIntel,60,,,,,,,,,,,,,,,,,,,,,,,,,,,,,,1,6.263155,,0,0,64,64,4,1,stimuli/stim_20210706_power2amp/equal_lnn_AM0.6Hz_s35_24.m4a,,,,,,,,,,,,
,,,,,41712,2021-09-26_23h20.13.981,judgeSpeechMusic_20210921_logNormShiftAmp_detection_fixS,2020.1.2,MacIntel,60,,,,,,,,,,,,,,,,,,,,,,,,,,,,,,2,6.26315,,0,0,65,65,57,1,stimuli/stim_20210706_power2amp/equal_lnn_AM3.6Hz_s35_3.m4a,,,,,,,,,,,,
,,,,,41712,2021-09-26_23h20.13.981,judgeSpeechMusic_20210921_logNormShiftAmp_detection_fixS,2020.1.2,MacIntel,60,,,,,,,,,,,,,,,,,,,,,,,,,,,,,,2,6.021965,,0,0,66,66,20,1,stimuli/stim_20210706_power2amp/equal_lnn_AM1.2Hz_s35_33.m4a,,,,,,,,,,,,
,,,,,41712,2021-09-26_23h20.13.981,judgeSpeechMusic_20210921_logNormShiftAmp_detection_fixS,2020.1.2,MacIntel,60,,,,,,,,,,,,,,,,,,,,,,,,,,,,,,1,6.50653,,0,0,67,67,2,1,stimuli/stim_20210706_power2amp/equal_lnn_AM0.6Hz_s35_17.m4a,,,,,,,,,,,,
,,,,,41712,2021-09-26_23h20.13.981,judgeSpeechMusic_20210921_logNormShiftAmp_detection_fixS,2020.1.2,MacIntel,60,,,,,,,,,,,,,,,,,,,,,,,,,,,,,,1,14.361895,,0,0,68,68,70,1,stimuli/stim_20210706_power2amp/equal_lnn_AM4.2Hz_s35_21.m4a,,,,,,,,,,,,
,,,,,41712,2021-09-26_23h20.13.981,judgeSpeechMusic_20210921_logNormShiftAmp_detection_fixS,2020.1.2,MacIntel,60,,,,,,,,,,,,,,,,,,,,,,,,,,,,,,1,7.54739,,0,0,69,69,14,1,stimuli/stim_20210706_power2amp/equal_lnn_AM0.6Hz_s35_34.m4a,,,,,,,,,,,,
,,,,,41712,2021-09-26_23h20.13.981,judgeSpeechMusic_20210921_logNormShiftAmp_detection_fixS,2020.1.2,MacIntel,60,,,,,,,,,,,,,,,,,,,,,,,,,,,,,,1,6.10607,,0,0,70,70,64,1,stimuli/stim_20210706_power2amp/equal_lnn_AM4.2Hz_s35_31.m4a,,,,,,,,,,,,
,,,,,41712,2021-09-26_23h20.13.981,judgeSpeechMusic_20210921_logNormShiftAmp_detection_fixS,2020.1.2,MacIntel,60,,,,,,,,,,,,,,,,,,,,,,,,,,,,,,1,5.89647,,0,0,71,71,44,1,stimuli/stim_20210706_power2amp/equal_lnn_AM2.4Hz_s35_50.m4a,,,,,,,,,,,,
,,,,,41712,2021-09-26_23h20.13.981,judgeSpeechMusic_20210921_logNormShiftAmp_detection_fixS,2020.1.2,MacIntel,60,,,,,,,,,,,,,,,,,,,,,,,,,,,,,,1,5.776745,,0,0,72,72,71,1,stimuli/stim_20210706_power2amp/equal_lnn_AM4.2Hz_s35_47.m4a,,,,,,,,,,,,
,,,,,41712,2021-09-26_23h20.13.981,judgeSpeechMusic_20210921_logNormShiftAmp_detection_fixS,2020.1.2,MacIntel,60,,,,,,,,,,,,,,,,,,,,,,,,,,,,,,1,5.67564,,0,0,73,73,5,1,stimuli/stim_20210706_power2amp/equal_lnn_AM0.6Hz_s35_8.m4a,,,,,,,,,,,,
,,,,,41712,2021-09-26_23h20.13.981,judgeSpeechMusic_20210921_logNormShiftAmp_detection_fixS,2020.1.2,MacIntel,60,,,,,,,,,,,,,,,,,,,,,,,,,,,,,,1,6.46509,,0,0,74,74,15,1,stimuli/stim_20210706_power2amp/equal_lnn_AM1.2Hz_s35_2.m4a,,,,,,,,,,,,
,,,,,41712,2021-09-26_23h20.13.981,judgeSpeechMusic_20210921_logNormShiftAmp_detection_fixS,2020.1.2,MacIntel,60,,,,,,,,,,,,,,,,,,,,,,,,,,,,,,,,,,,,,,,,,space,2.581415,0,0,0,1,1,SPEECH,stimuli/SPEECH.jpg,,
,,,,,41712,2021-09-26_23h20.13.981,judgeSpeechMusic_20210921_logNormShiftAmp_detection_fixS,2020.1.2,MacIntel,60,,,,,,,,,,,,,space,29.97808,1,7.07173,,0,0,0,0,0,1,stimuli/stim_20210706_power2amp/equal_lnn_AM_training0.9Hz_s35.m4a,,,,,,,,,,,,,,,,,,,,,,,,,,,
,,,,,41712,2021-09-26_23h20.13.981,judgeSpeechMusic_20210921_logNormShiftAmp_detection_fixS,2020.1.2,MacIntel,60,,,,,,,,,,,,,,,1,36.85033,,0,0,1,1,2,1,stimuli/stim_20210706_power2amp/equal_lnn_AM_training3Hz_s35.m4a,,,,,,,,,,,,,,,,,,,,,,,,,,,
,,,,,41712,2021-09-26_23h20.13.981,judgeSpeechMusic_20210921_logNormShiftAmp_detection_fixS,2020.1.2,MacIntel,60,,,,,,,,,,,,,,,2,5.894685,4,1,0,2,2,1,1,stimuli/stim_20210706_power2amp/equal_lnn_AM_training1.8Hz_s35.m4a,0.99641,,,,,,,,,,,,,,,,,,,,,,,,,,
,,,,,41712,2021-09-26_23h20.13.981,judgeSpeechMusic_20210921_logNormShiftAmp_detection_fixS,2020.1.2,MacIntel,60,,,,,,,,,,,,,,,2,6.354315,,0,0,3,3,3,1,stimuli/stim_20210706_power2amp/equal_lnn_AM_training3.9Hz_s35.m4a,,,,,,,,,,,,,,,,,,,,,,,,,,,
,,,,,41712,2021-09-26_23h20.13.981,judgeSpeechMusic_20210921_logNormShiftAmp_detection_fixS,2020.1.2,MacIntel,60,,,,,,,,,,,,,,,,,,,,,,,,,,space,0.774455,space,0.043965,1,7.012555,,0,0,0,0,15,1,stimuli/stim_20210706_power2amp/equal_lnn_AM1.2Hz_s35_2.m4a,,,,,,,,,,,,
,,,,,41712,2021-09-26_23h20.13.981,judgeSpeechMusic_20210921_logNormShiftAmp_detection_fixS,2020.1.2,MacIntel,60,,,,,,,,,,,,,,,,,,,,,,,,,,,,,,2,9.056605,,0,0,1,1,35,1,stimuli/stim_20210706_power2amp/equal_lnn_AM2.4Hz_s35_45.m4a,,,,,,,,,,,,
,,,,,41712,2021-09-26_23h20.13.981,judgeSpeechMusic_20210921_logNormShiftAmp_detection_fixS,2020.1.2,MacIntel,60,,,,,,,,,,,,,,,,,,,,,,,,,,,,,,1,6.677375,,0,0,2,2,11,1,stimuli/stim_20210706_power2amp/equal_lnn_AM0.6Hz_s35_37.m4a,,,,,,,,,,,,
,,,,,41712,2021-09-26_23h20.13.981,judgeSpeechMusic_20210921_logNormShiftAmp_detection_fixS,2020.1.2,MacIntel,60,,,,,,,,,,,,,,,,,,,,,,,,,,,,,,2,7.327505,,0,0,3,3,52,1,stimuli/stim_20210706_power2amp/equal_lnn_AM3.6Hz_s35_33.m4a,,,,,,,,,,,,
,,,,,41712,2021-09-26_23h20.13.981,judgeSpeechMusic_20210921_logNormShiftAmp_detection_fixS,2020.1.2,MacIntel,60,,,,,,,,,,,,,,,,,,,,,,,,,,,,,,2,8.541215,,0,0,4,4,43,1,stimuli/stim_20210706_power2amp/equal_lnn_AM2.4Hz_s35_9.m4a,,,,,,,,,,,,
,,,,,41712,2021-09-26_23h20.13.981,judgeSpeechMusic_20210921_logNormShiftAmp_detection_fixS,2020.1.2,MacIntel,60,,,,,,,,,,,,,,,,,,,,,,,,,,,,,,1,7.445995,,0,0,5,5,39,1,stimuli/stim_20210706_power2amp/equal_lnn_AM2.4Hz_s35_7.m4a,,,,,,,,,,,,
,,,,,41712,2021-09-26_23h20.13.981,judgeSpeechMusic_20210921_logNormShiftAmp_detection_fixS,2020.1.2,MacIntel,60,,,,,,,,,,,,,,,,,,,,,,,,,,,,,,2,7.29214,,0,0,6,6,42,1,stimuli/stim_20210706_power2amp/equal_lnn_AM2.4Hz_s35_4.m4a,,,,,,,,,,,,
,,,,,41712,2021-09-26_23h20.13.981,judgeSpeechMusic_20210921_logNormShiftAmp_detection_fixS,2020.1.2,MacIntel,60,,,,,,,,,,,,,,,,,,,,,,,,,,,,,,2,8.443225,,0,0,7,7,27,1,stimuli/stim_20210706_power2amp/equal_lnn_AM1.2Hz_s35_38.m4a,,,,,,,,,,,,
,,,,,41712,2021-09-26_23h20.13.981,judgeSpeechMusic_20210921_logNormShiftAmp_detection_fixS,2020.1.2,MacIntel,60,,,,,,,,,,,,,,,,,,,,,,,,,,,,,,1,6.830425,,0,0,8,8,71,1,stimuli/stim_20210706_power2amp/equal_lnn_AM4.2Hz_s35_47.m4a,,,,,,,,,,,,
,,,,,41712,2021-09-26_23h20.13.981,judgeSpeechMusic_20210921_logNormShiftAmp_detection_fixS,2020.1.2,MacIntel,60,,,,,,,,,,,,,,,,,,,,,,,,,,,,,,1,6.187835,,0,0,9,9,32,1,stimuli/stim_20210706_power2amp/equal_lnn_AM2.4Hz_s35_6.m4a,,,,,,,,,,,,
,,,,,41712,2021-09-26_23h20.13.981,judgeSpeechMusic_20210921_logNormShiftAmp_detection_fixS,2020.1.2,MacIntel,60,,,,,,,,,,,,,,,,,,,,,,,,,,,,,,1,7.007685,,0,0,10,10,68,1,stimuli/stim_20210706_power2amp/equal_lnn_AM4.2Hz_s35_14.m4a,,,,,,,,,,,,
,,,,,41712,2021-09-26_23h20.13.981,judgeSpeechMusic_20210921_logNormShiftAmp_detection_fixS,2020.1.2,MacIntel,60,,,,,,,,,,,,,,,,,,,,,,,,,,,,,,2,20.378985,,0,0,11,11,29,1,stimuli/stim_20210706_power2amp/equal_lnn_AM1.2Hz_s35_30.m4a,,,,,,,,,,,,
,,,,,41712,2021-09-26_23h20.13.981,judgeSpeechMusic_20210921_logNormShiftAmp_detection_fixS,2020.1.2,MacIntel,60,,,,,,,,,,,,,,,,,,,,,,,,,,,,,,2,7.059935,,0,0,12,12,3,1,stimuli/stim_20210706_power2amp/equal_lnn_AM0.6Hz_s35_25.m4a,,,,,,,,,,,,
,,,,,41712,2021-09-26_23h20.13.981,judgeSpeechMusic_20210921_logNormShiftAmp_detection_fixS,2020.1.2,MacIntel,60,,,,,,,,,,,,,,,,,,,,,,,,,,,,,,2,6.31574,,0,0,13,13,55,1,stimuli/stim_20210706_power2amp/equal_lnn_AM3.6Hz_s35_18.m4a,,,,,,,,,,,,
,,,,,41712,2021-09-26_23h20.13.981,judgeSpeechMusic_20210921_logNormShiftAmp_detection_fixS,2020.1.2,MacIntel,60,,,,,,,,,,,,,,,,,,,,,,,,,,,,,,2,6.179775,,0,0,14,14,66,1,stimuli/stim_20210706_power2amp/equal_lnn_AM4.2Hz_s35_12.m4a,,,,,,,,,,,,
,,,,,41712,2021-09-26_23h20.13.981,judgeSpeechMusic_20210921_logNormShiftAmp_detection_fixS,2020.1.2,MacIntel,60,,,,,,,,,,,,,,,,,,,,,,,,,,,,,,2,5.692485,,0,0,15,15,36,1,stimuli/stim_20210706_power2amp/equal_lnn_AM2.4Hz_s35_32.m4a,,,,,,,,,,,,
,,,,,41712,2021-09-26_23h20.13.981,judgeSpeechMusic_20210921_logNormShiftAmp_detection_fixS,2020.1.2,MacIntel,60,,,,,,,,,,,,,,,,,,,,,,,,,,,,,,1,6.908255,,0,0,16,16,59,1,stimuli/stim_20210706_power2amp/equal_lnn_AM3.6Hz_s35_9.m4a,,,,,,,,,,,,
,,,,,41712,2021-09-26_23h20.13.981,judgeSpeechMusic_20210921_logNormShiftAmp_detection_fixS,2020.1.2,MacIntel,60,,,,,,,,,,,,,,,,,,,,,,,,,,,,,,1,25.32758,,0,0,17,17,30,1,stimuli/stim_20210706_power2amp/equal_lnn_AM2.4Hz_s35_2.m4a,,,,,,,,,,,,
,,,,,41712,2021-09-26_23h20.13.981,judgeSpeechMusic_20210921_logNormShiftAmp_detection_fixS,2020.1.2,MacIntel,60,,,,,,,,,,,,,,,,,,,,,,,,,,,,,,2,9.19194,,0,0,18,18,46,1,stimuli/stim_20210706_power2amp/equal_lnn_AM3.6Hz_s35_46.m4a,,,,,,,,,,,,
,,,,,41712,2021-09-26_23h20.13.981,judgeSpeechMusic_20210921_logNormShiftAmp_detection_fixS,2020.1.2,MacIntel,60,,,,,,,,,,,,,,,,,,,,,,,,,,,,,,1,41.162155,4,1,0,19,19,12,1,stimuli/stim_20210706_power2amp/equal_lnn_AM0.6Hz_s35_50.m4a,0.944165,,,,,,,,,,,
,,,,,41712,2021-09-26_23h20.13.981,judgeSpeechMusic_20210921_logNormShiftAmp_detection_fixS,2020.1.2,MacIntel,60,,,,,,,,,,,,,,,,,,,,,,,,,,,,,,1,8.457825,,0,0,20,20,28,1,stimuli/stim_20210706_power2amp/equal_lnn_AM1.2Hz_s35_34.m4a,,,,,,,,,,,,
,,,,,41712,2021-09-26_23h20.13.981,judgeSpeechMusic_20210921_logNormShiftAmp_detection_fixS,2020.1.2,MacIntel,60,,,,,,,,,,,,,,,,,,,,,,,,,,,,,,2,7.14738,,0,0,21,21,9,1,stimuli/stim_20210706_power2amp/equal_lnn_AM0.6Hz_s35_32.m4a,,,,,,,,,,,,
,,,,,41712,2021-09-26_23h20.13.981,judgeSpeechMusic_20210921_logNormShiftAmp_detection_fixS,2020.1.2,MacIntel,60,,,,,,,,,,,,,,,,,,,,,,,,,,,,,,2,5.805235,,0,0,22,22,70,1,stimuli/stim_20210706_power2amp/equal_lnn_AM4.2Hz_s35_21.m4a,,,,,,,,,,,,
,,,,,41712,2021-09-26_23h20.13.981,judgeSpeechMusic_20210921_logNormShiftAmp_detection_fixS,2020.1.2,MacIntel,60,,,,,,,,,,,,,,,,,,,,,,,,,,,,,,2,6.42281,,0,0,23,23,47,1,stimuli/stim_20210706_power2amp/equal_lnn_AM3.6Hz_s35_42.m4a,,,,,,,,,,,,
,,,,,41712,2021-09-26_23h20.13.981,judgeSpeechMusic_20210921_logNormShiftAmp_detection_fixS,2020.1.2,MacIntel,60,,,,,,,,,,,,,,,,,,,,,,,,,,,,,,1,18.2979,,0,0,24,24,45,1,stimuli/stim_20210706_power2amp/equal_lnn_AM3.6Hz_s35_20.m4a,,,,,,,,,,,,
,,,,,41712,2021-09-26_23h20.13.981,judgeSpeechMusic_20210921_logNormShiftAmp_detection_fixS,2020.1.2,MacIntel,60,,,,,,,,,,,,,,,,,,,,,,,,,,,,,,1,8.80708,,0,0,25,25,1,1,stimuli/stim_20210706_power2amp/equal_lnn_AM0.6Hz_s35_43.m4a,,,,,,,,,,,,
,,,,,41712,2021-09-26_23h20.13.981,judgeSpeechMusic_20210921_logNormShiftAmp_detection_fixS,2020.1.2,MacIntel,60,,,,,,,,,,,,,,,,,,,,,,,,,,,,,,2,7.329785,,0,0,26,26,69,1,stimuli/stim_20210706_power2amp/equal_lnn_AM4.2Hz_s35_50.m4a,,,,,,,,,,,,
,,,,,41712,2021-09-26_23h20.13.981,judgeSpeechMusic_20210921_logNormShiftAmp_detection_fixS,2020.1.2,MacIntel,60,,,,,,,,,,,,,,,,,,,,,,,,,,,,,,2,6.69703,,0,0,27,27,60,1,stimuli/stim_20210706_power2amp/equal_lnn_AM4.2Hz_s35_37.m4a,,,,,,,,,,,,
,,,,,41712,2021-09-26_23h20.13.981,judgeSpeechMusic_20210921_logNormShiftAmp_detection_fixS,2020.1.2,MacIntel,60,,,,,,,,,,,,,,,,,,,,,,,,,,,,,,2,6.10746,,0,0,28,28,18,1,stimuli/stim_20210706_power2amp/equal_lnn_AM1.2Hz_s35_45.m4a,,,,,,,,,,,,
,,,,,41712,2021-09-26_23h20.13.981,judgeSpeechMusic_20210921_logNormShiftAmp_detection_fixS,2020.1.2,MacIntel,60,,,,,,,,,,,,,,,,,,,,,,,,,,,,,,1,7.208895,,0,0,29,29,14,1,stimuli/stim_20210706_power2amp/equal_lnn_AM0.6Hz_s35_34.m4a,,,,,,,,,,,,
,,,,,41712,2021-09-26_23h20.13.981,judgeSpeechMusic_20210921_logNormShiftAmp_detection_fixS,2020.1.2,MacIntel,60,,,,,,,,,,,,,,,,,,,,,,,,,,,,,,1,6.49164,,0,0,30,30,31,1,stimuli/stim_20210706_power2amp/equal_lnn_AM2.4Hz_s35_19.m4a,,,,,,,,,,,,
,,,,,41712,2021-09-26_23h20.13.981,judgeSpeechMusic_20210921_logNormShiftAmp_detection_fixS,2020.1.2,MacIntel,60,,,,,,,,,,,,,,,,,,,,,,,,,,,,,,1,25.69768,,0,0,31,31,56,1,stimuli/stim_20210706_power2amp/equal_lnn_AM3.6Hz_s35_22.m4a,,,,,,,,,,,,
,,,,,41712,2021-09-26_23h20.13.981,judgeSpeechMusic_20210921_logNormShiftAmp_detection_fixS,2020.1.2,MacIntel,60,,,,,,,,,,,,,,,,,,,,,,,,,,,,,,1,6.42775,,0,0,32,32,19,1,stimuli/stim_20210706_power2amp/equal_lnn_AM1.2Hz_s35_48.m4a,,,,,,,,,,,,
,,,,,41712,2021-09-26_23h20.13.981,judgeSpeechMusic_20210921_logNormShiftAmp_detection_fixS,2020.1.2,MacIntel,60,,,,,,,,,,,,,,,,,,,,,,,,,,,,,,1,6.426165,,0,0,33,33,74,1,stimuli/stim_20210706_power2amp/equal_lnn_AM4.2Hz_s35_44.m4a,,,,,,,,,,,,
,,,,,41712,2021-09-26_23h20.13.981,judgeSpeechMusic_20210921_logNormShiftAmp_detection_fixS,2020.1.2,MacIntel,60,,,,,,,,,,,,,,,,,,,,,,,,,,,,,,1,5.959495,,0,0,34,34,34,1,stimuli/stim_20210706_power2amp/equal_lnn_AM2.4Hz_s35_35.m4a,,,,,,,,,,,,
,,,,,41712,2021-09-26_23h20.13.981,judgeSpeechMusic_20210921_logNormShiftAmp_detection_fixS,2020.1.2,MacIntel,60,,,,,,,,,,,,,,,,,,,,,,,,,,,,,,2,5.796255,,0,0,35,35,72,1,stimuli/stim_20210706_power2amp/equal_lnn_AM4.2Hz_s35_6.m4a,,,,,,,,,,,,
,,,,,41712,2021-09-26_23h20.13.981,judgeSpeechMusic_20210921_logNormShiftAmp_detection_fixS,2020.1.2,MacIntel,60,,,,,,,,,,,,,,,,,,,,,,,,,,,,,,2,5.82482,,0,0,36,36,54,1,stimuli/stim_20210706_power2amp/equal_lnn_AM3.6Hz_s35_40.m4a,,,,,,,,,,,,
,,,,,41712,2021-09-26_23h20.13.981,judgeSpeechMusic_20210921_logNormShiftAmp_detection_fixS,2020.1.2,MacIntel,60,,,,,,,,,,,,,,,,,,,,,,,,,,,,,,1,5.863665,,0,0,37,37,41,1,stimuli/stim_20210706_power2amp/equal_lnn_AM2.4Hz_s35_17.m4a,,,,,,,,,,,,
,,,,,41712,2021-09-26_23h20.13.981,judgeSpeechMusic_20210921_logNormShiftAmp_detection_fixS,2020.1.2,MacIntel,60,,,,,,,,,,,,,,,,,,,,,,,,,,,,,,1,6.541115,,0,0,38,38,4,1,stimuli/stim_20210706_power2amp/equal_lnn_AM0.6Hz_s35_24.m4a,,,,,,,,,,,,
,,,,,41712,2021-09-26_23h20.13.981,judgeSpeechMusic_20210921_logNormShiftAmp_detection_fixS,2020.1.2,MacIntel,60,,,,,,,,,,,,,,,,,,,,,,,,,,,,,,1,8.58062,,0,0,39,39,51,1,stimuli/stim_20210706_power2amp/equal_lnn_AM3.6Hz_s35_14.m4a,,,,,,,,,,,,
,,,,,41712,2021-09-26_23h20.13.981,judgeSpeechMusic_20210921_logNormShiftAmp_detection_fixS,2020.1.2,MacIntel,60,,,,,,,,,,,,,,,,,,,,,,,,,,,,,,1,6.441555,4,1,0,40,40,33,1,stimuli/stim_20210706_power2amp/equal_lnn_AM2.4Hz_s35_10.m4a,1.094555,,,,,,,,,,,
,,,,,41712,2021-09-26_23h20.13.981,judgeSpeechMusic_20210921_logNormShiftAmp_detection_fixS,2020.1.2,MacIntel,60,,,,,,,,,,,,,,,,,,,,,,,,,,,,,,1,7.10743,,0,0,41,41,10,1,stimuli/stim_20210706_power2amp/equal_lnn_AM0.6Hz_s35_10.m4a,,,,,,,,,,,,
,,,,,41712,2021-09-26_23h20.13.981,judgeSpeechMusic_20210921_logNormShiftAmp_detection_fixS,2020.1.2,MacIntel,60,,,,,,,,,,,,,,,,,,,,,,,,,,,,,,1,15.410405,,0,0,42,42,38,1,stimuli/stim_20210706_power2amp/equal_lnn_AM2.4Hz_s35_11.m4a,,,,,,,,,,,,
,,,,,41712,2021-09-26_23h20.13.981,judgeSpeechMusic_20210921_logNormShiftAmp_detection_fixS,2020.1.2,MacIntel,60,,,,,,,,,,,,,,,,,,,,,,,,,,,,,,2,51.905735,,0,0,43,43,61,1,stimuli/stim_20210706_power2amp/equal_lnn_AM4.2Hz_s35_5.m4a,,,,,,,,,,,,
,,,,,41712,2021-09-26_23h20.13.981,judgeSpeechMusic_20210921_logNormShiftAmp_detection_fixS,2020.1.2,MacIntel,60,,,,,,,,,,,,,,,,,,,,,,,,,,,,,,1,121.79589,,0,0,44,44,20,1,stimuli/stim_20210706_power2amp/equal_lnn_AM1.2Hz_s35_33.m4a,,,,,,,,,,,,
,,,,,41712,2021-09-26_23h20.13.981,judgeSpeechMusic_20210921_logNormShiftAmp_detection_fixS,2020.1.2,MacIntel,60,,,,,,,,,,,,,,,,,,,,,,,,,,,,,,1,10.15672,,0,0,45,45,49,1,stimuli/stim_20210706_power2amp/equal_lnn_AM3.6Hz_s35_26.m4a,,,,,,,,,,,,
,,,,,41712,2021-09-26_23h20.13.981,judgeSpeechMusic_20210921_logNormShiftAmp_detection_fixS,2020.1.2,MacIntel,60,,,,,,,,,,,,,,,,,,,,,,,,,,,,,,1,5.69686,,0,0,46,46,23,1,stimuli/stim_20210706_power2amp/equal_lnn_AM1.2Hz_s35_24.m4a,,,,,,,,,,,,
,,,,,41712,2021-09-26_23h20.13.981,judgeSpeechMusic_20210921_logNormShiftAmp_detection_fixS,2020.1.2,MacIntel,60,,,,,,,,,,,,,,,,,,,,,,,,,,,,,,2,5.79143,,0,0,47,47,73,1,stimuli/stim_20210706_power2amp/equal_lnn_AM4.2Hz_s35_32.m4a,,,,,,,,,,,,
,,,,,41712,2021-09-26_23h20.13.981,judgeSpeechMusic_20210921_logNormShiftAmp_detection_fixS,2020.1.2,MacIntel,60,,,,,,,,,,,,,,,,,,,,,,,,,,,,,,1,6.90509,,0,0,48,48,21,1,stimuli/stim_20210706_power2amp/equal_lnn_AM1.2Hz_s35_1.m4a,,,,,,,,,,,,
,,,,,41712,2021-09-26_23h20.13.981,judgeSpeechMusic_20210921_logNormShiftAmp_detection_fixS,2020.1.2,MacIntel,60,,,,,,,,,,,,,,,,,,,,,,,,,,,,,,1,5.55803,,0,0,49,49,8,1,stimuli/stim_20210706_power2amp/equal_lnn_AM0.6Hz_s35_4.m4a,,,,,,,,,,,,
,,,,,41712,2021-09-26_23h20.13.981,judgeSpeechMusic_20210921_logNormShiftAmp_detection_fixS,2020.1.2,MacIntel,60,,,,,,,,,,,,,,,,,,,,,,,,,,,,,,2,6.177815,,0,0,50,50,48,1,stimuli/stim_20210706_power2amp/equal_lnn_AM3.6Hz_s35_24.m4a,,,,,,,,,,,,
,,,,,41712,2021-09-26_23h20.13.981,judgeSpeechMusic_20210921_logNormShiftAmp_detection_fixS,2020.1.2,MacIntel,60,,,,,,,,,,,,,,,,,,,,,,,,,,,,,,1,5.644945,,0,0,51,51,37,1,stimuli/stim_20210706_power2amp/equal_lnn_AM2.4Hz_s35_34.m4a,,,,,,,,,,,,
,,,,,41712,2021-09-26_23h20.13.981,judgeSpeechMusic_20210921_logNormShiftAmp_detection_fixS,2020.1.2,MacIntel,60,,,,,,,,,,,,,,,,,,,,,,,,,,,,,,1,5.746725,,0,0,52,52,6,1,stimuli/stim_20210706_power2amp/equal_lnn_AM0.6Hz_s35_27.m4a,,,,,,,,,,,,
,,,,,41712,2021-09-26_23h20.13.981,judgeSpeechMusic_20210921_logNormShiftAmp_detection_fixS,2020.1.2,MacIntel,60,,,,,,,,,,,,,,,,,,,,,,,,,,,,,,2,5.606195,,0,0,53,53,64,1,stimuli/stim_20210706_power2amp/equal_lnn_AM4.2Hz_s35_31.m4a,,,,,,,,,,,,
,,,,,41712,2021-09-26_23h20.13.981,judgeSpeechMusic_20210921_logNormShiftAmp_detection_fixS,2020.1.2,MacIntel,60,,,,,,,,,,,,,,,,,,,,,,,,,,,,,,2,6.809315,,0,0,54,54,24,1,stimuli/stim_20210706_power2amp/equal_lnn_AM1.2Hz_s35_5.m4a,,,,,,,,,,,,
,,,,,41712,2021-09-26_23h20.13.981,judgeSpeechMusic_20210921_logNormShiftAmp_detection_fixS,2020.1.2,MacIntel,60,,,,,,,,,,,,,,,,,,,,,,,,,,,,,,1,6.428375,,0,0,55,55,17,1,stimuli/stim_20210706_power2amp/equal_lnn_AM1.2Hz_s35_26.m4a,,,,,,,,,,,,
,,,,,41712,2021-09-26_23h20.13.981,judgeSpeechMusic_20210921_logNormShiftAmp_detection_fixS,2020.1.2,MacIntel,60,,,,,,,,,,,,,,,,,,,,,,,,,,,,,,1,253.976115,,0,0,56,56,40,1,stimuli/stim_20210706_power2amp/equal_lnn_AM2.4Hz_s35_26.m4a,,,,,,,,,,,,
,,,,,41712,2021-09-26_23h20.13.981,judgeSpeechMusic_20210921_logNormShiftAmp_detection_fixS,2020.1.2,MacIntel,60,,,,,,,,,,,,,,,,,,,,,,,,,,,,,,1,6.007945,,0,0,57,57,25,1,stimuli/stim_20210706_power2amp/equal_lnn_AM1.2Hz_s35_43.m4a,,,,,,,,,,,,
,,,,,41712,2021-09-26_23h20.13.981,judgeSpeechMusic_20210921_logNormShiftAmp_detection_fixS,2020.1.2,MacIntel,60,,,,,,,,,,,,,,,,,,,,,,,,,,,,,,1,8.391185,,0,0,58,58,7,1,stimuli/stim_20210706_power2amp/equal_lnn_AM0.6Hz_s35_3.m4a,,,,,,,,,,,,
,,,,,41712,2021-09-26_23h20.13.981,judgeSpeechMusic_20210921_logNormShiftAmp_detection_fixS,2020.1.2,MacIntel,60,,,,,,,,,,,,,,,,,,,,,,,,,,,,,,1,12.095505,,0,0,59,59,58,1,stimuli/stim_20210706_power2amp/equal_lnn_AM3.6Hz_s35_6.m4a,,,,,,,,,,,,
,,,,,41712,2021-09-26_23h20.13.981,judgeSpeechMusic_20210921_logNormShiftAmp_detection_fixS,2020.1.2,MacIntel,60,,,,,,,,,,,,,,,,,,,,,,,,,,,,,,1,7.255875,,0,0,60,60,22,1,stimuli/stim_20210706_power2amp/equal_lnn_AM1.2Hz_s35_32.m4a,,,,,,,,,,,,
,,,,,41712,2021-09-26_23h20.13.981,judgeSpeechMusic_20210921_logNormShiftAmp_detection_fixS,2020.1.2,MacIntel,60,,,,,,,,,,,,,,,,,,,,,,,,,,,,,,1,6.20677,2,1,0,61,61,26,1,stimuli/stim_20210706_power2amp/equal_lnn_AM1.2Hz_s35_3.m4a,0.365175,,,,,,,,,,,
,,,,,41712,2021-09-26_23h20.13.981,judgeSpeechMusic_20210921_logNormShiftAmp_detection_fixS,2020.1.2,MacIntel,60,,,,,,,,,,,,,,,,,,,,,,,,,,,,,,1,10.14107,,0,0,62,62,62,1,stimuli/stim_20210706_power2amp/equal_lnn_AM4.2Hz_s35_41.m4a,,,,,,,,,,,,
,,,,,41712,2021-09-26_23h20.13.981,judgeSpeechMusic_20210921_logNormShiftAmp_detection_fixS,2020.1.2,MacIntel,60,,,,,,,,,,,,,,,,,,,,,,,,,,,,,,1,5.859175,,0,0,63,63,5,1,stimuli/stim_20210706_power2amp/equal_lnn_AM0.6Hz_s35_8.m4a,,,,,,,,,,,,
,,,,,41712,2021-09-26_23h20.13.981,judgeSpeechMusic_20210921_logNormShiftAmp_detection_fixS,2020.1.2,MacIntel,60,,,,,,,,,,,,,,,,,,,,,,,,,,,,,,1,9.91146,,0,0,64,64,16,1,stimuli/stim_20210706_power2amp/equal_lnn_AM1.2Hz_s35_27.m4a,,,,,,,,,,,,
,,,,,41712,2021-09-26_23h20.13.981,judgeSpeechMusic_20210921_logNormShiftAmp_detection_fixS,2020.1.2,MacIntel,60,,,,,,,,,,,,,,,,,,,,,,,,,,,,,,1,8.09172,,0,0,65,65,0,1,stimuli/stim_20210706_power2amp/equal_lnn_AM0.6Hz_s35_30.m4a,,,,,,,,,,,,
,,,,,41712,2021-09-26_23h20.13.981,judgeSpeechMusic_20210921_logNormShiftAmp_detection_fixS,2020.1.2,MacIntel,60,,,,,,,,,,,,,,,,,,,,,,,,,,,,,,1,6.413365,,0,0,66,66,44,1,stimuli/stim_20210706_power2amp/equal_lnn_AM2.4Hz_s35_50.m4a,,,,,,,,,,,,
,,,,,41712,2021-09-26_23h20.13.981,judgeSpeechMusic_20210921_logNormShiftAmp_detection_fixS,2020.1.2,MacIntel,60,,,,,,,,,,,,,,,,,,,,,,,,,,,,,,1,6.74272,,0,0,67,67,57,1,stimuli/stim_20210706_power2amp/equal_lnn_AM3.6Hz_s35_3.m4a,,,,,,,,,,,,
,,,,,41712,2021-09-26_23h20.13.981,judgeSpeechMusic_20210921_logNormShiftAmp_detection_fixS,2020.1.2,MacIntel,60,,,,,,,,,,,,,,,,,,,,,,,,,,,,,,2,7.80642,,0,0,68,68,50,1,stimuli/stim_20210706_power2amp/equal_lnn_AM3.6Hz_s35_21.m4a,,,,,,,,,,,,
,,,,,41712,2021-09-26_23h20.13.981,judgeSpeechMusic_20210921_logNormShiftAmp_detection_fixS,2020.1.2,MacIntel,60,,,,,,,,,,,,,,,,,,,,,,,,,,,,,,2,7.430555,,0,0,69,69,13,1,stimuli/stim_20210706_power2amp/equal_lnn_AM0.6Hz_s35_48.m4a,,,,,,,,,,,,
,,,,,41712,2021-09-26_23h20.13.981,judgeSpeechMusic_20210921_logNormShiftAmp_detection_fixS,2020.1.2,MacIntel,60,,,,,,,,,,,,,,,,,,,,,,,,,,,,,,1,6.79205,,0,0,70,70,67,1,stimuli/stim_20210706_power2amp/equal_lnn_AM4.2Hz_s35_25.m4a,,,,,,,,,,,,
,,,,,41712,2021-09-26_23h20.13.981,judgeSpeechMusic_20210921_logNormShiftAmp_detection_fixS,2020.1.2,MacIntel,60,,,,,,,,,,,,,,,,,,,,,,,,,,,,,,1,22.04647,,0,0,71,71,53,1,stimuli/stim_20210706_power2amp/equal_lnn_AM3.6Hz_s35_50.m4a,,,,,,,,,,,,
,,,,,41712,2021-09-26_23h20.13.981,judgeSpeechMusic_20210921_logNormShiftAmp_detection_fixS,2020.1.2,MacIntel,60,,,,,,,,,,,,,,,,,,,,,,,,,,,,,,1,7.60815,,0,0,72,72,63,1,stimuli/stim_20210706_power2amp/equal_lnn_AM4.2Hz_s35_35.m4a,,,,,,,,,,,,
,,,,,41712,2021-09-26_23h20.13.981,judgeSpeechMusic_20210921_logNormShiftAmp_detection_fixS,2020.1.2,MacIntel,60,,,,,,,,,,,,,,,,,,,,,,,,,,,,,,1,6.29058,,0,0,73,73,65,1,stimuli/stim_20210706_power2amp/equal_lnn_AM4.2Hz_s35_11.m4a,,,,,,,,,,,,
,,,,,41712,2021-09-26_23h20.13.981,judgeSpeechMusic_20210921_logNormShiftAmp_detection_fixS,2020.1.2,MacIntel,60,,,,,,,,,,,,,,,,,,,,,,,,,,,,,,1,6.22454,,0,0,74,74,2,1,stimuli/stim_20210706_power2amp/equal_lnn_AM0.6Hz_s35_17.m4a,,,,,,,,,,,,
,,,,,41712,2021-09-26_23h20.13.981,judgeSpeechMusic_20210921_logNormShiftAmp_detection_fixS,2020.1.2,MacIntel,60,,,,,,,,,,,,,,,,,,,,,,,,,,,,,,,,,,,,,,,,,space,0.909445,0,1,1,0,1,MUSIC,stimuli/MUSIC.jpg,,
,,,,,41712,2021-09-26_23h20.13.981,judgeSpeechMusic_20210921_logNormShiftAmp_detection_fixS,2020.1.2,MacIntel,60,,,,,,,,,,,,,,,,,,0,0,0,0,0,1,stimuli/stim_20210706_power2amp/equal_lnn_AM_training0.9Hz_s35.m4a,,,,,,,,,,,,,,,,,,,,,,,,,,,
,,,,,41712,2021-09-26_23h20.13.981,judgeSpeechMusic_20210921_logNormShiftAmp_detection_fixS,2020.1.2,MacIntel,60,,,,,,,,,,,,,,,,,,,,,,,,,,space,4.816755,space,3.98379,1,12.67407,,0,0,0,0,30,1,stimuli/stim_20210706_power2amp/equal_lnn_AM2.4Hz_s35_2.m4a,,,,,,,,,,,,
,,,,,41712,2021-09-26_23h20.13.981,judgeSpeechMusic_20210921_logNormShiftAmp_detection_fixS,2020.1.2,MacIntel,60,,,,,,,,,,,,,,,,,,,,,,,,,,,,,,2,8.289545,,0,0,1,1,71,1,stimuli/stim_20210706_power2amp/equal_lnn_AM4.2Hz_s35_47.m4a,,,,,,,,,,,,
,,,,,41712,2021-09-26_23h20.13.981,judgeSpeechMusic_20210921_logNormShiftAmp_detection_fixS,2020.1.2,MacIntel,60,,,,,,,,,,,,,,,,,,,,,,,,,,,,,,1,7.69375,,0,0,2,2,40,1,stimuli/stim_20210706_power2amp/equal_lnn_AM2.4Hz_s35_26.m4a,,,,,,,,,,,,
,,,,,41712,2021-09-26_23h20.13.981,judgeSpeechMusic_20210921_logNormShiftAmp_detection_fixS,2020.1.2,MacIntel,60,,,,,,,,,,,,,,,,,,,,,,,,,,,,,,1,5.629455,,0,0,3,3,11,1,stimuli/stim_20210706_power2amp/equal_lnn_AM0.6Hz_s35_37.m4a,,,,,,,,,,,,
,,,,,41712,2021-09-26_23h20.13.981,judgeSpeechMusic_20210921_logNormShiftAmp_detection_fixS,2020.1.2,MacIntel,60,,,,,,,,,,,,,,,,,,,,,,,,,,,,,,1,5.6419,,0,0,4,4,0,1,stimuli/stim_20210706_power2amp/equal_lnn_AM0.6Hz_s35_30.m4a,,,,,,,,,,,,
,,,,,41712,2021-09-26_23h20.13.981,judgeSpeechMusic_20210921_logNormShiftAmp_detection_fixS,2020.1.2,MacIntel,60,,,,,,,,,,,,,,,,,,,,,,,,,,,,,,1,5.95519,,0,0,5,5,20,1,stimuli/stim_20210706_power2amp/equal_lnn_AM1.2Hz_s35_33.m4a,,,,,,,,,,,,
,,,,,41712,2021-09-26_23h20.13.981,judgeSpeechMusic_20210921_logNormShiftAmp_detection_fixS,2020.1.2,MacIntel,60,,,,,,,,,,,,,,,,,,,,,,,,,,,,,,2,176.777465,,0,0,6,6,74,1,stimuli/stim_20210706_power2amp/equal_lnn_AM4.2Hz_s35_44.m4a,,,,,,,,,,,,
,,,,,41712,2021-09-26_23h20.13.981,judgeSpeechMusic_20210921_logNormShiftAmp_detection_fixS,2020.1.2,MacIntel,60,,,,,,,,,,,,,,,,,,,,,,,,,,,,,,2,6.22464,,0,0,7,7,16,1,stimuli/stim_20210706_power2amp/equal_lnn_AM1.2Hz_s35_27.m4a,,,,,,,,,,,,
,,,,,41712,2021-09-26_23h20.13.981,judgeSpeechMusic_20210921_logNormShiftAmp_detection_fixS,2020.1.2,MacIntel,60,,,,,,,,,,,,,,,,,,,,,,,,,,,,,,1,6.1605,,0,0,8,8,9,1,stimuli/stim_20210706_power2amp/equal_lnn_AM0.6Hz_s35_32.m4a,,,,,,,,,,,,
,,,,,41712,2021-09-26_23h20.13.981,judgeSpeechMusic_20210921_logNormShiftAmp_detection_fixS,2020.1.2,MacIntel,60,,,,,,,,,,,,,,,,,,,,,,,,,,,,,,2,5.8613,,0,0,9,9,46,1,stimuli/stim_20210706_power2amp/equal_lnn_AM3.6Hz_s35_46.m4a,,,,,,,,,,,,
,,,,,41712,2021-09-26_23h20.13.981,judgeSpeechMusic_20210921_logNormShiftAmp_detection_fixS,2020.1.2,MacIntel,60,,,,,,,,,,,,,,,,,,,,,,,,,,,,,,2,5.698115,,0,0,10,10,67,1,stimuli/stim_20210706_power2amp/equal_lnn_AM4.2Hz_s35_25.m4a,,,,,,,,,,,,
,,,,,41712,2021-09-26_23h20.13.981,judgeSpeechMusic_20210921_logNormShiftAmp_detection_fixS,2020.1.2,MacIntel,60,,,,,,,,,,,,,,,,,,,,,,,,,,,,,,1,6.593735,,0,0,11,11,8,1,stimuli/stim_20210706_power2amp/equal_lnn_AM0.6Hz_s35_4.m4a,,,,,,,,,,,,
,,,,,41712,2021-09-26_23h20.13.981,judgeSpeechMusic_20210921_logNormShiftAmp_detection_fixS,2020.1.2,MacIntel,60,,,,,,,,,,,,,,,,,,,,,,,,,,,,,,1,184.289435,,0,0,12,12,73,1,stimuli/stim_20210706_power2amp/equal_lnn_AM4.2Hz_s35_32.m4a,,,,,,,,,,,,
,,,,,41712,2021-09-26_23h20.13.981,judgeSpeechMusic_20210921_logNormShiftAmp_detection_fixS,2020.1.2,MacIntel,60,,,,,,,,,,,,,,,,,,,,,,,,,,,,,,2,7.675925,,0,0,13,13,36,1,stimuli/stim_20210706_power2amp/equal_lnn_AM2.4Hz_s35_32.m4a,,,,,,,,,,,,
,,,,,41712,2021-09-26_23h20.13.981,judgeSpeechMusic_20210921_logNormShiftAmp_detection_fixS,2020.1.2,MacIntel,60,,,,,,,,,,,,,,,,,,,,,,,,,,,,,,2,6.54188,,0,0,14,14,70,1,stimuli/stim_20210706_power2amp/equal_lnn_AM4.2Hz_s35_21.m4a,,,,,,,,,,,,
,,,,,41712,2021-09-26_23h20.13.981,judgeSpeechMusic_20210921_logNormShiftAmp_detection_fixS,2020.1.2,MacIntel,60,,,,,,,,,,,,,,,,,,,,,,,,,,,,,,2,5.61278,,0,0,15,15,45,1,stimuli/stim_20210706_power2amp/equal_lnn_AM3.6Hz_s35_20.m4a,,,,,,,,,,,,
,,,,,41712,2021-09-26_23h20.13.981,judgeSpeechMusic_20210921_logNormShiftAmp_detection_fixS,2020.1.2,MacIntel,60,,,,,,,,,,,,,,,,,,,,,,,,,,,,,,2,6.547425,,0,0,16,16,25,1,stimuli/stim_20210706_power2amp/equal_lnn_AM1.2Hz_s35_43.m4a,,,,,,,,,,,,
,,,,,41712,2021-09-26_23h20.13.981,judgeSpeechMusic_20210921_logNormShiftAmp_detection_fixS,2020.1.2,MacIntel,60,,,,,,,,,,,,,,,,,,,,,,,,,,,,,,2,6.47683,,0,0,17,17,41,1,stimuli/stim_20210706_power2amp/equal_lnn_AM2.4Hz_s35_17.m4a,,,,,,,,,,,,
,,,,,41712,2021-09-26_23h20.13.981,judgeSpeechMusic_20210921_logNormShiftAmp_detection_fixS,2020.1.2,MacIntel,60,,,,,,,,,,,,,,,,,,,,,,,,,,,,,,2,199.57065,,0,0,18,18,42,1,stimuli/stim_20210706_power2amp/equal_lnn_AM2.4Hz_s35_4.m4a,,,,,,,,,,,,
,,,,,41712,2021-09-26_23h20.13.981,judgeSpeechMusic_20210921_logNormShiftAmp_detection_fixS,2020.1.2,MacIntel,60,,,,,,,,,,,,,,,,,,,,,,,,,,,,,,2,7.343475,3,1,0,19,19,53,1,stimuli/stim_20210706_power2amp/equal_lnn_AM3.6Hz_s35_50.m4a,0.34629,,,,,,,,,,,
,,,,,41712,2021-09-26_23h20.13.981,judgeSpeechMusic_20210921_logNormShiftAmp_detection_fixS,2020.1.2,MacIntel,60,,,,,,,,,,,,,,,,,,,,,,,,,,,,,,1,5.63123,,0,0,20,20,7,1,stimuli/stim_20210706_power2amp/equal_lnn_AM0.6Hz_s35_3.m4a,,,,,,,,,,,,
,,,,,41712,2021-09-26_23h20.13.981,judgeSpeechMusic_20210921_logNormShiftAmp_detection_fixS,2020.1.2,MacIntel,60,,,,,,,,,,,,,,,,,,,,,,,,,,,,,,1,5.67298,,0,0,21,21,2,1,stimuli/stim_20210706_power2amp/equal_lnn_AM0.6Hz_s35_17.m4a,,,,,,,,,,,,
,,,,,41712,2021-09-26_23h20.13.981,judgeSpeechMusic_20210921_logNormShiftAmp_detection_fixS,2020.1.2,MacIntel,60,,,,,,,,,,,,,,,,,,,,,,,,,,,,,,1,174.34061,,0,0,22,22,1,1,stimuli/stim_20210706_power2amp/equal_lnn_AM0.6Hz_s35_43.m4a,,,,,,,,,,,,
,,,,,41712,2021-09-26_23h20.13.981,judgeSpeechMusic_20210921_logNormShiftAmp_detection_fixS,2020.1.2,MacIntel,60,,,,,,,,,,,,,,,,,,,,,,,,,,,,,,1,5.541475,,0,0,23,23,49,1,stimuli/stim_20210706_power2amp/equal_lnn_AM3.6Hz_s35_26.m4a,,,,,,,,,,,,
,,,,,41712,2021-09-26_23h20.13.981,judgeSpeechMusic_20210921_logNormShiftAmp_detection_fixS,2020.1.2,MacIntel,60,,,,,,,,,,,,,,,,,,,,,,,,,,,,,,1,5.69003,,0,0,24,24,61,1,stimuli/stim_20210706_power2amp/equal_lnn_AM4.2Hz_s35_5.m4a,,,,,,,,,,,,
,,,,,41712,2021-09-26_23h20.13.981,judgeSpeechMusic_20210921_logNormShiftAmp_detection_fixS,2020.1.2,MacIntel,60,,,,,,,,,,,,,,,,,,,,,,,,,,,,,,1,7.30819,,0,0,25,25,58,1,stimuli/stim_20210706_power2amp/equal_lnn_AM3.6Hz_s35_6.m4a,,,,,,,,,,,,
,,,,,41712,2021-09-26_23h20.13.981,judgeSpeechMusic_20210921_logNormShiftAmp_detection_fixS,2020.1.2,MacIntel,60,,,,,,,,,,,,,,,,,,,,,,,,,,,,,,2,7.3265,,0,0,26,26,69,1,stimuli/stim_20210706_power2amp/equal_lnn_AM4.2Hz_s35_50.m4a,,,,,,,,,,,,
,,,,,41712,2021-09-26_23h20.13.981,judgeSpeechMusic_20210921_logNormShiftAmp_detection_fixS,2020.1.2,MacIntel,60,,,,,,,,,,,,,,,,,,,,,,,,,,,,,,1,6.024295,,0,0,27,27,14,1,stimuli/stim_20210706_power2amp/equal_lnn_AM0.6Hz_s35_34.m4a,,,,,,,,,,,,
,,,,,41712,2021-09-26_23h20.13.981,judgeSpeechMusic_20210921_logNormShiftAmp_detection_fixS,2020.1.2,MacIntel,60,,,,,,,,,,,,,,,,,,,,,,,,,,,,,,1,5.847675,,0,0,28,28,3,1,stimuli/stim_20210706_power2amp/equal_lnn_AM0.6Hz_s35_25.m4a,,,,,,,,,,,,
,,,,,41712,2021-09-26_23h20.13.981,judgeSpeechMusic_20210921_logNormShiftAmp_detection_fixS,2020.1.2,MacIntel,60,,,,,,,,,,,,,,,,,,,,,,,,,,,,,,1,108.85492,,0,0,29,29,4,1,stimuli/stim_20210706_power2amp/equal_lnn_AM0.6Hz_s35_24.m4a,,,,,,,,,,,,
,,,,,41712,2021-09-26_23h20.13.981,judgeSpeechMusic_20210921_logNormShiftAmp_detection_fixS,2020.1.2,MacIntel,60,,,,,,,,,,,,,,,,,,,,,,,,,,,,,,1,6.52963,,0,0,30,30,37,1,stimuli/stim_20210706_power2amp/equal_lnn_AM2.4Hz_s35_34.m4a,,,,,,,,,,,,
,,,,,41712,2021-09-26_23h20.13.981,judgeSpeechMusic_20210921_logNormShiftAmp_detection_fixS,2020.1.2,MacIntel,60,,,,,,,,,,,,,,,,,,,,,,,,,,,,,,1,8.406665,,0,0,31,31,68,1,stimuli/stim_20210706_power2amp/equal_lnn_AM4.2Hz_s35_14.m4a,,,,,,,,,,,,
,,,,,41712,2021-09-26_23h20.13.981,judgeSpeechMusic_20210921_logNormShiftAmp_detection_fixS,2020.1.2,MacIntel,60,,,,,,,,,,,,,,,,,,,,,,,,,,,,,,2,7.12592,,0,0,32,32,47,1,stimuli/stim_20210706_power2amp/equal_lnn_AM3.6Hz_s35_42.m4a,,,,,,,,,,,,
,,,,,41712,2021-09-26_23h20.13.981,judgeSpeechMusic_20210921_logNormShiftAmp_detection_fixS,2020.1.2,MacIntel,60,,,,,,,,,,,,,,,,,,,,,,,,,,,,,,2,5.574345,,0,0,33,33,12,1,stimuli/stim_20210706_power2amp/equal_lnn_AM0.6Hz_s35_50.m4a,,,,,,,,,,,,
,,,,,41712,2021-09-26_23h20.13.981,judgeSpeechMusic_20210921_logNormShiftAmp_detection_fixS,2020.1.2,MacIntel,60,,,,,,,,,,,,,,,,,,,,,,,,,,,,,,1,5.74825,,0,0,34,34,28,1,stimuli/stim_20210706_power2amp/equal_lnn_AM1.2Hz_s35_34.m4a,,,,,,,,,,,,
,,,,,41712,2021-09-26_23h20.13.981,judgeSpeechMusic_20210921_logNormShiftAmp_detection_fixS,2020.1.2,MacIntel,60,,,,,,,,,,,,,,,,,,,,,,,,,,,,,,1,6.877065,,0,0,35,35,17,1,stimuli/stim_20210706_power2amp/equal_lnn_AM1.2Hz_s35_26.m4a,,,,,,,,,,,,
,,,,,41712,2021-09-26_23h20.13.981,judgeSpeechMusic_20210921_logNormShiftAmp_detection_fixS,2020.1.2,MacIntel,60,,,,,,,,,,,,,,,,,,,,,,,,,,,,,,1,161.088275,,0,0,36,36,72,1,stimuli/stim_20210706_power2amp/equal_lnn_AM4.2Hz_s35_6.m4a,,,,,,,,,,,,
,,,,,41712,2021-09-26_23h20.13.981,judgeSpeechMusic_20210921_logNormShiftAmp_detection_fixS,2020.1.2,MacIntel,60,,,,,,,,,,,,,,,,,,,,,,,,,,,,,,2,7.414185,,0,0,37,37,66,1,stimuli/stim_20210706_power2amp/equal_lnn_AM4.2Hz_s35_12.m4a,,,,,,,,,,,,
,,,,,41712,2021-09-26_23h20.13.981,judgeSpeechMusic_20210921_logNormShiftAmp_detection_fixS,2020.1.2,MacIntel,60,,,,,,,,,,,,,,,,,,,,,,,,,,,,,,2,8.00682,,0,0,38,38,13,1,stimuli/stim_20210706_power2amp/equal_lnn_AM0.6Hz_s35_48.m4a,,,,,,,,,,,,
,,,,,41712,2021-09-26_23h20.13.981,judgeSpeechMusic_20210921_logNormShiftAmp_detection_fixS,2020.1.2,MacIntel,60,,,,,,,,,,,,,,,,,,,,,,,,,,,,,,1,5.75755,,0,0,39,39,5,1,stimuli/stim_20210706_power2amp/equal_lnn_AM0.6Hz_s35_8.m4a,,,,,,,,,,,,
,,,,,41712,2021-09-26_23h20.13.981,judgeSpeechMusic_20210921_logNormShiftAmp_detection_fixS,2020.1.2,MacIntel,60,,,,,,,,,,,,,,,,,,,,,,,,,,,,,,2,6.25632,1,1,0,40,40,32,1,stimuli/stim_20210706_power2amp/equal_lnn_AM2.4Hz_s35_6.m4a,0.42958,,,,,,,,,,,
,,,,,41712,2021-09-26_23h20.13.981,judgeSpeechMusic_20210921_logNormShiftAmp_detection_fixS,2020.1.2,MacIntel,60,,,,,,,,,,,,,,,,,,,,,,,,,,,,,,2,175.938065,,0,0,41,41,57,1,stimuli/stim_20210706_power2amp/equal_lnn_AM3.6Hz_s35_3.m4a,,,,,,,,,,,,
,,,,,41712,2021-09-26_23h20.13.981,judgeSpeechMusic_20210921_logNormShiftAmp_detection_fixS,2020.1.2,MacIntel,60,,,,,,,,,,,,,,,,,,,,,,,,,,,,,,1,15.5705,,0,0,42,42,43,1,stimuli/stim_20210706_power2amp/equal_lnn_AM2.4Hz_s35_9.m4a,,,,,,,,,,,,
,,,,,41712,2021-09-26_23h20.13.981,judgeSpeechMusic_20210921_logNormShiftAmp_detection_fixS,2020.1.2,MacIntel,60,,,,,,,,,,,,,,,,,,,,,,,,,,,,,,2,6.895855,,0,0,43,43,10,1,stimuli/stim_20210706_power2amp/equal_lnn_AM0.6Hz_s35_10.m4a,,,,,,,,,,,,
,,,,,41712,2021-09-26_23h20.13.981,judgeSpeechMusic_20210921_logNormShiftAmp_detection_fixS,2020.1.2,MacIntel,60,,,,,,,,,,,,,,,,,,,,,,,,,,,,,,1,6.20536,,0,0,44,44,50,1,stimuli/stim_20210706_power2amp/equal_lnn_AM3.6Hz_s35_21.m4a,,,,,,,,,,,,
,,,,,41712,2021-09-26_23h20.13.981,judgeSpeechMusic_20210921_logNormShiftAmp_detection_fixS,2020.1.2,MacIntel,60,,,,,,,,,,,,,,,,,,,,,,,,,,,,,,2,7.34256,,0,0,45,45,59,1,stimuli/stim_20210706_power2amp/equal_lnn_AM3.6Hz_s35_9.m4a,,,,,,,,,,,,
,,,,,41712,2021-09-26_23h20.13.981,judgeSpeechMusic_20210921_logNormShiftAmp_detection_fixS,2020.1.2,MacIntel,60,,,,,,,,,,,,,,,,,,,,,,,,,,,,,,2,5.828185,,0,0,46,46,60,1,stimuli/stim_20210706_power2amp/equal_lnn_AM4.2Hz_s35_37.m4a,,,,,,,,,,,,
,,,,,41712,2021-09-26_23h20.13.981,judgeSpeechMusic_20210921_logNormShiftAmp_detection_fixS,2020.1.2,MacIntel,60,,,,,,,,,,,,,,,,,,,,,,,,,,,,,,1,5.59768,,0,0,47,47,39,1,stimuli/stim_20210706_power2amp/equal_lnn_AM2.4Hz_s35_7.m4a,,,,,,,,,,,,
,,,,,41712,2021-09-26_23h20.13.981,judgeSpeechMusic_20210921_logNormShiftAmp_detection_fixS,2020.1.2,MacIntel,60,,,,,,,,,,,,,,,,,,,,,,,,,,,,,,1,146.7724,,0,0,48,48,15,1,stimuli/stim_20210706_power2amp/equal_lnn_AM1.2Hz_s35_2.m4a,,,,,,,,,,,,
,,,,,41712,2021-09-26_23h20.13.981,judgeSpeechMusic_20210921_logNormShiftAmp_detection_fixS,2020.1.2,MacIntel,60,,,,,,,,,,,,,,,,,,,,,,,,,,,,,,1,13.85647,,0,0,49,49,48,1,stimuli/stim_20210706_power2amp/equal_lnn_AM3.6Hz_s35_24.m4a,,,,,,,,,,,,
,,,,,41712,2021-09-26_23h20.13.981,judgeSpeechMusic_20210921_logNormShiftAmp_detection_fixS,2020.1.2,MacIntel,60,,,,,,,,,,,,,,,,,,,,,,,,,,,,,,1,5.67155,,0,0,50,50,22,1,stimuli/stim_20210706_power2amp/equal_lnn_AM1.2Hz_s35_32.m4a,,,,,,,,,,,,
,,,,,41712,2021-09-26_23h20.13.981,judgeSpeechMusic_20210921_logNormShiftAmp_detection_fixS,2020.1.2,MacIntel,60,,,,,,,,,,,,,,,,,,,,,,,,,,,,,,1,126.94905,,0,0,51,51,55,1,stimuli/stim_20210706_power2amp/equal_lnn_AM3.6Hz_s35_18.m4a,,,,,,,,,,,,
,,,,,41712,2021-09-26_23h20.13.981,judgeSpeechMusic_20210921_logNormShiftAmp_detection_fixS,2020.1.2,MacIntel,60,,,,,,,,,,,,,,,,,,,,,,,,,,,,,,2,6.53374,,0,0,52,52,23,1,stimuli/stim_20210706_power2amp/equal_lnn_AM1.2Hz_s35_24.m4a,,,,,,,,,,,,
,,,,,41712,2021-09-26_23h20.13.981,judgeSpeechMusic_20210921_logNormShiftAmp_detection_fixS,2020.1.2,MacIntel,60,,,,,,,,,,,,,,,,,,,,,,,,,,,,,,2,6.15875,,0,0,53,53,54,1,stimuli/stim_20210706_power2amp/equal_lnn_AM3.6Hz_s35_40.m4a,,,,,,,,,,,,
,,,,,41712,2021-09-26_23h20.13.981,judgeSpeechMusic_20210921_logNormShiftAmp_detection_fixS,2020.1.2,MacIntel,60,,,,,,,,,,,,,,,,,,,,,,,,,,,,,,1,5.641805,,0,0,54,54,64,1,stimuli/stim_20210706_power2amp/equal_lnn_AM4.2Hz_s35_31.m4a,,,,,,,,,,,,
,,,,,41712,2021-09-26_23h20.13.981,judgeSpeechMusic_20210921_logNormShiftAmp_detection_fixS,2020.1.2,MacIntel,60,,,,,,,,,,,,,,,,,,,,,,,,,,,,,,1,5.5914,,0,0,55,55,6,1,stimuli/stim_20210706_power2amp/equal_lnn_AM0.6Hz_s35_27.m4a,,,,,,,,,,,,
,,,,,41712,2021-09-26_23h20.13.981,judgeSpeechMusic_20210921_logNormShiftAmp_detection_fixS,2020.1.2,MacIntel,60,,,,,,,,,,,,,,,,,,,,,,,,,,,,,,1,19.822775,,0,0,56,56,31,1,stimuli/stim_20210706_power2amp/equal_lnn_AM2.4Hz_s35_19.m4a,,,,,,,,,,,,
,,,,,41712,2021-09-26_23h20.13.981,judgeSpeechMusic_20210921_logNormShiftAmp_detection_fixS,2020.1.2,MacIntel,60,,,,,,,,,,,,,,,,,,,,,,,,,,,,,,1,124.20586,,0,0,57,57,27,1,stimuli/stim_20210706_power2amp/equal_lnn_AM1.2Hz_s35_38.m4a,,,,,,,,,,,,
,,,,,41712,2021-09-26_23h20.13.981,judgeSpeechMusic_20210921_logNormShiftAmp_detection_fixS,2020.1.2,MacIntel,60,,,,,,,,,,,,,,,,,,,,,,,,,,,,,,1,6.69011,,0,0,58,58,18,1,stimuli/stim_20210706_power2amp/equal_lnn_AM1.2Hz_s35_45.m4a,,,,,,,,,,,,
,,,,,41712,2021-09-26_23h20.13.981,judgeSpeechMusic_20210921_logNormShiftAmp_detection_fixS,2020.1.2,MacIntel,60,,,,,,,,,,,,,,,,,,,,,,,,,,,,,,2,7.61459,,0,0,59,59,24,1,stimuli/stim_20210706_power2amp/equal_lnn_AM1.2Hz_s35_5.m4a,,,,,,,,,,,,
,,,,,41712,2021-09-26_23h20.13.981,judgeSpeechMusic_20210921_logNormShiftAmp_detection_fixS,2020.1.2,MacIntel,60,,,,,,,,,,,,,,,,,,,,,,,,,,,,,,2,7.111245,,0,0,60,60,35,1,stimuli/stim_20210706_power2amp/equal_lnn_AM2.4Hz_s35_45.m4a,,,,,,,,,,,,
,,,,,41712,2021-09-26_23h20.13.981,judgeSpeechMusic_20210921_logNormShiftAmp_detection_fixS,2020.1.2,MacIntel,60,,,,,,,,,,,,,,,,,,,,,,,,,,,,,,1,169.82177,3,1,0,61,61,34,1,stimuli/stim_20210706_power2amp/equal_lnn_AM2.4Hz_s35_35.m4a,0.84518,,,,,,,,,,,
,,,,,41712,2021-09-26_23h20.13.981,judgeSpeechMusic_20210921_logNormShiftAmp_detection_fixS,2020.1.2,MacIntel,60,,,,,,,,,,,,,,,,,,,,,,,,,,,,,,1,6.911645,,0,0,62,62,51,1,stimuli/stim_20210706_power2amp/equal_lnn_AM3.6Hz_s35_14.m4a,,,,,,,,,,,,
,,,,,41712,2021-09-26_23h20.13.981,judgeSpeechMusic_20210921_logNormShiftAmp_detection_fixS,2020.1.2,MacIntel,60,,,,,,,,,,,,,,,,,,,,,,,,,,,,,,1,7.122735,,0,0,63,63,21,1,stimuli/stim_20210706_power2amp/equal_lnn_AM1.2Hz_s35_1.m4a,,,,,,,,,,,,
,,,,,41712,2021-09-26_23h20.13.981,judgeSpeechMusic_20210921_logNormShiftAmp_detection_fixS,2020.1.2,MacIntel,60,,,,,,,,,,,,,,,,,,,,,,,,,,,,,,1,5.641585,,0,0,64,64,44,1,stimuli/stim_20210706_power2amp/equal_lnn_AM2.4Hz_s35_50.m4a,,,,,,,,,,,,
,,,,,41712,2021-09-26_23h20.13.981,judgeSpeechMusic_20210921_logNormShiftAmp_detection_fixS,2020.1.2,MacIntel,60,,,,,,,,,,,,,,,,,,,,,,,,,,,,,,1,6.329465,,0,0,65,65,33,1,stimuli/stim_20210706_power2amp/equal_lnn_AM2.4Hz_s35_10.m4a,,,,,,,,,,,,
,,,,,41712,2021-09-26_23h20.13.981,judgeSpeechMusic_20210921_logNormShiftAmp_detection_fixS,2020.1.2,MacIntel,60,,,,,,,,,,,,,,,,,,,,,,,,,,,,,,1,5.72755,,0,0,66,66,19,1,stimuli/stim_20210706_power2amp/equal_lnn_AM1.2Hz_s35_48.m4a,,,,,,,,,,,,
,,,,,41712,2021-09-26_23h20.13.981,judgeSpeechMusic_20210921_logNormShiftAmp_detection_fixS,2020.1.2,MacIntel,60,,,,,,,,,,,,,,,,,,,,,,,,,,,,,,1,147.175225,,0,0,67,67,63,1,stimuli/stim_20210706_power2amp/equal_lnn_AM4.2Hz_s35_35.m4a,,,,,,,,,,,,
,,,,,41712,2021-09-26_23h20.13.981,judgeSpeechMusic_20210921_logNormShiftAmp_detection_fixS,2020.1.2,MacIntel,60,,,,,,,,,,,,,,,,,,,,,,,,,,,,,,2,13.690105,,0,0,68,68,38,1,stimuli/stim_20210706_power2amp/equal_lnn_AM2.4Hz_s35_11.m4a,,,,,,,,,,,,
,,,,,41712,2021-09-26_23h20.13.981,judgeSpeechMusic_20210921_logNormShiftAmp_detection_fixS,2020.1.2,MacIntel,60,,,,,,,,,,,,,,,,,,,,,,,,,,,,,,1,5.97404,,0,0,69,69,56,1,stimuli/stim_20210706_power2amp/equal_lnn_AM3.6Hz_s35_22.m4a,,,,,,,,,,,,
,,,,,41712,2021-09-26_23h20.13.981,judgeSpeechMusic_20210921_logNormShiftAmp_detection_fixS,2020.1.2,MacIntel,60,,,,,,,,,,,,,,,,,,,,,,,,,,,,,,2,8.27881,,0,0,70,70,65,1,stimuli/stim_20210706_power2amp/equal_lnn_AM4.2Hz_s35_11.m4a,,,,,,,,,,,,
,,,,,41712,2021-09-26_23h20.13.981,judgeSpeechMusic_20210921_logNormShiftAmp_detection_fixS,2020.1.2,MacIntel,60,,,,,,,,,,,,,,,,,,,,,,,,,,,,,,2,6.7748,,0,0,71,71,52,1,stimuli/stim_20210706_power2amp/equal_lnn_AM3.6Hz_s35_33.m4a,,,,,,,,,,,,
,,,,,41712,2021-09-26_23h20.13.981,judgeSpeechMusic_20210921_logNormShiftAmp_detection_fixS,2020.1.2,MacIntel,60,,,,,,,,,,,,,,,,,,,,,,,,,,,,,,1,14.274165,,0,0,72,72,62,1,stimuli/stim_20210706_power2amp/equal_lnn_AM4.2Hz_s35_41.m4a,,,,,,,,,,,,
,,,,,41712,2021-09-26_23h20.13.981,judgeSpeechMusic_20210921_logNormShiftAmp_detection_fixS,2020.1.2,MacIntel,60,,,,,,,,,,,,,,,,,,,,,,,,,,,,,,1,169.7289,,0,0,73,73,29,1,stimuli/stim_20210706_power2amp/equal_lnn_AM1.2Hz_s35_30.m4a,,,,,,,,,,,,
,,,,,41712,2021-09-26_23h20.13.981,judgeSpeechMusic_20210921_logNormShiftAmp_detection_fixS,2020.1.2,MacIntel,60,,,,,,,,,,,,,,,,,,,,,,,,,,,,,,1,9.007955,,0,0,74,74,26,1,stimuli/stim_20210706_power2amp/equal_lnn_AM1.2Hz_s35_3.m4a,,,,,,,,,,,,
,,,,,41712,2021-09-26_23h20.13.981,judgeSpeechMusic_20210921_logNormShiftAmp_detection_fixS,2020.1.2,MacIntel,60,,,,,,,,,,,,,,,,,,,,,,,,,,,,,,,,,,,,,,,,,space,0.82867,1,0,2,1,1,SPEECH,stimuli/SPEECH.jpg,,
,,,,,41712,2021-09-26_23h20.13.981,judgeSpeechMusic_20210921_logNormShiftAmp_detection_fixS,2020.1.2,MacIntel,60,,,,,,,,,,,,,,,,,,0,0,0,0,1,1,stimuli/stim_20210706_power2amp/equal_lnn_AM_training1.8Hz_s35.m4a,,,,,,,,,,,,,,,,,,,,,,,,,,,
,,,,,41712,2021-09-26_23h20.13.981,judgeSpeechMusic_20210921_logNormShiftAmp_detection_fixS,2020.1.2,MacIntel,60,,,,,,,,,,,,,,,,,,,,,,,,,,space,145.208185,space,10.127015,1,6.720055,,0,0,0,0,50,1,stimuli/stim_20210706_power2amp/equal_lnn_AM3.6Hz_s35_21.m4a,,,,,,,,,,,,
,,,,,41712,2021-09-26_23h20.13.981,judgeSpeechMusic_20210921_logNormShiftAmp_detection_fixS,2020.1.2,MacIntel,60,,,,,,,,,,,,,,,,,,,,,,,,,,,,,,2,5.606565,,0,0,1,1,17,1,stimuli/stim_20210706_power2amp/equal_lnn_AM1.2Hz_s35_26.m4a,,,,,,,,,,,,
,,,,,41712,2021-09-26_23h20.13.981,judgeSpeechMusic_20210921_logNormShiftAmp_detection_fixS,2020.1.2,MacIntel,60,,,,,,,,,,,,,,,,,,,,,,,,,,,,,,1,72.940255,,0,0,2,2,36,1,stimuli/stim_20210706_power2amp/equal_lnn_AM2.4Hz_s35_32.m4a,,,,,,,,,,,,
,,,,,41712,2021-09-26_23h20.13.981,judgeSpeechMusic_20210921_logNormShiftAmp_detection_fixS,2020.1.2,MacIntel,60,,,,,,,,,,,,,,,,,,,,,,,,,,,,,,1,33.77744,,0,0,3,3,10,1,stimuli/stim_20210706_power2amp/equal_lnn_AM0.6Hz_s35_10.m4a,,,,,,,,,,,,
,,,,,41712,2021-09-26_23h20.13.981,judgeSpeechMusic_20210921_logNormShiftAmp_detection_fixS,2020.1.2,MacIntel,60,,,,,,,,,,,,,,,,,,,,,,,,,,,,,,1,6.30754,,0,0,4,4,65,1,stimuli/stim_20210706_power2amp/equal_lnn_AM4.2Hz_s35_11.m4a,,,,,,,,,,,,
,,,,,41712,2021-09-26_23h20.13.981,judgeSpeechMusic_20210921_logNormShiftAmp_detection_fixS,2020.1.2,MacIntel,60,,,,,,,,,,,,,,,,,,,,,,,,,,,,,,1,6.70653,,0,0,5,5,72,1,stimuli/stim_20210706_power2amp/equal_lnn_AM4.2Hz_s35_6.m4a,,,,,,,,,,,,
,,,,,41712,2021-09-26_23h20.13.981,judgeSpeechMusic_20210921_logNormShiftAmp_detection_fixS,2020.1.2,MacIntel,60,,,,,,,,,,,,,,,,,,,,,,,,,,,,,,2,17.11289,,0,0,6,6,32,1,stimuli/stim_20210706_power2amp/equal_lnn_AM2.4Hz_s35_6.m4a,,,,,,,,,,,,
,,,,,41712,2021-09-26_23h20.13.981,judgeSpeechMusic_20210921_logNormShiftAmp_detection_fixS,2020.1.2,MacIntel,60,,,,,,,,,,,,,,,,,,,,,,,,,,,,,,1,6.3779,,0,0,7,7,24,1,stimuli/stim_20210706_power2amp/equal_lnn_AM1.2Hz_s35_5.m4a,,,,,,,,,,,,
,,,,,41712,2021-09-26_23h20.13.981,judgeSpeechMusic_20210921_logNormShiftAmp_detection_fixS,2020.1.2,MacIntel,60,,,,,,,,,,,,,,,,,,,,,,,,,,,,,,2,8.729885,,0,0,8,8,44,1,stimuli/stim_20210706_power2amp/equal_lnn_AM2.4Hz_s35_50.m4a,,,,,,,,,,,,
,,,,,41712,2021-09-26_23h20.13.981,judgeSpeechMusic_20210921_logNormShiftAmp_detection_fixS,2020.1.2,MacIntel,60,,,,,,,,,,,,,,,,,,,,,,,,,,,,,,2,8.741615,,0,0,9,9,38,1,stimuli/stim_20210706_power2amp/equal_lnn_AM2.4Hz_s35_11.m4a,,,,,,,,,,,,
,,,,,41712,2021-09-26_23h20.13.981,judgeSpeechMusic_20210921_logNormShiftAmp_detection_fixS,2020.1.2,MacIntel,60,,,,,,,,,,,,,,,,,,,,,,,,,,,,,,2,7.145205,,0,0,10,10,25,1,stimuli/stim_20210706_power2amp/equal_lnn_AM1.2Hz_s35_43.m4a,,,,,,,,,,,,
,,,,,41712,2021-09-26_23h20.13.981,judgeSpeechMusic_20210921_logNormShiftAmp_detection_fixS,2020.1.2,MacIntel,60,,,,,,,,,,,,,,,,,,,,,,,,,,,,,,2,6.82413,,0,0,11,11,61,1,stimuli/stim_20210706_power2amp/equal_lnn_AM4.2Hz_s35_5.m4a,,,,,,,,,,,,
,,,,,41712,2021-09-26_23h20.13.981,judgeSpeechMusic_20210921_logNormShiftAmp_detection_fixS,2020.1.2,MacIntel,60,,,,,,,,,,,,,,,,,,,,,,,,,,,,,,1,141.909025,,0,0,12,12,15,1,stimuli/stim_20210706_power2amp/equal_lnn_AM1.2Hz_s35_2.m4a,,,,,,,,,,,,
,,,,,41712,2021-09-26_23h20.13.981,judgeSpeechMusic_20210921_logNormShiftAmp_detection_fixS,2020.1.2,MacIntel,60,,,,,,,,,,,,,,,,,,,,,,,,,,,,,,1,6.607395,,0,0,13,13,33,1,stimuli/stim_20210706_power2amp/equal_lnn_AM2.4Hz_s35_10.m4a,,,,,,,,,,,,
,,,,,41712,2021-09-26_23h20.13.981,judgeSpeechMusic_20210921_logNormShiftAmp_detection_fixS,2020.1.2,MacIntel,60,,,,,,,,,,,,,,,,,,,,,,,,,,,,,,1,6.92376,,0,0,14,14,27,1,stimuli/stim_20210706_power2amp/equal_lnn_AM1.2Hz_s35_38.m4a,,,,,,,,,,,,
,,,,,41712,2021-09-26_23h20.13.981,judgeSpeechMusic_20210921_logNormShiftAmp_detection_fixS,2020.1.2,MacIntel,60,,,,,,,,,,,,,,,,,,,,,,,,,,,,,,1,25.158985,,0,0,15,15,37,1,stimuli/stim_20210706_power2amp/equal_lnn_AM2.4Hz_s35_34.m4a,,,,,,,,,,,,
,,,,,41712,2021-09-26_23h20.13.981,judgeSpeechMusic_20210921_logNormShiftAmp_detection_fixS,2020.1.2,MacIntel,60,,,,,,,,,,,,,,,,,,,,,,,,,,,,,,2,6.26155,,0,0,16,16,7,1,stimuli/stim_20210706_power2amp/equal_lnn_AM0.6Hz_s35_3.m4a,,,,,,,,,,,,
,,,,,41712,2021-09-26_23h20.13.981,judgeSpeechMusic_20210921_logNormShiftAmp_detection_fixS,2020.1.2,MacIntel,60,,,,,,,,,,,,,,,,,,,,,,,,,,,,,,2,6.014245,,0,0,17,17,6,1,stimuli/stim_20210706_power2amp/equal_lnn_AM0.6Hz_s35_27.m4a,,,,,,,,,,,,
,,,,,41712,2021-09-26_23h20.13.981,judgeSpeechMusic_20210921_logNormShiftAmp_detection_fixS,2020.1.2,MacIntel,60,,,,,,,,,,,,,,,,,,,,,,,,,,,,,,2,5.29713,,0,0,18,18,29,1,stimuli/stim_20210706_power2amp/equal_lnn_AM1.2Hz_s35_30.m4a,,,,,,,,,,,,
,,,,,41712,2021-09-26_23h20.13.981,judgeSpeechMusic_20210921_logNormShiftAmp_detection_fixS,2020.1.2,MacIntel,60,,,,,,,,,,,,,,,,,,,,,,,,,,,,,,2,6.290845,4,1,0,19,19,2,1,stimuli/stim_20210706_power2amp/equal_lnn_AM0.6Hz_s35_17.m4a,0.830855,,,,,,,,,,,
,,,,,41712,2021-09-26_23h20.13.981,judgeSpeechMusic_20210921_logNormShiftAmp_detection_fixS,2020.1.2,MacIntel,60,,,,,,,,,,,,,,,,,,,,,,,,,,,,,,1,9.107285,,0,0,20,20,3,1,stimuli/stim_20210706_power2amp/equal_lnn_AM0.6Hz_s35_25.m4a,,,,,,,,,,,,
,,,,,41712,2021-09-26_23h20.13.981,judgeSpeechMusic_20210921_logNormShiftAmp_detection_fixS,2020.1.2,MacIntel,60,,,,,,,,,,,,,,,,,,,,,,,,,,,,,,2,7.225135,,0,0,21,21,67,1,stimuli/stim_20210706_power2amp/equal_lnn_AM4.2Hz_s35_25.m4a,,,,,,,,,,,,
,,,,,41712,2021-09-26_23h20.13.981,judgeSpeechMusic_20210921_logNormShiftAmp_detection_fixS,2020.1.2,MacIntel,60,,,,,,,,,,,,,,,,,,,,,,,,,,,,,,2,8.52819,,0,0,22,22,64,1,stimuli/stim_20210706_power2amp/equal_lnn_AM4.2Hz_s35_31.m4a,,,,,,,,,,,,
,,,,,41712,2021-09-26_23h20.13.981,judgeSpeechMusic_20210921_logNormShiftAmp_detection_fixS,2020.1.2,MacIntel,60,,,,,,,,,,,,,,,,,,,,,,,,,,,,,,2,11.42583,,0,0,23,23,41,1,stimuli/stim_20210706_power2amp/equal_lnn_AM2.4Hz_s35_17.m4a,,,,,,,,,,,,
,,,,,41712,2021-09-26_23h20.13.981,judgeSpeechMusic_20210921_logNormShiftAmp_detection_fixS,2020.1.2,MacIntel,60,,,,,,,,,,,,,,,,,,,,,,,,,,,,,,1,13.19182,,0,0,24,24,69,1,stimuli/stim_20210706_power2amp/equal_lnn_AM4.2Hz_s35_50.m4a,,,,,,,,,,,,
,,,,,41712,2021-09-26_23h20.13.981,judgeSpeechMusic_20210921_logNormShiftAmp_detection_fixS,2020.1.2,MacIntel,60,,,,,,,,,,,,,,,,,,,,,,,,,,,,,,1,6.03098,,0,0,25,25,58,1,stimuli/stim_20210706_power2amp/equal_lnn_AM3.6Hz_s35_6.m4a,,,,,,,,,,,,
,,,,,41712,2021-09-26_23h20.13.981,judgeSpeechMusic_20210921_logNormShiftAmp_detection_fixS,2020.1.2,MacIntel,60,,,,,,,,,,,,,,,,,,,,,,,,,,,,,,1,17.69219,,0,0,26,26,39,1,stimuli/stim_20210706_power2amp/equal_lnn_AM2.4Hz_s35_7.m4a,,,,,,,,,,,,
,,,,,41712,2021-09-26_23h20.13.981,judgeSpeechMusic_20210921_logNormShiftAmp_detection_fixS,2020.1.2,MacIntel,60,,,,,,,,,,,,,,,,,,,,,,,,,,,,,,1,7.889385,,0,0,27,27,18,1,stimuli/stim_20210706_power2amp/equal_lnn_AM1.2Hz_s35_45.m4a,,,,,,,,,,,,
,,,,,41712,2021-09-26_23h20.13.981,judgeSpeechMusic_20210921_logNormShiftAmp_detection_fixS,2020.1.2,MacIntel,60,,,,,,,,,,,,,,,,,,,,,,,,,,,,,,2,6.49672,,0,0,28,28,53,1,stimuli/stim_20210706_power2amp/equal_lnn_AM3.6Hz_s35_50.m4a,,,,,,,,,,,,
,,,,,41712,2021-09-26_23h20.13.981,judgeSpeechMusic_20210921_logNormShiftAmp_detection_fixS,2020.1.2,MacIntel,60,,,,,,,,,,,,,,,,,,,,,,,,,,,,,,1,6.72602,,0,0,29,29,22,1,stimuli/stim_20210706_power2amp/equal_lnn_AM1.2Hz_s35_32.m4a,,,,,,,,,,,,
,,,,,41712,2021-09-26_23h20.13.981,judgeSpeechMusic_20210921_logNormShiftAmp_detection_fixS,2020.1.2,MacIntel,60,,,,,,,,,,,,,,,,,,,,,,,,,,,,,,1,149.679285,,0,0,30,30,48,1,stimuli/stim_20210706_power2amp/equal_lnn_AM3.6Hz_s35_24.m4a,,,,,,,,,,,,
,,,,,41712,2021-09-26_23h20.13.981,judgeSpeechMusic_20210921_logNormShiftAmp_detection_fixS,2020.1.2,MacIntel,60,,,,,,,,,,,,,,,,,,,,,,,,,,,,,,1,6.08001,,0,0,31,31,63,1,stimuli/stim_20210706_power2amp/equal_lnn_AM4.2Hz_s35_35.m4a,,,,,,,,,,,,
,,,,,41712,2021-09-26_23h20.13.981,judgeSpeechMusic_20210921_logNormShiftAmp_detection_fixS,2020.1.2,MacIntel,60,,,,,,,,,,,,,,,,,,,,,,,,,,,,,,1,5.66312,,0,0,32,32,68,1,stimuli/stim_20210706_power2amp/equal_lnn_AM4.2Hz_s35_14.m4a,,,,,,,,,,,,
,,,,,41712,2021-09-26_23h20.13.981,judgeSpeechMusic_20210921_logNormShiftAmp_detection_fixS,2020.1.2,MacIntel,60,,,,,,,,,,,,,,,,,,,,,,,,,,,,,,1,6.913755,,0,0,33,33,56,1,stimuli/stim_20210706_power2amp/equal_lnn_AM3.6Hz_s35_22.m4a,,,,,,,,,,,,
,,,,,41712,2021-09-26_23h20.13.981,judgeSpeechMusic_20210921_logNormShiftAmp_detection_fixS,2020.1.2,MacIntel,60,,,,,,,,,,,,,,,,,,,,,,,,,,,,,,2,5.880265,,0,0,34,34,4,1,stimuli/stim_20210706_power2amp/equal_lnn_AM0.6Hz_s35_24.m4a,,,,,,,,,,,,
,,,,,41712,2021-09-26_23h20.13.981,judgeSpeechMusic_20210921_logNormShiftAmp_detection_fixS,2020.1.2,MacIntel,60,,,,,,,,,,,,,,,,,,,,,,,,,,,,,,2,6.124395,,0,0,35,35,19,1,stimuli/stim_20210706_power2amp/equal_lnn_AM1.2Hz_s35_48.m4a,,,,,,,,,,,,
,,,,,41712,2021-09-26_23h20.13.981,judgeSpeechMusic_20210921_logNormShiftAmp_detection_fixS,2020.1.2,MacIntel,60,,,,,,,,,,,,,,,,,,,,,,,,,,,,,,1,6.764785,,0,0,36,36,74,1,stimuli/stim_20210706_power2amp/equal_lnn_AM4.2Hz_s35_44.m4a,,,,,,,,,,,,
,,,,,41712,2021-09-26_23h20.13.981,judgeSpeechMusic_20210921_logNormShiftAmp_detection_fixS,2020.1.2,MacIntel,60,,,,,,,,,,,,,,,,,,,,,,,,,,,,,,1,6.426835,,0,0,37,37,28,1,stimuli/stim_20210706_power2amp/equal_lnn_AM1.2Hz_s35_34.m4a,,,,,,,,,,,,
,,,,,41712,2021-09-26_23h20.13.981,judgeSpeechMusic_20210921_logNormShiftAmp_detection_fixS,2020.1.2,MacIntel,60,,,,,,,,,,,,,,,,,,,,,,,,,,,,,,1,7.728685,,0,0,38,38,23,1,stimuli/stim_20210706_power2amp/equal_lnn_AM1.2Hz_s35_24.m4a,,,,,,,,,,,,
,,,,,41712,2021-09-26_23h20.13.981,judgeSpeechMusic_20210921_logNormShiftAmp_detection_fixS,2020.1.2,MacIntel,60,,,,,,,,,,,,,,,,,,,,,,,,,,,,,,2,6.44018,,0,0,39,39,26,1,stimuli/stim_20210706_power2amp/equal_lnn_AM1.2Hz_s35_3.m4a,,,,,,,,,,,,
,,,,,41712,2021-09-26_23h20.13.981,judgeSpeechMusic_20210921_logNormShiftAmp_detection_fixS,2020.1.2,MacIntel,60,,,,,,,,,,,,,,,,,,,,,,,,,,,,,,2,5.674015,4,1,0,40,40,45,1,stimuli/stim_20210706_power2amp/equal_lnn_AM3.6Hz_s35_20.m4a,0.309275,,,,,,,,,,,
,,,,,41712,2021-09-26_23h20.13.981,judgeSpeechMusic_20210921_logNormShiftAmp_detection_fixS,2020.1.2,MacIntel,60,,,,,,,,,,,,,,,,,,,,,,,,,,,,,,2,78.425725,,0,0,41,41,55,1,stimuli/stim_20210706_power2amp/equal_lnn_AM3.6Hz_s35_18.m4a,,,,,,,,,,,,
,,,,,41712,2021-09-26_23h20.13.981,judgeSpeechMusic_20210921_logNormShiftAmp_detection_fixS,2020.1.2,MacIntel,60,,,,,,,,,,,,,,,,,,,,,,,,,,,,,,2,39.24482,,0,0,42,42,13,1,stimuli/stim_20210706_power2amp/equal_lnn_AM0.6Hz_s35_48.m4a,,,,,,,,,,,,
,,,,,41712,2021-09-26_23h20.13.981,judgeSpeechMusic_20210921_logNormShiftAmp_detection_fixS,2020.1.2,MacIntel,60,,,,,,,,,,,,,,,,,,,,,,,,,,,,,,1,8.42436,,0,0,43,43,9,1,stimuli/stim_20210706_power2amp/equal_lnn_AM0.6Hz_s35_32.m4a,,,,,,,,,,,,
,,,,,41712,2021-09-26_23h20.13.981,judgeSpeechMusic_20210921_logNormShiftAmp_detection_fixS,2020.1.2,MacIntel,60,,,,,,,,,,,,,,,,,,,,,,,,,,,,,,1,5.42977,,0,0,44,44,46,1,stimuli/stim_20210706_power2amp/equal_lnn_AM3.6Hz_s35_46.m4a,,,,,,,,,,,,
,,,,,41712,2021-09-26_23h20.13.981,judgeSpeechMusic_20210921_logNormShiftAmp_detection_fixS,2020.1.2,MacIntel,60,,,,,,,,,,,,,,,,,,,,,,,,,,,,,,1,6.30889,,0,0,45,45,51,1,stimuli/stim_20210706_power2amp/equal_lnn_AM3.6Hz_s35_14.m4a,,,,,,,,,,,,
,,,,,41712,2021-09-26_23h20.13.981,judgeSpeechMusic_20210921_logNormShiftAmp_detection_fixS,2020.1.2,MacIntel,60,,,,,,,,,,,,,,,,,,,,,,,,,,,,,,2,5.65761,,0,0,46,46,21,1,stimuli/stim_20210706_power2amp/equal_lnn_AM1.2Hz_s35_1.m4a,,,,,,,,,,,,
,,,,,41712,2021-09-26_23h20.13.981,judgeSpeechMusic_20210921_logNormShiftAmp_detection_fixS,2020.1.2,MacIntel,60,,,,,,,,,,,,,,,,,,,,,,,,,,,,,,1,6.01037,,0,0,47,47,52,1,stimuli/stim_20210706_power2amp/equal_lnn_AM3.6Hz_s35_33.m4a,,,,,,,,,,,,
,,,,,41712,2021-09-26_23h20.13.981,judgeSpeechMusic_20210921_logNormShiftAmp_detection_fixS,2020.1.2,MacIntel,60,,,,,,,,,,,,,,,,,,,,,,,,,,,,,,1,185.83692,,0,0,48,48,30,1,stimuli/stim_20210706_power2amp/equal_lnn_AM2.4Hz_s35_2.m4a,,,,,,,,,,,,
,,,,,41712,2021-09-26_23h20.13.981,judgeSpeechMusic_20210921_logNormShiftAmp_detection_fixS,2020.1.2,MacIntel,60,,,,,,,,,,,,,,,,,,,,,,,,,,,,,,1,5.641755,,0,0,49,49,0,1,stimuli/stim_20210706_power2amp/equal_lnn_AM0.6Hz_s35_30.m4a,,,,,,,,,,,,
,,,,,41712,2021-09-26_23h20.13.981,judgeSpeechMusic_20210921_logNormShiftAmp_detection_fixS,2020.1.2,MacIntel,60,,,,,,,,,,,,,,,,,,,,,,,,,,,,,,1,5.87539,,0,0,50,50,31,1,stimuli/stim_20210706_power2amp/equal_lnn_AM2.4Hz_s35_19.m4a,,,,,,,,,,,,
,,,,,41712,2021-09-26_23h20.13.981,judgeSpeechMusic_20210921_logNormShiftAmp_detection_fixS,2020.1.2,MacIntel,60,,,,,,,,,,,,,,,,,,,,,,,,,,,,,,1,5.996485,,0,0,51,51,47,1,stimuli/stim_20210706_power2amp/equal_lnn_AM3.6Hz_s35_42.m4a,,,,,,,,,,,,
,,,,,41712,2021-09-26_23h20.13.981,judgeSpeechMusic_20210921_logNormShiftAmp_detection_fixS,2020.1.2,MacIntel,60,,,,,,,,,,,,,,,,,,,,,,,,,,,,,,1,6.17347,,0,0,52,52,42,1,stimuli/stim_20210706_power2amp/equal_lnn_AM2.4Hz_s35_4.m4a,,,,,,,,,,,,
,,,,,41712,2021-09-26_23h20.13.981,judgeSpeechMusic_20210921_logNormShiftAmp_detection_fixS,2020.1.2,MacIntel,60,,,,,,,,,,,,,,,,,,,,,,,,,,,,,,1,6.67792,,0,0,53,53,34,1,stimuli/stim_20210706_power2amp/equal_lnn_AM2.4Hz_s35_35.m4a,,,,,,,,,,,,
,,,,,41712,2021-09-26_23h20.13.981,judgeSpeechMusic_20210921_logNormShiftAmp_detection_fixS,2020.1.2,MacIntel,60,,,,,,,,,,,,,,,,,,,,,,,,,,,,,,2,5.577645,,0,0,54,54,54,1,stimuli/stim_20210706_power2amp/equal_lnn_AM3.6Hz_s35_40.m4a,,,,,,,,,,,,
,,,,,41712,2021-09-26_23h20.13.981,judgeSpeechMusic_20210921_logNormShiftAmp_detection_fixS,2020.1.2,MacIntel,60,,,,,,,,,,,,,,,,,,,,,,,,,,,,,,2,7.257745,,0,0,55,55,70,1,stimuli/stim_20210706_power2amp/equal_lnn_AM4.2Hz_s35_21.m4a,,,,,,,,,,,,
,,,,,41712,2021-09-26_23h20.13.981,judgeSpeechMusic_20210921_logNormShiftAmp_detection_fixS,2020.1.2,MacIntel,60,,,,,,,,,,,,,,,,,,,,,,,,,,,,,,1,5.775655,,0,0,56,56,1,1,stimuli/stim_20210706_power2amp/equal_lnn_AM0.6Hz_s35_43.m4a,,,,,,,,,,,,
,,,,,41712,2021-09-26_23h20.13.981,judgeSpeechMusic_20210921_logNormShiftAmp_detection_fixS,2020.1.2,MacIntel,60,,,,,,,,,,,,,,,,,,,,,,,,,,,,,,1,6.65704,,0,0,57,57,40,1,stimuli/stim_20210706_power2amp/equal_lnn_AM2.4Hz_s35_26.m4a,,,,,,,,,,,,
,,,,,41712,2021-09-26_23h20.13.981,judgeSpeechMusic_20210921_logNormShiftAmp_detection_fixS,2020.1.2,MacIntel,60,,,,,,,,,,,,,,,,,,,,,,,,,,,,,,1,6.96212,,0,0,58,58,35,1,stimuli/stim_20210706_power2amp/equal_lnn_AM2.4Hz_s35_45.m4a,,,,,,,,,,,,
,,,,,41712,2021-09-26_23h20.13.981,judgeSpeechMusic_20210921_logNormShiftAmp_detection_fixS,2020.1.2,MacIntel,60,,,,,,,,,,,,,,,,,,,,,,,,,,,,,,1,6.7749,,0,0,59,59,59,1,stimuli/stim_20210706_power2amp/equal_lnn_AM3.6Hz_s35_9.m4a,,,,,,,,,,,,
,,,,,41712,2021-09-26_23h20.13.981,judgeSpeechMusic_20210921_logNormShiftAmp_detection_fixS,2020.1.2,MacIntel,60,,,,,,,,,,,,,,,,,,,,,,,,,,,,,,1,112.449415,,0,0,60,60,49,1,stimuli/stim_20210706_power2amp/equal_lnn_AM3.6Hz_s35_26.m4a,,,,,,,,,,,,
,,,,,41712,2021-09-26_23h20.13.981,judgeSpeechMusic_20210921_logNormShiftAmp_detection_fixS,2020.1.2,MacIntel,60,,,,,,,,,,,,,,,,,,,,,,,,,,,,,,1,5.788855,2,1,0,61,61,12,1,stimuli/stim_20210706_power2amp/equal_lnn_AM0.6Hz_s35_50.m4a,0.245025,,,,,,,,,,,
,,,,,41712,2021-09-26_23h20.13.981,judgeSpeechMusic_20210921_logNormShiftAmp_detection_fixS,2020.1.2,MacIntel,60,,,,,,,,,,,,,,,,,,,,,,,,,,,,,,2,5.67236,,0,0,62,62,43,1,stimuli/stim_20210706_power2amp/equal_lnn_AM2.4Hz_s35_9.m4a,,,,,,,,,,,,
,,,,,41712,2021-09-26_23h20.13.981,judgeSpeechMusic_20210921_logNormShiftAmp_detection_fixS,2020.1.2,MacIntel,60,,,,,,,,,,,,,,,,,,,,,,,,,,,,,,2,5.87359,,0,0,63,63,8,1,stimuli/stim_20210706_power2amp/equal_lnn_AM0.6Hz_s35_4.m4a,,,,,,,,,,,,
,,,,,41712,2021-09-26_23h20.13.981,judgeSpeechMusic_20210921_logNormShiftAmp_detection_fixS,2020.1.2,MacIntel,60,,,,,,,,,,,,,,,,,,,,,,,,,,,,,,2,5.66186,,0,0,64,64,57,1,stimuli/stim_20210706_power2amp/equal_lnn_AM3.6Hz_s35_3.m4a,,,,,,,,,,,,
,,,,,41712,2021-09-26_23h20.13.981,judgeSpeechMusic_20210921_logNormShiftAmp_detection_fixS,2020.1.2,MacIntel,60,,,,,,,,,,,,,,,,,,,,,,,,,,,,,,2,6.275155,,0,0,65,65,66,1,stimuli/stim_20210706_power2amp/equal_lnn_AM4.2Hz_s35_12.m4a,,,,,,,,,,,,
,,,,,41712,2021-09-26_23h20.13.981,judgeSpeechMusic_20210921_logNormShiftAmp_detection_fixS,2020.1.2,MacIntel,60,,,,,,,,,,,,,,,,,,,,,,,,,,,,,,1,7.22613,,0,0,66,66,60,1,stimuli/stim_20210706_power2amp/equal_lnn_AM4.2Hz_s35_37.m4a,,,,,,,,,,,,
,,,,,41712,2021-09-26_23h20.13.981,judgeSpeechMusic_20210921_logNormShiftAmp_detection_fixS,2020.1.2,MacIntel,60,,,,,,,,,,,,,,,,,,,,,,,,,,,,,,1,7.15811,,0,0,67,67,5,1,stimuli/stim_20210706_power2amp/equal_lnn_AM0.6Hz_s35_8.m4a,,,,,,,,,,,,
,,,,,41712,2021-09-26_23h20.13.981,judgeSpeechMusic_20210921_logNormShiftAmp_detection_fixS,2020.1.2,MacIntel,60,,,,,,,,,,,,,,,,,,,,,,,,,,,,,,1,10.696565,,0,0,68,68,14,1,stimuli/stim_20210706_power2amp/equal_lnn_AM0.6Hz_s35_34.m4a,,,,,,,,,,,,
,,,,,41712,2021-09-26_23h20.13.981,judgeSpeechMusic_20210921_logNormShiftAmp_detection_fixS,2020.1.2,MacIntel,60,,,,,,,,,,,,,,,,,,,,,,,,,,,,,,1,11.32387,,0,0,69,69,20,1,stimuli/stim_20210706_power2amp/equal_lnn_AM1.2Hz_s35_33.m4a,,,,,,,,,,,,
,,,,,41712,2021-09-26_23h20.13.981,judgeSpeechMusic_20210921_logNormShiftAmp_detection_fixS,2020.1.2,MacIntel,60,,,,,,,,,,,,,,,,,,,,,,,,,,,,,,2,6.197435,,0,0,70,70,62,1,stimuli/stim_20210706_power2amp/equal_lnn_AM4.2Hz_s35_41.m4a,,,,,,,,,,,,
,,,,,41712,2021-09-26_23h20.13.981,judgeSpeechMusic_20210921_logNormShiftAmp_detection_fixS,2020.1.2,MacIntel,60,,,,,,,,,,,,,,,,,,,,,,,,,,,,,,2,6.7741,,0,0,71,71,11,1,stimuli/stim_20210706_power2amp/equal_lnn_AM0.6Hz_s35_37.m4a,,,,,,,,,,,,
,,,,,41712,2021-09-26_23h20.13.981,judgeSpeechMusic_20210921_logNormShiftAmp_detection_fixS,2020.1.2,MacIntel,60,,,,,,,,,,,,,,,,,,,,,,,,,,,,,,2,7.413445,,0,0,72,72,71,1,stimuli/stim_20210706_power2amp/equal_lnn_AM4.2Hz_s35_47.m4a,,,,,,,,,,,,
,,,,,41712,2021-09-26_23h20.13.981,judgeSpeechMusic_20210921_logNormShiftAmp_detection_fixS,2020.1.2,MacIntel,60,,,,,,,,,,,,,,,,,,,,,,,,,,,,,,2,6.606565,,0,0,73,73,16,1,stimuli/stim_20210706_power2amp/equal_lnn_AM1.2Hz_s35_27.m4a,,,,,,,,,,,,
,,,,,41712,2021-09-26_23h20.13.981,judgeSpeechMusic_20210921_logNormShiftAmp_detection_fixS,2020.1.2,MacIntel,60,,,,,,,,,,,,,,,,,,,,,,,,,,,,,,1,6.67394,,0,0,74,74,73,1,stimuli/stim_20210706_power2amp/equal_lnn_AM4.2Hz_s35_32.m4a,,,,,,,,,,,,
,,,,,41712,2021-09-26_23h20.13.981,judgeSpeechMusic_20210921_logNormShiftAmp_detection_fixS,2020.1.2,MacIntel,60,,,,,,,,,,,,,,,,,,,,,,,,,,,,,,,,,,,,,,,,,,,1,1,3,0,1,MUSIC,stimuli/MUSIC.jpg,,
,,,,,41712,2021-09-26_23h20.13.981,judgeSpeechMusic_20210921_logNormShiftAmp_detection_fixS,2020.1.2,MacIntel,60,,,,,,,,,,,,,,,,,,,,,,,,,,,,,,,,,,,,,,,,,,,,,,,,,,space,4.833575
