volAdjustRep.thisRepN,volAdjustRep.thisTrialN,volAdjustRep.thisN,volAdjustRep.thisIndex,volAdjustRep.ran,participant,date,expName,psychopyVersion,OS,frameRate,headphoneResponse.keys,headphoneResponse.corr,headphoneResponse.rt,headphoneTrial.thisRepN,headphoneTrial.thisTrialN,headphoneTrial.thisN,headphoneTrial.thisIndex,headphoneTrial.ran,headphone_sound1,headphone_sound2,headphone_sound3,corrAns,checkInstruKey.keys,checkInstruKey.rt,trainSlider.response,trainSlider.rt,beepTrainResponse.keys,beepTrainResponse.corr,trainingTrials.thisRepN,trainingTrials.thisTrialN,trainingTrials.thisN,trainingTrials.thisIndex,trainingTrials.ran,trainAudioFile,beepTrainResponse.rt,readyReal_resp.keys,readyReal_resp.rt,checkInstru2_key.keys,checkInstru2_key.rt,ratingSlider.response,ratingSlider.rt,beepResp.keys,beepResp.corr,expTrials.thisRepN,expTrials.thisTrialN,expTrials.thisN,expTrials.thisIndex,expTrials.ran,audioFile,beepResp.rt,switchBlock_space.keys,switchBlock_space.rt,block.thisRepN,block.thisTrialN,block.thisN,block.thisIndex,block.ran,blockName,blockImage,end_resp.keys,end_resp.rt
0,0,0,0,1,41822,2021-09-26_13h58.01.571,judgeSpeechMusic_20210921_logNormShiftAmp_detection_fixS,2020.1.2,Win32,60,,,,,,,,,,,,,,,,,,,,,,,,,,,,,,,,,,,,,,,,,,,,,,,,,,,
1,0,1,0,1,41822,2021-09-26_13h58.01.571,judgeSpeechMusic_20210921_logNormShiftAmp_detection_fixS,2020.1.2,Win32,60,,,,,,,,,,,,,,,,,,,,,,,,,,,,,,,,,,,,,,,,,,,,,,,,,,,
,,,,,41822,2021-09-26_13h58.01.571,judgeSpeechMusic_20210921_logNormShiftAmp_detection_fixS,2020.1.2,Win32,60,1,1,1.9116,0,0,0,4,1,stimuli/screen_quiet.wav,stimuli/screen_antiphase.wav,stimuli/screen_origin.wav,1,,,,,,,,,,,,,,,,,,,,,,,,,,,,,,,,,,,,,,,
,,,,,41822,2021-09-26_13h58.01.571,judgeSpeechMusic_20210921_logNormShiftAmp_detection_fixS,2020.1.2,Win32,60,2,1,0.8837,0,1,1,1,1,stimuli/screen_antiphase.wav,stimuli/screen_quiet.wav,stimuli/screen_origin.wav,2,,,,,,,,,,,,,,,,,,,,,,,,,,,,,,,,,,,,,,,
,,,,,41822,2021-09-26_13h58.01.571,judgeSpeechMusic_20210921_logNormShiftAmp_detection_fixS,2020.1.2,Win32,60,3,1,0.7786,0,2,2,2,1,stimuli/screen_origin.wav,stimuli/screen_antiphase.wav,stimuli/screen_quiet.wav,3,,,,,,,,,,,,,,,,,,,,,,,,,,,,,,,,,,,,,,,
,,,,,41822,2021-09-26_13h58.01.571,judgeSpeechMusic_20210921_logNormShiftAmp_detection_fixS,2020.1.2,Win32,60,2,1,1.0068,0,3,3,3,1,stimuli/screen_origin.wav,stimuli/screen_quiet.wav,stimuli/screen_antiphase.wav,2,,,,,,,,,,,,,,,,,,,,,,,,,,,,,,,,,,,,,,,
,,,,,41822,2021-09-26_13h58.01.571,judgeSpeechMusic_20210921_logNormShiftAmp_detection_fixS,2020.1.2,Win32,60,3,1,0.6347,0,4,4,0,1,stimuli/screen_antiphase.wav,stimuli/screen_origin.wav,stimuli/screen_quiet.wav,3,,,,,,,,,,,,,,,,,,,,,,,,,,,,,,,,,,,,,,,
,,,,,41822,2021-09-26_13h58.01.571,judgeSpeechMusic_20210921_logNormShiftAmp_detection_fixS,2020.1.2,Win32,60,1,1,1.0175,0,5,5,5,1,stimuli/screen_quiet.wav,stimuli/screen_origin.wav,stimuli/screen_antiphase.wav,1,,,,,,,,,,,,,,,,,,,,,,,,,,,,,,,,,,,,,,,
,,,,,41822,2021-09-26_13h58.01.571,judgeSpeechMusic_20210921_logNormShiftAmp_detection_fixS,2020.1.2,Win32,60,,,,,,,,,,,,,space,1.5925,1,8.9187,,0,0,0,0,1,1,stimuli/stim_20210706_power2amp/equal_lnn_AM_training1.8Hz_s35.m4a,,,,,,,,,,,,,,,,,,,,,,,,,,,
,,,,,41822,2021-09-26_13h58.01.571,judgeSpeechMusic_20210921_logNormShiftAmp_detection_fixS,2020.1.2,Win32,60,,,,,,,,,,,,,,,1,6.8855,,0,0,1,1,0,1,stimuli/stim_20210706_power2amp/equal_lnn_AM_training0.9Hz_s35.m4a,,,,,,,,,,,,,,,,,,,,,,,,,,,
,,,,,41822,2021-09-26_13h58.01.571,judgeSpeechMusic_20210921_logNormShiftAmp_detection_fixS,2020.1.2,Win32,60,,,,,,,,,,,,,,,2,6.7921,2,1,0,2,2,3,1,stimuli/stim_20210706_power2amp/equal_lnn_AM_training3.9Hz_s35.m4a,1.7865,,,,,,,,,,,,,,,,,,,,,,,,,,
,,,,,41822,2021-09-26_13h58.01.571,judgeSpeechMusic_20210921_logNormShiftAmp_detection_fixS,2020.1.2,Win32,60,,,,,,,,,,,,,,,2,7.8693,,0,0,3,3,2,1,stimuli/stim_20210706_power2amp/equal_lnn_AM_training3Hz_s35.m4a,,,,,,,,,,,,,,,,,,,,,,,,,,,
,,,,,41822,2021-09-26_13h58.01.571,judgeSpeechMusic_20210921_logNormShiftAmp_detection_fixS,2020.1.2,Win32,60,,,,,,,,,,,,,,,,,,,,,,,,,,space,11.4446,space,0.5566,2,6.9254,,0,0,0,0,18,1,stimuli/stim_20210706_power2amp/equal_lnn_AM1.2Hz_s35_15.m4a,,,,,,,,,,,,
,,,,,41822,2021-09-26_13h58.01.571,judgeSpeechMusic_20210921_logNormShiftAmp_detection_fixS,2020.1.2,Win32,60,,,,,,,,,,,,,,,,,,,,,,,,,,,,,,1,6.441,,0,0,1,1,48,1,stimuli/stim_20210706_power2amp/equal_lnn_AM3.6Hz_s35_4.m4a,,,,,,,,,,,,
,,,,,41822,2021-09-26_13h58.01.571,judgeSpeechMusic_20210921_logNormShiftAmp_detection_fixS,2020.1.2,Win32,60,,,,,,,,,,,,,,,,,,,,,,,,,,,,,,2,8.3107,,0,0,2,2,24,1,stimuli/stim_20210706_power2amp/equal_lnn_AM1.2Hz_s35_36.m4a,,,,,,,,,,,,
,,,,,41822,2021-09-26_13h58.01.571,judgeSpeechMusic_20210921_logNormShiftAmp_detection_fixS,2020.1.2,Win32,60,,,,,,,,,,,,,,,,,,,,,,,,,,,,,,2,6.5,,0,0,3,3,52,1,stimuli/stim_20210706_power2amp/equal_lnn_AM3.6Hz_s35_27.m4a,,,,,,,,,,,,
,,,,,41822,2021-09-26_13h58.01.571,judgeSpeechMusic_20210921_logNormShiftAmp_detection_fixS,2020.1.2,Win32,60,,,,,,,,,,,,,,,,,,,,,,,,,,,,,,1,7.4874,,0,0,4,4,26,1,stimuli/stim_20210706_power2amp/equal_lnn_AM1.2Hz_s35_23.m4a,,,,,,,,,,,,
,,,,,41822,2021-09-26_13h58.01.571,judgeSpeechMusic_20210921_logNormShiftAmp_detection_fixS,2020.1.2,Win32,60,,,,,,,,,,,,,,,,,,,,,,,,,,,,,,2,7.2999,,0,0,5,5,25,1,stimuli/stim_20210706_power2amp/equal_lnn_AM1.2Hz_s35_38.m4a,,,,,,,,,,,,
,,,,,41822,2021-09-26_13h58.01.571,judgeSpeechMusic_20210921_logNormShiftAmp_detection_fixS,2020.1.2,Win32,60,,,,,,,,,,,,,,,,,,,,,,,,,,,,,,1,6.5815,,0,0,6,6,17,1,stimuli/stim_20210706_power2amp/equal_lnn_AM1.2Hz_s35_47.m4a,,,,,,,,,,,,
,,,,,41822,2021-09-26_13h58.01.571,judgeSpeechMusic_20210921_logNormShiftAmp_detection_fixS,2020.1.2,Win32,60,,,,,,,,,,,,,,,,,,,,,,,,,,,,,,2,6.0042,,0,0,7,7,66,1,stimuli/stim_20210706_power2amp/equal_lnn_AM4.2Hz_s35_14.m4a,,,,,,,,,,,,
,,,,,41822,2021-09-26_13h58.01.571,judgeSpeechMusic_20210921_logNormShiftAmp_detection_fixS,2020.1.2,Win32,60,,,,,,,,,,,,,,,,,,,,,,,,,,,,,,2,5.9431,,0,0,8,8,65,1,stimuli/stim_20210706_power2amp/equal_lnn_AM4.2Hz_s35_10.m4a,,,,,,,,,,,,
,,,,,41822,2021-09-26_13h58.01.571,judgeSpeechMusic_20210921_logNormShiftAmp_detection_fixS,2020.1.2,Win32,60,,,,,,,,,,,,,,,,,,,,,,,,,,,,,,1,6.6844,,0,0,9,9,44,1,stimuli/stim_20210706_power2amp/equal_lnn_AM2.4Hz_s35_25.m4a,,,,,,,,,,,,
,,,,,41822,2021-09-26_13h58.01.571,judgeSpeechMusic_20210921_logNormShiftAmp_detection_fixS,2020.1.2,Win32,60,,,,,,,,,,,,,,,,,,,,,,,,,,,,,,1,6.6269,,0,0,10,10,9,1,stimuli/stim_20210706_power2amp/equal_lnn_AM0.6Hz_s35_28.m4a,,,,,,,,,,,,
,,,,,41822,2021-09-26_13h58.01.571,judgeSpeechMusic_20210921_logNormShiftAmp_detection_fixS,2020.1.2,Win32,60,,,,,,,,,,,,,,,,,,,,,,,,,,,,,,1,6.1814,,0,0,11,11,6,1,stimuli/stim_20210706_power2amp/equal_lnn_AM0.6Hz_s35_32.m4a,,,,,,,,,,,,
,,,,,41822,2021-09-26_13h58.01.571,judgeSpeechMusic_20210921_logNormShiftAmp_detection_fixS,2020.1.2,Win32,60,,,,,,,,,,,,,,,,,,,,,,,,,,,,,,2,6.6958,,0,0,12,12,4,1,stimuli/stim_20210706_power2amp/equal_lnn_AM0.6Hz_s35_11.m4a,,,,,,,,,,,,
,,,,,41822,2021-09-26_13h58.01.571,judgeSpeechMusic_20210921_logNormShiftAmp_detection_fixS,2020.1.2,Win32,60,,,,,,,,,,,,,,,,,,,,,,,,,,,,,,1,6.3545,,0,0,13,13,58,1,stimuli/stim_20210706_power2amp/equal_lnn_AM3.6Hz_s35_42.m4a,,,,,,,,,,,,
,,,,,41822,2021-09-26_13h58.01.571,judgeSpeechMusic_20210921_logNormShiftAmp_detection_fixS,2020.1.2,Win32,60,,,,,,,,,,,,,,,,,,,,,,,,,,,,,,1,6.1014,,0,0,14,14,23,1,stimuli/stim_20210706_power2amp/equal_lnn_AM1.2Hz_s35_28.m4a,,,,,,,,,,,,
,,,,,41822,2021-09-26_13h58.01.571,judgeSpeechMusic_20210921_logNormShiftAmp_detection_fixS,2020.1.2,Win32,60,,,,,,,,,,,,,,,,,,,,,,,,,,,,,,2,5.9393,,0,0,15,15,49,1,stimuli/stim_20210706_power2amp/equal_lnn_AM3.6Hz_s35_3.m4a,,,,,,,,,,,,
,,,,,41822,2021-09-26_13h58.01.571,judgeSpeechMusic_20210921_logNormShiftAmp_detection_fixS,2020.1.2,Win32,60,,,,,,,,,,,,,,,,,,,,,,,,,,,,,,1,6.2426,,0,0,16,16,27,1,stimuli/stim_20210706_power2amp/equal_lnn_AM1.2Hz_s35_14.m4a,,,,,,,,,,,,
,,,,,41822,2021-09-26_13h58.01.571,judgeSpeechMusic_20210921_logNormShiftAmp_detection_fixS,2020.1.2,Win32,60,,,,,,,,,,,,,,,,,,,,,,,,,,,,,,2,6.7405,,0,0,17,17,50,1,stimuli/stim_20210706_power2amp/equal_lnn_AM3.6Hz_s35_2.m4a,,,,,,,,,,,,
,,,,,41822,2021-09-26_13h58.01.571,judgeSpeechMusic_20210921_logNormShiftAmp_detection_fixS,2020.1.2,Win32,60,,,,,,,,,,,,,,,,,,,,,,,,,,,,,,1,6.2433,,0,0,18,18,11,1,stimuli/stim_20210706_power2amp/equal_lnn_AM0.6Hz_s35_14.m4a,,,,,,,,,,,,
,,,,,41822,2021-09-26_13h58.01.571,judgeSpeechMusic_20210921_logNormShiftAmp_detection_fixS,2020.1.2,Win32,60,,,,,,,,,,,,,,,,,,,,,,,,,,,,,,2,6.1698,,0,0,19,19,34,1,stimuli/stim_20210706_power2amp/equal_lnn_AM2.4Hz_s35_33.m4a,,,,,,,,,,,,
,,,,,41822,2021-09-26_13h58.01.571,judgeSpeechMusic_20210921_logNormShiftAmp_detection_fixS,2020.1.2,Win32,60,,,,,,,,,,,,,,,,,,,,,,,,,,,,,,2,9.0873,,0,0,20,20,72,1,stimuli/stim_20210706_power2amp/equal_lnn_AM4.2Hz_s35_50.m4a,,,,,,,,,,,,
,,,,,41822,2021-09-26_13h58.01.571,judgeSpeechMusic_20210921_logNormShiftAmp_detection_fixS,2020.1.2,Win32,60,,,,,,,,,,,,,,,,,,,,,,,,,,,,,,1,6.0531,4,1,0,21,21,0,1,stimuli/stim_20210706_power2amp/equal_lnn_AM0.6Hz_s35_34.m4a,2.3707,,,,,,,,,,,
,,,,,41822,2021-09-26_13h58.01.571,judgeSpeechMusic_20210921_logNormShiftAmp_detection_fixS,2020.1.2,Win32,60,,,,,,,,,,,,,,,,,,,,,,,,,,,,,,2,6.2648,,0,0,22,22,73,1,stimuli/stim_20210706_power2amp/equal_lnn_AM4.2Hz_s35_27.m4a,,,,,,,,,,,,
,,,,,41822,2021-09-26_13h58.01.571,judgeSpeechMusic_20210921_logNormShiftAmp_detection_fixS,2020.1.2,Win32,60,,,,,,,,,,,,,,,,,,,,,,,,,,,,,,2,5.8238,,0,0,23,23,61,1,stimuli/stim_20210706_power2amp/equal_lnn_AM4.2Hz_s35_18.m4a,,,,,,,,,,,,
,,,,,41822,2021-09-26_13h58.01.571,judgeSpeechMusic_20210921_logNormShiftAmp_detection_fixS,2020.1.2,Win32,60,,,,,,,,,,,,,,,,,,,,,,,,,,,,,,2,8.6335,,0,0,24,24,21,1,stimuli/stim_20210706_power2amp/equal_lnn_AM1.2Hz_s35_39.m4a,,,,,,,,,,,,
,,,,,41822,2021-09-26_13h58.01.571,judgeSpeechMusic_20210921_logNormShiftAmp_detection_fixS,2020.1.2,Win32,60,,,,,,,,,,,,,,,,,,,,,,,,,,,,,,1,6.895,,0,0,25,25,51,1,stimuli/stim_20210706_power2amp/equal_lnn_AM3.6Hz_s35_39.m4a,,,,,,,,,,,,
,,,,,41822,2021-09-26_13h58.01.571,judgeSpeechMusic_20210921_logNormShiftAmp_detection_fixS,2020.1.2,Win32,60,,,,,,,,,,,,,,,,,,,,,,,,,,,,,,1,5.8011,,0,0,26,26,22,1,stimuli/stim_20210706_power2amp/equal_lnn_AM1.2Hz_s35_16.m4a,,,,,,,,,,,,
,,,,,41822,2021-09-26_13h58.01.571,judgeSpeechMusic_20210921_logNormShiftAmp_detection_fixS,2020.1.2,Win32,60,,,,,,,,,,,,,,,,,,,,,,,,,,,,,,1,5.7846,,0,0,27,27,45,1,stimuli/stim_20210706_power2amp/equal_lnn_AM3.6Hz_s35_47.m4a,,,,,,,,,,,,
,,,,,41822,2021-09-26_13h58.01.571,judgeSpeechMusic_20210921_logNormShiftAmp_detection_fixS,2020.1.2,Win32,60,,,,,,,,,,,,,,,,,,,,,,,,,,,,,,2,5.8442,,0,0,28,28,30,1,stimuli/stim_20210706_power2amp/equal_lnn_AM2.4Hz_s35_9.m4a,,,,,,,,,,,,
,,,,,41822,2021-09-26_13h58.01.571,judgeSpeechMusic_20210921_logNormShiftAmp_detection_fixS,2020.1.2,Win32,60,,,,,,,,,,,,,,,,,,,,,,,,,,,,,,1,6.056,,0,0,29,29,70,1,stimuli/stim_20210706_power2amp/equal_lnn_AM4.2Hz_s35_13.m4a,,,,,,,,,,,,
,,,,,41822,2021-09-26_13h58.01.571,judgeSpeechMusic_20210921_logNormShiftAmp_detection_fixS,2020.1.2,Win32,60,,,,,,,,,,,,,,,,,,,,,,,,,,,,,,1,6.4499,,0,0,30,30,16,1,stimuli/stim_20210706_power2amp/equal_lnn_AM1.2Hz_s35_2.m4a,,,,,,,,,,,,
,,,,,41822,2021-09-26_13h58.01.571,judgeSpeechMusic_20210921_logNormShiftAmp_detection_fixS,2020.1.2,Win32,60,,,,,,,,,,,,,,,,,,,,,,,,,,,,,,1,6.8215,,0,0,31,31,46,1,stimuli/stim_20210706_power2amp/equal_lnn_AM3.6Hz_s35_11.m4a,,,,,,,,,,,,
,,,,,41822,2021-09-26_13h58.01.571,judgeSpeechMusic_20210921_logNormShiftAmp_detection_fixS,2020.1.2,Win32,60,,,,,,,,,,,,,,,,,,,,,,,,,,,,,,1,9.3989,,0,0,32,32,62,1,stimuli/stim_20210706_power2amp/equal_lnn_AM4.2Hz_s35_19.m4a,,,,,,,,,,,,
,,,,,41822,2021-09-26_13h58.01.571,judgeSpeechMusic_20210921_logNormShiftAmp_detection_fixS,2020.1.2,Win32,60,,,,,,,,,,,,,,,,,,,,,,,,,,,,,,1,9.1062,,0,0,33,33,43,1,stimuli/stim_20210706_power2amp/equal_lnn_AM2.4Hz_s35_19.m4a,,,,,,,,,,,,
,,,,,41822,2021-09-26_13h58.01.571,judgeSpeechMusic_20210921_logNormShiftAmp_detection_fixS,2020.1.2,Win32,60,,,,,,,,,,,,,,,,,,,,,,,,,,,,,,1,8.6976,,0,0,34,34,68,1,stimuli/stim_20210706_power2amp/equal_lnn_AM4.2Hz_s35_38.m4a,,,,,,,,,,,,
,,,,,41822,2021-09-26_13h58.01.571,judgeSpeechMusic_20210921_logNormShiftAmp_detection_fixS,2020.1.2,Win32,60,,,,,,,,,,,,,,,,,,,,,,,,,,,,,,1,10.85,,0,0,35,35,40,1,stimuli/stim_20210706_power2amp/equal_lnn_AM2.4Hz_s35_44.m4a,,,,,,,,,,,,
,,,,,41822,2021-09-26_13h58.01.571,judgeSpeechMusic_20210921_logNormShiftAmp_detection_fixS,2020.1.2,Win32,60,,,,,,,,,,,,,,,,,,,,,,,,,,,,,,2,9.0099,,0,0,36,36,12,1,stimuli/stim_20210706_power2amp/equal_lnn_AM0.6Hz_s35_15.m4a,,,,,,,,,,,,
,,,,,41822,2021-09-26_13h58.01.571,judgeSpeechMusic_20210921_logNormShiftAmp_detection_fixS,2020.1.2,Win32,60,,,,,,,,,,,,,,,,,,,,,,,,,,,,,,2,5.9211,,0,0,37,37,71,1,stimuli/stim_20210706_power2amp/equal_lnn_AM4.2Hz_s35_40.m4a,,,,,,,,,,,,
,,,,,41822,2021-09-26_13h58.01.571,judgeSpeechMusic_20210921_logNormShiftAmp_detection_fixS,2020.1.2,Win32,60,,,,,,,,,,,,,,,,,,,,,,,,,,,,,,2,5.9399,,0,0,38,38,14,1,stimuli/stim_20210706_power2amp/equal_lnn_AM0.6Hz_s35_39.m4a,,,,,,,,,,,,
,,,,,41822,2021-09-26_13h58.01.571,judgeSpeechMusic_20210921_logNormShiftAmp_detection_fixS,2020.1.2,Win32,60,,,,,,,,,,,,,,,,,,,,,,,,,,,,,,1,8.9502,,0,0,39,39,33,1,stimuli/stim_20210706_power2amp/equal_lnn_AM2.4Hz_s35_8.m4a,,,,,,,,,,,,
,,,,,41822,2021-09-26_13h58.01.571,judgeSpeechMusic_20210921_logNormShiftAmp_detection_fixS,2020.1.2,Win32,60,,,,,,,,,,,,,,,,,,,,,,,,,,,,,,1,6.7051,3,1,0,40,40,20,1,stimuli/stim_20210706_power2amp/equal_lnn_AM1.2Hz_s35_35.m4a,1.4059,,,,,,,,,,,
,,,,,41822,2021-09-26_13h58.01.571,judgeSpeechMusic_20210921_logNormShiftAmp_detection_fixS,2020.1.2,Win32,60,,,,,,,,,,,,,,,,,,,,,,,,,,,,,,2,6.0297,,0,0,41,41,69,1,stimuli/stim_20210706_power2amp/equal_lnn_AM4.2Hz_s35_21.m4a,,,,,,,,,,,,
,,,,,41822,2021-09-26_13h58.01.571,judgeSpeechMusic_20210921_logNormShiftAmp_detection_fixS,2020.1.2,Win32,60,,,,,,,,,,,,,,,,,,,,,,,,,,,,,,2,6.0158,,0,0,42,42,3,1,stimuli/stim_20210706_power2amp/equal_lnn_AM0.6Hz_s35_6.m4a,,,,,,,,,,,,
,,,,,41822,2021-09-26_13h58.01.571,judgeSpeechMusic_20210921_logNormShiftAmp_detection_fixS,2020.1.2,Win32,60,,,,,,,,,,,,,,,,,,,,,,,,,,,,,,1,6.2714,,0,0,43,43,59,1,stimuli/stim_20210706_power2amp/equal_lnn_AM3.6Hz_s35_37.m4a,,,,,,,,,,,,
,,,,,41822,2021-09-26_13h58.01.571,judgeSpeechMusic_20210921_logNormShiftAmp_detection_fixS,2020.1.2,Win32,60,,,,,,,,,,,,,,,,,,,,,,,,,,,,,,1,5.8987,,0,0,44,44,28,1,stimuli/stim_20210706_power2amp/equal_lnn_AM1.2Hz_s35_25.m4a,,,,,,,,,,,,
,,,,,41822,2021-09-26_13h58.01.571,judgeSpeechMusic_20210921_logNormShiftAmp_detection_fixS,2020.1.2,Win32,60,,,,,,,,,,,,,,,,,,,,,,,,,,,,,,1,6.2084,,0,0,45,45,19,1,stimuli/stim_20210706_power2amp/equal_lnn_AM1.2Hz_s35_11.m4a,,,,,,,,,,,,
,,,,,41822,2021-09-26_13h58.01.571,judgeSpeechMusic_20210921_logNormShiftAmp_detection_fixS,2020.1.2,Win32,60,,,,,,,,,,,,,,,,,,,,,,,,,,,,,,2,5.7662,,0,0,46,46,41,1,stimuli/stim_20210706_power2amp/equal_lnn_AM2.4Hz_s35_30.m4a,,,,,,,,,,,,
,,,,,41822,2021-09-26_13h58.01.571,judgeSpeechMusic_20210921_logNormShiftAmp_detection_fixS,2020.1.2,Win32,60,,,,,,,,,,,,,,,,,,,,,,,,,,,,,,2,8.0442,,0,0,47,47,39,1,stimuli/stim_20210706_power2amp/equal_lnn_AM2.4Hz_s35_41.m4a,,,,,,,,,,,,
,,,,,41822,2021-09-26_13h58.01.571,judgeSpeechMusic_20210921_logNormShiftAmp_detection_fixS,2020.1.2,Win32,60,,,,,,,,,,,,,,,,,,,,,,,,,,,,,,2,5.9746,,0,0,48,48,29,1,stimuli/stim_20210706_power2amp/equal_lnn_AM1.2Hz_s35_44.m4a,,,,,,,,,,,,
,,,,,41822,2021-09-26_13h58.01.571,judgeSpeechMusic_20210921_logNormShiftAmp_detection_fixS,2020.1.2,Win32,60,,,,,,,,,,,,,,,,,,,,,,,,,,,,,,1,6.932,,0,0,49,49,64,1,stimuli/stim_20210706_power2amp/equal_lnn_AM4.2Hz_s35_31.m4a,,,,,,,,,,,,
,,,,,41822,2021-09-26_13h58.01.571,judgeSpeechMusic_20210921_logNormShiftAmp_detection_fixS,2020.1.2,Win32,60,,,,,,,,,,,,,,,,,,,,,,,,,,,,,,2,6.7212,,0,0,50,50,7,1,stimuli/stim_20210706_power2amp/equal_lnn_AM0.6Hz_s35_1.m4a,,,,,,,,,,,,
,,,,,41822,2021-09-26_13h58.01.571,judgeSpeechMusic_20210921_logNormShiftAmp_detection_fixS,2020.1.2,Win32,60,,,,,,,,,,,,,,,,,,,,,,,,,,,,,,1,5.5911,,0,0,51,51,35,1,stimuli/stim_20210706_power2amp/equal_lnn_AM2.4Hz_s35_10.m4a,,,,,,,,,,,,
,,,,,41822,2021-09-26_13h58.01.571,judgeSpeechMusic_20210921_logNormShiftAmp_detection_fixS,2020.1.2,Win32,60,,,,,,,,,,,,,,,,,,,,,,,,,,,,,,1,5.8596,,0,0,52,52,55,1,stimuli/stim_20210706_power2amp/equal_lnn_AM3.6Hz_s35_21.m4a,,,,,,,,,,,,
,,,,,41822,2021-09-26_13h58.01.571,judgeSpeechMusic_20210921_logNormShiftAmp_detection_fixS,2020.1.2,Win32,60,,,,,,,,,,,,,,,,,,,,,,,,,,,,,,2,6.3727,,0,0,53,53,5,1,stimuli/stim_20210706_power2amp/equal_lnn_AM0.6Hz_s35_29.m4a,,,,,,,,,,,,
,,,,,41822,2021-09-26_13h58.01.571,judgeSpeechMusic_20210921_logNormShiftAmp_detection_fixS,2020.1.2,Win32,60,,,,,,,,,,,,,,,,,,,,,,,,,,,,,,1,5.7103,,0,0,54,54,54,1,stimuli/stim_20210706_power2amp/equal_lnn_AM3.6Hz_s35_45.m4a,,,,,,,,,,,,
,,,,,41822,2021-09-26_13h58.01.571,judgeSpeechMusic_20210921_logNormShiftAmp_detection_fixS,2020.1.2,Win32,60,,,,,,,,,,,,,,,,,,,,,,,,,,,,,,1,6.5376,,0,0,55,55,1,1,stimuli/stim_20210706_power2amp/equal_lnn_AM0.6Hz_s35_17.m4a,,,,,,,,,,,,
,,,,,41822,2021-09-26_13h58.01.571,judgeSpeechMusic_20210921_logNormShiftAmp_detection_fixS,2020.1.2,Win32,60,,,,,,,,,,,,,,,,,,,,,,,,,,,,,,1,5.9182,,0,0,56,56,8,1,stimuli/stim_20210706_power2amp/equal_lnn_AM0.6Hz_s35_13.m4a,,,,,,,,,,,,
,,,,,41822,2021-09-26_13h58.01.571,judgeSpeechMusic_20210921_logNormShiftAmp_detection_fixS,2020.1.2,Win32,60,,,,,,,,,,,,,,,,,,,,,,,,,,,,,,1,23.9954,,0,0,57,57,53,1,stimuli/stim_20210706_power2amp/equal_lnn_AM3.6Hz_s35_46.m4a,,,,,,,,,,,,
,,,,,41822,2021-09-26_13h58.01.571,judgeSpeechMusic_20210921_logNormShiftAmp_detection_fixS,2020.1.2,Win32,60,,,,,,,,,,,,,,,,,,,,,,,,,,,,,,1,6.6792,1,1,0,58,58,67,1,stimuli/stim_20210706_power2amp/equal_lnn_AM4.2Hz_s35_30.m4a,1.4366,,,,,,,,,,,
,,,,,41822,2021-09-26_13h58.01.571,judgeSpeechMusic_20210921_logNormShiftAmp_detection_fixS,2020.1.2,Win32,60,,,,,,,,,,,,,,,,,,,,,,,,,,,,,,1,11.1945,,0,0,59,59,38,1,stimuli/stim_20210706_power2amp/equal_lnn_AM2.4Hz_s35_5.m4a,,,,,,,,,,,,
,,,,,41822,2021-09-26_13h58.01.571,judgeSpeechMusic_20210921_logNormShiftAmp_detection_fixS,2020.1.2,Win32,60,,,,,,,,,,,,,,,,,,,,,,,,,,,,,,1,6.1399,,0,0,60,60,13,1,stimuli/stim_20210706_power2amp/equal_lnn_AM0.6Hz_s35_2.m4a,,,,,,,,,,,,
,,,,,41822,2021-09-26_13h58.01.571,judgeSpeechMusic_20210921_logNormShiftAmp_detection_fixS,2020.1.2,Win32,60,,,,,,,,,,,,,,,,,,,,,,,,,,,,,,1,6.3668,,0,0,61,61,36,1,stimuli/stim_20210706_power2amp/equal_lnn_AM2.4Hz_s35_35.m4a,,,,,,,,,,,,
,,,,,41822,2021-09-26_13h58.01.571,judgeSpeechMusic_20210921_logNormShiftAmp_detection_fixS,2020.1.2,Win32,60,,,,,,,,,,,,,,,,,,,,,,,,,,,,,,2,5.8111,,0,0,62,62,47,1,stimuli/stim_20210706_power2amp/equal_lnn_AM3.6Hz_s35_6.m4a,,,,,,,,,,,,
,,,,,41822,2021-09-26_13h58.01.571,judgeSpeechMusic_20210921_logNormShiftAmp_detection_fixS,2020.1.2,Win32,60,,,,,,,,,,,,,,,,,,,,,,,,,,,,,,2,5.8112,,0,0,63,63,63,1,stimuli/stim_20210706_power2amp/equal_lnn_AM4.2Hz_s35_16.m4a,,,,,,,,,,,,
,,,,,41822,2021-09-26_13h58.01.571,judgeSpeechMusic_20210921_logNormShiftAmp_detection_fixS,2020.1.2,Win32,60,,,,,,,,,,,,,,,,,,,,,,,,,,,,,,2,5.7828,,0,0,64,64,56,1,stimuli/stim_20210706_power2amp/equal_lnn_AM3.6Hz_s35_8.m4a,,,,,,,,,,,,
,,,,,41822,2021-09-26_13h58.01.571,judgeSpeechMusic_20210921_logNormShiftAmp_detection_fixS,2020.1.2,Win32,60,,,,,,,,,,,,,,,,,,,,,,,,,,,,,,2,6.4891,,0,0,65,65,37,1,stimuli/stim_20210706_power2amp/equal_lnn_AM2.4Hz_s35_23.m4a,,,,,,,,,,,,
,,,,,41822,2021-09-26_13h58.01.571,judgeSpeechMusic_20210921_logNormShiftAmp_detection_fixS,2020.1.2,Win32,60,,,,,,,,,,,,,,,,,,,,,,,,,,,,,,2,5.8723,,0,0,66,66,57,1,stimuli/stim_20210706_power2amp/equal_lnn_AM3.6Hz_s35_23.m4a,,,,,,,,,,,,
,,,,,41822,2021-09-26_13h58.01.571,judgeSpeechMusic_20210921_logNormShiftAmp_detection_fixS,2020.1.2,Win32,60,,,,,,,,,,,,,,,,,,,,,,,,,,,,,,1,6.2847,,0,0,67,67,31,1,stimuli/stim_20210706_power2amp/equal_lnn_AM2.4Hz_s35_48.m4a,,,,,,,,,,,,
,,,,,41822,2021-09-26_13h58.01.571,judgeSpeechMusic_20210921_logNormShiftAmp_detection_fixS,2020.1.2,Win32,60,,,,,,,,,,,,,,,,,,,,,,,,,,,,,,2,5.6995,,0,0,68,68,32,1,stimuli/stim_20210706_power2amp/equal_lnn_AM2.4Hz_s35_26.m4a,,,,,,,,,,,,
,,,,,41822,2021-09-26_13h58.01.571,judgeSpeechMusic_20210921_logNormShiftAmp_detection_fixS,2020.1.2,Win32,60,,,,,,,,,,,,,,,,,,,,,,,,,,,,,,1,6.1041,,0,0,69,69,15,1,stimuli/stim_20210706_power2amp/equal_lnn_AM1.2Hz_s35_7.m4a,,,,,,,,,,,,
,,,,,41822,2021-09-26_13h58.01.571,judgeSpeechMusic_20210921_logNormShiftAmp_detection_fixS,2020.1.2,Win32,60,,,,,,,,,,,,,,,,,,,,,,,,,,,,,,1,5.9381,,0,0,70,70,10,1,stimuli/stim_20210706_power2amp/equal_lnn_AM0.6Hz_s35_18.m4a,,,,,,,,,,,,
,,,,,41822,2021-09-26_13h58.01.571,judgeSpeechMusic_20210921_logNormShiftAmp_detection_fixS,2020.1.2,Win32,60,,,,,,,,,,,,,,,,,,,,,,,,,,,,,,1,8.1192,,0,0,71,71,42,1,stimuli/stim_20210706_power2amp/equal_lnn_AM2.4Hz_s35_2.m4a,,,,,,,,,,,,
,,,,,41822,2021-09-26_13h58.01.571,judgeSpeechMusic_20210921_logNormShiftAmp_detection_fixS,2020.1.2,Win32,60,,,,,,,,,,,,,,,,,,,,,,,,,,,,,,2,5.7685,,0,0,72,72,74,1,stimuli/stim_20210706_power2amp/equal_lnn_AM4.2Hz_s35_23.m4a,,,,,,,,,,,,
,,,,,41822,2021-09-26_13h58.01.571,judgeSpeechMusic_20210921_logNormShiftAmp_detection_fixS,2020.1.2,Win32,60,,,,,,,,,,,,,,,,,,,,,,,,,,,,,,2,6.0522,,0,0,73,73,60,1,stimuli/stim_20210706_power2amp/equal_lnn_AM4.2Hz_s35_35.m4a,,,,,,,,,,,,
,,,,,41822,2021-09-26_13h58.01.571,judgeSpeechMusic_20210921_logNormShiftAmp_detection_fixS,2020.1.2,Win32,60,,,,,,,,,,,,,,,,,,,,,,,,,,,,,,1,5.612,,0,0,74,74,2,1,stimuli/stim_20210706_power2amp/equal_lnn_AM0.6Hz_s35_38.m4a,,,,,,,,,,,,
,,,,,41822,2021-09-26_13h58.01.571,judgeSpeechMusic_20210921_logNormShiftAmp_detection_fixS,2020.1.2,Win32,60,,,,,,,,,,,,,,,,,,,,,,,,,,,,,,,,,,,,,,,,,space,17.3212,0,0,0,0,1,MUSIC,stimuli/MUSIC.jpg,,
,,,,,41822,2021-09-26_13h58.01.571,judgeSpeechMusic_20210921_logNormShiftAmp_detection_fixS,2020.1.2,Win32,60,,,,,,,,,,,,,space,0.6177,1,7.8203,,0,0,0,0,1,1,stimuli/stim_20210706_power2amp/equal_lnn_AM_training1.8Hz_s35.m4a,,,,,,,,,,,,,,,,,,,,,,,,,,,
,,,,,41822,2021-09-26_13h58.01.571,judgeSpeechMusic_20210921_logNormShiftAmp_detection_fixS,2020.1.2,Win32,60,,,,,,,,,,,,,,,1,5.8544,,0,0,1,1,0,1,stimuli/stim_20210706_power2amp/equal_lnn_AM_training0.9Hz_s35.m4a,,,,,,,,,,,,,,,,,,,,,,,,,,,
,,,,,41822,2021-09-26_13h58.01.571,judgeSpeechMusic_20210921_logNormShiftAmp_detection_fixS,2020.1.2,Win32,60,,,,,,,,,,,,,,,2,5.9263,3,1,0,2,2,3,1,stimuli/stim_20210706_power2amp/equal_lnn_AM_training3.9Hz_s35.m4a,1.947,,,,,,,,,,,,,,,,,,,,,,,,,,
,,,,,41822,2021-09-26_13h58.01.571,judgeSpeechMusic_20210921_logNormShiftAmp_detection_fixS,2020.1.2,Win32,60,,,,,,,,,,,,,,,2,8.453,,0,0,3,3,2,1,stimuli/stim_20210706_power2amp/equal_lnn_AM_training3Hz_s35.m4a,,,,,,,,,,,,,,,,,,,,,,,,,,,
,,,,,41822,2021-09-26_13h58.01.571,judgeSpeechMusic_20210921_logNormShiftAmp_detection_fixS,2020.1.2,Win32,60,,,,,,,,,,,,,,,,,,,,,,,,,,space,4.0777,space,0.5828,2,6.6001,,0,0,0,0,18,1,stimuli/stim_20210706_power2amp/equal_lnn_AM1.2Hz_s35_15.m4a,,,,,,,,,,,,
,,,,,41822,2021-09-26_13h58.01.571,judgeSpeechMusic_20210921_logNormShiftAmp_detection_fixS,2020.1.2,Win32,60,,,,,,,,,,,,,,,,,,,,,,,,,,,,,,1,6.0606,,0,0,1,1,3,1,stimuli/stim_20210706_power2amp/equal_lnn_AM0.6Hz_s35_6.m4a,,,,,,,,,,,,
,,,,,41822,2021-09-26_13h58.01.571,judgeSpeechMusic_20210921_logNormShiftAmp_detection_fixS,2020.1.2,Win32,60,,,,,,,,,,,,,,,,,,,,,,,,,,,,,,1,8.1878,,0,0,2,2,33,1,stimuli/stim_20210706_power2amp/equal_lnn_AM2.4Hz_s35_8.m4a,,,,,,,,,,,,
,,,,,41822,2021-09-26_13h58.01.571,judgeSpeechMusic_20210921_logNormShiftAmp_detection_fixS,2020.1.2,Win32,60,,,,,,,,,,,,,,,,,,,,,,,,,,,,,,1,6.2946,,0,0,3,3,11,1,stimuli/stim_20210706_power2amp/equal_lnn_AM0.6Hz_s35_14.m4a,,,,,,,,,,,,
,,,,,41822,2021-09-26_13h58.01.571,judgeSpeechMusic_20210921_logNormShiftAmp_detection_fixS,2020.1.2,Win32,60,,,,,,,,,,,,,,,,,,,,,,,,,,,,,,1,6.1718,,0,0,4,4,17,1,stimuli/stim_20210706_power2amp/equal_lnn_AM1.2Hz_s35_47.m4a,,,,,,,,,,,,
,,,,,41822,2021-09-26_13h58.01.571,judgeSpeechMusic_20210921_logNormShiftAmp_detection_fixS,2020.1.2,Win32,60,,,,,,,,,,,,,,,,,,,,,,,,,,,,,,1,6.4605,,0,0,5,5,15,1,stimuli/stim_20210706_power2amp/equal_lnn_AM1.2Hz_s35_7.m4a,,,,,,,,,,,,
,,,,,41822,2021-09-26_13h58.01.571,judgeSpeechMusic_20210921_logNormShiftAmp_detection_fixS,2020.1.2,Win32,60,,,,,,,,,,,,,,,,,,,,,,,,,,,,,,2,5.6883,,0,0,6,6,59,1,stimuli/stim_20210706_power2amp/equal_lnn_AM3.6Hz_s35_37.m4a,,,,,,,,,,,,
,,,,,41822,2021-09-26_13h58.01.571,judgeSpeechMusic_20210921_logNormShiftAmp_detection_fixS,2020.1.2,Win32,60,,,,,,,,,,,,,,,,,,,,,,,,,,,,,,2,5.8028,,0,0,7,7,62,1,stimuli/stim_20210706_power2amp/equal_lnn_AM4.2Hz_s35_19.m4a,,,,,,,,,,,,
,,,,,41822,2021-09-26_13h58.01.571,judgeSpeechMusic_20210921_logNormShiftAmp_detection_fixS,2020.1.2,Win32,60,,,,,,,,,,,,,,,,,,,,,,,,,,,,,,2,5.5703,,0,0,8,8,70,1,stimuli/stim_20210706_power2amp/equal_lnn_AM4.2Hz_s35_13.m4a,,,,,,,,,,,,
,,,,,41822,2021-09-26_13h58.01.571,judgeSpeechMusic_20210921_logNormShiftAmp_detection_fixS,2020.1.2,Win32,60,,,,,,,,,,,,,,,,,,,,,,,,,,,,,,2,5.7834,,0,0,9,9,7,1,stimuli/stim_20210706_power2amp/equal_lnn_AM0.6Hz_s35_1.m4a,,,,,,,,,,,,
,,,,,41822,2021-09-26_13h58.01.571,judgeSpeechMusic_20210921_logNormShiftAmp_detection_fixS,2020.1.2,Win32,60,,,,,,,,,,,,,,,,,,,,,,,,,,,,,,2,6.139,,0,0,10,10,43,1,stimuli/stim_20210706_power2amp/equal_lnn_AM2.4Hz_s35_19.m4a,,,,,,,,,,,,
,,,,,41822,2021-09-26_13h58.01.571,judgeSpeechMusic_20210921_logNormShiftAmp_detection_fixS,2020.1.2,Win32,60,,,,,,,,,,,,,,,,,,,,,,,,,,,,,,1,236.7561,,0,0,11,11,54,1,stimuli/stim_20210706_power2amp/equal_lnn_AM3.6Hz_s35_45.m4a,,,,,,,,,,,,
,,,,,41822,2021-09-26_13h58.01.571,judgeSpeechMusic_20210921_logNormShiftAmp_detection_fixS,2020.1.2,Win32,60,,,,,,,,,,,,,,,,,,,,,,,,,,,,,,2,5.9566,,0,0,12,12,20,1,stimuli/stim_20210706_power2amp/equal_lnn_AM1.2Hz_s35_35.m4a,,,,,,,,,,,,
,,,,,41822,2021-09-26_13h58.01.571,judgeSpeechMusic_20210921_logNormShiftAmp_detection_fixS,2020.1.2,Win32,60,,,,,,,,,,,,,,,,,,,,,,,,,,,,,,2,5.7566,,0,0,13,13,40,1,stimuli/stim_20210706_power2amp/equal_lnn_AM2.4Hz_s35_44.m4a,,,,,,,,,,,,
,,,,,41822,2021-09-26_13h58.01.571,judgeSpeechMusic_20210921_logNormShiftAmp_detection_fixS,2020.1.2,Win32,60,,,,,,,,,,,,,,,,,,,,,,,,,,,,,,2,6.6656,,0,0,14,14,41,1,stimuli/stim_20210706_power2amp/equal_lnn_AM2.4Hz_s35_30.m4a,,,,,,,,,,,,
,,,,,41822,2021-09-26_13h58.01.571,judgeSpeechMusic_20210921_logNormShiftAmp_detection_fixS,2020.1.2,Win32,60,,,,,,,,,,,,,,,,,,,,,,,,,,,,,,1,5.8741,,0,0,15,15,2,1,stimuli/stim_20210706_power2amp/equal_lnn_AM0.6Hz_s35_38.m4a,,,,,,,,,,,,
,,,,,41822,2021-09-26_13h58.01.571,judgeSpeechMusic_20210921_logNormShiftAmp_detection_fixS,2020.1.2,Win32,60,,,,,,,,,,,,,,,,,,,,,,,,,,,,,,1,7.7173,,0,0,16,16,27,1,stimuli/stim_20210706_power2amp/equal_lnn_AM1.2Hz_s35_14.m4a,,,,,,,,,,,,
,,,,,41822,2021-09-26_13h58.01.571,judgeSpeechMusic_20210921_logNormShiftAmp_detection_fixS,2020.1.2,Win32,60,,,,,,,,,,,,,,,,,,,,,,,,,,,,,,2,6.1266,,0,0,17,17,37,1,stimuli/stim_20210706_power2amp/equal_lnn_AM2.4Hz_s35_23.m4a,,,,,,,,,,,,
,,,,,41822,2021-09-26_13h58.01.571,judgeSpeechMusic_20210921_logNormShiftAmp_detection_fixS,2020.1.2,Win32,60,,,,,,,,,,,,,,,,,,,,,,,,,,,,,,2,5.6284,,0,0,18,18,61,1,stimuli/stim_20210706_power2amp/equal_lnn_AM4.2Hz_s35_18.m4a,,,,,,,,,,,,
,,,,,41822,2021-09-26_13h58.01.571,judgeSpeechMusic_20210921_logNormShiftAmp_detection_fixS,2020.1.2,Win32,60,,,,,,,,,,,,,,,,,,,,,,,,,,,,,,2,5.6224,,0,0,19,19,68,1,stimuli/stim_20210706_power2amp/equal_lnn_AM4.2Hz_s35_38.m4a,,,,,,,,,,,,
,,,,,41822,2021-09-26_13h58.01.571,judgeSpeechMusic_20210921_logNormShiftAmp_detection_fixS,2020.1.2,Win32,60,,,,,,,,,,,,,,,,,,,,,,,,,,,,,,1,6.596,,0,0,20,20,1,1,stimuli/stim_20210706_power2amp/equal_lnn_AM0.6Hz_s35_17.m4a,,,,,,,,,,,,
,,,,,41822,2021-09-26_13h58.01.571,judgeSpeechMusic_20210921_logNormShiftAmp_detection_fixS,2020.1.2,Win32,60,,,,,,,,,,,,,,,,,,,,,,,,,,,,,,2,5.7098,4,1,0,21,21,74,1,stimuli/stim_20210706_power2amp/equal_lnn_AM4.2Hz_s35_23.m4a,1.7191,,,,,,,,,,,
,,,,,41822,2021-09-26_13h58.01.571,judgeSpeechMusic_20210921_logNormShiftAmp_detection_fixS,2020.1.2,Win32,60,,,,,,,,,,,,,,,,,,,,,,,,,,,,,,2,5.7958,,0,0,22,22,52,1,stimuli/stim_20210706_power2amp/equal_lnn_AM3.6Hz_s35_27.m4a,,,,,,,,,,,,
,,,,,41822,2021-09-26_13h58.01.571,judgeSpeechMusic_20210921_logNormShiftAmp_detection_fixS,2020.1.2,Win32,60,,,,,,,,,,,,,,,,,,,,,,,,,,,,,,1,6.1784,,0,0,23,23,13,1,stimuli/stim_20210706_power2amp/equal_lnn_AM0.6Hz_s35_2.m4a,,,,,,,,,,,,
,,,,,41822,2021-09-26_13h58.01.571,judgeSpeechMusic_20210921_logNormShiftAmp_detection_fixS,2020.1.2,Win32,60,,,,,,,,,,,,,,,,,,,,,,,,,,,,,,2,6.5294,,0,0,24,24,32,1,stimuli/stim_20210706_power2amp/equal_lnn_AM2.4Hz_s35_26.m4a,,,,,,,,,,,,
,,,,,41822,2021-09-26_13h58.01.571,judgeSpeechMusic_20210921_logNormShiftAmp_detection_fixS,2020.1.2,Win32,60,,,,,,,,,,,,,,,,,,,,,,,,,,,,,,1,5.7357,,0,0,25,25,58,1,stimuli/stim_20210706_power2amp/equal_lnn_AM3.6Hz_s35_42.m4a,,,,,,,,,,,,
,,,,,41822,2021-09-26_13h58.01.571,judgeSpeechMusic_20210921_logNormShiftAmp_detection_fixS,2020.1.2,Win32,60,,,,,,,,,,,,,,,,,,,,,,,,,,,,,,2,6.089,,0,0,26,26,19,1,stimuli/stim_20210706_power2amp/equal_lnn_AM1.2Hz_s35_11.m4a,,,,,,,,,,,,
,,,,,41822,2021-09-26_13h58.01.571,judgeSpeechMusic_20210921_logNormShiftAmp_detection_fixS,2020.1.2,Win32,60,,,,,,,,,,,,,,,,,,,,,,,,,,,,,,2,6.435,,0,0,27,27,65,1,stimuli/stim_20210706_power2amp/equal_lnn_AM4.2Hz_s35_10.m4a,,,,,,,,,,,,
,,,,,41822,2021-09-26_13h58.01.571,judgeSpeechMusic_20210921_logNormShiftAmp_detection_fixS,2020.1.2,Win32,60,,,,,,,,,,,,,,,,,,,,,,,,,,,,,,2,5.7344,,0,0,28,28,46,1,stimuli/stim_20210706_power2amp/equal_lnn_AM3.6Hz_s35_11.m4a,,,,,,,,,,,,
,,,,,41822,2021-09-26_13h58.01.571,judgeSpeechMusic_20210921_logNormShiftAmp_detection_fixS,2020.1.2,Win32,60,,,,,,,,,,,,,,,,,,,,,,,,,,,,,,2,7.5177,,0,0,29,29,38,1,stimuli/stim_20210706_power2amp/equal_lnn_AM2.4Hz_s35_5.m4a,,,,,,,,,,,,
,,,,,41822,2021-09-26_13h58.01.571,judgeSpeechMusic_20210921_logNormShiftAmp_detection_fixS,2020.1.2,Win32,60,,,,,,,,,,,,,,,,,,,,,,,,,,,,,,1,8.6189,,0,0,30,30,28,1,stimuli/stim_20210706_power2amp/equal_lnn_AM1.2Hz_s35_25.m4a,,,,,,,,,,,,
,,,,,41822,2021-09-26_13h58.01.571,judgeSpeechMusic_20210921_logNormShiftAmp_detection_fixS,2020.1.2,Win32,60,,,,,,,,,,,,,,,,,,,,,,,,,,,,,,2,5.6252,,0,0,31,31,31,1,stimuli/stim_20210706_power2amp/equal_lnn_AM2.4Hz_s35_48.m4a,,,,,,,,,,,,
,,,,,41822,2021-09-26_13h58.01.571,judgeSpeechMusic_20210921_logNormShiftAmp_detection_fixS,2020.1.2,Win32,60,,,,,,,,,,,,,,,,,,,,,,,,,,,,,,1,5.65,,0,0,32,32,10,1,stimuli/stim_20210706_power2amp/equal_lnn_AM0.6Hz_s35_18.m4a,,,,,,,,,,,,
,,,,,41822,2021-09-26_13h58.01.571,judgeSpeechMusic_20210921_logNormShiftAmp_detection_fixS,2020.1.2,Win32,60,,,,,,,,,,,,,,,,,,,,,,,,,,,,,,1,5.972,,0,0,33,33,36,1,stimuli/stim_20210706_power2amp/equal_lnn_AM2.4Hz_s35_35.m4a,,,,,,,,,,,,
,,,,,41822,2021-09-26_13h58.01.571,judgeSpeechMusic_20210921_logNormShiftAmp_detection_fixS,2020.1.2,Win32,60,,,,,,,,,,,,,,,,,,,,,,,,,,,,,,1,7.665,,0,0,34,34,6,1,stimuli/stim_20210706_power2amp/equal_lnn_AM0.6Hz_s35_32.m4a,,,,,,,,,,,,
,,,,,41822,2021-09-26_13h58.01.571,judgeSpeechMusic_20210921_logNormShiftAmp_detection_fixS,2020.1.2,Win32,60,,,,,,,,,,,,,,,,,,,,,,,,,,,,,,2,7.3485,,0,0,35,35,64,1,stimuli/stim_20210706_power2amp/equal_lnn_AM4.2Hz_s35_31.m4a,,,,,,,,,,,,
,,,,,41822,2021-09-26_13h58.01.571,judgeSpeechMusic_20210921_logNormShiftAmp_detection_fixS,2020.1.2,Win32,60,,,,,,,,,,,,,,,,,,,,,,,,,,,,,,2,6.7339,,0,0,36,36,30,1,stimuli/stim_20210706_power2amp/equal_lnn_AM2.4Hz_s35_9.m4a,,,,,,,,,,,,
,,,,,41822,2021-09-26_13h58.01.571,judgeSpeechMusic_20210921_logNormShiftAmp_detection_fixS,2020.1.2,Win32,60,,,,,,,,,,,,,,,,,,,,,,,,,,,,,,1,11.444,,0,0,37,37,16,1,stimuli/stim_20210706_power2amp/equal_lnn_AM1.2Hz_s35_2.m4a,,,,,,,,,,,,
,,,,,41822,2021-09-26_13h58.01.571,judgeSpeechMusic_20210921_logNormShiftAmp_detection_fixS,2020.1.2,Win32,60,,,,,,,,,,,,,,,,,,,,,,,,,,,,,,1,6.8595,,0,0,38,38,35,1,stimuli/stim_20210706_power2amp/equal_lnn_AM2.4Hz_s35_10.m4a,,,,,,,,,,,,
,,,,,41822,2021-09-26_13h58.01.571,judgeSpeechMusic_20210921_logNormShiftAmp_detection_fixS,2020.1.2,Win32,60,,,,,,,,,,,,,,,,,,,,,,,,,,,,,,1,9.1048,,0,0,39,39,45,1,stimuli/stim_20210706_power2amp/equal_lnn_AM3.6Hz_s35_47.m4a,,,,,,,,,,,,
,,,,,41822,2021-09-26_13h58.01.571,judgeSpeechMusic_20210921_logNormShiftAmp_detection_fixS,2020.1.2,Win32,60,,,,,,,,,,,,,,,,,,,,,,,,,,,,,,1,6.9131,1,1,0,40,40,50,1,stimuli/stim_20210706_power2amp/equal_lnn_AM3.6Hz_s35_2.m4a,1.2884,,,,,,,,,,,
,,,,,41822,2021-09-26_13h58.01.571,judgeSpeechMusic_20210921_logNormShiftAmp_detection_fixS,2020.1.2,Win32,60,,,,,,,,,,,,,,,,,,,,,,,,,,,,,,1,8.5381,,0,0,41,41,56,1,stimuli/stim_20210706_power2amp/equal_lnn_AM3.6Hz_s35_8.m4a,,,,,,,,,,,,
,,,,,41822,2021-09-26_13h58.01.571,judgeSpeechMusic_20210921_logNormShiftAmp_detection_fixS,2020.1.2,Win32,60,,,,,,,,,,,,,,,,,,,,,,,,,,,,,,2,5.671,,0,0,42,42,60,1,stimuli/stim_20210706_power2amp/equal_lnn_AM4.2Hz_s35_35.m4a,,,,,,,,,,,,
,,,,,41822,2021-09-26_13h58.01.571,judgeSpeechMusic_20210921_logNormShiftAmp_detection_fixS,2020.1.2,Win32,60,,,,,,,,,,,,,,,,,,,,,,,,,,,,,,2,5.5993,,0,0,43,43,53,1,stimuli/stim_20210706_power2amp/equal_lnn_AM3.6Hz_s35_46.m4a,,,,,,,,,,,,
,,,,,41822,2021-09-26_13h58.01.571,judgeSpeechMusic_20210921_logNormShiftAmp_detection_fixS,2020.1.2,Win32,60,,,,,,,,,,,,,,,,,,,,,,,,,,,,,,1,6.4994,,0,0,44,44,25,1,stimuli/stim_20210706_power2amp/equal_lnn_AM1.2Hz_s35_38.m4a,,,,,,,,,,,,
,,,,,41822,2021-09-26_13h58.01.571,judgeSpeechMusic_20210921_logNormShiftAmp_detection_fixS,2020.1.2,Win32,60,,,,,,,,,,,,,,,,,,,,,,,,,,,,,,2,5.6163,,0,0,45,45,51,1,stimuli/stim_20210706_power2amp/equal_lnn_AM3.6Hz_s35_39.m4a,,,,,,,,,,,,
,,,,,41822,2021-09-26_13h58.01.571,judgeSpeechMusic_20210921_logNormShiftAmp_detection_fixS,2020.1.2,Win32,60,,,,,,,,,,,,,,,,,,,,,,,,,,,,,,1,5.6189,,0,0,46,46,12,1,stimuli/stim_20210706_power2amp/equal_lnn_AM0.6Hz_s35_15.m4a,,,,,,,,,,,,
,,,,,41822,2021-09-26_13h58.01.571,judgeSpeechMusic_20210921_logNormShiftAmp_detection_fixS,2020.1.2,Win32,60,,,,,,,,,,,,,,,,,,,,,,,,,,,,,,1,5.708,,0,0,47,47,34,1,stimuli/stim_20210706_power2amp/equal_lnn_AM2.4Hz_s35_33.m4a,,,,,,,,,,,,
,,,,,41822,2021-09-26_13h58.01.571,judgeSpeechMusic_20210921_logNormShiftAmp_detection_fixS,2020.1.2,Win32,60,,,,,,,,,,,,,,,,,,,,,,,,,,,,,,1,5.3192,,0,0,48,48,26,1,stimuli/stim_20210706_power2amp/equal_lnn_AM1.2Hz_s35_23.m4a,,,,,,,,,,,,
,,,,,41822,2021-09-26_13h58.01.571,judgeSpeechMusic_20210921_logNormShiftAmp_detection_fixS,2020.1.2,Win32,60,,,,,,,,,,,,,,,,,,,,,,,,,,,,,,2,5.2764,,0,0,49,49,21,1,stimuli/stim_20210706_power2amp/equal_lnn_AM1.2Hz_s35_39.m4a,,,,,,,,,,,,
,,,,,41822,2021-09-26_13h58.01.571,judgeSpeechMusic_20210921_logNormShiftAmp_detection_fixS,2020.1.2,Win32,60,,,,,,,,,,,,,,,,,,,,,,,,,,,,,,2,6.3435,,0,0,50,50,69,1,stimuli/stim_20210706_power2amp/equal_lnn_AM4.2Hz_s35_21.m4a,,,,,,,,,,,,
,,,,,41822,2021-09-26_13h58.01.571,judgeSpeechMusic_20210921_logNormShiftAmp_detection_fixS,2020.1.2,Win32,60,,,,,,,,,,,,,,,,,,,,,,,,,,,,,,2,5.9214,,0,0,51,51,47,1,stimuli/stim_20210706_power2amp/equal_lnn_AM3.6Hz_s35_6.m4a,,,,,,,,,,,,
,,,,,41822,2021-09-26_13h58.01.571,judgeSpeechMusic_20210921_logNormShiftAmp_detection_fixS,2020.1.2,Win32,60,,,,,,,,,,,,,,,,,,,,,,,,,,,,,,2,6.8021,,0,0,52,52,39,1,stimuli/stim_20210706_power2amp/equal_lnn_AM2.4Hz_s35_41.m4a,,,,,,,,,,,,
,,,,,41822,2021-09-26_13h58.01.571,judgeSpeechMusic_20210921_logNormShiftAmp_detection_fixS,2020.1.2,Win32,60,,,,,,,,,,,,,,,,,,,,,,,,,,,,,,1,6.899,,0,0,53,53,42,1,stimuli/stim_20210706_power2amp/equal_lnn_AM2.4Hz_s35_2.m4a,,,,,,,,,,,,
,,,,,41822,2021-09-26_13h58.01.571,judgeSpeechMusic_20210921_logNormShiftAmp_detection_fixS,2020.1.2,Win32,60,,,,,,,,,,,,,,,,,,,,,,,,,,,,,,1,6.0681,,0,0,54,54,9,1,stimuli/stim_20210706_power2amp/equal_lnn_AM0.6Hz_s35_28.m4a,,,,,,,,,,,,
,,,,,41822,2021-09-26_13h58.01.571,judgeSpeechMusic_20210921_logNormShiftAmp_detection_fixS,2020.1.2,Win32,60,,,,,,,,,,,,,,,,,,,,,,,,,,,,,,1,5.9046,,0,0,55,55,0,1,stimuli/stim_20210706_power2amp/equal_lnn_AM0.6Hz_s35_34.m4a,,,,,,,,,,,,
,,,,,41822,2021-09-26_13h58.01.571,judgeSpeechMusic_20210921_logNormShiftAmp_detection_fixS,2020.1.2,Win32,60,,,,,,,,,,,,,,,,,,,,,,,,,,,,,,1,5.7953,,0,0,56,56,8,1,stimuli/stim_20210706_power2amp/equal_lnn_AM0.6Hz_s35_13.m4a,,,,,,,,,,,,
,,,,,41822,2021-09-26_13h58.01.571,judgeSpeechMusic_20210921_logNormShiftAmp_detection_fixS,2020.1.2,Win32,60,,,,,,,,,,,,,,,,,,,,,,,,,,,,,,2,5.9038,,0,0,57,57,63,1,stimuli/stim_20210706_power2amp/equal_lnn_AM4.2Hz_s35_16.m4a,,,,,,,,,,,,
,,,,,41822,2021-09-26_13h58.01.571,judgeSpeechMusic_20210921_logNormShiftAmp_detection_fixS,2020.1.2,Win32,60,,,,,,,,,,,,,,,,,,,,,,,,,,,,,,2,8.8538,1,1,0,58,58,49,1,stimuli/stim_20210706_power2amp/equal_lnn_AM3.6Hz_s35_3.m4a,3.1351,,,,,,,,,,,
,,,,,41822,2021-09-26_13h58.01.571,judgeSpeechMusic_20210921_logNormShiftAmp_detection_fixS,2020.1.2,Win32,60,,,,,,,,,,,,,,,,,,,,,,,,,,,,,,1,7.7513,,0,0,59,59,73,1,stimuli/stim_20210706_power2amp/equal_lnn_AM4.2Hz_s35_27.m4a,,,,,,,,,,,,
,,,,,41822,2021-09-26_13h58.01.571,judgeSpeechMusic_20210921_logNormShiftAmp_detection_fixS,2020.1.2,Win32,60,,,,,,,,,,,,,,,,,,,,,,,,,,,,,,2,7.9648,,0,0,60,60,48,1,stimuli/stim_20210706_power2amp/equal_lnn_AM3.6Hz_s35_4.m4a,,,,,,,,,,,,
,,,,,41822,2021-09-26_13h58.01.571,judgeSpeechMusic_20210921_logNormShiftAmp_detection_fixS,2020.1.2,Win32,60,,,,,,,,,,,,,,,,,,,,,,,,,,,,,,1,7.732,,0,0,61,61,72,1,stimuli/stim_20210706_power2amp/equal_lnn_AM4.2Hz_s35_50.m4a,,,,,,,,,,,,
,,,,,41822,2021-09-26_13h58.01.571,judgeSpeechMusic_20210921_logNormShiftAmp_detection_fixS,2020.1.2,Win32,60,,,,,,,,,,,,,,,,,,,,,,,,,,,,,,2,6.1228,,0,0,62,62,66,1,stimuli/stim_20210706_power2amp/equal_lnn_AM4.2Hz_s35_14.m4a,,,,,,,,,,,,
,,,,,41822,2021-09-26_13h58.01.571,judgeSpeechMusic_20210921_logNormShiftAmp_detection_fixS,2020.1.2,Win32,60,,,,,,,,,,,,,,,,,,,,,,,,,,,,,,2,5.8433,,0,0,63,63,71,1,stimuli/stim_20210706_power2amp/equal_lnn_AM4.2Hz_s35_40.m4a,,,,,,,,,,,,
,,,,,41822,2021-09-26_13h58.01.571,judgeSpeechMusic_20210921_logNormShiftAmp_detection_fixS,2020.1.2,Win32,60,,,,,,,,,,,,,,,,,,,,,,,,,,,,,,2,5.5663,,0,0,64,64,67,1,stimuli/stim_20210706_power2amp/equal_lnn_AM4.2Hz_s35_30.m4a,,,,,,,,,,,,
,,,,,41822,2021-09-26_13h58.01.571,judgeSpeechMusic_20210921_logNormShiftAmp_detection_fixS,2020.1.2,Win32,60,,,,,,,,,,,,,,,,,,,,,,,,,,,,,,1,5.7489,,0,0,65,65,4,1,stimuli/stim_20210706_power2amp/equal_lnn_AM0.6Hz_s35_11.m4a,,,,,,,,,,,,
,,,,,41822,2021-09-26_13h58.01.571,judgeSpeechMusic_20210921_logNormShiftAmp_detection_fixS,2020.1.2,Win32,60,,,,,,,,,,,,,,,,,,,,,,,,,,,,,,2,5.6232,,0,0,66,66,57,1,stimuli/stim_20210706_power2amp/equal_lnn_AM3.6Hz_s35_23.m4a,,,,,,,,,,,,
,,,,,41822,2021-09-26_13h58.01.571,judgeSpeechMusic_20210921_logNormShiftAmp_detection_fixS,2020.1.2,Win32,60,,,,,,,,,,,,,,,,,,,,,,,,,,,,,,2,5.2828,,0,0,67,67,44,1,stimuli/stim_20210706_power2amp/equal_lnn_AM2.4Hz_s35_25.m4a,,,,,,,,,,,,
,,,,,41822,2021-09-26_13h58.01.571,judgeSpeechMusic_20210921_logNormShiftAmp_detection_fixS,2020.1.2,Win32,60,,,,,,,,,,,,,,,,,,,,,,,,,,,,,,1,5.3886,,0,0,68,68,29,1,stimuli/stim_20210706_power2amp/equal_lnn_AM1.2Hz_s35_44.m4a,,,,,,,,,,,,
,,,,,41822,2021-09-26_13h58.01.571,judgeSpeechMusic_20210921_logNormShiftAmp_detection_fixS,2020.1.2,Win32,60,,,,,,,,,,,,,,,,,,,,,,,,,,,,,,1,5.4745,,0,0,69,69,24,1,stimuli/stim_20210706_power2amp/equal_lnn_AM1.2Hz_s35_36.m4a,,,,,,,,,,,,
,,,,,41822,2021-09-26_13h58.01.571,judgeSpeechMusic_20210921_logNormShiftAmp_detection_fixS,2020.1.2,Win32,60,,,,,,,,,,,,,,,,,,,,,,,,,,,,,,1,5.5317,,0,0,70,70,14,1,stimuli/stim_20210706_power2amp/equal_lnn_AM0.6Hz_s35_39.m4a,,,,,,,,,,,,
,,,,,41822,2021-09-26_13h58.01.571,judgeSpeechMusic_20210921_logNormShiftAmp_detection_fixS,2020.1.2,Win32,60,,,,,,,,,,,,,,,,,,,,,,,,,,,,,,1,5.5685,,0,0,71,71,5,1,stimuli/stim_20210706_power2amp/equal_lnn_AM0.6Hz_s35_29.m4a,,,,,,,,,,,,
,,,,,41822,2021-09-26_13h58.01.571,judgeSpeechMusic_20210921_logNormShiftAmp_detection_fixS,2020.1.2,Win32,60,,,,,,,,,,,,,,,,,,,,,,,,,,,,,,1,5.6331,,0,0,72,72,23,1,stimuli/stim_20210706_power2amp/equal_lnn_AM1.2Hz_s35_28.m4a,,,,,,,,,,,,
,,,,,41822,2021-09-26_13h58.01.571,judgeSpeechMusic_20210921_logNormShiftAmp_detection_fixS,2020.1.2,Win32,60,,,,,,,,,,,,,,,,,,,,,,,,,,,,,,1,5.7202,,0,0,73,73,22,1,stimuli/stim_20210706_power2amp/equal_lnn_AM1.2Hz_s35_16.m4a,,,,,,,,,,,,
,,,,,41822,2021-09-26_13h58.01.571,judgeSpeechMusic_20210921_logNormShiftAmp_detection_fixS,2020.1.2,Win32,60,,,,,,,,,,,,,,,,,,,,,,,,,,,,,,2,6.2157,,0,0,74,74,55,1,stimuli/stim_20210706_power2amp/equal_lnn_AM3.6Hz_s35_21.m4a,,,,,,,,,,,,
,,,,,41822,2021-09-26_13h58.01.571,judgeSpeechMusic_20210921_logNormShiftAmp_detection_fixS,2020.1.2,Win32,60,,,,,,,,,,,,,,,,,,,,,,,,,,,,,,,,,,,,,,,,,space,1.7219,0,1,1,1,1,SPEECH,stimuli/SPEECH.jpg,,
,,,,,41822,2021-09-26_13h58.01.571,judgeSpeechMusic_20210921_logNormShiftAmp_detection_fixS,2020.1.2,Win32,60,,,,,,,,,,,,,,,,,,0,0,0,0,2,1,stimuli/stim_20210706_power2amp/equal_lnn_AM_training3Hz_s35.m4a,,,,,,,,,,,,,,,,,,,,,,,,,,,
,,,,,41822,2021-09-26_13h58.01.571,judgeSpeechMusic_20210921_logNormShiftAmp_detection_fixS,2020.1.2,Win32,60,,,,,,,,,,,,,,,,,,,,,,,,,,space,5.9301,space,2.1332,1,7.9463,,0,0,0,0,41,1,stimuli/stim_20210706_power2amp/equal_lnn_AM2.4Hz_s35_30.m4a,,,,,,,,,,,,
,,,,,41822,2021-09-26_13h58.01.571,judgeSpeechMusic_20210921_logNormShiftAmp_detection_fixS,2020.1.2,Win32,60,,,,,,,,,,,,,,,,,,,,,,,,,,,,,,2,5.9329,,0,0,1,1,11,1,stimuli/stim_20210706_power2amp/equal_lnn_AM0.6Hz_s35_14.m4a,,,,,,,,,,,,
,,,,,41822,2021-09-26_13h58.01.571,judgeSpeechMusic_20210921_logNormShiftAmp_detection_fixS,2020.1.2,Win32,60,,,,,,,,,,,,,,,,,,,,,,,,,,,,,,2,5.6075,,0,0,2,2,8,1,stimuli/stim_20210706_power2amp/equal_lnn_AM0.6Hz_s35_13.m4a,,,,,,,,,,,,
,,,,,41822,2021-09-26_13h58.01.571,judgeSpeechMusic_20210921_logNormShiftAmp_detection_fixS,2020.1.2,Win32,60,,,,,,,,,,,,,,,,,,,,,,,,,,,,,,2,6.2209,,0,0,3,3,0,1,stimuli/stim_20210706_power2amp/equal_lnn_AM0.6Hz_s35_34.m4a,,,,,,,,,,,,
,,,,,41822,2021-09-26_13h58.01.571,judgeSpeechMusic_20210921_logNormShiftAmp_detection_fixS,2020.1.2,Win32,60,,,,,,,,,,,,,,,,,,,,,,,,,,,,,,1,6.025,,0,0,4,4,13,1,stimuli/stim_20210706_power2amp/equal_lnn_AM0.6Hz_s35_2.m4a,,,,,,,,,,,,
,,,,,41822,2021-09-26_13h58.01.571,judgeSpeechMusic_20210921_logNormShiftAmp_detection_fixS,2020.1.2,Win32,60,,,,,,,,,,,,,,,,,,,,,,,,,,,,,,1,5.8757,,0,0,5,5,54,1,stimuli/stim_20210706_power2amp/equal_lnn_AM3.6Hz_s35_45.m4a,,,,,,,,,,,,
,,,,,41822,2021-09-26_13h58.01.571,judgeSpeechMusic_20210921_logNormShiftAmp_detection_fixS,2020.1.2,Win32,60,,,,,,,,,,,,,,,,,,,,,,,,,,,,,,2,5.7731,,0,0,6,6,49,1,stimuli/stim_20210706_power2amp/equal_lnn_AM3.6Hz_s35_3.m4a,,,,,,,,,,,,
,,,,,41822,2021-09-26_13h58.01.571,judgeSpeechMusic_20210921_logNormShiftAmp_detection_fixS,2020.1.2,Win32,60,,,,,,,,,,,,,,,,,,,,,,,,,,,,,,2,5.2576,,0,0,7,7,55,1,stimuli/stim_20210706_power2amp/equal_lnn_AM3.6Hz_s35_21.m4a,,,,,,,,,,,,
,,,,,41822,2021-09-26_13h58.01.571,judgeSpeechMusic_20210921_logNormShiftAmp_detection_fixS,2020.1.2,Win32,60,,,,,,,,,,,,,,,,,,,,,,,,,,,,,,2,5.5238,,0,0,8,8,21,1,stimuli/stim_20210706_power2amp/equal_lnn_AM1.2Hz_s35_39.m4a,,,,,,,,,,,,
,,,,,41822,2021-09-26_13h58.01.571,judgeSpeechMusic_20210921_logNormShiftAmp_detection_fixS,2020.1.2,Win32,60,,,,,,,,,,,,,,,,,,,,,,,,,,,,,,2,5.5381,,0,0,9,9,60,1,stimuli/stim_20210706_power2amp/equal_lnn_AM4.2Hz_s35_35.m4a,,,,,,,,,,,,
,,,,,41822,2021-09-26_13h58.01.571,judgeSpeechMusic_20210921_logNormShiftAmp_detection_fixS,2020.1.2,Win32,60,,,,,,,,,,,,,,,,,,,,,,,,,,,,,,1,8.1165,,0,0,10,10,4,1,stimuli/stim_20210706_power2amp/equal_lnn_AM0.6Hz_s35_11.m4a,,,,,,,,,,,,
,,,,,41822,2021-09-26_13h58.01.571,judgeSpeechMusic_20210921_logNormShiftAmp_detection_fixS,2020.1.2,Win32,60,,,,,,,,,,,,,,,,,,,,,,,,,,,,,,1,13.0923,,0,0,11,11,69,1,stimuli/stim_20210706_power2amp/equal_lnn_AM4.2Hz_s35_21.m4a,,,,,,,,,,,,
,,,,,41822,2021-09-26_13h58.01.571,judgeSpeechMusic_20210921_logNormShiftAmp_detection_fixS,2020.1.2,Win32,60,,,,,,,,,,,,,,,,,,,,,,,,,,,,,,1,8.2004,,0,0,12,12,1,1,stimuli/stim_20210706_power2amp/equal_lnn_AM0.6Hz_s35_17.m4a,,,,,,,,,,,,
,,,,,41822,2021-09-26_13h58.01.571,judgeSpeechMusic_20210921_logNormShiftAmp_detection_fixS,2020.1.2,Win32,60,,,,,,,,,,,,,,,,,,,,,,,,,,,,,,1,6.1746,,0,0,13,13,31,1,stimuli/stim_20210706_power2amp/equal_lnn_AM2.4Hz_s35_48.m4a,,,,,,,,,,,,
,,,,,41822,2021-09-26_13h58.01.571,judgeSpeechMusic_20210921_logNormShiftAmp_detection_fixS,2020.1.2,Win32,60,,,,,,,,,,,,,,,,,,,,,,,,,,,,,,2,5.5798,,0,0,14,14,37,1,stimuli/stim_20210706_power2amp/equal_lnn_AM2.4Hz_s35_23.m4a,,,,,,,,,,,,
,,,,,41822,2021-09-26_13h58.01.571,judgeSpeechMusic_20210921_logNormShiftAmp_detection_fixS,2020.1.2,Win32,60,,,,,,,,,,,,,,,,,,,,,,,,,,,,,,1,7.0834,,0,0,15,15,51,1,stimuli/stim_20210706_power2amp/equal_lnn_AM3.6Hz_s35_39.m4a,,,,,,,,,,,,
,,,,,41822,2021-09-26_13h58.01.571,judgeSpeechMusic_20210921_logNormShiftAmp_detection_fixS,2020.1.2,Win32,60,,,,,,,,,,,,,,,,,,,,,,,,,,,,,,2,5.5503,,0,0,16,16,71,1,stimuli/stim_20210706_power2amp/equal_lnn_AM4.2Hz_s35_40.m4a,,,,,,,,,,,,
,,,,,41822,2021-09-26_13h58.01.571,judgeSpeechMusic_20210921_logNormShiftAmp_detection_fixS,2020.1.2,Win32,60,,,,,,,,,,,,,,,,,,,,,,,,,,,,,,2,5.9289,,0,0,17,17,63,1,stimuli/stim_20210706_power2amp/equal_lnn_AM4.2Hz_s35_16.m4a,,,,,,,,,,,,
,,,,,41822,2021-09-26_13h58.01.571,judgeSpeechMusic_20210921_logNormShiftAmp_detection_fixS,2020.1.2,Win32,60,,,,,,,,,,,,,,,,,,,,,,,,,,,,,,1,7.1204,,0,0,18,18,53,1,stimuli/stim_20210706_power2amp/equal_lnn_AM3.6Hz_s35_46.m4a,,,,,,,,,,,,
,,,,,41822,2021-09-26_13h58.01.571,judgeSpeechMusic_20210921_logNormShiftAmp_detection_fixS,2020.1.2,Win32,60,,,,,,,,,,,,,,,,,,,,,,,,,,,,,,1,6.483,,0,0,19,19,39,1,stimuli/stim_20210706_power2amp/equal_lnn_AM2.4Hz_s35_41.m4a,,,,,,,,,,,,
,,,,,41822,2021-09-26_13h58.01.571,judgeSpeechMusic_20210921_logNormShiftAmp_detection_fixS,2020.1.2,Win32,60,,,,,,,,,,,,,,,,,,,,,,,,,,,,,,1,6.5659,,0,0,20,20,28,1,stimuli/stim_20210706_power2amp/equal_lnn_AM1.2Hz_s35_25.m4a,,,,,,,,,,,,
,,,,,41822,2021-09-26_13h58.01.571,judgeSpeechMusic_20210921_logNormShiftAmp_detection_fixS,2020.1.2,Win32,60,,,,,,,,,,,,,,,,,,,,,,,,,,,,,,1,5.495,2,1,0,21,21,20,1,stimuli/stim_20210706_power2amp/equal_lnn_AM1.2Hz_s35_35.m4a,1.2979,,,,,,,,,,,
,,,,,41822,2021-09-26_13h58.01.571,judgeSpeechMusic_20210921_logNormShiftAmp_detection_fixS,2020.1.2,Win32,60,,,,,,,,,,,,,,,,,,,,,,,,,,,,,,1,5.5165,,0,0,22,22,5,1,stimuli/stim_20210706_power2amp/equal_lnn_AM0.6Hz_s35_29.m4a,,,,,,,,,,,,
,,,,,41822,2021-09-26_13h58.01.571,judgeSpeechMusic_20210921_logNormShiftAmp_detection_fixS,2020.1.2,Win32,60,,,,,,,,,,,,,,,,,,,,,,,,,,,,,,1,5.717,,0,0,23,23,40,1,stimuli/stim_20210706_power2amp/equal_lnn_AM2.4Hz_s35_44.m4a,,,,,,,,,,,,
,,,,,41822,2021-09-26_13h58.01.571,judgeSpeechMusic_20210921_logNormShiftAmp_detection_fixS,2020.1.2,Win32,60,,,,,,,,,,,,,,,,,,,,,,,,,,,,,,1,5.5942,,0,0,24,24,56,1,stimuli/stim_20210706_power2amp/equal_lnn_AM3.6Hz_s35_8.m4a,,,,,,,,,,,,
,,,,,41822,2021-09-26_13h58.01.571,judgeSpeechMusic_20210921_logNormShiftAmp_detection_fixS,2020.1.2,Win32,60,,,,,,,,,,,,,,,,,,,,,,,,,,,,,,2,5.5826,,0,0,25,25,52,1,stimuli/stim_20210706_power2amp/equal_lnn_AM3.6Hz_s35_27.m4a,,,,,,,,,,,,
,,,,,41822,2021-09-26_13h58.01.571,judgeSpeechMusic_20210921_logNormShiftAmp_detection_fixS,2020.1.2,Win32,60,,,,,,,,,,,,,,,,,,,,,,,,,,,,,,2,5.6349,,0,0,26,26,29,1,stimuli/stim_20210706_power2amp/equal_lnn_AM1.2Hz_s35_44.m4a,,,,,,,,,,,,
,,,,,41822,2021-09-26_13h58.01.571,judgeSpeechMusic_20210921_logNormShiftAmp_detection_fixS,2020.1.2,Win32,60,,,,,,,,,,,,,,,,,,,,,,,,,,,,,,1,7.4264,,0,0,27,27,9,1,stimuli/stim_20210706_power2amp/equal_lnn_AM0.6Hz_s35_28.m4a,,,,,,,,,,,,
,,,,,41822,2021-09-26_13h58.01.571,judgeSpeechMusic_20210921_logNormShiftAmp_detection_fixS,2020.1.2,Win32,60,,,,,,,,,,,,,,,,,,,,,,,,,,,,,,1,5.9667,,0,0,28,28,25,1,stimuli/stim_20210706_power2amp/equal_lnn_AM1.2Hz_s35_38.m4a,,,,,,,,,,,,
,,,,,41822,2021-09-26_13h58.01.571,judgeSpeechMusic_20210921_logNormShiftAmp_detection_fixS,2020.1.2,Win32,60,,,,,,,,,,,,,,,,,,,,,,,,,,,,,,1,5.5436,,0,0,29,29,15,1,stimuli/stim_20210706_power2amp/equal_lnn_AM1.2Hz_s35_7.m4a,,,,,,,,,,,,
,,,,,41822,2021-09-26_13h58.01.571,judgeSpeechMusic_20210921_logNormShiftAmp_detection_fixS,2020.1.2,Win32,60,,,,,,,,,,,,,,,,,,,,,,,,,,,,,,2,5.6737,,0,0,30,30,65,1,stimuli/stim_20210706_power2amp/equal_lnn_AM4.2Hz_s35_10.m4a,,,,,,,,,,,,
,,,,,41822,2021-09-26_13h58.01.571,judgeSpeechMusic_20210921_logNormShiftAmp_detection_fixS,2020.1.2,Win32,60,,,,,,,,,,,,,,,,,,,,,,,,,,,,,,2,5.6002,,0,0,31,31,59,1,stimuli/stim_20210706_power2amp/equal_lnn_AM3.6Hz_s35_37.m4a,,,,,,,,,,,,
,,,,,41822,2021-09-26_13h58.01.571,judgeSpeechMusic_20210921_logNormShiftAmp_detection_fixS,2020.1.2,Win32,60,,,,,,,,,,,,,,,,,,,,,,,,,,,,,,2,5.8297,,0,0,32,32,45,1,stimuli/stim_20210706_power2amp/equal_lnn_AM3.6Hz_s35_47.m4a,,,,,,,,,,,,
,,,,,41822,2021-09-26_13h58.01.571,judgeSpeechMusic_20210921_logNormShiftAmp_detection_fixS,2020.1.2,Win32,60,,,,,,,,,,,,,,,,,,,,,,,,,,,,,,2,5.965,,0,0,33,33,73,1,stimuli/stim_20210706_power2amp/equal_lnn_AM4.2Hz_s35_27.m4a,,,,,,,,,,,,
,,,,,41822,2021-09-26_13h58.01.571,judgeSpeechMusic_20210921_logNormShiftAmp_detection_fixS,2020.1.2,Win32,60,,,,,,,,,,,,,,,,,,,,,,,,,,,,,,2,6.8352,,0,0,34,34,47,1,stimuli/stim_20210706_power2amp/equal_lnn_AM3.6Hz_s35_6.m4a,,,,,,,,,,,,
,,,,,41822,2021-09-26_13h58.01.571,judgeSpeechMusic_20210921_logNormShiftAmp_detection_fixS,2020.1.2,Win32,60,,,,,,,,,,,,,,,,,,,,,,,,,,,,,,2,5.6842,,0,0,35,35,46,1,stimuli/stim_20210706_power2amp/equal_lnn_AM3.6Hz_s35_11.m4a,,,,,,,,,,,,
,,,,,41822,2021-09-26_13h58.01.571,judgeSpeechMusic_20210921_logNormShiftAmp_detection_fixS,2020.1.2,Win32,60,,,,,,,,,,,,,,,,,,,,,,,,,,,,,,1,6.2917,,0,0,36,36,70,1,stimuli/stim_20210706_power2amp/equal_lnn_AM4.2Hz_s35_13.m4a,,,,,,,,,,,,
,,,,,41822,2021-09-26_13h58.01.571,judgeSpeechMusic_20210921_logNormShiftAmp_detection_fixS,2020.1.2,Win32,60,,,,,,,,,,,,,,,,,,,,,,,,,,,,,,1,5.5624,,0,0,37,37,42,1,stimuli/stim_20210706_power2amp/equal_lnn_AM2.4Hz_s35_2.m4a,,,,,,,,,,,,
,,,,,41822,2021-09-26_13h58.01.571,judgeSpeechMusic_20210921_logNormShiftAmp_detection_fixS,2020.1.2,Win32,60,,,,,,,,,,,,,,,,,,,,,,,,,,,,,,1,5.6347,,0,0,38,38,26,1,stimuli/stim_20210706_power2amp/equal_lnn_AM1.2Hz_s35_23.m4a,,,,,,,,,,,,
,,,,,41822,2021-09-26_13h58.01.571,judgeSpeechMusic_20210921_logNormShiftAmp_detection_fixS,2020.1.2,Win32,60,,,,,,,,,,,,,,,,,,,,,,,,,,,,,,2,5.828,,0,0,39,39,17,1,stimuli/stim_20210706_power2amp/equal_lnn_AM1.2Hz_s35_47.m4a,,,,,,,,,,,,
,,,,,41822,2021-09-26_13h58.01.571,judgeSpeechMusic_20210921_logNormShiftAmp_detection_fixS,2020.1.2,Win32,60,,,,,,,,,,,,,,,,,,,,,,,,,,,,,,1,5.7249,1,1,0,40,40,2,1,stimuli/stim_20210706_power2amp/equal_lnn_AM0.6Hz_s35_38.m4a,0.9755,,,,,,,,,,,
,,,,,41822,2021-09-26_13h58.01.571,judgeSpeechMusic_20210921_logNormShiftAmp_detection_fixS,2020.1.2,Win32,60,,,,,,,,,,,,,,,,,,,,,,,,,,,,,,1,5.7341,,0,0,41,41,14,1,stimuli/stim_20210706_power2amp/equal_lnn_AM0.6Hz_s35_39.m4a,,,,,,,,,,,,
,,,,,41822,2021-09-26_13h58.01.571,judgeSpeechMusic_20210921_logNormShiftAmp_detection_fixS,2020.1.2,Win32,60,,,,,,,,,,,,,,,,,,,,,,,,,,,,,,2,5.5165,,0,0,42,42,33,1,stimuli/stim_20210706_power2amp/equal_lnn_AM2.4Hz_s35_8.m4a,,,,,,,,,,,,
,,,,,41822,2021-09-26_13h58.01.571,judgeSpeechMusic_20210921_logNormShiftAmp_detection_fixS,2020.1.2,Win32,60,,,,,,,,,,,,,,,,,,,,,,,,,,,,,,2,5.4077,,0,0,43,43,24,1,stimuli/stim_20210706_power2amp/equal_lnn_AM1.2Hz_s35_36.m4a,,,,,,,,,,,,
,,,,,41822,2021-09-26_13h58.01.571,judgeSpeechMusic_20210921_logNormShiftAmp_detection_fixS,2020.1.2,Win32,60,,,,,,,,,,,,,,,,,,,,,,,,,,,,,,2,5.4854,,0,0,44,44,58,1,stimuli/stim_20210706_power2amp/equal_lnn_AM3.6Hz_s35_42.m4a,,,,,,,,,,,,
,,,,,41822,2021-09-26_13h58.01.571,judgeSpeechMusic_20210921_logNormShiftAmp_detection_fixS,2020.1.2,Win32,60,,,,,,,,,,,,,,,,,,,,,,,,,,,,,,1,6.3326,,0,0,45,45,12,1,stimuli/stim_20210706_power2amp/equal_lnn_AM0.6Hz_s35_15.m4a,,,,,,,,,,,,
,,,,,41822,2021-09-26_13h58.01.571,judgeSpeechMusic_20210921_logNormShiftAmp_detection_fixS,2020.1.2,Win32,60,,,,,,,,,,,,,,,,,,,,,,,,,,,,,,1,6.167,,0,0,46,46,74,1,stimuli/stim_20210706_power2amp/equal_lnn_AM4.2Hz_s35_23.m4a,,,,,,,,,,,,
,,,,,41822,2021-09-26_13h58.01.571,judgeSpeechMusic_20210921_logNormShiftAmp_detection_fixS,2020.1.2,Win32,60,,,,,,,,,,,,,,,,,,,,,,,,,,,,,,1,5.5399,,0,0,47,47,50,1,stimuli/stim_20210706_power2amp/equal_lnn_AM3.6Hz_s35_2.m4a,,,,,,,,,,,,
,,,,,41822,2021-09-26_13h58.01.571,judgeSpeechMusic_20210921_logNormShiftAmp_detection_fixS,2020.1.2,Win32,60,,,,,,,,,,,,,,,,,,,,,,,,,,,,,,1,5.7372,,0,0,48,48,19,1,stimuli/stim_20210706_power2amp/equal_lnn_AM1.2Hz_s35_11.m4a,,,,,,,,,,,,
,,,,,41822,2021-09-26_13h58.01.571,judgeSpeechMusic_20210921_logNormShiftAmp_detection_fixS,2020.1.2,Win32,60,,,,,,,,,,,,,,,,,,,,,,,,,,,,,,1,5.4829,,0,0,49,49,61,1,stimuli/stim_20210706_power2amp/equal_lnn_AM4.2Hz_s35_18.m4a,,,,,,,,,,,,
,,,,,41822,2021-09-26_13h58.01.571,judgeSpeechMusic_20210921_logNormShiftAmp_detection_fixS,2020.1.2,Win32,60,,,,,,,,,,,,,,,,,,,,,,,,,,,,,,2,7.2935,,0,0,50,50,16,1,stimuli/stim_20210706_power2amp/equal_lnn_AM1.2Hz_s35_2.m4a,,,,,,,,,,,,
,,,,,41822,2021-09-26_13h58.01.571,judgeSpeechMusic_20210921_logNormShiftAmp_detection_fixS,2020.1.2,Win32,60,,,,,,,,,,,,,,,,,,,,,,,,,,,,,,1,17.9082,,0,0,51,51,34,1,stimuli/stim_20210706_power2amp/equal_lnn_AM2.4Hz_s35_33.m4a,,,,,,,,,,,,
,,,,,41822,2021-09-26_13h58.01.571,judgeSpeechMusic_20210921_logNormShiftAmp_detection_fixS,2020.1.2,Win32,60,,,,,,,,,,,,,,,,,,,,,,,,,,,,,,1,5.6751,,0,0,52,52,35,1,stimuli/stim_20210706_power2amp/equal_lnn_AM2.4Hz_s35_10.m4a,,,,,,,,,,,,
,,,,,41822,2021-09-26_13h58.01.571,judgeSpeechMusic_20210921_logNormShiftAmp_detection_fixS,2020.1.2,Win32,60,,,,,,,,,,,,,,,,,,,,,,,,,,,,,,1,9.011,,0,0,53,53,48,1,stimuli/stim_20210706_power2amp/equal_lnn_AM3.6Hz_s35_4.m4a,,,,,,,,,,,,
,,,,,41822,2021-09-26_13h58.01.571,judgeSpeechMusic_20210921_logNormShiftAmp_detection_fixS,2020.1.2,Win32,60,,,,,,,,,,,,,,,,,,,,,,,,,,,,,,1,5.8068,,0,0,54,54,43,1,stimuli/stim_20210706_power2amp/equal_lnn_AM2.4Hz_s35_19.m4a,,,,,,,,,,,,
,,,,,41822,2021-09-26_13h58.01.571,judgeSpeechMusic_20210921_logNormShiftAmp_detection_fixS,2020.1.2,Win32,60,,,,,,,,,,,,,,,,,,,,,,,,,,,,,,1,5.521,,0,0,55,55,62,1,stimuli/stim_20210706_power2amp/equal_lnn_AM4.2Hz_s35_19.m4a,,,,,,,,,,,,
,,,,,41822,2021-09-26_13h58.01.571,judgeSpeechMusic_20210921_logNormShiftAmp_detection_fixS,2020.1.2,Win32,60,,,,,,,,,,,,,,,,,,,,,,,,,,,,,,1,6.2427,,0,0,56,56,44,1,stimuli/stim_20210706_power2amp/equal_lnn_AM2.4Hz_s35_25.m4a,,,,,,,,,,,,
,,,,,41822,2021-09-26_13h58.01.571,judgeSpeechMusic_20210921_logNormShiftAmp_detection_fixS,2020.1.2,Win32,60,,,,,,,,,,,,,,,,,,,,,,,,,,,,,,1,21.5874,,0,0,57,57,7,1,stimuli/stim_20210706_power2amp/equal_lnn_AM0.6Hz_s35_1.m4a,,,,,,,,,,,,
,,,,,41822,2021-09-26_13h58.01.571,judgeSpeechMusic_20210921_logNormShiftAmp_detection_fixS,2020.1.2,Win32,60,,,,,,,,,,,,,,,,,,,,,,,,,,,,,,2,5.5194,3,1,0,58,58,72,1,stimuli/stim_20210706_power2amp/equal_lnn_AM4.2Hz_s35_50.m4a,1.1936,,,,,,,,,,,
,,,,,41822,2021-09-26_13h58.01.571,judgeSpeechMusic_20210921_logNormShiftAmp_detection_fixS,2020.1.2,Win32,60,,,,,,,,,,,,,,,,,,,,,,,,,,,,,,2,5.7592,,0,0,59,59,67,1,stimuli/stim_20210706_power2amp/equal_lnn_AM4.2Hz_s35_30.m4a,,,,,,,,,,,,
,,,,,41822,2021-09-26_13h58.01.571,judgeSpeechMusic_20210921_logNormShiftAmp_detection_fixS,2020.1.2,Win32,60,,,,,,,,,,,,,,,,,,,,,,,,,,,,,,1,6.3386,,0,0,60,60,22,1,stimuli/stim_20210706_power2amp/equal_lnn_AM1.2Hz_s35_16.m4a,,,,,,,,,,,,
,,,,,41822,2021-09-26_13h58.01.571,judgeSpeechMusic_20210921_logNormShiftAmp_detection_fixS,2020.1.2,Win32,60,,,,,,,,,,,,,,,,,,,,,,,,,,,,,,1,5.6559,,0,0,61,61,64,1,stimuli/stim_20210706_power2amp/equal_lnn_AM4.2Hz_s35_31.m4a,,,,,,,,,,,,
,,,,,41822,2021-09-26_13h58.01.571,judgeSpeechMusic_20210921_logNormShiftAmp_detection_fixS,2020.1.2,Win32,60,,,,,,,,,,,,,,,,,,,,,,,,,,,,,,2,5.5769,,0,0,62,62,6,1,stimuli/stim_20210706_power2amp/equal_lnn_AM0.6Hz_s35_32.m4a,,,,,,,,,,,,
,,,,,41822,2021-09-26_13h58.01.571,judgeSpeechMusic_20210921_logNormShiftAmp_detection_fixS,2020.1.2,Win32,60,,,,,,,,,,,,,,,,,,,,,,,,,,,,,,2,5.7477,,0,0,63,63,27,1,stimuli/stim_20210706_power2amp/equal_lnn_AM1.2Hz_s35_14.m4a,,,,,,,,,,,,
,,,,,41822,2021-09-26_13h58.01.571,judgeSpeechMusic_20210921_logNormShiftAmp_detection_fixS,2020.1.2,Win32,60,,,,,,,,,,,,,,,,,,,,,,,,,,,,,,1,6.3452,,0,0,64,64,36,1,stimuli/stim_20210706_power2amp/equal_lnn_AM2.4Hz_s35_35.m4a,,,,,,,,,,,,
,,,,,41822,2021-09-26_13h58.01.571,judgeSpeechMusic_20210921_logNormShiftAmp_detection_fixS,2020.1.2,Win32,60,,,,,,,,,,,,,,,,,,,,,,,,,,,,,,1,5.5888,,0,0,65,65,57,1,stimuli/stim_20210706_power2amp/equal_lnn_AM3.6Hz_s35_23.m4a,,,,,,,,,,,,
,,,,,41822,2021-09-26_13h58.01.571,judgeSpeechMusic_20210921_logNormShiftAmp_detection_fixS,2020.1.2,Win32,60,,,,,,,,,,,,,,,,,,,,,,,,,,,,,,1,5.6828,,0,0,66,66,66,1,stimuli/stim_20210706_power2amp/equal_lnn_AM4.2Hz_s35_14.m4a,,,,,,,,,,,,
,,,,,41822,2021-09-26_13h58.01.571,judgeSpeechMusic_20210921_logNormShiftAmp_detection_fixS,2020.1.2,Win32,60,,,,,,,,,,,,,,,,,,,,,,,,,,,,,,1,5.5457,,0,0,67,67,18,1,stimuli/stim_20210706_power2amp/equal_lnn_AM1.2Hz_s35_15.m4a,,,,,,,,,,,,
,,,,,41822,2021-09-26_13h58.01.571,judgeSpeechMusic_20210921_logNormShiftAmp_detection_fixS,2020.1.2,Win32,60,,,,,,,,,,,,,,,,,,,,,,,,,,,,,,1,5.9428,,0,0,68,68,3,1,stimuli/stim_20210706_power2amp/equal_lnn_AM0.6Hz_s35_6.m4a,,,,,,,,,,,,
,,,,,41822,2021-09-26_13h58.01.571,judgeSpeechMusic_20210921_logNormShiftAmp_detection_fixS,2020.1.2,Win32,60,,,,,,,,,,,,,,,,,,,,,,,,,,,,,,1,5.4881,,0,0,69,69,30,1,stimuli/stim_20210706_power2amp/equal_lnn_AM2.4Hz_s35_9.m4a,,,,,,,,,,,,
,,,,,41822,2021-09-26_13h58.01.571,judgeSpeechMusic_20210921_logNormShiftAmp_detection_fixS,2020.1.2,Win32,60,,,,,,,,,,,,,,,,,,,,,,,,,,,,,,1,5.4932,,0,0,70,70,68,1,stimuli/stim_20210706_power2amp/equal_lnn_AM4.2Hz_s35_38.m4a,,,,,,,,,,,,
,,,,,41822,2021-09-26_13h58.01.571,judgeSpeechMusic_20210921_logNormShiftAmp_detection_fixS,2020.1.2,Win32,60,,,,,,,,,,,,,,,,,,,,,,,,,,,,,,2,5.8684,,0,0,71,71,38,1,stimuli/stim_20210706_power2amp/equal_lnn_AM2.4Hz_s35_5.m4a,,,,,,,,,,,,
,,,,,41822,2021-09-26_13h58.01.571,judgeSpeechMusic_20210921_logNormShiftAmp_detection_fixS,2020.1.2,Win32,60,,,,,,,,,,,,,,,,,,,,,,,,,,,,,,2,5.9166,,0,0,72,72,10,1,stimuli/stim_20210706_power2amp/equal_lnn_AM0.6Hz_s35_18.m4a,,,,,,,,,,,,
,,,,,41822,2021-09-26_13h58.01.571,judgeSpeechMusic_20210921_logNormShiftAmp_detection_fixS,2020.1.2,Win32,60,,,,,,,,,,,,,,,,,,,,,,,,,,,,,,2,5.7831,,0,0,73,73,32,1,stimuli/stim_20210706_power2amp/equal_lnn_AM2.4Hz_s35_26.m4a,,,,,,,,,,,,
,,,,,41822,2021-09-26_13h58.01.571,judgeSpeechMusic_20210921_logNormShiftAmp_detection_fixS,2020.1.2,Win32,60,,,,,,,,,,,,,,,,,,,,,,,,,,,,,,2,5.7496,,0,0,74,74,23,1,stimuli/stim_20210706_power2amp/equal_lnn_AM1.2Hz_s35_28.m4a,,,,,,,,,,,,
,,,,,41822,2021-09-26_13h58.01.571,judgeSpeechMusic_20210921_logNormShiftAmp_detection_fixS,2020.1.2,Win32,60,,,,,,,,,,,,,,,,,,,,,,,,,,,,,,,,,,,,,,,,,space,1.6697,1,0,2,0,1,MUSIC,stimuli/MUSIC.jpg,,
,,,,,41822,2021-09-26_13h58.01.571,judgeSpeechMusic_20210921_logNormShiftAmp_detection_fixS,2020.1.2,Win32,60,,,,,,,,,,,,,,,,,,0,0,0,0,2,1,stimuli/stim_20210706_power2amp/equal_lnn_AM_training3Hz_s35.m4a,,,,,,,,,,,,,,,,,,,,,,,,,,,
,,,,,41822,2021-09-26_13h58.01.571,judgeSpeechMusic_20210921_logNormShiftAmp_detection_fixS,2020.1.2,Win32,60,,,,,,,,,,,,,,,,,,,,,,,,,,space,1.8587,space,0.4426,2,5.7121,,0,0,0,0,46,1,stimuli/stim_20210706_power2amp/equal_lnn_AM3.6Hz_s35_11.m4a,,,,,,,,,,,,
,,,,,41822,2021-09-26_13h58.01.571,judgeSpeechMusic_20210921_logNormShiftAmp_detection_fixS,2020.1.2,Win32,60,,,,,,,,,,,,,,,,,,,,,,,,,,,,,,2,5.3366,,0,0,1,1,52,1,stimuli/stim_20210706_power2amp/equal_lnn_AM3.6Hz_s35_27.m4a,,,,,,,,,,,,
,,,,,41822,2021-09-26_13h58.01.571,judgeSpeechMusic_20210921_logNormShiftAmp_detection_fixS,2020.1.2,Win32,60,,,,,,,,,,,,,,,,,,,,,,,,,,,,,,2,5.4499,,0,0,2,2,64,1,stimuli/stim_20210706_power2amp/equal_lnn_AM4.2Hz_s35_31.m4a,,,,,,,,,,,,
,,,,,41822,2021-09-26_13h58.01.571,judgeSpeechMusic_20210921_logNormShiftAmp_detection_fixS,2020.1.2,Win32,60,,,,,,,,,,,,,,,,,,,,,,,,,,,,,,1,5.5163,,0,0,3,3,40,1,stimuli/stim_20210706_power2amp/equal_lnn_AM2.4Hz_s35_44.m4a,,,,,,,,,,,,
,,,,,41822,2021-09-26_13h58.01.571,judgeSpeechMusic_20210921_logNormShiftAmp_detection_fixS,2020.1.2,Win32,60,,,,,,,,,,,,,,,,,,,,,,,,,,,,,,1,5.6196,,0,0,4,4,29,1,stimuli/stim_20210706_power2amp/equal_lnn_AM1.2Hz_s35_44.m4a,,,,,,,,,,,,
,,,,,41822,2021-09-26_13h58.01.571,judgeSpeechMusic_20210921_logNormShiftAmp_detection_fixS,2020.1.2,Win32,60,,,,,,,,,,,,,,,,,,,,,,,,,,,,,,2,5.2387,,0,0,5,5,61,1,stimuli/stim_20210706_power2amp/equal_lnn_AM4.2Hz_s35_18.m4a,,,,,,,,,,,,
,,,,,41822,2021-09-26_13h58.01.571,judgeSpeechMusic_20210921_logNormShiftAmp_detection_fixS,2020.1.2,Win32,60,,,,,,,,,,,,,,,,,,,,,,,,,,,,,,1,5.6227,,0,0,6,6,16,1,stimuli/stim_20210706_power2amp/equal_lnn_AM1.2Hz_s35_2.m4a,,,,,,,,,,,,
,,,,,41822,2021-09-26_13h58.01.571,judgeSpeechMusic_20210921_logNormShiftAmp_detection_fixS,2020.1.2,Win32,60,,,,,,,,,,,,,,,,,,,,,,,,,,,,,,1,5.5781,,0,0,7,7,17,1,stimuli/stim_20210706_power2amp/equal_lnn_AM1.2Hz_s35_47.m4a,,,,,,,,,,,,
,,,,,41822,2021-09-26_13h58.01.571,judgeSpeechMusic_20210921_logNormShiftAmp_detection_fixS,2020.1.2,Win32,60,,,,,,,,,,,,,,,,,,,,,,,,,,,,,,1,5.4106,,0,0,8,8,63,1,stimuli/stim_20210706_power2amp/equal_lnn_AM4.2Hz_s35_16.m4a,,,,,,,,,,,,
,,,,,41822,2021-09-26_13h58.01.571,judgeSpeechMusic_20210921_logNormShiftAmp_detection_fixS,2020.1.2,Win32,60,,,,,,,,,,,,,,,,,,,,,,,,,,,,,,2,5.8629,,0,0,9,9,43,1,stimuli/stim_20210706_power2amp/equal_lnn_AM2.4Hz_s35_19.m4a,,,,,,,,,,,,
,,,,,41822,2021-09-26_13h58.01.571,judgeSpeechMusic_20210921_logNormShiftAmp_detection_fixS,2020.1.2,Win32,60,,,,,,,,,,,,,,,,,,,,,,,,,,,,,,1,7.8374,,0,0,10,10,28,1,stimuli/stim_20210706_power2amp/equal_lnn_AM1.2Hz_s35_25.m4a,,,,,,,,,,,,
,,,,,41822,2021-09-26_13h58.01.571,judgeSpeechMusic_20210921_logNormShiftAmp_detection_fixS,2020.1.2,Win32,60,,,,,,,,,,,,,,,,,,,,,,,,,,,,,,1,20.3201,,0,0,11,11,27,1,stimuli/stim_20210706_power2amp/equal_lnn_AM1.2Hz_s35_14.m4a,,,,,,,,,,,,
,,,,,41822,2021-09-26_13h58.01.571,judgeSpeechMusic_20210921_logNormShiftAmp_detection_fixS,2020.1.2,Win32,60,,,,,,,,,,,,,,,,,,,,,,,,,,,,,,1,6.4606,,0,0,12,12,32,1,stimuli/stim_20210706_power2amp/equal_lnn_AM2.4Hz_s35_26.m4a,,,,,,,,,,,,
,,,,,41822,2021-09-26_13h58.01.571,judgeSpeechMusic_20210921_logNormShiftAmp_detection_fixS,2020.1.2,Win32,60,,,,,,,,,,,,,,,,,,,,,,,,,,,,,,1,6.0227,,0,0,13,13,8,1,stimuli/stim_20210706_power2amp/equal_lnn_AM0.6Hz_s35_13.m4a,,,,,,,,,,,,
,,,,,41822,2021-09-26_13h58.01.571,judgeSpeechMusic_20210921_logNormShiftAmp_detection_fixS,2020.1.2,Win32,60,,,,,,,,,,,,,,,,,,,,,,,,,,,,,,2,5.6821,,0,0,14,14,72,1,stimuli/stim_20210706_power2amp/equal_lnn_AM4.2Hz_s35_50.m4a,,,,,,,,,,,,
,,,,,41822,2021-09-26_13h58.01.571,judgeSpeechMusic_20210921_logNormShiftAmp_detection_fixS,2020.1.2,Win32,60,,,,,,,,,,,,,,,,,,,,,,,,,,,,,,1,6.1336,,0,0,15,15,22,1,stimuli/stim_20210706_power2amp/equal_lnn_AM1.2Hz_s35_16.m4a,,,,,,,,,,,,
,,,,,41822,2021-09-26_13h58.01.571,judgeSpeechMusic_20210921_logNormShiftAmp_detection_fixS,2020.1.2,Win32,60,,,,,,,,,,,,,,,,,,,,,,,,,,,,,,1,5.8895,,0,0,16,16,47,1,stimuli/stim_20210706_power2amp/equal_lnn_AM3.6Hz_s35_6.m4a,,,,,,,,,,,,
,,,,,41822,2021-09-26_13h58.01.571,judgeSpeechMusic_20210921_logNormShiftAmp_detection_fixS,2020.1.2,Win32,60,,,,,,,,,,,,,,,,,,,,,,,,,,,,,,1,5.3276,,0,0,17,17,11,1,stimuli/stim_20210706_power2amp/equal_lnn_AM0.6Hz_s35_14.m4a,,,,,,,,,,,,
,,,,,41822,2021-09-26_13h58.01.571,judgeSpeechMusic_20210921_logNormShiftAmp_detection_fixS,2020.1.2,Win32,60,,,,,,,,,,,,,,,,,,,,,,,,,,,,,,1,5.3171,,0,0,18,18,48,1,stimuli/stim_20210706_power2amp/equal_lnn_AM3.6Hz_s35_4.m4a,,,,,,,,,,,,
,,,,,41822,2021-09-26_13h58.01.571,judgeSpeechMusic_20210921_logNormShiftAmp_detection_fixS,2020.1.2,Win32,60,,,,,,,,,,,,,,,,,,,,,,,,,,,,,,1,5.7831,,0,0,19,19,69,1,stimuli/stim_20210706_power2amp/equal_lnn_AM4.2Hz_s35_21.m4a,,,,,,,,,,,,
,,,,,41822,2021-09-26_13h58.01.571,judgeSpeechMusic_20210921_logNormShiftAmp_detection_fixS,2020.1.2,Win32,60,,,,,,,,,,,,,,,,,,,,,,,,,,,,,,1,5.8676,,0,0,20,20,14,1,stimuli/stim_20210706_power2amp/equal_lnn_AM0.6Hz_s35_39.m4a,,,,,,,,,,,,
,,,,,41822,2021-09-26_13h58.01.571,judgeSpeechMusic_20210921_logNormShiftAmp_detection_fixS,2020.1.2,Win32,60,,,,,,,,,,,,,,,,,,,,,,,,,,,,,,2,5.7336,1,1,0,21,21,71,1,stimuli/stim_20210706_power2amp/equal_lnn_AM4.2Hz_s35_40.m4a,1.2391,,,,,,,,,,,
,,,,,41822,2021-09-26_13h58.01.571,judgeSpeechMusic_20210921_logNormShiftAmp_detection_fixS,2020.1.2,Win32,60,,,,,,,,,,,,,,,,,,,,,,,,,,,,,,2,7.1135,,0,0,22,22,31,1,stimuli/stim_20210706_power2amp/equal_lnn_AM2.4Hz_s35_48.m4a,,,,,,,,,,,,
,,,,,41822,2021-09-26_13h58.01.571,judgeSpeechMusic_20210921_logNormShiftAmp_detection_fixS,2020.1.2,Win32,60,,,,,,,,,,,,,,,,,,,,,,,,,,,,,,2,6.9502,,0,0,23,23,36,1,stimuli/stim_20210706_power2amp/equal_lnn_AM2.4Hz_s35_35.m4a,,,,,,,,,,,,
,,,,,41822,2021-09-26_13h58.01.571,judgeSpeechMusic_20210921_logNormShiftAmp_detection_fixS,2020.1.2,Win32,60,,,,,,,,,,,,,,,,,,,,,,,,,,,,,,2,5.8163,,0,0,24,24,30,1,stimuli/stim_20210706_power2amp/equal_lnn_AM2.4Hz_s35_9.m4a,,,,,,,,,,,,
,,,,,41822,2021-09-26_13h58.01.571,judgeSpeechMusic_20210921_logNormShiftAmp_detection_fixS,2020.1.2,Win32,60,,,,,,,,,,,,,,,,,,,,,,,,,,,,,,2,5.5033,,0,0,25,25,41,1,stimuli/stim_20210706_power2amp/equal_lnn_AM2.4Hz_s35_30.m4a,,,,,,,,,,,,
,,,,,41822,2021-09-26_13h58.01.571,judgeSpeechMusic_20210921_logNormShiftAmp_detection_fixS,2020.1.2,Win32,60,,,,,,,,,,,,,,,,,,,,,,,,,,,,,,1,5.2935,,0,0,26,26,45,1,stimuli/stim_20210706_power2amp/equal_lnn_AM3.6Hz_s35_47.m4a,,,,,,,,,,,,
,,,,,41822,2021-09-26_13h58.01.571,judgeSpeechMusic_20210921_logNormShiftAmp_detection_fixS,2020.1.2,Win32,60,,,,,,,,,,,,,,,,,,,,,,,,,,,,,,1,5.4119,,0,0,27,27,24,1,stimuli/stim_20210706_power2amp/equal_lnn_AM1.2Hz_s35_36.m4a,,,,,,,,,,,,
,,,,,41822,2021-09-26_13h58.01.571,judgeSpeechMusic_20210921_logNormShiftAmp_detection_fixS,2020.1.2,Win32,60,,,,,,,,,,,,,,,,,,,,,,,,,,,,,,1,5.3613,,0,0,28,28,37,1,stimuli/stim_20210706_power2amp/equal_lnn_AM2.4Hz_s35_23.m4a,,,,,,,,,,,,
,,,,,41822,2021-09-26_13h58.01.571,judgeSpeechMusic_20210921_logNormShiftAmp_detection_fixS,2020.1.2,Win32,60,,,,,,,,,,,,,,,,,,,,,,,,,,,,,,2,5.3912,,0,0,29,29,21,1,stimuli/stim_20210706_power2amp/equal_lnn_AM1.2Hz_s35_39.m4a,,,,,,,,,,,,
,,,,,41822,2021-09-26_13h58.01.571,judgeSpeechMusic_20210921_logNormShiftAmp_detection_fixS,2020.1.2,Win32,60,,,,,,,,,,,,,,,,,,,,,,,,,,,,,,2,6.6981,,0,0,30,30,60,1,stimuli/stim_20210706_power2amp/equal_lnn_AM4.2Hz_s35_35.m4a,,,,,,,,,,,,
,,,,,41822,2021-09-26_13h58.01.571,judgeSpeechMusic_20210921_logNormShiftAmp_detection_fixS,2020.1.2,Win32,60,,,,,,,,,,,,,,,,,,,,,,,,,,,,,,1,9.2068,,0,0,31,31,44,1,stimuli/stim_20210706_power2amp/equal_lnn_AM2.4Hz_s35_25.m4a,,,,,,,,,,,,
,,,,,41822,2021-09-26_13h58.01.571,judgeSpeechMusic_20210921_logNormShiftAmp_detection_fixS,2020.1.2,Win32,60,,,,,,,,,,,,,,,,,,,,,,,,,,,,,,1,7.8818,,0,0,32,32,54,1,stimuli/stim_20210706_power2amp/equal_lnn_AM3.6Hz_s35_45.m4a,,,,,,,,,,,,
,,,,,41822,2021-09-26_13h58.01.571,judgeSpeechMusic_20210921_logNormShiftAmp_detection_fixS,2020.1.2,Win32,60,,,,,,,,,,,,,,,,,,,,,,,,,,,,,,1,10.5669,,0,0,33,33,55,1,stimuli/stim_20210706_power2amp/equal_lnn_AM3.6Hz_s35_21.m4a,,,,,,,,,,,,
,,,,,41822,2021-09-26_13h58.01.571,judgeSpeechMusic_20210921_logNormShiftAmp_detection_fixS,2020.1.2,Win32,60,,,,,,,,,,,,,,,,,,,,,,,,,,,,,,2,6.0921,,0,0,34,34,0,1,stimuli/stim_20210706_power2amp/equal_lnn_AM0.6Hz_s35_34.m4a,,,,,,,,,,,,
,,,,,41822,2021-09-26_13h58.01.571,judgeSpeechMusic_20210921_logNormShiftAmp_detection_fixS,2020.1.2,Win32,60,,,,,,,,,,,,,,,,,,,,,,,,,,,,,,1,6.2789,,0,0,35,35,68,1,stimuli/stim_20210706_power2amp/equal_lnn_AM4.2Hz_s35_38.m4a,,,,,,,,,,,,
,,,,,41822,2021-09-26_13h58.01.571,judgeSpeechMusic_20210921_logNormShiftAmp_detection_fixS,2020.1.2,Win32,60,,,,,,,,,,,,,,,,,,,,,,,,,,,,,,2,5.2538,,0,0,36,36,15,1,stimuli/stim_20210706_power2amp/equal_lnn_AM1.2Hz_s35_7.m4a,,,,,,,,,,,,
,,,,,41822,2021-09-26_13h58.01.571,judgeSpeechMusic_20210921_logNormShiftAmp_detection_fixS,2020.1.2,Win32,60,,,,,,,,,,,,,,,,,,,,,,,,,,,,,,1,6.4005,,0,0,37,37,19,1,stimuli/stim_20210706_power2amp/equal_lnn_AM1.2Hz_s35_11.m4a,,,,,,,,,,,,
,,,,,41822,2021-09-26_13h58.01.571,judgeSpeechMusic_20210921_logNormShiftAmp_detection_fixS,2020.1.2,Win32,60,,,,,,,,,,,,,,,,,,,,,,,,,,,,,,1,8.0083,,0,0,38,38,9,1,stimuli/stim_20210706_power2amp/equal_lnn_AM0.6Hz_s35_28.m4a,,,,,,,,,,,,
,,,,,41822,2021-09-26_13h58.01.571,judgeSpeechMusic_20210921_logNormShiftAmp_detection_fixS,2020.1.2,Win32,60,,,,,,,,,,,,,,,,,,,,,,,,,,,,,,1,6.6728,,0,0,39,39,20,1,stimuli/stim_20210706_power2amp/equal_lnn_AM1.2Hz_s35_35.m4a,,,,,,,,,,,,
,,,,,41822,2021-09-26_13h58.01.571,judgeSpeechMusic_20210921_logNormShiftAmp_detection_fixS,2020.1.2,Win32,60,,,,,,,,,,,,,,,,,,,,,,,,,,,,,,1,8.1833,1,1,0,40,40,49,1,stimuli/stim_20210706_power2amp/equal_lnn_AM3.6Hz_s35_3.m4a,0.9807,,,,,,,,,,,
,,,,,41822,2021-09-26_13h58.01.571,judgeSpeechMusic_20210921_logNormShiftAmp_detection_fixS,2020.1.2,Win32,60,,,,,,,,,,,,,,,,,,,,,,,,,,,,,,1,6.0908,,0,0,41,41,12,1,stimuli/stim_20210706_power2amp/equal_lnn_AM0.6Hz_s35_15.m4a,,,,,,,,,,,,
,,,,,41822,2021-09-26_13h58.01.571,judgeSpeechMusic_20210921_logNormShiftAmp_detection_fixS,2020.1.2,Win32,60,,,,,,,,,,,,,,,,,,,,,,,,,,,,,,2,5.2589,,0,0,42,42,38,1,stimuli/stim_20210706_power2amp/equal_lnn_AM2.4Hz_s35_5.m4a,,,,,,,,,,,,
,,,,,41822,2021-09-26_13h58.01.571,judgeSpeechMusic_20210921_logNormShiftAmp_detection_fixS,2020.1.2,Win32,60,,,,,,,,,,,,,,,,,,,,,,,,,,,,,,1,5.5039,,0,0,43,43,4,1,stimuli/stim_20210706_power2amp/equal_lnn_AM0.6Hz_s35_11.m4a,,,,,,,,,,,,
,,,,,41822,2021-09-26_13h58.01.571,judgeSpeechMusic_20210921_logNormShiftAmp_detection_fixS,2020.1.2,Win32,60,,,,,,,,,,,,,,,,,,,,,,,,,,,,,,2,5.9027,,0,0,44,44,67,1,stimuli/stim_20210706_power2amp/equal_lnn_AM4.2Hz_s35_30.m4a,,,,,,,,,,,,
,,,,,41822,2021-09-26_13h58.01.571,judgeSpeechMusic_20210921_logNormShiftAmp_detection_fixS,2020.1.2,Win32,60,,,,,,,,,,,,,,,,,,,,,,,,,,,,,,2,5.5576,,0,0,45,45,34,1,stimuli/stim_20210706_power2amp/equal_lnn_AM2.4Hz_s35_33.m4a,,,,,,,,,,,,
,,,,,41822,2021-09-26_13h58.01.571,judgeSpeechMusic_20210921_logNormShiftAmp_detection_fixS,2020.1.2,Win32,60,,,,,,,,,,,,,,,,,,,,,,,,,,,,,,2,5.3932,,0,0,46,46,39,1,stimuli/stim_20210706_power2amp/equal_lnn_AM2.4Hz_s35_41.m4a,,,,,,,,,,,,
,,,,,41822,2021-09-26_13h58.01.571,judgeSpeechMusic_20210921_logNormShiftAmp_detection_fixS,2020.1.2,Win32,60,,,,,,,,,,,,,,,,,,,,,,,,,,,,,,2,5.3694,,0,0,47,47,58,1,stimuli/stim_20210706_power2amp/equal_lnn_AM3.6Hz_s35_42.m4a,,,,,,,,,,,,
,,,,,41822,2021-09-26_13h58.01.571,judgeSpeechMusic_20210921_logNormShiftAmp_detection_fixS,2020.1.2,Win32,60,,,,,,,,,,,,,,,,,,,,,,,,,,,,,,1,6.0242,,0,0,48,48,70,1,stimuli/stim_20210706_power2amp/equal_lnn_AM4.2Hz_s35_13.m4a,,,,,,,,,,,,
,,,,,41822,2021-09-26_13h58.01.571,judgeSpeechMusic_20210921_logNormShiftAmp_detection_fixS,2020.1.2,Win32,60,,,,,,,,,,,,,,,,,,,,,,,,,,,,,,1,5.566,,0,0,49,49,53,1,stimuli/stim_20210706_power2amp/equal_lnn_AM3.6Hz_s35_46.m4a,,,,,,,,,,,,
,,,,,41822,2021-09-26_13h58.01.571,judgeSpeechMusic_20210921_logNormShiftAmp_detection_fixS,2020.1.2,Win32,60,,,,,,,,,,,,,,,,,,,,,,,,,,,,,,1,5.5696,,0,0,50,50,5,1,stimuli/stim_20210706_power2amp/equal_lnn_AM0.6Hz_s35_29.m4a,,,,,,,,,,,,
,,,,,41822,2021-09-26_13h58.01.571,judgeSpeechMusic_20210921_logNormShiftAmp_detection_fixS,2020.1.2,Win32,60,,,,,,,,,,,,,,,,,,,,,,,,,,,,,,1,5.636,,0,0,51,51,42,1,stimuli/stim_20210706_power2amp/equal_lnn_AM2.4Hz_s35_2.m4a,,,,,,,,,,,,
,,,,,41822,2021-09-26_13h58.01.571,judgeSpeechMusic_20210921_logNormShiftAmp_detection_fixS,2020.1.2,Win32,60,,,,,,,,,,,,,,,,,,,,,,,,,,,,,,1,6.1448,,0,0,52,52,7,1,stimuli/stim_20210706_power2amp/equal_lnn_AM0.6Hz_s35_1.m4a,,,,,,,,,,,,
,,,,,41822,2021-09-26_13h58.01.571,judgeSpeechMusic_20210921_logNormShiftAmp_detection_fixS,2020.1.2,Win32,60,,,,,,,,,,,,,,,,,,,,,,,,,,,,,,1,5.7387,,0,0,53,53,26,1,stimuli/stim_20210706_power2amp/equal_lnn_AM1.2Hz_s35_23.m4a,,,,,,,,,,,,
,,,,,41822,2021-09-26_13h58.01.571,judgeSpeechMusic_20210921_logNormShiftAmp_detection_fixS,2020.1.2,Win32,60,,,,,,,,,,,,,,,,,,,,,,,,,,,,,,1,5.6407,,0,0,54,54,66,1,stimuli/stim_20210706_power2amp/equal_lnn_AM4.2Hz_s35_14.m4a,,,,,,,,,,,,
,,,,,41822,2021-09-26_13h58.01.571,judgeSpeechMusic_20210921_logNormShiftAmp_detection_fixS,2020.1.2,Win32,60,,,,,,,,,,,,,,,,,,,,,,,,,,,,,,1,5.7513,,0,0,55,55,65,1,stimuli/stim_20210706_power2amp/equal_lnn_AM4.2Hz_s35_10.m4a,,,,,,,,,,,,
,,,,,41822,2021-09-26_13h58.01.571,judgeSpeechMusic_20210921_logNormShiftAmp_detection_fixS,2020.1.2,Win32,60,,,,,,,,,,,,,,,,,,,,,,,,,,,,,,1,5.71,,0,0,56,56,3,1,stimuli/stim_20210706_power2amp/equal_lnn_AM0.6Hz_s35_6.m4a,,,,,,,,,,,,
,,,,,41822,2021-09-26_13h58.01.571,judgeSpeechMusic_20210921_logNormShiftAmp_detection_fixS,2020.1.2,Win32,60,,,,,,,,,,,,,,,,,,,,,,,,,,,,,,1,6.1159,,0,0,57,57,13,1,stimuli/stim_20210706_power2amp/equal_lnn_AM0.6Hz_s35_2.m4a,,,,,,,,,,,,
,,,,,41822,2021-09-26_13h58.01.571,judgeSpeechMusic_20210921_logNormShiftAmp_detection_fixS,2020.1.2,Win32,60,,,,,,,,,,,,,,,,,,,,,,,,,,,,,,1,5.658,2,1,0,58,58,62,1,stimuli/stim_20210706_power2amp/equal_lnn_AM4.2Hz_s35_19.m4a,1.9228,,,,,,,,,,,
,,,,,41822,2021-09-26_13h58.01.571,judgeSpeechMusic_20210921_logNormShiftAmp_detection_fixS,2020.1.2,Win32,60,,,,,,,,,,,,,,,,,,,,,,,,,,,,,,2,5.6528,,0,0,59,59,10,1,stimuli/stim_20210706_power2amp/equal_lnn_AM0.6Hz_s35_18.m4a,,,,,,,,,,,,
,,,,,41822,2021-09-26_13h58.01.571,judgeSpeechMusic_20210921_logNormShiftAmp_detection_fixS,2020.1.2,Win32,60,,,,,,,,,,,,,,,,,,,,,,,,,,,,,,1,5.8489,,0,0,60,60,25,1,stimuli/stim_20210706_power2amp/equal_lnn_AM1.2Hz_s35_38.m4a,,,,,,,,,,,,
,,,,,41822,2021-09-26_13h58.01.571,judgeSpeechMusic_20210921_logNormShiftAmp_detection_fixS,2020.1.2,Win32,60,,,,,,,,,,,,,,,,,,,,,,,,,,,,,,2,5.2946,,0,0,61,61,33,1,stimuli/stim_20210706_power2amp/equal_lnn_AM2.4Hz_s35_8.m4a,,,,,,,,,,,,
,,,,,41822,2021-09-26_13h58.01.571,judgeSpeechMusic_20210921_logNormShiftAmp_detection_fixS,2020.1.2,Win32,60,,,,,,,,,,,,,,,,,,,,,,,,,,,,,,2,5.5733,,0,0,62,62,73,1,stimuli/stim_20210706_power2amp/equal_lnn_AM4.2Hz_s35_27.m4a,,,,,,,,,,,,
,,,,,41822,2021-09-26_13h58.01.571,judgeSpeechMusic_20210921_logNormShiftAmp_detection_fixS,2020.1.2,Win32,60,,,,,,,,,,,,,,,,,,,,,,,,,,,,,,2,5.6016,,0,0,63,63,23,1,stimuli/stim_20210706_power2amp/equal_lnn_AM1.2Hz_s35_28.m4a,,,,,,,,,,,,
,,,,,41822,2021-09-26_13h58.01.571,judgeSpeechMusic_20210921_logNormShiftAmp_detection_fixS,2020.1.2,Win32,60,,,,,,,,,,,,,,,,,,,,,,,,,,,,,,1,6.2853,,0,0,64,64,50,1,stimuli/stim_20210706_power2amp/equal_lnn_AM3.6Hz_s35_2.m4a,,,,,,,,,,,,
,,,,,41822,2021-09-26_13h58.01.571,judgeSpeechMusic_20210921_logNormShiftAmp_detection_fixS,2020.1.2,Win32,60,,,,,,,,,,,,,,,,,,,,,,,,,,,,,,1,6.1766,,0,0,65,65,18,1,stimuli/stim_20210706_power2amp/equal_lnn_AM1.2Hz_s35_15.m4a,,,,,,,,,,,,
,,,,,41822,2021-09-26_13h58.01.571,judgeSpeechMusic_20210921_logNormShiftAmp_detection_fixS,2020.1.2,Win32,60,,,,,,,,,,,,,,,,,,,,,,,,,,,,,,1,5.6009,,0,0,66,66,51,1,stimuli/stim_20210706_power2amp/equal_lnn_AM3.6Hz_s35_39.m4a,,,,,,,,,,,,
,,,,,41822,2021-09-26_13h58.01.571,judgeSpeechMusic_20210921_logNormShiftAmp_detection_fixS,2020.1.2,Win32,60,,,,,,,,,,,,,,,,,,,,,,,,,,,,,,1,5.6614,,0,0,67,67,57,1,stimuli/stim_20210706_power2amp/equal_lnn_AM3.6Hz_s35_23.m4a,,,,,,,,,,,,
,,,,,41822,2021-09-26_13h58.01.571,judgeSpeechMusic_20210921_logNormShiftAmp_detection_fixS,2020.1.2,Win32,60,,,,,,,,,,,,,,,,,,,,,,,,,,,,,,1,7.0819,,0,0,68,68,56,1,stimuli/stim_20210706_power2amp/equal_lnn_AM3.6Hz_s35_8.m4a,,,,,,,,,,,,
,,,,,41822,2021-09-26_13h58.01.571,judgeSpeechMusic_20210921_logNormShiftAmp_detection_fixS,2020.1.2,Win32,60,,,,,,,,,,,,,,,,,,,,,,,,,,,,,,1,5.8852,,0,0,69,69,59,1,stimuli/stim_20210706_power2amp/equal_lnn_AM3.6Hz_s35_37.m4a,,,,,,,,,,,,
,,,,,41822,2021-09-26_13h58.01.571,judgeSpeechMusic_20210921_logNormShiftAmp_detection_fixS,2020.1.2,Win32,60,,,,,,,,,,,,,,,,,,,,,,,,,,,,,,2,6.035,,0,0,70,70,2,1,stimuli/stim_20210706_power2amp/equal_lnn_AM0.6Hz_s35_38.m4a,,,,,,,,,,,,
,,,,,41822,2021-09-26_13h58.01.571,judgeSpeechMusic_20210921_logNormShiftAmp_detection_fixS,2020.1.2,Win32,60,,,,,,,,,,,,,,,,,,,,,,,,,,,,,,2,5.6188,,0,0,71,71,74,1,stimuli/stim_20210706_power2amp/equal_lnn_AM4.2Hz_s35_23.m4a,,,,,,,,,,,,
,,,,,41822,2021-09-26_13h58.01.571,judgeSpeechMusic_20210921_logNormShiftAmp_detection_fixS,2020.1.2,Win32,60,,,,,,,,,,,,,,,,,,,,,,,,,,,,,,1,6.0993,,0,0,72,72,6,1,stimuli/stim_20210706_power2amp/equal_lnn_AM0.6Hz_s35_32.m4a,,,,,,,,,,,,
,,,,,41822,2021-09-26_13h58.01.571,judgeSpeechMusic_20210921_logNormShiftAmp_detection_fixS,2020.1.2,Win32,60,,,,,,,,,,,,,,,,,,,,,,,,,,,,,,1,9.2099,,0,0,73,73,35,1,stimuli/stim_20210706_power2amp/equal_lnn_AM2.4Hz_s35_10.m4a,,,,,,,,,,,,
,,,,,41822,2021-09-26_13h58.01.571,judgeSpeechMusic_20210921_logNormShiftAmp_detection_fixS,2020.1.2,Win32,60,,,,,,,,,,,,,,,,,,,,,,,,,,,,,,1,5.5276,,0,0,74,74,1,1,stimuli/stim_20210706_power2amp/equal_lnn_AM0.6Hz_s35_17.m4a,,,,,,,,,,,,
,,,,,41822,2021-09-26_13h58.01.571,judgeSpeechMusic_20210921_logNormShiftAmp_detection_fixS,2020.1.2,Win32,60,,,,,,,,,,,,,,,,,,,,,,,,,,,,,,,,,,,,,,,,,,,1,1,3,1,1,SPEECH,stimuli/SPEECH.jpg,,
,,,,,41822,2021-09-26_13h58.01.571,judgeSpeechMusic_20210921_logNormShiftAmp_detection_fixS,2020.1.2,Win32,60,,,,,,,,,,,,,,,,,,,,,,,,,,,,,,,,,,,,,,,,,,,,,,,,,,space,3.7017
