headphoneResponse.keys,headphoneResponse.corr,headphoneResponse.rt,headphoneTrial.thisRepN,headphoneTrial.thisTrialN,headphoneTrial.thisN,headphoneTrial.thisIndex,headphoneTrial.ran,headphone_sound1,headphone_sound2,headphone_sound3,corrAns,participant,date,expName,psychopyVersion,OS,frameRate,checkInstruKey.keys,checkInstruKey.rt,trainSlider.response,trainSlider.rt,beepTrainResponse.keys,beepTrainResponse.corr,trainingTrials.thisRepN,trainingTrials.thisTrialN,trainingTrials.thisN,trainingTrials.thisIndex,trainingTrials.ran,trainAudioFile,beepTrainResponse.rt,readyReal_resp.keys,readyReal_resp.rt,checkInstru2_key.keys,checkInstru2_key.rt,ratingSlider.response,ratingSlider.rt,beepResp.keys,beepResp.corr,expTrials.thisRepN,expTrials.thisTrialN,expTrials.thisN,expTrials.thisIndex,expTrials.ran,audioFile,beepResp.rt,switchBlock_space.keys,switchBlock_space.rt,block.thisRepN,block.thisTrialN,block.thisN,block.thisIndex,block.ran,blockName,blockImage,end_resp.keys,end_resp.rt
2,1,0.2687,0,0,0,3,1,stimuli/screen_origin.wav,stimuli/screen_quiet.wav,stimuli/screen_antiphase.wav,2,41827,2021-09-26_11h25.57.599,judgeSpeechMusic_20210921_logNormShiftAmp_detection_fixS,2020.1.2,Linux x86_64,60,,,,,,,,,,,,,,,,,,,,,,,,,,,,,,,,,,,,,,,
1,1,2.2168,0,1,1,4,1,stimuli/screen_quiet.wav,stimuli/screen_antiphase.wav,stimuli/screen_origin.wav,1,41827,2021-09-26_11h25.57.599,judgeSpeechMusic_20210921_logNormShiftAmp_detection_fixS,2020.1.2,Linux x86_64,60,,,,,,,,,,,,,,,,,,,,,,,,,,,,,,,,,,,,,,,
3,1,3.9285,0,2,2,0,1,stimuli/screen_antiphase.wav,stimuli/screen_origin.wav,stimuli/screen_quiet.wav,3,41827,2021-09-26_11h25.57.599,judgeSpeechMusic_20210921_logNormShiftAmp_detection_fixS,2020.1.2,Linux x86_64,60,,,,,,,,,,,,,,,,,,,,,,,,,,,,,,,,,,,,,,,
2,1,0.2334,0,3,3,1,1,stimuli/screen_antiphase.wav,stimuli/screen_quiet.wav,stimuli/screen_origin.wav,2,41827,2021-09-26_11h25.57.599,judgeSpeechMusic_20210921_logNormShiftAmp_detection_fixS,2020.1.2,Linux x86_64,60,,,,,,,,,,,,,,,,,,,,,,,,,,,,,,,,,,,,,,,
1,1,0.2805,0,4,4,5,1,stimuli/screen_quiet.wav,stimuli/screen_origin.wav,stimuli/screen_antiphase.wav,1,41827,2021-09-26_11h25.57.599,judgeSpeechMusic_20210921_logNormShiftAmp_detection_fixS,2020.1.2,Linux x86_64,60,,,,,,,,,,,,,,,,,,,,,,,,,,,,,,,,,,,,,,,
3,1,0.2641,0,5,5,2,1,stimuli/screen_origin.wav,stimuli/screen_antiphase.wav,stimuli/screen_quiet.wav,3,41827,2021-09-26_11h25.57.599,judgeSpeechMusic_20210921_logNormShiftAmp_detection_fixS,2020.1.2,Linux x86_64,60,,,,,,,,,,,,,,,,,,,,,,,,,,,,,,,,,,,,,,,
,,,,,,,,,,,,41827,2021-09-26_11h25.57.599,judgeSpeechMusic_20210921_logNormShiftAmp_detection_fixS,2020.1.2,Linux x86_64,60,space,1.2635,1,10.1674,,0,0,0,0,3,1,stimuli/stim_20210706_power2amp/equal_lnn_AM_training3.9Hz_s35.m4a,,,,,,,,,,,,,,,,,,,,,,,,,,,
,,,,,,,,,,,,41827,2021-09-26_11h25.57.599,judgeSpeechMusic_20210921_logNormShiftAmp_detection_fixS,2020.1.2,Linux x86_64,60,,,2,8.2119,,0,0,1,1,0,1,stimuli/stim_20210706_power2amp/equal_lnn_AM_training0.9Hz_s35.m4a,,,,,,,,,,,,,,,,,,,,,,,,,,,
,,,,,,,,,,,,41827,2021-09-26_11h25.57.599,judgeSpeechMusic_20210921_logNormShiftAmp_detection_fixS,2020.1.2,Linux x86_64,60,,,2,9.5944,1,1,0,2,2,1,1,stimuli/stim_20210706_power2amp/equal_lnn_AM_training1.8Hz_s35.m4a,2.6722,,,,,,,,,,,,,,,,,,,,,,,,,,
,,,,,,,,,,,,41827,2021-09-26_11h25.57.599,judgeSpeechMusic_20210921_logNormShiftAmp_detection_fixS,2020.1.2,Linux x86_64,60,,,2,11.4402,,0,0,3,3,2,1,stimuli/stim_20210706_power2amp/equal_lnn_AM_training3Hz_s35.m4a,,,,,,,,,,,,,,,,,,,,,,,,,,,
,,,,,,,,,,,,41827,2021-09-26_11h25.57.599,judgeSpeechMusic_20210921_logNormShiftAmp_detection_fixS,2020.1.2,Linux x86_64,60,,,,,,,,,,,,,,space,3.598,space,2.3082,2,7.1541,,0,0,0,0,38,1,stimuli/stim_20210706_power2amp/equal_lnn_AM2.4Hz_s35_46.m4a,,,,,,,,,,,,
,,,,,,,,,,,,41827,2021-09-26_11h25.57.599,judgeSpeechMusic_20210921_logNormShiftAmp_detection_fixS,2020.1.2,Linux x86_64,60,,,,,,,,,,,,,,,,,,1,8.7483,,0,0,1,1,45,1,stimuli/stim_20210706_power2amp/equal_lnn_AM3.6Hz_s35_26.m4a,,,,,,,,,,,,
,,,,,,,,,,,,41827,2021-09-26_11h25.57.599,judgeSpeechMusic_20210921_logNormShiftAmp_detection_fixS,2020.1.2,Linux x86_64,60,,,,,,,,,,,,,,,,,,1,8.0195,,0,0,2,2,56,1,stimuli/stim_20210706_power2amp/equal_lnn_AM3.6Hz_s35_23.m4a,,,,,,,,,,,,
,,,,,,,,,,,,41827,2021-09-26_11h25.57.599,judgeSpeechMusic_20210921_logNormShiftAmp_detection_fixS,2020.1.2,Linux x86_64,60,,,,,,,,,,,,,,,,,,2,9.0152,,0,0,3,3,64,1,stimuli/stim_20210706_power2amp/equal_lnn_AM4.2Hz_s35_4.m4a,,,,,,,,,,,,
,,,,,,,,,,,,41827,2021-09-26_11h25.57.599,judgeSpeechMusic_20210921_logNormShiftAmp_detection_fixS,2020.1.2,Linux x86_64,60,,,,,,,,,,,,,,,,,,1,6.431,,0,0,4,4,1,1,stimuli/stim_20210706_power2amp/equal_lnn_AM0.6Hz_s35_25.m4a,,,,,,,,,,,,
,,,,,,,,,,,,41827,2021-09-26_11h25.57.599,judgeSpeechMusic_20210921_logNormShiftAmp_detection_fixS,2020.1.2,Linux x86_64,60,,,,,,,,,,,,,,,,,,1,5.7383,,0,0,5,5,25,1,stimuli/stim_20210706_power2amp/equal_lnn_AM1.2Hz_s35_27.m4a,,,,,,,,,,,,
,,,,,,,,,,,,41827,2021-09-26_11h25.57.599,judgeSpeechMusic_20210921_logNormShiftAmp_detection_fixS,2020.1.2,Linux x86_64,60,,,,,,,,,,,,,,,,,,1,8.6486,,0,0,6,6,44,1,stimuli/stim_20210706_power2amp/equal_lnn_AM2.4Hz_s35_10.m4a,,,,,,,,,,,,
,,,,,,,,,,,,41827,2021-09-26_11h25.57.599,judgeSpeechMusic_20210921_logNormShiftAmp_detection_fixS,2020.1.2,Linux x86_64,60,,,,,,,,,,,,,,,,,,2,5.9163,,0,0,7,7,59,1,stimuli/stim_20210706_power2amp/equal_lnn_AM3.6Hz_s35_3.m4a,,,,,,,,,,,,
,,,,,,,,,,,,41827,2021-09-26_11h25.57.599,judgeSpeechMusic_20210921_logNormShiftAmp_detection_fixS,2020.1.2,Linux x86_64,60,,,,,,,,,,,,,,,,,,1,11.4483,,0,0,8,8,11,1,stimuli/stim_20210706_power2amp/equal_lnn_AM0.6Hz_s35_30.m4a,,,,,,,,,,,,
,,,,,,,,,,,,41827,2021-09-26_11h25.57.599,judgeSpeechMusic_20210921_logNormShiftAmp_detection_fixS,2020.1.2,Linux x86_64,60,,,,,,,,,,,,,,,,,,2,6.0795,,0,0,9,9,23,1,stimuli/stim_20210706_power2amp/equal_lnn_AM1.2Hz_s35_48.m4a,,,,,,,,,,,,
,,,,,,,,,,,,41827,2021-09-26_11h25.57.599,judgeSpeechMusic_20210921_logNormShiftAmp_detection_fixS,2020.1.2,Linux x86_64,60,,,,,,,,,,,,,,,,,,2,7.6907,,0,0,10,10,69,1,stimuli/stim_20210706_power2amp/equal_lnn_AM4.2Hz_s35_30.m4a,,,,,,,,,,,,
,,,,,,,,,,,,41827,2021-09-26_11h25.57.599,judgeSpeechMusic_20210921_logNormShiftAmp_detection_fixS,2020.1.2,Linux x86_64,60,,,,,,,,,,,,,,,,,,2,7.548,,0,0,11,11,24,1,stimuli/stim_20210706_power2amp/equal_lnn_AM1.2Hz_s35_34.m4a,,,,,,,,,,,,
,,,,,,,,,,,,41827,2021-09-26_11h25.57.599,judgeSpeechMusic_20210921_logNormShiftAmp_detection_fixS,2020.1.2,Linux x86_64,60,,,,,,,,,,,,,,,,,,1,6.7132,,0,0,12,12,20,1,stimuli/stim_20210706_power2amp/equal_lnn_AM1.2Hz_s35_16.m4a,,,,,,,,,,,,
,,,,,,,,,,,,41827,2021-09-26_11h25.57.599,judgeSpeechMusic_20210921_logNormShiftAmp_detection_fixS,2020.1.2,Linux x86_64,60,,,,,,,,,,,,,,,,,,2,9.115,,0,0,13,13,8,1,stimuli/stim_20210706_power2amp/equal_lnn_AM0.6Hz_s35_45.m4a,,,,,,,,,,,,
,,,,,,,,,,,,41827,2021-09-26_11h25.57.599,judgeSpeechMusic_20210921_logNormShiftAmp_detection_fixS,2020.1.2,Linux x86_64,60,,,,,,,,,,,,,,,,,,1,7.1382,,0,0,14,14,34,1,stimuli/stim_20210706_power2amp/equal_lnn_AM2.4Hz_s35_29.m4a,,,,,,,,,,,,
,,,,,,,,,,,,41827,2021-09-26_11h25.57.599,judgeSpeechMusic_20210921_logNormShiftAmp_detection_fixS,2020.1.2,Linux x86_64,60,,,,,,,,,,,,,,,,,,1,6.139,,0,0,15,15,67,1,stimuli/stim_20210706_power2amp/equal_lnn_AM4.2Hz_s35_39.m4a,,,,,,,,,,,,
,,,,,,,,,,,,41827,2021-09-26_11h25.57.599,judgeSpeechMusic_20210921_logNormShiftAmp_detection_fixS,2020.1.2,Linux x86_64,60,,,,,,,,,,,,,,,,,,1,7.2918,,0,0,16,16,15,1,stimuli/stim_20210706_power2amp/equal_lnn_AM1.2Hz_s35_38.m4a,,,,,,,,,,,,
,,,,,,,,,,,,41827,2021-09-26_11h25.57.599,judgeSpeechMusic_20210921_logNormShiftAmp_detection_fixS,2020.1.2,Linux x86_64,60,,,,,,,,,,,,,,,,,,2,7.1316,,0,0,17,17,37,1,stimuli/stim_20210706_power2amp/equal_lnn_AM2.4Hz_s35_16.m4a,,,,,,,,,,,,
,,,,,,,,,,,,41827,2021-09-26_11h25.57.599,judgeSpeechMusic_20210921_logNormShiftAmp_detection_fixS,2020.1.2,Linux x86_64,60,,,,,,,,,,,,,,,,,,2,6.8763,,0,0,18,18,35,1,stimuli/stim_20210706_power2amp/equal_lnn_AM2.4Hz_s35_32.m4a,,,,,,,,,,,,
,,,,,,,,,,,,41827,2021-09-26_11h25.57.599,judgeSpeechMusic_20210921_logNormShiftAmp_detection_fixS,2020.1.2,Linux x86_64,60,,,,,,,,,,,,,,,,,,1,6.3689,,0,0,19,19,31,1,stimuli/stim_20210706_power2amp/equal_lnn_AM2.4Hz_s35_49.m4a,,,,,,,,,,,,
,,,,,,,,,,,,41827,2021-09-26_11h25.57.599,judgeSpeechMusic_20210921_logNormShiftAmp_detection_fixS,2020.1.2,Linux x86_64,60,,,,,,,,,,,,,,,,,,1,8.1533,,0,0,20,20,30,1,stimuli/stim_20210706_power2amp/equal_lnn_AM2.4Hz_s35_30.m4a,,,,,,,,,,,,
,,,,,,,,,,,,41827,2021-09-26_11h25.57.599,judgeSpeechMusic_20210921_logNormShiftAmp_detection_fixS,2020.1.2,Linux x86_64,60,,,,,,,,,,,,,,,,,,1,11.6317,,0,0,21,21,63,1,stimuli/stim_20210706_power2amp/equal_lnn_AM4.2Hz_s35_11.m4a,,,,,,,,,,,,
,,,,,,,,,,,,41827,2021-09-26_11h25.57.599,judgeSpeechMusic_20210921_logNormShiftAmp_detection_fixS,2020.1.2,Linux x86_64,60,,,,,,,,,,,,,,,,,,2,6.8984,2,1,0,22,22,54,1,stimuli/stim_20210706_power2amp/equal_lnn_AM3.6Hz_s35_38.m4a,1.0244,,,,,,,,,,,
,,,,,,,,,,,,41827,2021-09-26_11h25.57.599,judgeSpeechMusic_20210921_logNormShiftAmp_detection_fixS,2020.1.2,Linux x86_64,60,,,,,,,,,,,,,,,,,,2,8.8117,,0,0,23,23,66,1,stimuli/stim_20210706_power2amp/equal_lnn_AM4.2Hz_s35_25.m4a,,,,,,,,,,,,
,,,,,,,,,,,,41827,2021-09-26_11h25.57.599,judgeSpeechMusic_20210921_logNormShiftAmp_detection_fixS,2020.1.2,Linux x86_64,60,,,,,,,,,,,,,,,,,,2,6.9157,,0,0,24,24,65,1,stimuli/stim_20210706_power2amp/equal_lnn_AM4.2Hz_s35_49.m4a,,,,,,,,,,,,
,,,,,,,,,,,,41827,2021-09-26_11h25.57.599,judgeSpeechMusic_20210921_logNormShiftAmp_detection_fixS,2020.1.2,Linux x86_64,60,,,,,,,,,,,,,,,,,,2,6.715,,0,0,25,25,26,1,stimuli/stim_20210706_power2amp/equal_lnn_AM1.2Hz_s35_45.m4a,,,,,,,,,,,,
,,,,,,,,,,,,41827,2021-09-26_11h25.57.599,judgeSpeechMusic_20210921_logNormShiftAmp_detection_fixS,2020.1.2,Linux x86_64,60,,,,,,,,,,,,,,,,,,2,6.7712,,0,0,26,26,21,1,stimuli/stim_20210706_power2amp/equal_lnn_AM1.2Hz_s35_24.m4a,,,,,,,,,,,,
,,,,,,,,,,,,41827,2021-09-26_11h25.57.599,judgeSpeechMusic_20210921_logNormShiftAmp_detection_fixS,2020.1.2,Linux x86_64,60,,,,,,,,,,,,,,,,,,1,5.9423,,0,0,27,27,32,1,stimuli/stim_20210706_power2amp/equal_lnn_AM2.4Hz_s35_9.m4a,,,,,,,,,,,,
,,,,,,,,,,,,41827,2021-09-26_11h25.57.599,judgeSpeechMusic_20210921_logNormShiftAmp_detection_fixS,2020.1.2,Linux x86_64,60,,,,,,,,,,,,,,,,,,1,8.1849,,0,0,28,28,72,1,stimuli/stim_20210706_power2amp/equal_lnn_AM4.2Hz_s35_18.m4a,,,,,,,,,,,,
,,,,,,,,,,,,41827,2021-09-26_11h25.57.599,judgeSpeechMusic_20210921_logNormShiftAmp_detection_fixS,2020.1.2,Linux x86_64,60,,,,,,,,,,,,,,,,,,1,8.2993,,0,0,29,29,36,1,stimuli/stim_20210706_power2amp/equal_lnn_AM2.4Hz_s35_2.m4a,,,,,,,,,,,,
,,,,,,,,,,,,41827,2021-09-26_11h25.57.599,judgeSpeechMusic_20210921_logNormShiftAmp_detection_fixS,2020.1.2,Linux x86_64,60,,,,,,,,,,,,,,,,,,1,6.4393,,0,0,30,30,68,1,stimuli/stim_20210706_power2amp/equal_lnn_AM4.2Hz_s35_34.m4a,,,,,,,,,,,,
,,,,,,,,,,,,41827,2021-09-26_11h25.57.599,judgeSpeechMusic_20210921_logNormShiftAmp_detection_fixS,2020.1.2,Linux x86_64,60,,,,,,,,,,,,,,,,,,2,6.8139,,0,0,31,31,61,1,stimuli/stim_20210706_power2amp/equal_lnn_AM4.2Hz_s35_31.m4a,,,,,,,,,,,,
,,,,,,,,,,,,41827,2021-09-26_11h25.57.599,judgeSpeechMusic_20210921_logNormShiftAmp_detection_fixS,2020.1.2,Linux x86_64,60,,,,,,,,,,,,,,,,,,2,8.567,,0,0,32,32,10,1,stimuli/stim_20210706_power2amp/equal_lnn_AM0.6Hz_s35_44.m4a,,,,,,,,,,,,
,,,,,,,,,,,,41827,2021-09-26_11h25.57.599,judgeSpeechMusic_20210921_logNormShiftAmp_detection_fixS,2020.1.2,Linux x86_64,60,,,,,,,,,,,,,,,,,,1,9.4988,,0,0,33,33,17,1,stimuli/stim_20210706_power2amp/equal_lnn_AM1.2Hz_s35_20.m4a,,,,,,,,,,,,
,,,,,,,,,,,,41827,2021-09-26_11h25.57.599,judgeSpeechMusic_20210921_logNormShiftAmp_detection_fixS,2020.1.2,Linux x86_64,60,,,,,,,,,,,,,,,,,,2,8.4389,,0,0,34,34,6,1,stimuli/stim_20210706_power2amp/equal_lnn_AM0.6Hz_s35_5.m4a,,,,,,,,,,,,
,,,,,,,,,,,,41827,2021-09-26_11h25.57.599,judgeSpeechMusic_20210921_logNormShiftAmp_detection_fixS,2020.1.2,Linux x86_64,60,,,,,,,,,,,,,,,,,,2,7.793,,0,0,35,35,49,1,stimuli/stim_20210706_power2amp/equal_lnn_AM3.6Hz_s35_9.m4a,,,,,,,,,,,,
,,,,,,,,,,,,41827,2021-09-26_11h25.57.599,judgeSpeechMusic_20210921_logNormShiftAmp_detection_fixS,2020.1.2,Linux x86_64,60,,,,,,,,,,,,,,,,,,2,6.135,,0,0,36,36,4,1,stimuli/stim_20210706_power2amp/equal_lnn_AM0.6Hz_s35_19.m4a,,,,,,,,,,,,
,,,,,,,,,,,,41827,2021-09-26_11h25.57.599,judgeSpeechMusic_20210921_logNormShiftAmp_detection_fixS,2020.1.2,Linux x86_64,60,,,,,,,,,,,,,,,,,,1,5.8782,,0,0,37,37,9,1,stimuli/stim_20210706_power2amp/equal_lnn_AM0.6Hz_s35_1.m4a,,,,,,,,,,,,
,,,,,,,,,,,,41827,2021-09-26_11h25.57.599,judgeSpeechMusic_20210921_logNormShiftAmp_detection_fixS,2020.1.2,Linux x86_64,60,,,,,,,,,,,,,,,,,,2,5.8577,,0,0,38,38,19,1,stimuli/stim_20210706_power2amp/equal_lnn_AM1.2Hz_s35_13.m4a,,,,,,,,,,,,
,,,,,,,,,,,,41827,2021-09-26_11h25.57.599,judgeSpeechMusic_20210921_logNormShiftAmp_detection_fixS,2020.1.2,Linux x86_64,60,,,,,,,,,,,,,,,,,,1,5.8746,,0,0,39,39,7,1,stimuli/stim_20210706_power2amp/equal_lnn_AM0.6Hz_s35_12.m4a,,,,,,,,,,,,
,,,,,,,,,,,,41827,2021-09-26_11h25.57.599,judgeSpeechMusic_20210921_logNormShiftAmp_detection_fixS,2020.1.2,Linux x86_64,60,,,,,,,,,,,,,,,,,,1,16.8827,,0,0,40,40,13,1,stimuli/stim_20210706_power2amp/equal_lnn_AM0.6Hz_s35_50.m4a,,,,,,,,,,,,
,,,,,,,,,,,,41827,2021-09-26_11h25.57.599,judgeSpeechMusic_20210921_logNormShiftAmp_detection_fixS,2020.1.2,Linux x86_64,60,,,,,,,,,,,,,,,,,,1,7.3305,,0,0,41,41,14,1,stimuli/stim_20210706_power2amp/equal_lnn_AM0.6Hz_s35_34.m4a,,,,,,,,,,,,
,,,,,,,,,,,,41827,2021-09-26_11h25.57.599,judgeSpeechMusic_20210921_logNormShiftAmp_detection_fixS,2020.1.2,Linux x86_64,60,,,,,,,,,,,,,,,,,,2,6.6551,,0,0,42,42,41,1,stimuli/stim_20210706_power2amp/equal_lnn_AM2.4Hz_s35_8.m4a,,,,,,,,,,,,
,,,,,,,,,,,,41827,2021-09-26_11h25.57.599,judgeSpeechMusic_20210921_logNormShiftAmp_detection_fixS,2020.1.2,Linux x86_64,60,,,,,,,,,,,,,,,,,,2,5.5795,,0,0,43,43,53,1,stimuli/stim_20210706_power2amp/equal_lnn_AM3.6Hz_s35_46.m4a,,,,,,,,,,,,
,,,,,,,,,,,,41827,2021-09-26_11h25.57.599,judgeSpeechMusic_20210921_logNormShiftAmp_detection_fixS,2020.1.2,Linux x86_64,60,,,,,,,,,,,,,,,,,,2,6.1303,1,1,0,44,44,16,1,stimuli/stim_20210706_power2amp/equal_lnn_AM1.2Hz_s35_23.m4a,1.4146,,,,,,,,,,,
,,,,,,,,,,,,41827,2021-09-26_11h25.57.599,judgeSpeechMusic_20210921_logNormShiftAmp_detection_fixS,2020.1.2,Linux x86_64,60,,,,,,,,,,,,,,,,,,1,7.4737,,0,0,45,45,2,1,stimuli/stim_20210706_power2amp/equal_lnn_AM0.6Hz_s35_42.m4a,,,,,,,,,,,,
,,,,,,,,,,,,41827,2021-09-26_11h25.57.599,judgeSpeechMusic_20210921_logNormShiftAmp_detection_fixS,2020.1.2,Linux x86_64,60,,,,,,,,,,,,,,,,,,2,6.2623,,0,0,46,46,22,1,stimuli/stim_20210706_power2amp/equal_lnn_AM1.2Hz_s35_33.m4a,,,,,,,,,,,,
,,,,,,,,,,,,41827,2021-09-26_11h25.57.599,judgeSpeechMusic_20210921_logNormShiftAmp_detection_fixS,2020.1.2,Linux x86_64,60,,,,,,,,,,,,,,,,,,2,5.8016,,0,0,47,47,57,1,stimuli/stim_20210706_power2amp/equal_lnn_AM3.6Hz_s35_14.m4a,,,,,,,,,,,,
,,,,,,,,,,,,41827,2021-09-26_11h25.57.599,judgeSpeechMusic_20210921_logNormShiftAmp_detection_fixS,2020.1.2,Linux x86_64,60,,,,,,,,,,,,,,,,,,1,6.8483,,0,0,48,48,71,1,stimuli/stim_20210706_power2amp/equal_lnn_AM4.2Hz_s35_46.m4a,,,,,,,,,,,,
,,,,,,,,,,,,41827,2021-09-26_11h25.57.599,judgeSpeechMusic_20210921_logNormShiftAmp_detection_fixS,2020.1.2,Linux x86_64,60,,,,,,,,,,,,,,,,,,2,8.8476,,0,0,49,49,18,1,stimuli/stim_20210706_power2amp/equal_lnn_AM1.2Hz_s35_47.m4a,,,,,,,,,,,,
,,,,,,,,,,,,41827,2021-09-26_11h25.57.599,judgeSpeechMusic_20210921_logNormShiftAmp_detection_fixS,2020.1.2,Linux x86_64,60,,,,,,,,,,,,,,,,,,1,6.4157,,0,0,50,50,33,1,stimuli/stim_20210706_power2amp/equal_lnn_AM2.4Hz_s35_13.m4a,,,,,,,,,,,,
,,,,,,,,,,,,41827,2021-09-26_11h25.57.599,judgeSpeechMusic_20210921_logNormShiftAmp_detection_fixS,2020.1.2,Linux x86_64,60,,,,,,,,,,,,,,,,,,1,8.8811,,0,0,51,51,29,1,stimuli/stim_20210706_power2amp/equal_lnn_AM1.2Hz_s35_36.m4a,,,,,,,,,,,,
,,,,,,,,,,,,41827,2021-09-26_11h25.57.599,judgeSpeechMusic_20210921_logNormShiftAmp_detection_fixS,2020.1.2,Linux x86_64,60,,,,,,,,,,,,,,,,,,2,8.6586,,0,0,52,52,46,1,stimuli/stim_20210706_power2amp/equal_lnn_AM3.6Hz_s35_7.m4a,,,,,,,,,,,,
,,,,,,,,,,,,41827,2021-09-26_11h25.57.599,judgeSpeechMusic_20210921_logNormShiftAmp_detection_fixS,2020.1.2,Linux x86_64,60,,,,,,,,,,,,,,,,,,1,9.7504,,0,0,53,53,70,1,stimuli/stim_20210706_power2amp/equal_lnn_AM4.2Hz_s35_48.m4a,,,,,,,,,,,,
,,,,,,,,,,,,41827,2021-09-26_11h25.57.599,judgeSpeechMusic_20210921_logNormShiftAmp_detection_fixS,2020.1.2,Linux x86_64,60,,,,,,,,,,,,,,,,,,2,20.8126,,0,0,54,54,3,1,stimuli/stim_20210706_power2amp/equal_lnn_AM0.6Hz_s35_48.m4a,,,,,,,,,,,,
,,,,,,,,,,,,41827,2021-09-26_11h25.57.599,judgeSpeechMusic_20210921_logNormShiftAmp_detection_fixS,2020.1.2,Linux x86_64,60,,,,,,,,,,,,,,,,,,1,6.0651,,0,0,55,55,5,1,stimuli/stim_20210706_power2amp/equal_lnn_AM0.6Hz_s35_27.m4a,,,,,,,,,,,,
,,,,,,,,,,,,41827,2021-09-26_11h25.57.599,judgeSpeechMusic_20210921_logNormShiftAmp_detection_fixS,2020.1.2,Linux x86_64,60,,,,,,,,,,,,,,,,,,2,6.5052,,0,0,56,56,60,1,stimuli/stim_20210706_power2amp/equal_lnn_AM4.2Hz_s35_9.m4a,,,,,,,,,,,,
,,,,,,,,,,,,41827,2021-09-26_11h25.57.599,judgeSpeechMusic_20210921_logNormShiftAmp_detection_fixS,2020.1.2,Linux x86_64,60,,,,,,,,,,,,,,,,,,1,7.4692,,0,0,57,57,47,1,stimuli/stim_20210706_power2amp/equal_lnn_AM3.6Hz_s35_32.m4a,,,,,,,,,,,,
,,,,,,,,,,,,41827,2021-09-26_11h25.57.599,judgeSpeechMusic_20210921_logNormShiftAmp_detection_fixS,2020.1.2,Linux x86_64,60,,,,,,,,,,,,,,,,,,1,6.6409,,0,0,58,58,0,1,stimuli/stim_20210706_power2amp/equal_lnn_AM0.6Hz_s35_13.m4a,,,,,,,,,,,,
,,,,,,,,,,,,41827,2021-09-26_11h25.57.599,judgeSpeechMusic_20210921_logNormShiftAmp_detection_fixS,2020.1.2,Linux x86_64,60,,,,,,,,,,,,,,,,,,2,20.9034,,0,0,59,59,42,1,stimuli/stim_20210706_power2amp/equal_lnn_AM2.4Hz_s35_36.m4a,,,,,,,,,,,,
,,,,,,,,,,,,41827,2021-09-26_11h25.57.599,judgeSpeechMusic_20210921_logNormShiftAmp_detection_fixS,2020.1.2,Linux x86_64,60,,,,,,,,,,,,,,,,,,2,6.0174,,0,0,60,60,58,1,stimuli/stim_20210706_power2amp/equal_lnn_AM3.6Hz_s35_2.m4a,,,,,,,,,,,,
,,,,,,,,,,,,41827,2021-09-26_11h25.57.599,judgeSpeechMusic_20210921_logNormShiftAmp_detection_fixS,2020.1.2,Linux x86_64,60,,,,,,,,,,,,,,,,,,1,7.6083,,0,0,61,61,40,1,stimuli/stim_20210706_power2amp/equal_lnn_AM2.4Hz_s35_4.m4a,,,,,,,,,,,,
,,,,,,,,,,,,41827,2021-09-26_11h25.57.599,judgeSpeechMusic_20210921_logNormShiftAmp_detection_fixS,2020.1.2,Linux x86_64,60,,,,,,,,,,,,,,,,,,1,12.4461,,0,0,62,62,39,1,stimuli/stim_20210706_power2amp/equal_lnn_AM2.4Hz_s35_6.m4a,,,,,,,,,,,,
,,,,,,,,,,,,41827,2021-09-26_11h25.57.599,judgeSpeechMusic_20210921_logNormShiftAmp_detection_fixS,2020.1.2,Linux x86_64,60,,,,,,,,,,,,,,,,,,1,14.7505,,0,0,63,63,74,1,stimuli/stim_20210706_power2amp/equal_lnn_AM4.2Hz_s35_26.m4a,,,,,,,,,,,,
,,,,,,,,,,,,41827,2021-09-26_11h25.57.599,judgeSpeechMusic_20210921_logNormShiftAmp_detection_fixS,2020.1.2,Linux x86_64,60,,,,,,,,,,,,,,,,,,2,11.6761,,0,0,64,64,73,1,stimuli/stim_20210706_power2amp/equal_lnn_AM4.2Hz_s35_47.m4a,,,,,,,,,,,,
,,,,,,,,,,,,41827,2021-09-26_11h25.57.599,judgeSpeechMusic_20210921_logNormShiftAmp_detection_fixS,2020.1.2,Linux x86_64,60,,,,,,,,,,,,,,,,,,2,8.3582,4,1,0,65,65,27,1,stimuli/stim_20210706_power2amp/equal_lnn_AM1.2Hz_s35_15.m4a,3.4116,,,,,,,,,,,
,,,,,,,,,,,,41827,2021-09-26_11h25.57.599,judgeSpeechMusic_20210921_logNormShiftAmp_detection_fixS,2020.1.2,Linux x86_64,60,,,,,,,,,,,,,,,,,,2,7.1523,,0,0,66,66,12,1,stimuli/stim_20210706_power2amp/equal_lnn_AM0.6Hz_s35_2.m4a,,,,,,,,,,,,
,,,,,,,,,,,,41827,2021-09-26_11h25.57.599,judgeSpeechMusic_20210921_logNormShiftAmp_detection_fixS,2020.1.2,Linux x86_64,60,,,,,,,,,,,,,,,,,,2,6.1201,,0,0,67,67,43,1,stimuli/stim_20210706_power2amp/equal_lnn_AM2.4Hz_s35_22.m4a,,,,,,,,,,,,
,,,,,,,,,,,,41827,2021-09-26_11h25.57.599,judgeSpeechMusic_20210921_logNormShiftAmp_detection_fixS,2020.1.2,Linux x86_64,60,,,,,,,,,,,,,,,,,,2,6.4493,,0,0,68,68,52,1,stimuli/stim_20210706_power2amp/equal_lnn_AM3.6Hz_s35_42.m4a,,,,,,,,,,,,
,,,,,,,,,,,,41827,2021-09-26_11h25.57.599,judgeSpeechMusic_20210921_logNormShiftAmp_detection_fixS,2020.1.2,Linux x86_64,60,,,,,,,,,,,,,,,,,,2,12.6541,,0,0,69,69,51,1,stimuli/stim_20210706_power2amp/equal_lnn_AM3.6Hz_s35_13.m4a,,,,,,,,,,,,
,,,,,,,,,,,,41827,2021-09-26_11h25.57.599,judgeSpeechMusic_20210921_logNormShiftAmp_detection_fixS,2020.1.2,Linux x86_64,60,,,,,,,,,,,,,,,,,,1,6.0329,,0,0,70,70,50,1,stimuli/stim_20210706_power2amp/equal_lnn_AM3.6Hz_s35_31.m4a,,,,,,,,,,,,
,,,,,,,,,,,,41827,2021-09-26_11h25.57.599,judgeSpeechMusic_20210921_logNormShiftAmp_detection_fixS,2020.1.2,Linux x86_64,60,,,,,,,,,,,,,,,,,,1,6.8483,,0,0,71,71,28,1,stimuli/stim_20210706_power2amp/equal_lnn_AM1.2Hz_s35_40.m4a,,,,,,,,,,,,
,,,,,,,,,,,,41827,2021-09-26_11h25.57.599,judgeSpeechMusic_20210921_logNormShiftAmp_detection_fixS,2020.1.2,Linux x86_64,60,,,,,,,,,,,,,,,,,,2,5.8149,,0,0,72,72,62,1,stimuli/stim_20210706_power2amp/equal_lnn_AM4.2Hz_s35_28.m4a,,,,,,,,,,,,
,,,,,,,,,,,,41827,2021-09-26_11h25.57.599,judgeSpeechMusic_20210921_logNormShiftAmp_detection_fixS,2020.1.2,Linux x86_64,60,,,,,,,,,,,,,,,,,,2,6.3815,,0,0,73,73,55,1,stimuli/stim_20210706_power2amp/equal_lnn_AM3.6Hz_s35_25.m4a,,,,,,,,,,,,
,,,,,,,,,,,,41827,2021-09-26_11h25.57.599,judgeSpeechMusic_20210921_logNormShiftAmp_detection_fixS,2020.1.2,Linux x86_64,60,,,,,,,,,,,,,,,,,,1,7.8314,,0,0,74,74,48,1,stimuli/stim_20210706_power2amp/equal_lnn_AM3.6Hz_s35_5.m4a,,,,,,,,,,,,
,,,,,,,,,,,,41827,2021-09-26_11h25.57.599,judgeSpeechMusic_20210921_logNormShiftAmp_detection_fixS,2020.1.2,Linux x86_64,60,,,,,,,,,,,,,,,,,,,,,,,,,,,,,space,2.0856,0,0,0,0,1,MUSIC,stimuli/MUSIC.jpg,,
,,,,,,,,,,,,41827,2021-09-26_11h25.57.599,judgeSpeechMusic_20210921_logNormShiftAmp_detection_fixS,2020.1.2,Linux x86_64,60,space,0.5281,2,94.9724,,0,0,0,0,0,1,stimuli/stim_20210706_power2amp/equal_lnn_AM_training0.9Hz_s35.m4a,,,,,,,,,,,,,,,,,,,,,,,,,,,
,,,,,,,,,,,,41827,2021-09-26_11h25.57.599,judgeSpeechMusic_20210921_logNormShiftAmp_detection_fixS,2020.1.2,Linux x86_64,60,,,1,7.6071,,0,0,1,1,2,1,stimuli/stim_20210706_power2amp/equal_lnn_AM_training3Hz_s35.m4a,,,,,,,,,,,,,,,,,,,,,,,,,,,
,,,,,,,,,,,,41827,2021-09-26_11h25.57.599,judgeSpeechMusic_20210921_logNormShiftAmp_detection_fixS,2020.1.2,Linux x86_64,60,,,2,8.7263,3,1,0,2,2,3,1,stimuli/stim_20210706_power2amp/equal_lnn_AM_training3.9Hz_s35.m4a,1.1731,,,,,,,,,,,,,,,,,,,,,,,,,,
,,,,,,,,,,,,41827,2021-09-26_11h25.57.599,judgeSpeechMusic_20210921_logNormShiftAmp_detection_fixS,2020.1.2,Linux x86_64,60,,,1,8.6094,,0,0,3,3,1,1,stimuli/stim_20210706_power2amp/equal_lnn_AM_training1.8Hz_s35.m4a,,,,,,,,,,,,,,,,,,,,,,,,,,,
,,,,,,,,,,,,41827,2021-09-26_11h25.57.599,judgeSpeechMusic_20210921_logNormShiftAmp_detection_fixS,2020.1.2,Linux x86_64,60,,,,,,,,,,,,,,space,2.875,space,57.6141,2,6.8352,,0,0,0,0,56,1,stimuli/stim_20210706_power2amp/equal_lnn_AM3.6Hz_s35_23.m4a,,,,,,,,,,,,
,,,,,,,,,,,,41827,2021-09-26_11h25.57.599,judgeSpeechMusic_20210921_logNormShiftAmp_detection_fixS,2020.1.2,Linux x86_64,60,,,,,,,,,,,,,,,,,,2,8.9784,,0,0,1,1,74,1,stimuli/stim_20210706_power2amp/equal_lnn_AM4.2Hz_s35_26.m4a,,,,,,,,,,,,
,,,,,,,,,,,,41827,2021-09-26_11h25.57.599,judgeSpeechMusic_20210921_logNormShiftAmp_detection_fixS,2020.1.2,Linux x86_64,60,,,,,,,,,,,,,,,,,,1,5.7961,,0,0,2,2,30,1,stimuli/stim_20210706_power2amp/equal_lnn_AM2.4Hz_s35_30.m4a,,,,,,,,,,,,
,,,,,,,,,,,,41827,2021-09-26_11h25.57.599,judgeSpeechMusic_20210921_logNormShiftAmp_detection_fixS,2020.1.2,Linux x86_64,60,,,,,,,,,,,,,,,,,,1,11.672,,0,0,3,3,34,1,stimuli/stim_20210706_power2amp/equal_lnn_AM2.4Hz_s35_29.m4a,,,,,,,,,,,,
,,,,,,,,,,,,41827,2021-09-26_11h25.57.599,judgeSpeechMusic_20210921_logNormShiftAmp_detection_fixS,2020.1.2,Linux x86_64,60,,,,,,,,,,,,,,,,,,1,15.4788,,0,0,4,4,72,1,stimuli/stim_20210706_power2amp/equal_lnn_AM4.2Hz_s35_18.m4a,,,,,,,,,,,,
,,,,,,,,,,,,41827,2021-09-26_11h25.57.599,judgeSpeechMusic_20210921_logNormShiftAmp_detection_fixS,2020.1.2,Linux x86_64,60,,,,,,,,,,,,,,,,,,1,5.6909,,0,0,5,5,9,1,stimuli/stim_20210706_power2amp/equal_lnn_AM0.6Hz_s35_1.m4a,,,,,,,,,,,,
,,,,,,,,,,,,41827,2021-09-26_11h25.57.599,judgeSpeechMusic_20210921_logNormShiftAmp_detection_fixS,2020.1.2,Linux x86_64,60,,,,,,,,,,,,,,,,,,2,6.5504,,0,0,6,6,38,1,stimuli/stim_20210706_power2amp/equal_lnn_AM2.4Hz_s35_46.m4a,,,,,,,,,,,,
,,,,,,,,,,,,41827,2021-09-26_11h25.57.599,judgeSpeechMusic_20210921_logNormShiftAmp_detection_fixS,2020.1.2,Linux x86_64,60,,,,,,,,,,,,,,,,,,1,5.9219,,0,0,7,7,62,1,stimuli/stim_20210706_power2amp/equal_lnn_AM4.2Hz_s35_28.m4a,,,,,,,,,,,,
,,,,,,,,,,,,41827,2021-09-26_11h25.57.599,judgeSpeechMusic_20210921_logNormShiftAmp_detection_fixS,2020.1.2,Linux x86_64,60,,,,,,,,,,,,,,,,,,1,6.8877,,0,0,8,8,63,1,stimuli/stim_20210706_power2amp/equal_lnn_AM4.2Hz_s35_11.m4a,,,,,,,,,,,,
,,,,,,,,,,,,41827,2021-09-26_11h25.57.599,judgeSpeechMusic_20210921_logNormShiftAmp_detection_fixS,2020.1.2,Linux x86_64,60,,,,,,,,,,,,,,,,,,2,8.93,,0,0,9,9,20,1,stimuli/stim_20210706_power2amp/equal_lnn_AM1.2Hz_s35_16.m4a,,,,,,,,,,,,
,,,,,,,,,,,,41827,2021-09-26_11h25.57.599,judgeSpeechMusic_20210921_logNormShiftAmp_detection_fixS,2020.1.2,Linux x86_64,60,,,,,,,,,,,,,,,,,,1,7.402,,0,0,10,10,19,1,stimuli/stim_20210706_power2amp/equal_lnn_AM1.2Hz_s35_13.m4a,,,,,,,,,,,,
,,,,,,,,,,,,41827,2021-09-26_11h25.57.599,judgeSpeechMusic_20210921_logNormShiftAmp_detection_fixS,2020.1.2,Linux x86_64,60,,,,,,,,,,,,,,,,,,2,5.6495,,0,0,11,11,25,1,stimuli/stim_20210706_power2amp/equal_lnn_AM1.2Hz_s35_27.m4a,,,,,,,,,,,,
,,,,,,,,,,,,41827,2021-09-26_11h25.57.599,judgeSpeechMusic_20210921_logNormShiftAmp_detection_fixS,2020.1.2,Linux x86_64,60,,,,,,,,,,,,,,,,,,2,6.8713,,0,0,12,12,17,1,stimuli/stim_20210706_power2amp/equal_lnn_AM1.2Hz_s35_20.m4a,,,,,,,,,,,,
,,,,,,,,,,,,41827,2021-09-26_11h25.57.599,judgeSpeechMusic_20210921_logNormShiftAmp_detection_fixS,2020.1.2,Linux x86_64,60,,,,,,,,,,,,,,,,,,2,6.9329,,0,0,13,13,6,1,stimuli/stim_20210706_power2amp/equal_lnn_AM0.6Hz_s35_5.m4a,,,,,,,,,,,,
,,,,,,,,,,,,41827,2021-09-26_11h25.57.599,judgeSpeechMusic_20210921_logNormShiftAmp_detection_fixS,2020.1.2,Linux x86_64,60,,,,,,,,,,,,,,,,,,1,11.9909,,0,0,14,14,32,1,stimuli/stim_20210706_power2amp/equal_lnn_AM2.4Hz_s35_9.m4a,,,,,,,,,,,,
,,,,,,,,,,,,41827,2021-09-26_11h25.57.599,judgeSpeechMusic_20210921_logNormShiftAmp_detection_fixS,2020.1.2,Linux x86_64,60,,,,,,,,,,,,,,,,,,2,8.2298,,0,0,15,15,33,1,stimuli/stim_20210706_power2amp/equal_lnn_AM2.4Hz_s35_13.m4a,,,,,,,,,,,,
,,,,,,,,,,,,41827,2021-09-26_11h25.57.599,judgeSpeechMusic_20210921_logNormShiftAmp_detection_fixS,2020.1.2,Linux x86_64,60,,,,,,,,,,,,,,,,,,2,8.7976,,0,0,16,16,13,1,stimuli/stim_20210706_power2amp/equal_lnn_AM0.6Hz_s35_50.m4a,,,,,,,,,,,,
,,,,,,,,,,,,41827,2021-09-26_11h25.57.599,judgeSpeechMusic_20210921_logNormShiftAmp_detection_fixS,2020.1.2,Linux x86_64,60,,,,,,,,,,,,,,,,,,1,7.7837,,0,0,17,17,18,1,stimuli/stim_20210706_power2amp/equal_lnn_AM1.2Hz_s35_47.m4a,,,,,,,,,,,,
,,,,,,,,,,,,41827,2021-09-26_11h25.57.599,judgeSpeechMusic_20210921_logNormShiftAmp_detection_fixS,2020.1.2,Linux x86_64,60,,,,,,,,,,,,,,,,,,2,13.5577,,0,0,18,18,41,1,stimuli/stim_20210706_power2amp/equal_lnn_AM2.4Hz_s35_8.m4a,,,,,,,,,,,,
,,,,,,,,,,,,41827,2021-09-26_11h25.57.599,judgeSpeechMusic_20210921_logNormShiftAmp_detection_fixS,2020.1.2,Linux x86_64,60,,,,,,,,,,,,,,,,,,2,6.1381,,0,0,19,19,36,1,stimuli/stim_20210706_power2amp/equal_lnn_AM2.4Hz_s35_2.m4a,,,,,,,,,,,,
,,,,,,,,,,,,41827,2021-09-26_11h25.57.599,judgeSpeechMusic_20210921_logNormShiftAmp_detection_fixS,2020.1.2,Linux x86_64,60,,,,,,,,,,,,,,,,,,1,9.2471,,0,0,20,20,5,1,stimuli/stim_20210706_power2amp/equal_lnn_AM0.6Hz_s35_27.m4a,,,,,,,,,,,,
,,,,,,,,,,,,41827,2021-09-26_11h25.57.599,judgeSpeechMusic_20210921_logNormShiftAmp_detection_fixS,2020.1.2,Linux x86_64,60,,,,,,,,,,,,,,,,,,1,12.4589,,0,0,21,21,44,1,stimuli/stim_20210706_power2amp/equal_lnn_AM2.4Hz_s35_10.m4a,,,,,,,,,,,,
,,,,,,,,,,,,41827,2021-09-26_11h25.57.599,judgeSpeechMusic_20210921_logNormShiftAmp_detection_fixS,2020.1.2,Linux x86_64,60,,,,,,,,,,,,,,,,,,2,9.2732,4,1,0,22,22,46,1,stimuli/stim_20210706_power2amp/equal_lnn_AM3.6Hz_s35_7.m4a,1.0644,,,,,,,,,,,
,,,,,,,,,,,,41827,2021-09-26_11h25.57.599,judgeSpeechMusic_20210921_logNormShiftAmp_detection_fixS,2020.1.2,Linux x86_64,60,,,,,,,,,,,,,,,,,,1,6.7507,,0,0,23,23,23,1,stimuli/stim_20210706_power2amp/equal_lnn_AM1.2Hz_s35_48.m4a,,,,,,,,,,,,
,,,,,,,,,,,,41827,2021-09-26_11h25.57.599,judgeSpeechMusic_20210921_logNormShiftAmp_detection_fixS,2020.1.2,Linux x86_64,60,,,,,,,,,,,,,,,,,,1,6.8501,,0,0,24,24,48,1,stimuli/stim_20210706_power2amp/equal_lnn_AM3.6Hz_s35_5.m4a,,,,,,,,,,,,
,,,,,,,,,,,,41827,2021-09-26_11h25.57.599,judgeSpeechMusic_20210921_logNormShiftAmp_detection_fixS,2020.1.2,Linux x86_64,60,,,,,,,,,,,,,,,,,,2,6.4834,,0,0,25,25,51,1,stimuli/stim_20210706_power2amp/equal_lnn_AM3.6Hz_s35_13.m4a,,,,,,,,,,,,
,,,,,,,,,,,,41827,2021-09-26_11h25.57.599,judgeSpeechMusic_20210921_logNormShiftAmp_detection_fixS,2020.1.2,Linux x86_64,60,,,,,,,,,,,,,,,,,,1,6.2478,,0,0,26,26,11,1,stimuli/stim_20210706_power2amp/equal_lnn_AM0.6Hz_s35_30.m4a,,,,,,,,,,,,
,,,,,,,,,,,,41827,2021-09-26_11h25.57.599,judgeSpeechMusic_20210921_logNormShiftAmp_detection_fixS,2020.1.2,Linux x86_64,60,,,,,,,,,,,,,,,,,,2,6.4668,,0,0,27,27,16,1,stimuli/stim_20210706_power2amp/equal_lnn_AM1.2Hz_s35_23.m4a,,,,,,,,,,,,
,,,,,,,,,,,,41827,2021-09-26_11h25.57.599,judgeSpeechMusic_20210921_logNormShiftAmp_detection_fixS,2020.1.2,Linux x86_64,60,,,,,,,,,,,,,,,,,,2,6.6833,,0,0,28,28,73,1,stimuli/stim_20210706_power2amp/equal_lnn_AM4.2Hz_s35_47.m4a,,,,,,,,,,,,
,,,,,,,,,,,,41827,2021-09-26_11h25.57.599,judgeSpeechMusic_20210921_logNormShiftAmp_detection_fixS,2020.1.2,Linux x86_64,60,,,,,,,,,,,,,,,,,,1,6.6485,,0,0,29,29,61,1,stimuli/stim_20210706_power2amp/equal_lnn_AM4.2Hz_s35_31.m4a,,,,,,,,,,,,
,,,,,,,,,,,,41827,2021-09-26_11h25.57.599,judgeSpeechMusic_20210921_logNormShiftAmp_detection_fixS,2020.1.2,Linux x86_64,60,,,,,,,,,,,,,,,,,,1,6.977,,0,0,30,30,4,1,stimuli/stim_20210706_power2amp/equal_lnn_AM0.6Hz_s35_19.m4a,,,,,,,,,,,,
,,,,,,,,,,,,41827,2021-09-26_11h25.57.599,judgeSpeechMusic_20210921_logNormShiftAmp_detection_fixS,2020.1.2,Linux x86_64,60,,,,,,,,,,,,,,,,,,2,7.1038,,0,0,31,31,52,1,stimuli/stim_20210706_power2amp/equal_lnn_AM3.6Hz_s35_42.m4a,,,,,,,,,,,,
,,,,,,,,,,,,41827,2021-09-26_11h25.57.599,judgeSpeechMusic_20210921_logNormShiftAmp_detection_fixS,2020.1.2,Linux x86_64,60,,,,,,,,,,,,,,,,,,2,6.6002,,0,0,32,32,26,1,stimuli/stim_20210706_power2amp/equal_lnn_AM1.2Hz_s35_45.m4a,,,,,,,,,,,,
,,,,,,,,,,,,41827,2021-09-26_11h25.57.599,judgeSpeechMusic_20210921_logNormShiftAmp_detection_fixS,2020.1.2,Linux x86_64,60,,,,,,,,,,,,,,,,,,1,7.1089,,0,0,33,33,45,1,stimuli/stim_20210706_power2amp/equal_lnn_AM3.6Hz_s35_26.m4a,,,,,,,,,,,,
,,,,,,,,,,,,41827,2021-09-26_11h25.57.599,judgeSpeechMusic_20210921_logNormShiftAmp_detection_fixS,2020.1.2,Linux x86_64,60,,,,,,,,,,,,,,,,,,1,6.8409,,0,0,34,34,40,1,stimuli/stim_20210706_power2amp/equal_lnn_AM2.4Hz_s35_4.m4a,,,,,,,,,,,,
,,,,,,,,,,,,41827,2021-09-26_11h25.57.599,judgeSpeechMusic_20210921_logNormShiftAmp_detection_fixS,2020.1.2,Linux x86_64,60,,,,,,,,,,,,,,,,,,1,7.9795,,0,0,35,35,14,1,stimuli/stim_20210706_power2amp/equal_lnn_AM0.6Hz_s35_34.m4a,,,,,,,,,,,,
,,,,,,,,,,,,41827,2021-09-26_11h25.57.599,judgeSpeechMusic_20210921_logNormShiftAmp_detection_fixS,2020.1.2,Linux x86_64,60,,,,,,,,,,,,,,,,,,2,6.9068,,0,0,36,36,2,1,stimuli/stim_20210706_power2amp/equal_lnn_AM0.6Hz_s35_42.m4a,,,,,,,,,,,,
,,,,,,,,,,,,41827,2021-09-26_11h25.57.599,judgeSpeechMusic_20210921_logNormShiftAmp_detection_fixS,2020.1.2,Linux x86_64,60,,,,,,,,,,,,,,,,,,2,6.8653,,0,0,37,37,66,1,stimuli/stim_20210706_power2amp/equal_lnn_AM4.2Hz_s35_25.m4a,,,,,,,,,,,,
,,,,,,,,,,,,41827,2021-09-26_11h25.57.599,judgeSpeechMusic_20210921_logNormShiftAmp_detection_fixS,2020.1.2,Linux x86_64,60,,,,,,,,,,,,,,,,,,1,6.4582,,0,0,38,38,60,1,stimuli/stim_20210706_power2amp/equal_lnn_AM4.2Hz_s35_9.m4a,,,,,,,,,,,,
,,,,,,,,,,,,41827,2021-09-26_11h25.57.599,judgeSpeechMusic_20210921_logNormShiftAmp_detection_fixS,2020.1.2,Linux x86_64,60,,,,,,,,,,,,,,,,,,1,6.3406,,0,0,39,39,7,1,stimuli/stim_20210706_power2amp/equal_lnn_AM0.6Hz_s35_12.m4a,,,,,,,,,,,,
,,,,,,,,,,,,41827,2021-09-26_11h25.57.599,judgeSpeechMusic_20210921_logNormShiftAmp_detection_fixS,2020.1.2,Linux x86_64,60,,,,,,,,,,,,,,,,,,1,5.4168,,0,0,40,40,35,1,stimuli/stim_20210706_power2amp/equal_lnn_AM2.4Hz_s35_32.m4a,,,,,,,,,,,,
,,,,,,,,,,,,41827,2021-09-26_11h25.57.599,judgeSpeechMusic_20210921_logNormShiftAmp_detection_fixS,2020.1.2,Linux x86_64,60,,,,,,,,,,,,,,,,,,2,6.5011,,0,0,41,41,55,1,stimuli/stim_20210706_power2amp/equal_lnn_AM3.6Hz_s35_25.m4a,,,,,,,,,,,,
,,,,,,,,,,,,41827,2021-09-26_11h25.57.599,judgeSpeechMusic_20210921_logNormShiftAmp_detection_fixS,2020.1.2,Linux x86_64,60,,,,,,,,,,,,,,,,,,2,8.1063,,0,0,42,42,39,1,stimuli/stim_20210706_power2amp/equal_lnn_AM2.4Hz_s35_6.m4a,,,,,,,,,,,,
,,,,,,,,,,,,41827,2021-09-26_11h25.57.599,judgeSpeechMusic_20210921_logNormShiftAmp_detection_fixS,2020.1.2,Linux x86_64,60,,,,,,,,,,,,,,,,,,1,6.458,,0,0,43,43,12,1,stimuli/stim_20210706_power2amp/equal_lnn_AM0.6Hz_s35_2.m4a,,,,,,,,,,,,
,,,,,,,,,,,,41827,2021-09-26_11h25.57.599,judgeSpeechMusic_20210921_logNormShiftAmp_detection_fixS,2020.1.2,Linux x86_64,60,,,,,,,,,,,,,,,,,,1,7.6802,1,1,0,44,44,21,1,stimuli/stim_20210706_power2amp/equal_lnn_AM1.2Hz_s35_24.m4a,1.349,,,,,,,,,,,
,,,,,,,,,,,,41827,2021-09-26_11h25.57.599,judgeSpeechMusic_20210921_logNormShiftAmp_detection_fixS,2020.1.2,Linux x86_64,60,,,,,,,,,,,,,,,,,,2,11.4671,,0,0,45,45,43,1,stimuli/stim_20210706_power2amp/equal_lnn_AM2.4Hz_s35_22.m4a,,,,,,,,,,,,
,,,,,,,,,,,,41827,2021-09-26_11h25.57.599,judgeSpeechMusic_20210921_logNormShiftAmp_detection_fixS,2020.1.2,Linux x86_64,60,,,,,,,,,,,,,,,,,,2,18.2063,,0,0,46,46,53,1,stimuli/stim_20210706_power2amp/equal_lnn_AM3.6Hz_s35_46.m4a,,,,,,,,,,,,
,,,,,,,,,,,,41827,2021-09-26_11h25.57.599,judgeSpeechMusic_20210921_logNormShiftAmp_detection_fixS,2020.1.2,Linux x86_64,60,,,,,,,,,,,,,,,,,,1,8.0034,,0,0,47,47,10,1,stimuli/stim_20210706_power2amp/equal_lnn_AM0.6Hz_s35_44.m4a,,,,,,,,,,,,
,,,,,,,,,,,,41827,2021-09-26_11h25.57.599,judgeSpeechMusic_20210921_logNormShiftAmp_detection_fixS,2020.1.2,Linux x86_64,60,,,,,,,,,,,,,,,,,,2,7.9463,,0,0,48,48,29,1,stimuli/stim_20210706_power2amp/equal_lnn_AM1.2Hz_s35_36.m4a,,,,,,,,,,,,
,,,,,,,,,,,,41827,2021-09-26_11h25.57.599,judgeSpeechMusic_20210921_logNormShiftAmp_detection_fixS,2020.1.2,Linux x86_64,60,,,,,,,,,,,,,,,,,,2,8.5915,,0,0,49,49,49,1,stimuli/stim_20210706_power2amp/equal_lnn_AM3.6Hz_s35_9.m4a,,,,,,,,,,,,
,,,,,,,,,,,,41827,2021-09-26_11h25.57.599,judgeSpeechMusic_20210921_logNormShiftAmp_detection_fixS,2020.1.2,Linux x86_64,60,,,,,,,,,,,,,,,,,,1,6.8729,,0,0,50,50,69,1,stimuli/stim_20210706_power2amp/equal_lnn_AM4.2Hz_s35_30.m4a,,,,,,,,,,,,
,,,,,,,,,,,,41827,2021-09-26_11h25.57.599,judgeSpeechMusic_20210921_logNormShiftAmp_detection_fixS,2020.1.2,Linux x86_64,60,,,,,,,,,,,,,,,,,,1,9.4538,,0,0,51,51,58,1,stimuli/stim_20210706_power2amp/equal_lnn_AM3.6Hz_s35_2.m4a,,,,,,,,,,,,
,,,,,,,,,,,,41827,2021-09-26_11h25.57.599,judgeSpeechMusic_20210921_logNormShiftAmp_detection_fixS,2020.1.2,Linux x86_64,60,,,,,,,,,,,,,,,,,,1,9.6053,,0,0,52,52,27,1,stimuli/stim_20210706_power2amp/equal_lnn_AM1.2Hz_s35_15.m4a,,,,,,,,,,,,
,,,,,,,,,,,,41827,2021-09-26_11h25.57.599,judgeSpeechMusic_20210921_logNormShiftAmp_detection_fixS,2020.1.2,Linux x86_64,60,,,,,,,,,,,,,,,,,,2,8.9562,,0,0,53,53,1,1,stimuli/stim_20210706_power2amp/equal_lnn_AM0.6Hz_s35_25.m4a,,,,,,,,,,,,
,,,,,,,,,,,,41827,2021-09-26_11h25.57.599,judgeSpeechMusic_20210921_logNormShiftAmp_detection_fixS,2020.1.2,Linux x86_64,60,,,,,,,,,,,,,,,,,,2,8.8804,,0,0,54,54,3,1,stimuli/stim_20210706_power2amp/equal_lnn_AM0.6Hz_s35_48.m4a,,,,,,,,,,,,
,,,,,,,,,,,,41827,2021-09-26_11h25.57.599,judgeSpeechMusic_20210921_logNormShiftAmp_detection_fixS,2020.1.2,Linux x86_64,60,,,,,,,,,,,,,,,,,,1,7.6531,,0,0,55,55,59,1,stimuli/stim_20210706_power2amp/equal_lnn_AM3.6Hz_s35_3.m4a,,,,,,,,,,,,
,,,,,,,,,,,,41827,2021-09-26_11h25.57.599,judgeSpeechMusic_20210921_logNormShiftAmp_detection_fixS,2020.1.2,Linux x86_64,60,,,,,,,,,,,,,,,,,,2,6.9482,,0,0,56,56,54,1,stimuli/stim_20210706_power2amp/equal_lnn_AM3.6Hz_s35_38.m4a,,,,,,,,,,,,
,,,,,,,,,,,,41827,2021-09-26_11h25.57.599,judgeSpeechMusic_20210921_logNormShiftAmp_detection_fixS,2020.1.2,Linux x86_64,60,,,,,,,,,,,,,,,,,,2,7.5312,,0,0,57,57,64,1,stimuli/stim_20210706_power2amp/equal_lnn_AM4.2Hz_s35_4.m4a,,,,,,,,,,,,
,,,,,,,,,,,,41827,2021-09-26_11h25.57.599,judgeSpeechMusic_20210921_logNormShiftAmp_detection_fixS,2020.1.2,Linux x86_64,60,,,,,,,,,,,,,,,,,,1,7.0321,,0,0,58,58,8,1,stimuli/stim_20210706_power2amp/equal_lnn_AM0.6Hz_s35_45.m4a,,,,,,,,,,,,
,,,,,,,,,,,,41827,2021-09-26_11h25.57.599,judgeSpeechMusic_20210921_logNormShiftAmp_detection_fixS,2020.1.2,Linux x86_64,60,,,,,,,,,,,,,,,,,,1,7.055,,0,0,59,59,31,1,stimuli/stim_20210706_power2amp/equal_lnn_AM2.4Hz_s35_49.m4a,,,,,,,,,,,,
,,,,,,,,,,,,41827,2021-09-26_11h25.57.599,judgeSpeechMusic_20210921_logNormShiftAmp_detection_fixS,2020.1.2,Linux x86_64,60,,,,,,,,,,,,,,,,,,2,7.7014,,0,0,60,60,57,1,stimuli/stim_20210706_power2amp/equal_lnn_AM3.6Hz_s35_14.m4a,,,,,,,,,,,,
,,,,,,,,,,,,41827,2021-09-26_11h25.57.599,judgeSpeechMusic_20210921_logNormShiftAmp_detection_fixS,2020.1.2,Linux x86_64,60,,,,,,,,,,,,,,,,,,1,7.7307,,0,0,61,61,47,1,stimuli/stim_20210706_power2amp/equal_lnn_AM3.6Hz_s35_32.m4a,,,,,,,,,,,,
,,,,,,,,,,,,41827,2021-09-26_11h25.57.599,judgeSpeechMusic_20210921_logNormShiftAmp_detection_fixS,2020.1.2,Linux x86_64,60,,,,,,,,,,,,,,,,,,2,11.8152,,0,0,62,62,71,1,stimuli/stim_20210706_power2amp/equal_lnn_AM4.2Hz_s35_46.m4a,,,,,,,,,,,,
,,,,,,,,,,,,41827,2021-09-26_11h25.57.599,judgeSpeechMusic_20210921_logNormShiftAmp_detection_fixS,2020.1.2,Linux x86_64,60,,,,,,,,,,,,,,,,,,2,7.7165,,0,0,63,63,50,1,stimuli/stim_20210706_power2amp/equal_lnn_AM3.6Hz_s35_31.m4a,,,,,,,,,,,,
,,,,,,,,,,,,41827,2021-09-26_11h25.57.599,judgeSpeechMusic_20210921_logNormShiftAmp_detection_fixS,2020.1.2,Linux x86_64,60,,,,,,,,,,,,,,,,,,1,6.9222,,0,0,64,64,15,1,stimuli/stim_20210706_power2amp/equal_lnn_AM1.2Hz_s35_38.m4a,,,,,,,,,,,,
,,,,,,,,,,,,41827,2021-09-26_11h25.57.599,judgeSpeechMusic_20210921_logNormShiftAmp_detection_fixS,2020.1.2,Linux x86_64,60,,,,,,,,,,,,,,,,,,1,6.4877,2,1,0,65,65,28,1,stimuli/stim_20210706_power2amp/equal_lnn_AM1.2Hz_s35_40.m4a,0.5816,,,,,,,,,,,
,,,,,,,,,,,,41827,2021-09-26_11h25.57.599,judgeSpeechMusic_20210921_logNormShiftAmp_detection_fixS,2020.1.2,Linux x86_64,60,,,,,,,,,,,,,,,,,,1,7.3971,,0,0,66,66,70,1,stimuli/stim_20210706_power2amp/equal_lnn_AM4.2Hz_s35_48.m4a,,,,,,,,,,,,
,,,,,,,,,,,,41827,2021-09-26_11h25.57.599,judgeSpeechMusic_20210921_logNormShiftAmp_detection_fixS,2020.1.2,Linux x86_64,60,,,,,,,,,,,,,,,,,,2,7.2957,,0,0,67,67,22,1,stimuli/stim_20210706_power2amp/equal_lnn_AM1.2Hz_s35_33.m4a,,,,,,,,,,,,
,,,,,,,,,,,,41827,2021-09-26_11h25.57.599,judgeSpeechMusic_20210921_logNormShiftAmp_detection_fixS,2020.1.2,Linux x86_64,60,,,,,,,,,,,,,,,,,,2,11.436,,0,0,68,68,68,1,stimuli/stim_20210706_power2amp/equal_lnn_AM4.2Hz_s35_34.m4a,,,,,,,,,,,,
,,,,,,,,,,,,41827,2021-09-26_11h25.57.599,judgeSpeechMusic_20210921_logNormShiftAmp_detection_fixS,2020.1.2,Linux x86_64,60,,,,,,,,,,,,,,,,,,1,8.1271,,0,0,69,69,0,1,stimuli/stim_20210706_power2amp/equal_lnn_AM0.6Hz_s35_13.m4a,,,,,,,,,,,,
,,,,,,,,,,,,41827,2021-09-26_11h25.57.599,judgeSpeechMusic_20210921_logNormShiftAmp_detection_fixS,2020.1.2,Linux x86_64,60,,,,,,,,,,,,,,,,,,1,7.1753,,0,0,70,70,24,1,stimuli/stim_20210706_power2amp/equal_lnn_AM1.2Hz_s35_34.m4a,,,,,,,,,,,,
,,,,,,,,,,,,41827,2021-09-26_11h25.57.599,judgeSpeechMusic_20210921_logNormShiftAmp_detection_fixS,2020.1.2,Linux x86_64,60,,,,,,,,,,,,,,,,,,1,8.19,,0,0,71,71,42,1,stimuli/stim_20210706_power2amp/equal_lnn_AM2.4Hz_s35_36.m4a,,,,,,,,,,,,
,,,,,,,,,,,,41827,2021-09-26_11h25.57.599,judgeSpeechMusic_20210921_logNormShiftAmp_detection_fixS,2020.1.2,Linux x86_64,60,,,,,,,,,,,,,,,,,,2,15.3648,,0,0,72,72,65,1,stimuli/stim_20210706_power2amp/equal_lnn_AM4.2Hz_s35_49.m4a,,,,,,,,,,,,
,,,,,,,,,,,,41827,2021-09-26_11h25.57.599,judgeSpeechMusic_20210921_logNormShiftAmp_detection_fixS,2020.1.2,Linux x86_64,60,,,,,,,,,,,,,,,,,,2,9.5344,,0,0,73,73,67,1,stimuli/stim_20210706_power2amp/equal_lnn_AM4.2Hz_s35_39.m4a,,,,,,,,,,,,
,,,,,,,,,,,,41827,2021-09-26_11h25.57.599,judgeSpeechMusic_20210921_logNormShiftAmp_detection_fixS,2020.1.2,Linux x86_64,60,,,,,,,,,,,,,,,,,,1,7.3608,,0,0,74,74,37,1,stimuli/stim_20210706_power2amp/equal_lnn_AM2.4Hz_s35_16.m4a,,,,,,,,,,,,
,,,,,,,,,,,,41827,2021-09-26_11h25.57.599,judgeSpeechMusic_20210921_logNormShiftAmp_detection_fixS,2020.1.2,Linux x86_64,60,,,,,,,,,,,,,,,,,,,,,,,,,,,,,space,35.7037,0,1,1,1,1,SPEECH,stimuli/SPEECH.jpg,,
,,,,,,,,,,,,41827,2021-09-26_11h25.57.599,judgeSpeechMusic_20210921_logNormShiftAmp_detection_fixS,2020.1.2,Linux x86_64,60,,,,,,0,0,0,0,3,1,stimuli/stim_20210706_power2amp/equal_lnn_AM_training3.9Hz_s35.m4a,,,,,,,,,,,,,,,,,,,,,,,,,,,
,,,,,,,,,,,,41827,2021-09-26_11h25.57.599,judgeSpeechMusic_20210921_logNormShiftAmp_detection_fixS,2020.1.2,Linux x86_64,60,,,,,,,,,,,,,,space,3.1818,space,8.8506,1,5.9256,,0,0,0,0,2,1,stimuli/stim_20210706_power2amp/equal_lnn_AM0.6Hz_s35_42.m4a,,,,,,,,,,,,
,,,,,,,,,,,,41827,2021-09-26_11h25.57.599,judgeSpeechMusic_20210921_logNormShiftAmp_detection_fixS,2020.1.2,Linux x86_64,60,,,,,,,,,,,,,,,,,,1,6.4107,,0,0,1,1,13,1,stimuli/stim_20210706_power2amp/equal_lnn_AM0.6Hz_s35_50.m4a,,,,,,,,,,,,
,,,,,,,,,,,,41827,2021-09-26_11h25.57.599,judgeSpeechMusic_20210921_logNormShiftAmp_detection_fixS,2020.1.2,Linux x86_64,60,,,,,,,,,,,,,,,,,,1,45.3573,,0,0,2,2,9,1,stimuli/stim_20210706_power2amp/equal_lnn_AM0.6Hz_s35_1.m4a,,,,,,,,,,,,
,,,,,,,,,,,,41827,2021-09-26_11h25.57.599,judgeSpeechMusic_20210921_logNormShiftAmp_detection_fixS,2020.1.2,Linux x86_64,60,,,,,,,,,,,,,,,,,,2,8.0872,,0,0,3,3,10,1,stimuli/stim_20210706_power2amp/equal_lnn_AM0.6Hz_s35_44.m4a,,,,,,,,,,,,
,,,,,,,,,,,,41827,2021-09-26_11h25.57.599,judgeSpeechMusic_20210921_logNormShiftAmp_detection_fixS,2020.1.2,Linux x86_64,60,,,,,,,,,,,,,,,,,,2,8.6683,,0,0,4,4,60,1,stimuli/stim_20210706_power2amp/equal_lnn_AM4.2Hz_s35_9.m4a,,,,,,,,,,,,
,,,,,,,,,,,,41827,2021-09-26_11h25.57.599,judgeSpeechMusic_20210921_logNormShiftAmp_detection_fixS,2020.1.2,Linux x86_64,60,,,,,,,,,,,,,,,,,,2,18.3725,,0,0,5,5,42,1,stimuli/stim_20210706_power2amp/equal_lnn_AM2.4Hz_s35_36.m4a,,,,,,,,,,,,
,,,,,,,,,,,,41827,2021-09-26_11h25.57.599,judgeSpeechMusic_20210921_logNormShiftAmp_detection_fixS,2020.1.2,Linux x86_64,60,,,,,,,,,,,,,,,,,,2,5.7378,,0,0,6,6,12,1,stimuli/stim_20210706_power2amp/equal_lnn_AM0.6Hz_s35_2.m4a,,,,,,,,,,,,
,,,,,,,,,,,,41827,2021-09-26_11h25.57.599,judgeSpeechMusic_20210921_logNormShiftAmp_detection_fixS,2020.1.2,Linux x86_64,60,,,,,,,,,,,,,,,,,,1,7.9791,,0,0,7,7,29,1,stimuli/stim_20210706_power2amp/equal_lnn_AM1.2Hz_s35_36.m4a,,,,,,,,,,,,
,,,,,,,,,,,,41827,2021-09-26_11h25.57.599,judgeSpeechMusic_20210921_logNormShiftAmp_detection_fixS,2020.1.2,Linux x86_64,60,,,,,,,,,,,,,,,,,,1,8.3978,,0,0,8,8,37,1,stimuli/stim_20210706_power2amp/equal_lnn_AM2.4Hz_s35_16.m4a,,,,,,,,,,,,
,,,,,,,,,,,,41827,2021-09-26_11h25.57.599,judgeSpeechMusic_20210921_logNormShiftAmp_detection_fixS,2020.1.2,Linux x86_64,60,,,,,,,,,,,,,,,,,,2,8.429,,0,0,9,9,4,1,stimuli/stim_20210706_power2amp/equal_lnn_AM0.6Hz_s35_19.m4a,,,,,,,,,,,,
,,,,,,,,,,,,41827,2021-09-26_11h25.57.599,judgeSpeechMusic_20210921_logNormShiftAmp_detection_fixS,2020.1.2,Linux x86_64,60,,,,,,,,,,,,,,,,,,2,7.5521,,0,0,10,10,6,1,stimuli/stim_20210706_power2amp/equal_lnn_AM0.6Hz_s35_5.m4a,,,,,,,,,,,,
,,,,,,,,,,,,41827,2021-09-26_11h25.57.599,judgeSpeechMusic_20210921_logNormShiftAmp_detection_fixS,2020.1.2,Linux x86_64,60,,,,,,,,,,,,,,,,,,1,11.64,,0,0,11,11,0,1,stimuli/stim_20210706_power2amp/equal_lnn_AM0.6Hz_s35_13.m4a,,,,,,,,,,,,
,,,,,,,,,,,,41827,2021-09-26_11h25.57.599,judgeSpeechMusic_20210921_logNormShiftAmp_detection_fixS,2020.1.2,Linux x86_64,60,,,,,,,,,,,,,,,,,,2,10.9887,,0,0,12,12,18,1,stimuli/stim_20210706_power2amp/equal_lnn_AM1.2Hz_s35_47.m4a,,,,,,,,,,,,
,,,,,,,,,,,,41827,2021-09-26_11h25.57.599,judgeSpeechMusic_20210921_logNormShiftAmp_detection_fixS,2020.1.2,Linux x86_64,60,,,,,,,,,,,,,,,,,,1,13.199,,0,0,13,13,66,1,stimuli/stim_20210706_power2amp/equal_lnn_AM4.2Hz_s35_25.m4a,,,,,,,,,,,,
,,,,,,,,,,,,41827,2021-09-26_11h25.57.599,judgeSpeechMusic_20210921_logNormShiftAmp_detection_fixS,2020.1.2,Linux x86_64,60,,,,,,,,,,,,,,,,,,2,9.8142,,0,0,14,14,50,1,stimuli/stim_20210706_power2amp/equal_lnn_AM3.6Hz_s35_31.m4a,,,,,,,,,,,,
,,,,,,,,,,,,41827,2021-09-26_11h25.57.599,judgeSpeechMusic_20210921_logNormShiftAmp_detection_fixS,2020.1.2,Linux x86_64,60,,,,,,,,,,,,,,,,,,2,6.8182,,0,0,15,15,48,1,stimuli/stim_20210706_power2amp/equal_lnn_AM3.6Hz_s35_5.m4a,,,,,,,,,,,,
,,,,,,,,,,,,41827,2021-09-26_11h25.57.599,judgeSpeechMusic_20210921_logNormShiftAmp_detection_fixS,2020.1.2,Linux x86_64,60,,,,,,,,,,,,,,,,,,2,7.288,,0,0,16,16,53,1,stimuli/stim_20210706_power2amp/equal_lnn_AM3.6Hz_s35_46.m4a,,,,,,,,,,,,
,,,,,,,,,,,,41827,2021-09-26_11h25.57.599,judgeSpeechMusic_20210921_logNormShiftAmp_detection_fixS,2020.1.2,Linux x86_64,60,,,,,,,,,,,,,,,,,,1,8.0168,,0,0,17,17,55,1,stimuli/stim_20210706_power2amp/equal_lnn_AM3.6Hz_s35_25.m4a,,,,,,,,,,,,
,,,,,,,,,,,,41827,2021-09-26_11h25.57.599,judgeSpeechMusic_20210921_logNormShiftAmp_detection_fixS,2020.1.2,Linux x86_64,60,,,,,,,,,,,,,,,,,,1,6.3047,,0,0,18,18,73,1,stimuli/stim_20210706_power2amp/equal_lnn_AM4.2Hz_s35_47.m4a,,,,,,,,,,,,
,,,,,,,,,,,,41827,2021-09-26_11h25.57.599,judgeSpeechMusic_20210921_logNormShiftAmp_detection_fixS,2020.1.2,Linux x86_64,60,,,,,,,,,,,,,,,,,,1,9.4504,,0,0,19,19,41,1,stimuli/stim_20210706_power2amp/equal_lnn_AM2.4Hz_s35_8.m4a,,,,,,,,,,,,
,,,,,,,,,,,,41827,2021-09-26_11h25.57.599,judgeSpeechMusic_20210921_logNormShiftAmp_detection_fixS,2020.1.2,Linux x86_64,60,,,,,,,,,,,,,,,,,,2,9.6356,,0,0,20,20,28,1,stimuli/stim_20210706_power2amp/equal_lnn_AM1.2Hz_s35_40.m4a,,,,,,,,,,,,
,,,,,,,,,,,,41827,2021-09-26_11h25.57.599,judgeSpeechMusic_20210921_logNormShiftAmp_detection_fixS,2020.1.2,Linux x86_64,60,,,,,,,,,,,,,,,,,,1,6.5999,,0,0,21,21,64,1,stimuli/stim_20210706_power2amp/equal_lnn_AM4.2Hz_s35_4.m4a,,,,,,,,,,,,
,,,,,,,,,,,,41827,2021-09-26_11h25.57.599,judgeSpeechMusic_20210921_logNormShiftAmp_detection_fixS,2020.1.2,Linux x86_64,60,,,,,,,,,,,,,,,,,,2,6.6331,4,1,0,22,22,63,1,stimuli/stim_20210706_power2amp/equal_lnn_AM4.2Hz_s35_11.m4a,1.5092,,,,,,,,,,,
,,,,,,,,,,,,41827,2021-09-26_11h25.57.599,judgeSpeechMusic_20210921_logNormShiftAmp_detection_fixS,2020.1.2,Linux x86_64,60,,,,,,,,,,,,,,,,,,1,6.5024,,0,0,23,23,44,1,stimuli/stim_20210706_power2amp/equal_lnn_AM2.4Hz_s35_10.m4a,,,,,,,,,,,,
,,,,,,,,,,,,41827,2021-09-26_11h25.57.599,judgeSpeechMusic_20210921_logNormShiftAmp_detection_fixS,2020.1.2,Linux x86_64,60,,,,,,,,,,,,,,,,,,2,6.1095,,0,0,24,24,11,1,stimuli/stim_20210706_power2amp/equal_lnn_AM0.6Hz_s35_30.m4a,,,,,,,,,,,,
,,,,,,,,,,,,41827,2021-09-26_11h25.57.599,judgeSpeechMusic_20210921_logNormShiftAmp_detection_fixS,2020.1.2,Linux x86_64,60,,,,,,,,,,,,,,,,,,2,5.8442,,0,0,25,25,23,1,stimuli/stim_20210706_power2amp/equal_lnn_AM1.2Hz_s35_48.m4a,,,,,,,,,,,,
,,,,,,,,,,,,41827,2021-09-26_11h25.57.599,judgeSpeechMusic_20210921_logNormShiftAmp_detection_fixS,2020.1.2,Linux x86_64,60,,,,,,,,,,,,,,,,,,2,6.2873,,0,0,26,26,5,1,stimuli/stim_20210706_power2amp/equal_lnn_AM0.6Hz_s35_27.m4a,,,,,,,,,,,,
,,,,,,,,,,,,41827,2021-09-26_11h25.57.599,judgeSpeechMusic_20210921_logNormShiftAmp_detection_fixS,2020.1.2,Linux x86_64,60,,,,,,,,,,,,,,,,,,1,6.9404,,0,0,27,27,36,1,stimuli/stim_20210706_power2amp/equal_lnn_AM2.4Hz_s35_2.m4a,,,,,,,,,,,,
,,,,,,,,,,,,41827,2021-09-26_11h25.57.599,judgeSpeechMusic_20210921_logNormShiftAmp_detection_fixS,2020.1.2,Linux x86_64,60,,,,,,,,,,,,,,,,,,1,7.9766,,0,0,28,28,40,1,stimuli/stim_20210706_power2amp/equal_lnn_AM2.4Hz_s35_4.m4a,,,,,,,,,,,,
,,,,,,,,,,,,41827,2021-09-26_11h25.57.599,judgeSpeechMusic_20210921_logNormShiftAmp_detection_fixS,2020.1.2,Linux x86_64,60,,,,,,,,,,,,,,,,,,2,8.2251,,0,0,29,29,21,1,stimuli/stim_20210706_power2amp/equal_lnn_AM1.2Hz_s35_24.m4a,,,,,,,,,,,,
,,,,,,,,,,,,41827,2021-09-26_11h25.57.599,judgeSpeechMusic_20210921_logNormShiftAmp_detection_fixS,2020.1.2,Linux x86_64,60,,,,,,,,,,,,,,,,,,1,6.6021,,0,0,30,30,39,1,stimuli/stim_20210706_power2amp/equal_lnn_AM2.4Hz_s35_6.m4a,,,,,,,,,,,,
,,,,,,,,,,,,41827,2021-09-26_11h25.57.599,judgeSpeechMusic_20210921_logNormShiftAmp_detection_fixS,2020.1.2,Linux x86_64,60,,,,,,,,,,,,,,,,,,2,7.2224,,0,0,31,31,47,1,stimuli/stim_20210706_power2amp/equal_lnn_AM3.6Hz_s35_32.m4a,,,,,,,,,,,,
,,,,,,,,,,,,41827,2021-09-26_11h25.57.599,judgeSpeechMusic_20210921_logNormShiftAmp_detection_fixS,2020.1.2,Linux x86_64,60,,,,,,,,,,,,,,,,,,2,6.5193,,0,0,32,32,25,1,stimuli/stim_20210706_power2amp/equal_lnn_AM1.2Hz_s35_27.m4a,,,,,,,,,,,,
,,,,,,,,,,,,41827,2021-09-26_11h25.57.599,judgeSpeechMusic_20210921_logNormShiftAmp_detection_fixS,2020.1.2,Linux x86_64,60,,,,,,,,,,,,,,,,,,2,6.2933,,0,0,33,33,20,1,stimuli/stim_20210706_power2amp/equal_lnn_AM1.2Hz_s35_16.m4a,,,,,,,,,,,,
,,,,,,,,,,,,41827,2021-09-26_11h25.57.599,judgeSpeechMusic_20210921_logNormShiftAmp_detection_fixS,2020.1.2,Linux x86_64,60,,,,,,,,,,,,,,,,,,1,6.3776,,0,0,34,34,49,1,stimuli/stim_20210706_power2amp/equal_lnn_AM3.6Hz_s35_9.m4a,,,,,,,,,,,,
,,,,,,,,,,,,41827,2021-09-26_11h25.57.599,judgeSpeechMusic_20210921_logNormShiftAmp_detection_fixS,2020.1.2,Linux x86_64,60,,,,,,,,,,,,,,,,,,1,8.1162,,0,0,35,35,54,1,stimuli/stim_20210706_power2amp/equal_lnn_AM3.6Hz_s35_38.m4a,,,,,,,,,,,,
,,,,,,,,,,,,41827,2021-09-26_11h25.57.599,judgeSpeechMusic_20210921_logNormShiftAmp_detection_fixS,2020.1.2,Linux x86_64,60,,,,,,,,,,,,,,,,,,2,7.0977,,0,0,36,36,22,1,stimuli/stim_20210706_power2amp/equal_lnn_AM1.2Hz_s35_33.m4a,,,,,,,,,,,,
,,,,,,,,,,,,41827,2021-09-26_11h25.57.599,judgeSpeechMusic_20210921_logNormShiftAmp_detection_fixS,2020.1.2,Linux x86_64,60,,,,,,,,,,,,,,,,,,2,6.7826,,0,0,37,37,61,1,stimuli/stim_20210706_power2amp/equal_lnn_AM4.2Hz_s35_31.m4a,,,,,,,,,,,,
,,,,,,,,,,,,41827,2021-09-26_11h25.57.599,judgeSpeechMusic_20210921_logNormShiftAmp_detection_fixS,2020.1.2,Linux x86_64,60,,,,,,,,,,,,,,,,,,1,7.1031,,0,0,38,38,24,1,stimuli/stim_20210706_power2amp/equal_lnn_AM1.2Hz_s35_34.m4a,,,,,,,,,,,,
,,,,,,,,,,,,41827,2021-09-26_11h25.57.599,judgeSpeechMusic_20210921_logNormShiftAmp_detection_fixS,2020.1.2,Linux x86_64,60,,,,,,,,,,,,,,,,,,1,6.7915,,0,0,39,39,71,1,stimuli/stim_20210706_power2amp/equal_lnn_AM4.2Hz_s35_46.m4a,,,,,,,,,,,,
,,,,,,,,,,,,41827,2021-09-26_11h25.57.599,judgeSpeechMusic_20210921_logNormShiftAmp_detection_fixS,2020.1.2,Linux x86_64,60,,,,,,,,,,,,,,,,,,2,7.432,,0,0,40,40,34,1,stimuli/stim_20210706_power2amp/equal_lnn_AM2.4Hz_s35_29.m4a,,,,,,,,,,,,
,,,,,,,,,,,,41827,2021-09-26_11h25.57.599,judgeSpeechMusic_20210921_logNormShiftAmp_detection_fixS,2020.1.2,Linux x86_64,60,,,,,,,,,,,,,,,,,,1,7.0169,,0,0,41,41,3,1,stimuli/stim_20210706_power2amp/equal_lnn_AM0.6Hz_s35_48.m4a,,,,,,,,,,,,
,,,,,,,,,,,,41827,2021-09-26_11h25.57.599,judgeSpeechMusic_20210921_logNormShiftAmp_detection_fixS,2020.1.2,Linux x86_64,60,,,,,,,,,,,,,,,,,,1,6.5327,,0,0,42,42,56,1,stimuli/stim_20210706_power2amp/equal_lnn_AM3.6Hz_s35_23.m4a,,,,,,,,,,,,
,,,,,,,,,,,,41827,2021-09-26_11h25.57.599,judgeSpeechMusic_20210921_logNormShiftAmp_detection_fixS,2020.1.2,Linux x86_64,60,,,,,,,,,,,,,,,,,,2,7.0984,,0,0,43,43,1,1,stimuli/stim_20210706_power2amp/equal_lnn_AM0.6Hz_s35_25.m4a,,,,,,,,,,,,
,,,,,,,,,,,,41827,2021-09-26_11h25.57.599,judgeSpeechMusic_20210921_logNormShiftAmp_detection_fixS,2020.1.2,Linux x86_64,60,,,,,,,,,,,,,,,,,,2,9.3515,1,1,0,44,44,19,1,stimuli/stim_20210706_power2amp/equal_lnn_AM1.2Hz_s35_13.m4a,1.5708,,,,,,,,,,,
,,,,,,,,,,,,41827,2021-09-26_11h25.57.599,judgeSpeechMusic_20210921_logNormShiftAmp_detection_fixS,2020.1.2,Linux x86_64,60,,,,,,,,,,,,,,,,,,2,5.9713,,0,0,45,45,45,1,stimuli/stim_20210706_power2amp/equal_lnn_AM3.6Hz_s35_26.m4a,,,,,,,,,,,,
,,,,,,,,,,,,41827,2021-09-26_11h25.57.599,judgeSpeechMusic_20210921_logNormShiftAmp_detection_fixS,2020.1.2,Linux x86_64,60,,,,,,,,,,,,,,,,,,2,7.4464,,0,0,46,46,70,1,stimuli/stim_20210706_power2amp/equal_lnn_AM4.2Hz_s35_48.m4a,,,,,,,,,,,,
,,,,,,,,,,,,41827,2021-09-26_11h25.57.599,judgeSpeechMusic_20210921_logNormShiftAmp_detection_fixS,2020.1.2,Linux x86_64,60,,,,,,,,,,,,,,,,,,1,8.2011,,0,0,47,47,43,1,stimuli/stim_20210706_power2amp/equal_lnn_AM2.4Hz_s35_22.m4a,,,,,,,,,,,,
,,,,,,,,,,,,41827,2021-09-26_11h25.57.599,judgeSpeechMusic_20210921_logNormShiftAmp_detection_fixS,2020.1.2,Linux x86_64,60,,,,,,,,,,,,,,,,,,1,7.0559,,0,0,48,48,46,1,stimuli/stim_20210706_power2amp/equal_lnn_AM3.6Hz_s35_7.m4a,,,,,,,,,,,,
,,,,,,,,,,,,41827,2021-09-26_11h25.57.599,judgeSpeechMusic_20210921_logNormShiftAmp_detection_fixS,2020.1.2,Linux x86_64,60,,,,,,,,,,,,,,,,,,2,9.5469,,0,0,49,49,58,1,stimuli/stim_20210706_power2amp/equal_lnn_AM3.6Hz_s35_2.m4a,,,,,,,,,,,,
,,,,,,,,,,,,41827,2021-09-26_11h25.57.599,judgeSpeechMusic_20210921_logNormShiftAmp_detection_fixS,2020.1.2,Linux x86_64,60,,,,,,,,,,,,,,,,,,1,7.7365,,0,0,50,50,69,1,stimuli/stim_20210706_power2amp/equal_lnn_AM4.2Hz_s35_30.m4a,,,,,,,,,,,,
,,,,,,,,,,,,41827,2021-09-26_11h25.57.599,judgeSpeechMusic_20210921_logNormShiftAmp_detection_fixS,2020.1.2,Linux x86_64,60,,,,,,,,,,,,,,,,,,1,7.1359,,0,0,51,51,51,1,stimuli/stim_20210706_power2amp/equal_lnn_AM3.6Hz_s35_13.m4a,,,,,,,,,,,,
,,,,,,,,,,,,41827,2021-09-26_11h25.57.599,judgeSpeechMusic_20210921_logNormShiftAmp_detection_fixS,2020.1.2,Linux x86_64,60,,,,,,,,,,,,,,,,,,1,6.4844,,0,0,52,52,67,1,stimuli/stim_20210706_power2amp/equal_lnn_AM4.2Hz_s35_39.m4a,,,,,,,,,,,,
,,,,,,,,,,,,41827,2021-09-26_11h25.57.599,judgeSpeechMusic_20210921_logNormShiftAmp_detection_fixS,2020.1.2,Linux x86_64,60,,,,,,,,,,,,,,,,,,2,8.7265,,0,0,53,53,7,1,stimuli/stim_20210706_power2amp/equal_lnn_AM0.6Hz_s35_12.m4a,,,,,,,,,,,,
,,,,,,,,,,,,41827,2021-09-26_11h25.57.599,judgeSpeechMusic_20210921_logNormShiftAmp_detection_fixS,2020.1.2,Linux x86_64,60,,,,,,,,,,,,,,,,,,2,6.232,,0,0,54,54,65,1,stimuli/stim_20210706_power2amp/equal_lnn_AM4.2Hz_s35_49.m4a,,,,,,,,,,,,
,,,,,,,,,,,,41827,2021-09-26_11h25.57.599,judgeSpeechMusic_20210921_logNormShiftAmp_detection_fixS,2020.1.2,Linux x86_64,60,,,,,,,,,,,,,,,,,,1,9.6129,,0,0,55,55,32,1,stimuli/stim_20210706_power2amp/equal_lnn_AM2.4Hz_s35_9.m4a,,,,,,,,,,,,
,,,,,,,,,,,,41827,2021-09-26_11h25.57.599,judgeSpeechMusic_20210921_logNormShiftAmp_detection_fixS,2020.1.2,Linux x86_64,60,,,,,,,,,,,,,,,,,,1,12.7604,,0,0,56,56,68,1,stimuli/stim_20210706_power2amp/equal_lnn_AM4.2Hz_s35_34.m4a,,,,,,,,,,,,
,,,,,,,,,,,,41827,2021-09-26_11h25.57.599,judgeSpeechMusic_20210921_logNormShiftAmp_detection_fixS,2020.1.2,Linux x86_64,60,,,,,,,,,,,,,,,,,,2,8.2073,,0,0,57,57,74,1,stimuli/stim_20210706_power2amp/equal_lnn_AM4.2Hz_s35_26.m4a,,,,,,,,,,,,
,,,,,,,,,,,,41827,2021-09-26_11h25.57.599,judgeSpeechMusic_20210921_logNormShiftAmp_detection_fixS,2020.1.2,Linux x86_64,60,,,,,,,,,,,,,,,,,,1,6.9656,,0,0,58,58,8,1,stimuli/stim_20210706_power2amp/equal_lnn_AM0.6Hz_s35_45.m4a,,,,,,,,,,,,
,,,,,,,,,,,,41827,2021-09-26_11h25.57.599,judgeSpeechMusic_20210921_logNormShiftAmp_detection_fixS,2020.1.2,Linux x86_64,60,,,,,,,,,,,,,,,,,,2,15.6471,,0,0,59,59,15,1,stimuli/stim_20210706_power2amp/equal_lnn_AM1.2Hz_s35_38.m4a,,,,,,,,,,,,
,,,,,,,,,,,,41827,2021-09-26_11h25.57.599,judgeSpeechMusic_20210921_logNormShiftAmp_detection_fixS,2020.1.2,Linux x86_64,60,,,,,,,,,,,,,,,,,,1,11.3669,,0,0,60,60,31,1,stimuli/stim_20210706_power2amp/equal_lnn_AM2.4Hz_s35_49.m4a,,,,,,,,,,,,
,,,,,,,,,,,,41827,2021-09-26_11h25.57.599,judgeSpeechMusic_20210921_logNormShiftAmp_detection_fixS,2020.1.2,Linux x86_64,60,,,,,,,,,,,,,,,,,,2,11.548,,0,0,61,61,72,1,stimuli/stim_20210706_power2amp/equal_lnn_AM4.2Hz_s35_18.m4a,,,,,,,,,,,,
,,,,,,,,,,,,41827,2021-09-26_11h25.57.599,judgeSpeechMusic_20210921_logNormShiftAmp_detection_fixS,2020.1.2,Linux x86_64,60,,,,,,,,,,,,,,,,,,2,6.5175,,0,0,62,62,52,1,stimuli/stim_20210706_power2amp/equal_lnn_AM3.6Hz_s35_42.m4a,,,,,,,,,,,,
,,,,,,,,,,,,41827,2021-09-26_11h25.57.599,judgeSpeechMusic_20210921_logNormShiftAmp_detection_fixS,2020.1.2,Linux x86_64,60,,,,,,,,,,,,,,,,,,1,9.9821,,0,0,63,63,35,1,stimuli/stim_20210706_power2amp/equal_lnn_AM2.4Hz_s35_32.m4a,,,,,,,,,,,,
,,,,,,,,,,,,41827,2021-09-26_11h25.57.599,judgeSpeechMusic_20210921_logNormShiftAmp_detection_fixS,2020.1.2,Linux x86_64,60,,,,,,,,,,,,,,,,,,1,6.8899,,0,0,64,64,14,1,stimuli/stim_20210706_power2amp/equal_lnn_AM0.6Hz_s35_34.m4a,,,,,,,,,,,,
,,,,,,,,,,,,41827,2021-09-26_11h25.57.599,judgeSpeechMusic_20210921_logNormShiftAmp_detection_fixS,2020.1.2,Linux x86_64,60,,,,,,,,,,,,,,,,,,1,6.1751,1,1,0,65,65,26,1,stimuli/stim_20210706_power2amp/equal_lnn_AM1.2Hz_s35_45.m4a,1.6404,,,,,,,,,,,
,,,,,,,,,,,,41827,2021-09-26_11h25.57.599,judgeSpeechMusic_20210921_logNormShiftAmp_detection_fixS,2020.1.2,Linux x86_64,60,,,,,,,,,,,,,,,,,,2,23.3354,,0,0,66,66,17,1,stimuli/stim_20210706_power2amp/equal_lnn_AM1.2Hz_s35_20.m4a,,,,,,,,,,,,
,,,,,,,,,,,,41827,2021-09-26_11h25.57.599,judgeSpeechMusic_20210921_logNormShiftAmp_detection_fixS,2020.1.2,Linux x86_64,60,,,,,,,,,,,,,,,,,,1,6.7443,,0,0,67,67,16,1,stimuli/stim_20210706_power2amp/equal_lnn_AM1.2Hz_s35_23.m4a,,,,,,,,,,,,
,,,,,,,,,,,,41827,2021-09-26_11h25.57.599,judgeSpeechMusic_20210921_logNormShiftAmp_detection_fixS,2020.1.2,Linux x86_64,60,,,,,,,,,,,,,,,,,,1,6.8278,,0,0,68,68,30,1,stimuli/stim_20210706_power2amp/equal_lnn_AM2.4Hz_s35_30.m4a,,,,,,,,,,,,
,,,,,,,,,,,,41827,2021-09-26_11h25.57.599,judgeSpeechMusic_20210921_logNormShiftAmp_detection_fixS,2020.1.2,Linux x86_64,60,,,,,,,,,,,,,,,,,,1,14.7325,,0,0,69,69,57,1,stimuli/stim_20210706_power2amp/equal_lnn_AM3.6Hz_s35_14.m4a,,,,,,,,,,,,
,,,,,,,,,,,,41827,2021-09-26_11h25.57.599,judgeSpeechMusic_20210921_logNormShiftAmp_detection_fixS,2020.1.2,Linux x86_64,60,,,,,,,,,,,,,,,,,,2,6.9411,,0,0,70,70,33,1,stimuli/stim_20210706_power2amp/equal_lnn_AM2.4Hz_s35_13.m4a,,,,,,,,,,,,
,,,,,,,,,,,,41827,2021-09-26_11h25.57.599,judgeSpeechMusic_20210921_logNormShiftAmp_detection_fixS,2020.1.2,Linux x86_64,60,,,,,,,,,,,,,,,,,,2,7.202,,0,0,71,71,27,1,stimuli/stim_20210706_power2amp/equal_lnn_AM1.2Hz_s35_15.m4a,,,,,,,,,,,,
,,,,,,,,,,,,41827,2021-09-26_11h25.57.599,judgeSpeechMusic_20210921_logNormShiftAmp_detection_fixS,2020.1.2,Linux x86_64,60,,,,,,,,,,,,,,,,,,2,7.3765,,0,0,72,72,62,1,stimuli/stim_20210706_power2amp/equal_lnn_AM4.2Hz_s35_28.m4a,,,,,,,,,,,,
,,,,,,,,,,,,41827,2021-09-26_11h25.57.599,judgeSpeechMusic_20210921_logNormShiftAmp_detection_fixS,2020.1.2,Linux x86_64,60,,,,,,,,,,,,,,,,,,1,6.5831,,0,0,73,73,38,1,stimuli/stim_20210706_power2amp/equal_lnn_AM2.4Hz_s35_46.m4a,,,,,,,,,,,,
,,,,,,,,,,,,41827,2021-09-26_11h25.57.599,judgeSpeechMusic_20210921_logNormShiftAmp_detection_fixS,2020.1.2,Linux x86_64,60,,,,,,,,,,,,,,,,,,1,8.6055,,0,0,74,74,59,1,stimuli/stim_20210706_power2amp/equal_lnn_AM3.6Hz_s35_3.m4a,,,,,,,,,,,,
,,,,,,,,,,,,41827,2021-09-26_11h25.57.599,judgeSpeechMusic_20210921_logNormShiftAmp_detection_fixS,2020.1.2,Linux x86_64,60,,,,,,,,,,,,,,,,,,,,,,,,,,,,,space,125.5767,1,0,2,1,1,SPEECH,stimuli/SPEECH.jpg,,
,,,,,,,,,,,,41827,2021-09-26_11h25.57.599,judgeSpeechMusic_20210921_logNormShiftAmp_detection_fixS,2020.1.2,Linux x86_64,60,,,,,,0,0,0,0,3,1,stimuli/stim_20210706_power2amp/equal_lnn_AM_training3.9Hz_s35.m4a,,,,,,,,,,,,,,,,,,,,,,,,,,,
,,,,,,,,,,,,41827,2021-09-26_11h25.57.599,judgeSpeechMusic_20210921_logNormShiftAmp_detection_fixS,2020.1.2,Linux x86_64,60,,,,,,,,,,,,,,space,1.3761,space,33.2645,2,8.5992,,0,0,0,0,74,1,stimuli/stim_20210706_power2amp/equal_lnn_AM4.2Hz_s35_26.m4a,,,,,,,,,,,,
,,,,,,,,,,,,41827,2021-09-26_11h25.57.599,judgeSpeechMusic_20210921_logNormShiftAmp_detection_fixS,2020.1.2,Linux x86_64,60,,,,,,,,,,,,,,,,,,1,7.1972,,0,0,1,1,21,1,stimuli/stim_20210706_power2amp/equal_lnn_AM1.2Hz_s35_24.m4a,,,,,,,,,,,,
,,,,,,,,,,,,41827,2021-09-26_11h25.57.599,judgeSpeechMusic_20210921_logNormShiftAmp_detection_fixS,2020.1.2,Linux x86_64,60,,,,,,,,,,,,,,,,,,1,9.3041,,0,0,2,2,0,1,stimuli/stim_20210706_power2amp/equal_lnn_AM0.6Hz_s35_13.m4a,,,,,,,,,,,,
,,,,,,,,,,,,41827,2021-09-26_11h25.57.599,judgeSpeechMusic_20210921_logNormShiftAmp_detection_fixS,2020.1.2,Linux x86_64,60,,,,,,,,,,,,,,,,,,2,7.3831,,0,0,3,3,33,1,stimuli/stim_20210706_power2amp/equal_lnn_AM2.4Hz_s35_13.m4a,,,,,,,,,,,,
,,,,,,,,,,,,41827,2021-09-26_11h25.57.599,judgeSpeechMusic_20210921_logNormShiftAmp_detection_fixS,2020.1.2,Linux x86_64,60,,,,,,,,,,,,,,,,,,2,7.0742,,0,0,4,4,11,1,stimuli/stim_20210706_power2amp/equal_lnn_AM0.6Hz_s35_30.m4a,,,,,,,,,,,,
,,,,,,,,,,,,41827,2021-09-26_11h25.57.599,judgeSpeechMusic_20210921_logNormShiftAmp_detection_fixS,2020.1.2,Linux x86_64,60,,,,,,,,,,,,,,,,,,2,6.5642,,0,0,5,5,50,1,stimuli/stim_20210706_power2amp/equal_lnn_AM3.6Hz_s35_31.m4a,,,,,,,,,,,,
,,,,,,,,,,,,41827,2021-09-26_11h25.57.599,judgeSpeechMusic_20210921_logNormShiftAmp_detection_fixS,2020.1.2,Linux x86_64,60,,,,,,,,,,,,,,,,,,2,6.4658,,0,0,6,6,26,1,stimuli/stim_20210706_power2amp/equal_lnn_AM1.2Hz_s35_45.m4a,,,,,,,,,,,,
,,,,,,,,,,,,41827,2021-09-26_11h25.57.599,judgeSpeechMusic_20210921_logNormShiftAmp_detection_fixS,2020.1.2,Linux x86_64,60,,,,,,,,,,,,,,,,,,1,6.4049,,0,0,7,7,17,1,stimuli/stim_20210706_power2amp/equal_lnn_AM1.2Hz_s35_20.m4a,,,,,,,,,,,,
,,,,,,,,,,,,41827,2021-09-26_11h25.57.599,judgeSpeechMusic_20210921_logNormShiftAmp_detection_fixS,2020.1.2,Linux x86_64,60,,,,,,,,,,,,,,,,,,1,5.734,,0,0,8,8,47,1,stimuli/stim_20210706_power2amp/equal_lnn_AM3.6Hz_s35_32.m4a,,,,,,,,,,,,
,,,,,,,,,,,,41827,2021-09-26_11h25.57.599,judgeSpeechMusic_20210921_logNormShiftAmp_detection_fixS,2020.1.2,Linux x86_64,60,,,,,,,,,,,,,,,,,,2,5.8814,,0,0,9,9,42,1,stimuli/stim_20210706_power2amp/equal_lnn_AM2.4Hz_s35_36.m4a,,,,,,,,,,,,
,,,,,,,,,,,,41827,2021-09-26_11h25.57.599,judgeSpeechMusic_20210921_logNormShiftAmp_detection_fixS,2020.1.2,Linux x86_64,60,,,,,,,,,,,,,,,,,,2,7.1103,,0,0,10,10,40,1,stimuli/stim_20210706_power2amp/equal_lnn_AM2.4Hz_s35_4.m4a,,,,,,,,,,,,
,,,,,,,,,,,,41827,2021-09-26_11h25.57.599,judgeSpeechMusic_20210921_logNormShiftAmp_detection_fixS,2020.1.2,Linux x86_64,60,,,,,,,,,,,,,,,,,,1,11.6591,,0,0,11,11,29,1,stimuli/stim_20210706_power2amp/equal_lnn_AM1.2Hz_s35_36.m4a,,,,,,,,,,,,
,,,,,,,,,,,,41827,2021-09-26_11h25.57.599,judgeSpeechMusic_20210921_logNormShiftAmp_detection_fixS,2020.1.2,Linux x86_64,60,,,,,,,,,,,,,,,,,,1,6.3513,,0,0,12,12,62,1,stimuli/stim_20210706_power2amp/equal_lnn_AM4.2Hz_s35_28.m4a,,,,,,,,,,,,
,,,,,,,,,,,,41827,2021-09-26_11h25.57.599,judgeSpeechMusic_20210921_logNormShiftAmp_detection_fixS,2020.1.2,Linux x86_64,60,,,,,,,,,,,,,,,,,,2,5.6077,,0,0,13,13,13,1,stimuli/stim_20210706_power2amp/equal_lnn_AM0.6Hz_s35_50.m4a,,,,,,,,,,,,
,,,,,,,,,,,,41827,2021-09-26_11h25.57.599,judgeSpeechMusic_20210921_logNormShiftAmp_detection_fixS,2020.1.2,Linux x86_64,60,,,,,,,,,,,,,,,,,,2,8.5883,,0,0,14,14,67,1,stimuli/stim_20210706_power2amp/equal_lnn_AM4.2Hz_s35_39.m4a,,,,,,,,,,,,
,,,,,,,,,,,,41827,2021-09-26_11h25.57.599,judgeSpeechMusic_20210921_logNormShiftAmp_detection_fixS,2020.1.2,Linux x86_64,60,,,,,,,,,,,,,,,,,,1,7.2654,,0,0,15,15,56,1,stimuli/stim_20210706_power2amp/equal_lnn_AM3.6Hz_s35_23.m4a,,,,,,,,,,,,
,,,,,,,,,,,,41827,2021-09-26_11h25.57.599,judgeSpeechMusic_20210921_logNormShiftAmp_detection_fixS,2020.1.2,Linux x86_64,60,,,,,,,,,,,,,,,,,,1,6.8088,,0,0,16,16,63,1,stimuli/stim_20210706_power2amp/equal_lnn_AM4.2Hz_s35_11.m4a,,,,,,,,,,,,
,,,,,,,,,,,,41827,2021-09-26_11h25.57.599,judgeSpeechMusic_20210921_logNormShiftAmp_detection_fixS,2020.1.2,Linux x86_64,60,,,,,,,,,,,,,,,,,,2,6.9633,,0,0,17,17,53,1,stimuli/stim_20210706_power2amp/equal_lnn_AM3.6Hz_s35_46.m4a,,,,,,,,,,,,
,,,,,,,,,,,,41827,2021-09-26_11h25.57.599,judgeSpeechMusic_20210921_logNormShiftAmp_detection_fixS,2020.1.2,Linux x86_64,60,,,,,,,,,,,,,,,,,,2,7.0944,,0,0,18,18,15,1,stimuli/stim_20210706_power2amp/equal_lnn_AM1.2Hz_s35_38.m4a,,,,,,,,,,,,
,,,,,,,,,,,,41827,2021-09-26_11h25.57.599,judgeSpeechMusic_20210921_logNormShiftAmp_detection_fixS,2020.1.2,Linux x86_64,60,,,,,,,,,,,,,,,,,,1,6.9864,,0,0,19,19,8,1,stimuli/stim_20210706_power2amp/equal_lnn_AM0.6Hz_s35_45.m4a,,,,,,,,,,,,
,,,,,,,,,,,,41827,2021-09-26_11h25.57.599,judgeSpeechMusic_20210921_logNormShiftAmp_detection_fixS,2020.1.2,Linux x86_64,60,,,,,,,,,,,,,,,,,,1,8.1534,,0,0,20,20,4,1,stimuli/stim_20210706_power2amp/equal_lnn_AM0.6Hz_s35_19.m4a,,,,,,,,,,,,
,,,,,,,,,,,,41827,2021-09-26_11h25.57.599,judgeSpeechMusic_20210921_logNormShiftAmp_detection_fixS,2020.1.2,Linux x86_64,60,,,,,,,,,,,,,,,,,,2,6.0936,,0,0,21,21,32,1,stimuli/stim_20210706_power2amp/equal_lnn_AM2.4Hz_s35_9.m4a,,,,,,,,,,,,
,,,,,,,,,,,,41827,2021-09-26_11h25.57.599,judgeSpeechMusic_20210921_logNormShiftAmp_detection_fixS,2020.1.2,Linux x86_64,60,,,,,,,,,,,,,,,,,,2,6.9284,1,1,0,22,22,5,1,stimuli/stim_20210706_power2amp/equal_lnn_AM0.6Hz_s35_27.m4a,0.5502,,,,,,,,,,,
,,,,,,,,,,,,41827,2021-09-26_11h25.57.599,judgeSpeechMusic_20210921_logNormShiftAmp_detection_fixS,2020.1.2,Linux x86_64,60,,,,,,,,,,,,,,,,,,2,7.0286,,0,0,23,23,46,1,stimuli/stim_20210706_power2amp/equal_lnn_AM3.6Hz_s35_7.m4a,,,,,,,,,,,,
,,,,,,,,,,,,41827,2021-09-26_11h25.57.599,judgeSpeechMusic_20210921_logNormShiftAmp_detection_fixS,2020.1.2,Linux x86_64,60,,,,,,,,,,,,,,,,,,1,6.0669,,0,0,24,24,35,1,stimuli/stim_20210706_power2amp/equal_lnn_AM2.4Hz_s35_32.m4a,,,,,,,,,,,,
,,,,,,,,,,,,41827,2021-09-26_11h25.57.599,judgeSpeechMusic_20210921_logNormShiftAmp_detection_fixS,2020.1.2,Linux x86_64,60,,,,,,,,,,,,,,,,,,1,5.5187,,0,0,25,25,72,1,stimuli/stim_20210706_power2amp/equal_lnn_AM4.2Hz_s35_18.m4a,,,,,,,,,,,,
,,,,,,,,,,,,41827,2021-09-26_11h25.57.599,judgeSpeechMusic_20210921_logNormShiftAmp_detection_fixS,2020.1.2,Linux x86_64,60,,,,,,,,,,,,,,,,,,1,5.6998,,0,0,26,26,52,1,stimuli/stim_20210706_power2amp/equal_lnn_AM3.6Hz_s35_42.m4a,,,,,,,,,,,,
,,,,,,,,,,,,41827,2021-09-26_11h25.57.599,judgeSpeechMusic_20210921_logNormShiftAmp_detection_fixS,2020.1.2,Linux x86_64,60,,,,,,,,,,,,,,,,,,2,7.179,,0,0,27,27,16,1,stimuli/stim_20210706_power2amp/equal_lnn_AM1.2Hz_s35_23.m4a,,,,,,,,,,,,
,,,,,,,,,,,,41827,2021-09-26_11h25.57.599,judgeSpeechMusic_20210921_logNormShiftAmp_detection_fixS,2020.1.2,Linux x86_64,60,,,,,,,,,,,,,,,,,,2,6.2664,,0,0,28,28,36,1,stimuli/stim_20210706_power2amp/equal_lnn_AM2.4Hz_s35_2.m4a,,,,,,,,,,,,
,,,,,,,,,,,,41827,2021-09-26_11h25.57.599,judgeSpeechMusic_20210921_logNormShiftAmp_detection_fixS,2020.1.2,Linux x86_64,60,,,,,,,,,,,,,,,,,,2,5.9033,,0,0,29,29,30,1,stimuli/stim_20210706_power2amp/equal_lnn_AM2.4Hz_s35_30.m4a,,,,,,,,,,,,
,,,,,,,,,,,,41827,2021-09-26_11h25.57.599,judgeSpeechMusic_20210921_logNormShiftAmp_detection_fixS,2020.1.2,Linux x86_64,60,,,,,,,,,,,,,,,,,,1,5.9385,,0,0,30,30,27,1,stimuli/stim_20210706_power2amp/equal_lnn_AM1.2Hz_s35_15.m4a,,,,,,,,,,,,
,,,,,,,,,,,,41827,2021-09-26_11h25.57.599,judgeSpeechMusic_20210921_logNormShiftAmp_detection_fixS,2020.1.2,Linux x86_64,60,,,,,,,,,,,,,,,,,,1,5.7695,,0,0,31,31,31,1,stimuli/stim_20210706_power2amp/equal_lnn_AM2.4Hz_s35_49.m4a,,,,,,,,,,,,
,,,,,,,,,,,,41827,2021-09-26_11h25.57.599,judgeSpeechMusic_20210921_logNormShiftAmp_detection_fixS,2020.1.2,Linux x86_64,60,,,,,,,,,,,,,,,,,,2,5.9083,,0,0,32,32,3,1,stimuli/stim_20210706_power2amp/equal_lnn_AM0.6Hz_s35_48.m4a,,,,,,,,,,,,
,,,,,,,,,,,,41827,2021-09-26_11h25.57.599,judgeSpeechMusic_20210921_logNormShiftAmp_detection_fixS,2020.1.2,Linux x86_64,60,,,,,,,,,,,,,,,,,,1,6.6362,,0,0,33,33,70,1,stimuli/stim_20210706_power2amp/equal_lnn_AM4.2Hz_s35_48.m4a,,,,,,,,,,,,
,,,,,,,,,,,,41827,2021-09-26_11h25.57.599,judgeSpeechMusic_20210921_logNormShiftAmp_detection_fixS,2020.1.2,Linux x86_64,60,,,,,,,,,,,,,,,,,,2,7.133,,0,0,34,34,10,1,stimuli/stim_20210706_power2amp/equal_lnn_AM0.6Hz_s35_44.m4a,,,,,,,,,,,,
,,,,,,,,,,,,41827,2021-09-26_11h25.57.599,judgeSpeechMusic_20210921_logNormShiftAmp_detection_fixS,2020.1.2,Linux x86_64,60,,,,,,,,,,,,,,,,,,1,8.5544,,0,0,35,35,9,1,stimuli/stim_20210706_power2amp/equal_lnn_AM0.6Hz_s35_1.m4a,,,,,,,,,,,,
,,,,,,,,,,,,41827,2021-09-26_11h25.57.599,judgeSpeechMusic_20210921_logNormShiftAmp_detection_fixS,2020.1.2,Linux x86_64,60,,,,,,,,,,,,,,,,,,1,6.2159,,0,0,36,36,20,1,stimuli/stim_20210706_power2amp/equal_lnn_AM1.2Hz_s35_16.m4a,,,,,,,,,,,,
,,,,,,,,,,,,41827,2021-09-26_11h25.57.599,judgeSpeechMusic_20210921_logNormShiftAmp_detection_fixS,2020.1.2,Linux x86_64,60,,,,,,,,,,,,,,,,,,2,7.252,,0,0,37,37,44,1,stimuli/stim_20210706_power2amp/equal_lnn_AM2.4Hz_s35_10.m4a,,,,,,,,,,,,
,,,,,,,,,,,,41827,2021-09-26_11h25.57.599,judgeSpeechMusic_20210921_logNormShiftAmp_detection_fixS,2020.1.2,Linux x86_64,60,,,,,,,,,,,,,,,,,,2,7.0228,,0,0,38,38,24,1,stimuli/stim_20210706_power2amp/equal_lnn_AM1.2Hz_s35_34.m4a,,,,,,,,,,,,
,,,,,,,,,,,,41827,2021-09-26_11h25.57.599,judgeSpeechMusic_20210921_logNormShiftAmp_detection_fixS,2020.1.2,Linux x86_64,60,,,,,,,,,,,,,,,,,,2,8.5162,,0,0,39,39,22,1,stimuli/stim_20210706_power2amp/equal_lnn_AM1.2Hz_s35_33.m4a,,,,,,,,,,,,
,,,,,,,,,,,,41827,2021-09-26_11h25.57.599,judgeSpeechMusic_20210921_logNormShiftAmp_detection_fixS,2020.1.2,Linux x86_64,60,,,,,,,,,,,,,,,,,,1,5.8136,,0,0,40,40,2,1,stimuli/stim_20210706_power2amp/equal_lnn_AM0.6Hz_s35_42.m4a,,,,,,,,,,,,
,,,,,,,,,,,,41827,2021-09-26_11h25.57.599,judgeSpeechMusic_20210921_logNormShiftAmp_detection_fixS,2020.1.2,Linux x86_64,60,,,,,,,,,,,,,,,,,,1,6.2432,,0,0,41,41,65,1,stimuli/stim_20210706_power2amp/equal_lnn_AM4.2Hz_s35_49.m4a,,,,,,,,,,,,
,,,,,,,,,,,,41827,2021-09-26_11h25.57.599,judgeSpeechMusic_20210921_logNormShiftAmp_detection_fixS,2020.1.2,Linux x86_64,60,,,,,,,,,,,,,,,,,,2,5.599,,0,0,42,42,37,1,stimuli/stim_20210706_power2amp/equal_lnn_AM2.4Hz_s35_16.m4a,,,,,,,,,,,,
,,,,,,,,,,,,41827,2021-09-26_11h25.57.599,judgeSpeechMusic_20210921_logNormShiftAmp_detection_fixS,2020.1.2,Linux x86_64,60,,,,,,,,,,,,,,,,,,1,23.5162,,0,0,43,43,18,1,stimuli/stim_20210706_power2amp/equal_lnn_AM1.2Hz_s35_47.m4a,,,,,,,,,,,,
,,,,,,,,,,,,41827,2021-09-26_11h25.57.599,judgeSpeechMusic_20210921_logNormShiftAmp_detection_fixS,2020.1.2,Linux x86_64,60,,,,,,,,,,,,,,,,,,1,6.0561,1,1,0,44,44,66,1,stimuli/stim_20210706_power2amp/equal_lnn_AM4.2Hz_s35_25.m4a,0.3426,,,,,,,,,,,
,,,,,,,,,,,,41827,2021-09-26_11h25.57.599,judgeSpeechMusic_20210921_logNormShiftAmp_detection_fixS,2020.1.2,Linux x86_64,60,,,,,,,,,,,,,,,,,,1,13.9846,,0,0,45,45,25,1,stimuli/stim_20210706_power2amp/equal_lnn_AM1.2Hz_s35_27.m4a,,,,,,,,,,,,
,,,,,,,,,,,,41827,2021-09-26_11h25.57.599,judgeSpeechMusic_20210921_logNormShiftAmp_detection_fixS,2020.1.2,Linux x86_64,60,,,,,,,,,,,,,,,,,,1,7.1188,,0,0,46,46,71,1,stimuli/stim_20210706_power2amp/equal_lnn_AM4.2Hz_s35_46.m4a,,,,,,,,,,,,
,,,,,,,,,,,,41827,2021-09-26_11h25.57.599,judgeSpeechMusic_20210921_logNormShiftAmp_detection_fixS,2020.1.2,Linux x86_64,60,,,,,,,,,,,,,,,,,,2,5.9259,,0,0,47,47,48,1,stimuli/stim_20210706_power2amp/equal_lnn_AM3.6Hz_s35_5.m4a,,,,,,,,,,,,
,,,,,,,,,,,,41827,2021-09-26_11h25.57.599,judgeSpeechMusic_20210921_logNormShiftAmp_detection_fixS,2020.1.2,Linux x86_64,60,,,,,,,,,,,,,,,,,,1,5.7195,,0,0,48,48,45,1,stimuli/stim_20210706_power2amp/equal_lnn_AM3.6Hz_s35_26.m4a,,,,,,,,,,,,
,,,,,,,,,,,,41827,2021-09-26_11h25.57.599,judgeSpeechMusic_20210921_logNormShiftAmp_detection_fixS,2020.1.2,Linux x86_64,60,,,,,,,,,,,,,,,,,,2,13.349,,0,0,49,49,38,1,stimuli/stim_20210706_power2amp/equal_lnn_AM2.4Hz_s35_46.m4a,,,,,,,,,,,,
,,,,,,,,,,,,41827,2021-09-26_11h25.57.599,judgeSpeechMusic_20210921_logNormShiftAmp_detection_fixS,2020.1.2,Linux x86_64,60,,,,,,,,,,,,,,,,,,1,6.0834,,0,0,50,50,41,1,stimuli/stim_20210706_power2amp/equal_lnn_AM2.4Hz_s35_8.m4a,,,,,,,,,,,,
,,,,,,,,,,,,41827,2021-09-26_11h25.57.599,judgeSpeechMusic_20210921_logNormShiftAmp_detection_fixS,2020.1.2,Linux x86_64,60,,,,,,,,,,,,,,,,,,2,6.4832,,0,0,51,51,60,1,stimuli/stim_20210706_power2amp/equal_lnn_AM4.2Hz_s35_9.m4a,,,,,,,,,,,,
,,,,,,,,,,,,41827,2021-09-26_11h25.57.599,judgeSpeechMusic_20210921_logNormShiftAmp_detection_fixS,2020.1.2,Linux x86_64,60,,,,,,,,,,,,,,,,,,2,9.8989,,0,0,52,52,73,1,stimuli/stim_20210706_power2amp/equal_lnn_AM4.2Hz_s35_47.m4a,,,,,,,,,,,,
,,,,,,,,,,,,41827,2021-09-26_11h25.57.599,judgeSpeechMusic_20210921_logNormShiftAmp_detection_fixS,2020.1.2,Linux x86_64,60,,,,,,,,,,,,,,,,,,2,7.1275,,0,0,53,53,6,1,stimuli/stim_20210706_power2amp/equal_lnn_AM0.6Hz_s35_5.m4a,,,,,,,,,,,,
,,,,,,,,,,,,41827,2021-09-26_11h25.57.599,judgeSpeechMusic_20210921_logNormShiftAmp_detection_fixS,2020.1.2,Linux x86_64,60,,,,,,,,,,,,,,,,,,1,9.3271,,0,0,54,54,14,1,stimuli/stim_20210706_power2amp/equal_lnn_AM0.6Hz_s35_34.m4a,,,,,,,,,,,,
,,,,,,,,,,,,41827,2021-09-26_11h25.57.599,judgeSpeechMusic_20210921_logNormShiftAmp_detection_fixS,2020.1.2,Linux x86_64,60,,,,,,,,,,,,,,,,,,2,9.5993,,0,0,55,55,57,1,stimuli/stim_20210706_power2amp/equal_lnn_AM3.6Hz_s35_14.m4a,,,,,,,,,,,,
,,,,,,,,,,,,41827,2021-09-26_11h25.57.599,judgeSpeechMusic_20210921_logNormShiftAmp_detection_fixS,2020.1.2,Linux x86_64,60,,,,,,,,,,,,,,,,,,2,7.1537,,0,0,56,56,7,1,stimuli/stim_20210706_power2amp/equal_lnn_AM0.6Hz_s35_12.m4a,,,,,,,,,,,,
,,,,,,,,,,,,41827,2021-09-26_11h25.57.599,judgeSpeechMusic_20210921_logNormShiftAmp_detection_fixS,2020.1.2,Linux x86_64,60,,,,,,,,,,,,,,,,,,1,7.1563,,0,0,57,57,61,1,stimuli/stim_20210706_power2amp/equal_lnn_AM4.2Hz_s35_31.m4a,,,,,,,,,,,,
,,,,,,,,,,,,41827,2021-09-26_11h25.57.599,judgeSpeechMusic_20210921_logNormShiftAmp_detection_fixS,2020.1.2,Linux x86_64,60,,,,,,,,,,,,,,,,,,1,7.4812,,0,0,58,58,1,1,stimuli/stim_20210706_power2amp/equal_lnn_AM0.6Hz_s35_25.m4a,,,,,,,,,,,,
,,,,,,,,,,,,41827,2021-09-26_11h25.57.599,judgeSpeechMusic_20210921_logNormShiftAmp_detection_fixS,2020.1.2,Linux x86_64,60,,,,,,,,,,,,,,,,,,2,6.701,,0,0,59,59,39,1,stimuli/stim_20210706_power2amp/equal_lnn_AM2.4Hz_s35_6.m4a,,,,,,,,,,,,
,,,,,,,,,,,,41827,2021-09-26_11h25.57.599,judgeSpeechMusic_20210921_logNormShiftAmp_detection_fixS,2020.1.2,Linux x86_64,60,,,,,,,,,,,,,,,,,,2,6.3705,,0,0,60,60,28,1,stimuli/stim_20210706_power2amp/equal_lnn_AM1.2Hz_s35_40.m4a,,,,,,,,,,,,
,,,,,,,,,,,,41827,2021-09-26_11h25.57.599,judgeSpeechMusic_20210921_logNormShiftAmp_detection_fixS,2020.1.2,Linux x86_64,60,,,,,,,,,,,,,,,,,,2,6.6688,,0,0,61,61,43,1,stimuli/stim_20210706_power2amp/equal_lnn_AM2.4Hz_s35_22.m4a,,,,,,,,,,,,
,,,,,,,,,,,,41827,2021-09-26_11h25.57.599,judgeSpeechMusic_20210921_logNormShiftAmp_detection_fixS,2020.1.2,Linux x86_64,60,,,,,,,,,,,,,,,,,,2,12.3651,,0,0,62,62,58,1,stimuli/stim_20210706_power2amp/equal_lnn_AM3.6Hz_s35_2.m4a,,,,,,,,,,,,
,,,,,,,,,,,,41827,2021-09-26_11h25.57.599,judgeSpeechMusic_20210921_logNormShiftAmp_detection_fixS,2020.1.2,Linux x86_64,60,,,,,,,,,,,,,,,,,,2,13.3367,,0,0,63,63,55,1,stimuli/stim_20210706_power2amp/equal_lnn_AM3.6Hz_s35_25.m4a,,,,,,,,,,,,
,,,,,,,,,,,,41827,2021-09-26_11h25.57.599,judgeSpeechMusic_20210921_logNormShiftAmp_detection_fixS,2020.1.2,Linux x86_64,60,,,,,,,,,,,,,,,,,,1,8.7695,,0,0,64,64,69,1,stimuli/stim_20210706_power2amp/equal_lnn_AM4.2Hz_s35_30.m4a,,,,,,,,,,,,
,,,,,,,,,,,,41827,2021-09-26_11h25.57.599,judgeSpeechMusic_20210921_logNormShiftAmp_detection_fixS,2020.1.2,Linux x86_64,60,,,,,,,,,,,,,,,,,,2,6.4674,3,1,0,65,65,59,1,stimuli/stim_20210706_power2amp/equal_lnn_AM3.6Hz_s35_3.m4a,0.792,,,,,,,,,,,
,,,,,,,,,,,,41827,2021-09-26_11h25.57.599,judgeSpeechMusic_20210921_logNormShiftAmp_detection_fixS,2020.1.2,Linux x86_64,60,,,,,,,,,,,,,,,,,,2,5.7194,,0,0,66,66,49,1,stimuli/stim_20210706_power2amp/equal_lnn_AM3.6Hz_s35_9.m4a,,,,,,,,,,,,
,,,,,,,,,,,,41827,2021-09-26_11h25.57.599,judgeSpeechMusic_20210921_logNormShiftAmp_detection_fixS,2020.1.2,Linux x86_64,60,,,,,,,,,,,,,,,,,,1,19.3868,,0,0,67,67,34,1,stimuli/stim_20210706_power2amp/equal_lnn_AM2.4Hz_s35_29.m4a,,,,,,,,,,,,
,,,,,,,,,,,,41827,2021-09-26_11h25.57.599,judgeSpeechMusic_20210921_logNormShiftAmp_detection_fixS,2020.1.2,Linux x86_64,60,,,,,,,,,,,,,,,,,,2,6.7651,,0,0,68,68,54,1,stimuli/stim_20210706_power2amp/equal_lnn_AM3.6Hz_s35_38.m4a,,,,,,,,,,,,
,,,,,,,,,,,,41827,2021-09-26_11h25.57.599,judgeSpeechMusic_20210921_logNormShiftAmp_detection_fixS,2020.1.2,Linux x86_64,60,,,,,,,,,,,,,,,,,,1,6.6004,,0,0,69,69,23,1,stimuli/stim_20210706_power2amp/equal_lnn_AM1.2Hz_s35_48.m4a,,,,,,,,,,,,
,,,,,,,,,,,,41827,2021-09-26_11h25.57.599,judgeSpeechMusic_20210921_logNormShiftAmp_detection_fixS,2020.1.2,Linux x86_64,60,,,,,,,,,,,,,,,,,,1,24.3615,,0,0,70,70,51,1,stimuli/stim_20210706_power2amp/equal_lnn_AM3.6Hz_s35_13.m4a,,,,,,,,,,,,
,,,,,,,,,,,,41827,2021-09-26_11h25.57.599,judgeSpeechMusic_20210921_logNormShiftAmp_detection_fixS,2020.1.2,Linux x86_64,60,,,,,,,,,,,,,,,,,,2,7.1997,,0,0,71,71,12,1,stimuli/stim_20210706_power2amp/equal_lnn_AM0.6Hz_s35_2.m4a,,,,,,,,,,,,
,,,,,,,,,,,,41827,2021-09-26_11h25.57.599,judgeSpeechMusic_20210921_logNormShiftAmp_detection_fixS,2020.1.2,Linux x86_64,60,,,,,,,,,,,,,,,,,,2,7.6451,,0,0,72,72,19,1,stimuli/stim_20210706_power2amp/equal_lnn_AM1.2Hz_s35_13.m4a,,,,,,,,,,,,
,,,,,,,,,,,,41827,2021-09-26_11h25.57.599,judgeSpeechMusic_20210921_logNormShiftAmp_detection_fixS,2020.1.2,Linux x86_64,60,,,,,,,,,,,,,,,,,,1,11.1552,,0,0,73,73,64,1,stimuli/stim_20210706_power2amp/equal_lnn_AM4.2Hz_s35_4.m4a,,,,,,,,,,,,
,,,,,,,,,,,,41827,2021-09-26_11h25.57.599,judgeSpeechMusic_20210921_logNormShiftAmp_detection_fixS,2020.1.2,Linux x86_64,60,,,,,,,,,,,,,,,,,,2,5.9495,,0,0,74,74,68,1,stimuli/stim_20210706_power2amp/equal_lnn_AM4.2Hz_s35_34.m4a,,,,,,,,,,,,
,,,,,,,,,,,,41827,2021-09-26_11h25.57.599,judgeSpeechMusic_20210921_logNormShiftAmp_detection_fixS,2020.1.2,Linux x86_64,60,,,,,,,,,,,,,,,,,,,,,,,,,,,,,,,1,1,3,0,1,MUSIC,stimuli/MUSIC.jpg,,
,,,,,,,,,,,,41827,2021-09-26_11h25.57.599,judgeSpeechMusic_20210921_logNormShiftAmp_detection_fixS,2020.1.2,Linux x86_64,60,,,,,,,,,,,,,,,,,,,,,,,,,,,,,,,,,,,,,,space,2.4471
