volAdjustRep.thisRepN,volAdjustRep.thisTrialN,volAdjustRep.thisN,volAdjustRep.thisIndex,volAdjustRep.ran,participant,date,expName,psychopyVersion,OS,frameRate,headphoneResponse.keys,headphoneResponse.corr,headphoneResponse.rt,headphoneTrial.thisRepN,headphoneTrial.thisTrialN,headphoneTrial.thisN,headphoneTrial.thisIndex,headphoneTrial.ran,headphone_sound1,headphone_sound2,headphone_sound3,corrAns,checkInstruKey.keys,checkInstruKey.rt,trainSlider.response,trainSlider.rt,beepTrainResponse.keys,beepTrainResponse.corr,trainingTrials.thisRepN,trainingTrials.thisTrialN,trainingTrials.thisN,trainingTrials.thisIndex,trainingTrials.ran,trainAudioFile,beepTrainResponse.rt,readyReal_resp.keys,readyReal_resp.rt,checkInstru2_key.keys,checkInstru2_key.rt,ratingSlider.response,ratingSlider.rt,beepResp.keys,beepResp.corr,expTrials.thisRepN,expTrials.thisTrialN,expTrials.thisN,expTrials.thisIndex,expTrials.ran,audioFile,beepResp.rt,switchBlock_space.keys,switchBlock_space.rt,block.thisRepN,block.thisTrialN,block.thisN,block.thisIndex,block.ran,blockName,blockImage,end_resp.keys,end_resp.rt
0,0,0,0,1,41833,2021-09-27_13h01.24.898,judgeSpeechMusic_20210921_logNormShiftAmp_detection_fixS,2020.1.2,MacIntel,60,,,,,,,,,,,,,,,,,,,,,,,,,,,,,,,,,,,,,,,,,,,,,,,,,,,
,,,,,41833,2021-09-27_13h01.24.898,judgeSpeechMusic_20210921_logNormShiftAmp_detection_fixS,2020.1.2,MacIntel,60,1,1,3.697,0,0,0,4,1,stimuli/screen_quiet.wav,stimuli/screen_antiphase.wav,stimuli/screen_origin.wav,1,,,,,,,,,,,,,,,,,,,,,,,,,,,,,,,,,,,,,,,
,,,,,41833,2021-09-27_13h01.24.898,judgeSpeechMusic_20210921_logNormShiftAmp_detection_fixS,2020.1.2,MacIntel,60,2,1,0.9027,0,1,1,1,1,stimuli/screen_antiphase.wav,stimuli/screen_quiet.wav,stimuli/screen_origin.wav,2,,,,,,,,,,,,,,,,,,,,,,,,,,,,,,,,,,,,,,,
,,,,,41833,2021-09-27_13h01.24.898,judgeSpeechMusic_20210921_logNormShiftAmp_detection_fixS,2020.1.2,MacIntel,60,3,1,0.4683,0,2,2,2,1,stimuli/screen_origin.wav,stimuli/screen_antiphase.wav,stimuli/screen_quiet.wav,3,,,,,,,,,,,,,,,,,,,,,,,,,,,,,,,,,,,,,,,
,,,,,41833,2021-09-27_13h01.24.898,judgeSpeechMusic_20210921_logNormShiftAmp_detection_fixS,2020.1.2,MacIntel,60,3,1,0.8164,0,3,3,0,1,stimuli/screen_antiphase.wav,stimuli/screen_origin.wav,stimuli/screen_quiet.wav,3,,,,,,,,,,,,,,,,,,,,,,,,,,,,,,,,,,,,,,,
,,,,,41833,2021-09-27_13h01.24.898,judgeSpeechMusic_20210921_logNormShiftAmp_detection_fixS,2020.1.2,MacIntel,60,2,1,0.9816,0,4,4,3,1,stimuli/screen_origin.wav,stimuli/screen_quiet.wav,stimuli/screen_antiphase.wav,2,,,,,,,,,,,,,,,,,,,,,,,,,,,,,,,,,,,,,,,
,,,,,41833,2021-09-27_13h01.24.898,judgeSpeechMusic_20210921_logNormShiftAmp_detection_fixS,2020.1.2,MacIntel,60,1,1,11.7183,0,5,5,5,1,stimuli/screen_quiet.wav,stimuli/screen_origin.wav,stimuli/screen_antiphase.wav,1,,,,,,,,,,,,,,,,,,,,,,,,,,,,,,,,,,,,,,,
,,,,,41833,2021-09-27_13h01.24.898,judgeSpeechMusic_20210921_logNormShiftAmp_detection_fixS,2020.1.2,MacIntel,60,,,,,,,,,,,,,space,0.0928,1,9.6381,,0,0,0,0,0,1,stimuli/stim_20210706_power2amp/equal_lnn_AM_training0.9Hz_s35.m4a,,,,,,,,,,,,,,,,,,,,,,,,,,,
,,,,,41833,2021-09-27_13h01.24.898,judgeSpeechMusic_20210921_logNormShiftAmp_detection_fixS,2020.1.2,MacIntel,60,,,,,,,,,,,,,,,1,8.8835,,0,0,1,1,2,1,stimuli/stim_20210706_power2amp/equal_lnn_AM_training3Hz_s35.m4a,,,,,,,,,,,,,,,,,,,,,,,,,,,
,,,,,41833,2021-09-27_13h01.24.898,judgeSpeechMusic_20210921_logNormShiftAmp_detection_fixS,2020.1.2,MacIntel,60,,,,,,,,,,,,,,,1,94.187,2,1,0,2,2,3,1,stimuli/stim_20210706_power2amp/equal_lnn_AM_training3.9Hz_s35.m4a,3.1721,,,,,,,,,,,,,,,,,,,,,,,,,,
,,,,,41833,2021-09-27_13h01.24.898,judgeSpeechMusic_20210921_logNormShiftAmp_detection_fixS,2020.1.2,MacIntel,60,,,,,,,,,,,,,,,1,9.5009,,0,0,3,3,1,1,stimuli/stim_20210706_power2amp/equal_lnn_AM_training1.8Hz_s35.m4a,,,,,,,,,,,,,,,,,,,,,,,,,,,
,,,,,41833,2021-09-27_13h01.24.898,judgeSpeechMusic_20210921_logNormShiftAmp_detection_fixS,2020.1.2,MacIntel,60,,,,,,,,,,,,,,,,,,,,,,,,,,space,8.8783,space,1.0312,2,6.9029,,0,0,0,0,50,1,stimuli/stim_20210706_power2amp/equal_lnn_AM3.6Hz_s35_10.m4a,,,,,,,,,,,,
,,,,,41833,2021-09-27_13h01.24.898,judgeSpeechMusic_20210921_logNormShiftAmp_detection_fixS,2020.1.2,MacIntel,60,,,,,,,,,,,,,,,,,,,,,,,,,,,,,,2,5.8844,,0,0,1,1,11,1,stimuli/stim_20210706_power2amp/equal_lnn_AM0.6Hz_s35_38.m4a,,,,,,,,,,,,
,,,,,41833,2021-09-27_13h01.24.898,judgeSpeechMusic_20210921_logNormShiftAmp_detection_fixS,2020.1.2,MacIntel,60,,,,,,,,,,,,,,,,,,,,,,,,,,,,,,1,6.4676,,0,0,2,2,74,1,stimuli/stim_20210706_power2amp/equal_lnn_AM4.2Hz_s35_24.m4a,,,,,,,,,,,,
,,,,,41833,2021-09-27_13h01.24.898,judgeSpeechMusic_20210921_logNormShiftAmp_detection_fixS,2020.1.2,MacIntel,60,,,,,,,,,,,,,,,,,,,,,,,,,,,,,,1,5.9516,,0,0,3,3,67,1,stimuli/stim_20210706_power2amp/equal_lnn_AM4.2Hz_s35_26.m4a,,,,,,,,,,,,
,,,,,41833,2021-09-27_13h01.24.898,judgeSpeechMusic_20210921_logNormShiftAmp_detection_fixS,2020.1.2,MacIntel,60,,,,,,,,,,,,,,,,,,,,,,,,,,,,,,2,6.5022,,0,0,4,4,2,1,stimuli/stim_20210706_power2amp/equal_lnn_AM0.6Hz_s35_26.m4a,,,,,,,,,,,,
,,,,,41833,2021-09-27_13h01.24.898,judgeSpeechMusic_20210921_logNormShiftAmp_detection_fixS,2020.1.2,MacIntel,60,,,,,,,,,,,,,,,,,,,,,,,,,,,,,,1,6.5446,,0,0,5,5,0,1,stimuli/stim_20210706_power2amp/equal_lnn_AM0.6Hz_s35_40.m4a,,,,,,,,,,,,
,,,,,41833,2021-09-27_13h01.24.898,judgeSpeechMusic_20210921_logNormShiftAmp_detection_fixS,2020.1.2,MacIntel,60,,,,,,,,,,,,,,,,,,,,,,,,,,,,,,1,7.064,,0,0,6,6,58,1,stimuli/stim_20210706_power2amp/equal_lnn_AM3.6Hz_s35_31.m4a,,,,,,,,,,,,
,,,,,41833,2021-09-27_13h01.24.898,judgeSpeechMusic_20210921_logNormShiftAmp_detection_fixS,2020.1.2,MacIntel,60,,,,,,,,,,,,,,,,,,,,,,,,,,,,,,2,5.9983,,0,0,7,7,17,1,stimuli/stim_20210706_power2amp/equal_lnn_AM1.2Hz_s35_10.m4a,,,,,,,,,,,,
,,,,,41833,2021-09-27_13h01.24.898,judgeSpeechMusic_20210921_logNormShiftAmp_detection_fixS,2020.1.2,MacIntel,60,,,,,,,,,,,,,,,,,,,,,,,,,,,,,,1,6.4436,,0,0,8,8,52,1,stimuli/stim_20210706_power2amp/equal_lnn_AM3.6Hz_s35_33.m4a,,,,,,,,,,,,
,,,,,41833,2021-09-27_13h01.24.898,judgeSpeechMusic_20210921_logNormShiftAmp_detection_fixS,2020.1.2,MacIntel,60,,,,,,,,,,,,,,,,,,,,,,,,,,,,,,1,6.6125,,0,0,9,9,10,1,stimuli/stim_20210706_power2amp/equal_lnn_AM0.6Hz_s35_21.m4a,,,,,,,,,,,,
,,,,,41833,2021-09-27_13h01.24.898,judgeSpeechMusic_20210921_logNormShiftAmp_detection_fixS,2020.1.2,MacIntel,60,,,,,,,,,,,,,,,,,,,,,,,,,,,,,,1,7.3897,,0,0,10,10,8,1,stimuli/stim_20210706_power2amp/equal_lnn_AM0.6Hz_s35_22.m4a,,,,,,,,,,,,
,,,,,41833,2021-09-27_13h01.24.898,judgeSpeechMusic_20210921_logNormShiftAmp_detection_fixS,2020.1.2,MacIntel,60,,,,,,,,,,,,,,,,,,,,,,,,,,,,,,2,7.2909,,0,0,11,11,34,1,stimuli/stim_20210706_power2amp/equal_lnn_AM2.4Hz_s35_3.m4a,,,,,,,,,,,,
,,,,,41833,2021-09-27_13h01.24.898,judgeSpeechMusic_20210921_logNormShiftAmp_detection_fixS,2020.1.2,MacIntel,60,,,,,,,,,,,,,,,,,,,,,,,,,,,,,,1,5.9896,,0,0,12,12,6,1,stimuli/stim_20210706_power2amp/equal_lnn_AM0.6Hz_s35_25.m4a,,,,,,,,,,,,
,,,,,41833,2021-09-27_13h01.24.898,judgeSpeechMusic_20210921_logNormShiftAmp_detection_fixS,2020.1.2,MacIntel,60,,,,,,,,,,,,,,,,,,,,,,,,,,,,,,2,6.0392,,0,0,13,13,35,1,stimuli/stim_20210706_power2amp/equal_lnn_AM2.4Hz_s35_35.m4a,,,,,,,,,,,,
,,,,,41833,2021-09-27_13h01.24.898,judgeSpeechMusic_20210921_logNormShiftAmp_detection_fixS,2020.1.2,MacIntel,60,,,,,,,,,,,,,,,,,,,,,,,,,,,,,,2,6.0071,,0,0,14,14,32,1,stimuli/stim_20210706_power2amp/equal_lnn_AM2.4Hz_s35_27.m4a,,,,,,,,,,,,
,,,,,41833,2021-09-27_13h01.24.898,judgeSpeechMusic_20210921_logNormShiftAmp_detection_fixS,2020.1.2,MacIntel,60,,,,,,,,,,,,,,,,,,,,,,,,,,,,,,1,8.7395,,0,0,15,15,21,1,stimuli/stim_20210706_power2amp/equal_lnn_AM1.2Hz_s35_28.m4a,,,,,,,,,,,,
,,,,,41833,2021-09-27_13h01.24.898,judgeSpeechMusic_20210921_logNormShiftAmp_detection_fixS,2020.1.2,MacIntel,60,,,,,,,,,,,,,,,,,,,,,,,,,,,,,,1,31.5421,,0,0,16,16,71,1,stimuli/stim_20210706_power2amp/equal_lnn_AM4.2Hz_s35_14.m4a,,,,,,,,,,,,
,,,,,41833,2021-09-27_13h01.24.898,judgeSpeechMusic_20210921_logNormShiftAmp_detection_fixS,2020.1.2,MacIntel,60,,,,,,,,,,,,,,,,,,,,,,,,,,,,,,2,7.2992,,0,0,17,17,16,1,stimuli/stim_20210706_power2amp/equal_lnn_AM1.2Hz_s35_36.m4a,,,,,,,,,,,,
,,,,,41833,2021-09-27_13h01.24.898,judgeSpeechMusic_20210921_logNormShiftAmp_detection_fixS,2020.1.2,MacIntel,60,,,,,,,,,,,,,,,,,,,,,,,,,,,,,,2,7.5421,2,1,0,18,18,57,1,stimuli/stim_20210706_power2amp/equal_lnn_AM3.6Hz_s35_13.m4a,2.9047,,,,,,,,,,,
,,,,,41833,2021-09-27_13h01.24.898,judgeSpeechMusic_20210921_logNormShiftAmp_detection_fixS,2020.1.2,MacIntel,60,,,,,,,,,,,,,,,,,,,,,,,,,,,,,,2,7.177,,0,0,19,19,41,1,stimuli/stim_20210706_power2amp/equal_lnn_AM2.4Hz_s35_36.m4a,,,,,,,,,,,,
,,,,,41833,2021-09-27_13h01.24.898,judgeSpeechMusic_20210921_logNormShiftAmp_detection_fixS,2020.1.2,MacIntel,60,,,,,,,,,,,,,,,,,,,,,,,,,,,,,,2,6.142,,0,0,20,20,4,1,stimuli/stim_20210706_power2amp/equal_lnn_AM0.6Hz_s35_44.m4a,,,,,,,,,,,,
,,,,,41833,2021-09-27_13h01.24.898,judgeSpeechMusic_20210921_logNormShiftAmp_detection_fixS,2020.1.2,MacIntel,60,,,,,,,,,,,,,,,,,,,,,,,,,,,,,,1,6.8471,,0,0,21,21,9,1,stimuli/stim_20210706_power2amp/equal_lnn_AM0.6Hz_s35_10.m4a,,,,,,,,,,,,
,,,,,41833,2021-09-27_13h01.24.898,judgeSpeechMusic_20210921_logNormShiftAmp_detection_fixS,2020.1.2,MacIntel,60,,,,,,,,,,,,,,,,,,,,,,,,,,,,,,2,6.7017,,0,0,22,22,68,1,stimuli/stim_20210706_power2amp/equal_lnn_AM4.2Hz_s35_12.m4a,,,,,,,,,,,,
,,,,,41833,2021-09-27_13h01.24.898,judgeSpeechMusic_20210921_logNormShiftAmp_detection_fixS,2020.1.2,MacIntel,60,,,,,,,,,,,,,,,,,,,,,,,,,,,,,,2,6.5193,,0,0,23,23,31,1,stimuli/stim_20210706_power2amp/equal_lnn_AM2.4Hz_s35_24.m4a,,,,,,,,,,,,
,,,,,41833,2021-09-27_13h01.24.898,judgeSpeechMusic_20210921_logNormShiftAmp_detection_fixS,2020.1.2,MacIntel,60,,,,,,,,,,,,,,,,,,,,,,,,,,,,,,1,6.5426,,0,0,24,24,59,1,stimuli/stim_20210706_power2amp/equal_lnn_AM3.6Hz_s35_26.m4a,,,,,,,,,,,,
,,,,,41833,2021-09-27_13h01.24.898,judgeSpeechMusic_20210921_logNormShiftAmp_detection_fixS,2020.1.2,MacIntel,60,,,,,,,,,,,,,,,,,,,,,,,,,,,,,,2,6.8803,,0,0,25,25,26,1,stimuli/stim_20210706_power2amp/equal_lnn_AM1.2Hz_s35_13.m4a,,,,,,,,,,,,
,,,,,41833,2021-09-27_13h01.24.898,judgeSpeechMusic_20210921_logNormShiftAmp_detection_fixS,2020.1.2,MacIntel,60,,,,,,,,,,,,,,,,,,,,,,,,,,,,,,1,7.9206,,0,0,26,26,60,1,stimuli/stim_20210706_power2amp/equal_lnn_AM4.2Hz_s35_28.m4a,,,,,,,,,,,,
,,,,,41833,2021-09-27_13h01.24.898,judgeSpeechMusic_20210921_logNormShiftAmp_detection_fixS,2020.1.2,MacIntel,60,,,,,,,,,,,,,,,,,,,,,,,,,,,,,,2,7.2058,,0,0,27,27,49,1,stimuli/stim_20210706_power2amp/equal_lnn_AM3.6Hz_s35_7.m4a,,,,,,,,,,,,
,,,,,41833,2021-09-27_13h01.24.898,judgeSpeechMusic_20210921_logNormShiftAmp_detection_fixS,2020.1.2,MacIntel,60,,,,,,,,,,,,,,,,,,,,,,,,,,,,,,1,6.2549,,0,0,28,28,61,1,stimuli/stim_20210706_power2amp/equal_lnn_AM4.2Hz_s35_43.m4a,,,,,,,,,,,,
,,,,,41833,2021-09-27_13h01.24.898,judgeSpeechMusic_20210921_logNormShiftAmp_detection_fixS,2020.1.2,MacIntel,60,,,,,,,,,,,,,,,,,,,,,,,,,,,,,,2,6.0784,,0,0,29,29,33,1,stimuli/stim_20210706_power2amp/equal_lnn_AM2.4Hz_s35_13.m4a,,,,,,,,,,,,
,,,,,41833,2021-09-27_13h01.24.898,judgeSpeechMusic_20210921_logNormShiftAmp_detection_fixS,2020.1.2,MacIntel,60,,,,,,,,,,,,,,,,,,,,,,,,,,,,,,1,7.5357,,0,0,30,30,43,1,stimuli/stim_20210706_power2amp/equal_lnn_AM2.4Hz_s35_9.m4a,,,,,,,,,,,,
,,,,,41833,2021-09-27_13h01.24.898,judgeSpeechMusic_20210921_logNormShiftAmp_detection_fixS,2020.1.2,MacIntel,60,,,,,,,,,,,,,,,,,,,,,,,,,,,,,,2,6.5422,,0,0,31,31,63,1,stimuli/stim_20210706_power2amp/equal_lnn_AM4.2Hz_s35_5.m4a,,,,,,,,,,,,
,,,,,41833,2021-09-27_13h01.24.898,judgeSpeechMusic_20210921_logNormShiftAmp_detection_fixS,2020.1.2,MacIntel,60,,,,,,,,,,,,,,,,,,,,,,,,,,,,,,1,6.8571,,0,0,32,32,46,1,stimuli/stim_20210706_power2amp/equal_lnn_AM3.6Hz_s35_50.m4a,,,,,,,,,,,,
,,,,,41833,2021-09-27_13h01.24.898,judgeSpeechMusic_20210921_logNormShiftAmp_detection_fixS,2020.1.2,MacIntel,60,,,,,,,,,,,,,,,,,,,,,,,,,,,,,,2,6.0433,,0,0,33,33,54,1,stimuli/stim_20210706_power2amp/equal_lnn_AM3.6Hz_s35_5.m4a,,,,,,,,,,,,
,,,,,41833,2021-09-27_13h01.24.898,judgeSpeechMusic_20210921_logNormShiftAmp_detection_fixS,2020.1.2,MacIntel,60,,,,,,,,,,,,,,,,,,,,,,,,,,,,,,1,6.0296,,0,0,34,34,20,1,stimuli/stim_20210706_power2amp/equal_lnn_AM1.2Hz_s35_5.m4a,,,,,,,,,,,,
,,,,,41833,2021-09-27_13h01.24.898,judgeSpeechMusic_20210921_logNormShiftAmp_detection_fixS,2020.1.2,MacIntel,60,,,,,,,,,,,,,,,,,,,,,,,,,,,,,,2,6.4996,,0,0,35,35,23,1,stimuli/stim_20210706_power2amp/equal_lnn_AM1.2Hz_s35_2.m4a,,,,,,,,,,,,
,,,,,41833,2021-09-27_13h01.24.898,judgeSpeechMusic_20210921_logNormShiftAmp_detection_fixS,2020.1.2,MacIntel,60,,,,,,,,,,,,,,,,,,,,,,,,,,,,,,2,6.3051,,0,0,36,36,69,1,stimuli/stim_20210706_power2amp/equal_lnn_AM4.2Hz_s35_49.m4a,,,,,,,,,,,,
,,,,,41833,2021-09-27_13h01.24.898,judgeSpeechMusic_20210921_logNormShiftAmp_detection_fixS,2020.1.2,MacIntel,60,,,,,,,,,,,,,,,,,,,,,,,,,,,,,,1,8.2546,,0,0,37,37,44,1,stimuli/stim_20210706_power2amp/equal_lnn_AM2.4Hz_s35_17.m4a,,,,,,,,,,,,
,,,,,41833,2021-09-27_13h01.24.898,judgeSpeechMusic_20210921_logNormShiftAmp_detection_fixS,2020.1.2,MacIntel,60,,,,,,,,,,,,,,,,,,,,,,,,,,,,,,2,7.0413,,0,0,38,38,22,1,stimuli/stim_20210706_power2amp/equal_lnn_AM1.2Hz_s35_49.m4a,,,,,,,,,,,,
,,,,,41833,2021-09-27_13h01.24.898,judgeSpeechMusic_20210921_logNormShiftAmp_detection_fixS,2020.1.2,MacIntel,60,,,,,,,,,,,,,,,,,,,,,,,,,,,,,,2,6.2367,,0,0,39,39,38,1,stimuli/stim_20210706_power2amp/equal_lnn_AM2.4Hz_s35_45.m4a,,,,,,,,,,,,
,,,,,41833,2021-09-27_13h01.24.898,judgeSpeechMusic_20210921_logNormShiftAmp_detection_fixS,2020.1.2,MacIntel,60,,,,,,,,,,,,,,,,,,,,,,,,,,,,,,1,6.7275,1,0,0,40,40,18,1,stimuli/stim_20210706_power2amp/equal_lnn_AM1.2Hz_s35_31.m4a,3.9986,,,,,,,,,,,
,,,,,41833,2021-09-27_13h01.24.898,judgeSpeechMusic_20210921_logNormShiftAmp_detection_fixS,2020.1.2,MacIntel,60,,,,,,,,,,,,,,,,,,,,,,,,,,,,,,2,5.7759,,0,0,41,41,3,1,stimuli/stim_20210706_power2amp/equal_lnn_AM0.6Hz_s35_48.m4a,,,,,,,,,,,,
,,,,,41833,2021-09-27_13h01.24.898,judgeSpeechMusic_20210921_logNormShiftAmp_detection_fixS,2020.1.2,MacIntel,60,,,,,,,,,,,,,,,,,,,,,,,,,,,,,,2,6.1211,,0,0,42,42,53,1,stimuli/stim_20210706_power2amp/equal_lnn_AM3.6Hz_s35_17.m4a,,,,,,,,,,,,
,,,,,41833,2021-09-27_13h01.24.898,judgeSpeechMusic_20210921_logNormShiftAmp_detection_fixS,2020.1.2,MacIntel,60,,,,,,,,,,,,,,,,,,,,,,,,,,,,,,1,6.6011,,0,0,43,43,72,1,stimuli/stim_20210706_power2amp/equal_lnn_AM4.2Hz_s35_22.m4a,,,,,,,,,,,,
,,,,,41833,2021-09-27_13h01.24.898,judgeSpeechMusic_20210921_logNormShiftAmp_detection_fixS,2020.1.2,MacIntel,60,,,,,,,,,,,,,,,,,,,,,,,,,,,,,,1,5.5955,,0,0,44,44,13,1,stimuli/stim_20210706_power2amp/equal_lnn_AM0.6Hz_s35_12.m4a,,,,,,,,,,,,
,,,,,41833,2021-09-27_13h01.24.898,judgeSpeechMusic_20210921_logNormShiftAmp_detection_fixS,2020.1.2,MacIntel,60,,,,,,,,,,,,,,,,,,,,,,,,,,,,,,2,7.1939,,0,0,45,45,5,1,stimuli/stim_20210706_power2amp/equal_lnn_AM0.6Hz_s35_35.m4a,,,,,,,,,,,,
,,,,,41833,2021-09-27_13h01.24.898,judgeSpeechMusic_20210921_logNormShiftAmp_detection_fixS,2020.1.2,MacIntel,60,,,,,,,,,,,,,,,,,,,,,,,,,,,,,,1,8.0094,,0,0,46,46,15,1,stimuli/stim_20210706_power2amp/equal_lnn_AM1.2Hz_s35_37.m4a,,,,,,,,,,,,
,,,,,41833,2021-09-27_13h01.24.898,judgeSpeechMusic_20210921_logNormShiftAmp_detection_fixS,2020.1.2,MacIntel,60,,,,,,,,,,,,,,,,,,,,,,,,,,,,,,2,6.3274,,0,0,47,47,64,1,stimuli/stim_20210706_power2amp/equal_lnn_AM4.2Hz_s35_31.m4a,,,,,,,,,,,,
,,,,,41833,2021-09-27_13h01.24.898,judgeSpeechMusic_20210921_logNormShiftAmp_detection_fixS,2020.1.2,MacIntel,60,,,,,,,,,,,,,,,,,,,,,,,,,,,,,,2,6.0516,,0,0,48,48,14,1,stimuli/stim_20210706_power2amp/equal_lnn_AM0.6Hz_s35_50.m4a,,,,,,,,,,,,
,,,,,41833,2021-09-27_13h01.24.898,judgeSpeechMusic_20210921_logNormShiftAmp_detection_fixS,2020.1.2,MacIntel,60,,,,,,,,,,,,,,,,,,,,,,,,,,,,,,2,7.0273,,0,0,49,49,66,1,stimuli/stim_20210706_power2amp/equal_lnn_AM4.2Hz_s35_36.m4a,,,,,,,,,,,,
,,,,,41833,2021-09-27_13h01.24.898,judgeSpeechMusic_20210921_logNormShiftAmp_detection_fixS,2020.1.2,MacIntel,60,,,,,,,,,,,,,,,,,,,,,,,,,,,,,,2,6.5449,,0,0,50,50,65,1,stimuli/stim_20210706_power2amp/equal_lnn_AM4.2Hz_s35_20.m4a,,,,,,,,,,,,
,,,,,41833,2021-09-27_13h01.24.898,judgeSpeechMusic_20210921_logNormShiftAmp_detection_fixS,2020.1.2,MacIntel,60,,,,,,,,,,,,,,,,,,,,,,,,,,,,,,2,6.2375,,0,0,51,51,24,1,stimuli/stim_20210706_power2amp/equal_lnn_AM1.2Hz_s35_23.m4a,,,,,,,,,,,,
,,,,,41833,2021-09-27_13h01.24.898,judgeSpeechMusic_20210921_logNormShiftAmp_detection_fixS,2020.1.2,MacIntel,60,,,,,,,,,,,,,,,,,,,,,,,,,,,,,,1,6.3943,,0,0,52,52,37,1,stimuli/stim_20210706_power2amp/equal_lnn_AM2.4Hz_s35_46.m4a,,,,,,,,,,,,
,,,,,41833,2021-09-27_13h01.24.898,judgeSpeechMusic_20210921_logNormShiftAmp_detection_fixS,2020.1.2,MacIntel,60,,,,,,,,,,,,,,,,,,,,,,,,,,,,,,2,7.2265,,0,0,53,53,70,1,stimuli/stim_20210706_power2amp/equal_lnn_AM4.2Hz_s35_42.m4a,,,,,,,,,,,,
,,,,,41833,2021-09-27_13h01.24.898,judgeSpeechMusic_20210921_logNormShiftAmp_detection_fixS,2020.1.2,MacIntel,60,,,,,,,,,,,,,,,,,,,,,,,,,,,,,,2,17.8398,,0,0,54,54,1,1,stimuli/stim_20210706_power2amp/equal_lnn_AM0.6Hz_s35_24.m4a,,,,,,,,,,,,
,,,,,41833,2021-09-27_13h01.24.898,judgeSpeechMusic_20210921_logNormShiftAmp_detection_fixS,2020.1.2,MacIntel,60,,,,,,,,,,,,,,,,,,,,,,,,,,,,,,2,7.1429,,0,0,55,55,40,1,stimuli/stim_20210706_power2amp/equal_lnn_AM2.4Hz_s35_44.m4a,,,,,,,,,,,,
,,,,,41833,2021-09-27_13h01.24.898,judgeSpeechMusic_20210921_logNormShiftAmp_detection_fixS,2020.1.2,MacIntel,60,,,,,,,,,,,,,,,,,,,,,,,,,,,,,,1,15.4262,,0,0,56,56,47,1,stimuli/stim_20210706_power2amp/equal_lnn_AM3.6Hz_s35_24.m4a,,,,,,,,,,,,
,,,,,41833,2021-09-27_13h01.24.898,judgeSpeechMusic_20210921_logNormShiftAmp_detection_fixS,2020.1.2,MacIntel,60,,,,,,,,,,,,,,,,,,,,,,,,,,,,,,2,8.4329,,0,0,57,57,30,1,stimuli/stim_20210706_power2amp/equal_lnn_AM2.4Hz_s35_34.m4a,,,,,,,,,,,,
,,,,,41833,2021-09-27_13h01.24.898,judgeSpeechMusic_20210921_logNormShiftAmp_detection_fixS,2020.1.2,MacIntel,60,,,,,,,,,,,,,,,,,,,,,,,,,,,,,,1,6.5957,,0,0,58,58,27,1,stimuli/stim_20210706_power2amp/equal_lnn_AM1.2Hz_s35_15.m4a,,,,,,,,,,,,
,,,,,41833,2021-09-27_13h01.24.898,judgeSpeechMusic_20210921_logNormShiftAmp_detection_fixS,2020.1.2,MacIntel,60,,,,,,,,,,,,,,,,,,,,,,,,,,,,,,2,10.051,2,1,0,59,59,73,1,stimuli/stim_20210706_power2amp/equal_lnn_AM4.2Hz_s35_18.m4a,1.5588,,,,,,,,,,,
,,,,,41833,2021-09-27_13h01.24.898,judgeSpeechMusic_20210921_logNormShiftAmp_detection_fixS,2020.1.2,MacIntel,60,,,,,,,,,,,,,,,,,,,,,,,,,,,,,,1,11.839,,0,0,60,60,36,1,stimuli/stim_20210706_power2amp/equal_lnn_AM2.4Hz_s35_41.m4a,,,,,,,,,,,,
,,,,,41833,2021-09-27_13h01.24.898,judgeSpeechMusic_20210921_logNormShiftAmp_detection_fixS,2020.1.2,MacIntel,60,,,,,,,,,,,,,,,,,,,,,,,,,,,,,,2,7.9112,,0,0,61,61,51,1,stimuli/stim_20210706_power2amp/equal_lnn_AM3.6Hz_s35_15.m4a,,,,,,,,,,,,
,,,,,41833,2021-09-27_13h01.24.898,judgeSpeechMusic_20210921_logNormShiftAmp_detection_fixS,2020.1.2,MacIntel,60,,,,,,,,,,,,,,,,,,,,,,,,,,,,,,1,6.0638,,0,0,62,62,62,1,stimuli/stim_20210706_power2amp/equal_lnn_AM4.2Hz_s35_15.m4a,,,,,,,,,,,,
,,,,,41833,2021-09-27_13h01.24.898,judgeSpeechMusic_20210921_logNormShiftAmp_detection_fixS,2020.1.2,MacIntel,60,,,,,,,,,,,,,,,,,,,,,,,,,,,,,,2,5.8412,,0,0,63,63,39,1,stimuli/stim_20210706_power2amp/equal_lnn_AM2.4Hz_s35_7.m4a,,,,,,,,,,,,
,,,,,41833,2021-09-27_13h01.24.898,judgeSpeechMusic_20210921_logNormShiftAmp_detection_fixS,2020.1.2,MacIntel,60,,,,,,,,,,,,,,,,,,,,,,,,,,,,,,1,6.4354,,0,0,64,64,42,1,stimuli/stim_20210706_power2amp/equal_lnn_AM2.4Hz_s35_26.m4a,,,,,,,,,,,,
,,,,,41833,2021-09-27_13h01.24.898,judgeSpeechMusic_20210921_logNormShiftAmp_detection_fixS,2020.1.2,MacIntel,60,,,,,,,,,,,,,,,,,,,,,,,,,,,,,,2,8.2333,,0,0,65,65,19,1,stimuli/stim_20210706_power2amp/equal_lnn_AM1.2Hz_s35_12.m4a,,,,,,,,,,,,
,,,,,41833,2021-09-27_13h01.24.898,judgeSpeechMusic_20210921_logNormShiftAmp_detection_fixS,2020.1.2,MacIntel,60,,,,,,,,,,,,,,,,,,,,,,,,,,,,,,2,6.0014,,0,0,66,66,55,1,stimuli/stim_20210706_power2amp/equal_lnn_AM3.6Hz_s35_12.m4a,,,,,,,,,,,,
,,,,,41833,2021-09-27_13h01.24.898,judgeSpeechMusic_20210921_logNormShiftAmp_detection_fixS,2020.1.2,MacIntel,60,,,,,,,,,,,,,,,,,,,,,,,,,,,,,,1,6.6412,,0,0,67,67,48,1,stimuli/stim_20210706_power2amp/equal_lnn_AM3.6Hz_s35_30.m4a,,,,,,,,,,,,
,,,,,41833,2021-09-27_13h01.24.898,judgeSpeechMusic_20210921_logNormShiftAmp_detection_fixS,2020.1.2,MacIntel,60,,,,,,,,,,,,,,,,,,,,,,,,,,,,,,2,7.8689,,0,0,68,68,45,1,stimuli/stim_20210706_power2amp/equal_lnn_AM3.6Hz_s35_44.m4a,,,,,,,,,,,,
,,,,,41833,2021-09-27_13h01.24.898,judgeSpeechMusic_20210921_logNormShiftAmp_detection_fixS,2020.1.2,MacIntel,60,,,,,,,,,,,,,,,,,,,,,,,,,,,,,,1,6.8671,,0,0,69,69,28,1,stimuli/stim_20210706_power2amp/equal_lnn_AM1.2Hz_s35_48.m4a,,,,,,,,,,,,
,,,,,41833,2021-09-27_13h01.24.898,judgeSpeechMusic_20210921_logNormShiftAmp_detection_fixS,2020.1.2,MacIntel,60,,,,,,,,,,,,,,,,,,,,,,,,,,,,,,2,7.1015,,0,0,70,70,7,1,stimuli/stim_20210706_power2amp/equal_lnn_AM0.6Hz_s35_7.m4a,,,,,,,,,,,,
,,,,,41833,2021-09-27_13h01.24.898,judgeSpeechMusic_20210921_logNormShiftAmp_detection_fixS,2020.1.2,MacIntel,60,,,,,,,,,,,,,,,,,,,,,,,,,,,,,,1,6.3239,,0,0,71,71,56,1,stimuli/stim_20210706_power2amp/equal_lnn_AM3.6Hz_s35_22.m4a,,,,,,,,,,,,
,,,,,41833,2021-09-27_13h01.24.898,judgeSpeechMusic_20210921_logNormShiftAmp_detection_fixS,2020.1.2,MacIntel,60,,,,,,,,,,,,,,,,,,,,,,,,,,,,,,2,7.4015,,0,0,72,72,25,1,stimuli/stim_20210706_power2amp/equal_lnn_AM1.2Hz_s35_1.m4a,,,,,,,,,,,,
,,,,,41833,2021-09-27_13h01.24.898,judgeSpeechMusic_20210921_logNormShiftAmp_detection_fixS,2020.1.2,MacIntel,60,,,,,,,,,,,,,,,,,,,,,,,,,,,,,,2,5.941,,0,0,73,73,29,1,stimuli/stim_20210706_power2amp/equal_lnn_AM1.2Hz_s35_11.m4a,,,,,,,,,,,,
,,,,,41833,2021-09-27_13h01.24.898,judgeSpeechMusic_20210921_logNormShiftAmp_detection_fixS,2020.1.2,MacIntel,60,,,,,,,,,,,,,,,,,,,,,,,,,,,,,,1,7.1562,,0,0,74,74,12,1,stimuli/stim_20210706_power2amp/equal_lnn_AM0.6Hz_s35_32.m4a,,,,,,,,,,,,
,,,,,41833,2021-09-27_13h01.24.898,judgeSpeechMusic_20210921_logNormShiftAmp_detection_fixS,2020.1.2,MacIntel,60,,,,,,,,,,,,,,,,,,,,,,,,,,,,,,,,,,,,,,,,,space,3.731,0,0,0,0,1,MUSIC,stimuli/MUSIC.jpg,,
,,,,,41833,2021-09-27_13h01.24.898,judgeSpeechMusic_20210921_logNormShiftAmp_detection_fixS,2020.1.2,MacIntel,60,,,,,,,,,,,,,space,0.6546,2,9.6674,,0,0,0,0,0,1,stimuli/stim_20210706_power2amp/equal_lnn_AM_training0.9Hz_s35.m4a,,,,,,,,,,,,,,,,,,,,,,,,,,,
,,,,,41833,2021-09-27_13h01.24.898,judgeSpeechMusic_20210921_logNormShiftAmp_detection_fixS,2020.1.2,MacIntel,60,,,,,,,,,,,,,,,2,6.6215,,0,0,1,1,1,1,stimuli/stim_20210706_power2amp/equal_lnn_AM_training1.8Hz_s35.m4a,,,,,,,,,,,,,,,,,,,,,,,,,,,
,,,,,41833,2021-09-27_13h01.24.898,judgeSpeechMusic_20210921_logNormShiftAmp_detection_fixS,2020.1.2,MacIntel,60,,,,,,,,,,,,,,,1,6.276,1,0,0,2,2,3,1,stimuli/stim_20210706_power2amp/equal_lnn_AM_training3.9Hz_s35.m4a,4.83,,,,,,,,,,,,,,,,,,,,,,,,,,
,,,,,41833,2021-09-27_13h01.24.898,judgeSpeechMusic_20210921_logNormShiftAmp_detection_fixS,2020.1.2,MacIntel,60,,,,,,,,,,,,,,,2,7.3266,,0,0,3,3,2,1,stimuli/stim_20210706_power2amp/equal_lnn_AM_training3Hz_s35.m4a,,,,,,,,,,,,,,,,,,,,,,,,,,,
,,,,,41833,2021-09-27_13h01.24.898,judgeSpeechMusic_20210921_logNormShiftAmp_detection_fixS,2020.1.2,MacIntel,60,,,,,,,,,,,,,,,,,,,,,,,,,,space,3.0528,space,0.4969,2,6.5236,,0,0,0,0,24,1,stimuli/stim_20210706_power2amp/equal_lnn_AM1.2Hz_s35_23.m4a,,,,,,,,,,,,
,,,,,41833,2021-09-27_13h01.24.898,judgeSpeechMusic_20210921_logNormShiftAmp_detection_fixS,2020.1.2,MacIntel,60,,,,,,,,,,,,,,,,,,,,,,,,,,,,,,1,6.1874,,0,0,1,1,7,1,stimuli/stim_20210706_power2amp/equal_lnn_AM0.6Hz_s35_7.m4a,,,,,,,,,,,,
,,,,,41833,2021-09-27_13h01.24.898,judgeSpeechMusic_20210921_logNormShiftAmp_detection_fixS,2020.1.2,MacIntel,60,,,,,,,,,,,,,,,,,,,,,,,,,,,,,,1,5.8111,,0,0,2,2,36,1,stimuli/stim_20210706_power2amp/equal_lnn_AM2.4Hz_s35_41.m4a,,,,,,,,,,,,
,,,,,41833,2021-09-27_13h01.24.898,judgeSpeechMusic_20210921_logNormShiftAmp_detection_fixS,2020.1.2,MacIntel,60,,,,,,,,,,,,,,,,,,,,,,,,,,,,,,2,6.1692,,0,0,3,3,67,1,stimuli/stim_20210706_power2amp/equal_lnn_AM4.2Hz_s35_26.m4a,,,,,,,,,,,,
,,,,,41833,2021-09-27_13h01.24.898,judgeSpeechMusic_20210921_logNormShiftAmp_detection_fixS,2020.1.2,MacIntel,60,,,,,,,,,,,,,,,,,,,,,,,,,,,,,,2,5.8705,,0,0,4,4,45,1,stimuli/stim_20210706_power2amp/equal_lnn_AM3.6Hz_s35_44.m4a,,,,,,,,,,,,
,,,,,41833,2021-09-27_13h01.24.898,judgeSpeechMusic_20210921_logNormShiftAmp_detection_fixS,2020.1.2,MacIntel,60,,,,,,,,,,,,,,,,,,,,,,,,,,,,,,1,5.8779,,0,0,5,5,1,1,stimuli/stim_20210706_power2amp/equal_lnn_AM0.6Hz_s35_24.m4a,,,,,,,,,,,,
,,,,,41833,2021-09-27_13h01.24.898,judgeSpeechMusic_20210921_logNormShiftAmp_detection_fixS,2020.1.2,MacIntel,60,,,,,,,,,,,,,,,,,,,,,,,,,,,,,,2,6.6185,,0,0,6,6,20,1,stimuli/stim_20210706_power2amp/equal_lnn_AM1.2Hz_s35_5.m4a,,,,,,,,,,,,
,,,,,41833,2021-09-27_13h01.24.898,judgeSpeechMusic_20210921_logNormShiftAmp_detection_fixS,2020.1.2,MacIntel,60,,,,,,,,,,,,,,,,,,,,,,,,,,,,,,1,5.8528,,0,0,7,7,17,1,stimuli/stim_20210706_power2amp/equal_lnn_AM1.2Hz_s35_10.m4a,,,,,,,,,,,,
,,,,,41833,2021-09-27_13h01.24.898,judgeSpeechMusic_20210921_logNormShiftAmp_detection_fixS,2020.1.2,MacIntel,60,,,,,,,,,,,,,,,,,,,,,,,,,,,,,,2,5.9182,,0,0,8,8,42,1,stimuli/stim_20210706_power2amp/equal_lnn_AM2.4Hz_s35_26.m4a,,,,,,,,,,,,
,,,,,41833,2021-09-27_13h01.24.898,judgeSpeechMusic_20210921_logNormShiftAmp_detection_fixS,2020.1.2,MacIntel,60,,,,,,,,,,,,,,,,,,,,,,,,,,,,,,1,8.0348,,0,0,9,9,56,1,stimuli/stim_20210706_power2amp/equal_lnn_AM3.6Hz_s35_22.m4a,,,,,,,,,,,,
,,,,,41833,2021-09-27_13h01.24.898,judgeSpeechMusic_20210921_logNormShiftAmp_detection_fixS,2020.1.2,MacIntel,60,,,,,,,,,,,,,,,,,,,,,,,,,,,,,,1,6.7159,,0,0,10,10,37,1,stimuli/stim_20210706_power2amp/equal_lnn_AM2.4Hz_s35_46.m4a,,,,,,,,,,,,
,,,,,41833,2021-09-27_13h01.24.898,judgeSpeechMusic_20210921_logNormShiftAmp_detection_fixS,2020.1.2,MacIntel,60,,,,,,,,,,,,,,,,,,,,,,,,,,,,,,2,6.0889,,0,0,11,11,72,1,stimuli/stim_20210706_power2amp/equal_lnn_AM4.2Hz_s35_22.m4a,,,,,,,,,,,,
,,,,,41833,2021-09-27_13h01.24.898,judgeSpeechMusic_20210921_logNormShiftAmp_detection_fixS,2020.1.2,MacIntel,60,,,,,,,,,,,,,,,,,,,,,,,,,,,,,,1,8.0542,,0,0,12,12,46,1,stimuli/stim_20210706_power2amp/equal_lnn_AM3.6Hz_s35_50.m4a,,,,,,,,,,,,
,,,,,41833,2021-09-27_13h01.24.898,judgeSpeechMusic_20210921_logNormShiftAmp_detection_fixS,2020.1.2,MacIntel,60,,,,,,,,,,,,,,,,,,,,,,,,,,,,,,1,6.2318,,0,0,13,13,63,1,stimuli/stim_20210706_power2amp/equal_lnn_AM4.2Hz_s35_5.m4a,,,,,,,,,,,,
,,,,,41833,2021-09-27_13h01.24.898,judgeSpeechMusic_20210921_logNormShiftAmp_detection_fixS,2020.1.2,MacIntel,60,,,,,,,,,,,,,,,,,,,,,,,,,,,,,,2,6.6766,,0,0,14,14,31,1,stimuli/stim_20210706_power2amp/equal_lnn_AM2.4Hz_s35_24.m4a,,,,,,,,,,,,
,,,,,41833,2021-09-27_13h01.24.898,judgeSpeechMusic_20210921_logNormShiftAmp_detection_fixS,2020.1.2,MacIntel,60,,,,,,,,,,,,,,,,,,,,,,,,,,,,,,2,6.0862,,0,0,15,15,66,1,stimuli/stim_20210706_power2amp/equal_lnn_AM4.2Hz_s35_36.m4a,,,,,,,,,,,,
,,,,,41833,2021-09-27_13h01.24.898,judgeSpeechMusic_20210921_logNormShiftAmp_detection_fixS,2020.1.2,MacIntel,60,,,,,,,,,,,,,,,,,,,,,,,,,,,,,,1,6.4229,,0,0,16,16,30,1,stimuli/stim_20210706_power2amp/equal_lnn_AM2.4Hz_s35_34.m4a,,,,,,,,,,,,
,,,,,41833,2021-09-27_13h01.24.898,judgeSpeechMusic_20210921_logNormShiftAmp_detection_fixS,2020.1.2,MacIntel,60,,,,,,,,,,,,,,,,,,,,,,,,,,,,,,1,6.0866,,0,0,17,17,4,1,stimuli/stim_20210706_power2amp/equal_lnn_AM0.6Hz_s35_44.m4a,,,,,,,,,,,,
,,,,,41833,2021-09-27_13h01.24.898,judgeSpeechMusic_20210921_logNormShiftAmp_detection_fixS,2020.1.2,MacIntel,60,,,,,,,,,,,,,,,,,,,,,,,,,,,,,,2,7.3542,1,0,0,18,18,73,1,stimuli/stim_20210706_power2amp/equal_lnn_AM4.2Hz_s35_18.m4a,4.2998,,,,,,,,,,,
,,,,,41833,2021-09-27_13h01.24.898,judgeSpeechMusic_20210921_logNormShiftAmp_detection_fixS,2020.1.2,MacIntel,60,,,,,,,,,,,,,,,,,,,,,,,,,,,,,,1,6.2562,,0,0,19,19,44,1,stimuli/stim_20210706_power2amp/equal_lnn_AM2.4Hz_s35_17.m4a,,,,,,,,,,,,
,,,,,41833,2021-09-27_13h01.24.898,judgeSpeechMusic_20210921_logNormShiftAmp_detection_fixS,2020.1.2,MacIntel,60,,,,,,,,,,,,,,,,,,,,,,,,,,,,,,1,6.9768,,0,0,20,20,70,1,stimuli/stim_20210706_power2amp/equal_lnn_AM4.2Hz_s35_42.m4a,,,,,,,,,,,,
,,,,,41833,2021-09-27_13h01.24.898,judgeSpeechMusic_20210921_logNormShiftAmp_detection_fixS,2020.1.2,MacIntel,60,,,,,,,,,,,,,,,,,,,,,,,,,,,,,,2,6.2208,,0,0,21,21,13,1,stimuli/stim_20210706_power2amp/equal_lnn_AM0.6Hz_s35_12.m4a,,,,,,,,,,,,
,,,,,41833,2021-09-27_13h01.24.898,judgeSpeechMusic_20210921_logNormShiftAmp_detection_fixS,2020.1.2,MacIntel,60,,,,,,,,,,,,,,,,,,,,,,,,,,,,,,2,5.3434,,0,0,22,22,14,1,stimuli/stim_20210706_power2amp/equal_lnn_AM0.6Hz_s35_50.m4a,,,,,,,,,,,,
,,,,,41833,2021-09-27_13h01.24.898,judgeSpeechMusic_20210921_logNormShiftAmp_detection_fixS,2020.1.2,MacIntel,60,,,,,,,,,,,,,,,,,,,,,,,,,,,,,,1,6.6195,,0,0,23,23,19,1,stimuli/stim_20210706_power2amp/equal_lnn_AM1.2Hz_s35_12.m4a,,,,,,,,,,,,
,,,,,41833,2021-09-27_13h01.24.898,judgeSpeechMusic_20210921_logNormShiftAmp_detection_fixS,2020.1.2,MacIntel,60,,,,,,,,,,,,,,,,,,,,,,,,,,,,,,2,6.1025,,0,0,24,24,22,1,stimuli/stim_20210706_power2amp/equal_lnn_AM1.2Hz_s35_49.m4a,,,,,,,,,,,,
,,,,,41833,2021-09-27_13h01.24.898,judgeSpeechMusic_20210921_logNormShiftAmp_detection_fixS,2020.1.2,MacIntel,60,,,,,,,,,,,,,,,,,,,,,,,,,,,,,,2,6.1563,,0,0,25,25,11,1,stimuli/stim_20210706_power2amp/equal_lnn_AM0.6Hz_s35_38.m4a,,,,,,,,,,,,
,,,,,41833,2021-09-27_13h01.24.898,judgeSpeechMusic_20210921_logNormShiftAmp_detection_fixS,2020.1.2,MacIntel,60,,,,,,,,,,,,,,,,,,,,,,,,,,,,,,1,7.1877,,0,0,26,26,10,1,stimuli/stim_20210706_power2amp/equal_lnn_AM0.6Hz_s35_21.m4a,,,,,,,,,,,,
,,,,,41833,2021-09-27_13h01.24.898,judgeSpeechMusic_20210921_logNormShiftAmp_detection_fixS,2020.1.2,MacIntel,60,,,,,,,,,,,,,,,,,,,,,,,,,,,,,,2,7.0258,,0,0,27,27,43,1,stimuli/stim_20210706_power2amp/equal_lnn_AM2.4Hz_s35_9.m4a,,,,,,,,,,,,
,,,,,41833,2021-09-27_13h01.24.898,judgeSpeechMusic_20210921_logNormShiftAmp_detection_fixS,2020.1.2,MacIntel,60,,,,,,,,,,,,,,,,,,,,,,,,,,,,,,2,5.7544,,0,0,28,28,65,1,stimuli/stim_20210706_power2amp/equal_lnn_AM4.2Hz_s35_20.m4a,,,,,,,,,,,,
,,,,,41833,2021-09-27_13h01.24.898,judgeSpeechMusic_20210921_logNormShiftAmp_detection_fixS,2020.1.2,MacIntel,60,,,,,,,,,,,,,,,,,,,,,,,,,,,,,,1,6.1567,,0,0,29,29,27,1,stimuli/stim_20210706_power2amp/equal_lnn_AM1.2Hz_s35_15.m4a,,,,,,,,,,,,
,,,,,41833,2021-09-27_13h01.24.898,judgeSpeechMusic_20210921_logNormShiftAmp_detection_fixS,2020.1.2,MacIntel,60,,,,,,,,,,,,,,,,,,,,,,,,,,,,,,1,6.9323,,0,0,30,30,0,1,stimuli/stim_20210706_power2amp/equal_lnn_AM0.6Hz_s35_40.m4a,,,,,,,,,,,,
,,,,,41833,2021-09-27_13h01.24.898,judgeSpeechMusic_20210921_logNormShiftAmp_detection_fixS,2020.1.2,MacIntel,60,,,,,,,,,,,,,,,,,,,,,,,,,,,,,,2,7.2857,,0,0,31,31,40,1,stimuli/stim_20210706_power2amp/equal_lnn_AM2.4Hz_s35_44.m4a,,,,,,,,,,,,
,,,,,41833,2021-09-27_13h01.24.898,judgeSpeechMusic_20210921_logNormShiftAmp_detection_fixS,2020.1.2,MacIntel,60,,,,,,,,,,,,,,,,,,,,,,,,,,,,,,2,7.2028,,0,0,32,32,41,1,stimuli/stim_20210706_power2amp/equal_lnn_AM2.4Hz_s35_36.m4a,,,,,,,,,,,,
,,,,,41833,2021-09-27_13h01.24.898,judgeSpeechMusic_20210921_logNormShiftAmp_detection_fixS,2020.1.2,MacIntel,60,,,,,,,,,,,,,,,,,,,,,,,,,,,,,,2,11.3378,,0,0,33,33,47,1,stimuli/stim_20210706_power2amp/equal_lnn_AM3.6Hz_s35_24.m4a,,,,,,,,,,,,
,,,,,41833,2021-09-27_13h01.24.898,judgeSpeechMusic_20210921_logNormShiftAmp_detection_fixS,2020.1.2,MacIntel,60,,,,,,,,,,,,,,,,,,,,,,,,,,,,,,2,6.0121,,0,0,34,34,74,1,stimuli/stim_20210706_power2amp/equal_lnn_AM4.2Hz_s35_24.m4a,,,,,,,,,,,,
,,,,,41833,2021-09-27_13h01.24.898,judgeSpeechMusic_20210921_logNormShiftAmp_detection_fixS,2020.1.2,MacIntel,60,,,,,,,,,,,,,,,,,,,,,,,,,,,,,,1,6.8387,,0,0,35,35,32,1,stimuli/stim_20210706_power2amp/equal_lnn_AM2.4Hz_s35_27.m4a,,,,,,,,,,,,
,,,,,41833,2021-09-27_13h01.24.898,judgeSpeechMusic_20210921_logNormShiftAmp_detection_fixS,2020.1.2,MacIntel,60,,,,,,,,,,,,,,,,,,,,,,,,,,,,,,1,5.8383,,0,0,36,36,38,1,stimuli/stim_20210706_power2amp/equal_lnn_AM2.4Hz_s35_45.m4a,,,,,,,,,,,,
,,,,,41833,2021-09-27_13h01.24.898,judgeSpeechMusic_20210921_logNormShiftAmp_detection_fixS,2020.1.2,MacIntel,60,,,,,,,,,,,,,,,,,,,,,,,,,,,,,,1,8.6078,,0,0,37,37,48,1,stimuli/stim_20210706_power2amp/equal_lnn_AM3.6Hz_s35_30.m4a,,,,,,,,,,,,
,,,,,41833,2021-09-27_13h01.24.898,judgeSpeechMusic_20210921_logNormShiftAmp_detection_fixS,2020.1.2,MacIntel,60,,,,,,,,,,,,,,,,,,,,,,,,,,,,,,1,6.75,,0,0,38,38,16,1,stimuli/stim_20210706_power2amp/equal_lnn_AM1.2Hz_s35_36.m4a,,,,,,,,,,,,
,,,,,41833,2021-09-27_13h01.24.898,judgeSpeechMusic_20210921_logNormShiftAmp_detection_fixS,2020.1.2,MacIntel,60,,,,,,,,,,,,,,,,,,,,,,,,,,,,,,2,11.661,,0,0,39,39,25,1,stimuli/stim_20210706_power2amp/equal_lnn_AM1.2Hz_s35_1.m4a,,,,,,,,,,,,
,,,,,41833,2021-09-27_13h01.24.898,judgeSpeechMusic_20210921_logNormShiftAmp_detection_fixS,2020.1.2,MacIntel,60,,,,,,,,,,,,,,,,,,,,,,,,,,,,,,2,5.5026,2,1,0,40,40,49,1,stimuli/stim_20210706_power2amp/equal_lnn_AM3.6Hz_s35_7.m4a,2.9926,,,,,,,,,,,
,,,,,41833,2021-09-27_13h01.24.898,judgeSpeechMusic_20210921_logNormShiftAmp_detection_fixS,2020.1.2,MacIntel,60,,,,,,,,,,,,,,,,,,,,,,,,,,,,,,2,7.3218,,0,0,41,41,23,1,stimuli/stim_20210706_power2amp/equal_lnn_AM1.2Hz_s35_2.m4a,,,,,,,,,,,,
,,,,,41833,2021-09-27_13h01.24.898,judgeSpeechMusic_20210921_logNormShiftAmp_detection_fixS,2020.1.2,MacIntel,60,,,,,,,,,,,,,,,,,,,,,,,,,,,,,,1,7.0039,,0,0,42,42,35,1,stimuli/stim_20210706_power2amp/equal_lnn_AM2.4Hz_s35_35.m4a,,,,,,,,,,,,
,,,,,41833,2021-09-27_13h01.24.898,judgeSpeechMusic_20210921_logNormShiftAmp_detection_fixS,2020.1.2,MacIntel,60,,,,,,,,,,,,,,,,,,,,,,,,,,,,,,2,6.9582,,0,0,43,43,69,1,stimuli/stim_20210706_power2amp/equal_lnn_AM4.2Hz_s35_49.m4a,,,,,,,,,,,,
,,,,,41833,2021-09-27_13h01.24.898,judgeSpeechMusic_20210921_logNormShiftAmp_detection_fixS,2020.1.2,MacIntel,60,,,,,,,,,,,,,,,,,,,,,,,,,,,,,,1,6.9381,,0,0,44,44,51,1,stimuli/stim_20210706_power2amp/equal_lnn_AM3.6Hz_s35_15.m4a,,,,,,,,,,,,
,,,,,41833,2021-09-27_13h01.24.898,judgeSpeechMusic_20210921_logNormShiftAmp_detection_fixS,2020.1.2,MacIntel,60,,,,,,,,,,,,,,,,,,,,,,,,,,,,,,1,6.2754,,0,0,45,45,62,1,stimuli/stim_20210706_power2amp/equal_lnn_AM4.2Hz_s35_15.m4a,,,,,,,,,,,,
,,,,,41833,2021-09-27_13h01.24.898,judgeSpeechMusic_20210921_logNormShiftAmp_detection_fixS,2020.1.2,MacIntel,60,,,,,,,,,,,,,,,,,,,,,,,,,,,,,,2,6.7732,,0,0,46,46,59,1,stimuli/stim_20210706_power2amp/equal_lnn_AM3.6Hz_s35_26.m4a,,,,,,,,,,,,
,,,,,41833,2021-09-27_13h01.24.898,judgeSpeechMusic_20210921_logNormShiftAmp_detection_fixS,2020.1.2,MacIntel,60,,,,,,,,,,,,,,,,,,,,,,,,,,,,,,2,11.5011,,0,0,47,47,52,1,stimuli/stim_20210706_power2amp/equal_lnn_AM3.6Hz_s35_33.m4a,,,,,,,,,,,,
,,,,,41833,2021-09-27_13h01.24.898,judgeSpeechMusic_20210921_logNormShiftAmp_detection_fixS,2020.1.2,MacIntel,60,,,,,,,,,,,,,,,,,,,,,,,,,,,,,,1,6.1917,,0,0,48,48,33,1,stimuli/stim_20210706_power2amp/equal_lnn_AM2.4Hz_s35_13.m4a,,,,,,,,,,,,
,,,,,41833,2021-09-27_13h01.24.898,judgeSpeechMusic_20210921_logNormShiftAmp_detection_fixS,2020.1.2,MacIntel,60,,,,,,,,,,,,,,,,,,,,,,,,,,,,,,1,6.9615,,0,0,49,49,28,1,stimuli/stim_20210706_power2amp/equal_lnn_AM1.2Hz_s35_48.m4a,,,,,,,,,,,,
,,,,,41833,2021-09-27_13h01.24.898,judgeSpeechMusic_20210921_logNormShiftAmp_detection_fixS,2020.1.2,MacIntel,60,,,,,,,,,,,,,,,,,,,,,,,,,,,,,,1,7.2204,,0,0,50,50,53,1,stimuli/stim_20210706_power2amp/equal_lnn_AM3.6Hz_s35_17.m4a,,,,,,,,,,,,
,,,,,41833,2021-09-27_13h01.24.898,judgeSpeechMusic_20210921_logNormShiftAmp_detection_fixS,2020.1.2,MacIntel,60,,,,,,,,,,,,,,,,,,,,,,,,,,,,,,2,9.7356,,0,0,51,51,9,1,stimuli/stim_20210706_power2amp/equal_lnn_AM0.6Hz_s35_10.m4a,,,,,,,,,,,,
,,,,,41833,2021-09-27_13h01.24.898,judgeSpeechMusic_20210921_logNormShiftAmp_detection_fixS,2020.1.2,MacIntel,60,,,,,,,,,,,,,,,,,,,,,,,,,,,,,,2,5.8009,,0,0,52,52,26,1,stimuli/stim_20210706_power2amp/equal_lnn_AM1.2Hz_s35_13.m4a,,,,,,,,,,,,
,,,,,41833,2021-09-27_13h01.24.898,judgeSpeechMusic_20210921_logNormShiftAmp_detection_fixS,2020.1.2,MacIntel,60,,,,,,,,,,,,,,,,,,,,,,,,,,,,,,1,7.0864,,0,0,53,53,55,1,stimuli/stim_20210706_power2amp/equal_lnn_AM3.6Hz_s35_12.m4a,,,,,,,,,,,,
,,,,,41833,2021-09-27_13h01.24.898,judgeSpeechMusic_20210921_logNormShiftAmp_detection_fixS,2020.1.2,MacIntel,60,,,,,,,,,,,,,,,,,,,,,,,,,,,,,,2,6.0867,,0,0,54,54,34,1,stimuli/stim_20210706_power2amp/equal_lnn_AM2.4Hz_s35_3.m4a,,,,,,,,,,,,
,,,,,41833,2021-09-27_13h01.24.898,judgeSpeechMusic_20210921_logNormShiftAmp_detection_fixS,2020.1.2,MacIntel,60,,,,,,,,,,,,,,,,,,,,,,,,,,,,,,1,6.6891,,0,0,55,55,71,1,stimuli/stim_20210706_power2amp/equal_lnn_AM4.2Hz_s35_14.m4a,,,,,,,,,,,,
,,,,,41833,2021-09-27_13h01.24.898,judgeSpeechMusic_20210921_logNormShiftAmp_detection_fixS,2020.1.2,MacIntel,60,,,,,,,,,,,,,,,,,,,,,,,,,,,,,,2,6.9056,,0,0,56,56,6,1,stimuli/stim_20210706_power2amp/equal_lnn_AM0.6Hz_s35_25.m4a,,,,,,,,,,,,
,,,,,41833,2021-09-27_13h01.24.898,judgeSpeechMusic_20210921_logNormShiftAmp_detection_fixS,2020.1.2,MacIntel,60,,,,,,,,,,,,,,,,,,,,,,,,,,,,,,2,6.2725,,0,0,57,57,3,1,stimuli/stim_20210706_power2amp/equal_lnn_AM0.6Hz_s35_48.m4a,,,,,,,,,,,,
,,,,,41833,2021-09-27_13h01.24.898,judgeSpeechMusic_20210921_logNormShiftAmp_detection_fixS,2020.1.2,MacIntel,60,,,,,,,,,,,,,,,,,,,,,,,,,,,,,,1,5.8977,,0,0,58,58,2,1,stimuli/stim_20210706_power2amp/equal_lnn_AM0.6Hz_s35_26.m4a,,,,,,,,,,,,
,,,,,41833,2021-09-27_13h01.24.898,judgeSpeechMusic_20210921_logNormShiftAmp_detection_fixS,2020.1.2,MacIntel,60,,,,,,,,,,,,,,,,,,,,,,,,,,,,,,2,6.345,1,1,0,59,59,18,1,stimuli/stim_20210706_power2amp/equal_lnn_AM1.2Hz_s35_31.m4a,1.6924,,,,,,,,,,,
,,,,,41833,2021-09-27_13h01.24.898,judgeSpeechMusic_20210921_logNormShiftAmp_detection_fixS,2020.1.2,MacIntel,60,,,,,,,,,,,,,,,,,,,,,,,,,,,,,,2,6.0879,,0,0,60,60,15,1,stimuli/stim_20210706_power2amp/equal_lnn_AM1.2Hz_s35_37.m4a,,,,,,,,,,,,
,,,,,41833,2021-09-27_13h01.24.898,judgeSpeechMusic_20210921_logNormShiftAmp_detection_fixS,2020.1.2,MacIntel,60,,,,,,,,,,,,,,,,,,,,,,,,,,,,,,1,6.0019,,0,0,61,61,8,1,stimuli/stim_20210706_power2amp/equal_lnn_AM0.6Hz_s35_22.m4a,,,,,,,,,,,,
,,,,,41833,2021-09-27_13h01.24.898,judgeSpeechMusic_20210921_logNormShiftAmp_detection_fixS,2020.1.2,MacIntel,60,,,,,,,,,,,,,,,,,,,,,,,,,,,,,,1,6.2428,,0,0,62,62,5,1,stimuli/stim_20210706_power2amp/equal_lnn_AM0.6Hz_s35_35.m4a,,,,,,,,,,,,
,,,,,41833,2021-09-27_13h01.24.898,judgeSpeechMusic_20210921_logNormShiftAmp_detection_fixS,2020.1.2,MacIntel,60,,,,,,,,,,,,,,,,,,,,,,,,,,,,,,1,6.3727,,0,0,63,63,60,1,stimuli/stim_20210706_power2amp/equal_lnn_AM4.2Hz_s35_28.m4a,,,,,,,,,,,,
,,,,,41833,2021-09-27_13h01.24.898,judgeSpeechMusic_20210921_logNormShiftAmp_detection_fixS,2020.1.2,MacIntel,60,,,,,,,,,,,,,,,,,,,,,,,,,,,,,,2,6.5176,,0,0,64,64,64,1,stimuli/stim_20210706_power2amp/equal_lnn_AM4.2Hz_s35_31.m4a,,,,,,,,,,,,
,,,,,41833,2021-09-27_13h01.24.898,judgeSpeechMusic_20210921_logNormShiftAmp_detection_fixS,2020.1.2,MacIntel,60,,,,,,,,,,,,,,,,,,,,,,,,,,,,,,2,5.9356,,0,0,65,65,39,1,stimuli/stim_20210706_power2amp/equal_lnn_AM2.4Hz_s35_7.m4a,,,,,,,,,,,,
,,,,,41833,2021-09-27_13h01.24.898,judgeSpeechMusic_20210921_logNormShiftAmp_detection_fixS,2020.1.2,MacIntel,60,,,,,,,,,,,,,,,,,,,,,,,,,,,,,,2,5.9468,,0,0,66,66,61,1,stimuli/stim_20210706_power2amp/equal_lnn_AM4.2Hz_s35_43.m4a,,,,,,,,,,,,
,,,,,41833,2021-09-27_13h01.24.898,judgeSpeechMusic_20210921_logNormShiftAmp_detection_fixS,2020.1.2,MacIntel,60,,,,,,,,,,,,,,,,,,,,,,,,,,,,,,1,9.2527,,0,0,67,67,68,1,stimuli/stim_20210706_power2amp/equal_lnn_AM4.2Hz_s35_12.m4a,,,,,,,,,,,,
,,,,,41833,2021-09-27_13h01.24.898,judgeSpeechMusic_20210921_logNormShiftAmp_detection_fixS,2020.1.2,MacIntel,60,,,,,,,,,,,,,,,,,,,,,,,,,,,,,,1,8.1647,,0,0,68,68,12,1,stimuli/stim_20210706_power2amp/equal_lnn_AM0.6Hz_s35_32.m4a,,,,,,,,,,,,
,,,,,41833,2021-09-27_13h01.24.898,judgeSpeechMusic_20210921_logNormShiftAmp_detection_fixS,2020.1.2,MacIntel,60,,,,,,,,,,,,,,,,,,,,,,,,,,,,,,2,8.1404,,0,0,69,69,29,1,stimuli/stim_20210706_power2amp/equal_lnn_AM1.2Hz_s35_11.m4a,,,,,,,,,,,,
,,,,,41833,2021-09-27_13h01.24.898,judgeSpeechMusic_20210921_logNormShiftAmp_detection_fixS,2020.1.2,MacIntel,60,,,,,,,,,,,,,,,,,,,,,,,,,,,,,,2,6.5241,,0,0,70,70,54,1,stimuli/stim_20210706_power2amp/equal_lnn_AM3.6Hz_s35_5.m4a,,,,,,,,,,,,
,,,,,41833,2021-09-27_13h01.24.898,judgeSpeechMusic_20210921_logNormShiftAmp_detection_fixS,2020.1.2,MacIntel,60,,,,,,,,,,,,,,,,,,,,,,,,,,,,,,1,7.3792,,0,0,71,71,57,1,stimuli/stim_20210706_power2amp/equal_lnn_AM3.6Hz_s35_13.m4a,,,,,,,,,,,,
,,,,,41833,2021-09-27_13h01.24.898,judgeSpeechMusic_20210921_logNormShiftAmp_detection_fixS,2020.1.2,MacIntel,60,,,,,,,,,,,,,,,,,,,,,,,,,,,,,,1,6.1654,,0,0,72,72,50,1,stimuli/stim_20210706_power2amp/equal_lnn_AM3.6Hz_s35_10.m4a,,,,,,,,,,,,
,,,,,41833,2021-09-27_13h01.24.898,judgeSpeechMusic_20210921_logNormShiftAmp_detection_fixS,2020.1.2,MacIntel,60,,,,,,,,,,,,,,,,,,,,,,,,,,,,,,2,6.1176,,0,0,73,73,58,1,stimuli/stim_20210706_power2amp/equal_lnn_AM3.6Hz_s35_31.m4a,,,,,,,,,,,,
,,,,,41833,2021-09-27_13h01.24.898,judgeSpeechMusic_20210921_logNormShiftAmp_detection_fixS,2020.1.2,MacIntel,60,,,,,,,,,,,,,,,,,,,,,,,,,,,,,,1,6.4598,,0,0,74,74,21,1,stimuli/stim_20210706_power2amp/equal_lnn_AM1.2Hz_s35_28.m4a,,,,,,,,,,,,
,,,,,41833,2021-09-27_13h01.24.898,judgeSpeechMusic_20210921_logNormShiftAmp_detection_fixS,2020.1.2,MacIntel,60,,,,,,,,,,,,,,,,,,,,,,,,,,,,,,,,,,,,,,,,,space,0.5481,0,1,1,1,1,SPEECH,stimuli/SPEECH.jpg,,
,,,,,41833,2021-09-27_13h01.24.898,judgeSpeechMusic_20210921_logNormShiftAmp_detection_fixS,2020.1.2,MacIntel,60,,,,,,,,,,,,,,,,,,0,0,0,0,2,1,stimuli/stim_20210706_power2amp/equal_lnn_AM_training3Hz_s35.m4a,,,,,,,,,,,,,,,,,,,,,,,,,,,
,,,,,41833,2021-09-27_13h01.24.898,judgeSpeechMusic_20210921_logNormShiftAmp_detection_fixS,2020.1.2,MacIntel,60,,,,,,,,,,,,,,,,,,,,,,,,,,space,1.289,space,0.5912,1,7.3544,,0,0,0,0,68,1,stimuli/stim_20210706_power2amp/equal_lnn_AM4.2Hz_s35_12.m4a,,,,,,,,,,,,
,,,,,41833,2021-09-27_13h01.24.898,judgeSpeechMusic_20210921_logNormShiftAmp_detection_fixS,2020.1.2,MacIntel,60,,,,,,,,,,,,,,,,,,,,,,,,,,,,,,2,6.4256,,0,0,1,1,70,1,stimuli/stim_20210706_power2amp/equal_lnn_AM4.2Hz_s35_42.m4a,,,,,,,,,,,,
,,,,,41833,2021-09-27_13h01.24.898,judgeSpeechMusic_20210921_logNormShiftAmp_detection_fixS,2020.1.2,MacIntel,60,,,,,,,,,,,,,,,,,,,,,,,,,,,,,,2,5.7399,,0,0,2,2,71,1,stimuli/stim_20210706_power2amp/equal_lnn_AM4.2Hz_s35_14.m4a,,,,,,,,,,,,
,,,,,41833,2021-09-27_13h01.24.898,judgeSpeechMusic_20210921_logNormShiftAmp_detection_fixS,2020.1.2,MacIntel,60,,,,,,,,,,,,,,,,,,,,,,,,,,,,,,2,5.9266,,0,0,3,3,43,1,stimuli/stim_20210706_power2amp/equal_lnn_AM2.4Hz_s35_9.m4a,,,,,,,,,,,,
,,,,,41833,2021-09-27_13h01.24.898,judgeSpeechMusic_20210921_logNormShiftAmp_detection_fixS,2020.1.2,MacIntel,60,,,,,,,,,,,,,,,,,,,,,,,,,,,,,,1,7.4744,,0,0,4,4,13,1,stimuli/stim_20210706_power2amp/equal_lnn_AM0.6Hz_s35_12.m4a,,,,,,,,,,,,
,,,,,41833,2021-09-27_13h01.24.898,judgeSpeechMusic_20210921_logNormShiftAmp_detection_fixS,2020.1.2,MacIntel,60,,,,,,,,,,,,,,,,,,,,,,,,,,,,,,2,6.0559,,0,0,5,5,6,1,stimuli/stim_20210706_power2amp/equal_lnn_AM0.6Hz_s35_25.m4a,,,,,,,,,,,,
,,,,,41833,2021-09-27_13h01.24.898,judgeSpeechMusic_20210921_logNormShiftAmp_detection_fixS,2020.1.2,MacIntel,60,,,,,,,,,,,,,,,,,,,,,,,,,,,,,,1,7.0443,,0,0,6,6,3,1,stimuli/stim_20210706_power2amp/equal_lnn_AM0.6Hz_s35_48.m4a,,,,,,,,,,,,
,,,,,41833,2021-09-27_13h01.24.898,judgeSpeechMusic_20210921_logNormShiftAmp_detection_fixS,2020.1.2,MacIntel,60,,,,,,,,,,,,,,,,,,,,,,,,,,,,,,1,7.6183,,0,0,7,7,33,1,stimuli/stim_20210706_power2amp/equal_lnn_AM2.4Hz_s35_13.m4a,,,,,,,,,,,,
,,,,,41833,2021-09-27_13h01.24.898,judgeSpeechMusic_20210921_logNormShiftAmp_detection_fixS,2020.1.2,MacIntel,60,,,,,,,,,,,,,,,,,,,,,,,,,,,,,,2,6.9576,,0,0,8,8,73,1,stimuli/stim_20210706_power2amp/equal_lnn_AM4.2Hz_s35_18.m4a,,,,,,,,,,,,
,,,,,41833,2021-09-27_13h01.24.898,judgeSpeechMusic_20210921_logNormShiftAmp_detection_fixS,2020.1.2,MacIntel,60,,,,,,,,,,,,,,,,,,,,,,,,,,,,,,1,6.7471,,0,0,9,9,57,1,stimuli/stim_20210706_power2amp/equal_lnn_AM3.6Hz_s35_13.m4a,,,,,,,,,,,,
,,,,,41833,2021-09-27_13h01.24.898,judgeSpeechMusic_20210921_logNormShiftAmp_detection_fixS,2020.1.2,MacIntel,60,,,,,,,,,,,,,,,,,,,,,,,,,,,,,,2,6.7595,,0,0,10,10,66,1,stimuli/stim_20210706_power2amp/equal_lnn_AM4.2Hz_s35_36.m4a,,,,,,,,,,,,
,,,,,41833,2021-09-27_13h01.24.898,judgeSpeechMusic_20210921_logNormShiftAmp_detection_fixS,2020.1.2,MacIntel,60,,,,,,,,,,,,,,,,,,,,,,,,,,,,,,1,8.2551,,0,0,11,11,9,1,stimuli/stim_20210706_power2amp/equal_lnn_AM0.6Hz_s35_10.m4a,,,,,,,,,,,,
,,,,,41833,2021-09-27_13h01.24.898,judgeSpeechMusic_20210921_logNormShiftAmp_detection_fixS,2020.1.2,MacIntel,60,,,,,,,,,,,,,,,,,,,,,,,,,,,,,,1,6.4857,,0,0,12,12,64,1,stimuli/stim_20210706_power2amp/equal_lnn_AM4.2Hz_s35_31.m4a,,,,,,,,,,,,
,,,,,41833,2021-09-27_13h01.24.898,judgeSpeechMusic_20210921_logNormShiftAmp_detection_fixS,2020.1.2,MacIntel,60,,,,,,,,,,,,,,,,,,,,,,,,,,,,,,2,6.5022,,0,0,13,13,45,1,stimuli/stim_20210706_power2amp/equal_lnn_AM3.6Hz_s35_44.m4a,,,,,,,,,,,,
,,,,,41833,2021-09-27_13h01.24.898,judgeSpeechMusic_20210921_logNormShiftAmp_detection_fixS,2020.1.2,MacIntel,60,,,,,,,,,,,,,,,,,,,,,,,,,,,,,,2,6.3889,,0,0,14,14,44,1,stimuli/stim_20210706_power2amp/equal_lnn_AM2.4Hz_s35_17.m4a,,,,,,,,,,,,
,,,,,41833,2021-09-27_13h01.24.898,judgeSpeechMusic_20210921_logNormShiftAmp_detection_fixS,2020.1.2,MacIntel,60,,,,,,,,,,,,,,,,,,,,,,,,,,,,,,2,5.7857,,0,0,15,15,42,1,stimuli/stim_20210706_power2amp/equal_lnn_AM2.4Hz_s35_26.m4a,,,,,,,,,,,,
,,,,,41833,2021-09-27_13h01.24.898,judgeSpeechMusic_20210921_logNormShiftAmp_detection_fixS,2020.1.2,MacIntel,60,,,,,,,,,,,,,,,,,,,,,,,,,,,,,,2,7.3022,,0,0,16,16,35,1,stimuli/stim_20210706_power2amp/equal_lnn_AM2.4Hz_s35_35.m4a,,,,,,,,,,,,
,,,,,41833,2021-09-27_13h01.24.898,judgeSpeechMusic_20210921_logNormShiftAmp_detection_fixS,2020.1.2,MacIntel,60,,,,,,,,,,,,,,,,,,,,,,,,,,,,,,1,6.6264,,0,0,17,17,8,1,stimuli/stim_20210706_power2amp/equal_lnn_AM0.6Hz_s35_22.m4a,,,,,,,,,,,,
,,,,,41833,2021-09-27_13h01.24.898,judgeSpeechMusic_20210921_logNormShiftAmp_detection_fixS,2020.1.2,MacIntel,60,,,,,,,,,,,,,,,,,,,,,,,,,,,,,,1,16.1711,2,1,0,18,18,34,1,stimuli/stim_20210706_power2amp/equal_lnn_AM2.4Hz_s35_3.m4a,3.3093,,,,,,,,,,,
,,,,,41833,2021-09-27_13h01.24.898,judgeSpeechMusic_20210921_logNormShiftAmp_detection_fixS,2020.1.2,MacIntel,60,,,,,,,,,,,,,,,,,,,,,,,,,,,,,,2,10.8672,,0,0,19,19,53,1,stimuli/stim_20210706_power2amp/equal_lnn_AM3.6Hz_s35_17.m4a,,,,,,,,,,,,
,,,,,41833,2021-09-27_13h01.24.898,judgeSpeechMusic_20210921_logNormShiftAmp_detection_fixS,2020.1.2,MacIntel,60,,,,,,,,,,,,,,,,,,,,,,,,,,,,,,2,5.9379,,0,0,20,20,15,1,stimuli/stim_20210706_power2amp/equal_lnn_AM1.2Hz_s35_37.m4a,,,,,,,,,,,,
,,,,,41833,2021-09-27_13h01.24.898,judgeSpeechMusic_20210921_logNormShiftAmp_detection_fixS,2020.1.2,MacIntel,60,,,,,,,,,,,,,,,,,,,,,,,,,,,,,,1,6.6241,,0,0,21,21,39,1,stimuli/stim_20210706_power2amp/equal_lnn_AM2.4Hz_s35_7.m4a,,,,,,,,,,,,
,,,,,41833,2021-09-27_13h01.24.898,judgeSpeechMusic_20210921_logNormShiftAmp_detection_fixS,2020.1.2,MacIntel,60,,,,,,,,,,,,,,,,,,,,,,,,,,,,,,2,6.1687,,0,0,22,22,51,1,stimuli/stim_20210706_power2amp/equal_lnn_AM3.6Hz_s35_15.m4a,,,,,,,,,,,,
,,,,,41833,2021-09-27_13h01.24.898,judgeSpeechMusic_20210921_logNormShiftAmp_detection_fixS,2020.1.2,MacIntel,60,,,,,,,,,,,,,,,,,,,,,,,,,,,,,,2,43.9047,,0,0,23,23,52,1,stimuli/stim_20210706_power2amp/equal_lnn_AM3.6Hz_s35_33.m4a,,,,,,,,,,,,
,,,,,41833,2021-09-27_13h01.24.898,judgeSpeechMusic_20210921_logNormShiftAmp_detection_fixS,2020.1.2,MacIntel,60,,,,,,,,,,,,,,,,,,,,,,,,,,,,,,1,7.343,,0,0,24,24,25,1,stimuli/stim_20210706_power2amp/equal_lnn_AM1.2Hz_s35_1.m4a,,,,,,,,,,,,
,,,,,41833,2021-09-27_13h01.24.898,judgeSpeechMusic_20210921_logNormShiftAmp_detection_fixS,2020.1.2,MacIntel,60,,,,,,,,,,,,,,,,,,,,,,,,,,,,,,1,12.212,,0,0,25,25,67,1,stimuli/stim_20210706_power2amp/equal_lnn_AM4.2Hz_s35_26.m4a,,,,,,,,,,,,
,,,,,41833,2021-09-27_13h01.24.898,judgeSpeechMusic_20210921_logNormShiftAmp_detection_fixS,2020.1.2,MacIntel,60,,,,,,,,,,,,,,,,,,,,,,,,,,,,,,1,6.9578,,0,0,26,26,74,1,stimuli/stim_20210706_power2amp/equal_lnn_AM4.2Hz_s35_24.m4a,,,,,,,,,,,,
,,,,,41833,2021-09-27_13h01.24.898,judgeSpeechMusic_20210921_logNormShiftAmp_detection_fixS,2020.1.2,MacIntel,60,,,,,,,,,,,,,,,,,,,,,,,,,,,,,,2,7.4952,,0,0,27,27,21,1,stimuli/stim_20210706_power2amp/equal_lnn_AM1.2Hz_s35_28.m4a,,,,,,,,,,,,
,,,,,41833,2021-09-27_13h01.24.898,judgeSpeechMusic_20210921_logNormShiftAmp_detection_fixS,2020.1.2,MacIntel,60,,,,,,,,,,,,,,,,,,,,,,,,,,,,,,2,18.4419,,0,0,28,28,10,1,stimuli/stim_20210706_power2amp/equal_lnn_AM0.6Hz_s35_21.m4a,,,,,,,,,,,,
,,,,,41833,2021-09-27_13h01.24.898,judgeSpeechMusic_20210921_logNormShiftAmp_detection_fixS,2020.1.2,MacIntel,60,,,,,,,,,,,,,,,,,,,,,,,,,,,,,,2,14.802,,0,0,29,29,48,1,stimuli/stim_20210706_power2amp/equal_lnn_AM3.6Hz_s35_30.m4a,,,,,,,,,,,,
,,,,,41833,2021-09-27_13h01.24.898,judgeSpeechMusic_20210921_logNormShiftAmp_detection_fixS,2020.1.2,MacIntel,60,,,,,,,,,,,,,,,,,,,,,,,,,,,,,,1,6.3532,,0,0,30,30,49,1,stimuli/stim_20210706_power2amp/equal_lnn_AM3.6Hz_s35_7.m4a,,,,,,,,,,,,
,,,,,41833,2021-09-27_13h01.24.898,judgeSpeechMusic_20210921_logNormShiftAmp_detection_fixS,2020.1.2,MacIntel,60,,,,,,,,,,,,,,,,,,,,,,,,,,,,,,1,5.8685,,0,0,31,31,36,1,stimuli/stim_20210706_power2amp/equal_lnn_AM2.4Hz_s35_41.m4a,,,,,,,,,,,,
,,,,,41833,2021-09-27_13h01.24.898,judgeSpeechMusic_20210921_logNormShiftAmp_detection_fixS,2020.1.2,MacIntel,60,,,,,,,,,,,,,,,,,,,,,,,,,,,,,,2,6.8594,,0,0,32,32,12,1,stimuli/stim_20210706_power2amp/equal_lnn_AM0.6Hz_s35_32.m4a,,,,,,,,,,,,
,,,,,41833,2021-09-27_13h01.24.898,judgeSpeechMusic_20210921_logNormShiftAmp_detection_fixS,2020.1.2,MacIntel,60,,,,,,,,,,,,,,,,,,,,,,,,,,,,,,2,6.156,,0,0,33,33,18,1,stimuli/stim_20210706_power2amp/equal_lnn_AM1.2Hz_s35_31.m4a,,,,,,,,,,,,
,,,,,41833,2021-09-27_13h01.24.898,judgeSpeechMusic_20210921_logNormShiftAmp_detection_fixS,2020.1.2,MacIntel,60,,,,,,,,,,,,,,,,,,,,,,,,,,,,,,1,5.7704,,0,0,34,34,2,1,stimuli/stim_20210706_power2amp/equal_lnn_AM0.6Hz_s35_26.m4a,,,,,,,,,,,,
,,,,,41833,2021-09-27_13h01.24.898,judgeSpeechMusic_20210921_logNormShiftAmp_detection_fixS,2020.1.2,MacIntel,60,,,,,,,,,,,,,,,,,,,,,,,,,,,,,,1,6.1917,,0,0,35,35,37,1,stimuli/stim_20210706_power2amp/equal_lnn_AM2.4Hz_s35_46.m4a,,,,,,,,,,,,
,,,,,41833,2021-09-27_13h01.24.898,judgeSpeechMusic_20210921_logNormShiftAmp_detection_fixS,2020.1.2,MacIntel,60,,,,,,,,,,,,,,,,,,,,,,,,,,,,,,2,10.6374,,0,0,36,36,28,1,stimuli/stim_20210706_power2amp/equal_lnn_AM1.2Hz_s35_48.m4a,,,,,,,,,,,,
,,,,,41833,2021-09-27_13h01.24.898,judgeSpeechMusic_20210921_logNormShiftAmp_detection_fixS,2020.1.2,MacIntel,60,,,,,,,,,,,,,,,,,,,,,,,,,,,,,,2,10.4593,,0,0,37,37,69,1,stimuli/stim_20210706_power2amp/equal_lnn_AM4.2Hz_s35_49.m4a,,,,,,,,,,,,
,,,,,41833,2021-09-27_13h01.24.898,judgeSpeechMusic_20210921_logNormShiftAmp_detection_fixS,2020.1.2,MacIntel,60,,,,,,,,,,,,,,,,,,,,,,,,,,,,,,2,8.4087,,0,0,38,38,46,1,stimuli/stim_20210706_power2amp/equal_lnn_AM3.6Hz_s35_50.m4a,,,,,,,,,,,,
,,,,,41833,2021-09-27_13h01.24.898,judgeSpeechMusic_20210921_logNormShiftAmp_detection_fixS,2020.1.2,MacIntel,60,,,,,,,,,,,,,,,,,,,,,,,,,,,,,,1,8.4289,,0,0,39,39,0,1,stimuli/stim_20210706_power2amp/equal_lnn_AM0.6Hz_s35_40.m4a,,,,,,,,,,,,
,,,,,41833,2021-09-27_13h01.24.898,judgeSpeechMusic_20210921_logNormShiftAmp_detection_fixS,2020.1.2,MacIntel,60,,,,,,,,,,,,,,,,,,,,,,,,,,,,,,1,8.5697,1,1,0,40,40,30,1,stimuli/stim_20210706_power2amp/equal_lnn_AM2.4Hz_s35_34.m4a,1.0941,,,,,,,,,,,
,,,,,41833,2021-09-27_13h01.24.898,judgeSpeechMusic_20210921_logNormShiftAmp_detection_fixS,2020.1.2,MacIntel,60,,,,,,,,,,,,,,,,,,,,,,,,,,,,,,1,7.6221,,0,0,41,41,7,1,stimuli/stim_20210706_power2amp/equal_lnn_AM0.6Hz_s35_7.m4a,,,,,,,,,,,,
,,,,,41833,2021-09-27_13h01.24.898,judgeSpeechMusic_20210921_logNormShiftAmp_detection_fixS,2020.1.2,MacIntel,60,,,,,,,,,,,,,,,,,,,,,,,,,,,,,,1,10.6651,,0,0,42,42,54,1,stimuli/stim_20210706_power2amp/equal_lnn_AM3.6Hz_s35_5.m4a,,,,,,,,,,,,
,,,,,41833,2021-09-27_13h01.24.898,judgeSpeechMusic_20210921_logNormShiftAmp_detection_fixS,2020.1.2,MacIntel,60,,,,,,,,,,,,,,,,,,,,,,,,,,,,,,2,7.2605,,0,0,43,43,29,1,stimuli/stim_20210706_power2amp/equal_lnn_AM1.2Hz_s35_11.m4a,,,,,,,,,,,,
,,,,,41833,2021-09-27_13h01.24.898,judgeSpeechMusic_20210921_logNormShiftAmp_detection_fixS,2020.1.2,MacIntel,60,,,,,,,,,,,,,,,,,,,,,,,,,,,,,,1,6.3867,,0,0,44,44,58,1,stimuli/stim_20210706_power2amp/equal_lnn_AM3.6Hz_s35_31.m4a,,,,,,,,,,,,
,,,,,41833,2021-09-27_13h01.24.898,judgeSpeechMusic_20210921_logNormShiftAmp_detection_fixS,2020.1.2,MacIntel,60,,,,,,,,,,,,,,,,,,,,,,,,,,,,,,2,6.3036,,0,0,45,45,14,1,stimuli/stim_20210706_power2amp/equal_lnn_AM0.6Hz_s35_50.m4a,,,,,,,,,,,,
,,,,,41833,2021-09-27_13h01.24.898,judgeSpeechMusic_20210921_logNormShiftAmp_detection_fixS,2020.1.2,MacIntel,60,,,,,,,,,,,,,,,,,,,,,,,,,,,,,,2,6.2765,,0,0,46,46,26,1,stimuli/stim_20210706_power2amp/equal_lnn_AM1.2Hz_s35_13.m4a,,,,,,,,,,,,
,,,,,41833,2021-09-27_13h01.24.898,judgeSpeechMusic_20210921_logNormShiftAmp_detection_fixS,2020.1.2,MacIntel,60,,,,,,,,,,,,,,,,,,,,,,,,,,,,,,2,5.7258,,0,0,47,47,61,1,stimuli/stim_20210706_power2amp/equal_lnn_AM4.2Hz_s35_43.m4a,,,,,,,,,,,,
,,,,,41833,2021-09-27_13h01.24.898,judgeSpeechMusic_20210921_logNormShiftAmp_detection_fixS,2020.1.2,MacIntel,60,,,,,,,,,,,,,,,,,,,,,,,,,,,,,,1,7.5856,,0,0,48,48,31,1,stimuli/stim_20210706_power2amp/equal_lnn_AM2.4Hz_s35_24.m4a,,,,,,,,,,,,
,,,,,41833,2021-09-27_13h01.24.898,judgeSpeechMusic_20210921_logNormShiftAmp_detection_fixS,2020.1.2,MacIntel,60,,,,,,,,,,,,,,,,,,,,,,,,,,,,,,1,30.2228,,0,0,49,49,1,1,stimuli/stim_20210706_power2amp/equal_lnn_AM0.6Hz_s35_24.m4a,,,,,,,,,,,,
,,,,,41833,2021-09-27_13h01.24.898,judgeSpeechMusic_20210921_logNormShiftAmp_detection_fixS,2020.1.2,MacIntel,60,,,,,,,,,,,,,,,,,,,,,,,,,,,,,,2,7.9528,,0,0,50,50,32,1,stimuli/stim_20210706_power2amp/equal_lnn_AM2.4Hz_s35_27.m4a,,,,,,,,,,,,
,,,,,41833,2021-09-27_13h01.24.898,judgeSpeechMusic_20210921_logNormShiftAmp_detection_fixS,2020.1.2,MacIntel,60,,,,,,,,,,,,,,,,,,,,,,,,,,,,,,1,6.6738,,0,0,51,51,41,1,stimuli/stim_20210706_power2amp/equal_lnn_AM2.4Hz_s35_36.m4a,,,,,,,,,,,,
,,,,,41833,2021-09-27_13h01.24.898,judgeSpeechMusic_20210921_logNormShiftAmp_detection_fixS,2020.1.2,MacIntel,60,,,,,,,,,,,,,,,,,,,,,,,,,,,,,,1,6.6236,,0,0,52,52,62,1,stimuli/stim_20210706_power2amp/equal_lnn_AM4.2Hz_s35_15.m4a,,,,,,,,,,,,
,,,,,41833,2021-09-27_13h01.24.898,judgeSpeechMusic_20210921_logNormShiftAmp_detection_fixS,2020.1.2,MacIntel,60,,,,,,,,,,,,,,,,,,,,,,,,,,,,,,2,6.4267,,0,0,53,53,72,1,stimuli/stim_20210706_power2amp/equal_lnn_AM4.2Hz_s35_22.m4a,,,,,,,,,,,,
,,,,,41833,2021-09-27_13h01.24.898,judgeSpeechMusic_20210921_logNormShiftAmp_detection_fixS,2020.1.2,MacIntel,60,,,,,,,,,,,,,,,,,,,,,,,,,,,,,,2,5.7691,,0,0,54,54,20,1,stimuli/stim_20210706_power2amp/equal_lnn_AM1.2Hz_s35_5.m4a,,,,,,,,,,,,
,,,,,41833,2021-09-27_13h01.24.898,judgeSpeechMusic_20210921_logNormShiftAmp_detection_fixS,2020.1.2,MacIntel,60,,,,,,,,,,,,,,,,,,,,,,,,,,,,,,1,15.3885,,0,0,55,55,47,1,stimuli/stim_20210706_power2amp/equal_lnn_AM3.6Hz_s35_24.m4a,,,,,,,,,,,,
,,,,,41833,2021-09-27_13h01.24.898,judgeSpeechMusic_20210921_logNormShiftAmp_detection_fixS,2020.1.2,MacIntel,60,,,,,,,,,,,,,,,,,,,,,,,,,,,,,,1,7.5901,,0,0,56,56,5,1,stimuli/stim_20210706_power2amp/equal_lnn_AM0.6Hz_s35_35.m4a,,,,,,,,,,,,
,,,,,41833,2021-09-27_13h01.24.898,judgeSpeechMusic_20210921_logNormShiftAmp_detection_fixS,2020.1.2,MacIntel,60,,,,,,,,,,,,,,,,,,,,,,,,,,,,,,1,6.6376,,0,0,57,57,11,1,stimuli/stim_20210706_power2amp/equal_lnn_AM0.6Hz_s35_38.m4a,,,,,,,,,,,,
,,,,,41833,2021-09-27_13h01.24.898,judgeSpeechMusic_20210921_logNormShiftAmp_detection_fixS,2020.1.2,MacIntel,60,,,,,,,,,,,,,,,,,,,,,,,,,,,,,,2,7.1419,,0,0,58,58,19,1,stimuli/stim_20210706_power2amp/equal_lnn_AM1.2Hz_s35_12.m4a,,,,,,,,,,,,
,,,,,41833,2021-09-27_13h01.24.898,judgeSpeechMusic_20210921_logNormShiftAmp_detection_fixS,2020.1.2,MacIntel,60,,,,,,,,,,,,,,,,,,,,,,,,,,,,,,2,9.5064,1,0,0,59,59,16,1,stimuli/stim_20210706_power2amp/equal_lnn_AM1.2Hz_s35_36.m4a,2.8524,,,,,,,,,,,
,,,,,41833,2021-09-27_13h01.24.898,judgeSpeechMusic_20210921_logNormShiftAmp_detection_fixS,2020.1.2,MacIntel,60,,,,,,,,,,,,,,,,,,,,,,,,,,,,,,2,21.8198,,0,0,60,60,27,1,stimuli/stim_20210706_power2amp/equal_lnn_AM1.2Hz_s35_15.m4a,,,,,,,,,,,,
,,,,,41833,2021-09-27_13h01.24.898,judgeSpeechMusic_20210921_logNormShiftAmp_detection_fixS,2020.1.2,MacIntel,60,,,,,,,,,,,,,,,,,,,,,,,,,,,,,,1,6.9676,,0,0,61,61,56,1,stimuli/stim_20210706_power2amp/equal_lnn_AM3.6Hz_s35_22.m4a,,,,,,,,,,,,
,,,,,41833,2021-09-27_13h01.24.898,judgeSpeechMusic_20210921_logNormShiftAmp_detection_fixS,2020.1.2,MacIntel,60,,,,,,,,,,,,,,,,,,,,,,,,,,,,,,1,8.7874,,0,0,62,62,50,1,stimuli/stim_20210706_power2amp/equal_lnn_AM3.6Hz_s35_10.m4a,,,,,,,,,,,,
,,,,,41833,2021-09-27_13h01.24.898,judgeSpeechMusic_20210921_logNormShiftAmp_detection_fixS,2020.1.2,MacIntel,60,,,,,,,,,,,,,,,,,,,,,,,,,,,,,,1,5.7862,,0,0,63,63,22,1,stimuli/stim_20210706_power2amp/equal_lnn_AM1.2Hz_s35_49.m4a,,,,,,,,,,,,
,,,,,41833,2021-09-27_13h01.24.898,judgeSpeechMusic_20210921_logNormShiftAmp_detection_fixS,2020.1.2,MacIntel,60,,,,,,,,,,,,,,,,,,,,,,,,,,,,,,2,6.3785,,0,0,64,64,4,1,stimuli/stim_20210706_power2amp/equal_lnn_AM0.6Hz_s35_44.m4a,,,,,,,,,,,,
,,,,,41833,2021-09-27_13h01.24.898,judgeSpeechMusic_20210921_logNormShiftAmp_detection_fixS,2020.1.2,MacIntel,60,,,,,,,,,,,,,,,,,,,,,,,,,,,,,,2,6.259,,0,0,65,65,24,1,stimuli/stim_20210706_power2amp/equal_lnn_AM1.2Hz_s35_23.m4a,,,,,,,,,,,,
,,,,,41833,2021-09-27_13h01.24.898,judgeSpeechMusic_20210921_logNormShiftAmp_detection_fixS,2020.1.2,MacIntel,60,,,,,,,,,,,,,,,,,,,,,,,,,,,,,,2,9.7871,,0,0,66,66,60,1,stimuli/stim_20210706_power2amp/equal_lnn_AM4.2Hz_s35_28.m4a,,,,,,,,,,,,
,,,,,41833,2021-09-27_13h01.24.898,judgeSpeechMusic_20210921_logNormShiftAmp_detection_fixS,2020.1.2,MacIntel,60,,,,,,,,,,,,,,,,,,,,,,,,,,,,,,2,29.4423,,0,0,67,67,63,1,stimuli/stim_20210706_power2amp/equal_lnn_AM4.2Hz_s35_5.m4a,,,,,,,,,,,,
,,,,,41833,2021-09-27_13h01.24.898,judgeSpeechMusic_20210921_logNormShiftAmp_detection_fixS,2020.1.2,MacIntel,60,,,,,,,,,,,,,,,,,,,,,,,,,,,,,,1,8.5179,,0,0,68,68,40,1,stimuli/stim_20210706_power2amp/equal_lnn_AM2.4Hz_s35_44.m4a,,,,,,,,,,,,
,,,,,41833,2021-09-27_13h01.24.898,judgeSpeechMusic_20210921_logNormShiftAmp_detection_fixS,2020.1.2,MacIntel,60,,,,,,,,,,,,,,,,,,,,,,,,,,,,,,1,24.1201,,0,0,69,69,59,1,stimuli/stim_20210706_power2amp/equal_lnn_AM3.6Hz_s35_26.m4a,,,,,,,,,,,,
,,,,,41833,2021-09-27_13h01.24.898,judgeSpeechMusic_20210921_logNormShiftAmp_detection_fixS,2020.1.2,MacIntel,60,,,,,,,,,,,,,,,,,,,,,,,,,,,,,,1,10.8726,,0,0,70,70,17,1,stimuli/stim_20210706_power2amp/equal_lnn_AM1.2Hz_s35_10.m4a,,,,,,,,,,,,
,,,,,41833,2021-09-27_13h01.24.898,judgeSpeechMusic_20210921_logNormShiftAmp_detection_fixS,2020.1.2,MacIntel,60,,,,,,,,,,,,,,,,,,,,,,,,,,,,,,2,8.109,,0,0,71,71,23,1,stimuli/stim_20210706_power2amp/equal_lnn_AM1.2Hz_s35_2.m4a,,,,,,,,,,,,
,,,,,41833,2021-09-27_13h01.24.898,judgeSpeechMusic_20210921_logNormShiftAmp_detection_fixS,2020.1.2,MacIntel,60,,,,,,,,,,,,,,,,,,,,,,,,,,,,,,2,7.4058,,0,0,72,72,65,1,stimuli/stim_20210706_power2amp/equal_lnn_AM4.2Hz_s35_20.m4a,,,,,,,,,,,,
,,,,,41833,2021-09-27_13h01.24.898,judgeSpeechMusic_20210921_logNormShiftAmp_detection_fixS,2020.1.2,MacIntel,60,,,,,,,,,,,,,,,,,,,,,,,,,,,,,,2,31.6798,,0,0,73,73,55,1,stimuli/stim_20210706_power2amp/equal_lnn_AM3.6Hz_s35_12.m4a,,,,,,,,,,,,
,,,,,41833,2021-09-27_13h01.24.898,judgeSpeechMusic_20210921_logNormShiftAmp_detection_fixS,2020.1.2,MacIntel,60,,,,,,,,,,,,,,,,,,,,,,,,,,,,,,1,10.323,,0,0,74,74,38,1,stimuli/stim_20210706_power2amp/equal_lnn_AM2.4Hz_s35_45.m4a,,,,,,,,,,,,
,,,,,41833,2021-09-27_13h01.24.898,judgeSpeechMusic_20210921_logNormShiftAmp_detection_fixS,2020.1.2,MacIntel,60,,,,,,,,,,,,,,,,,,,,,,,,,,,,,,,,,,,,,,,,,space,4.8079,1,0,2,1,1,SPEECH,stimuli/SPEECH.jpg,,
,,,,,41833,2021-09-27_13h01.24.898,judgeSpeechMusic_20210921_logNormShiftAmp_detection_fixS,2020.1.2,MacIntel,60,,,,,,,,,,,,,,,,,,0,0,0,0,1,1,stimuli/stim_20210706_power2amp/equal_lnn_AM_training1.8Hz_s35.m4a,,,,,,,,,,,,,,,,,,,,,,,,,,,
,,,,,41833,2021-09-27_13h01.24.898,judgeSpeechMusic_20210921_logNormShiftAmp_detection_fixS,2020.1.2,MacIntel,60,,,,,,,,,,,,,,,,,,,,,,,,,,space,0.5526,space,0.1358,1,7.7148,,0,0,0,0,52,1,stimuli/stim_20210706_power2amp/equal_lnn_AM3.6Hz_s35_33.m4a,,,,,,,,,,,,
,,,,,41833,2021-09-27_13h01.24.898,judgeSpeechMusic_20210921_logNormShiftAmp_detection_fixS,2020.1.2,MacIntel,60,,,,,,,,,,,,,,,,,,,,,,,,,,,,,,2,6.0245,,0,0,1,1,7,1,stimuli/stim_20210706_power2amp/equal_lnn_AM0.6Hz_s35_7.m4a,,,,,,,,,,,,
,,,,,41833,2021-09-27_13h01.24.898,judgeSpeechMusic_20210921_logNormShiftAmp_detection_fixS,2020.1.2,MacIntel,60,,,,,,,,,,,,,,,,,,,,,,,,,,,,,,2,6.588,,0,0,2,2,20,1,stimuli/stim_20210706_power2amp/equal_lnn_AM1.2Hz_s35_5.m4a,,,,,,,,,,,,
,,,,,41833,2021-09-27_13h01.24.898,judgeSpeechMusic_20210921_logNormShiftAmp_detection_fixS,2020.1.2,MacIntel,60,,,,,,,,,,,,,,,,,,,,,,,,,,,,,,2,6.1536,,0,0,3,3,5,1,stimuli/stim_20210706_power2amp/equal_lnn_AM0.6Hz_s35_35.m4a,,,,,,,,,,,,
,,,,,41833,2021-09-27_13h01.24.898,judgeSpeechMusic_20210921_logNormShiftAmp_detection_fixS,2020.1.2,MacIntel,60,,,,,,,,,,,,,,,,,,,,,,,,,,,,,,1,14.9779,,0,0,4,4,6,1,stimuli/stim_20210706_power2amp/equal_lnn_AM0.6Hz_s35_25.m4a,,,,,,,,,,,,
,,,,,41833,2021-09-27_13h01.24.898,judgeSpeechMusic_20210921_logNormShiftAmp_detection_fixS,2020.1.2,MacIntel,60,,,,,,,,,,,,,,,,,,,,,,,,,,,,,,2,7.5151,,0,0,5,5,65,1,stimuli/stim_20210706_power2amp/equal_lnn_AM4.2Hz_s35_20.m4a,,,,,,,,,,,,
,,,,,41833,2021-09-27_13h01.24.898,judgeSpeechMusic_20210921_logNormShiftAmp_detection_fixS,2020.1.2,MacIntel,60,,,,,,,,,,,,,,,,,,,,,,,,,,,,,,1,8.669,,0,0,6,6,26,1,stimuli/stim_20210706_power2amp/equal_lnn_AM1.2Hz_s35_13.m4a,,,,,,,,,,,,
,,,,,41833,2021-09-27_13h01.24.898,judgeSpeechMusic_20210921_logNormShiftAmp_detection_fixS,2020.1.2,MacIntel,60,,,,,,,,,,,,,,,,,,,,,,,,,,,,,,1,6.5852,,0,0,7,7,22,1,stimuli/stim_20210706_power2amp/equal_lnn_AM1.2Hz_s35_49.m4a,,,,,,,,,,,,
,,,,,41833,2021-09-27_13h01.24.898,judgeSpeechMusic_20210921_logNormShiftAmp_detection_fixS,2020.1.2,MacIntel,60,,,,,,,,,,,,,,,,,,,,,,,,,,,,,,1,12.7519,,0,0,8,8,64,1,stimuli/stim_20210706_power2amp/equal_lnn_AM4.2Hz_s35_31.m4a,,,,,,,,,,,,
,,,,,41833,2021-09-27_13h01.24.898,judgeSpeechMusic_20210921_logNormShiftAmp_detection_fixS,2020.1.2,MacIntel,60,,,,,,,,,,,,,,,,,,,,,,,,,,,,,,2,7.0329,,0,0,9,9,2,1,stimuli/stim_20210706_power2amp/equal_lnn_AM0.6Hz_s35_26.m4a,,,,,,,,,,,,
,,,,,41833,2021-09-27_13h01.24.898,judgeSpeechMusic_20210921_logNormShiftAmp_detection_fixS,2020.1.2,MacIntel,60,,,,,,,,,,,,,,,,,,,,,,,,,,,,,,2,7.6132,,0,0,10,10,25,1,stimuli/stim_20210706_power2amp/equal_lnn_AM1.2Hz_s35_1.m4a,,,,,,,,,,,,
,,,,,41833,2021-09-27_13h01.24.898,judgeSpeechMusic_20210921_logNormShiftAmp_detection_fixS,2020.1.2,MacIntel,60,,,,,,,,,,,,,,,,,,,,,,,,,,,,,,2,10.1949,,0,0,11,11,38,1,stimuli/stim_20210706_power2amp/equal_lnn_AM2.4Hz_s35_45.m4a,,,,,,,,,,,,
,,,,,41833,2021-09-27_13h01.24.898,judgeSpeechMusic_20210921_logNormShiftAmp_detection_fixS,2020.1.2,MacIntel,60,,,,,,,,,,,,,,,,,,,,,,,,,,,,,,2,6.7997,,0,0,12,12,53,1,stimuli/stim_20210706_power2amp/equal_lnn_AM3.6Hz_s35_17.m4a,,,,,,,,,,,,
,,,,,41833,2021-09-27_13h01.24.898,judgeSpeechMusic_20210921_logNormShiftAmp_detection_fixS,2020.1.2,MacIntel,60,,,,,,,,,,,,,,,,,,,,,,,,,,,,,,2,16.9803,,0,0,13,13,1,1,stimuli/stim_20210706_power2amp/equal_lnn_AM0.6Hz_s35_24.m4a,,,,,,,,,,,,
,,,,,41833,2021-09-27_13h01.24.898,judgeSpeechMusic_20210921_logNormShiftAmp_detection_fixS,2020.1.2,MacIntel,60,,,,,,,,,,,,,,,,,,,,,,,,,,,,,,1,10.842,,0,0,14,14,70,1,stimuli/stim_20210706_power2amp/equal_lnn_AM4.2Hz_s35_42.m4a,,,,,,,,,,,,
,,,,,41833,2021-09-27_13h01.24.898,judgeSpeechMusic_20210921_logNormShiftAmp_detection_fixS,2020.1.2,MacIntel,60,,,,,,,,,,,,,,,,,,,,,,,,,,,,,,2,6.3794,,0,0,15,15,69,1,stimuli/stim_20210706_power2amp/equal_lnn_AM4.2Hz_s35_49.m4a,,,,,,,,,,,,
,,,,,41833,2021-09-27_13h01.24.898,judgeSpeechMusic_20210921_logNormShiftAmp_detection_fixS,2020.1.2,MacIntel,60,,,,,,,,,,,,,,,,,,,,,,,,,,,,,,2,6.2019,,0,0,16,16,66,1,stimuli/stim_20210706_power2amp/equal_lnn_AM4.2Hz_s35_36.m4a,,,,,,,,,,,,
,,,,,41833,2021-09-27_13h01.24.898,judgeSpeechMusic_20210921_logNormShiftAmp_detection_fixS,2020.1.2,MacIntel,60,,,,,,,,,,,,,,,,,,,,,,,,,,,,,,2,6.1356,,0,0,17,17,35,1,stimuli/stim_20210706_power2amp/equal_lnn_AM2.4Hz_s35_35.m4a,,,,,,,,,,,,
,,,,,41833,2021-09-27_13h01.24.898,judgeSpeechMusic_20210921_logNormShiftAmp_detection_fixS,2020.1.2,MacIntel,60,,,,,,,,,,,,,,,,,,,,,,,,,,,,,,1,6.7121,4,1,0,18,18,46,1,stimuli/stim_20210706_power2amp/equal_lnn_AM3.6Hz_s35_50.m4a,8.5401,,,,,,,,,,,
,,,,,41833,2021-09-27_13h01.24.898,judgeSpeechMusic_20210921_logNormShiftAmp_detection_fixS,2020.1.2,MacIntel,60,,,,,,,,,,,,,,,,,,,,,,,,,,,,,,2,9.6335,,0,0,19,19,45,1,stimuli/stim_20210706_power2amp/equal_lnn_AM3.6Hz_s35_44.m4a,,,,,,,,,,,,
,,,,,41833,2021-09-27_13h01.24.898,judgeSpeechMusic_20210921_logNormShiftAmp_detection_fixS,2020.1.2,MacIntel,60,,,,,,,,,,,,,,,,,,,,,,,,,,,,,,1,10.9864,,0,0,20,20,60,1,stimuli/stim_20210706_power2amp/equal_lnn_AM4.2Hz_s35_28.m4a,,,,,,,,,,,,
,,,,,41833,2021-09-27_13h01.24.898,judgeSpeechMusic_20210921_logNormShiftAmp_detection_fixS,2020.1.2,MacIntel,60,,,,,,,,,,,,,,,,,,,,,,,,,,,,,,2,8.3715,,0,0,21,21,28,1,stimuli/stim_20210706_power2amp/equal_lnn_AM1.2Hz_s35_48.m4a,,,,,,,,,,,,
,,,,,41833,2021-09-27_13h01.24.898,judgeSpeechMusic_20210921_logNormShiftAmp_detection_fixS,2020.1.2,MacIntel,60,,,,,,,,,,,,,,,,,,,,,,,,,,,,,,1,7.7917,,0,0,22,22,58,1,stimuli/stim_20210706_power2amp/equal_lnn_AM3.6Hz_s35_31.m4a,,,,,,,,,,,,
,,,,,41833,2021-09-27_13h01.24.898,judgeSpeechMusic_20210921_logNormShiftAmp_detection_fixS,2020.1.2,MacIntel,60,,,,,,,,,,,,,,,,,,,,,,,,,,,,,,2,7.3679,,0,0,23,23,23,1,stimuli/stim_20210706_power2amp/equal_lnn_AM1.2Hz_s35_2.m4a,,,,,,,,,,,,
,,,,,41833,2021-09-27_13h01.24.898,judgeSpeechMusic_20210921_logNormShiftAmp_detection_fixS,2020.1.2,MacIntel,60,,,,,,,,,,,,,,,,,,,,,,,,,,,,,,1,6.5556,,0,0,24,24,3,1,stimuli/stim_20210706_power2amp/equal_lnn_AM0.6Hz_s35_48.m4a,,,,,,,,,,,,
,,,,,41833,2021-09-27_13h01.24.898,judgeSpeechMusic_20210921_logNormShiftAmp_detection_fixS,2020.1.2,MacIntel,60,,,,,,,,,,,,,,,,,,,,,,,,,,,,,,2,6.3041,,0,0,25,25,49,1,stimuli/stim_20210706_power2amp/equal_lnn_AM3.6Hz_s35_7.m4a,,,,,,,,,,,,
,,,,,41833,2021-09-27_13h01.24.898,judgeSpeechMusic_20210921_logNormShiftAmp_detection_fixS,2020.1.2,MacIntel,60,,,,,,,,,,,,,,,,,,,,,,,,,,,,,,2,5.7613,,0,0,26,26,42,1,stimuli/stim_20210706_power2amp/equal_lnn_AM2.4Hz_s35_26.m4a,,,,,,,,,,,,
,,,,,41833,2021-09-27_13h01.24.898,judgeSpeechMusic_20210921_logNormShiftAmp_detection_fixS,2020.1.2,MacIntel,60,,,,,,,,,,,,,,,,,,,,,,,,,,,,,,2,5.8584,,0,0,27,27,51,1,stimuli/stim_20210706_power2amp/equal_lnn_AM3.6Hz_s35_15.m4a,,,,,,,,,,,,
,,,,,41833,2021-09-27_13h01.24.898,judgeSpeechMusic_20210921_logNormShiftAmp_detection_fixS,2020.1.2,MacIntel,60,,,,,,,,,,,,,,,,,,,,,,,,,,,,,,1,5.9626,,0,0,28,28,59,1,stimuli/stim_20210706_power2amp/equal_lnn_AM3.6Hz_s35_26.m4a,,,,,,,,,,,,
,,,,,41833,2021-09-27_13h01.24.898,judgeSpeechMusic_20210921_logNormShiftAmp_detection_fixS,2020.1.2,MacIntel,60,,,,,,,,,,,,,,,,,,,,,,,,,,,,,,1,6.5381,,0,0,29,29,55,1,stimuli/stim_20210706_power2amp/equal_lnn_AM3.6Hz_s35_12.m4a,,,,,,,,,,,,
,,,,,41833,2021-09-27_13h01.24.898,judgeSpeechMusic_20210921_logNormShiftAmp_detection_fixS,2020.1.2,MacIntel,60,,,,,,,,,,,,,,,,,,,,,,,,,,,,,,2,11.3404,,0,0,30,30,9,1,stimuli/stim_20210706_power2amp/equal_lnn_AM0.6Hz_s35_10.m4a,,,,,,,,,,,,
,,,,,41833,2021-09-27_13h01.24.898,judgeSpeechMusic_20210921_logNormShiftAmp_detection_fixS,2020.1.2,MacIntel,60,,,,,,,,,,,,,,,,,,,,,,,,,,,,,,1,6.9683,,0,0,31,31,18,1,stimuli/stim_20210706_power2amp/equal_lnn_AM1.2Hz_s35_31.m4a,,,,,,,,,,,,
,,,,,41833,2021-09-27_13h01.24.898,judgeSpeechMusic_20210921_logNormShiftAmp_detection_fixS,2020.1.2,MacIntel,60,,,,,,,,,,,,,,,,,,,,,,,,,,,,,,2,6.4415,,0,0,32,32,50,1,stimuli/stim_20210706_power2amp/equal_lnn_AM3.6Hz_s35_10.m4a,,,,,,,,,,,,
,,,,,41833,2021-09-27_13h01.24.898,judgeSpeechMusic_20210921_logNormShiftAmp_detection_fixS,2020.1.2,MacIntel,60,,,,,,,,,,,,,,,,,,,,,,,,,,,,,,2,6.1944,,0,0,33,33,39,1,stimuli/stim_20210706_power2amp/equal_lnn_AM2.4Hz_s35_7.m4a,,,,,,,,,,,,
,,,,,41833,2021-09-27_13h01.24.898,judgeSpeechMusic_20210921_logNormShiftAmp_detection_fixS,2020.1.2,MacIntel,60,,,,,,,,,,,,,,,,,,,,,,,,,,,,,,2,6.0288,,0,0,34,34,37,1,stimuli/stim_20210706_power2amp/equal_lnn_AM2.4Hz_s35_46.m4a,,,,,,,,,,,,
,,,,,41833,2021-09-27_13h01.24.898,judgeSpeechMusic_20210921_logNormShiftAmp_detection_fixS,2020.1.2,MacIntel,60,,,,,,,,,,,,,,,,,,,,,,,,,,,,,,1,5.8917,,0,0,35,35,40,1,stimuli/stim_20210706_power2amp/equal_lnn_AM2.4Hz_s35_44.m4a,,,,,,,,,,,,
,,,,,41833,2021-09-27_13h01.24.898,judgeSpeechMusic_20210921_logNormShiftAmp_detection_fixS,2020.1.2,MacIntel,60,,,,,,,,,,,,,,,,,,,,,,,,,,,,,,2,7.5567,,0,0,36,36,63,1,stimuli/stim_20210706_power2amp/equal_lnn_AM4.2Hz_s35_5.m4a,,,,,,,,,,,,
,,,,,41833,2021-09-27_13h01.24.898,judgeSpeechMusic_20210921_logNormShiftAmp_detection_fixS,2020.1.2,MacIntel,60,,,,,,,,,,,,,,,,,,,,,,,,,,,,,,2,6.4915,,0,0,37,37,74,1,stimuli/stim_20210706_power2amp/equal_lnn_AM4.2Hz_s35_24.m4a,,,,,,,,,,,,
,,,,,41833,2021-09-27_13h01.24.898,judgeSpeechMusic_20210921_logNormShiftAmp_detection_fixS,2020.1.2,MacIntel,60,,,,,,,,,,,,,,,,,,,,,,,,,,,,,,2,7.2918,,0,0,38,38,30,1,stimuli/stim_20210706_power2amp/equal_lnn_AM2.4Hz_s35_34.m4a,,,,,,,,,,,,
,,,,,41833,2021-09-27_13h01.24.898,judgeSpeechMusic_20210921_logNormShiftAmp_detection_fixS,2020.1.2,MacIntel,60,,,,,,,,,,,,,,,,,,,,,,,,,,,,,,2,6.0377,,0,0,39,39,44,1,stimuli/stim_20210706_power2amp/equal_lnn_AM2.4Hz_s35_17.m4a,,,,,,,,,,,,
,,,,,41833,2021-09-27_13h01.24.898,judgeSpeechMusic_20210921_logNormShiftAmp_detection_fixS,2020.1.2,MacIntel,60,,,,,,,,,,,,,,,,,,,,,,,,,,,,,,1,6.8108,4,1,0,40,40,32,1,stimuli/stim_20210706_power2amp/equal_lnn_AM2.4Hz_s35_27.m4a,2.0445,,,,,,,,,,,
,,,,,41833,2021-09-27_13h01.24.898,judgeSpeechMusic_20210921_logNormShiftAmp_detection_fixS,2020.1.2,MacIntel,60,,,,,,,,,,,,,,,,,,,,,,,,,,,,,,2,7.6612,,0,0,41,41,41,1,stimuli/stim_20210706_power2amp/equal_lnn_AM2.4Hz_s35_36.m4a,,,,,,,,,,,,
,,,,,41833,2021-09-27_13h01.24.898,judgeSpeechMusic_20210921_logNormShiftAmp_detection_fixS,2020.1.2,MacIntel,60,,,,,,,,,,,,,,,,,,,,,,,,,,,,,,1,6.8217,,0,0,42,42,56,1,stimuli/stim_20210706_power2amp/equal_lnn_AM3.6Hz_s35_22.m4a,,,,,,,,,,,,
,,,,,41833,2021-09-27_13h01.24.898,judgeSpeechMusic_20210921_logNormShiftAmp_detection_fixS,2020.1.2,MacIntel,60,,,,,,,,,,,,,,,,,,,,,,,,,,,,,,1,7.1161,,0,0,43,43,27,1,stimuli/stim_20210706_power2amp/equal_lnn_AM1.2Hz_s35_15.m4a,,,,,,,,,,,,
,,,,,41833,2021-09-27_13h01.24.898,judgeSpeechMusic_20210921_logNormShiftAmp_detection_fixS,2020.1.2,MacIntel,60,,,,,,,,,,,,,,,,,,,,,,,,,,,,,,1,16.3756,,0,0,44,44,43,1,stimuli/stim_20210706_power2amp/equal_lnn_AM2.4Hz_s35_9.m4a,,,,,,,,,,,,
,,,,,41833,2021-09-27_13h01.24.898,judgeSpeechMusic_20210921_logNormShiftAmp_detection_fixS,2020.1.2,MacIntel,60,,,,,,,,,,,,,,,,,,,,,,,,,,,,,,2,8.186,,0,0,45,45,72,1,stimuli/stim_20210706_power2amp/equal_lnn_AM4.2Hz_s35_22.m4a,,,,,,,,,,,,
,,,,,41833,2021-09-27_13h01.24.898,judgeSpeechMusic_20210921_logNormShiftAmp_detection_fixS,2020.1.2,MacIntel,60,,,,,,,,,,,,,,,,,,,,,,,,,,,,,,2,5.8856,,0,0,46,46,29,1,stimuli/stim_20210706_power2amp/equal_lnn_AM1.2Hz_s35_11.m4a,,,,,,,,,,,,
,,,,,41833,2021-09-27_13h01.24.898,judgeSpeechMusic_20210921_logNormShiftAmp_detection_fixS,2020.1.2,MacIntel,60,,,,,,,,,,,,,,,,,,,,,,,,,,,,,,2,7.3858,,0,0,47,47,15,1,stimuli/stim_20210706_power2amp/equal_lnn_AM1.2Hz_s35_37.m4a,,,,,,,,,,,,
,,,,,41833,2021-09-27_13h01.24.898,judgeSpeechMusic_20210921_logNormShiftAmp_detection_fixS,2020.1.2,MacIntel,60,,,,,,,,,,,,,,,,,,,,,,,,,,,,,,1,9.6023,,0,0,48,48,54,1,stimuli/stim_20210706_power2amp/equal_lnn_AM3.6Hz_s35_5.m4a,,,,,,,,,,,,
,,,,,41833,2021-09-27_13h01.24.898,judgeSpeechMusic_20210921_logNormShiftAmp_detection_fixS,2020.1.2,MacIntel,60,,,,,,,,,,,,,,,,,,,,,,,,,,,,,,2,11.3555,,0,0,49,49,17,1,stimuli/stim_20210706_power2amp/equal_lnn_AM1.2Hz_s35_10.m4a,,,,,,,,,,,,
,,,,,41833,2021-09-27_13h01.24.898,judgeSpeechMusic_20210921_logNormShiftAmp_detection_fixS,2020.1.2,MacIntel,60,,,,,,,,,,,,,,,,,,,,,,,,,,,,,,1,6.7192,,0,0,50,50,57,1,stimuli/stim_20210706_power2amp/equal_lnn_AM3.6Hz_s35_13.m4a,,,,,,,,,,,,
,,,,,41833,2021-09-27_13h01.24.898,judgeSpeechMusic_20210921_logNormShiftAmp_detection_fixS,2020.1.2,MacIntel,60,,,,,,,,,,,,,,,,,,,,,,,,,,,,,,2,5.7534,,0,0,51,51,8,1,stimuli/stim_20210706_power2amp/equal_lnn_AM0.6Hz_s35_22.m4a,,,,,,,,,,,,
,,,,,41833,2021-09-27_13h01.24.898,judgeSpeechMusic_20210921_logNormShiftAmp_detection_fixS,2020.1.2,MacIntel,60,,,,,,,,,,,,,,,,,,,,,,,,,,,,,,2,5.7855,,0,0,52,52,67,1,stimuli/stim_20210706_power2amp/equal_lnn_AM4.2Hz_s35_26.m4a,,,,,,,,,,,,
,,,,,41833,2021-09-27_13h01.24.898,judgeSpeechMusic_20210921_logNormShiftAmp_detection_fixS,2020.1.2,MacIntel,60,,,,,,,,,,,,,,,,,,,,,,,,,,,,,,1,6.0706,,0,0,53,53,73,1,stimuli/stim_20210706_power2amp/equal_lnn_AM4.2Hz_s35_18.m4a,,,,,,,,,,,,
,,,,,41833,2021-09-27_13h01.24.898,judgeSpeechMusic_20210921_logNormShiftAmp_detection_fixS,2020.1.2,MacIntel,60,,,,,,,,,,,,,,,,,,,,,,,,,,,,,,1,5.6921,,0,0,54,54,48,1,stimuli/stim_20210706_power2amp/equal_lnn_AM3.6Hz_s35_30.m4a,,,,,,,,,,,,
,,,,,41833,2021-09-27_13h01.24.898,judgeSpeechMusic_20210921_logNormShiftAmp_detection_fixS,2020.1.2,MacIntel,60,,,,,,,,,,,,,,,,,,,,,,,,,,,,,,2,6.0787,,0,0,55,55,0,1,stimuli/stim_20210706_power2amp/equal_lnn_AM0.6Hz_s35_40.m4a,,,,,,,,,,,,
,,,,,41833,2021-09-27_13h01.24.898,judgeSpeechMusic_20210921_logNormShiftAmp_detection_fixS,2020.1.2,MacIntel,60,,,,,,,,,,,,,,,,,,,,,,,,,,,,,,1,5.8561,,0,0,56,56,34,1,stimuli/stim_20210706_power2amp/equal_lnn_AM2.4Hz_s35_3.m4a,,,,,,,,,,,,
,,,,,41833,2021-09-27_13h01.24.898,judgeSpeechMusic_20210921_logNormShiftAmp_detection_fixS,2020.1.2,MacIntel,60,,,,,,,,,,,,,,,,,,,,,,,,,,,,,,1,5.6874,,0,0,57,57,16,1,stimuli/stim_20210706_power2amp/equal_lnn_AM1.2Hz_s35_36.m4a,,,,,,,,,,,,
,,,,,41833,2021-09-27_13h01.24.898,judgeSpeechMusic_20210921_logNormShiftAmp_detection_fixS,2020.1.2,MacIntel,60,,,,,,,,,,,,,,,,,,,,,,,,,,,,,,2,6.3448,,0,0,58,58,4,1,stimuli/stim_20210706_power2amp/equal_lnn_AM0.6Hz_s35_44.m4a,,,,,,,,,,,,
,,,,,41833,2021-09-27_13h01.24.898,judgeSpeechMusic_20210921_logNormShiftAmp_detection_fixS,2020.1.2,MacIntel,60,,,,,,,,,,,,,,,,,,,,,,,,,,,,,,1,6.2274,1,1,0,59,59,24,1,stimuli/stim_20210706_power2amp/equal_lnn_AM1.2Hz_s35_23.m4a,0.765,,,,,,,,,,,
,,,,,41833,2021-09-27_13h01.24.898,judgeSpeechMusic_20210921_logNormShiftAmp_detection_fixS,2020.1.2,MacIntel,60,,,,,,,,,,,,,,,,,,,,,,,,,,,,,,1,5.9389,,0,0,60,60,14,1,stimuli/stim_20210706_power2amp/equal_lnn_AM0.6Hz_s35_50.m4a,,,,,,,,,,,,
,,,,,41833,2021-09-27_13h01.24.898,judgeSpeechMusic_20210921_logNormShiftAmp_detection_fixS,2020.1.2,MacIntel,60,,,,,,,,,,,,,,,,,,,,,,,,,,,,,,2,6.0727,,0,0,61,61,10,1,stimuli/stim_20210706_power2amp/equal_lnn_AM0.6Hz_s35_21.m4a,,,,,,,,,,,,
,,,,,41833,2021-09-27_13h01.24.898,judgeSpeechMusic_20210921_logNormShiftAmp_detection_fixS,2020.1.2,MacIntel,60,,,,,,,,,,,,,,,,,,,,,,,,,,,,,,2,6.7538,,0,0,62,62,62,1,stimuli/stim_20210706_power2amp/equal_lnn_AM4.2Hz_s35_15.m4a,,,,,,,,,,,,
,,,,,41833,2021-09-27_13h01.24.898,judgeSpeechMusic_20210921_logNormShiftAmp_detection_fixS,2020.1.2,MacIntel,60,,,,,,,,,,,,,,,,,,,,,,,,,,,,,,2,5.9052,,0,0,63,63,19,1,stimuli/stim_20210706_power2amp/equal_lnn_AM1.2Hz_s35_12.m4a,,,,,,,,,,,,
,,,,,41833,2021-09-27_13h01.24.898,judgeSpeechMusic_20210921_logNormShiftAmp_detection_fixS,2020.1.2,MacIntel,60,,,,,,,,,,,,,,,,,,,,,,,,,,,,,,1,5.887,,0,0,64,64,36,1,stimuli/stim_20210706_power2amp/equal_lnn_AM2.4Hz_s35_41.m4a,,,,,,,,,,,,
,,,,,41833,2021-09-27_13h01.24.898,judgeSpeechMusic_20210921_logNormShiftAmp_detection_fixS,2020.1.2,MacIntel,60,,,,,,,,,,,,,,,,,,,,,,,,,,,,,,1,5.8509,,0,0,65,65,33,1,stimuli/stim_20210706_power2amp/equal_lnn_AM2.4Hz_s35_13.m4a,,,,,,,,,,,,
,,,,,41833,2021-09-27_13h01.24.898,judgeSpeechMusic_20210921_logNormShiftAmp_detection_fixS,2020.1.2,MacIntel,60,,,,,,,,,,,,,,,,,,,,,,,,,,,,,,1,6.2273,,0,0,66,66,71,1,stimuli/stim_20210706_power2amp/equal_lnn_AM4.2Hz_s35_14.m4a,,,,,,,,,,,,
,,,,,41833,2021-09-27_13h01.24.898,judgeSpeechMusic_20210921_logNormShiftAmp_detection_fixS,2020.1.2,MacIntel,60,,,,,,,,,,,,,,,,,,,,,,,,,,,,,,2,6.6868,,0,0,67,67,12,1,stimuli/stim_20210706_power2amp/equal_lnn_AM0.6Hz_s35_32.m4a,,,,,,,,,,,,
,,,,,41833,2021-09-27_13h01.24.898,judgeSpeechMusic_20210921_logNormShiftAmp_detection_fixS,2020.1.2,MacIntel,60,,,,,,,,,,,,,,,,,,,,,,,,,,,,,,1,6.3688,,0,0,68,68,11,1,stimuli/stim_20210706_power2amp/equal_lnn_AM0.6Hz_s35_38.m4a,,,,,,,,,,,,
,,,,,41833,2021-09-27_13h01.24.898,judgeSpeechMusic_20210921_logNormShiftAmp_detection_fixS,2020.1.2,MacIntel,60,,,,,,,,,,,,,,,,,,,,,,,,,,,,,,2,5.9187,,0,0,69,69,21,1,stimuli/stim_20210706_power2amp/equal_lnn_AM1.2Hz_s35_28.m4a,,,,,,,,,,,,
,,,,,41833,2021-09-27_13h01.24.898,judgeSpeechMusic_20210921_logNormShiftAmp_detection_fixS,2020.1.2,MacIntel,60,,,,,,,,,,,,,,,,,,,,,,,,,,,,,,2,6.5226,,0,0,70,70,61,1,stimuli/stim_20210706_power2amp/equal_lnn_AM4.2Hz_s35_43.m4a,,,,,,,,,,,,
,,,,,41833,2021-09-27_13h01.24.898,judgeSpeechMusic_20210921_logNormShiftAmp_detection_fixS,2020.1.2,MacIntel,60,,,,,,,,,,,,,,,,,,,,,,,,,,,,,,1,5.8745,,0,0,71,71,31,1,stimuli/stim_20210706_power2amp/equal_lnn_AM2.4Hz_s35_24.m4a,,,,,,,,,,,,
,,,,,41833,2021-09-27_13h01.24.898,judgeSpeechMusic_20210921_logNormShiftAmp_detection_fixS,2020.1.2,MacIntel,60,,,,,,,,,,,,,,,,,,,,,,,,,,,,,,1,6.0749,,0,0,72,72,68,1,stimuli/stim_20210706_power2amp/equal_lnn_AM4.2Hz_s35_12.m4a,,,,,,,,,,,,
,,,,,41833,2021-09-27_13h01.24.898,judgeSpeechMusic_20210921_logNormShiftAmp_detection_fixS,2020.1.2,MacIntel,60,,,,,,,,,,,,,,,,,,,,,,,,,,,,,,1,6.0112,,0,0,73,73,13,1,stimuli/stim_20210706_power2amp/equal_lnn_AM0.6Hz_s35_12.m4a,,,,,,,,,,,,
,,,,,41833,2021-09-27_13h01.24.898,judgeSpeechMusic_20210921_logNormShiftAmp_detection_fixS,2020.1.2,MacIntel,60,,,,,,,,,,,,,,,,,,,,,,,,,,,,,,1,5.808,,0,0,74,74,47,1,stimuli/stim_20210706_power2amp/equal_lnn_AM3.6Hz_s35_24.m4a,,,,,,,,,,,,
,,,,,41833,2021-09-27_13h01.24.898,judgeSpeechMusic_20210921_logNormShiftAmp_detection_fixS,2020.1.2,MacIntel,60,,,,,,,,,,,,,,,,,,,,,,,,,,,,,,,,,,,,,,,,,,,1,1,3,0,1,MUSIC,stimuli/MUSIC.jpg,,
,,,,,41833,2021-09-27_13h01.24.898,judgeSpeechMusic_20210921_logNormShiftAmp_detection_fixS,2020.1.2,MacIntel,60,,,,,,,,,,,,,,,,,,,,,,,,,,,,,,,,,,,,,,,,,,,,,,,,,,space,1.5327
