headphoneResponse.keys,headphoneResponse.corr,headphoneResponse.rt,headphoneTrial.thisRepN,headphoneTrial.thisTrialN,headphoneTrial.thisN,headphoneTrial.thisIndex,headphoneTrial.ran,headphone_sound1,headphone_sound2,headphone_sound3,corrAns,participant,date,expName,psychopyVersion,OS,frameRate,checkInstruKey.keys,checkInstruKey.rt,trainSlider.response,trainSlider.rt,beepTrainResponse.keys,beepTrainResponse.corr,trainingTrials.thisRepN,trainingTrials.thisTrialN,trainingTrials.thisN,trainingTrials.thisIndex,trainingTrials.ran,trainAudioFile,beepTrainResponse.rt,readyReal_resp.keys,readyReal_resp.rt,checkInstru2_key.keys,checkInstru2_key.rt,ratingSlider.response,ratingSlider.rt,beepResp.keys,beepResp.corr,expTrials.thisRepN,expTrials.thisTrialN,expTrials.thisN,expTrials.thisIndex,expTrials.ran,audioFile,beepResp.rt,switchBlock_space.keys,switchBlock_space.rt,block.thisRepN,block.thisTrialN,block.thisN,block.thisIndex,block.ran,blockName,blockImage,end_resp.keys,end_resp.rt
3,1,9.2648,0,0,0,2,1,stimuli/screen_origin.wav,stimuli/screen_antiphase.wav,stimuli/screen_quiet.wav,3,41876,2021-09-26_16h29.12.570,judgeSpeechMusic_20210921_logNormShiftAmp_detection_fixS,2020.1.2,MacIntel,60,,,,,,,,,,,,,,,,,,,,,,,,,,,,,,,,,,,,,,,
2,1,1.7015,0,1,1,3,1,stimuli/screen_origin.wav,stimuli/screen_quiet.wav,stimuli/screen_antiphase.wav,2,41876,2021-09-26_16h29.12.570,judgeSpeechMusic_20210921_logNormShiftAmp_detection_fixS,2020.1.2,MacIntel,60,,,,,,,,,,,,,,,,,,,,,,,,,,,,,,,,,,,,,,,
1,1,0.8712,0,2,2,5,1,stimuli/screen_quiet.wav,stimuli/screen_origin.wav,stimuli/screen_antiphase.wav,1,41876,2021-09-26_16h29.12.570,judgeSpeechMusic_20210921_logNormShiftAmp_detection_fixS,2020.1.2,MacIntel,60,,,,,,,,,,,,,,,,,,,,,,,,,,,,,,,,,,,,,,,
3,0,7.8614,0,3,3,4,1,stimuli/screen_quiet.wav,stimuli/screen_antiphase.wav,stimuli/screen_origin.wav,1,41876,2021-09-26_16h29.12.570,judgeSpeechMusic_20210921_logNormShiftAmp_detection_fixS,2020.1.2,MacIntel,60,,,,,,,,,,,,,,,,,,,,,,,,,,,,,,,,,,,,,,,
2,1,1.5909,0,4,4,1,1,stimuli/screen_antiphase.wav,stimuli/screen_quiet.wav,stimuli/screen_origin.wav,2,41876,2021-09-26_16h29.12.570,judgeSpeechMusic_20210921_logNormShiftAmp_detection_fixS,2020.1.2,MacIntel,60,,,,,,,,,,,,,,,,,,,,,,,,,,,,,,,,,,,,,,,
3,1,0.9988,0,5,5,0,1,stimuli/screen_antiphase.wav,stimuli/screen_origin.wav,stimuli/screen_quiet.wav,3,41876,2021-09-26_16h29.12.570,judgeSpeechMusic_20210921_logNormShiftAmp_detection_fixS,2020.1.2,MacIntel,60,,,,,,,,,,,,,,,,,,,,,,,,,,,,,,,,,,,,,,,
,,,,,,,,,,,,41876,2021-09-26_16h29.12.570,judgeSpeechMusic_20210921_logNormShiftAmp_detection_fixS,2020.1.2,MacIntel,60,space,1.5664,1,11.3803,,0,0,0,0,2,1,stimuli/stim_20210706_power2amp/equal_lnn_AM_training3Hz_s35.m4a,,,,,,,,,,,,,,,,,,,,,,,,,,,
,,,,,,,,,,,,41876,2021-09-26_16h29.12.570,judgeSpeechMusic_20210921_logNormShiftAmp_detection_fixS,2020.1.2,MacIntel,60,,,1,8.3001,,0,0,1,1,1,1,stimuli/stim_20210706_power2amp/equal_lnn_AM_training1.8Hz_s35.m4a,,,,,,,,,,,,,,,,,,,,,,,,,,,
,,,,,,,,,,,,41876,2021-09-26_16h29.12.570,judgeSpeechMusic_20210921_logNormShiftAmp_detection_fixS,2020.1.2,MacIntel,60,,,1,6.4026,3,1,0,2,2,3,1,stimuli/stim_20210706_power2amp/equal_lnn_AM_training3.9Hz_s35.m4a,4.8474,,,,,,,,,,,,,,,,,,,,,,,,,,
,,,,,,,,,,,,41876,2021-09-26_16h29.12.570,judgeSpeechMusic_20210921_logNormShiftAmp_detection_fixS,2020.1.2,MacIntel,60,,,1,6.5199,,0,0,3,3,0,1,stimuli/stim_20210706_power2amp/equal_lnn_AM_training0.9Hz_s35.m4a,,,,,,,,,,,,,,,,,,,,,,,,,,,
,,,,,,,,,,,,41876,2021-09-26_16h29.12.570,judgeSpeechMusic_20210921_logNormShiftAmp_detection_fixS,2020.1.2,MacIntel,60,,,,,,,,,,,,,,space,4.9974,space,0.4718,1,6.469,,0,0,0,0,19,1,stimuli/stim_20210706_power2amp/equal_lnn_AM1.2Hz_s35_20.m4a,,,,,,,,,,,,
,,,,,,,,,,,,41876,2021-09-26_16h29.12.570,judgeSpeechMusic_20210921_logNormShiftAmp_detection_fixS,2020.1.2,MacIntel,60,,,,,,,,,,,,,,,,,,1,6.0051,,0,0,1,1,27,1,stimuli/stim_20210706_power2amp/equal_lnn_AM1.2Hz_s35_44.m4a,,,,,,,,,,,,
,,,,,,,,,,,,41876,2021-09-26_16h29.12.570,judgeSpeechMusic_20210921_logNormShiftAmp_detection_fixS,2020.1.2,MacIntel,60,,,,,,,,,,,,,,,,,,2,6.2633,,0,0,2,2,44,1,stimuli/stim_20210706_power2amp/equal_lnn_AM2.4Hz_s35_16.m4a,,,,,,,,,,,,
,,,,,,,,,,,,41876,2021-09-26_16h29.12.570,judgeSpeechMusic_20210921_logNormShiftAmp_detection_fixS,2020.1.2,MacIntel,60,,,,,,,,,,,,,,,,,,2,7.0744,,0,0,3,3,65,1,stimuli/stim_20210706_power2amp/equal_lnn_AM4.2Hz_s35_34.m4a,,,,,,,,,,,,
,,,,,,,,,,,,41876,2021-09-26_16h29.12.570,judgeSpeechMusic_20210921_logNormShiftAmp_detection_fixS,2020.1.2,MacIntel,60,,,,,,,,,,,,,,,,,,2,6.4541,,0,0,4,4,31,1,stimuli/stim_20210706_power2amp/equal_lnn_AM2.4Hz_s35_14.m4a,,,,,,,,,,,,
,,,,,,,,,,,,41876,2021-09-26_16h29.12.570,judgeSpeechMusic_20210921_logNormShiftAmp_detection_fixS,2020.1.2,MacIntel,60,,,,,,,,,,,,,,,,,,1,5.8641,,0,0,5,5,50,1,stimuli/stim_20210706_power2amp/equal_lnn_AM3.6Hz_s35_10.m4a,,,,,,,,,,,,
,,,,,,,,,,,,41876,2021-09-26_16h29.12.570,judgeSpeechMusic_20210921_logNormShiftAmp_detection_fixS,2020.1.2,MacIntel,60,,,,,,,,,,,,,,,,,,1,6.1692,,0,0,6,6,53,1,stimuli/stim_20210706_power2amp/equal_lnn_AM3.6Hz_s35_18.m4a,,,,,,,,,,,,
,,,,,,,,,,,,41876,2021-09-26_16h29.12.570,judgeSpeechMusic_20210921_logNormShiftAmp_detection_fixS,2020.1.2,MacIntel,60,,,,,,,,,,,,,,,,,,1,5.8301,,0,0,7,7,13,1,stimuli/stim_20210706_power2amp/equal_lnn_AM0.6Hz_s35_19.m4a,,,,,,,,,,,,
,,,,,,,,,,,,41876,2021-09-26_16h29.12.570,judgeSpeechMusic_20210921_logNormShiftAmp_detection_fixS,2020.1.2,MacIntel,60,,,,,,,,,,,,,,,,,,2,7.2975,,0,0,8,8,11,1,stimuli/stim_20210706_power2amp/equal_lnn_AM0.6Hz_s35_28.m4a,,,,,,,,,,,,
,,,,,,,,,,,,41876,2021-09-26_16h29.12.570,judgeSpeechMusic_20210921_logNormShiftAmp_detection_fixS,2020.1.2,MacIntel,60,,,,,,,,,,,,,,,,,,2,6.9334,,0,0,9,9,17,1,stimuli/stim_20210706_power2amp/equal_lnn_AM1.2Hz_s35_43.m4a,,,,,,,,,,,,
,,,,,,,,,,,,41876,2021-09-26_16h29.12.570,judgeSpeechMusic_20210921_logNormShiftAmp_detection_fixS,2020.1.2,MacIntel,60,,,,,,,,,,,,,,,,,,2,5.9688,,0,0,10,10,66,1,stimuli/stim_20210706_power2amp/equal_lnn_AM4.2Hz_s35_31.m4a,,,,,,,,,,,,
,,,,,,,,,,,,41876,2021-09-26_16h29.12.570,judgeSpeechMusic_20210921_logNormShiftAmp_detection_fixS,2020.1.2,MacIntel,60,,,,,,,,,,,,,,,,,,2,6.0036,,0,0,11,11,71,1,stimuli/stim_20210706_power2amp/equal_lnn_AM4.2Hz_s35_48.m4a,,,,,,,,,,,,
,,,,,,,,,,,,41876,2021-09-26_16h29.12.570,judgeSpeechMusic_20210921_logNormShiftAmp_detection_fixS,2020.1.2,MacIntel,60,,,,,,,,,,,,,,,,,,2,6.3209,,0,0,12,12,35,1,stimuli/stim_20210706_power2amp/equal_lnn_AM2.4Hz_s35_21.m4a,,,,,,,,,,,,
,,,,,,,,,,,,41876,2021-09-26_16h29.12.570,judgeSpeechMusic_20210921_logNormShiftAmp_detection_fixS,2020.1.2,MacIntel,60,,,,,,,,,,,,,,,,,,2,6.1382,,0,0,13,13,41,1,stimuli/stim_20210706_power2amp/equal_lnn_AM2.4Hz_s35_49.m4a,,,,,,,,,,,,
,,,,,,,,,,,,41876,2021-09-26_16h29.12.570,judgeSpeechMusic_20210921_logNormShiftAmp_detection_fixS,2020.1.2,MacIntel,60,,,,,,,,,,,,,,,,,,2,6.6691,,0,0,14,14,3,1,stimuli/stim_20210706_power2amp/equal_lnn_AM0.6Hz_s35_38.m4a,,,,,,,,,,,,
,,,,,,,,,,,,41876,2021-09-26_16h29.12.570,judgeSpeechMusic_20210921_logNormShiftAmp_detection_fixS,2020.1.2,MacIntel,60,,,,,,,,,,,,,,,,,,1,5.667,,0,0,15,15,2,1,stimuli/stim_20210706_power2amp/equal_lnn_AM0.6Hz_s35_22.m4a,,,,,,,,,,,,
,,,,,,,,,,,,41876,2021-09-26_16h29.12.570,judgeSpeechMusic_20210921_logNormShiftAmp_detection_fixS,2020.1.2,MacIntel,60,,,,,,,,,,,,,,,,,,1,5.8354,,0,0,16,16,15,1,stimuli/stim_20210706_power2amp/equal_lnn_AM1.2Hz_s35_50.m4a,,,,,,,,,,,,
,,,,,,,,,,,,41876,2021-09-26_16h29.12.570,judgeSpeechMusic_20210921_logNormShiftAmp_detection_fixS,2020.1.2,MacIntel,60,,,,,,,,,,,,,,,,,,2,5.7394,,0,0,17,17,22,1,stimuli/stim_20210706_power2amp/equal_lnn_AM1.2Hz_s35_9.m4a,,,,,,,,,,,,
,,,,,,,,,,,,41876,2021-09-26_16h29.12.570,judgeSpeechMusic_20210921_logNormShiftAmp_detection_fixS,2020.1.2,MacIntel,60,,,,,,,,,,,,,,,,,,2,8.3524,,0,0,18,18,28,1,stimuli/stim_20210706_power2amp/equal_lnn_AM1.2Hz_s35_5.m4a,,,,,,,,,,,,
,,,,,,,,,,,,41876,2021-09-26_16h29.12.570,judgeSpeechMusic_20210921_logNormShiftAmp_detection_fixS,2020.1.2,MacIntel,60,,,,,,,,,,,,,,,,,,2,6.1389,4,1,0,19,19,62,1,stimuli/stim_20210706_power2amp/equal_lnn_AM4.2Hz_s35_30.m4a,2.9374,,,,,,,,,,,
,,,,,,,,,,,,41876,2021-09-26_16h29.12.570,judgeSpeechMusic_20210921_logNormShiftAmp_detection_fixS,2020.1.2,MacIntel,60,,,,,,,,,,,,,,,,,,2,5.8874,,0,0,20,20,60,1,stimuli/stim_20210706_power2amp/equal_lnn_AM4.2Hz_s35_26.m4a,,,,,,,,,,,,
,,,,,,,,,,,,41876,2021-09-26_16h29.12.570,judgeSpeechMusic_20210921_logNormShiftAmp_detection_fixS,2020.1.2,MacIntel,60,,,,,,,,,,,,,,,,,,2,5.6871,,0,0,21,21,73,1,stimuli/stim_20210706_power2amp/equal_lnn_AM4.2Hz_s35_19.m4a,,,,,,,,,,,,
,,,,,,,,,,,,41876,2021-09-26_16h29.12.570,judgeSpeechMusic_20210921_logNormShiftAmp_detection_fixS,2020.1.2,MacIntel,60,,,,,,,,,,,,,,,,,,1,6.2249,,0,0,22,22,10,1,stimuli/stim_20210706_power2amp/equal_lnn_AM0.6Hz_s35_45.m4a,,,,,,,,,,,,
,,,,,,,,,,,,41876,2021-09-26_16h29.12.570,judgeSpeechMusic_20210921_logNormShiftAmp_detection_fixS,2020.1.2,MacIntel,60,,,,,,,,,,,,,,,,,,1,6.0567,,0,0,23,23,6,1,stimuli/stim_20210706_power2amp/equal_lnn_AM0.6Hz_s35_12.m4a,,,,,,,,,,,,
,,,,,,,,,,,,41876,2021-09-26_16h29.12.570,judgeSpeechMusic_20210921_logNormShiftAmp_detection_fixS,2020.1.2,MacIntel,60,,,,,,,,,,,,,,,,,,1,5.6698,,0,0,24,24,4,1,stimuli/stim_20210706_power2amp/equal_lnn_AM0.6Hz_s35_20.m4a,,,,,,,,,,,,
,,,,,,,,,,,,41876,2021-09-26_16h29.12.570,judgeSpeechMusic_20210921_logNormShiftAmp_detection_fixS,2020.1.2,MacIntel,60,,,,,,,,,,,,,,,,,,2,5.6757,,0,0,25,25,30,1,stimuli/stim_20210706_power2amp/equal_lnn_AM2.4Hz_s35_40.m4a,,,,,,,,,,,,
,,,,,,,,,,,,41876,2021-09-26_16h29.12.570,judgeSpeechMusic_20210921_logNormShiftAmp_detection_fixS,2020.1.2,MacIntel,60,,,,,,,,,,,,,,,,,,2,5.7123,,0,0,26,26,51,1,stimuli/stim_20210706_power2amp/equal_lnn_AM3.6Hz_s35_26.m4a,,,,,,,,,,,,
,,,,,,,,,,,,41876,2021-09-26_16h29.12.570,judgeSpeechMusic_20210921_logNormShiftAmp_detection_fixS,2020.1.2,MacIntel,60,,,,,,,,,,,,,,,,,,2,5.6544,,0,0,27,27,63,1,stimuli/stim_20210706_power2amp/equal_lnn_AM4.2Hz_s35_9.m4a,,,,,,,,,,,,
,,,,,,,,,,,,41876,2021-09-26_16h29.12.570,judgeSpeechMusic_20210921_logNormShiftAmp_detection_fixS,2020.1.2,MacIntel,60,,,,,,,,,,,,,,,,,,2,6.0888,,0,0,28,28,29,1,stimuli/stim_20210706_power2amp/equal_lnn_AM1.2Hz_s35_47.m4a,,,,,,,,,,,,
,,,,,,,,,,,,41876,2021-09-26_16h29.12.570,judgeSpeechMusic_20210921_logNormShiftAmp_detection_fixS,2020.1.2,MacIntel,60,,,,,,,,,,,,,,,,,,2,5.6085,,0,0,29,29,39,1,stimuli/stim_20210706_power2amp/equal_lnn_AM2.4Hz_s35_24.m4a,,,,,,,,,,,,
,,,,,,,,,,,,41876,2021-09-26_16h29.12.570,judgeSpeechMusic_20210921_logNormShiftAmp_detection_fixS,2020.1.2,MacIntel,60,,,,,,,,,,,,,,,,,,2,7.4229,,0,0,30,30,72,1,stimuli/stim_20210706_power2amp/equal_lnn_AM4.2Hz_s35_13.m4a,,,,,,,,,,,,
,,,,,,,,,,,,41876,2021-09-26_16h29.12.570,judgeSpeechMusic_20210921_logNormShiftAmp_detection_fixS,2020.1.2,MacIntel,60,,,,,,,,,,,,,,,,,,2,6.6555,,0,0,31,31,34,1,stimuli/stim_20210706_power2amp/equal_lnn_AM2.4Hz_s35_18.m4a,,,,,,,,,,,,
,,,,,,,,,,,,41876,2021-09-26_16h29.12.570,judgeSpeechMusic_20210921_logNormShiftAmp_detection_fixS,2020.1.2,MacIntel,60,,,,,,,,,,,,,,,,,,1,9.2873,,0,0,32,32,64,1,stimuli/stim_20210706_power2amp/equal_lnn_AM4.2Hz_s35_50.m4a,,,,,,,,,,,,
,,,,,,,,,,,,41876,2021-09-26_16h29.12.570,judgeSpeechMusic_20210921_logNormShiftAmp_detection_fixS,2020.1.2,MacIntel,60,,,,,,,,,,,,,,,,,,2,6.053,,0,0,33,33,33,1,stimuli/stim_20210706_power2amp/equal_lnn_AM2.4Hz_s35_9.m4a,,,,,,,,,,,,
,,,,,,,,,,,,41876,2021-09-26_16h29.12.570,judgeSpeechMusic_20210921_logNormShiftAmp_detection_fixS,2020.1.2,MacIntel,60,,,,,,,,,,,,,,,,,,2,5.7301,,0,0,34,34,67,1,stimuli/stim_20210706_power2amp/equal_lnn_AM4.2Hz_s35_25.m4a,,,,,,,,,,,,
,,,,,,,,,,,,41876,2021-09-26_16h29.12.570,judgeSpeechMusic_20210921_logNormShiftAmp_detection_fixS,2020.1.2,MacIntel,60,,,,,,,,,,,,,,,,,,2,5.6047,,0,0,35,35,61,1,stimuli/stim_20210706_power2amp/equal_lnn_AM4.2Hz_s35_47.m4a,,,,,,,,,,,,
,,,,,,,,,,,,41876,2021-09-26_16h29.12.570,judgeSpeechMusic_20210921_logNormShiftAmp_detection_fixS,2020.1.2,MacIntel,60,,,,,,,,,,,,,,,,,,1,6.0049,,0,0,36,36,7,1,stimuli/stim_20210706_power2amp/equal_lnn_AM0.6Hz_s35_18.m4a,,,,,,,,,,,,
,,,,,,,,,,,,41876,2021-09-26_16h29.12.570,judgeSpeechMusic_20210921_logNormShiftAmp_detection_fixS,2020.1.2,MacIntel,60,,,,,,,,,,,,,,,,,,1,13.6679,,0,0,37,37,23,1,stimuli/stim_20210706_power2amp/equal_lnn_AM1.2Hz_s35_35.m4a,,,,,,,,,,,,
,,,,,,,,,,,,41876,2021-09-26_16h29.12.570,judgeSpeechMusic_20210921_logNormShiftAmp_detection_fixS,2020.1.2,MacIntel,60,,,,,,,,,,,,,,,,,,1,5.7723,,0,0,38,38,25,1,stimuli/stim_20210706_power2amp/equal_lnn_AM1.2Hz_s35_33.m4a,,,,,,,,,,,,
,,,,,,,,,,,,41876,2021-09-26_16h29.12.570,judgeSpeechMusic_20210921_logNormShiftAmp_detection_fixS,2020.1.2,MacIntel,60,,,,,,,,,,,,,,,,,,2,7.5876,,0,0,39,39,59,1,stimuli/stim_20210706_power2amp/equal_lnn_AM3.6Hz_s35_40.m4a,,,,,,,,,,,,
,,,,,,,,,,,,41876,2021-09-26_16h29.12.570,judgeSpeechMusic_20210921_logNormShiftAmp_detection_fixS,2020.1.2,MacIntel,60,,,,,,,,,,,,,,,,,,2,6.1441,1,1,0,40,40,40,1,stimuli/stim_20210706_power2amp/equal_lnn_AM2.4Hz_s35_43.m4a,1.1998,,,,,,,,,,,
,,,,,,,,,,,,41876,2021-09-26_16h29.12.570,judgeSpeechMusic_20210921_logNormShiftAmp_detection_fixS,2020.1.2,MacIntel,60,,,,,,,,,,,,,,,,,,2,5.8118,,0,0,41,41,48,1,stimuli/stim_20210706_power2amp/equal_lnn_AM3.6Hz_s35_6.m4a,,,,,,,,,,,,
,,,,,,,,,,,,41876,2021-09-26_16h29.12.570,judgeSpeechMusic_20210921_logNormShiftAmp_detection_fixS,2020.1.2,MacIntel,60,,,,,,,,,,,,,,,,,,1,6.0133,,0,0,42,42,26,1,stimuli/stim_20210706_power2amp/equal_lnn_AM1.2Hz_s35_2.m4a,,,,,,,,,,,,
,,,,,,,,,,,,41876,2021-09-26_16h29.12.570,judgeSpeechMusic_20210921_logNormShiftAmp_detection_fixS,2020.1.2,MacIntel,60,,,,,,,,,,,,,,,,,,2,5.8581,,0,0,43,43,54,1,stimuli/stim_20210706_power2amp/equal_lnn_AM3.6Hz_s35_14.m4a,,,,,,,,,,,,
,,,,,,,,,,,,41876,2021-09-26_16h29.12.570,judgeSpeechMusic_20210921_logNormShiftAmp_detection_fixS,2020.1.2,MacIntel,60,,,,,,,,,,,,,,,,,,2,5.6719,,0,0,44,44,68,1,stimuli/stim_20210706_power2amp/equal_lnn_AM4.2Hz_s35_16.m4a,,,,,,,,,,,,
,,,,,,,,,,,,41876,2021-09-26_16h29.12.570,judgeSpeechMusic_20210921_logNormShiftAmp_detection_fixS,2020.1.2,MacIntel,60,,,,,,,,,,,,,,,,,,2,5.8412,,0,0,45,45,21,1,stimuli/stim_20210706_power2amp/equal_lnn_AM1.2Hz_s35_25.m4a,,,,,,,,,,,,
,,,,,,,,,,,,41876,2021-09-26_16h29.12.570,judgeSpeechMusic_20210921_logNormShiftAmp_detection_fixS,2020.1.2,MacIntel,60,,,,,,,,,,,,,,,,,,2,5.6637,,0,0,46,46,52,1,stimuli/stim_20210706_power2amp/equal_lnn_AM3.6Hz_s35_19.m4a,,,,,,,,,,,,
,,,,,,,,,,,,41876,2021-09-26_16h29.12.570,judgeSpeechMusic_20210921_logNormShiftAmp_detection_fixS,2020.1.2,MacIntel,60,,,,,,,,,,,,,,,,,,1,5.7284,,0,0,47,47,8,1,stimuli/stim_20210706_power2amp/equal_lnn_AM0.6Hz_s35_47.m4a,,,,,,,,,,,,
,,,,,,,,,,,,41876,2021-09-26_16h29.12.570,judgeSpeechMusic_20210921_logNormShiftAmp_detection_fixS,2020.1.2,MacIntel,60,,,,,,,,,,,,,,,,,,1,5.7289,,0,0,48,48,24,1,stimuli/stim_20210706_power2amp/equal_lnn_AM1.2Hz_s35_29.m4a,,,,,,,,,,,,
,,,,,,,,,,,,41876,2021-09-26_16h29.12.570,judgeSpeechMusic_20210921_logNormShiftAmp_detection_fixS,2020.1.2,MacIntel,60,,,,,,,,,,,,,,,,,,2,5.803,,0,0,49,49,69,1,stimuli/stim_20210706_power2amp/equal_lnn_AM4.2Hz_s35_38.m4a,,,,,,,,,,,,
,,,,,,,,,,,,41876,2021-09-26_16h29.12.570,judgeSpeechMusic_20210921_logNormShiftAmp_detection_fixS,2020.1.2,MacIntel,60,,,,,,,,,,,,,,,,,,1,6.324,,0,0,50,50,9,1,stimuli/stim_20210706_power2amp/equal_lnn_AM0.6Hz_s35_1.m4a,,,,,,,,,,,,
,,,,,,,,,,,,41876,2021-09-26_16h29.12.570,judgeSpeechMusic_20210921_logNormShiftAmp_detection_fixS,2020.1.2,MacIntel,60,,,,,,,,,,,,,,,,,,1,5.7199,,0,0,51,51,0,1,stimuli/stim_20210706_power2amp/equal_lnn_AM0.6Hz_s35_49.m4a,,,,,,,,,,,,
,,,,,,,,,,,,41876,2021-09-26_16h29.12.570,judgeSpeechMusic_20210921_logNormShiftAmp_detection_fixS,2020.1.2,MacIntel,60,,,,,,,,,,,,,,,,,,1,5.7453,,0,0,52,52,14,1,stimuli/stim_20210706_power2amp/equal_lnn_AM0.6Hz_s35_50.m4a,,,,,,,,,,,,
,,,,,,,,,,,,41876,2021-09-26_16h29.12.570,judgeSpeechMusic_20210921_logNormShiftAmp_detection_fixS,2020.1.2,MacIntel,60,,,,,,,,,,,,,,,,,,1,7.6488,,0,0,53,53,46,1,stimuli/stim_20210706_power2amp/equal_lnn_AM3.6Hz_s35_47.m4a,,,,,,,,,,,,
,,,,,,,,,,,,41876,2021-09-26_16h29.12.570,judgeSpeechMusic_20210921_logNormShiftAmp_detection_fixS,2020.1.2,MacIntel,60,,,,,,,,,,,,,,,,,,2,8.1432,,0,0,54,54,58,1,stimuli/stim_20210706_power2amp/equal_lnn_AM3.6Hz_s35_43.m4a,,,,,,,,,,,,
,,,,,,,,,,,,41876,2021-09-26_16h29.12.570,judgeSpeechMusic_20210921_logNormShiftAmp_detection_fixS,2020.1.2,MacIntel,60,,,,,,,,,,,,,,,,,,2,5.8033,,0,0,55,55,37,1,stimuli/stim_20210706_power2amp/equal_lnn_AM2.4Hz_s35_37.m4a,,,,,,,,,,,,
,,,,,,,,,,,,41876,2021-09-26_16h29.12.570,judgeSpeechMusic_20210921_logNormShiftAmp_detection_fixS,2020.1.2,MacIntel,60,,,,,,,,,,,,,,,,,,1,5.8695,,0,0,56,56,18,1,stimuli/stim_20210706_power2amp/equal_lnn_AM1.2Hz_s35_1.m4a,,,,,,,,,,,,
,,,,,,,,,,,,41876,2021-09-26_16h29.12.570,judgeSpeechMusic_20210921_logNormShiftAmp_detection_fixS,2020.1.2,MacIntel,60,,,,,,,,,,,,,,,,,,2,5.7077,,0,0,57,57,43,1,stimuli/stim_20210706_power2amp/equal_lnn_AM2.4Hz_s35_25.m4a,,,,,,,,,,,,
,,,,,,,,,,,,41876,2021-09-26_16h29.12.570,judgeSpeechMusic_20210921_logNormShiftAmp_detection_fixS,2020.1.2,MacIntel,60,,,,,,,,,,,,,,,,,,1,6.2754,4,1,0,58,58,20,1,stimuli/stim_20210706_power2amp/equal_lnn_AM1.2Hz_s35_21.m4a,1.2376,,,,,,,,,,,
,,,,,,,,,,,,41876,2021-09-26_16h29.12.570,judgeSpeechMusic_20210921_logNormShiftAmp_detection_fixS,2020.1.2,MacIntel,60,,,,,,,,,,,,,,,,,,2,6.3329,,0,0,59,59,36,1,stimuli/stim_20210706_power2amp/equal_lnn_AM2.4Hz_s35_36.m4a,,,,,,,,,,,,
,,,,,,,,,,,,41876,2021-09-26_16h29.12.570,judgeSpeechMusic_20210921_logNormShiftAmp_detection_fixS,2020.1.2,MacIntel,60,,,,,,,,,,,,,,,,,,1,5.8343,,0,0,60,60,1,1,stimuli/stim_20210706_power2amp/equal_lnn_AM0.6Hz_s35_24.m4a,,,,,,,,,,,,
,,,,,,,,,,,,41876,2021-09-26_16h29.12.570,judgeSpeechMusic_20210921_logNormShiftAmp_detection_fixS,2020.1.2,MacIntel,60,,,,,,,,,,,,,,,,,,1,5.6708,,0,0,61,61,16,1,stimuli/stim_20210706_power2amp/equal_lnn_AM1.2Hz_s35_15.m4a,,,,,,,,,,,,
,,,,,,,,,,,,41876,2021-09-26_16h29.12.570,judgeSpeechMusic_20210921_logNormShiftAmp_detection_fixS,2020.1.2,MacIntel,60,,,,,,,,,,,,,,,,,,2,5.6711,,0,0,62,62,57,1,stimuli/stim_20210706_power2amp/equal_lnn_AM3.6Hz_s35_33.m4a,,,,,,,,,,,,
,,,,,,,,,,,,41876,2021-09-26_16h29.12.570,judgeSpeechMusic_20210921_logNormShiftAmp_detection_fixS,2020.1.2,MacIntel,60,,,,,,,,,,,,,,,,,,2,5.7433,,0,0,63,63,70,1,stimuli/stim_20210706_power2amp/equal_lnn_AM4.2Hz_s35_10.m4a,,,,,,,,,,,,
,,,,,,,,,,,,41876,2021-09-26_16h29.12.570,judgeSpeechMusic_20210921_logNormShiftAmp_detection_fixS,2020.1.2,MacIntel,60,,,,,,,,,,,,,,,,,,1,7.0458,,0,0,64,64,12,1,stimuli/stim_20210706_power2amp/equal_lnn_AM0.6Hz_s35_29.m4a,,,,,,,,,,,,
,,,,,,,,,,,,41876,2021-09-26_16h29.12.570,judgeSpeechMusic_20210921_logNormShiftAmp_detection_fixS,2020.1.2,MacIntel,60,,,,,,,,,,,,,,,,,,1,9.7291,,0,0,65,65,32,1,stimuli/stim_20210706_power2amp/equal_lnn_AM2.4Hz_s35_35.m4a,,,,,,,,,,,,
,,,,,,,,,,,,41876,2021-09-26_16h29.12.570,judgeSpeechMusic_20210921_logNormShiftAmp_detection_fixS,2020.1.2,MacIntel,60,,,,,,,,,,,,,,,,,,2,5.7279,,0,0,66,66,45,1,stimuli/stim_20210706_power2amp/equal_lnn_AM3.6Hz_s35_27.m4a,,,,,,,,,,,,
,,,,,,,,,,,,41876,2021-09-26_16h29.12.570,judgeSpeechMusic_20210921_logNormShiftAmp_detection_fixS,2020.1.2,MacIntel,60,,,,,,,,,,,,,,,,,,2,6.1398,,0,0,67,67,49,1,stimuli/stim_20210706_power2amp/equal_lnn_AM3.6Hz_s35_13.m4a,,,,,,,,,,,,
,,,,,,,,,,,,41876,2021-09-26_16h29.12.570,judgeSpeechMusic_20210921_logNormShiftAmp_detection_fixS,2020.1.2,MacIntel,60,,,,,,,,,,,,,,,,,,2,11.5186,,0,0,68,68,74,1,stimuli/stim_20210706_power2amp/equal_lnn_AM4.2Hz_s35_46.m4a,,,,,,,,,,,,
,,,,,,,,,,,,41876,2021-09-26_16h29.12.570,judgeSpeechMusic_20210921_logNormShiftAmp_detection_fixS,2020.1.2,MacIntel,60,,,,,,,,,,,,,,,,,,1,5.8419,,0,0,69,69,5,1,stimuli/stim_20210706_power2amp/equal_lnn_AM0.6Hz_s35_26.m4a,,,,,,,,,,,,
,,,,,,,,,,,,41876,2021-09-26_16h29.12.570,judgeSpeechMusic_20210921_logNormShiftAmp_detection_fixS,2020.1.2,MacIntel,60,,,,,,,,,,,,,,,,,,2,5.6917,,0,0,70,70,55,1,stimuli/stim_20210706_power2amp/equal_lnn_AM3.6Hz_s35_41.m4a,,,,,,,,,,,,
,,,,,,,,,,,,41876,2021-09-26_16h29.12.570,judgeSpeechMusic_20210921_logNormShiftAmp_detection_fixS,2020.1.2,MacIntel,60,,,,,,,,,,,,,,,,,,2,5.8304,,0,0,71,71,38,1,stimuli/stim_20210706_power2amp/equal_lnn_AM2.4Hz_s35_50.m4a,,,,,,,,,,,,
,,,,,,,,,,,,41876,2021-09-26_16h29.12.570,judgeSpeechMusic_20210921_logNormShiftAmp_detection_fixS,2020.1.2,MacIntel,60,,,,,,,,,,,,,,,,,,2,5.9804,,0,0,72,72,47,1,stimuli/stim_20210706_power2amp/equal_lnn_AM3.6Hz_s35_15.m4a,,,,,,,,,,,,
,,,,,,,,,,,,41876,2021-09-26_16h29.12.570,judgeSpeechMusic_20210921_logNormShiftAmp_detection_fixS,2020.1.2,MacIntel,60,,,,,,,,,,,,,,,,,,1,5.7364,,0,0,73,73,56,1,stimuli/stim_20210706_power2amp/equal_lnn_AM3.6Hz_s35_49.m4a,,,,,,,,,,,,
,,,,,,,,,,,,41876,2021-09-26_16h29.12.570,judgeSpeechMusic_20210921_logNormShiftAmp_detection_fixS,2020.1.2,MacIntel,60,,,,,,,,,,,,,,,,,,1,5.9652,,0,0,74,74,42,1,stimuli/stim_20210706_power2amp/equal_lnn_AM2.4Hz_s35_47.m4a,,,,,,,,,,,,
,,,,,,,,,,,,41876,2021-09-26_16h29.12.570,judgeSpeechMusic_20210921_logNormShiftAmp_detection_fixS,2020.1.2,MacIntel,60,,,,,,,,,,,,,,,,,,,,,,,,,,,,,space,2.955,0,0,0,1,1,SPEECH,stimuli/SPEECH.jpg,,
,,,,,,,,,,,,41876,2021-09-26_16h29.12.570,judgeSpeechMusic_20210921_logNormShiftAmp_detection_fixS,2020.1.2,MacIntel,60,space,0.4276,1,9.6414,,0,0,0,0,1,1,stimuli/stim_20210706_power2amp/equal_lnn_AM_training1.8Hz_s35.m4a,,,,,,,,,,,,,,,,,,,,,,,,,,,
,,,,,,,,,,,,41876,2021-09-26_16h29.12.570,judgeSpeechMusic_20210921_logNormShiftAmp_detection_fixS,2020.1.2,MacIntel,60,,,2,6.8481,,0,0,1,1,3,1,stimuli/stim_20210706_power2amp/equal_lnn_AM_training3.9Hz_s35.m4a,,,,,,,,,,,,,,,,,,,,,,,,,,,
,,,,,,,,,,,,41876,2021-09-26_16h29.12.570,judgeSpeechMusic_20210921_logNormShiftAmp_detection_fixS,2020.1.2,MacIntel,60,,,1,6.6415,4,1,0,2,2,0,1,stimuli/stim_20210706_power2amp/equal_lnn_AM_training0.9Hz_s35.m4a,1.4978,,,,,,,,,,,,,,,,,,,,,,,,,,
,,,,,,,,,,,,41876,2021-09-26_16h29.12.570,judgeSpeechMusic_20210921_logNormShiftAmp_detection_fixS,2020.1.2,MacIntel,60,,,2,6.8253,,0,0,3,3,2,1,stimuli/stim_20210706_power2amp/equal_lnn_AM_training3Hz_s35.m4a,,,,,,,,,,,,,,,,,,,,,,,,,,,
,,,,,,,,,,,,41876,2021-09-26_16h29.12.570,judgeSpeechMusic_20210921_logNormShiftAmp_detection_fixS,2020.1.2,MacIntel,60,,,,,,,,,,,,,,space,4.5524,space,3.0533,1,6.3154,,0,0,0,0,59,1,stimuli/stim_20210706_power2amp/equal_lnn_AM3.6Hz_s35_40.m4a,,,,,,,,,,,,
,,,,,,,,,,,,41876,2021-09-26_16h29.12.570,judgeSpeechMusic_20210921_logNormShiftAmp_detection_fixS,2020.1.2,MacIntel,60,,,,,,,,,,,,,,,,,,1,5.7903,,0,0,1,1,41,1,stimuli/stim_20210706_power2amp/equal_lnn_AM2.4Hz_s35_49.m4a,,,,,,,,,,,,
,,,,,,,,,,,,41876,2021-09-26_16h29.12.570,judgeSpeechMusic_20210921_logNormShiftAmp_detection_fixS,2020.1.2,MacIntel,60,,,,,,,,,,,,,,,,,,2,6.7896,,0,0,2,2,5,1,stimuli/stim_20210706_power2amp/equal_lnn_AM0.6Hz_s35_26.m4a,,,,,,,,,,,,
,,,,,,,,,,,,41876,2021-09-26_16h29.12.570,judgeSpeechMusic_20210921_logNormShiftAmp_detection_fixS,2020.1.2,MacIntel,60,,,,,,,,,,,,,,,,,,2,6.2394,,0,0,3,3,67,1,stimuli/stim_20210706_power2amp/equal_lnn_AM4.2Hz_s35_25.m4a,,,,,,,,,,,,
,,,,,,,,,,,,41876,2021-09-26_16h29.12.570,judgeSpeechMusic_20210921_logNormShiftAmp_detection_fixS,2020.1.2,MacIntel,60,,,,,,,,,,,,,,,,,,1,8.0238,,0,0,4,4,49,1,stimuli/stim_20210706_power2amp/equal_lnn_AM3.6Hz_s35_13.m4a,,,,,,,,,,,,
,,,,,,,,,,,,41876,2021-09-26_16h29.12.570,judgeSpeechMusic_20210921_logNormShiftAmp_detection_fixS,2020.1.2,MacIntel,60,,,,,,,,,,,,,,,,,,2,7.3372,,0,0,5,5,23,1,stimuli/stim_20210706_power2amp/equal_lnn_AM1.2Hz_s35_35.m4a,,,,,,,,,,,,
,,,,,,,,,,,,41876,2021-09-26_16h29.12.570,judgeSpeechMusic_20210921_logNormShiftAmp_detection_fixS,2020.1.2,MacIntel,60,,,,,,,,,,,,,,,,,,1,7.0703,,0,0,6,6,11,1,stimuli/stim_20210706_power2amp/equal_lnn_AM0.6Hz_s35_28.m4a,,,,,,,,,,,,
,,,,,,,,,,,,41876,2021-09-26_16h29.12.570,judgeSpeechMusic_20210921_logNormShiftAmp_detection_fixS,2020.1.2,MacIntel,60,,,,,,,,,,,,,,,,,,2,7.6814,,0,0,7,7,30,1,stimuli/stim_20210706_power2amp/equal_lnn_AM2.4Hz_s35_40.m4a,,,,,,,,,,,,
,,,,,,,,,,,,41876,2021-09-26_16h29.12.570,judgeSpeechMusic_20210921_logNormShiftAmp_detection_fixS,2020.1.2,MacIntel,60,,,,,,,,,,,,,,,,,,2,6.5598,,0,0,8,8,33,1,stimuli/stim_20210706_power2amp/equal_lnn_AM2.4Hz_s35_9.m4a,,,,,,,,,,,,
,,,,,,,,,,,,41876,2021-09-26_16h29.12.570,judgeSpeechMusic_20210921_logNormShiftAmp_detection_fixS,2020.1.2,MacIntel,60,,,,,,,,,,,,,,,,,,2,9.22,,0,0,9,9,56,1,stimuli/stim_20210706_power2amp/equal_lnn_AM3.6Hz_s35_49.m4a,,,,,,,,,,,,
,,,,,,,,,,,,41876,2021-09-26_16h29.12.570,judgeSpeechMusic_20210921_logNormShiftAmp_detection_fixS,2020.1.2,MacIntel,60,,,,,,,,,,,,,,,,,,2,6.4391,,0,0,10,10,50,1,stimuli/stim_20210706_power2amp/equal_lnn_AM3.6Hz_s35_10.m4a,,,,,,,,,,,,
,,,,,,,,,,,,41876,2021-09-26_16h29.12.570,judgeSpeechMusic_20210921_logNormShiftAmp_detection_fixS,2020.1.2,MacIntel,60,,,,,,,,,,,,,,,,,,1,9.9935,,0,0,11,11,51,1,stimuli/stim_20210706_power2amp/equal_lnn_AM3.6Hz_s35_26.m4a,,,,,,,,,,,,
,,,,,,,,,,,,41876,2021-09-26_16h29.12.570,judgeSpeechMusic_20210921_logNormShiftAmp_detection_fixS,2020.1.2,MacIntel,60,,,,,,,,,,,,,,,,,,1,9.2972,,0,0,12,12,36,1,stimuli/stim_20210706_power2amp/equal_lnn_AM2.4Hz_s35_36.m4a,,,,,,,,,,,,
,,,,,,,,,,,,41876,2021-09-26_16h29.12.570,judgeSpeechMusic_20210921_logNormShiftAmp_detection_fixS,2020.1.2,MacIntel,60,,,,,,,,,,,,,,,,,,2,8.1501,,0,0,13,13,28,1,stimuli/stim_20210706_power2amp/equal_lnn_AM1.2Hz_s35_5.m4a,,,,,,,,,,,,
,,,,,,,,,,,,41876,2021-09-26_16h29.12.570,judgeSpeechMusic_20210921_logNormShiftAmp_detection_fixS,2020.1.2,MacIntel,60,,,,,,,,,,,,,,,,,,2,5.9406,,0,0,14,14,57,1,stimuli/stim_20210706_power2amp/equal_lnn_AM3.6Hz_s35_33.m4a,,,,,,,,,,,,
,,,,,,,,,,,,41876,2021-09-26_16h29.12.570,judgeSpeechMusic_20210921_logNormShiftAmp_detection_fixS,2020.1.2,MacIntel,60,,,,,,,,,,,,,,,,,,1,5.8936,,0,0,15,15,1,1,stimuli/stim_20210706_power2amp/equal_lnn_AM0.6Hz_s35_24.m4a,,,,,,,,,,,,
,,,,,,,,,,,,41876,2021-09-26_16h29.12.570,judgeSpeechMusic_20210921_logNormShiftAmp_detection_fixS,2020.1.2,MacIntel,60,,,,,,,,,,,,,,,,,,2,8.6784,,0,0,16,16,13,1,stimuli/stim_20210706_power2amp/equal_lnn_AM0.6Hz_s35_19.m4a,,,,,,,,,,,,
,,,,,,,,,,,,41876,2021-09-26_16h29.12.570,judgeSpeechMusic_20210921_logNormShiftAmp_detection_fixS,2020.1.2,MacIntel,60,,,,,,,,,,,,,,,,,,1,7.9148,,0,0,17,17,35,1,stimuli/stim_20210706_power2amp/equal_lnn_AM2.4Hz_s35_21.m4a,,,,,,,,,,,,
,,,,,,,,,,,,41876,2021-09-26_16h29.12.570,judgeSpeechMusic_20210921_logNormShiftAmp_detection_fixS,2020.1.2,MacIntel,60,,,,,,,,,,,,,,,,,,1,7.7865,,0,0,18,18,40,1,stimuli/stim_20210706_power2amp/equal_lnn_AM2.4Hz_s35_43.m4a,,,,,,,,,,,,
,,,,,,,,,,,,41876,2021-09-26_16h29.12.570,judgeSpeechMusic_20210921_logNormShiftAmp_detection_fixS,2020.1.2,MacIntel,60,,,,,,,,,,,,,,,,,,1,8.4044,1,1,0,19,19,45,1,stimuli/stim_20210706_power2amp/equal_lnn_AM3.6Hz_s35_27.m4a,1.0596,,,,,,,,,,,
,,,,,,,,,,,,41876,2021-09-26_16h29.12.570,judgeSpeechMusic_20210921_logNormShiftAmp_detection_fixS,2020.1.2,MacIntel,60,,,,,,,,,,,,,,,,,,2,6.6194,,0,0,20,20,18,1,stimuli/stim_20210706_power2amp/equal_lnn_AM1.2Hz_s35_1.m4a,,,,,,,,,,,,
,,,,,,,,,,,,41876,2021-09-26_16h29.12.570,judgeSpeechMusic_20210921_logNormShiftAmp_detection_fixS,2020.1.2,MacIntel,60,,,,,,,,,,,,,,,,,,2,6.8763,,0,0,21,21,34,1,stimuli/stim_20210706_power2amp/equal_lnn_AM2.4Hz_s35_18.m4a,,,,,,,,,,,,
,,,,,,,,,,,,41876,2021-09-26_16h29.12.570,judgeSpeechMusic_20210921_logNormShiftAmp_detection_fixS,2020.1.2,MacIntel,60,,,,,,,,,,,,,,,,,,1,8.6809,,0,0,22,22,7,1,stimuli/stim_20210706_power2amp/equal_lnn_AM0.6Hz_s35_18.m4a,,,,,,,,,,,,
,,,,,,,,,,,,41876,2021-09-26_16h29.12.570,judgeSpeechMusic_20210921_logNormShiftAmp_detection_fixS,2020.1.2,MacIntel,60,,,,,,,,,,,,,,,,,,1,6.4186,,0,0,23,23,24,1,stimuli/stim_20210706_power2amp/equal_lnn_AM1.2Hz_s35_29.m4a,,,,,,,,,,,,
,,,,,,,,,,,,41876,2021-09-26_16h29.12.570,judgeSpeechMusic_20210921_logNormShiftAmp_detection_fixS,2020.1.2,MacIntel,60,,,,,,,,,,,,,,,,,,1,6.987,,0,0,24,24,19,1,stimuli/stim_20210706_power2amp/equal_lnn_AM1.2Hz_s35_20.m4a,,,,,,,,,,,,
,,,,,,,,,,,,41876,2021-09-26_16h29.12.570,judgeSpeechMusic_20210921_logNormShiftAmp_detection_fixS,2020.1.2,MacIntel,60,,,,,,,,,,,,,,,,,,1,6.5408,,0,0,25,25,10,1,stimuli/stim_20210706_power2amp/equal_lnn_AM0.6Hz_s35_45.m4a,,,,,,,,,,,,
,,,,,,,,,,,,41876,2021-09-26_16h29.12.570,judgeSpeechMusic_20210921_logNormShiftAmp_detection_fixS,2020.1.2,MacIntel,60,,,,,,,,,,,,,,,,,,1,25.8494,,0,0,26,26,71,1,stimuli/stim_20210706_power2amp/equal_lnn_AM4.2Hz_s35_48.m4a,,,,,,,,,,,,
,,,,,,,,,,,,41876,2021-09-26_16h29.12.570,judgeSpeechMusic_20210921_logNormShiftAmp_detection_fixS,2020.1.2,MacIntel,60,,,,,,,,,,,,,,,,,,1,6.3509,,0,0,27,27,31,1,stimuli/stim_20210706_power2amp/equal_lnn_AM2.4Hz_s35_14.m4a,,,,,,,,,,,,
,,,,,,,,,,,,41876,2021-09-26_16h29.12.570,judgeSpeechMusic_20210921_logNormShiftAmp_detection_fixS,2020.1.2,MacIntel,60,,,,,,,,,,,,,,,,,,1,7.4359,,0,0,28,28,52,1,stimuli/stim_20210706_power2amp/equal_lnn_AM3.6Hz_s35_19.m4a,,,,,,,,,,,,
,,,,,,,,,,,,41876,2021-09-26_16h29.12.570,judgeSpeechMusic_20210921_logNormShiftAmp_detection_fixS,2020.1.2,MacIntel,60,,,,,,,,,,,,,,,,,,1,10.7797,,0,0,29,29,0,1,stimuli/stim_20210706_power2amp/equal_lnn_AM0.6Hz_s35_49.m4a,,,,,,,,,,,,
,,,,,,,,,,,,41876,2021-09-26_16h29.12.570,judgeSpeechMusic_20210921_logNormShiftAmp_detection_fixS,2020.1.2,MacIntel,60,,,,,,,,,,,,,,,,,,2,5.888,,0,0,30,30,16,1,stimuli/stim_20210706_power2amp/equal_lnn_AM1.2Hz_s35_15.m4a,,,,,,,,,,,,
,,,,,,,,,,,,41876,2021-09-26_16h29.12.570,judgeSpeechMusic_20210921_logNormShiftAmp_detection_fixS,2020.1.2,MacIntel,60,,,,,,,,,,,,,,,,,,2,7.3292,,0,0,31,31,42,1,stimuli/stim_20210706_power2amp/equal_lnn_AM2.4Hz_s35_47.m4a,,,,,,,,,,,,
,,,,,,,,,,,,41876,2021-09-26_16h29.12.570,judgeSpeechMusic_20210921_logNormShiftAmp_detection_fixS,2020.1.2,MacIntel,60,,,,,,,,,,,,,,,,,,1,10.4217,,0,0,32,32,25,1,stimuli/stim_20210706_power2amp/equal_lnn_AM1.2Hz_s35_33.m4a,,,,,,,,,,,,
,,,,,,,,,,,,41876,2021-09-26_16h29.12.570,judgeSpeechMusic_20210921_logNormShiftAmp_detection_fixS,2020.1.2,MacIntel,60,,,,,,,,,,,,,,,,,,1,6.9967,,0,0,33,33,66,1,stimuli/stim_20210706_power2amp/equal_lnn_AM4.2Hz_s35_31.m4a,,,,,,,,,,,,
,,,,,,,,,,,,41876,2021-09-26_16h29.12.570,judgeSpeechMusic_20210921_logNormShiftAmp_detection_fixS,2020.1.2,MacIntel,60,,,,,,,,,,,,,,,,,,1,6.5351,,0,0,34,34,9,1,stimuli/stim_20210706_power2amp/equal_lnn_AM0.6Hz_s35_1.m4a,,,,,,,,,,,,
,,,,,,,,,,,,41876,2021-09-26_16h29.12.570,judgeSpeechMusic_20210921_logNormShiftAmp_detection_fixS,2020.1.2,MacIntel,60,,,,,,,,,,,,,,,,,,2,7.0046,,0,0,35,35,72,1,stimuli/stim_20210706_power2amp/equal_lnn_AM4.2Hz_s35_13.m4a,,,,,,,,,,,,
,,,,,,,,,,,,41876,2021-09-26_16h29.12.570,judgeSpeechMusic_20210921_logNormShiftAmp_detection_fixS,2020.1.2,MacIntel,60,,,,,,,,,,,,,,,,,,1,7.6227,,0,0,36,36,61,1,stimuli/stim_20210706_power2amp/equal_lnn_AM4.2Hz_s35_47.m4a,,,,,,,,,,,,
,,,,,,,,,,,,41876,2021-09-26_16h29.12.570,judgeSpeechMusic_20210921_logNormShiftAmp_detection_fixS,2020.1.2,MacIntel,60,,,,,,,,,,,,,,,,,,1,7.23,,0,0,37,37,47,1,stimuli/stim_20210706_power2amp/equal_lnn_AM3.6Hz_s35_15.m4a,,,,,,,,,,,,
,,,,,,,,,,,,41876,2021-09-26_16h29.12.570,judgeSpeechMusic_20210921_logNormShiftAmp_detection_fixS,2020.1.2,MacIntel,60,,,,,,,,,,,,,,,,,,2,6.1129,,0,0,38,38,69,1,stimuli/stim_20210706_power2amp/equal_lnn_AM4.2Hz_s35_38.m4a,,,,,,,,,,,,
,,,,,,,,,,,,41876,2021-09-26_16h29.12.570,judgeSpeechMusic_20210921_logNormShiftAmp_detection_fixS,2020.1.2,MacIntel,60,,,,,,,,,,,,,,,,,,1,9.3731,,0,0,39,39,55,1,stimuli/stim_20210706_power2amp/equal_lnn_AM3.6Hz_s35_41.m4a,,,,,,,,,,,,
,,,,,,,,,,,,41876,2021-09-26_16h29.12.570,judgeSpeechMusic_20210921_logNormShiftAmp_detection_fixS,2020.1.2,MacIntel,60,,,,,,,,,,,,,,,,,,2,6.3192,4,1,0,40,40,64,1,stimuli/stim_20210706_power2amp/equal_lnn_AM4.2Hz_s35_50.m4a,1.1502,,,,,,,,,,,
,,,,,,,,,,,,41876,2021-09-26_16h29.12.570,judgeSpeechMusic_20210921_logNormShiftAmp_detection_fixS,2020.1.2,MacIntel,60,,,,,,,,,,,,,,,,,,2,8.0017,,0,0,41,41,73,1,stimuli/stim_20210706_power2amp/equal_lnn_AM4.2Hz_s35_19.m4a,,,,,,,,,,,,
,,,,,,,,,,,,41876,2021-09-26_16h29.12.570,judgeSpeechMusic_20210921_logNormShiftAmp_detection_fixS,2020.1.2,MacIntel,60,,,,,,,,,,,,,,,,,,1,5.9555,,0,0,42,42,26,1,stimuli/stim_20210706_power2amp/equal_lnn_AM1.2Hz_s35_2.m4a,,,,,,,,,,,,
,,,,,,,,,,,,41876,2021-09-26_16h29.12.570,judgeSpeechMusic_20210921_logNormShiftAmp_detection_fixS,2020.1.2,MacIntel,60,,,,,,,,,,,,,,,,,,1,5.9231,,0,0,43,43,2,1,stimuli/stim_20210706_power2amp/equal_lnn_AM0.6Hz_s35_22.m4a,,,,,,,,,,,,
,,,,,,,,,,,,41876,2021-09-26_16h29.12.570,judgeSpeechMusic_20210921_logNormShiftAmp_detection_fixS,2020.1.2,MacIntel,60,,,,,,,,,,,,,,,,,,2,7.4635,,0,0,44,44,54,1,stimuli/stim_20210706_power2amp/equal_lnn_AM3.6Hz_s35_14.m4a,,,,,,,,,,,,
,,,,,,,,,,,,41876,2021-09-26_16h29.12.570,judgeSpeechMusic_20210921_logNormShiftAmp_detection_fixS,2020.1.2,MacIntel,60,,,,,,,,,,,,,,,,,,1,6.3033,,0,0,45,45,22,1,stimuli/stim_20210706_power2amp/equal_lnn_AM1.2Hz_s35_9.m4a,,,,,,,,,,,,
,,,,,,,,,,,,41876,2021-09-26_16h29.12.570,judgeSpeechMusic_20210921_logNormShiftAmp_detection_fixS,2020.1.2,MacIntel,60,,,,,,,,,,,,,,,,,,1,6.4534,,0,0,46,46,27,1,stimuli/stim_20210706_power2amp/equal_lnn_AM1.2Hz_s35_44.m4a,,,,,,,,,,,,
,,,,,,,,,,,,41876,2021-09-26_16h29.12.570,judgeSpeechMusic_20210921_logNormShiftAmp_detection_fixS,2020.1.2,MacIntel,60,,,,,,,,,,,,,,,,,,1,12.3649,,0,0,47,47,20,1,stimuli/stim_20210706_power2amp/equal_lnn_AM1.2Hz_s35_21.m4a,,,,,,,,,,,,
,,,,,,,,,,,,41876,2021-09-26_16h29.12.570,judgeSpeechMusic_20210921_logNormShiftAmp_detection_fixS,2020.1.2,MacIntel,60,,,,,,,,,,,,,,,,,,2,7.4188,,0,0,48,48,65,1,stimuli/stim_20210706_power2amp/equal_lnn_AM4.2Hz_s35_34.m4a,,,,,,,,,,,,
,,,,,,,,,,,,41876,2021-09-26_16h29.12.570,judgeSpeechMusic_20210921_logNormShiftAmp_detection_fixS,2020.1.2,MacIntel,60,,,,,,,,,,,,,,,,,,1,7.8595,,0,0,49,49,15,1,stimuli/stim_20210706_power2amp/equal_lnn_AM1.2Hz_s35_50.m4a,,,,,,,,,,,,
,,,,,,,,,,,,41876,2021-09-26_16h29.12.570,judgeSpeechMusic_20210921_logNormShiftAmp_detection_fixS,2020.1.2,MacIntel,60,,,,,,,,,,,,,,,,,,1,6.3687,,0,0,50,50,3,1,stimuli/stim_20210706_power2amp/equal_lnn_AM0.6Hz_s35_38.m4a,,,,,,,,,,,,
,,,,,,,,,,,,41876,2021-09-26_16h29.12.570,judgeSpeechMusic_20210921_logNormShiftAmp_detection_fixS,2020.1.2,MacIntel,60,,,,,,,,,,,,,,,,,,2,7.2454,,0,0,51,51,68,1,stimuli/stim_20210706_power2amp/equal_lnn_AM4.2Hz_s35_16.m4a,,,,,,,,,,,,
,,,,,,,,,,,,41876,2021-09-26_16h29.12.570,judgeSpeechMusic_20210921_logNormShiftAmp_detection_fixS,2020.1.2,MacIntel,60,,,,,,,,,,,,,,,,,,2,6.0372,,0,0,52,52,4,1,stimuli/stim_20210706_power2amp/equal_lnn_AM0.6Hz_s35_20.m4a,,,,,,,,,,,,
,,,,,,,,,,,,41876,2021-09-26_16h29.12.570,judgeSpeechMusic_20210921_logNormShiftAmp_detection_fixS,2020.1.2,MacIntel,60,,,,,,,,,,,,,,,,,,1,10.338,,0,0,53,53,53,1,stimuli/stim_20210706_power2amp/equal_lnn_AM3.6Hz_s35_18.m4a,,,,,,,,,,,,
,,,,,,,,,,,,41876,2021-09-26_16h29.12.570,judgeSpeechMusic_20210921_logNormShiftAmp_detection_fixS,2020.1.2,MacIntel,60,,,,,,,,,,,,,,,,,,1,25.7936,,0,0,54,54,43,1,stimuli/stim_20210706_power2amp/equal_lnn_AM2.4Hz_s35_25.m4a,,,,,,,,,,,,
,,,,,,,,,,,,41876,2021-09-26_16h29.12.570,judgeSpeechMusic_20210921_logNormShiftAmp_detection_fixS,2020.1.2,MacIntel,60,,,,,,,,,,,,,,,,,,1,8.5496,,0,0,55,55,17,1,stimuli/stim_20210706_power2amp/equal_lnn_AM1.2Hz_s35_43.m4a,,,,,,,,,,,,
,,,,,,,,,,,,41876,2021-09-26_16h29.12.570,judgeSpeechMusic_20210921_logNormShiftAmp_detection_fixS,2020.1.2,MacIntel,60,,,,,,,,,,,,,,,,,,1,6.5663,,0,0,56,56,21,1,stimuli/stim_20210706_power2amp/equal_lnn_AM1.2Hz_s35_25.m4a,,,,,,,,,,,,
,,,,,,,,,,,,41876,2021-09-26_16h29.12.570,judgeSpeechMusic_20210921_logNormShiftAmp_detection_fixS,2020.1.2,MacIntel,60,,,,,,,,,,,,,,,,,,2,5.896,,0,0,57,57,44,1,stimuli/stim_20210706_power2amp/equal_lnn_AM2.4Hz_s35_16.m4a,,,,,,,,,,,,
,,,,,,,,,,,,41876,2021-09-26_16h29.12.570,judgeSpeechMusic_20210921_logNormShiftAmp_detection_fixS,2020.1.2,MacIntel,60,,,,,,,,,,,,,,,,,,1,7.4518,3,1,0,58,58,6,1,stimuli/stim_20210706_power2amp/equal_lnn_AM0.6Hz_s35_12.m4a,1.1774,,,,,,,,,,,
,,,,,,,,,,,,41876,2021-09-26_16h29.12.570,judgeSpeechMusic_20210921_logNormShiftAmp_detection_fixS,2020.1.2,MacIntel,60,,,,,,,,,,,,,,,,,,2,5.8262,,0,0,59,59,70,1,stimuli/stim_20210706_power2amp/equal_lnn_AM4.2Hz_s35_10.m4a,,,,,,,,,,,,
,,,,,,,,,,,,41876,2021-09-26_16h29.12.570,judgeSpeechMusic_20210921_logNormShiftAmp_detection_fixS,2020.1.2,MacIntel,60,,,,,,,,,,,,,,,,,,1,5.7566,,0,0,60,60,14,1,stimuli/stim_20210706_power2amp/equal_lnn_AM0.6Hz_s35_50.m4a,,,,,,,,,,,,
,,,,,,,,,,,,41876,2021-09-26_16h29.12.570,judgeSpeechMusic_20210921_logNormShiftAmp_detection_fixS,2020.1.2,MacIntel,60,,,,,,,,,,,,,,,,,,1,7.052,,0,0,61,61,8,1,stimuli/stim_20210706_power2amp/equal_lnn_AM0.6Hz_s35_47.m4a,,,,,,,,,,,,
,,,,,,,,,,,,41876,2021-09-26_16h29.12.570,judgeSpeechMusic_20210921_logNormShiftAmp_detection_fixS,2020.1.2,MacIntel,60,,,,,,,,,,,,,,,,,,1,7.1727,,0,0,62,62,32,1,stimuli/stim_20210706_power2amp/equal_lnn_AM2.4Hz_s35_35.m4a,,,,,,,,,,,,
,,,,,,,,,,,,41876,2021-09-26_16h29.12.570,judgeSpeechMusic_20210921_logNormShiftAmp_detection_fixS,2020.1.2,MacIntel,60,,,,,,,,,,,,,,,,,,2,13.3139,,0,0,63,63,37,1,stimuli/stim_20210706_power2amp/equal_lnn_AM2.4Hz_s35_37.m4a,,,,,,,,,,,,
,,,,,,,,,,,,41876,2021-09-26_16h29.12.570,judgeSpeechMusic_20210921_logNormShiftAmp_detection_fixS,2020.1.2,MacIntel,60,,,,,,,,,,,,,,,,,,1,11.441,,0,0,64,64,12,1,stimuli/stim_20210706_power2amp/equal_lnn_AM0.6Hz_s35_29.m4a,,,,,,,,,,,,
,,,,,,,,,,,,41876,2021-09-26_16h29.12.570,judgeSpeechMusic_20210921_logNormShiftAmp_detection_fixS,2020.1.2,MacIntel,60,,,,,,,,,,,,,,,,,,2,5.9196,,0,0,65,65,63,1,stimuli/stim_20210706_power2amp/equal_lnn_AM4.2Hz_s35_9.m4a,,,,,,,,,,,,
,,,,,,,,,,,,41876,2021-09-26_16h29.12.570,judgeSpeechMusic_20210921_logNormShiftAmp_detection_fixS,2020.1.2,MacIntel,60,,,,,,,,,,,,,,,,,,1,8.0191,,0,0,66,66,62,1,stimuli/stim_20210706_power2amp/equal_lnn_AM4.2Hz_s35_30.m4a,,,,,,,,,,,,
,,,,,,,,,,,,41876,2021-09-26_16h29.12.570,judgeSpeechMusic_20210921_logNormShiftAmp_detection_fixS,2020.1.2,MacIntel,60,,,,,,,,,,,,,,,,,,1,5.7422,,0,0,67,67,74,1,stimuli/stim_20210706_power2amp/equal_lnn_AM4.2Hz_s35_46.m4a,,,,,,,,,,,,
,,,,,,,,,,,,41876,2021-09-26_16h29.12.570,judgeSpeechMusic_20210921_logNormShiftAmp_detection_fixS,2020.1.2,MacIntel,60,,,,,,,,,,,,,,,,,,2,5.6584,,0,0,68,68,39,1,stimuli/stim_20210706_power2amp/equal_lnn_AM2.4Hz_s35_24.m4a,,,,,,,,,,,,
,,,,,,,,,,,,41876,2021-09-26_16h29.12.570,judgeSpeechMusic_20210921_logNormShiftAmp_detection_fixS,2020.1.2,MacIntel,60,,,,,,,,,,,,,,,,,,1,5.7641,,0,0,69,69,29,1,stimuli/stim_20210706_power2amp/equal_lnn_AM1.2Hz_s35_47.m4a,,,,,,,,,,,,
,,,,,,,,,,,,41876,2021-09-26_16h29.12.570,judgeSpeechMusic_20210921_logNormShiftAmp_detection_fixS,2020.1.2,MacIntel,60,,,,,,,,,,,,,,,,,,2,5.9435,,0,0,70,70,58,1,stimuli/stim_20210706_power2amp/equal_lnn_AM3.6Hz_s35_43.m4a,,,,,,,,,,,,
,,,,,,,,,,,,41876,2021-09-26_16h29.12.570,judgeSpeechMusic_20210921_logNormShiftAmp_detection_fixS,2020.1.2,MacIntel,60,,,,,,,,,,,,,,,,,,2,5.6189,,0,0,71,71,60,1,stimuli/stim_20210706_power2amp/equal_lnn_AM4.2Hz_s35_26.m4a,,,,,,,,,,,,
,,,,,,,,,,,,41876,2021-09-26_16h29.12.570,judgeSpeechMusic_20210921_logNormShiftAmp_detection_fixS,2020.1.2,MacIntel,60,,,,,,,,,,,,,,,,,,2,5.7899,,0,0,72,72,38,1,stimuli/stim_20210706_power2amp/equal_lnn_AM2.4Hz_s35_50.m4a,,,,,,,,,,,,
,,,,,,,,,,,,41876,2021-09-26_16h29.12.570,judgeSpeechMusic_20210921_logNormShiftAmp_detection_fixS,2020.1.2,MacIntel,60,,,,,,,,,,,,,,,,,,1,9.3747,,0,0,73,73,48,1,stimuli/stim_20210706_power2amp/equal_lnn_AM3.6Hz_s35_6.m4a,,,,,,,,,,,,
,,,,,,,,,,,,41876,2021-09-26_16h29.12.570,judgeSpeechMusic_20210921_logNormShiftAmp_detection_fixS,2020.1.2,MacIntel,60,,,,,,,,,,,,,,,,,,1,7.4226,,0,0,74,74,46,1,stimuli/stim_20210706_power2amp/equal_lnn_AM3.6Hz_s35_47.m4a,,,,,,,,,,,,
,,,,,,,,,,,,41876,2021-09-26_16h29.12.570,judgeSpeechMusic_20210921_logNormShiftAmp_detection_fixS,2020.1.2,MacIntel,60,,,,,,,,,,,,,,,,,,,,,,,,,,,,,space,0.5721,0,1,1,0,1,MUSIC,stimuli/MUSIC.jpg,,
,,,,,,,,,,,,41876,2021-09-26_16h29.12.570,judgeSpeechMusic_20210921_logNormShiftAmp_detection_fixS,2020.1.2,MacIntel,60,,,,,,0,0,0,0,3,1,stimuli/stim_20210706_power2amp/equal_lnn_AM_training3.9Hz_s35.m4a,,,,,,,,,,,,,,,,,,,,,,,,,,,
,,,,,,,,,,,,41876,2021-09-26_16h29.12.570,judgeSpeechMusic_20210921_logNormShiftAmp_detection_fixS,2020.1.2,MacIntel,60,,,,,,,,,,,,,,space,3.9143,space,0.5776,1,16.897,,0,0,0,0,20,1,stimuli/stim_20210706_power2amp/equal_lnn_AM1.2Hz_s35_21.m4a,,,,,,,,,,,,
,,,,,,,,,,,,41876,2021-09-26_16h29.12.570,judgeSpeechMusic_20210921_logNormShiftAmp_detection_fixS,2020.1.2,MacIntel,60,,,,,,,,,,,,,,,,,,2,5.8519,,0,0,1,1,55,1,stimuli/stim_20210706_power2amp/equal_lnn_AM3.6Hz_s35_41.m4a,,,,,,,,,,,,
,,,,,,,,,,,,41876,2021-09-26_16h29.12.570,judgeSpeechMusic_20210921_logNormShiftAmp_detection_fixS,2020.1.2,MacIntel,60,,,,,,,,,,,,,,,,,,1,6.7143,,0,0,2,2,10,1,stimuli/stim_20210706_power2amp/equal_lnn_AM0.6Hz_s35_45.m4a,,,,,,,,,,,,
,,,,,,,,,,,,41876,2021-09-26_16h29.12.570,judgeSpeechMusic_20210921_logNormShiftAmp_detection_fixS,2020.1.2,MacIntel,60,,,,,,,,,,,,,,,,,,1,6.1411,,0,0,3,3,9,1,stimuli/stim_20210706_power2amp/equal_lnn_AM0.6Hz_s35_1.m4a,,,,,,,,,,,,
,,,,,,,,,,,,41876,2021-09-26_16h29.12.570,judgeSpeechMusic_20210921_logNormShiftAmp_detection_fixS,2020.1.2,MacIntel,60,,,,,,,,,,,,,,,,,,1,6.8042,,0,0,4,4,18,1,stimuli/stim_20210706_power2amp/equal_lnn_AM1.2Hz_s35_1.m4a,,,,,,,,,,,,
,,,,,,,,,,,,41876,2021-09-26_16h29.12.570,judgeSpeechMusic_20210921_logNormShiftAmp_detection_fixS,2020.1.2,MacIntel,60,,,,,,,,,,,,,,,,,,1,11.6156,,0,0,5,5,54,1,stimuli/stim_20210706_power2amp/equal_lnn_AM3.6Hz_s35_14.m4a,,,,,,,,,,,,
,,,,,,,,,,,,41876,2021-09-26_16h29.12.570,judgeSpeechMusic_20210921_logNormShiftAmp_detection_fixS,2020.1.2,MacIntel,60,,,,,,,,,,,,,,,,,,1,6.8913,,0,0,6,6,51,1,stimuli/stim_20210706_power2amp/equal_lnn_AM3.6Hz_s35_26.m4a,,,,,,,,,,,,
,,,,,,,,,,,,41876,2021-09-26_16h29.12.570,judgeSpeechMusic_20210921_logNormShiftAmp_detection_fixS,2020.1.2,MacIntel,60,,,,,,,,,,,,,,,,,,2,7.4629,,0,0,7,7,67,1,stimuli/stim_20210706_power2amp/equal_lnn_AM4.2Hz_s35_25.m4a,,,,,,,,,,,,
,,,,,,,,,,,,41876,2021-09-26_16h29.12.570,judgeSpeechMusic_20210921_logNormShiftAmp_detection_fixS,2020.1.2,MacIntel,60,,,,,,,,,,,,,,,,,,1,10.1811,,0,0,8,8,60,1,stimuli/stim_20210706_power2amp/equal_lnn_AM4.2Hz_s35_26.m4a,,,,,,,,,,,,
,,,,,,,,,,,,41876,2021-09-26_16h29.12.570,judgeSpeechMusic_20210921_logNormShiftAmp_detection_fixS,2020.1.2,MacIntel,60,,,,,,,,,,,,,,,,,,2,5.8562,,0,0,9,9,49,1,stimuli/stim_20210706_power2amp/equal_lnn_AM3.6Hz_s35_13.m4a,,,,,,,,,,,,
,,,,,,,,,,,,41876,2021-09-26_16h29.12.570,judgeSpeechMusic_20210921_logNormShiftAmp_detection_fixS,2020.1.2,MacIntel,60,,,,,,,,,,,,,,,,,,2,6.3593,,0,0,10,10,42,1,stimuli/stim_20210706_power2amp/equal_lnn_AM2.4Hz_s35_47.m4a,,,,,,,,,,,,
,,,,,,,,,,,,41876,2021-09-26_16h29.12.570,judgeSpeechMusic_20210921_logNormShiftAmp_detection_fixS,2020.1.2,MacIntel,60,,,,,,,,,,,,,,,,,,2,6.7067,,0,0,11,11,37,1,stimuli/stim_20210706_power2amp/equal_lnn_AM2.4Hz_s35_37.m4a,,,,,,,,,,,,
,,,,,,,,,,,,41876,2021-09-26_16h29.12.570,judgeSpeechMusic_20210921_logNormShiftAmp_detection_fixS,2020.1.2,MacIntel,60,,,,,,,,,,,,,,,,,,2,7.869,,0,0,12,12,5,1,stimuli/stim_20210706_power2amp/equal_lnn_AM0.6Hz_s35_26.m4a,,,,,,,,,,,,
,,,,,,,,,,,,41876,2021-09-26_16h29.12.570,judgeSpeechMusic_20210921_logNormShiftAmp_detection_fixS,2020.1.2,MacIntel,60,,,,,,,,,,,,,,,,,,2,6.4576,,0,0,13,13,43,1,stimuli/stim_20210706_power2amp/equal_lnn_AM2.4Hz_s35_25.m4a,,,,,,,,,,,,
,,,,,,,,,,,,41876,2021-09-26_16h29.12.570,judgeSpeechMusic_20210921_logNormShiftAmp_detection_fixS,2020.1.2,MacIntel,60,,,,,,,,,,,,,,,,,,2,7.1045,,0,0,14,14,4,1,stimuli/stim_20210706_power2amp/equal_lnn_AM0.6Hz_s35_20.m4a,,,,,,,,,,,,
,,,,,,,,,,,,41876,2021-09-26_16h29.12.570,judgeSpeechMusic_20210921_logNormShiftAmp_detection_fixS,2020.1.2,MacIntel,60,,,,,,,,,,,,,,,,,,1,6.0571,,0,0,15,15,2,1,stimuli/stim_20210706_power2amp/equal_lnn_AM0.6Hz_s35_22.m4a,,,,,,,,,,,,
,,,,,,,,,,,,41876,2021-09-26_16h29.12.570,judgeSpeechMusic_20210921_logNormShiftAmp_detection_fixS,2020.1.2,MacIntel,60,,,,,,,,,,,,,,,,,,1,5.8696,,0,0,16,16,23,1,stimuli/stim_20210706_power2amp/equal_lnn_AM1.2Hz_s35_35.m4a,,,,,,,,,,,,
,,,,,,,,,,,,41876,2021-09-26_16h29.12.570,judgeSpeechMusic_20210921_logNormShiftAmp_detection_fixS,2020.1.2,MacIntel,60,,,,,,,,,,,,,,,,,,1,6.8705,,0,0,17,17,40,1,stimuli/stim_20210706_power2amp/equal_lnn_AM2.4Hz_s35_43.m4a,,,,,,,,,,,,
,,,,,,,,,,,,41876,2021-09-26_16h29.12.570,judgeSpeechMusic_20210921_logNormShiftAmp_detection_fixS,2020.1.2,MacIntel,60,,,,,,,,,,,,,,,,,,2,8.9361,,0,0,18,18,35,1,stimuli/stim_20210706_power2amp/equal_lnn_AM2.4Hz_s35_21.m4a,,,,,,,,,,,,
,,,,,,,,,,,,41876,2021-09-26_16h29.12.570,judgeSpeechMusic_20210921_logNormShiftAmp_detection_fixS,2020.1.2,MacIntel,60,,,,,,,,,,,,,,,,,,1,8.0968,4,1,0,19,19,41,1,stimuli/stim_20210706_power2amp/equal_lnn_AM2.4Hz_s35_49.m4a,5.8073,,,,,,,,,,,
,,,,,,,,,,,,41876,2021-09-26_16h29.12.570,judgeSpeechMusic_20210921_logNormShiftAmp_detection_fixS,2020.1.2,MacIntel,60,,,,,,,,,,,,,,,,,,1,18.3984,,0,0,20,20,65,1,stimuli/stim_20210706_power2amp/equal_lnn_AM4.2Hz_s35_34.m4a,,,,,,,,,,,,
,,,,,,,,,,,,41876,2021-09-26_16h29.12.570,judgeSpeechMusic_20210921_logNormShiftAmp_detection_fixS,2020.1.2,MacIntel,60,,,,,,,,,,,,,,,,,,2,6.9861,,0,0,21,21,16,1,stimuli/stim_20210706_power2amp/equal_lnn_AM1.2Hz_s35_15.m4a,,,,,,,,,,,,
,,,,,,,,,,,,41876,2021-09-26_16h29.12.570,judgeSpeechMusic_20210921_logNormShiftAmp_detection_fixS,2020.1.2,MacIntel,60,,,,,,,,,,,,,,,,,,2,5.7529,,0,0,22,22,46,1,stimuli/stim_20210706_power2amp/equal_lnn_AM3.6Hz_s35_47.m4a,,,,,,,,,,,,
,,,,,,,,,,,,41876,2021-09-26_16h29.12.570,judgeSpeechMusic_20210921_logNormShiftAmp_detection_fixS,2020.1.2,MacIntel,60,,,,,,,,,,,,,,,,,,1,9.9922,,0,0,23,23,30,1,stimuli/stim_20210706_power2amp/equal_lnn_AM2.4Hz_s35_40.m4a,,,,,,,,,,,,
,,,,,,,,,,,,41876,2021-09-26_16h29.12.570,judgeSpeechMusic_20210921_logNormShiftAmp_detection_fixS,2020.1.2,MacIntel,60,,,,,,,,,,,,,,,,,,2,7.4305,,0,0,24,24,32,1,stimuli/stim_20210706_power2amp/equal_lnn_AM2.4Hz_s35_35.m4a,,,,,,,,,,,,
,,,,,,,,,,,,41876,2021-09-26_16h29.12.570,judgeSpeechMusic_20210921_logNormShiftAmp_detection_fixS,2020.1.2,MacIntel,60,,,,,,,,,,,,,,,,,,1,7.37,,0,0,25,25,13,1,stimuli/stim_20210706_power2amp/equal_lnn_AM0.6Hz_s35_19.m4a,,,,,,,,,,,,
,,,,,,,,,,,,41876,2021-09-26_16h29.12.570,judgeSpeechMusic_20210921_logNormShiftAmp_detection_fixS,2020.1.2,MacIntel,60,,,,,,,,,,,,,,,,,,2,6.9215,,0,0,26,26,56,1,stimuli/stim_20210706_power2amp/equal_lnn_AM3.6Hz_s35_49.m4a,,,,,,,,,,,,
,,,,,,,,,,,,41876,2021-09-26_16h29.12.570,judgeSpeechMusic_20210921_logNormShiftAmp_detection_fixS,2020.1.2,MacIntel,60,,,,,,,,,,,,,,,,,,2,7.1125,,0,0,27,27,73,1,stimuli/stim_20210706_power2amp/equal_lnn_AM4.2Hz_s35_19.m4a,,,,,,,,,,,,
,,,,,,,,,,,,41876,2021-09-26_16h29.12.570,judgeSpeechMusic_20210921_logNormShiftAmp_detection_fixS,2020.1.2,MacIntel,60,,,,,,,,,,,,,,,,,,2,6.6743,,0,0,28,28,62,1,stimuli/stim_20210706_power2amp/equal_lnn_AM4.2Hz_s35_30.m4a,,,,,,,,,,,,
,,,,,,,,,,,,41876,2021-09-26_16h29.12.570,judgeSpeechMusic_20210921_logNormShiftAmp_detection_fixS,2020.1.2,MacIntel,60,,,,,,,,,,,,,,,,,,2,8.5438,,0,0,29,29,61,1,stimuli/stim_20210706_power2amp/equal_lnn_AM4.2Hz_s35_47.m4a,,,,,,,,,,,,
,,,,,,,,,,,,41876,2021-09-26_16h29.12.570,judgeSpeechMusic_20210921_logNormShiftAmp_detection_fixS,2020.1.2,MacIntel,60,,,,,,,,,,,,,,,,,,1,6.0376,,0,0,30,30,26,1,stimuli/stim_20210706_power2amp/equal_lnn_AM1.2Hz_s35_2.m4a,,,,,,,,,,,,
,,,,,,,,,,,,41876,2021-09-26_16h29.12.570,judgeSpeechMusic_20210921_logNormShiftAmp_detection_fixS,2020.1.2,MacIntel,60,,,,,,,,,,,,,,,,,,2,6.8869,,0,0,31,31,22,1,stimuli/stim_20210706_power2amp/equal_lnn_AM1.2Hz_s35_9.m4a,,,,,,,,,,,,
,,,,,,,,,,,,41876,2021-09-26_16h29.12.570,judgeSpeechMusic_20210921_logNormShiftAmp_detection_fixS,2020.1.2,MacIntel,60,,,,,,,,,,,,,,,,,,2,6.9657,,0,0,32,32,74,1,stimuli/stim_20210706_power2amp/equal_lnn_AM4.2Hz_s35_46.m4a,,,,,,,,,,,,
,,,,,,,,,,,,41876,2021-09-26_16h29.12.570,judgeSpeechMusic_20210921_logNormShiftAmp_detection_fixS,2020.1.2,MacIntel,60,,,,,,,,,,,,,,,,,,1,10.094,,0,0,33,33,17,1,stimuli/stim_20210706_power2amp/equal_lnn_AM1.2Hz_s35_43.m4a,,,,,,,,,,,,
,,,,,,,,,,,,41876,2021-09-26_16h29.12.570,judgeSpeechMusic_20210921_logNormShiftAmp_detection_fixS,2020.1.2,MacIntel,60,,,,,,,,,,,,,,,,,,2,6.6359,,0,0,34,34,38,1,stimuli/stim_20210706_power2amp/equal_lnn_AM2.4Hz_s35_50.m4a,,,,,,,,,,,,
,,,,,,,,,,,,41876,2021-09-26_16h29.12.570,judgeSpeechMusic_20210921_logNormShiftAmp_detection_fixS,2020.1.2,MacIntel,60,,,,,,,,,,,,,,,,,,2,5.9415,,0,0,35,35,70,1,stimuli/stim_20210706_power2amp/equal_lnn_AM4.2Hz_s35_10.m4a,,,,,,,,,,,,
,,,,,,,,,,,,41876,2021-09-26_16h29.12.570,judgeSpeechMusic_20210921_logNormShiftAmp_detection_fixS,2020.1.2,MacIntel,60,,,,,,,,,,,,,,,,,,1,6.5024,,0,0,36,36,25,1,stimuli/stim_20210706_power2amp/equal_lnn_AM1.2Hz_s35_33.m4a,,,,,,,,,,,,
,,,,,,,,,,,,41876,2021-09-26_16h29.12.570,judgeSpeechMusic_20210921_logNormShiftAmp_detection_fixS,2020.1.2,MacIntel,60,,,,,,,,,,,,,,,,,,1,6.1419,,0,0,37,37,33,1,stimuli/stim_20210706_power2amp/equal_lnn_AM2.4Hz_s35_9.m4a,,,,,,,,,,,,
,,,,,,,,,,,,41876,2021-09-26_16h29.12.570,judgeSpeechMusic_20210921_logNormShiftAmp_detection_fixS,2020.1.2,MacIntel,60,,,,,,,,,,,,,,,,,,1,13.0238,,0,0,38,38,63,1,stimuli/stim_20210706_power2amp/equal_lnn_AM4.2Hz_s35_9.m4a,,,,,,,,,,,,
,,,,,,,,,,,,41876,2021-09-26_16h29.12.570,judgeSpeechMusic_20210921_logNormShiftAmp_detection_fixS,2020.1.2,MacIntel,60,,,,,,,,,,,,,,,,,,1,10.5026,,0,0,39,39,24,1,stimuli/stim_20210706_power2amp/equal_lnn_AM1.2Hz_s35_29.m4a,,,,,,,,,,,,
,,,,,,,,,,,,41876,2021-09-26_16h29.12.570,judgeSpeechMusic_20210921_logNormShiftAmp_detection_fixS,2020.1.2,MacIntel,60,,,,,,,,,,,,,,,,,,2,5.9553,3,1,0,40,40,48,1,stimuli/stim_20210706_power2amp/equal_lnn_AM3.6Hz_s35_6.m4a,1.4095,,,,,,,,,,,
,,,,,,,,,,,,41876,2021-09-26_16h29.12.570,judgeSpeechMusic_20210921_logNormShiftAmp_detection_fixS,2020.1.2,MacIntel,60,,,,,,,,,,,,,,,,,,1,6.5078,,0,0,41,41,11,1,stimuli/stim_20210706_power2amp/equal_lnn_AM0.6Hz_s35_28.m4a,,,,,,,,,,,,
,,,,,,,,,,,,41876,2021-09-26_16h29.12.570,judgeSpeechMusic_20210921_logNormShiftAmp_detection_fixS,2020.1.2,MacIntel,60,,,,,,,,,,,,,,,,,,2,8.9355,,0,0,42,42,71,1,stimuli/stim_20210706_power2amp/equal_lnn_AM4.2Hz_s35_48.m4a,,,,,,,,,,,,
,,,,,,,,,,,,41876,2021-09-26_16h29.12.570,judgeSpeechMusic_20210921_logNormShiftAmp_detection_fixS,2020.1.2,MacIntel,60,,,,,,,,,,,,,,,,,,1,7.1357,,0,0,43,43,47,1,stimuli/stim_20210706_power2amp/equal_lnn_AM3.6Hz_s35_15.m4a,,,,,,,,,,,,
,,,,,,,,,,,,41876,2021-09-26_16h29.12.570,judgeSpeechMusic_20210921_logNormShiftAmp_detection_fixS,2020.1.2,MacIntel,60,,,,,,,,,,,,,,,,,,1,12.5729,,0,0,44,44,15,1,stimuli/stim_20210706_power2amp/equal_lnn_AM1.2Hz_s35_50.m4a,,,,,,,,,,,,
,,,,,,,,,,,,41876,2021-09-26_16h29.12.570,judgeSpeechMusic_20210921_logNormShiftAmp_detection_fixS,2020.1.2,MacIntel,60,,,,,,,,,,,,,,,,,,1,5.8698,,0,0,45,45,19,1,stimuli/stim_20210706_power2amp/equal_lnn_AM1.2Hz_s35_20.m4a,,,,,,,,,,,,
,,,,,,,,,,,,41876,2021-09-26_16h29.12.570,judgeSpeechMusic_20210921_logNormShiftAmp_detection_fixS,2020.1.2,MacIntel,60,,,,,,,,,,,,,,,,,,1,6.007,,0,0,46,46,27,1,stimuli/stim_20210706_power2amp/equal_lnn_AM1.2Hz_s35_44.m4a,,,,,,,,,,,,
,,,,,,,,,,,,41876,2021-09-26_16h29.12.570,judgeSpeechMusic_20210921_logNormShiftAmp_detection_fixS,2020.1.2,MacIntel,60,,,,,,,,,,,,,,,,,,1,7.7611,,0,0,47,47,64,1,stimuli/stim_20210706_power2amp/equal_lnn_AM4.2Hz_s35_50.m4a,,,,,,,,,,,,
,,,,,,,,,,,,41876,2021-09-26_16h29.12.570,judgeSpeechMusic_20210921_logNormShiftAmp_detection_fixS,2020.1.2,MacIntel,60,,,,,,,,,,,,,,,,,,1,10.1091,,0,0,48,48,6,1,stimuli/stim_20210706_power2amp/equal_lnn_AM0.6Hz_s35_12.m4a,,,,,,,,,,,,
,,,,,,,,,,,,41876,2021-09-26_16h29.12.570,judgeSpeechMusic_20210921_logNormShiftAmp_detection_fixS,2020.1.2,MacIntel,60,,,,,,,,,,,,,,,,,,1,6.1272,,0,0,49,49,8,1,stimuli/stim_20210706_power2amp/equal_lnn_AM0.6Hz_s35_47.m4a,,,,,,,,,,,,
,,,,,,,,,,,,41876,2021-09-26_16h29.12.570,judgeSpeechMusic_20210921_logNormShiftAmp_detection_fixS,2020.1.2,MacIntel,60,,,,,,,,,,,,,,,,,,1,5.6569,,0,0,50,50,3,1,stimuli/stim_20210706_power2amp/equal_lnn_AM0.6Hz_s35_38.m4a,,,,,,,,,,,,
,,,,,,,,,,,,41876,2021-09-26_16h29.12.570,judgeSpeechMusic_20210921_logNormShiftAmp_detection_fixS,2020.1.2,MacIntel,60,,,,,,,,,,,,,,,,,,1,5.7226,,0,0,51,51,12,1,stimuli/stim_20210706_power2amp/equal_lnn_AM0.6Hz_s35_29.m4a,,,,,,,,,,,,
,,,,,,,,,,,,41876,2021-09-26_16h29.12.570,judgeSpeechMusic_20210921_logNormShiftAmp_detection_fixS,2020.1.2,MacIntel,60,,,,,,,,,,,,,,,,,,2,5.7754,,0,0,52,52,52,1,stimuli/stim_20210706_power2amp/equal_lnn_AM3.6Hz_s35_19.m4a,,,,,,,,,,,,
,,,,,,,,,,,,41876,2021-09-26_16h29.12.570,judgeSpeechMusic_20210921_logNormShiftAmp_detection_fixS,2020.1.2,MacIntel,60,,,,,,,,,,,,,,,,,,1,5.6925,,0,0,53,53,21,1,stimuli/stim_20210706_power2amp/equal_lnn_AM1.2Hz_s35_25.m4a,,,,,,,,,,,,
,,,,,,,,,,,,41876,2021-09-26_16h29.12.570,judgeSpeechMusic_20210921_logNormShiftAmp_detection_fixS,2020.1.2,MacIntel,60,,,,,,,,,,,,,,,,,,2,6.2029,,0,0,54,54,34,1,stimuli/stim_20210706_power2amp/equal_lnn_AM2.4Hz_s35_18.m4a,,,,,,,,,,,,
,,,,,,,,,,,,41876,2021-09-26_16h29.12.570,judgeSpeechMusic_20210921_logNormShiftAmp_detection_fixS,2020.1.2,MacIntel,60,,,,,,,,,,,,,,,,,,2,6.3534,,0,0,55,55,50,1,stimuli/stim_20210706_power2amp/equal_lnn_AM3.6Hz_s35_10.m4a,,,,,,,,,,,,
,,,,,,,,,,,,41876,2021-09-26_16h29.12.570,judgeSpeechMusic_20210921_logNormShiftAmp_detection_fixS,2020.1.2,MacIntel,60,,,,,,,,,,,,,,,,,,1,6.2342,,0,0,56,56,28,1,stimuli/stim_20210706_power2amp/equal_lnn_AM1.2Hz_s35_5.m4a,,,,,,,,,,,,
,,,,,,,,,,,,41876,2021-09-26_16h29.12.570,judgeSpeechMusic_20210921_logNormShiftAmp_detection_fixS,2020.1.2,MacIntel,60,,,,,,,,,,,,,,,,,,2,5.687,,0,0,57,57,45,1,stimuli/stim_20210706_power2amp/equal_lnn_AM3.6Hz_s35_27.m4a,,,,,,,,,,,,
,,,,,,,,,,,,41876,2021-09-26_16h29.12.570,judgeSpeechMusic_20210921_logNormShiftAmp_detection_fixS,2020.1.2,MacIntel,60,,,,,,,,,,,,,,,,,,2,5.7861,3,1,0,58,58,44,1,stimuli/stim_20210706_power2amp/equal_lnn_AM2.4Hz_s35_16.m4a,1.2328,,,,,,,,,,,
,,,,,,,,,,,,41876,2021-09-26_16h29.12.570,judgeSpeechMusic_20210921_logNormShiftAmp_detection_fixS,2020.1.2,MacIntel,60,,,,,,,,,,,,,,,,,,2,5.8932,,0,0,59,59,39,1,stimuli/stim_20210706_power2amp/equal_lnn_AM2.4Hz_s35_24.m4a,,,,,,,,,,,,
,,,,,,,,,,,,41876,2021-09-26_16h29.12.570,judgeSpeechMusic_20210921_logNormShiftAmp_detection_fixS,2020.1.2,MacIntel,60,,,,,,,,,,,,,,,,,,1,7.6561,,0,0,60,60,36,1,stimuli/stim_20210706_power2amp/equal_lnn_AM2.4Hz_s35_36.m4a,,,,,,,,,,,,
,,,,,,,,,,,,41876,2021-09-26_16h29.12.570,judgeSpeechMusic_20210921_logNormShiftAmp_detection_fixS,2020.1.2,MacIntel,60,,,,,,,,,,,,,,,,,,2,7.5926,,0,0,61,61,59,1,stimuli/stim_20210706_power2amp/equal_lnn_AM3.6Hz_s35_40.m4a,,,,,,,,,,,,
,,,,,,,,,,,,41876,2021-09-26_16h29.12.570,judgeSpeechMusic_20210921_logNormShiftAmp_detection_fixS,2020.1.2,MacIntel,60,,,,,,,,,,,,,,,,,,1,21.2782,,0,0,62,62,31,1,stimuli/stim_20210706_power2amp/equal_lnn_AM2.4Hz_s35_14.m4a,,,,,,,,,,,,
,,,,,,,,,,,,41876,2021-09-26_16h29.12.570,judgeSpeechMusic_20210921_logNormShiftAmp_detection_fixS,2020.1.2,MacIntel,60,,,,,,,,,,,,,,,,,,1,6.1058,,0,0,63,63,66,1,stimuli/stim_20210706_power2amp/equal_lnn_AM4.2Hz_s35_31.m4a,,,,,,,,,,,,
,,,,,,,,,,,,41876,2021-09-26_16h29.12.570,judgeSpeechMusic_20210921_logNormShiftAmp_detection_fixS,2020.1.2,MacIntel,60,,,,,,,,,,,,,,,,,,1,5.6855,,0,0,64,64,0,1,stimuli/stim_20210706_power2amp/equal_lnn_AM0.6Hz_s35_49.m4a,,,,,,,,,,,,
,,,,,,,,,,,,41876,2021-09-26_16h29.12.570,judgeSpeechMusic_20210921_logNormShiftAmp_detection_fixS,2020.1.2,MacIntel,60,,,,,,,,,,,,,,,,,,1,6.0824,,0,0,65,65,58,1,stimuli/stim_20210706_power2amp/equal_lnn_AM3.6Hz_s35_43.m4a,,,,,,,,,,,,
,,,,,,,,,,,,41876,2021-09-26_16h29.12.570,judgeSpeechMusic_20210921_logNormShiftAmp_detection_fixS,2020.1.2,MacIntel,60,,,,,,,,,,,,,,,,,,1,6.1559,,0,0,66,66,14,1,stimuli/stim_20210706_power2amp/equal_lnn_AM0.6Hz_s35_50.m4a,,,,,,,,,,,,
,,,,,,,,,,,,41876,2021-09-26_16h29.12.570,judgeSpeechMusic_20210921_logNormShiftAmp_detection_fixS,2020.1.2,MacIntel,60,,,,,,,,,,,,,,,,,,2,6.7387,,0,0,67,67,57,1,stimuli/stim_20210706_power2amp/equal_lnn_AM3.6Hz_s35_33.m4a,,,,,,,,,,,,
,,,,,,,,,,,,41876,2021-09-26_16h29.12.570,judgeSpeechMusic_20210921_logNormShiftAmp_detection_fixS,2020.1.2,MacIntel,60,,,,,,,,,,,,,,,,,,2,5.8372,,0,0,68,68,29,1,stimuli/stim_20210706_power2amp/equal_lnn_AM1.2Hz_s35_47.m4a,,,,,,,,,,,,
,,,,,,,,,,,,41876,2021-09-26_16h29.12.570,judgeSpeechMusic_20210921_logNormShiftAmp_detection_fixS,2020.1.2,MacIntel,60,,,,,,,,,,,,,,,,,,2,7.6854,,0,0,69,69,72,1,stimuli/stim_20210706_power2amp/equal_lnn_AM4.2Hz_s35_13.m4a,,,,,,,,,,,,
,,,,,,,,,,,,41876,2021-09-26_16h29.12.570,judgeSpeechMusic_20210921_logNormShiftAmp_detection_fixS,2020.1.2,MacIntel,60,,,,,,,,,,,,,,,,,,1,7.5198,,0,0,70,70,7,1,stimuli/stim_20210706_power2amp/equal_lnn_AM0.6Hz_s35_18.m4a,,,,,,,,,,,,
,,,,,,,,,,,,41876,2021-09-26_16h29.12.570,judgeSpeechMusic_20210921_logNormShiftAmp_detection_fixS,2020.1.2,MacIntel,60,,,,,,,,,,,,,,,,,,1,9.2967,,0,0,71,71,53,1,stimuli/stim_20210706_power2amp/equal_lnn_AM3.6Hz_s35_18.m4a,,,,,,,,,,,,
,,,,,,,,,,,,41876,2021-09-26_16h29.12.570,judgeSpeechMusic_20210921_logNormShiftAmp_detection_fixS,2020.1.2,MacIntel,60,,,,,,,,,,,,,,,,,,1,10.4688,,0,0,72,72,69,1,stimuli/stim_20210706_power2amp/equal_lnn_AM4.2Hz_s35_38.m4a,,,,,,,,,,,,
,,,,,,,,,,,,41876,2021-09-26_16h29.12.570,judgeSpeechMusic_20210921_logNormShiftAmp_detection_fixS,2020.1.2,MacIntel,60,,,,,,,,,,,,,,,,,,1,5.9564,,0,0,73,73,68,1,stimuli/stim_20210706_power2amp/equal_lnn_AM4.2Hz_s35_16.m4a,,,,,,,,,,,,
,,,,,,,,,,,,41876,2021-09-26_16h29.12.570,judgeSpeechMusic_20210921_logNormShiftAmp_detection_fixS,2020.1.2,MacIntel,60,,,,,,,,,,,,,,,,,,1,8.3897,,0,0,74,74,1,1,stimuli/stim_20210706_power2amp/equal_lnn_AM0.6Hz_s35_24.m4a,,,,,,,,,,,,
,,,,,,,,,,,,41876,2021-09-26_16h29.12.570,judgeSpeechMusic_20210921_logNormShiftAmp_detection_fixS,2020.1.2,MacIntel,60,,,,,,,,,,,,,,,,,,,,,,,,,,,,,space,0.7718,1,0,2,1,1,SPEECH,stimuli/SPEECH.jpg,,
,,,,,,,,,,,,41876,2021-09-26_16h29.12.570,judgeSpeechMusic_20210921_logNormShiftAmp_detection_fixS,2020.1.2,MacIntel,60,,,,,,0,0,0,0,0,1,stimuli/stim_20210706_power2amp/equal_lnn_AM_training0.9Hz_s35.m4a,,,,,,,,,,,,,,,,,,,,,,,,,,,
,,,,,,,,,,,,41876,2021-09-26_16h29.12.570,judgeSpeechMusic_20210921_logNormShiftAmp_detection_fixS,2020.1.2,MacIntel,60,,,,,,,,,,,,,,space,4.1376,space,0.9176,1,6.4848,,0,0,0,0,7,1,stimuli/stim_20210706_power2amp/equal_lnn_AM0.6Hz_s35_18.m4a,,,,,,,,,,,,
,,,,,,,,,,,,41876,2021-09-26_16h29.12.570,judgeSpeechMusic_20210921_logNormShiftAmp_detection_fixS,2020.1.2,MacIntel,60,,,,,,,,,,,,,,,,,,2,5.8685,,0,0,1,1,40,1,stimuli/stim_20210706_power2amp/equal_lnn_AM2.4Hz_s35_43.m4a,,,,,,,,,,,,
,,,,,,,,,,,,41876,2021-09-26_16h29.12.570,judgeSpeechMusic_20210921_logNormShiftAmp_detection_fixS,2020.1.2,MacIntel,60,,,,,,,,,,,,,,,,,,2,7.0414,,0,0,2,2,38,1,stimuli/stim_20210706_power2amp/equal_lnn_AM2.4Hz_s35_50.m4a,,,,,,,,,,,,
,,,,,,,,,,,,41876,2021-09-26_16h29.12.570,judgeSpeechMusic_20210921_logNormShiftAmp_detection_fixS,2020.1.2,MacIntel,60,,,,,,,,,,,,,,,,,,2,6.2285,,0,0,3,3,49,1,stimuli/stim_20210706_power2amp/equal_lnn_AM3.6Hz_s35_13.m4a,,,,,,,,,,,,
,,,,,,,,,,,,41876,2021-09-26_16h29.12.570,judgeSpeechMusic_20210921_logNormShiftAmp_detection_fixS,2020.1.2,MacIntel,60,,,,,,,,,,,,,,,,,,2,5.9104,,0,0,4,4,46,1,stimuli/stim_20210706_power2amp/equal_lnn_AM3.6Hz_s35_47.m4a,,,,,,,,,,,,
,,,,,,,,,,,,41876,2021-09-26_16h29.12.570,judgeSpeechMusic_20210921_logNormShiftAmp_detection_fixS,2020.1.2,MacIntel,60,,,,,,,,,,,,,,,,,,2,6.8216,,0,0,5,5,24,1,stimuli/stim_20210706_power2amp/equal_lnn_AM1.2Hz_s35_29.m4a,,,,,,,,,,,,
,,,,,,,,,,,,41876,2021-09-26_16h29.12.570,judgeSpeechMusic_20210921_logNormShiftAmp_detection_fixS,2020.1.2,MacIntel,60,,,,,,,,,,,,,,,,,,1,11.4514,,0,0,6,6,20,1,stimuli/stim_20210706_power2amp/equal_lnn_AM1.2Hz_s35_21.m4a,,,,,,,,,,,,
,,,,,,,,,,,,41876,2021-09-26_16h29.12.570,judgeSpeechMusic_20210921_logNormShiftAmp_detection_fixS,2020.1.2,MacIntel,60,,,,,,,,,,,,,,,,,,1,19.0605,,0,0,7,7,8,1,stimuli/stim_20210706_power2amp/equal_lnn_AM0.6Hz_s35_47.m4a,,,,,,,,,,,,
,,,,,,,,,,,,41876,2021-09-26_16h29.12.570,judgeSpeechMusic_20210921_logNormShiftAmp_detection_fixS,2020.1.2,MacIntel,60,,,,,,,,,,,,,,,,,,1,6.0161,,0,0,8,8,66,1,stimuli/stim_20210706_power2amp/equal_lnn_AM4.2Hz_s35_31.m4a,,,,,,,,,,,,
,,,,,,,,,,,,41876,2021-09-26_16h29.12.570,judgeSpeechMusic_20210921_logNormShiftAmp_detection_fixS,2020.1.2,MacIntel,60,,,,,,,,,,,,,,,,,,1,5.6508,,0,0,9,9,27,1,stimuli/stim_20210706_power2amp/equal_lnn_AM1.2Hz_s35_44.m4a,,,,,,,,,,,,
,,,,,,,,,,,,41876,2021-09-26_16h29.12.570,judgeSpeechMusic_20210921_logNormShiftAmp_detection_fixS,2020.1.2,MacIntel,60,,,,,,,,,,,,,,,,,,2,5.7483,,0,0,10,10,72,1,stimuli/stim_20210706_power2amp/equal_lnn_AM4.2Hz_s35_13.m4a,,,,,,,,,,,,
,,,,,,,,,,,,41876,2021-09-26_16h29.12.570,judgeSpeechMusic_20210921_logNormShiftAmp_detection_fixS,2020.1.2,MacIntel,60,,,,,,,,,,,,,,,,,,2,5.7031,,0,0,11,11,55,1,stimuli/stim_20210706_power2amp/equal_lnn_AM3.6Hz_s35_41.m4a,,,,,,,,,,,,
,,,,,,,,,,,,41876,2021-09-26_16h29.12.570,judgeSpeechMusic_20210921_logNormShiftAmp_detection_fixS,2020.1.2,MacIntel,60,,,,,,,,,,,,,,,,,,2,5.6461,,0,0,12,12,59,1,stimuli/stim_20210706_power2amp/equal_lnn_AM3.6Hz_s35_40.m4a,,,,,,,,,,,,
,,,,,,,,,,,,41876,2021-09-26_16h29.12.570,judgeSpeechMusic_20210921_logNormShiftAmp_detection_fixS,2020.1.2,MacIntel,60,,,,,,,,,,,,,,,,,,1,5.687,,0,0,13,13,16,1,stimuli/stim_20210706_power2amp/equal_lnn_AM1.2Hz_s35_15.m4a,,,,,,,,,,,,
,,,,,,,,,,,,41876,2021-09-26_16h29.12.570,judgeSpeechMusic_20210921_logNormShiftAmp_detection_fixS,2020.1.2,MacIntel,60,,,,,,,,,,,,,,,,,,1,6.0464,,0,0,14,14,63,1,stimuli/stim_20210706_power2amp/equal_lnn_AM4.2Hz_s35_9.m4a,,,,,,,,,,,,
,,,,,,,,,,,,41876,2021-09-26_16h29.12.570,judgeSpeechMusic_20210921_logNormShiftAmp_detection_fixS,2020.1.2,MacIntel,60,,,,,,,,,,,,,,,,,,2,6.0558,,0,0,15,15,58,1,stimuli/stim_20210706_power2amp/equal_lnn_AM3.6Hz_s35_43.m4a,,,,,,,,,,,,
,,,,,,,,,,,,41876,2021-09-26_16h29.12.570,judgeSpeechMusic_20210921_logNormShiftAmp_detection_fixS,2020.1.2,MacIntel,60,,,,,,,,,,,,,,,,,,2,5.7223,,0,0,16,16,71,1,stimuli/stim_20210706_power2amp/equal_lnn_AM4.2Hz_s35_48.m4a,,,,,,,,,,,,
,,,,,,,,,,,,41876,2021-09-26_16h29.12.570,judgeSpeechMusic_20210921_logNormShiftAmp_detection_fixS,2020.1.2,MacIntel,60,,,,,,,,,,,,,,,,,,2,6.2851,,0,0,17,17,74,1,stimuli/stim_20210706_power2amp/equal_lnn_AM4.2Hz_s35_46.m4a,,,,,,,,,,,,
,,,,,,,,,,,,41876,2021-09-26_16h29.12.570,judgeSpeechMusic_20210921_logNormShiftAmp_detection_fixS,2020.1.2,MacIntel,60,,,,,,,,,,,,,,,,,,1,5.8318,,0,0,18,18,41,1,stimuli/stim_20210706_power2amp/equal_lnn_AM2.4Hz_s35_49.m4a,,,,,,,,,,,,
,,,,,,,,,,,,41876,2021-09-26_16h29.12.570,judgeSpeechMusic_20210921_logNormShiftAmp_detection_fixS,2020.1.2,MacIntel,60,,,,,,,,,,,,,,,,,,1,6.0023,1,1,0,19,19,25,1,stimuli/stim_20210706_power2amp/equal_lnn_AM1.2Hz_s35_33.m4a,1.1723,,,,,,,,,,,
,,,,,,,,,,,,41876,2021-09-26_16h29.12.570,judgeSpeechMusic_20210921_logNormShiftAmp_detection_fixS,2020.1.2,MacIntel,60,,,,,,,,,,,,,,,,,,2,5.8679,,0,0,20,20,33,1,stimuli/stim_20210706_power2amp/equal_lnn_AM2.4Hz_s35_9.m4a,,,,,,,,,,,,
,,,,,,,,,,,,41876,2021-09-26_16h29.12.570,judgeSpeechMusic_20210921_logNormShiftAmp_detection_fixS,2020.1.2,MacIntel,60,,,,,,,,,,,,,,,,,,1,9.3717,,0,0,21,21,60,1,stimuli/stim_20210706_power2amp/equal_lnn_AM4.2Hz_s35_26.m4a,,,,,,,,,,,,
,,,,,,,,,,,,41876,2021-09-26_16h29.12.570,judgeSpeechMusic_20210921_logNormShiftAmp_detection_fixS,2020.1.2,MacIntel,60,,,,,,,,,,,,,,,,,,1,7.5211,,0,0,22,22,44,1,stimuli/stim_20210706_power2amp/equal_lnn_AM2.4Hz_s35_16.m4a,,,,,,,,,,,,
,,,,,,,,,,,,41876,2021-09-26_16h29.12.570,judgeSpeechMusic_20210921_logNormShiftAmp_detection_fixS,2020.1.2,MacIntel,60,,,,,,,,,,,,,,,,,,1,15.6312,,0,0,23,23,29,1,stimuli/stim_20210706_power2amp/equal_lnn_AM1.2Hz_s35_47.m4a,,,,,,,,,,,,
,,,,,,,,,,,,41876,2021-09-26_16h29.12.570,judgeSpeechMusic_20210921_logNormShiftAmp_detection_fixS,2020.1.2,MacIntel,60,,,,,,,,,,,,,,,,,,2,5.8184,,0,0,24,24,50,1,stimuli/stim_20210706_power2amp/equal_lnn_AM3.6Hz_s35_10.m4a,,,,,,,,,,,,
,,,,,,,,,,,,41876,2021-09-26_16h29.12.570,judgeSpeechMusic_20210921_logNormShiftAmp_detection_fixS,2020.1.2,MacIntel,60,,,,,,,,,,,,,,,,,,2,6.3068,,0,0,25,25,23,1,stimuli/stim_20210706_power2amp/equal_lnn_AM1.2Hz_s35_35.m4a,,,,,,,,,,,,
,,,,,,,,,,,,41876,2021-09-26_16h29.12.570,judgeSpeechMusic_20210921_logNormShiftAmp_detection_fixS,2020.1.2,MacIntel,60,,,,,,,,,,,,,,,,,,2,9.5932,,0,0,26,26,26,1,stimuli/stim_20210706_power2amp/equal_lnn_AM1.2Hz_s35_2.m4a,,,,,,,,,,,,
,,,,,,,,,,,,41876,2021-09-26_16h29.12.570,judgeSpeechMusic_20210921_logNormShiftAmp_detection_fixS,2020.1.2,MacIntel,60,,,,,,,,,,,,,,,,,,2,11.1486,,0,0,27,27,22,1,stimuli/stim_20210706_power2amp/equal_lnn_AM1.2Hz_s35_9.m4a,,,,,,,,,,,,
,,,,,,,,,,,,41876,2021-09-26_16h29.12.570,judgeSpeechMusic_20210921_logNormShiftAmp_detection_fixS,2020.1.2,MacIntel,60,,,,,,,,,,,,,,,,,,2,11.7893,,0,0,28,28,36,1,stimuli/stim_20210706_power2amp/equal_lnn_AM2.4Hz_s35_36.m4a,,,,,,,,,,,,
,,,,,,,,,,,,41876,2021-09-26_16h29.12.570,judgeSpeechMusic_20210921_logNormShiftAmp_detection_fixS,2020.1.2,MacIntel,60,,,,,,,,,,,,,,,,,,2,17.121,,0,0,29,29,37,1,stimuli/stim_20210706_power2amp/equal_lnn_AM2.4Hz_s35_37.m4a,,,,,,,,,,,,
,,,,,,,,,,,,41876,2021-09-26_16h29.12.570,judgeSpeechMusic_20210921_logNormShiftAmp_detection_fixS,2020.1.2,MacIntel,60,,,,,,,,,,,,,,,,,,1,11.3712,,0,0,30,30,48,1,stimuli/stim_20210706_power2amp/equal_lnn_AM3.6Hz_s35_6.m4a,,,,,,,,,,,,
,,,,,,,,,,,,41876,2021-09-26_16h29.12.570,judgeSpeechMusic_20210921_logNormShiftAmp_detection_fixS,2020.1.2,MacIntel,60,,,,,,,,,,,,,,,,,,1,6.192,,0,0,31,31,13,1,stimuli/stim_20210706_power2amp/equal_lnn_AM0.6Hz_s35_19.m4a,,,,,,,,,,,,
,,,,,,,,,,,,41876,2021-09-26_16h29.12.570,judgeSpeechMusic_20210921_logNormShiftAmp_detection_fixS,2020.1.2,MacIntel,60,,,,,,,,,,,,,,,,,,1,5.9724,,0,0,32,32,52,1,stimuli/stim_20210706_power2amp/equal_lnn_AM3.6Hz_s35_19.m4a,,,,,,,,,,,,
,,,,,,,,,,,,41876,2021-09-26_16h29.12.570,judgeSpeechMusic_20210921_logNormShiftAmp_detection_fixS,2020.1.2,MacIntel,60,,,,,,,,,,,,,,,,,,1,11.6584,,0,0,33,33,17,1,stimuli/stim_20210706_power2amp/equal_lnn_AM1.2Hz_s35_43.m4a,,,,,,,,,,,,
,,,,,,,,,,,,41876,2021-09-26_16h29.12.570,judgeSpeechMusic_20210921_logNormShiftAmp_detection_fixS,2020.1.2,MacIntel,60,,,,,,,,,,,,,,,,,,1,18.9329,,0,0,34,34,69,1,stimuli/stim_20210706_power2amp/equal_lnn_AM4.2Hz_s35_38.m4a,,,,,,,,,,,,
,,,,,,,,,,,,41876,2021-09-26_16h29.12.570,judgeSpeechMusic_20210921_logNormShiftAmp_detection_fixS,2020.1.2,MacIntel,60,,,,,,,,,,,,,,,,,,1,19.6019,,0,0,35,35,2,1,stimuli/stim_20210706_power2amp/equal_lnn_AM0.6Hz_s35_22.m4a,,,,,,,,,,,,
,,,,,,,,,,,,41876,2021-09-26_16h29.12.570,judgeSpeechMusic_20210921_logNormShiftAmp_detection_fixS,2020.1.2,MacIntel,60,,,,,,,,,,,,,,,,,,1,6.5644,,0,0,36,36,45,1,stimuli/stim_20210706_power2amp/equal_lnn_AM3.6Hz_s35_27.m4a,,,,,,,,,,,,
,,,,,,,,,,,,41876,2021-09-26_16h29.12.570,judgeSpeechMusic_20210921_logNormShiftAmp_detection_fixS,2020.1.2,MacIntel,60,,,,,,,,,,,,,,,,,,1,6.565,,0,0,37,37,12,1,stimuli/stim_20210706_power2amp/equal_lnn_AM0.6Hz_s35_29.m4a,,,,,,,,,,,,
,,,,,,,,,,,,41876,2021-09-26_16h29.12.570,judgeSpeechMusic_20210921_logNormShiftAmp_detection_fixS,2020.1.2,MacIntel,60,,,,,,,,,,,,,,,,,,1,17.2544,,0,0,38,38,57,1,stimuli/stim_20210706_power2amp/equal_lnn_AM3.6Hz_s35_33.m4a,,,,,,,,,,,,
,,,,,,,,,,,,41876,2021-09-26_16h29.12.570,judgeSpeechMusic_20210921_logNormShiftAmp_detection_fixS,2020.1.2,MacIntel,60,,,,,,,,,,,,,,,,,,1,15.3982,,0,0,39,39,34,1,stimuli/stim_20210706_power2amp/equal_lnn_AM2.4Hz_s35_18.m4a,,,,,,,,,,,,
,,,,,,,,,,,,41876,2021-09-26_16h29.12.570,judgeSpeechMusic_20210921_logNormShiftAmp_detection_fixS,2020.1.2,MacIntel,60,,,,,,,,,,,,,,,,,,1,9.4308,2,1,0,40,40,31,1,stimuli/stim_20210706_power2amp/equal_lnn_AM2.4Hz_s35_14.m4a,1.2825,,,,,,,,,,,
,,,,,,,,,,,,41876,2021-09-26_16h29.12.570,judgeSpeechMusic_20210921_logNormShiftAmp_detection_fixS,2020.1.2,MacIntel,60,,,,,,,,,,,,,,,,,,1,6.6566,,0,0,41,41,64,1,stimuli/stim_20210706_power2amp/equal_lnn_AM4.2Hz_s35_50.m4a,,,,,,,,,,,,
,,,,,,,,,,,,41876,2021-09-26_16h29.12.570,judgeSpeechMusic_20210921_logNormShiftAmp_detection_fixS,2020.1.2,MacIntel,60,,,,,,,,,,,,,,,,,,1,8.8032,,0,0,42,42,18,1,stimuli/stim_20210706_power2amp/equal_lnn_AM1.2Hz_s35_1.m4a,,,,,,,,,,,,
,,,,,,,,,,,,41876,2021-09-26_16h29.12.570,judgeSpeechMusic_20210921_logNormShiftAmp_detection_fixS,2020.1.2,MacIntel,60,,,,,,,,,,,,,,,,,,1,6.259,,0,0,43,43,43,1,stimuli/stim_20210706_power2amp/equal_lnn_AM2.4Hz_s35_25.m4a,,,,,,,,,,,,
,,,,,,,,,,,,41876,2021-09-26_16h29.12.570,judgeSpeechMusic_20210921_logNormShiftAmp_detection_fixS,2020.1.2,MacIntel,60,,,,,,,,,,,,,,,,,,2,7.34,,0,0,44,44,54,1,stimuli/stim_20210706_power2amp/equal_lnn_AM3.6Hz_s35_14.m4a,,,,,,,,,,,,
,,,,,,,,,,,,41876,2021-09-26_16h29.12.570,judgeSpeechMusic_20210921_logNormShiftAmp_detection_fixS,2020.1.2,MacIntel,60,,,,,,,,,,,,,,,,,,2,7.4682,,0,0,45,45,15,1,stimuli/stim_20210706_power2amp/equal_lnn_AM1.2Hz_s35_50.m4a,,,,,,,,,,,,
,,,,,,,,,,,,41876,2021-09-26_16h29.12.570,judgeSpeechMusic_20210921_logNormShiftAmp_detection_fixS,2020.1.2,MacIntel,60,,,,,,,,,,,,,,,,,,2,6.874,,0,0,46,46,28,1,stimuli/stim_20210706_power2amp/equal_lnn_AM1.2Hz_s35_5.m4a,,,,,,,,,,,,
,,,,,,,,,,,,41876,2021-09-26_16h29.12.570,judgeSpeechMusic_20210921_logNormShiftAmp_detection_fixS,2020.1.2,MacIntel,60,,,,,,,,,,,,,,,,,,2,8.3348,,0,0,47,47,30,1,stimuli/stim_20210706_power2amp/equal_lnn_AM2.4Hz_s35_40.m4a,,,,,,,,,,,,
,,,,,,,,,,,,41876,2021-09-26_16h29.12.570,judgeSpeechMusic_20210921_logNormShiftAmp_detection_fixS,2020.1.2,MacIntel,60,,,,,,,,,,,,,,,,,,2,5.9199,,0,0,48,48,21,1,stimuli/stim_20210706_power2amp/equal_lnn_AM1.2Hz_s35_25.m4a,,,,,,,,,,,,
,,,,,,,,,,,,41876,2021-09-26_16h29.12.570,judgeSpeechMusic_20210921_logNormShiftAmp_detection_fixS,2020.1.2,MacIntel,60,,,,,,,,,,,,,,,,,,1,5.9087,,0,0,49,49,3,1,stimuli/stim_20210706_power2amp/equal_lnn_AM0.6Hz_s35_38.m4a,,,,,,,,,,,,
,,,,,,,,,,,,41876,2021-09-26_16h29.12.570,judgeSpeechMusic_20210921_logNormShiftAmp_detection_fixS,2020.1.2,MacIntel,60,,,,,,,,,,,,,,,,,,2,5.7736,,0,0,50,50,68,1,stimuli/stim_20210706_power2amp/equal_lnn_AM4.2Hz_s35_16.m4a,,,,,,,,,,,,
,,,,,,,,,,,,41876,2021-09-26_16h29.12.570,judgeSpeechMusic_20210921_logNormShiftAmp_detection_fixS,2020.1.2,MacIntel,60,,,,,,,,,,,,,,,,,,2,5.845,,0,0,51,51,61,1,stimuli/stim_20210706_power2amp/equal_lnn_AM4.2Hz_s35_47.m4a,,,,,,,,,,,,
,,,,,,,,,,,,41876,2021-09-26_16h29.12.570,judgeSpeechMusic_20210921_logNormShiftAmp_detection_fixS,2020.1.2,MacIntel,60,,,,,,,,,,,,,,,,,,2,6.6956,,0,0,52,52,14,1,stimuli/stim_20210706_power2amp/equal_lnn_AM0.6Hz_s35_50.m4a,,,,,,,,,,,,
,,,,,,,,,,,,41876,2021-09-26_16h29.12.570,judgeSpeechMusic_20210921_logNormShiftAmp_detection_fixS,2020.1.2,MacIntel,60,,,,,,,,,,,,,,,,,,2,6.419,,0,0,53,53,35,1,stimuli/stim_20210706_power2amp/equal_lnn_AM2.4Hz_s35_21.m4a,,,,,,,,,,,,
,,,,,,,,,,,,41876,2021-09-26_16h29.12.570,judgeSpeechMusic_20210921_logNormShiftAmp_detection_fixS,2020.1.2,MacIntel,60,,,,,,,,,,,,,,,,,,1,6.7188,,0,0,54,54,53,1,stimuli/stim_20210706_power2amp/equal_lnn_AM3.6Hz_s35_18.m4a,,,,,,,,,,,,
,,,,,,,,,,,,41876,2021-09-26_16h29.12.570,judgeSpeechMusic_20210921_logNormShiftAmp_detection_fixS,2020.1.2,MacIntel,60,,,,,,,,,,,,,,,,,,1,6.8545,,0,0,55,55,67,1,stimuli/stim_20210706_power2amp/equal_lnn_AM4.2Hz_s35_25.m4a,,,,,,,,,,,,
,,,,,,,,,,,,41876,2021-09-26_16h29.12.570,judgeSpeechMusic_20210921_logNormShiftAmp_detection_fixS,2020.1.2,MacIntel,60,,,,,,,,,,,,,,,,,,1,6.102,,0,0,56,56,9,1,stimuli/stim_20210706_power2amp/equal_lnn_AM0.6Hz_s35_1.m4a,,,,,,,,,,,,
,,,,,,,,,,,,41876,2021-09-26_16h29.12.570,judgeSpeechMusic_20210921_logNormShiftAmp_detection_fixS,2020.1.2,MacIntel,60,,,,,,,,,,,,,,,,,,1,6.5373,,0,0,57,57,0,1,stimuli/stim_20210706_power2amp/equal_lnn_AM0.6Hz_s35_49.m4a,,,,,,,,,,,,
,,,,,,,,,,,,41876,2021-09-26_16h29.12.570,judgeSpeechMusic_20210921_logNormShiftAmp_detection_fixS,2020.1.2,MacIntel,60,,,,,,,,,,,,,,,,,,1,5.6548,3,1,0,58,58,6,1,stimuli/stim_20210706_power2amp/equal_lnn_AM0.6Hz_s35_12.m4a,1.3056,,,,,,,,,,,
,,,,,,,,,,,,41876,2021-09-26_16h29.12.570,judgeSpeechMusic_20210921_logNormShiftAmp_detection_fixS,2020.1.2,MacIntel,60,,,,,,,,,,,,,,,,,,2,5.8314,,0,0,59,59,73,1,stimuli/stim_20210706_power2amp/equal_lnn_AM4.2Hz_s35_19.m4a,,,,,,,,,,,,
,,,,,,,,,,,,41876,2021-09-26_16h29.12.570,judgeSpeechMusic_20210921_logNormShiftAmp_detection_fixS,2020.1.2,MacIntel,60,,,,,,,,,,,,,,,,,,2,5.8569,,0,0,60,60,62,1,stimuli/stim_20210706_power2amp/equal_lnn_AM4.2Hz_s35_30.m4a,,,,,,,,,,,,
,,,,,,,,,,,,41876,2021-09-26_16h29.12.570,judgeSpeechMusic_20210921_logNormShiftAmp_detection_fixS,2020.1.2,MacIntel,60,,,,,,,,,,,,,,,,,,1,12.0752,,0,0,61,61,10,1,stimuli/stim_20210706_power2amp/equal_lnn_AM0.6Hz_s35_45.m4a,,,,,,,,,,,,
,,,,,,,,,,,,41876,2021-09-26_16h29.12.570,judgeSpeechMusic_20210921_logNormShiftAmp_detection_fixS,2020.1.2,MacIntel,60,,,,,,,,,,,,,,,,,,1,6.871,,0,0,62,62,51,1,stimuli/stim_20210706_power2amp/equal_lnn_AM3.6Hz_s35_26.m4a,,,,,,,,,,,,
,,,,,,,,,,,,41876,2021-09-26_16h29.12.570,judgeSpeechMusic_20210921_logNormShiftAmp_detection_fixS,2020.1.2,MacIntel,60,,,,,,,,,,,,,,,,,,1,5.6231,,0,0,63,63,5,1,stimuli/stim_20210706_power2amp/equal_lnn_AM0.6Hz_s35_26.m4a,,,,,,,,,,,,
,,,,,,,,,,,,41876,2021-09-26_16h29.12.570,judgeSpeechMusic_20210921_logNormShiftAmp_detection_fixS,2020.1.2,MacIntel,60,,,,,,,,,,,,,,,,,,2,5.7054,,0,0,64,64,65,1,stimuli/stim_20210706_power2amp/equal_lnn_AM4.2Hz_s35_34.m4a,,,,,,,,,,,,
,,,,,,,,,,,,41876,2021-09-26_16h29.12.570,judgeSpeechMusic_20210921_logNormShiftAmp_detection_fixS,2020.1.2,MacIntel,60,,,,,,,,,,,,,,,,,,2,5.6515,,0,0,65,65,56,1,stimuli/stim_20210706_power2amp/equal_lnn_AM3.6Hz_s35_49.m4a,,,,,,,,,,,,
,,,,,,,,,,,,41876,2021-09-26_16h29.12.570,judgeSpeechMusic_20210921_logNormShiftAmp_detection_fixS,2020.1.2,MacIntel,60,,,,,,,,,,,,,,,,,,1,5.7713,,0,0,66,66,1,1,stimuli/stim_20210706_power2amp/equal_lnn_AM0.6Hz_s35_24.m4a,,,,,,,,,,,,
,,,,,,,,,,,,41876,2021-09-26_16h29.12.570,judgeSpeechMusic_20210921_logNormShiftAmp_detection_fixS,2020.1.2,MacIntel,60,,,,,,,,,,,,,,,,,,1,8.1715,,0,0,67,67,11,1,stimuli/stim_20210706_power2amp/equal_lnn_AM0.6Hz_s35_28.m4a,,,,,,,,,,,,
,,,,,,,,,,,,41876,2021-09-26_16h29.12.570,judgeSpeechMusic_20210921_logNormShiftAmp_detection_fixS,2020.1.2,MacIntel,60,,,,,,,,,,,,,,,,,,1,5.9718,,0,0,68,68,32,1,stimuli/stim_20210706_power2amp/equal_lnn_AM2.4Hz_s35_35.m4a,,,,,,,,,,,,
,,,,,,,,,,,,41876,2021-09-26_16h29.12.570,judgeSpeechMusic_20210921_logNormShiftAmp_detection_fixS,2020.1.2,MacIntel,60,,,,,,,,,,,,,,,,,,1,6.7969,,0,0,69,69,70,1,stimuli/stim_20210706_power2amp/equal_lnn_AM4.2Hz_s35_10.m4a,,,,,,,,,,,,
,,,,,,,,,,,,41876,2021-09-26_16h29.12.570,judgeSpeechMusic_20210921_logNormShiftAmp_detection_fixS,2020.1.2,MacIntel,60,,,,,,,,,,,,,,,,,,1,7.1692,,0,0,70,70,4,1,stimuli/stim_20210706_power2amp/equal_lnn_AM0.6Hz_s35_20.m4a,,,,,,,,,,,,
,,,,,,,,,,,,41876,2021-09-26_16h29.12.570,judgeSpeechMusic_20210921_logNormShiftAmp_detection_fixS,2020.1.2,MacIntel,60,,,,,,,,,,,,,,,,,,1,27.4363,,0,0,71,71,47,1,stimuli/stim_20210706_power2amp/equal_lnn_AM3.6Hz_s35_15.m4a,,,,,,,,,,,,
,,,,,,,,,,,,41876,2021-09-26_16h29.12.570,judgeSpeechMusic_20210921_logNormShiftAmp_detection_fixS,2020.1.2,MacIntel,60,,,,,,,,,,,,,,,,,,1,7.5321,,0,0,72,72,19,1,stimuli/stim_20210706_power2amp/equal_lnn_AM1.2Hz_s35_20.m4a,,,,,,,,,,,,
,,,,,,,,,,,,41876,2021-09-26_16h29.12.570,judgeSpeechMusic_20210921_logNormShiftAmp_detection_fixS,2020.1.2,MacIntel,60,,,,,,,,,,,,,,,,,,2,6.313,,0,0,73,73,39,1,stimuli/stim_20210706_power2amp/equal_lnn_AM2.4Hz_s35_24.m4a,,,,,,,,,,,,
,,,,,,,,,,,,41876,2021-09-26_16h29.12.570,judgeSpeechMusic_20210921_logNormShiftAmp_detection_fixS,2020.1.2,MacIntel,60,,,,,,,,,,,,,,,,,,1,8.3296,,0,0,74,74,42,1,stimuli/stim_20210706_power2amp/equal_lnn_AM2.4Hz_s35_47.m4a,,,,,,,,,,,,
,,,,,,,,,,,,41876,2021-09-26_16h29.12.570,judgeSpeechMusic_20210921_logNormShiftAmp_detection_fixS,2020.1.2,MacIntel,60,,,,,,,,,,,,,,,,,,,,,,,,,,,,,,,1,1,3,0,1,MUSIC,stimuli/MUSIC.jpg,,
,,,,,,,,,,,,41876,2021-09-26_16h29.12.570,judgeSpeechMusic_20210921_logNormShiftAmp_detection_fixS,2020.1.2,MacIntel,60,,,,,,,,,,,,,,,,,,,,,,,,,,,,,,,,,,,,,,space,6.3505
