headphoneResponse.keys,headphoneResponse.corr,headphoneResponse.rt,headphoneTrial.thisRepN,headphoneTrial.thisTrialN,headphoneTrial.thisN,headphoneTrial.thisIndex,headphoneTrial.ran,headphone_sound1,headphone_sound2,headphone_sound3,corrAns,participant,date,expName,psychopyVersion,OS,frameRate,checkInstruKey.keys,checkInstruKey.rt,trainSlider.response,trainSlider.rt,beepTrainResponse.keys,beepTrainResponse.corr,trainingTrials.thisRepN,trainingTrials.thisTrialN,trainingTrials.thisN,trainingTrials.thisIndex,trainingTrials.ran,trainAudioFile,beepTrainResponse.rt,readyReal_resp.keys,readyReal_resp.rt,checkInstru2_key.keys,checkInstru2_key.rt,ratingSlider.response,ratingSlider.rt,beepResp.keys,beepResp.corr,expTrials.thisRepN,expTrials.thisTrialN,expTrials.thisN,expTrials.thisIndex,expTrials.ran,audioFile,beepResp.rt,switchBlock_space.keys,switchBlock_space.rt,block.thisRepN,block.thisTrialN,block.thisN,block.thisIndex,block.ran,blockName,blockImage,end_resp.keys,end_resp.rt
3,1,1.2787,0,0,0,2,1,stimuli/screen_origin.wav,stimuli/screen_antiphase.wav,stimuli/screen_quiet.wav,3,41901,2021-09-24_12h20.25.406,judgeSpeechMusic_20210921_logNormShiftAmp_detection_fixS,2020.1.2,MacIntel,60,,,,,,,,,,,,,,,,,,,,,,,,,,,,,,,,,,,,,,,
2,1,0.5683,0,1,1,3,1,stimuli/screen_origin.wav,stimuli/screen_quiet.wav,stimuli/screen_antiphase.wav,2,41901,2021-09-24_12h20.25.406,judgeSpeechMusic_20210921_logNormShiftAmp_detection_fixS,2020.1.2,MacIntel,60,,,,,,,,,,,,,,,,,,,,,,,,,,,,,,,,,,,,,,,
1,1,0.4172,0,2,2,5,1,stimuli/screen_quiet.wav,stimuli/screen_origin.wav,stimuli/screen_antiphase.wav,1,41901,2021-09-24_12h20.25.406,judgeSpeechMusic_20210921_logNormShiftAmp_detection_fixS,2020.1.2,MacIntel,60,,,,,,,,,,,,,,,,,,,,,,,,,,,,,,,,,,,,,,,
3,1,0.7845,0,3,3,0,1,stimuli/screen_antiphase.wav,stimuli/screen_origin.wav,stimuli/screen_quiet.wav,3,41901,2021-09-24_12h20.25.406,judgeSpeechMusic_20210921_logNormShiftAmp_detection_fixS,2020.1.2,MacIntel,60,,,,,,,,,,,,,,,,,,,,,,,,,,,,,,,,,,,,,,,
2,1,0.368,0,4,4,1,1,stimuli/screen_antiphase.wav,stimuli/screen_quiet.wav,stimuli/screen_origin.wav,2,41901,2021-09-24_12h20.25.406,judgeSpeechMusic_20210921_logNormShiftAmp_detection_fixS,2020.1.2,MacIntel,60,,,,,,,,,,,,,,,,,,,,,,,,,,,,,,,,,,,,,,,
1,1,0.3677,0,5,5,4,1,stimuli/screen_quiet.wav,stimuli/screen_antiphase.wav,stimuli/screen_origin.wav,1,41901,2021-09-24_12h20.25.406,judgeSpeechMusic_20210921_logNormShiftAmp_detection_fixS,2020.1.2,MacIntel,60,,,,,,,,,,,,,,,,,,,,,,,,,,,,,,,,,,,,,,,
,,,,,,,,,,,,41901,2021-09-24_12h20.25.406,judgeSpeechMusic_20210921_logNormShiftAmp_detection_fixS,2020.1.2,MacIntel,60,space,1.0013,1,10.9131,,0,0,0,0,0,1,stimuli/stim_20210706_power2amp/equal_lnn_AM_training0.9Hz_s35.m4a,,,,,,,,,,,,,,,,,,,,,,,,,,,
,,,,,,,,,,,,41901,2021-09-24_12h20.25.406,judgeSpeechMusic_20210921_logNormShiftAmp_detection_fixS,2020.1.2,MacIntel,60,,,1,8.3731,,0,0,1,1,1,1,stimuli/stim_20210706_power2amp/equal_lnn_AM_training1.8Hz_s35.m4a,,,,,,,,,,,,,,,,,,,,,,,,,,,
,,,,,,,,,,,,41901,2021-09-24_12h20.25.406,judgeSpeechMusic_20210921_logNormShiftAmp_detection_fixS,2020.1.2,MacIntel,60,,,1,7.1428,2,1,0,2,2,3,1,stimuli/stim_20210706_power2amp/equal_lnn_AM_training3.9Hz_s35.m4a,2.1764,,,,,,,,,,,,,,,,,,,,,,,,,,
,,,,,,,,,,,,41901,2021-09-24_12h20.25.406,judgeSpeechMusic_20210921_logNormShiftAmp_detection_fixS,2020.1.2,MacIntel,60,,,1,6.512,,0,0,3,3,2,1,stimuli/stim_20210706_power2amp/equal_lnn_AM_training3Hz_s35.m4a,,,,,,,,,,,,,,,,,,,,,,,,,,,
,,,,,,,,,,,,41901,2021-09-24_12h20.25.406,judgeSpeechMusic_20210921_logNormShiftAmp_detection_fixS,2020.1.2,MacIntel,60,,,,,,,,,,,,,,space,5.593,space,0.8488,1,6.6365,,0,0,0,0,74,1,stimuli/stim_20210706_power2amp/equal_lnn_AM4.2Hz_s35_32.m4a,,,,,,,,,,,,
,,,,,,,,,,,,41901,2021-09-24_12h20.25.406,judgeSpeechMusic_20210921_logNormShiftAmp_detection_fixS,2020.1.2,MacIntel,60,,,,,,,,,,,,,,,,,,1,6.0765,,0,0,1,1,37,1,stimuli/stim_20210706_power2amp/equal_lnn_AM2.4Hz_s35_3.m4a,,,,,,,,,,,,
,,,,,,,,,,,,41901,2021-09-24_12h20.25.406,judgeSpeechMusic_20210921_logNormShiftAmp_detection_fixS,2020.1.2,MacIntel,60,,,,,,,,,,,,,,,,,,1,6.1909,,0,0,2,2,59,1,stimuli/stim_20210706_power2amp/equal_lnn_AM3.6Hz_s35_26.m4a,,,,,,,,,,,,
,,,,,,,,,,,,41901,2021-09-24_12h20.25.406,judgeSpeechMusic_20210921_logNormShiftAmp_detection_fixS,2020.1.2,MacIntel,60,,,,,,,,,,,,,,,,,,1,6.0137,,0,0,3,3,42,1,stimuli/stim_20210706_power2amp/equal_lnn_AM2.4Hz_s35_26.m4a,,,,,,,,,,,,
,,,,,,,,,,,,41901,2021-09-24_12h20.25.406,judgeSpeechMusic_20210921_logNormShiftAmp_detection_fixS,2020.1.2,MacIntel,60,,,,,,,,,,,,,,,,,,1,6.0596,,0,0,4,4,20,1,stimuli/stim_20210706_power2amp/equal_lnn_AM1.2Hz_s35_2.m4a,,,,,,,,,,,,
,,,,,,,,,,,,41901,2021-09-24_12h20.25.406,judgeSpeechMusic_20210921_logNormShiftAmp_detection_fixS,2020.1.2,MacIntel,60,,,,,,,,,,,,,,,,,,1,6.3931,,0,0,5,5,12,1,stimuli/stim_20210706_power2amp/equal_lnn_AM0.6Hz_s35_40.m4a,,,,,,,,,,,,
,,,,,,,,,,,,41901,2021-09-24_12h20.25.406,judgeSpeechMusic_20210921_logNormShiftAmp_detection_fixS,2020.1.2,MacIntel,60,,,,,,,,,,,,,,,,,,1,6.5756,,0,0,6,6,17,1,stimuli/stim_20210706_power2amp/equal_lnn_AM1.2Hz_s35_49.m4a,,,,,,,,,,,,
,,,,,,,,,,,,41901,2021-09-24_12h20.25.406,judgeSpeechMusic_20210921_logNormShiftAmp_detection_fixS,2020.1.2,MacIntel,60,,,,,,,,,,,,,,,,,,1,6.2425,,0,0,7,7,28,1,stimuli/stim_20210706_power2amp/equal_lnn_AM1.2Hz_s35_43.m4a,,,,,,,,,,,,
,,,,,,,,,,,,41901,2021-09-24_12h20.25.406,judgeSpeechMusic_20210921_logNormShiftAmp_detection_fixS,2020.1.2,MacIntel,60,,,,,,,,,,,,,,,,,,1,7.1253,,0,0,8,8,65,1,stimuli/stim_20210706_power2amp/equal_lnn_AM4.2Hz_s35_13.m4a,,,,,,,,,,,,
,,,,,,,,,,,,41901,2021-09-24_12h20.25.406,judgeSpeechMusic_20210921_logNormShiftAmp_detection_fixS,2020.1.2,MacIntel,60,,,,,,,,,,,,,,,,,,1,5.9425,,0,0,9,9,10,1,stimuli/stim_20210706_power2amp/equal_lnn_AM0.6Hz_s35_20.m4a,,,,,,,,,,,,
,,,,,,,,,,,,41901,2021-09-24_12h20.25.406,judgeSpeechMusic_20210921_logNormShiftAmp_detection_fixS,2020.1.2,MacIntel,60,,,,,,,,,,,,,,,,,,1,5.9444,,0,0,10,10,18,1,stimuli/stim_20210706_power2amp/equal_lnn_AM1.2Hz_s35_10.m4a,,,,,,,,,,,,
,,,,,,,,,,,,41901,2021-09-24_12h20.25.406,judgeSpeechMusic_20210921_logNormShiftAmp_detection_fixS,2020.1.2,MacIntel,60,,,,,,,,,,,,,,,,,,2,7.7417,,0,0,11,11,67,1,stimuli/stim_20210706_power2amp/equal_lnn_AM4.2Hz_s35_16.m4a,,,,,,,,,,,,
,,,,,,,,,,,,41901,2021-09-24_12h20.25.406,judgeSpeechMusic_20210921_logNormShiftAmp_detection_fixS,2020.1.2,MacIntel,60,,,,,,,,,,,,,,,,,,2,6.2089,,0,0,12,12,69,1,stimuli/stim_20210706_power2amp/equal_lnn_AM4.2Hz_s35_34.m4a,,,,,,,,,,,,
,,,,,,,,,,,,41901,2021-09-24_12h20.25.406,judgeSpeechMusic_20210921_logNormShiftAmp_detection_fixS,2020.1.2,MacIntel,60,,,,,,,,,,,,,,,,,,2,7.3602,,0,0,13,13,47,1,stimuli/stim_20210706_power2amp/equal_lnn_AM3.6Hz_s35_12.m4a,,,,,,,,,,,,
,,,,,,,,,,,,41901,2021-09-24_12h20.25.406,judgeSpeechMusic_20210921_logNormShiftAmp_detection_fixS,2020.1.2,MacIntel,60,,,,,,,,,,,,,,,,,,1,6.6754,,0,0,14,14,33,1,stimuli/stim_20210706_power2amp/equal_lnn_AM2.4Hz_s35_40.m4a,,,,,,,,,,,,
,,,,,,,,,,,,41901,2021-09-24_12h20.25.406,judgeSpeechMusic_20210921_logNormShiftAmp_detection_fixS,2020.1.2,MacIntel,60,,,,,,,,,,,,,,,,,,1,5.7948,,0,0,15,15,58,1,stimuli/stim_20210706_power2amp/equal_lnn_AM3.6Hz_s35_41.m4a,,,,,,,,,,,,
,,,,,,,,,,,,41901,2021-09-24_12h20.25.406,judgeSpeechMusic_20210921_logNormShiftAmp_detection_fixS,2020.1.2,MacIntel,60,,,,,,,,,,,,,,,,,,1,6.5417,,0,0,16,16,73,1,stimuli/stim_20210706_power2amp/equal_lnn_AM4.2Hz_s35_38.m4a,,,,,,,,,,,,
,,,,,,,,,,,,41901,2021-09-24_12h20.25.406,judgeSpeechMusic_20210921_logNormShiftAmp_detection_fixS,2020.1.2,MacIntel,60,,,,,,,,,,,,,,,,,,1,6.1121,,0,0,17,17,24,1,stimuli/stim_20210706_power2amp/equal_lnn_AM1.2Hz_s35_45.m4a,,,,,,,,,,,,
,,,,,,,,,,,,41901,2021-09-24_12h20.25.406,judgeSpeechMusic_20210921_logNormShiftAmp_detection_fixS,2020.1.2,MacIntel,60,,,,,,,,,,,,,,,,,,2,6.2918,,0,0,18,18,13,1,stimuli/stim_20210706_power2amp/equal_lnn_AM0.6Hz_s35_15.m4a,,,,,,,,,,,,
,,,,,,,,,,,,41901,2021-09-24_12h20.25.406,judgeSpeechMusic_20210921_logNormShiftAmp_detection_fixS,2020.1.2,MacIntel,60,,,,,,,,,,,,,,,,,,2,6.0134,1,1,0,19,19,72,1,stimuli/stim_20210706_power2amp/equal_lnn_AM4.2Hz_s35_30.m4a,0.8788,,,,,,,,,,,
,,,,,,,,,,,,41901,2021-09-24_12h20.25.406,judgeSpeechMusic_20210921_logNormShiftAmp_detection_fixS,2020.1.2,MacIntel,60,,,,,,,,,,,,,,,,,,1,5.9615,,0,0,20,20,27,1,stimuli/stim_20210706_power2amp/equal_lnn_AM1.2Hz_s35_12.m4a,,,,,,,,,,,,
,,,,,,,,,,,,41901,2021-09-24_12h20.25.406,judgeSpeechMusic_20210921_logNormShiftAmp_detection_fixS,2020.1.2,MacIntel,60,,,,,,,,,,,,,,,,,,1,5.9761,,0,0,21,21,49,1,stimuli/stim_20210706_power2amp/equal_lnn_AM3.6Hz_s35_5.m4a,,,,,,,,,,,,
,,,,,,,,,,,,41901,2021-09-24_12h20.25.406,judgeSpeechMusic_20210921_logNormShiftAmp_detection_fixS,2020.1.2,MacIntel,60,,,,,,,,,,,,,,,,,,1,5.8799,,0,0,22,22,64,1,stimuli/stim_20210706_power2amp/equal_lnn_AM4.2Hz_s35_36.m4a,,,,,,,,,,,,
,,,,,,,,,,,,41901,2021-09-24_12h20.25.406,judgeSpeechMusic_20210921_logNormShiftAmp_detection_fixS,2020.1.2,MacIntel,60,,,,,,,,,,,,,,,,,,1,5.9747,,0,0,23,23,5,1,stimuli/stim_20210706_power2amp/equal_lnn_AM0.6Hz_s35_5.m4a,,,,,,,,,,,,
,,,,,,,,,,,,41901,2021-09-24_12h20.25.406,judgeSpeechMusic_20210921_logNormShiftAmp_detection_fixS,2020.1.2,MacIntel,60,,,,,,,,,,,,,,,,,,1,9.8121,,0,0,24,24,56,1,stimuli/stim_20210706_power2amp/equal_lnn_AM3.6Hz_s35_8.m4a,,,,,,,,,,,,
,,,,,,,,,,,,41901,2021-09-24_12h20.25.406,judgeSpeechMusic_20210921_logNormShiftAmp_detection_fixS,2020.1.2,MacIntel,60,,,,,,,,,,,,,,,,,,1,6.0259,,0,0,25,25,44,1,stimuli/stim_20210706_power2amp/equal_lnn_AM2.4Hz_s35_11.m4a,,,,,,,,,,,,
,,,,,,,,,,,,41901,2021-09-24_12h20.25.406,judgeSpeechMusic_20210921_logNormShiftAmp_detection_fixS,2020.1.2,MacIntel,60,,,,,,,,,,,,,,,,,,1,5.8607,,0,0,26,26,34,1,stimuli/stim_20210706_power2amp/equal_lnn_AM2.4Hz_s35_18.m4a,,,,,,,,,,,,
,,,,,,,,,,,,41901,2021-09-24_12h20.25.406,judgeSpeechMusic_20210921_logNormShiftAmp_detection_fixS,2020.1.2,MacIntel,60,,,,,,,,,,,,,,,,,,1,5.6639,,0,0,27,27,32,1,stimuli/stim_20210706_power2amp/equal_lnn_AM2.4Hz_s35_5.m4a,,,,,,,,,,,,
,,,,,,,,,,,,41901,2021-09-24_12h20.25.406,judgeSpeechMusic_20210921_logNormShiftAmp_detection_fixS,2020.1.2,MacIntel,60,,,,,,,,,,,,,,,,,,2,5.9113,,0,0,28,28,45,1,stimuli/stim_20210706_power2amp/equal_lnn_AM3.6Hz_s35_31.m4a,,,,,,,,,,,,
,,,,,,,,,,,,41901,2021-09-24_12h20.25.406,judgeSpeechMusic_20210921_logNormShiftAmp_detection_fixS,2020.1.2,MacIntel,60,,,,,,,,,,,,,,,,,,2,5.7264,,0,0,29,29,51,1,stimuli/stim_20210706_power2amp/equal_lnn_AM3.6Hz_s35_44.m4a,,,,,,,,,,,,
,,,,,,,,,,,,41901,2021-09-24_12h20.25.406,judgeSpeechMusic_20210921_logNormShiftAmp_detection_fixS,2020.1.2,MacIntel,60,,,,,,,,,,,,,,,,,,1,6.547,,0,0,30,30,8,1,stimuli/stim_20210706_power2amp/equal_lnn_AM0.6Hz_s35_21.m4a,,,,,,,,,,,,
,,,,,,,,,,,,41901,2021-09-24_12h20.25.406,judgeSpeechMusic_20210921_logNormShiftAmp_detection_fixS,2020.1.2,MacIntel,60,,,,,,,,,,,,,,,,,,1,5.7752,,0,0,31,31,25,1,stimuli/stim_20210706_power2amp/equal_lnn_AM1.2Hz_s35_28.m4a,,,,,,,,,,,,
,,,,,,,,,,,,41901,2021-09-24_12h20.25.406,judgeSpeechMusic_20210921_logNormShiftAmp_detection_fixS,2020.1.2,MacIntel,60,,,,,,,,,,,,,,,,,,1,5.8442,,0,0,32,32,26,1,stimuli/stim_20210706_power2amp/equal_lnn_AM1.2Hz_s35_31.m4a,,,,,,,,,,,,
,,,,,,,,,,,,41901,2021-09-24_12h20.25.406,judgeSpeechMusic_20210921_logNormShiftAmp_detection_fixS,2020.1.2,MacIntel,60,,,,,,,,,,,,,,,,,,1,5.6242,,0,0,33,33,41,1,stimuli/stim_20210706_power2amp/equal_lnn_AM2.4Hz_s35_29.m4a,,,,,,,,,,,,
,,,,,,,,,,,,41901,2021-09-24_12h20.25.406,judgeSpeechMusic_20210921_logNormShiftAmp_detection_fixS,2020.1.2,MacIntel,60,,,,,,,,,,,,,,,,,,1,5.6782,,0,0,34,34,11,1,stimuli/stim_20210706_power2amp/equal_lnn_AM0.6Hz_s35_36.m4a,,,,,,,,,,,,
,,,,,,,,,,,,41901,2021-09-24_12h20.25.406,judgeSpeechMusic_20210921_logNormShiftAmp_detection_fixS,2020.1.2,MacIntel,60,,,,,,,,,,,,,,,,,,1,6.3077,,0,0,35,35,22,1,stimuli/stim_20210706_power2amp/equal_lnn_AM1.2Hz_s35_46.m4a,,,,,,,,,,,,
,,,,,,,,,,,,41901,2021-09-24_12h20.25.406,judgeSpeechMusic_20210921_logNormShiftAmp_detection_fixS,2020.1.2,MacIntel,60,,,,,,,,,,,,,,,,,,1,10.8284,,0,0,36,36,43,1,stimuli/stim_20210706_power2amp/equal_lnn_AM2.4Hz_s35_16.m4a,,,,,,,,,,,,
,,,,,,,,,,,,41901,2021-09-24_12h20.25.406,judgeSpeechMusic_20210921_logNormShiftAmp_detection_fixS,2020.1.2,MacIntel,60,,,,,,,,,,,,,,,,,,1,5.9739,,0,0,37,37,31,1,stimuli/stim_20210706_power2amp/equal_lnn_AM2.4Hz_s35_46.m4a,,,,,,,,,,,,
,,,,,,,,,,,,41901,2021-09-24_12h20.25.406,judgeSpeechMusic_20210921_logNormShiftAmp_detection_fixS,2020.1.2,MacIntel,60,,,,,,,,,,,,,,,,,,1,5.6316,3,1,0,38,38,52,1,stimuli/stim_20210706_power2amp/equal_lnn_AM3.6Hz_s35_4.m4a,1.1978,,,,,,,,,,,
,,,,,,,,,,,,41901,2021-09-24_12h20.25.406,judgeSpeechMusic_20210921_logNormShiftAmp_detection_fixS,2020.1.2,MacIntel,60,,,,,,,,,,,,,,,,,,1,5.9968,,0,0,39,39,61,1,stimuli/stim_20210706_power2amp/equal_lnn_AM4.2Hz_s35_40.m4a,,,,,,,,,,,,
,,,,,,,,,,,,41901,2021-09-24_12h20.25.406,judgeSpeechMusic_20210921_logNormShiftAmp_detection_fixS,2020.1.2,MacIntel,60,,,,,,,,,,,,,,,,,,1,6.3962,,0,0,40,40,3,1,stimuli/stim_20210706_power2amp/equal_lnn_AM0.6Hz_s35_11.m4a,,,,,,,,,,,,
,,,,,,,,,,,,41901,2021-09-24_12h20.25.406,judgeSpeechMusic_20210921_logNormShiftAmp_detection_fixS,2020.1.2,MacIntel,60,,,,,,,,,,,,,,,,,,1,5.7015,,0,0,41,41,19,1,stimuli/stim_20210706_power2amp/equal_lnn_AM1.2Hz_s35_35.m4a,,,,,,,,,,,,
,,,,,,,,,,,,41901,2021-09-24_12h20.25.406,judgeSpeechMusic_20210921_logNormShiftAmp_detection_fixS,2020.1.2,MacIntel,60,,,,,,,,,,,,,,,,,,1,9.1947,,0,0,42,42,1,1,stimuli/stim_20210706_power2amp/equal_lnn_AM0.6Hz_s35_7.m4a,,,,,,,,,,,,
,,,,,,,,,,,,41901,2021-09-24_12h20.25.406,judgeSpeechMusic_20210921_logNormShiftAmp_detection_fixS,2020.1.2,MacIntel,60,,,,,,,,,,,,,,,,,,1,5.8749,,0,0,43,43,40,1,stimuli/stim_20210706_power2amp/equal_lnn_AM2.4Hz_s35_35.m4a,,,,,,,,,,,,
,,,,,,,,,,,,41901,2021-09-24_12h20.25.406,judgeSpeechMusic_20210921_logNormShiftAmp_detection_fixS,2020.1.2,MacIntel,60,,,,,,,,,,,,,,,,,,1,5.6424,,0,0,44,44,62,1,stimuli/stim_20210706_power2amp/equal_lnn_AM4.2Hz_s35_21.m4a,,,,,,,,,,,,
,,,,,,,,,,,,41901,2021-09-24_12h20.25.406,judgeSpeechMusic_20210921_logNormShiftAmp_detection_fixS,2020.1.2,MacIntel,60,,,,,,,,,,,,,,,,,,1,5.5758,,0,0,45,45,6,1,stimuli/stim_20210706_power2amp/equal_lnn_AM0.6Hz_s35_46.m4a,,,,,,,,,,,,
,,,,,,,,,,,,41901,2021-09-24_12h20.25.406,judgeSpeechMusic_20210921_logNormShiftAmp_detection_fixS,2020.1.2,MacIntel,60,,,,,,,,,,,,,,,,,,1,5.5422,,0,0,46,46,71,1,stimuli/stim_20210706_power2amp/equal_lnn_AM4.2Hz_s35_23.m4a,,,,,,,,,,,,
,,,,,,,,,,,,41901,2021-09-24_12h20.25.406,judgeSpeechMusic_20210921_logNormShiftAmp_detection_fixS,2020.1.2,MacIntel,60,,,,,,,,,,,,,,,,,,1,5.5929,,0,0,47,47,53,1,stimuli/stim_20210706_power2amp/equal_lnn_AM3.6Hz_s35_35.m4a,,,,,,,,,,,,
,,,,,,,,,,,,41901,2021-09-24_12h20.25.406,judgeSpeechMusic_20210921_logNormShiftAmp_detection_fixS,2020.1.2,MacIntel,60,,,,,,,,,,,,,,,,,,1,5.5616,,0,0,48,48,23,1,stimuli/stim_20210706_power2amp/equal_lnn_AM1.2Hz_s35_17.m4a,,,,,,,,,,,,
,,,,,,,,,,,,41901,2021-09-24_12h20.25.406,judgeSpeechMusic_20210921_logNormShiftAmp_detection_fixS,2020.1.2,MacIntel,60,,,,,,,,,,,,,,,,,,1,5.6917,,0,0,49,49,46,1,stimuli/stim_20210706_power2amp/equal_lnn_AM3.6Hz_s35_28.m4a,,,,,,,,,,,,
,,,,,,,,,,,,41901,2021-09-24_12h20.25.406,judgeSpeechMusic_20210921_logNormShiftAmp_detection_fixS,2020.1.2,MacIntel,60,,,,,,,,,,,,,,,,,,1,5.6119,,0,0,50,50,68,1,stimuli/stim_20210706_power2amp/equal_lnn_AM4.2Hz_s35_25.m4a,,,,,,,,,,,,
,,,,,,,,,,,,41901,2021-09-24_12h20.25.406,judgeSpeechMusic_20210921_logNormShiftAmp_detection_fixS,2020.1.2,MacIntel,60,,,,,,,,,,,,,,,,,,1,5.5284,,0,0,51,51,55,1,stimuli/stim_20210706_power2amp/equal_lnn_AM3.6Hz_s35_46.m4a,,,,,,,,,,,,
,,,,,,,,,,,,41901,2021-09-24_12h20.25.406,judgeSpeechMusic_20210921_logNormShiftAmp_detection_fixS,2020.1.2,MacIntel,60,,,,,,,,,,,,,,,,,,1,5.6412,,0,0,52,52,2,1,stimuli/stim_20210706_power2amp/equal_lnn_AM0.6Hz_s35_22.m4a,,,,,,,,,,,,
,,,,,,,,,,,,41901,2021-09-24_12h20.25.406,judgeSpeechMusic_20210921_logNormShiftAmp_detection_fixS,2020.1.2,MacIntel,60,,,,,,,,,,,,,,,,,,1,5.6435,,0,0,53,53,38,1,stimuli/stim_20210706_power2amp/equal_lnn_AM2.4Hz_s35_36.m4a,,,,,,,,,,,,
,,,,,,,,,,,,41901,2021-09-24_12h20.25.406,judgeSpeechMusic_20210921_logNormShiftAmp_detection_fixS,2020.1.2,MacIntel,60,,,,,,,,,,,,,,,,,,1,5.8958,,0,0,54,54,4,1,stimuli/stim_20210706_power2amp/equal_lnn_AM0.6Hz_s35_2.m4a,,,,,,,,,,,,
,,,,,,,,,,,,41901,2021-09-24_12h20.25.406,judgeSpeechMusic_20210921_logNormShiftAmp_detection_fixS,2020.1.2,MacIntel,60,,,,,,,,,,,,,,,,,,1,5.6092,,0,0,55,55,50,1,stimuli/stim_20210706_power2amp/equal_lnn_AM3.6Hz_s35_6.m4a,,,,,,,,,,,,
,,,,,,,,,,,,41901,2021-09-24_12h20.25.406,judgeSpeechMusic_20210921_logNormShiftAmp_detection_fixS,2020.1.2,MacIntel,60,,,,,,,,,,,,,,,,,,1,5.3769,,0,0,56,56,66,1,stimuli/stim_20210706_power2amp/equal_lnn_AM4.2Hz_s35_28.m4a,,,,,,,,,,,,
,,,,,,,,,,,,41901,2021-09-24_12h20.25.406,judgeSpeechMusic_20210921_logNormShiftAmp_detection_fixS,2020.1.2,MacIntel,60,,,,,,,,,,,,,,,,,,1,5.6281,,0,0,57,57,9,1,stimuli/stim_20210706_power2amp/equal_lnn_AM0.6Hz_s35_24.m4a,,,,,,,,,,,,
,,,,,,,,,,,,41901,2021-09-24_12h20.25.406,judgeSpeechMusic_20210921_logNormShiftAmp_detection_fixS,2020.1.2,MacIntel,60,,,,,,,,,,,,,,,,,,1,5.4761,2,1,0,58,58,48,1,stimuli/stim_20210706_power2amp/equal_lnn_AM3.6Hz_s35_43.m4a,0.5833,,,,,,,,,,,
,,,,,,,,,,,,41901,2021-09-24_12h20.25.406,judgeSpeechMusic_20210921_logNormShiftAmp_detection_fixS,2020.1.2,MacIntel,60,,,,,,,,,,,,,,,,,,1,5.8095,,0,0,59,59,35,1,stimuli/stim_20210706_power2amp/equal_lnn_AM2.4Hz_s35_31.m4a,,,,,,,,,,,,
,,,,,,,,,,,,41901,2021-09-24_12h20.25.406,judgeSpeechMusic_20210921_logNormShiftAmp_detection_fixS,2020.1.2,MacIntel,60,,,,,,,,,,,,,,,,,,1,6.6114,,0,0,60,60,0,1,stimuli/stim_20210706_power2amp/equal_lnn_AM0.6Hz_s35_27.m4a,,,,,,,,,,,,
,,,,,,,,,,,,41901,2021-09-24_12h20.25.406,judgeSpeechMusic_20210921_logNormShiftAmp_detection_fixS,2020.1.2,MacIntel,60,,,,,,,,,,,,,,,,,,1,5.8905,,0,0,61,61,14,1,stimuli/stim_20210706_power2amp/equal_lnn_AM0.6Hz_s35_28.m4a,,,,,,,,,,,,
,,,,,,,,,,,,41901,2021-09-24_12h20.25.406,judgeSpeechMusic_20210921_logNormShiftAmp_detection_fixS,2020.1.2,MacIntel,60,,,,,,,,,,,,,,,,,,1,5.6423,,0,0,62,62,39,1,stimuli/stim_20210706_power2amp/equal_lnn_AM2.4Hz_s35_34.m4a,,,,,,,,,,,,
,,,,,,,,,,,,41901,2021-09-24_12h20.25.406,judgeSpeechMusic_20210921_logNormShiftAmp_detection_fixS,2020.1.2,MacIntel,60,,,,,,,,,,,,,,,,,,1,5.5422,,0,0,63,63,15,1,stimuli/stim_20210706_power2amp/equal_lnn_AM1.2Hz_s35_8.m4a,,,,,,,,,,,,
,,,,,,,,,,,,41901,2021-09-24_12h20.25.406,judgeSpeechMusic_20210921_logNormShiftAmp_detection_fixS,2020.1.2,MacIntel,60,,,,,,,,,,,,,,,,,,1,6.0586,,0,0,64,64,60,1,stimuli/stim_20210706_power2amp/equal_lnn_AM4.2Hz_s35_3.m4a,,,,,,,,,,,,
,,,,,,,,,,,,41901,2021-09-24_12h20.25.406,judgeSpeechMusic_20210921_logNormShiftAmp_detection_fixS,2020.1.2,MacIntel,60,,,,,,,,,,,,,,,,,,1,5.576,,0,0,65,65,54,1,stimuli/stim_20210706_power2amp/equal_lnn_AM3.6Hz_s35_47.m4a,,,,,,,,,,,,
,,,,,,,,,,,,41901,2021-09-24_12h20.25.406,judgeSpeechMusic_20210921_logNormShiftAmp_detection_fixS,2020.1.2,MacIntel,60,,,,,,,,,,,,,,,,,,1,5.6425,,0,0,66,66,21,1,stimuli/stim_20210706_power2amp/equal_lnn_AM1.2Hz_s35_25.m4a,,,,,,,,,,,,
,,,,,,,,,,,,41901,2021-09-24_12h20.25.406,judgeSpeechMusic_20210921_logNormShiftAmp_detection_fixS,2020.1.2,MacIntel,60,,,,,,,,,,,,,,,,,,1,5.5595,,0,0,67,67,29,1,stimuli/stim_20210706_power2amp/equal_lnn_AM1.2Hz_s35_33.m4a,,,,,,,,,,,,
,,,,,,,,,,,,41901,2021-09-24_12h20.25.406,judgeSpeechMusic_20210921_logNormShiftAmp_detection_fixS,2020.1.2,MacIntel,60,,,,,,,,,,,,,,,,,,1,5.5589,,0,0,68,68,36,1,stimuli/stim_20210706_power2amp/equal_lnn_AM2.4Hz_s35_9.m4a,,,,,,,,,,,,
,,,,,,,,,,,,41901,2021-09-24_12h20.25.406,judgeSpeechMusic_20210921_logNormShiftAmp_detection_fixS,2020.1.2,MacIntel,60,,,,,,,,,,,,,,,,,,1,5.6079,,0,0,69,69,30,1,stimuli/stim_20210706_power2amp/equal_lnn_AM2.4Hz_s35_33.m4a,,,,,,,,,,,,
,,,,,,,,,,,,41901,2021-09-24_12h20.25.406,judgeSpeechMusic_20210921_logNormShiftAmp_detection_fixS,2020.1.2,MacIntel,60,,,,,,,,,,,,,,,,,,1,5.7796,,0,0,70,70,57,1,stimuli/stim_20210706_power2amp/equal_lnn_AM3.6Hz_s35_19.m4a,,,,,,,,,,,,
,,,,,,,,,,,,41901,2021-09-24_12h20.25.406,judgeSpeechMusic_20210921_logNormShiftAmp_detection_fixS,2020.1.2,MacIntel,60,,,,,,,,,,,,,,,,,,1,5.5933,,0,0,71,71,16,1,stimuli/stim_20210706_power2amp/equal_lnn_AM1.2Hz_s35_24.m4a,,,,,,,,,,,,
,,,,,,,,,,,,41901,2021-09-24_12h20.25.406,judgeSpeechMusic_20210921_logNormShiftAmp_detection_fixS,2020.1.2,MacIntel,60,,,,,,,,,,,,,,,,,,1,5.5747,,0,0,72,72,63,1,stimuli/stim_20210706_power2amp/equal_lnn_AM4.2Hz_s35_45.m4a,,,,,,,,,,,,
,,,,,,,,,,,,41901,2021-09-24_12h20.25.406,judgeSpeechMusic_20210921_logNormShiftAmp_detection_fixS,2020.1.2,MacIntel,60,,,,,,,,,,,,,,,,,,1,5.5789,,0,0,73,73,70,1,stimuli/stim_20210706_power2amp/equal_lnn_AM4.2Hz_s35_11.m4a,,,,,,,,,,,,
,,,,,,,,,,,,41901,2021-09-24_12h20.25.406,judgeSpeechMusic_20210921_logNormShiftAmp_detection_fixS,2020.1.2,MacIntel,60,,,,,,,,,,,,,,,,,,1,5.4247,,0,0,74,74,7,1,stimuli/stim_20210706_power2amp/equal_lnn_AM0.6Hz_s35_44.m4a,,,,,,,,,,,,
,,,,,,,,,,,,41901,2021-09-24_12h20.25.406,judgeSpeechMusic_20210921_logNormShiftAmp_detection_fixS,2020.1.2,MacIntel,60,,,,,,,,,,,,,,,,,,,,,,,,,,,,,space,0.6119,0,0,0,0,1,MUSIC,stimuli/MUSIC.jpg,,
,,,,,,,,,,,,41901,2021-09-24_12h20.25.406,judgeSpeechMusic_20210921_logNormShiftAmp_detection_fixS,2020.1.2,MacIntel,60,space,0.5758,1,5.6583,,0,0,0,0,3,1,stimuli/stim_20210706_power2amp/equal_lnn_AM_training3.9Hz_s35.m4a,,,,,,,,,,,,,,,,,,,,,,,,,,,
,,,,,,,,,,,,41901,2021-09-24_12h20.25.406,judgeSpeechMusic_20210921_logNormShiftAmp_detection_fixS,2020.1.2,MacIntel,60,,,1,5.6239,,0,0,1,1,0,1,stimuli/stim_20210706_power2amp/equal_lnn_AM_training0.9Hz_s35.m4a,,,,,,,,,,,,,,,,,,,,,,,,,,,
,,,,,,,,,,,,41901,2021-09-24_12h20.25.406,judgeSpeechMusic_20210921_logNormShiftAmp_detection_fixS,2020.1.2,MacIntel,60,,,1,5.6415,1,1,0,2,2,1,1,stimuli/stim_20210706_power2amp/equal_lnn_AM_training1.8Hz_s35.m4a,0.6298,,,,,,,,,,,,,,,,,,,,,,,,,,
,,,,,,,,,,,,41901,2021-09-24_12h20.25.406,judgeSpeechMusic_20210921_logNormShiftAmp_detection_fixS,2020.1.2,MacIntel,60,,,1,5.7583,,0,0,3,3,2,1,stimuli/stim_20210706_power2amp/equal_lnn_AM_training3Hz_s35.m4a,,,,,,,,,,,,,,,,,,,,,,,,,,,
,,,,,,,,,,,,41901,2021-09-24_12h20.25.406,judgeSpeechMusic_20210921_logNormShiftAmp_detection_fixS,2020.1.2,MacIntel,60,,,,,,,,,,,,,,space,1.4332,space,0.4033,1,5.656,,0,0,0,0,74,1,stimuli/stim_20210706_power2amp/equal_lnn_AM4.2Hz_s35_32.m4a,,,,,,,,,,,,
,,,,,,,,,,,,41901,2021-09-24_12h20.25.406,judgeSpeechMusic_20210921_logNormShiftAmp_detection_fixS,2020.1.2,MacIntel,60,,,,,,,,,,,,,,,,,,1,5.458,,0,0,1,1,35,1,stimuli/stim_20210706_power2amp/equal_lnn_AM2.4Hz_s35_31.m4a,,,,,,,,,,,,
,,,,,,,,,,,,41901,2021-09-24_12h20.25.406,judgeSpeechMusic_20210921_logNormShiftAmp_detection_fixS,2020.1.2,MacIntel,60,,,,,,,,,,,,,,,,,,1,5.592,,0,0,2,2,62,1,stimuli/stim_20210706_power2amp/equal_lnn_AM4.2Hz_s35_21.m4a,,,,,,,,,,,,
,,,,,,,,,,,,41901,2021-09-24_12h20.25.406,judgeSpeechMusic_20210921_logNormShiftAmp_detection_fixS,2020.1.2,MacIntel,60,,,,,,,,,,,,,,,,,,1,6.1278,,0,0,3,3,50,1,stimuli/stim_20210706_power2amp/equal_lnn_AM3.6Hz_s35_6.m4a,,,,,,,,,,,,
,,,,,,,,,,,,41901,2021-09-24_12h20.25.406,judgeSpeechMusic_20210921_logNormShiftAmp_detection_fixS,2020.1.2,MacIntel,60,,,,,,,,,,,,,,,,,,1,5.8076,,0,0,4,4,44,1,stimuli/stim_20210706_power2amp/equal_lnn_AM2.4Hz_s35_11.m4a,,,,,,,,,,,,
,,,,,,,,,,,,41901,2021-09-24_12h20.25.406,judgeSpeechMusic_20210921_logNormShiftAmp_detection_fixS,2020.1.2,MacIntel,60,,,,,,,,,,,,,,,,,,1,5.7091,,0,0,5,5,7,1,stimuli/stim_20210706_power2amp/equal_lnn_AM0.6Hz_s35_44.m4a,,,,,,,,,,,,
,,,,,,,,,,,,41901,2021-09-24_12h20.25.406,judgeSpeechMusic_20210921_logNormShiftAmp_detection_fixS,2020.1.2,MacIntel,60,,,,,,,,,,,,,,,,,,1,5.8582,,0,0,6,6,4,1,stimuli/stim_20210706_power2amp/equal_lnn_AM0.6Hz_s35_2.m4a,,,,,,,,,,,,
,,,,,,,,,,,,41901,2021-09-24_12h20.25.406,judgeSpeechMusic_20210921_logNormShiftAmp_detection_fixS,2020.1.2,MacIntel,60,,,,,,,,,,,,,,,,,,1,5.6128,,0,0,7,7,48,1,stimuli/stim_20210706_power2amp/equal_lnn_AM3.6Hz_s35_43.m4a,,,,,,,,,,,,
,,,,,,,,,,,,41901,2021-09-24_12h20.25.406,judgeSpeechMusic_20210921_logNormShiftAmp_detection_fixS,2020.1.2,MacIntel,60,,,,,,,,,,,,,,,,,,1,5.6247,,0,0,8,8,56,1,stimuli/stim_20210706_power2amp/equal_lnn_AM3.6Hz_s35_8.m4a,,,,,,,,,,,,
,,,,,,,,,,,,41901,2021-09-24_12h20.25.406,judgeSpeechMusic_20210921_logNormShiftAmp_detection_fixS,2020.1.2,MacIntel,60,,,,,,,,,,,,,,,,,,1,5.6108,,0,0,9,9,27,1,stimuli/stim_20210706_power2amp/equal_lnn_AM1.2Hz_s35_12.m4a,,,,,,,,,,,,
,,,,,,,,,,,,41901,2021-09-24_12h20.25.406,judgeSpeechMusic_20210921_logNormShiftAmp_detection_fixS,2020.1.2,MacIntel,60,,,,,,,,,,,,,,,,,,1,5.7981,,0,0,10,10,14,1,stimuli/stim_20210706_power2amp/equal_lnn_AM0.6Hz_s35_28.m4a,,,,,,,,,,,,
,,,,,,,,,,,,41901,2021-09-24_12h20.25.406,judgeSpeechMusic_20210921_logNormShiftAmp_detection_fixS,2020.1.2,MacIntel,60,,,,,,,,,,,,,,,,,,1,5.6592,,0,0,11,11,49,1,stimuli/stim_20210706_power2amp/equal_lnn_AM3.6Hz_s35_5.m4a,,,,,,,,,,,,
,,,,,,,,,,,,41901,2021-09-24_12h20.25.406,judgeSpeechMusic_20210921_logNormShiftAmp_detection_fixS,2020.1.2,MacIntel,60,,,,,,,,,,,,,,,,,,1,5.5922,,0,0,12,12,46,1,stimuli/stim_20210706_power2amp/equal_lnn_AM3.6Hz_s35_28.m4a,,,,,,,,,,,,
,,,,,,,,,,,,41901,2021-09-24_12h20.25.406,judgeSpeechMusic_20210921_logNormShiftAmp_detection_fixS,2020.1.2,MacIntel,60,,,,,,,,,,,,,,,,,,1,5.5614,,0,0,13,13,21,1,stimuli/stim_20210706_power2amp/equal_lnn_AM1.2Hz_s35_25.m4a,,,,,,,,,,,,
,,,,,,,,,,,,41901,2021-09-24_12h20.25.406,judgeSpeechMusic_20210921_logNormShiftAmp_detection_fixS,2020.1.2,MacIntel,60,,,,,,,,,,,,,,,,,,1,5.6425,,0,0,14,14,61,1,stimuli/stim_20210706_power2amp/equal_lnn_AM4.2Hz_s35_40.m4a,,,,,,,,,,,,
,,,,,,,,,,,,41901,2021-09-24_12h20.25.406,judgeSpeechMusic_20210921_logNormShiftAmp_detection_fixS,2020.1.2,MacIntel,60,,,,,,,,,,,,,,,,,,1,5.646,,0,0,15,15,43,1,stimuli/stim_20210706_power2amp/equal_lnn_AM2.4Hz_s35_16.m4a,,,,,,,,,,,,
,,,,,,,,,,,,41901,2021-09-24_12h20.25.406,judgeSpeechMusic_20210921_logNormShiftAmp_detection_fixS,2020.1.2,MacIntel,60,,,,,,,,,,,,,,,,,,1,5.5931,,0,0,16,16,63,1,stimuli/stim_20210706_power2amp/equal_lnn_AM4.2Hz_s35_45.m4a,,,,,,,,,,,,
,,,,,,,,,,,,41901,2021-09-24_12h20.25.406,judgeSpeechMusic_20210921_logNormShiftAmp_detection_fixS,2020.1.2,MacIntel,60,,,,,,,,,,,,,,,,,,1,5.7123,,0,0,17,17,67,1,stimuli/stim_20210706_power2amp/equal_lnn_AM4.2Hz_s35_16.m4a,,,,,,,,,,,,
,,,,,,,,,,,,41901,2021-09-24_12h20.25.406,judgeSpeechMusic_20210921_logNormShiftAmp_detection_fixS,2020.1.2,MacIntel,60,,,,,,,,,,,,,,,,,,1,5.5402,,0,0,18,18,16,1,stimuli/stim_20210706_power2amp/equal_lnn_AM1.2Hz_s35_24.m4a,,,,,,,,,,,,
,,,,,,,,,,,,41901,2021-09-24_12h20.25.406,judgeSpeechMusic_20210921_logNormShiftAmp_detection_fixS,2020.1.2,MacIntel,60,,,,,,,,,,,,,,,,,,1,5.6744,2,1,0,19,19,72,1,stimuli/stim_20210706_power2amp/equal_lnn_AM4.2Hz_s35_30.m4a,0.5168,,,,,,,,,,,
,,,,,,,,,,,,41901,2021-09-24_12h20.25.406,judgeSpeechMusic_20210921_logNormShiftAmp_detection_fixS,2020.1.2,MacIntel,60,,,,,,,,,,,,,,,,,,1,6.0927,,0,0,20,20,57,1,stimuli/stim_20210706_power2amp/equal_lnn_AM3.6Hz_s35_19.m4a,,,,,,,,,,,,
,,,,,,,,,,,,41901,2021-09-24_12h20.25.406,judgeSpeechMusic_20210921_logNormShiftAmp_detection_fixS,2020.1.2,MacIntel,60,,,,,,,,,,,,,,,,,,1,5.9945,,0,0,21,21,42,1,stimuli/stim_20210706_power2amp/equal_lnn_AM2.4Hz_s35_26.m4a,,,,,,,,,,,,
,,,,,,,,,,,,41901,2021-09-24_12h20.25.406,judgeSpeechMusic_20210921_logNormShiftAmp_detection_fixS,2020.1.2,MacIntel,60,,,,,,,,,,,,,,,,,,1,5.7456,,0,0,22,22,52,1,stimuli/stim_20210706_power2amp/equal_lnn_AM3.6Hz_s35_4.m4a,,,,,,,,,,,,
,,,,,,,,,,,,41901,2021-09-24_12h20.25.406,judgeSpeechMusic_20210921_logNormShiftAmp_detection_fixS,2020.1.2,MacIntel,60,,,,,,,,,,,,,,,,,,1,5.6429,,0,0,23,23,24,1,stimuli/stim_20210706_power2amp/equal_lnn_AM1.2Hz_s35_45.m4a,,,,,,,,,,,,
,,,,,,,,,,,,41901,2021-09-24_12h20.25.406,judgeSpeechMusic_20210921_logNormShiftAmp_detection_fixS,2020.1.2,MacIntel,60,,,,,,,,,,,,,,,,,,1,5.6111,,0,0,24,24,51,1,stimuli/stim_20210706_power2amp/equal_lnn_AM3.6Hz_s35_44.m4a,,,,,,,,,,,,
,,,,,,,,,,,,41901,2021-09-24_12h20.25.406,judgeSpeechMusic_20210921_logNormShiftAmp_detection_fixS,2020.1.2,MacIntel,60,,,,,,,,,,,,,,,,,,1,5.4924,,0,0,25,25,60,1,stimuli/stim_20210706_power2amp/equal_lnn_AM4.2Hz_s35_3.m4a,,,,,,,,,,,,
,,,,,,,,,,,,41901,2021-09-24_12h20.25.406,judgeSpeechMusic_20210921_logNormShiftAmp_detection_fixS,2020.1.2,MacIntel,60,,,,,,,,,,,,,,,,,,1,5.5595,,0,0,26,26,17,1,stimuli/stim_20210706_power2amp/equal_lnn_AM1.2Hz_s35_49.m4a,,,,,,,,,,,,
,,,,,,,,,,,,41901,2021-09-24_12h20.25.406,judgeSpeechMusic_20210921_logNormShiftAmp_detection_fixS,2020.1.2,MacIntel,60,,,,,,,,,,,,,,,,,,1,5.4917,,0,0,27,27,41,1,stimuli/stim_20210706_power2amp/equal_lnn_AM2.4Hz_s35_29.m4a,,,,,,,,,,,,
,,,,,,,,,,,,41901,2021-09-24_12h20.25.406,judgeSpeechMusic_20210921_logNormShiftAmp_detection_fixS,2020.1.2,MacIntel,60,,,,,,,,,,,,,,,,,,1,5.4129,,0,0,28,28,54,1,stimuli/stim_20210706_power2amp/equal_lnn_AM3.6Hz_s35_47.m4a,,,,,,,,,,,,
,,,,,,,,,,,,41901,2021-09-24_12h20.25.406,judgeSpeechMusic_20210921_logNormShiftAmp_detection_fixS,2020.1.2,MacIntel,60,,,,,,,,,,,,,,,,,,1,5.5086,,0,0,29,29,13,1,stimuli/stim_20210706_power2amp/equal_lnn_AM0.6Hz_s35_15.m4a,,,,,,,,,,,,
,,,,,,,,,,,,41901,2021-09-24_12h20.25.406,judgeSpeechMusic_20210921_logNormShiftAmp_detection_fixS,2020.1.2,MacIntel,60,,,,,,,,,,,,,,,,,,1,5.6427,,0,0,30,30,15,1,stimuli/stim_20210706_power2amp/equal_lnn_AM1.2Hz_s35_8.m4a,,,,,,,,,,,,
,,,,,,,,,,,,41901,2021-09-24_12h20.25.406,judgeSpeechMusic_20210921_logNormShiftAmp_detection_fixS,2020.1.2,MacIntel,60,,,,,,,,,,,,,,,,,,1,5.6079,,0,0,31,31,37,1,stimuli/stim_20210706_power2amp/equal_lnn_AM2.4Hz_s35_3.m4a,,,,,,,,,,,,
,,,,,,,,,,,,41901,2021-09-24_12h20.25.406,judgeSpeechMusic_20210921_logNormShiftAmp_detection_fixS,2020.1.2,MacIntel,60,,,,,,,,,,,,,,,,,,1,5.627,,0,0,32,32,5,1,stimuli/stim_20210706_power2amp/equal_lnn_AM0.6Hz_s35_5.m4a,,,,,,,,,,,,
,,,,,,,,,,,,41901,2021-09-24_12h20.25.406,judgeSpeechMusic_20210921_logNormShiftAmp_detection_fixS,2020.1.2,MacIntel,60,,,,,,,,,,,,,,,,,,1,5.8257,,0,0,33,33,58,1,stimuli/stim_20210706_power2amp/equal_lnn_AM3.6Hz_s35_41.m4a,,,,,,,,,,,,
,,,,,,,,,,,,41901,2021-09-24_12h20.25.406,judgeSpeechMusic_20210921_logNormShiftAmp_detection_fixS,2020.1.2,MacIntel,60,,,,,,,,,,,,,,,,,,1,5.5416,,0,0,34,34,71,1,stimuli/stim_20210706_power2amp/equal_lnn_AM4.2Hz_s35_23.m4a,,,,,,,,,,,,
,,,,,,,,,,,,41901,2021-09-24_12h20.25.406,judgeSpeechMusic_20210921_logNormShiftAmp_detection_fixS,2020.1.2,MacIntel,60,,,,,,,,,,,,,,,,,,1,5.5269,,0,0,35,35,34,1,stimuli/stim_20210706_power2amp/equal_lnn_AM2.4Hz_s35_18.m4a,,,,,,,,,,,,
,,,,,,,,,,,,41901,2021-09-24_12h20.25.406,judgeSpeechMusic_20210921_logNormShiftAmp_detection_fixS,2020.1.2,MacIntel,60,,,,,,,,,,,,,,,,,,1,5.8427,,0,0,36,36,66,1,stimuli/stim_20210706_power2amp/equal_lnn_AM4.2Hz_s35_28.m4a,,,,,,,,,,,,
,,,,,,,,,,,,41901,2021-09-24_12h20.25.406,judgeSpeechMusic_20210921_logNormShiftAmp_detection_fixS,2020.1.2,MacIntel,60,,,,,,,,,,,,,,,,,,1,5.6587,,0,0,37,37,70,1,stimuli/stim_20210706_power2amp/equal_lnn_AM4.2Hz_s35_11.m4a,,,,,,,,,,,,
,,,,,,,,,,,,41901,2021-09-24_12h20.25.406,judgeSpeechMusic_20210921_logNormShiftAmp_detection_fixS,2020.1.2,MacIntel,60,,,,,,,,,,,,,,,,,,1,5.4348,1,1,0,38,38,20,1,stimuli/stim_20210706_power2amp/equal_lnn_AM1.2Hz_s35_2.m4a,0.5963,,,,,,,,,,,
,,,,,,,,,,,,41901,2021-09-24_12h20.25.406,judgeSpeechMusic_20210921_logNormShiftAmp_detection_fixS,2020.1.2,MacIntel,60,,,,,,,,,,,,,,,,,,1,5.6265,,0,0,39,39,59,1,stimuli/stim_20210706_power2amp/equal_lnn_AM3.6Hz_s35_26.m4a,,,,,,,,,,,,
,,,,,,,,,,,,41901,2021-09-24_12h20.25.406,judgeSpeechMusic_20210921_logNormShiftAmp_detection_fixS,2020.1.2,MacIntel,60,,,,,,,,,,,,,,,,,,1,5.8285,,0,0,40,40,47,1,stimuli/stim_20210706_power2amp/equal_lnn_AM3.6Hz_s35_12.m4a,,,,,,,,,,,,
,,,,,,,,,,,,41901,2021-09-24_12h20.25.406,judgeSpeechMusic_20210921_logNormShiftAmp_detection_fixS,2020.1.2,MacIntel,60,,,,,,,,,,,,,,,,,,1,5.627,,0,0,41,41,33,1,stimuli/stim_20210706_power2amp/equal_lnn_AM2.4Hz_s35_40.m4a,,,,,,,,,,,,
,,,,,,,,,,,,41901,2021-09-24_12h20.25.406,judgeSpeechMusic_20210921_logNormShiftAmp_detection_fixS,2020.1.2,MacIntel,60,,,,,,,,,,,,,,,,,,1,5.6243,,0,0,42,42,45,1,stimuli/stim_20210706_power2amp/equal_lnn_AM3.6Hz_s35_31.m4a,,,,,,,,,,,,
,,,,,,,,,,,,41901,2021-09-24_12h20.25.406,judgeSpeechMusic_20210921_logNormShiftAmp_detection_fixS,2020.1.2,MacIntel,60,,,,,,,,,,,,,,,,,,1,5.5933,,0,0,43,43,0,1,stimuli/stim_20210706_power2amp/equal_lnn_AM0.6Hz_s35_27.m4a,,,,,,,,,,,,
,,,,,,,,,,,,41901,2021-09-24_12h20.25.406,judgeSpeechMusic_20210921_logNormShiftAmp_detection_fixS,2020.1.2,MacIntel,60,,,,,,,,,,,,,,,,,,1,5.4591,,0,0,44,44,23,1,stimuli/stim_20210706_power2amp/equal_lnn_AM1.2Hz_s35_17.m4a,,,,,,,,,,,,
,,,,,,,,,,,,41901,2021-09-24_12h20.25.406,judgeSpeechMusic_20210921_logNormShiftAmp_detection_fixS,2020.1.2,MacIntel,60,,,,,,,,,,,,,,,,,,1,5.4916,,0,0,45,45,36,1,stimuli/stim_20210706_power2amp/equal_lnn_AM2.4Hz_s35_9.m4a,,,,,,,,,,,,
,,,,,,,,,,,,41901,2021-09-24_12h20.25.406,judgeSpeechMusic_20210921_logNormShiftAmp_detection_fixS,2020.1.2,MacIntel,60,,,,,,,,,,,,,,,,,,1,6.0608,,0,0,46,46,53,1,stimuli/stim_20210706_power2amp/equal_lnn_AM3.6Hz_s35_35.m4a,,,,,,,,,,,,
,,,,,,,,,,,,41901,2021-09-24_12h20.25.406,judgeSpeechMusic_20210921_logNormShiftAmp_detection_fixS,2020.1.2,MacIntel,60,,,,,,,,,,,,,,,,,,1,5.6918,,0,0,47,47,1,1,stimuli/stim_20210706_power2amp/equal_lnn_AM0.6Hz_s35_7.m4a,,,,,,,,,,,,
,,,,,,,,,,,,41901,2021-09-24_12h20.25.406,judgeSpeechMusic_20210921_logNormShiftAmp_detection_fixS,2020.1.2,MacIntel,60,,,,,,,,,,,,,,,,,,1,5.5574,,0,0,48,48,32,1,stimuli/stim_20210706_power2amp/equal_lnn_AM2.4Hz_s35_5.m4a,,,,,,,,,,,,
,,,,,,,,,,,,41901,2021-09-24_12h20.25.406,judgeSpeechMusic_20210921_logNormShiftAmp_detection_fixS,2020.1.2,MacIntel,60,,,,,,,,,,,,,,,,,,1,5.6091,,0,0,49,49,18,1,stimuli/stim_20210706_power2amp/equal_lnn_AM1.2Hz_s35_10.m4a,,,,,,,,,,,,
,,,,,,,,,,,,41901,2021-09-24_12h20.25.406,judgeSpeechMusic_20210921_logNormShiftAmp_detection_fixS,2020.1.2,MacIntel,60,,,,,,,,,,,,,,,,,,1,5.496,,0,0,50,50,11,1,stimuli/stim_20210706_power2amp/equal_lnn_AM0.6Hz_s35_36.m4a,,,,,,,,,,,,
,,,,,,,,,,,,41901,2021-09-24_12h20.25.406,judgeSpeechMusic_20210921_logNormShiftAmp_detection_fixS,2020.1.2,MacIntel,60,,,,,,,,,,,,,,,,,,1,5.6271,,0,0,51,51,29,1,stimuli/stim_20210706_power2amp/equal_lnn_AM1.2Hz_s35_33.m4a,,,,,,,,,,,,
,,,,,,,,,,,,41901,2021-09-24_12h20.25.406,judgeSpeechMusic_20210921_logNormShiftAmp_detection_fixS,2020.1.2,MacIntel,60,,,,,,,,,,,,,,,,,,1,5.4749,,0,0,52,52,10,1,stimuli/stim_20210706_power2amp/equal_lnn_AM0.6Hz_s35_20.m4a,,,,,,,,,,,,
,,,,,,,,,,,,41901,2021-09-24_12h20.25.406,judgeSpeechMusic_20210921_logNormShiftAmp_detection_fixS,2020.1.2,MacIntel,60,,,,,,,,,,,,,,,,,,1,5.6109,,0,0,53,53,69,1,stimuli/stim_20210706_power2amp/equal_lnn_AM4.2Hz_s35_34.m4a,,,,,,,,,,,,
,,,,,,,,,,,,41901,2021-09-24_12h20.25.406,judgeSpeechMusic_20210921_logNormShiftAmp_detection_fixS,2020.1.2,MacIntel,60,,,,,,,,,,,,,,,,,,1,5.4763,,0,0,54,54,19,1,stimuli/stim_20210706_power2amp/equal_lnn_AM1.2Hz_s35_35.m4a,,,,,,,,,,,,
,,,,,,,,,,,,41901,2021-09-24_12h20.25.406,judgeSpeechMusic_20210921_logNormShiftAmp_detection_fixS,2020.1.2,MacIntel,60,,,,,,,,,,,,,,,,,,1,5.5741,,0,0,55,55,31,1,stimuli/stim_20210706_power2amp/equal_lnn_AM2.4Hz_s35_46.m4a,,,,,,,,,,,,
,,,,,,,,,,,,41901,2021-09-24_12h20.25.406,judgeSpeechMusic_20210921_logNormShiftAmp_detection_fixS,2020.1.2,MacIntel,60,,,,,,,,,,,,,,,,,,1,5.5436,,0,0,56,56,28,1,stimuli/stim_20210706_power2amp/equal_lnn_AM1.2Hz_s35_43.m4a,,,,,,,,,,,,
,,,,,,,,,,,,41901,2021-09-24_12h20.25.406,judgeSpeechMusic_20210921_logNormShiftAmp_detection_fixS,2020.1.2,MacIntel,60,,,,,,,,,,,,,,,,,,1,5.6755,,0,0,57,57,55,1,stimuli/stim_20210706_power2amp/equal_lnn_AM3.6Hz_s35_46.m4a,,,,,,,,,,,,
,,,,,,,,,,,,41901,2021-09-24_12h20.25.406,judgeSpeechMusic_20210921_logNormShiftAmp_detection_fixS,2020.1.2,MacIntel,60,,,,,,,,,,,,,,,,,,1,5.5928,3,1,0,58,58,9,1,stimuli/stim_20210706_power2amp/equal_lnn_AM0.6Hz_s35_24.m4a,4.748,,,,,,,,,,,
,,,,,,,,,,,,41901,2021-09-24_12h20.25.406,judgeSpeechMusic_20210921_logNormShiftAmp_detection_fixS,2020.1.2,MacIntel,60,,,,,,,,,,,,,,,,,,1,5.8751,,0,0,59,59,22,1,stimuli/stim_20210706_power2amp/equal_lnn_AM1.2Hz_s35_46.m4a,,,,,,,,,,,,
,,,,,,,,,,,,41901,2021-09-24_12h20.25.406,judgeSpeechMusic_20210921_logNormShiftAmp_detection_fixS,2020.1.2,MacIntel,60,,,,,,,,,,,,,,,,,,1,5.6455,,0,0,60,60,6,1,stimuli/stim_20210706_power2amp/equal_lnn_AM0.6Hz_s35_46.m4a,,,,,,,,,,,,
,,,,,,,,,,,,41901,2021-09-24_12h20.25.406,judgeSpeechMusic_20210921_logNormShiftAmp_detection_fixS,2020.1.2,MacIntel,60,,,,,,,,,,,,,,,,,,1,5.6758,,0,0,61,61,38,1,stimuli/stim_20210706_power2amp/equal_lnn_AM2.4Hz_s35_36.m4a,,,,,,,,,,,,
,,,,,,,,,,,,41901,2021-09-24_12h20.25.406,judgeSpeechMusic_20210921_logNormShiftAmp_detection_fixS,2020.1.2,MacIntel,60,,,,,,,,,,,,,,,,,,1,6.2274,,0,0,62,62,12,1,stimuli/stim_20210706_power2amp/equal_lnn_AM0.6Hz_s35_40.m4a,,,,,,,,,,,,
,,,,,,,,,,,,41901,2021-09-24_12h20.25.406,judgeSpeechMusic_20210921_logNormShiftAmp_detection_fixS,2020.1.2,MacIntel,60,,,,,,,,,,,,,,,,,,1,7.0961,,0,0,63,63,25,1,stimuli/stim_20210706_power2amp/equal_lnn_AM1.2Hz_s35_28.m4a,,,,,,,,,,,,
,,,,,,,,,,,,41901,2021-09-24_12h20.25.406,judgeSpeechMusic_20210921_logNormShiftAmp_detection_fixS,2020.1.2,MacIntel,60,,,,,,,,,,,,,,,,,,1,5.6932,,0,0,64,64,3,1,stimuli/stim_20210706_power2amp/equal_lnn_AM0.6Hz_s35_11.m4a,,,,,,,,,,,,
,,,,,,,,,,,,41901,2021-09-24_12h20.25.406,judgeSpeechMusic_20210921_logNormShiftAmp_detection_fixS,2020.1.2,MacIntel,60,,,,,,,,,,,,,,,,,,1,5.5421,,0,0,65,65,73,1,stimuli/stim_20210706_power2amp/equal_lnn_AM4.2Hz_s35_38.m4a,,,,,,,,,,,,
,,,,,,,,,,,,41901,2021-09-24_12h20.25.406,judgeSpeechMusic_20210921_logNormShiftAmp_detection_fixS,2020.1.2,MacIntel,60,,,,,,,,,,,,,,,,,,1,5.5746,,0,0,66,66,30,1,stimuli/stim_20210706_power2amp/equal_lnn_AM2.4Hz_s35_33.m4a,,,,,,,,,,,,
,,,,,,,,,,,,41901,2021-09-24_12h20.25.406,judgeSpeechMusic_20210921_logNormShiftAmp_detection_fixS,2020.1.2,MacIntel,60,,,,,,,,,,,,,,,,,,1,5.5112,,0,0,67,67,2,1,stimuli/stim_20210706_power2amp/equal_lnn_AM0.6Hz_s35_22.m4a,,,,,,,,,,,,
,,,,,,,,,,,,41901,2021-09-24_12h20.25.406,judgeSpeechMusic_20210921_logNormShiftAmp_detection_fixS,2020.1.2,MacIntel,60,,,,,,,,,,,,,,,,,,1,5.6418,,0,0,68,68,8,1,stimuli/stim_20210706_power2amp/equal_lnn_AM0.6Hz_s35_21.m4a,,,,,,,,,,,,
,,,,,,,,,,,,41901,2021-09-24_12h20.25.406,judgeSpeechMusic_20210921_logNormShiftAmp_detection_fixS,2020.1.2,MacIntel,60,,,,,,,,,,,,,,,,,,1,5.5272,,0,0,69,69,68,1,stimuli/stim_20210706_power2amp/equal_lnn_AM4.2Hz_s35_25.m4a,,,,,,,,,,,,
,,,,,,,,,,,,41901,2021-09-24_12h20.25.406,judgeSpeechMusic_20210921_logNormShiftAmp_detection_fixS,2020.1.2,MacIntel,60,,,,,,,,,,,,,,,,,,1,5.5328,,0,0,70,70,64,1,stimuli/stim_20210706_power2amp/equal_lnn_AM4.2Hz_s35_36.m4a,,,,,,,,,,,,
,,,,,,,,,,,,41901,2021-09-24_12h20.25.406,judgeSpeechMusic_20210921_logNormShiftAmp_detection_fixS,2020.1.2,MacIntel,60,,,,,,,,,,,,,,,,,,1,5.5382,,0,0,71,71,65,1,stimuli/stim_20210706_power2amp/equal_lnn_AM4.2Hz_s35_13.m4a,,,,,,,,,,,,
,,,,,,,,,,,,41901,2021-09-24_12h20.25.406,judgeSpeechMusic_20210921_logNormShiftAmp_detection_fixS,2020.1.2,MacIntel,60,,,,,,,,,,,,,,,,,,1,5.4775,,0,0,72,72,26,1,stimuli/stim_20210706_power2amp/equal_lnn_AM1.2Hz_s35_31.m4a,,,,,,,,,,,,
,,,,,,,,,,,,41901,2021-09-24_12h20.25.406,judgeSpeechMusic_20210921_logNormShiftAmp_detection_fixS,2020.1.2,MacIntel,60,,,,,,,,,,,,,,,,,,1,5.508,,0,0,73,73,40,1,stimuli/stim_20210706_power2amp/equal_lnn_AM2.4Hz_s35_35.m4a,,,,,,,,,,,,
,,,,,,,,,,,,41901,2021-09-24_12h20.25.406,judgeSpeechMusic_20210921_logNormShiftAmp_detection_fixS,2020.1.2,MacIntel,60,,,,,,,,,,,,,,,,,,1,5.4766,,0,0,74,74,39,1,stimuli/stim_20210706_power2amp/equal_lnn_AM2.4Hz_s35_34.m4a,,,,,,,,,,,,
,,,,,,,,,,,,41901,2021-09-24_12h20.25.406,judgeSpeechMusic_20210921_logNormShiftAmp_detection_fixS,2020.1.2,MacIntel,60,,,,,,,,,,,,,,,,,,,,,,,,,,,,,space,0.5973,0,1,1,1,1,SPEECH,stimuli/SPEECH.jpg,,
,,,,,,,,,,,,41901,2021-09-24_12h20.25.406,judgeSpeechMusic_20210921_logNormShiftAmp_detection_fixS,2020.1.2,MacIntel,60,,,,,,0,0,0,0,0,1,stimuli/stim_20210706_power2amp/equal_lnn_AM_training0.9Hz_s35.m4a,,,,,,,,,,,,,,,,,,,,,,,,,,,
,,,,,,,,,,,,41901,2021-09-24_12h20.25.406,judgeSpeechMusic_20210921_logNormShiftAmp_detection_fixS,2020.1.2,MacIntel,60,,,,,,,,,,,,,,space,9.3372,space,0.634,1,5.6607,,0,0,0,0,26,1,stimuli/stim_20210706_power2amp/equal_lnn_AM1.2Hz_s35_31.m4a,,,,,,,,,,,,
,,,,,,,,,,,,41901,2021-09-24_12h20.25.406,judgeSpeechMusic_20210921_logNormShiftAmp_detection_fixS,2020.1.2,MacIntel,60,,,,,,,,,,,,,,,,,,1,5.6946,,0,0,1,1,20,1,stimuli/stim_20210706_power2amp/equal_lnn_AM1.2Hz_s35_2.m4a,,,,,,,,,,,,
,,,,,,,,,,,,41901,2021-09-24_12h20.25.406,judgeSpeechMusic_20210921_logNormShiftAmp_detection_fixS,2020.1.2,MacIntel,60,,,,,,,,,,,,,,,,,,1,5.6927,,0,0,2,2,74,1,stimuli/stim_20210706_power2amp/equal_lnn_AM4.2Hz_s35_32.m4a,,,,,,,,,,,,
,,,,,,,,,,,,41901,2021-09-24_12h20.25.406,judgeSpeechMusic_20210921_logNormShiftAmp_detection_fixS,2020.1.2,MacIntel,60,,,,,,,,,,,,,,,,,,1,5.4942,,0,0,3,3,73,1,stimuli/stim_20210706_power2amp/equal_lnn_AM4.2Hz_s35_38.m4a,,,,,,,,,,,,
,,,,,,,,,,,,41901,2021-09-24_12h20.25.406,judgeSpeechMusic_20210921_logNormShiftAmp_detection_fixS,2020.1.2,MacIntel,60,,,,,,,,,,,,,,,,,,1,6.3256,,0,0,4,4,52,1,stimuli/stim_20210706_power2amp/equal_lnn_AM3.6Hz_s35_4.m4a,,,,,,,,,,,,
,,,,,,,,,,,,41901,2021-09-24_12h20.25.406,judgeSpeechMusic_20210921_logNormShiftAmp_detection_fixS,2020.1.2,MacIntel,60,,,,,,,,,,,,,,,,,,1,5.6598,,0,0,5,5,10,1,stimuli/stim_20210706_power2amp/equal_lnn_AM0.6Hz_s35_20.m4a,,,,,,,,,,,,
,,,,,,,,,,,,41901,2021-09-24_12h20.25.406,judgeSpeechMusic_20210921_logNormShiftAmp_detection_fixS,2020.1.2,MacIntel,60,,,,,,,,,,,,,,,,,,1,5.5759,,0,0,6,6,40,1,stimuli/stim_20210706_power2amp/equal_lnn_AM2.4Hz_s35_35.m4a,,,,,,,,,,,,
,,,,,,,,,,,,41901,2021-09-24_12h20.25.406,judgeSpeechMusic_20210921_logNormShiftAmp_detection_fixS,2020.1.2,MacIntel,60,,,,,,,,,,,,,,,,,,1,5.5263,,0,0,7,7,60,1,stimuli/stim_20210706_power2amp/equal_lnn_AM4.2Hz_s35_3.m4a,,,,,,,,,,,,
,,,,,,,,,,,,41901,2021-09-24_12h20.25.406,judgeSpeechMusic_20210921_logNormShiftAmp_detection_fixS,2020.1.2,MacIntel,60,,,,,,,,,,,,,,,,,,1,5.8111,,0,0,8,8,8,1,stimuli/stim_20210706_power2amp/equal_lnn_AM0.6Hz_s35_21.m4a,,,,,,,,,,,,
,,,,,,,,,,,,41901,2021-09-24_12h20.25.406,judgeSpeechMusic_20210921_logNormShiftAmp_detection_fixS,2020.1.2,MacIntel,60,,,,,,,,,,,,,,,,,,1,5.4756,,0,0,9,9,53,1,stimuli/stim_20210706_power2amp/equal_lnn_AM3.6Hz_s35_35.m4a,,,,,,,,,,,,
,,,,,,,,,,,,41901,2021-09-24_12h20.25.406,judgeSpeechMusic_20210921_logNormShiftAmp_detection_fixS,2020.1.2,MacIntel,60,,,,,,,,,,,,,,,,,,1,6.1283,,0,0,10,10,47,1,stimuli/stim_20210706_power2amp/equal_lnn_AM3.6Hz_s35_12.m4a,,,,,,,,,,,,
,,,,,,,,,,,,41901,2021-09-24_12h20.25.406,judgeSpeechMusic_20210921_logNormShiftAmp_detection_fixS,2020.1.2,MacIntel,60,,,,,,,,,,,,,,,,,,1,5.5093,,0,0,11,11,35,1,stimuli/stim_20210706_power2amp/equal_lnn_AM2.4Hz_s35_31.m4a,,,,,,,,,,,,
,,,,,,,,,,,,41901,2021-09-24_12h20.25.406,judgeSpeechMusic_20210921_logNormShiftAmp_detection_fixS,2020.1.2,MacIntel,60,,,,,,,,,,,,,,,,,,1,5.5918,,0,0,12,12,62,1,stimuli/stim_20210706_power2amp/equal_lnn_AM4.2Hz_s35_21.m4a,,,,,,,,,,,,
,,,,,,,,,,,,41901,2021-09-24_12h20.25.406,judgeSpeechMusic_20210921_logNormShiftAmp_detection_fixS,2020.1.2,MacIntel,60,,,,,,,,,,,,,,,,,,1,5.7932,,0,0,13,13,69,1,stimuli/stim_20210706_power2amp/equal_lnn_AM4.2Hz_s35_34.m4a,,,,,,,,,,,,
,,,,,,,,,,,,41901,2021-09-24_12h20.25.406,judgeSpeechMusic_20210921_logNormShiftAmp_detection_fixS,2020.1.2,MacIntel,60,,,,,,,,,,,,,,,,,,1,5.6933,,0,0,14,14,42,1,stimuli/stim_20210706_power2amp/equal_lnn_AM2.4Hz_s35_26.m4a,,,,,,,,,,,,
,,,,,,,,,,,,41901,2021-09-24_12h20.25.406,judgeSpeechMusic_20210921_logNormShiftAmp_detection_fixS,2020.1.2,MacIntel,60,,,,,,,,,,,,,,,,,,1,5.6097,,0,0,15,15,6,1,stimuli/stim_20210706_power2amp/equal_lnn_AM0.6Hz_s35_46.m4a,,,,,,,,,,,,
,,,,,,,,,,,,41901,2021-09-24_12h20.25.406,judgeSpeechMusic_20210921_logNormShiftAmp_detection_fixS,2020.1.2,MacIntel,60,,,,,,,,,,,,,,,,,,1,5.5093,,0,0,16,16,11,1,stimuli/stim_20210706_power2amp/equal_lnn_AM0.6Hz_s35_36.m4a,,,,,,,,,,,,
,,,,,,,,,,,,41901,2021-09-24_12h20.25.406,judgeSpeechMusic_20210921_logNormShiftAmp_detection_fixS,2020.1.2,MacIntel,60,,,,,,,,,,,,,,,,,,1,5.9081,,0,0,17,17,28,1,stimuli/stim_20210706_power2amp/equal_lnn_AM1.2Hz_s35_43.m4a,,,,,,,,,,,,
,,,,,,,,,,,,41901,2021-09-24_12h20.25.406,judgeSpeechMusic_20210921_logNormShiftAmp_detection_fixS,2020.1.2,MacIntel,60,,,,,,,,,,,,,,,,,,1,6.3763,,0,0,18,18,9,1,stimuli/stim_20210706_power2amp/equal_lnn_AM0.6Hz_s35_24.m4a,,,,,,,,,,,,
,,,,,,,,,,,,41901,2021-09-24_12h20.25.406,judgeSpeechMusic_20210921_logNormShiftAmp_detection_fixS,2020.1.2,MacIntel,60,,,,,,,,,,,,,,,,,,1,5.4085,4,1,0,19,19,12,1,stimuli/stim_20210706_power2amp/equal_lnn_AM0.6Hz_s35_40.m4a,2.4314,,,,,,,,,,,
,,,,,,,,,,,,41901,2021-09-24_12h20.25.406,judgeSpeechMusic_20210921_logNormShiftAmp_detection_fixS,2020.1.2,MacIntel,60,,,,,,,,,,,,,,,,,,1,5.8752,,0,0,20,20,29,1,stimuli/stim_20210706_power2amp/equal_lnn_AM1.2Hz_s35_33.m4a,,,,,,,,,,,,
,,,,,,,,,,,,41901,2021-09-24_12h20.25.406,judgeSpeechMusic_20210921_logNormShiftAmp_detection_fixS,2020.1.2,MacIntel,60,,,,,,,,,,,,,,,,,,1,5.4773,,0,0,21,21,68,1,stimuli/stim_20210706_power2amp/equal_lnn_AM4.2Hz_s35_25.m4a,,,,,,,,,,,,
,,,,,,,,,,,,41901,2021-09-24_12h20.25.406,judgeSpeechMusic_20210921_logNormShiftAmp_detection_fixS,2020.1.2,MacIntel,60,,,,,,,,,,,,,,,,,,1,5.4419,,0,0,22,22,14,1,stimuli/stim_20210706_power2amp/equal_lnn_AM0.6Hz_s35_28.m4a,,,,,,,,,,,,
,,,,,,,,,,,,41901,2021-09-24_12h20.25.406,judgeSpeechMusic_20210921_logNormShiftAmp_detection_fixS,2020.1.2,MacIntel,60,,,,,,,,,,,,,,,,,,1,5.5419,,0,0,23,23,45,1,stimuli/stim_20210706_power2amp/equal_lnn_AM3.6Hz_s35_31.m4a,,,,,,,,,,,,
,,,,,,,,,,,,41901,2021-09-24_12h20.25.406,judgeSpeechMusic_20210921_logNormShiftAmp_detection_fixS,2020.1.2,MacIntel,60,,,,,,,,,,,,,,,,,,1,5.496,,0,0,24,24,59,1,stimuli/stim_20210706_power2amp/equal_lnn_AM3.6Hz_s35_26.m4a,,,,,,,,,,,,
,,,,,,,,,,,,41901,2021-09-24_12h20.25.406,judgeSpeechMusic_20210921_logNormShiftAmp_detection_fixS,2020.1.2,MacIntel,60,,,,,,,,,,,,,,,,,,1,5.5747,,0,0,25,25,17,1,stimuli/stim_20210706_power2amp/equal_lnn_AM1.2Hz_s35_49.m4a,,,,,,,,,,,,
,,,,,,,,,,,,41901,2021-09-24_12h20.25.406,judgeSpeechMusic_20210921_logNormShiftAmp_detection_fixS,2020.1.2,MacIntel,60,,,,,,,,,,,,,,,,,,1,5.5448,,0,0,26,26,48,1,stimuli/stim_20210706_power2amp/equal_lnn_AM3.6Hz_s35_43.m4a,,,,,,,,,,,,
,,,,,,,,,,,,41901,2021-09-24_12h20.25.406,judgeSpeechMusic_20210921_logNormShiftAmp_detection_fixS,2020.1.2,MacIntel,60,,,,,,,,,,,,,,,,,,1,5.5113,,0,0,27,27,32,1,stimuli/stim_20210706_power2amp/equal_lnn_AM2.4Hz_s35_5.m4a,,,,,,,,,,,,
,,,,,,,,,,,,41901,2021-09-24_12h20.25.406,judgeSpeechMusic_20210921_logNormShiftAmp_detection_fixS,2020.1.2,MacIntel,60,,,,,,,,,,,,,,,,,,1,5.5403,,0,0,28,28,18,1,stimuli/stim_20210706_power2amp/equal_lnn_AM1.2Hz_s35_10.m4a,,,,,,,,,,,,
,,,,,,,,,,,,41901,2021-09-24_12h20.25.406,judgeSpeechMusic_20210921_logNormShiftAmp_detection_fixS,2020.1.2,MacIntel,60,,,,,,,,,,,,,,,,,,1,5.4921,,0,0,29,29,33,1,stimuli/stim_20210706_power2amp/equal_lnn_AM2.4Hz_s35_40.m4a,,,,,,,,,,,,
,,,,,,,,,,,,41901,2021-09-24_12h20.25.406,judgeSpeechMusic_20210921_logNormShiftAmp_detection_fixS,2020.1.2,MacIntel,60,,,,,,,,,,,,,,,,,,1,5.612,,0,0,30,30,49,1,stimuli/stim_20210706_power2amp/equal_lnn_AM3.6Hz_s35_5.m4a,,,,,,,,,,,,
,,,,,,,,,,,,41901,2021-09-24_12h20.25.406,judgeSpeechMusic_20210921_logNormShiftAmp_detection_fixS,2020.1.2,MacIntel,60,,,,,,,,,,,,,,,,,,1,5.5106,,0,0,31,31,30,1,stimuli/stim_20210706_power2amp/equal_lnn_AM2.4Hz_s35_33.m4a,,,,,,,,,,,,
,,,,,,,,,,,,41901,2021-09-24_12h20.25.406,judgeSpeechMusic_20210921_logNormShiftAmp_detection_fixS,2020.1.2,MacIntel,60,,,,,,,,,,,,,,,,,,1,5.5123,,0,0,32,32,39,1,stimuli/stim_20210706_power2amp/equal_lnn_AM2.4Hz_s35_34.m4a,,,,,,,,,,,,
,,,,,,,,,,,,41901,2021-09-24_12h20.25.406,judgeSpeechMusic_20210921_logNormShiftAmp_detection_fixS,2020.1.2,MacIntel,60,,,,,,,,,,,,,,,,,,1,5.4116,,0,0,33,33,58,1,stimuli/stim_20210706_power2amp/equal_lnn_AM3.6Hz_s35_41.m4a,,,,,,,,,,,,
,,,,,,,,,,,,41901,2021-09-24_12h20.25.406,judgeSpeechMusic_20210921_logNormShiftAmp_detection_fixS,2020.1.2,MacIntel,60,,,,,,,,,,,,,,,,,,1,5.4254,,0,0,34,34,34,1,stimuli/stim_20210706_power2amp/equal_lnn_AM2.4Hz_s35_18.m4a,,,,,,,,,,,,
,,,,,,,,,,,,41901,2021-09-24_12h20.25.406,judgeSpeechMusic_20210921_logNormShiftAmp_detection_fixS,2020.1.2,MacIntel,60,,,,,,,,,,,,,,,,,,1,5.3754,,0,0,35,35,72,1,stimuli/stim_20210706_power2amp/equal_lnn_AM4.2Hz_s35_30.m4a,,,,,,,,,,,,
,,,,,,,,,,,,41901,2021-09-24_12h20.25.406,judgeSpeechMusic_20210921_logNormShiftAmp_detection_fixS,2020.1.2,MacIntel,60,,,,,,,,,,,,,,,,,,1,5.4585,,0,0,36,36,41,1,stimuli/stim_20210706_power2amp/equal_lnn_AM2.4Hz_s35_29.m4a,,,,,,,,,,,,
,,,,,,,,,,,,41901,2021-09-24_12h20.25.406,judgeSpeechMusic_20210921_logNormShiftAmp_detection_fixS,2020.1.2,MacIntel,60,,,,,,,,,,,,,,,,,,1,5.5246,,0,0,37,37,56,1,stimuli/stim_20210706_power2amp/equal_lnn_AM3.6Hz_s35_8.m4a,,,,,,,,,,,,
,,,,,,,,,,,,41901,2021-09-24_12h20.25.406,judgeSpeechMusic_20210921_logNormShiftAmp_detection_fixS,2020.1.2,MacIntel,60,,,,,,,,,,,,,,,,,,1,5.5429,4,1,0,38,38,44,1,stimuli/stim_20210706_power2amp/equal_lnn_AM2.4Hz_s35_11.m4a,2.262,,,,,,,,,,,
,,,,,,,,,,,,41901,2021-09-24_12h20.25.406,judgeSpeechMusic_20210921_logNormShiftAmp_detection_fixS,2020.1.2,MacIntel,60,,,,,,,,,,,,,,,,,,1,5.5915,,0,0,39,39,46,1,stimuli/stim_20210706_power2amp/equal_lnn_AM3.6Hz_s35_28.m4a,,,,,,,,,,,,
,,,,,,,,,,,,41901,2021-09-24_12h20.25.406,judgeSpeechMusic_20210921_logNormShiftAmp_detection_fixS,2020.1.2,MacIntel,60,,,,,,,,,,,,,,,,,,1,5.8971,,0,0,40,40,3,1,stimuli/stim_20210706_power2amp/equal_lnn_AM0.6Hz_s35_11.m4a,,,,,,,,,,,,
,,,,,,,,,,,,41901,2021-09-24_12h20.25.406,judgeSpeechMusic_20210921_logNormShiftAmp_detection_fixS,2020.1.2,MacIntel,60,,,,,,,,,,,,,,,,,,1,5.8749,,0,0,41,41,38,1,stimuli/stim_20210706_power2amp/equal_lnn_AM2.4Hz_s35_36.m4a,,,,,,,,,,,,
,,,,,,,,,,,,41901,2021-09-24_12h20.25.406,judgeSpeechMusic_20210921_logNormShiftAmp_detection_fixS,2020.1.2,MacIntel,60,,,,,,,,,,,,,,,,,,1,5.9079,,0,0,42,42,19,1,stimuli/stim_20210706_power2amp/equal_lnn_AM1.2Hz_s35_35.m4a,,,,,,,,,,,,
,,,,,,,,,,,,41901,2021-09-24_12h20.25.406,judgeSpeechMusic_20210921_logNormShiftAmp_detection_fixS,2020.1.2,MacIntel,60,,,,,,,,,,,,,,,,,,1,5.5783,,0,0,43,43,16,1,stimuli/stim_20210706_power2amp/equal_lnn_AM1.2Hz_s35_24.m4a,,,,,,,,,,,,
,,,,,,,,,,,,41901,2021-09-24_12h20.25.406,judgeSpeechMusic_20210921_logNormShiftAmp_detection_fixS,2020.1.2,MacIntel,60,,,,,,,,,,,,,,,,,,1,6.4772,,0,0,44,44,24,1,stimuli/stim_20210706_power2amp/equal_lnn_AM1.2Hz_s35_45.m4a,,,,,,,,,,,,
,,,,,,,,,,,,41901,2021-09-24_12h20.25.406,judgeSpeechMusic_20210921_logNormShiftAmp_detection_fixS,2020.1.2,MacIntel,60,,,,,,,,,,,,,,,,,,1,5.6331,,0,0,45,45,37,1,stimuli/stim_20210706_power2amp/equal_lnn_AM2.4Hz_s35_3.m4a,,,,,,,,,,,,
,,,,,,,,,,,,41901,2021-09-24_12h20.25.406,judgeSpeechMusic_20210921_logNormShiftAmp_detection_fixS,2020.1.2,MacIntel,60,,,,,,,,,,,,,,,,,,1,5.8608,,0,0,46,46,25,1,stimuli/stim_20210706_power2amp/equal_lnn_AM1.2Hz_s35_28.m4a,,,,,,,,,,,,
,,,,,,,,,,,,41901,2021-09-24_12h20.25.406,judgeSpeechMusic_20210921_logNormShiftAmp_detection_fixS,2020.1.2,MacIntel,60,,,,,,,,,,,,,,,,,,1,5.7593,,0,0,47,47,43,1,stimuli/stim_20210706_power2amp/equal_lnn_AM2.4Hz_s35_16.m4a,,,,,,,,,,,,
,,,,,,,,,,,,41901,2021-09-24_12h20.25.406,judgeSpeechMusic_20210921_logNormShiftAmp_detection_fixS,2020.1.2,MacIntel,60,,,,,,,,,,,,,,,,,,1,5.5587,,0,0,48,48,21,1,stimuli/stim_20210706_power2amp/equal_lnn_AM1.2Hz_s35_25.m4a,,,,,,,,,,,,
,,,,,,,,,,,,41901,2021-09-24_12h20.25.406,judgeSpeechMusic_20210921_logNormShiftAmp_detection_fixS,2020.1.2,MacIntel,60,,,,,,,,,,,,,,,,,,1,5.5273,,0,0,49,49,63,1,stimuli/stim_20210706_power2amp/equal_lnn_AM4.2Hz_s35_45.m4a,,,,,,,,,,,,
,,,,,,,,,,,,41901,2021-09-24_12h20.25.406,judgeSpeechMusic_20210921_logNormShiftAmp_detection_fixS,2020.1.2,MacIntel,60,,,,,,,,,,,,,,,,,,1,5.4133,,0,0,50,50,22,1,stimuli/stim_20210706_power2amp/equal_lnn_AM1.2Hz_s35_46.m4a,,,,,,,,,,,,
,,,,,,,,,,,,41901,2021-09-24_12h20.25.406,judgeSpeechMusic_20210921_logNormShiftAmp_detection_fixS,2020.1.2,MacIntel,60,,,,,,,,,,,,,,,,,,1,5.4295,,0,0,51,51,23,1,stimuli/stim_20210706_power2amp/equal_lnn_AM1.2Hz_s35_17.m4a,,,,,,,,,,,,
,,,,,,,,,,,,41901,2021-09-24_12h20.25.406,judgeSpeechMusic_20210921_logNormShiftAmp_detection_fixS,2020.1.2,MacIntel,60,,,,,,,,,,,,,,,,,,1,5.5414,,0,0,52,52,61,1,stimuli/stim_20210706_power2amp/equal_lnn_AM4.2Hz_s35_40.m4a,,,,,,,,,,,,
,,,,,,,,,,,,41901,2021-09-24_12h20.25.406,judgeSpeechMusic_20210921_logNormShiftAmp_detection_fixS,2020.1.2,MacIntel,60,,,,,,,,,,,,,,,,,,1,5.7755,,0,0,53,53,31,1,stimuli/stim_20210706_power2amp/equal_lnn_AM2.4Hz_s35_46.m4a,,,,,,,,,,,,
,,,,,,,,,,,,41901,2021-09-24_12h20.25.406,judgeSpeechMusic_20210921_logNormShiftAmp_detection_fixS,2020.1.2,MacIntel,60,,,,,,,,,,,,,,,,,,1,6.344,,0,0,54,54,70,1,stimuli/stim_20210706_power2amp/equal_lnn_AM4.2Hz_s35_11.m4a,,,,,,,,,,,,
,,,,,,,,,,,,41901,2021-09-24_12h20.25.406,judgeSpeechMusic_20210921_logNormShiftAmp_detection_fixS,2020.1.2,MacIntel,60,,,,,,,,,,,,,,,,,,1,5.91,,0,0,55,55,2,1,stimuli/stim_20210706_power2amp/equal_lnn_AM0.6Hz_s35_22.m4a,,,,,,,,,,,,
,,,,,,,,,,,,41901,2021-09-24_12h20.25.406,judgeSpeechMusic_20210921_logNormShiftAmp_detection_fixS,2020.1.2,MacIntel,60,,,,,,,,,,,,,,,,,,1,5.5753,,0,0,56,56,0,1,stimuli/stim_20210706_power2amp/equal_lnn_AM0.6Hz_s35_27.m4a,,,,,,,,,,,,
,,,,,,,,,,,,41901,2021-09-24_12h20.25.406,judgeSpeechMusic_20210921_logNormShiftAmp_detection_fixS,2020.1.2,MacIntel,60,,,,,,,,,,,,,,,,,,1,5.5406,,0,0,57,57,66,1,stimuli/stim_20210706_power2amp/equal_lnn_AM4.2Hz_s35_28.m4a,,,,,,,,,,,,
,,,,,,,,,,,,41901,2021-09-24_12h20.25.406,judgeSpeechMusic_20210921_logNormShiftAmp_detection_fixS,2020.1.2,MacIntel,60,,,,,,,,,,,,,,,,,,1,5.6112,4,1,0,58,58,4,1,stimuli/stim_20210706_power2amp/equal_lnn_AM0.6Hz_s35_2.m4a,1.6332,,,,,,,,,,,
,,,,,,,,,,,,41901,2021-09-24_12h20.25.406,judgeSpeechMusic_20210921_logNormShiftAmp_detection_fixS,2020.1.2,MacIntel,60,,,,,,,,,,,,,,,,,,1,5.6086,,0,0,59,59,15,1,stimuli/stim_20210706_power2amp/equal_lnn_AM1.2Hz_s35_8.m4a,,,,,,,,,,,,
,,,,,,,,,,,,41901,2021-09-24_12h20.25.406,judgeSpeechMusic_20210921_logNormShiftAmp_detection_fixS,2020.1.2,MacIntel,60,,,,,,,,,,,,,,,,,,1,5.781,,0,0,60,60,27,1,stimuli/stim_20210706_power2amp/equal_lnn_AM1.2Hz_s35_12.m4a,,,,,,,,,,,,
,,,,,,,,,,,,41901,2021-09-24_12h20.25.406,judgeSpeechMusic_20210921_logNormShiftAmp_detection_fixS,2020.1.2,MacIntel,60,,,,,,,,,,,,,,,,,,1,5.5937,,0,0,61,61,55,1,stimuli/stim_20210706_power2amp/equal_lnn_AM3.6Hz_s35_46.m4a,,,,,,,,,,,,
,,,,,,,,,,,,41901,2021-09-24_12h20.25.406,judgeSpeechMusic_20210921_logNormShiftAmp_detection_fixS,2020.1.2,MacIntel,60,,,,,,,,,,,,,,,,,,1,5.676,,0,0,62,62,50,1,stimuli/stim_20210706_power2amp/equal_lnn_AM3.6Hz_s35_6.m4a,,,,,,,,,,,,
,,,,,,,,,,,,41901,2021-09-24_12h20.25.406,judgeSpeechMusic_20210921_logNormShiftAmp_detection_fixS,2020.1.2,MacIntel,60,,,,,,,,,,,,,,,,,,1,5.5263,,0,0,63,63,57,1,stimuli/stim_20210706_power2amp/equal_lnn_AM3.6Hz_s35_19.m4a,,,,,,,,,,,,
,,,,,,,,,,,,41901,2021-09-24_12h20.25.406,judgeSpeechMusic_20210921_logNormShiftAmp_detection_fixS,2020.1.2,MacIntel,60,,,,,,,,,,,,,,,,,,1,5.6578,,0,0,64,64,51,1,stimuli/stim_20210706_power2amp/equal_lnn_AM3.6Hz_s35_44.m4a,,,,,,,,,,,,
,,,,,,,,,,,,41901,2021-09-24_12h20.25.406,judgeSpeechMusic_20210921_logNormShiftAmp_detection_fixS,2020.1.2,MacIntel,60,,,,,,,,,,,,,,,,,,1,5.4113,,0,0,65,65,36,1,stimuli/stim_20210706_power2amp/equal_lnn_AM2.4Hz_s35_9.m4a,,,,,,,,,,,,
,,,,,,,,,,,,41901,2021-09-24_12h20.25.406,judgeSpeechMusic_20210921_logNormShiftAmp_detection_fixS,2020.1.2,MacIntel,60,,,,,,,,,,,,,,,,,,1,5.5254,,0,0,66,66,71,1,stimuli/stim_20210706_power2amp/equal_lnn_AM4.2Hz_s35_23.m4a,,,,,,,,,,,,
,,,,,,,,,,,,41901,2021-09-24_12h20.25.406,judgeSpeechMusic_20210921_logNormShiftAmp_detection_fixS,2020.1.2,MacIntel,60,,,,,,,,,,,,,,,,,,1,5.4937,,0,0,67,67,67,1,stimuli/stim_20210706_power2amp/equal_lnn_AM4.2Hz_s35_16.m4a,,,,,,,,,,,,
,,,,,,,,,,,,41901,2021-09-24_12h20.25.406,judgeSpeechMusic_20210921_logNormShiftAmp_detection_fixS,2020.1.2,MacIntel,60,,,,,,,,,,,,,,,,,,1,5.575,,0,0,68,68,1,1,stimuli/stim_20210706_power2amp/equal_lnn_AM0.6Hz_s35_7.m4a,,,,,,,,,,,,
,,,,,,,,,,,,41901,2021-09-24_12h20.25.406,judgeSpeechMusic_20210921_logNormShiftAmp_detection_fixS,2020.1.2,MacIntel,60,,,,,,,,,,,,,,,,,,1,5.779,,0,0,69,69,65,1,stimuli/stim_20210706_power2amp/equal_lnn_AM4.2Hz_s35_13.m4a,,,,,,,,,,,,
,,,,,,,,,,,,41901,2021-09-24_12h20.25.406,judgeSpeechMusic_20210921_logNormShiftAmp_detection_fixS,2020.1.2,MacIntel,60,,,,,,,,,,,,,,,,,,1,5.4295,,0,0,70,70,64,1,stimuli/stim_20210706_power2amp/equal_lnn_AM4.2Hz_s35_36.m4a,,,,,,,,,,,,
,,,,,,,,,,,,41901,2021-09-24_12h20.25.406,judgeSpeechMusic_20210921_logNormShiftAmp_detection_fixS,2020.1.2,MacIntel,60,,,,,,,,,,,,,,,,,,1,6.8423,,0,0,71,71,13,1,stimuli/stim_20210706_power2amp/equal_lnn_AM0.6Hz_s35_15.m4a,,,,,,,,,,,,
,,,,,,,,,,,,41901,2021-09-24_12h20.25.406,judgeSpeechMusic_20210921_logNormShiftAmp_detection_fixS,2020.1.2,MacIntel,60,,,,,,,,,,,,,,,,,,1,5.6421,,0,0,72,72,54,1,stimuli/stim_20210706_power2amp/equal_lnn_AM3.6Hz_s35_47.m4a,,,,,,,,,,,,
,,,,,,,,,,,,41901,2021-09-24_12h20.25.406,judgeSpeechMusic_20210921_logNormShiftAmp_detection_fixS,2020.1.2,MacIntel,60,,,,,,,,,,,,,,,,,,1,37.3092,,0,0,73,73,5,1,stimuli/stim_20210706_power2amp/equal_lnn_AM0.6Hz_s35_5.m4a,,,,,,,,,,,,
,,,,,,,,,,,,41901,2021-09-24_12h20.25.406,judgeSpeechMusic_20210921_logNormShiftAmp_detection_fixS,2020.1.2,MacIntel,60,,,,,,,,,,,,,,,,,,1,5.7624,,0,0,74,74,7,1,stimuli/stim_20210706_power2amp/equal_lnn_AM0.6Hz_s35_44.m4a,,,,,,,,,,,,
,,,,,,,,,,,,41901,2021-09-24_12h20.25.406,judgeSpeechMusic_20210921_logNormShiftAmp_detection_fixS,2020.1.2,MacIntel,60,,,,,,,,,,,,,,,,,,,,,,,,,,,,,space,0.6114,1,0,2,0,1,MUSIC,stimuli/MUSIC.jpg,,
,,,,,,,,,,,,41901,2021-09-24_12h20.25.406,judgeSpeechMusic_20210921_logNormShiftAmp_detection_fixS,2020.1.2,MacIntel,60,,,,,,0,0,0,0,0,1,stimuli/stim_20210706_power2amp/equal_lnn_AM_training0.9Hz_s35.m4a,,,,,,,,,,,,,,,,,,,,,,,,,,,
,,,,,,,,,,,,41901,2021-09-24_12h20.25.406,judgeSpeechMusic_20210921_logNormShiftAmp_detection_fixS,2020.1.2,MacIntel,60,,,,,,,,,,,,,,space,6.3491,space,0.6845,1,5.5595,,0,0,0,0,52,1,stimuli/stim_20210706_power2amp/equal_lnn_AM3.6Hz_s35_4.m4a,,,,,,,,,,,,
,,,,,,,,,,,,41901,2021-09-24_12h20.25.406,judgeSpeechMusic_20210921_logNormShiftAmp_detection_fixS,2020.1.2,MacIntel,60,,,,,,,,,,,,,,,,,,1,5.4422,,0,0,1,1,65,1,stimuli/stim_20210706_power2amp/equal_lnn_AM4.2Hz_s35_13.m4a,,,,,,,,,,,,
,,,,,,,,,,,,41901,2021-09-24_12h20.25.406,judgeSpeechMusic_20210921_logNormShiftAmp_detection_fixS,2020.1.2,MacIntel,60,,,,,,,,,,,,,,,,,,1,5.564,,0,0,2,2,34,1,stimuli/stim_20210706_power2amp/equal_lnn_AM2.4Hz_s35_18.m4a,,,,,,,,,,,,
,,,,,,,,,,,,41901,2021-09-24_12h20.25.406,judgeSpeechMusic_20210921_logNormShiftAmp_detection_fixS,2020.1.2,MacIntel,60,,,,,,,,,,,,,,,,,,1,5.6268,,0,0,3,3,27,1,stimuli/stim_20210706_power2amp/equal_lnn_AM1.2Hz_s35_12.m4a,,,,,,,,,,,,
,,,,,,,,,,,,41901,2021-09-24_12h20.25.406,judgeSpeechMusic_20210921_logNormShiftAmp_detection_fixS,2020.1.2,MacIntel,60,,,,,,,,,,,,,,,,,,1,5.592,,0,0,4,4,53,1,stimuli/stim_20210706_power2amp/equal_lnn_AM3.6Hz_s35_35.m4a,,,,,,,,,,,,
,,,,,,,,,,,,41901,2021-09-24_12h20.25.406,judgeSpeechMusic_20210921_logNormShiftAmp_detection_fixS,2020.1.2,MacIntel,60,,,,,,,,,,,,,,,,,,1,5.4923,,0,0,5,5,47,1,stimuli/stim_20210706_power2amp/equal_lnn_AM3.6Hz_s35_12.m4a,,,,,,,,,,,,
,,,,,,,,,,,,41901,2021-09-24_12h20.25.406,judgeSpeechMusic_20210921_logNormShiftAmp_detection_fixS,2020.1.2,MacIntel,60,,,,,,,,,,,,,,,,,,1,5.7762,,0,0,6,6,6,1,stimuli/stim_20210706_power2amp/equal_lnn_AM0.6Hz_s35_46.m4a,,,,,,,,,,,,
,,,,,,,,,,,,41901,2021-09-24_12h20.25.406,judgeSpeechMusic_20210921_logNormShiftAmp_detection_fixS,2020.1.2,MacIntel,60,,,,,,,,,,,,,,,,,,1,5.7772,,0,0,7,7,36,1,stimuli/stim_20210706_power2amp/equal_lnn_AM2.4Hz_s35_9.m4a,,,,,,,,,,,,
,,,,,,,,,,,,41901,2021-09-24_12h20.25.406,judgeSpeechMusic_20210921_logNormShiftAmp_detection_fixS,2020.1.2,MacIntel,60,,,,,,,,,,,,,,,,,,1,5.5421,,0,0,8,8,9,1,stimuli/stim_20210706_power2amp/equal_lnn_AM0.6Hz_s35_24.m4a,,,,,,,,,,,,
,,,,,,,,,,,,41901,2021-09-24_12h20.25.406,judgeSpeechMusic_20210921_logNormShiftAmp_detection_fixS,2020.1.2,MacIntel,60,,,,,,,,,,,,,,,,,,1,5.3591,,0,0,9,9,17,1,stimuli/stim_20210706_power2amp/equal_lnn_AM1.2Hz_s35_49.m4a,,,,,,,,,,,,
,,,,,,,,,,,,41901,2021-09-24_12h20.25.406,judgeSpeechMusic_20210921_logNormShiftAmp_detection_fixS,2020.1.2,MacIntel,60,,,,,,,,,,,,,,,,,,1,5.5272,,0,0,10,10,23,1,stimuli/stim_20210706_power2amp/equal_lnn_AM1.2Hz_s35_17.m4a,,,,,,,,,,,,
,,,,,,,,,,,,41901,2021-09-24_12h20.25.406,judgeSpeechMusic_20210921_logNormShiftAmp_detection_fixS,2020.1.2,MacIntel,60,,,,,,,,,,,,,,,,,,1,5.525,,0,0,11,11,11,1,stimuli/stim_20210706_power2amp/equal_lnn_AM0.6Hz_s35_36.m4a,,,,,,,,,,,,
,,,,,,,,,,,,41901,2021-09-24_12h20.25.406,judgeSpeechMusic_20210921_logNormShiftAmp_detection_fixS,2020.1.2,MacIntel,60,,,,,,,,,,,,,,,,,,1,5.7122,,0,0,12,12,70,1,stimuli/stim_20210706_power2amp/equal_lnn_AM4.2Hz_s35_11.m4a,,,,,,,,,,,,
,,,,,,,,,,,,41901,2021-09-24_12h20.25.406,judgeSpeechMusic_20210921_logNormShiftAmp_detection_fixS,2020.1.2,MacIntel,60,,,,,,,,,,,,,,,,,,1,5.4954,,0,0,13,13,39,1,stimuli/stim_20210706_power2amp/equal_lnn_AM2.4Hz_s35_34.m4a,,,,,,,,,,,,
,,,,,,,,,,,,41901,2021-09-24_12h20.25.406,judgeSpeechMusic_20210921_logNormShiftAmp_detection_fixS,2020.1.2,MacIntel,60,,,,,,,,,,,,,,,,,,1,6.0581,,0,0,14,14,50,1,stimuli/stim_20210706_power2amp/equal_lnn_AM3.6Hz_s35_6.m4a,,,,,,,,,,,,
,,,,,,,,,,,,41901,2021-09-24_12h20.25.406,judgeSpeechMusic_20210921_logNormShiftAmp_detection_fixS,2020.1.2,MacIntel,60,,,,,,,,,,,,,,,,,,1,5.7086,,0,0,15,15,32,1,stimuli/stim_20210706_power2amp/equal_lnn_AM2.4Hz_s35_5.m4a,,,,,,,,,,,,
,,,,,,,,,,,,41901,2021-09-24_12h20.25.406,judgeSpeechMusic_20210921_logNormShiftAmp_detection_fixS,2020.1.2,MacIntel,60,,,,,,,,,,,,,,,,,,1,5.8092,,0,0,16,16,1,1,stimuli/stim_20210706_power2amp/equal_lnn_AM0.6Hz_s35_7.m4a,,,,,,,,,,,,
,,,,,,,,,,,,41901,2021-09-24_12h20.25.406,judgeSpeechMusic_20210921_logNormShiftAmp_detection_fixS,2020.1.2,MacIntel,60,,,,,,,,,,,,,,,,,,1,5.7626,,0,0,17,17,37,1,stimuli/stim_20210706_power2amp/equal_lnn_AM2.4Hz_s35_3.m4a,,,,,,,,,,,,
,,,,,,,,,,,,41901,2021-09-24_12h20.25.406,judgeSpeechMusic_20210921_logNormShiftAmp_detection_fixS,2020.1.2,MacIntel,60,,,,,,,,,,,,,,,,,,1,5.8934,,0,0,18,18,22,1,stimuli/stim_20210706_power2amp/equal_lnn_AM1.2Hz_s35_46.m4a,,,,,,,,,,,,
,,,,,,,,,,,,41901,2021-09-24_12h20.25.406,judgeSpeechMusic_20210921_logNormShiftAmp_detection_fixS,2020.1.2,MacIntel,60,,,,,,,,,,,,,,,,,,1,5.7748,3,1,0,19,19,61,1,stimuli/stim_20210706_power2amp/equal_lnn_AM4.2Hz_s35_40.m4a,2.7136,,,,,,,,,,,
,,,,,,,,,,,,41901,2021-09-24_12h20.25.406,judgeSpeechMusic_20210921_logNormShiftAmp_detection_fixS,2020.1.2,MacIntel,60,,,,,,,,,,,,,,,,,,1,5.6595,,0,0,20,20,73,1,stimuli/stim_20210706_power2amp/equal_lnn_AM4.2Hz_s35_38.m4a,,,,,,,,,,,,
,,,,,,,,,,,,41901,2021-09-24_12h20.25.406,judgeSpeechMusic_20210921_logNormShiftAmp_detection_fixS,2020.1.2,MacIntel,60,,,,,,,,,,,,,,,,,,1,5.4589,,0,0,21,21,41,1,stimuli/stim_20210706_power2amp/equal_lnn_AM2.4Hz_s35_29.m4a,,,,,,,,,,,,
,,,,,,,,,,,,41901,2021-09-24_12h20.25.406,judgeSpeechMusic_20210921_logNormShiftAmp_detection_fixS,2020.1.2,MacIntel,60,,,,,,,,,,,,,,,,,,1,5.643,,0,0,22,22,60,1,stimuli/stim_20210706_power2amp/equal_lnn_AM4.2Hz_s35_3.m4a,,,,,,,,,,,,
,,,,,,,,,,,,41901,2021-09-24_12h20.25.406,judgeSpeechMusic_20210921_logNormShiftAmp_detection_fixS,2020.1.2,MacIntel,60,,,,,,,,,,,,,,,,,,1,5.4626,,0,0,23,23,26,1,stimuli/stim_20210706_power2amp/equal_lnn_AM1.2Hz_s35_31.m4a,,,,,,,,,,,,
,,,,,,,,,,,,41901,2021-09-24_12h20.25.406,judgeSpeechMusic_20210921_logNormShiftAmp_detection_fixS,2020.1.2,MacIntel,60,,,,,,,,,,,,,,,,,,1,5.5911,,0,0,24,24,46,1,stimuli/stim_20210706_power2amp/equal_lnn_AM3.6Hz_s35_28.m4a,,,,,,,,,,,,
,,,,,,,,,,,,41901,2021-09-24_12h20.25.406,judgeSpeechMusic_20210921_logNormShiftAmp_detection_fixS,2020.1.2,MacIntel,60,,,,,,,,,,,,,,,,,,1,5.4767,,0,0,25,25,5,1,stimuli/stim_20210706_power2amp/equal_lnn_AM0.6Hz_s35_5.m4a,,,,,,,,,,,,
,,,,,,,,,,,,41901,2021-09-24_12h20.25.406,judgeSpeechMusic_20210921_logNormShiftAmp_detection_fixS,2020.1.2,MacIntel,60,,,,,,,,,,,,,,,,,,1,5.5779,,0,0,26,26,12,1,stimuli/stim_20210706_power2amp/equal_lnn_AM0.6Hz_s35_40.m4a,,,,,,,,,,,,
,,,,,,,,,,,,41901,2021-09-24_12h20.25.406,judgeSpeechMusic_20210921_logNormShiftAmp_detection_fixS,2020.1.2,MacIntel,60,,,,,,,,,,,,,,,,,,1,5.6078,,0,0,27,27,51,1,stimuli/stim_20210706_power2amp/equal_lnn_AM3.6Hz_s35_44.m4a,,,,,,,,,,,,
,,,,,,,,,,,,41901,2021-09-24_12h20.25.406,judgeSpeechMusic_20210921_logNormShiftAmp_detection_fixS,2020.1.2,MacIntel,60,,,,,,,,,,,,,,,,,,1,5.6743,,0,0,28,28,18,1,stimuli/stim_20210706_power2amp/equal_lnn_AM1.2Hz_s35_10.m4a,,,,,,,,,,,,
,,,,,,,,,,,,41901,2021-09-24_12h20.25.406,judgeSpeechMusic_20210921_logNormShiftAmp_detection_fixS,2020.1.2,MacIntel,60,,,,,,,,,,,,,,,,,,1,5.8112,,0,0,29,29,4,1,stimuli/stim_20210706_power2amp/equal_lnn_AM0.6Hz_s35_2.m4a,,,,,,,,,,,,
,,,,,,,,,,,,41901,2021-09-24_12h20.25.406,judgeSpeechMusic_20210921_logNormShiftAmp_detection_fixS,2020.1.2,MacIntel,60,,,,,,,,,,,,,,,,,,1,5.5298,,0,0,30,30,21,1,stimuli/stim_20210706_power2amp/equal_lnn_AM1.2Hz_s35_25.m4a,,,,,,,,,,,,
,,,,,,,,,,,,41901,2021-09-24_12h20.25.406,judgeSpeechMusic_20210921_logNormShiftAmp_detection_fixS,2020.1.2,MacIntel,60,,,,,,,,,,,,,,,,,,1,5.5421,,0,0,31,31,49,1,stimuli/stim_20210706_power2amp/equal_lnn_AM3.6Hz_s35_5.m4a,,,,,,,,,,,,
,,,,,,,,,,,,41901,2021-09-24_12h20.25.406,judgeSpeechMusic_20210921_logNormShiftAmp_detection_fixS,2020.1.2,MacIntel,60,,,,,,,,,,,,,,,,,,1,5.5278,,0,0,32,32,7,1,stimuli/stim_20210706_power2amp/equal_lnn_AM0.6Hz_s35_44.m4a,,,,,,,,,,,,
,,,,,,,,,,,,41901,2021-09-24_12h20.25.406,judgeSpeechMusic_20210921_logNormShiftAmp_detection_fixS,2020.1.2,MacIntel,60,,,,,,,,,,,,,,,,,,1,5.492,,0,0,33,33,16,1,stimuli/stim_20210706_power2amp/equal_lnn_AM1.2Hz_s35_24.m4a,,,,,,,,,,,,
,,,,,,,,,,,,41901,2021-09-24_12h20.25.406,judgeSpeechMusic_20210921_logNormShiftAmp_detection_fixS,2020.1.2,MacIntel,60,,,,,,,,,,,,,,,,,,1,5.4087,,0,0,34,34,69,1,stimuli/stim_20210706_power2amp/equal_lnn_AM4.2Hz_s35_34.m4a,,,,,,,,,,,,
,,,,,,,,,,,,41901,2021-09-24_12h20.25.406,judgeSpeechMusic_20210921_logNormShiftAmp_detection_fixS,2020.1.2,MacIntel,60,,,,,,,,,,,,,,,,,,1,5.4097,,0,0,35,35,35,1,stimuli/stim_20210706_power2amp/equal_lnn_AM2.4Hz_s35_31.m4a,,,,,,,,,,,,
,,,,,,,,,,,,41901,2021-09-24_12h20.25.406,judgeSpeechMusic_20210921_logNormShiftAmp_detection_fixS,2020.1.2,MacIntel,60,,,,,,,,,,,,,,,,,,1,5.4423,,0,0,36,36,54,1,stimuli/stim_20210706_power2amp/equal_lnn_AM3.6Hz_s35_47.m4a,,,,,,,,,,,,
,,,,,,,,,,,,41901,2021-09-24_12h20.25.406,judgeSpeechMusic_20210921_logNormShiftAmp_detection_fixS,2020.1.2,MacIntel,60,,,,,,,,,,,,,,,,,,1,5.8593,,0,0,37,37,8,1,stimuli/stim_20210706_power2amp/equal_lnn_AM0.6Hz_s35_21.m4a,,,,,,,,,,,,
,,,,,,,,,,,,41901,2021-09-24_12h20.25.406,judgeSpeechMusic_20210921_logNormShiftAmp_detection_fixS,2020.1.2,MacIntel,60,,,,,,,,,,,,,,,,,,1,5.6772,1,1,0,38,38,74,1,stimuli/stim_20210706_power2amp/equal_lnn_AM4.2Hz_s35_32.m4a,0.53,,,,,,,,,,,
,,,,,,,,,,,,41901,2021-09-24_12h20.25.406,judgeSpeechMusic_20210921_logNormShiftAmp_detection_fixS,2020.1.2,MacIntel,60,,,,,,,,,,,,,,,,,,1,5.4101,,0,0,39,39,48,1,stimuli/stim_20210706_power2amp/equal_lnn_AM3.6Hz_s35_43.m4a,,,,,,,,,,,,
,,,,,,,,,,,,41901,2021-09-24_12h20.25.406,judgeSpeechMusic_20210921_logNormShiftAmp_detection_fixS,2020.1.2,MacIntel,60,,,,,,,,,,,,,,,,,,1,5.5273,,0,0,40,40,62,1,stimuli/stim_20210706_power2amp/equal_lnn_AM4.2Hz_s35_21.m4a,,,,,,,,,,,,
,,,,,,,,,,,,41901,2021-09-24_12h20.25.406,judgeSpeechMusic_20210921_logNormShiftAmp_detection_fixS,2020.1.2,MacIntel,60,,,,,,,,,,,,,,,,,,1,5.5597,,0,0,41,41,45,1,stimuli/stim_20210706_power2amp/equal_lnn_AM3.6Hz_s35_31.m4a,,,,,,,,,,,,
,,,,,,,,,,,,41901,2021-09-24_12h20.25.406,judgeSpeechMusic_20210921_logNormShiftAmp_detection_fixS,2020.1.2,MacIntel,60,,,,,,,,,,,,,,,,,,1,5.4744,,0,0,42,42,67,1,stimuli/stim_20210706_power2amp/equal_lnn_AM4.2Hz_s35_16.m4a,,,,,,,,,,,,
,,,,,,,,,,,,41901,2021-09-24_12h20.25.406,judgeSpeechMusic_20210921_logNormShiftAmp_detection_fixS,2020.1.2,MacIntel,60,,,,,,,,,,,,,,,,,,1,5.5775,,0,0,43,43,59,1,stimuli/stim_20210706_power2amp/equal_lnn_AM3.6Hz_s35_26.m4a,,,,,,,,,,,,
,,,,,,,,,,,,41901,2021-09-24_12h20.25.406,judgeSpeechMusic_20210921_logNormShiftAmp_detection_fixS,2020.1.2,MacIntel,60,,,,,,,,,,,,,,,,,,1,5.6257,,0,0,44,44,44,1,stimuli/stim_20210706_power2amp/equal_lnn_AM2.4Hz_s35_11.m4a,,,,,,,,,,,,
,,,,,,,,,,,,41901,2021-09-24_12h20.25.406,judgeSpeechMusic_20210921_logNormShiftAmp_detection_fixS,2020.1.2,MacIntel,60,,,,,,,,,,,,,,,,,,1,5.5095,,0,0,45,45,28,1,stimuli/stim_20210706_power2amp/equal_lnn_AM1.2Hz_s35_43.m4a,,,,,,,,,,,,
,,,,,,,,,,,,41901,2021-09-24_12h20.25.406,judgeSpeechMusic_20210921_logNormShiftAmp_detection_fixS,2020.1.2,MacIntel,60,,,,,,,,,,,,,,,,,,1,6.3261,,0,0,46,46,31,1,stimuli/stim_20210706_power2amp/equal_lnn_AM2.4Hz_s35_46.m4a,,,,,,,,,,,,
,,,,,,,,,,,,41901,2021-09-24_12h20.25.406,judgeSpeechMusic_20210921_logNormShiftAmp_detection_fixS,2020.1.2,MacIntel,60,,,,,,,,,,,,,,,,,,1,5.642,,0,0,47,47,55,1,stimuli/stim_20210706_power2amp/equal_lnn_AM3.6Hz_s35_46.m4a,,,,,,,,,,,,
,,,,,,,,,,,,41901,2021-09-24_12h20.25.406,judgeSpeechMusic_20210921_logNormShiftAmp_detection_fixS,2020.1.2,MacIntel,60,,,,,,,,,,,,,,,,,,1,5.4252,,0,0,48,48,20,1,stimuli/stim_20210706_power2amp/equal_lnn_AM1.2Hz_s35_2.m4a,,,,,,,,,,,,
,,,,,,,,,,,,41901,2021-09-24_12h20.25.406,judgeSpeechMusic_20210921_logNormShiftAmp_detection_fixS,2020.1.2,MacIntel,60,,,,,,,,,,,,,,,,,,1,5.4249,,0,0,49,49,56,1,stimuli/stim_20210706_power2amp/equal_lnn_AM3.6Hz_s35_8.m4a,,,,,,,,,,,,
,,,,,,,,,,,,41901,2021-09-24_12h20.25.406,judgeSpeechMusic_20210921_logNormShiftAmp_detection_fixS,2020.1.2,MacIntel,60,,,,,,,,,,,,,,,,,,1,5.5985,,0,0,50,50,25,1,stimuli/stim_20210706_power2amp/equal_lnn_AM1.2Hz_s35_28.m4a,,,,,,,,,,,,
,,,,,,,,,,,,41901,2021-09-24_12h20.25.406,judgeSpeechMusic_20210921_logNormShiftAmp_detection_fixS,2020.1.2,MacIntel,60,,,,,,,,,,,,,,,,,,1,5.4419,,0,0,51,51,64,1,stimuli/stim_20210706_power2amp/equal_lnn_AM4.2Hz_s35_36.m4a,,,,,,,,,,,,
,,,,,,,,,,,,41901,2021-09-24_12h20.25.406,judgeSpeechMusic_20210921_logNormShiftAmp_detection_fixS,2020.1.2,MacIntel,60,,,,,,,,,,,,,,,,,,1,5.4262,,0,0,52,52,2,1,stimuli/stim_20210706_power2amp/equal_lnn_AM0.6Hz_s35_22.m4a,,,,,,,,,,,,
,,,,,,,,,,,,41901,2021-09-24_12h20.25.406,judgeSpeechMusic_20210921_logNormShiftAmp_detection_fixS,2020.1.2,MacIntel,60,,,,,,,,,,,,,,,,,,1,5.5927,,0,0,53,53,38,1,stimuli/stim_20210706_power2amp/equal_lnn_AM2.4Hz_s35_36.m4a,,,,,,,,,,,,
,,,,,,,,,,,,41901,2021-09-24_12h20.25.406,judgeSpeechMusic_20210921_logNormShiftAmp_detection_fixS,2020.1.2,MacIntel,60,,,,,,,,,,,,,,,,,,1,5.8111,,0,0,54,54,29,1,stimuli/stim_20210706_power2amp/equal_lnn_AM1.2Hz_s35_33.m4a,,,,,,,,,,,,
,,,,,,,,,,,,41901,2021-09-24_12h20.25.406,judgeSpeechMusic_20210921_logNormShiftAmp_detection_fixS,2020.1.2,MacIntel,60,,,,,,,,,,,,,,,,,,1,5.5254,,0,0,55,55,71,1,stimuli/stim_20210706_power2amp/equal_lnn_AM4.2Hz_s35_23.m4a,,,,,,,,,,,,
,,,,,,,,,,,,41901,2021-09-24_12h20.25.406,judgeSpeechMusic_20210921_logNormShiftAmp_detection_fixS,2020.1.2,MacIntel,60,,,,,,,,,,,,,,,,,,1,5.479,,0,0,56,56,72,1,stimuli/stim_20210706_power2amp/equal_lnn_AM4.2Hz_s35_30.m4a,,,,,,,,,,,,
,,,,,,,,,,,,41901,2021-09-24_12h20.25.406,judgeSpeechMusic_20210921_logNormShiftAmp_detection_fixS,2020.1.2,MacIntel,60,,,,,,,,,,,,,,,,,,1,5.5756,,0,0,57,57,58,1,stimuli/stim_20210706_power2amp/equal_lnn_AM3.6Hz_s35_41.m4a,,,,,,,,,,,,
,,,,,,,,,,,,41901,2021-09-24_12h20.25.406,judgeSpeechMusic_20210921_logNormShiftAmp_detection_fixS,2020.1.2,MacIntel,60,,,,,,,,,,,,,,,,,,1,5.7437,4,1,0,58,58,43,1,stimuli/stim_20210706_power2amp/equal_lnn_AM2.4Hz_s35_16.m4a,2.0148,,,,,,,,,,,
,,,,,,,,,,,,41901,2021-09-24_12h20.25.406,judgeSpeechMusic_20210921_logNormShiftAmp_detection_fixS,2020.1.2,MacIntel,60,,,,,,,,,,,,,,,,,,1,5.8582,,0,0,59,59,15,1,stimuli/stim_20210706_power2amp/equal_lnn_AM1.2Hz_s35_8.m4a,,,,,,,,,,,,
,,,,,,,,,,,,41901,2021-09-24_12h20.25.406,judgeSpeechMusic_20210921_logNormShiftAmp_detection_fixS,2020.1.2,MacIntel,60,,,,,,,,,,,,,,,,,,1,5.3595,,0,0,60,60,66,1,stimuli/stim_20210706_power2amp/equal_lnn_AM4.2Hz_s35_28.m4a,,,,,,,,,,,,
,,,,,,,,,,,,41901,2021-09-24_12h20.25.406,judgeSpeechMusic_20210921_logNormShiftAmp_detection_fixS,2020.1.2,MacIntel,60,,,,,,,,,,,,,,,,,,1,5.6666,,0,0,61,61,13,1,stimuli/stim_20210706_power2amp/equal_lnn_AM0.6Hz_s35_15.m4a,,,,,,,,,,,,
,,,,,,,,,,,,41901,2021-09-24_12h20.25.406,judgeSpeechMusic_20210921_logNormShiftAmp_detection_fixS,2020.1.2,MacIntel,60,,,,,,,,,,,,,,,,,,1,5.425,,0,0,62,62,3,1,stimuli/stim_20210706_power2amp/equal_lnn_AM0.6Hz_s35_11.m4a,,,,,,,,,,,,
,,,,,,,,,,,,41901,2021-09-24_12h20.25.406,judgeSpeechMusic_20210921_logNormShiftAmp_detection_fixS,2020.1.2,MacIntel,60,,,,,,,,,,,,,,,,,,1,5.4928,,0,0,63,63,19,1,stimuli/stim_20210706_power2amp/equal_lnn_AM1.2Hz_s35_35.m4a,,,,,,,,,,,,
,,,,,,,,,,,,41901,2021-09-24_12h20.25.406,judgeSpeechMusic_20210921_logNormShiftAmp_detection_fixS,2020.1.2,MacIntel,60,,,,,,,,,,,,,,,,,,1,5.4929,,0,0,64,64,24,1,stimuli/stim_20210706_power2amp/equal_lnn_AM1.2Hz_s35_45.m4a,,,,,,,,,,,,
,,,,,,,,,,,,41901,2021-09-24_12h20.25.406,judgeSpeechMusic_20210921_logNormShiftAmp_detection_fixS,2020.1.2,MacIntel,60,,,,,,,,,,,,,,,,,,1,5.5748,,0,0,65,65,30,1,stimuli/stim_20210706_power2amp/equal_lnn_AM2.4Hz_s35_33.m4a,,,,,,,,,,,,
,,,,,,,,,,,,41901,2021-09-24_12h20.25.406,judgeSpeechMusic_20210921_logNormShiftAmp_detection_fixS,2020.1.2,MacIntel,60,,,,,,,,,,,,,,,,,,1,5.6109,,0,0,66,66,0,1,stimuli/stim_20210706_power2amp/equal_lnn_AM0.6Hz_s35_27.m4a,,,,,,,,,,,,
,,,,,,,,,,,,41901,2021-09-24_12h20.25.406,judgeSpeechMusic_20210921_logNormShiftAmp_detection_fixS,2020.1.2,MacIntel,60,,,,,,,,,,,,,,,,,,1,5.6421,,0,0,67,67,40,1,stimuli/stim_20210706_power2amp/equal_lnn_AM2.4Hz_s35_35.m4a,,,,,,,,,,,,
,,,,,,,,,,,,41901,2021-09-24_12h20.25.406,judgeSpeechMusic_20210921_logNormShiftAmp_detection_fixS,2020.1.2,MacIntel,60,,,,,,,,,,,,,,,,,,1,5.64,,0,0,68,68,10,1,stimuli/stim_20210706_power2amp/equal_lnn_AM0.6Hz_s35_20.m4a,,,,,,,,,,,,
,,,,,,,,,,,,41901,2021-09-24_12h20.25.406,judgeSpeechMusic_20210921_logNormShiftAmp_detection_fixS,2020.1.2,MacIntel,60,,,,,,,,,,,,,,,,,,1,5.6427,,0,0,69,69,57,1,stimuli/stim_20210706_power2amp/equal_lnn_AM3.6Hz_s35_19.m4a,,,,,,,,,,,,
,,,,,,,,,,,,41901,2021-09-24_12h20.25.406,judgeSpeechMusic_20210921_logNormShiftAmp_detection_fixS,2020.1.2,MacIntel,60,,,,,,,,,,,,,,,,,,1,5.5447,,0,0,70,70,42,1,stimuli/stim_20210706_power2amp/equal_lnn_AM2.4Hz_s35_26.m4a,,,,,,,,,,,,
,,,,,,,,,,,,41901,2021-09-24_12h20.25.406,judgeSpeechMusic_20210921_logNormShiftAmp_detection_fixS,2020.1.2,MacIntel,60,,,,,,,,,,,,,,,,,,1,5.4776,,0,0,71,71,68,1,stimuli/stim_20210706_power2amp/equal_lnn_AM4.2Hz_s35_25.m4a,,,,,,,,,,,,
,,,,,,,,,,,,41901,2021-09-24_12h20.25.406,judgeSpeechMusic_20210921_logNormShiftAmp_detection_fixS,2020.1.2,MacIntel,60,,,,,,,,,,,,,,,,,,1,5.3747,,0,0,72,72,14,1,stimuli/stim_20210706_power2amp/equal_lnn_AM0.6Hz_s35_28.m4a,,,,,,,,,,,,
,,,,,,,,,,,,41901,2021-09-24_12h20.25.406,judgeSpeechMusic_20210921_logNormShiftAmp_detection_fixS,2020.1.2,MacIntel,60,,,,,,,,,,,,,,,,,,1,5.4241,,0,0,73,73,33,1,stimuli/stim_20210706_power2amp/equal_lnn_AM2.4Hz_s35_40.m4a,,,,,,,,,,,,
,,,,,,,,,,,,41901,2021-09-24_12h20.25.406,judgeSpeechMusic_20210921_logNormShiftAmp_detection_fixS,2020.1.2,MacIntel,60,,,,,,,,,,,,,,,,,,1,5.5783,,0,0,74,74,63,1,stimuli/stim_20210706_power2amp/equal_lnn_AM4.2Hz_s35_45.m4a,,,,,,,,,,,,
,,,,,,,,,,,,41901,2021-09-24_12h20.25.406,judgeSpeechMusic_20210921_logNormShiftAmp_detection_fixS,2020.1.2,MacIntel,60,,,,,,,,,,,,,,,,,,,,,,,,,,,,,,,1,1,3,1,1,SPEECH,stimuli/SPEECH.jpg,,
,,,,,,,,,,,,41901,2021-09-24_12h20.25.406,judgeSpeechMusic_20210921_logNormShiftAmp_detection_fixS,2020.1.2,MacIntel,60,,,,,,,,,,,,,,,,,,,,,,,,,,,,,,,,,,,,,,space,10.1486
