headphoneResponse.keys,headphoneResponse.corr,headphoneResponse.rt,headphoneTrial.thisRepN,headphoneTrial.thisTrialN,headphoneTrial.thisN,headphoneTrial.thisIndex,headphoneTrial.ran,headphone_sound1,headphone_sound2,headphone_sound3,corrAns,participant,date,expName,psychopyVersion,OS,frameRate,checkInstruKey.keys,checkInstruKey.rt,trainSlider.response,trainSlider.rt,beepTrainResponse.keys,beepTrainResponse.corr,trainingTrials.thisRepN,trainingTrials.thisTrialN,trainingTrials.thisN,trainingTrials.thisIndex,trainingTrials.ran,trainAudioFile,beepTrainResponse.rt,readyReal_resp.keys,readyReal_resp.rt,checkInstru2_key.keys,checkInstru2_key.rt,ratingSlider.response,ratingSlider.rt,beepResp.keys,beepResp.corr,expTrials.thisRepN,expTrials.thisTrialN,expTrials.thisN,expTrials.thisIndex,expTrials.ran,audioFile,beepResp.rt,switchBlock_space.keys,switchBlock_space.rt,block.thisRepN,block.thisTrialN,block.thisN,block.thisIndex,block.ran,blockName,blockImage,end_resp.keys,end_resp.rt
2,1,1.41455,0,0,0,3,1,stimuli/screen_origin.wav,stimuli/screen_quiet.wav,stimuli/screen_antiphase.wav,2,41933,2021-09-23_05h28.07.864,judgeSpeechMusic_20210921_logNormShiftAmp_detection_fixS,2020.1.2,MacIntel,60,,,,,,,,,,,,,,,,,,,,,,,,,,,,,,,,,,,,,,,
3,0,1.85117,0,1,1,4,1,stimuli/screen_quiet.wav,stimuli/screen_antiphase.wav,stimuli/screen_origin.wav,1,41933,2021-09-23_05h28.07.864,judgeSpeechMusic_20210921_logNormShiftAmp_detection_fixS,2020.1.2,MacIntel,60,,,,,,,,,,,,,,,,,,,,,,,,,,,,,,,,,,,,,,,
2,1,7.45331,0,2,2,1,1,stimuli/screen_antiphase.wav,stimuli/screen_quiet.wav,stimuli/screen_origin.wav,2,41933,2021-09-23_05h28.07.864,judgeSpeechMusic_20210921_logNormShiftAmp_detection_fixS,2020.1.2,MacIntel,60,,,,,,,,,,,,,,,,,,,,,,,,,,,,,,,,,,,,,,,
1,1,0.918015,0,3,3,5,1,stimuli/screen_quiet.wav,stimuli/screen_origin.wav,stimuli/screen_antiphase.wav,1,41933,2021-09-23_05h28.07.864,judgeSpeechMusic_20210921_logNormShiftAmp_detection_fixS,2020.1.2,MacIntel,60,,,,,,,,,,,,,,,,,,,,,,,,,,,,,,,,,,,,,,,
3,1,1.484565,0,4,4,2,1,stimuli/screen_origin.wav,stimuli/screen_antiphase.wav,stimuli/screen_quiet.wav,3,41933,2021-09-23_05h28.07.864,judgeSpeechMusic_20210921_logNormShiftAmp_detection_fixS,2020.1.2,MacIntel,60,,,,,,,,,,,,,,,,,,,,,,,,,,,,,,,,,,,,,,,
3,1,1.049595,0,5,5,0,1,stimuli/screen_antiphase.wav,stimuli/screen_origin.wav,stimuli/screen_quiet.wav,3,41933,2021-09-23_05h28.07.864,judgeSpeechMusic_20210921_logNormShiftAmp_detection_fixS,2020.1.2,MacIntel,60,,,,,,,,,,,,,,,,,,,,,,,,,,,,,,,,,,,,,,,
,,,,,,,,,,,,41933,2021-09-23_05h28.07.864,judgeSpeechMusic_20210921_logNormShiftAmp_detection_fixS,2020.1.2,MacIntel,60,space,5.132015,1,11.815775,,0,0,0,0,3,1,stimuli/stim_20210706_power2amp/equal_lnn_AM_training3.9Hz_s35.m4a,,,,,,,,,,,,,,,,,,,,,,,,,,,
,,,,,,,,,,,,41933,2021-09-23_05h28.07.864,judgeSpeechMusic_20210921_logNormShiftAmp_detection_fixS,2020.1.2,MacIntel,60,,,1,10.387305,,0,0,1,1,2,1,stimuli/stim_20210706_power2amp/equal_lnn_AM_training3Hz_s35.m4a,,,,,,,,,,,,,,,,,,,,,,,,,,,
,,,,,,,,,,,,41933,2021-09-23_05h28.07.864,judgeSpeechMusic_20210921_logNormShiftAmp_detection_fixS,2020.1.2,MacIntel,60,,,1,8.459585,1,1,0,2,2,0,1,stimuli/stim_20210706_power2amp/equal_lnn_AM_training0.9Hz_s35.m4a,2.44708,,,,,,,,,,,,,,,,,,,,,,,,,,
,,,,,,,,,,,,41933,2021-09-23_05h28.07.864,judgeSpeechMusic_20210921_logNormShiftAmp_detection_fixS,2020.1.2,MacIntel,60,,,1,7.90902,,0,0,3,3,1,1,stimuli/stim_20210706_power2amp/equal_lnn_AM_training1.8Hz_s35.m4a,,,,,,,,,,,,,,,,,,,,,,,,,,,
,,,,,,,,,,,,41933,2021-09-23_05h28.07.864,judgeSpeechMusic_20210921_logNormShiftAmp_detection_fixS,2020.1.2,MacIntel,60,,,,,,,,,,,,,,space,9.812465,space,0.882425,2,11.72876,,0,0,0,0,40,1,stimuli/stim_20210706_power2amp/equal_lnn_AM2.4Hz_s35_44.m4a,,,,,,,,,,,,
,,,,,,,,,,,,41933,2021-09-23_05h28.07.864,judgeSpeechMusic_20210921_logNormShiftAmp_detection_fixS,2020.1.2,MacIntel,60,,,,,,,,,,,,,,,,,,2,7.54268,,0,0,1,1,55,1,stimuli/stim_20210706_power2amp/equal_lnn_AM3.6Hz_s35_21.m4a,,,,,,,,,,,,
,,,,,,,,,,,,41933,2021-09-23_05h28.07.864,judgeSpeechMusic_20210921_logNormShiftAmp_detection_fixS,2020.1.2,MacIntel,60,,,,,,,,,,,,,,,,,,1,9.69524,,0,0,2,2,45,1,stimuli/stim_20210706_power2amp/equal_lnn_AM3.6Hz_s35_47.m4a,,,,,,,,,,,,
,,,,,,,,,,,,41933,2021-09-23_05h28.07.864,judgeSpeechMusic_20210921_logNormShiftAmp_detection_fixS,2020.1.2,MacIntel,60,,,,,,,,,,,,,,,,,,2,6.46166,,0,0,3,3,37,1,stimuli/stim_20210706_power2amp/equal_lnn_AM2.4Hz_s35_23.m4a,,,,,,,,,,,,
,,,,,,,,,,,,41933,2021-09-23_05h28.07.864,judgeSpeechMusic_20210921_logNormShiftAmp_detection_fixS,2020.1.2,MacIntel,60,,,,,,,,,,,,,,,,,,1,6.310365,,0,0,4,4,66,1,stimuli/stim_20210706_power2amp/equal_lnn_AM4.2Hz_s35_14.m4a,,,,,,,,,,,,
,,,,,,,,,,,,41933,2021-09-23_05h28.07.864,judgeSpeechMusic_20210921_logNormShiftAmp_detection_fixS,2020.1.2,MacIntel,60,,,,,,,,,,,,,,,,,,2,6.179215,,0,0,5,5,35,1,stimuli/stim_20210706_power2amp/equal_lnn_AM2.4Hz_s35_10.m4a,,,,,,,,,,,,
,,,,,,,,,,,,41933,2021-09-23_05h28.07.864,judgeSpeechMusic_20210921_logNormShiftAmp_detection_fixS,2020.1.2,MacIntel,60,,,,,,,,,,,,,,,,,,2,6.28001,,0,0,6,6,69,1,stimuli/stim_20210706_power2amp/equal_lnn_AM4.2Hz_s35_21.m4a,,,,,,,,,,,,
,,,,,,,,,,,,41933,2021-09-23_05h28.07.864,judgeSpeechMusic_20210921_logNormShiftAmp_detection_fixS,2020.1.2,MacIntel,60,,,,,,,,,,,,,,,,,,2,6.211945,,0,0,7,7,53,1,stimuli/stim_20210706_power2amp/equal_lnn_AM3.6Hz_s35_46.m4a,,,,,,,,,,,,
,,,,,,,,,,,,41933,2021-09-23_05h28.07.864,judgeSpeechMusic_20210921_logNormShiftAmp_detection_fixS,2020.1.2,MacIntel,60,,,,,,,,,,,,,,,,,,1,6.1469,,0,0,8,8,0,1,stimuli/stim_20210706_power2amp/equal_lnn_AM0.6Hz_s35_34.m4a,,,,,,,,,,,,
,,,,,,,,,,,,41933,2021-09-23_05h28.07.864,judgeSpeechMusic_20210921_logNormShiftAmp_detection_fixS,2020.1.2,MacIntel,60,,,,,,,,,,,,,,,,,,2,7.278015,,0,0,9,9,52,1,stimuli/stim_20210706_power2amp/equal_lnn_AM3.6Hz_s35_27.m4a,,,,,,,,,,,,
,,,,,,,,,,,,41933,2021-09-23_05h28.07.864,judgeSpeechMusic_20210921_logNormShiftAmp_detection_fixS,2020.1.2,MacIntel,60,,,,,,,,,,,,,,,,,,2,6.011085,,0,0,10,10,47,1,stimuli/stim_20210706_power2amp/equal_lnn_AM3.6Hz_s35_6.m4a,,,,,,,,,,,,
,,,,,,,,,,,,41933,2021-09-23_05h28.07.864,judgeSpeechMusic_20210921_logNormShiftAmp_detection_fixS,2020.1.2,MacIntel,60,,,,,,,,,,,,,,,,,,1,6.12859,,0,0,11,11,33,1,stimuli/stim_20210706_power2amp/equal_lnn_AM2.4Hz_s35_8.m4a,,,,,,,,,,,,
,,,,,,,,,,,,41933,2021-09-23_05h28.07.864,judgeSpeechMusic_20210921_logNormShiftAmp_detection_fixS,2020.1.2,MacIntel,60,,,,,,,,,,,,,,,,,,2,8.204385,,0,0,12,12,70,1,stimuli/stim_20210706_power2amp/equal_lnn_AM4.2Hz_s35_13.m4a,,,,,,,,,,,,
,,,,,,,,,,,,41933,2021-09-23_05h28.07.864,judgeSpeechMusic_20210921_logNormShiftAmp_detection_fixS,2020.1.2,MacIntel,60,,,,,,,,,,,,,,,,,,2,7.778325,,0,0,13,13,46,1,stimuli/stim_20210706_power2amp/equal_lnn_AM3.6Hz_s35_11.m4a,,,,,,,,,,,,
,,,,,,,,,,,,41933,2021-09-23_05h28.07.864,judgeSpeechMusic_20210921_logNormShiftAmp_detection_fixS,2020.1.2,MacIntel,60,,,,,,,,,,,,,,,,,,2,5.81096,,0,0,14,14,74,1,stimuli/stim_20210706_power2amp/equal_lnn_AM4.2Hz_s35_23.m4a,,,,,,,,,,,,
,,,,,,,,,,,,41933,2021-09-23_05h28.07.864,judgeSpeechMusic_20210921_logNormShiftAmp_detection_fixS,2020.1.2,MacIntel,60,,,,,,,,,,,,,,,,,,1,5.9954,,0,0,15,15,31,1,stimuli/stim_20210706_power2amp/equal_lnn_AM2.4Hz_s35_48.m4a,,,,,,,,,,,,
,,,,,,,,,,,,41933,2021-09-23_05h28.07.864,judgeSpeechMusic_20210921_logNormShiftAmp_detection_fixS,2020.1.2,MacIntel,60,,,,,,,,,,,,,,,,,,2,8.01049,,0,0,16,16,54,1,stimuli/stim_20210706_power2amp/equal_lnn_AM3.6Hz_s35_45.m4a,,,,,,,,,,,,
,,,,,,,,,,,,41933,2021-09-23_05h28.07.864,judgeSpeechMusic_20210921_logNormShiftAmp_detection_fixS,2020.1.2,MacIntel,60,,,,,,,,,,,,,,,,,,1,6.095175,,0,0,17,17,23,1,stimuli/stim_20210706_power2amp/equal_lnn_AM1.2Hz_s35_28.m4a,,,,,,,,,,,,
,,,,,,,,,,,,41933,2021-09-23_05h28.07.864,judgeSpeechMusic_20210921_logNormShiftAmp_detection_fixS,2020.1.2,MacIntel,60,,,,,,,,,,,,,,,,,,2,7.027645,,0,0,18,18,73,1,stimuli/stim_20210706_power2amp/equal_lnn_AM4.2Hz_s35_27.m4a,,,,,,,,,,,,
,,,,,,,,,,,,41933,2021-09-23_05h28.07.864,judgeSpeechMusic_20210921_logNormShiftAmp_detection_fixS,2020.1.2,MacIntel,60,,,,,,,,,,,,,,,,,,1,5.86121,,0,0,19,19,5,1,stimuli/stim_20210706_power2amp/equal_lnn_AM0.6Hz_s35_29.m4a,,,,,,,,,,,,
,,,,,,,,,,,,41933,2021-09-23_05h28.07.864,judgeSpeechMusic_20210921_logNormShiftAmp_detection_fixS,2020.1.2,MacIntel,60,,,,,,,,,,,,,,,,,,2,5.79502,,0,0,20,20,65,1,stimuli/stim_20210706_power2amp/equal_lnn_AM4.2Hz_s35_10.m4a,,,,,,,,,,,,
,,,,,,,,,,,,41933,2021-09-23_05h28.07.864,judgeSpeechMusic_20210921_logNormShiftAmp_detection_fixS,2020.1.2,MacIntel,60,,,,,,,,,,,,,,,,,,2,5.644125,3,1,0,21,21,57,1,stimuli/stim_20210706_power2amp/equal_lnn_AM3.6Hz_s35_23.m4a,3.014385,,,,,,,,,,,
,,,,,,,,,,,,41933,2021-09-23_05h28.07.864,judgeSpeechMusic_20210921_logNormShiftAmp_detection_fixS,2020.1.2,MacIntel,60,,,,,,,,,,,,,,,,,,2,5.794875,,0,0,22,22,62,1,stimuli/stim_20210706_power2amp/equal_lnn_AM4.2Hz_s35_19.m4a,,,,,,,,,,,,
,,,,,,,,,,,,41933,2021-09-23_05h28.07.864,judgeSpeechMusic_20210921_logNormShiftAmp_detection_fixS,2020.1.2,MacIntel,60,,,,,,,,,,,,,,,,,,2,5.661845,,0,0,23,23,56,1,stimuli/stim_20210706_power2amp/equal_lnn_AM3.6Hz_s35_8.m4a,,,,,,,,,,,,
,,,,,,,,,,,,41933,2021-09-23_05h28.07.864,judgeSpeechMusic_20210921_logNormShiftAmp_detection_fixS,2020.1.2,MacIntel,60,,,,,,,,,,,,,,,,,,1,5.92879,,0,0,24,24,67,1,stimuli/stim_20210706_power2amp/equal_lnn_AM4.2Hz_s35_30.m4a,,,,,,,,,,,,
,,,,,,,,,,,,41933,2021-09-23_05h28.07.864,judgeSpeechMusic_20210921_logNormShiftAmp_detection_fixS,2020.1.2,MacIntel,60,,,,,,,,,,,,,,,,,,1,5.627575,,0,0,25,25,4,1,stimuli/stim_20210706_power2amp/equal_lnn_AM0.6Hz_s35_11.m4a,,,,,,,,,,,,
,,,,,,,,,,,,41933,2021-09-23_05h28.07.864,judgeSpeechMusic_20210921_logNormShiftAmp_detection_fixS,2020.1.2,MacIntel,60,,,,,,,,,,,,,,,,,,2,6.04553,,0,0,26,26,38,1,stimuli/stim_20210706_power2amp/equal_lnn_AM2.4Hz_s35_5.m4a,,,,,,,,,,,,
,,,,,,,,,,,,41933,2021-09-23_05h28.07.864,judgeSpeechMusic_20210921_logNormShiftAmp_detection_fixS,2020.1.2,MacIntel,60,,,,,,,,,,,,,,,,,,2,6.646045,,0,0,27,27,49,1,stimuli/stim_20210706_power2amp/equal_lnn_AM3.6Hz_s35_3.m4a,,,,,,,,,,,,
,,,,,,,,,,,,41933,2021-09-23_05h28.07.864,judgeSpeechMusic_20210921_logNormShiftAmp_detection_fixS,2020.1.2,MacIntel,60,,,,,,,,,,,,,,,,,,1,7.62625,,0,0,28,28,14,1,stimuli/stim_20210706_power2amp/equal_lnn_AM0.6Hz_s35_39.m4a,,,,,,,,,,,,
,,,,,,,,,,,,41933,2021-09-23_05h28.07.864,judgeSpeechMusic_20210921_logNormShiftAmp_detection_fixS,2020.1.2,MacIntel,60,,,,,,,,,,,,,,,,,,1,6.761535,,0,0,29,29,21,1,stimuli/stim_20210706_power2amp/equal_lnn_AM1.2Hz_s35_39.m4a,,,,,,,,,,,,
,,,,,,,,,,,,41933,2021-09-23_05h28.07.864,judgeSpeechMusic_20210921_logNormShiftAmp_detection_fixS,2020.1.2,MacIntel,60,,,,,,,,,,,,,,,,,,1,6.49561,,0,0,30,30,10,1,stimuli/stim_20210706_power2amp/equal_lnn_AM0.6Hz_s35_18.m4a,,,,,,,,,,,,
,,,,,,,,,,,,41933,2021-09-23_05h28.07.864,judgeSpeechMusic_20210921_logNormShiftAmp_detection_fixS,2020.1.2,MacIntel,60,,,,,,,,,,,,,,,,,,2,6.394835,,0,0,31,31,42,1,stimuli/stim_20210706_power2amp/equal_lnn_AM2.4Hz_s35_2.m4a,,,,,,,,,,,,
,,,,,,,,,,,,41933,2021-09-23_05h28.07.864,judgeSpeechMusic_20210921_logNormShiftAmp_detection_fixS,2020.1.2,MacIntel,60,,,,,,,,,,,,,,,,,,2,5.92946,,0,0,32,32,58,1,stimuli/stim_20210706_power2amp/equal_lnn_AM3.6Hz_s35_42.m4a,,,,,,,,,,,,
,,,,,,,,,,,,41933,2021-09-23_05h28.07.864,judgeSpeechMusic_20210921_logNormShiftAmp_detection_fixS,2020.1.2,MacIntel,60,,,,,,,,,,,,,,,,,,2,10.24434,,0,0,33,33,6,1,stimuli/stim_20210706_power2amp/equal_lnn_AM0.6Hz_s35_32.m4a,,,,,,,,,,,,
,,,,,,,,,,,,41933,2021-09-23_05h28.07.864,judgeSpeechMusic_20210921_logNormShiftAmp_detection_fixS,2020.1.2,MacIntel,60,,,,,,,,,,,,,,,,,,2,6.77927,,0,0,34,34,36,1,stimuli/stim_20210706_power2amp/equal_lnn_AM2.4Hz_s35_35.m4a,,,,,,,,,,,,
,,,,,,,,,,,,41933,2021-09-23_05h28.07.864,judgeSpeechMusic_20210921_logNormShiftAmp_detection_fixS,2020.1.2,MacIntel,60,,,,,,,,,,,,,,,,,,1,6.145335,,0,0,35,35,3,1,stimuli/stim_20210706_power2amp/equal_lnn_AM0.6Hz_s35_6.m4a,,,,,,,,,,,,
,,,,,,,,,,,,41933,2021-09-23_05h28.07.864,judgeSpeechMusic_20210921_logNormShiftAmp_detection_fixS,2020.1.2,MacIntel,60,,,,,,,,,,,,,,,,,,1,5.775805,,0,0,36,36,15,1,stimuli/stim_20210706_power2amp/equal_lnn_AM1.2Hz_s35_7.m4a,,,,,,,,,,,,
,,,,,,,,,,,,41933,2021-09-23_05h28.07.864,judgeSpeechMusic_20210921_logNormShiftAmp_detection_fixS,2020.1.2,MacIntel,60,,,,,,,,,,,,,,,,,,1,5.72919,,0,0,37,37,27,1,stimuli/stim_20210706_power2amp/equal_lnn_AM1.2Hz_s35_14.m4a,,,,,,,,,,,,
,,,,,,,,,,,,41933,2021-09-23_05h28.07.864,judgeSpeechMusic_20210921_logNormShiftAmp_detection_fixS,2020.1.2,MacIntel,60,,,,,,,,,,,,,,,,,,1,6.91093,,0,0,38,38,43,1,stimuli/stim_20210706_power2amp/equal_lnn_AM2.4Hz_s35_19.m4a,,,,,,,,,,,,
,,,,,,,,,,,,41933,2021-09-23_05h28.07.864,judgeSpeechMusic_20210921_logNormShiftAmp_detection_fixS,2020.1.2,MacIntel,60,,,,,,,,,,,,,,,,,,1,6.02941,,0,0,39,39,7,1,stimuli/stim_20210706_power2amp/equal_lnn_AM0.6Hz_s35_1.m4a,,,,,,,,,,,,
,,,,,,,,,,,,41933,2021-09-23_05h28.07.864,judgeSpeechMusic_20210921_logNormShiftAmp_detection_fixS,2020.1.2,MacIntel,60,,,,,,,,,,,,,,,,,,2,6.062125,,0,0,40,40,30,1,stimuli/stim_20210706_power2amp/equal_lnn_AM2.4Hz_s35_9.m4a,,,,,,,,,,,,
,,,,,,,,,,,,41933,2021-09-23_05h28.07.864,judgeSpeechMusic_20210921_logNormShiftAmp_detection_fixS,2020.1.2,MacIntel,60,,,,,,,,,,,,,,,,,,2,5.711865,,0,0,41,41,32,1,stimuli/stim_20210706_power2amp/equal_lnn_AM2.4Hz_s35_26.m4a,,,,,,,,,,,,
,,,,,,,,,,,,41933,2021-09-23_05h28.07.864,judgeSpeechMusic_20210921_logNormShiftAmp_detection_fixS,2020.1.2,MacIntel,60,,,,,,,,,,,,,,,,,,2,5.643955,,0,0,42,42,18,1,stimuli/stim_20210706_power2amp/equal_lnn_AM1.2Hz_s35_15.m4a,,,,,,,,,,,,
,,,,,,,,,,,,41933,2021-09-23_05h28.07.864,judgeSpeechMusic_20210921_logNormShiftAmp_detection_fixS,2020.1.2,MacIntel,60,,,,,,,,,,,,,,,,,,2,5.64511,3,1,0,43,43,64,1,stimuli/stim_20210706_power2amp/equal_lnn_AM4.2Hz_s35_31.m4a,1.34834,,,,,,,,,,,
,,,,,,,,,,,,41933,2021-09-23_05h28.07.864,judgeSpeechMusic_20210921_logNormShiftAmp_detection_fixS,2020.1.2,MacIntel,60,,,,,,,,,,,,,,,,,,1,7.44444,,0,0,44,44,8,1,stimuli/stim_20210706_power2amp/equal_lnn_AM0.6Hz_s35_13.m4a,,,,,,,,,,,,
,,,,,,,,,,,,41933,2021-09-23_05h28.07.864,judgeSpeechMusic_20210921_logNormShiftAmp_detection_fixS,2020.1.2,MacIntel,60,,,,,,,,,,,,,,,,,,2,6.044945,,0,0,45,45,60,1,stimuli/stim_20210706_power2amp/equal_lnn_AM4.2Hz_s35_35.m4a,,,,,,,,,,,,
,,,,,,,,,,,,41933,2021-09-23_05h28.07.864,judgeSpeechMusic_20210921_logNormShiftAmp_detection_fixS,2020.1.2,MacIntel,60,,,,,,,,,,,,,,,,,,1,6.29504,,0,0,46,46,16,1,stimuli/stim_20210706_power2amp/equal_lnn_AM1.2Hz_s35_2.m4a,,,,,,,,,,,,
,,,,,,,,,,,,41933,2021-09-23_05h28.07.864,judgeSpeechMusic_20210921_logNormShiftAmp_detection_fixS,2020.1.2,MacIntel,60,,,,,,,,,,,,,,,,,,1,5.69622,,0,0,47,47,48,1,stimuli/stim_20210706_power2amp/equal_lnn_AM3.6Hz_s35_4.m4a,,,,,,,,,,,,
,,,,,,,,,,,,41933,2021-09-23_05h28.07.864,judgeSpeechMusic_20210921_logNormShiftAmp_detection_fixS,2020.1.2,MacIntel,60,,,,,,,,,,,,,,,,,,1,6.76047,,0,0,48,48,59,1,stimuli/stim_20210706_power2amp/equal_lnn_AM3.6Hz_s35_37.m4a,,,,,,,,,,,,
,,,,,,,,,,,,41933,2021-09-23_05h28.07.864,judgeSpeechMusic_20210921_logNormShiftAmp_detection_fixS,2020.1.2,MacIntel,60,,,,,,,,,,,,,,,,,,1,5.595065,,0,0,49,49,20,1,stimuli/stim_20210706_power2amp/equal_lnn_AM1.2Hz_s35_35.m4a,,,,,,,,,,,,
,,,,,,,,,,,,41933,2021-09-23_05h28.07.864,judgeSpeechMusic_20210921_logNormShiftAmp_detection_fixS,2020.1.2,MacIntel,60,,,,,,,,,,,,,,,,,,2,9.34387,,0,0,50,50,22,1,stimuli/stim_20210706_power2amp/equal_lnn_AM1.2Hz_s35_16.m4a,,,,,,,,,,,,
,,,,,,,,,,,,41933,2021-09-23_05h28.07.864,judgeSpeechMusic_20210921_logNormShiftAmp_detection_fixS,2020.1.2,MacIntel,60,,,,,,,,,,,,,,,,,,1,5.8234,,0,0,51,51,11,1,stimuli/stim_20210706_power2amp/equal_lnn_AM0.6Hz_s35_14.m4a,,,,,,,,,,,,
,,,,,,,,,,,,41933,2021-09-23_05h28.07.864,judgeSpeechMusic_20210921_logNormShiftAmp_detection_fixS,2020.1.2,MacIntel,60,,,,,,,,,,,,,,,,,,1,5.77345,,0,0,52,52,13,1,stimuli/stim_20210706_power2amp/equal_lnn_AM0.6Hz_s35_2.m4a,,,,,,,,,,,,
,,,,,,,,,,,,41933,2021-09-23_05h28.07.864,judgeSpeechMusic_20210921_logNormShiftAmp_detection_fixS,2020.1.2,MacIntel,60,,,,,,,,,,,,,,,,,,1,5.793915,,0,0,53,53,39,1,stimuli/stim_20210706_power2amp/equal_lnn_AM2.4Hz_s35_41.m4a,,,,,,,,,,,,
,,,,,,,,,,,,41933,2021-09-23_05h28.07.864,judgeSpeechMusic_20210921_logNormShiftAmp_detection_fixS,2020.1.2,MacIntel,60,,,,,,,,,,,,,,,,,,2,7.365255,,0,0,54,54,68,1,stimuli/stim_20210706_power2amp/equal_lnn_AM4.2Hz_s35_38.m4a,,,,,,,,,,,,
,,,,,,,,,,,,41933,2021-09-23_05h28.07.864,judgeSpeechMusic_20210921_logNormShiftAmp_detection_fixS,2020.1.2,MacIntel,60,,,,,,,,,,,,,,,,,,1,6.07123,,0,0,55,55,34,1,stimuli/stim_20210706_power2amp/equal_lnn_AM2.4Hz_s35_33.m4a,,,,,,,,,,,,
,,,,,,,,,,,,41933,2021-09-23_05h28.07.864,judgeSpeechMusic_20210921_logNormShiftAmp_detection_fixS,2020.1.2,MacIntel,60,,,,,,,,,,,,,,,,,,2,5.905065,,0,0,56,56,63,1,stimuli/stim_20210706_power2amp/equal_lnn_AM4.2Hz_s35_16.m4a,,,,,,,,,,,,
,,,,,,,,,,,,41933,2021-09-23_05h28.07.864,judgeSpeechMusic_20210921_logNormShiftAmp_detection_fixS,2020.1.2,MacIntel,60,,,,,,,,,,,,,,,,,,1,6.13983,,0,0,57,57,17,1,stimuli/stim_20210706_power2amp/equal_lnn_AM1.2Hz_s35_47.m4a,,,,,,,,,,,,
,,,,,,,,,,,,41933,2021-09-23_05h28.07.864,judgeSpeechMusic_20210921_logNormShiftAmp_detection_fixS,2020.1.2,MacIntel,60,,,,,,,,,,,,,,,,,,1,6.361605,,0,0,58,58,9,1,stimuli/stim_20210706_power2amp/equal_lnn_AM0.6Hz_s35_28.m4a,,,,,,,,,,,,
,,,,,,,,,,,,41933,2021-09-23_05h28.07.864,judgeSpeechMusic_20210921_logNormShiftAmp_detection_fixS,2020.1.2,MacIntel,60,,,,,,,,,,,,,,,,,,1,5.71115,,0,0,59,59,1,1,stimuli/stim_20210706_power2amp/equal_lnn_AM0.6Hz_s35_17.m4a,,,,,,,,,,,,
,,,,,,,,,,,,41933,2021-09-23_05h28.07.864,judgeSpeechMusic_20210921_logNormShiftAmp_detection_fixS,2020.1.2,MacIntel,60,,,,,,,,,,,,,,,,,,2,11.265015,,0,0,60,60,19,1,stimuli/stim_20210706_power2amp/equal_lnn_AM1.2Hz_s35_11.m4a,,,,,,,,,,,,
,,,,,,,,,,,,41933,2021-09-23_05h28.07.864,judgeSpeechMusic_20210921_logNormShiftAmp_detection_fixS,2020.1.2,MacIntel,60,,,,,,,,,,,,,,,,,,2,5.57051,,0,0,61,61,71,1,stimuli/stim_20210706_power2amp/equal_lnn_AM4.2Hz_s35_40.m4a,,,,,,,,,,,,
,,,,,,,,,,,,41933,2021-09-23_05h28.07.864,judgeSpeechMusic_20210921_logNormShiftAmp_detection_fixS,2020.1.2,MacIntel,60,,,,,,,,,,,,,,,,,,1,5.9786,,0,0,62,62,2,1,stimuli/stim_20210706_power2amp/equal_lnn_AM0.6Hz_s35_38.m4a,,,,,,,,,,,,
,,,,,,,,,,,,41933,2021-09-23_05h28.07.864,judgeSpeechMusic_20210921_logNormShiftAmp_detection_fixS,2020.1.2,MacIntel,60,,,,,,,,,,,,,,,,,,2,7.79472,,0,0,63,63,41,1,stimuli/stim_20210706_power2amp/equal_lnn_AM2.4Hz_s35_30.m4a,,,,,,,,,,,,
,,,,,,,,,,,,41933,2021-09-23_05h28.07.864,judgeSpeechMusic_20210921_logNormShiftAmp_detection_fixS,2020.1.2,MacIntel,60,,,,,,,,,,,,,,,,,,1,6.830055,,0,0,64,64,24,1,stimuli/stim_20210706_power2amp/equal_lnn_AM1.2Hz_s35_36.m4a,,,,,,,,,,,,
,,,,,,,,,,,,41933,2021-09-23_05h28.07.864,judgeSpeechMusic_20210921_logNormShiftAmp_detection_fixS,2020.1.2,MacIntel,60,,,,,,,,,,,,,,,,,,2,5.8407,4,1,0,65,65,72,1,stimuli/stim_20210706_power2amp/equal_lnn_AM4.2Hz_s35_50.m4a,1.697305,,,,,,,,,,,
,,,,,,,,,,,,41933,2021-09-23_05h28.07.864,judgeSpeechMusic_20210921_logNormShiftAmp_detection_fixS,2020.1.2,MacIntel,60,,,,,,,,,,,,,,,,,,1,9.943875,,0,0,66,66,12,1,stimuli/stim_20210706_power2amp/equal_lnn_AM0.6Hz_s35_15.m4a,,,,,,,,,,,,
,,,,,,,,,,,,41933,2021-09-23_05h28.07.864,judgeSpeechMusic_20210921_logNormShiftAmp_detection_fixS,2020.1.2,MacIntel,60,,,,,,,,,,,,,,,,,,2,5.89734,,0,0,67,67,61,1,stimuli/stim_20210706_power2amp/equal_lnn_AM4.2Hz_s35_18.m4a,,,,,,,,,,,,
,,,,,,,,,,,,41933,2021-09-23_05h28.07.864,judgeSpeechMusic_20210921_logNormShiftAmp_detection_fixS,2020.1.2,MacIntel,60,,,,,,,,,,,,,,,,,,1,6.14489,,0,0,68,68,26,1,stimuli/stim_20210706_power2amp/equal_lnn_AM1.2Hz_s35_23.m4a,,,,,,,,,,,,
,,,,,,,,,,,,41933,2021-09-23_05h28.07.864,judgeSpeechMusic_20210921_logNormShiftAmp_detection_fixS,2020.1.2,MacIntel,60,,,,,,,,,,,,,,,,,,2,6.324885,,0,0,69,69,25,1,stimuli/stim_20210706_power2amp/equal_lnn_AM1.2Hz_s35_38.m4a,,,,,,,,,,,,
,,,,,,,,,,,,41933,2021-09-23_05h28.07.864,judgeSpeechMusic_20210921_logNormShiftAmp_detection_fixS,2020.1.2,MacIntel,60,,,,,,,,,,,,,,,,,,1,7.01213,,0,0,70,70,28,1,stimuli/stim_20210706_power2amp/equal_lnn_AM1.2Hz_s35_25.m4a,,,,,,,,,,,,
,,,,,,,,,,,,41933,2021-09-23_05h28.07.864,judgeSpeechMusic_20210921_logNormShiftAmp_detection_fixS,2020.1.2,MacIntel,60,,,,,,,,,,,,,,,,,,2,6.01201,,0,0,71,71,50,1,stimuli/stim_20210706_power2amp/equal_lnn_AM3.6Hz_s35_2.m4a,,,,,,,,,,,,
,,,,,,,,,,,,41933,2021-09-23_05h28.07.864,judgeSpeechMusic_20210921_logNormShiftAmp_detection_fixS,2020.1.2,MacIntel,60,,,,,,,,,,,,,,,,,,2,5.62907,,0,0,72,72,51,1,stimuli/stim_20210706_power2amp/equal_lnn_AM3.6Hz_s35_39.m4a,,,,,,,,,,,,
,,,,,,,,,,,,41933,2021-09-23_05h28.07.864,judgeSpeechMusic_20210921_logNormShiftAmp_detection_fixS,2020.1.2,MacIntel,60,,,,,,,,,,,,,,,,,,2,5.74815,,0,0,73,73,29,1,stimuli/stim_20210706_power2amp/equal_lnn_AM1.2Hz_s35_44.m4a,,,,,,,,,,,,
,,,,,,,,,,,,41933,2021-09-23_05h28.07.864,judgeSpeechMusic_20210921_logNormShiftAmp_detection_fixS,2020.1.2,MacIntel,60,,,,,,,,,,,,,,,,,,2,5.85609,,0,0,74,74,44,1,stimuli/stim_20210706_power2amp/equal_lnn_AM2.4Hz_s35_25.m4a,,,,,,,,,,,,
,,,,,,,,,,,,41933,2021-09-23_05h28.07.864,judgeSpeechMusic_20210921_logNormShiftAmp_detection_fixS,2020.1.2,MacIntel,60,,,,,,,,,,,,,,,,,,,,,,,,,,,,,space,2.40853,0,0,0,0,1,MUSIC,stimuli/MUSIC.jpg,,
,,,,,,,,,,,,41933,2021-09-23_05h28.07.864,judgeSpeechMusic_20210921_logNormShiftAmp_detection_fixS,2020.1.2,MacIntel,60,space,0.752085,2,7.3858,,0,0,0,0,1,1,stimuli/stim_20210706_power2amp/equal_lnn_AM_training1.8Hz_s35.m4a,,,,,,,,,,,,,,,,,,,,,,,,,,,
,,,,,,,,,,,,41933,2021-09-23_05h28.07.864,judgeSpeechMusic_20210921_logNormShiftAmp_detection_fixS,2020.1.2,MacIntel,60,,,2,5.956255,,0,0,1,1,2,1,stimuli/stim_20210706_power2amp/equal_lnn_AM_training3Hz_s35.m4a,,,,,,,,,,,,,,,,,,,,,,,,,,,
,,,,,,,,,,,,41933,2021-09-23_05h28.07.864,judgeSpeechMusic_20210921_logNormShiftAmp_detection_fixS,2020.1.2,MacIntel,60,,,1,6.526795,2,1,0,2,2,0,1,stimuli/stim_20210706_power2amp/equal_lnn_AM_training0.9Hz_s35.m4a,1.04676,,,,,,,,,,,,,,,,,,,,,,,,,,
,,,,,,,,,,,,41933,2021-09-23_05h28.07.864,judgeSpeechMusic_20210921_logNormShiftAmp_detection_fixS,2020.1.2,MacIntel,60,,,2,6.902085,,0,0,3,3,3,1,stimuli/stim_20210706_power2amp/equal_lnn_AM_training3.9Hz_s35.m4a,,,,,,,,,,,,,,,,,,,,,,,,,,,
,,,,,,,,,,,,41933,2021-09-23_05h28.07.864,judgeSpeechMusic_20210921_logNormShiftAmp_detection_fixS,2020.1.2,MacIntel,60,,,,,,,,,,,,,,space,6.926915,space,0.766535,1,6.59822,,0,0,0,0,4,1,stimuli/stim_20210706_power2amp/equal_lnn_AM0.6Hz_s35_11.m4a,,,,,,,,,,,,
,,,,,,,,,,,,41933,2021-09-23_05h28.07.864,judgeSpeechMusic_20210921_logNormShiftAmp_detection_fixS,2020.1.2,MacIntel,60,,,,,,,,,,,,,,,,,,2,8.71005,,0,0,1,1,54,1,stimuli/stim_20210706_power2amp/equal_lnn_AM3.6Hz_s35_45.m4a,,,,,,,,,,,,
,,,,,,,,,,,,41933,2021-09-23_05h28.07.864,judgeSpeechMusic_20210921_logNormShiftAmp_detection_fixS,2020.1.2,MacIntel,60,,,,,,,,,,,,,,,,,,2,6.39578,,0,0,2,2,36,1,stimuli/stim_20210706_power2amp/equal_lnn_AM2.4Hz_s35_35.m4a,,,,,,,,,,,,
,,,,,,,,,,,,41933,2021-09-23_05h28.07.864,judgeSpeechMusic_20210921_logNormShiftAmp_detection_fixS,2020.1.2,MacIntel,60,,,,,,,,,,,,,,,,,,1,6.563945,,0,0,3,3,10,1,stimuli/stim_20210706_power2amp/equal_lnn_AM0.6Hz_s35_18.m4a,,,,,,,,,,,,
,,,,,,,,,,,,41933,2021-09-23_05h28.07.864,judgeSpeechMusic_20210921_logNormShiftAmp_detection_fixS,2020.1.2,MacIntel,60,,,,,,,,,,,,,,,,,,1,5.82393,,0,0,4,4,8,1,stimuli/stim_20210706_power2amp/equal_lnn_AM0.6Hz_s35_13.m4a,,,,,,,,,,,,
,,,,,,,,,,,,41933,2021-09-23_05h28.07.864,judgeSpeechMusic_20210921_logNormShiftAmp_detection_fixS,2020.1.2,MacIntel,60,,,,,,,,,,,,,,,,,,1,6.030955,,0,0,5,5,18,1,stimuli/stim_20210706_power2amp/equal_lnn_AM1.2Hz_s35_15.m4a,,,,,,,,,,,,
,,,,,,,,,,,,41933,2021-09-23_05h28.07.864,judgeSpeechMusic_20210921_logNormShiftAmp_detection_fixS,2020.1.2,MacIntel,60,,,,,,,,,,,,,,,,,,2,8.561595,,0,0,6,6,48,1,stimuli/stim_20210706_power2amp/equal_lnn_AM3.6Hz_s35_4.m4a,,,,,,,,,,,,
,,,,,,,,,,,,41933,2021-09-23_05h28.07.864,judgeSpeechMusic_20210921_logNormShiftAmp_detection_fixS,2020.1.2,MacIntel,60,,,,,,,,,,,,,,,,,,2,5.81206,,0,0,7,7,64,1,stimuli/stim_20210706_power2amp/equal_lnn_AM4.2Hz_s35_31.m4a,,,,,,,,,,,,
,,,,,,,,,,,,41933,2021-09-23_05h28.07.864,judgeSpeechMusic_20210921_logNormShiftAmp_detection_fixS,2020.1.2,MacIntel,60,,,,,,,,,,,,,,,,,,2,5.741325,,0,0,8,8,68,1,stimuli/stim_20210706_power2amp/equal_lnn_AM4.2Hz_s35_38.m4a,,,,,,,,,,,,
,,,,,,,,,,,,41933,2021-09-23_05h28.07.864,judgeSpeechMusic_20210921_logNormShiftAmp_detection_fixS,2020.1.2,MacIntel,60,,,,,,,,,,,,,,,,,,1,5.789175,,0,0,9,9,21,1,stimuli/stim_20210706_power2amp/equal_lnn_AM1.2Hz_s35_39.m4a,,,,,,,,,,,,
,,,,,,,,,,,,41933,2021-09-23_05h28.07.864,judgeSpeechMusic_20210921_logNormShiftAmp_detection_fixS,2020.1.2,MacIntel,60,,,,,,,,,,,,,,,,,,1,5.861995,,0,0,10,10,5,1,stimuli/stim_20210706_power2amp/equal_lnn_AM0.6Hz_s35_29.m4a,,,,,,,,,,,,
,,,,,,,,,,,,41933,2021-09-23_05h28.07.864,judgeSpeechMusic_20210921_logNormShiftAmp_detection_fixS,2020.1.2,MacIntel,60,,,,,,,,,,,,,,,,,,2,6.47848,,0,0,11,11,41,1,stimuli/stim_20210706_power2amp/equal_lnn_AM2.4Hz_s35_30.m4a,,,,,,,,,,,,
,,,,,,,,,,,,41933,2021-09-23_05h28.07.864,judgeSpeechMusic_20210921_logNormShiftAmp_detection_fixS,2020.1.2,MacIntel,60,,,,,,,,,,,,,,,,,,1,5.662,,0,0,12,12,11,1,stimuli/stim_20210706_power2amp/equal_lnn_AM0.6Hz_s35_14.m4a,,,,,,,,,,,,
,,,,,,,,,,,,41933,2021-09-23_05h28.07.864,judgeSpeechMusic_20210921_logNormShiftAmp_detection_fixS,2020.1.2,MacIntel,60,,,,,,,,,,,,,,,,,,2,5.85684,,0,0,13,13,56,1,stimuli/stim_20210706_power2amp/equal_lnn_AM3.6Hz_s35_8.m4a,,,,,,,,,,,,
,,,,,,,,,,,,41933,2021-09-23_05h28.07.864,judgeSpeechMusic_20210921_logNormShiftAmp_detection_fixS,2020.1.2,MacIntel,60,,,,,,,,,,,,,,,,,,2,5.744525,,0,0,14,14,60,1,stimuli/stim_20210706_power2amp/equal_lnn_AM4.2Hz_s35_35.m4a,,,,,,,,,,,,
,,,,,,,,,,,,41933,2021-09-23_05h28.07.864,judgeSpeechMusic_20210921_logNormShiftAmp_detection_fixS,2020.1.2,MacIntel,60,,,,,,,,,,,,,,,,,,2,6.377515,,0,0,15,15,49,1,stimuli/stim_20210706_power2amp/equal_lnn_AM3.6Hz_s35_3.m4a,,,,,,,,,,,,
,,,,,,,,,,,,41933,2021-09-23_05h28.07.864,judgeSpeechMusic_20210921_logNormShiftAmp_detection_fixS,2020.1.2,MacIntel,60,,,,,,,,,,,,,,,,,,1,6.111875,,0,0,16,16,0,1,stimuli/stim_20210706_power2amp/equal_lnn_AM0.6Hz_s35_34.m4a,,,,,,,,,,,,
,,,,,,,,,,,,41933,2021-09-23_05h28.07.864,judgeSpeechMusic_20210921_logNormShiftAmp_detection_fixS,2020.1.2,MacIntel,60,,,,,,,,,,,,,,,,,,2,6.35753,,0,0,17,17,37,1,stimuli/stim_20210706_power2amp/equal_lnn_AM2.4Hz_s35_23.m4a,,,,,,,,,,,,
,,,,,,,,,,,,41933,2021-09-23_05h28.07.864,judgeSpeechMusic_20210921_logNormShiftAmp_detection_fixS,2020.1.2,MacIntel,60,,,,,,,,,,,,,,,,,,1,5.84061,,0,0,18,18,14,1,stimuli/stim_20210706_power2amp/equal_lnn_AM0.6Hz_s35_39.m4a,,,,,,,,,,,,
,,,,,,,,,,,,41933,2021-09-23_05h28.07.864,judgeSpeechMusic_20210921_logNormShiftAmp_detection_fixS,2020.1.2,MacIntel,60,,,,,,,,,,,,,,,,,,1,10.89235,,0,0,19,19,31,1,stimuli/stim_20210706_power2amp/equal_lnn_AM2.4Hz_s35_48.m4a,,,,,,,,,,,,
,,,,,,,,,,,,41933,2021-09-23_05h28.07.864,judgeSpeechMusic_20210921_logNormShiftAmp_detection_fixS,2020.1.2,MacIntel,60,,,,,,,,,,,,,,,,,,1,5.81182,,0,0,20,20,1,1,stimuli/stim_20210706_power2amp/equal_lnn_AM0.6Hz_s35_17.m4a,,,,,,,,,,,,
,,,,,,,,,,,,41933,2021-09-23_05h28.07.864,judgeSpeechMusic_20210921_logNormShiftAmp_detection_fixS,2020.1.2,MacIntel,60,,,,,,,,,,,,,,,,,,1,5.92896,2,1,0,21,21,9,1,stimuli/stim_20210706_power2amp/equal_lnn_AM0.6Hz_s35_28.m4a,0.6627,,,,,,,,,,,
,,,,,,,,,,,,41933,2021-09-23_05h28.07.864,judgeSpeechMusic_20210921_logNormShiftAmp_detection_fixS,2020.1.2,MacIntel,60,,,,,,,,,,,,,,,,,,1,6.510515,,0,0,22,22,39,1,stimuli/stim_20210706_power2amp/equal_lnn_AM2.4Hz_s35_41.m4a,,,,,,,,,,,,
,,,,,,,,,,,,41933,2021-09-23_05h28.07.864,judgeSpeechMusic_20210921_logNormShiftAmp_detection_fixS,2020.1.2,MacIntel,60,,,,,,,,,,,,,,,,,,1,5.65742,,0,0,23,23,19,1,stimuli/stim_20210706_power2amp/equal_lnn_AM1.2Hz_s35_11.m4a,,,,,,,,,,,,
,,,,,,,,,,,,41933,2021-09-23_05h28.07.864,judgeSpeechMusic_20210921_logNormShiftAmp_detection_fixS,2020.1.2,MacIntel,60,,,,,,,,,,,,,,,,,,1,6.22776,,0,0,24,24,25,1,stimuli/stim_20210706_power2amp/equal_lnn_AM1.2Hz_s35_38.m4a,,,,,,,,,,,,
,,,,,,,,,,,,41933,2021-09-23_05h28.07.864,judgeSpeechMusic_20210921_logNormShiftAmp_detection_fixS,2020.1.2,MacIntel,60,,,,,,,,,,,,,,,,,,1,5.59559,,0,0,25,25,22,1,stimuli/stim_20210706_power2amp/equal_lnn_AM1.2Hz_s35_16.m4a,,,,,,,,,,,,
,,,,,,,,,,,,41933,2021-09-23_05h28.07.864,judgeSpeechMusic_20210921_logNormShiftAmp_detection_fixS,2020.1.2,MacIntel,60,,,,,,,,,,,,,,,,,,1,5.64953,,0,0,26,26,13,1,stimuli/stim_20210706_power2amp/equal_lnn_AM0.6Hz_s35_2.m4a,,,,,,,,,,,,
,,,,,,,,,,,,41933,2021-09-23_05h28.07.864,judgeSpeechMusic_20210921_logNormShiftAmp_detection_fixS,2020.1.2,MacIntel,60,,,,,,,,,,,,,,,,,,2,5.82067,,0,0,27,27,51,1,stimuli/stim_20210706_power2amp/equal_lnn_AM3.6Hz_s35_39.m4a,,,,,,,,,,,,
,,,,,,,,,,,,41933,2021-09-23_05h28.07.864,judgeSpeechMusic_20210921_logNormShiftAmp_detection_fixS,2020.1.2,MacIntel,60,,,,,,,,,,,,,,,,,,2,5.724185,,0,0,28,28,47,1,stimuli/stim_20210706_power2amp/equal_lnn_AM3.6Hz_s35_6.m4a,,,,,,,,,,,,
,,,,,,,,,,,,41933,2021-09-23_05h28.07.864,judgeSpeechMusic_20210921_logNormShiftAmp_detection_fixS,2020.1.2,MacIntel,60,,,,,,,,,,,,,,,,,,2,5.661975,,0,0,29,29,65,1,stimuli/stim_20210706_power2amp/equal_lnn_AM4.2Hz_s35_10.m4a,,,,,,,,,,,,
,,,,,,,,,,,,41933,2021-09-23_05h28.07.864,judgeSpeechMusic_20210921_logNormShiftAmp_detection_fixS,2020.1.2,MacIntel,60,,,,,,,,,,,,,,,,,,2,5.978595,,0,0,30,30,42,1,stimuli/stim_20210706_power2amp/equal_lnn_AM2.4Hz_s35_2.m4a,,,,,,,,,,,,
,,,,,,,,,,,,41933,2021-09-23_05h28.07.864,judgeSpeechMusic_20210921_logNormShiftAmp_detection_fixS,2020.1.2,MacIntel,60,,,,,,,,,,,,,,,,,,2,6.15925,,0,0,31,31,59,1,stimuli/stim_20210706_power2amp/equal_lnn_AM3.6Hz_s35_37.m4a,,,,,,,,,,,,
,,,,,,,,,,,,41933,2021-09-23_05h28.07.864,judgeSpeechMusic_20210921_logNormShiftAmp_detection_fixS,2020.1.2,MacIntel,60,,,,,,,,,,,,,,,,,,1,6.56085,,0,0,32,32,20,1,stimuli/stim_20210706_power2amp/equal_lnn_AM1.2Hz_s35_35.m4a,,,,,,,,,,,,
,,,,,,,,,,,,41933,2021-09-23_05h28.07.864,judgeSpeechMusic_20210921_logNormShiftAmp_detection_fixS,2020.1.2,MacIntel,60,,,,,,,,,,,,,,,,,,1,5.74207,,0,0,33,33,24,1,stimuli/stim_20210706_power2amp/equal_lnn_AM1.2Hz_s35_36.m4a,,,,,,,,,,,,
,,,,,,,,,,,,41933,2021-09-23_05h28.07.864,judgeSpeechMusic_20210921_logNormShiftAmp_detection_fixS,2020.1.2,MacIntel,60,,,,,,,,,,,,,,,,,,1,5.76036,,0,0,34,34,30,1,stimuli/stim_20210706_power2amp/equal_lnn_AM2.4Hz_s35_9.m4a,,,,,,,,,,,,
,,,,,,,,,,,,41933,2021-09-23_05h28.07.864,judgeSpeechMusic_20210921_logNormShiftAmp_detection_fixS,2020.1.2,MacIntel,60,,,,,,,,,,,,,,,,,,1,5.78962,,0,0,35,35,43,1,stimuli/stim_20210706_power2amp/equal_lnn_AM2.4Hz_s35_19.m4a,,,,,,,,,,,,
,,,,,,,,,,,,41933,2021-09-23_05h28.07.864,judgeSpeechMusic_20210921_logNormShiftAmp_detection_fixS,2020.1.2,MacIntel,60,,,,,,,,,,,,,,,,,,1,5.57284,,0,0,36,36,23,1,stimuli/stim_20210706_power2amp/equal_lnn_AM1.2Hz_s35_28.m4a,,,,,,,,,,,,
,,,,,,,,,,,,41933,2021-09-23_05h28.07.864,judgeSpeechMusic_20210921_logNormShiftAmp_detection_fixS,2020.1.2,MacIntel,60,,,,,,,,,,,,,,,,,,1,5.643265,,0,0,37,37,2,1,stimuli/stim_20210706_power2amp/equal_lnn_AM0.6Hz_s35_38.m4a,,,,,,,,,,,,
,,,,,,,,,,,,41933,2021-09-23_05h28.07.864,judgeSpeechMusic_20210921_logNormShiftAmp_detection_fixS,2020.1.2,MacIntel,60,,,,,,,,,,,,,,,,,,1,5.656155,,0,0,38,38,35,1,stimuli/stim_20210706_power2amp/equal_lnn_AM2.4Hz_s35_10.m4a,,,,,,,,,,,,
,,,,,,,,,,,,41933,2021-09-23_05h28.07.864,judgeSpeechMusic_20210921_logNormShiftAmp_detection_fixS,2020.1.2,MacIntel,60,,,,,,,,,,,,,,,,,,2,5.677665,,0,0,39,39,50,1,stimuli/stim_20210706_power2amp/equal_lnn_AM3.6Hz_s35_2.m4a,,,,,,,,,,,,
,,,,,,,,,,,,41933,2021-09-23_05h28.07.864,judgeSpeechMusic_20210921_logNormShiftAmp_detection_fixS,2020.1.2,MacIntel,60,,,,,,,,,,,,,,,,,,1,6.02901,,0,0,40,40,17,1,stimuli/stim_20210706_power2amp/equal_lnn_AM1.2Hz_s35_47.m4a,,,,,,,,,,,,
,,,,,,,,,,,,41933,2021-09-23_05h28.07.864,judgeSpeechMusic_20210921_logNormShiftAmp_detection_fixS,2020.1.2,MacIntel,60,,,,,,,,,,,,,,,,,,1,5.659525,,0,0,41,41,7,1,stimuli/stim_20210706_power2amp/equal_lnn_AM0.6Hz_s35_1.m4a,,,,,,,,,,,,
,,,,,,,,,,,,41933,2021-09-23_05h28.07.864,judgeSpeechMusic_20210921_logNormShiftAmp_detection_fixS,2020.1.2,MacIntel,60,,,,,,,,,,,,,,,,,,1,5.646045,,0,0,42,42,16,1,stimuli/stim_20210706_power2amp/equal_lnn_AM1.2Hz_s35_2.m4a,,,,,,,,,,,,
,,,,,,,,,,,,41933,2021-09-23_05h28.07.864,judgeSpeechMusic_20210921_logNormShiftAmp_detection_fixS,2020.1.2,MacIntel,60,,,,,,,,,,,,,,,,,,1,5.52369,2,1,0,43,43,6,1,stimuli/stim_20210706_power2amp/equal_lnn_AM0.6Hz_s35_32.m4a,0.497255,,,,,,,,,,,
,,,,,,,,,,,,41933,2021-09-23_05h28.07.864,judgeSpeechMusic_20210921_logNormShiftAmp_detection_fixS,2020.1.2,MacIntel,60,,,,,,,,,,,,,,,,,,1,5.526435,,0,0,44,44,26,1,stimuli/stim_20210706_power2amp/equal_lnn_AM1.2Hz_s35_23.m4a,,,,,,,,,,,,
,,,,,,,,,,,,41933,2021-09-23_05h28.07.864,judgeSpeechMusic_20210921_logNormShiftAmp_detection_fixS,2020.1.2,MacIntel,60,,,,,,,,,,,,,,,,,,1,5.54346,,0,0,45,45,29,1,stimuli/stim_20210706_power2amp/equal_lnn_AM1.2Hz_s35_44.m4a,,,,,,,,,,,,
,,,,,,,,,,,,41933,2021-09-23_05h28.07.864,judgeSpeechMusic_20210921_logNormShiftAmp_detection_fixS,2020.1.2,MacIntel,60,,,,,,,,,,,,,,,,,,1,5.52781,,0,0,46,46,15,1,stimuli/stim_20210706_power2amp/equal_lnn_AM1.2Hz_s35_7.m4a,,,,,,,,,,,,
,,,,,,,,,,,,41933,2021-09-23_05h28.07.864,judgeSpeechMusic_20210921_logNormShiftAmp_detection_fixS,2020.1.2,MacIntel,60,,,,,,,,,,,,,,,,,,1,5.62349,,0,0,47,47,3,1,stimuli/stim_20210706_power2amp/equal_lnn_AM0.6Hz_s35_6.m4a,,,,,,,,,,,,
,,,,,,,,,,,,41933,2021-09-23_05h28.07.864,judgeSpeechMusic_20210921_logNormShiftAmp_detection_fixS,2020.1.2,MacIntel,60,,,,,,,,,,,,,,,,,,1,5.6873,,0,0,48,48,12,1,stimuli/stim_20210706_power2amp/equal_lnn_AM0.6Hz_s35_15.m4a,,,,,,,,,,,,
,,,,,,,,,,,,41933,2021-09-23_05h28.07.864,judgeSpeechMusic_20210921_logNormShiftAmp_detection_fixS,2020.1.2,MacIntel,60,,,,,,,,,,,,,,,,,,2,5.84479,,0,0,49,49,34,1,stimuli/stim_20210706_power2amp/equal_lnn_AM2.4Hz_s35_33.m4a,,,,,,,,,,,,
,,,,,,,,,,,,41933,2021-09-23_05h28.07.864,judgeSpeechMusic_20210921_logNormShiftAmp_detection_fixS,2020.1.2,MacIntel,60,,,,,,,,,,,,,,,,,,2,5.629705,,0,0,50,50,63,1,stimuli/stim_20210706_power2amp/equal_lnn_AM4.2Hz_s35_16.m4a,,,,,,,,,,,,
,,,,,,,,,,,,41933,2021-09-23_05h28.07.864,judgeSpeechMusic_20210921_logNormShiftAmp_detection_fixS,2020.1.2,MacIntel,60,,,,,,,,,,,,,,,,,,2,5.47714,,0,0,51,51,69,1,stimuli/stim_20210706_power2amp/equal_lnn_AM4.2Hz_s35_21.m4a,,,,,,,,,,,,
,,,,,,,,,,,,41933,2021-09-23_05h28.07.864,judgeSpeechMusic_20210921_logNormShiftAmp_detection_fixS,2020.1.2,MacIntel,60,,,,,,,,,,,,,,,,,,2,5.59441,,0,0,52,52,32,1,stimuli/stim_20210706_power2amp/equal_lnn_AM2.4Hz_s35_26.m4a,,,,,,,,,,,,
,,,,,,,,,,,,41933,2021-09-23_05h28.07.864,judgeSpeechMusic_20210921_logNormShiftAmp_detection_fixS,2020.1.2,MacIntel,60,,,,,,,,,,,,,,,,,,2,5.51181,,0,0,53,53,40,1,stimuli/stim_20210706_power2amp/equal_lnn_AM2.4Hz_s35_44.m4a,,,,,,,,,,,,
,,,,,,,,,,,,41933,2021-09-23_05h28.07.864,judgeSpeechMusic_20210921_logNormShiftAmp_detection_fixS,2020.1.2,MacIntel,60,,,,,,,,,,,,,,,,,,2,5.44786,,0,0,54,54,72,1,stimuli/stim_20210706_power2amp/equal_lnn_AM4.2Hz_s35_50.m4a,,,,,,,,,,,,
,,,,,,,,,,,,41933,2021-09-23_05h28.07.864,judgeSpeechMusic_20210921_logNormShiftAmp_detection_fixS,2020.1.2,MacIntel,60,,,,,,,,,,,,,,,,,,2,5.493945,,0,0,55,55,52,1,stimuli/stim_20210706_power2amp/equal_lnn_AM3.6Hz_s35_27.m4a,,,,,,,,,,,,
,,,,,,,,,,,,41933,2021-09-23_05h28.07.864,judgeSpeechMusic_20210921_logNormShiftAmp_detection_fixS,2020.1.2,MacIntel,60,,,,,,,,,,,,,,,,,,2,5.74194,,0,0,56,56,57,1,stimuli/stim_20210706_power2amp/equal_lnn_AM3.6Hz_s35_23.m4a,,,,,,,,,,,,
,,,,,,,,,,,,41933,2021-09-23_05h28.07.864,judgeSpeechMusic_20210921_logNormShiftAmp_detection_fixS,2020.1.2,MacIntel,60,,,,,,,,,,,,,,,,,,1,7.377725,,0,0,57,57,74,1,stimuli/stim_20210706_power2amp/equal_lnn_AM4.2Hz_s35_23.m4a,,,,,,,,,,,,
,,,,,,,,,,,,41933,2021-09-23_05h28.07.864,judgeSpeechMusic_20210921_logNormShiftAmp_detection_fixS,2020.1.2,MacIntel,60,,,,,,,,,,,,,,,,,,1,6.039365,,0,0,58,58,27,1,stimuli/stim_20210706_power2amp/equal_lnn_AM1.2Hz_s35_14.m4a,,,,,,,,,,,,
,,,,,,,,,,,,41933,2021-09-23_05h28.07.864,judgeSpeechMusic_20210921_logNormShiftAmp_detection_fixS,2020.1.2,MacIntel,60,,,,,,,,,,,,,,,,,,2,5.91187,,0,0,59,59,44,1,stimuli/stim_20210706_power2amp/equal_lnn_AM2.4Hz_s35_25.m4a,,,,,,,,,,,,
,,,,,,,,,,,,41933,2021-09-23_05h28.07.864,judgeSpeechMusic_20210921_logNormShiftAmp_detection_fixS,2020.1.2,MacIntel,60,,,,,,,,,,,,,,,,,,2,5.828655,,0,0,60,60,70,1,stimuli/stim_20210706_power2amp/equal_lnn_AM4.2Hz_s35_13.m4a,,,,,,,,,,,,
,,,,,,,,,,,,41933,2021-09-23_05h28.07.864,judgeSpeechMusic_20210921_logNormShiftAmp_detection_fixS,2020.1.2,MacIntel,60,,,,,,,,,,,,,,,,,,1,6.178695,,0,0,61,61,33,1,stimuli/stim_20210706_power2amp/equal_lnn_AM2.4Hz_s35_8.m4a,,,,,,,,,,,,
,,,,,,,,,,,,41933,2021-09-23_05h28.07.864,judgeSpeechMusic_20210921_logNormShiftAmp_detection_fixS,2020.1.2,MacIntel,60,,,,,,,,,,,,,,,,,,2,6.779335,,0,0,62,62,66,1,stimuli/stim_20210706_power2amp/equal_lnn_AM4.2Hz_s35_14.m4a,,,,,,,,,,,,
,,,,,,,,,,,,41933,2021-09-23_05h28.07.864,judgeSpeechMusic_20210921_logNormShiftAmp_detection_fixS,2020.1.2,MacIntel,60,,,,,,,,,,,,,,,,,,2,5.42157,,0,0,63,63,55,1,stimuli/stim_20210706_power2amp/equal_lnn_AM3.6Hz_s35_21.m4a,,,,,,,,,,,,
,,,,,,,,,,,,41933,2021-09-23_05h28.07.864,judgeSpeechMusic_20210921_logNormShiftAmp_detection_fixS,2020.1.2,MacIntel,60,,,,,,,,,,,,,,,,,,2,5.456755,,0,0,64,64,46,1,stimuli/stim_20210706_power2amp/equal_lnn_AM3.6Hz_s35_11.m4a,,,,,,,,,,,,
,,,,,,,,,,,,41933,2021-09-23_05h28.07.864,judgeSpeechMusic_20210921_logNormShiftAmp_detection_fixS,2020.1.2,MacIntel,60,,,,,,,,,,,,,,,,,,2,5.39604,4,1,0,65,65,53,1,stimuli/stim_20210706_power2amp/equal_lnn_AM3.6Hz_s35_46.m4a,1.09014,,,,,,,,,,,
,,,,,,,,,,,,41933,2021-09-23_05h28.07.864,judgeSpeechMusic_20210921_logNormShiftAmp_detection_fixS,2020.1.2,MacIntel,60,,,,,,,,,,,,,,,,,,2,5.608595,,0,0,66,66,62,1,stimuli/stim_20210706_power2amp/equal_lnn_AM4.2Hz_s35_19.m4a,,,,,,,,,,,,
,,,,,,,,,,,,41933,2021-09-23_05h28.07.864,judgeSpeechMusic_20210921_logNormShiftAmp_detection_fixS,2020.1.2,MacIntel,60,,,,,,,,,,,,,,,,,,2,5.89541,,0,0,67,67,73,1,stimuli/stim_20210706_power2amp/equal_lnn_AM4.2Hz_s35_27.m4a,,,,,,,,,,,,
,,,,,,,,,,,,41933,2021-09-23_05h28.07.864,judgeSpeechMusic_20210921_logNormShiftAmp_detection_fixS,2020.1.2,MacIntel,60,,,,,,,,,,,,,,,,,,2,5.571815,,0,0,68,68,61,1,stimuli/stim_20210706_power2amp/equal_lnn_AM4.2Hz_s35_18.m4a,,,,,,,,,,,,
,,,,,,,,,,,,41933,2021-09-23_05h28.07.864,judgeSpeechMusic_20210921_logNormShiftAmp_detection_fixS,2020.1.2,MacIntel,60,,,,,,,,,,,,,,,,,,1,5.70823,,0,0,69,69,38,1,stimuli/stim_20210706_power2amp/equal_lnn_AM2.4Hz_s35_5.m4a,,,,,,,,,,,,
,,,,,,,,,,,,41933,2021-09-23_05h28.07.864,judgeSpeechMusic_20210921_logNormShiftAmp_detection_fixS,2020.1.2,MacIntel,60,,,,,,,,,,,,,,,,,,2,5.661795,,0,0,70,70,71,1,stimuli/stim_20210706_power2amp/equal_lnn_AM4.2Hz_s35_40.m4a,,,,,,,,,,,,
,,,,,,,,,,,,41933,2021-09-23_05h28.07.864,judgeSpeechMusic_20210921_logNormShiftAmp_detection_fixS,2020.1.2,MacIntel,60,,,,,,,,,,,,,,,,,,1,5.80595,,0,0,71,71,67,1,stimuli/stim_20210706_power2amp/equal_lnn_AM4.2Hz_s35_30.m4a,,,,,,,,,,,,
,,,,,,,,,,,,41933,2021-09-23_05h28.07.864,judgeSpeechMusic_20210921_logNormShiftAmp_detection_fixS,2020.1.2,MacIntel,60,,,,,,,,,,,,,,,,,,1,5.63864,,0,0,72,72,28,1,stimuli/stim_20210706_power2amp/equal_lnn_AM1.2Hz_s35_25.m4a,,,,,,,,,,,,
,,,,,,,,,,,,41933,2021-09-23_05h28.07.864,judgeSpeechMusic_20210921_logNormShiftAmp_detection_fixS,2020.1.2,MacIntel,60,,,,,,,,,,,,,,,,,,2,6.009825,,0,0,73,73,58,1,stimuli/stim_20210706_power2amp/equal_lnn_AM3.6Hz_s35_42.m4a,,,,,,,,,,,,
,,,,,,,,,,,,41933,2021-09-23_05h28.07.864,judgeSpeechMusic_20210921_logNormShiftAmp_detection_fixS,2020.1.2,MacIntel,60,,,,,,,,,,,,,,,,,,1,7.62156,,0,0,74,74,45,1,stimuli/stim_20210706_power2amp/equal_lnn_AM3.6Hz_s35_47.m4a,,,,,,,,,,,,
,,,,,,,,,,,,41933,2021-09-23_05h28.07.864,judgeSpeechMusic_20210921_logNormShiftAmp_detection_fixS,2020.1.2,MacIntel,60,,,,,,,,,,,,,,,,,,,,,,,,,,,,,space,0.713695,0,1,1,1,1,SPEECH,stimuli/SPEECH.jpg,,
,,,,,,,,,,,,41933,2021-09-23_05h28.07.864,judgeSpeechMusic_20210921_logNormShiftAmp_detection_fixS,2020.1.2,MacIntel,60,,,,,,0,0,0,0,1,1,stimuli/stim_20210706_power2amp/equal_lnn_AM_training1.8Hz_s35.m4a,,,,,,,,,,,,,,,,,,,,,,,,,,,
,,,,,,,,,,,,41933,2021-09-23_05h28.07.864,judgeSpeechMusic_20210921_logNormShiftAmp_detection_fixS,2020.1.2,MacIntel,60,,,,,,,,,,,,,,space,1.318705,space,0.56218,2,5.99068,,0,0,0,0,45,1,stimuli/stim_20210706_power2amp/equal_lnn_AM3.6Hz_s35_47.m4a,,,,,,,,,,,,
,,,,,,,,,,,,41933,2021-09-23_05h28.07.864,judgeSpeechMusic_20210921_logNormShiftAmp_detection_fixS,2020.1.2,MacIntel,60,,,,,,,,,,,,,,,,,,1,5.871985,,0,0,1,1,1,1,stimuli/stim_20210706_power2amp/equal_lnn_AM0.6Hz_s35_17.m4a,,,,,,,,,,,,
,,,,,,,,,,,,41933,2021-09-23_05h28.07.864,judgeSpeechMusic_20210921_logNormShiftAmp_detection_fixS,2020.1.2,MacIntel,60,,,,,,,,,,,,,,,,,,2,5.62782,,0,0,2,2,58,1,stimuli/stim_20210706_power2amp/equal_lnn_AM3.6Hz_s35_42.m4a,,,,,,,,,,,,
,,,,,,,,,,,,41933,2021-09-23_05h28.07.864,judgeSpeechMusic_20210921_logNormShiftAmp_detection_fixS,2020.1.2,MacIntel,60,,,,,,,,,,,,,,,,,,2,5.877025,,0,0,3,3,59,1,stimuli/stim_20210706_power2amp/equal_lnn_AM3.6Hz_s35_37.m4a,,,,,,,,,,,,
,,,,,,,,,,,,41933,2021-09-23_05h28.07.864,judgeSpeechMusic_20210921_logNormShiftAmp_detection_fixS,2020.1.2,MacIntel,60,,,,,,,,,,,,,,,,,,2,5.68921,,0,0,4,4,62,1,stimuli/stim_20210706_power2amp/equal_lnn_AM4.2Hz_s35_19.m4a,,,,,,,,,,,,
,,,,,,,,,,,,41933,2021-09-23_05h28.07.864,judgeSpeechMusic_20210921_logNormShiftAmp_detection_fixS,2020.1.2,MacIntel,60,,,,,,,,,,,,,,,,,,1,6.005155,,0,0,5,5,15,1,stimuli/stim_20210706_power2amp/equal_lnn_AM1.2Hz_s35_7.m4a,,,,,,,,,,,,
,,,,,,,,,,,,41933,2021-09-23_05h28.07.864,judgeSpeechMusic_20210921_logNormShiftAmp_detection_fixS,2020.1.2,MacIntel,60,,,,,,,,,,,,,,,,,,2,5.75678,,0,0,6,6,53,1,stimuli/stim_20210706_power2amp/equal_lnn_AM3.6Hz_s35_46.m4a,,,,,,,,,,,,
,,,,,,,,,,,,41933,2021-09-23_05h28.07.864,judgeSpeechMusic_20210921_logNormShiftAmp_detection_fixS,2020.1.2,MacIntel,60,,,,,,,,,,,,,,,,,,1,6.6058,,0,0,7,7,39,1,stimuli/stim_20210706_power2amp/equal_lnn_AM2.4Hz_s35_41.m4a,,,,,,,,,,,,
,,,,,,,,,,,,41933,2021-09-23_05h28.07.864,judgeSpeechMusic_20210921_logNormShiftAmp_detection_fixS,2020.1.2,MacIntel,60,,,,,,,,,,,,,,,,,,2,5.698665,,0,0,8,8,61,1,stimuli/stim_20210706_power2amp/equal_lnn_AM4.2Hz_s35_18.m4a,,,,,,,,,,,,
,,,,,,,,,,,,41933,2021-09-23_05h28.07.864,judgeSpeechMusic_20210921_logNormShiftAmp_detection_fixS,2020.1.2,MacIntel,60,,,,,,,,,,,,,,,,,,1,6.69291,,0,0,9,9,22,1,stimuli/stim_20210706_power2amp/equal_lnn_AM1.2Hz_s35_16.m4a,,,,,,,,,,,,
,,,,,,,,,,,,41933,2021-09-23_05h28.07.864,judgeSpeechMusic_20210921_logNormShiftAmp_detection_fixS,2020.1.2,MacIntel,60,,,,,,,,,,,,,,,,,,2,5.58861,,0,0,10,10,42,1,stimuli/stim_20210706_power2amp/equal_lnn_AM2.4Hz_s35_2.m4a,,,,,,,,,,,,
,,,,,,,,,,,,41933,2021-09-23_05h28.07.864,judgeSpeechMusic_20210921_logNormShiftAmp_detection_fixS,2020.1.2,MacIntel,60,,,,,,,,,,,,,,,,,,2,5.508815,,0,0,11,11,69,1,stimuli/stim_20210706_power2amp/equal_lnn_AM4.2Hz_s35_21.m4a,,,,,,,,,,,,
,,,,,,,,,,,,41933,2021-09-23_05h28.07.864,judgeSpeechMusic_20210921_logNormShiftAmp_detection_fixS,2020.1.2,MacIntel,60,,,,,,,,,,,,,,,,,,2,6.24345,,0,0,12,12,41,1,stimuli/stim_20210706_power2amp/equal_lnn_AM2.4Hz_s35_30.m4a,,,,,,,,,,,,
,,,,,,,,,,,,41933,2021-09-23_05h28.07.864,judgeSpeechMusic_20210921_logNormShiftAmp_detection_fixS,2020.1.2,MacIntel,60,,,,,,,,,,,,,,,,,,2,5.62802,,0,0,13,13,46,1,stimuli/stim_20210706_power2amp/equal_lnn_AM3.6Hz_s35_11.m4a,,,,,,,,,,,,
,,,,,,,,,,,,41933,2021-09-23_05h28.07.864,judgeSpeechMusic_20210921_logNormShiftAmp_detection_fixS,2020.1.2,MacIntel,60,,,,,,,,,,,,,,,,,,2,5.587375,,0,0,14,14,72,1,stimuli/stim_20210706_power2amp/equal_lnn_AM4.2Hz_s35_50.m4a,,,,,,,,,,,,
,,,,,,,,,,,,41933,2021-09-23_05h28.07.864,judgeSpeechMusic_20210921_logNormShiftAmp_detection_fixS,2020.1.2,MacIntel,60,,,,,,,,,,,,,,,,,,1,5.7949,,0,0,15,15,16,1,stimuli/stim_20210706_power2amp/equal_lnn_AM1.2Hz_s35_2.m4a,,,,,,,,,,,,
,,,,,,,,,,,,41933,2021-09-23_05h28.07.864,judgeSpeechMusic_20210921_logNormShiftAmp_detection_fixS,2020.1.2,MacIntel,60,,,,,,,,,,,,,,,,,,1,5.562635,,0,0,16,16,48,1,stimuli/stim_20210706_power2amp/equal_lnn_AM3.6Hz_s35_4.m4a,,,,,,,,,,,,
,,,,,,,,,,,,41933,2021-09-23_05h28.07.864,judgeSpeechMusic_20210921_logNormShiftAmp_detection_fixS,2020.1.2,MacIntel,60,,,,,,,,,,,,,,,,,,2,5.630005,,0,0,17,17,54,1,stimuli/stim_20210706_power2amp/equal_lnn_AM3.6Hz_s35_45.m4a,,,,,,,,,,,,
,,,,,,,,,,,,41933,2021-09-23_05h28.07.864,judgeSpeechMusic_20210921_logNormShiftAmp_detection_fixS,2020.1.2,MacIntel,60,,,,,,,,,,,,,,,,,,2,5.67956,,0,0,18,18,60,1,stimuli/stim_20210706_power2amp/equal_lnn_AM4.2Hz_s35_35.m4a,,,,,,,,,,,,
,,,,,,,,,,,,41933,2021-09-23_05h28.07.864,judgeSpeechMusic_20210921_logNormShiftAmp_detection_fixS,2020.1.2,MacIntel,60,,,,,,,,,,,,,,,,,,1,5.88984,,0,0,19,19,17,1,stimuli/stim_20210706_power2amp/equal_lnn_AM1.2Hz_s35_47.m4a,,,,,,,,,,,,
,,,,,,,,,,,,41933,2021-09-23_05h28.07.864,judgeSpeechMusic_20210921_logNormShiftAmp_detection_fixS,2020.1.2,MacIntel,60,,,,,,,,,,,,,,,,,,1,5.51153,,0,0,20,20,11,1,stimuli/stim_20210706_power2amp/equal_lnn_AM0.6Hz_s35_14.m4a,,,,,,,,,,,,
,,,,,,,,,,,,41933,2021-09-23_05h28.07.864,judgeSpeechMusic_20210921_logNormShiftAmp_detection_fixS,2020.1.2,MacIntel,60,,,,,,,,,,,,,,,,,,1,7.82698,1,1,0,21,21,43,1,stimuli/stim_20210706_power2amp/equal_lnn_AM2.4Hz_s35_19.m4a,1.078075,,,,,,,,,,,
,,,,,,,,,,,,41933,2021-09-23_05h28.07.864,judgeSpeechMusic_20210921_logNormShiftAmp_detection_fixS,2020.1.2,MacIntel,60,,,,,,,,,,,,,,,,,,2,5.805045,,0,0,22,22,63,1,stimuli/stim_20210706_power2amp/equal_lnn_AM4.2Hz_s35_16.m4a,,,,,,,,,,,,
,,,,,,,,,,,,41933,2021-09-23_05h28.07.864,judgeSpeechMusic_20210921_logNormShiftAmp_detection_fixS,2020.1.2,MacIntel,60,,,,,,,,,,,,,,,,,,1,5.66175,,0,0,23,23,38,1,stimuli/stim_20210706_power2amp/equal_lnn_AM2.4Hz_s35_5.m4a,,,,,,,,,,,,
,,,,,,,,,,,,41933,2021-09-23_05h28.07.864,judgeSpeechMusic_20210921_logNormShiftAmp_detection_fixS,2020.1.2,MacIntel,60,,,,,,,,,,,,,,,,,,2,5.643385,,0,0,24,24,52,1,stimuli/stim_20210706_power2amp/equal_lnn_AM3.6Hz_s35_27.m4a,,,,,,,,,,,,
,,,,,,,,,,,,41933,2021-09-23_05h28.07.864,judgeSpeechMusic_20210921_logNormShiftAmp_detection_fixS,2020.1.2,MacIntel,60,,,,,,,,,,,,,,,,,,1,6.24484,,0,0,25,25,9,1,stimuli/stim_20210706_power2amp/equal_lnn_AM0.6Hz_s35_28.m4a,,,,,,,,,,,,
,,,,,,,,,,,,41933,2021-09-23_05h28.07.864,judgeSpeechMusic_20210921_logNormShiftAmp_detection_fixS,2020.1.2,MacIntel,60,,,,,,,,,,,,,,,,,,1,5.679605,,0,0,26,26,23,1,stimuli/stim_20210706_power2amp/equal_lnn_AM1.2Hz_s35_28.m4a,,,,,,,,,,,,
,,,,,,,,,,,,41933,2021-09-23_05h28.07.864,judgeSpeechMusic_20210921_logNormShiftAmp_detection_fixS,2020.1.2,MacIntel,60,,,,,,,,,,,,,,,,,,2,6.405175,,0,0,27,27,67,1,stimuli/stim_20210706_power2amp/equal_lnn_AM4.2Hz_s35_30.m4a,,,,,,,,,,,,
,,,,,,,,,,,,41933,2021-09-23_05h28.07.864,judgeSpeechMusic_20210921_logNormShiftAmp_detection_fixS,2020.1.2,MacIntel,60,,,,,,,,,,,,,,,,,,2,5.838595,,0,0,28,28,73,1,stimuli/stim_20210706_power2amp/equal_lnn_AM4.2Hz_s35_27.m4a,,,,,,,,,,,,
,,,,,,,,,,,,41933,2021-09-23_05h28.07.864,judgeSpeechMusic_20210921_logNormShiftAmp_detection_fixS,2020.1.2,MacIntel,60,,,,,,,,,,,,,,,,,,1,5.641105,,0,0,29,29,12,1,stimuli/stim_20210706_power2amp/equal_lnn_AM0.6Hz_s35_15.m4a,,,,,,,,,,,,
,,,,,,,,,,,,41933,2021-09-23_05h28.07.864,judgeSpeechMusic_20210921_logNormShiftAmp_detection_fixS,2020.1.2,MacIntel,60,,,,,,,,,,,,,,,,,,1,7.04431,,0,0,30,30,6,1,stimuli/stim_20210706_power2amp/equal_lnn_AM0.6Hz_s35_32.m4a,,,,,,,,,,,,
,,,,,,,,,,,,41933,2021-09-23_05h28.07.864,judgeSpeechMusic_20210921_logNormShiftAmp_detection_fixS,2020.1.2,MacIntel,60,,,,,,,,,,,,,,,,,,2,5.676395,,0,0,31,31,49,1,stimuli/stim_20210706_power2amp/equal_lnn_AM3.6Hz_s35_3.m4a,,,,,,,,,,,,
,,,,,,,,,,,,41933,2021-09-23_05h28.07.864,judgeSpeechMusic_20210921_logNormShiftAmp_detection_fixS,2020.1.2,MacIntel,60,,,,,,,,,,,,,,,,,,1,5.613205,,0,0,32,32,21,1,stimuli/stim_20210706_power2amp/equal_lnn_AM1.2Hz_s35_39.m4a,,,,,,,,,,,,
,,,,,,,,,,,,41933,2021-09-23_05h28.07.864,judgeSpeechMusic_20210921_logNormShiftAmp_detection_fixS,2020.1.2,MacIntel,60,,,,,,,,,,,,,,,,,,2,5.676045,,0,0,33,33,68,1,stimuli/stim_20210706_power2amp/equal_lnn_AM4.2Hz_s35_38.m4a,,,,,,,,,,,,
,,,,,,,,,,,,41933,2021-09-23_05h28.07.864,judgeSpeechMusic_20210921_logNormShiftAmp_detection_fixS,2020.1.2,MacIntel,60,,,,,,,,,,,,,,,,,,1,6.14467,,0,0,34,34,7,1,stimuli/stim_20210706_power2amp/equal_lnn_AM0.6Hz_s35_1.m4a,,,,,,,,,,,,
,,,,,,,,,,,,41933,2021-09-23_05h28.07.864,judgeSpeechMusic_20210921_logNormShiftAmp_detection_fixS,2020.1.2,MacIntel,60,,,,,,,,,,,,,,,,,,2,6.226695,,0,0,35,35,66,1,stimuli/stim_20210706_power2amp/equal_lnn_AM4.2Hz_s35_14.m4a,,,,,,,,,,,,
,,,,,,,,,,,,41933,2021-09-23_05h28.07.864,judgeSpeechMusic_20210921_logNormShiftAmp_detection_fixS,2020.1.2,MacIntel,60,,,,,,,,,,,,,,,,,,2,5.72709,,0,0,36,36,36,1,stimuli/stim_20210706_power2amp/equal_lnn_AM2.4Hz_s35_35.m4a,,,,,,,,,,,,
,,,,,,,,,,,,41933,2021-09-23_05h28.07.864,judgeSpeechMusic_20210921_logNormShiftAmp_detection_fixS,2020.1.2,MacIntel,60,,,,,,,,,,,,,,,,,,2,6.15997,,0,0,37,37,55,1,stimuli/stim_20210706_power2amp/equal_lnn_AM3.6Hz_s35_21.m4a,,,,,,,,,,,,
,,,,,,,,,,,,41933,2021-09-23_05h28.07.864,judgeSpeechMusic_20210921_logNormShiftAmp_detection_fixS,2020.1.2,MacIntel,60,,,,,,,,,,,,,,,,,,2,5.663655,,0,0,38,38,57,1,stimuli/stim_20210706_power2amp/equal_lnn_AM3.6Hz_s35_23.m4a,,,,,,,,,,,,
,,,,,,,,,,,,41933,2021-09-23_05h28.07.864,judgeSpeechMusic_20210921_logNormShiftAmp_detection_fixS,2020.1.2,MacIntel,60,,,,,,,,,,,,,,,,,,1,5.72806,,0,0,39,39,0,1,stimuli/stim_20210706_power2amp/equal_lnn_AM0.6Hz_s35_34.m4a,,,,,,,,,,,,
,,,,,,,,,,,,41933,2021-09-23_05h28.07.864,judgeSpeechMusic_20210921_logNormShiftAmp_detection_fixS,2020.1.2,MacIntel,60,,,,,,,,,,,,,,,,,,2,5.812865,,0,0,40,40,47,1,stimuli/stim_20210706_power2amp/equal_lnn_AM3.6Hz_s35_6.m4a,,,,,,,,,,,,
,,,,,,,,,,,,41933,2021-09-23_05h28.07.864,judgeSpeechMusic_20210921_logNormShiftAmp_detection_fixS,2020.1.2,MacIntel,60,,,,,,,,,,,,,,,,,,2,5.57842,,0,0,41,41,65,1,stimuli/stim_20210706_power2amp/equal_lnn_AM4.2Hz_s35_10.m4a,,,,,,,,,,,,
,,,,,,,,,,,,41933,2021-09-23_05h28.07.864,judgeSpeechMusic_20210921_logNormShiftAmp_detection_fixS,2020.1.2,MacIntel,60,,,,,,,,,,,,,,,,,,1,6.192285,,0,0,42,42,20,1,stimuli/stim_20210706_power2amp/equal_lnn_AM1.2Hz_s35_35.m4a,,,,,,,,,,,,
,,,,,,,,,,,,41933,2021-09-23_05h28.07.864,judgeSpeechMusic_20210921_logNormShiftAmp_detection_fixS,2020.1.2,MacIntel,60,,,,,,,,,,,,,,,,,,1,5.639795,4,1,0,43,43,4,1,stimuli/stim_20210706_power2amp/equal_lnn_AM0.6Hz_s35_11.m4a,1.01684,,,,,,,,,,,
,,,,,,,,,,,,41933,2021-09-23_05h28.07.864,judgeSpeechMusic_20210921_logNormShiftAmp_detection_fixS,2020.1.2,MacIntel,60,,,,,,,,,,,,,,,,,,2,6.25821,,0,0,44,44,44,1,stimuli/stim_20210706_power2amp/equal_lnn_AM2.4Hz_s35_25.m4a,,,,,,,,,,,,
,,,,,,,,,,,,41933,2021-09-23_05h28.07.864,judgeSpeechMusic_20210921_logNormShiftAmp_detection_fixS,2020.1.2,MacIntel,60,,,,,,,,,,,,,,,,,,1,6.73117,,0,0,45,45,27,1,stimuli/stim_20210706_power2amp/equal_lnn_AM1.2Hz_s35_14.m4a,,,,,,,,,,,,
,,,,,,,,,,,,41933,2021-09-23_05h28.07.864,judgeSpeechMusic_20210921_logNormShiftAmp_detection_fixS,2020.1.2,MacIntel,60,,,,,,,,,,,,,,,,,,2,6.70922,,0,0,46,46,34,1,stimuli/stim_20210706_power2amp/equal_lnn_AM2.4Hz_s35_33.m4a,,,,,,,,,,,,
,,,,,,,,,,,,41933,2021-09-23_05h28.07.864,judgeSpeechMusic_20210921_logNormShiftAmp_detection_fixS,2020.1.2,MacIntel,60,,,,,,,,,,,,,,,,,,2,7.641795,,0,0,47,47,74,1,stimuli/stim_20210706_power2amp/equal_lnn_AM4.2Hz_s35_23.m4a,,,,,,,,,,,,
,,,,,,,,,,,,41933,2021-09-23_05h28.07.864,judgeSpeechMusic_20210921_logNormShiftAmp_detection_fixS,2020.1.2,MacIntel,60,,,,,,,,,,,,,,,,,,2,5.52369,,0,0,48,48,56,1,stimuli/stim_20210706_power2amp/equal_lnn_AM3.6Hz_s35_8.m4a,,,,,,,,,,,,
,,,,,,,,,,,,41933,2021-09-23_05h28.07.864,judgeSpeechMusic_20210921_logNormShiftAmp_detection_fixS,2020.1.2,MacIntel,60,,,,,,,,,,,,,,,,,,1,5.79473,,0,0,49,49,8,1,stimuli/stim_20210706_power2amp/equal_lnn_AM0.6Hz_s35_13.m4a,,,,,,,,,,,,
,,,,,,,,,,,,41933,2021-09-23_05h28.07.864,judgeSpeechMusic_20210921_logNormShiftAmp_detection_fixS,2020.1.2,MacIntel,60,,,,,,,,,,,,,,,,,,1,5.845065,,0,0,50,50,3,1,stimuli/stim_20210706_power2amp/equal_lnn_AM0.6Hz_s35_6.m4a,,,,,,,,,,,,
,,,,,,,,,,,,41933,2021-09-23_05h28.07.864,judgeSpeechMusic_20210921_logNormShiftAmp_detection_fixS,2020.1.2,MacIntel,60,,,,,,,,,,,,,,,,,,1,5.47354,,0,0,51,51,24,1,stimuli/stim_20210706_power2amp/equal_lnn_AM1.2Hz_s35_36.m4a,,,,,,,,,,,,
,,,,,,,,,,,,41933,2021-09-23_05h28.07.864,judgeSpeechMusic_20210921_logNormShiftAmp_detection_fixS,2020.1.2,MacIntel,60,,,,,,,,,,,,,,,,,,2,6.078675,,0,0,52,52,51,1,stimuli/stim_20210706_power2amp/equal_lnn_AM3.6Hz_s35_39.m4a,,,,,,,,,,,,
,,,,,,,,,,,,41933,2021-09-23_05h28.07.864,judgeSpeechMusic_20210921_logNormShiftAmp_detection_fixS,2020.1.2,MacIntel,60,,,,,,,,,,,,,,,,,,1,6.344295,,0,0,53,53,10,1,stimuli/stim_20210706_power2amp/equal_lnn_AM0.6Hz_s35_18.m4a,,,,,,,,,,,,
,,,,,,,,,,,,41933,2021-09-23_05h28.07.864,judgeSpeechMusic_20210921_logNormShiftAmp_detection_fixS,2020.1.2,MacIntel,60,,,,,,,,,,,,,,,,,,1,6.54105,,0,0,54,54,28,1,stimuli/stim_20210706_power2amp/equal_lnn_AM1.2Hz_s35_25.m4a,,,,,,,,,,,,
,,,,,,,,,,,,41933,2021-09-23_05h28.07.864,judgeSpeechMusic_20210921_logNormShiftAmp_detection_fixS,2020.1.2,MacIntel,60,,,,,,,,,,,,,,,,,,1,5.794375,,0,0,55,55,29,1,stimuli/stim_20210706_power2amp/equal_lnn_AM1.2Hz_s35_44.m4a,,,,,,,,,,,,
,,,,,,,,,,,,41933,2021-09-23_05h28.07.864,judgeSpeechMusic_20210921_logNormShiftAmp_detection_fixS,2020.1.2,MacIntel,60,,,,,,,,,,,,,,,,,,1,5.5813,,0,0,56,56,2,1,stimuli/stim_20210706_power2amp/equal_lnn_AM0.6Hz_s35_38.m4a,,,,,,,,,,,,
,,,,,,,,,,,,41933,2021-09-23_05h28.07.864,judgeSpeechMusic_20210921_logNormShiftAmp_detection_fixS,2020.1.2,MacIntel,60,,,,,,,,,,,,,,,,,,2,6.311135,,0,0,57,57,25,1,stimuli/stim_20210706_power2amp/equal_lnn_AM1.2Hz_s35_38.m4a,,,,,,,,,,,,
,,,,,,,,,,,,41933,2021-09-23_05h28.07.864,judgeSpeechMusic_20210921_logNormShiftAmp_detection_fixS,2020.1.2,MacIntel,60,,,,,,,,,,,,,,,,,,2,5.60812,,0,0,58,58,37,1,stimuli/stim_20210706_power2amp/equal_lnn_AM2.4Hz_s35_23.m4a,,,,,,,,,,,,
,,,,,,,,,,,,41933,2021-09-23_05h28.07.864,judgeSpeechMusic_20210921_logNormShiftAmp_detection_fixS,2020.1.2,MacIntel,60,,,,,,,,,,,,,,,,,,2,5.672675,,0,0,59,59,30,1,stimuli/stim_20210706_power2amp/equal_lnn_AM2.4Hz_s35_9.m4a,,,,,,,,,,,,
,,,,,,,,,,,,41933,2021-09-23_05h28.07.864,judgeSpeechMusic_20210921_logNormShiftAmp_detection_fixS,2020.1.2,MacIntel,60,,,,,,,,,,,,,,,,,,1,6.395445,,0,0,60,60,19,1,stimuli/stim_20210706_power2amp/equal_lnn_AM1.2Hz_s35_11.m4a,,,,,,,,,,,,
,,,,,,,,,,,,41933,2021-09-23_05h28.07.864,judgeSpeechMusic_20210921_logNormShiftAmp_detection_fixS,2020.1.2,MacIntel,60,,,,,,,,,,,,,,,,,,2,6.82602,,0,0,61,61,32,1,stimuli/stim_20210706_power2amp/equal_lnn_AM2.4Hz_s35_26.m4a,,,,,,,,,,,,
,,,,,,,,,,,,41933,2021-09-23_05h28.07.864,judgeSpeechMusic_20210921_logNormShiftAmp_detection_fixS,2020.1.2,MacIntel,60,,,,,,,,,,,,,,,,,,1,5.755505,,0,0,62,62,26,1,stimuli/stim_20210706_power2amp/equal_lnn_AM1.2Hz_s35_23.m4a,,,,,,,,,,,,
,,,,,,,,,,,,41933,2021-09-23_05h28.07.864,judgeSpeechMusic_20210921_logNormShiftAmp_detection_fixS,2020.1.2,MacIntel,60,,,,,,,,,,,,,,,,,,1,5.578845,,0,0,63,63,31,1,stimuli/stim_20210706_power2amp/equal_lnn_AM2.4Hz_s35_48.m4a,,,,,,,,,,,,
,,,,,,,,,,,,41933,2021-09-23_05h28.07.864,judgeSpeechMusic_20210921_logNormShiftAmp_detection_fixS,2020.1.2,MacIntel,60,,,,,,,,,,,,,,,,,,1,5.61186,,0,0,64,64,33,1,stimuli/stim_20210706_power2amp/equal_lnn_AM2.4Hz_s35_8.m4a,,,,,,,,,,,,
,,,,,,,,,,,,41933,2021-09-23_05h28.07.864,judgeSpeechMusic_20210921_logNormShiftAmp_detection_fixS,2020.1.2,MacIntel,60,,,,,,,,,,,,,,,,,,2,5.843065,3,1,0,65,65,40,1,stimuli/stim_20210706_power2amp/equal_lnn_AM2.4Hz_s35_44.m4a,1.26297,,,,,,,,,,,
,,,,,,,,,,,,41933,2021-09-23_05h28.07.864,judgeSpeechMusic_20210921_logNormShiftAmp_detection_fixS,2020.1.2,MacIntel,60,,,,,,,,,,,,,,,,,,2,5.4553,,0,0,66,66,71,1,stimuli/stim_20210706_power2amp/equal_lnn_AM4.2Hz_s35_40.m4a,,,,,,,,,,,,
,,,,,,,,,,,,41933,2021-09-23_05h28.07.864,judgeSpeechMusic_20210921_logNormShiftAmp_detection_fixS,2020.1.2,MacIntel,60,,,,,,,,,,,,,,,,,,2,5.775665,,0,0,67,67,50,1,stimuli/stim_20210706_power2amp/equal_lnn_AM3.6Hz_s35_2.m4a,,,,,,,,,,,,
,,,,,,,,,,,,41933,2021-09-23_05h28.07.864,judgeSpeechMusic_20210921_logNormShiftAmp_detection_fixS,2020.1.2,MacIntel,60,,,,,,,,,,,,,,,,,,1,5.82882,,0,0,68,68,5,1,stimuli/stim_20210706_power2amp/equal_lnn_AM0.6Hz_s35_29.m4a,,,,,,,,,,,,
,,,,,,,,,,,,41933,2021-09-23_05h28.07.864,judgeSpeechMusic_20210921_logNormShiftAmp_detection_fixS,2020.1.2,MacIntel,60,,,,,,,,,,,,,,,,,,1,5.7244,,0,0,69,69,14,1,stimuli/stim_20210706_power2amp/equal_lnn_AM0.6Hz_s35_39.m4a,,,,,,,,,,,,
,,,,,,,,,,,,41933,2021-09-23_05h28.07.864,judgeSpeechMusic_20210921_logNormShiftAmp_detection_fixS,2020.1.2,MacIntel,60,,,,,,,,,,,,,,,,,,1,5.896795,,0,0,70,70,35,1,stimuli/stim_20210706_power2amp/equal_lnn_AM2.4Hz_s35_10.m4a,,,,,,,,,,,,
,,,,,,,,,,,,41933,2021-09-23_05h28.07.864,judgeSpeechMusic_20210921_logNormShiftAmp_detection_fixS,2020.1.2,MacIntel,60,,,,,,,,,,,,,,,,,,2,5.71107,,0,0,71,71,70,1,stimuli/stim_20210706_power2amp/equal_lnn_AM4.2Hz_s35_13.m4a,,,,,,,,,,,,
,,,,,,,,,,,,41933,2021-09-23_05h28.07.864,judgeSpeechMusic_20210921_logNormShiftAmp_detection_fixS,2020.1.2,MacIntel,60,,,,,,,,,,,,,,,,,,1,6.21228,,0,0,72,72,13,1,stimuli/stim_20210706_power2amp/equal_lnn_AM0.6Hz_s35_2.m4a,,,,,,,,,,,,
,,,,,,,,,,,,41933,2021-09-23_05h28.07.864,judgeSpeechMusic_20210921_logNormShiftAmp_detection_fixS,2020.1.2,MacIntel,60,,,,,,,,,,,,,,,,,,2,5.595135,,0,0,73,73,64,1,stimuli/stim_20210706_power2amp/equal_lnn_AM4.2Hz_s35_31.m4a,,,,,,,,,,,,
,,,,,,,,,,,,41933,2021-09-23_05h28.07.864,judgeSpeechMusic_20210921_logNormShiftAmp_detection_fixS,2020.1.2,MacIntel,60,,,,,,,,,,,,,,,,,,1,6.223705,,0,0,74,74,18,1,stimuli/stim_20210706_power2amp/equal_lnn_AM1.2Hz_s35_15.m4a,,,,,,,,,,,,
,,,,,,,,,,,,41933,2021-09-23_05h28.07.864,judgeSpeechMusic_20210921_logNormShiftAmp_detection_fixS,2020.1.2,MacIntel,60,,,,,,,,,,,,,,,,,,,,,,,,,,,,,space,0.77937,1,0,2,0,1,MUSIC,stimuli/MUSIC.jpg,,
,,,,,,,,,,,,41933,2021-09-23_05h28.07.864,judgeSpeechMusic_20210921_logNormShiftAmp_detection_fixS,2020.1.2,MacIntel,60,,,,,,0,0,0,0,2,1,stimuli/stim_20210706_power2amp/equal_lnn_AM_training3Hz_s35.m4a,,,,,,,,,,,,,,,,,,,,,,,,,,,
,,,,,,,,,,,,41933,2021-09-23_05h28.07.864,judgeSpeechMusic_20210921_logNormShiftAmp_detection_fixS,2020.1.2,MacIntel,60,,,,,,,,,,,,,,space,1.148115,space,1.26876,2,6.135235,,0,0,0,0,36,1,stimuli/stim_20210706_power2amp/equal_lnn_AM2.4Hz_s35_35.m4a,,,,,,,,,,,,
,,,,,,,,,,,,41933,2021-09-23_05h28.07.864,judgeSpeechMusic_20210921_logNormShiftAmp_detection_fixS,2020.1.2,MacIntel,60,,,,,,,,,,,,,,,,,,1,5.745665,,0,0,1,1,5,1,stimuli/stim_20210706_power2amp/equal_lnn_AM0.6Hz_s35_29.m4a,,,,,,,,,,,,
,,,,,,,,,,,,41933,2021-09-23_05h28.07.864,judgeSpeechMusic_20210921_logNormShiftAmp_detection_fixS,2020.1.2,MacIntel,60,,,,,,,,,,,,,,,,,,1,6.04068,,0,0,2,2,28,1,stimuli/stim_20210706_power2amp/equal_lnn_AM1.2Hz_s35_25.m4a,,,,,,,,,,,,
,,,,,,,,,,,,41933,2021-09-23_05h28.07.864,judgeSpeechMusic_20210921_logNormShiftAmp_detection_fixS,2020.1.2,MacIntel,60,,,,,,,,,,,,,,,,,,2,6.37941,,0,0,3,3,59,1,stimuli/stim_20210706_power2amp/equal_lnn_AM3.6Hz_s35_37.m4a,,,,,,,,,,,,
,,,,,,,,,,,,41933,2021-09-23_05h28.07.864,judgeSpeechMusic_20210921_logNormShiftAmp_detection_fixS,2020.1.2,MacIntel,60,,,,,,,,,,,,,,,,,,2,5.861465,,0,0,4,4,58,1,stimuli/stim_20210706_power2amp/equal_lnn_AM3.6Hz_s35_42.m4a,,,,,,,,,,,,
,,,,,,,,,,,,41933,2021-09-23_05h28.07.864,judgeSpeechMusic_20210921_logNormShiftAmp_detection_fixS,2020.1.2,MacIntel,60,,,,,,,,,,,,,,,,,,2,7.161625,,0,0,5,5,66,1,stimuli/stim_20210706_power2amp/equal_lnn_AM4.2Hz_s35_14.m4a,,,,,,,,,,,,
,,,,,,,,,,,,41933,2021-09-23_05h28.07.864,judgeSpeechMusic_20210921_logNormShiftAmp_detection_fixS,2020.1.2,MacIntel,60,,,,,,,,,,,,,,,,,,2,6.060855,,0,0,6,6,30,1,stimuli/stim_20210706_power2amp/equal_lnn_AM2.4Hz_s35_9.m4a,,,,,,,,,,,,
,,,,,,,,,,,,41933,2021-09-23_05h28.07.864,judgeSpeechMusic_20210921_logNormShiftAmp_detection_fixS,2020.1.2,MacIntel,60,,,,,,,,,,,,,,,,,,2,6.386855,,0,0,7,7,52,1,stimuli/stim_20210706_power2amp/equal_lnn_AM3.6Hz_s35_27.m4a,,,,,,,,,,,,
,,,,,,,,,,,,41933,2021-09-23_05h28.07.864,judgeSpeechMusic_20210921_logNormShiftAmp_detection_fixS,2020.1.2,MacIntel,60,,,,,,,,,,,,,,,,,,2,6.046215,,0,0,8,8,71,1,stimuli/stim_20210706_power2amp/equal_lnn_AM4.2Hz_s35_40.m4a,,,,,,,,,,,,
,,,,,,,,,,,,41933,2021-09-23_05h28.07.864,judgeSpeechMusic_20210921_logNormShiftAmp_detection_fixS,2020.1.2,MacIntel,60,,,,,,,,,,,,,,,,,,1,7.121925,,0,0,9,9,29,1,stimuli/stim_20210706_power2amp/equal_lnn_AM1.2Hz_s35_44.m4a,,,,,,,,,,,,
,,,,,,,,,,,,41933,2021-09-23_05h28.07.864,judgeSpeechMusic_20210921_logNormShiftAmp_detection_fixS,2020.1.2,MacIntel,60,,,,,,,,,,,,,,,,,,1,6.14562,,0,0,10,10,19,1,stimuli/stim_20210706_power2amp/equal_lnn_AM1.2Hz_s35_11.m4a,,,,,,,,,,,,
,,,,,,,,,,,,41933,2021-09-23_05h28.07.864,judgeSpeechMusic_20210921_logNormShiftAmp_detection_fixS,2020.1.2,MacIntel,60,,,,,,,,,,,,,,,,,,2,6.594425,,0,0,11,11,32,1,stimuli/stim_20210706_power2amp/equal_lnn_AM2.4Hz_s35_26.m4a,,,,,,,,,,,,
,,,,,,,,,,,,41933,2021-09-23_05h28.07.864,judgeSpeechMusic_20210921_logNormShiftAmp_detection_fixS,2020.1.2,MacIntel,60,,,,,,,,,,,,,,,,,,2,6.39479,,0,0,12,12,43,1,stimuli/stim_20210706_power2amp/equal_lnn_AM2.4Hz_s35_19.m4a,,,,,,,,,,,,
,,,,,,,,,,,,41933,2021-09-23_05h28.07.864,judgeSpeechMusic_20210921_logNormShiftAmp_detection_fixS,2020.1.2,MacIntel,60,,,,,,,,,,,,,,,,,,2,5.6123,,0,0,13,13,51,1,stimuli/stim_20210706_power2amp/equal_lnn_AM3.6Hz_s35_39.m4a,,,,,,,,,,,,
,,,,,,,,,,,,41933,2021-09-23_05h28.07.864,judgeSpeechMusic_20210921_logNormShiftAmp_detection_fixS,2020.1.2,MacIntel,60,,,,,,,,,,,,,,,,,,1,6.18944,,0,0,14,14,3,1,stimuli/stim_20210706_power2amp/equal_lnn_AM0.6Hz_s35_6.m4a,,,,,,,,,,,,
,,,,,,,,,,,,41933,2021-09-23_05h28.07.864,judgeSpeechMusic_20210921_logNormShiftAmp_detection_fixS,2020.1.2,MacIntel,60,,,,,,,,,,,,,,,,,,1,5.843455,,0,0,15,15,25,1,stimuli/stim_20210706_power2amp/equal_lnn_AM1.2Hz_s35_38.m4a,,,,,,,,,,,,
,,,,,,,,,,,,41933,2021-09-23_05h28.07.864,judgeSpeechMusic_20210921_logNormShiftAmp_detection_fixS,2020.1.2,MacIntel,60,,,,,,,,,,,,,,,,,,1,5.911905,,0,0,16,16,12,1,stimuli/stim_20210706_power2amp/equal_lnn_AM0.6Hz_s35_15.m4a,,,,,,,,,,,,
,,,,,,,,,,,,41933,2021-09-23_05h28.07.864,judgeSpeechMusic_20210921_logNormShiftAmp_detection_fixS,2020.1.2,MacIntel,60,,,,,,,,,,,,,,,,,,2,6.52821,,0,0,17,17,50,1,stimuli/stim_20210706_power2amp/equal_lnn_AM3.6Hz_s35_2.m4a,,,,,,,,,,,,
,,,,,,,,,,,,41933,2021-09-23_05h28.07.864,judgeSpeechMusic_20210921_logNormShiftAmp_detection_fixS,2020.1.2,MacIntel,60,,,,,,,,,,,,,,,,,,2,5.87827,,0,0,18,18,65,1,stimuli/stim_20210706_power2amp/equal_lnn_AM4.2Hz_s35_10.m4a,,,,,,,,,,,,
,,,,,,,,,,,,41933,2021-09-23_05h28.07.864,judgeSpeechMusic_20210921_logNormShiftAmp_detection_fixS,2020.1.2,MacIntel,60,,,,,,,,,,,,,,,,,,1,5.89466,,0,0,19,19,4,1,stimuli/stim_20210706_power2amp/equal_lnn_AM0.6Hz_s35_11.m4a,,,,,,,,,,,,
,,,,,,,,,,,,41933,2021-09-23_05h28.07.864,judgeSpeechMusic_20210921_logNormShiftAmp_detection_fixS,2020.1.2,MacIntel,60,,,,,,,,,,,,,,,,,,1,6.57279,,0,0,20,20,8,1,stimuli/stim_20210706_power2amp/equal_lnn_AM0.6Hz_s35_13.m4a,,,,,,,,,,,,
,,,,,,,,,,,,41933,2021-09-23_05h28.07.864,judgeSpeechMusic_20210921_logNormShiftAmp_detection_fixS,2020.1.2,MacIntel,60,,,,,,,,,,,,,,,,,,2,6.428285,2,1,0,21,21,69,1,stimuli/stim_20210706_power2amp/equal_lnn_AM4.2Hz_s35_21.m4a,1.36301,,,,,,,,,,,
,,,,,,,,,,,,41933,2021-09-23_05h28.07.864,judgeSpeechMusic_20210921_logNormShiftAmp_detection_fixS,2020.1.2,MacIntel,60,,,,,,,,,,,,,,,,,,1,9.07677,,0,0,22,22,35,1,stimuli/stim_20210706_power2amp/equal_lnn_AM2.4Hz_s35_10.m4a,,,,,,,,,,,,
,,,,,,,,,,,,41933,2021-09-23_05h28.07.864,judgeSpeechMusic_20210921_logNormShiftAmp_detection_fixS,2020.1.2,MacIntel,60,,,,,,,,,,,,,,,,,,1,5.845625,,0,0,23,23,9,1,stimuli/stim_20210706_power2amp/equal_lnn_AM0.6Hz_s35_28.m4a,,,,,,,,,,,,
,,,,,,,,,,,,41933,2021-09-23_05h28.07.864,judgeSpeechMusic_20210921_logNormShiftAmp_detection_fixS,2020.1.2,MacIntel,60,,,,,,,,,,,,,,,,,,2,6.009705,,0,0,24,24,40,1,stimuli/stim_20210706_power2amp/equal_lnn_AM2.4Hz_s35_44.m4a,,,,,,,,,,,,
,,,,,,,,,,,,41933,2021-09-23_05h28.07.864,judgeSpeechMusic_20210921_logNormShiftAmp_detection_fixS,2020.1.2,MacIntel,60,,,,,,,,,,,,,,,,,,2,5.839585,,0,0,25,25,54,1,stimuli/stim_20210706_power2amp/equal_lnn_AM3.6Hz_s35_45.m4a,,,,,,,,,,,,
,,,,,,,,,,,,41933,2021-09-23_05h28.07.864,judgeSpeechMusic_20210921_logNormShiftAmp_detection_fixS,2020.1.2,MacIntel,60,,,,,,,,,,,,,,,,,,2,7.660105,,0,0,26,26,41,1,stimuli/stim_20210706_power2amp/equal_lnn_AM2.4Hz_s35_30.m4a,,,,,,,,,,,,
,,,,,,,,,,,,41933,2021-09-23_05h28.07.864,judgeSpeechMusic_20210921_logNormShiftAmp_detection_fixS,2020.1.2,MacIntel,60,,,,,,,,,,,,,,,,,,1,6.00645,,0,0,27,27,23,1,stimuli/stim_20210706_power2amp/equal_lnn_AM1.2Hz_s35_28.m4a,,,,,,,,,,,,
,,,,,,,,,,,,41933,2021-09-23_05h28.07.864,judgeSpeechMusic_20210921_logNormShiftAmp_detection_fixS,2020.1.2,MacIntel,60,,,,,,,,,,,,,,,,,,1,5.71241,,0,0,28,28,6,1,stimuli/stim_20210706_power2amp/equal_lnn_AM0.6Hz_s35_32.m4a,,,,,,,,,,,,
,,,,,,,,,,,,41933,2021-09-23_05h28.07.864,judgeSpeechMusic_20210921_logNormShiftAmp_detection_fixS,2020.1.2,MacIntel,60,,,,,,,,,,,,,,,,,,1,5.922815,,0,0,29,29,2,1,stimuli/stim_20210706_power2amp/equal_lnn_AM0.6Hz_s35_38.m4a,,,,,,,,,,,,
,,,,,,,,,,,,41933,2021-09-23_05h28.07.864,judgeSpeechMusic_20210921_logNormShiftAmp_detection_fixS,2020.1.2,MacIntel,60,,,,,,,,,,,,,,,,,,1,6.564835,,0,0,30,30,22,1,stimuli/stim_20210706_power2amp/equal_lnn_AM1.2Hz_s35_16.m4a,,,,,,,,,,,,
,,,,,,,,,,,,41933,2021-09-23_05h28.07.864,judgeSpeechMusic_20210921_logNormShiftAmp_detection_fixS,2020.1.2,MacIntel,60,,,,,,,,,,,,,,,,,,1,5.60946,,0,0,31,31,1,1,stimuli/stim_20210706_power2amp/equal_lnn_AM0.6Hz_s35_17.m4a,,,,,,,,,,,,
,,,,,,,,,,,,41933,2021-09-23_05h28.07.864,judgeSpeechMusic_20210921_logNormShiftAmp_detection_fixS,2020.1.2,MacIntel,60,,,,,,,,,,,,,,,,,,1,5.712725,,0,0,32,32,7,1,stimuli/stim_20210706_power2amp/equal_lnn_AM0.6Hz_s35_1.m4a,,,,,,,,,,,,
,,,,,,,,,,,,41933,2021-09-23_05h28.07.864,judgeSpeechMusic_20210921_logNormShiftAmp_detection_fixS,2020.1.2,MacIntel,60,,,,,,,,,,,,,,,,,,1,5.72147,,0,0,33,33,21,1,stimuli/stim_20210706_power2amp/equal_lnn_AM1.2Hz_s35_39.m4a,,,,,,,,,,,,
,,,,,,,,,,,,41933,2021-09-23_05h28.07.864,judgeSpeechMusic_20210921_logNormShiftAmp_detection_fixS,2020.1.2,MacIntel,60,,,,,,,,,,,,,,,,,,2,5.87139,,0,0,34,34,74,1,stimuli/stim_20210706_power2amp/equal_lnn_AM4.2Hz_s35_23.m4a,,,,,,,,,,,,
,,,,,,,,,,,,41933,2021-09-23_05h28.07.864,judgeSpeechMusic_20210921_logNormShiftAmp_detection_fixS,2020.1.2,MacIntel,60,,,,,,,,,,,,,,,,,,2,6.988215,,0,0,35,35,44,1,stimuli/stim_20210706_power2amp/equal_lnn_AM2.4Hz_s35_25.m4a,,,,,,,,,,,,
,,,,,,,,,,,,41933,2021-09-23_05h28.07.864,judgeSpeechMusic_20210921_logNormShiftAmp_detection_fixS,2020.1.2,MacIntel,60,,,,,,,,,,,,,,,,,,1,6.506225,,0,0,36,36,16,1,stimuli/stim_20210706_power2amp/equal_lnn_AM1.2Hz_s35_2.m4a,,,,,,,,,,,,
,,,,,,,,,,,,41933,2021-09-23_05h28.07.864,judgeSpeechMusic_20210921_logNormShiftAmp_detection_fixS,2020.1.2,MacIntel,60,,,,,,,,,,,,,,,,,,1,6.262,,0,0,37,37,24,1,stimuli/stim_20210706_power2amp/equal_lnn_AM1.2Hz_s35_36.m4a,,,,,,,,,,,,
,,,,,,,,,,,,41933,2021-09-23_05h28.07.864,judgeSpeechMusic_20210921_logNormShiftAmp_detection_fixS,2020.1.2,MacIntel,60,,,,,,,,,,,,,,,,,,1,5.423345,,0,0,38,38,10,1,stimuli/stim_20210706_power2amp/equal_lnn_AM0.6Hz_s35_18.m4a,,,,,,,,,,,,
,,,,,,,,,,,,41933,2021-09-23_05h28.07.864,judgeSpeechMusic_20210921_logNormShiftAmp_detection_fixS,2020.1.2,MacIntel,60,,,,,,,,,,,,,,,,,,1,5.57781,,0,0,39,39,26,1,stimuli/stim_20210706_power2amp/equal_lnn_AM1.2Hz_s35_23.m4a,,,,,,,,,,,,
,,,,,,,,,,,,41933,2021-09-23_05h28.07.864,judgeSpeechMusic_20210921_logNormShiftAmp_detection_fixS,2020.1.2,MacIntel,60,,,,,,,,,,,,,,,,,,1,5.828305,,0,0,40,40,15,1,stimuli/stim_20210706_power2amp/equal_lnn_AM1.2Hz_s35_7.m4a,,,,,,,,,,,,
,,,,,,,,,,,,41933,2021-09-23_05h28.07.864,judgeSpeechMusic_20210921_logNormShiftAmp_detection_fixS,2020.1.2,MacIntel,60,,,,,,,,,,,,,,,,,,2,6.69394,,0,0,41,41,45,1,stimuli/stim_20210706_power2amp/equal_lnn_AM3.6Hz_s35_47.m4a,,,,,,,,,,,,
,,,,,,,,,,,,41933,2021-09-23_05h28.07.864,judgeSpeechMusic_20210921_logNormShiftAmp_detection_fixS,2020.1.2,MacIntel,60,,,,,,,,,,,,,,,,,,2,6.577405,,0,0,42,42,72,1,stimuli/stim_20210706_power2amp/equal_lnn_AM4.2Hz_s35_50.m4a,,,,,,,,,,,,
,,,,,,,,,,,,41933,2021-09-23_05h28.07.864,judgeSpeechMusic_20210921_logNormShiftAmp_detection_fixS,2020.1.2,MacIntel,60,,,,,,,,,,,,,,,,,,2,6.57798,3,1,0,43,43,53,1,stimuli/stim_20210706_power2amp/equal_lnn_AM3.6Hz_s35_46.m4a,1.331385,,,,,,,,,,,
,,,,,,,,,,,,41933,2021-09-23_05h28.07.864,judgeSpeechMusic_20210921_logNormShiftAmp_detection_fixS,2020.1.2,MacIntel,60,,,,,,,,,,,,,,,,,,1,5.760295,,0,0,44,44,20,1,stimuli/stim_20210706_power2amp/equal_lnn_AM1.2Hz_s35_35.m4a,,,,,,,,,,,,
,,,,,,,,,,,,41933,2021-09-23_05h28.07.864,judgeSpeechMusic_20210921_logNormShiftAmp_detection_fixS,2020.1.2,MacIntel,60,,,,,,,,,,,,,,,,,,2,6.444355,,0,0,45,45,63,1,stimuli/stim_20210706_power2amp/equal_lnn_AM4.2Hz_s35_16.m4a,,,,,,,,,,,,
,,,,,,,,,,,,41933,2021-09-23_05h28.07.864,judgeSpeechMusic_20210921_logNormShiftAmp_detection_fixS,2020.1.2,MacIntel,60,,,,,,,,,,,,,,,,,,1,5.73789,,0,0,46,46,31,1,stimuli/stim_20210706_power2amp/equal_lnn_AM2.4Hz_s35_48.m4a,,,,,,,,,,,,
,,,,,,,,,,,,41933,2021-09-23_05h28.07.864,judgeSpeechMusic_20210921_logNormShiftAmp_detection_fixS,2020.1.2,MacIntel,60,,,,,,,,,,,,,,,,,,2,6.261635,,0,0,47,47,55,1,stimuli/stim_20210706_power2amp/equal_lnn_AM3.6Hz_s35_21.m4a,,,,,,,,,,,,
,,,,,,,,,,,,41933,2021-09-23_05h28.07.864,judgeSpeechMusic_20210921_logNormShiftAmp_detection_fixS,2020.1.2,MacIntel,60,,,,,,,,,,,,,,,,,,2,5.70515,,0,0,48,48,49,1,stimuli/stim_20210706_power2amp/equal_lnn_AM3.6Hz_s35_3.m4a,,,,,,,,,,,,
,,,,,,,,,,,,41933,2021-09-23_05h28.07.864,judgeSpeechMusic_20210921_logNormShiftAmp_detection_fixS,2020.1.2,MacIntel,60,,,,,,,,,,,,,,,,,,2,5.8267,,0,0,49,49,56,1,stimuli/stim_20210706_power2amp/equal_lnn_AM3.6Hz_s35_8.m4a,,,,,,,,,,,,
,,,,,,,,,,,,41933,2021-09-23_05h28.07.864,judgeSpeechMusic_20210921_logNormShiftAmp_detection_fixS,2020.1.2,MacIntel,60,,,,,,,,,,,,,,,,,,1,6.2276,,0,0,50,50,13,1,stimuli/stim_20210706_power2amp/equal_lnn_AM0.6Hz_s35_2.m4a,,,,,,,,,,,,
,,,,,,,,,,,,41933,2021-09-23_05h28.07.864,judgeSpeechMusic_20210921_logNormShiftAmp_detection_fixS,2020.1.2,MacIntel,60,,,,,,,,,,,,,,,,,,1,5.872855,,0,0,51,51,27,1,stimuli/stim_20210706_power2amp/equal_lnn_AM1.2Hz_s35_14.m4a,,,,,,,,,,,,
,,,,,,,,,,,,41933,2021-09-23_05h28.07.864,judgeSpeechMusic_20210921_logNormShiftAmp_detection_fixS,2020.1.2,MacIntel,60,,,,,,,,,,,,,,,,,,2,6.724645,,0,0,52,52,61,1,stimuli/stim_20210706_power2amp/equal_lnn_AM4.2Hz_s35_18.m4a,,,,,,,,,,,,
,,,,,,,,,,,,41933,2021-09-23_05h28.07.864,judgeSpeechMusic_20210921_logNormShiftAmp_detection_fixS,2020.1.2,MacIntel,60,,,,,,,,,,,,,,,,,,2,6.44738,,0,0,53,53,68,1,stimuli/stim_20210706_power2amp/equal_lnn_AM4.2Hz_s35_38.m4a,,,,,,,,,,,,
,,,,,,,,,,,,41933,2021-09-23_05h28.07.864,judgeSpeechMusic_20210921_logNormShiftAmp_detection_fixS,2020.1.2,MacIntel,60,,,,,,,,,,,,,,,,,,2,6.296425,,0,0,54,54,67,1,stimuli/stim_20210706_power2amp/equal_lnn_AM4.2Hz_s35_30.m4a,,,,,,,,,,,,
,,,,,,,,,,,,41933,2021-09-23_05h28.07.864,judgeSpeechMusic_20210921_logNormShiftAmp_detection_fixS,2020.1.2,MacIntel,60,,,,,,,,,,,,,,,,,,1,6.822535,,0,0,55,55,39,1,stimuli/stim_20210706_power2amp/equal_lnn_AM2.4Hz_s35_41.m4a,,,,,,,,,,,,
,,,,,,,,,,,,41933,2021-09-23_05h28.07.864,judgeSpeechMusic_20210921_logNormShiftAmp_detection_fixS,2020.1.2,MacIntel,60,,,,,,,,,,,,,,,,,,1,7.78825,,0,0,56,56,46,1,stimuli/stim_20210706_power2amp/equal_lnn_AM3.6Hz_s35_11.m4a,,,,,,,,,,,,
,,,,,,,,,,,,41933,2021-09-23_05h28.07.864,judgeSpeechMusic_20210921_logNormShiftAmp_detection_fixS,2020.1.2,MacIntel,60,,,,,,,,,,,,,,,,,,2,6.47916,,0,0,57,57,42,1,stimuli/stim_20210706_power2amp/equal_lnn_AM2.4Hz_s35_2.m4a,,,,,,,,,,,,
,,,,,,,,,,,,41933,2021-09-23_05h28.07.864,judgeSpeechMusic_20210921_logNormShiftAmp_detection_fixS,2020.1.2,MacIntel,60,,,,,,,,,,,,,,,,,,1,6.09431,,0,0,58,58,17,1,stimuli/stim_20210706_power2amp/equal_lnn_AM1.2Hz_s35_47.m4a,,,,,,,,,,,,
,,,,,,,,,,,,41933,2021-09-23_05h28.07.864,judgeSpeechMusic_20210921_logNormShiftAmp_detection_fixS,2020.1.2,MacIntel,60,,,,,,,,,,,,,,,,,,1,5.89638,,0,0,59,59,34,1,stimuli/stim_20210706_power2amp/equal_lnn_AM2.4Hz_s35_33.m4a,,,,,,,,,,,,
,,,,,,,,,,,,41933,2021-09-23_05h28.07.864,judgeSpeechMusic_20210921_logNormShiftAmp_detection_fixS,2020.1.2,MacIntel,60,,,,,,,,,,,,,,,,,,1,5.86157,,0,0,60,60,14,1,stimuli/stim_20210706_power2amp/equal_lnn_AM0.6Hz_s35_39.m4a,,,,,,,,,,,,
,,,,,,,,,,,,41933,2021-09-23_05h28.07.864,judgeSpeechMusic_20210921_logNormShiftAmp_detection_fixS,2020.1.2,MacIntel,60,,,,,,,,,,,,,,,,,,1,6.073005,,0,0,61,61,18,1,stimuli/stim_20210706_power2amp/equal_lnn_AM1.2Hz_s35_15.m4a,,,,,,,,,,,,
,,,,,,,,,,,,41933,2021-09-23_05h28.07.864,judgeSpeechMusic_20210921_logNormShiftAmp_detection_fixS,2020.1.2,MacIntel,60,,,,,,,,,,,,,,,,,,2,6.393645,,0,0,62,62,37,1,stimuli/stim_20210706_power2amp/equal_lnn_AM2.4Hz_s35_23.m4a,,,,,,,,,,,,
,,,,,,,,,,,,41933,2021-09-23_05h28.07.864,judgeSpeechMusic_20210921_logNormShiftAmp_detection_fixS,2020.1.2,MacIntel,60,,,,,,,,,,,,,,,,,,2,5.62772,,0,0,63,63,62,1,stimuli/stim_20210706_power2amp/equal_lnn_AM4.2Hz_s35_19.m4a,,,,,,,,,,,,
,,,,,,,,,,,,41933,2021-09-23_05h28.07.864,judgeSpeechMusic_20210921_logNormShiftAmp_detection_fixS,2020.1.2,MacIntel,60,,,,,,,,,,,,,,,,,,1,7.173475,,0,0,64,64,38,1,stimuli/stim_20210706_power2amp/equal_lnn_AM2.4Hz_s35_5.m4a,,,,,,,,,,,,
,,,,,,,,,,,,41933,2021-09-23_05h28.07.864,judgeSpeechMusic_20210921_logNormShiftAmp_detection_fixS,2020.1.2,MacIntel,60,,,,,,,,,,,,,,,,,,2,6.24257,4,1,0,65,65,70,1,stimuli/stim_20210706_power2amp/equal_lnn_AM4.2Hz_s35_13.m4a,2.89107,,,,,,,,,,,
,,,,,,,,,,,,41933,2021-09-23_05h28.07.864,judgeSpeechMusic_20210921_logNormShiftAmp_detection_fixS,2020.1.2,MacIntel,60,,,,,,,,,,,,,,,,,,2,5.8091,,0,0,66,66,57,1,stimuli/stim_20210706_power2amp/equal_lnn_AM3.6Hz_s35_23.m4a,,,,,,,,,,,,
,,,,,,,,,,,,41933,2021-09-23_05h28.07.864,judgeSpeechMusic_20210921_logNormShiftAmp_detection_fixS,2020.1.2,MacIntel,60,,,,,,,,,,,,,,,,,,1,6.595135,,0,0,67,67,11,1,stimuli/stim_20210706_power2amp/equal_lnn_AM0.6Hz_s35_14.m4a,,,,,,,,,,,,
,,,,,,,,,,,,41933,2021-09-23_05h28.07.864,judgeSpeechMusic_20210921_logNormShiftAmp_detection_fixS,2020.1.2,MacIntel,60,,,,,,,,,,,,,,,,,,2,5.82267,,0,0,68,68,60,1,stimuli/stim_20210706_power2amp/equal_lnn_AM4.2Hz_s35_35.m4a,,,,,,,,,,,,
,,,,,,,,,,,,41933,2021-09-23_05h28.07.864,judgeSpeechMusic_20210921_logNormShiftAmp_detection_fixS,2020.1.2,MacIntel,60,,,,,,,,,,,,,,,,,,2,5.5967,,0,0,69,69,64,1,stimuli/stim_20210706_power2amp/equal_lnn_AM4.2Hz_s35_31.m4a,,,,,,,,,,,,
,,,,,,,,,,,,41933,2021-09-23_05h28.07.864,judgeSpeechMusic_20210921_logNormShiftAmp_detection_fixS,2020.1.2,MacIntel,60,,,,,,,,,,,,,,,,,,1,5.678425,,0,0,70,70,33,1,stimuli/stim_20210706_power2amp/equal_lnn_AM2.4Hz_s35_8.m4a,,,,,,,,,,,,
,,,,,,,,,,,,41933,2021-09-23_05h28.07.864,judgeSpeechMusic_20210921_logNormShiftAmp_detection_fixS,2020.1.2,MacIntel,60,,,,,,,,,,,,,,,,,,1,5.445055,,0,0,71,71,0,1,stimuli/stim_20210706_power2amp/equal_lnn_AM0.6Hz_s35_34.m4a,,,,,,,,,,,,
,,,,,,,,,,,,41933,2021-09-23_05h28.07.864,judgeSpeechMusic_20210921_logNormShiftAmp_detection_fixS,2020.1.2,MacIntel,60,,,,,,,,,,,,,,,,,,2,5.679335,,0,0,72,72,47,1,stimuli/stim_20210706_power2amp/equal_lnn_AM3.6Hz_s35_6.m4a,,,,,,,,,,,,
,,,,,,,,,,,,41933,2021-09-23_05h28.07.864,judgeSpeechMusic_20210921_logNormShiftAmp_detection_fixS,2020.1.2,MacIntel,60,,,,,,,,,,,,,,,,,,1,5.678835,,0,0,73,73,73,1,stimuli/stim_20210706_power2amp/equal_lnn_AM4.2Hz_s35_27.m4a,,,,,,,,,,,,
,,,,,,,,,,,,41933,2021-09-23_05h28.07.864,judgeSpeechMusic_20210921_logNormShiftAmp_detection_fixS,2020.1.2,MacIntel,60,,,,,,,,,,,,,,,,,,1,5.54362,,0,0,74,74,48,1,stimuli/stim_20210706_power2amp/equal_lnn_AM3.6Hz_s35_4.m4a,,,,,,,,,,,,
,,,,,,,,,,,,41933,2021-09-23_05h28.07.864,judgeSpeechMusic_20210921_logNormShiftAmp_detection_fixS,2020.1.2,MacIntel,60,,,,,,,,,,,,,,,,,,,,,,,,,,,,,,,1,1,3,1,1,SPEECH,stimuli/SPEECH.jpg,,
,,,,,,,,,,,,41933,2021-09-23_05h28.07.864,judgeSpeechMusic_20210921_logNormShiftAmp_detection_fixS,2020.1.2,MacIntel,60,,,,,,,,,,,,,,,,,,,,,,,,,,,,,,,,,,,,,,space,4.724205
