headphoneResponse.keys,headphoneResponse.corr,headphoneResponse.rt,headphoneTrial.thisRepN,headphoneTrial.thisTrialN,headphoneTrial.thisN,headphoneTrial.thisIndex,headphoneTrial.ran,headphone_sound1,headphone_sound2,headphone_sound3,corrAns,participant,date,expName,psychopyVersion,OS,frameRate,checkInstruKey.keys,checkInstruKey.rt,trainSlider.response,trainSlider.rt,beepTrainResponse.keys,beepTrainResponse.corr,trainingTrials.thisRepN,trainingTrials.thisTrialN,trainingTrials.thisN,trainingTrials.thisIndex,trainingTrials.ran,trainAudioFile,beepTrainResponse.rt,readyReal_resp.keys,readyReal_resp.rt,checkInstru2_key.keys,checkInstru2_key.rt,ratingSlider.response,ratingSlider.rt,beepResp.keys,beepResp.corr,expTrials.thisRepN,expTrials.thisTrialN,expTrials.thisN,expTrials.thisIndex,expTrials.ran,audioFile,beepResp.rt,switchBlock_space.keys,switchBlock_space.rt,block.thisRepN,block.thisTrialN,block.thisN,block.thisIndex,block.ran,blockName,blockImage,end_resp.keys,end_resp.rt
3,1,0.7788,0,0,0,0,1,stimuli/screen_antiphase.wav,stimuli/screen_origin.wav,stimuli/screen_quiet.wav,3,41984,2021-09-27_12h38.37.693,judgeSpeechMusic_20210921_logNormShiftAmp_detection_fixS,2020.1.2,MacIntel,60,,,,,,,,,,,,,,,,,,,,,,,,,,,,,,,,,,,,,,,
1,1,0.3699,0,1,1,5,1,stimuli/screen_quiet.wav,stimuli/screen_origin.wav,stimuli/screen_antiphase.wav,1,41984,2021-09-27_12h38.37.693,judgeSpeechMusic_20210921_logNormShiftAmp_detection_fixS,2020.1.2,MacIntel,60,,,,,,,,,,,,,,,,,,,,,,,,,,,,,,,,,,,,,,,
1,1,1.2445,0,2,2,4,1,stimuli/screen_quiet.wav,stimuli/screen_antiphase.wav,stimuli/screen_origin.wav,1,41984,2021-09-27_12h38.37.693,judgeSpeechMusic_20210921_logNormShiftAmp_detection_fixS,2020.1.2,MacIntel,60,,,,,,,,,,,,,,,,,,,,,,,,,,,,,,,,,,,,,,,
2,1,0.7164,0,3,3,1,1,stimuli/screen_antiphase.wav,stimuli/screen_quiet.wav,stimuli/screen_origin.wav,2,41984,2021-09-27_12h38.37.693,judgeSpeechMusic_20210921_logNormShiftAmp_detection_fixS,2020.1.2,MacIntel,60,,,,,,,,,,,,,,,,,,,,,,,,,,,,,,,,,,,,,,,
2,1,0.552,0,4,4,3,1,stimuli/screen_origin.wav,stimuli/screen_quiet.wav,stimuli/screen_antiphase.wav,2,41984,2021-09-27_12h38.37.693,judgeSpeechMusic_20210921_logNormShiftAmp_detection_fixS,2020.1.2,MacIntel,60,,,,,,,,,,,,,,,,,,,,,,,,,,,,,,,,,,,,,,,
3,1,0.5488,0,5,5,2,1,stimuli/screen_origin.wav,stimuli/screen_antiphase.wav,stimuli/screen_quiet.wav,3,41984,2021-09-27_12h38.37.693,judgeSpeechMusic_20210921_logNormShiftAmp_detection_fixS,2020.1.2,MacIntel,60,,,,,,,,,,,,,,,,,,,,,,,,,,,,,,,,,,,,,,,
,,,,,,,,,,,,41984,2021-09-27_12h38.37.693,judgeSpeechMusic_20210921_logNormShiftAmp_detection_fixS,2020.1.2,MacIntel,60,space,0.5364,1,9.1868,,0,0,0,0,3,1,stimuli/stim_20210706_power2amp/equal_lnn_AM_training3.9Hz_s35.m4a,,,,,,,,,,,,,,,,,,,,,,,,,,,
,,,,,,,,,,,,41984,2021-09-27_12h38.37.693,judgeSpeechMusic_20210921_logNormShiftAmp_detection_fixS,2020.1.2,MacIntel,60,,,1,7.2028,,0,0,1,1,2,1,stimuli/stim_20210706_power2amp/equal_lnn_AM_training3Hz_s35.m4a,,,,,,,,,,,,,,,,,,,,,,,,,,,
,,,,,,,,,,,,41984,2021-09-27_12h38.37.693,judgeSpeechMusic_20210921_logNormShiftAmp_detection_fixS,2020.1.2,MacIntel,60,,,1,6.5353,4,1,0,2,2,0,1,stimuli/stim_20210706_power2amp/equal_lnn_AM_training0.9Hz_s35.m4a,1.7127,,,,,,,,,,,,,,,,,,,,,,,,,,
,,,,,,,,,,,,41984,2021-09-27_12h38.37.693,judgeSpeechMusic_20210921_logNormShiftAmp_detection_fixS,2020.1.2,MacIntel,60,,,1,6.0672,,0,0,3,3,1,1,stimuli/stim_20210706_power2amp/equal_lnn_AM_training1.8Hz_s35.m4a,,,,,,,,,,,,,,,,,,,,,,,,,,,
,,,,,,,,,,,,41984,2021-09-27_12h38.37.693,judgeSpeechMusic_20210921_logNormShiftAmp_detection_fixS,2020.1.2,MacIntel,60,,,,,,,,,,,,,,space,3.6987,space,0.608,1,6.2218,,0,0,0,0,38,1,stimuli/stim_20210706_power2amp/equal_lnn_AM2.4Hz_s35_42.m4a,,,,,,,,,,,,
,,,,,,,,,,,,41984,2021-09-27_12h38.37.693,judgeSpeechMusic_20210921_logNormShiftAmp_detection_fixS,2020.1.2,MacIntel,60,,,,,,,,,,,,,,,,,,1,6.0211,,0,0,1,1,11,1,stimuli/stim_20210706_power2amp/equal_lnn_AM0.6Hz_s35_43.m4a,,,,,,,,,,,,
,,,,,,,,,,,,41984,2021-09-27_12h38.37.693,judgeSpeechMusic_20210921_logNormShiftAmp_detection_fixS,2020.1.2,MacIntel,60,,,,,,,,,,,,,,,,,,1,6.2353,,0,0,2,2,46,1,stimuli/stim_20210706_power2amp/equal_lnn_AM3.6Hz_s35_27.m4a,,,,,,,,,,,,
,,,,,,,,,,,,41984,2021-09-27_12h38.37.693,judgeSpeechMusic_20210921_logNormShiftAmp_detection_fixS,2020.1.2,MacIntel,60,,,,,,,,,,,,,,,,,,1,6.1214,,0,0,3,3,14,1,stimuli/stim_20210706_power2amp/equal_lnn_AM0.6Hz_s35_38.m4a,,,,,,,,,,,,
,,,,,,,,,,,,41984,2021-09-27_12h38.37.693,judgeSpeechMusic_20210921_logNormShiftAmp_detection_fixS,2020.1.2,MacIntel,60,,,,,,,,,,,,,,,,,,1,6.3067,,0,0,4,4,67,1,stimuli/stim_20210706_power2amp/equal_lnn_AM4.2Hz_s35_23.m4a,,,,,,,,,,,,
,,,,,,,,,,,,41984,2021-09-27_12h38.37.693,judgeSpeechMusic_20210921_logNormShiftAmp_detection_fixS,2020.1.2,MacIntel,60,,,,,,,,,,,,,,,,,,1,5.9104,,0,0,5,5,16,1,stimuli/stim_20210706_power2amp/equal_lnn_AM1.2Hz_s35_47.m4a,,,,,,,,,,,,
,,,,,,,,,,,,41984,2021-09-27_12h38.37.693,judgeSpeechMusic_20210921_logNormShiftAmp_detection_fixS,2020.1.2,MacIntel,60,,,,,,,,,,,,,,,,,,1,5.7097,,0,0,6,6,54,1,stimuli/stim_20210706_power2amp/equal_lnn_AM3.6Hz_s35_35.m4a,,,,,,,,,,,,
,,,,,,,,,,,,41984,2021-09-27_12h38.37.693,judgeSpeechMusic_20210921_logNormShiftAmp_detection_fixS,2020.1.2,MacIntel,60,,,,,,,,,,,,,,,,,,1,6.269,,0,0,7,7,31,1,stimuli/stim_20210706_power2amp/equal_lnn_AM2.4Hz_s35_29.m4a,,,,,,,,,,,,
,,,,,,,,,,,,41984,2021-09-27_12h38.37.693,judgeSpeechMusic_20210921_logNormShiftAmp_detection_fixS,2020.1.2,MacIntel,60,,,,,,,,,,,,,,,,,,1,5.9252,,0,0,8,8,17,1,stimuli/stim_20210706_power2amp/equal_lnn_AM1.2Hz_s35_43.m4a,,,,,,,,,,,,
,,,,,,,,,,,,41984,2021-09-27_12h38.37.693,judgeSpeechMusic_20210921_logNormShiftAmp_detection_fixS,2020.1.2,MacIntel,60,,,,,,,,,,,,,,,,,,1,5.7098,,0,0,9,9,21,1,stimuli/stim_20210706_power2amp/equal_lnn_AM1.2Hz_s35_10.m4a,,,,,,,,,,,,
,,,,,,,,,,,,41984,2021-09-27_12h38.37.693,judgeSpeechMusic_20210921_logNormShiftAmp_detection_fixS,2020.1.2,MacIntel,60,,,,,,,,,,,,,,,,,,1,6.4867,,0,0,10,10,0,1,stimuli/stim_20210706_power2amp/equal_lnn_AM0.6Hz_s35_25.m4a,,,,,,,,,,,,
,,,,,,,,,,,,41984,2021-09-27_12h38.37.693,judgeSpeechMusic_20210921_logNormShiftAmp_detection_fixS,2020.1.2,MacIntel,60,,,,,,,,,,,,,,,,,,1,6.1874,,0,0,11,11,20,1,stimuli/stim_20210706_power2amp/equal_lnn_AM1.2Hz_s35_11.m4a,,,,,,,,,,,,
,,,,,,,,,,,,41984,2021-09-27_12h38.37.693,judgeSpeechMusic_20210921_logNormShiftAmp_detection_fixS,2020.1.2,MacIntel,60,,,,,,,,,,,,,,,,,,1,5.9353,,0,0,12,12,23,1,stimuli/stim_20210706_power2amp/equal_lnn_AM1.2Hz_s35_9.m4a,,,,,,,,,,,,
,,,,,,,,,,,,41984,2021-09-27_12h38.37.693,judgeSpeechMusic_20210921_logNormShiftAmp_detection_fixS,2020.1.2,MacIntel,60,,,,,,,,,,,,,,,,,,1,6.1302,,0,0,13,13,32,1,stimuli/stim_20210706_power2amp/equal_lnn_AM2.4Hz_s35_28.m4a,,,,,,,,,,,,
,,,,,,,,,,,,41984,2021-09-27_12h38.37.693,judgeSpeechMusic_20210921_logNormShiftAmp_detection_fixS,2020.1.2,MacIntel,60,,,,,,,,,,,,,,,,,,1,5.8181,,0,0,14,14,45,1,stimuli/stim_20210706_power2amp/equal_lnn_AM3.6Hz_s35_38.m4a,,,,,,,,,,,,
,,,,,,,,,,,,41984,2021-09-27_12h38.37.693,judgeSpeechMusic_20210921_logNormShiftAmp_detection_fixS,2020.1.2,MacIntel,60,,,,,,,,,,,,,,,,,,1,5.7034,,0,0,15,15,55,1,stimuli/stim_20210706_power2amp/equal_lnn_AM3.6Hz_s35_8.m4a,,,,,,,,,,,,
,,,,,,,,,,,,41984,2021-09-27_12h38.37.693,judgeSpeechMusic_20210921_logNormShiftAmp_detection_fixS,2020.1.2,MacIntel,60,,,,,,,,,,,,,,,,,,1,5.9349,,0,0,16,16,1,1,stimuli/stim_20210706_power2amp/equal_lnn_AM0.6Hz_s35_31.m4a,,,,,,,,,,,,
,,,,,,,,,,,,41984,2021-09-27_12h38.37.693,judgeSpeechMusic_20210921_logNormShiftAmp_detection_fixS,2020.1.2,MacIntel,60,,,,,,,,,,,,,,,,,,1,5.8569,,0,0,17,17,47,1,stimuli/stim_20210706_power2amp/equal_lnn_AM3.6Hz_s35_24.m4a,,,,,,,,,,,,
,,,,,,,,,,,,41984,2021-09-27_12h38.37.693,judgeSpeechMusic_20210921_logNormShiftAmp_detection_fixS,2020.1.2,MacIntel,60,,,,,,,,,,,,,,,,,,1,5.7975,4,1,0,18,18,69,1,stimuli/stim_20210706_power2amp/equal_lnn_AM4.2Hz_s35_4.m4a,0.8486,,,,,,,,,,,
,,,,,,,,,,,,41984,2021-09-27_12h38.37.693,judgeSpeechMusic_20210921_logNormShiftAmp_detection_fixS,2020.1.2,MacIntel,60,,,,,,,,,,,,,,,,,,1,5.9828,,0,0,19,19,30,1,stimuli/stim_20210706_power2amp/equal_lnn_AM2.4Hz_s35_23.m4a,,,,,,,,,,,,
,,,,,,,,,,,,41984,2021-09-27_12h38.37.693,judgeSpeechMusic_20210921_logNormShiftAmp_detection_fixS,2020.1.2,MacIntel,60,,,,,,,,,,,,,,,,,,1,6.5711,,0,0,20,20,41,1,stimuli/stim_20210706_power2amp/equal_lnn_AM2.4Hz_s35_3.m4a,,,,,,,,,,,,
,,,,,,,,,,,,41984,2021-09-27_12h38.37.693,judgeSpeechMusic_20210921_logNormShiftAmp_detection_fixS,2020.1.2,MacIntel,60,,,,,,,,,,,,,,,,,,1,6.0527,,0,0,21,21,13,1,stimuli/stim_20210706_power2amp/equal_lnn_AM0.6Hz_s35_27.m4a,,,,,,,,,,,,
,,,,,,,,,,,,41984,2021-09-27_12h38.37.693,judgeSpeechMusic_20210921_logNormShiftAmp_detection_fixS,2020.1.2,MacIntel,60,,,,,,,,,,,,,,,,,,1,6.1512,,0,0,22,22,8,1,stimuli/stim_20210706_power2amp/equal_lnn_AM0.6Hz_s35_9.m4a,,,,,,,,,,,,
,,,,,,,,,,,,41984,2021-09-27_12h38.37.693,judgeSpeechMusic_20210921_logNormShiftAmp_detection_fixS,2020.1.2,MacIntel,60,,,,,,,,,,,,,,,,,,1,5.7451,,0,0,23,23,26,1,stimuli/stim_20210706_power2amp/equal_lnn_AM1.2Hz_s35_40.m4a,,,,,,,,,,,,
,,,,,,,,,,,,41984,2021-09-27_12h38.37.693,judgeSpeechMusic_20210921_logNormShiftAmp_detection_fixS,2020.1.2,MacIntel,60,,,,,,,,,,,,,,,,,,1,5.9181,,0,0,24,24,27,1,stimuli/stim_20210706_power2amp/equal_lnn_AM1.2Hz_s35_46.m4a,,,,,,,,,,,,
,,,,,,,,,,,,41984,2021-09-27_12h38.37.693,judgeSpeechMusic_20210921_logNormShiftAmp_detection_fixS,2020.1.2,MacIntel,60,,,,,,,,,,,,,,,,,,1,5.8197,,0,0,25,25,71,1,stimuli/stim_20210706_power2amp/equal_lnn_AM4.2Hz_s35_2.m4a,,,,,,,,,,,,
,,,,,,,,,,,,41984,2021-09-27_12h38.37.693,judgeSpeechMusic_20210921_logNormShiftAmp_detection_fixS,2020.1.2,MacIntel,60,,,,,,,,,,,,,,,,,,1,5.887,,0,0,26,26,36,1,stimuli/stim_20210706_power2amp/equal_lnn_AM2.4Hz_s35_32.m4a,,,,,,,,,,,,
,,,,,,,,,,,,41984,2021-09-27_12h38.37.693,judgeSpeechMusic_20210921_logNormShiftAmp_detection_fixS,2020.1.2,MacIntel,60,,,,,,,,,,,,,,,,,,1,5.7536,,0,0,27,27,29,1,stimuli/stim_20210706_power2amp/equal_lnn_AM1.2Hz_s35_38.m4a,,,,,,,,,,,,
,,,,,,,,,,,,41984,2021-09-27_12h38.37.693,judgeSpeechMusic_20210921_logNormShiftAmp_detection_fixS,2020.1.2,MacIntel,60,,,,,,,,,,,,,,,,,,1,5.9697,,0,0,28,28,63,1,stimuli/stim_20210706_power2amp/equal_lnn_AM4.2Hz_s35_41.m4a,,,,,,,,,,,,
,,,,,,,,,,,,41984,2021-09-27_12h38.37.693,judgeSpeechMusic_20210921_logNormShiftAmp_detection_fixS,2020.1.2,MacIntel,60,,,,,,,,,,,,,,,,,,1,5.7703,,0,0,29,29,59,1,stimuli/stim_20210706_power2amp/equal_lnn_AM3.6Hz_s35_43.m4a,,,,,,,,,,,,
,,,,,,,,,,,,41984,2021-09-27_12h38.37.693,judgeSpeechMusic_20210921_logNormShiftAmp_detection_fixS,2020.1.2,MacIntel,60,,,,,,,,,,,,,,,,,,1,9.7292,,0,0,30,30,40,1,stimuli/stim_20210706_power2amp/equal_lnn_AM2.4Hz_s35_13.m4a,,,,,,,,,,,,
,,,,,,,,,,,,41984,2021-09-27_12h38.37.693,judgeSpeechMusic_20210921_logNormShiftAmp_detection_fixS,2020.1.2,MacIntel,60,,,,,,,,,,,,,,,,,,1,6.846,,0,0,31,31,19,1,stimuli/stim_20210706_power2amp/equal_lnn_AM1.2Hz_s35_4.m4a,,,,,,,,,,,,
,,,,,,,,,,,,41984,2021-09-27_12h38.37.693,judgeSpeechMusic_20210921_logNormShiftAmp_detection_fixS,2020.1.2,MacIntel,60,,,,,,,,,,,,,,,,,,1,6.5502,,0,0,32,32,60,1,stimuli/stim_20210706_power2amp/equal_lnn_AM4.2Hz_s35_24.m4a,,,,,,,,,,,,
,,,,,,,,,,,,41984,2021-09-27_12h38.37.693,judgeSpeechMusic_20210921_logNormShiftAmp_detection_fixS,2020.1.2,MacIntel,60,,,,,,,,,,,,,,,,,,1,10.2229,,0,0,33,33,4,1,stimuli/stim_20210706_power2amp/equal_lnn_AM0.6Hz_s35_4.m4a,,,,,,,,,,,,
,,,,,,,,,,,,41984,2021-09-27_12h38.37.693,judgeSpeechMusic_20210921_logNormShiftAmp_detection_fixS,2020.1.2,MacIntel,60,,,,,,,,,,,,,,,,,,1,12.963,,0,0,34,34,73,1,stimuli/stim_20210706_power2amp/equal_lnn_AM4.2Hz_s35_34.m4a,,,,,,,,,,,,
,,,,,,,,,,,,41984,2021-09-27_12h38.37.693,judgeSpeechMusic_20210921_logNormShiftAmp_detection_fixS,2020.1.2,MacIntel,60,,,,,,,,,,,,,,,,,,1,18.5609,,0,0,35,35,28,1,stimuli/stim_20210706_power2amp/equal_lnn_AM1.2Hz_s35_8.m4a,,,,,,,,,,,,
,,,,,,,,,,,,41984,2021-09-27_12h38.37.693,judgeSpeechMusic_20210921_logNormShiftAmp_detection_fixS,2020.1.2,MacIntel,60,,,,,,,,,,,,,,,,,,1,5.7025,,0,0,36,36,43,1,stimuli/stim_20210706_power2amp/equal_lnn_AM2.4Hz_s35_26.m4a,,,,,,,,,,,,
,,,,,,,,,,,,41984,2021-09-27_12h38.37.693,judgeSpeechMusic_20210921_logNormShiftAmp_detection_fixS,2020.1.2,MacIntel,60,,,,,,,,,,,,,,,,,,1,5.4236,4,1,0,37,37,58,1,stimuli/stim_20210706_power2amp/equal_lnn_AM3.6Hz_s35_21.m4a,1.4763,,,,,,,,,,,
,,,,,,,,,,,,41984,2021-09-27_12h38.37.693,judgeSpeechMusic_20210921_logNormShiftAmp_detection_fixS,2020.1.2,MacIntel,60,,,,,,,,,,,,,,,,,,1,6.2228,,0,0,38,38,22,1,stimuli/stim_20210706_power2amp/equal_lnn_AM1.2Hz_s35_29.m4a,,,,,,,,,,,,
,,,,,,,,,,,,41984,2021-09-27_12h38.37.693,judgeSpeechMusic_20210921_logNormShiftAmp_detection_fixS,2020.1.2,MacIntel,60,,,,,,,,,,,,,,,,,,1,6.2542,,0,0,39,39,9,1,stimuli/stim_20210706_power2amp/equal_lnn_AM0.6Hz_s35_14.m4a,,,,,,,,,,,,
,,,,,,,,,,,,41984,2021-09-27_12h38.37.693,judgeSpeechMusic_20210921_logNormShiftAmp_detection_fixS,2020.1.2,MacIntel,60,,,,,,,,,,,,,,,,,,1,6.7754,,0,0,40,40,66,1,stimuli/stim_20210706_power2amp/equal_lnn_AM4.2Hz_s35_46.m4a,,,,,,,,,,,,
,,,,,,,,,,,,41984,2021-09-27_12h38.37.693,judgeSpeechMusic_20210921_logNormShiftAmp_detection_fixS,2020.1.2,MacIntel,60,,,,,,,,,,,,,,,,,,1,5.9554,,0,0,41,41,33,1,stimuli/stim_20210706_power2amp/equal_lnn_AM2.4Hz_s35_50.m4a,,,,,,,,,,,,
,,,,,,,,,,,,41984,2021-09-27_12h38.37.693,judgeSpeechMusic_20210921_logNormShiftAmp_detection_fixS,2020.1.2,MacIntel,60,,,,,,,,,,,,,,,,,,1,5.6732,,0,0,42,42,56,1,stimuli/stim_20210706_power2amp/equal_lnn_AM3.6Hz_s35_45.m4a,,,,,,,,,,,,
,,,,,,,,,,,,41984,2021-09-27_12h38.37.693,judgeSpeechMusic_20210921_logNormShiftAmp_detection_fixS,2020.1.2,MacIntel,60,,,,,,,,,,,,,,,,,,1,5.7195,,0,0,43,43,42,1,stimuli/stim_20210706_power2amp/equal_lnn_AM2.4Hz_s35_2.m4a,,,,,,,,,,,,
,,,,,,,,,,,,41984,2021-09-27_12h38.37.693,judgeSpeechMusic_20210921_logNormShiftAmp_detection_fixS,2020.1.2,MacIntel,60,,,,,,,,,,,,,,,,,,1,6.7073,,0,0,44,44,7,1,stimuli/stim_20210706_power2amp/equal_lnn_AM0.6Hz_s35_26.m4a,,,,,,,,,,,,
,,,,,,,,,,,,41984,2021-09-27_12h38.37.693,judgeSpeechMusic_20210921_logNormShiftAmp_detection_fixS,2020.1.2,MacIntel,60,,,,,,,,,,,,,,,,,,1,6.2781,,0,0,45,45,68,1,stimuli/stim_20210706_power2amp/equal_lnn_AM4.2Hz_s35_32.m4a,,,,,,,,,,,,
,,,,,,,,,,,,41984,2021-09-27_12h38.37.693,judgeSpeechMusic_20210921_logNormShiftAmp_detection_fixS,2020.1.2,MacIntel,60,,,,,,,,,,,,,,,,,,1,10.7615,,0,0,46,46,61,1,stimuli/stim_20210706_power2amp/equal_lnn_AM4.2Hz_s35_7.m4a,,,,,,,,,,,,
,,,,,,,,,,,,41984,2021-09-27_12h38.37.693,judgeSpeechMusic_20210921_logNormShiftAmp_detection_fixS,2020.1.2,MacIntel,60,,,,,,,,,,,,,,,,,,1,6.1906,,0,0,47,47,53,1,stimuli/stim_20210706_power2amp/equal_lnn_AM3.6Hz_s35_48.m4a,,,,,,,,,,,,
,,,,,,,,,,,,41984,2021-09-27_12h38.37.693,judgeSpeechMusic_20210921_logNormShiftAmp_detection_fixS,2020.1.2,MacIntel,60,,,,,,,,,,,,,,,,,,1,6.0574,,0,0,48,48,6,1,stimuli/stim_20210706_power2amp/equal_lnn_AM0.6Hz_s35_19.m4a,,,,,,,,,,,,
,,,,,,,,,,,,41984,2021-09-27_12h38.37.693,judgeSpeechMusic_20210921_logNormShiftAmp_detection_fixS,2020.1.2,MacIntel,60,,,,,,,,,,,,,,,,,,1,7.4045,,0,0,49,49,65,1,stimuli/stim_20210706_power2amp/equal_lnn_AM4.2Hz_s35_13.m4a,,,,,,,,,,,,
,,,,,,,,,,,,41984,2021-09-27_12h38.37.693,judgeSpeechMusic_20210921_logNormShiftAmp_detection_fixS,2020.1.2,MacIntel,60,,,,,,,,,,,,,,,,,,1,6.4026,,0,0,50,50,51,1,stimuli/stim_20210706_power2amp/equal_lnn_AM3.6Hz_s35_20.m4a,,,,,,,,,,,,
,,,,,,,,,,,,41984,2021-09-27_12h38.37.693,judgeSpeechMusic_20210921_logNormShiftAmp_detection_fixS,2020.1.2,MacIntel,60,,,,,,,,,,,,,,,,,,1,5.7536,,0,0,51,51,5,1,stimuli/stim_20210706_power2amp/equal_lnn_AM0.6Hz_s35_11.m4a,,,,,,,,,,,,
,,,,,,,,,,,,41984,2021-09-27_12h38.37.693,judgeSpeechMusic_20210921_logNormShiftAmp_detection_fixS,2020.1.2,MacIntel,60,,,,,,,,,,,,,,,,,,1,5.6034,,0,0,52,52,39,1,stimuli/stim_20210706_power2amp/equal_lnn_AM2.4Hz_s35_49.m4a,,,,,,,,,,,,
,,,,,,,,,,,,41984,2021-09-27_12h38.37.693,judgeSpeechMusic_20210921_logNormShiftAmp_detection_fixS,2020.1.2,MacIntel,60,,,,,,,,,,,,,,,,,,1,5.9082,,0,0,53,53,48,1,stimuli/stim_20210706_power2amp/equal_lnn_AM3.6Hz_s35_22.m4a,,,,,,,,,,,,
,,,,,,,,,,,,41984,2021-09-27_12h38.37.693,judgeSpeechMusic_20210921_logNormShiftAmp_detection_fixS,2020.1.2,MacIntel,60,,,,,,,,,,,,,,,,,,1,5.925,,0,0,54,54,35,1,stimuli/stim_20210706_power2amp/equal_lnn_AM2.4Hz_s35_40.m4a,,,,,,,,,,,,
,,,,,,,,,,,,41984,2021-09-27_12h38.37.693,judgeSpeechMusic_20210921_logNormShiftAmp_detection_fixS,2020.1.2,MacIntel,60,,,,,,,,,,,,,,,,,,1,5.5976,2,1,0,55,55,15,1,stimuli/stim_20210706_power2amp/equal_lnn_AM1.2Hz_s35_6.m4a,0.847,,,,,,,,,,,
,,,,,,,,,,,,41984,2021-09-27_12h38.37.693,judgeSpeechMusic_20210921_logNormShiftAmp_detection_fixS,2020.1.2,MacIntel,60,,,,,,,,,,,,,,,,,,1,5.7409,,0,0,56,56,25,1,stimuli/stim_20210706_power2amp/equal_lnn_AM1.2Hz_s35_39.m4a,,,,,,,,,,,,
,,,,,,,,,,,,41984,2021-09-27_12h38.37.693,judgeSpeechMusic_20210921_logNormShiftAmp_detection_fixS,2020.1.2,MacIntel,60,,,,,,,,,,,,,,,,,,1,5.8232,,0,0,57,57,74,1,stimuli/stim_20210706_power2amp/equal_lnn_AM4.2Hz_s35_49.m4a,,,,,,,,,,,,
,,,,,,,,,,,,41984,2021-09-27_12h38.37.693,judgeSpeechMusic_20210921_logNormShiftAmp_detection_fixS,2020.1.2,MacIntel,60,,,,,,,,,,,,,,,,,,1,7.0185,,0,0,58,58,34,1,stimuli/stim_20210706_power2amp/equal_lnn_AM2.4Hz_s35_35.m4a,,,,,,,,,,,,
,,,,,,,,,,,,41984,2021-09-27_12h38.37.693,judgeSpeechMusic_20210921_logNormShiftAmp_detection_fixS,2020.1.2,MacIntel,60,,,,,,,,,,,,,,,,,,1,6.0413,,0,0,59,59,2,1,stimuli/stim_20210706_power2amp/equal_lnn_AM0.6Hz_s35_23.m4a,,,,,,,,,,,,
,,,,,,,,,,,,41984,2021-09-27_12h38.37.693,judgeSpeechMusic_20210921_logNormShiftAmp_detection_fixS,2020.1.2,MacIntel,60,,,,,,,,,,,,,,,,,,1,5.7047,,0,0,60,60,37,1,stimuli/stim_20210706_power2amp/equal_lnn_AM2.4Hz_s35_41.m4a,,,,,,,,,,,,
,,,,,,,,,,,,41984,2021-09-27_12h38.37.693,judgeSpeechMusic_20210921_logNormShiftAmp_detection_fixS,2020.1.2,MacIntel,60,,,,,,,,,,,,,,,,,,1,5.6371,,0,0,61,61,72,1,stimuli/stim_20210706_power2amp/equal_lnn_AM4.2Hz_s35_33.m4a,,,,,,,,,,,,
,,,,,,,,,,,,41984,2021-09-27_12h38.37.693,judgeSpeechMusic_20210921_logNormShiftAmp_detection_fixS,2020.1.2,MacIntel,60,,,,,,,,,,,,,,,,,,1,5.7447,,0,0,62,62,49,1,stimuli/stim_20210706_power2amp/equal_lnn_AM3.6Hz_s35_17.m4a,,,,,,,,,,,,
,,,,,,,,,,,,41984,2021-09-27_12h38.37.693,judgeSpeechMusic_20210921_logNormShiftAmp_detection_fixS,2020.1.2,MacIntel,60,,,,,,,,,,,,,,,,,,1,25.6458,,0,0,63,63,24,1,stimuli/stim_20210706_power2amp/equal_lnn_AM1.2Hz_s35_18.m4a,,,,,,,,,,,,
,,,,,,,,,,,,41984,2021-09-27_12h38.37.693,judgeSpeechMusic_20210921_logNormShiftAmp_detection_fixS,2020.1.2,MacIntel,60,,,,,,,,,,,,,,,,,,1,5.9039,,0,0,64,64,44,1,stimuli/stim_20210706_power2amp/equal_lnn_AM2.4Hz_s35_48.m4a,,,,,,,,,,,,
,,,,,,,,,,,,41984,2021-09-27_12h38.37.693,judgeSpeechMusic_20210921_logNormShiftAmp_detection_fixS,2020.1.2,MacIntel,60,,,,,,,,,,,,,,,,,,1,5.6455,,0,0,65,65,70,1,stimuli/stim_20210706_power2amp/equal_lnn_AM4.2Hz_s35_28.m4a,,,,,,,,,,,,
,,,,,,,,,,,,41984,2021-09-27_12h38.37.693,judgeSpeechMusic_20210921_logNormShiftAmp_detection_fixS,2020.1.2,MacIntel,60,,,,,,,,,,,,,,,,,,1,5.7065,,0,0,66,66,62,1,stimuli/stim_20210706_power2amp/equal_lnn_AM4.2Hz_s35_3.m4a,,,,,,,,,,,,
,,,,,,,,,,,,41984,2021-09-27_12h38.37.693,judgeSpeechMusic_20210921_logNormShiftAmp_detection_fixS,2020.1.2,MacIntel,60,,,,,,,,,,,,,,,,,,1,5.925,,0,0,67,67,10,1,stimuli/stim_20210706_power2amp/equal_lnn_AM0.6Hz_s35_2.m4a,,,,,,,,,,,,
,,,,,,,,,,,,41984,2021-09-27_12h38.37.693,judgeSpeechMusic_20210921_logNormShiftAmp_detection_fixS,2020.1.2,MacIntel,60,,,,,,,,,,,,,,,,,,1,7.0208,,0,0,68,68,50,1,stimuli/stim_20210706_power2amp/equal_lnn_AM3.6Hz_s35_13.m4a,,,,,,,,,,,,
,,,,,,,,,,,,41984,2021-09-27_12h38.37.693,judgeSpeechMusic_20210921_logNormShiftAmp_detection_fixS,2020.1.2,MacIntel,60,,,,,,,,,,,,,,,,,,1,6.2722,,0,0,69,69,64,1,stimuli/stim_20210706_power2amp/equal_lnn_AM4.2Hz_s35_25.m4a,,,,,,,,,,,,
,,,,,,,,,,,,41984,2021-09-27_12h38.37.693,judgeSpeechMusic_20210921_logNormShiftAmp_detection_fixS,2020.1.2,MacIntel,60,,,,,,,,,,,,,,,,,,1,5.7638,,0,0,70,70,18,1,stimuli/stim_20210706_power2amp/equal_lnn_AM1.2Hz_s35_45.m4a,,,,,,,,,,,,
,,,,,,,,,,,,41984,2021-09-27_12h38.37.693,judgeSpeechMusic_20210921_logNormShiftAmp_detection_fixS,2020.1.2,MacIntel,60,,,,,,,,,,,,,,,,,,1,5.7198,,0,0,71,71,12,1,stimuli/stim_20210706_power2amp/equal_lnn_AM0.6Hz_s35_16.m4a,,,,,,,,,,,,
,,,,,,,,,,,,41984,2021-09-27_12h38.37.693,judgeSpeechMusic_20210921_logNormShiftAmp_detection_fixS,2020.1.2,MacIntel,60,,,,,,,,,,,,,,,,,,1,5.6339,,0,0,72,72,3,1,stimuli/stim_20210706_power2amp/equal_lnn_AM0.6Hz_s35_5.m4a,,,,,,,,,,,,
,,,,,,,,,,,,41984,2021-09-27_12h38.37.693,judgeSpeechMusic_20210921_logNormShiftAmp_detection_fixS,2020.1.2,MacIntel,60,,,,,,,,,,,,,,,,,,1,5.5257,,0,0,73,73,57,1,stimuli/stim_20210706_power2amp/equal_lnn_AM3.6Hz_s35_44.m4a,,,,,,,,,,,,
,,,,,,,,,,,,41984,2021-09-27_12h38.37.693,judgeSpeechMusic_20210921_logNormShiftAmp_detection_fixS,2020.1.2,MacIntel,60,,,,,,,,,,,,,,,,,,1,5.568,,0,0,74,74,52,1,stimuli/stim_20210706_power2amp/equal_lnn_AM3.6Hz_s35_14.m4a,,,,,,,,,,,,
,,,,,,,,,,,,41984,2021-09-27_12h38.37.693,judgeSpeechMusic_20210921_logNormShiftAmp_detection_fixS,2020.1.2,MacIntel,60,,,,,,,,,,,,,,,,,,,,,,,,,,,,,space,0.9413,0,0,0,1,1,SPEECH,stimuli/SPEECH.jpg,,
,,,,,,,,,,,,41984,2021-09-27_12h38.37.693,judgeSpeechMusic_20210921_logNormShiftAmp_detection_fixS,2020.1.2,MacIntel,60,space,0.5958,1,6.2762,,0,0,0,0,1,1,stimuli/stim_20210706_power2amp/equal_lnn_AM_training1.8Hz_s35.m4a,,,,,,,,,,,,,,,,,,,,,,,,,,,
,,,,,,,,,,,,41984,2021-09-27_12h38.37.693,judgeSpeechMusic_20210921_logNormShiftAmp_detection_fixS,2020.1.2,MacIntel,60,,,1,7.1681,,0,0,1,1,3,1,stimuli/stim_20210706_power2amp/equal_lnn_AM_training3.9Hz_s35.m4a,,,,,,,,,,,,,,,,,,,,,,,,,,,
,,,,,,,,,,,,41984,2021-09-27_12h38.37.693,judgeSpeechMusic_20210921_logNormShiftAmp_detection_fixS,2020.1.2,MacIntel,60,,,1,6.5856,2,1,0,2,2,2,1,stimuli/stim_20210706_power2amp/equal_lnn_AM_training3Hz_s35.m4a,0.6388,,,,,,,,,,,,,,,,,,,,,,,,,,
,,,,,,,,,,,,41984,2021-09-27_12h38.37.693,judgeSpeechMusic_20210921_logNormShiftAmp_detection_fixS,2020.1.2,MacIntel,60,,,1,15.0643,,0,0,3,3,0,1,stimuli/stim_20210706_power2amp/equal_lnn_AM_training0.9Hz_s35.m4a,,,,,,,,,,,,,,,,,,,,,,,,,,,
,,,,,,,,,,,,41984,2021-09-27_12h38.37.693,judgeSpeechMusic_20210921_logNormShiftAmp_detection_fixS,2020.1.2,MacIntel,60,,,,,,,,,,,,,,space,5.1169,space,0.8515,1,6.709,,0,0,0,0,1,1,stimuli/stim_20210706_power2amp/equal_lnn_AM0.6Hz_s35_31.m4a,,,,,,,,,,,,
,,,,,,,,,,,,41984,2021-09-27_12h38.37.693,judgeSpeechMusic_20210921_logNormShiftAmp_detection_fixS,2020.1.2,MacIntel,60,,,,,,,,,,,,,,,,,,1,5.6859,,0,0,1,1,62,1,stimuli/stim_20210706_power2amp/equal_lnn_AM4.2Hz_s35_3.m4a,,,,,,,,,,,,
,,,,,,,,,,,,41984,2021-09-27_12h38.37.693,judgeSpeechMusic_20210921_logNormShiftAmp_detection_fixS,2020.1.2,MacIntel,60,,,,,,,,,,,,,,,,,,1,6.0859,,0,0,2,2,54,1,stimuli/stim_20210706_power2amp/equal_lnn_AM3.6Hz_s35_35.m4a,,,,,,,,,,,,
,,,,,,,,,,,,41984,2021-09-27_12h38.37.693,judgeSpeechMusic_20210921_logNormShiftAmp_detection_fixS,2020.1.2,MacIntel,60,,,,,,,,,,,,,,,,,,1,9.4519,,0,0,3,3,45,1,stimuli/stim_20210706_power2amp/equal_lnn_AM3.6Hz_s35_38.m4a,,,,,,,,,,,,
,,,,,,,,,,,,41984,2021-09-27_12h38.37.693,judgeSpeechMusic_20210921_logNormShiftAmp_detection_fixS,2020.1.2,MacIntel,60,,,,,,,,,,,,,,,,,,1,6.242,,0,0,4,4,11,1,stimuli/stim_20210706_power2amp/equal_lnn_AM0.6Hz_s35_43.m4a,,,,,,,,,,,,
,,,,,,,,,,,,41984,2021-09-27_12h38.37.693,judgeSpeechMusic_20210921_logNormShiftAmp_detection_fixS,2020.1.2,MacIntel,60,,,,,,,,,,,,,,,,,,1,5.658,,0,0,5,5,50,1,stimuli/stim_20210706_power2amp/equal_lnn_AM3.6Hz_s35_13.m4a,,,,,,,,,,,,
,,,,,,,,,,,,41984,2021-09-27_12h38.37.693,judgeSpeechMusic_20210921_logNormShiftAmp_detection_fixS,2020.1.2,MacIntel,60,,,,,,,,,,,,,,,,,,1,5.5977,,0,0,6,6,48,1,stimuli/stim_20210706_power2amp/equal_lnn_AM3.6Hz_s35_22.m4a,,,,,,,,,,,,
,,,,,,,,,,,,41984,2021-09-27_12h38.37.693,judgeSpeechMusic_20210921_logNormShiftAmp_detection_fixS,2020.1.2,MacIntel,60,,,,,,,,,,,,,,,,,,1,5.6051,,0,0,7,7,18,1,stimuli/stim_20210706_power2amp/equal_lnn_AM1.2Hz_s35_45.m4a,,,,,,,,,,,,
,,,,,,,,,,,,41984,2021-09-27_12h38.37.693,judgeSpeechMusic_20210921_logNormShiftAmp_detection_fixS,2020.1.2,MacIntel,60,,,,,,,,,,,,,,,,,,1,6.1181,,0,0,8,8,27,1,stimuli/stim_20210706_power2amp/equal_lnn_AM1.2Hz_s35_46.m4a,,,,,,,,,,,,
,,,,,,,,,,,,41984,2021-09-27_12h38.37.693,judgeSpeechMusic_20210921_logNormShiftAmp_detection_fixS,2020.1.2,MacIntel,60,,,,,,,,,,,,,,,,,,1,5.6861,,0,0,9,9,40,1,stimuli/stim_20210706_power2amp/equal_lnn_AM2.4Hz_s35_13.m4a,,,,,,,,,,,,
,,,,,,,,,,,,41984,2021-09-27_12h38.37.693,judgeSpeechMusic_20210921_logNormShiftAmp_detection_fixS,2020.1.2,MacIntel,60,,,,,,,,,,,,,,,,,,1,5.742,,0,0,10,10,58,1,stimuli/stim_20210706_power2amp/equal_lnn_AM3.6Hz_s35_21.m4a,,,,,,,,,,,,
,,,,,,,,,,,,41984,2021-09-27_12h38.37.693,judgeSpeechMusic_20210921_logNormShiftAmp_detection_fixS,2020.1.2,MacIntel,60,,,,,,,,,,,,,,,,,,1,5.6144,,0,0,11,11,60,1,stimuli/stim_20210706_power2amp/equal_lnn_AM4.2Hz_s35_24.m4a,,,,,,,,,,,,
,,,,,,,,,,,,41984,2021-09-27_12h38.37.693,judgeSpeechMusic_20210921_logNormShiftAmp_detection_fixS,2020.1.2,MacIntel,60,,,,,,,,,,,,,,,,,,1,5.7577,,0,0,12,12,33,1,stimuli/stim_20210706_power2amp/equal_lnn_AM2.4Hz_s35_50.m4a,,,,,,,,,,,,
,,,,,,,,,,,,41984,2021-09-27_12h38.37.693,judgeSpeechMusic_20210921_logNormShiftAmp_detection_fixS,2020.1.2,MacIntel,60,,,,,,,,,,,,,,,,,,1,5.8524,,0,0,13,13,12,1,stimuli/stim_20210706_power2amp/equal_lnn_AM0.6Hz_s35_16.m4a,,,,,,,,,,,,
,,,,,,,,,,,,41984,2021-09-27_12h38.37.693,judgeSpeechMusic_20210921_logNormShiftAmp_detection_fixS,2020.1.2,MacIntel,60,,,,,,,,,,,,,,,,,,1,5.5942,,0,0,14,14,16,1,stimuli/stim_20210706_power2amp/equal_lnn_AM1.2Hz_s35_47.m4a,,,,,,,,,,,,
,,,,,,,,,,,,41984,2021-09-27_12h38.37.693,judgeSpeechMusic_20210921_logNormShiftAmp_detection_fixS,2020.1.2,MacIntel,60,,,,,,,,,,,,,,,,,,1,5.7077,,0,0,15,15,72,1,stimuli/stim_20210706_power2amp/equal_lnn_AM4.2Hz_s35_33.m4a,,,,,,,,,,,,
,,,,,,,,,,,,41984,2021-09-27_12h38.37.693,judgeSpeechMusic_20210921_logNormShiftAmp_detection_fixS,2020.1.2,MacIntel,60,,,,,,,,,,,,,,,,,,1,5.7138,,0,0,16,16,31,1,stimuli/stim_20210706_power2amp/equal_lnn_AM2.4Hz_s35_29.m4a,,,,,,,,,,,,
,,,,,,,,,,,,41984,2021-09-27_12h38.37.693,judgeSpeechMusic_20210921_logNormShiftAmp_detection_fixS,2020.1.2,MacIntel,60,,,,,,,,,,,,,,,,,,1,5.9392,,0,0,17,17,8,1,stimuli/stim_20210706_power2amp/equal_lnn_AM0.6Hz_s35_9.m4a,,,,,,,,,,,,
,,,,,,,,,,,,41984,2021-09-27_12h38.37.693,judgeSpeechMusic_20210921_logNormShiftAmp_detection_fixS,2020.1.2,MacIntel,60,,,,,,,,,,,,,,,,,,1,44.6699,3,1,0,18,18,70,1,stimuli/stim_20210706_power2amp/equal_lnn_AM4.2Hz_s35_28.m4a,0.7906,,,,,,,,,,,
,,,,,,,,,,,,41984,2021-09-27_12h38.37.693,judgeSpeechMusic_20210921_logNormShiftAmp_detection_fixS,2020.1.2,MacIntel,60,,,,,,,,,,,,,,,,,,1,6.1338,,0,0,19,19,20,1,stimuli/stim_20210706_power2amp/equal_lnn_AM1.2Hz_s35_11.m4a,,,,,,,,,,,,
,,,,,,,,,,,,41984,2021-09-27_12h38.37.693,judgeSpeechMusic_20210921_logNormShiftAmp_detection_fixS,2020.1.2,MacIntel,60,,,,,,,,,,,,,,,,,,1,266.0983,,0,0,20,20,22,1,stimuli/stim_20210706_power2amp/equal_lnn_AM1.2Hz_s35_29.m4a,,,,,,,,,,,,
,,,,,,,,,,,,41984,2021-09-27_12h38.37.693,judgeSpeechMusic_20210921_logNormShiftAmp_detection_fixS,2020.1.2,MacIntel,60,,,,,,,,,,,,,,,,,,1,242.5243,,0,0,21,21,67,1,stimuli/stim_20210706_power2amp/equal_lnn_AM4.2Hz_s35_23.m4a,,,,,,,,,,,,
,,,,,,,,,,,,41984,2021-09-27_12h38.37.693,judgeSpeechMusic_20210921_logNormShiftAmp_detection_fixS,2020.1.2,MacIntel,60,,,,,,,,,,,,,,,,,,1,6.4019,,0,0,22,22,49,1,stimuli/stim_20210706_power2amp/equal_lnn_AM3.6Hz_s35_17.m4a,,,,,,,,,,,,
,,,,,,,,,,,,41984,2021-09-27_12h38.37.693,judgeSpeechMusic_20210921_logNormShiftAmp_detection_fixS,2020.1.2,MacIntel,60,,,,,,,,,,,,,,,,,,1,5.6322,,0,0,23,23,32,1,stimuli/stim_20210706_power2amp/equal_lnn_AM2.4Hz_s35_28.m4a,,,,,,,,,,,,
,,,,,,,,,,,,41984,2021-09-27_12h38.37.693,judgeSpeechMusic_20210921_logNormShiftAmp_detection_fixS,2020.1.2,MacIntel,60,,,,,,,,,,,,,,,,,,1,5.6058,,0,0,24,24,42,1,stimuli/stim_20210706_power2amp/equal_lnn_AM2.4Hz_s35_2.m4a,,,,,,,,,,,,
,,,,,,,,,,,,41984,2021-09-27_12h38.37.693,judgeSpeechMusic_20210921_logNormShiftAmp_detection_fixS,2020.1.2,MacIntel,60,,,,,,,,,,,,,,,,,,1,5.6616,,0,0,25,25,47,1,stimuli/stim_20210706_power2amp/equal_lnn_AM3.6Hz_s35_24.m4a,,,,,,,,,,,,
,,,,,,,,,,,,41984,2021-09-27_12h38.37.693,judgeSpeechMusic_20210921_logNormShiftAmp_detection_fixS,2020.1.2,MacIntel,60,,,,,,,,,,,,,,,,,,1,5.405,,0,0,26,26,61,1,stimuli/stim_20210706_power2amp/equal_lnn_AM4.2Hz_s35_7.m4a,,,,,,,,,,,,
,,,,,,,,,,,,41984,2021-09-27_12h38.37.693,judgeSpeechMusic_20210921_logNormShiftAmp_detection_fixS,2020.1.2,MacIntel,60,,,,,,,,,,,,,,,,,,1,6.3417,,0,0,27,27,15,1,stimuli/stim_20210706_power2amp/equal_lnn_AM1.2Hz_s35_6.m4a,,,,,,,,,,,,
,,,,,,,,,,,,41984,2021-09-27_12h38.37.693,judgeSpeechMusic_20210921_logNormShiftAmp_detection_fixS,2020.1.2,MacIntel,60,,,,,,,,,,,,,,,,,,1,5.8449,,0,0,28,28,39,1,stimuli/stim_20210706_power2amp/equal_lnn_AM2.4Hz_s35_49.m4a,,,,,,,,,,,,
,,,,,,,,,,,,41984,2021-09-27_12h38.37.693,judgeSpeechMusic_20210921_logNormShiftAmp_detection_fixS,2020.1.2,MacIntel,60,,,,,,,,,,,,,,,,,,1,5.9901,,0,0,29,29,34,1,stimuli/stim_20210706_power2amp/equal_lnn_AM2.4Hz_s35_35.m4a,,,,,,,,,,,,
,,,,,,,,,,,,41984,2021-09-27_12h38.37.693,judgeSpeechMusic_20210921_logNormShiftAmp_detection_fixS,2020.1.2,MacIntel,60,,,,,,,,,,,,,,,,,,1,5.6522,,0,0,30,30,74,1,stimuli/stim_20210706_power2amp/equal_lnn_AM4.2Hz_s35_49.m4a,,,,,,,,,,,,
,,,,,,,,,,,,41984,2021-09-27_12h38.37.693,judgeSpeechMusic_20210921_logNormShiftAmp_detection_fixS,2020.1.2,MacIntel,60,,,,,,,,,,,,,,,,,,1,5.628,,0,0,31,31,71,1,stimuli/stim_20210706_power2amp/equal_lnn_AM4.2Hz_s35_2.m4a,,,,,,,,,,,,
,,,,,,,,,,,,41984,2021-09-27_12h38.37.693,judgeSpeechMusic_20210921_logNormShiftAmp_detection_fixS,2020.1.2,MacIntel,60,,,,,,,,,,,,,,,,,,1,6.4857,,0,0,32,32,65,1,stimuli/stim_20210706_power2amp/equal_lnn_AM4.2Hz_s35_13.m4a,,,,,,,,,,,,
,,,,,,,,,,,,41984,2021-09-27_12h38.37.693,judgeSpeechMusic_20210921_logNormShiftAmp_detection_fixS,2020.1.2,MacIntel,60,,,,,,,,,,,,,,,,,,1,5.9753,,0,0,33,33,38,1,stimuli/stim_20210706_power2amp/equal_lnn_AM2.4Hz_s35_42.m4a,,,,,,,,,,,,
,,,,,,,,,,,,41984,2021-09-27_12h38.37.693,judgeSpeechMusic_20210921_logNormShiftAmp_detection_fixS,2020.1.2,MacIntel,60,,,,,,,,,,,,,,,,,,1,5.96,,0,0,34,34,30,1,stimuli/stim_20210706_power2amp/equal_lnn_AM2.4Hz_s35_23.m4a,,,,,,,,,,,,
,,,,,,,,,,,,41984,2021-09-27_12h38.37.693,judgeSpeechMusic_20210921_logNormShiftAmp_detection_fixS,2020.1.2,MacIntel,60,,,,,,,,,,,,,,,,,,1,5.8424,,0,0,35,35,26,1,stimuli/stim_20210706_power2amp/equal_lnn_AM1.2Hz_s35_40.m4a,,,,,,,,,,,,
,,,,,,,,,,,,41984,2021-09-27_12h38.37.693,judgeSpeechMusic_20210921_logNormShiftAmp_detection_fixS,2020.1.2,MacIntel,60,,,,,,,,,,,,,,,,,,1,7.6692,,0,0,36,36,17,1,stimuli/stim_20210706_power2amp/equal_lnn_AM1.2Hz_s35_43.m4a,,,,,,,,,,,,
,,,,,,,,,,,,41984,2021-09-27_12h38.37.693,judgeSpeechMusic_20210921_logNormShiftAmp_detection_fixS,2020.1.2,MacIntel,60,,,,,,,,,,,,,,,,,,1,6.3595,3,1,0,37,37,64,1,stimuli/stim_20210706_power2amp/equal_lnn_AM4.2Hz_s35_25.m4a,0.4208,,,,,,,,,,,
,,,,,,,,,,,,41984,2021-09-27_12h38.37.693,judgeSpeechMusic_20210921_logNormShiftAmp_detection_fixS,2020.1.2,MacIntel,60,,,,,,,,,,,,,,,,,,1,5.6918,,0,0,38,38,51,1,stimuli/stim_20210706_power2amp/equal_lnn_AM3.6Hz_s35_20.m4a,,,,,,,,,,,,
,,,,,,,,,,,,41984,2021-09-27_12h38.37.693,judgeSpeechMusic_20210921_logNormShiftAmp_detection_fixS,2020.1.2,MacIntel,60,,,,,,,,,,,,,,,,,,1,20.4377,,0,0,39,39,41,1,stimuli/stim_20210706_power2amp/equal_lnn_AM2.4Hz_s35_3.m4a,,,,,,,,,,,,
,,,,,,,,,,,,41984,2021-09-27_12h38.37.693,judgeSpeechMusic_20210921_logNormShiftAmp_detection_fixS,2020.1.2,MacIntel,60,,,,,,,,,,,,,,,,,,1,5.6262,,0,0,40,40,29,1,stimuli/stim_20210706_power2amp/equal_lnn_AM1.2Hz_s35_38.m4a,,,,,,,,,,,,
,,,,,,,,,,,,41984,2021-09-27_12h38.37.693,judgeSpeechMusic_20210921_logNormShiftAmp_detection_fixS,2020.1.2,MacIntel,60,,,,,,,,,,,,,,,,,,1,6.3136,,0,0,41,41,21,1,stimuli/stim_20210706_power2amp/equal_lnn_AM1.2Hz_s35_10.m4a,,,,,,,,,,,,
,,,,,,,,,,,,41984,2021-09-27_12h38.37.693,judgeSpeechMusic_20210921_logNormShiftAmp_detection_fixS,2020.1.2,MacIntel,60,,,,,,,,,,,,,,,,,,1,6.7514,,0,0,42,42,53,1,stimuli/stim_20210706_power2amp/equal_lnn_AM3.6Hz_s35_48.m4a,,,,,,,,,,,,
,,,,,,,,,,,,41984,2021-09-27_12h38.37.693,judgeSpeechMusic_20210921_logNormShiftAmp_detection_fixS,2020.1.2,MacIntel,60,,,,,,,,,,,,,,,,,,1,7.9617,,0,0,43,43,59,1,stimuli/stim_20210706_power2amp/equal_lnn_AM3.6Hz_s35_43.m4a,,,,,,,,,,,,
,,,,,,,,,,,,41984,2021-09-27_12h38.37.693,judgeSpeechMusic_20210921_logNormShiftAmp_detection_fixS,2020.1.2,MacIntel,60,,,,,,,,,,,,,,,,,,1,5.9025,,0,0,44,44,14,1,stimuli/stim_20210706_power2amp/equal_lnn_AM0.6Hz_s35_38.m4a,,,,,,,,,,,,
,,,,,,,,,,,,41984,2021-09-27_12h38.37.693,judgeSpeechMusic_20210921_logNormShiftAmp_detection_fixS,2020.1.2,MacIntel,60,,,,,,,,,,,,,,,,,,1,5.8056,,0,0,45,45,44,1,stimuli/stim_20210706_power2amp/equal_lnn_AM2.4Hz_s35_48.m4a,,,,,,,,,,,,
,,,,,,,,,,,,41984,2021-09-27_12h38.37.693,judgeSpeechMusic_20210921_logNormShiftAmp_detection_fixS,2020.1.2,MacIntel,60,,,,,,,,,,,,,,,,,,1,7.0713,,0,0,46,46,0,1,stimuli/stim_20210706_power2amp/equal_lnn_AM0.6Hz_s35_25.m4a,,,,,,,,,,,,
,,,,,,,,,,,,41984,2021-09-27_12h38.37.693,judgeSpeechMusic_20210921_logNormShiftAmp_detection_fixS,2020.1.2,MacIntel,60,,,,,,,,,,,,,,,,,,1,5.9191,,0,0,47,47,24,1,stimuli/stim_20210706_power2amp/equal_lnn_AM1.2Hz_s35_18.m4a,,,,,,,,,,,,
,,,,,,,,,,,,41984,2021-09-27_12h38.37.693,judgeSpeechMusic_20210921_logNormShiftAmp_detection_fixS,2020.1.2,MacIntel,60,,,,,,,,,,,,,,,,,,1,6.3453,,0,0,48,48,9,1,stimuli/stim_20210706_power2amp/equal_lnn_AM0.6Hz_s35_14.m4a,,,,,,,,,,,,
,,,,,,,,,,,,41984,2021-09-27_12h38.37.693,judgeSpeechMusic_20210921_logNormShiftAmp_detection_fixS,2020.1.2,MacIntel,60,,,,,,,,,,,,,,,,,,1,6.1308,,0,0,49,49,36,1,stimuli/stim_20210706_power2amp/equal_lnn_AM2.4Hz_s35_32.m4a,,,,,,,,,,,,
,,,,,,,,,,,,41984,2021-09-27_12h38.37.693,judgeSpeechMusic_20210921_logNormShiftAmp_detection_fixS,2020.1.2,MacIntel,60,,,,,,,,,,,,,,,,,,1,5.6259,,0,0,50,50,68,1,stimuli/stim_20210706_power2amp/equal_lnn_AM4.2Hz_s35_32.m4a,,,,,,,,,,,,
,,,,,,,,,,,,41984,2021-09-27_12h38.37.693,judgeSpeechMusic_20210921_logNormShiftAmp_detection_fixS,2020.1.2,MacIntel,60,,,,,,,,,,,,,,,,,,1,5.7598,,0,0,51,51,37,1,stimuli/stim_20210706_power2amp/equal_lnn_AM2.4Hz_s35_41.m4a,,,,,,,,,,,,
,,,,,,,,,,,,41984,2021-09-27_12h38.37.693,judgeSpeechMusic_20210921_logNormShiftAmp_detection_fixS,2020.1.2,MacIntel,60,,,,,,,,,,,,,,,,,,1,5.5796,,0,0,52,52,55,1,stimuli/stim_20210706_power2amp/equal_lnn_AM3.6Hz_s35_8.m4a,,,,,,,,,,,,
,,,,,,,,,,,,41984,2021-09-27_12h38.37.693,judgeSpeechMusic_20210921_logNormShiftAmp_detection_fixS,2020.1.2,MacIntel,60,,,,,,,,,,,,,,,,,,1,5.6682,,0,0,53,53,2,1,stimuli/stim_20210706_power2amp/equal_lnn_AM0.6Hz_s35_23.m4a,,,,,,,,,,,,
,,,,,,,,,,,,41984,2021-09-27_12h38.37.693,judgeSpeechMusic_20210921_logNormShiftAmp_detection_fixS,2020.1.2,MacIntel,60,,,,,,,,,,,,,,,,,,1,6.0341,,0,0,54,54,13,1,stimuli/stim_20210706_power2amp/equal_lnn_AM0.6Hz_s35_27.m4a,,,,,,,,,,,,
,,,,,,,,,,,,41984,2021-09-27_12h38.37.693,judgeSpeechMusic_20210921_logNormShiftAmp_detection_fixS,2020.1.2,MacIntel,60,,,,,,,,,,,,,,,,,,1,5.7792,1,1,0,55,55,35,1,stimuli/stim_20210706_power2amp/equal_lnn_AM2.4Hz_s35_40.m4a,1.024,,,,,,,,,,,
,,,,,,,,,,,,41984,2021-09-27_12h38.37.693,judgeSpeechMusic_20210921_logNormShiftAmp_detection_fixS,2020.1.2,MacIntel,60,,,,,,,,,,,,,,,,,,1,5.8762,,0,0,56,56,69,1,stimuli/stim_20210706_power2amp/equal_lnn_AM4.2Hz_s35_4.m4a,,,,,,,,,,,,
,,,,,,,,,,,,41984,2021-09-27_12h38.37.693,judgeSpeechMusic_20210921_logNormShiftAmp_detection_fixS,2020.1.2,MacIntel,60,,,,,,,,,,,,,,,,,,1,6.0881,,0,0,57,57,66,1,stimuli/stim_20210706_power2amp/equal_lnn_AM4.2Hz_s35_46.m4a,,,,,,,,,,,,
,,,,,,,,,,,,41984,2021-09-27_12h38.37.693,judgeSpeechMusic_20210921_logNormShiftAmp_detection_fixS,2020.1.2,MacIntel,60,,,,,,,,,,,,,,,,,,1,6.1528,,0,0,58,58,52,1,stimuli/stim_20210706_power2amp/equal_lnn_AM3.6Hz_s35_14.m4a,,,,,,,,,,,,
,,,,,,,,,,,,41984,2021-09-27_12h38.37.693,judgeSpeechMusic_20210921_logNormShiftAmp_detection_fixS,2020.1.2,MacIntel,60,,,,,,,,,,,,,,,,,,1,5.6566,,0,0,59,59,4,1,stimuli/stim_20210706_power2amp/equal_lnn_AM0.6Hz_s35_4.m4a,,,,,,,,,,,,
,,,,,,,,,,,,41984,2021-09-27_12h38.37.693,judgeSpeechMusic_20210921_logNormShiftAmp_detection_fixS,2020.1.2,MacIntel,60,,,,,,,,,,,,,,,,,,1,5.6049,,0,0,60,60,25,1,stimuli/stim_20210706_power2amp/equal_lnn_AM1.2Hz_s35_39.m4a,,,,,,,,,,,,
,,,,,,,,,,,,41984,2021-09-27_12h38.37.693,judgeSpeechMusic_20210921_logNormShiftAmp_detection_fixS,2020.1.2,MacIntel,60,,,,,,,,,,,,,,,,,,1,7.1209,,0,0,61,61,28,1,stimuli/stim_20210706_power2amp/equal_lnn_AM1.2Hz_s35_8.m4a,,,,,,,,,,,,
,,,,,,,,,,,,41984,2021-09-27_12h38.37.693,judgeSpeechMusic_20210921_logNormShiftAmp_detection_fixS,2020.1.2,MacIntel,60,,,,,,,,,,,,,,,,,,1,6.0602,,0,0,62,62,23,1,stimuli/stim_20210706_power2amp/equal_lnn_AM1.2Hz_s35_9.m4a,,,,,,,,,,,,
,,,,,,,,,,,,41984,2021-09-27_12h38.37.693,judgeSpeechMusic_20210921_logNormShiftAmp_detection_fixS,2020.1.2,MacIntel,60,,,,,,,,,,,,,,,,,,1,6.8216,,0,0,63,63,57,1,stimuli/stim_20210706_power2amp/equal_lnn_AM3.6Hz_s35_44.m4a,,,,,,,,,,,,
,,,,,,,,,,,,41984,2021-09-27_12h38.37.693,judgeSpeechMusic_20210921_logNormShiftAmp_detection_fixS,2020.1.2,MacIntel,60,,,,,,,,,,,,,,,,,,1,6.2922,,0,0,64,64,10,1,stimuli/stim_20210706_power2amp/equal_lnn_AM0.6Hz_s35_2.m4a,,,,,,,,,,,,
,,,,,,,,,,,,41984,2021-09-27_12h38.37.693,judgeSpeechMusic_20210921_logNormShiftAmp_detection_fixS,2020.1.2,MacIntel,60,,,,,,,,,,,,,,,,,,1,5.9121,,0,0,65,65,43,1,stimuli/stim_20210706_power2amp/equal_lnn_AM2.4Hz_s35_26.m4a,,,,,,,,,,,,
,,,,,,,,,,,,41984,2021-09-27_12h38.37.693,judgeSpeechMusic_20210921_logNormShiftAmp_detection_fixS,2020.1.2,MacIntel,60,,,,,,,,,,,,,,,,,,1,5.9626,,0,0,66,66,73,1,stimuli/stim_20210706_power2amp/equal_lnn_AM4.2Hz_s35_34.m4a,,,,,,,,,,,,
,,,,,,,,,,,,41984,2021-09-27_12h38.37.693,judgeSpeechMusic_20210921_logNormShiftAmp_detection_fixS,2020.1.2,MacIntel,60,,,,,,,,,,,,,,,,,,1,6.4204,,0,0,67,67,46,1,stimuli/stim_20210706_power2amp/equal_lnn_AM3.6Hz_s35_27.m4a,,,,,,,,,,,,
,,,,,,,,,,,,41984,2021-09-27_12h38.37.693,judgeSpeechMusic_20210921_logNormShiftAmp_detection_fixS,2020.1.2,MacIntel,60,,,,,,,,,,,,,,,,,,1,5.8132,,0,0,68,68,7,1,stimuli/stim_20210706_power2amp/equal_lnn_AM0.6Hz_s35_26.m4a,,,,,,,,,,,,
,,,,,,,,,,,,41984,2021-09-27_12h38.37.693,judgeSpeechMusic_20210921_logNormShiftAmp_detection_fixS,2020.1.2,MacIntel,60,,,,,,,,,,,,,,,,,,1,5.7528,,0,0,69,69,6,1,stimuli/stim_20210706_power2amp/equal_lnn_AM0.6Hz_s35_19.m4a,,,,,,,,,,,,
,,,,,,,,,,,,41984,2021-09-27_12h38.37.693,judgeSpeechMusic_20210921_logNormShiftAmp_detection_fixS,2020.1.2,MacIntel,60,,,,,,,,,,,,,,,,,,1,6.3537,,0,0,70,70,3,1,stimuli/stim_20210706_power2amp/equal_lnn_AM0.6Hz_s35_5.m4a,,,,,,,,,,,,
,,,,,,,,,,,,41984,2021-09-27_12h38.37.693,judgeSpeechMusic_20210921_logNormShiftAmp_detection_fixS,2020.1.2,MacIntel,60,,,,,,,,,,,,,,,,,,1,52.7311,,0,0,71,71,56,1,stimuli/stim_20210706_power2amp/equal_lnn_AM3.6Hz_s35_45.m4a,,,,,,,,,,,,
,,,,,,,,,,,,41984,2021-09-27_12h38.37.693,judgeSpeechMusic_20210921_logNormShiftAmp_detection_fixS,2020.1.2,MacIntel,60,,,,,,,,,,,,,,,,,,1,5.8016,,0,0,72,72,63,1,stimuli/stim_20210706_power2amp/equal_lnn_AM4.2Hz_s35_41.m4a,,,,,,,,,,,,
,,,,,,,,,,,,41984,2021-09-27_12h38.37.693,judgeSpeechMusic_20210921_logNormShiftAmp_detection_fixS,2020.1.2,MacIntel,60,,,,,,,,,,,,,,,,,,1,5.7124,,0,0,73,73,5,1,stimuli/stim_20210706_power2amp/equal_lnn_AM0.6Hz_s35_11.m4a,,,,,,,,,,,,
,,,,,,,,,,,,41984,2021-09-27_12h38.37.693,judgeSpeechMusic_20210921_logNormShiftAmp_detection_fixS,2020.1.2,MacIntel,60,,,,,,,,,,,,,,,,,,1,5.655,,0,0,74,74,19,1,stimuli/stim_20210706_power2amp/equal_lnn_AM1.2Hz_s35_4.m4a,,,,,,,,,,,,
,,,,,,,,,,,,41984,2021-09-27_12h38.37.693,judgeSpeechMusic_20210921_logNormShiftAmp_detection_fixS,2020.1.2,MacIntel,60,,,,,,,,,,,,,,,,,,,,,,,,,,,,,space,0.8258,0,1,1,0,1,MUSIC,stimuli/MUSIC.jpg,,
,,,,,,,,,,,,41984,2021-09-27_12h38.37.693,judgeSpeechMusic_20210921_logNormShiftAmp_detection_fixS,2020.1.2,MacIntel,60,,,,,,0,0,0,0,2,1,stimuli/stim_20210706_power2amp/equal_lnn_AM_training3Hz_s35.m4a,,,,,,,,,,,,,,,,,,,,,,,,,,,
,,,,,,,,,,,,41984,2021-09-27_12h38.37.693,judgeSpeechMusic_20210921_logNormShiftAmp_detection_fixS,2020.1.2,MacIntel,60,,,,,,,,,,,,,,space,4.7945,space,0.7355,1,5.8702,,0,0,0,0,14,1,stimuli/stim_20210706_power2amp/equal_lnn_AM0.6Hz_s35_38.m4a,,,,,,,,,,,,
,,,,,,,,,,,,41984,2021-09-27_12h38.37.693,judgeSpeechMusic_20210921_logNormShiftAmp_detection_fixS,2020.1.2,MacIntel,60,,,,,,,,,,,,,,,,,,1,6.3588,,0,0,1,1,11,1,stimuli/stim_20210706_power2amp/equal_lnn_AM0.6Hz_s35_43.m4a,,,,,,,,,,,,
,,,,,,,,,,,,41984,2021-09-27_12h38.37.693,judgeSpeechMusic_20210921_logNormShiftAmp_detection_fixS,2020.1.2,MacIntel,60,,,,,,,,,,,,,,,,,,1,5.9147,,0,0,2,2,69,1,stimuli/stim_20210706_power2amp/equal_lnn_AM4.2Hz_s35_4.m4a,,,,,,,,,,,,
,,,,,,,,,,,,41984,2021-09-27_12h38.37.693,judgeSpeechMusic_20210921_logNormShiftAmp_detection_fixS,2020.1.2,MacIntel,60,,,,,,,,,,,,,,,,,,1,5.9985,,0,0,3,3,60,1,stimuli/stim_20210706_power2amp/equal_lnn_AM4.2Hz_s35_24.m4a,,,,,,,,,,,,
,,,,,,,,,,,,41984,2021-09-27_12h38.37.693,judgeSpeechMusic_20210921_logNormShiftAmp_detection_fixS,2020.1.2,MacIntel,60,,,,,,,,,,,,,,,,,,1,79.7009,,0,0,4,4,33,1,stimuli/stim_20210706_power2amp/equal_lnn_AM2.4Hz_s35_50.m4a,,,,,,,,,,,,
,,,,,,,,,,,,41984,2021-09-27_12h38.37.693,judgeSpeechMusic_20210921_logNormShiftAmp_detection_fixS,2020.1.2,MacIntel,60,,,,,,,,,,,,,,,,,,1,6.1776,,0,0,5,5,45,1,stimuli/stim_20210706_power2amp/equal_lnn_AM3.6Hz_s35_38.m4a,,,,,,,,,,,,
,,,,,,,,,,,,41984,2021-09-27_12h38.37.693,judgeSpeechMusic_20210921_logNormShiftAmp_detection_fixS,2020.1.2,MacIntel,60,,,,,,,,,,,,,,,,,,1,7.2106,,0,0,6,6,27,1,stimuli/stim_20210706_power2amp/equal_lnn_AM1.2Hz_s35_46.m4a,,,,,,,,,,,,
,,,,,,,,,,,,41984,2021-09-27_12h38.37.693,judgeSpeechMusic_20210921_logNormShiftAmp_detection_fixS,2020.1.2,MacIntel,60,,,,,,,,,,,,,,,,,,1,5.7771,,0,0,7,7,71,1,stimuli/stim_20210706_power2amp/equal_lnn_AM4.2Hz_s35_2.m4a,,,,,,,,,,,,
,,,,,,,,,,,,41984,2021-09-27_12h38.37.693,judgeSpeechMusic_20210921_logNormShiftAmp_detection_fixS,2020.1.2,MacIntel,60,,,,,,,,,,,,,,,,,,1,7.3036,,0,0,8,8,63,1,stimuli/stim_20210706_power2amp/equal_lnn_AM4.2Hz_s35_41.m4a,,,,,,,,,,,,
,,,,,,,,,,,,41984,2021-09-27_12h38.37.693,judgeSpeechMusic_20210921_logNormShiftAmp_detection_fixS,2020.1.2,MacIntel,60,,,,,,,,,,,,,,,,,,1,6.3872,,0,0,9,9,66,1,stimuli/stim_20210706_power2amp/equal_lnn_AM4.2Hz_s35_46.m4a,,,,,,,,,,,,
,,,,,,,,,,,,41984,2021-09-27_12h38.37.693,judgeSpeechMusic_20210921_logNormShiftAmp_detection_fixS,2020.1.2,MacIntel,60,,,,,,,,,,,,,,,,,,1,5.6344,,0,0,10,10,31,1,stimuli/stim_20210706_power2amp/equal_lnn_AM2.4Hz_s35_29.m4a,,,,,,,,,,,,
,,,,,,,,,,,,41984,2021-09-27_12h38.37.693,judgeSpeechMusic_20210921_logNormShiftAmp_detection_fixS,2020.1.2,MacIntel,60,,,,,,,,,,,,,,,,,,1,6.3644,,0,0,11,11,72,1,stimuli/stim_20210706_power2amp/equal_lnn_AM4.2Hz_s35_33.m4a,,,,,,,,,,,,
,,,,,,,,,,,,41984,2021-09-27_12h38.37.693,judgeSpeechMusic_20210921_logNormShiftAmp_detection_fixS,2020.1.2,MacIntel,60,,,,,,,,,,,,,,,,,,1,5.6722,,0,0,12,12,22,1,stimuli/stim_20210706_power2amp/equal_lnn_AM1.2Hz_s35_29.m4a,,,,,,,,,,,,
,,,,,,,,,,,,41984,2021-09-27_12h38.37.693,judgeSpeechMusic_20210921_logNormShiftAmp_detection_fixS,2020.1.2,MacIntel,60,,,,,,,,,,,,,,,,,,1,6.5036,,0,0,13,13,42,1,stimuli/stim_20210706_power2amp/equal_lnn_AM2.4Hz_s35_2.m4a,,,,,,,,,,,,
,,,,,,,,,,,,41984,2021-09-27_12h38.37.693,judgeSpeechMusic_20210921_logNormShiftAmp_detection_fixS,2020.1.2,MacIntel,60,,,,,,,,,,,,,,,,,,1,5.6656,,0,0,14,14,12,1,stimuli/stim_20210706_power2amp/equal_lnn_AM0.6Hz_s35_16.m4a,,,,,,,,,,,,
,,,,,,,,,,,,41984,2021-09-27_12h38.37.693,judgeSpeechMusic_20210921_logNormShiftAmp_detection_fixS,2020.1.2,MacIntel,60,,,,,,,,,,,,,,,,,,1,5.7186,,0,0,15,15,73,1,stimuli/stim_20210706_power2amp/equal_lnn_AM4.2Hz_s35_34.m4a,,,,,,,,,,,,
,,,,,,,,,,,,41984,2021-09-27_12h38.37.693,judgeSpeechMusic_20210921_logNormShiftAmp_detection_fixS,2020.1.2,MacIntel,60,,,,,,,,,,,,,,,,,,1,6.3365,,0,0,16,16,51,1,stimuli/stim_20210706_power2amp/equal_lnn_AM3.6Hz_s35_20.m4a,,,,,,,,,,,,
,,,,,,,,,,,,41984,2021-09-27_12h38.37.693,judgeSpeechMusic_20210921_logNormShiftAmp_detection_fixS,2020.1.2,MacIntel,60,,,,,,,,,,,,,,,,,,1,6.5681,,0,0,17,17,28,1,stimuli/stim_20210706_power2amp/equal_lnn_AM1.2Hz_s35_8.m4a,,,,,,,,,,,,
,,,,,,,,,,,,41984,2021-09-27_12h38.37.693,judgeSpeechMusic_20210921_logNormShiftAmp_detection_fixS,2020.1.2,MacIntel,60,,,,,,,,,,,,,,,,,,1,5.8048,1,1,0,18,18,36,1,stimuli/stim_20210706_power2amp/equal_lnn_AM2.4Hz_s35_32.m4a,0.4811,,,,,,,,,,,
,,,,,,,,,,,,41984,2021-09-27_12h38.37.693,judgeSpeechMusic_20210921_logNormShiftAmp_detection_fixS,2020.1.2,MacIntel,60,,,,,,,,,,,,,,,,,,1,5.7378,,0,0,19,19,19,1,stimuli/stim_20210706_power2amp/equal_lnn_AM1.2Hz_s35_4.m4a,,,,,,,,,,,,
,,,,,,,,,,,,41984,2021-09-27_12h38.37.693,judgeSpeechMusic_20210921_logNormShiftAmp_detection_fixS,2020.1.2,MacIntel,60,,,,,,,,,,,,,,,,,,1,5.9481,,0,0,20,20,13,1,stimuli/stim_20210706_power2amp/equal_lnn_AM0.6Hz_s35_27.m4a,,,,,,,,,,,,
,,,,,,,,,,,,41984,2021-09-27_12h38.37.693,judgeSpeechMusic_20210921_logNormShiftAmp_detection_fixS,2020.1.2,MacIntel,60,,,,,,,,,,,,,,,,,,1,5.8871,,0,0,21,21,74,1,stimuli/stim_20210706_power2amp/equal_lnn_AM4.2Hz_s35_49.m4a,,,,,,,,,,,,
,,,,,,,,,,,,41984,2021-09-27_12h38.37.693,judgeSpeechMusic_20210921_logNormShiftAmp_detection_fixS,2020.1.2,MacIntel,60,,,,,,,,,,,,,,,,,,1,6.575,,0,0,22,22,7,1,stimuli/stim_20210706_power2amp/equal_lnn_AM0.6Hz_s35_26.m4a,,,,,,,,,,,,
,,,,,,,,,,,,41984,2021-09-27_12h38.37.693,judgeSpeechMusic_20210921_logNormShiftAmp_detection_fixS,2020.1.2,MacIntel,60,,,,,,,,,,,,,,,,,,1,5.7726,,0,0,23,23,30,1,stimuli/stim_20210706_power2amp/equal_lnn_AM2.4Hz_s35_23.m4a,,,,,,,,,,,,
,,,,,,,,,,,,41984,2021-09-27_12h38.37.693,judgeSpeechMusic_20210921_logNormShiftAmp_detection_fixS,2020.1.2,MacIntel,60,,,,,,,,,,,,,,,,,,1,5.7199,,0,0,24,24,58,1,stimuli/stim_20210706_power2amp/equal_lnn_AM3.6Hz_s35_21.m4a,,,,,,,,,,,,
,,,,,,,,,,,,41984,2021-09-27_12h38.37.693,judgeSpeechMusic_20210921_logNormShiftAmp_detection_fixS,2020.1.2,MacIntel,60,,,,,,,,,,,,,,,,,,1,5.7203,,0,0,25,25,15,1,stimuli/stim_20210706_power2amp/equal_lnn_AM1.2Hz_s35_6.m4a,,,,,,,,,,,,
,,,,,,,,,,,,41984,2021-09-27_12h38.37.693,judgeSpeechMusic_20210921_logNormShiftAmp_detection_fixS,2020.1.2,MacIntel,60,,,,,,,,,,,,,,,,,,1,6.1496,,0,0,26,26,48,1,stimuli/stim_20210706_power2amp/equal_lnn_AM3.6Hz_s35_22.m4a,,,,,,,,,,,,
,,,,,,,,,,,,41984,2021-09-27_12h38.37.693,judgeSpeechMusic_20210921_logNormShiftAmp_detection_fixS,2020.1.2,MacIntel,60,,,,,,,,,,,,,,,,,,1,6.0543,,0,0,27,27,67,1,stimuli/stim_20210706_power2amp/equal_lnn_AM4.2Hz_s35_23.m4a,,,,,,,,,,,,
,,,,,,,,,,,,41984,2021-09-27_12h38.37.693,judgeSpeechMusic_20210921_logNormShiftAmp_detection_fixS,2020.1.2,MacIntel,60,,,,,,,,,,,,,,,,,,1,5.6363,,0,0,28,28,25,1,stimuli/stim_20210706_power2amp/equal_lnn_AM1.2Hz_s35_39.m4a,,,,,,,,,,,,
,,,,,,,,,,,,41984,2021-09-27_12h38.37.693,judgeSpeechMusic_20210921_logNormShiftAmp_detection_fixS,2020.1.2,MacIntel,60,,,,,,,,,,,,,,,,,,1,5.9532,,0,0,29,29,49,1,stimuli/stim_20210706_power2amp/equal_lnn_AM3.6Hz_s35_17.m4a,,,,,,,,,,,,
,,,,,,,,,,,,41984,2021-09-27_12h38.37.693,judgeSpeechMusic_20210921_logNormShiftAmp_detection_fixS,2020.1.2,MacIntel,60,,,,,,,,,,,,,,,,,,1,5.4869,,0,0,30,30,34,1,stimuli/stim_20210706_power2amp/equal_lnn_AM2.4Hz_s35_35.m4a,,,,,,,,,,,,
,,,,,,,,,,,,41984,2021-09-27_12h38.37.693,judgeSpeechMusic_20210921_logNormShiftAmp_detection_fixS,2020.1.2,MacIntel,60,,,,,,,,,,,,,,,,,,1,5.8095,,0,0,31,31,56,1,stimuli/stim_20210706_power2amp/equal_lnn_AM3.6Hz_s35_45.m4a,,,,,,,,,,,,
,,,,,,,,,,,,41984,2021-09-27_12h38.37.693,judgeSpeechMusic_20210921_logNormShiftAmp_detection_fixS,2020.1.2,MacIntel,60,,,,,,,,,,,,,,,,,,1,12.53,,0,0,32,32,23,1,stimuli/stim_20210706_power2amp/equal_lnn_AM1.2Hz_s35_9.m4a,,,,,,,,,,,,
,,,,,,,,,,,,41984,2021-09-27_12h38.37.693,judgeSpeechMusic_20210921_logNormShiftAmp_detection_fixS,2020.1.2,MacIntel,60,,,,,,,,,,,,,,,,,,1,131.932,,0,0,33,33,20,1,stimuli/stim_20210706_power2amp/equal_lnn_AM1.2Hz_s35_11.m4a,,,,,,,,,,,,
,,,,,,,,,,,,41984,2021-09-27_12h38.37.693,judgeSpeechMusic_20210921_logNormShiftAmp_detection_fixS,2020.1.2,MacIntel,60,,,,,,,,,,,,,,,,,,1,5.6829,,0,0,34,34,40,1,stimuli/stim_20210706_power2amp/equal_lnn_AM2.4Hz_s35_13.m4a,,,,,,,,,,,,
,,,,,,,,,,,,41984,2021-09-27_12h38.37.693,judgeSpeechMusic_20210921_logNormShiftAmp_detection_fixS,2020.1.2,MacIntel,60,,,,,,,,,,,,,,,,,,1,5.8934,,0,0,35,35,8,1,stimuli/stim_20210706_power2amp/equal_lnn_AM0.6Hz_s35_9.m4a,,,,,,,,,,,,
,,,,,,,,,,,,41984,2021-09-27_12h38.37.693,judgeSpeechMusic_20210921_logNormShiftAmp_detection_fixS,2020.1.2,MacIntel,60,,,,,,,,,,,,,,,,,,1,84.0934,,0,0,36,36,37,1,stimuli/stim_20210706_power2amp/equal_lnn_AM2.4Hz_s35_41.m4a,,,,,,,,,,,,
,,,,,,,,,,,,41984,2021-09-27_12h38.37.693,judgeSpeechMusic_20210921_logNormShiftAmp_detection_fixS,2020.1.2,MacIntel,60,,,,,,,,,,,,,,,,,,1,94.1372,2,1,0,37,37,59,1,stimuli/stim_20210706_power2amp/equal_lnn_AM3.6Hz_s35_43.m4a,1.4252,,,,,,,,,,,
,,,,,,,,,,,,41984,2021-09-27_12h38.37.693,judgeSpeechMusic_20210921_logNormShiftAmp_detection_fixS,2020.1.2,MacIntel,60,,,,,,,,,,,,,,,,,,1,5.9251,,0,0,38,38,43,1,stimuli/stim_20210706_power2amp/equal_lnn_AM2.4Hz_s35_26.m4a,,,,,,,,,,,,
,,,,,,,,,,,,41984,2021-09-27_12h38.37.693,judgeSpeechMusic_20210921_logNormShiftAmp_detection_fixS,2020.1.2,MacIntel,60,,,,,,,,,,,,,,,,,,1,5.7289,,0,0,39,39,57,1,stimuli/stim_20210706_power2amp/equal_lnn_AM3.6Hz_s35_44.m4a,,,,,,,,,,,,
,,,,,,,,,,,,41984,2021-09-27_12h38.37.693,judgeSpeechMusic_20210921_logNormShiftAmp_detection_fixS,2020.1.2,MacIntel,60,,,,,,,,,,,,,,,,,,1,5.9369,,0,0,40,40,35,1,stimuli/stim_20210706_power2amp/equal_lnn_AM2.4Hz_s35_40.m4a,,,,,,,,,,,,
,,,,,,,,,,,,41984,2021-09-27_12h38.37.693,judgeSpeechMusic_20210921_logNormShiftAmp_detection_fixS,2020.1.2,MacIntel,60,,,,,,,,,,,,,,,,,,1,6.4065,,0,0,41,41,2,1,stimuli/stim_20210706_power2amp/equal_lnn_AM0.6Hz_s35_23.m4a,,,,,,,,,,,,
,,,,,,,,,,,,41984,2021-09-27_12h38.37.693,judgeSpeechMusic_20210921_logNormShiftAmp_detection_fixS,2020.1.2,MacIntel,60,,,,,,,,,,,,,,,,,,1,5.7218,,0,0,42,42,44,1,stimuli/stim_20210706_power2amp/equal_lnn_AM2.4Hz_s35_48.m4a,,,,,,,,,,,,
,,,,,,,,,,,,41984,2021-09-27_12h38.37.693,judgeSpeechMusic_20210921_logNormShiftAmp_detection_fixS,2020.1.2,MacIntel,60,,,,,,,,,,,,,,,,,,1,5.6892,,0,0,43,43,17,1,stimuli/stim_20210706_power2amp/equal_lnn_AM1.2Hz_s35_43.m4a,,,,,,,,,,,,
,,,,,,,,,,,,41984,2021-09-27_12h38.37.693,judgeSpeechMusic_20210921_logNormShiftAmp_detection_fixS,2020.1.2,MacIntel,60,,,,,,,,,,,,,,,,,,1,6.4621,,0,0,44,44,18,1,stimuli/stim_20210706_power2amp/equal_lnn_AM1.2Hz_s35_45.m4a,,,,,,,,,,,,
,,,,,,,,,,,,41984,2021-09-27_12h38.37.693,judgeSpeechMusic_20210921_logNormShiftAmp_detection_fixS,2020.1.2,MacIntel,60,,,,,,,,,,,,,,,,,,1,5.6704,,0,0,45,45,53,1,stimuli/stim_20210706_power2amp/equal_lnn_AM3.6Hz_s35_48.m4a,,,,,,,,,,,,
,,,,,,,,,,,,41984,2021-09-27_12h38.37.693,judgeSpeechMusic_20210921_logNormShiftAmp_detection_fixS,2020.1.2,MacIntel,60,,,,,,,,,,,,,,,,,,1,6.0082,,0,0,46,46,32,1,stimuli/stim_20210706_power2amp/equal_lnn_AM2.4Hz_s35_28.m4a,,,,,,,,,,,,
,,,,,,,,,,,,41984,2021-09-27_12h38.37.693,judgeSpeechMusic_20210921_logNormShiftAmp_detection_fixS,2020.1.2,MacIntel,60,,,,,,,,,,,,,,,,,,1,5.7482,,0,0,47,47,54,1,stimuli/stim_20210706_power2amp/equal_lnn_AM3.6Hz_s35_35.m4a,,,,,,,,,,,,
,,,,,,,,,,,,41984,2021-09-27_12h38.37.693,judgeSpeechMusic_20210921_logNormShiftAmp_detection_fixS,2020.1.2,MacIntel,60,,,,,,,,,,,,,,,,,,1,5.7587,,0,0,48,48,46,1,stimuli/stim_20210706_power2amp/equal_lnn_AM3.6Hz_s35_27.m4a,,,,,,,,,,,,
,,,,,,,,,,,,41984,2021-09-27_12h38.37.693,judgeSpeechMusic_20210921_logNormShiftAmp_detection_fixS,2020.1.2,MacIntel,60,,,,,,,,,,,,,,,,,,1,5.9223,,0,0,49,49,1,1,stimuli/stim_20210706_power2amp/equal_lnn_AM0.6Hz_s35_31.m4a,,,,,,,,,,,,
,,,,,,,,,,,,41984,2021-09-27_12h38.37.693,judgeSpeechMusic_20210921_logNormShiftAmp_detection_fixS,2020.1.2,MacIntel,60,,,,,,,,,,,,,,,,,,1,5.7023,,0,0,50,50,24,1,stimuli/stim_20210706_power2amp/equal_lnn_AM1.2Hz_s35_18.m4a,,,,,,,,,,,,
,,,,,,,,,,,,41984,2021-09-27_12h38.37.693,judgeSpeechMusic_20210921_logNormShiftAmp_detection_fixS,2020.1.2,MacIntel,60,,,,,,,,,,,,,,,,,,1,5.7041,,0,0,51,51,65,1,stimuli/stim_20210706_power2amp/equal_lnn_AM4.2Hz_s35_13.m4a,,,,,,,,,,,,
,,,,,,,,,,,,41984,2021-09-27_12h38.37.693,judgeSpeechMusic_20210921_logNormShiftAmp_detection_fixS,2020.1.2,MacIntel,60,,,,,,,,,,,,,,,,,,1,8.5366,,0,0,52,52,70,1,stimuli/stim_20210706_power2amp/equal_lnn_AM4.2Hz_s35_28.m4a,,,,,,,,,,,,
,,,,,,,,,,,,41984,2021-09-27_12h38.37.693,judgeSpeechMusic_20210921_logNormShiftAmp_detection_fixS,2020.1.2,MacIntel,60,,,,,,,,,,,,,,,,,,1,8.5703,,0,0,53,53,68,1,stimuli/stim_20210706_power2amp/equal_lnn_AM4.2Hz_s35_32.m4a,,,,,,,,,,,,
,,,,,,,,,,,,41984,2021-09-27_12h38.37.693,judgeSpeechMusic_20210921_logNormShiftAmp_detection_fixS,2020.1.2,MacIntel,60,,,,,,,,,,,,,,,,,,1,6.4029,,0,0,54,54,41,1,stimuli/stim_20210706_power2amp/equal_lnn_AM2.4Hz_s35_3.m4a,,,,,,,,,,,,
,,,,,,,,,,,,41984,2021-09-27_12h38.37.693,judgeSpeechMusic_20210921_logNormShiftAmp_detection_fixS,2020.1.2,MacIntel,60,,,,,,,,,,,,,,,,,,1,6.3321,4,1,0,55,55,26,1,stimuli/stim_20210706_power2amp/equal_lnn_AM1.2Hz_s35_40.m4a,0.3401,,,,,,,,,,,
,,,,,,,,,,,,41984,2021-09-27_12h38.37.693,judgeSpeechMusic_20210921_logNormShiftAmp_detection_fixS,2020.1.2,MacIntel,60,,,,,,,,,,,,,,,,,,1,5.8754,,0,0,56,56,21,1,stimuli/stim_20210706_power2amp/equal_lnn_AM1.2Hz_s35_10.m4a,,,,,,,,,,,,
,,,,,,,,,,,,41984,2021-09-27_12h38.37.693,judgeSpeechMusic_20210921_logNormShiftAmp_detection_fixS,2020.1.2,MacIntel,60,,,,,,,,,,,,,,,,,,1,6.0869,,0,0,57,57,16,1,stimuli/stim_20210706_power2amp/equal_lnn_AM1.2Hz_s35_47.m4a,,,,,,,,,,,,
,,,,,,,,,,,,41984,2021-09-27_12h38.37.693,judgeSpeechMusic_20210921_logNormShiftAmp_detection_fixS,2020.1.2,MacIntel,60,,,,,,,,,,,,,,,,,,1,5.8205,,0,0,58,58,50,1,stimuli/stim_20210706_power2amp/equal_lnn_AM3.6Hz_s35_13.m4a,,,,,,,,,,,,
,,,,,,,,,,,,41984,2021-09-27_12h38.37.693,judgeSpeechMusic_20210921_logNormShiftAmp_detection_fixS,2020.1.2,MacIntel,60,,,,,,,,,,,,,,,,,,1,5.8532,,0,0,59,59,29,1,stimuli/stim_20210706_power2amp/equal_lnn_AM1.2Hz_s35_38.m4a,,,,,,,,,,,,
,,,,,,,,,,,,41984,2021-09-27_12h38.37.693,judgeSpeechMusic_20210921_logNormShiftAmp_detection_fixS,2020.1.2,MacIntel,60,,,,,,,,,,,,,,,,,,1,5.7714,,0,0,60,60,62,1,stimuli/stim_20210706_power2amp/equal_lnn_AM4.2Hz_s35_3.m4a,,,,,,,,,,,,
,,,,,,,,,,,,41984,2021-09-27_12h38.37.693,judgeSpeechMusic_20210921_logNormShiftAmp_detection_fixS,2020.1.2,MacIntel,60,,,,,,,,,,,,,,,,,,1,5.7053,,0,0,61,61,55,1,stimuli/stim_20210706_power2amp/equal_lnn_AM3.6Hz_s35_8.m4a,,,,,,,,,,,,
,,,,,,,,,,,,41984,2021-09-27_12h38.37.693,judgeSpeechMusic_20210921_logNormShiftAmp_detection_fixS,2020.1.2,MacIntel,60,,,,,,,,,,,,,,,,,,1,7.354,,0,0,62,62,10,1,stimuli/stim_20210706_power2amp/equal_lnn_AM0.6Hz_s35_2.m4a,,,,,,,,,,,,
,,,,,,,,,,,,41984,2021-09-27_12h38.37.693,judgeSpeechMusic_20210921_logNormShiftAmp_detection_fixS,2020.1.2,MacIntel,60,,,,,,,,,,,,,,,,,,1,6.4083,,0,0,63,63,6,1,stimuli/stim_20210706_power2amp/equal_lnn_AM0.6Hz_s35_19.m4a,,,,,,,,,,,,
,,,,,,,,,,,,41984,2021-09-27_12h38.37.693,judgeSpeechMusic_20210921_logNormShiftAmp_detection_fixS,2020.1.2,MacIntel,60,,,,,,,,,,,,,,,,,,1,8.1461,,0,0,64,64,38,1,stimuli/stim_20210706_power2amp/equal_lnn_AM2.4Hz_s35_42.m4a,,,,,,,,,,,,
,,,,,,,,,,,,41984,2021-09-27_12h38.37.693,judgeSpeechMusic_20210921_logNormShiftAmp_detection_fixS,2020.1.2,MacIntel,60,,,,,,,,,,,,,,,,,,1,6.2543,,0,0,65,65,39,1,stimuli/stim_20210706_power2amp/equal_lnn_AM2.4Hz_s35_49.m4a,,,,,,,,,,,,
,,,,,,,,,,,,41984,2021-09-27_12h38.37.693,judgeSpeechMusic_20210921_logNormShiftAmp_detection_fixS,2020.1.2,MacIntel,60,,,,,,,,,,,,,,,,,,1,6.0217,,0,0,66,66,47,1,stimuli/stim_20210706_power2amp/equal_lnn_AM3.6Hz_s35_24.m4a,,,,,,,,,,,,
,,,,,,,,,,,,41984,2021-09-27_12h38.37.693,judgeSpeechMusic_20210921_logNormShiftAmp_detection_fixS,2020.1.2,MacIntel,60,,,,,,,,,,,,,,,,,,1,5.8617,,0,0,67,67,64,1,stimuli/stim_20210706_power2amp/equal_lnn_AM4.2Hz_s35_25.m4a,,,,,,,,,,,,
,,,,,,,,,,,,41984,2021-09-27_12h38.37.693,judgeSpeechMusic_20210921_logNormShiftAmp_detection_fixS,2020.1.2,MacIntel,60,,,,,,,,,,,,,,,,,,1,6.5751,,0,0,68,68,52,1,stimuli/stim_20210706_power2amp/equal_lnn_AM3.6Hz_s35_14.m4a,,,,,,,,,,,,
,,,,,,,,,,,,41984,2021-09-27_12h38.37.693,judgeSpeechMusic_20210921_logNormShiftAmp_detection_fixS,2020.1.2,MacIntel,60,,,,,,,,,,,,,,,,,,1,7.6268,,0,0,69,69,0,1,stimuli/stim_20210706_power2amp/equal_lnn_AM0.6Hz_s35_25.m4a,,,,,,,,,,,,
,,,,,,,,,,,,41984,2021-09-27_12h38.37.693,judgeSpeechMusic_20210921_logNormShiftAmp_detection_fixS,2020.1.2,MacIntel,60,,,,,,,,,,,,,,,,,,1,5.6546,,0,0,70,70,5,1,stimuli/stim_20210706_power2amp/equal_lnn_AM0.6Hz_s35_11.m4a,,,,,,,,,,,,
,,,,,,,,,,,,41984,2021-09-27_12h38.37.693,judgeSpeechMusic_20210921_logNormShiftAmp_detection_fixS,2020.1.2,MacIntel,60,,,,,,,,,,,,,,,,,,1,5.8079,,0,0,71,71,9,1,stimuli/stim_20210706_power2amp/equal_lnn_AM0.6Hz_s35_14.m4a,,,,,,,,,,,,
,,,,,,,,,,,,41984,2021-09-27_12h38.37.693,judgeSpeechMusic_20210921_logNormShiftAmp_detection_fixS,2020.1.2,MacIntel,60,,,,,,,,,,,,,,,,,,1,5.74,,0,0,72,72,3,1,stimuli/stim_20210706_power2amp/equal_lnn_AM0.6Hz_s35_5.m4a,,,,,,,,,,,,
,,,,,,,,,,,,41984,2021-09-27_12h38.37.693,judgeSpeechMusic_20210921_logNormShiftAmp_detection_fixS,2020.1.2,MacIntel,60,,,,,,,,,,,,,,,,,,1,5.973,,0,0,73,73,4,1,stimuli/stim_20210706_power2amp/equal_lnn_AM0.6Hz_s35_4.m4a,,,,,,,,,,,,
,,,,,,,,,,,,41984,2021-09-27_12h38.37.693,judgeSpeechMusic_20210921_logNormShiftAmp_detection_fixS,2020.1.2,MacIntel,60,,,,,,,,,,,,,,,,,,1,5.7117,,0,0,74,74,61,1,stimuli/stim_20210706_power2amp/equal_lnn_AM4.2Hz_s35_7.m4a,,,,,,,,,,,,
,,,,,,,,,,,,41984,2021-09-27_12h38.37.693,judgeSpeechMusic_20210921_logNormShiftAmp_detection_fixS,2020.1.2,MacIntel,60,,,,,,,,,,,,,,,,,,,,,,,,,,,,,space,0.6754,1,0,2,0,1,MUSIC,stimuli/MUSIC.jpg,,
,,,,,,,,,,,,41984,2021-09-27_12h38.37.693,judgeSpeechMusic_20210921_logNormShiftAmp_detection_fixS,2020.1.2,MacIntel,60,,,,,,0,0,0,0,2,1,stimuli/stim_20210706_power2amp/equal_lnn_AM_training3Hz_s35.m4a,,,,,,,,,,,,,,,,,,,,,,,,,,,
,,,,,,,,,,,,41984,2021-09-27_12h38.37.693,judgeSpeechMusic_20210921_logNormShiftAmp_detection_fixS,2020.1.2,MacIntel,60,,,,,,,,,,,,,,space,3.397,space,0.9027,1,5.6992,,0,0,0,0,37,1,stimuli/stim_20210706_power2amp/equal_lnn_AM2.4Hz_s35_41.m4a,,,,,,,,,,,,
,,,,,,,,,,,,41984,2021-09-27_12h38.37.693,judgeSpeechMusic_20210921_logNormShiftAmp_detection_fixS,2020.1.2,MacIntel,60,,,,,,,,,,,,,,,,,,1,13.2114,,0,0,1,1,72,1,stimuli/stim_20210706_power2amp/equal_lnn_AM4.2Hz_s35_33.m4a,,,,,,,,,,,,
,,,,,,,,,,,,41984,2021-09-27_12h38.37.693,judgeSpeechMusic_20210921_logNormShiftAmp_detection_fixS,2020.1.2,MacIntel,60,,,,,,,,,,,,,,,,,,1,15.3369,,0,0,2,2,30,1,stimuli/stim_20210706_power2amp/equal_lnn_AM2.4Hz_s35_23.m4a,,,,,,,,,,,,
,,,,,,,,,,,,41984,2021-09-27_12h38.37.693,judgeSpeechMusic_20210921_logNormShiftAmp_detection_fixS,2020.1.2,MacIntel,60,,,,,,,,,,,,,,,,,,1,6.6461,,0,0,3,3,8,1,stimuli/stim_20210706_power2amp/equal_lnn_AM0.6Hz_s35_9.m4a,,,,,,,,,,,,
,,,,,,,,,,,,41984,2021-09-27_12h38.37.693,judgeSpeechMusic_20210921_logNormShiftAmp_detection_fixS,2020.1.2,MacIntel,60,,,,,,,,,,,,,,,,,,1,5.813,,0,0,4,4,12,1,stimuli/stim_20210706_power2amp/equal_lnn_AM0.6Hz_s35_16.m4a,,,,,,,,,,,,
,,,,,,,,,,,,41984,2021-09-27_12h38.37.693,judgeSpeechMusic_20210921_logNormShiftAmp_detection_fixS,2020.1.2,MacIntel,60,,,,,,,,,,,,,,,,,,1,5.9959,,0,0,5,5,55,1,stimuli/stim_20210706_power2amp/equal_lnn_AM3.6Hz_s35_8.m4a,,,,,,,,,,,,
,,,,,,,,,,,,41984,2021-09-27_12h38.37.693,judgeSpeechMusic_20210921_logNormShiftAmp_detection_fixS,2020.1.2,MacIntel,60,,,,,,,,,,,,,,,,,,1,6.0864,,0,0,6,6,6,1,stimuli/stim_20210706_power2amp/equal_lnn_AM0.6Hz_s35_19.m4a,,,,,,,,,,,,
,,,,,,,,,,,,41984,2021-09-27_12h38.37.693,judgeSpeechMusic_20210921_logNormShiftAmp_detection_fixS,2020.1.2,MacIntel,60,,,,,,,,,,,,,,,,,,1,5.6299,,0,0,7,7,66,1,stimuli/stim_20210706_power2amp/equal_lnn_AM4.2Hz_s35_46.m4a,,,,,,,,,,,,
,,,,,,,,,,,,41984,2021-09-27_12h38.37.693,judgeSpeechMusic_20210921_logNormShiftAmp_detection_fixS,2020.1.2,MacIntel,60,,,,,,,,,,,,,,,,,,1,6.3576,,0,0,8,8,26,1,stimuli/stim_20210706_power2amp/equal_lnn_AM1.2Hz_s35_40.m4a,,,,,,,,,,,,
,,,,,,,,,,,,41984,2021-09-27_12h38.37.693,judgeSpeechMusic_20210921_logNormShiftAmp_detection_fixS,2020.1.2,MacIntel,60,,,,,,,,,,,,,,,,,,1,5.7074,,0,0,9,9,25,1,stimuli/stim_20210706_power2amp/equal_lnn_AM1.2Hz_s35_39.m4a,,,,,,,,,,,,
,,,,,,,,,,,,41984,2021-09-27_12h38.37.693,judgeSpeechMusic_20210921_logNormShiftAmp_detection_fixS,2020.1.2,MacIntel,60,,,,,,,,,,,,,,,,,,1,9.5038,,0,0,10,10,60,1,stimuli/stim_20210706_power2amp/equal_lnn_AM4.2Hz_s35_24.m4a,,,,,,,,,,,,
,,,,,,,,,,,,41984,2021-09-27_12h38.37.693,judgeSpeechMusic_20210921_logNormShiftAmp_detection_fixS,2020.1.2,MacIntel,60,,,,,,,,,,,,,,,,,,1,5.7189,,0,0,11,11,16,1,stimuli/stim_20210706_power2amp/equal_lnn_AM1.2Hz_s35_47.m4a,,,,,,,,,,,,
,,,,,,,,,,,,41984,2021-09-27_12h38.37.693,judgeSpeechMusic_20210921_logNormShiftAmp_detection_fixS,2020.1.2,MacIntel,60,,,,,,,,,,,,,,,,,,1,5.6692,,0,0,12,12,35,1,stimuli/stim_20210706_power2amp/equal_lnn_AM2.4Hz_s35_40.m4a,,,,,,,,,,,,
,,,,,,,,,,,,41984,2021-09-27_12h38.37.693,judgeSpeechMusic_20210921_logNormShiftAmp_detection_fixS,2020.1.2,MacIntel,60,,,,,,,,,,,,,,,,,,1,5.6442,,0,0,13,13,0,1,stimuli/stim_20210706_power2amp/equal_lnn_AM0.6Hz_s35_25.m4a,,,,,,,,,,,,
,,,,,,,,,,,,41984,2021-09-27_12h38.37.693,judgeSpeechMusic_20210921_logNormShiftAmp_detection_fixS,2020.1.2,MacIntel,60,,,,,,,,,,,,,,,,,,1,5.7513,,0,0,14,14,39,1,stimuli/stim_20210706_power2amp/equal_lnn_AM2.4Hz_s35_49.m4a,,,,,,,,,,,,
,,,,,,,,,,,,41984,2021-09-27_12h38.37.693,judgeSpeechMusic_20210921_logNormShiftAmp_detection_fixS,2020.1.2,MacIntel,60,,,,,,,,,,,,,,,,,,1,6.2569,,0,0,15,15,42,1,stimuli/stim_20210706_power2amp/equal_lnn_AM2.4Hz_s35_2.m4a,,,,,,,,,,,,
,,,,,,,,,,,,41984,2021-09-27_12h38.37.693,judgeSpeechMusic_20210921_logNormShiftAmp_detection_fixS,2020.1.2,MacIntel,60,,,,,,,,,,,,,,,,,,1,5.5723,,0,0,16,16,52,1,stimuli/stim_20210706_power2amp/equal_lnn_AM3.6Hz_s35_14.m4a,,,,,,,,,,,,
,,,,,,,,,,,,41984,2021-09-27_12h38.37.693,judgeSpeechMusic_20210921_logNormShiftAmp_detection_fixS,2020.1.2,MacIntel,60,,,,,,,,,,,,,,,,,,1,5.588,,0,0,17,17,24,1,stimuli/stim_20210706_power2amp/equal_lnn_AM1.2Hz_s35_18.m4a,,,,,,,,,,,,
,,,,,,,,,,,,41984,2021-09-27_12h38.37.693,judgeSpeechMusic_20210921_logNormShiftAmp_detection_fixS,2020.1.2,MacIntel,60,,,,,,,,,,,,,,,,,,1,5.511,3,1,0,18,18,73,1,stimuli/stim_20210706_power2amp/equal_lnn_AM4.2Hz_s35_34.m4a,0.791,,,,,,,,,,,
,,,,,,,,,,,,41984,2021-09-27_12h38.37.693,judgeSpeechMusic_20210921_logNormShiftAmp_detection_fixS,2020.1.2,MacIntel,60,,,,,,,,,,,,,,,,,,1,5.6687,,0,0,19,19,53,1,stimuli/stim_20210706_power2amp/equal_lnn_AM3.6Hz_s35_48.m4a,,,,,,,,,,,,
,,,,,,,,,,,,41984,2021-09-27_12h38.37.693,judgeSpeechMusic_20210921_logNormShiftAmp_detection_fixS,2020.1.2,MacIntel,60,,,,,,,,,,,,,,,,,,1,6.7068,,0,0,20,20,9,1,stimuli/stim_20210706_power2amp/equal_lnn_AM0.6Hz_s35_14.m4a,,,,,,,,,,,,
,,,,,,,,,,,,41984,2021-09-27_12h38.37.693,judgeSpeechMusic_20210921_logNormShiftAmp_detection_fixS,2020.1.2,MacIntel,60,,,,,,,,,,,,,,,,,,1,5.6861,,0,0,21,21,31,1,stimuli/stim_20210706_power2amp/equal_lnn_AM2.4Hz_s35_29.m4a,,,,,,,,,,,,
,,,,,,,,,,,,41984,2021-09-27_12h38.37.693,judgeSpeechMusic_20210921_logNormShiftAmp_detection_fixS,2020.1.2,MacIntel,60,,,,,,,,,,,,,,,,,,1,5.9241,,0,0,22,22,20,1,stimuli/stim_20210706_power2amp/equal_lnn_AM1.2Hz_s35_11.m4a,,,,,,,,,,,,
,,,,,,,,,,,,41984,2021-09-27_12h38.37.693,judgeSpeechMusic_20210921_logNormShiftAmp_detection_fixS,2020.1.2,MacIntel,60,,,,,,,,,,,,,,,,,,1,7.62,,0,0,23,23,46,1,stimuli/stim_20210706_power2amp/equal_lnn_AM3.6Hz_s35_27.m4a,,,,,,,,,,,,
,,,,,,,,,,,,41984,2021-09-27_12h38.37.693,judgeSpeechMusic_20210921_logNormShiftAmp_detection_fixS,2020.1.2,MacIntel,60,,,,,,,,,,,,,,,,,,1,8.9378,,0,0,24,24,69,1,stimuli/stim_20210706_power2amp/equal_lnn_AM4.2Hz_s35_4.m4a,,,,,,,,,,,,
,,,,,,,,,,,,41984,2021-09-27_12h38.37.693,judgeSpeechMusic_20210921_logNormShiftAmp_detection_fixS,2020.1.2,MacIntel,60,,,,,,,,,,,,,,,,,,1,6.3609,,0,0,25,25,38,1,stimuli/stim_20210706_power2amp/equal_lnn_AM2.4Hz_s35_42.m4a,,,,,,,,,,,,
,,,,,,,,,,,,41984,2021-09-27_12h38.37.693,judgeSpeechMusic_20210921_logNormShiftAmp_detection_fixS,2020.1.2,MacIntel,60,,,,,,,,,,,,,,,,,,1,5.6224,,0,0,26,26,50,1,stimuli/stim_20210706_power2amp/equal_lnn_AM3.6Hz_s35_13.m4a,,,,,,,,,,,,
,,,,,,,,,,,,41984,2021-09-27_12h38.37.693,judgeSpeechMusic_20210921_logNormShiftAmp_detection_fixS,2020.1.2,MacIntel,60,,,,,,,,,,,,,,,,,,1,5.8521,,0,0,27,27,61,1,stimuli/stim_20210706_power2amp/equal_lnn_AM4.2Hz_s35_7.m4a,,,,,,,,,,,,
,,,,,,,,,,,,41984,2021-09-27_12h38.37.693,judgeSpeechMusic_20210921_logNormShiftAmp_detection_fixS,2020.1.2,MacIntel,60,,,,,,,,,,,,,,,,,,1,6.2746,,0,0,28,28,41,1,stimuli/stim_20210706_power2amp/equal_lnn_AM2.4Hz_s35_3.m4a,,,,,,,,,,,,
,,,,,,,,,,,,41984,2021-09-27_12h38.37.693,judgeSpeechMusic_20210921_logNormShiftAmp_detection_fixS,2020.1.2,MacIntel,60,,,,,,,,,,,,,,,,,,1,5.6745,,0,0,29,29,3,1,stimuli/stim_20210706_power2amp/equal_lnn_AM0.6Hz_s35_5.m4a,,,,,,,,,,,,
,,,,,,,,,,,,41984,2021-09-27_12h38.37.693,judgeSpeechMusic_20210921_logNormShiftAmp_detection_fixS,2020.1.2,MacIntel,60,,,,,,,,,,,,,,,,,,1,5.8782,,0,0,30,30,29,1,stimuli/stim_20210706_power2amp/equal_lnn_AM1.2Hz_s35_38.m4a,,,,,,,,,,,,
,,,,,,,,,,,,41984,2021-09-27_12h38.37.693,judgeSpeechMusic_20210921_logNormShiftAmp_detection_fixS,2020.1.2,MacIntel,60,,,,,,,,,,,,,,,,,,1,5.7269,,0,0,31,31,2,1,stimuli/stim_20210706_power2amp/equal_lnn_AM0.6Hz_s35_23.m4a,,,,,,,,,,,,
,,,,,,,,,,,,41984,2021-09-27_12h38.37.693,judgeSpeechMusic_20210921_logNormShiftAmp_detection_fixS,2020.1.2,MacIntel,60,,,,,,,,,,,,,,,,,,1,5.5887,,0,0,32,32,34,1,stimuli/stim_20210706_power2amp/equal_lnn_AM2.4Hz_s35_35.m4a,,,,,,,,,,,,
,,,,,,,,,,,,41984,2021-09-27_12h38.37.693,judgeSpeechMusic_20210921_logNormShiftAmp_detection_fixS,2020.1.2,MacIntel,60,,,,,,,,,,,,,,,,,,1,5.8404,,0,0,33,33,67,1,stimuli/stim_20210706_power2amp/equal_lnn_AM4.2Hz_s35_23.m4a,,,,,,,,,,,,
,,,,,,,,,,,,41984,2021-09-27_12h38.37.693,judgeSpeechMusic_20210921_logNormShiftAmp_detection_fixS,2020.1.2,MacIntel,60,,,,,,,,,,,,,,,,,,1,5.8036,,0,0,34,34,70,1,stimuli/stim_20210706_power2amp/equal_lnn_AM4.2Hz_s35_28.m4a,,,,,,,,,,,,
,,,,,,,,,,,,41984,2021-09-27_12h38.37.693,judgeSpeechMusic_20210921_logNormShiftAmp_detection_fixS,2020.1.2,MacIntel,60,,,,,,,,,,,,,,,,,,1,6.0583,,0,0,35,35,40,1,stimuli/stim_20210706_power2amp/equal_lnn_AM2.4Hz_s35_13.m4a,,,,,,,,,,,,
,,,,,,,,,,,,41984,2021-09-27_12h38.37.693,judgeSpeechMusic_20210921_logNormShiftAmp_detection_fixS,2020.1.2,MacIntel,60,,,,,,,,,,,,,,,,,,1,5.543,,0,0,36,36,58,1,stimuli/stim_20210706_power2amp/equal_lnn_AM3.6Hz_s35_21.m4a,,,,,,,,,,,,
,,,,,,,,,,,,41984,2021-09-27_12h38.37.693,judgeSpeechMusic_20210921_logNormShiftAmp_detection_fixS,2020.1.2,MacIntel,60,,,,,,,,,,,,,,,,,,1,5.574,4,1,0,37,37,11,1,stimuli/stim_20210706_power2amp/equal_lnn_AM0.6Hz_s35_43.m4a,0.6567,,,,,,,,,,,
,,,,,,,,,,,,41984,2021-09-27_12h38.37.693,judgeSpeechMusic_20210921_logNormShiftAmp_detection_fixS,2020.1.2,MacIntel,60,,,,,,,,,,,,,,,,,,1,5.6437,,0,0,38,38,1,1,stimuli/stim_20210706_power2amp/equal_lnn_AM0.6Hz_s35_31.m4a,,,,,,,,,,,,
,,,,,,,,,,,,41984,2021-09-27_12h38.37.693,judgeSpeechMusic_20210921_logNormShiftAmp_detection_fixS,2020.1.2,MacIntel,60,,,,,,,,,,,,,,,,,,1,5.4604,,0,0,39,39,57,1,stimuli/stim_20210706_power2amp/equal_lnn_AM3.6Hz_s35_44.m4a,,,,,,,,,,,,
,,,,,,,,,,,,41984,2021-09-27_12h38.37.693,judgeSpeechMusic_20210921_logNormShiftAmp_detection_fixS,2020.1.2,MacIntel,60,,,,,,,,,,,,,,,,,,1,5.7931,,0,0,40,40,22,1,stimuli/stim_20210706_power2amp/equal_lnn_AM1.2Hz_s35_29.m4a,,,,,,,,,,,,
,,,,,,,,,,,,41984,2021-09-27_12h38.37.693,judgeSpeechMusic_20210921_logNormShiftAmp_detection_fixS,2020.1.2,MacIntel,60,,,,,,,,,,,,,,,,,,1,5.5871,,0,0,41,41,21,1,stimuli/stim_20210706_power2amp/equal_lnn_AM1.2Hz_s35_10.m4a,,,,,,,,,,,,
,,,,,,,,,,,,41984,2021-09-27_12h38.37.693,judgeSpeechMusic_20210921_logNormShiftAmp_detection_fixS,2020.1.2,MacIntel,60,,,,,,,,,,,,,,,,,,1,5.7545,,0,0,42,42,71,1,stimuli/stim_20210706_power2amp/equal_lnn_AM4.2Hz_s35_2.m4a,,,,,,,,,,,,
,,,,,,,,,,,,41984,2021-09-27_12h38.37.693,judgeSpeechMusic_20210921_logNormShiftAmp_detection_fixS,2020.1.2,MacIntel,60,,,,,,,,,,,,,,,,,,1,5.7277,,0,0,43,43,36,1,stimuli/stim_20210706_power2amp/equal_lnn_AM2.4Hz_s35_32.m4a,,,,,,,,,,,,
,,,,,,,,,,,,41984,2021-09-27_12h38.37.693,judgeSpeechMusic_20210921_logNormShiftAmp_detection_fixS,2020.1.2,MacIntel,60,,,,,,,,,,,,,,,,,,1,5.5867,,0,0,44,44,54,1,stimuli/stim_20210706_power2amp/equal_lnn_AM3.6Hz_s35_35.m4a,,,,,,,,,,,,
,,,,,,,,,,,,41984,2021-09-27_12h38.37.693,judgeSpeechMusic_20210921_logNormShiftAmp_detection_fixS,2020.1.2,MacIntel,60,,,,,,,,,,,,,,,,,,1,5.5421,,0,0,45,45,4,1,stimuli/stim_20210706_power2amp/equal_lnn_AM0.6Hz_s35_4.m4a,,,,,,,,,,,,
,,,,,,,,,,,,41984,2021-09-27_12h38.37.693,judgeSpeechMusic_20210921_logNormShiftAmp_detection_fixS,2020.1.2,MacIntel,60,,,,,,,,,,,,,,,,,,1,5.5911,,0,0,46,46,32,1,stimuli/stim_20210706_power2amp/equal_lnn_AM2.4Hz_s35_28.m4a,,,,,,,,,,,,
,,,,,,,,,,,,41984,2021-09-27_12h38.37.693,judgeSpeechMusic_20210921_logNormShiftAmp_detection_fixS,2020.1.2,MacIntel,60,,,,,,,,,,,,,,,,,,1,5.6595,,0,0,47,47,48,1,stimuli/stim_20210706_power2amp/equal_lnn_AM3.6Hz_s35_22.m4a,,,,,,,,,,,,
,,,,,,,,,,,,41984,2021-09-27_12h38.37.693,judgeSpeechMusic_20210921_logNormShiftAmp_detection_fixS,2020.1.2,MacIntel,60,,,,,,,,,,,,,,,,,,1,5.6346,,0,0,48,48,68,1,stimuli/stim_20210706_power2amp/equal_lnn_AM4.2Hz_s35_32.m4a,,,,,,,,,,,,
,,,,,,,,,,,,41984,2021-09-27_12h38.37.693,judgeSpeechMusic_20210921_logNormShiftAmp_detection_fixS,2020.1.2,MacIntel,60,,,,,,,,,,,,,,,,,,1,5.4741,,0,0,49,49,13,1,stimuli/stim_20210706_power2amp/equal_lnn_AM0.6Hz_s35_27.m4a,,,,,,,,,,,,
,,,,,,,,,,,,41984,2021-09-27_12h38.37.693,judgeSpeechMusic_20210921_logNormShiftAmp_detection_fixS,2020.1.2,MacIntel,60,,,,,,,,,,,,,,,,,,1,6.0105,,0,0,50,50,62,1,stimuli/stim_20210706_power2amp/equal_lnn_AM4.2Hz_s35_3.m4a,,,,,,,,,,,,
,,,,,,,,,,,,41984,2021-09-27_12h38.37.693,judgeSpeechMusic_20210921_logNormShiftAmp_detection_fixS,2020.1.2,MacIntel,60,,,,,,,,,,,,,,,,,,1,13.1672,,0,0,51,51,45,1,stimuli/stim_20210706_power2amp/equal_lnn_AM3.6Hz_s35_38.m4a,,,,,,,,,,,,
,,,,,,,,,,,,41984,2021-09-27_12h38.37.693,judgeSpeechMusic_20210921_logNormShiftAmp_detection_fixS,2020.1.2,MacIntel,60,,,,,,,,,,,,,,,,,,1,5.6921,,0,0,52,52,49,1,stimuli/stim_20210706_power2amp/equal_lnn_AM3.6Hz_s35_17.m4a,,,,,,,,,,,,
,,,,,,,,,,,,41984,2021-09-27_12h38.37.693,judgeSpeechMusic_20210921_logNormShiftAmp_detection_fixS,2020.1.2,MacIntel,60,,,,,,,,,,,,,,,,,,1,5.5374,,0,0,53,53,43,1,stimuli/stim_20210706_power2amp/equal_lnn_AM2.4Hz_s35_26.m4a,,,,,,,,,,,,
,,,,,,,,,,,,41984,2021-09-27_12h38.37.693,judgeSpeechMusic_20210921_logNormShiftAmp_detection_fixS,2020.1.2,MacIntel,60,,,,,,,,,,,,,,,,,,1,5.7586,,0,0,54,54,15,1,stimuli/stim_20210706_power2amp/equal_lnn_AM1.2Hz_s35_6.m4a,,,,,,,,,,,,
,,,,,,,,,,,,41984,2021-09-27_12h38.37.693,judgeSpeechMusic_20210921_logNormShiftAmp_detection_fixS,2020.1.2,MacIntel,60,,,,,,,,,,,,,,,,,,1,5.5199,1,1,0,55,55,63,1,stimuli/stim_20210706_power2amp/equal_lnn_AM4.2Hz_s35_41.m4a,1.7908,,,,,,,,,,,
,,,,,,,,,,,,41984,2021-09-27_12h38.37.693,judgeSpeechMusic_20210921_logNormShiftAmp_detection_fixS,2020.1.2,MacIntel,60,,,,,,,,,,,,,,,,,,1,5.778,,0,0,56,56,56,1,stimuli/stim_20210706_power2amp/equal_lnn_AM3.6Hz_s35_45.m4a,,,,,,,,,,,,
,,,,,,,,,,,,41984,2021-09-27_12h38.37.693,judgeSpeechMusic_20210921_logNormShiftAmp_detection_fixS,2020.1.2,MacIntel,60,,,,,,,,,,,,,,,,,,1,5.9177,,0,0,57,57,18,1,stimuli/stim_20210706_power2amp/equal_lnn_AM1.2Hz_s35_45.m4a,,,,,,,,,,,,
,,,,,,,,,,,,41984,2021-09-27_12h38.37.693,judgeSpeechMusic_20210921_logNormShiftAmp_detection_fixS,2020.1.2,MacIntel,60,,,,,,,,,,,,,,,,,,1,6.1703,,0,0,58,58,17,1,stimuli/stim_20210706_power2amp/equal_lnn_AM1.2Hz_s35_43.m4a,,,,,,,,,,,,
,,,,,,,,,,,,41984,2021-09-27_12h38.37.693,judgeSpeechMusic_20210921_logNormShiftAmp_detection_fixS,2020.1.2,MacIntel,60,,,,,,,,,,,,,,,,,,1,5.7051,,0,0,59,59,65,1,stimuli/stim_20210706_power2amp/equal_lnn_AM4.2Hz_s35_13.m4a,,,,,,,,,,,,
,,,,,,,,,,,,41984,2021-09-27_12h38.37.693,judgeSpeechMusic_20210921_logNormShiftAmp_detection_fixS,2020.1.2,MacIntel,60,,,,,,,,,,,,,,,,,,1,5.6372,,0,0,60,60,10,1,stimuli/stim_20210706_power2amp/equal_lnn_AM0.6Hz_s35_2.m4a,,,,,,,,,,,,
,,,,,,,,,,,,41984,2021-09-27_12h38.37.693,judgeSpeechMusic_20210921_logNormShiftAmp_detection_fixS,2020.1.2,MacIntel,60,,,,,,,,,,,,,,,,,,1,5.5858,,0,0,61,61,7,1,stimuli/stim_20210706_power2amp/equal_lnn_AM0.6Hz_s35_26.m4a,,,,,,,,,,,,
,,,,,,,,,,,,41984,2021-09-27_12h38.37.693,judgeSpeechMusic_20210921_logNormShiftAmp_detection_fixS,2020.1.2,MacIntel,60,,,,,,,,,,,,,,,,,,1,5.5847,,0,0,62,62,59,1,stimuli/stim_20210706_power2amp/equal_lnn_AM3.6Hz_s35_43.m4a,,,,,,,,,,,,
,,,,,,,,,,,,41984,2021-09-27_12h38.37.693,judgeSpeechMusic_20210921_logNormShiftAmp_detection_fixS,2020.1.2,MacIntel,60,,,,,,,,,,,,,,,,,,1,8.6252,,0,0,63,63,74,1,stimuli/stim_20210706_power2amp/equal_lnn_AM4.2Hz_s35_49.m4a,,,,,,,,,,,,
,,,,,,,,,,,,41984,2021-09-27_12h38.37.693,judgeSpeechMusic_20210921_logNormShiftAmp_detection_fixS,2020.1.2,MacIntel,60,,,,,,,,,,,,,,,,,,1,5.4034,,0,0,64,64,47,1,stimuli/stim_20210706_power2amp/equal_lnn_AM3.6Hz_s35_24.m4a,,,,,,,,,,,,
,,,,,,,,,,,,41984,2021-09-27_12h38.37.693,judgeSpeechMusic_20210921_logNormShiftAmp_detection_fixS,2020.1.2,MacIntel,60,,,,,,,,,,,,,,,,,,1,5.6058,,0,0,65,65,28,1,stimuli/stim_20210706_power2amp/equal_lnn_AM1.2Hz_s35_8.m4a,,,,,,,,,,,,
,,,,,,,,,,,,41984,2021-09-27_12h38.37.693,judgeSpeechMusic_20210921_logNormShiftAmp_detection_fixS,2020.1.2,MacIntel,60,,,,,,,,,,,,,,,,,,1,5.9614,,0,0,66,66,5,1,stimuli/stim_20210706_power2amp/equal_lnn_AM0.6Hz_s35_11.m4a,,,,,,,,,,,,
,,,,,,,,,,,,41984,2021-09-27_12h38.37.693,judgeSpeechMusic_20210921_logNormShiftAmp_detection_fixS,2020.1.2,MacIntel,60,,,,,,,,,,,,,,,,,,1,5.6219,,0,0,67,67,23,1,stimuli/stim_20210706_power2amp/equal_lnn_AM1.2Hz_s35_9.m4a,,,,,,,,,,,,
,,,,,,,,,,,,41984,2021-09-27_12h38.37.693,judgeSpeechMusic_20210921_logNormShiftAmp_detection_fixS,2020.1.2,MacIntel,60,,,,,,,,,,,,,,,,,,1,5.6879,,0,0,68,68,51,1,stimuli/stim_20210706_power2amp/equal_lnn_AM3.6Hz_s35_20.m4a,,,,,,,,,,,,
,,,,,,,,,,,,41984,2021-09-27_12h38.37.693,judgeSpeechMusic_20210921_logNormShiftAmp_detection_fixS,2020.1.2,MacIntel,60,,,,,,,,,,,,,,,,,,1,5.9568,,0,0,69,69,14,1,stimuli/stim_20210706_power2amp/equal_lnn_AM0.6Hz_s35_38.m4a,,,,,,,,,,,,
,,,,,,,,,,,,41984,2021-09-27_12h38.37.693,judgeSpeechMusic_20210921_logNormShiftAmp_detection_fixS,2020.1.2,MacIntel,60,,,,,,,,,,,,,,,,,,1,5.6212,,0,0,70,70,19,1,stimuli/stim_20210706_power2amp/equal_lnn_AM1.2Hz_s35_4.m4a,,,,,,,,,,,,
,,,,,,,,,,,,41984,2021-09-27_12h38.37.693,judgeSpeechMusic_20210921_logNormShiftAmp_detection_fixS,2020.1.2,MacIntel,60,,,,,,,,,,,,,,,,,,1,5.5547,,0,0,71,71,44,1,stimuli/stim_20210706_power2amp/equal_lnn_AM2.4Hz_s35_48.m4a,,,,,,,,,,,,
,,,,,,,,,,,,41984,2021-09-27_12h38.37.693,judgeSpeechMusic_20210921_logNormShiftAmp_detection_fixS,2020.1.2,MacIntel,60,,,,,,,,,,,,,,,,,,1,6.2901,,0,0,72,72,27,1,stimuli/stim_20210706_power2amp/equal_lnn_AM1.2Hz_s35_46.m4a,,,,,,,,,,,,
,,,,,,,,,,,,41984,2021-09-27_12h38.37.693,judgeSpeechMusic_20210921_logNormShiftAmp_detection_fixS,2020.1.2,MacIntel,60,,,,,,,,,,,,,,,,,,1,6.4586,,0,0,73,73,33,1,stimuli/stim_20210706_power2amp/equal_lnn_AM2.4Hz_s35_50.m4a,,,,,,,,,,,,
,,,,,,,,,,,,41984,2021-09-27_12h38.37.693,judgeSpeechMusic_20210921_logNormShiftAmp_detection_fixS,2020.1.2,MacIntel,60,,,,,,,,,,,,,,,,,,1,6.9613,,0,0,74,74,64,1,stimuli/stim_20210706_power2amp/equal_lnn_AM4.2Hz_s35_25.m4a,,,,,,,,,,,,
,,,,,,,,,,,,41984,2021-09-27_12h38.37.693,judgeSpeechMusic_20210921_logNormShiftAmp_detection_fixS,2020.1.2,MacIntel,60,,,,,,,,,,,,,,,,,,,,,,,,,,,,,,,1,1,3,1,1,SPEECH,stimuli/SPEECH.jpg,,
,,,,,,,,,,,,41984,2021-09-27_12h38.37.693,judgeSpeechMusic_20210921_logNormShiftAmp_detection_fixS,2020.1.2,MacIntel,60,,,,,,,,,,,,,,,,,,,,,,,,,,,,,,,,,,,,,,space,8.025
