headphoneResponse.keys,headphoneResponse.corr,headphoneResponse.rt,headphoneTrial.thisRepN,headphoneTrial.thisTrialN,headphoneTrial.thisN,headphoneTrial.thisIndex,headphoneTrial.ran,headphone_sound1,headphone_sound2,headphone_sound3,corrAns,participant,date,expName,psychopyVersion,OS,frameRate,checkInstruKey.keys,checkInstruKey.rt,trainSlider.response,trainSlider.rt,beepTrainResponse.keys,beepTrainResponse.corr,trainingTrials.thisRepN,trainingTrials.thisTrialN,trainingTrials.thisN,trainingTrials.thisIndex,trainingTrials.ran,trainAudioFile,beepTrainResponse.rt,readyReal_resp.keys,readyReal_resp.rt,checkInstru2_key.keys,checkInstru2_key.rt,ratingSlider.response,ratingSlider.rt,beepResp.keys,beepResp.corr,expTrials.thisRepN,expTrials.thisTrialN,expTrials.thisN,expTrials.thisIndex,expTrials.ran,audioFile,beepResp.rt,switchBlock_space.keys,switchBlock_space.rt,block.thisRepN,block.thisTrialN,block.thisN,block.thisIndex,block.ran,blockName,blockImage,end_resp.keys,end_resp.rt
2,0,2.567,0,0,0,5,1,stimuli/screen_quiet.wav,stimuli/screen_origin.wav,stimuli/screen_antiphase.wav,1,42093,2021-09-25_11h24.19.387,judgeSpeechMusic_20210921_logNormShiftAmp_detection_fixS,2020.1.2,MacIntel,60,,,,,,,,,,,,,,,,,,,,,,,,,,,,,,,,,,,,,,,
2,1,1.1408,0,1,1,3,1,stimuli/screen_origin.wav,stimuli/screen_quiet.wav,stimuli/screen_antiphase.wav,2,42093,2021-09-25_11h24.19.387,judgeSpeechMusic_20210921_logNormShiftAmp_detection_fixS,2020.1.2,MacIntel,60,,,,,,,,,,,,,,,,,,,,,,,,,,,,,,,,,,,,,,,
3,1,0.8834,0,2,2,0,1,stimuli/screen_antiphase.wav,stimuli/screen_origin.wav,stimuli/screen_quiet.wav,3,42093,2021-09-25_11h24.19.387,judgeSpeechMusic_20210921_logNormShiftAmp_detection_fixS,2020.1.2,MacIntel,60,,,,,,,,,,,,,,,,,,,,,,,,,,,,,,,,,,,,,,,
2,1,0.4525,0,3,3,1,1,stimuli/screen_antiphase.wav,stimuli/screen_quiet.wav,stimuli/screen_origin.wav,2,42093,2021-09-25_11h24.19.387,judgeSpeechMusic_20210921_logNormShiftAmp_detection_fixS,2020.1.2,MacIntel,60,,,,,,,,,,,,,,,,,,,,,,,,,,,,,,,,,,,,,,,
3,1,0.6431,0,4,4,2,1,stimuli/screen_origin.wav,stimuli/screen_antiphase.wav,stimuli/screen_quiet.wav,3,42093,2021-09-25_11h24.19.387,judgeSpeechMusic_20210921_logNormShiftAmp_detection_fixS,2020.1.2,MacIntel,60,,,,,,,,,,,,,,,,,,,,,,,,,,,,,,,,,,,,,,,
1,1,0.5532,0,5,5,4,1,stimuli/screen_quiet.wav,stimuli/screen_antiphase.wav,stimuli/screen_origin.wav,1,42093,2021-09-25_11h24.19.387,judgeSpeechMusic_20210921_logNormShiftAmp_detection_fixS,2020.1.2,MacIntel,60,,,,,,,,,,,,,,,,,,,,,,,,,,,,,,,,,,,,,,,
,,,,,,,,,,,,42093,2021-09-25_11h24.19.387,judgeSpeechMusic_20210921_logNormShiftAmp_detection_fixS,2020.1.2,MacIntel,60,space,0.9678,1,11.5227,,0,0,0,0,1,1,stimuli/stim_20210706_power2amp/equal_lnn_AM_training1.8Hz_s35.m4a,,,,,,,,,,,,,,,,,,,,,,,,,,,
,,,,,,,,,,,,42093,2021-09-25_11h24.19.387,judgeSpeechMusic_20210921_logNormShiftAmp_detection_fixS,2020.1.2,MacIntel,60,,,1,7.2795,,0,0,1,1,2,1,stimuli/stim_20210706_power2amp/equal_lnn_AM_training3Hz_s35.m4a,,,,,,,,,,,,,,,,,,,,,,,,,,,
,,,,,,,,,,,,42093,2021-09-25_11h24.19.387,judgeSpeechMusic_20210921_logNormShiftAmp_detection_fixS,2020.1.2,MacIntel,60,,,2,6.7873,4,1,0,2,2,0,1,stimuli/stim_20210706_power2amp/equal_lnn_AM_training0.9Hz_s35.m4a,2.1523,,,,,,,,,,,,,,,,,,,,,,,,,,
,,,,,,,,,,,,42093,2021-09-25_11h24.19.387,judgeSpeechMusic_20210921_logNormShiftAmp_detection_fixS,2020.1.2,MacIntel,60,,,1,6.8639,,0,0,3,3,3,1,stimuli/stim_20210706_power2amp/equal_lnn_AM_training3.9Hz_s35.m4a,,,,,,,,,,,,,,,,,,,,,,,,,,,
,,,,,,,,,,,,42093,2021-09-25_11h24.19.387,judgeSpeechMusic_20210921_logNormShiftAmp_detection_fixS,2020.1.2,MacIntel,60,,,,,,,,,,,,,,space,7.514,space,0.6356,2,7.3259,,0,0,0,0,22,1,stimuli/stim_20210706_power2amp/equal_lnn_AM1.2Hz_s35_26.m4a,,,,,,,,,,,,
,,,,,,,,,,,,42093,2021-09-25_11h24.19.387,judgeSpeechMusic_20210921_logNormShiftAmp_detection_fixS,2020.1.2,MacIntel,60,,,,,,,,,,,,,,,,,,1,5.9203,,0,0,1,1,68,1,stimuli/stim_20210706_power2amp/equal_lnn_AM4.2Hz_s35_35.m4a,,,,,,,,,,,,
,,,,,,,,,,,,42093,2021-09-25_11h24.19.387,judgeSpeechMusic_20210921_logNormShiftAmp_detection_fixS,2020.1.2,MacIntel,60,,,,,,,,,,,,,,,,,,1,8.9044,,0,0,2,2,45,1,stimuli/stim_20210706_power2amp/equal_lnn_AM3.6Hz_s35_23.m4a,,,,,,,,,,,,
,,,,,,,,,,,,42093,2021-09-25_11h24.19.387,judgeSpeechMusic_20210921_logNormShiftAmp_detection_fixS,2020.1.2,MacIntel,60,,,,,,,,,,,,,,,,,,1,7.0695,,0,0,3,3,53,1,stimuli/stim_20210706_power2amp/equal_lnn_AM3.6Hz_s35_15.m4a,,,,,,,,,,,,
,,,,,,,,,,,,42093,2021-09-25_11h24.19.387,judgeSpeechMusic_20210921_logNormShiftAmp_detection_fixS,2020.1.2,MacIntel,60,,,,,,,,,,,,,,,,,,2,6.7256,,0,0,4,4,13,1,stimuli/stim_20210706_power2amp/equal_lnn_AM0.6Hz_s35_48.m4a,,,,,,,,,,,,
,,,,,,,,,,,,42093,2021-09-25_11h24.19.387,judgeSpeechMusic_20210921_logNormShiftAmp_detection_fixS,2020.1.2,MacIntel,60,,,,,,,,,,,,,,,,,,2,6.1201,,0,0,5,5,72,1,stimuli/stim_20210706_power2amp/equal_lnn_AM4.2Hz_s35_18.m4a,,,,,,,,,,,,
,,,,,,,,,,,,42093,2021-09-25_11h24.19.387,judgeSpeechMusic_20210921_logNormShiftAmp_detection_fixS,2020.1.2,MacIntel,60,,,,,,,,,,,,,,,,,,1,7.1692,,0,0,6,6,46,1,stimuli/stim_20210706_power2amp/equal_lnn_AM3.6Hz_s35_4.m4a,,,,,,,,,,,,
,,,,,,,,,,,,42093,2021-09-25_11h24.19.387,judgeSpeechMusic_20210921_logNormShiftAmp_detection_fixS,2020.1.2,MacIntel,60,,,,,,,,,,,,,,,,,,2,6.2658,,0,0,7,7,30,1,stimuli/stim_20210706_power2amp/equal_lnn_AM2.4Hz_s35_16.m4a,,,,,,,,,,,,
,,,,,,,,,,,,42093,2021-09-25_11h24.19.387,judgeSpeechMusic_20210921_logNormShiftAmp_detection_fixS,2020.1.2,MacIntel,60,,,,,,,,,,,,,,,,,,2,5.9406,,0,0,8,8,58,1,stimuli/stim_20210706_power2amp/equal_lnn_AM3.6Hz_s35_6.m4a,,,,,,,,,,,,
,,,,,,,,,,,,42093,2021-09-25_11h24.19.387,judgeSpeechMusic_20210921_logNormShiftAmp_detection_fixS,2020.1.2,MacIntel,60,,,,,,,,,,,,,,,,,,1,6.1191,,0,0,9,9,11,1,stimuli/stim_20210706_power2amp/equal_lnn_AM0.6Hz_s35_22.m4a,,,,,,,,,,,,
,,,,,,,,,,,,42093,2021-09-25_11h24.19.387,judgeSpeechMusic_20210921_logNormShiftAmp_detection_fixS,2020.1.2,MacIntel,60,,,,,,,,,,,,,,,,,,1,6.8218,,0,0,10,10,48,1,stimuli/stim_20210706_power2amp/equal_lnn_AM3.6Hz_s35_1.m4a,,,,,,,,,,,,
,,,,,,,,,,,,42093,2021-09-25_11h24.19.387,judgeSpeechMusic_20210921_logNormShiftAmp_detection_fixS,2020.1.2,MacIntel,60,,,,,,,,,,,,,,,,,,2,6.1596,,0,0,11,11,74,1,stimuli/stim_20210706_power2amp/equal_lnn_AM4.2Hz_s35_19.m4a,,,,,,,,,,,,
,,,,,,,,,,,,42093,2021-09-25_11h24.19.387,judgeSpeechMusic_20210921_logNormShiftAmp_detection_fixS,2020.1.2,MacIntel,60,,,,,,,,,,,,,,,,,,2,12.7623,,0,0,12,12,37,1,stimuli/stim_20210706_power2amp/equal_lnn_AM2.4Hz_s35_17.m4a,,,,,,,,,,,,
,,,,,,,,,,,,42093,2021-09-25_11h24.19.387,judgeSpeechMusic_20210921_logNormShiftAmp_detection_fixS,2020.1.2,MacIntel,60,,,,,,,,,,,,,,,,,,2,14.8101,,0,0,13,13,44,1,stimuli/stim_20210706_power2amp/equal_lnn_AM2.4Hz_s35_10.m4a,,,,,,,,,,,,
,,,,,,,,,,,,42093,2021-09-25_11h24.19.387,judgeSpeechMusic_20210921_logNormShiftAmp_detection_fixS,2020.1.2,MacIntel,60,,,,,,,,,,,,,,,,,,1,5.8872,,0,0,14,14,0,1,stimuli/stim_20210706_power2amp/equal_lnn_AM0.6Hz_s35_7.m4a,,,,,,,,,,,,
,,,,,,,,,,,,42093,2021-09-25_11h24.19.387,judgeSpeechMusic_20210921_logNormShiftAmp_detection_fixS,2020.1.2,MacIntel,60,,,,,,,,,,,,,,,,,,2,8.2107,,0,0,15,15,23,1,stimuli/stim_20210706_power2amp/equal_lnn_AM1.2Hz_s35_27.m4a,,,,,,,,,,,,
,,,,,,,,,,,,42093,2021-09-25_11h24.19.387,judgeSpeechMusic_20210921_logNormShiftAmp_detection_fixS,2020.1.2,MacIntel,60,,,,,,,,,,,,,,,,,,2,9.6746,,0,0,16,16,71,1,stimuli/stim_20210706_power2amp/equal_lnn_AM4.2Hz_s35_39.m4a,,,,,,,,,,,,
,,,,,,,,,,,,42093,2021-09-25_11h24.19.387,judgeSpeechMusic_20210921_logNormShiftAmp_detection_fixS,2020.1.2,MacIntel,60,,,,,,,,,,,,,,,,,,1,6.3699,,0,0,17,17,27,1,stimuli/stim_20210706_power2amp/equal_lnn_AM1.2Hz_s35_41.m4a,,,,,,,,,,,,
,,,,,,,,,,,,42093,2021-09-25_11h24.19.387,judgeSpeechMusic_20210921_logNormShiftAmp_detection_fixS,2020.1.2,MacIntel,60,,,,,,,,,,,,,,,,,,1,5.7552,,0,0,18,18,2,1,stimuli/stim_20210706_power2amp/equal_lnn_AM0.6Hz_s35_33.m4a,,,,,,,,,,,,
,,,,,,,,,,,,42093,2021-09-25_11h24.19.387,judgeSpeechMusic_20210921_logNormShiftAmp_detection_fixS,2020.1.2,MacIntel,60,,,,,,,,,,,,,,,,,,1,6.0447,,0,0,19,19,3,1,stimuli/stim_20210706_power2amp/equal_lnn_AM0.6Hz_s35_45.m4a,,,,,,,,,,,,
,,,,,,,,,,,,42093,2021-09-25_11h24.19.387,judgeSpeechMusic_20210921_logNormShiftAmp_detection_fixS,2020.1.2,MacIntel,60,,,,,,,,,,,,,,,,,,2,7.8206,2,1,0,20,20,39,1,stimuli/stim_20210706_power2amp/equal_lnn_AM2.4Hz_s35_24.m4a,1.1804,,,,,,,,,,,
,,,,,,,,,,,,42093,2021-09-25_11h24.19.387,judgeSpeechMusic_20210921_logNormShiftAmp_detection_fixS,2020.1.2,MacIntel,60,,,,,,,,,,,,,,,,,,2,5.9175,,0,0,21,21,50,1,stimuli/stim_20210706_power2amp/equal_lnn_AM3.6Hz_s35_29.m4a,,,,,,,,,,,,
,,,,,,,,,,,,42093,2021-09-25_11h24.19.387,judgeSpeechMusic_20210921_logNormShiftAmp_detection_fixS,2020.1.2,MacIntel,60,,,,,,,,,,,,,,,,,,2,6.7231,,0,0,22,22,60,1,stimuli/stim_20210706_power2amp/equal_lnn_AM4.2Hz_s35_42.m4a,,,,,,,,,,,,
,,,,,,,,,,,,42093,2021-09-25_11h24.19.387,judgeSpeechMusic_20210921_logNormShiftAmp_detection_fixS,2020.1.2,MacIntel,60,,,,,,,,,,,,,,,,,,2,6.1409,,0,0,23,23,15,1,stimuli/stim_20210706_power2amp/equal_lnn_AM1.2Hz_s35_29.m4a,,,,,,,,,,,,
,,,,,,,,,,,,42093,2021-09-25_11h24.19.387,judgeSpeechMusic_20210921_logNormShiftAmp_detection_fixS,2020.1.2,MacIntel,60,,,,,,,,,,,,,,,,,,2,6.8346,,0,0,24,24,20,1,stimuli/stim_20210706_power2amp/equal_lnn_AM1.2Hz_s35_20.m4a,,,,,,,,,,,,
,,,,,,,,,,,,42093,2021-09-25_11h24.19.387,judgeSpeechMusic_20210921_logNormShiftAmp_detection_fixS,2020.1.2,MacIntel,60,,,,,,,,,,,,,,,,,,2,6.9352,,0,0,25,25,28,1,stimuli/stim_20210706_power2amp/equal_lnn_AM1.2Hz_s35_3.m4a,,,,,,,,,,,,
,,,,,,,,,,,,42093,2021-09-25_11h24.19.387,judgeSpeechMusic_20210921_logNormShiftAmp_detection_fixS,2020.1.2,MacIntel,60,,,,,,,,,,,,,,,,,,1,6.0635,,0,0,26,26,33,1,stimuli/stim_20210706_power2amp/equal_lnn_AM2.4Hz_s35_11.m4a,,,,,,,,,,,,
,,,,,,,,,,,,42093,2021-09-25_11h24.19.387,judgeSpeechMusic_20210921_logNormShiftAmp_detection_fixS,2020.1.2,MacIntel,60,,,,,,,,,,,,,,,,,,1,5.7666,,0,0,27,27,7,1,stimuli/stim_20210706_power2amp/equal_lnn_AM0.6Hz_s35_21.m4a,,,,,,,,,,,,
,,,,,,,,,,,,42093,2021-09-25_11h24.19.387,judgeSpeechMusic_20210921_logNormShiftAmp_detection_fixS,2020.1.2,MacIntel,60,,,,,,,,,,,,,,,,,,2,6.1337,,0,0,28,28,64,1,stimuli/stim_20210706_power2amp/equal_lnn_AM4.2Hz_s35_30.m4a,,,,,,,,,,,,
,,,,,,,,,,,,42093,2021-09-25_11h24.19.387,judgeSpeechMusic_20210921_logNormShiftAmp_detection_fixS,2020.1.2,MacIntel,60,,,,,,,,,,,,,,,,,,2,8.5924,,0,0,29,29,69,1,stimuli/stim_20210706_power2amp/equal_lnn_AM4.2Hz_s35_26.m4a,,,,,,,,,,,,
,,,,,,,,,,,,42093,2021-09-25_11h24.19.387,judgeSpeechMusic_20210921_logNormShiftAmp_detection_fixS,2020.1.2,MacIntel,60,,,,,,,,,,,,,,,,,,2,7.9174,,0,0,30,30,19,1,stimuli/stim_20210706_power2amp/equal_lnn_AM1.2Hz_s35_38.m4a,,,,,,,,,,,,
,,,,,,,,,,,,42093,2021-09-25_11h24.19.387,judgeSpeechMusic_20210921_logNormShiftAmp_detection_fixS,2020.1.2,MacIntel,60,,,,,,,,,,,,,,,,,,2,11.6416,,0,0,31,31,54,1,stimuli/stim_20210706_power2amp/equal_lnn_AM3.6Hz_s35_44.m4a,,,,,,,,,,,,
,,,,,,,,,,,,42093,2021-09-25_11h24.19.387,judgeSpeechMusic_20210921_logNormShiftAmp_detection_fixS,2020.1.2,MacIntel,60,,,,,,,,,,,,,,,,,,2,7.5916,,0,0,32,32,18,1,stimuli/stim_20210706_power2amp/equal_lnn_AM1.2Hz_s35_50.m4a,,,,,,,,,,,,
,,,,,,,,,,,,42093,2021-09-25_11h24.19.387,judgeSpeechMusic_20210921_logNormShiftAmp_detection_fixS,2020.1.2,MacIntel,60,,,,,,,,,,,,,,,,,,1,7.7962,,0,0,33,33,24,1,stimuli/stim_20210706_power2amp/equal_lnn_AM1.2Hz_s35_8.m4a,,,,,,,,,,,,
,,,,,,,,,,,,42093,2021-09-25_11h24.19.387,judgeSpeechMusic_20210921_logNormShiftAmp_detection_fixS,2020.1.2,MacIntel,60,,,,,,,,,,,,,,,,,,2,8.5434,,0,0,34,34,6,1,stimuli/stim_20210706_power2amp/equal_lnn_AM0.6Hz_s35_25.m4a,,,,,,,,,,,,
,,,,,,,,,,,,42093,2021-09-25_11h24.19.387,judgeSpeechMusic_20210921_logNormShiftAmp_detection_fixS,2020.1.2,MacIntel,60,,,,,,,,,,,,,,,,,,2,9.6709,,0,0,35,35,40,1,stimuli/stim_20210706_power2amp/equal_lnn_AM2.4Hz_s35_4.m4a,,,,,,,,,,,,
,,,,,,,,,,,,42093,2021-09-25_11h24.19.387,judgeSpeechMusic_20210921_logNormShiftAmp_detection_fixS,2020.1.2,MacIntel,60,,,,,,,,,,,,,,,,,,2,6.2505,,0,0,36,36,38,1,stimuli/stim_20210706_power2amp/equal_lnn_AM2.4Hz_s35_21.m4a,,,,,,,,,,,,
,,,,,,,,,,,,42093,2021-09-25_11h24.19.387,judgeSpeechMusic_20210921_logNormShiftAmp_detection_fixS,2020.1.2,MacIntel,60,,,,,,,,,,,,,,,,,,1,5.7489,,0,0,37,37,8,1,stimuli/stim_20210706_power2amp/equal_lnn_AM0.6Hz_s35_18.m4a,,,,,,,,,,,,
,,,,,,,,,,,,42093,2021-09-25_11h24.19.387,judgeSpeechMusic_20210921_logNormShiftAmp_detection_fixS,2020.1.2,MacIntel,60,,,,,,,,,,,,,,,,,,1,5.8907,,0,0,38,38,14,1,stimuli/stim_20210706_power2amp/equal_lnn_AM0.6Hz_s35_37.m4a,,,,,,,,,,,,
,,,,,,,,,,,,42093,2021-09-25_11h24.19.387,judgeSpeechMusic_20210921_logNormShiftAmp_detection_fixS,2020.1.2,MacIntel,60,,,,,,,,,,,,,,,,,,1,6.3493,,0,0,39,39,61,1,stimuli/stim_20210706_power2amp/equal_lnn_AM4.2Hz_s35_36.m4a,,,,,,,,,,,,
,,,,,,,,,,,,42093,2021-09-25_11h24.19.387,judgeSpeechMusic_20210921_logNormShiftAmp_detection_fixS,2020.1.2,MacIntel,60,,,,,,,,,,,,,,,,,,2,8.2064,,0,0,40,40,34,1,stimuli/stim_20210706_power2amp/equal_lnn_AM2.4Hz_s35_13.m4a,,,,,,,,,,,,
,,,,,,,,,,,,42093,2021-09-25_11h24.19.387,judgeSpeechMusic_20210921_logNormShiftAmp_detection_fixS,2020.1.2,MacIntel,60,,,,,,,,,,,,,,,,,,1,6.7625,,0,0,41,41,25,1,stimuli/stim_20210706_power2amp/equal_lnn_AM1.2Hz_s35_47.m4a,,,,,,,,,,,,
,,,,,,,,,,,,42093,2021-09-25_11h24.19.387,judgeSpeechMusic_20210921_logNormShiftAmp_detection_fixS,2020.1.2,MacIntel,60,,,,,,,,,,,,,,,,,,2,7.9513,3,1,0,42,42,73,1,stimuli/stim_20210706_power2amp/equal_lnn_AM4.2Hz_s35_23.m4a,1.0819,,,,,,,,,,,
,,,,,,,,,,,,42093,2021-09-25_11h24.19.387,judgeSpeechMusic_20210921_logNormShiftAmp_detection_fixS,2020.1.2,MacIntel,60,,,,,,,,,,,,,,,,,,2,6.2674,,0,0,43,43,17,1,stimuli/stim_20210706_power2amp/equal_lnn_AM1.2Hz_s35_46.m4a,,,,,,,,,,,,
,,,,,,,,,,,,42093,2021-09-25_11h24.19.387,judgeSpeechMusic_20210921_logNormShiftAmp_detection_fixS,2020.1.2,MacIntel,60,,,,,,,,,,,,,,,,,,1,5.2708,,0,0,44,44,70,1,stimuli/stim_20210706_power2amp/equal_lnn_AM4.2Hz_s35_3.m4a,,,,,,,,,,,,
,,,,,,,,,,,,42093,2021-09-25_11h24.19.387,judgeSpeechMusic_20210921_logNormShiftAmp_detection_fixS,2020.1.2,MacIntel,60,,,,,,,,,,,,,,,,,,1,6.3102,,0,0,45,45,62,1,stimuli/stim_20210706_power2amp/equal_lnn_AM4.2Hz_s35_32.m4a,,,,,,,,,,,,
,,,,,,,,,,,,42093,2021-09-25_11h24.19.387,judgeSpeechMusic_20210921_logNormShiftAmp_detection_fixS,2020.1.2,MacIntel,60,,,,,,,,,,,,,,,,,,2,6.3578,,0,0,46,46,57,1,stimuli/stim_20210706_power2amp/equal_lnn_AM3.6Hz_s35_22.m4a,,,,,,,,,,,,
,,,,,,,,,,,,42093,2021-09-25_11h24.19.387,judgeSpeechMusic_20210921_logNormShiftAmp_detection_fixS,2020.1.2,MacIntel,60,,,,,,,,,,,,,,,,,,1,7.066,,0,0,47,47,29,1,stimuli/stim_20210706_power2amp/equal_lnn_AM1.2Hz_s35_32.m4a,,,,,,,,,,,,
,,,,,,,,,,,,42093,2021-09-25_11h24.19.387,judgeSpeechMusic_20210921_logNormShiftAmp_detection_fixS,2020.1.2,MacIntel,60,,,,,,,,,,,,,,,,,,2,9.0737,,0,0,48,48,59,1,stimuli/stim_20210706_power2amp/equal_lnn_AM3.6Hz_s35_21.m4a,,,,,,,,,,,,
,,,,,,,,,,,,42093,2021-09-25_11h24.19.387,judgeSpeechMusic_20210921_logNormShiftAmp_detection_fixS,2020.1.2,MacIntel,60,,,,,,,,,,,,,,,,,,2,6.3447,,0,0,49,49,42,1,stimuli/stim_20210706_power2amp/equal_lnn_AM2.4Hz_s35_29.m4a,,,,,,,,,,,,
,,,,,,,,,,,,42093,2021-09-25_11h24.19.387,judgeSpeechMusic_20210921_logNormShiftAmp_detection_fixS,2020.1.2,MacIntel,60,,,,,,,,,,,,,,,,,,1,5.7901,,0,0,50,50,67,1,stimuli/stim_20210706_power2amp/equal_lnn_AM4.2Hz_s35_13.m4a,,,,,,,,,,,,
,,,,,,,,,,,,42093,2021-09-25_11h24.19.387,judgeSpeechMusic_20210921_logNormShiftAmp_detection_fixS,2020.1.2,MacIntel,60,,,,,,,,,,,,,,,,,,2,5.9672,,0,0,51,51,43,1,stimuli/stim_20210706_power2amp/equal_lnn_AM2.4Hz_s35_3.m4a,,,,,,,,,,,,
,,,,,,,,,,,,42093,2021-09-25_11h24.19.387,judgeSpeechMusic_20210921_logNormShiftAmp_detection_fixS,2020.1.2,MacIntel,60,,,,,,,,,,,,,,,,,,1,6.038,,0,0,52,52,10,1,stimuli/stim_20210706_power2amp/equal_lnn_AM0.6Hz_s35_24.m4a,,,,,,,,,,,,
,,,,,,,,,,,,42093,2021-09-25_11h24.19.387,judgeSpeechMusic_20210921_logNormShiftAmp_detection_fixS,2020.1.2,MacIntel,60,,,,,,,,,,,,,,,,,,1,6.6462,,0,0,53,53,5,1,stimuli/stim_20210706_power2amp/equal_lnn_AM0.6Hz_s35_30.m4a,,,,,,,,,,,,
,,,,,,,,,,,,42093,2021-09-25_11h24.19.387,judgeSpeechMusic_20210921_logNormShiftAmp_detection_fixS,2020.1.2,MacIntel,60,,,,,,,,,,,,,,,,,,1,6.3485,,0,0,54,54,12,1,stimuli/stim_20210706_power2amp/equal_lnn_AM0.6Hz_s35_40.m4a,,,,,,,,,,,,
,,,,,,,,,,,,42093,2021-09-25_11h24.19.387,judgeSpeechMusic_20210921_logNormShiftAmp_detection_fixS,2020.1.2,MacIntel,60,,,,,,,,,,,,,,,,,,2,6.989,,0,0,55,55,35,1,stimuli/stim_20210706_power2amp/equal_lnn_AM2.4Hz_s35_39.m4a,,,,,,,,,,,,
,,,,,,,,,,,,42093,2021-09-25_11h24.19.387,judgeSpeechMusic_20210921_logNormShiftAmp_detection_fixS,2020.1.2,MacIntel,60,,,,,,,,,,,,,,,,,,2,7.3684,,0,0,56,56,49,1,stimuli/stim_20210706_power2amp/equal_lnn_AM3.6Hz_s35_39.m4a,,,,,,,,,,,,
,,,,,,,,,,,,42093,2021-09-25_11h24.19.387,judgeSpeechMusic_20210921_logNormShiftAmp_detection_fixS,2020.1.2,MacIntel,60,,,,,,,,,,,,,,,,,,2,6.7271,,0,0,57,57,36,1,stimuli/stim_20210706_power2amp/equal_lnn_AM2.4Hz_s35_43.m4a,,,,,,,,,,,,
,,,,,,,,,,,,42093,2021-09-25_11h24.19.387,judgeSpeechMusic_20210921_logNormShiftAmp_detection_fixS,2020.1.2,MacIntel,60,,,,,,,,,,,,,,,,,,2,7.5214,,0,0,58,58,41,1,stimuli/stim_20210706_power2amp/equal_lnn_AM2.4Hz_s35_8.m4a,,,,,,,,,,,,
,,,,,,,,,,,,42093,2021-09-25_11h24.19.387,judgeSpeechMusic_20210921_logNormShiftAmp_detection_fixS,2020.1.2,MacIntel,60,,,,,,,,,,,,,,,,,,1,5.8061,,0,0,59,59,16,1,stimuli/stim_20210706_power2amp/equal_lnn_AM1.2Hz_s35_35.m4a,,,,,,,,,,,,
,,,,,,,,,,,,42093,2021-09-25_11h24.19.387,judgeSpeechMusic_20210921_logNormShiftAmp_detection_fixS,2020.1.2,MacIntel,60,,,,,,,,,,,,,,,,,,2,7.2012,,0,0,60,60,31,1,stimuli/stim_20210706_power2amp/equal_lnn_AM2.4Hz_s35_37.m4a,,,,,,,,,,,,
,,,,,,,,,,,,42093,2021-09-25_11h24.19.387,judgeSpeechMusic_20210921_logNormShiftAmp_detection_fixS,2020.1.2,MacIntel,60,,,,,,,,,,,,,,,,,,1,7.2004,2,1,0,61,61,4,1,stimuli/stim_20210706_power2amp/equal_lnn_AM0.6Hz_s35_8.m4a,1.2268,,,,,,,,,,,
,,,,,,,,,,,,42093,2021-09-25_11h24.19.387,judgeSpeechMusic_20210921_logNormShiftAmp_detection_fixS,2020.1.2,MacIntel,60,,,,,,,,,,,,,,,,,,2,6.0835,,0,0,62,62,56,1,stimuli/stim_20210706_power2amp/equal_lnn_AM3.6Hz_s35_18.m4a,,,,,,,,,,,,
,,,,,,,,,,,,42093,2021-09-25_11h24.19.387,judgeSpeechMusic_20210921_logNormShiftAmp_detection_fixS,2020.1.2,MacIntel,60,,,,,,,,,,,,,,,,,,2,6.3097,,0,0,63,63,21,1,stimuli/stim_20210706_power2amp/equal_lnn_AM1.2Hz_s35_10.m4a,,,,,,,,,,,,
,,,,,,,,,,,,42093,2021-09-25_11h24.19.387,judgeSpeechMusic_20210921_logNormShiftAmp_detection_fixS,2020.1.2,MacIntel,60,,,,,,,,,,,,,,,,,,1,20.2325,,0,0,64,64,26,1,stimuli/stim_20210706_power2amp/equal_lnn_AM1.2Hz_s35_25.m4a,,,,,,,,,,,,
,,,,,,,,,,,,42093,2021-09-25_11h24.19.387,judgeSpeechMusic_20210921_logNormShiftAmp_detection_fixS,2020.1.2,MacIntel,60,,,,,,,,,,,,,,,,,,1,5.5698,,0,0,65,65,63,1,stimuli/stim_20210706_power2amp/equal_lnn_AM4.2Hz_s35_41.m4a,,,,,,,,,,,,
,,,,,,,,,,,,42093,2021-09-25_11h24.19.387,judgeSpeechMusic_20210921_logNormShiftAmp_detection_fixS,2020.1.2,MacIntel,60,,,,,,,,,,,,,,,,,,1,5.6127,,0,0,66,66,65,1,stimuli/stim_20210706_power2amp/equal_lnn_AM4.2Hz_s35_25.m4a,,,,,,,,,,,,
,,,,,,,,,,,,42093,2021-09-25_11h24.19.387,judgeSpeechMusic_20210921_logNormShiftAmp_detection_fixS,2020.1.2,MacIntel,60,,,,,,,,,,,,,,,,,,2,5.8548,,0,0,67,67,66,1,stimuli/stim_20210706_power2amp/equal_lnn_AM4.2Hz_s35_12.m4a,,,,,,,,,,,,
,,,,,,,,,,,,42093,2021-09-25_11h24.19.387,judgeSpeechMusic_20210921_logNormShiftAmp_detection_fixS,2020.1.2,MacIntel,60,,,,,,,,,,,,,,,,,,1,6.379,,0,0,68,68,9,1,stimuli/stim_20210706_power2amp/equal_lnn_AM0.6Hz_s35_44.m4a,,,,,,,,,,,,
,,,,,,,,,,,,42093,2021-09-25_11h24.19.387,judgeSpeechMusic_20210921_logNormShiftAmp_detection_fixS,2020.1.2,MacIntel,60,,,,,,,,,,,,,,,,,,2,8.1201,,0,0,69,69,52,1,stimuli/stim_20210706_power2amp/equal_lnn_AM3.6Hz_s35_50.m4a,,,,,,,,,,,,
,,,,,,,,,,,,42093,2021-09-25_11h24.19.387,judgeSpeechMusic_20210921_logNormShiftAmp_detection_fixS,2020.1.2,MacIntel,60,,,,,,,,,,,,,,,,,,2,8.0518,,0,0,70,70,32,1,stimuli/stim_20210706_power2amp/equal_lnn_AM2.4Hz_s35_28.m4a,,,,,,,,,,,,
,,,,,,,,,,,,42093,2021-09-25_11h24.19.387,judgeSpeechMusic_20210921_logNormShiftAmp_detection_fixS,2020.1.2,MacIntel,60,,,,,,,,,,,,,,,,,,2,9.7034,,0,0,71,71,51,1,stimuli/stim_20210706_power2amp/equal_lnn_AM3.6Hz_s35_49.m4a,,,,,,,,,,,,
,,,,,,,,,,,,42093,2021-09-25_11h24.19.387,judgeSpeechMusic_20210921_logNormShiftAmp_detection_fixS,2020.1.2,MacIntel,60,,,,,,,,,,,,,,,,,,1,6.586,,0,0,72,72,55,1,stimuli/stim_20210706_power2amp/equal_lnn_AM3.6Hz_s35_16.m4a,,,,,,,,,,,,
,,,,,,,,,,,,42093,2021-09-25_11h24.19.387,judgeSpeechMusic_20210921_logNormShiftAmp_detection_fixS,2020.1.2,MacIntel,60,,,,,,,,,,,,,,,,,,2,6.5007,,0,0,73,73,47,1,stimuli/stim_20210706_power2amp/equal_lnn_AM3.6Hz_s35_13.m4a,,,,,,,,,,,,
,,,,,,,,,,,,42093,2021-09-25_11h24.19.387,judgeSpeechMusic_20210921_logNormShiftAmp_detection_fixS,2020.1.2,MacIntel,60,,,,,,,,,,,,,,,,,,1,6.6003,,0,0,74,74,1,1,stimuli/stim_20210706_power2amp/equal_lnn_AM0.6Hz_s35_34.m4a,,,,,,,,,,,,
,,,,,,,,,,,,42093,2021-09-25_11h24.19.387,judgeSpeechMusic_20210921_logNormShiftAmp_detection_fixS,2020.1.2,MacIntel,60,,,,,,,,,,,,,,,,,,,,,,,,,,,,,space,6.4947,0,0,0,1,1,SPEECH,stimuli/SPEECH.jpg,,
,,,,,,,,,,,,42093,2021-09-25_11h24.19.387,judgeSpeechMusic_20210921_logNormShiftAmp_detection_fixS,2020.1.2,MacIntel,60,space,19.6163,1,6.6389,,0,0,0,0,1,1,stimuli/stim_20210706_power2amp/equal_lnn_AM_training1.8Hz_s35.m4a,,,,,,,,,,,,,,,,,,,,,,,,,,,
,,,,,,,,,,,,42093,2021-09-25_11h24.19.387,judgeSpeechMusic_20210921_logNormShiftAmp_detection_fixS,2020.1.2,MacIntel,60,,,2,6.1578,,0,0,1,1,2,1,stimuli/stim_20210706_power2amp/equal_lnn_AM_training3Hz_s35.m4a,,,,,,,,,,,,,,,,,,,,,,,,,,,
,,,,,,,,,,,,42093,2021-09-25_11h24.19.387,judgeSpeechMusic_20210921_logNormShiftAmp_detection_fixS,2020.1.2,MacIntel,60,,,2,5.6803,3,1,0,2,2,3,1,stimuli/stim_20210706_power2amp/equal_lnn_AM_training3.9Hz_s35.m4a,0.4171,,,,,,,,,,,,,,,,,,,,,,,,,,
,,,,,,,,,,,,42093,2021-09-25_11h24.19.387,judgeSpeechMusic_20210921_logNormShiftAmp_detection_fixS,2020.1.2,MacIntel,60,,,2,5.8495,,0,0,3,3,0,1,stimuli/stim_20210706_power2amp/equal_lnn_AM_training0.9Hz_s35.m4a,,,,,,,,,,,,,,,,,,,,,,,,,,,
,,,,,,,,,,,,42093,2021-09-25_11h24.19.387,judgeSpeechMusic_20210921_logNormShiftAmp_detection_fixS,2020.1.2,MacIntel,60,,,,,,,,,,,,,,space,0.8283,space,17.4302,1,7.8568,,0,0,0,0,73,1,stimuli/stim_20210706_power2amp/equal_lnn_AM4.2Hz_s35_23.m4a,,,,,,,,,,,,
,,,,,,,,,,,,42093,2021-09-25_11h24.19.387,judgeSpeechMusic_20210921_logNormShiftAmp_detection_fixS,2020.1.2,MacIntel,60,,,,,,,,,,,,,,,,,,2,11.357,,0,0,1,1,49,1,stimuli/stim_20210706_power2amp/equal_lnn_AM3.6Hz_s35_39.m4a,,,,,,,,,,,,
,,,,,,,,,,,,42093,2021-09-25_11h24.19.387,judgeSpeechMusic_20210921_logNormShiftAmp_detection_fixS,2020.1.2,MacIntel,60,,,,,,,,,,,,,,,,,,1,7.2064,,0,0,2,2,57,1,stimuli/stim_20210706_power2amp/equal_lnn_AM3.6Hz_s35_22.m4a,,,,,,,,,,,,
,,,,,,,,,,,,42093,2021-09-25_11h24.19.387,judgeSpeechMusic_20210921_logNormShiftAmp_detection_fixS,2020.1.2,MacIntel,60,,,,,,,,,,,,,,,,,,2,5.9884,,0,0,3,3,6,1,stimuli/stim_20210706_power2amp/equal_lnn_AM0.6Hz_s35_25.m4a,,,,,,,,,,,,
,,,,,,,,,,,,42093,2021-09-25_11h24.19.387,judgeSpeechMusic_20210921_logNormShiftAmp_detection_fixS,2020.1.2,MacIntel,60,,,,,,,,,,,,,,,,,,2,6.0963,,0,0,4,4,19,1,stimuli/stim_20210706_power2amp/equal_lnn_AM1.2Hz_s35_38.m4a,,,,,,,,,,,,
,,,,,,,,,,,,42093,2021-09-25_11h24.19.387,judgeSpeechMusic_20210921_logNormShiftAmp_detection_fixS,2020.1.2,MacIntel,60,,,,,,,,,,,,,,,,,,2,6.1358,,0,0,5,5,62,1,stimuli/stim_20210706_power2amp/equal_lnn_AM4.2Hz_s35_32.m4a,,,,,,,,,,,,
,,,,,,,,,,,,42093,2021-09-25_11h24.19.387,judgeSpeechMusic_20210921_logNormShiftAmp_detection_fixS,2020.1.2,MacIntel,60,,,,,,,,,,,,,,,,,,2,5.7557,,0,0,6,6,5,1,stimuli/stim_20210706_power2amp/equal_lnn_AM0.6Hz_s35_30.m4a,,,,,,,,,,,,
,,,,,,,,,,,,42093,2021-09-25_11h24.19.387,judgeSpeechMusic_20210921_logNormShiftAmp_detection_fixS,2020.1.2,MacIntel,60,,,,,,,,,,,,,,,,,,1,5.9609,,0,0,7,7,74,1,stimuli/stim_20210706_power2amp/equal_lnn_AM4.2Hz_s35_19.m4a,,,,,,,,,,,,
,,,,,,,,,,,,42093,2021-09-25_11h24.19.387,judgeSpeechMusic_20210921_logNormShiftAmp_detection_fixS,2020.1.2,MacIntel,60,,,,,,,,,,,,,,,,,,1,5.6535,,0,0,8,8,61,1,stimuli/stim_20210706_power2amp/equal_lnn_AM4.2Hz_s35_36.m4a,,,,,,,,,,,,
,,,,,,,,,,,,42093,2021-09-25_11h24.19.387,judgeSpeechMusic_20210921_logNormShiftAmp_detection_fixS,2020.1.2,MacIntel,60,,,,,,,,,,,,,,,,,,1,6.5127,,0,0,9,9,36,1,stimuli/stim_20210706_power2amp/equal_lnn_AM2.4Hz_s35_43.m4a,,,,,,,,,,,,
,,,,,,,,,,,,42093,2021-09-25_11h24.19.387,judgeSpeechMusic_20210921_logNormShiftAmp_detection_fixS,2020.1.2,MacIntel,60,,,,,,,,,,,,,,,,,,2,6.0194,,0,0,10,10,0,1,stimuli/stim_20210706_power2amp/equal_lnn_AM0.6Hz_s35_7.m4a,,,,,,,,,,,,
,,,,,,,,,,,,42093,2021-09-25_11h24.19.387,judgeSpeechMusic_20210921_logNormShiftAmp_detection_fixS,2020.1.2,MacIntel,60,,,,,,,,,,,,,,,,,,2,6.1815,,0,0,11,11,41,1,stimuli/stim_20210706_power2amp/equal_lnn_AM2.4Hz_s35_8.m4a,,,,,,,,,,,,
,,,,,,,,,,,,42093,2021-09-25_11h24.19.387,judgeSpeechMusic_20210921_logNormShiftAmp_detection_fixS,2020.1.2,MacIntel,60,,,,,,,,,,,,,,,,,,2,8.5356,,0,0,12,12,56,1,stimuli/stim_20210706_power2amp/equal_lnn_AM3.6Hz_s35_18.m4a,,,,,,,,,,,,
,,,,,,,,,,,,42093,2021-09-25_11h24.19.387,judgeSpeechMusic_20210921_logNormShiftAmp_detection_fixS,2020.1.2,MacIntel,60,,,,,,,,,,,,,,,,,,1,7.5161,,0,0,13,13,65,1,stimuli/stim_20210706_power2amp/equal_lnn_AM4.2Hz_s35_25.m4a,,,,,,,,,,,,
,,,,,,,,,,,,42093,2021-09-25_11h24.19.387,judgeSpeechMusic_20210921_logNormShiftAmp_detection_fixS,2020.1.2,MacIntel,60,,,,,,,,,,,,,,,,,,2,5.8342,,0,0,14,14,17,1,stimuli/stim_20210706_power2amp/equal_lnn_AM1.2Hz_s35_46.m4a,,,,,,,,,,,,
,,,,,,,,,,,,42093,2021-09-25_11h24.19.387,judgeSpeechMusic_20210921_logNormShiftAmp_detection_fixS,2020.1.2,MacIntel,60,,,,,,,,,,,,,,,,,,1,6.7533,,0,0,15,15,20,1,stimuli/stim_20210706_power2amp/equal_lnn_AM1.2Hz_s35_20.m4a,,,,,,,,,,,,
,,,,,,,,,,,,42093,2021-09-25_11h24.19.387,judgeSpeechMusic_20210921_logNormShiftAmp_detection_fixS,2020.1.2,MacIntel,60,,,,,,,,,,,,,,,,,,1,5.6435,,0,0,16,16,71,1,stimuli/stim_20210706_power2amp/equal_lnn_AM4.2Hz_s35_39.m4a,,,,,,,,,,,,
,,,,,,,,,,,,42093,2021-09-25_11h24.19.387,judgeSpeechMusic_20210921_logNormShiftAmp_detection_fixS,2020.1.2,MacIntel,60,,,,,,,,,,,,,,,,,,1,8.3061,,0,0,17,17,30,1,stimuli/stim_20210706_power2amp/equal_lnn_AM2.4Hz_s35_16.m4a,,,,,,,,,,,,
,,,,,,,,,,,,42093,2021-09-25_11h24.19.387,judgeSpeechMusic_20210921_logNormShiftAmp_detection_fixS,2020.1.2,MacIntel,60,,,,,,,,,,,,,,,,,,2,6.673,,0,0,18,18,25,1,stimuli/stim_20210706_power2amp/equal_lnn_AM1.2Hz_s35_47.m4a,,,,,,,,,,,,
,,,,,,,,,,,,42093,2021-09-25_11h24.19.387,judgeSpeechMusic_20210921_logNormShiftAmp_detection_fixS,2020.1.2,MacIntel,60,,,,,,,,,,,,,,,,,,1,5.9634,,0,0,19,19,60,1,stimuli/stim_20210706_power2amp/equal_lnn_AM4.2Hz_s35_42.m4a,,,,,,,,,,,,
,,,,,,,,,,,,42093,2021-09-25_11h24.19.387,judgeSpeechMusic_20210921_logNormShiftAmp_detection_fixS,2020.1.2,MacIntel,60,,,,,,,,,,,,,,,,,,2,8.0668,4,1,0,20,20,37,1,stimuli/stim_20210706_power2amp/equal_lnn_AM2.4Hz_s35_17.m4a,0.943,,,,,,,,,,,
,,,,,,,,,,,,42093,2021-09-25_11h24.19.387,judgeSpeechMusic_20210921_logNormShiftAmp_detection_fixS,2020.1.2,MacIntel,60,,,,,,,,,,,,,,,,,,1,6.4723,,0,0,21,21,55,1,stimuli/stim_20210706_power2amp/equal_lnn_AM3.6Hz_s35_16.m4a,,,,,,,,,,,,
,,,,,,,,,,,,42093,2021-09-25_11h24.19.387,judgeSpeechMusic_20210921_logNormShiftAmp_detection_fixS,2020.1.2,MacIntel,60,,,,,,,,,,,,,,,,,,2,11.6279,,0,0,22,22,18,1,stimuli/stim_20210706_power2amp/equal_lnn_AM1.2Hz_s35_50.m4a,,,,,,,,,,,,
,,,,,,,,,,,,42093,2021-09-25_11h24.19.387,judgeSpeechMusic_20210921_logNormShiftAmp_detection_fixS,2020.1.2,MacIntel,60,,,,,,,,,,,,,,,,,,2,6.797,,0,0,23,23,11,1,stimuli/stim_20210706_power2amp/equal_lnn_AM0.6Hz_s35_22.m4a,,,,,,,,,,,,
,,,,,,,,,,,,42093,2021-09-25_11h24.19.387,judgeSpeechMusic_20210921_logNormShiftAmp_detection_fixS,2020.1.2,MacIntel,60,,,,,,,,,,,,,,,,,,2,11.4808,,0,0,24,24,2,1,stimuli/stim_20210706_power2amp/equal_lnn_AM0.6Hz_s35_33.m4a,,,,,,,,,,,,
,,,,,,,,,,,,42093,2021-09-25_11h24.19.387,judgeSpeechMusic_20210921_logNormShiftAmp_detection_fixS,2020.1.2,MacIntel,60,,,,,,,,,,,,,,,,,,1,7.8662,,0,0,25,25,53,1,stimuli/stim_20210706_power2amp/equal_lnn_AM3.6Hz_s35_15.m4a,,,,,,,,,,,,
,,,,,,,,,,,,42093,2021-09-25_11h24.19.387,judgeSpeechMusic_20210921_logNormShiftAmp_detection_fixS,2020.1.2,MacIntel,60,,,,,,,,,,,,,,,,,,2,6.6996,,0,0,26,26,28,1,stimuli/stim_20210706_power2amp/equal_lnn_AM1.2Hz_s35_3.m4a,,,,,,,,,,,,
,,,,,,,,,,,,42093,2021-09-25_11h24.19.387,judgeSpeechMusic_20210921_logNormShiftAmp_detection_fixS,2020.1.2,MacIntel,60,,,,,,,,,,,,,,,,,,1,6.3874,,0,0,27,27,58,1,stimuli/stim_20210706_power2amp/equal_lnn_AM3.6Hz_s35_6.m4a,,,,,,,,,,,,
,,,,,,,,,,,,42093,2021-09-25_11h24.19.387,judgeSpeechMusic_20210921_logNormShiftAmp_detection_fixS,2020.1.2,MacIntel,60,,,,,,,,,,,,,,,,,,2,6.1962,,0,0,28,28,10,1,stimuli/stim_20210706_power2amp/equal_lnn_AM0.6Hz_s35_24.m4a,,,,,,,,,,,,
,,,,,,,,,,,,42093,2021-09-25_11h24.19.387,judgeSpeechMusic_20210921_logNormShiftAmp_detection_fixS,2020.1.2,MacIntel,60,,,,,,,,,,,,,,,,,,2,18.0322,,0,0,29,29,42,1,stimuli/stim_20210706_power2amp/equal_lnn_AM2.4Hz_s35_29.m4a,,,,,,,,,,,,
,,,,,,,,,,,,42093,2021-09-25_11h24.19.387,judgeSpeechMusic_20210921_logNormShiftAmp_detection_fixS,2020.1.2,MacIntel,60,,,,,,,,,,,,,,,,,,2,6.1244,,0,0,30,30,44,1,stimuli/stim_20210706_power2amp/equal_lnn_AM2.4Hz_s35_10.m4a,,,,,,,,,,,,
,,,,,,,,,,,,42093,2021-09-25_11h24.19.387,judgeSpeechMusic_20210921_logNormShiftAmp_detection_fixS,2020.1.2,MacIntel,60,,,,,,,,,,,,,,,,,,2,5.7379,,0,0,31,31,29,1,stimuli/stim_20210706_power2amp/equal_lnn_AM1.2Hz_s35_32.m4a,,,,,,,,,,,,
,,,,,,,,,,,,42093,2021-09-25_11h24.19.387,judgeSpeechMusic_20210921_logNormShiftAmp_detection_fixS,2020.1.2,MacIntel,60,,,,,,,,,,,,,,,,,,2,5.7933,,0,0,32,32,7,1,stimuli/stim_20210706_power2amp/equal_lnn_AM0.6Hz_s35_21.m4a,,,,,,,,,,,,
,,,,,,,,,,,,42093,2021-09-25_11h24.19.387,judgeSpeechMusic_20210921_logNormShiftAmp_detection_fixS,2020.1.2,MacIntel,60,,,,,,,,,,,,,,,,,,1,5.834,,0,0,33,33,15,1,stimuli/stim_20210706_power2amp/equal_lnn_AM1.2Hz_s35_29.m4a,,,,,,,,,,,,
,,,,,,,,,,,,42093,2021-09-25_11h24.19.387,judgeSpeechMusic_20210921_logNormShiftAmp_detection_fixS,2020.1.2,MacIntel,60,,,,,,,,,,,,,,,,,,2,5.779,,0,0,34,34,16,1,stimuli/stim_20210706_power2amp/equal_lnn_AM1.2Hz_s35_35.m4a,,,,,,,,,,,,
,,,,,,,,,,,,42093,2021-09-25_11h24.19.387,judgeSpeechMusic_20210921_logNormShiftAmp_detection_fixS,2020.1.2,MacIntel,60,,,,,,,,,,,,,,,,,,1,5.9323,,0,0,35,35,67,1,stimuli/stim_20210706_power2amp/equal_lnn_AM4.2Hz_s35_13.m4a,,,,,,,,,,,,
,,,,,,,,,,,,42093,2021-09-25_11h24.19.387,judgeSpeechMusic_20210921_logNormShiftAmp_detection_fixS,2020.1.2,MacIntel,60,,,,,,,,,,,,,,,,,,2,6.457,,0,0,36,36,51,1,stimuli/stim_20210706_power2amp/equal_lnn_AM3.6Hz_s35_49.m4a,,,,,,,,,,,,
,,,,,,,,,,,,42093,2021-09-25_11h24.19.387,judgeSpeechMusic_20210921_logNormShiftAmp_detection_fixS,2020.1.2,MacIntel,60,,,,,,,,,,,,,,,,,,1,6.0261,,0,0,37,37,50,1,stimuli/stim_20210706_power2amp/equal_lnn_AM3.6Hz_s35_29.m4a,,,,,,,,,,,,
,,,,,,,,,,,,42093,2021-09-25_11h24.19.387,judgeSpeechMusic_20210921_logNormShiftAmp_detection_fixS,2020.1.2,MacIntel,60,,,,,,,,,,,,,,,,,,2,6.233,,0,0,38,38,45,1,stimuli/stim_20210706_power2amp/equal_lnn_AM3.6Hz_s35_23.m4a,,,,,,,,,,,,
,,,,,,,,,,,,42093,2021-09-25_11h24.19.387,judgeSpeechMusic_20210921_logNormShiftAmp_detection_fixS,2020.1.2,MacIntel,60,,,,,,,,,,,,,,,,,,2,5.696,,0,0,39,39,22,1,stimuli/stim_20210706_power2amp/equal_lnn_AM1.2Hz_s35_26.m4a,,,,,,,,,,,,
,,,,,,,,,,,,42093,2021-09-25_11h24.19.387,judgeSpeechMusic_20210921_logNormShiftAmp_detection_fixS,2020.1.2,MacIntel,60,,,,,,,,,,,,,,,,,,1,5.8435,,0,0,40,40,48,1,stimuli/stim_20210706_power2amp/equal_lnn_AM3.6Hz_s35_1.m4a,,,,,,,,,,,,
,,,,,,,,,,,,42093,2021-09-25_11h24.19.387,judgeSpeechMusic_20210921_logNormShiftAmp_detection_fixS,2020.1.2,MacIntel,60,,,,,,,,,,,,,,,,,,2,5.7001,,0,0,41,41,21,1,stimuli/stim_20210706_power2amp/equal_lnn_AM1.2Hz_s35_10.m4a,,,,,,,,,,,,
,,,,,,,,,,,,42093,2021-09-25_11h24.19.387,judgeSpeechMusic_20210921_logNormShiftAmp_detection_fixS,2020.1.2,MacIntel,60,,,,,,,,,,,,,,,,,,1,5.8012,1,1,0,42,42,47,1,stimuli/stim_20210706_power2amp/equal_lnn_AM3.6Hz_s35_13.m4a,0.4269,,,,,,,,,,,
,,,,,,,,,,,,42093,2021-09-25_11h24.19.387,judgeSpeechMusic_20210921_logNormShiftAmp_detection_fixS,2020.1.2,MacIntel,60,,,,,,,,,,,,,,,,,,1,5.931,,0,0,43,43,33,1,stimuli/stim_20210706_power2amp/equal_lnn_AM2.4Hz_s35_11.m4a,,,,,,,,,,,,
,,,,,,,,,,,,42093,2021-09-25_11h24.19.387,judgeSpeechMusic_20210921_logNormShiftAmp_detection_fixS,2020.1.2,MacIntel,60,,,,,,,,,,,,,,,,,,1,6.7698,,0,0,44,44,31,1,stimuli/stim_20210706_power2amp/equal_lnn_AM2.4Hz_s35_37.m4a,,,,,,,,,,,,
,,,,,,,,,,,,42093,2021-09-25_11h24.19.387,judgeSpeechMusic_20210921_logNormShiftAmp_detection_fixS,2020.1.2,MacIntel,60,,,,,,,,,,,,,,,,,,2,6.3027,,0,0,45,45,70,1,stimuli/stim_20210706_power2amp/equal_lnn_AM4.2Hz_s35_3.m4a,,,,,,,,,,,,
,,,,,,,,,,,,42093,2021-09-25_11h24.19.387,judgeSpeechMusic_20210921_logNormShiftAmp_detection_fixS,2020.1.2,MacIntel,60,,,,,,,,,,,,,,,,,,1,5.3823,,0,0,46,46,68,1,stimuli/stim_20210706_power2amp/equal_lnn_AM4.2Hz_s35_35.m4a,,,,,,,,,,,,
,,,,,,,,,,,,42093,2021-09-25_11h24.19.387,judgeSpeechMusic_20210921_logNormShiftAmp_detection_fixS,2020.1.2,MacIntel,60,,,,,,,,,,,,,,,,,,2,5.7193,,0,0,47,47,13,1,stimuli/stim_20210706_power2amp/equal_lnn_AM0.6Hz_s35_48.m4a,,,,,,,,,,,,
,,,,,,,,,,,,42093,2021-09-25_11h24.19.387,judgeSpeechMusic_20210921_logNormShiftAmp_detection_fixS,2020.1.2,MacIntel,60,,,,,,,,,,,,,,,,,,1,5.5764,,0,0,48,48,59,1,stimuli/stim_20210706_power2amp/equal_lnn_AM3.6Hz_s35_21.m4a,,,,,,,,,,,,
,,,,,,,,,,,,42093,2021-09-25_11h24.19.387,judgeSpeechMusic_20210921_logNormShiftAmp_detection_fixS,2020.1.2,MacIntel,60,,,,,,,,,,,,,,,,,,2,5.6175,,0,0,49,49,12,1,stimuli/stim_20210706_power2amp/equal_lnn_AM0.6Hz_s35_40.m4a,,,,,,,,,,,,
,,,,,,,,,,,,42093,2021-09-25_11h24.19.387,judgeSpeechMusic_20210921_logNormShiftAmp_detection_fixS,2020.1.2,MacIntel,60,,,,,,,,,,,,,,,,,,2,5.2227,,0,0,50,50,3,1,stimuli/stim_20210706_power2amp/equal_lnn_AM0.6Hz_s35_45.m4a,,,,,,,,,,,,
,,,,,,,,,,,,42093,2021-09-25_11h24.19.387,judgeSpeechMusic_20210921_logNormShiftAmp_detection_fixS,2020.1.2,MacIntel,60,,,,,,,,,,,,,,,,,,2,5.9664,,0,0,51,51,38,1,stimuli/stim_20210706_power2amp/equal_lnn_AM2.4Hz_s35_21.m4a,,,,,,,,,,,,
,,,,,,,,,,,,42093,2021-09-25_11h24.19.387,judgeSpeechMusic_20210921_logNormShiftAmp_detection_fixS,2020.1.2,MacIntel,60,,,,,,,,,,,,,,,,,,2,5.388,,0,0,52,52,24,1,stimuli/stim_20210706_power2amp/equal_lnn_AM1.2Hz_s35_8.m4a,,,,,,,,,,,,
,,,,,,,,,,,,42093,2021-09-25_11h24.19.387,judgeSpeechMusic_20210921_logNormShiftAmp_detection_fixS,2020.1.2,MacIntel,60,,,,,,,,,,,,,,,,,,1,5.7293,,0,0,53,53,52,1,stimuli/stim_20210706_power2amp/equal_lnn_AM3.6Hz_s35_50.m4a,,,,,,,,,,,,
,,,,,,,,,,,,42093,2021-09-25_11h24.19.387,judgeSpeechMusic_20210921_logNormShiftAmp_detection_fixS,2020.1.2,MacIntel,60,,,,,,,,,,,,,,,,,,1,5.7009,,0,0,54,54,46,1,stimuli/stim_20210706_power2amp/equal_lnn_AM3.6Hz_s35_4.m4a,,,,,,,,,,,,
,,,,,,,,,,,,42093,2021-09-25_11h24.19.387,judgeSpeechMusic_20210921_logNormShiftAmp_detection_fixS,2020.1.2,MacIntel,60,,,,,,,,,,,,,,,,,,2,5.9895,,0,0,55,55,27,1,stimuli/stim_20210706_power2amp/equal_lnn_AM1.2Hz_s35_41.m4a,,,,,,,,,,,,
,,,,,,,,,,,,42093,2021-09-25_11h24.19.387,judgeSpeechMusic_20210921_logNormShiftAmp_detection_fixS,2020.1.2,MacIntel,60,,,,,,,,,,,,,,,,,,1,6.4834,,0,0,56,56,34,1,stimuli/stim_20210706_power2amp/equal_lnn_AM2.4Hz_s35_13.m4a,,,,,,,,,,,,
,,,,,,,,,,,,42093,2021-09-25_11h24.19.387,judgeSpeechMusic_20210921_logNormShiftAmp_detection_fixS,2020.1.2,MacIntel,60,,,,,,,,,,,,,,,,,,2,5.6001,,0,0,57,57,1,1,stimuli/stim_20210706_power2amp/equal_lnn_AM0.6Hz_s35_34.m4a,,,,,,,,,,,,
,,,,,,,,,,,,42093,2021-09-25_11h24.19.387,judgeSpeechMusic_20210921_logNormShiftAmp_detection_fixS,2020.1.2,MacIntel,60,,,,,,,,,,,,,,,,,,2,5.2365,,0,0,58,58,23,1,stimuli/stim_20210706_power2amp/equal_lnn_AM1.2Hz_s35_27.m4a,,,,,,,,,,,,
,,,,,,,,,,,,42093,2021-09-25_11h24.19.387,judgeSpeechMusic_20210921_logNormShiftAmp_detection_fixS,2020.1.2,MacIntel,60,,,,,,,,,,,,,,,,,,1,5.7999,,0,0,59,59,39,1,stimuli/stim_20210706_power2amp/equal_lnn_AM2.4Hz_s35_24.m4a,,,,,,,,,,,,
,,,,,,,,,,,,42093,2021-09-25_11h24.19.387,judgeSpeechMusic_20210921_logNormShiftAmp_detection_fixS,2020.1.2,MacIntel,60,,,,,,,,,,,,,,,,,,1,5.8474,,0,0,60,60,40,1,stimuli/stim_20210706_power2amp/equal_lnn_AM2.4Hz_s35_4.m4a,,,,,,,,,,,,
,,,,,,,,,,,,42093,2021-09-25_11h24.19.387,judgeSpeechMusic_20210921_logNormShiftAmp_detection_fixS,2020.1.2,MacIntel,60,,,,,,,,,,,,,,,,,,2,5.9166,3,1,0,61,61,43,1,stimuli/stim_20210706_power2amp/equal_lnn_AM2.4Hz_s35_3.m4a,0.4319,,,,,,,,,,,
,,,,,,,,,,,,42093,2021-09-25_11h24.19.387,judgeSpeechMusic_20210921_logNormShiftAmp_detection_fixS,2020.1.2,MacIntel,60,,,,,,,,,,,,,,,,,,2,5.9681,,0,0,62,62,66,1,stimuli/stim_20210706_power2amp/equal_lnn_AM4.2Hz_s35_12.m4a,,,,,,,,,,,,
,,,,,,,,,,,,42093,2021-09-25_11h24.19.387,judgeSpeechMusic_20210921_logNormShiftAmp_detection_fixS,2020.1.2,MacIntel,60,,,,,,,,,,,,,,,,,,1,5.9461,,0,0,63,63,54,1,stimuli/stim_20210706_power2amp/equal_lnn_AM3.6Hz_s35_44.m4a,,,,,,,,,,,,
,,,,,,,,,,,,42093,2021-09-25_11h24.19.387,judgeSpeechMusic_20210921_logNormShiftAmp_detection_fixS,2020.1.2,MacIntel,60,,,,,,,,,,,,,,,,,,2,7.6027,,0,0,64,64,35,1,stimuli/stim_20210706_power2amp/equal_lnn_AM2.4Hz_s35_39.m4a,,,,,,,,,,,,
,,,,,,,,,,,,42093,2021-09-25_11h24.19.387,judgeSpeechMusic_20210921_logNormShiftAmp_detection_fixS,2020.1.2,MacIntel,60,,,,,,,,,,,,,,,,,,1,5.9507,,0,0,65,65,63,1,stimuli/stim_20210706_power2amp/equal_lnn_AM4.2Hz_s35_41.m4a,,,,,,,,,,,,
,,,,,,,,,,,,42093,2021-09-25_11h24.19.387,judgeSpeechMusic_20210921_logNormShiftAmp_detection_fixS,2020.1.2,MacIntel,60,,,,,,,,,,,,,,,,,,2,6.3983,,0,0,66,66,4,1,stimuli/stim_20210706_power2amp/equal_lnn_AM0.6Hz_s35_8.m4a,,,,,,,,,,,,
,,,,,,,,,,,,42093,2021-09-25_11h24.19.387,judgeSpeechMusic_20210921_logNormShiftAmp_detection_fixS,2020.1.2,MacIntel,60,,,,,,,,,,,,,,,,,,1,5.7503,,0,0,67,67,69,1,stimuli/stim_20210706_power2amp/equal_lnn_AM4.2Hz_s35_26.m4a,,,,,,,,,,,,
,,,,,,,,,,,,42093,2021-09-25_11h24.19.387,judgeSpeechMusic_20210921_logNormShiftAmp_detection_fixS,2020.1.2,MacIntel,60,,,,,,,,,,,,,,,,,,2,6.2717,,0,0,68,68,14,1,stimuli/stim_20210706_power2amp/equal_lnn_AM0.6Hz_s35_37.m4a,,,,,,,,,,,,
,,,,,,,,,,,,42093,2021-09-25_11h24.19.387,judgeSpeechMusic_20210921_logNormShiftAmp_detection_fixS,2020.1.2,MacIntel,60,,,,,,,,,,,,,,,,,,1,7.3944,,0,0,69,69,64,1,stimuli/stim_20210706_power2amp/equal_lnn_AM4.2Hz_s35_30.m4a,,,,,,,,,,,,
,,,,,,,,,,,,42093,2021-09-25_11h24.19.387,judgeSpeechMusic_20210921_logNormShiftAmp_detection_fixS,2020.1.2,MacIntel,60,,,,,,,,,,,,,,,,,,2,5.6297,,0,0,70,70,9,1,stimuli/stim_20210706_power2amp/equal_lnn_AM0.6Hz_s35_44.m4a,,,,,,,,,,,,
,,,,,,,,,,,,42093,2021-09-25_11h24.19.387,judgeSpeechMusic_20210921_logNormShiftAmp_detection_fixS,2020.1.2,MacIntel,60,,,,,,,,,,,,,,,,,,2,6.2709,,0,0,71,71,8,1,stimuli/stim_20210706_power2amp/equal_lnn_AM0.6Hz_s35_18.m4a,,,,,,,,,,,,
,,,,,,,,,,,,42093,2021-09-25_11h24.19.387,judgeSpeechMusic_20210921_logNormShiftAmp_detection_fixS,2020.1.2,MacIntel,60,,,,,,,,,,,,,,,,,,2,6.1977,,0,0,72,72,32,1,stimuli/stim_20210706_power2amp/equal_lnn_AM2.4Hz_s35_28.m4a,,,,,,,,,,,,
,,,,,,,,,,,,42093,2021-09-25_11h24.19.387,judgeSpeechMusic_20210921_logNormShiftAmp_detection_fixS,2020.1.2,MacIntel,60,,,,,,,,,,,,,,,,,,1,6.1044,,0,0,73,73,72,1,stimuli/stim_20210706_power2amp/equal_lnn_AM4.2Hz_s35_18.m4a,,,,,,,,,,,,
,,,,,,,,,,,,42093,2021-09-25_11h24.19.387,judgeSpeechMusic_20210921_logNormShiftAmp_detection_fixS,2020.1.2,MacIntel,60,,,,,,,,,,,,,,,,,,2,5.9356,,0,0,74,74,26,1,stimuli/stim_20210706_power2amp/equal_lnn_AM1.2Hz_s35_25.m4a,,,,,,,,,,,,
,,,,,,,,,,,,42093,2021-09-25_11h24.19.387,judgeSpeechMusic_20210921_logNormShiftAmp_detection_fixS,2020.1.2,MacIntel,60,,,,,,,,,,,,,,,,,,,,,,,,,,,,,space,0.8998,0,1,1,0,1,MUSIC,stimuli/MUSIC.jpg,,
,,,,,,,,,,,,42093,2021-09-25_11h24.19.387,judgeSpeechMusic_20210921_logNormShiftAmp_detection_fixS,2020.1.2,MacIntel,60,,,,,,0,0,0,0,1,1,stimuli/stim_20210706_power2amp/equal_lnn_AM_training1.8Hz_s35.m4a,,,,,,,,,,,,,,,,,,,,,,,,,,,
,,,,,,,,,,,,42093,2021-09-25_11h24.19.387,judgeSpeechMusic_20210921_logNormShiftAmp_detection_fixS,2020.1.2,MacIntel,60,,,,,,,,,,,,,,space,3.6453,space,2.6603,1,5.7307,,0,0,0,0,56,1,stimuli/stim_20210706_power2amp/equal_lnn_AM3.6Hz_s35_18.m4a,,,,,,,,,,,,
,,,,,,,,,,,,42093,2021-09-25_11h24.19.387,judgeSpeechMusic_20210921_logNormShiftAmp_detection_fixS,2020.1.2,MacIntel,60,,,,,,,,,,,,,,,,,,2,6.8545,,0,0,1,1,1,1,stimuli/stim_20210706_power2amp/equal_lnn_AM0.6Hz_s35_34.m4a,,,,,,,,,,,,
,,,,,,,,,,,,42093,2021-09-25_11h24.19.387,judgeSpeechMusic_20210921_logNormShiftAmp_detection_fixS,2020.1.2,MacIntel,60,,,,,,,,,,,,,,,,,,1,5.8305,,0,0,2,2,36,1,stimuli/stim_20210706_power2amp/equal_lnn_AM2.4Hz_s35_43.m4a,,,,,,,,,,,,
,,,,,,,,,,,,42093,2021-09-25_11h24.19.387,judgeSpeechMusic_20210921_logNormShiftAmp_detection_fixS,2020.1.2,MacIntel,60,,,,,,,,,,,,,,,,,,2,6.8493,,0,0,3,3,64,1,stimuli/stim_20210706_power2amp/equal_lnn_AM4.2Hz_s35_30.m4a,,,,,,,,,,,,
,,,,,,,,,,,,42093,2021-09-25_11h24.19.387,judgeSpeechMusic_20210921_logNormShiftAmp_detection_fixS,2020.1.2,MacIntel,60,,,,,,,,,,,,,,,,,,2,7.9195,,0,0,4,4,12,1,stimuli/stim_20210706_power2amp/equal_lnn_AM0.6Hz_s35_40.m4a,,,,,,,,,,,,
,,,,,,,,,,,,42093,2021-09-25_11h24.19.387,judgeSpeechMusic_20210921_logNormShiftAmp_detection_fixS,2020.1.2,MacIntel,60,,,,,,,,,,,,,,,,,,1,6.1075,,0,0,5,5,31,1,stimuli/stim_20210706_power2amp/equal_lnn_AM2.4Hz_s35_37.m4a,,,,,,,,,,,,
,,,,,,,,,,,,42093,2021-09-25_11h24.19.387,judgeSpeechMusic_20210921_logNormShiftAmp_detection_fixS,2020.1.2,MacIntel,60,,,,,,,,,,,,,,,,,,1,5.7647,,0,0,6,6,34,1,stimuli/stim_20210706_power2amp/equal_lnn_AM2.4Hz_s35_13.m4a,,,,,,,,,,,,
,,,,,,,,,,,,42093,2021-09-25_11h24.19.387,judgeSpeechMusic_20210921_logNormShiftAmp_detection_fixS,2020.1.2,MacIntel,60,,,,,,,,,,,,,,,,,,2,6.569,,0,0,7,7,25,1,stimuli/stim_20210706_power2amp/equal_lnn_AM1.2Hz_s35_47.m4a,,,,,,,,,,,,
,,,,,,,,,,,,42093,2021-09-25_11h24.19.387,judgeSpeechMusic_20210921_logNormShiftAmp_detection_fixS,2020.1.2,MacIntel,60,,,,,,,,,,,,,,,,,,1,6.2968,,0,0,8,8,60,1,stimuli/stim_20210706_power2amp/equal_lnn_AM4.2Hz_s35_42.m4a,,,,,,,,,,,,
,,,,,,,,,,,,42093,2021-09-25_11h24.19.387,judgeSpeechMusic_20210921_logNormShiftAmp_detection_fixS,2020.1.2,MacIntel,60,,,,,,,,,,,,,,,,,,2,6.441,,0,0,9,9,7,1,stimuli/stim_20210706_power2amp/equal_lnn_AM0.6Hz_s35_21.m4a,,,,,,,,,,,,
,,,,,,,,,,,,42093,2021-09-25_11h24.19.387,judgeSpeechMusic_20210921_logNormShiftAmp_detection_fixS,2020.1.2,MacIntel,60,,,,,,,,,,,,,,,,,,2,6.6138,,0,0,10,10,3,1,stimuli/stim_20210706_power2amp/equal_lnn_AM0.6Hz_s35_45.m4a,,,,,,,,,,,,
,,,,,,,,,,,,42093,2021-09-25_11h24.19.387,judgeSpeechMusic_20210921_logNormShiftAmp_detection_fixS,2020.1.2,MacIntel,60,,,,,,,,,,,,,,,,,,2,6.3312,,0,0,11,11,51,1,stimuli/stim_20210706_power2amp/equal_lnn_AM3.6Hz_s35_49.m4a,,,,,,,,,,,,
,,,,,,,,,,,,42093,2021-09-25_11h24.19.387,judgeSpeechMusic_20210921_logNormShiftAmp_detection_fixS,2020.1.2,MacIntel,60,,,,,,,,,,,,,,,,,,1,5.9351,,0,0,12,12,57,1,stimuli/stim_20210706_power2amp/equal_lnn_AM3.6Hz_s35_22.m4a,,,,,,,,,,,,
,,,,,,,,,,,,42093,2021-09-25_11h24.19.387,judgeSpeechMusic_20210921_logNormShiftAmp_detection_fixS,2020.1.2,MacIntel,60,,,,,,,,,,,,,,,,,,2,6.5482,,0,0,13,13,27,1,stimuli/stim_20210706_power2amp/equal_lnn_AM1.2Hz_s35_41.m4a,,,,,,,,,,,,
,,,,,,,,,,,,42093,2021-09-25_11h24.19.387,judgeSpeechMusic_20210921_logNormShiftAmp_detection_fixS,2020.1.2,MacIntel,60,,,,,,,,,,,,,,,,,,1,6.5748,,0,0,14,14,59,1,stimuli/stim_20210706_power2amp/equal_lnn_AM3.6Hz_s35_21.m4a,,,,,,,,,,,,
,,,,,,,,,,,,42093,2021-09-25_11h24.19.387,judgeSpeechMusic_20210921_logNormShiftAmp_detection_fixS,2020.1.2,MacIntel,60,,,,,,,,,,,,,,,,,,2,6.3206,,0,0,15,15,4,1,stimuli/stim_20210706_power2amp/equal_lnn_AM0.6Hz_s35_8.m4a,,,,,,,,,,,,
,,,,,,,,,,,,42093,2021-09-25_11h24.19.387,judgeSpeechMusic_20210921_logNormShiftAmp_detection_fixS,2020.1.2,MacIntel,60,,,,,,,,,,,,,,,,,,1,6.665,,0,0,16,16,74,1,stimuli/stim_20210706_power2amp/equal_lnn_AM4.2Hz_s35_19.m4a,,,,,,,,,,,,
,,,,,,,,,,,,42093,2021-09-25_11h24.19.387,judgeSpeechMusic_20210921_logNormShiftAmp_detection_fixS,2020.1.2,MacIntel,60,,,,,,,,,,,,,,,,,,1,7.3243,,0,0,17,17,73,1,stimuli/stim_20210706_power2amp/equal_lnn_AM4.2Hz_s35_23.m4a,,,,,,,,,,,,
,,,,,,,,,,,,42093,2021-09-25_11h24.19.387,judgeSpeechMusic_20210921_logNormShiftAmp_detection_fixS,2020.1.2,MacIntel,60,,,,,,,,,,,,,,,,,,1,6.1529,,0,0,18,18,49,1,stimuli/stim_20210706_power2amp/equal_lnn_AM3.6Hz_s35_39.m4a,,,,,,,,,,,,
,,,,,,,,,,,,42093,2021-09-25_11h24.19.387,judgeSpeechMusic_20210921_logNormShiftAmp_detection_fixS,2020.1.2,MacIntel,60,,,,,,,,,,,,,,,,,,2,6.3595,,0,0,19,19,15,1,stimuli/stim_20210706_power2amp/equal_lnn_AM1.2Hz_s35_29.m4a,,,,,,,,,,,,
,,,,,,,,,,,,42093,2021-09-25_11h24.19.387,judgeSpeechMusic_20210921_logNormShiftAmp_detection_fixS,2020.1.2,MacIntel,60,,,,,,,,,,,,,,,,,,2,6.0005,2,1,0,20,20,46,1,stimuli/stim_20210706_power2amp/equal_lnn_AM3.6Hz_s35_4.m4a,0.5825,,,,,,,,,,,
,,,,,,,,,,,,42093,2021-09-25_11h24.19.387,judgeSpeechMusic_20210921_logNormShiftAmp_detection_fixS,2020.1.2,MacIntel,60,,,,,,,,,,,,,,,,,,2,6.7465,,0,0,21,21,6,1,stimuli/stim_20210706_power2amp/equal_lnn_AM0.6Hz_s35_25.m4a,,,,,,,,,,,,
,,,,,,,,,,,,42093,2021-09-25_11h24.19.387,judgeSpeechMusic_20210921_logNormShiftAmp_detection_fixS,2020.1.2,MacIntel,60,,,,,,,,,,,,,,,,,,1,5.5834,,0,0,22,22,54,1,stimuli/stim_20210706_power2amp/equal_lnn_AM3.6Hz_s35_44.m4a,,,,,,,,,,,,
,,,,,,,,,,,,42093,2021-09-25_11h24.19.387,judgeSpeechMusic_20210921_logNormShiftAmp_detection_fixS,2020.1.2,MacIntel,60,,,,,,,,,,,,,,,,,,2,6.5379,,0,0,23,23,18,1,stimuli/stim_20210706_power2amp/equal_lnn_AM1.2Hz_s35_50.m4a,,,,,,,,,,,,
,,,,,,,,,,,,42093,2021-09-25_11h24.19.387,judgeSpeechMusic_20210921_logNormShiftAmp_detection_fixS,2020.1.2,MacIntel,60,,,,,,,,,,,,,,,,,,2,8.4332,,0,0,24,24,28,1,stimuli/stim_20210706_power2amp/equal_lnn_AM1.2Hz_s35_3.m4a,,,,,,,,,,,,
,,,,,,,,,,,,42093,2021-09-25_11h24.19.387,judgeSpeechMusic_20210921_logNormShiftAmp_detection_fixS,2020.1.2,MacIntel,60,,,,,,,,,,,,,,,,,,1,6.1841,,0,0,25,25,39,1,stimuli/stim_20210706_power2amp/equal_lnn_AM2.4Hz_s35_24.m4a,,,,,,,,,,,,
,,,,,,,,,,,,42093,2021-09-25_11h24.19.387,judgeSpeechMusic_20210921_logNormShiftAmp_detection_fixS,2020.1.2,MacIntel,60,,,,,,,,,,,,,,,,,,2,6.2531,,0,0,26,26,17,1,stimuli/stim_20210706_power2amp/equal_lnn_AM1.2Hz_s35_46.m4a,,,,,,,,,,,,
,,,,,,,,,,,,42093,2021-09-25_11h24.19.387,judgeSpeechMusic_20210921_logNormShiftAmp_detection_fixS,2020.1.2,MacIntel,60,,,,,,,,,,,,,,,,,,1,6.2265,,0,0,27,27,58,1,stimuli/stim_20210706_power2amp/equal_lnn_AM3.6Hz_s35_6.m4a,,,,,,,,,,,,
,,,,,,,,,,,,42093,2021-09-25_11h24.19.387,judgeSpeechMusic_20210921_logNormShiftAmp_detection_fixS,2020.1.2,MacIntel,60,,,,,,,,,,,,,,,,,,2,11.0422,,0,0,28,28,61,1,stimuli/stim_20210706_power2amp/equal_lnn_AM4.2Hz_s35_36.m4a,,,,,,,,,,,,
,,,,,,,,,,,,42093,2021-09-25_11h24.19.387,judgeSpeechMusic_20210921_logNormShiftAmp_detection_fixS,2020.1.2,MacIntel,60,,,,,,,,,,,,,,,,,,2,14.4812,,0,0,29,29,5,1,stimuli/stim_20210706_power2amp/equal_lnn_AM0.6Hz_s35_30.m4a,,,,,,,,,,,,
,,,,,,,,,,,,42093,2021-09-25_11h24.19.387,judgeSpeechMusic_20210921_logNormShiftAmp_detection_fixS,2020.1.2,MacIntel,60,,,,,,,,,,,,,,,,,,1,5.7559,,0,0,30,30,70,1,stimuli/stim_20210706_power2amp/equal_lnn_AM4.2Hz_s35_3.m4a,,,,,,,,,,,,
,,,,,,,,,,,,42093,2021-09-25_11h24.19.387,judgeSpeechMusic_20210921_logNormShiftAmp_detection_fixS,2020.1.2,MacIntel,60,,,,,,,,,,,,,,,,,,1,10.5238,,0,0,31,31,50,1,stimuli/stim_20210706_power2amp/equal_lnn_AM3.6Hz_s35_29.m4a,,,,,,,,,,,,
,,,,,,,,,,,,42093,2021-09-25_11h24.19.387,judgeSpeechMusic_20210921_logNormShiftAmp_detection_fixS,2020.1.2,MacIntel,60,,,,,,,,,,,,,,,,,,2,17.7485,,0,0,32,32,13,1,stimuli/stim_20210706_power2amp/equal_lnn_AM0.6Hz_s35_48.m4a,,,,,,,,,,,,
,,,,,,,,,,,,42093,2021-09-25_11h24.19.387,judgeSpeechMusic_20210921_logNormShiftAmp_detection_fixS,2020.1.2,MacIntel,60,,,,,,,,,,,,,,,,,,1,5.6348,,0,0,33,33,62,1,stimuli/stim_20210706_power2amp/equal_lnn_AM4.2Hz_s35_32.m4a,,,,,,,,,,,,
,,,,,,,,,,,,42093,2021-09-25_11h24.19.387,judgeSpeechMusic_20210921_logNormShiftAmp_detection_fixS,2020.1.2,MacIntel,60,,,,,,,,,,,,,,,,,,2,5.9146,,0,0,34,34,41,1,stimuli/stim_20210706_power2amp/equal_lnn_AM2.4Hz_s35_8.m4a,,,,,,,,,,,,
,,,,,,,,,,,,42093,2021-09-25_11h24.19.387,judgeSpeechMusic_20210921_logNormShiftAmp_detection_fixS,2020.1.2,MacIntel,60,,,,,,,,,,,,,,,,,,1,5.7903,,0,0,35,35,20,1,stimuli/stim_20210706_power2amp/equal_lnn_AM1.2Hz_s35_20.m4a,,,,,,,,,,,,
,,,,,,,,,,,,42093,2021-09-25_11h24.19.387,judgeSpeechMusic_20210921_logNormShiftAmp_detection_fixS,2020.1.2,MacIntel,60,,,,,,,,,,,,,,,,,,2,6.1674,,0,0,36,36,47,1,stimuli/stim_20210706_power2amp/equal_lnn_AM3.6Hz_s35_13.m4a,,,,,,,,,,,,
,,,,,,,,,,,,42093,2021-09-25_11h24.19.387,judgeSpeechMusic_20210921_logNormShiftAmp_detection_fixS,2020.1.2,MacIntel,60,,,,,,,,,,,,,,,,,,2,5.9437,,0,0,37,37,53,1,stimuli/stim_20210706_power2amp/equal_lnn_AM3.6Hz_s35_15.m4a,,,,,,,,,,,,
,,,,,,,,,,,,42093,2021-09-25_11h24.19.387,judgeSpeechMusic_20210921_logNormShiftAmp_detection_fixS,2020.1.2,MacIntel,60,,,,,,,,,,,,,,,,,,1,5.6364,,0,0,38,38,35,1,stimuli/stim_20210706_power2amp/equal_lnn_AM2.4Hz_s35_39.m4a,,,,,,,,,,,,
,,,,,,,,,,,,42093,2021-09-25_11h24.19.387,judgeSpeechMusic_20210921_logNormShiftAmp_detection_fixS,2020.1.2,MacIntel,60,,,,,,,,,,,,,,,,,,2,5.576,,0,0,39,39,10,1,stimuli/stim_20210706_power2amp/equal_lnn_AM0.6Hz_s35_24.m4a,,,,,,,,,,,,
,,,,,,,,,,,,42093,2021-09-25_11h24.19.387,judgeSpeechMusic_20210921_logNormShiftAmp_detection_fixS,2020.1.2,MacIntel,60,,,,,,,,,,,,,,,,,,1,5.7863,,0,0,40,40,52,1,stimuli/stim_20210706_power2amp/equal_lnn_AM3.6Hz_s35_50.m4a,,,,,,,,,,,,
,,,,,,,,,,,,42093,2021-09-25_11h24.19.387,judgeSpeechMusic_20210921_logNormShiftAmp_detection_fixS,2020.1.2,MacIntel,60,,,,,,,,,,,,,,,,,,2,5.9356,,0,0,41,41,33,1,stimuli/stim_20210706_power2amp/equal_lnn_AM2.4Hz_s35_11.m4a,,,,,,,,,,,,
,,,,,,,,,,,,42093,2021-09-25_11h24.19.387,judgeSpeechMusic_20210921_logNormShiftAmp_detection_fixS,2020.1.2,MacIntel,60,,,,,,,,,,,,,,,,,,1,5.2268,3,1,0,42,42,48,1,stimuli/stim_20210706_power2amp/equal_lnn_AM3.6Hz_s35_1.m4a,0.296,,,,,,,,,,,
,,,,,,,,,,,,42093,2021-09-25_11h24.19.387,judgeSpeechMusic_20210921_logNormShiftAmp_detection_fixS,2020.1.2,MacIntel,60,,,,,,,,,,,,,,,,,,1,5.5795,,0,0,43,43,65,1,stimuli/stim_20210706_power2amp/equal_lnn_AM4.2Hz_s35_25.m4a,,,,,,,,,,,,
,,,,,,,,,,,,42093,2021-09-25_11h24.19.387,judgeSpeechMusic_20210921_logNormShiftAmp_detection_fixS,2020.1.2,MacIntel,60,,,,,,,,,,,,,,,,,,2,6.7011,,0,0,44,44,11,1,stimuli/stim_20210706_power2amp/equal_lnn_AM0.6Hz_s35_22.m4a,,,,,,,,,,,,
,,,,,,,,,,,,42093,2021-09-25_11h24.19.387,judgeSpeechMusic_20210921_logNormShiftAmp_detection_fixS,2020.1.2,MacIntel,60,,,,,,,,,,,,,,,,,,1,5.8793,,0,0,45,45,22,1,stimuli/stim_20210706_power2amp/equal_lnn_AM1.2Hz_s35_26.m4a,,,,,,,,,,,,
,,,,,,,,,,,,42093,2021-09-25_11h24.19.387,judgeSpeechMusic_20210921_logNormShiftAmp_detection_fixS,2020.1.2,MacIntel,60,,,,,,,,,,,,,,,,,,2,5.9312,,0,0,46,46,21,1,stimuli/stim_20210706_power2amp/equal_lnn_AM1.2Hz_s35_10.m4a,,,,,,,,,,,,
,,,,,,,,,,,,42093,2021-09-25_11h24.19.387,judgeSpeechMusic_20210921_logNormShiftAmp_detection_fixS,2020.1.2,MacIntel,60,,,,,,,,,,,,,,,,,,2,6.2889,,0,0,47,47,0,1,stimuli/stim_20210706_power2amp/equal_lnn_AM0.6Hz_s35_7.m4a,,,,,,,,,,,,
,,,,,,,,,,,,42093,2021-09-25_11h24.19.387,judgeSpeechMusic_20210921_logNormShiftAmp_detection_fixS,2020.1.2,MacIntel,60,,,,,,,,,,,,,,,,,,2,5.6176,,0,0,48,48,26,1,stimuli/stim_20210706_power2amp/equal_lnn_AM1.2Hz_s35_25.m4a,,,,,,,,,,,,
,,,,,,,,,,,,42093,2021-09-25_11h24.19.387,judgeSpeechMusic_20210921_logNormShiftAmp_detection_fixS,2020.1.2,MacIntel,60,,,,,,,,,,,,,,,,,,2,5.9512,,0,0,49,49,32,1,stimuli/stim_20210706_power2amp/equal_lnn_AM2.4Hz_s35_28.m4a,,,,,,,,,,,,
,,,,,,,,,,,,42093,2021-09-25_11h24.19.387,judgeSpeechMusic_20210921_logNormShiftAmp_detection_fixS,2020.1.2,MacIntel,60,,,,,,,,,,,,,,,,,,1,8.3681,,0,0,50,50,37,1,stimuli/stim_20210706_power2amp/equal_lnn_AM2.4Hz_s35_17.m4a,,,,,,,,,,,,
,,,,,,,,,,,,42093,2021-09-25_11h24.19.387,judgeSpeechMusic_20210921_logNormShiftAmp_detection_fixS,2020.1.2,MacIntel,60,,,,,,,,,,,,,,,,,,1,6.5869,,0,0,51,51,42,1,stimuli/stim_20210706_power2amp/equal_lnn_AM2.4Hz_s35_29.m4a,,,,,,,,,,,,
,,,,,,,,,,,,42093,2021-09-25_11h24.19.387,judgeSpeechMusic_20210921_logNormShiftAmp_detection_fixS,2020.1.2,MacIntel,60,,,,,,,,,,,,,,,,,,2,5.6954,,0,0,52,52,9,1,stimuli/stim_20210706_power2amp/equal_lnn_AM0.6Hz_s35_44.m4a,,,,,,,,,,,,
,,,,,,,,,,,,42093,2021-09-25_11h24.19.387,judgeSpeechMusic_20210921_logNormShiftAmp_detection_fixS,2020.1.2,MacIntel,60,,,,,,,,,,,,,,,,,,1,6.4689,,0,0,53,53,45,1,stimuli/stim_20210706_power2amp/equal_lnn_AM3.6Hz_s35_23.m4a,,,,,,,,,,,,
,,,,,,,,,,,,42093,2021-09-25_11h24.19.387,judgeSpeechMusic_20210921_logNormShiftAmp_detection_fixS,2020.1.2,MacIntel,60,,,,,,,,,,,,,,,,,,2,6.222,,0,0,54,54,14,1,stimuli/stim_20210706_power2amp/equal_lnn_AM0.6Hz_s35_37.m4a,,,,,,,,,,,,
,,,,,,,,,,,,42093,2021-09-25_11h24.19.387,judgeSpeechMusic_20210921_logNormShiftAmp_detection_fixS,2020.1.2,MacIntel,60,,,,,,,,,,,,,,,,,,1,6.4861,,0,0,55,55,71,1,stimuli/stim_20210706_power2amp/equal_lnn_AM4.2Hz_s35_39.m4a,,,,,,,,,,,,
,,,,,,,,,,,,42093,2021-09-25_11h24.19.387,judgeSpeechMusic_20210921_logNormShiftAmp_detection_fixS,2020.1.2,MacIntel,60,,,,,,,,,,,,,,,,,,1,7.224,,0,0,56,56,66,1,stimuli/stim_20210706_power2amp/equal_lnn_AM4.2Hz_s35_12.m4a,,,,,,,,,,,,
,,,,,,,,,,,,42093,2021-09-25_11h24.19.387,judgeSpeechMusic_20210921_logNormShiftAmp_detection_fixS,2020.1.2,MacIntel,60,,,,,,,,,,,,,,,,,,2,6.0549,,0,0,57,57,24,1,stimuli/stim_20210706_power2amp/equal_lnn_AM1.2Hz_s35_8.m4a,,,,,,,,,,,,
,,,,,,,,,,,,42093,2021-09-25_11h24.19.387,judgeSpeechMusic_20210921_logNormShiftAmp_detection_fixS,2020.1.2,MacIntel,60,,,,,,,,,,,,,,,,,,2,6.6003,,0,0,58,58,19,1,stimuli/stim_20210706_power2amp/equal_lnn_AM1.2Hz_s35_38.m4a,,,,,,,,,,,,
,,,,,,,,,,,,42093,2021-09-25_11h24.19.387,judgeSpeechMusic_20210921_logNormShiftAmp_detection_fixS,2020.1.2,MacIntel,60,,,,,,,,,,,,,,,,,,2,19.4227,,0,0,59,59,2,1,stimuli/stim_20210706_power2amp/equal_lnn_AM0.6Hz_s35_33.m4a,,,,,,,,,,,,
,,,,,,,,,,,,42093,2021-09-25_11h24.19.387,judgeSpeechMusic_20210921_logNormShiftAmp_detection_fixS,2020.1.2,MacIntel,60,,,,,,,,,,,,,,,,,,1,5.8669,,0,0,60,60,63,1,stimuli/stim_20210706_power2amp/equal_lnn_AM4.2Hz_s35_41.m4a,,,,,,,,,,,,
,,,,,,,,,,,,42093,2021-09-25_11h24.19.387,judgeSpeechMusic_20210921_logNormShiftAmp_detection_fixS,2020.1.2,MacIntel,60,,,,,,,,,,,,,,,,,,1,5.6617,4,1,0,61,61,69,1,stimuli/stim_20210706_power2amp/equal_lnn_AM4.2Hz_s35_26.m4a,0.5296,,,,,,,,,,,
,,,,,,,,,,,,42093,2021-09-25_11h24.19.387,judgeSpeechMusic_20210921_logNormShiftAmp_detection_fixS,2020.1.2,MacIntel,60,,,,,,,,,,,,,,,,,,2,5.8813,,0,0,62,62,72,1,stimuli/stim_20210706_power2amp/equal_lnn_AM4.2Hz_s35_18.m4a,,,,,,,,,,,,
,,,,,,,,,,,,42093,2021-09-25_11h24.19.387,judgeSpeechMusic_20210921_logNormShiftAmp_detection_fixS,2020.1.2,MacIntel,60,,,,,,,,,,,,,,,,,,2,5.2212,,0,0,63,63,30,1,stimuli/stim_20210706_power2amp/equal_lnn_AM2.4Hz_s35_16.m4a,,,,,,,,,,,,
,,,,,,,,,,,,42093,2021-09-25_11h24.19.387,judgeSpeechMusic_20210921_logNormShiftAmp_detection_fixS,2020.1.2,MacIntel,60,,,,,,,,,,,,,,,,,,2,9.7546,,0,0,64,64,40,1,stimuli/stim_20210706_power2amp/equal_lnn_AM2.4Hz_s35_4.m4a,,,,,,,,,,,,
,,,,,,,,,,,,42093,2021-09-25_11h24.19.387,judgeSpeechMusic_20210921_logNormShiftAmp_detection_fixS,2020.1.2,MacIntel,60,,,,,,,,,,,,,,,,,,2,5.9118,,0,0,65,65,44,1,stimuli/stim_20210706_power2amp/equal_lnn_AM2.4Hz_s35_10.m4a,,,,,,,,,,,,
,,,,,,,,,,,,42093,2021-09-25_11h24.19.387,judgeSpeechMusic_20210921_logNormShiftAmp_detection_fixS,2020.1.2,MacIntel,60,,,,,,,,,,,,,,,,,,2,10.9653,,0,0,66,66,55,1,stimuli/stim_20210706_power2amp/equal_lnn_AM3.6Hz_s35_16.m4a,,,,,,,,,,,,
,,,,,,,,,,,,42093,2021-09-25_11h24.19.387,judgeSpeechMusic_20210921_logNormShiftAmp_detection_fixS,2020.1.2,MacIntel,60,,,,,,,,,,,,,,,,,,2,5.9622,,0,0,67,67,23,1,stimuli/stim_20210706_power2amp/equal_lnn_AM1.2Hz_s35_27.m4a,,,,,,,,,,,,
,,,,,,,,,,,,42093,2021-09-25_11h24.19.387,judgeSpeechMusic_20210921_logNormShiftAmp_detection_fixS,2020.1.2,MacIntel,60,,,,,,,,,,,,,,,,,,2,15.7682,,0,0,68,68,8,1,stimuli/stim_20210706_power2amp/equal_lnn_AM0.6Hz_s35_18.m4a,,,,,,,,,,,,
,,,,,,,,,,,,42093,2021-09-25_11h24.19.387,judgeSpeechMusic_20210921_logNormShiftAmp_detection_fixS,2020.1.2,MacIntel,60,,,,,,,,,,,,,,,,,,2,19.7252,,0,0,69,69,67,1,stimuli/stim_20210706_power2amp/equal_lnn_AM4.2Hz_s35_13.m4a,,,,,,,,,,,,
,,,,,,,,,,,,42093,2021-09-25_11h24.19.387,judgeSpeechMusic_20210921_logNormShiftAmp_detection_fixS,2020.1.2,MacIntel,60,,,,,,,,,,,,,,,,,,1,5.8842,,0,0,70,70,43,1,stimuli/stim_20210706_power2amp/equal_lnn_AM2.4Hz_s35_3.m4a,,,,,,,,,,,,
,,,,,,,,,,,,42093,2021-09-25_11h24.19.387,judgeSpeechMusic_20210921_logNormShiftAmp_detection_fixS,2020.1.2,MacIntel,60,,,,,,,,,,,,,,,,,,2,5.8396,,0,0,71,71,29,1,stimuli/stim_20210706_power2amp/equal_lnn_AM1.2Hz_s35_32.m4a,,,,,,,,,,,,
,,,,,,,,,,,,42093,2021-09-25_11h24.19.387,judgeSpeechMusic_20210921_logNormShiftAmp_detection_fixS,2020.1.2,MacIntel,60,,,,,,,,,,,,,,,,,,1,5.6516,,0,0,72,72,68,1,stimuli/stim_20210706_power2amp/equal_lnn_AM4.2Hz_s35_35.m4a,,,,,,,,,,,,
,,,,,,,,,,,,42093,2021-09-25_11h24.19.387,judgeSpeechMusic_20210921_logNormShiftAmp_detection_fixS,2020.1.2,MacIntel,60,,,,,,,,,,,,,,,,,,2,5.6554,,0,0,73,73,16,1,stimuli/stim_20210706_power2amp/equal_lnn_AM1.2Hz_s35_35.m4a,,,,,,,,,,,,
,,,,,,,,,,,,42093,2021-09-25_11h24.19.387,judgeSpeechMusic_20210921_logNormShiftAmp_detection_fixS,2020.1.2,MacIntel,60,,,,,,,,,,,,,,,,,,2,5.9607,,0,0,74,74,38,1,stimuli/stim_20210706_power2amp/equal_lnn_AM2.4Hz_s35_21.m4a,,,,,,,,,,,,
,,,,,,,,,,,,42093,2021-09-25_11h24.19.387,judgeSpeechMusic_20210921_logNormShiftAmp_detection_fixS,2020.1.2,MacIntel,60,,,,,,,,,,,,,,,,,,,,,,,,,,,,,space,2.1451,1,0,2,0,1,MUSIC,stimuli/MUSIC.jpg,,
,,,,,,,,,,,,42093,2021-09-25_11h24.19.387,judgeSpeechMusic_20210921_logNormShiftAmp_detection_fixS,2020.1.2,MacIntel,60,,,,,,0,0,0,0,2,1,stimuli/stim_20210706_power2amp/equal_lnn_AM_training3Hz_s35.m4a,,,,,,,,,,,,,,,,,,,,,,,,,,,
,,,,,,,,,,,,42093,2021-09-25_11h24.19.387,judgeSpeechMusic_20210921_logNormShiftAmp_detection_fixS,2020.1.2,MacIntel,60,,,,,,,,,,,,,,space,1.5439,space,0.734,1,5.8481,,0,0,0,0,18,1,stimuli/stim_20210706_power2amp/equal_lnn_AM1.2Hz_s35_50.m4a,,,,,,,,,,,,
,,,,,,,,,,,,42093,2021-09-25_11h24.19.387,judgeSpeechMusic_20210921_logNormShiftAmp_detection_fixS,2020.1.2,MacIntel,60,,,,,,,,,,,,,,,,,,2,6.551,,0,0,1,1,2,1,stimuli/stim_20210706_power2amp/equal_lnn_AM0.6Hz_s35_33.m4a,,,,,,,,,,,,
,,,,,,,,,,,,42093,2021-09-25_11h24.19.387,judgeSpeechMusic_20210921_logNormShiftAmp_detection_fixS,2020.1.2,MacIntel,60,,,,,,,,,,,,,,,,,,2,6.1359,,0,0,2,2,24,1,stimuli/stim_20210706_power2amp/equal_lnn_AM1.2Hz_s35_8.m4a,,,,,,,,,,,,
,,,,,,,,,,,,42093,2021-09-25_11h24.19.387,judgeSpeechMusic_20210921_logNormShiftAmp_detection_fixS,2020.1.2,MacIntel,60,,,,,,,,,,,,,,,,,,1,6.923,,0,0,3,3,7,1,stimuli/stim_20210706_power2amp/equal_lnn_AM0.6Hz_s35_21.m4a,,,,,,,,,,,,
,,,,,,,,,,,,42093,2021-09-25_11h24.19.387,judgeSpeechMusic_20210921_logNormShiftAmp_detection_fixS,2020.1.2,MacIntel,60,,,,,,,,,,,,,,,,,,2,5.9618,,0,0,4,4,13,1,stimuli/stim_20210706_power2amp/equal_lnn_AM0.6Hz_s35_48.m4a,,,,,,,,,,,,
,,,,,,,,,,,,42093,2021-09-25_11h24.19.387,judgeSpeechMusic_20210921_logNormShiftAmp_detection_fixS,2020.1.2,MacIntel,60,,,,,,,,,,,,,,,,,,2,8.7182,,0,0,5,5,38,1,stimuli/stim_20210706_power2amp/equal_lnn_AM2.4Hz_s35_21.m4a,,,,,,,,,,,,
,,,,,,,,,,,,42093,2021-09-25_11h24.19.387,judgeSpeechMusic_20210921_logNormShiftAmp_detection_fixS,2020.1.2,MacIntel,60,,,,,,,,,,,,,,,,,,1,8.4189,,0,0,6,6,5,1,stimuli/stim_20210706_power2amp/equal_lnn_AM0.6Hz_s35_30.m4a,,,,,,,,,,,,
,,,,,,,,,,,,42093,2021-09-25_11h24.19.387,judgeSpeechMusic_20210921_logNormShiftAmp_detection_fixS,2020.1.2,MacIntel,60,,,,,,,,,,,,,,,,,,2,14.9799,,0,0,7,7,25,1,stimuli/stim_20210706_power2amp/equal_lnn_AM1.2Hz_s35_47.m4a,,,,,,,,,,,,
,,,,,,,,,,,,42093,2021-09-25_11h24.19.387,judgeSpeechMusic_20210921_logNormShiftAmp_detection_fixS,2020.1.2,MacIntel,60,,,,,,,,,,,,,,,,,,2,9.8608,,0,0,8,8,56,1,stimuli/stim_20210706_power2amp/equal_lnn_AM3.6Hz_s35_18.m4a,,,,,,,,,,,,
,,,,,,,,,,,,42093,2021-09-25_11h24.19.387,judgeSpeechMusic_20210921_logNormShiftAmp_detection_fixS,2020.1.2,MacIntel,60,,,,,,,,,,,,,,,,,,2,23.7612,,0,0,9,9,53,1,stimuli/stim_20210706_power2amp/equal_lnn_AM3.6Hz_s35_15.m4a,,,,,,,,,,,,
,,,,,,,,,,,,42093,2021-09-25_11h24.19.387,judgeSpeechMusic_20210921_logNormShiftAmp_detection_fixS,2020.1.2,MacIntel,60,,,,,,,,,,,,,,,,,,1,7.8397,,0,0,10,10,10,1,stimuli/stim_20210706_power2amp/equal_lnn_AM0.6Hz_s35_24.m4a,,,,,,,,,,,,
,,,,,,,,,,,,42093,2021-09-25_11h24.19.387,judgeSpeechMusic_20210921_logNormShiftAmp_detection_fixS,2020.1.2,MacIntel,60,,,,,,,,,,,,,,,,,,2,8.7682,,0,0,11,11,71,1,stimuli/stim_20210706_power2amp/equal_lnn_AM4.2Hz_s35_39.m4a,,,,,,,,,,,,
,,,,,,,,,,,,42093,2021-09-25_11h24.19.387,judgeSpeechMusic_20210921_logNormShiftAmp_detection_fixS,2020.1.2,MacIntel,60,,,,,,,,,,,,,,,,,,2,14.1461,,0,0,12,12,51,1,stimuli/stim_20210706_power2amp/equal_lnn_AM3.6Hz_s35_49.m4a,,,,,,,,,,,,
,,,,,,,,,,,,42093,2021-09-25_11h24.19.387,judgeSpeechMusic_20210921_logNormShiftAmp_detection_fixS,2020.1.2,MacIntel,60,,,,,,,,,,,,,,,,,,1,6.3158,,0,0,13,13,12,1,stimuli/stim_20210706_power2amp/equal_lnn_AM0.6Hz_s35_40.m4a,,,,,,,,,,,,
,,,,,,,,,,,,42093,2021-09-25_11h24.19.387,judgeSpeechMusic_20210921_logNormShiftAmp_detection_fixS,2020.1.2,MacIntel,60,,,,,,,,,,,,,,,,,,2,8.7366,,0,0,14,14,73,1,stimuli/stim_20210706_power2amp/equal_lnn_AM4.2Hz_s35_23.m4a,,,,,,,,,,,,
,,,,,,,,,,,,42093,2021-09-25_11h24.19.387,judgeSpeechMusic_20210921_logNormShiftAmp_detection_fixS,2020.1.2,MacIntel,60,,,,,,,,,,,,,,,,,,1,7.3732,,0,0,15,15,69,1,stimuli/stim_20210706_power2amp/equal_lnn_AM4.2Hz_s35_26.m4a,,,,,,,,,,,,
,,,,,,,,,,,,42093,2021-09-25_11h24.19.387,judgeSpeechMusic_20210921_logNormShiftAmp_detection_fixS,2020.1.2,MacIntel,60,,,,,,,,,,,,,,,,,,2,6.8364,,0,0,16,16,48,1,stimuli/stim_20210706_power2amp/equal_lnn_AM3.6Hz_s35_1.m4a,,,,,,,,,,,,
,,,,,,,,,,,,42093,2021-09-25_11h24.19.387,judgeSpeechMusic_20210921_logNormShiftAmp_detection_fixS,2020.1.2,MacIntel,60,,,,,,,,,,,,,,,,,,2,7.0571,,0,0,17,17,37,1,stimuli/stim_20210706_power2amp/equal_lnn_AM2.4Hz_s35_17.m4a,,,,,,,,,,,,
,,,,,,,,,,,,42093,2021-09-25_11h24.19.387,judgeSpeechMusic_20210921_logNormShiftAmp_detection_fixS,2020.1.2,MacIntel,60,,,,,,,,,,,,,,,,,,2,6.3189,,0,0,18,18,34,1,stimuli/stim_20210706_power2amp/equal_lnn_AM2.4Hz_s35_13.m4a,,,,,,,,,,,,
,,,,,,,,,,,,42093,2021-09-25_11h24.19.387,judgeSpeechMusic_20210921_logNormShiftAmp_detection_fixS,2020.1.2,MacIntel,60,,,,,,,,,,,,,,,,,,2,6.5743,,0,0,19,19,32,1,stimuli/stim_20210706_power2amp/equal_lnn_AM2.4Hz_s35_28.m4a,,,,,,,,,,,,
,,,,,,,,,,,,42093,2021-09-25_11h24.19.387,judgeSpeechMusic_20210921_logNormShiftAmp_detection_fixS,2020.1.2,MacIntel,60,,,,,,,,,,,,,,,,,,2,6.1756,2,1,0,20,20,28,1,stimuli/stim_20210706_power2amp/equal_lnn_AM1.2Hz_s35_3.m4a,0.7316,,,,,,,,,,,
,,,,,,,,,,,,42093,2021-09-25_11h24.19.387,judgeSpeechMusic_20210921_logNormShiftAmp_detection_fixS,2020.1.2,MacIntel,60,,,,,,,,,,,,,,,,,,2,14.4784,,0,0,21,21,42,1,stimuli/stim_20210706_power2amp/equal_lnn_AM2.4Hz_s35_29.m4a,,,,,,,,,,,,
,,,,,,,,,,,,42093,2021-09-25_11h24.19.387,judgeSpeechMusic_20210921_logNormShiftAmp_detection_fixS,2020.1.2,MacIntel,60,,,,,,,,,,,,,,,,,,2,6.6208,,0,0,22,22,46,1,stimuli/stim_20210706_power2amp/equal_lnn_AM3.6Hz_s35_4.m4a,,,,,,,,,,,,
,,,,,,,,,,,,42093,2021-09-25_11h24.19.387,judgeSpeechMusic_20210921_logNormShiftAmp_detection_fixS,2020.1.2,MacIntel,60,,,,,,,,,,,,,,,,,,2,6.6962,,0,0,23,23,50,1,stimuli/stim_20210706_power2amp/equal_lnn_AM3.6Hz_s35_29.m4a,,,,,,,,,,,,
,,,,,,,,,,,,42093,2021-09-25_11h24.19.387,judgeSpeechMusic_20210921_logNormShiftAmp_detection_fixS,2020.1.2,MacIntel,60,,,,,,,,,,,,,,,,,,2,5.5161,,0,0,24,24,35,1,stimuli/stim_20210706_power2amp/equal_lnn_AM2.4Hz_s35_39.m4a,,,,,,,,,,,,
,,,,,,,,,,,,42093,2021-09-25_11h24.19.387,judgeSpeechMusic_20210921_logNormShiftAmp_detection_fixS,2020.1.2,MacIntel,60,,,,,,,,,,,,,,,,,,1,5.3211,,0,0,25,25,4,1,stimuli/stim_20210706_power2amp/equal_lnn_AM0.6Hz_s35_8.m4a,,,,,,,,,,,,
,,,,,,,,,,,,42093,2021-09-25_11h24.19.387,judgeSpeechMusic_20210921_logNormShiftAmp_detection_fixS,2020.1.2,MacIntel,60,,,,,,,,,,,,,,,,,,2,5.7846,,0,0,26,26,15,1,stimuli/stim_20210706_power2amp/equal_lnn_AM1.2Hz_s35_29.m4a,,,,,,,,,,,,
,,,,,,,,,,,,42093,2021-09-25_11h24.19.387,judgeSpeechMusic_20210921_logNormShiftAmp_detection_fixS,2020.1.2,MacIntel,60,,,,,,,,,,,,,,,,,,2,5.6864,,0,0,27,27,8,1,stimuli/stim_20210706_power2amp/equal_lnn_AM0.6Hz_s35_18.m4a,,,,,,,,,,,,
,,,,,,,,,,,,42093,2021-09-25_11h24.19.387,judgeSpeechMusic_20210921_logNormShiftAmp_detection_fixS,2020.1.2,MacIntel,60,,,,,,,,,,,,,,,,,,2,5.8606,,0,0,28,28,19,1,stimuli/stim_20210706_power2amp/equal_lnn_AM1.2Hz_s35_38.m4a,,,,,,,,,,,,
,,,,,,,,,,,,42093,2021-09-25_11h24.19.387,judgeSpeechMusic_20210921_logNormShiftAmp_detection_fixS,2020.1.2,MacIntel,60,,,,,,,,,,,,,,,,,,1,6.0848,,0,0,29,29,39,1,stimuli/stim_20210706_power2amp/equal_lnn_AM2.4Hz_s35_24.m4a,,,,,,,,,,,,
,,,,,,,,,,,,42093,2021-09-25_11h24.19.387,judgeSpeechMusic_20210921_logNormShiftAmp_detection_fixS,2020.1.2,MacIntel,60,,,,,,,,,,,,,,,,,,2,7.3511,,0,0,30,30,57,1,stimuli/stim_20210706_power2amp/equal_lnn_AM3.6Hz_s35_22.m4a,,,,,,,,,,,,
,,,,,,,,,,,,42093,2021-09-25_11h24.19.387,judgeSpeechMusic_20210921_logNormShiftAmp_detection_fixS,2020.1.2,MacIntel,60,,,,,,,,,,,,,,,,,,2,6.3239,,0,0,31,31,9,1,stimuli/stim_20210706_power2amp/equal_lnn_AM0.6Hz_s35_44.m4a,,,,,,,,,,,,
,,,,,,,,,,,,42093,2021-09-25_11h24.19.387,judgeSpeechMusic_20210921_logNormShiftAmp_detection_fixS,2020.1.2,MacIntel,60,,,,,,,,,,,,,,,,,,2,8.478,,0,0,32,32,36,1,stimuli/stim_20210706_power2amp/equal_lnn_AM2.4Hz_s35_43.m4a,,,,,,,,,,,,
,,,,,,,,,,,,42093,2021-09-25_11h24.19.387,judgeSpeechMusic_20210921_logNormShiftAmp_detection_fixS,2020.1.2,MacIntel,60,,,,,,,,,,,,,,,,,,2,6.0326,,0,0,33,33,20,1,stimuli/stim_20210706_power2amp/equal_lnn_AM1.2Hz_s35_20.m4a,,,,,,,,,,,,
,,,,,,,,,,,,42093,2021-09-25_11h24.19.387,judgeSpeechMusic_20210921_logNormShiftAmp_detection_fixS,2020.1.2,MacIntel,60,,,,,,,,,,,,,,,,,,1,7.3989,,0,0,34,34,30,1,stimuli/stim_20210706_power2amp/equal_lnn_AM2.4Hz_s35_16.m4a,,,,,,,,,,,,
,,,,,,,,,,,,42093,2021-09-25_11h24.19.387,judgeSpeechMusic_20210921_logNormShiftAmp_detection_fixS,2020.1.2,MacIntel,60,,,,,,,,,,,,,,,,,,2,6.0798,,0,0,35,35,27,1,stimuli/stim_20210706_power2amp/equal_lnn_AM1.2Hz_s35_41.m4a,,,,,,,,,,,,
,,,,,,,,,,,,42093,2021-09-25_11h24.19.387,judgeSpeechMusic_20210921_logNormShiftAmp_detection_fixS,2020.1.2,MacIntel,60,,,,,,,,,,,,,,,,,,1,13.8336,,0,0,36,36,14,1,stimuli/stim_20210706_power2amp/equal_lnn_AM0.6Hz_s35_37.m4a,,,,,,,,,,,,
,,,,,,,,,,,,42093,2021-09-25_11h24.19.387,judgeSpeechMusic_20210921_logNormShiftAmp_detection_fixS,2020.1.2,MacIntel,60,,,,,,,,,,,,,,,,,,2,6.2665,,0,0,37,37,52,1,stimuli/stim_20210706_power2amp/equal_lnn_AM3.6Hz_s35_50.m4a,,,,,,,,,,,,
,,,,,,,,,,,,42093,2021-09-25_11h24.19.387,judgeSpeechMusic_20210921_logNormShiftAmp_detection_fixS,2020.1.2,MacIntel,60,,,,,,,,,,,,,,,,,,2,6.0184,,0,0,38,38,29,1,stimuli/stim_20210706_power2amp/equal_lnn_AM1.2Hz_s35_32.m4a,,,,,,,,,,,,
,,,,,,,,,,,,42093,2021-09-25_11h24.19.387,judgeSpeechMusic_20210921_logNormShiftAmp_detection_fixS,2020.1.2,MacIntel,60,,,,,,,,,,,,,,,,,,2,6.0541,,0,0,39,39,11,1,stimuli/stim_20210706_power2amp/equal_lnn_AM0.6Hz_s35_22.m4a,,,,,,,,,,,,
,,,,,,,,,,,,42093,2021-09-25_11h24.19.387,judgeSpeechMusic_20210921_logNormShiftAmp_detection_fixS,2020.1.2,MacIntel,60,,,,,,,,,,,,,,,,,,1,6.6475,,0,0,40,40,63,1,stimuli/stim_20210706_power2amp/equal_lnn_AM4.2Hz_s35_41.m4a,,,,,,,,,,,,
,,,,,,,,,,,,42093,2021-09-25_11h24.19.387,judgeSpeechMusic_20210921_logNormShiftAmp_detection_fixS,2020.1.2,MacIntel,60,,,,,,,,,,,,,,,,,,1,5.6679,,0,0,41,41,58,1,stimuli/stim_20210706_power2amp/equal_lnn_AM3.6Hz_s35_6.m4a,,,,,,,,,,,,
,,,,,,,,,,,,42093,2021-09-25_11h24.19.387,judgeSpeechMusic_20210921_logNormShiftAmp_detection_fixS,2020.1.2,MacIntel,60,,,,,,,,,,,,,,,,,,1,5.7228,3,1,0,42,42,26,1,stimuli/stim_20210706_power2amp/equal_lnn_AM1.2Hz_s35_25.m4a,0.5769,,,,,,,,,,,
,,,,,,,,,,,,42093,2021-09-25_11h24.19.387,judgeSpeechMusic_20210921_logNormShiftAmp_detection_fixS,2020.1.2,MacIntel,60,,,,,,,,,,,,,,,,,,2,6.6045,,0,0,43,43,44,1,stimuli/stim_20210706_power2amp/equal_lnn_AM2.4Hz_s35_10.m4a,,,,,,,,,,,,
,,,,,,,,,,,,42093,2021-09-25_11h24.19.387,judgeSpeechMusic_20210921_logNormShiftAmp_detection_fixS,2020.1.2,MacIntel,60,,,,,,,,,,,,,,,,,,1,7.7815,,0,0,44,44,21,1,stimuli/stim_20210706_power2amp/equal_lnn_AM1.2Hz_s35_10.m4a,,,,,,,,,,,,
,,,,,,,,,,,,42093,2021-09-25_11h24.19.387,judgeSpeechMusic_20210921_logNormShiftAmp_detection_fixS,2020.1.2,MacIntel,60,,,,,,,,,,,,,,,,,,2,6.6496,,0,0,45,45,60,1,stimuli/stim_20210706_power2amp/equal_lnn_AM4.2Hz_s35_42.m4a,,,,,,,,,,,,
,,,,,,,,,,,,42093,2021-09-25_11h24.19.387,judgeSpeechMusic_20210921_logNormShiftAmp_detection_fixS,2020.1.2,MacIntel,60,,,,,,,,,,,,,,,,,,2,5.6711,,0,0,46,46,65,1,stimuli/stim_20210706_power2amp/equal_lnn_AM4.2Hz_s35_25.m4a,,,,,,,,,,,,
,,,,,,,,,,,,42093,2021-09-25_11h24.19.387,judgeSpeechMusic_20210921_logNormShiftAmp_detection_fixS,2020.1.2,MacIntel,60,,,,,,,,,,,,,,,,,,2,5.6993,,0,0,47,47,64,1,stimuli/stim_20210706_power2amp/equal_lnn_AM4.2Hz_s35_30.m4a,,,,,,,,,,,,
,,,,,,,,,,,,42093,2021-09-25_11h24.19.387,judgeSpeechMusic_20210921_logNormShiftAmp_detection_fixS,2020.1.2,MacIntel,60,,,,,,,,,,,,,,,,,,2,6.6211,,0,0,48,48,45,1,stimuli/stim_20210706_power2amp/equal_lnn_AM3.6Hz_s35_23.m4a,,,,,,,,,,,,
,,,,,,,,,,,,42093,2021-09-25_11h24.19.387,judgeSpeechMusic_20210921_logNormShiftAmp_detection_fixS,2020.1.2,MacIntel,60,,,,,,,,,,,,,,,,,,2,9.2225,,0,0,49,49,62,1,stimuli/stim_20210706_power2amp/equal_lnn_AM4.2Hz_s35_32.m4a,,,,,,,,,,,,
,,,,,,,,,,,,42093,2021-09-25_11h24.19.387,judgeSpeechMusic_20210921_logNormShiftAmp_detection_fixS,2020.1.2,MacIntel,60,,,,,,,,,,,,,,,,,,1,7.1865,,0,0,50,50,3,1,stimuli/stim_20210706_power2amp/equal_lnn_AM0.6Hz_s35_45.m4a,,,,,,,,,,,,
,,,,,,,,,,,,42093,2021-09-25_11h24.19.387,judgeSpeechMusic_20210921_logNormShiftAmp_detection_fixS,2020.1.2,MacIntel,60,,,,,,,,,,,,,,,,,,2,6.088,,0,0,51,51,70,1,stimuli/stim_20210706_power2amp/equal_lnn_AM4.2Hz_s35_3.m4a,,,,,,,,,,,,
,,,,,,,,,,,,42093,2021-09-25_11h24.19.387,judgeSpeechMusic_20210921_logNormShiftAmp_detection_fixS,2020.1.2,MacIntel,60,,,,,,,,,,,,,,,,,,2,6.4863,,0,0,52,52,55,1,stimuli/stim_20210706_power2amp/equal_lnn_AM3.6Hz_s35_16.m4a,,,,,,,,,,,,
,,,,,,,,,,,,42093,2021-09-25_11h24.19.387,judgeSpeechMusic_20210921_logNormShiftAmp_detection_fixS,2020.1.2,MacIntel,60,,,,,,,,,,,,,,,,,,1,6.5878,,0,0,53,53,54,1,stimuli/stim_20210706_power2amp/equal_lnn_AM3.6Hz_s35_44.m4a,,,,,,,,,,,,
,,,,,,,,,,,,42093,2021-09-25_11h24.19.387,judgeSpeechMusic_20210921_logNormShiftAmp_detection_fixS,2020.1.2,MacIntel,60,,,,,,,,,,,,,,,,,,2,15.3338,,0,0,54,54,67,1,stimuli/stim_20210706_power2amp/equal_lnn_AM4.2Hz_s35_13.m4a,,,,,,,,,,,,
,,,,,,,,,,,,42093,2021-09-25_11h24.19.387,judgeSpeechMusic_20210921_logNormShiftAmp_detection_fixS,2020.1.2,MacIntel,60,,,,,,,,,,,,,,,,,,1,5.6008,,0,0,55,55,0,1,stimuli/stim_20210706_power2amp/equal_lnn_AM0.6Hz_s35_7.m4a,,,,,,,,,,,,
,,,,,,,,,,,,42093,2021-09-25_11h24.19.387,judgeSpeechMusic_20210921_logNormShiftAmp_detection_fixS,2020.1.2,MacIntel,60,,,,,,,,,,,,,,,,,,2,5.8132,,0,0,56,56,72,1,stimuli/stim_20210706_power2amp/equal_lnn_AM4.2Hz_s35_18.m4a,,,,,,,,,,,,
,,,,,,,,,,,,42093,2021-09-25_11h24.19.387,judgeSpeechMusic_20210921_logNormShiftAmp_detection_fixS,2020.1.2,MacIntel,60,,,,,,,,,,,,,,,,,,2,5.8142,,0,0,57,57,49,1,stimuli/stim_20210706_power2amp/equal_lnn_AM3.6Hz_s35_39.m4a,,,,,,,,,,,,
,,,,,,,,,,,,42093,2021-09-25_11h24.19.387,judgeSpeechMusic_20210921_logNormShiftAmp_detection_fixS,2020.1.2,MacIntel,60,,,,,,,,,,,,,,,,,,1,6.5545,,0,0,58,58,40,1,stimuli/stim_20210706_power2amp/equal_lnn_AM2.4Hz_s35_4.m4a,,,,,,,,,,,,
,,,,,,,,,,,,42093,2021-09-25_11h24.19.387,judgeSpeechMusic_20210921_logNormShiftAmp_detection_fixS,2020.1.2,MacIntel,60,,,,,,,,,,,,,,,,,,2,6.35,,0,0,59,59,16,1,stimuli/stim_20210706_power2amp/equal_lnn_AM1.2Hz_s35_35.m4a,,,,,,,,,,,,
,,,,,,,,,,,,42093,2021-09-25_11h24.19.387,judgeSpeechMusic_20210921_logNormShiftAmp_detection_fixS,2020.1.2,MacIntel,60,,,,,,,,,,,,,,,,,,1,6.2853,,0,0,60,60,47,1,stimuli/stim_20210706_power2amp/equal_lnn_AM3.6Hz_s35_13.m4a,,,,,,,,,,,,
,,,,,,,,,,,,42093,2021-09-25_11h24.19.387,judgeSpeechMusic_20210921_logNormShiftAmp_detection_fixS,2020.1.2,MacIntel,60,,,,,,,,,,,,,,,,,,2,6.3005,3,1,0,61,61,17,1,stimuli/stim_20210706_power2amp/equal_lnn_AM1.2Hz_s35_46.m4a,0.5319,,,,,,,,,,,
,,,,,,,,,,,,42093,2021-09-25_11h24.19.387,judgeSpeechMusic_20210921_logNormShiftAmp_detection_fixS,2020.1.2,MacIntel,60,,,,,,,,,,,,,,,,,,1,5.834,,0,0,62,62,61,1,stimuli/stim_20210706_power2amp/equal_lnn_AM4.2Hz_s35_36.m4a,,,,,,,,,,,,
,,,,,,,,,,,,42093,2021-09-25_11h24.19.387,judgeSpeechMusic_20210921_logNormShiftAmp_detection_fixS,2020.1.2,MacIntel,60,,,,,,,,,,,,,,,,,,2,5.9863,,0,0,63,63,33,1,stimuli/stim_20210706_power2amp/equal_lnn_AM2.4Hz_s35_11.m4a,,,,,,,,,,,,
,,,,,,,,,,,,42093,2021-09-25_11h24.19.387,judgeSpeechMusic_20210921_logNormShiftAmp_detection_fixS,2020.1.2,MacIntel,60,,,,,,,,,,,,,,,,,,2,5.2206,,0,0,64,64,31,1,stimuli/stim_20210706_power2amp/equal_lnn_AM2.4Hz_s35_37.m4a,,,,,,,,,,,,
,,,,,,,,,,,,42093,2021-09-25_11h24.19.387,judgeSpeechMusic_20210921_logNormShiftAmp_detection_fixS,2020.1.2,MacIntel,60,,,,,,,,,,,,,,,,,,1,5.3403,,0,0,65,65,6,1,stimuli/stim_20210706_power2amp/equal_lnn_AM0.6Hz_s35_25.m4a,,,,,,,,,,,,
,,,,,,,,,,,,42093,2021-09-25_11h24.19.387,judgeSpeechMusic_20210921_logNormShiftAmp_detection_fixS,2020.1.2,MacIntel,60,,,,,,,,,,,,,,,,,,2,5.7845,,0,0,66,66,66,1,stimuli/stim_20210706_power2amp/equal_lnn_AM4.2Hz_s35_12.m4a,,,,,,,,,,,,
,,,,,,,,,,,,42093,2021-09-25_11h24.19.387,judgeSpeechMusic_20210921_logNormShiftAmp_detection_fixS,2020.1.2,MacIntel,60,,,,,,,,,,,,,,,,,,2,5.3364,,0,0,67,67,68,1,stimuli/stim_20210706_power2amp/equal_lnn_AM4.2Hz_s35_35.m4a,,,,,,,,,,,,
,,,,,,,,,,,,42093,2021-09-25_11h24.19.387,judgeSpeechMusic_20210921_logNormShiftAmp_detection_fixS,2020.1.2,MacIntel,60,,,,,,,,,,,,,,,,,,2,5.8615,,0,0,68,68,23,1,stimuli/stim_20210706_power2amp/equal_lnn_AM1.2Hz_s35_27.m4a,,,,,,,,,,,,
,,,,,,,,,,,,42093,2021-09-25_11h24.19.387,judgeSpeechMusic_20210921_logNormShiftAmp_detection_fixS,2020.1.2,MacIntel,60,,,,,,,,,,,,,,,,,,2,5.7206,,0,0,69,69,41,1,stimuli/stim_20210706_power2amp/equal_lnn_AM2.4Hz_s35_8.m4a,,,,,,,,,,,,
,,,,,,,,,,,,42093,2021-09-25_11h24.19.387,judgeSpeechMusic_20210921_logNormShiftAmp_detection_fixS,2020.1.2,MacIntel,60,,,,,,,,,,,,,,,,,,2,5.7685,,0,0,70,70,59,1,stimuli/stim_20210706_power2amp/equal_lnn_AM3.6Hz_s35_21.m4a,,,,,,,,,,,,
,,,,,,,,,,,,42093,2021-09-25_11h24.19.387,judgeSpeechMusic_20210921_logNormShiftAmp_detection_fixS,2020.1.2,MacIntel,60,,,,,,,,,,,,,,,,,,2,9.0428,,0,0,71,71,74,1,stimuli/stim_20210706_power2amp/equal_lnn_AM4.2Hz_s35_19.m4a,,,,,,,,,,,,
,,,,,,,,,,,,42093,2021-09-25_11h24.19.387,judgeSpeechMusic_20210921_logNormShiftAmp_detection_fixS,2020.1.2,MacIntel,60,,,,,,,,,,,,,,,,,,2,6.2507,,0,0,72,72,43,1,stimuli/stim_20210706_power2amp/equal_lnn_AM2.4Hz_s35_3.m4a,,,,,,,,,,,,
,,,,,,,,,,,,42093,2021-09-25_11h24.19.387,judgeSpeechMusic_20210921_logNormShiftAmp_detection_fixS,2020.1.2,MacIntel,60,,,,,,,,,,,,,,,,,,1,5.7039,,0,0,73,73,1,1,stimuli/stim_20210706_power2amp/equal_lnn_AM0.6Hz_s35_34.m4a,,,,,,,,,,,,
,,,,,,,,,,,,42093,2021-09-25_11h24.19.387,judgeSpeechMusic_20210921_logNormShiftAmp_detection_fixS,2020.1.2,MacIntel,60,,,,,,,,,,,,,,,,,,2,6.3474,,0,0,74,74,22,1,stimuli/stim_20210706_power2amp/equal_lnn_AM1.2Hz_s35_26.m4a,,,,,,,,,,,,
,,,,,,,,,,,,42093,2021-09-25_11h24.19.387,judgeSpeechMusic_20210921_logNormShiftAmp_detection_fixS,2020.1.2,MacIntel,60,,,,,,,,,,,,,,,,,,,,,,,,,,,,,,,1,1,3,1,1,SPEECH,stimuli/SPEECH.jpg,,
,,,,,,,,,,,,42093,2021-09-25_11h24.19.387,judgeSpeechMusic_20210921_logNormShiftAmp_detection_fixS,2020.1.2,MacIntel,60,,,,,,,,,,,,,,,,,,,,,,,,,,,,,,,,,,,,,,space,9.8253
