volAdjustRep.thisRepN,volAdjustRep.thisTrialN,volAdjustRep.thisN,volAdjustRep.thisIndex,volAdjustRep.ran,participant,date,expName,psychopyVersion,OS,frameRate,headphoneResponse.keys,headphoneResponse.corr,headphoneResponse.rt,headphoneTrial.thisRepN,headphoneTrial.thisTrialN,headphoneTrial.thisN,headphoneTrial.thisIndex,headphoneTrial.ran,headphone_sound1,headphone_sound2,headphone_sound3,corrAns,checkInstruKey.keys,checkInstruKey.rt,trainSlider.response,trainSlider.rt,beepTrainResponse.keys,beepTrainResponse.corr,trainingTrials.thisRepN,trainingTrials.thisTrialN,trainingTrials.thisN,trainingTrials.thisIndex,trainingTrials.ran,trainAudioFile,beepTrainResponse.rt,readyReal_resp.keys,readyReal_resp.rt,checkInstru2_key.keys,checkInstru2_key.rt,ratingSlider.response,ratingSlider.rt,beepResp.keys,beepResp.corr,expTrials.thisRepN,expTrials.thisTrialN,expTrials.thisN,expTrials.thisIndex,expTrials.ran,audioFile,beepResp.rt,switchBlock_space.keys,switchBlock_space.rt,block.thisRepN,block.thisTrialN,block.thisN,block.thisIndex,block.ran,blockName,blockImage,end_resp.keys,end_resp.rt
0,0,0,0,1,39915,2021-10-11_11h21.00.696,judgeSpeechMusic_20210919_logNormShiftAmp_detection_fixFreq,2020.1.2,MacIntel,60,,,,,,,,,,,,,,,,,,,,,,,,,,,,,,,,,,,,,,,,,,,,,,,,,,,
,,,,,39915,2021-10-11_11h21.00.696,judgeSpeechMusic_20210919_logNormShiftAmp_detection_fixFreq,2020.1.2,MacIntel,60,2,1,1.596,0,0,0,1,1,stimuli/screen_antiphase.wav,stimuli/screen_quiet.wav,stimuli/screen_origin.wav,2,,,,,,,,,,,,,,,,,,,,,,,,,,,,,,,,,,,,,,,
,,,,,39915,2021-10-11_11h21.00.696,judgeSpeechMusic_20210919_logNormShiftAmp_detection_fixFreq,2020.1.2,MacIntel,60,3,1,0.6417,0,1,1,2,1,stimuli/screen_origin.wav,stimuli/screen_antiphase.wav,stimuli/screen_quiet.wav,3,,,,,,,,,,,,,,,,,,,,,,,,,,,,,,,,,,,,,,,
,,,,,39915,2021-10-11_11h21.00.696,judgeSpeechMusic_20210919_logNormShiftAmp_detection_fixFreq,2020.1.2,MacIntel,60,1,1,0.5717,0,2,2,5,1,stimuli/screen_quiet.wav,stimuli/screen_origin.wav,stimuli/screen_antiphase.wav,1,,,,,,,,,,,,,,,,,,,,,,,,,,,,,,,,,,,,,,,
,,,,,39915,2021-10-11_11h21.00.696,judgeSpeechMusic_20210919_logNormShiftAmp_detection_fixFreq,2020.1.2,MacIntel,60,3,1,0.4349,0,3,3,0,1,stimuli/screen_antiphase.wav,stimuli/screen_origin.wav,stimuli/screen_quiet.wav,3,,,,,,,,,,,,,,,,,,,,,,,,,,,,,,,,,,,,,,,
,,,,,39915,2021-10-11_11h21.00.696,judgeSpeechMusic_20210919_logNormShiftAmp_detection_fixFreq,2020.1.2,MacIntel,60,1,1,1.4526,0,4,4,4,1,stimuli/screen_quiet.wav,stimuli/screen_antiphase.wav,stimuli/screen_origin.wav,1,,,,,,,,,,,,,,,,,,,,,,,,,,,,,,,,,,,,,,,
,,,,,39915,2021-10-11_11h21.00.696,judgeSpeechMusic_20210919_logNormShiftAmp_detection_fixFreq,2020.1.2,MacIntel,60,2,1,0.5072,0,5,5,3,1,stimuli/screen_origin.wav,stimuli/screen_quiet.wav,stimuli/screen_antiphase.wav,2,,,,,,,,,,,,,,,,,,,,,,,,,,,,,,,,,,,,,,,
,,,,,39915,2021-10-11_11h21.00.696,judgeSpeechMusic_20210919_logNormShiftAmp_detection_fixFreq,2020.1.2,MacIntel,60,,,,,,,,,,,,,space,0.9305,1,8.2909,,0,0,0,0,1,1,stimuli/stim_20210919_power2amp/equal_lnn_AM_training2Hz_s30.m4a,,,,,,,,,,,,,,,,,,,,,,,,,,,
,,,,,39915,2021-10-11_11h21.00.696,judgeSpeechMusic_20210919_logNormShiftAmp_detection_fixFreq,2020.1.2,MacIntel,60,,,,,,,,,,,,,,,2,14.0009,,0,0,1,1,0,1,stimuli/stim_20210919_power2amp/equal_lnn_AM_training2Hz_s20.m4a,,,,,,,,,,,,,,,,,,,,,,,,,,,
,,,,,39915,2021-10-11_11h21.00.696,judgeSpeechMusic_20210919_logNormShiftAmp_detection_fixFreq,2020.1.2,MacIntel,60,,,,,,,,,,,,,,,1,6.6695,2,1,0,2,2,3,1,stimuli/stim_20210919_power2amp/equal_lnn_AM_training2Hz_s50.m4a,1.9548,,,,,,,,,,,,,,,,,,,,,,,,,,
,,,,,39915,2021-10-11_11h21.00.696,judgeSpeechMusic_20210919_logNormShiftAmp_detection_fixFreq,2020.1.2,MacIntel,60,,,,,,,,,,,,,,,1,6.8771,,0,0,3,3,2,1,stimuli/stim_20210919_power2amp/equal_lnn_AM_training2Hz_s40.m4a,,,,,,,,,,,,,,,,,,,,,,,,,,,
,,,,,39915,2021-10-11_11h21.00.696,judgeSpeechMusic_20210919_logNormShiftAmp_detection_fixFreq,2020.1.2,MacIntel,60,,,,,,,,,,,,,,,,,,,,,,,,,,space,6.3595,space,2.099,1,6.7804,,0,0,0,0,9,1,stimuli/stim_20210919_power2amp/equal_lnn_AM2Hz_s15_10.m4a,,,,,,,,,,,,
,,,,,39915,2021-10-11_11h21.00.696,judgeSpeechMusic_20210919_logNormShiftAmp_detection_fixFreq,2020.1.2,MacIntel,60,,,,,,,,,,,,,,,,,,,,,,,,,,,,,,2,6.2389,,0,0,1,1,28,1,stimuli/stim_20210919_power2amp/equal_lnn_AM2Hz_s25_29.m4a,,,,,,,,,,,,
,,,,,39915,2021-10-11_11h21.00.696,judgeSpeechMusic_20210919_logNormShiftAmp_detection_fixFreq,2020.1.2,MacIntel,60,,,,,,,,,,,,,,,,,,,,,,,,,,,,,,1,6.5967,,0,0,2,2,12,1,stimuli/stim_20210919_power2amp/equal_lnn_AM2Hz_s15_28.m4a,,,,,,,,,,,,
,,,,,39915,2021-10-11_11h21.00.696,judgeSpeechMusic_20210919_logNormShiftAmp_detection_fixFreq,2020.1.2,MacIntel,60,,,,,,,,,,,,,,,,,,,,,,,,,,,,,,2,6.2134,,0,0,3,3,2,1,stimuli/stim_20210919_power2amp/equal_lnn_AM2Hz_s15_43.m4a,,,,,,,,,,,,
,,,,,39915,2021-10-11_11h21.00.696,judgeSpeechMusic_20210919_logNormShiftAmp_detection_fixFreq,2020.1.2,MacIntel,60,,,,,,,,,,,,,,,,,,,,,,,,,,,,,,1,6.2051,,0,0,4,4,63,1,stimuli/stim_20210919_power2amp/equal_lnn_AM2Hz_s55_8.m4a,,,,,,,,,,,,
,,,,,39915,2021-10-11_11h21.00.696,judgeSpeechMusic_20210919_logNormShiftAmp_detection_fixFreq,2020.1.2,MacIntel,60,,,,,,,,,,,,,,,,,,,,,,,,,,,,,,1,6.0916,,0,0,5,5,0,1,stimuli/stim_20210919_power2amp/equal_lnn_AM2Hz_s15_6.m4a,,,,,,,,,,,,
,,,,,39915,2021-10-11_11h21.00.696,judgeSpeechMusic_20210919_logNormShiftAmp_detection_fixFreq,2020.1.2,MacIntel,60,,,,,,,,,,,,,,,,,,,,,,,,,,,,,,2,6.0377,,0,0,6,6,48,1,stimuli/stim_20210919_power2amp/equal_lnn_AM2Hz_s45_18.m4a,,,,,,,,,,,,
,,,,,39915,2021-10-11_11h21.00.696,judgeSpeechMusic_20210919_logNormShiftAmp_detection_fixFreq,2020.1.2,MacIntel,60,,,,,,,,,,,,,,,,,,,,,,,,,,,,,,1,6.3598,,0,0,7,7,15,1,stimuli/stim_20210919_power2amp/equal_lnn_AM2Hz_s25_31.m4a,,,,,,,,,,,,
,,,,,39915,2021-10-11_11h21.00.696,judgeSpeechMusic_20210919_logNormShiftAmp_detection_fixFreq,2020.1.2,MacIntel,60,,,,,,,,,,,,,,,,,,,,,,,,,,,,,,2,9.5388,,0,0,8,8,35,1,stimuli/stim_20210919_power2amp/equal_lnn_AM2Hz_s35_33.m4a,,,,,,,,,,,,
,,,,,39915,2021-10-11_11h21.00.696,judgeSpeechMusic_20210919_logNormShiftAmp_detection_fixFreq,2020.1.2,MacIntel,60,,,,,,,,,,,,,,,,,,,,,,,,,,,,,,1,7.3952,,0,0,9,9,37,1,stimuli/stim_20210919_power2amp/equal_lnn_AM2Hz_s35_37.m4a,,,,,,,,,,,,
,,,,,39915,2021-10-11_11h21.00.696,judgeSpeechMusic_20210919_logNormShiftAmp_detection_fixFreq,2020.1.2,MacIntel,60,,,,,,,,,,,,,,,,,,,,,,,,,,,,,,2,6.4387,,0,0,10,10,64,1,stimuli/stim_20210919_power2amp/equal_lnn_AM2Hz_s55_37.m4a,,,,,,,,,,,,
,,,,,39915,2021-10-11_11h21.00.696,judgeSpeechMusic_20210919_logNormShiftAmp_detection_fixFreq,2020.1.2,MacIntel,60,,,,,,,,,,,,,,,,,,,,,,,,,,,,,,1,6.4613,,0,0,11,11,25,1,stimuli/stim_20210919_power2amp/equal_lnn_AM2Hz_s25_32.m4a,,,,,,,,,,,,
,,,,,39915,2021-10-11_11h21.00.696,judgeSpeechMusic_20210919_logNormShiftAmp_detection_fixFreq,2020.1.2,MacIntel,60,,,,,,,,,,,,,,,,,,,,,,,,,,,,,,1,9.6221,,0,0,12,12,57,1,stimuli/stim_20210919_power2amp/equal_lnn_AM2Hz_s45_50.m4a,,,,,,,,,,,,
,,,,,39915,2021-10-11_11h21.00.696,judgeSpeechMusic_20210919_logNormShiftAmp_detection_fixFreq,2020.1.2,MacIntel,60,,,,,,,,,,,,,,,,,,,,,,,,,,,,,,1,8.2978,,0,0,13,13,65,1,stimuli/stim_20210919_power2amp/equal_lnn_AM2Hz_s55_2.m4a,,,,,,,,,,,,
,,,,,39915,2021-10-11_11h21.00.696,judgeSpeechMusic_20210919_logNormShiftAmp_detection_fixFreq,2020.1.2,MacIntel,60,,,,,,,,,,,,,,,,,,,,,,,,,,,,,,2,6.5122,,0,0,14,14,74,1,stimuli/stim_20210919_power2amp/equal_lnn_AM2Hz_s55_18.m4a,,,,,,,,,,,,
,,,,,39915,2021-10-11_11h21.00.696,judgeSpeechMusic_20210919_logNormShiftAmp_detection_fixFreq,2020.1.2,MacIntel,60,,,,,,,,,,,,,,,,,,,,,,,,,,,,,,2,5.8727,,0,0,15,15,33,1,stimuli/stim_20210919_power2amp/equal_lnn_AM2Hz_s35_1.m4a,,,,,,,,,,,,
,,,,,39915,2021-10-11_11h21.00.696,judgeSpeechMusic_20210919_logNormShiftAmp_detection_fixFreq,2020.1.2,MacIntel,60,,,,,,,,,,,,,,,,,,,,,,,,,,,,,,1,6.2558,,0,0,16,16,32,1,stimuli/stim_20210919_power2amp/equal_lnn_AM2Hz_s35_7.m4a,,,,,,,,,,,,
,,,,,39915,2021-10-11_11h21.00.696,judgeSpeechMusic_20210919_logNormShiftAmp_detection_fixFreq,2020.1.2,MacIntel,60,,,,,,,,,,,,,,,,,,,,,,,,,,,,,,1,5.9219,,0,0,17,17,13,1,stimuli/stim_20210919_power2amp/equal_lnn_AM2Hz_s15_26.m4a,,,,,,,,,,,,
,,,,,39915,2021-10-11_11h21.00.696,judgeSpeechMusic_20210919_logNormShiftAmp_detection_fixFreq,2020.1.2,MacIntel,60,,,,,,,,,,,,,,,,,,,,,,,,,,,,,,1,6.3387,,0,0,18,18,23,1,stimuli/stim_20210919_power2amp/equal_lnn_AM2Hz_s25_36.m4a,,,,,,,,,,,,
,,,,,39915,2021-10-11_11h21.00.696,judgeSpeechMusic_20210919_logNormShiftAmp_detection_fixFreq,2020.1.2,MacIntel,60,,,,,,,,,,,,,,,,,,,,,,,,,,,,,,1,6.271,,0,0,19,19,1,1,stimuli/stim_20210919_power2amp/equal_lnn_AM2Hz_s15_33.m4a,,,,,,,,,,,,
,,,,,39915,2021-10-11_11h21.00.696,judgeSpeechMusic_20210919_logNormShiftAmp_detection_fixFreq,2020.1.2,MacIntel,60,,,,,,,,,,,,,,,,,,,,,,,,,,,,,,2,6.6596,,0,0,20,20,50,1,stimuli/stim_20210919_power2amp/equal_lnn_AM2Hz_s45_1.m4a,,,,,,,,,,,,
,,,,,39915,2021-10-11_11h21.00.696,judgeSpeechMusic_20210919_logNormShiftAmp_detection_fixFreq,2020.1.2,MacIntel,60,,,,,,,,,,,,,,,,,,,,,,,,,,,,,,2,7.0375,,0,0,21,21,22,1,stimuli/stim_20210919_power2amp/equal_lnn_AM2Hz_s25_33.m4a,,,,,,,,,,,,
,,,,,39915,2021-10-11_11h21.00.696,judgeSpeechMusic_20210919_logNormShiftAmp_detection_fixFreq,2020.1.2,MacIntel,60,,,,,,,,,,,,,,,,,,,,,,,,,,,,,,2,6.08,4,1,0,22,22,29,1,stimuli/stim_20210919_power2amp/equal_lnn_AM2Hz_s25_34.m4a,1.9307,,,,,,,,,,,
,,,,,39915,2021-10-11_11h21.00.696,judgeSpeechMusic_20210919_logNormShiftAmp_detection_fixFreq,2020.1.2,MacIntel,60,,,,,,,,,,,,,,,,,,,,,,,,,,,,,,1,6.7376,,0,0,23,23,49,1,stimuli/stim_20210919_power2amp/equal_lnn_AM2Hz_s45_38.m4a,,,,,,,,,,,,
,,,,,39915,2021-10-11_11h21.00.696,judgeSpeechMusic_20210919_logNormShiftAmp_detection_fixFreq,2020.1.2,MacIntel,60,,,,,,,,,,,,,,,,,,,,,,,,,,,,,,2,5.7262,,0,0,24,24,40,1,stimuli/stim_20210919_power2amp/equal_lnn_AM2Hz_s35_25.m4a,,,,,,,,,,,,
,,,,,39915,2021-10-11_11h21.00.696,judgeSpeechMusic_20210919_logNormShiftAmp_detection_fixFreq,2020.1.2,MacIntel,60,,,,,,,,,,,,,,,,,,,,,,,,,,,,,,2,5.8286,,0,0,25,25,18,1,stimuli/stim_20210919_power2amp/equal_lnn_AM2Hz_s25_21.m4a,,,,,,,,,,,,
,,,,,39915,2021-10-11_11h21.00.696,judgeSpeechMusic_20210919_logNormShiftAmp_detection_fixFreq,2020.1.2,MacIntel,60,,,,,,,,,,,,,,,,,,,,,,,,,,,,,,2,5.7292,,0,0,26,26,58,1,stimuli/stim_20210919_power2amp/equal_lnn_AM2Hz_s45_16.m4a,,,,,,,,,,,,
,,,,,39915,2021-10-11_11h21.00.696,judgeSpeechMusic_20210919_logNormShiftAmp_detection_fixFreq,2020.1.2,MacIntel,60,,,,,,,,,,,,,,,,,,,,,,,,,,,,,,1,6.4923,,0,0,27,27,4,1,stimuli/stim_20210919_power2amp/equal_lnn_AM2Hz_s15_29.m4a,,,,,,,,,,,,
,,,,,39915,2021-10-11_11h21.00.696,judgeSpeechMusic_20210919_logNormShiftAmp_detection_fixFreq,2020.1.2,MacIntel,60,,,,,,,,,,,,,,,,,,,,,,,,,,,,,,1,8.8218,,0,0,28,28,68,1,stimuli/stim_20210919_power2amp/equal_lnn_AM2Hz_s55_15.m4a,,,,,,,,,,,,
,,,,,39915,2021-10-11_11h21.00.696,judgeSpeechMusic_20210919_logNormShiftAmp_detection_fixFreq,2020.1.2,MacIntel,60,,,,,,,,,,,,,,,,,,,,,,,,,,,,,,2,9.7444,,0,0,29,29,60,1,stimuli/stim_20210919_power2amp/equal_lnn_AM2Hz_s55_10.m4a,,,,,,,,,,,,
,,,,,39915,2021-10-11_11h21.00.696,judgeSpeechMusic_20210919_logNormShiftAmp_detection_fixFreq,2020.1.2,MacIntel,60,,,,,,,,,,,,,,,,,,,,,,,,,,,,,,1,6.0056,,0,0,30,30,36,1,stimuli/stim_20210919_power2amp/equal_lnn_AM2Hz_s35_24.m4a,,,,,,,,,,,,
,,,,,39915,2021-10-11_11h21.00.696,judgeSpeechMusic_20210919_logNormShiftAmp_detection_fixFreq,2020.1.2,MacIntel,60,,,,,,,,,,,,,,,,,,,,,,,,,,,,,,2,6.2893,,0,0,31,31,62,1,stimuli/stim_20210919_power2amp/equal_lnn_AM2Hz_s55_25.m4a,,,,,,,,,,,,
,,,,,39915,2021-10-11_11h21.00.696,judgeSpeechMusic_20210919_logNormShiftAmp_detection_fixFreq,2020.1.2,MacIntel,60,,,,,,,,,,,,,,,,,,,,,,,,,,,,,,1,5.8198,,0,0,32,32,5,1,stimuli/stim_20210919_power2amp/equal_lnn_AM2Hz_s15_5.m4a,,,,,,,,,,,,
,,,,,39915,2021-10-11_11h21.00.696,judgeSpeechMusic_20210919_logNormShiftAmp_detection_fixFreq,2020.1.2,MacIntel,60,,,,,,,,,,,,,,,,,,,,,,,,,,,,,,1,6.1783,,0,0,33,33,56,1,stimuli/stim_20210919_power2amp/equal_lnn_AM2Hz_s45_40.m4a,,,,,,,,,,,,
,,,,,39915,2021-10-11_11h21.00.696,judgeSpeechMusic_20210919_logNormShiftAmp_detection_fixFreq,2020.1.2,MacIntel,60,,,,,,,,,,,,,,,,,,,,,,,,,,,,,,1,6.5545,,0,0,34,34,70,1,stimuli/stim_20210919_power2amp/equal_lnn_AM2Hz_s55_36.m4a,,,,,,,,,,,,
,,,,,39915,2021-10-11_11h21.00.696,judgeSpeechMusic_20210919_logNormShiftAmp_detection_fixFreq,2020.1.2,MacIntel,60,,,,,,,,,,,,,,,,,,,,,,,,,,,,,,1,8.3645,,0,0,35,35,47,1,stimuli/stim_20210919_power2amp/equal_lnn_AM2Hz_s45_23.m4a,,,,,,,,,,,,
,,,,,39915,2021-10-11_11h21.00.696,judgeSpeechMusic_20210919_logNormShiftAmp_detection_fixFreq,2020.1.2,MacIntel,60,,,,,,,,,,,,,,,,,,,,,,,,,,,,,,2,8.1108,,0,0,36,36,67,1,stimuli/stim_20210919_power2amp/equal_lnn_AM2Hz_s55_12.m4a,,,,,,,,,,,,
,,,,,39915,2021-10-11_11h21.00.696,judgeSpeechMusic_20210919_logNormShiftAmp_detection_fixFreq,2020.1.2,MacIntel,60,,,,,,,,,,,,,,,,,,,,,,,,,,,,,,1,30.7112,,0,0,37,37,55,1,stimuli/stim_20210919_power2amp/equal_lnn_AM2Hz_s45_28.m4a,,,,,,,,,,,,
,,,,,39915,2021-10-11_11h21.00.696,judgeSpeechMusic_20210919_logNormShiftAmp_detection_fixFreq,2020.1.2,MacIntel,60,,,,,,,,,,,,,,,,,,,,,,,,,,,,,,2,7.3388,,0,0,38,38,53,1,stimuli/stim_20210919_power2amp/equal_lnn_AM2Hz_s45_39.m4a,,,,,,,,,,,,
,,,,,39915,2021-10-11_11h21.00.696,judgeSpeechMusic_20210919_logNormShiftAmp_detection_fixFreq,2020.1.2,MacIntel,60,,,,,,,,,,,,,,,,,,,,,,,,,,,,,,1,26.9456,,0,0,39,39,71,1,stimuli/stim_20210919_power2amp/equal_lnn_AM2Hz_s55_23.m4a,,,,,,,,,,,,
,,,,,39915,2021-10-11_11h21.00.696,judgeSpeechMusic_20210919_logNormShiftAmp_detection_fixFreq,2020.1.2,MacIntel,60,,,,,,,,,,,,,,,,,,,,,,,,,,,,,,2,6.458,,0,0,40,40,45,1,stimuli/stim_20210919_power2amp/equal_lnn_AM2Hz_s45_25.m4a,,,,,,,,,,,,
,,,,,39915,2021-10-11_11h21.00.696,judgeSpeechMusic_20210919_logNormShiftAmp_detection_fixFreq,2020.1.2,MacIntel,60,,,,,,,,,,,,,,,,,,,,,,,,,,,,,,2,5.8428,,0,0,41,41,54,1,stimuli/stim_20210919_power2amp/equal_lnn_AM2Hz_s45_49.m4a,,,,,,,,,,,,
,,,,,39915,2021-10-11_11h21.00.696,judgeSpeechMusic_20210919_logNormShiftAmp_detection_fixFreq,2020.1.2,MacIntel,60,,,,,,,,,,,,,,,,,,,,,,,,,,,,,,1,6.2632,,0,0,42,42,69,1,stimuli/stim_20210919_power2amp/equal_lnn_AM2Hz_s55_38.m4a,,,,,,,,,,,,
,,,,,39915,2021-10-11_11h21.00.696,judgeSpeechMusic_20210919_logNormShiftAmp_detection_fixFreq,2020.1.2,MacIntel,60,,,,,,,,,,,,,,,,,,,,,,,,,,,,,,2,7.0624,,0,0,43,43,38,1,stimuli/stim_20210919_power2amp/equal_lnn_AM2Hz_s35_29.m4a,,,,,,,,,,,,
,,,,,39915,2021-10-11_11h21.00.696,judgeSpeechMusic_20210919_logNormShiftAmp_detection_fixFreq,2020.1.2,MacIntel,60,,,,,,,,,,,,,,,,,,,,,,,,,,,,,,1,6.3449,1,1,0,44,44,44,1,stimuli/stim_20210919_power2amp/equal_lnn_AM2Hz_s35_14.m4a,1.4799,,,,,,,,,,,
,,,,,39915,2021-10-11_11h21.00.696,judgeSpeechMusic_20210919_logNormShiftAmp_detection_fixFreq,2020.1.2,MacIntel,60,,,,,,,,,,,,,,,,,,,,,,,,,,,,,,2,5.8218,,0,0,45,45,73,1,stimuli/stim_20210919_power2amp/equal_lnn_AM2Hz_s55_24.m4a,,,,,,,,,,,,
,,,,,39915,2021-10-11_11h21.00.696,judgeSpeechMusic_20210919_logNormShiftAmp_detection_fixFreq,2020.1.2,MacIntel,60,,,,,,,,,,,,,,,,,,,,,,,,,,,,,,2,6.2582,,0,0,46,46,19,1,stimuli/stim_20210919_power2amp/equal_lnn_AM2Hz_s25_9.m4a,,,,,,,,,,,,
,,,,,39915,2021-10-11_11h21.00.696,judgeSpeechMusic_20210919_logNormShiftAmp_detection_fixFreq,2020.1.2,MacIntel,60,,,,,,,,,,,,,,,,,,,,,,,,,,,,,,2,5.8881,,0,0,47,47,31,1,stimuli/stim_20210919_power2amp/equal_lnn_AM2Hz_s35_41.m4a,,,,,,,,,,,,
,,,,,39915,2021-10-11_11h21.00.696,judgeSpeechMusic_20210919_logNormShiftAmp_detection_fixFreq,2020.1.2,MacIntel,60,,,,,,,,,,,,,,,,,,,,,,,,,,,,,,1,6.1622,,0,0,48,48,14,1,stimuli/stim_20210919_power2amp/equal_lnn_AM2Hz_s15_22.m4a,,,,,,,,,,,,
,,,,,39915,2021-10-11_11h21.00.696,judgeSpeechMusic_20210919_logNormShiftAmp_detection_fixFreq,2020.1.2,MacIntel,60,,,,,,,,,,,,,,,,,,,,,,,,,,,,,,1,6.0963,,0,0,49,49,7,1,stimuli/stim_20210919_power2amp/equal_lnn_AM2Hz_s15_13.m4a,,,,,,,,,,,,
,,,,,39915,2021-10-11_11h21.00.696,judgeSpeechMusic_20210919_logNormShiftAmp_detection_fixFreq,2020.1.2,MacIntel,60,,,,,,,,,,,,,,,,,,,,,,,,,,,,,,1,9.2695,,0,0,50,50,39,1,stimuli/stim_20210919_power2amp/equal_lnn_AM2Hz_s35_23.m4a,,,,,,,,,,,,
,,,,,39915,2021-10-11_11h21.00.696,judgeSpeechMusic_20210919_logNormShiftAmp_detection_fixFreq,2020.1.2,MacIntel,60,,,,,,,,,,,,,,,,,,,,,,,,,,,,,,2,6.0547,,0,0,51,51,46,1,stimuli/stim_20210919_power2amp/equal_lnn_AM2Hz_s45_48.m4a,,,,,,,,,,,,
,,,,,39915,2021-10-11_11h21.00.696,judgeSpeechMusic_20210919_logNormShiftAmp_detection_fixFreq,2020.1.2,MacIntel,60,,,,,,,,,,,,,,,,,,,,,,,,,,,,,,2,6.2216,,0,0,52,52,41,1,stimuli/stim_20210919_power2amp/equal_lnn_AM2Hz_s35_36.m4a,,,,,,,,,,,,
,,,,,39915,2021-10-11_11h21.00.696,judgeSpeechMusic_20210919_logNormShiftAmp_detection_fixFreq,2020.1.2,MacIntel,60,,,,,,,,,,,,,,,,,,,,,,,,,,,,,,2,12.7622,,0,0,53,53,3,1,stimuli/stim_20210919_power2amp/equal_lnn_AM2Hz_s15_23.m4a,,,,,,,,,,,,
,,,,,39915,2021-10-11_11h21.00.696,judgeSpeechMusic_20210919_logNormShiftAmp_detection_fixFreq,2020.1.2,MacIntel,60,,,,,,,,,,,,,,,,,,,,,,,,,,,,,,1,6.3546,,0,0,54,54,10,1,stimuli/stim_20210919_power2amp/equal_lnn_AM2Hz_s15_31.m4a,,,,,,,,,,,,
,,,,,39915,2021-10-11_11h21.00.696,judgeSpeechMusic_20210919_logNormShiftAmp_detection_fixFreq,2020.1.2,MacIntel,60,,,,,,,,,,,,,,,,,,,,,,,,,,,,,,2,7.3903,,0,0,55,55,8,1,stimuli/stim_20210919_power2amp/equal_lnn_AM2Hz_s15_2.m4a,,,,,,,,,,,,
,,,,,39915,2021-10-11_11h21.00.696,judgeSpeechMusic_20210919_logNormShiftAmp_detection_fixFreq,2020.1.2,MacIntel,60,,,,,,,,,,,,,,,,,,,,,,,,,,,,,,1,5.7969,,0,0,56,56,66,1,stimuli/stim_20210919_power2amp/equal_lnn_AM2Hz_s55_20.m4a,,,,,,,,,,,,
,,,,,39915,2021-10-11_11h21.00.696,judgeSpeechMusic_20210919_logNormShiftAmp_detection_fixFreq,2020.1.2,MacIntel,60,,,,,,,,,,,,,,,,,,,,,,,,,,,,,,1,5.9227,,0,0,57,57,51,1,stimuli/stim_20210919_power2amp/equal_lnn_AM2Hz_s45_3.m4a,,,,,,,,,,,,
,,,,,39915,2021-10-11_11h21.00.696,judgeSpeechMusic_20210919_logNormShiftAmp_detection_fixFreq,2020.1.2,MacIntel,60,,,,,,,,,,,,,,,,,,,,,,,,,,,,,,1,5.6639,,0,0,58,58,42,1,stimuli/stim_20210919_power2amp/equal_lnn_AM2Hz_s35_20.m4a,,,,,,,,,,,,
,,,,,39915,2021-10-11_11h21.00.696,judgeSpeechMusic_20210919_logNormShiftAmp_detection_fixFreq,2020.1.2,MacIntel,60,,,,,,,,,,,,,,,,,,,,,,,,,,,,,,2,6.4901,,0,0,59,59,52,1,stimuli/stim_20210919_power2amp/equal_lnn_AM2Hz_s45_34.m4a,,,,,,,,,,,,
,,,,,39915,2021-10-11_11h21.00.696,judgeSpeechMusic_20210919_logNormShiftAmp_detection_fixFreq,2020.1.2,MacIntel,60,,,,,,,,,,,,,,,,,,,,,,,,,,,,,,2,6.4953,,0,0,60,60,26,1,stimuli/stim_20210919_power2amp/equal_lnn_AM2Hz_s25_22.m4a,,,,,,,,,,,,
,,,,,39915,2021-10-11_11h21.00.696,judgeSpeechMusic_20210919_logNormShiftAmp_detection_fixFreq,2020.1.2,MacIntel,60,,,,,,,,,,,,,,,,,,,,,,,,,,,,,,1,6.7284,,0,0,61,61,34,1,stimuli/stim_20210919_power2amp/equal_lnn_AM2Hz_s35_11.m4a,,,,,,,,,,,,
,,,,,39915,2021-10-11_11h21.00.696,judgeSpeechMusic_20210919_logNormShiftAmp_detection_fixFreq,2020.1.2,MacIntel,60,,,,,,,,,,,,,,,,,,,,,,,,,,,,,,2,6.2824,,0,0,62,62,6,1,stimuli/stim_20210919_power2amp/equal_lnn_AM2Hz_s15_45.m4a,,,,,,,,,,,,
,,,,,39915,2021-10-11_11h21.00.696,judgeSpeechMusic_20210919_logNormShiftAmp_detection_fixFreq,2020.1.2,MacIntel,60,,,,,,,,,,,,,,,,,,,,,,,,,,,,,,1,6.788,,0,0,63,63,24,1,stimuli/stim_20210919_power2amp/equal_lnn_AM2Hz_s25_46.m4a,,,,,,,,,,,,
,,,,,39915,2021-10-11_11h21.00.696,judgeSpeechMusic_20210919_logNormShiftAmp_detection_fixFreq,2020.1.2,MacIntel,60,,,,,,,,,,,,,,,,,,,,,,,,,,,,,,2,6.4964,,0,0,64,64,11,1,stimuli/stim_20210919_power2amp/equal_lnn_AM2Hz_s15_16.m4a,,,,,,,,,,,,
,,,,,39915,2021-10-11_11h21.00.696,judgeSpeechMusic_20210919_logNormShiftAmp_detection_fixFreq,2020.1.2,MacIntel,60,,,,,,,,,,,,,,,,,,,,,,,,,,,,,,1,6.2251,4,1,0,65,65,16,1,stimuli/stim_20210919_power2amp/equal_lnn_AM2Hz_s25_12.m4a,10.9079,,,,,,,,,,,
,,,,,39915,2021-10-11_11h21.00.696,judgeSpeechMusic_20210919_logNormShiftAmp_detection_fixFreq,2020.1.2,MacIntel,60,,,,,,,,,,,,,,,,,,,,,,,,,,,,,,1,6.6218,,0,0,66,66,61,1,stimuli/stim_20210919_power2amp/equal_lnn_AM2Hz_s55_28.m4a,,,,,,,,,,,,
,,,,,39915,2021-10-11_11h21.00.696,judgeSpeechMusic_20210919_logNormShiftAmp_detection_fixFreq,2020.1.2,MacIntel,60,,,,,,,,,,,,,,,,,,,,,,,,,,,,,,2,6.5459,,0,0,67,67,17,1,stimuli/stim_20210919_power2amp/equal_lnn_AM2Hz_s25_23.m4a,,,,,,,,,,,,
,,,,,39915,2021-10-11_11h21.00.696,judgeSpeechMusic_20210919_logNormShiftAmp_detection_fixFreq,2020.1.2,MacIntel,60,,,,,,,,,,,,,,,,,,,,,,,,,,,,,,1,7.5796,,0,0,68,68,27,1,stimuli/stim_20210919_power2amp/equal_lnn_AM2Hz_s25_27.m4a,,,,,,,,,,,,
,,,,,39915,2021-10-11_11h21.00.696,judgeSpeechMusic_20210919_logNormShiftAmp_detection_fixFreq,2020.1.2,MacIntel,60,,,,,,,,,,,,,,,,,,,,,,,,,,,,,,2,6.2465,,0,0,69,69,21,1,stimuli/stim_20210919_power2amp/equal_lnn_AM2Hz_s25_40.m4a,,,,,,,,,,,,
,,,,,39915,2021-10-11_11h21.00.696,judgeSpeechMusic_20210919_logNormShiftAmp_detection_fixFreq,2020.1.2,MacIntel,60,,,,,,,,,,,,,,,,,,,,,,,,,,,,,,1,5.9622,,0,0,70,70,30,1,stimuli/stim_20210919_power2amp/equal_lnn_AM2Hz_s35_2.m4a,,,,,,,,,,,,
,,,,,39915,2021-10-11_11h21.00.696,judgeSpeechMusic_20210919_logNormShiftAmp_detection_fixFreq,2020.1.2,MacIntel,60,,,,,,,,,,,,,,,,,,,,,,,,,,,,,,2,6.0444,,0,0,71,71,43,1,stimuli/stim_20210919_power2amp/equal_lnn_AM2Hz_s35_44.m4a,,,,,,,,,,,,
,,,,,39915,2021-10-11_11h21.00.696,judgeSpeechMusic_20210919_logNormShiftAmp_detection_fixFreq,2020.1.2,MacIntel,60,,,,,,,,,,,,,,,,,,,,,,,,,,,,,,2,9.6122,,0,0,72,72,20,1,stimuli/stim_20210919_power2amp/equal_lnn_AM2Hz_s25_15.m4a,,,,,,,,,,,,
,,,,,39915,2021-10-11_11h21.00.696,judgeSpeechMusic_20210919_logNormShiftAmp_detection_fixFreq,2020.1.2,MacIntel,60,,,,,,,,,,,,,,,,,,,,,,,,,,,,,,1,5.9638,,0,0,73,73,72,1,stimuli/stim_20210919_power2amp/equal_lnn_AM2Hz_s55_3.m4a,,,,,,,,,,,,
,,,,,39915,2021-10-11_11h21.00.696,judgeSpeechMusic_20210919_logNormShiftAmp_detection_fixFreq,2020.1.2,MacIntel,60,,,,,,,,,,,,,,,,,,,,,,,,,,,,,,1,6.0298,,0,0,74,74,59,1,stimuli/stim_20210919_power2amp/equal_lnn_AM2Hz_s45_42.m4a,,,,,,,,,,,,
,,,,,39915,2021-10-11_11h21.00.696,judgeSpeechMusic_20210919_logNormShiftAmp_detection_fixFreq,2020.1.2,MacIntel,60,,,,,,,,,,,,,,,,,,,,,,,,,,,,,,,,,,,,,,,,,space,0.8972,0,0,0,1,1,SPEECH,stimuli/SPEECH.jpg,,
,,,,,39915,2021-10-11_11h21.00.696,judgeSpeechMusic_20210919_logNormShiftAmp_detection_fixFreq,2020.1.2,MacIntel,60,,,,,,,,,,,,,space,0.6985,2,9.2869,,0,0,0,0,3,1,stimuli/stim_20210919_power2amp/equal_lnn_AM_training2Hz_s50.m4a,,,,,,,,,,,,,,,,,,,,,,,,,,,
,,,,,39915,2021-10-11_11h21.00.696,judgeSpeechMusic_20210919_logNormShiftAmp_detection_fixFreq,2020.1.2,MacIntel,60,,,,,,,,,,,,,,,1,7.5863,,0,0,1,1,0,1,stimuli/stim_20210919_power2amp/equal_lnn_AM_training2Hz_s20.m4a,,,,,,,,,,,,,,,,,,,,,,,,,,,
,,,,,39915,2021-10-11_11h21.00.696,judgeSpeechMusic_20210919_logNormShiftAmp_detection_fixFreq,2020.1.2,MacIntel,60,,,,,,,,,,,,,,,2,6.5532,2,1,0,2,2,2,1,stimuli/stim_20210919_power2amp/equal_lnn_AM_training2Hz_s40.m4a,1.3593,,,,,,,,,,,,,,,,,,,,,,,,,,
,,,,,39915,2021-10-11_11h21.00.696,judgeSpeechMusic_20210919_logNormShiftAmp_detection_fixFreq,2020.1.2,MacIntel,60,,,,,,,,,,,,,,,2,6.1843,,0,0,3,3,1,1,stimuli/stim_20210919_power2amp/equal_lnn_AM_training2Hz_s30.m4a,,,,,,,,,,,,,,,,,,,,,,,,,,,
,,,,,39915,2021-10-11_11h21.00.696,judgeSpeechMusic_20210919_logNormShiftAmp_detection_fixFreq,2020.1.2,MacIntel,60,,,,,,,,,,,,,,,,,,,,,,,,,,space,7.4652,space,0.5132,2,9.7654,,0,0,0,0,51,1,stimuli/stim_20210919_power2amp/equal_lnn_AM2Hz_s45_3.m4a,,,,,,,,,,,,
,,,,,39915,2021-10-11_11h21.00.696,judgeSpeechMusic_20210919_logNormShiftAmp_detection_fixFreq,2020.1.2,MacIntel,60,,,,,,,,,,,,,,,,,,,,,,,,,,,,,,1,5.9039,,0,0,1,1,9,1,stimuli/stim_20210919_power2amp/equal_lnn_AM2Hz_s15_10.m4a,,,,,,,,,,,,
,,,,,39915,2021-10-11_11h21.00.696,judgeSpeechMusic_20210919_logNormShiftAmp_detection_fixFreq,2020.1.2,MacIntel,60,,,,,,,,,,,,,,,,,,,,,,,,,,,,,,2,7.0712,,0,0,2,2,17,1,stimuli/stim_20210919_power2amp/equal_lnn_AM2Hz_s25_23.m4a,,,,,,,,,,,,
,,,,,39915,2021-10-11_11h21.00.696,judgeSpeechMusic_20210919_logNormShiftAmp_detection_fixFreq,2020.1.2,MacIntel,60,,,,,,,,,,,,,,,,,,,,,,,,,,,,,,2,11.7448,,0,0,3,3,8,1,stimuli/stim_20210919_power2amp/equal_lnn_AM2Hz_s15_2.m4a,,,,,,,,,,,,
,,,,,39915,2021-10-11_11h21.00.696,judgeSpeechMusic_20210919_logNormShiftAmp_detection_fixFreq,2020.1.2,MacIntel,60,,,,,,,,,,,,,,,,,,,,,,,,,,,,,,2,8.7115,,0,0,4,4,14,1,stimuli/stim_20210919_power2amp/equal_lnn_AM2Hz_s15_22.m4a,,,,,,,,,,,,
,,,,,39915,2021-10-11_11h21.00.696,judgeSpeechMusic_20210919_logNormShiftAmp_detection_fixFreq,2020.1.2,MacIntel,60,,,,,,,,,,,,,,,,,,,,,,,,,,,,,,2,5.7056,,0,0,5,5,11,1,stimuli/stim_20210919_power2amp/equal_lnn_AM2Hz_s15_16.m4a,,,,,,,,,,,,
,,,,,39915,2021-10-11_11h21.00.696,judgeSpeechMusic_20210919_logNormShiftAmp_detection_fixFreq,2020.1.2,MacIntel,60,,,,,,,,,,,,,,,,,,,,,,,,,,,,,,1,16.7423,,0,0,6,6,42,1,stimuli/stim_20210919_power2amp/equal_lnn_AM2Hz_s35_20.m4a,,,,,,,,,,,,
,,,,,39915,2021-10-11_11h21.00.696,judgeSpeechMusic_20210919_logNormShiftAmp_detection_fixFreq,2020.1.2,MacIntel,60,,,,,,,,,,,,,,,,,,,,,,,,,,,,,,1,7.4621,,0,0,7,7,71,1,stimuli/stim_20210919_power2amp/equal_lnn_AM2Hz_s55_23.m4a,,,,,,,,,,,,
,,,,,39915,2021-10-11_11h21.00.696,judgeSpeechMusic_20210919_logNormShiftAmp_detection_fixFreq,2020.1.2,MacIntel,60,,,,,,,,,,,,,,,,,,,,,,,,,,,,,,1,40.2905,,0,0,8,8,5,1,stimuli/stim_20210919_power2amp/equal_lnn_AM2Hz_s15_5.m4a,,,,,,,,,,,,
,,,,,39915,2021-10-11_11h21.00.696,judgeSpeechMusic_20210919_logNormShiftAmp_detection_fixFreq,2020.1.2,MacIntel,60,,,,,,,,,,,,,,,,,,,,,,,,,,,,,,2,5.9963,,0,0,9,9,46,1,stimuli/stim_20210919_power2amp/equal_lnn_AM2Hz_s45_48.m4a,,,,,,,,,,,,
,,,,,39915,2021-10-11_11h21.00.696,judgeSpeechMusic_20210919_logNormShiftAmp_detection_fixFreq,2020.1.2,MacIntel,60,,,,,,,,,,,,,,,,,,,,,,,,,,,,,,2,6.7549,,0,0,10,10,4,1,stimuli/stim_20210919_power2amp/equal_lnn_AM2Hz_s15_29.m4a,,,,,,,,,,,,
,,,,,39915,2021-10-11_11h21.00.696,judgeSpeechMusic_20210919_logNormShiftAmp_detection_fixFreq,2020.1.2,MacIntel,60,,,,,,,,,,,,,,,,,,,,,,,,,,,,,,1,6.3469,,0,0,11,11,63,1,stimuli/stim_20210919_power2amp/equal_lnn_AM2Hz_s55_8.m4a,,,,,,,,,,,,
,,,,,39915,2021-10-11_11h21.00.696,judgeSpeechMusic_20210919_logNormShiftAmp_detection_fixFreq,2020.1.2,MacIntel,60,,,,,,,,,,,,,,,,,,,,,,,,,,,,,,2,6.2953,,0,0,12,12,38,1,stimuli/stim_20210919_power2amp/equal_lnn_AM2Hz_s35_29.m4a,,,,,,,,,,,,
,,,,,39915,2021-10-11_11h21.00.696,judgeSpeechMusic_20210919_logNormShiftAmp_detection_fixFreq,2020.1.2,MacIntel,60,,,,,,,,,,,,,,,,,,,,,,,,,,,,,,1,6.7953,,0,0,13,13,23,1,stimuli/stim_20210919_power2amp/equal_lnn_AM2Hz_s25_36.m4a,,,,,,,,,,,,
,,,,,39915,2021-10-11_11h21.00.696,judgeSpeechMusic_20210919_logNormShiftAmp_detection_fixFreq,2020.1.2,MacIntel,60,,,,,,,,,,,,,,,,,,,,,,,,,,,,,,2,6.3298,,0,0,14,14,58,1,stimuli/stim_20210919_power2amp/equal_lnn_AM2Hz_s45_16.m4a,,,,,,,,,,,,
,,,,,39915,2021-10-11_11h21.00.696,judgeSpeechMusic_20210919_logNormShiftAmp_detection_fixFreq,2020.1.2,MacIntel,60,,,,,,,,,,,,,,,,,,,,,,,,,,,,,,1,6.9145,,0,0,15,15,39,1,stimuli/stim_20210919_power2amp/equal_lnn_AM2Hz_s35_23.m4a,,,,,,,,,,,,
,,,,,39915,2021-10-11_11h21.00.696,judgeSpeechMusic_20210919_logNormShiftAmp_detection_fixFreq,2020.1.2,MacIntel,60,,,,,,,,,,,,,,,,,,,,,,,,,,,,,,2,6.296,,0,0,16,16,26,1,stimuli/stim_20210919_power2amp/equal_lnn_AM2Hz_s25_22.m4a,,,,,,,,,,,,
,,,,,39915,2021-10-11_11h21.00.696,judgeSpeechMusic_20210919_logNormShiftAmp_detection_fixFreq,2020.1.2,MacIntel,60,,,,,,,,,,,,,,,,,,,,,,,,,,,,,,2,6.9796,,0,0,17,17,69,1,stimuli/stim_20210919_power2amp/equal_lnn_AM2Hz_s55_38.m4a,,,,,,,,,,,,
,,,,,39915,2021-10-11_11h21.00.696,judgeSpeechMusic_20210919_logNormShiftAmp_detection_fixFreq,2020.1.2,MacIntel,60,,,,,,,,,,,,,,,,,,,,,,,,,,,,,,1,6.637,,0,0,18,18,31,1,stimuli/stim_20210919_power2amp/equal_lnn_AM2Hz_s35_41.m4a,,,,,,,,,,,,
,,,,,39915,2021-10-11_11h21.00.696,judgeSpeechMusic_20210919_logNormShiftAmp_detection_fixFreq,2020.1.2,MacIntel,60,,,,,,,,,,,,,,,,,,,,,,,,,,,,,,1,6.0388,,0,0,19,19,50,1,stimuli/stim_20210919_power2amp/equal_lnn_AM2Hz_s45_1.m4a,,,,,,,,,,,,
,,,,,39915,2021-10-11_11h21.00.696,judgeSpeechMusic_20210919_logNormShiftAmp_detection_fixFreq,2020.1.2,MacIntel,60,,,,,,,,,,,,,,,,,,,,,,,,,,,,,,2,5.9121,,0,0,20,20,60,1,stimuli/stim_20210919_power2amp/equal_lnn_AM2Hz_s55_10.m4a,,,,,,,,,,,,
,,,,,39915,2021-10-11_11h21.00.696,judgeSpeechMusic_20210919_logNormShiftAmp_detection_fixFreq,2020.1.2,MacIntel,60,,,,,,,,,,,,,,,,,,,,,,,,,,,,,,2,9.5133,,0,0,21,21,1,1,stimuli/stim_20210919_power2amp/equal_lnn_AM2Hz_s15_33.m4a,,,,,,,,,,,,
,,,,,39915,2021-10-11_11h21.00.696,judgeSpeechMusic_20210919_logNormShiftAmp_detection_fixFreq,2020.1.2,MacIntel,60,,,,,,,,,,,,,,,,,,,,,,,,,,,,,,2,5.6711,4,1,0,22,22,52,1,stimuli/stim_20210919_power2amp/equal_lnn_AM2Hz_s45_34.m4a,3.2132,,,,,,,,,,,
,,,,,39915,2021-10-11_11h21.00.696,judgeSpeechMusic_20210919_logNormShiftAmp_detection_fixFreq,2020.1.2,MacIntel,60,,,,,,,,,,,,,,,,,,,,,,,,,,,,,,1,8.6629,,0,0,23,23,16,1,stimuli/stim_20210919_power2amp/equal_lnn_AM2Hz_s25_12.m4a,,,,,,,,,,,,
,,,,,39915,2021-10-11_11h21.00.696,judgeSpeechMusic_20210919_logNormShiftAmp_detection_fixFreq,2020.1.2,MacIntel,60,,,,,,,,,,,,,,,,,,,,,,,,,,,,,,2,6.1795,,0,0,24,24,40,1,stimuli/stim_20210919_power2amp/equal_lnn_AM2Hz_s35_25.m4a,,,,,,,,,,,,
,,,,,39915,2021-10-11_11h21.00.696,judgeSpeechMusic_20210919_logNormShiftAmp_detection_fixFreq,2020.1.2,MacIntel,60,,,,,,,,,,,,,,,,,,,,,,,,,,,,,,2,5.6741,,0,0,25,25,57,1,stimuli/stim_20210919_power2amp/equal_lnn_AM2Hz_s45_50.m4a,,,,,,,,,,,,
,,,,,39915,2021-10-11_11h21.00.696,judgeSpeechMusic_20210919_logNormShiftAmp_detection_fixFreq,2020.1.2,MacIntel,60,,,,,,,,,,,,,,,,,,,,,,,,,,,,,,1,7.1485,,0,0,26,26,66,1,stimuli/stim_20210919_power2amp/equal_lnn_AM2Hz_s55_20.m4a,,,,,,,,,,,,
,,,,,39915,2021-10-11_11h21.00.696,judgeSpeechMusic_20210919_logNormShiftAmp_detection_fixFreq,2020.1.2,MacIntel,60,,,,,,,,,,,,,,,,,,,,,,,,,,,,,,1,6.3274,,0,0,27,27,30,1,stimuli/stim_20210919_power2amp/equal_lnn_AM2Hz_s35_2.m4a,,,,,,,,,,,,
,,,,,39915,2021-10-11_11h21.00.696,judgeSpeechMusic_20210919_logNormShiftAmp_detection_fixFreq,2020.1.2,MacIntel,60,,,,,,,,,,,,,,,,,,,,,,,,,,,,,,2,7.8952,,0,0,28,28,67,1,stimuli/stim_20210919_power2amp/equal_lnn_AM2Hz_s55_12.m4a,,,,,,,,,,,,
,,,,,39915,2021-10-11_11h21.00.696,judgeSpeechMusic_20210919_logNormShiftAmp_detection_fixFreq,2020.1.2,MacIntel,60,,,,,,,,,,,,,,,,,,,,,,,,,,,,,,1,5.8617,,0,0,29,29,74,1,stimuli/stim_20210919_power2amp/equal_lnn_AM2Hz_s55_18.m4a,,,,,,,,,,,,
,,,,,39915,2021-10-11_11h21.00.696,judgeSpeechMusic_20210919_logNormShiftAmp_detection_fixFreq,2020.1.2,MacIntel,60,,,,,,,,,,,,,,,,,,,,,,,,,,,,,,1,5.8132,,0,0,30,30,65,1,stimuli/stim_20210919_power2amp/equal_lnn_AM2Hz_s55_2.m4a,,,,,,,,,,,,
,,,,,39915,2021-10-11_11h21.00.696,judgeSpeechMusic_20210919_logNormShiftAmp_detection_fixFreq,2020.1.2,MacIntel,60,,,,,,,,,,,,,,,,,,,,,,,,,,,,,,1,6.463,,0,0,31,31,64,1,stimuli/stim_20210919_power2amp/equal_lnn_AM2Hz_s55_37.m4a,,,,,,,,,,,,
,,,,,39915,2021-10-11_11h21.00.696,judgeSpeechMusic_20210919_logNormShiftAmp_detection_fixFreq,2020.1.2,MacIntel,60,,,,,,,,,,,,,,,,,,,,,,,,,,,,,,2,6.3879,,0,0,32,32,22,1,stimuli/stim_20210919_power2amp/equal_lnn_AM2Hz_s25_33.m4a,,,,,,,,,,,,
,,,,,39915,2021-10-11_11h21.00.696,judgeSpeechMusic_20210919_logNormShiftAmp_detection_fixFreq,2020.1.2,MacIntel,60,,,,,,,,,,,,,,,,,,,,,,,,,,,,,,1,16.7561,,0,0,33,33,27,1,stimuli/stim_20210919_power2amp/equal_lnn_AM2Hz_s25_27.m4a,,,,,,,,,,,,
,,,,,39915,2021-10-11_11h21.00.696,judgeSpeechMusic_20210919_logNormShiftAmp_detection_fixFreq,2020.1.2,MacIntel,60,,,,,,,,,,,,,,,,,,,,,,,,,,,,,,2,7.33,,0,0,34,34,44,1,stimuli/stim_20210919_power2amp/equal_lnn_AM2Hz_s35_14.m4a,,,,,,,,,,,,
,,,,,39915,2021-10-11_11h21.00.696,judgeSpeechMusic_20210919_logNormShiftAmp_detection_fixFreq,2020.1.2,MacIntel,60,,,,,,,,,,,,,,,,,,,,,,,,,,,,,,2,6.8564,,0,0,35,35,20,1,stimuli/stim_20210919_power2amp/equal_lnn_AM2Hz_s25_15.m4a,,,,,,,,,,,,
,,,,,39915,2021-10-11_11h21.00.696,judgeSpeechMusic_20210919_logNormShiftAmp_detection_fixFreq,2020.1.2,MacIntel,60,,,,,,,,,,,,,,,,,,,,,,,,,,,,,,1,6.8617,,0,0,36,36,54,1,stimuli/stim_20210919_power2amp/equal_lnn_AM2Hz_s45_49.m4a,,,,,,,,,,,,
,,,,,39915,2021-10-11_11h21.00.696,judgeSpeechMusic_20210919_logNormShiftAmp_detection_fixFreq,2020.1.2,MacIntel,60,,,,,,,,,,,,,,,,,,,,,,,,,,,,,,1,7.2289,,0,0,37,37,3,1,stimuli/stim_20210919_power2amp/equal_lnn_AM2Hz_s15_23.m4a,,,,,,,,,,,,
,,,,,39915,2021-10-11_11h21.00.696,judgeSpeechMusic_20210919_logNormShiftAmp_detection_fixFreq,2020.1.2,MacIntel,60,,,,,,,,,,,,,,,,,,,,,,,,,,,,,,2,7.3953,,0,0,38,38,28,1,stimuli/stim_20210919_power2amp/equal_lnn_AM2Hz_s25_29.m4a,,,,,,,,,,,,
,,,,,39915,2021-10-11_11h21.00.696,judgeSpeechMusic_20210919_logNormShiftAmp_detection_fixFreq,2020.1.2,MacIntel,60,,,,,,,,,,,,,,,,,,,,,,,,,,,,,,2,5.8708,,0,0,39,39,29,1,stimuli/stim_20210919_power2amp/equal_lnn_AM2Hz_s25_34.m4a,,,,,,,,,,,,
,,,,,39915,2021-10-11_11h21.00.696,judgeSpeechMusic_20210919_logNormShiftAmp_detection_fixFreq,2020.1.2,MacIntel,60,,,,,,,,,,,,,,,,,,,,,,,,,,,,,,1,6.532,,0,0,40,40,6,1,stimuli/stim_20210919_power2amp/equal_lnn_AM2Hz_s15_45.m4a,,,,,,,,,,,,
,,,,,39915,2021-10-11_11h21.00.696,judgeSpeechMusic_20210919_logNormShiftAmp_detection_fixFreq,2020.1.2,MacIntel,60,,,,,,,,,,,,,,,,,,,,,,,,,,,,,,1,7.8537,,0,0,41,41,59,1,stimuli/stim_20210919_power2amp/equal_lnn_AM2Hz_s45_42.m4a,,,,,,,,,,,,
,,,,,39915,2021-10-11_11h21.00.696,judgeSpeechMusic_20210919_logNormShiftAmp_detection_fixFreq,2020.1.2,MacIntel,60,,,,,,,,,,,,,,,,,,,,,,,,,,,,,,2,6.5716,,0,0,42,42,73,1,stimuli/stim_20210919_power2amp/equal_lnn_AM2Hz_s55_24.m4a,,,,,,,,,,,,
,,,,,39915,2021-10-11_11h21.00.696,judgeSpeechMusic_20210919_logNormShiftAmp_detection_fixFreq,2020.1.2,MacIntel,60,,,,,,,,,,,,,,,,,,,,,,,,,,,,,,2,7.0866,,0,0,43,43,19,1,stimuli/stim_20210919_power2amp/equal_lnn_AM2Hz_s25_9.m4a,,,,,,,,,,,,
,,,,,39915,2021-10-11_11h21.00.696,judgeSpeechMusic_20210919_logNormShiftAmp_detection_fixFreq,2020.1.2,MacIntel,60,,,,,,,,,,,,,,,,,,,,,,,,,,,,,,1,6.5135,3,1,0,44,44,25,1,stimuli/stim_20210919_power2amp/equal_lnn_AM2Hz_s25_32.m4a,2.4823,,,,,,,,,,,
,,,,,39915,2021-10-11_11h21.00.696,judgeSpeechMusic_20210919_logNormShiftAmp_detection_fixFreq,2020.1.2,MacIntel,60,,,,,,,,,,,,,,,,,,,,,,,,,,,,,,2,6.2455,,0,0,45,45,32,1,stimuli/stim_20210919_power2amp/equal_lnn_AM2Hz_s35_7.m4a,,,,,,,,,,,,
,,,,,39915,2021-10-11_11h21.00.696,judgeSpeechMusic_20210919_logNormShiftAmp_detection_fixFreq,2020.1.2,MacIntel,60,,,,,,,,,,,,,,,,,,,,,,,,,,,,,,1,6.974,,0,0,46,46,2,1,stimuli/stim_20210919_power2amp/equal_lnn_AM2Hz_s15_43.m4a,,,,,,,,,,,,
,,,,,39915,2021-10-11_11h21.00.696,judgeSpeechMusic_20210919_logNormShiftAmp_detection_fixFreq,2020.1.2,MacIntel,60,,,,,,,,,,,,,,,,,,,,,,,,,,,,,,1,7.9621,,0,0,47,47,10,1,stimuli/stim_20210919_power2amp/equal_lnn_AM2Hz_s15_31.m4a,,,,,,,,,,,,
,,,,,39915,2021-10-11_11h21.00.696,judgeSpeechMusic_20210919_logNormShiftAmp_detection_fixFreq,2020.1.2,MacIntel,60,,,,,,,,,,,,,,,,,,,,,,,,,,,,,,2,10.3402,,0,0,48,48,56,1,stimuli/stim_20210919_power2amp/equal_lnn_AM2Hz_s45_40.m4a,,,,,,,,,,,,
,,,,,39915,2021-10-11_11h21.00.696,judgeSpeechMusic_20210919_logNormShiftAmp_detection_fixFreq,2020.1.2,MacIntel,60,,,,,,,,,,,,,,,,,,,,,,,,,,,,,,1,6.4223,,0,0,49,49,72,1,stimuli/stim_20210919_power2amp/equal_lnn_AM2Hz_s55_3.m4a,,,,,,,,,,,,
,,,,,39915,2021-10-11_11h21.00.696,judgeSpeechMusic_20210919_logNormShiftAmp_detection_fixFreq,2020.1.2,MacIntel,60,,,,,,,,,,,,,,,,,,,,,,,,,,,,,,2,6.1821,,0,0,50,50,13,1,stimuli/stim_20210919_power2amp/equal_lnn_AM2Hz_s15_26.m4a,,,,,,,,,,,,
,,,,,39915,2021-10-11_11h21.00.696,judgeSpeechMusic_20210919_logNormShiftAmp_detection_fixFreq,2020.1.2,MacIntel,60,,,,,,,,,,,,,,,,,,,,,,,,,,,,,,1,13.3561,,0,0,51,51,62,1,stimuli/stim_20210919_power2amp/equal_lnn_AM2Hz_s55_25.m4a,,,,,,,,,,,,
,,,,,39915,2021-10-11_11h21.00.696,judgeSpeechMusic_20210919_logNormShiftAmp_detection_fixFreq,2020.1.2,MacIntel,60,,,,,,,,,,,,,,,,,,,,,,,,,,,,,,2,6.773,,0,0,52,52,53,1,stimuli/stim_20210919_power2amp/equal_lnn_AM2Hz_s45_39.m4a,,,,,,,,,,,,
,,,,,39915,2021-10-11_11h21.00.696,judgeSpeechMusic_20210919_logNormShiftAmp_detection_fixFreq,2020.1.2,MacIntel,60,,,,,,,,,,,,,,,,,,,,,,,,,,,,,,1,11.3387,,0,0,53,53,12,1,stimuli/stim_20210919_power2amp/equal_lnn_AM2Hz_s15_28.m4a,,,,,,,,,,,,
,,,,,39915,2021-10-11_11h21.00.696,judgeSpeechMusic_20210919_logNormShiftAmp_detection_fixFreq,2020.1.2,MacIntel,60,,,,,,,,,,,,,,,,,,,,,,,,,,,,,,2,5.8368,,0,0,54,54,35,1,stimuli/stim_20210919_power2amp/equal_lnn_AM2Hz_s35_33.m4a,,,,,,,,,,,,
,,,,,39915,2021-10-11_11h21.00.696,judgeSpeechMusic_20210919_logNormShiftAmp_detection_fixFreq,2020.1.2,MacIntel,60,,,,,,,,,,,,,,,,,,,,,,,,,,,,,,1,10.938,,0,0,55,55,48,1,stimuli/stim_20210919_power2amp/equal_lnn_AM2Hz_s45_18.m4a,,,,,,,,,,,,
,,,,,39915,2021-10-11_11h21.00.696,judgeSpeechMusic_20210919_logNormShiftAmp_detection_fixFreq,2020.1.2,MacIntel,60,,,,,,,,,,,,,,,,,,,,,,,,,,,,,,2,9.3876,,0,0,56,56,18,1,stimuli/stim_20210919_power2amp/equal_lnn_AM2Hz_s25_21.m4a,,,,,,,,,,,,
,,,,,39915,2021-10-11_11h21.00.696,judgeSpeechMusic_20210919_logNormShiftAmp_detection_fixFreq,2020.1.2,MacIntel,60,,,,,,,,,,,,,,,,,,,,,,,,,,,,,,1,14.8453,,0,0,57,57,37,1,stimuli/stim_20210919_power2amp/equal_lnn_AM2Hz_s35_37.m4a,,,,,,,,,,,,
,,,,,39915,2021-10-11_11h21.00.696,judgeSpeechMusic_20210919_logNormShiftAmp_detection_fixFreq,2020.1.2,MacIntel,60,,,,,,,,,,,,,,,,,,,,,,,,,,,,,,2,14.5756,,0,0,58,58,34,1,stimuli/stim_20210919_power2amp/equal_lnn_AM2Hz_s35_11.m4a,,,,,,,,,,,,
,,,,,39915,2021-10-11_11h21.00.696,judgeSpeechMusic_20210919_logNormShiftAmp_detection_fixFreq,2020.1.2,MacIntel,60,,,,,,,,,,,,,,,,,,,,,,,,,,,,,,1,23.0129,,0,0,59,59,68,1,stimuli/stim_20210919_power2amp/equal_lnn_AM2Hz_s55_15.m4a,,,,,,,,,,,,
,,,,,39915,2021-10-11_11h21.00.696,judgeSpeechMusic_20210919_logNormShiftAmp_detection_fixFreq,2020.1.2,MacIntel,60,,,,,,,,,,,,,,,,,,,,,,,,,,,,,,2,9.7104,,0,0,60,60,55,1,stimuli/stim_20210919_power2amp/equal_lnn_AM2Hz_s45_28.m4a,,,,,,,,,,,,
,,,,,39915,2021-10-11_11h21.00.696,judgeSpeechMusic_20210919_logNormShiftAmp_detection_fixFreq,2020.1.2,MacIntel,60,,,,,,,,,,,,,,,,,,,,,,,,,,,,,,2,6.6124,,0,0,61,61,45,1,stimuli/stim_20210919_power2amp/equal_lnn_AM2Hz_s45_25.m4a,,,,,,,,,,,,
,,,,,39915,2021-10-11_11h21.00.696,judgeSpeechMusic_20210919_logNormShiftAmp_detection_fixFreq,2020.1.2,MacIntel,60,,,,,,,,,,,,,,,,,,,,,,,,,,,,,,1,12.9463,,0,0,62,62,15,1,stimuli/stim_20210919_power2amp/equal_lnn_AM2Hz_s25_31.m4a,,,,,,,,,,,,
,,,,,39915,2021-10-11_11h21.00.696,judgeSpeechMusic_20210919_logNormShiftAmp_detection_fixFreq,2020.1.2,MacIntel,60,,,,,,,,,,,,,,,,,,,,,,,,,,,,,,2,8.3295,,0,0,63,63,24,1,stimuli/stim_20210919_power2amp/equal_lnn_AM2Hz_s25_46.m4a,,,,,,,,,,,,
,,,,,39915,2021-10-11_11h21.00.696,judgeSpeechMusic_20210919_logNormShiftAmp_detection_fixFreq,2020.1.2,MacIntel,60,,,,,,,,,,,,,,,,,,,,,,,,,,,,,,1,24.0958,,0,0,64,64,43,1,stimuli/stim_20210919_power2amp/equal_lnn_AM2Hz_s35_44.m4a,,,,,,,,,,,,
,,,,,39915,2021-10-11_11h21.00.696,judgeSpeechMusic_20210919_logNormShiftAmp_detection_fixFreq,2020.1.2,MacIntel,60,,,,,,,,,,,,,,,,,,,,,,,,,,,,,,1,15.1793,3,1,0,65,65,41,1,stimuli/stim_20210919_power2amp/equal_lnn_AM2Hz_s35_36.m4a,1.2662,,,,,,,,,,,
,,,,,39915,2021-10-11_11h21.00.696,judgeSpeechMusic_20210919_logNormShiftAmp_detection_fixFreq,2020.1.2,MacIntel,60,,,,,,,,,,,,,,,,,,,,,,,,,,,,,,2,5.8775,,0,0,66,66,21,1,stimuli/stim_20210919_power2amp/equal_lnn_AM2Hz_s25_40.m4a,,,,,,,,,,,,
,,,,,39915,2021-10-11_11h21.00.696,judgeSpeechMusic_20210919_logNormShiftAmp_detection_fixFreq,2020.1.2,MacIntel,60,,,,,,,,,,,,,,,,,,,,,,,,,,,,,,1,7.3117,,0,0,67,67,47,1,stimuli/stim_20210919_power2amp/equal_lnn_AM2Hz_s45_23.m4a,,,,,,,,,,,,
,,,,,39915,2021-10-11_11h21.00.696,judgeSpeechMusic_20210919_logNormShiftAmp_detection_fixFreq,2020.1.2,MacIntel,60,,,,,,,,,,,,,,,,,,,,,,,,,,,,,,2,6.0626,,0,0,68,68,0,1,stimuli/stim_20210919_power2amp/equal_lnn_AM2Hz_s15_6.m4a,,,,,,,,,,,,
,,,,,39915,2021-10-11_11h21.00.696,judgeSpeechMusic_20210919_logNormShiftAmp_detection_fixFreq,2020.1.2,MacIntel,60,,,,,,,,,,,,,,,,,,,,,,,,,,,,,,1,7.1797,,0,0,69,69,49,1,stimuli/stim_20210919_power2amp/equal_lnn_AM2Hz_s45_38.m4a,,,,,,,,,,,,
,,,,,39915,2021-10-11_11h21.00.696,judgeSpeechMusic_20210919_logNormShiftAmp_detection_fixFreq,2020.1.2,MacIntel,60,,,,,,,,,,,,,,,,,,,,,,,,,,,,,,2,5.9768,,0,0,70,70,61,1,stimuli/stim_20210919_power2amp/equal_lnn_AM2Hz_s55_28.m4a,,,,,,,,,,,,
,,,,,39915,2021-10-11_11h21.00.696,judgeSpeechMusic_20210919_logNormShiftAmp_detection_fixFreq,2020.1.2,MacIntel,60,,,,,,,,,,,,,,,,,,,,,,,,,,,,,,2,7.6127,,0,0,71,71,36,1,stimuli/stim_20210919_power2amp/equal_lnn_AM2Hz_s35_24.m4a,,,,,,,,,,,,
,,,,,39915,2021-10-11_11h21.00.696,judgeSpeechMusic_20210919_logNormShiftAmp_detection_fixFreq,2020.1.2,MacIntel,60,,,,,,,,,,,,,,,,,,,,,,,,,,,,,,1,7.895,,0,0,72,72,33,1,stimuli/stim_20210919_power2amp/equal_lnn_AM2Hz_s35_1.m4a,,,,,,,,,,,,
,,,,,39915,2021-10-11_11h21.00.696,judgeSpeechMusic_20210919_logNormShiftAmp_detection_fixFreq,2020.1.2,MacIntel,60,,,,,,,,,,,,,,,,,,,,,,,,,,,,,,1,30.0468,,0,0,73,73,70,1,stimuli/stim_20210919_power2amp/equal_lnn_AM2Hz_s55_36.m4a,,,,,,,,,,,,
,,,,,39915,2021-10-11_11h21.00.696,judgeSpeechMusic_20210919_logNormShiftAmp_detection_fixFreq,2020.1.2,MacIntel,60,,,,,,,,,,,,,,,,,,,,,,,,,,,,,,2,7.4616,,0,0,74,74,7,1,stimuli/stim_20210919_power2amp/equal_lnn_AM2Hz_s15_13.m4a,,,,,,,,,,,,
,,,,,39915,2021-10-11_11h21.00.696,judgeSpeechMusic_20210919_logNormShiftAmp_detection_fixFreq,2020.1.2,MacIntel,60,,,,,,,,,,,,,,,,,,,,,,,,,,,,,,,,,,,,,,,,,space,0.2791,0,1,1,0,1,MUSIC,stimuli/MUSIC.jpg,,
,,,,,39915,2021-10-11_11h21.00.696,judgeSpeechMusic_20210919_logNormShiftAmp_detection_fixFreq,2020.1.2,MacIntel,60,,,,,,,,,,,,,,,,,,0,0,0,0,2,1,stimuli/stim_20210919_power2amp/equal_lnn_AM_training2Hz_s40.m4a,,,,,,,,,,,,,,,,,,,,,,,,,,,
,,,,,39915,2021-10-11_11h21.00.696,judgeSpeechMusic_20210919_logNormShiftAmp_detection_fixFreq,2020.1.2,MacIntel,60,,,,,,,,,,,,,,,,,,,,,,,,,,space,4.8579,space,0.8411,2,6.0241,,0,0,0,0,46,1,stimuli/stim_20210919_power2amp/equal_lnn_AM2Hz_s45_48.m4a,,,,,,,,,,,,
,,,,,39915,2021-10-11_11h21.00.696,judgeSpeechMusic_20210919_logNormShiftAmp_detection_fixFreq,2020.1.2,MacIntel,60,,,,,,,,,,,,,,,,,,,,,,,,,,,,,,1,8.7454,,0,0,1,1,61,1,stimuli/stim_20210919_power2amp/equal_lnn_AM2Hz_s55_28.m4a,,,,,,,,,,,,
,,,,,39915,2021-10-11_11h21.00.696,judgeSpeechMusic_20210919_logNormShiftAmp_detection_fixFreq,2020.1.2,MacIntel,60,,,,,,,,,,,,,,,,,,,,,,,,,,,,,,2,7.5052,,0,0,2,2,4,1,stimuli/stim_20210919_power2amp/equal_lnn_AM2Hz_s15_29.m4a,,,,,,,,,,,,
,,,,,39915,2021-10-11_11h21.00.696,judgeSpeechMusic_20210919_logNormShiftAmp_detection_fixFreq,2020.1.2,MacIntel,60,,,,,,,,,,,,,,,,,,,,,,,,,,,,,,2,10.5424,,0,0,3,3,28,1,stimuli/stim_20210919_power2amp/equal_lnn_AM2Hz_s25_29.m4a,,,,,,,,,,,,
,,,,,39915,2021-10-11_11h21.00.696,judgeSpeechMusic_20210919_logNormShiftAmp_detection_fixFreq,2020.1.2,MacIntel,60,,,,,,,,,,,,,,,,,,,,,,,,,,,,,,1,9.3617,,0,0,4,4,13,1,stimuli/stim_20210919_power2amp/equal_lnn_AM2Hz_s15_26.m4a,,,,,,,,,,,,
,,,,,39915,2021-10-11_11h21.00.696,judgeSpeechMusic_20210919_logNormShiftAmp_detection_fixFreq,2020.1.2,MacIntel,60,,,,,,,,,,,,,,,,,,,,,,,,,,,,,,2,8.8119,,0,0,5,5,66,1,stimuli/stim_20210919_power2amp/equal_lnn_AM2Hz_s55_20.m4a,,,,,,,,,,,,
,,,,,39915,2021-10-11_11h21.00.696,judgeSpeechMusic_20210919_logNormShiftAmp_detection_fixFreq,2020.1.2,MacIntel,60,,,,,,,,,,,,,,,,,,,,,,,,,,,,,,1,14.0119,,0,0,6,6,60,1,stimuli/stim_20210919_power2amp/equal_lnn_AM2Hz_s55_10.m4a,,,,,,,,,,,,
,,,,,39915,2021-10-11_11h21.00.696,judgeSpeechMusic_20210919_logNormShiftAmp_detection_fixFreq,2020.1.2,MacIntel,60,,,,,,,,,,,,,,,,,,,,,,,,,,,,,,2,18.912,,0,0,7,7,32,1,stimuli/stim_20210919_power2amp/equal_lnn_AM2Hz_s35_7.m4a,,,,,,,,,,,,
,,,,,39915,2021-10-11_11h21.00.696,judgeSpeechMusic_20210919_logNormShiftAmp_detection_fixFreq,2020.1.2,MacIntel,60,,,,,,,,,,,,,,,,,,,,,,,,,,,,,,1,70.5124,,0,0,8,8,58,1,stimuli/stim_20210919_power2amp/equal_lnn_AM2Hz_s45_16.m4a,,,,,,,,,,,,
,,,,,39915,2021-10-11_11h21.00.696,judgeSpeechMusic_20210919_logNormShiftAmp_detection_fixFreq,2020.1.2,MacIntel,60,,,,,,,,,,,,,,,,,,,,,,,,,,,,,,2,6.7274,,0,0,9,9,17,1,stimuli/stim_20210919_power2amp/equal_lnn_AM2Hz_s25_23.m4a,,,,,,,,,,,,
,,,,,39915,2021-10-11_11h21.00.696,judgeSpeechMusic_20210919_logNormShiftAmp_detection_fixFreq,2020.1.2,MacIntel,60,,,,,,,,,,,,,,,,,,,,,,,,,,,,,,1,11.7585,,0,0,10,10,52,1,stimuli/stim_20210919_power2amp/equal_lnn_AM2Hz_s45_34.m4a,,,,,,,,,,,,
,,,,,39915,2021-10-11_11h21.00.696,judgeSpeechMusic_20210919_logNormShiftAmp_detection_fixFreq,2020.1.2,MacIntel,60,,,,,,,,,,,,,,,,,,,,,,,,,,,,,,2,6.1295,,0,0,11,11,50,1,stimuli/stim_20210919_power2amp/equal_lnn_AM2Hz_s45_1.m4a,,,,,,,,,,,,
,,,,,39915,2021-10-11_11h21.00.696,judgeSpeechMusic_20210919_logNormShiftAmp_detection_fixFreq,2020.1.2,MacIntel,60,,,,,,,,,,,,,,,,,,,,,,,,,,,,,,1,6.0625,,0,0,12,12,65,1,stimuli/stim_20210919_power2amp/equal_lnn_AM2Hz_s55_2.m4a,,,,,,,,,,,,
,,,,,39915,2021-10-11_11h21.00.696,judgeSpeechMusic_20210919_logNormShiftAmp_detection_fixFreq,2020.1.2,MacIntel,60,,,,,,,,,,,,,,,,,,,,,,,,,,,,,,2,7.2459,,0,0,13,13,40,1,stimuli/stim_20210919_power2amp/equal_lnn_AM2Hz_s35_25.m4a,,,,,,,,,,,,
,,,,,39915,2021-10-11_11h21.00.696,judgeSpeechMusic_20210919_logNormShiftAmp_detection_fixFreq,2020.1.2,MacIntel,60,,,,,,,,,,,,,,,,,,,,,,,,,,,,,,1,11.5294,,0,0,14,14,71,1,stimuli/stim_20210919_power2amp/equal_lnn_AM2Hz_s55_23.m4a,,,,,,,,,,,,
,,,,,39915,2021-10-11_11h21.00.696,judgeSpeechMusic_20210919_logNormShiftAmp_detection_fixFreq,2020.1.2,MacIntel,60,,,,,,,,,,,,,,,,,,,,,,,,,,,,,,2,6.3461,,0,0,15,15,7,1,stimuli/stim_20210919_power2amp/equal_lnn_AM2Hz_s15_13.m4a,,,,,,,,,,,,
,,,,,39915,2021-10-11_11h21.00.696,judgeSpeechMusic_20210919_logNormShiftAmp_detection_fixFreq,2020.1.2,MacIntel,60,,,,,,,,,,,,,,,,,,,,,,,,,,,,,,1,12.0973,,0,0,16,16,67,1,stimuli/stim_20210919_power2amp/equal_lnn_AM2Hz_s55_12.m4a,,,,,,,,,,,,
,,,,,39915,2021-10-11_11h21.00.696,judgeSpeechMusic_20210919_logNormShiftAmp_detection_fixFreq,2020.1.2,MacIntel,60,,,,,,,,,,,,,,,,,,,,,,,,,,,,,,2,15.8624,,0,0,17,17,20,1,stimuli/stim_20210919_power2amp/equal_lnn_AM2Hz_s25_15.m4a,,,,,,,,,,,,
,,,,,39915,2021-10-11_11h21.00.696,judgeSpeechMusic_20210919_logNormShiftAmp_detection_fixFreq,2020.1.2,MacIntel,60,,,,,,,,,,,,,,,,,,,,,,,,,,,,,,1,10.7615,,0,0,18,18,24,1,stimuli/stim_20210919_power2amp/equal_lnn_AM2Hz_s25_46.m4a,,,,,,,,,,,,
,,,,,39915,2021-10-11_11h21.00.696,judgeSpeechMusic_20210919_logNormShiftAmp_detection_fixFreq,2020.1.2,MacIntel,60,,,,,,,,,,,,,,,,,,,,,,,,,,,,,,1,9.5948,,0,0,19,19,54,1,stimuli/stim_20210919_power2amp/equal_lnn_AM2Hz_s45_49.m4a,,,,,,,,,,,,
,,,,,39915,2021-10-11_11h21.00.696,judgeSpeechMusic_20210919_logNormShiftAmp_detection_fixFreq,2020.1.2,MacIntel,60,,,,,,,,,,,,,,,,,,,,,,,,,,,,,,2,9.3272,,0,0,20,20,64,1,stimuli/stim_20210919_power2amp/equal_lnn_AM2Hz_s55_37.m4a,,,,,,,,,,,,
,,,,,39915,2021-10-11_11h21.00.696,judgeSpeechMusic_20210919_logNormShiftAmp_detection_fixFreq,2020.1.2,MacIntel,60,,,,,,,,,,,,,,,,,,,,,,,,,,,,,,1,9.1124,,0,0,21,21,74,1,stimuli/stim_20210919_power2amp/equal_lnn_AM2Hz_s55_18.m4a,,,,,,,,,,,,
,,,,,39915,2021-10-11_11h21.00.696,judgeSpeechMusic_20210919_logNormShiftAmp_detection_fixFreq,2020.1.2,MacIntel,60,,,,,,,,,,,,,,,,,,,,,,,,,,,,,,2,5.6982,1,1,0,22,22,9,1,stimuli/stim_20210919_power2amp/equal_lnn_AM2Hz_s15_10.m4a,1.0809,,,,,,,,,,,
,,,,,39915,2021-10-11_11h21.00.696,judgeSpeechMusic_20210919_logNormShiftAmp_detection_fixFreq,2020.1.2,MacIntel,60,,,,,,,,,,,,,,,,,,,,,,,,,,,,,,2,7.3057,,0,0,23,23,35,1,stimuli/stim_20210919_power2amp/equal_lnn_AM2Hz_s35_33.m4a,,,,,,,,,,,,
,,,,,39915,2021-10-11_11h21.00.696,judgeSpeechMusic_20210919_logNormShiftAmp_detection_fixFreq,2020.1.2,MacIntel,60,,,,,,,,,,,,,,,,,,,,,,,,,,,,,,1,5.8073,,0,0,24,24,53,1,stimuli/stim_20210919_power2amp/equal_lnn_AM2Hz_s45_39.m4a,,,,,,,,,,,,
,,,,,39915,2021-10-11_11h21.00.696,judgeSpeechMusic_20210919_logNormShiftAmp_detection_fixFreq,2020.1.2,MacIntel,60,,,,,,,,,,,,,,,,,,,,,,,,,,,,,,1,28.0206,,0,0,25,25,26,1,stimuli/stim_20210919_power2amp/equal_lnn_AM2Hz_s25_22.m4a,,,,,,,,,,,,
,,,,,39915,2021-10-11_11h21.00.696,judgeSpeechMusic_20210919_logNormShiftAmp_detection_fixFreq,2020.1.2,MacIntel,60,,,,,,,,,,,,,,,,,,,,,,,,,,,,,,2,7.645,,0,0,26,26,43,1,stimuli/stim_20210919_power2amp/equal_lnn_AM2Hz_s35_44.m4a,,,,,,,,,,,,
,,,,,39915,2021-10-11_11h21.00.696,judgeSpeechMusic_20210919_logNormShiftAmp_detection_fixFreq,2020.1.2,MacIntel,60,,,,,,,,,,,,,,,,,,,,,,,,,,,,,,2,10.6557,,0,0,27,27,55,1,stimuli/stim_20210919_power2amp/equal_lnn_AM2Hz_s45_28.m4a,,,,,,,,,,,,
,,,,,39915,2021-10-11_11h21.00.696,judgeSpeechMusic_20210919_logNormShiftAmp_detection_fixFreq,2020.1.2,MacIntel,60,,,,,,,,,,,,,,,,,,,,,,,,,,,,,,1,10.7777,,0,0,28,28,0,1,stimuli/stim_20210919_power2amp/equal_lnn_AM2Hz_s15_6.m4a,,,,,,,,,,,,
,,,,,39915,2021-10-11_11h21.00.696,judgeSpeechMusic_20210919_logNormShiftAmp_detection_fixFreq,2020.1.2,MacIntel,60,,,,,,,,,,,,,,,,,,,,,,,,,,,,,,1,13.8949,,0,0,29,29,12,1,stimuli/stim_20210919_power2amp/equal_lnn_AM2Hz_s15_28.m4a,,,,,,,,,,,,
,,,,,39915,2021-10-11_11h21.00.696,judgeSpeechMusic_20210919_logNormShiftAmp_detection_fixFreq,2020.1.2,MacIntel,60,,,,,,,,,,,,,,,,,,,,,,,,,,,,,,2,6.94,,0,0,30,30,59,1,stimuli/stim_20210919_power2amp/equal_lnn_AM2Hz_s45_42.m4a,,,,,,,,,,,,
,,,,,39915,2021-10-11_11h21.00.696,judgeSpeechMusic_20210919_logNormShiftAmp_detection_fixFreq,2020.1.2,MacIntel,60,,,,,,,,,,,,,,,,,,,,,,,,,,,,,,2,6.179,,0,0,31,31,56,1,stimuli/stim_20210919_power2amp/equal_lnn_AM2Hz_s45_40.m4a,,,,,,,,,,,,
,,,,,39915,2021-10-11_11h21.00.696,judgeSpeechMusic_20210919_logNormShiftAmp_detection_fixFreq,2020.1.2,MacIntel,60,,,,,,,,,,,,,,,,,,,,,,,,,,,,,,1,7.2954,,0,0,32,32,62,1,stimuli/stim_20210919_power2amp/equal_lnn_AM2Hz_s55_25.m4a,,,,,,,,,,,,
,,,,,39915,2021-10-11_11h21.00.696,judgeSpeechMusic_20210919_logNormShiftAmp_detection_fixFreq,2020.1.2,MacIntel,60,,,,,,,,,,,,,,,,,,,,,,,,,,,,,,2,5.8391,,0,0,33,33,38,1,stimuli/stim_20210919_power2amp/equal_lnn_AM2Hz_s35_29.m4a,,,,,,,,,,,,
,,,,,39915,2021-10-11_11h21.00.696,judgeSpeechMusic_20210919_logNormShiftAmp_detection_fixFreq,2020.1.2,MacIntel,60,,,,,,,,,,,,,,,,,,,,,,,,,,,,,,2,7.5228,,0,0,34,34,48,1,stimuli/stim_20210919_power2amp/equal_lnn_AM2Hz_s45_18.m4a,,,,,,,,,,,,
,,,,,39915,2021-10-11_11h21.00.696,judgeSpeechMusic_20210919_logNormShiftAmp_detection_fixFreq,2020.1.2,MacIntel,60,,,,,,,,,,,,,,,,,,,,,,,,,,,,,,1,14.4432,,0,0,35,35,30,1,stimuli/stim_20210919_power2amp/equal_lnn_AM2Hz_s35_2.m4a,,,,,,,,,,,,
,,,,,39915,2021-10-11_11h21.00.696,judgeSpeechMusic_20210919_logNormShiftAmp_detection_fixFreq,2020.1.2,MacIntel,60,,,,,,,,,,,,,,,,,,,,,,,,,,,,,,2,8.0719,,0,0,36,36,10,1,stimuli/stim_20210919_power2amp/equal_lnn_AM2Hz_s15_31.m4a,,,,,,,,,,,,
,,,,,39915,2021-10-11_11h21.00.696,judgeSpeechMusic_20210919_logNormShiftAmp_detection_fixFreq,2020.1.2,MacIntel,60,,,,,,,,,,,,,,,,,,,,,,,,,,,,,,1,9.5947,,0,0,37,37,5,1,stimuli/stim_20210919_power2amp/equal_lnn_AM2Hz_s15_5.m4a,,,,,,,,,,,,
,,,,,39915,2021-10-11_11h21.00.696,judgeSpeechMusic_20210919_logNormShiftAmp_detection_fixFreq,2020.1.2,MacIntel,60,,,,,,,,,,,,,,,,,,,,,,,,,,,,,,2,10.5544,,0,0,38,38,2,1,stimuli/stim_20210919_power2amp/equal_lnn_AM2Hz_s15_43.m4a,,,,,,,,,,,,
,,,,,39915,2021-10-11_11h21.00.696,judgeSpeechMusic_20210919_logNormShiftAmp_detection_fixFreq,2020.1.2,MacIntel,60,,,,,,,,,,,,,,,,,,,,,,,,,,,,,,2,7.9233,,0,0,39,39,15,1,stimuli/stim_20210919_power2amp/equal_lnn_AM2Hz_s25_31.m4a,,,,,,,,,,,,
,,,,,39915,2021-10-11_11h21.00.696,judgeSpeechMusic_20210919_logNormShiftAmp_detection_fixFreq,2020.1.2,MacIntel,60,,,,,,,,,,,,,,,,,,,,,,,,,,,,,,1,8.301,,0,0,40,40,70,1,stimuli/stim_20210919_power2amp/equal_lnn_AM2Hz_s55_36.m4a,,,,,,,,,,,,
,,,,,39915,2021-10-11_11h21.00.696,judgeSpeechMusic_20210919_logNormShiftAmp_detection_fixFreq,2020.1.2,MacIntel,60,,,,,,,,,,,,,,,,,,,,,,,,,,,,,,2,7.5225,,0,0,41,41,27,1,stimuli/stim_20210919_power2amp/equal_lnn_AM2Hz_s25_27.m4a,,,,,,,,,,,,
,,,,,39915,2021-10-11_11h21.00.696,judgeSpeechMusic_20210919_logNormShiftAmp_detection_fixFreq,2020.1.2,MacIntel,60,,,,,,,,,,,,,,,,,,,,,,,,,,,,,,2,13.0403,,0,0,42,42,72,1,stimuli/stim_20210919_power2amp/equal_lnn_AM2Hz_s55_3.m4a,,,,,,,,,,,,
,,,,,39915,2021-10-11_11h21.00.696,judgeSpeechMusic_20210919_logNormShiftAmp_detection_fixFreq,2020.1.2,MacIntel,60,,,,,,,,,,,,,,,,,,,,,,,,,,,,,,1,18.2052,,0,0,43,43,73,1,stimuli/stim_20210919_power2amp/equal_lnn_AM2Hz_s55_24.m4a,,,,,,,,,,,,
,,,,,39915,2021-10-11_11h21.00.696,judgeSpeechMusic_20210919_logNormShiftAmp_detection_fixFreq,2020.1.2,MacIntel,60,,,,,,,,,,,,,,,,,,,,,,,,,,,,,,1,26.8284,2,1,0,44,44,39,1,stimuli/stim_20210919_power2amp/equal_lnn_AM2Hz_s35_23.m4a,1.049,,,,,,,,,,,
,,,,,39915,2021-10-11_11h21.00.696,judgeSpeechMusic_20210919_logNormShiftAmp_detection_fixFreq,2020.1.2,MacIntel,60,,,,,,,,,,,,,,,,,,,,,,,,,,,,,,2,7.271,,0,0,45,45,68,1,stimuli/stim_20210919_power2amp/equal_lnn_AM2Hz_s55_15.m4a,,,,,,,,,,,,
,,,,,39915,2021-10-11_11h21.00.696,judgeSpeechMusic_20210919_logNormShiftAmp_detection_fixFreq,2020.1.2,MacIntel,60,,,,,,,,,,,,,,,,,,,,,,,,,,,,,,2,6.6063,,0,0,46,46,29,1,stimuli/stim_20210919_power2amp/equal_lnn_AM2Hz_s25_34.m4a,,,,,,,,,,,,
,,,,,39915,2021-10-11_11h21.00.696,judgeSpeechMusic_20210919_logNormShiftAmp_detection_fixFreq,2020.1.2,MacIntel,60,,,,,,,,,,,,,,,,,,,,,,,,,,,,,,1,9.4772,,0,0,47,47,21,1,stimuli/stim_20210919_power2amp/equal_lnn_AM2Hz_s25_40.m4a,,,,,,,,,,,,
,,,,,39915,2021-10-11_11h21.00.696,judgeSpeechMusic_20210919_logNormShiftAmp_detection_fixFreq,2020.1.2,MacIntel,60,,,,,,,,,,,,,,,,,,,,,,,,,,,,,,2,36.4255,,0,0,48,48,57,1,stimuli/stim_20210919_power2amp/equal_lnn_AM2Hz_s45_50.m4a,,,,,,,,,,,,
,,,,,39915,2021-10-11_11h21.00.696,judgeSpeechMusic_20210919_logNormShiftAmp_detection_fixFreq,2020.1.2,MacIntel,60,,,,,,,,,,,,,,,,,,,,,,,,,,,,,,1,6.9562,,0,0,49,49,45,1,stimuli/stim_20210919_power2amp/equal_lnn_AM2Hz_s45_25.m4a,,,,,,,,,,,,
,,,,,39915,2021-10-11_11h21.00.696,judgeSpeechMusic_20210919_logNormShiftAmp_detection_fixFreq,2020.1.2,MacIntel,60,,,,,,,,,,,,,,,,,,,,,,,,,,,,,,1,6.6767,,0,0,50,50,31,1,stimuli/stim_20210919_power2amp/equal_lnn_AM2Hz_s35_41.m4a,,,,,,,,,,,,
,,,,,39915,2021-10-11_11h21.00.696,judgeSpeechMusic_20210919_logNormShiftAmp_detection_fixFreq,2020.1.2,MacIntel,60,,,,,,,,,,,,,,,,,,,,,,,,,,,,,,2,5.8225,,0,0,51,51,41,1,stimuli/stim_20210919_power2amp/equal_lnn_AM2Hz_s35_36.m4a,,,,,,,,,,,,
,,,,,39915,2021-10-11_11h21.00.696,judgeSpeechMusic_20210919_logNormShiftAmp_detection_fixFreq,2020.1.2,MacIntel,60,,,,,,,,,,,,,,,,,,,,,,,,,,,,,,1,6.265,,0,0,52,52,49,1,stimuli/stim_20210919_power2amp/equal_lnn_AM2Hz_s45_38.m4a,,,,,,,,,,,,
,,,,,39915,2021-10-11_11h21.00.696,judgeSpeechMusic_20210919_logNormShiftAmp_detection_fixFreq,2020.1.2,MacIntel,60,,,,,,,,,,,,,,,,,,,,,,,,,,,,,,2,8.7214,,0,0,53,53,63,1,stimuli/stim_20210919_power2amp/equal_lnn_AM2Hz_s55_8.m4a,,,,,,,,,,,,
,,,,,39915,2021-10-11_11h21.00.696,judgeSpeechMusic_20210919_logNormShiftAmp_detection_fixFreq,2020.1.2,MacIntel,60,,,,,,,,,,,,,,,,,,,,,,,,,,,,,,2,6.5789,,0,0,54,54,1,1,stimuli/stim_20210919_power2amp/equal_lnn_AM2Hz_s15_33.m4a,,,,,,,,,,,,
,,,,,39915,2021-10-11_11h21.00.696,judgeSpeechMusic_20210919_logNormShiftAmp_detection_fixFreq,2020.1.2,MacIntel,60,,,,,,,,,,,,,,,,,,,,,,,,,,,,,,1,5.8987,,0,0,55,55,44,1,stimuli/stim_20210919_power2amp/equal_lnn_AM2Hz_s35_14.m4a,,,,,,,,,,,,
,,,,,39915,2021-10-11_11h21.00.696,judgeSpeechMusic_20210919_logNormShiftAmp_detection_fixFreq,2020.1.2,MacIntel,60,,,,,,,,,,,,,,,,,,,,,,,,,,,,,,1,12.0913,,0,0,56,56,33,1,stimuli/stim_20210919_power2amp/equal_lnn_AM2Hz_s35_1.m4a,,,,,,,,,,,,
,,,,,39915,2021-10-11_11h21.00.696,judgeSpeechMusic_20210919_logNormShiftAmp_detection_fixFreq,2020.1.2,MacIntel,60,,,,,,,,,,,,,,,,,,,,,,,,,,,,,,1,25.8601,,0,0,57,57,18,1,stimuli/stim_20210919_power2amp/equal_lnn_AM2Hz_s25_21.m4a,,,,,,,,,,,,
,,,,,39915,2021-10-11_11h21.00.696,judgeSpeechMusic_20210919_logNormShiftAmp_detection_fixFreq,2020.1.2,MacIntel,60,,,,,,,,,,,,,,,,,,,,,,,,,,,,,,2,8.9045,,0,0,58,58,51,1,stimuli/stim_20210919_power2amp/equal_lnn_AM2Hz_s45_3.m4a,,,,,,,,,,,,
,,,,,39915,2021-10-11_11h21.00.696,judgeSpeechMusic_20210919_logNormShiftAmp_detection_fixFreq,2020.1.2,MacIntel,60,,,,,,,,,,,,,,,,,,,,,,,,,,,,,,2,6.9757,,0,0,59,59,14,1,stimuli/stim_20210919_power2amp/equal_lnn_AM2Hz_s15_22.m4a,,,,,,,,,,,,
,,,,,39915,2021-10-11_11h21.00.696,judgeSpeechMusic_20210919_logNormShiftAmp_detection_fixFreq,2020.1.2,MacIntel,60,,,,,,,,,,,,,,,,,,,,,,,,,,,,,,1,7.4613,,0,0,60,60,16,1,stimuli/stim_20210919_power2amp/equal_lnn_AM2Hz_s25_12.m4a,,,,,,,,,,,,
,,,,,39915,2021-10-11_11h21.00.696,judgeSpeechMusic_20210919_logNormShiftAmp_detection_fixFreq,2020.1.2,MacIntel,60,,,,,,,,,,,,,,,,,,,,,,,,,,,,,,2,5.7229,,0,0,61,61,11,1,stimuli/stim_20210919_power2amp/equal_lnn_AM2Hz_s15_16.m4a,,,,,,,,,,,,
,,,,,39915,2021-10-11_11h21.00.696,judgeSpeechMusic_20210919_logNormShiftAmp_detection_fixFreq,2020.1.2,MacIntel,60,,,,,,,,,,,,,,,,,,,,,,,,,,,,,,2,7.2436,,0,0,62,62,36,1,stimuli/stim_20210919_power2amp/equal_lnn_AM2Hz_s35_24.m4a,,,,,,,,,,,,
,,,,,39915,2021-10-11_11h21.00.696,judgeSpeechMusic_20210919_logNormShiftAmp_detection_fixFreq,2020.1.2,MacIntel,60,,,,,,,,,,,,,,,,,,,,,,,,,,,,,,1,6.0555,,0,0,63,63,23,1,stimuli/stim_20210919_power2amp/equal_lnn_AM2Hz_s25_36.m4a,,,,,,,,,,,,
,,,,,39915,2021-10-11_11h21.00.696,judgeSpeechMusic_20210919_logNormShiftAmp_detection_fixFreq,2020.1.2,MacIntel,60,,,,,,,,,,,,,,,,,,,,,,,,,,,,,,2,8.2958,,0,0,64,64,69,1,stimuli/stim_20210919_power2amp/equal_lnn_AM2Hz_s55_38.m4a,,,,,,,,,,,,
,,,,,39915,2021-10-11_11h21.00.696,judgeSpeechMusic_20210919_logNormShiftAmp_detection_fixFreq,2020.1.2,MacIntel,60,,,,,,,,,,,,,,,,,,,,,,,,,,,,,,1,8.2951,4,1,0,65,65,19,1,stimuli/stim_20210919_power2amp/equal_lnn_AM2Hz_s25_9.m4a,2.7926,,,,,,,,,,,
,,,,,39915,2021-10-11_11h21.00.696,judgeSpeechMusic_20210919_logNormShiftAmp_detection_fixFreq,2020.1.2,MacIntel,60,,,,,,,,,,,,,,,,,,,,,,,,,,,,,,1,6.8288,,0,0,66,66,47,1,stimuli/stim_20210919_power2amp/equal_lnn_AM2Hz_s45_23.m4a,,,,,,,,,,,,
,,,,,39915,2021-10-11_11h21.00.696,judgeSpeechMusic_20210919_logNormShiftAmp_detection_fixFreq,2020.1.2,MacIntel,60,,,,,,,,,,,,,,,,,,,,,,,,,,,,,,2,14.9127,,0,0,67,67,34,1,stimuli/stim_20210919_power2amp/equal_lnn_AM2Hz_s35_11.m4a,,,,,,,,,,,,
,,,,,39915,2021-10-11_11h21.00.696,judgeSpeechMusic_20210919_logNormShiftAmp_detection_fixFreq,2020.1.2,MacIntel,60,,,,,,,,,,,,,,,,,,,,,,,,,,,,,,1,7.1631,,0,0,68,68,25,1,stimuli/stim_20210919_power2amp/equal_lnn_AM2Hz_s25_32.m4a,,,,,,,,,,,,
,,,,,39915,2021-10-11_11h21.00.696,judgeSpeechMusic_20210919_logNormShiftAmp_detection_fixFreq,2020.1.2,MacIntel,60,,,,,,,,,,,,,,,,,,,,,,,,,,,,,,1,8.4542,,0,0,69,69,42,1,stimuli/stim_20210919_power2amp/equal_lnn_AM2Hz_s35_20.m4a,,,,,,,,,,,,
,,,,,39915,2021-10-11_11h21.00.696,judgeSpeechMusic_20210919_logNormShiftAmp_detection_fixFreq,2020.1.2,MacIntel,60,,,,,,,,,,,,,,,,,,,,,,,,,,,,,,1,15.03,,0,0,70,70,22,1,stimuli/stim_20210919_power2amp/equal_lnn_AM2Hz_s25_33.m4a,,,,,,,,,,,,
,,,,,39915,2021-10-11_11h21.00.696,judgeSpeechMusic_20210919_logNormShiftAmp_detection_fixFreq,2020.1.2,MacIntel,60,,,,,,,,,,,,,,,,,,,,,,,,,,,,,,2,5.8227,,0,0,71,71,6,1,stimuli/stim_20210919_power2amp/equal_lnn_AM2Hz_s15_45.m4a,,,,,,,,,,,,
,,,,,39915,2021-10-11_11h21.00.696,judgeSpeechMusic_20210919_logNormShiftAmp_detection_fixFreq,2020.1.2,MacIntel,60,,,,,,,,,,,,,,,,,,,,,,,,,,,,,,1,10.189,,0,0,72,72,8,1,stimuli/stim_20210919_power2amp/equal_lnn_AM2Hz_s15_2.m4a,,,,,,,,,,,,
,,,,,39915,2021-10-11_11h21.00.696,judgeSpeechMusic_20210919_logNormShiftAmp_detection_fixFreq,2020.1.2,MacIntel,60,,,,,,,,,,,,,,,,,,,,,,,,,,,,,,1,17.6562,,0,0,73,73,37,1,stimuli/stim_20210919_power2amp/equal_lnn_AM2Hz_s35_37.m4a,,,,,,,,,,,,
,,,,,39915,2021-10-11_11h21.00.696,judgeSpeechMusic_20210919_logNormShiftAmp_detection_fixFreq,2020.1.2,MacIntel,60,,,,,,,,,,,,,,,,,,,,,,,,,,,,,,2,7.6229,,0,0,74,74,3,1,stimuli/stim_20210919_power2amp/equal_lnn_AM2Hz_s15_23.m4a,,,,,,,,,,,,
,,,,,39915,2021-10-11_11h21.00.696,judgeSpeechMusic_20210919_logNormShiftAmp_detection_fixFreq,2020.1.2,MacIntel,60,,,,,,,,,,,,,,,,,,,,,,,,,,,,,,,,,,,,,,,,,space,753.0337,1,0,2,0,1,MUSIC,stimuli/MUSIC.jpg,,
,,,,,39915,2021-10-11_11h21.00.696,judgeSpeechMusic_20210919_logNormShiftAmp_detection_fixFreq,2020.1.2,MacIntel,60,,,,,,,,,,,,,,,,,,0,0,0,0,0,1,stimuli/stim_20210919_power2amp/equal_lnn_AM_training2Hz_s20.m4a,,,,,,,,,,,,,,,,,,,,,,,,,,,
,,,,,39915,2021-10-11_11h21.00.696,judgeSpeechMusic_20210919_logNormShiftAmp_detection_fixFreq,2020.1.2,MacIntel,60,,,,,,,,,,,,,,,,,,,,,,,,,,space,7.6793,space,0.6249,1,11.5589,,0,0,0,0,1,1,stimuli/stim_20210919_power2amp/equal_lnn_AM2Hz_s15_33.m4a,,,,,,,,,,,,
,,,,,39915,2021-10-11_11h21.00.696,judgeSpeechMusic_20210919_logNormShiftAmp_detection_fixFreq,2020.1.2,MacIntel,60,,,,,,,,,,,,,,,,,,,,,,,,,,,,,,2,5.9608,,0,0,1,1,62,1,stimuli/stim_20210919_power2amp/equal_lnn_AM2Hz_s55_25.m4a,,,,,,,,,,,,
,,,,,39915,2021-10-11_11h21.00.696,judgeSpeechMusic_20210919_logNormShiftAmp_detection_fixFreq,2020.1.2,MacIntel,60,,,,,,,,,,,,,,,,,,,,,,,,,,,,,,1,6.4052,,0,0,2,2,16,1,stimuli/stim_20210919_power2amp/equal_lnn_AM2Hz_s25_12.m4a,,,,,,,,,,,,
,,,,,39915,2021-10-11_11h21.00.696,judgeSpeechMusic_20210919_logNormShiftAmp_detection_fixFreq,2020.1.2,MacIntel,60,,,,,,,,,,,,,,,,,,,,,,,,,,,,,,2,7.041,,0,0,3,3,70,1,stimuli/stim_20210919_power2amp/equal_lnn_AM2Hz_s55_36.m4a,,,,,,,,,,,,
,,,,,39915,2021-10-11_11h21.00.696,judgeSpeechMusic_20210919_logNormShiftAmp_detection_fixFreq,2020.1.2,MacIntel,60,,,,,,,,,,,,,,,,,,,,,,,,,,,,,,2,7.0959,,0,0,4,4,54,1,stimuli/stim_20210919_power2amp/equal_lnn_AM2Hz_s45_49.m4a,,,,,,,,,,,,
,,,,,39915,2021-10-11_11h21.00.696,judgeSpeechMusic_20210919_logNormShiftAmp_detection_fixFreq,2020.1.2,MacIntel,60,,,,,,,,,,,,,,,,,,,,,,,,,,,,,,1,11.3897,,0,0,5,5,28,1,stimuli/stim_20210919_power2amp/equal_lnn_AM2Hz_s25_29.m4a,,,,,,,,,,,,
,,,,,39915,2021-10-11_11h21.00.696,judgeSpeechMusic_20210919_logNormShiftAmp_detection_fixFreq,2020.1.2,MacIntel,60,,,,,,,,,,,,,,,,,,,,,,,,,,,,,,2,10.34,,0,0,6,6,7,1,stimuli/stim_20210919_power2amp/equal_lnn_AM2Hz_s15_13.m4a,,,,,,,,,,,,
,,,,,39915,2021-10-11_11h21.00.696,judgeSpeechMusic_20210919_logNormShiftAmp_detection_fixFreq,2020.1.2,MacIntel,60,,,,,,,,,,,,,,,,,,,,,,,,,,,,,,1,14.4557,,0,0,7,7,61,1,stimuli/stim_20210919_power2amp/equal_lnn_AM2Hz_s55_28.m4a,,,,,,,,,,,,
,,,,,39915,2021-10-11_11h21.00.696,judgeSpeechMusic_20210919_logNormShiftAmp_detection_fixFreq,2020.1.2,MacIntel,60,,,,,,,,,,,,,,,,,,,,,,,,,,,,,,1,15.9537,,0,0,8,8,42,1,stimuli/stim_20210919_power2amp/equal_lnn_AM2Hz_s35_20.m4a,,,,,,,,,,,,
,,,,,39915,2021-10-11_11h21.00.696,judgeSpeechMusic_20210919_logNormShiftAmp_detection_fixFreq,2020.1.2,MacIntel,60,,,,,,,,,,,,,,,,,,,,,,,,,,,,,,2,6.6709,,0,0,9,9,18,1,stimuli/stim_20210919_power2amp/equal_lnn_AM2Hz_s25_21.m4a,,,,,,,,,,,,
,,,,,39915,2021-10-11_11h21.00.696,judgeSpeechMusic_20210919_logNormShiftAmp_detection_fixFreq,2020.1.2,MacIntel,60,,,,,,,,,,,,,,,,,,,,,,,,,,,,,,2,6.4576,,0,0,10,10,48,1,stimuli/stim_20210919_power2amp/equal_lnn_AM2Hz_s45_18.m4a,,,,,,,,,,,,
,,,,,39915,2021-10-11_11h21.00.696,judgeSpeechMusic_20210919_logNormShiftAmp_detection_fixFreq,2020.1.2,MacIntel,60,,,,,,,,,,,,,,,,,,,,,,,,,,,,,,2,6.1222,,0,0,11,11,31,1,stimuli/stim_20210919_power2amp/equal_lnn_AM2Hz_s35_41.m4a,,,,,,,,,,,,
,,,,,39915,2021-10-11_11h21.00.696,judgeSpeechMusic_20210919_logNormShiftAmp_detection_fixFreq,2020.1.2,MacIntel,60,,,,,,,,,,,,,,,,,,,,,,,,,,,,,,1,5.926,,0,0,12,12,59,1,stimuli/stim_20210919_power2amp/equal_lnn_AM2Hz_s45_42.m4a,,,,,,,,,,,,
,,,,,39915,2021-10-11_11h21.00.696,judgeSpeechMusic_20210919_logNormShiftAmp_detection_fixFreq,2020.1.2,MacIntel,60,,,,,,,,,,,,,,,,,,,,,,,,,,,,,,2,6.4386,,0,0,13,13,34,1,stimuli/stim_20210919_power2amp/equal_lnn_AM2Hz_s35_11.m4a,,,,,,,,,,,,
,,,,,39915,2021-10-11_11h21.00.696,judgeSpeechMusic_20210919_logNormShiftAmp_detection_fixFreq,2020.1.2,MacIntel,60,,,,,,,,,,,,,,,,,,,,,,,,,,,,,,2,7.8213,,0,0,14,14,50,1,stimuli/stim_20210919_power2amp/equal_lnn_AM2Hz_s45_1.m4a,,,,,,,,,,,,
,,,,,39915,2021-10-11_11h21.00.696,judgeSpeechMusic_20210919_logNormShiftAmp_detection_fixFreq,2020.1.2,MacIntel,60,,,,,,,,,,,,,,,,,,,,,,,,,,,,,,1,6.5762,,0,0,15,15,71,1,stimuli/stim_20210919_power2amp/equal_lnn_AM2Hz_s55_23.m4a,,,,,,,,,,,,
,,,,,39915,2021-10-11_11h21.00.696,judgeSpeechMusic_20210919_logNormShiftAmp_detection_fixFreq,2020.1.2,MacIntel,60,,,,,,,,,,,,,,,,,,,,,,,,,,,,,,1,5.61,,0,0,16,16,25,1,stimuli/stim_20210919_power2amp/equal_lnn_AM2Hz_s25_32.m4a,,,,,,,,,,,,
,,,,,39915,2021-10-11_11h21.00.696,judgeSpeechMusic_20210919_logNormShiftAmp_detection_fixFreq,2020.1.2,MacIntel,60,,,,,,,,,,,,,,,,,,,,,,,,,,,,,,2,5.6268,,0,0,17,17,53,1,stimuli/stim_20210919_power2amp/equal_lnn_AM2Hz_s45_39.m4a,,,,,,,,,,,,
,,,,,39915,2021-10-11_11h21.00.696,judgeSpeechMusic_20210919_logNormShiftAmp_detection_fixFreq,2020.1.2,MacIntel,60,,,,,,,,,,,,,,,,,,,,,,,,,,,,,,1,5.8433,,0,0,18,18,10,1,stimuli/stim_20210919_power2amp/equal_lnn_AM2Hz_s15_31.m4a,,,,,,,,,,,,
,,,,,39915,2021-10-11_11h21.00.696,judgeSpeechMusic_20210919_logNormShiftAmp_detection_fixFreq,2020.1.2,MacIntel,60,,,,,,,,,,,,,,,,,,,,,,,,,,,,,,2,5.6206,,0,0,19,19,26,1,stimuli/stim_20210919_power2amp/equal_lnn_AM2Hz_s25_22.m4a,,,,,,,,,,,,
,,,,,39915,2021-10-11_11h21.00.696,judgeSpeechMusic_20210919_logNormShiftAmp_detection_fixFreq,2020.1.2,MacIntel,60,,,,,,,,,,,,,,,,,,,,,,,,,,,,,,1,6.8289,,0,0,20,20,60,1,stimuli/stim_20210919_power2amp/equal_lnn_AM2Hz_s55_10.m4a,,,,,,,,,,,,
,,,,,39915,2021-10-11_11h21.00.696,judgeSpeechMusic_20210919_logNormShiftAmp_detection_fixFreq,2020.1.2,MacIntel,60,,,,,,,,,,,,,,,,,,,,,,,,,,,,,,2,6.1312,,0,0,21,21,56,1,stimuli/stim_20210919_power2amp/equal_lnn_AM2Hz_s45_40.m4a,,,,,,,,,,,,
,,,,,39915,2021-10-11_11h21.00.696,judgeSpeechMusic_20210919_logNormShiftAmp_detection_fixFreq,2020.1.2,MacIntel,60,,,,,,,,,,,,,,,,,,,,,,,,,,,,,,1,5.622,1,1,0,22,22,52,1,stimuli/stim_20210919_power2amp/equal_lnn_AM2Hz_s45_34.m4a,1.8916,,,,,,,,,,,
,,,,,39915,2021-10-11_11h21.00.696,judgeSpeechMusic_20210919_logNormShiftAmp_detection_fixFreq,2020.1.2,MacIntel,60,,,,,,,,,,,,,,,,,,,,,,,,,,,,,,1,6.6218,,0,0,23,23,21,1,stimuli/stim_20210919_power2amp/equal_lnn_AM2Hz_s25_40.m4a,,,,,,,,,,,,
,,,,,39915,2021-10-11_11h21.00.696,judgeSpeechMusic_20210919_logNormShiftAmp_detection_fixFreq,2020.1.2,MacIntel,60,,,,,,,,,,,,,,,,,,,,,,,,,,,,,,2,6.0466,,0,0,24,24,0,1,stimuli/stim_20210919_power2amp/equal_lnn_AM2Hz_s15_6.m4a,,,,,,,,,,,,
,,,,,39915,2021-10-11_11h21.00.696,judgeSpeechMusic_20210919_logNormShiftAmp_detection_fixFreq,2020.1.2,MacIntel,60,,,,,,,,,,,,,,,,,,,,,,,,,,,,,,1,6.3552,,0,0,25,25,45,1,stimuli/stim_20210919_power2amp/equal_lnn_AM2Hz_s45_25.m4a,,,,,,,,,,,,
,,,,,39915,2021-10-11_11h21.00.696,judgeSpeechMusic_20210919_logNormShiftAmp_detection_fixFreq,2020.1.2,MacIntel,60,,,,,,,,,,,,,,,,,,,,,,,,,,,,,,2,8.3888,,0,0,26,26,13,1,stimuli/stim_20210919_power2amp/equal_lnn_AM2Hz_s15_26.m4a,,,,,,,,,,,,
,,,,,39915,2021-10-11_11h21.00.696,judgeSpeechMusic_20210919_logNormShiftAmp_detection_fixFreq,2020.1.2,MacIntel,60,,,,,,,,,,,,,,,,,,,,,,,,,,,,,,1,6.4443,,0,0,27,27,8,1,stimuli/stim_20210919_power2amp/equal_lnn_AM2Hz_s15_2.m4a,,,,,,,,,,,,
,,,,,39915,2021-10-11_11h21.00.696,judgeSpeechMusic_20210919_logNormShiftAmp_detection_fixFreq,2020.1.2,MacIntel,60,,,,,,,,,,,,,,,,,,,,,,,,,,,,,,2,6.5895,,0,0,28,28,49,1,stimuli/stim_20210919_power2amp/equal_lnn_AM2Hz_s45_38.m4a,,,,,,,,,,,,
,,,,,39915,2021-10-11_11h21.00.696,judgeSpeechMusic_20210919_logNormShiftAmp_detection_fixFreq,2020.1.2,MacIntel,60,,,,,,,,,,,,,,,,,,,,,,,,,,,,,,1,6.231,,0,0,29,29,12,1,stimuli/stim_20210919_power2amp/equal_lnn_AM2Hz_s15_28.m4a,,,,,,,,,,,,
,,,,,39915,2021-10-11_11h21.00.696,judgeSpeechMusic_20210919_logNormShiftAmp_detection_fixFreq,2020.1.2,MacIntel,60,,,,,,,,,,,,,,,,,,,,,,,,,,,,,,2,6.2968,,0,0,30,30,55,1,stimuli/stim_20210919_power2amp/equal_lnn_AM2Hz_s45_28.m4a,,,,,,,,,,,,
,,,,,39915,2021-10-11_11h21.00.696,judgeSpeechMusic_20210919_logNormShiftAmp_detection_fixFreq,2020.1.2,MacIntel,60,,,,,,,,,,,,,,,,,,,,,,,,,,,,,,1,6.9607,,0,0,31,31,67,1,stimuli/stim_20210919_power2amp/equal_lnn_AM2Hz_s55_12.m4a,,,,,,,,,,,,
,,,,,39915,2021-10-11_11h21.00.696,judgeSpeechMusic_20210919_logNormShiftAmp_detection_fixFreq,2020.1.2,MacIntel,60,,,,,,,,,,,,,,,,,,,,,,,,,,,,,,2,6.3386,,0,0,32,32,64,1,stimuli/stim_20210919_power2amp/equal_lnn_AM2Hz_s55_37.m4a,,,,,,,,,,,,
,,,,,39915,2021-10-11_11h21.00.696,judgeSpeechMusic_20210919_logNormShiftAmp_detection_fixFreq,2020.1.2,MacIntel,60,,,,,,,,,,,,,,,,,,,,,,,,,,,,,,1,6.7778,,0,0,33,33,4,1,stimuli/stim_20210919_power2amp/equal_lnn_AM2Hz_s15_29.m4a,,,,,,,,,,,,
,,,,,39915,2021-10-11_11h21.00.696,judgeSpeechMusic_20210919_logNormShiftAmp_detection_fixFreq,2020.1.2,MacIntel,60,,,,,,,,,,,,,,,,,,,,,,,,,,,,,,2,6.5218,,0,0,34,34,63,1,stimuli/stim_20210919_power2amp/equal_lnn_AM2Hz_s55_8.m4a,,,,,,,,,,,,
,,,,,39915,2021-10-11_11h21.00.696,judgeSpeechMusic_20210919_logNormShiftAmp_detection_fixFreq,2020.1.2,MacIntel,60,,,,,,,,,,,,,,,,,,,,,,,,,,,,,,1,6.9265,,0,0,35,35,2,1,stimuli/stim_20210919_power2amp/equal_lnn_AM2Hz_s15_43.m4a,,,,,,,,,,,,
,,,,,39915,2021-10-11_11h21.00.696,judgeSpeechMusic_20210919_logNormShiftAmp_detection_fixFreq,2020.1.2,MacIntel,60,,,,,,,,,,,,,,,,,,,,,,,,,,,,,,2,6.8066,,0,0,36,36,3,1,stimuli/stim_20210919_power2amp/equal_lnn_AM2Hz_s15_23.m4a,,,,,,,,,,,,
,,,,,39915,2021-10-11_11h21.00.696,judgeSpeechMusic_20210919_logNormShiftAmp_detection_fixFreq,2020.1.2,MacIntel,60,,,,,,,,,,,,,,,,,,,,,,,,,,,,,,1,7.0434,,0,0,37,37,74,1,stimuli/stim_20210919_power2amp/equal_lnn_AM2Hz_s55_18.m4a,,,,,,,,,,,,
,,,,,39915,2021-10-11_11h21.00.696,judgeSpeechMusic_20210919_logNormShiftAmp_detection_fixFreq,2020.1.2,MacIntel,60,,,,,,,,,,,,,,,,,,,,,,,,,,,,,,2,5.8964,,0,0,38,38,37,1,stimuli/stim_20210919_power2amp/equal_lnn_AM2Hz_s35_37.m4a,,,,,,,,,,,,
,,,,,39915,2021-10-11_11h21.00.696,judgeSpeechMusic_20210919_logNormShiftAmp_detection_fixFreq,2020.1.2,MacIntel,60,,,,,,,,,,,,,,,,,,,,,,,,,,,,,,1,7.5139,,0,0,39,39,40,1,stimuli/stim_20210919_power2amp/equal_lnn_AM2Hz_s35_25.m4a,,,,,,,,,,,,
,,,,,39915,2021-10-11_11h21.00.696,judgeSpeechMusic_20210919_logNormShiftAmp_detection_fixFreq,2020.1.2,MacIntel,60,,,,,,,,,,,,,,,,,,,,,,,,,,,,,,2,7.3291,,0,0,40,40,5,1,stimuli/stim_20210919_power2amp/equal_lnn_AM2Hz_s15_5.m4a,,,,,,,,,,,,
,,,,,39915,2021-10-11_11h21.00.696,judgeSpeechMusic_20210919_logNormShiftAmp_detection_fixFreq,2020.1.2,MacIntel,60,,,,,,,,,,,,,,,,,,,,,,,,,,,,,,1,9.1792,,0,0,41,41,46,1,stimuli/stim_20210919_power2amp/equal_lnn_AM2Hz_s45_48.m4a,,,,,,,,,,,,
,,,,,39915,2021-10-11_11h21.00.696,judgeSpeechMusic_20210919_logNormShiftAmp_detection_fixFreq,2020.1.2,MacIntel,60,,,,,,,,,,,,,,,,,,,,,,,,,,,,,,2,7.0387,,0,0,42,42,72,1,stimuli/stim_20210919_power2amp/equal_lnn_AM2Hz_s55_3.m4a,,,,,,,,,,,,
,,,,,39915,2021-10-11_11h21.00.696,judgeSpeechMusic_20210919_logNormShiftAmp_detection_fixFreq,2020.1.2,MacIntel,60,,,,,,,,,,,,,,,,,,,,,,,,,,,,,,1,6.2296,,0,0,43,43,41,1,stimuli/stim_20210919_power2amp/equal_lnn_AM2Hz_s35_36.m4a,,,,,,,,,,,,
,,,,,39915,2021-10-11_11h21.00.696,judgeSpeechMusic_20210919_logNormShiftAmp_detection_fixFreq,2020.1.2,MacIntel,60,,,,,,,,,,,,,,,,,,,,,,,,,,,,,,2,5.961,4,1,0,44,44,69,1,stimuli/stim_20210919_power2amp/equal_lnn_AM2Hz_s55_38.m4a,2.8409,,,,,,,,,,,
,,,,,39915,2021-10-11_11h21.00.696,judgeSpeechMusic_20210919_logNormShiftAmp_detection_fixFreq,2020.1.2,MacIntel,60,,,,,,,,,,,,,,,,,,,,,,,,,,,,,,1,10.6586,,0,0,45,45,33,1,stimuli/stim_20210919_power2amp/equal_lnn_AM2Hz_s35_1.m4a,,,,,,,,,,,,
,,,,,39915,2021-10-11_11h21.00.696,judgeSpeechMusic_20210919_logNormShiftAmp_detection_fixFreq,2020.1.2,MacIntel,60,,,,,,,,,,,,,,,,,,,,,,,,,,,,,,2,6.6035,,0,0,46,46,66,1,stimuli/stim_20210919_power2amp/equal_lnn_AM2Hz_s55_20.m4a,,,,,,,,,,,,
,,,,,39915,2021-10-11_11h21.00.696,judgeSpeechMusic_20210919_logNormShiftAmp_detection_fixFreq,2020.1.2,MacIntel,60,,,,,,,,,,,,,,,,,,,,,,,,,,,,,,2,7.164,,0,0,47,47,14,1,stimuli/stim_20210919_power2amp/equal_lnn_AM2Hz_s15_22.m4a,,,,,,,,,,,,
,,,,,39915,2021-10-11_11h21.00.696,judgeSpeechMusic_20210919_logNormShiftAmp_detection_fixFreq,2020.1.2,MacIntel,60,,,,,,,,,,,,,,,,,,,,,,,,,,,,,,1,7.4738,,0,0,48,48,44,1,stimuli/stim_20210919_power2amp/equal_lnn_AM2Hz_s35_14.m4a,,,,,,,,,,,,
,,,,,39915,2021-10-11_11h21.00.696,judgeSpeechMusic_20210919_logNormShiftAmp_detection_fixFreq,2020.1.2,MacIntel,60,,,,,,,,,,,,,,,,,,,,,,,,,,,,,,2,7.0724,,0,0,49,49,51,1,stimuli/stim_20210919_power2amp/equal_lnn_AM2Hz_s45_3.m4a,,,,,,,,,,,,
,,,,,39915,2021-10-11_11h21.00.696,judgeSpeechMusic_20210919_logNormShiftAmp_detection_fixFreq,2020.1.2,MacIntel,60,,,,,,,,,,,,,,,,,,,,,,,,,,,,,,2,11.8881,,0,0,50,50,38,1,stimuli/stim_20210919_power2amp/equal_lnn_AM2Hz_s35_29.m4a,,,,,,,,,,,,
,,,,,39915,2021-10-11_11h21.00.696,judgeSpeechMusic_20210919_logNormShiftAmp_detection_fixFreq,2020.1.2,MacIntel,60,,,,,,,,,,,,,,,,,,,,,,,,,,,,,,1,6.9213,,0,0,51,51,17,1,stimuli/stim_20210919_power2amp/equal_lnn_AM2Hz_s25_23.m4a,,,,,,,,,,,,
,,,,,39915,2021-10-11_11h21.00.696,judgeSpeechMusic_20210919_logNormShiftAmp_detection_fixFreq,2020.1.2,MacIntel,60,,,,,,,,,,,,,,,,,,,,,,,,,,,,,,2,6.1788,,0,0,52,52,27,1,stimuli/stim_20210919_power2amp/equal_lnn_AM2Hz_s25_27.m4a,,,,,,,,,,,,
,,,,,39915,2021-10-11_11h21.00.696,judgeSpeechMusic_20210919_logNormShiftAmp_detection_fixFreq,2020.1.2,MacIntel,60,,,,,,,,,,,,,,,,,,,,,,,,,,,,,,2,6.1064,,0,0,53,53,65,1,stimuli/stim_20210919_power2amp/equal_lnn_AM2Hz_s55_2.m4a,,,,,,,,,,,,
,,,,,39915,2021-10-11_11h21.00.696,judgeSpeechMusic_20210919_logNormShiftAmp_detection_fixFreq,2020.1.2,MacIntel,60,,,,,,,,,,,,,,,,,,,,,,,,,,,,,,1,5.9619,,0,0,54,54,24,1,stimuli/stim_20210919_power2amp/equal_lnn_AM2Hz_s25_46.m4a,,,,,,,,,,,,
,,,,,39915,2021-10-11_11h21.00.696,judgeSpeechMusic_20210919_logNormShiftAmp_detection_fixFreq,2020.1.2,MacIntel,60,,,,,,,,,,,,,,,,,,,,,,,,,,,,,,2,7.0728,,0,0,55,55,39,1,stimuli/stim_20210919_power2amp/equal_lnn_AM2Hz_s35_23.m4a,,,,,,,,,,,,
,,,,,39915,2021-10-11_11h21.00.696,judgeSpeechMusic_20210919_logNormShiftAmp_detection_fixFreq,2020.1.2,MacIntel,60,,,,,,,,,,,,,,,,,,,,,,,,,,,,,,1,6.1801,,0,0,56,56,15,1,stimuli/stim_20210919_power2amp/equal_lnn_AM2Hz_s25_31.m4a,,,,,,,,,,,,
,,,,,39915,2021-10-11_11h21.00.696,judgeSpeechMusic_20210919_logNormShiftAmp_detection_fixFreq,2020.1.2,MacIntel,60,,,,,,,,,,,,,,,,,,,,,,,,,,,,,,2,7.131,,0,0,57,57,73,1,stimuli/stim_20210919_power2amp/equal_lnn_AM2Hz_s55_24.m4a,,,,,,,,,,,,
,,,,,39915,2021-10-11_11h21.00.696,judgeSpeechMusic_20210919_logNormShiftAmp_detection_fixFreq,2020.1.2,MacIntel,60,,,,,,,,,,,,,,,,,,,,,,,,,,,,,,1,6.3913,,0,0,58,58,68,1,stimuli/stim_20210919_power2amp/equal_lnn_AM2Hz_s55_15.m4a,,,,,,,,,,,,
,,,,,39915,2021-10-11_11h21.00.696,judgeSpeechMusic_20210919_logNormShiftAmp_detection_fixFreq,2020.1.2,MacIntel,60,,,,,,,,,,,,,,,,,,,,,,,,,,,,,,2,6.0313,,0,0,59,59,29,1,stimuli/stim_20210919_power2amp/equal_lnn_AM2Hz_s25_34.m4a,,,,,,,,,,,,
,,,,,39915,2021-10-11_11h21.00.696,judgeSpeechMusic_20210919_logNormShiftAmp_detection_fixFreq,2020.1.2,MacIntel,60,,,,,,,,,,,,,,,,,,,,,,,,,,,,,,2,8.6276,,0,0,60,60,19,1,stimuli/stim_20210919_power2amp/equal_lnn_AM2Hz_s25_9.m4a,,,,,,,,,,,,
,,,,,39915,2021-10-11_11h21.00.696,judgeSpeechMusic_20210919_logNormShiftAmp_detection_fixFreq,2020.1.2,MacIntel,60,,,,,,,,,,,,,,,,,,,,,,,,,,,,,,1,7.5252,,0,0,61,61,9,1,stimuli/stim_20210919_power2amp/equal_lnn_AM2Hz_s15_10.m4a,,,,,,,,,,,,
,,,,,39915,2021-10-11_11h21.00.696,judgeSpeechMusic_20210919_logNormShiftAmp_detection_fixFreq,2020.1.2,MacIntel,60,,,,,,,,,,,,,,,,,,,,,,,,,,,,,,2,8.3107,,0,0,62,62,30,1,stimuli/stim_20210919_power2amp/equal_lnn_AM2Hz_s35_2.m4a,,,,,,,,,,,,
,,,,,39915,2021-10-11_11h21.00.696,judgeSpeechMusic_20210919_logNormShiftAmp_detection_fixFreq,2020.1.2,MacIntel,60,,,,,,,,,,,,,,,,,,,,,,,,,,,,,,1,7.3618,,0,0,63,63,47,1,stimuli/stim_20210919_power2amp/equal_lnn_AM2Hz_s45_23.m4a,,,,,,,,,,,,
,,,,,39915,2021-10-11_11h21.00.696,judgeSpeechMusic_20210919_logNormShiftAmp_detection_fixFreq,2020.1.2,MacIntel,60,,,,,,,,,,,,,,,,,,,,,,,,,,,,,,2,11.4895,,0,0,64,64,6,1,stimuli/stim_20210919_power2amp/equal_lnn_AM2Hz_s15_45.m4a,,,,,,,,,,,,
,,,,,39915,2021-10-11_11h21.00.696,judgeSpeechMusic_20210919_logNormShiftAmp_detection_fixFreq,2020.1.2,MacIntel,60,,,,,,,,,,,,,,,,,,,,,,,,,,,,,,1,6.7724,3,1,0,65,65,32,1,stimuli/stim_20210919_power2amp/equal_lnn_AM2Hz_s35_7.m4a,2.0421,,,,,,,,,,,
,,,,,39915,2021-10-11_11h21.00.696,judgeSpeechMusic_20210919_logNormShiftAmp_detection_fixFreq,2020.1.2,MacIntel,60,,,,,,,,,,,,,,,,,,,,,,,,,,,,,,2,7.3044,,0,0,66,66,43,1,stimuli/stim_20210919_power2amp/equal_lnn_AM2Hz_s35_44.m4a,,,,,,,,,,,,
,,,,,39915,2021-10-11_11h21.00.696,judgeSpeechMusic_20210919_logNormShiftAmp_detection_fixFreq,2020.1.2,MacIntel,60,,,,,,,,,,,,,,,,,,,,,,,,,,,,,,1,8.8065,,0,0,67,67,11,1,stimuli/stim_20210919_power2amp/equal_lnn_AM2Hz_s15_16.m4a,,,,,,,,,,,,
,,,,,39915,2021-10-11_11h21.00.696,judgeSpeechMusic_20210919_logNormShiftAmp_detection_fixFreq,2020.1.2,MacIntel,60,,,,,,,,,,,,,,,,,,,,,,,,,,,,,,2,6.673,,0,0,68,68,23,1,stimuli/stim_20210919_power2amp/equal_lnn_AM2Hz_s25_36.m4a,,,,,,,,,,,,
,,,,,39915,2021-10-11_11h21.00.696,judgeSpeechMusic_20210919_logNormShiftAmp_detection_fixFreq,2020.1.2,MacIntel,60,,,,,,,,,,,,,,,,,,,,,,,,,,,,,,1,7.5963,,0,0,69,69,22,1,stimuli/stim_20210919_power2amp/equal_lnn_AM2Hz_s25_33.m4a,,,,,,,,,,,,
,,,,,39915,2021-10-11_11h21.00.696,judgeSpeechMusic_20210919_logNormShiftAmp_detection_fixFreq,2020.1.2,MacIntel,60,,,,,,,,,,,,,,,,,,,,,,,,,,,,,,1,10.1807,,0,0,70,70,20,1,stimuli/stim_20210919_power2amp/equal_lnn_AM2Hz_s25_15.m4a,,,,,,,,,,,,
,,,,,39915,2021-10-11_11h21.00.696,judgeSpeechMusic_20210919_logNormShiftAmp_detection_fixFreq,2020.1.2,MacIntel,60,,,,,,,,,,,,,,,,,,,,,,,,,,,,,,2,22.2598,,0,0,71,71,36,1,stimuli/stim_20210919_power2amp/equal_lnn_AM2Hz_s35_24.m4a,,,,,,,,,,,,
,,,,,39915,2021-10-11_11h21.00.696,judgeSpeechMusic_20210919_logNormShiftAmp_detection_fixFreq,2020.1.2,MacIntel,60,,,,,,,,,,,,,,,,,,,,,,,,,,,,,,1,7.0296,,0,0,72,72,58,1,stimuli/stim_20210919_power2amp/equal_lnn_AM2Hz_s45_16.m4a,,,,,,,,,,,,
,,,,,39915,2021-10-11_11h21.00.696,judgeSpeechMusic_20210919_logNormShiftAmp_detection_fixFreq,2020.1.2,MacIntel,60,,,,,,,,,,,,,,,,,,,,,,,,,,,,,,2,8.113,,0,0,73,73,57,1,stimuli/stim_20210919_power2amp/equal_lnn_AM2Hz_s45_50.m4a,,,,,,,,,,,,
,,,,,39915,2021-10-11_11h21.00.696,judgeSpeechMusic_20210919_logNormShiftAmp_detection_fixFreq,2020.1.2,MacIntel,60,,,,,,,,,,,,,,,,,,,,,,,,,,,,,,1,6.4782,,0,0,74,74,35,1,stimuli/stim_20210919_power2amp/equal_lnn_AM2Hz_s35_33.m4a,,,,,,,,,,,,
,,,,,39915,2021-10-11_11h21.00.696,judgeSpeechMusic_20210919_logNormShiftAmp_detection_fixFreq,2020.1.2,MacIntel,60,,,,,,,,,,,,,,,,,,,,,,,,,,,,,,,,,,,,,,,,,,,1,1,3,1,1,SPEECH,stimuli/SPEECH.jpg,,
,,,,,39915,2021-10-11_11h21.00.696,judgeSpeechMusic_20210919_logNormShiftAmp_detection_fixFreq,2020.1.2,MacIntel,60,,,,,,,,,,,,,,,,,,,,,,,,,,,,,,,,,,,,,,,,,,,,,,,,,,space,8.0516
