headphoneResponse.keys,headphoneResponse.corr,headphoneResponse.rt,headphoneTrial.thisRepN,headphoneTrial.thisTrialN,headphoneTrial.thisN,headphoneTrial.thisIndex,headphoneTrial.ran,headphone_sound1,headphone_sound2,headphone_sound3,corrAns,participant,date,expName,psychopyVersion,OS,frameRate,checkInstruKey.keys,checkInstruKey.rt,trainSlider.response,trainSlider.rt,beepTrainResponse.keys,beepTrainResponse.corr,trainingTrials.thisRepN,trainingTrials.thisTrialN,trainingTrials.thisN,trainingTrials.thisIndex,trainingTrials.ran,trainAudioFile,beepTrainResponse.rt,readyReal_resp.keys,readyReal_resp.rt,checkInstru2_key.keys,checkInstru2_key.rt,ratingSlider.response,ratingSlider.rt,beepResp.keys,beepResp.corr,expTrials.thisRepN,expTrials.thisTrialN,expTrials.thisN,expTrials.thisIndex,expTrials.ran,audioFile,beepResp.rt,switchBlock_space.keys,switchBlock_space.rt,block.thisRepN,block.thisTrialN,block.thisN,block.thisIndex,block.ran,blockName,blockImage,end_resp.keys,end_resp.rt
3,1,2.6443,0,0,0,2,1,stimuli/screen_origin.wav,stimuli/screen_antiphase.wav,stimuli/screen_quiet.wav,3,39916,2021-10-02_17h51.22.140,judgeSpeechMusic_20210919_logNormShiftAmp_detection_fixFreq,2020.1.2,MacIntel,60,,,,,,,,,,,,,,,,,,,,,,,,,,,,,,,,,,,,,,,
2,1,0.2686,0,1,1,3,1,stimuli/screen_origin.wav,stimuli/screen_quiet.wav,stimuli/screen_antiphase.wav,2,39916,2021-10-02_17h51.22.140,judgeSpeechMusic_20210919_logNormShiftAmp_detection_fixFreq,2020.1.2,MacIntel,60,,,,,,,,,,,,,,,,,,,,,,,,,,,,,,,,,,,,,,,
1,1,0.3183,0,2,2,4,1,stimuli/screen_quiet.wav,stimuli/screen_antiphase.wav,stimuli/screen_origin.wav,1,39916,2021-10-02_17h51.22.140,judgeSpeechMusic_20210919_logNormShiftAmp_detection_fixFreq,2020.1.2,MacIntel,60,,,,,,,,,,,,,,,,,,,,,,,,,,,,,,,,,,,,,,,
1,1,0.3517,0,3,3,5,1,stimuli/screen_quiet.wav,stimuli/screen_origin.wav,stimuli/screen_antiphase.wav,1,39916,2021-10-02_17h51.22.140,judgeSpeechMusic_20210919_logNormShiftAmp_detection_fixFreq,2020.1.2,MacIntel,60,,,,,,,,,,,,,,,,,,,,,,,,,,,,,,,,,,,,,,,
3,1,0.3006,0,4,4,0,1,stimuli/screen_antiphase.wav,stimuli/screen_origin.wav,stimuli/screen_quiet.wav,3,39916,2021-10-02_17h51.22.140,judgeSpeechMusic_20210919_logNormShiftAmp_detection_fixFreq,2020.1.2,MacIntel,60,,,,,,,,,,,,,,,,,,,,,,,,,,,,,,,,,,,,,,,
2,1,0.403,0,5,5,1,1,stimuli/screen_antiphase.wav,stimuli/screen_quiet.wav,stimuli/screen_origin.wav,2,39916,2021-10-02_17h51.22.140,judgeSpeechMusic_20210919_logNormShiftAmp_detection_fixFreq,2020.1.2,MacIntel,60,,,,,,,,,,,,,,,,,,,,,,,,,,,,,,,,,,,,,,,
,,,,,,,,,,,,39916,2021-10-02_17h51.22.140,judgeSpeechMusic_20210919_logNormShiftAmp_detection_fixFreq,2020.1.2,MacIntel,60,space,1.6002,1,10.097,,0,0,0,0,0,1,stimuli/stim_20210919_power2amp/equal_lnn_AM_training2Hz_s20.m4a,,,,,,,,,,,,,,,,,,,,,,,,,,,
,,,,,,,,,,,,39916,2021-10-02_17h51.22.140,judgeSpeechMusic_20210919_logNormShiftAmp_detection_fixFreq,2020.1.2,MacIntel,60,,,1,6.7242,,0,0,1,1,3,1,stimuli/stim_20210919_power2amp/equal_lnn_AM_training2Hz_s50.m4a,,,,,,,,,,,,,,,,,,,,,,,,,,,
,,,,,,,,,,,,39916,2021-10-02_17h51.22.140,judgeSpeechMusic_20210919_logNormShiftAmp_detection_fixFreq,2020.1.2,MacIntel,60,,,1,6.3017,1,1,0,2,2,2,1,stimuli/stim_20210919_power2amp/equal_lnn_AM_training2Hz_s40.m4a,2.426,,,,,,,,,,,,,,,,,,,,,,,,,,
,,,,,,,,,,,,39916,2021-10-02_17h51.22.140,judgeSpeechMusic_20210919_logNormShiftAmp_detection_fixFreq,2020.1.2,MacIntel,60,,,1,5.8661,,0,0,3,3,1,1,stimuli/stim_20210919_power2amp/equal_lnn_AM_training2Hz_s30.m4a,,,,,,,,,,,,,,,,,,,,,,,,,,,
,,,,,,,,,,,,39916,2021-10-02_17h51.22.140,judgeSpeechMusic_20210919_logNormShiftAmp_detection_fixFreq,2020.1.2,MacIntel,60,,,,,,,,,,,,,,space,6.2767,space,0.7822,1,6.6282,,0,0,0,0,28,1,stimuli/stim_20210919_power2amp/equal_lnn_AM2Hz_s25_29.m4a,,,,,,,,,,,,
,,,,,,,,,,,,39916,2021-10-02_17h51.22.140,judgeSpeechMusic_20210919_logNormShiftAmp_detection_fixFreq,2020.1.2,MacIntel,60,,,,,,,,,,,,,,,,,,2,6.8217,,0,0,1,1,24,1,stimuli/stim_20210919_power2amp/equal_lnn_AM2Hz_s25_27.m4a,,,,,,,,,,,,
,,,,,,,,,,,,39916,2021-10-02_17h51.22.140,judgeSpeechMusic_20210919_logNormShiftAmp_detection_fixFreq,2020.1.2,MacIntel,60,,,,,,,,,,,,,,,,,,1,6.1564,,0,0,2,2,72,1,stimuli/stim_20210919_power2amp/equal_lnn_AM2Hz_s55_15.m4a,,,,,,,,,,,,
,,,,,,,,,,,,39916,2021-10-02_17h51.22.140,judgeSpeechMusic_20210919_logNormShiftAmp_detection_fixFreq,2020.1.2,MacIntel,60,,,,,,,,,,,,,,,,,,2,6.7235,,0,0,3,3,40,1,stimuli/stim_20210919_power2amp/equal_lnn_AM2Hz_s35_43.m4a,,,,,,,,,,,,
,,,,,,,,,,,,39916,2021-10-02_17h51.22.140,judgeSpeechMusic_20210919_logNormShiftAmp_detection_fixFreq,2020.1.2,MacIntel,60,,,,,,,,,,,,,,,,,,2,6.5088,,0,0,4,4,0,1,stimuli/stim_20210919_power2amp/equal_lnn_AM2Hz_s15_17.m4a,,,,,,,,,,,,
,,,,,,,,,,,,39916,2021-10-02_17h51.22.140,judgeSpeechMusic_20210919_logNormShiftAmp_detection_fixFreq,2020.1.2,MacIntel,60,,,,,,,,,,,,,,,,,,1,6.2233,,0,0,5,5,7,1,stimuli/stim_20210919_power2amp/equal_lnn_AM2Hz_s15_49.m4a,,,,,,,,,,,,
,,,,,,,,,,,,39916,2021-10-02_17h51.22.140,judgeSpeechMusic_20210919_logNormShiftAmp_detection_fixFreq,2020.1.2,MacIntel,60,,,,,,,,,,,,,,,,,,2,5.7909,,0,0,6,6,65,1,stimuli/stim_20210919_power2amp/equal_lnn_AM2Hz_s55_24.m4a,,,,,,,,,,,,
,,,,,,,,,,,,39916,2021-10-02_17h51.22.140,judgeSpeechMusic_20210919_logNormShiftAmp_detection_fixFreq,2020.1.2,MacIntel,60,,,,,,,,,,,,,,,,,,1,6.2093,,0,0,7,7,2,1,stimuli/stim_20210919_power2amp/equal_lnn_AM2Hz_s15_42.m4a,,,,,,,,,,,,
,,,,,,,,,,,,39916,2021-10-02_17h51.22.140,judgeSpeechMusic_20210919_logNormShiftAmp_detection_fixFreq,2020.1.2,MacIntel,60,,,,,,,,,,,,,,,,,,2,5.8398,,0,0,8,8,62,1,stimuli/stim_20210919_power2amp/equal_lnn_AM2Hz_s55_40.m4a,,,,,,,,,,,,
,,,,,,,,,,,,39916,2021-10-02_17h51.22.140,judgeSpeechMusic_20210919_logNormShiftAmp_detection_fixFreq,2020.1.2,MacIntel,60,,,,,,,,,,,,,,,,,,1,6.0733,,0,0,9,9,9,1,stimuli/stim_20210919_power2amp/equal_lnn_AM2Hz_s15_1.m4a,,,,,,,,,,,,
,,,,,,,,,,,,39916,2021-10-02_17h51.22.140,judgeSpeechMusic_20210919_logNormShiftAmp_detection_fixFreq,2020.1.2,MacIntel,60,,,,,,,,,,,,,,,,,,2,5.8813,,0,0,10,10,36,1,stimuli/stim_20210919_power2amp/equal_lnn_AM2Hz_s35_20.m4a,,,,,,,,,,,,
,,,,,,,,,,,,39916,2021-10-02_17h51.22.140,judgeSpeechMusic_20210919_logNormShiftAmp_detection_fixFreq,2020.1.2,MacIntel,60,,,,,,,,,,,,,,,,,,2,5.7168,,0,0,11,11,34,1,stimuli/stim_20210919_power2amp/equal_lnn_AM2Hz_s35_27.m4a,,,,,,,,,,,,
,,,,,,,,,,,,39916,2021-10-02_17h51.22.140,judgeSpeechMusic_20210919_logNormShiftAmp_detection_fixFreq,2020.1.2,MacIntel,60,,,,,,,,,,,,,,,,,,2,7.1604,,0,0,12,12,59,1,stimuli/stim_20210919_power2amp/equal_lnn_AM2Hz_s45_43.m4a,,,,,,,,,,,,
,,,,,,,,,,,,39916,2021-10-02_17h51.22.140,judgeSpeechMusic_20210919_logNormShiftAmp_detection_fixFreq,2020.1.2,MacIntel,60,,,,,,,,,,,,,,,,,,1,5.971,,0,0,13,13,61,1,stimuli/stim_20210919_power2amp/equal_lnn_AM2Hz_s55_5.m4a,,,,,,,,,,,,
,,,,,,,,,,,,39916,2021-10-02_17h51.22.140,judgeSpeechMusic_20210919_logNormShiftAmp_detection_fixFreq,2020.1.2,MacIntel,60,,,,,,,,,,,,,,,,,,1,6.0072,,0,0,14,14,52,1,stimuli/stim_20210919_power2amp/equal_lnn_AM2Hz_s45_41.m4a,,,,,,,,,,,,
,,,,,,,,,,,,39916,2021-10-02_17h51.22.140,judgeSpeechMusic_20210919_logNormShiftAmp_detection_fixFreq,2020.1.2,MacIntel,60,,,,,,,,,,,,,,,,,,2,7.0409,,0,0,15,15,67,1,stimuli/stim_20210919_power2amp/equal_lnn_AM2Hz_s55_22.m4a,,,,,,,,,,,,
,,,,,,,,,,,,39916,2021-10-02_17h51.22.140,judgeSpeechMusic_20210919_logNormShiftAmp_detection_fixFreq,2020.1.2,MacIntel,60,,,,,,,,,,,,,,,,,,2,9.3763,,0,0,16,16,54,1,stimuli/stim_20210919_power2amp/equal_lnn_AM2Hz_s45_26.m4a,,,,,,,,,,,,
,,,,,,,,,,,,39916,2021-10-02_17h51.22.140,judgeSpeechMusic_20210919_logNormShiftAmp_detection_fixFreq,2020.1.2,MacIntel,60,,,,,,,,,,,,,,,,,,1,5.7734,,0,0,17,17,39,1,stimuli/stim_20210919_power2amp/equal_lnn_AM2Hz_s35_30.m4a,,,,,,,,,,,,
,,,,,,,,,,,,39916,2021-10-02_17h51.22.140,judgeSpeechMusic_20210919_logNormShiftAmp_detection_fixFreq,2020.1.2,MacIntel,60,,,,,,,,,,,,,,,,,,2,6.0391,,0,0,18,18,50,1,stimuli/stim_20210919_power2amp/equal_lnn_AM2Hz_s45_37.m4a,,,,,,,,,,,,
,,,,,,,,,,,,39916,2021-10-02_17h51.22.140,judgeSpeechMusic_20210919_logNormShiftAmp_detection_fixFreq,2020.1.2,MacIntel,60,,,,,,,,,,,,,,,,,,1,6.8588,4,1,0,19,19,71,1,stimuli/stim_20210919_power2amp/equal_lnn_AM2Hz_s55_9.m4a,1.9803,,,,,,,,,,,
,,,,,,,,,,,,39916,2021-10-02_17h51.22.140,judgeSpeechMusic_20210919_logNormShiftAmp_detection_fixFreq,2020.1.2,MacIntel,60,,,,,,,,,,,,,,,,,,1,7.9391,,0,0,20,20,20,1,stimuli/stim_20210919_power2amp/equal_lnn_AM2Hz_s25_12.m4a,,,,,,,,,,,,
,,,,,,,,,,,,39916,2021-10-02_17h51.22.140,judgeSpeechMusic_20210919_logNormShiftAmp_detection_fixFreq,2020.1.2,MacIntel,60,,,,,,,,,,,,,,,,,,2,7.5586,,0,0,21,21,74,1,stimuli/stim_20210919_power2amp/equal_lnn_AM2Hz_s55_30.m4a,,,,,,,,,,,,
,,,,,,,,,,,,39916,2021-10-02_17h51.22.140,judgeSpeechMusic_20210919_logNormShiftAmp_detection_fixFreq,2020.1.2,MacIntel,60,,,,,,,,,,,,,,,,,,2,7.173,,0,0,22,22,47,1,stimuli/stim_20210919_power2amp/equal_lnn_AM2Hz_s45_1.m4a,,,,,,,,,,,,
,,,,,,,,,,,,39916,2021-10-02_17h51.22.140,judgeSpeechMusic_20210919_logNormShiftAmp_detection_fixFreq,2020.1.2,MacIntel,60,,,,,,,,,,,,,,,,,,1,6.7899,,0,0,23,23,56,1,stimuli/stim_20210919_power2amp/equal_lnn_AM2Hz_s45_3.m4a,,,,,,,,,,,,
,,,,,,,,,,,,39916,2021-10-02_17h51.22.140,judgeSpeechMusic_20210919_logNormShiftAmp_detection_fixFreq,2020.1.2,MacIntel,60,,,,,,,,,,,,,,,,,,1,7.4233,,0,0,24,24,31,1,stimuli/stim_20210919_power2amp/equal_lnn_AM2Hz_s35_9.m4a,,,,,,,,,,,,
,,,,,,,,,,,,39916,2021-10-02_17h51.22.140,judgeSpeechMusic_20210919_logNormShiftAmp_detection_fixFreq,2020.1.2,MacIntel,60,,,,,,,,,,,,,,,,,,2,8.2698,,0,0,25,25,12,1,stimuli/stim_20210919_power2amp/equal_lnn_AM2Hz_s15_23.m4a,,,,,,,,,,,,
,,,,,,,,,,,,39916,2021-10-02_17h51.22.140,judgeSpeechMusic_20210919_logNormShiftAmp_detection_fixFreq,2020.1.2,MacIntel,60,,,,,,,,,,,,,,,,,,1,8.8071,,0,0,26,26,38,1,stimuli/stim_20210919_power2amp/equal_lnn_AM2Hz_s35_35.m4a,,,,,,,,,,,,
,,,,,,,,,,,,39916,2021-10-02_17h51.22.140,judgeSpeechMusic_20210919_logNormShiftAmp_detection_fixFreq,2020.1.2,MacIntel,60,,,,,,,,,,,,,,,,,,2,7.5909,,0,0,27,27,42,1,stimuli/stim_20210919_power2amp/equal_lnn_AM2Hz_s35_36.m4a,,,,,,,,,,,,
,,,,,,,,,,,,39916,2021-10-02_17h51.22.140,judgeSpeechMusic_20210919_logNormShiftAmp_detection_fixFreq,2020.1.2,MacIntel,60,,,,,,,,,,,,,,,,,,1,5.892,,0,0,28,28,69,1,stimuli/stim_20210919_power2amp/equal_lnn_AM2Hz_s55_47.m4a,,,,,,,,,,,,
,,,,,,,,,,,,39916,2021-10-02_17h51.22.140,judgeSpeechMusic_20210919_logNormShiftAmp_detection_fixFreq,2020.1.2,MacIntel,60,,,,,,,,,,,,,,,,,,1,6.0411,,0,0,29,29,45,1,stimuli/stim_20210919_power2amp/equal_lnn_AM2Hz_s45_46.m4a,,,,,,,,,,,,
,,,,,,,,,,,,39916,2021-10-02_17h51.22.140,judgeSpeechMusic_20210919_logNormShiftAmp_detection_fixFreq,2020.1.2,MacIntel,60,,,,,,,,,,,,,,,,,,1,6.59,,0,0,30,30,44,1,stimuli/stim_20210919_power2amp/equal_lnn_AM2Hz_s35_15.m4a,,,,,,,,,,,,
,,,,,,,,,,,,39916,2021-10-02_17h51.22.140,judgeSpeechMusic_20210919_logNormShiftAmp_detection_fixFreq,2020.1.2,MacIntel,60,,,,,,,,,,,,,,,,,,1,18.9906,,0,0,31,31,23,1,stimuli/stim_20210919_power2amp/equal_lnn_AM2Hz_s25_32.m4a,,,,,,,,,,,,
,,,,,,,,,,,,39916,2021-10-02_17h51.22.140,judgeSpeechMusic_20210919_logNormShiftAmp_detection_fixFreq,2020.1.2,MacIntel,60,,,,,,,,,,,,,,,,,,1,6.2892,,0,0,32,32,41,1,stimuli/stim_20210919_power2amp/equal_lnn_AM2Hz_s35_17.m4a,,,,,,,,,,,,
,,,,,,,,,,,,39916,2021-10-02_17h51.22.140,judgeSpeechMusic_20210919_logNormShiftAmp_detection_fixFreq,2020.1.2,MacIntel,60,,,,,,,,,,,,,,,,,,2,10.0403,,0,0,33,33,57,1,stimuli/stim_20210919_power2amp/equal_lnn_AM2Hz_s45_16.m4a,,,,,,,,,,,,
,,,,,,,,,,,,39916,2021-10-02_17h51.22.140,judgeSpeechMusic_20210919_logNormShiftAmp_detection_fixFreq,2020.1.2,MacIntel,60,,,,,,,,,,,,,,,,,,2,7.1067,,0,0,34,34,8,1,stimuli/stim_20210919_power2amp/equal_lnn_AM2Hz_s15_21.m4a,,,,,,,,,,,,
,,,,,,,,,,,,39916,2021-10-02_17h51.22.140,judgeSpeechMusic_20210919_logNormShiftAmp_detection_fixFreq,2020.1.2,MacIntel,60,,,,,,,,,,,,,,,,,,2,6.0798,,0,0,35,35,27,1,stimuli/stim_20210919_power2amp/equal_lnn_AM2Hz_s25_44.m4a,,,,,,,,,,,,
,,,,,,,,,,,,39916,2021-10-02_17h51.22.140,judgeSpeechMusic_20210919_logNormShiftAmp_detection_fixFreq,2020.1.2,MacIntel,60,,,,,,,,,,,,,,,,,,1,6.2207,,0,0,36,36,63,1,stimuli/stim_20210919_power2amp/equal_lnn_AM2Hz_s55_12.m4a,,,,,,,,,,,,
,,,,,,,,,,,,39916,2021-10-02_17h51.22.140,judgeSpeechMusic_20210919_logNormShiftAmp_detection_fixFreq,2020.1.2,MacIntel,60,,,,,,,,,,,,,,,,,,2,6.4733,,0,0,37,37,13,1,stimuli/stim_20210919_power2amp/equal_lnn_AM2Hz_s15_39.m4a,,,,,,,,,,,,
,,,,,,,,,,,,39916,2021-10-02_17h51.22.140,judgeSpeechMusic_20210919_logNormShiftAmp_detection_fixFreq,2020.1.2,MacIntel,60,,,,,,,,,,,,,,,,,,2,5.9424,,0,0,38,38,32,1,stimuli/stim_20210919_power2amp/equal_lnn_AM2Hz_s35_21.m4a,,,,,,,,,,,,
,,,,,,,,,,,,39916,2021-10-02_17h51.22.140,judgeSpeechMusic_20210919_logNormShiftAmp_detection_fixFreq,2020.1.2,MacIntel,60,,,,,,,,,,,,,,,,,,1,6.2109,2,1,0,39,39,5,1,stimuli/stim_20210919_power2amp/equal_lnn_AM2Hz_s15_44.m4a,1.7957,,,,,,,,,,,
,,,,,,,,,,,,39916,2021-10-02_17h51.22.140,judgeSpeechMusic_20210919_logNormShiftAmp_detection_fixFreq,2020.1.2,MacIntel,60,,,,,,,,,,,,,,,,,,1,13.073,,0,0,40,40,30,1,stimuli/stim_20210919_power2amp/equal_lnn_AM2Hz_s35_50.m4a,,,,,,,,,,,,
,,,,,,,,,,,,39916,2021-10-02_17h51.22.140,judgeSpeechMusic_20210919_logNormShiftAmp_detection_fixFreq,2020.1.2,MacIntel,60,,,,,,,,,,,,,,,,,,1,6.2644,,0,0,41,41,68,1,stimuli/stim_20210919_power2amp/equal_lnn_AM2Hz_s55_31.m4a,,,,,,,,,,,,
,,,,,,,,,,,,39916,2021-10-02_17h51.22.140,judgeSpeechMusic_20210919_logNormShiftAmp_detection_fixFreq,2020.1.2,MacIntel,60,,,,,,,,,,,,,,,,,,2,10.1686,,0,0,42,42,21,1,stimuli/stim_20210919_power2amp/equal_lnn_AM2Hz_s25_1.m4a,,,,,,,,,,,,
,,,,,,,,,,,,39916,2021-10-02_17h51.22.140,judgeSpeechMusic_20210919_logNormShiftAmp_detection_fixFreq,2020.1.2,MacIntel,60,,,,,,,,,,,,,,,,,,2,6.3237,,0,0,43,43,1,1,stimuli/stim_20210919_power2amp/equal_lnn_AM2Hz_s15_37.m4a,,,,,,,,,,,,
,,,,,,,,,,,,39916,2021-10-02_17h51.22.140,judgeSpeechMusic_20210919_logNormShiftAmp_detection_fixFreq,2020.1.2,MacIntel,60,,,,,,,,,,,,,,,,,,1,6.0228,,0,0,44,44,11,1,stimuli/stim_20210919_power2amp/equal_lnn_AM2Hz_s15_7.m4a,,,,,,,,,,,,
,,,,,,,,,,,,39916,2021-10-02_17h51.22.140,judgeSpeechMusic_20210919_logNormShiftAmp_detection_fixFreq,2020.1.2,MacIntel,60,,,,,,,,,,,,,,,,,,2,5.7582,,0,0,45,45,55,1,stimuli/stim_20210919_power2amp/equal_lnn_AM2Hz_s45_42.m4a,,,,,,,,,,,,
,,,,,,,,,,,,39916,2021-10-02_17h51.22.140,judgeSpeechMusic_20210919_logNormShiftAmp_detection_fixFreq,2020.1.2,MacIntel,60,,,,,,,,,,,,,,,,,,2,7.0745,,0,0,46,46,51,1,stimuli/stim_20210919_power2amp/equal_lnn_AM2Hz_s45_33.m4a,,,,,,,,,,,,
,,,,,,,,,,,,39916,2021-10-02_17h51.22.140,judgeSpeechMusic_20210919_logNormShiftAmp_detection_fixFreq,2020.1.2,MacIntel,60,,,,,,,,,,,,,,,,,,1,5.9237,,0,0,47,47,43,1,stimuli/stim_20210919_power2amp/equal_lnn_AM2Hz_s35_23.m4a,,,,,,,,,,,,
,,,,,,,,,,,,39916,2021-10-02_17h51.22.140,judgeSpeechMusic_20210919_logNormShiftAmp_detection_fixFreq,2020.1.2,MacIntel,60,,,,,,,,,,,,,,,,,,1,5.739,,0,0,48,48,73,1,stimuli/stim_20210919_power2amp/equal_lnn_AM2Hz_s55_25.m4a,,,,,,,,,,,,
,,,,,,,,,,,,39916,2021-10-02_17h51.22.140,judgeSpeechMusic_20210919_logNormShiftAmp_detection_fixFreq,2020.1.2,MacIntel,60,,,,,,,,,,,,,,,,,,2,6.4567,,0,0,49,49,17,1,stimuli/stim_20210919_power2amp/equal_lnn_AM2Hz_s25_20.m4a,,,,,,,,,,,,
,,,,,,,,,,,,39916,2021-10-02_17h51.22.140,judgeSpeechMusic_20210919_logNormShiftAmp_detection_fixFreq,2020.1.2,MacIntel,60,,,,,,,,,,,,,,,,,,2,5.9085,,0,0,50,50,49,1,stimuli/stim_20210919_power2amp/equal_lnn_AM2Hz_s45_44.m4a,,,,,,,,,,,,
,,,,,,,,,,,,39916,2021-10-02_17h51.22.140,judgeSpeechMusic_20210919_logNormShiftAmp_detection_fixFreq,2020.1.2,MacIntel,60,,,,,,,,,,,,,,,,,,2,6.5401,,0,0,51,51,19,1,stimuli/stim_20210919_power2amp/equal_lnn_AM2Hz_s25_38.m4a,,,,,,,,,,,,
,,,,,,,,,,,,39916,2021-10-02_17h51.22.140,judgeSpeechMusic_20210919_logNormShiftAmp_detection_fixFreq,2020.1.2,MacIntel,60,,,,,,,,,,,,,,,,,,2,6.642,,0,0,52,52,26,1,stimuli/stim_20210919_power2amp/equal_lnn_AM2Hz_s25_24.m4a,,,,,,,,,,,,
,,,,,,,,,,,,39916,2021-10-02_17h51.22.140,judgeSpeechMusic_20210919_logNormShiftAmp_detection_fixFreq,2020.1.2,MacIntel,60,,,,,,,,,,,,,,,,,,2,5.708,,0,0,53,53,37,1,stimuli/stim_20210919_power2amp/equal_lnn_AM2Hz_s35_31.m4a,,,,,,,,,,,,
,,,,,,,,,,,,39916,2021-10-02_17h51.22.140,judgeSpeechMusic_20210919_logNormShiftAmp_detection_fixFreq,2020.1.2,MacIntel,60,,,,,,,,,,,,,,,,,,1,5.9913,,0,0,54,54,70,1,stimuli/stim_20210919_power2amp/equal_lnn_AM2Hz_s55_20.m4a,,,,,,,,,,,,
,,,,,,,,,,,,39916,2021-10-02_17h51.22.140,judgeSpeechMusic_20210919_logNormShiftAmp_detection_fixFreq,2020.1.2,MacIntel,60,,,,,,,,,,,,,,,,,,1,5.709,,0,0,55,55,66,1,stimuli/stim_20210919_power2amp/equal_lnn_AM2Hz_s55_36.m4a,,,,,,,,,,,,
,,,,,,,,,,,,39916,2021-10-02_17h51.22.140,judgeSpeechMusic_20210919_logNormShiftAmp_detection_fixFreq,2020.1.2,MacIntel,60,,,,,,,,,,,,,,,,,,1,5.7239,,0,0,56,56,58,1,stimuli/stim_20210919_power2amp/equal_lnn_AM2Hz_s45_4.m4a,,,,,,,,,,,,
,,,,,,,,,,,,39916,2021-10-02_17h51.22.140,judgeSpeechMusic_20210919_logNormShiftAmp_detection_fixFreq,2020.1.2,MacIntel,60,,,,,,,,,,,,,,,,,,2,6.3617,,0,0,57,57,3,1,stimuli/stim_20210919_power2amp/equal_lnn_AM2Hz_s15_24.m4a,,,,,,,,,,,,
,,,,,,,,,,,,39916,2021-10-02_17h51.22.140,judgeSpeechMusic_20210919_logNormShiftAmp_detection_fixFreq,2020.1.2,MacIntel,60,,,,,,,,,,,,,,,,,,1,9.071,2,1,0,58,58,10,1,stimuli/stim_20210919_power2amp/equal_lnn_AM2Hz_s15_10.m4a,1.6596,,,,,,,,,,,
,,,,,,,,,,,,39916,2021-10-02_17h51.22.140,judgeSpeechMusic_20210919_logNormShiftAmp_detection_fixFreq,2020.1.2,MacIntel,60,,,,,,,,,,,,,,,,,,1,7.0592,,0,0,59,59,15,1,stimuli/stim_20210919_power2amp/equal_lnn_AM2Hz_s25_17.m4a,,,,,,,,,,,,
,,,,,,,,,,,,39916,2021-10-02_17h51.22.140,judgeSpeechMusic_20210919_logNormShiftAmp_detection_fixFreq,2020.1.2,MacIntel,60,,,,,,,,,,,,,,,,,,1,7.7908,,0,0,60,60,16,1,stimuli/stim_20210919_power2amp/equal_lnn_AM2Hz_s25_2.m4a,,,,,,,,,,,,
,,,,,,,,,,,,39916,2021-10-02_17h51.22.140,judgeSpeechMusic_20210919_logNormShiftAmp_detection_fixFreq,2020.1.2,MacIntel,60,,,,,,,,,,,,,,,,,,1,6.0264,,0,0,61,61,25,1,stimuli/stim_20210919_power2amp/equal_lnn_AM2Hz_s25_30.m4a,,,,,,,,,,,,
,,,,,,,,,,,,39916,2021-10-02_17h51.22.140,judgeSpeechMusic_20210919_logNormShiftAmp_detection_fixFreq,2020.1.2,MacIntel,60,,,,,,,,,,,,,,,,,,1,5.9774,,0,0,62,62,60,1,stimuli/stim_20210919_power2amp/equal_lnn_AM2Hz_s55_1.m4a,,,,,,,,,,,,
,,,,,,,,,,,,39916,2021-10-02_17h51.22.140,judgeSpeechMusic_20210919_logNormShiftAmp_detection_fixFreq,2020.1.2,MacIntel,60,,,,,,,,,,,,,,,,,,2,6.2711,,0,0,63,63,35,1,stimuli/stim_20210919_power2amp/equal_lnn_AM2Hz_s35_42.m4a,,,,,,,,,,,,
,,,,,,,,,,,,39916,2021-10-02_17h51.22.140,judgeSpeechMusic_20210919_logNormShiftAmp_detection_fixFreq,2020.1.2,MacIntel,60,,,,,,,,,,,,,,,,,,2,5.7745,,0,0,64,64,22,1,stimuli/stim_20210919_power2amp/equal_lnn_AM2Hz_s25_40.m4a,,,,,,,,,,,,
,,,,,,,,,,,,39916,2021-10-02_17h51.22.140,judgeSpeechMusic_20210919_logNormShiftAmp_detection_fixFreq,2020.1.2,MacIntel,60,,,,,,,,,,,,,,,,,,2,5.7254,,0,0,65,65,6,1,stimuli/stim_20210919_power2amp/equal_lnn_AM2Hz_s15_8.m4a,,,,,,,,,,,,
,,,,,,,,,,,,39916,2021-10-02_17h51.22.140,judgeSpeechMusic_20210919_logNormShiftAmp_detection_fixFreq,2020.1.2,MacIntel,60,,,,,,,,,,,,,,,,,,2,5.6053,,0,0,66,66,18,1,stimuli/stim_20210919_power2amp/equal_lnn_AM2Hz_s25_49.m4a,,,,,,,,,,,,
,,,,,,,,,,,,39916,2021-10-02_17h51.22.140,judgeSpeechMusic_20210919_logNormShiftAmp_detection_fixFreq,2020.1.2,MacIntel,60,,,,,,,,,,,,,,,,,,2,5.9582,,0,0,67,67,46,1,stimuli/stim_20210919_power2amp/equal_lnn_AM2Hz_s45_31.m4a,,,,,,,,,,,,
,,,,,,,,,,,,39916,2021-10-02_17h51.22.140,judgeSpeechMusic_20210919_logNormShiftAmp_detection_fixFreq,2020.1.2,MacIntel,60,,,,,,,,,,,,,,,,,,2,5.673,,0,0,68,68,29,1,stimuli/stim_20210919_power2amp/equal_lnn_AM2Hz_s25_36.m4a,,,,,,,,,,,,
,,,,,,,,,,,,39916,2021-10-02_17h51.22.140,judgeSpeechMusic_20210919_logNormShiftAmp_detection_fixFreq,2020.1.2,MacIntel,60,,,,,,,,,,,,,,,,,,1,6.3916,,0,0,69,69,4,1,stimuli/stim_20210919_power2amp/equal_lnn_AM2Hz_s15_19.m4a,,,,,,,,,,,,
,,,,,,,,,,,,39916,2021-10-02_17h51.22.140,judgeSpeechMusic_20210919_logNormShiftAmp_detection_fixFreq,2020.1.2,MacIntel,60,,,,,,,,,,,,,,,,,,1,6.8586,,0,0,70,70,64,1,stimuli/stim_20210919_power2amp/equal_lnn_AM2Hz_s55_26.m4a,,,,,,,,,,,,
,,,,,,,,,,,,39916,2021-10-02_17h51.22.140,judgeSpeechMusic_20210919_logNormShiftAmp_detection_fixFreq,2020.1.2,MacIntel,60,,,,,,,,,,,,,,,,,,1,7.2896,,0,0,71,71,53,1,stimuli/stim_20210919_power2amp/equal_lnn_AM2Hz_s45_14.m4a,,,,,,,,,,,,
,,,,,,,,,,,,39916,2021-10-02_17h51.22.140,judgeSpeechMusic_20210919_logNormShiftAmp_detection_fixFreq,2020.1.2,MacIntel,60,,,,,,,,,,,,,,,,,,1,5.6239,,0,0,72,72,14,1,stimuli/stim_20210919_power2amp/equal_lnn_AM2Hz_s15_41.m4a,,,,,,,,,,,,
,,,,,,,,,,,,39916,2021-10-02_17h51.22.140,judgeSpeechMusic_20210919_logNormShiftAmp_detection_fixFreq,2020.1.2,MacIntel,60,,,,,,,,,,,,,,,,,,2,6.1253,,0,0,73,73,33,1,stimuli/stim_20210919_power2amp/equal_lnn_AM2Hz_s35_26.m4a,,,,,,,,,,,,
,,,,,,,,,,,,39916,2021-10-02_17h51.22.140,judgeSpeechMusic_20210919_logNormShiftAmp_detection_fixFreq,2020.1.2,MacIntel,60,,,,,,,,,,,,,,,,,,1,5.7406,,0,0,74,74,48,1,stimuli/stim_20210919_power2amp/equal_lnn_AM2Hz_s45_45.m4a,,,,,,,,,,,,
,,,,,,,,,,,,39916,2021-10-02_17h51.22.140,judgeSpeechMusic_20210919_logNormShiftAmp_detection_fixFreq,2020.1.2,MacIntel,60,,,,,,,,,,,,,,,,,,,,,,,,,,,,,space,0.9596,0,0,0,1,1,SPEECH,stimuli/SPEECH.jpg,,
,,,,,,,,,,,,39916,2021-10-02_17h51.22.140,judgeSpeechMusic_20210919_logNormShiftAmp_detection_fixFreq,2020.1.2,MacIntel,60,space,0.7198,1,9.0721,,0,0,0,0,0,1,stimuli/stim_20210919_power2amp/equal_lnn_AM_training2Hz_s20.m4a,,,,,,,,,,,,,,,,,,,,,,,,,,,
,,,,,,,,,,,,39916,2021-10-02_17h51.22.140,judgeSpeechMusic_20210919_logNormShiftAmp_detection_fixFreq,2020.1.2,MacIntel,60,,,2,6.4033,,0,0,1,1,1,1,stimuli/stim_20210919_power2amp/equal_lnn_AM_training2Hz_s30.m4a,,,,,,,,,,,,,,,,,,,,,,,,,,,
,,,,,,,,,,,,39916,2021-10-02_17h51.22.140,judgeSpeechMusic_20210919_logNormShiftAmp_detection_fixFreq,2020.1.2,MacIntel,60,,,2,6.0878,2,1,0,2,2,3,1,stimuli/stim_20210919_power2amp/equal_lnn_AM_training2Hz_s50.m4a,1.4944,,,,,,,,,,,,,,,,,,,,,,,,,,
,,,,,,,,,,,,39916,2021-10-02_17h51.22.140,judgeSpeechMusic_20210919_logNormShiftAmp_detection_fixFreq,2020.1.2,MacIntel,60,,,2,6.4702,,0,0,3,3,2,1,stimuli/stim_20210919_power2amp/equal_lnn_AM_training2Hz_s40.m4a,,,,,,,,,,,,,,,,,,,,,,,,,,,
,,,,,,,,,,,,39916,2021-10-02_17h51.22.140,judgeSpeechMusic_20210919_logNormShiftAmp_detection_fixFreq,2020.1.2,MacIntel,60,,,,,,,,,,,,,,space,1.3815,space,1.7171,1,12.3102,,0,0,0,0,69,1,stimuli/stim_20210919_power2amp/equal_lnn_AM2Hz_s55_47.m4a,,,,,,,,,,,,
,,,,,,,,,,,,39916,2021-10-02_17h51.22.140,judgeSpeechMusic_20210919_logNormShiftAmp_detection_fixFreq,2020.1.2,MacIntel,60,,,,,,,,,,,,,,,,,,2,6.8409,,0,0,1,1,30,1,stimuli/stim_20210919_power2amp/equal_lnn_AM2Hz_s35_50.m4a,,,,,,,,,,,,
,,,,,,,,,,,,39916,2021-10-02_17h51.22.140,judgeSpeechMusic_20210919_logNormShiftAmp_detection_fixFreq,2020.1.2,MacIntel,60,,,,,,,,,,,,,,,,,,2,7.075,,0,0,2,2,74,1,stimuli/stim_20210919_power2amp/equal_lnn_AM2Hz_s55_30.m4a,,,,,,,,,,,,
,,,,,,,,,,,,39916,2021-10-02_17h51.22.140,judgeSpeechMusic_20210919_logNormShiftAmp_detection_fixFreq,2020.1.2,MacIntel,60,,,,,,,,,,,,,,,,,,1,9.8482,,0,0,3,3,32,1,stimuli/stim_20210919_power2amp/equal_lnn_AM2Hz_s35_21.m4a,,,,,,,,,,,,
,,,,,,,,,,,,39916,2021-10-02_17h51.22.140,judgeSpeechMusic_20210919_logNormShiftAmp_detection_fixFreq,2020.1.2,MacIntel,60,,,,,,,,,,,,,,,,,,2,8.3084,,0,0,4,4,66,1,stimuli/stim_20210919_power2amp/equal_lnn_AM2Hz_s55_36.m4a,,,,,,,,,,,,
,,,,,,,,,,,,39916,2021-10-02_17h51.22.140,judgeSpeechMusic_20210919_logNormShiftAmp_detection_fixFreq,2020.1.2,MacIntel,60,,,,,,,,,,,,,,,,,,1,7.3212,,0,0,5,5,4,1,stimuli/stim_20210919_power2amp/equal_lnn_AM2Hz_s15_19.m4a,,,,,,,,,,,,
,,,,,,,,,,,,39916,2021-10-02_17h51.22.140,judgeSpeechMusic_20210919_logNormShiftAmp_detection_fixFreq,2020.1.2,MacIntel,60,,,,,,,,,,,,,,,,,,1,7.8756,,0,0,6,6,41,1,stimuli/stim_20210919_power2amp/equal_lnn_AM2Hz_s35_17.m4a,,,,,,,,,,,,
,,,,,,,,,,,,39916,2021-10-02_17h51.22.140,judgeSpeechMusic_20210919_logNormShiftAmp_detection_fixFreq,2020.1.2,MacIntel,60,,,,,,,,,,,,,,,,,,2,6.7752,,0,0,7,7,62,1,stimuli/stim_20210919_power2amp/equal_lnn_AM2Hz_s55_40.m4a,,,,,,,,,,,,
,,,,,,,,,,,,39916,2021-10-02_17h51.22.140,judgeSpeechMusic_20210919_logNormShiftAmp_detection_fixFreq,2020.1.2,MacIntel,60,,,,,,,,,,,,,,,,,,2,5.6716,,0,0,8,8,59,1,stimuli/stim_20210919_power2amp/equal_lnn_AM2Hz_s45_43.m4a,,,,,,,,,,,,
,,,,,,,,,,,,39916,2021-10-02_17h51.22.140,judgeSpeechMusic_20210919_logNormShiftAmp_detection_fixFreq,2020.1.2,MacIntel,60,,,,,,,,,,,,,,,,,,1,9.9405,,0,0,9,9,51,1,stimuli/stim_20210919_power2amp/equal_lnn_AM2Hz_s45_33.m4a,,,,,,,,,,,,
,,,,,,,,,,,,39916,2021-10-02_17h51.22.140,judgeSpeechMusic_20210919_logNormShiftAmp_detection_fixFreq,2020.1.2,MacIntel,60,,,,,,,,,,,,,,,,,,1,6.5256,,0,0,10,10,28,1,stimuli/stim_20210919_power2amp/equal_lnn_AM2Hz_s25_29.m4a,,,,,,,,,,,,
,,,,,,,,,,,,39916,2021-10-02_17h51.22.140,judgeSpeechMusic_20210919_logNormShiftAmp_detection_fixFreq,2020.1.2,MacIntel,60,,,,,,,,,,,,,,,,,,1,6.705,,0,0,11,11,6,1,stimuli/stim_20210919_power2amp/equal_lnn_AM2Hz_s15_8.m4a,,,,,,,,,,,,
,,,,,,,,,,,,39916,2021-10-02_17h51.22.140,judgeSpeechMusic_20210919_logNormShiftAmp_detection_fixFreq,2020.1.2,MacIntel,60,,,,,,,,,,,,,,,,,,2,5.9239,,0,0,12,12,44,1,stimuli/stim_20210919_power2amp/equal_lnn_AM2Hz_s35_15.m4a,,,,,,,,,,,,
,,,,,,,,,,,,39916,2021-10-02_17h51.22.140,judgeSpeechMusic_20210919_logNormShiftAmp_detection_fixFreq,2020.1.2,MacIntel,60,,,,,,,,,,,,,,,,,,2,5.6235,,0,0,13,13,11,1,stimuli/stim_20210919_power2amp/equal_lnn_AM2Hz_s15_7.m4a,,,,,,,,,,,,
,,,,,,,,,,,,39916,2021-10-02_17h51.22.140,judgeSpeechMusic_20210919_logNormShiftAmp_detection_fixFreq,2020.1.2,MacIntel,60,,,,,,,,,,,,,,,,,,2,5.775,,0,0,14,14,3,1,stimuli/stim_20210919_power2amp/equal_lnn_AM2Hz_s15_24.m4a,,,,,,,,,,,,
,,,,,,,,,,,,39916,2021-10-02_17h51.22.140,judgeSpeechMusic_20210919_logNormShiftAmp_detection_fixFreq,2020.1.2,MacIntel,60,,,,,,,,,,,,,,,,,,2,5.8086,,0,0,15,15,13,1,stimuli/stim_20210919_power2amp/equal_lnn_AM2Hz_s15_39.m4a,,,,,,,,,,,,
,,,,,,,,,,,,39916,2021-10-02_17h51.22.140,judgeSpeechMusic_20210919_logNormShiftAmp_detection_fixFreq,2020.1.2,MacIntel,60,,,,,,,,,,,,,,,,,,1,5.8058,,0,0,16,16,0,1,stimuli/stim_20210919_power2amp/equal_lnn_AM2Hz_s15_17.m4a,,,,,,,,,,,,
,,,,,,,,,,,,39916,2021-10-02_17h51.22.140,judgeSpeechMusic_20210919_logNormShiftAmp_detection_fixFreq,2020.1.2,MacIntel,60,,,,,,,,,,,,,,,,,,1,6.0561,,0,0,17,17,57,1,stimuli/stim_20210919_power2amp/equal_lnn_AM2Hz_s45_16.m4a,,,,,,,,,,,,
,,,,,,,,,,,,39916,2021-10-02_17h51.22.140,judgeSpeechMusic_20210919_logNormShiftAmp_detection_fixFreq,2020.1.2,MacIntel,60,,,,,,,,,,,,,,,,,,2,6.9093,,0,0,18,18,10,1,stimuli/stim_20210919_power2amp/equal_lnn_AM2Hz_s15_10.m4a,,,,,,,,,,,,
,,,,,,,,,,,,39916,2021-10-02_17h51.22.140,judgeSpeechMusic_20210919_logNormShiftAmp_detection_fixFreq,2020.1.2,MacIntel,60,,,,,,,,,,,,,,,,,,2,5.624,3,1,0,19,19,36,1,stimuli/stim_20210919_power2amp/equal_lnn_AM2Hz_s35_20.m4a,1.3632,,,,,,,,,,,
,,,,,,,,,,,,39916,2021-10-02_17h51.22.140,judgeSpeechMusic_20210919_logNormShiftAmp_detection_fixFreq,2020.1.2,MacIntel,60,,,,,,,,,,,,,,,,,,1,5.9233,,0,0,20,20,25,1,stimuli/stim_20210919_power2amp/equal_lnn_AM2Hz_s25_30.m4a,,,,,,,,,,,,
,,,,,,,,,,,,39916,2021-10-02_17h51.22.140,judgeSpeechMusic_20210919_logNormShiftAmp_detection_fixFreq,2020.1.2,MacIntel,60,,,,,,,,,,,,,,,,,,1,5.892,,0,0,21,21,38,1,stimuli/stim_20210919_power2amp/equal_lnn_AM2Hz_s35_35.m4a,,,,,,,,,,,,
,,,,,,,,,,,,39916,2021-10-02_17h51.22.140,judgeSpeechMusic_20210919_logNormShiftAmp_detection_fixFreq,2020.1.2,MacIntel,60,,,,,,,,,,,,,,,,,,1,5.7577,,0,0,22,22,61,1,stimuli/stim_20210919_power2amp/equal_lnn_AM2Hz_s55_5.m4a,,,,,,,,,,,,
,,,,,,,,,,,,39916,2021-10-02_17h51.22.140,judgeSpeechMusic_20210919_logNormShiftAmp_detection_fixFreq,2020.1.2,MacIntel,60,,,,,,,,,,,,,,,,,,2,5.8584,,0,0,23,23,16,1,stimuli/stim_20210919_power2amp/equal_lnn_AM2Hz_s25_2.m4a,,,,,,,,,,,,
,,,,,,,,,,,,39916,2021-10-02_17h51.22.140,judgeSpeechMusic_20210919_logNormShiftAmp_detection_fixFreq,2020.1.2,MacIntel,60,,,,,,,,,,,,,,,,,,2,5.6245,,0,0,24,24,8,1,stimuli/stim_20210919_power2amp/equal_lnn_AM2Hz_s15_21.m4a,,,,,,,,,,,,
,,,,,,,,,,,,39916,2021-10-02_17h51.22.140,judgeSpeechMusic_20210919_logNormShiftAmp_detection_fixFreq,2020.1.2,MacIntel,60,,,,,,,,,,,,,,,,,,2,5.7911,,0,0,25,25,27,1,stimuli/stim_20210919_power2amp/equal_lnn_AM2Hz_s25_44.m4a,,,,,,,,,,,,
,,,,,,,,,,,,39916,2021-10-02_17h51.22.140,judgeSpeechMusic_20210919_logNormShiftAmp_detection_fixFreq,2020.1.2,MacIntel,60,,,,,,,,,,,,,,,,,,2,5.7906,,0,0,26,26,40,1,stimuli/stim_20210919_power2amp/equal_lnn_AM2Hz_s35_43.m4a,,,,,,,,,,,,
,,,,,,,,,,,,39916,2021-10-02_17h51.22.140,judgeSpeechMusic_20210919_logNormShiftAmp_detection_fixFreq,2020.1.2,MacIntel,60,,,,,,,,,,,,,,,,,,1,5.9796,,0,0,27,27,12,1,stimuli/stim_20210919_power2amp/equal_lnn_AM2Hz_s15_23.m4a,,,,,,,,,,,,
,,,,,,,,,,,,39916,2021-10-02_17h51.22.140,judgeSpeechMusic_20210919_logNormShiftAmp_detection_fixFreq,2020.1.2,MacIntel,60,,,,,,,,,,,,,,,,,,1,6.6024,,0,0,28,28,42,1,stimuli/stim_20210919_power2amp/equal_lnn_AM2Hz_s35_36.m4a,,,,,,,,,,,,
,,,,,,,,,,,,39916,2021-10-02_17h51.22.140,judgeSpeechMusic_20210919_logNormShiftAmp_detection_fixFreq,2020.1.2,MacIntel,60,,,,,,,,,,,,,,,,,,1,7.4428,,0,0,29,29,17,1,stimuli/stim_20210919_power2amp/equal_lnn_AM2Hz_s25_20.m4a,,,,,,,,,,,,
,,,,,,,,,,,,39916,2021-10-02_17h51.22.140,judgeSpeechMusic_20210919_logNormShiftAmp_detection_fixFreq,2020.1.2,MacIntel,60,,,,,,,,,,,,,,,,,,1,8.3574,,0,0,30,30,23,1,stimuli/stim_20210919_power2amp/equal_lnn_AM2Hz_s25_32.m4a,,,,,,,,,,,,
,,,,,,,,,,,,39916,2021-10-02_17h51.22.140,judgeSpeechMusic_20210919_logNormShiftAmp_detection_fixFreq,2020.1.2,MacIntel,60,,,,,,,,,,,,,,,,,,1,5.5896,,0,0,31,31,65,1,stimuli/stim_20210919_power2amp/equal_lnn_AM2Hz_s55_24.m4a,,,,,,,,,,,,
,,,,,,,,,,,,39916,2021-10-02_17h51.22.140,judgeSpeechMusic_20210919_logNormShiftAmp_detection_fixFreq,2020.1.2,MacIntel,60,,,,,,,,,,,,,,,,,,1,6.2299,,0,0,32,32,70,1,stimuli/stim_20210919_power2amp/equal_lnn_AM2Hz_s55_20.m4a,,,,,,,,,,,,
,,,,,,,,,,,,39916,2021-10-02_17h51.22.140,judgeSpeechMusic_20210919_logNormShiftAmp_detection_fixFreq,2020.1.2,MacIntel,60,,,,,,,,,,,,,,,,,,1,6.4929,,0,0,33,33,24,1,stimuli/stim_20210919_power2amp/equal_lnn_AM2Hz_s25_27.m4a,,,,,,,,,,,,
,,,,,,,,,,,,39916,2021-10-02_17h51.22.140,judgeSpeechMusic_20210919_logNormShiftAmp_detection_fixFreq,2020.1.2,MacIntel,60,,,,,,,,,,,,,,,,,,1,5.5701,,0,0,34,34,52,1,stimuli/stim_20210919_power2amp/equal_lnn_AM2Hz_s45_41.m4a,,,,,,,,,,,,
,,,,,,,,,,,,39916,2021-10-02_17h51.22.140,judgeSpeechMusic_20210919_logNormShiftAmp_detection_fixFreq,2020.1.2,MacIntel,60,,,,,,,,,,,,,,,,,,2,6.3721,,0,0,35,35,53,1,stimuli/stim_20210919_power2amp/equal_lnn_AM2Hz_s45_14.m4a,,,,,,,,,,,,
,,,,,,,,,,,,39916,2021-10-02_17h51.22.140,judgeSpeechMusic_20210919_logNormShiftAmp_detection_fixFreq,2020.1.2,MacIntel,60,,,,,,,,,,,,,,,,,,2,5.8748,,0,0,36,36,7,1,stimuli/stim_20210919_power2amp/equal_lnn_AM2Hz_s15_49.m4a,,,,,,,,,,,,
,,,,,,,,,,,,39916,2021-10-02_17h51.22.140,judgeSpeechMusic_20210919_logNormShiftAmp_detection_fixFreq,2020.1.2,MacIntel,60,,,,,,,,,,,,,,,,,,2,5.6079,,0,0,37,37,5,1,stimuli/stim_20210919_power2amp/equal_lnn_AM2Hz_s15_44.m4a,,,,,,,,,,,,
,,,,,,,,,,,,39916,2021-10-02_17h51.22.140,judgeSpeechMusic_20210919_logNormShiftAmp_detection_fixFreq,2020.1.2,MacIntel,60,,,,,,,,,,,,,,,,,,1,6.0302,,0,0,38,38,34,1,stimuli/stim_20210919_power2amp/equal_lnn_AM2Hz_s35_27.m4a,,,,,,,,,,,,
,,,,,,,,,,,,39916,2021-10-02_17h51.22.140,judgeSpeechMusic_20210919_logNormShiftAmp_detection_fixFreq,2020.1.2,MacIntel,60,,,,,,,,,,,,,,,,,,1,5.4391,4,1,0,39,39,20,1,stimuli/stim_20210919_power2amp/equal_lnn_AM2Hz_s25_12.m4a,4.0445,,,,,,,,,,,
,,,,,,,,,,,,39916,2021-10-02_17h51.22.140,judgeSpeechMusic_20210919_logNormShiftAmp_detection_fixFreq,2020.1.2,MacIntel,60,,,,,,,,,,,,,,,,,,1,6.4112,,0,0,40,40,43,1,stimuli/stim_20210919_power2amp/equal_lnn_AM2Hz_s35_23.m4a,,,,,,,,,,,,
,,,,,,,,,,,,39916,2021-10-02_17h51.22.140,judgeSpeechMusic_20210919_logNormShiftAmp_detection_fixFreq,2020.1.2,MacIntel,60,,,,,,,,,,,,,,,,,,2,6.2915,,0,0,41,41,33,1,stimuli/stim_20210919_power2amp/equal_lnn_AM2Hz_s35_26.m4a,,,,,,,,,,,,
,,,,,,,,,,,,39916,2021-10-02_17h51.22.140,judgeSpeechMusic_20210919_logNormShiftAmp_detection_fixFreq,2020.1.2,MacIntel,60,,,,,,,,,,,,,,,,,,1,6.7389,,0,0,42,42,31,1,stimuli/stim_20210919_power2amp/equal_lnn_AM2Hz_s35_9.m4a,,,,,,,,,,,,
,,,,,,,,,,,,39916,2021-10-02_17h51.22.140,judgeSpeechMusic_20210919_logNormShiftAmp_detection_fixFreq,2020.1.2,MacIntel,60,,,,,,,,,,,,,,,,,,2,6.2073,,0,0,43,43,29,1,stimuli/stim_20210919_power2amp/equal_lnn_AM2Hz_s25_36.m4a,,,,,,,,,,,,
,,,,,,,,,,,,39916,2021-10-02_17h51.22.140,judgeSpeechMusic_20210919_logNormShiftAmp_detection_fixFreq,2020.1.2,MacIntel,60,,,,,,,,,,,,,,,,,,1,6.5743,,0,0,44,44,45,1,stimuli/stim_20210919_power2amp/equal_lnn_AM2Hz_s45_46.m4a,,,,,,,,,,,,
,,,,,,,,,,,,39916,2021-10-02_17h51.22.140,judgeSpeechMusic_20210919_logNormShiftAmp_detection_fixFreq,2020.1.2,MacIntel,60,,,,,,,,,,,,,,,,,,1,6.2403,,0,0,45,45,2,1,stimuli/stim_20210919_power2amp/equal_lnn_AM2Hz_s15_42.m4a,,,,,,,,,,,,
,,,,,,,,,,,,39916,2021-10-02_17h51.22.140,judgeSpeechMusic_20210919_logNormShiftAmp_detection_fixFreq,2020.1.2,MacIntel,60,,,,,,,,,,,,,,,,,,2,7.0063,,0,0,46,46,37,1,stimuli/stim_20210919_power2amp/equal_lnn_AM2Hz_s35_31.m4a,,,,,,,,,,,,
,,,,,,,,,,,,39916,2021-10-02_17h51.22.140,judgeSpeechMusic_20210919_logNormShiftAmp_detection_fixFreq,2020.1.2,MacIntel,60,,,,,,,,,,,,,,,,,,2,9.2262,,0,0,47,47,73,1,stimuli/stim_20210919_power2amp/equal_lnn_AM2Hz_s55_25.m4a,,,,,,,,,,,,
,,,,,,,,,,,,39916,2021-10-02_17h51.22.140,judgeSpeechMusic_20210919_logNormShiftAmp_detection_fixFreq,2020.1.2,MacIntel,60,,,,,,,,,,,,,,,,,,1,17.9245,,0,0,48,48,15,1,stimuli/stim_20210919_power2amp/equal_lnn_AM2Hz_s25_17.m4a,,,,,,,,,,,,
,,,,,,,,,,,,39916,2021-10-02_17h51.22.140,judgeSpeechMusic_20210919_logNormShiftAmp_detection_fixFreq,2020.1.2,MacIntel,60,,,,,,,,,,,,,,,,,,2,6.5451,,0,0,49,49,46,1,stimuli/stim_20210919_power2amp/equal_lnn_AM2Hz_s45_31.m4a,,,,,,,,,,,,
,,,,,,,,,,,,39916,2021-10-02_17h51.22.140,judgeSpeechMusic_20210919_logNormShiftAmp_detection_fixFreq,2020.1.2,MacIntel,60,,,,,,,,,,,,,,,,,,1,6.2738,,0,0,50,50,68,1,stimuli/stim_20210919_power2amp/equal_lnn_AM2Hz_s55_31.m4a,,,,,,,,,,,,
,,,,,,,,,,,,39916,2021-10-02_17h51.22.140,judgeSpeechMusic_20210919_logNormShiftAmp_detection_fixFreq,2020.1.2,MacIntel,60,,,,,,,,,,,,,,,,,,1,9.7915,,0,0,51,51,64,1,stimuli/stim_20210919_power2amp/equal_lnn_AM2Hz_s55_26.m4a,,,,,,,,,,,,
,,,,,,,,,,,,39916,2021-10-02_17h51.22.140,judgeSpeechMusic_20210919_logNormShiftAmp_detection_fixFreq,2020.1.2,MacIntel,60,,,,,,,,,,,,,,,,,,1,8.0915,,0,0,52,52,49,1,stimuli/stim_20210919_power2amp/equal_lnn_AM2Hz_s45_44.m4a,,,,,,,,,,,,
,,,,,,,,,,,,39916,2021-10-02_17h51.22.140,judgeSpeechMusic_20210919_logNormShiftAmp_detection_fixFreq,2020.1.2,MacIntel,60,,,,,,,,,,,,,,,,,,2,14.9909,,0,0,53,53,48,1,stimuli/stim_20210919_power2amp/equal_lnn_AM2Hz_s45_45.m4a,,,,,,,,,,,,
,,,,,,,,,,,,39916,2021-10-02_17h51.22.140,judgeSpeechMusic_20210919_logNormShiftAmp_detection_fixFreq,2020.1.2,MacIntel,60,,,,,,,,,,,,,,,,,,1,13.4735,,0,0,54,54,21,1,stimuli/stim_20210919_power2amp/equal_lnn_AM2Hz_s25_1.m4a,,,,,,,,,,,,
,,,,,,,,,,,,39916,2021-10-02_17h51.22.140,judgeSpeechMusic_20210919_logNormShiftAmp_detection_fixFreq,2020.1.2,MacIntel,60,,,,,,,,,,,,,,,,,,2,7.2252,,0,0,55,55,55,1,stimuli/stim_20210919_power2amp/equal_lnn_AM2Hz_s45_42.m4a,,,,,,,,,,,,
,,,,,,,,,,,,39916,2021-10-02_17h51.22.140,judgeSpeechMusic_20210919_logNormShiftAmp_detection_fixFreq,2020.1.2,MacIntel,60,,,,,,,,,,,,,,,,,,2,5.6919,,0,0,56,56,60,1,stimuli/stim_20210919_power2amp/equal_lnn_AM2Hz_s55_1.m4a,,,,,,,,,,,,
,,,,,,,,,,,,39916,2021-10-02_17h51.22.140,judgeSpeechMusic_20210919_logNormShiftAmp_detection_fixFreq,2020.1.2,MacIntel,60,,,,,,,,,,,,,,,,,,2,7.5068,,0,0,57,57,22,1,stimuli/stim_20210919_power2amp/equal_lnn_AM2Hz_s25_40.m4a,,,,,,,,,,,,
,,,,,,,,,,,,39916,2021-10-02_17h51.22.140,judgeSpeechMusic_20210919_logNormShiftAmp_detection_fixFreq,2020.1.2,MacIntel,60,,,,,,,,,,,,,,,,,,2,6.489,2,1,0,58,58,72,1,stimuli/stim_20210919_power2amp/equal_lnn_AM2Hz_s55_15.m4a,2.1625,,,,,,,,,,,
,,,,,,,,,,,,39916,2021-10-02_17h51.22.140,judgeSpeechMusic_20210919_logNormShiftAmp_detection_fixFreq,2020.1.2,MacIntel,60,,,,,,,,,,,,,,,,,,2,7.0885,,0,0,59,59,39,1,stimuli/stim_20210919_power2amp/equal_lnn_AM2Hz_s35_30.m4a,,,,,,,,,,,,
,,,,,,,,,,,,39916,2021-10-02_17h51.22.140,judgeSpeechMusic_20210919_logNormShiftAmp_detection_fixFreq,2020.1.2,MacIntel,60,,,,,,,,,,,,,,,,,,1,53.4384,,0,0,60,60,71,1,stimuli/stim_20210919_power2amp/equal_lnn_AM2Hz_s55_9.m4a,,,,,,,,,,,,
,,,,,,,,,,,,39916,2021-10-02_17h51.22.140,judgeSpeechMusic_20210919_logNormShiftAmp_detection_fixFreq,2020.1.2,MacIntel,60,,,,,,,,,,,,,,,,,,1,17.5908,,0,0,61,61,18,1,stimuli/stim_20210919_power2amp/equal_lnn_AM2Hz_s25_49.m4a,,,,,,,,,,,,
,,,,,,,,,,,,39916,2021-10-02_17h51.22.140,judgeSpeechMusic_20210919_logNormShiftAmp_detection_fixFreq,2020.1.2,MacIntel,60,,,,,,,,,,,,,,,,,,1,6.2597,,0,0,62,62,35,1,stimuli/stim_20210919_power2amp/equal_lnn_AM2Hz_s35_42.m4a,,,,,,,,,,,,
,,,,,,,,,,,,39916,2021-10-02_17h51.22.140,judgeSpeechMusic_20210919_logNormShiftAmp_detection_fixFreq,2020.1.2,MacIntel,60,,,,,,,,,,,,,,,,,,2,5.8566,,0,0,63,63,1,1,stimuli/stim_20210919_power2amp/equal_lnn_AM2Hz_s15_37.m4a,,,,,,,,,,,,
,,,,,,,,,,,,39916,2021-10-02_17h51.22.140,judgeSpeechMusic_20210919_logNormShiftAmp_detection_fixFreq,2020.1.2,MacIntel,60,,,,,,,,,,,,,,,,,,2,7.6577,,0,0,64,64,14,1,stimuli/stim_20210919_power2amp/equal_lnn_AM2Hz_s15_41.m4a,,,,,,,,,,,,
,,,,,,,,,,,,39916,2021-10-02_17h51.22.140,judgeSpeechMusic_20210919_logNormShiftAmp_detection_fixFreq,2020.1.2,MacIntel,60,,,,,,,,,,,,,,,,,,1,12.1077,,0,0,65,65,54,1,stimuli/stim_20210919_power2amp/equal_lnn_AM2Hz_s45_26.m4a,,,,,,,,,,,,
,,,,,,,,,,,,39916,2021-10-02_17h51.22.140,judgeSpeechMusic_20210919_logNormShiftAmp_detection_fixFreq,2020.1.2,MacIntel,60,,,,,,,,,,,,,,,,,,2,7.3088,,0,0,66,66,56,1,stimuli/stim_20210919_power2amp/equal_lnn_AM2Hz_s45_3.m4a,,,,,,,,,,,,
,,,,,,,,,,,,39916,2021-10-02_17h51.22.140,judgeSpeechMusic_20210919_logNormShiftAmp_detection_fixFreq,2020.1.2,MacIntel,60,,,,,,,,,,,,,,,,,,2,5.5733,,0,0,67,67,47,1,stimuli/stim_20210919_power2amp/equal_lnn_AM2Hz_s45_1.m4a,,,,,,,,,,,,
,,,,,,,,,,,,39916,2021-10-02_17h51.22.140,judgeSpeechMusic_20210919_logNormShiftAmp_detection_fixFreq,2020.1.2,MacIntel,60,,,,,,,,,,,,,,,,,,2,9.939,,0,0,68,68,9,1,stimuli/stim_20210919_power2amp/equal_lnn_AM2Hz_s15_1.m4a,,,,,,,,,,,,
,,,,,,,,,,,,39916,2021-10-02_17h51.22.140,judgeSpeechMusic_20210919_logNormShiftAmp_detection_fixFreq,2020.1.2,MacIntel,60,,,,,,,,,,,,,,,,,,1,8.8583,,0,0,69,69,26,1,stimuli/stim_20210919_power2amp/equal_lnn_AM2Hz_s25_24.m4a,,,,,,,,,,,,
,,,,,,,,,,,,39916,2021-10-02_17h51.22.140,judgeSpeechMusic_20210919_logNormShiftAmp_detection_fixFreq,2020.1.2,MacIntel,60,,,,,,,,,,,,,,,,,,1,5.9746,,0,0,70,70,58,1,stimuli/stim_20210919_power2amp/equal_lnn_AM2Hz_s45_4.m4a,,,,,,,,,,,,
,,,,,,,,,,,,39916,2021-10-02_17h51.22.140,judgeSpeechMusic_20210919_logNormShiftAmp_detection_fixFreq,2020.1.2,MacIntel,60,,,,,,,,,,,,,,,,,,2,6.5374,,0,0,71,71,19,1,stimuli/stim_20210919_power2amp/equal_lnn_AM2Hz_s25_38.m4a,,,,,,,,,,,,
,,,,,,,,,,,,39916,2021-10-02_17h51.22.140,judgeSpeechMusic_20210919_logNormShiftAmp_detection_fixFreq,2020.1.2,MacIntel,60,,,,,,,,,,,,,,,,,,2,6.4199,,0,0,72,72,50,1,stimuli/stim_20210919_power2amp/equal_lnn_AM2Hz_s45_37.m4a,,,,,,,,,,,,
,,,,,,,,,,,,39916,2021-10-02_17h51.22.140,judgeSpeechMusic_20210919_logNormShiftAmp_detection_fixFreq,2020.1.2,MacIntel,60,,,,,,,,,,,,,,,,,,2,6.4759,,0,0,73,73,63,1,stimuli/stim_20210919_power2amp/equal_lnn_AM2Hz_s55_12.m4a,,,,,,,,,,,,
,,,,,,,,,,,,39916,2021-10-02_17h51.22.140,judgeSpeechMusic_20210919_logNormShiftAmp_detection_fixFreq,2020.1.2,MacIntel,60,,,,,,,,,,,,,,,,,,2,6.1593,,0,0,74,74,67,1,stimuli/stim_20210919_power2amp/equal_lnn_AM2Hz_s55_22.m4a,,,,,,,,,,,,
,,,,,,,,,,,,39916,2021-10-02_17h51.22.140,judgeSpeechMusic_20210919_logNormShiftAmp_detection_fixFreq,2020.1.2,MacIntel,60,,,,,,,,,,,,,,,,,,,,,,,,,,,,,space,0.8551,0,1,1,0,1,MUSIC,stimuli/MUSIC.jpg,,
,,,,,,,,,,,,39916,2021-10-02_17h51.22.140,judgeSpeechMusic_20210919_logNormShiftAmp_detection_fixFreq,2020.1.2,MacIntel,60,,,,,,0,0,0,0,3,1,stimuli/stim_20210919_power2amp/equal_lnn_AM_training2Hz_s50.m4a,,,,,,,,,,,,,,,,,,,,,,,,,,,
,,,,,,,,,,,,39916,2021-10-02_17h51.22.140,judgeSpeechMusic_20210919_logNormShiftAmp_detection_fixFreq,2020.1.2,MacIntel,60,,,,,,,,,,,,,,space,5.5446,space,2.1516,2,8.3882,,0,0,0,0,55,1,stimuli/stim_20210919_power2amp/equal_lnn_AM2Hz_s45_42.m4a,,,,,,,,,,,,
,,,,,,,,,,,,39916,2021-10-02_17h51.22.140,judgeSpeechMusic_20210919_logNormShiftAmp_detection_fixFreq,2020.1.2,MacIntel,60,,,,,,,,,,,,,,,,,,2,5.6731,,0,0,1,1,74,1,stimuli/stim_20210919_power2amp/equal_lnn_AM2Hz_s55_30.m4a,,,,,,,,,,,,
,,,,,,,,,,,,39916,2021-10-02_17h51.22.140,judgeSpeechMusic_20210919_logNormShiftAmp_detection_fixFreq,2020.1.2,MacIntel,60,,,,,,,,,,,,,,,,,,2,5.7744,,0,0,2,2,46,1,stimuli/stim_20210919_power2amp/equal_lnn_AM2Hz_s45_31.m4a,,,,,,,,,,,,
,,,,,,,,,,,,39916,2021-10-02_17h51.22.140,judgeSpeechMusic_20210919_logNormShiftAmp_detection_fixFreq,2020.1.2,MacIntel,60,,,,,,,,,,,,,,,,,,1,5.9742,,0,0,3,3,72,1,stimuli/stim_20210919_power2amp/equal_lnn_AM2Hz_s55_15.m4a,,,,,,,,,,,,
,,,,,,,,,,,,39916,2021-10-02_17h51.22.140,judgeSpeechMusic_20210919_logNormShiftAmp_detection_fixFreq,2020.1.2,MacIntel,60,,,,,,,,,,,,,,,,,,2,9.0385,,0,0,4,4,14,1,stimuli/stim_20210919_power2amp/equal_lnn_AM2Hz_s15_41.m4a,,,,,,,,,,,,
,,,,,,,,,,,,39916,2021-10-02_17h51.22.140,judgeSpeechMusic_20210919_logNormShiftAmp_detection_fixFreq,2020.1.2,MacIntel,60,,,,,,,,,,,,,,,,,,1,7.3908,,0,0,5,5,52,1,stimuli/stim_20210919_power2amp/equal_lnn_AM2Hz_s45_41.m4a,,,,,,,,,,,,
,,,,,,,,,,,,39916,2021-10-02_17h51.22.140,judgeSpeechMusic_20210919_logNormShiftAmp_detection_fixFreq,2020.1.2,MacIntel,60,,,,,,,,,,,,,,,,,,2,6.3411,,0,0,6,6,15,1,stimuli/stim_20210919_power2amp/equal_lnn_AM2Hz_s25_17.m4a,,,,,,,,,,,,
,,,,,,,,,,,,39916,2021-10-02_17h51.22.140,judgeSpeechMusic_20210919_logNormShiftAmp_detection_fixFreq,2020.1.2,MacIntel,60,,,,,,,,,,,,,,,,,,1,11.4598,,0,0,7,7,9,1,stimuli/stim_20210919_power2amp/equal_lnn_AM2Hz_s15_1.m4a,,,,,,,,,,,,
,,,,,,,,,,,,39916,2021-10-02_17h51.22.140,judgeSpeechMusic_20210919_logNormShiftAmp_detection_fixFreq,2020.1.2,MacIntel,60,,,,,,,,,,,,,,,,,,1,9.0413,,0,0,8,8,42,1,stimuli/stim_20210919_power2amp/equal_lnn_AM2Hz_s35_36.m4a,,,,,,,,,,,,
,,,,,,,,,,,,39916,2021-10-02_17h51.22.140,judgeSpeechMusic_20210919_logNormShiftAmp_detection_fixFreq,2020.1.2,MacIntel,60,,,,,,,,,,,,,,,,,,1,7.1055,,0,0,9,9,66,1,stimuli/stim_20210919_power2amp/equal_lnn_AM2Hz_s55_36.m4a,,,,,,,,,,,,
,,,,,,,,,,,,39916,2021-10-02_17h51.22.140,judgeSpeechMusic_20210919_logNormShiftAmp_detection_fixFreq,2020.1.2,MacIntel,60,,,,,,,,,,,,,,,,,,1,6.8752,,0,0,10,10,13,1,stimuli/stim_20210919_power2amp/equal_lnn_AM2Hz_s15_39.m4a,,,,,,,,,,,,
,,,,,,,,,,,,39916,2021-10-02_17h51.22.140,judgeSpeechMusic_20210919_logNormShiftAmp_detection_fixFreq,2020.1.2,MacIntel,60,,,,,,,,,,,,,,,,,,1,6.5253,,0,0,11,11,33,1,stimuli/stim_20210919_power2amp/equal_lnn_AM2Hz_s35_26.m4a,,,,,,,,,,,,
,,,,,,,,,,,,39916,2021-10-02_17h51.22.140,judgeSpeechMusic_20210919_logNormShiftAmp_detection_fixFreq,2020.1.2,MacIntel,60,,,,,,,,,,,,,,,,,,1,5.5926,,0,0,12,12,71,1,stimuli/stim_20210919_power2amp/equal_lnn_AM2Hz_s55_9.m4a,,,,,,,,,,,,
,,,,,,,,,,,,39916,2021-10-02_17h51.22.140,judgeSpeechMusic_20210919_logNormShiftAmp_detection_fixFreq,2020.1.2,MacIntel,60,,,,,,,,,,,,,,,,,,1,6.6753,,0,0,13,13,44,1,stimuli/stim_20210919_power2amp/equal_lnn_AM2Hz_s35_15.m4a,,,,,,,,,,,,
,,,,,,,,,,,,39916,2021-10-02_17h51.22.140,judgeSpeechMusic_20210919_logNormShiftAmp_detection_fixFreq,2020.1.2,MacIntel,60,,,,,,,,,,,,,,,,,,2,8.5917,,0,0,14,14,41,1,stimuli/stim_20210919_power2amp/equal_lnn_AM2Hz_s35_17.m4a,,,,,,,,,,,,
,,,,,,,,,,,,39916,2021-10-02_17h51.22.140,judgeSpeechMusic_20210919_logNormShiftAmp_detection_fixFreq,2020.1.2,MacIntel,60,,,,,,,,,,,,,,,,,,1,8.3912,,0,0,15,15,12,1,stimuli/stim_20210919_power2amp/equal_lnn_AM2Hz_s15_23.m4a,,,,,,,,,,,,
,,,,,,,,,,,,39916,2021-10-02_17h51.22.140,judgeSpeechMusic_20210919_logNormShiftAmp_detection_fixFreq,2020.1.2,MacIntel,60,,,,,,,,,,,,,,,,,,1,9.4565,,0,0,16,16,73,1,stimuli/stim_20210919_power2amp/equal_lnn_AM2Hz_s55_25.m4a,,,,,,,,,,,,
,,,,,,,,,,,,39916,2021-10-02_17h51.22.140,judgeSpeechMusic_20210919_logNormShiftAmp_detection_fixFreq,2020.1.2,MacIntel,60,,,,,,,,,,,,,,,,,,1,5.973,,0,0,17,17,21,1,stimuli/stim_20210919_power2amp/equal_lnn_AM2Hz_s25_1.m4a,,,,,,,,,,,,
,,,,,,,,,,,,39916,2021-10-02_17h51.22.140,judgeSpeechMusic_20210919_logNormShiftAmp_detection_fixFreq,2020.1.2,MacIntel,60,,,,,,,,,,,,,,,,,,2,6.4648,,0,0,18,18,32,1,stimuli/stim_20210919_power2amp/equal_lnn_AM2Hz_s35_21.m4a,,,,,,,,,,,,
,,,,,,,,,,,,39916,2021-10-02_17h51.22.140,judgeSpeechMusic_20210919_logNormShiftAmp_detection_fixFreq,2020.1.2,MacIntel,60,,,,,,,,,,,,,,,,,,2,6.7978,2,1,0,19,19,38,1,stimuli/stim_20210919_power2amp/equal_lnn_AM2Hz_s35_35.m4a,1.2804,,,,,,,,,,,
,,,,,,,,,,,,39916,2021-10-02_17h51.22.140,judgeSpeechMusic_20210919_logNormShiftAmp_detection_fixFreq,2020.1.2,MacIntel,60,,,,,,,,,,,,,,,,,,1,6.7075,,0,0,20,20,10,1,stimuli/stim_20210919_power2amp/equal_lnn_AM2Hz_s15_10.m4a,,,,,,,,,,,,
,,,,,,,,,,,,39916,2021-10-02_17h51.22.140,judgeSpeechMusic_20210919_logNormShiftAmp_detection_fixFreq,2020.1.2,MacIntel,60,,,,,,,,,,,,,,,,,,2,7.2565,,0,0,21,21,57,1,stimuli/stim_20210919_power2amp/equal_lnn_AM2Hz_s45_16.m4a,,,,,,,,,,,,
,,,,,,,,,,,,39916,2021-10-02_17h51.22.140,judgeSpeechMusic_20210919_logNormShiftAmp_detection_fixFreq,2020.1.2,MacIntel,60,,,,,,,,,,,,,,,,,,2,12.0714,,0,0,22,22,24,1,stimuli/stim_20210919_power2amp/equal_lnn_AM2Hz_s25_27.m4a,,,,,,,,,,,,
,,,,,,,,,,,,39916,2021-10-02_17h51.22.140,judgeSpeechMusic_20210919_logNormShiftAmp_detection_fixFreq,2020.1.2,MacIntel,60,,,,,,,,,,,,,,,,,,1,5.8068,,0,0,23,23,64,1,stimuli/stim_20210919_power2amp/equal_lnn_AM2Hz_s55_26.m4a,,,,,,,,,,,,
,,,,,,,,,,,,39916,2021-10-02_17h51.22.140,judgeSpeechMusic_20210919_logNormShiftAmp_detection_fixFreq,2020.1.2,MacIntel,60,,,,,,,,,,,,,,,,,,1,10.308,,0,0,24,24,49,1,stimuli/stim_20210919_power2amp/equal_lnn_AM2Hz_s45_44.m4a,,,,,,,,,,,,
,,,,,,,,,,,,39916,2021-10-02_17h51.22.140,judgeSpeechMusic_20210919_logNormShiftAmp_detection_fixFreq,2020.1.2,MacIntel,60,,,,,,,,,,,,,,,,,,2,6.625,,0,0,25,25,23,1,stimuli/stim_20210919_power2amp/equal_lnn_AM2Hz_s25_32.m4a,,,,,,,,,,,,
,,,,,,,,,,,,39916,2021-10-02_17h51.22.140,judgeSpeechMusic_20210919_logNormShiftAmp_detection_fixFreq,2020.1.2,MacIntel,60,,,,,,,,,,,,,,,,,,2,6.4583,,0,0,26,26,36,1,stimuli/stim_20210919_power2amp/equal_lnn_AM2Hz_s35_20.m4a,,,,,,,,,,,,
,,,,,,,,,,,,39916,2021-10-02_17h51.22.140,judgeSpeechMusic_20210919_logNormShiftAmp_detection_fixFreq,2020.1.2,MacIntel,60,,,,,,,,,,,,,,,,,,1,6.1254,,0,0,27,27,54,1,stimuli/stim_20210919_power2amp/equal_lnn_AM2Hz_s45_26.m4a,,,,,,,,,,,,
,,,,,,,,,,,,39916,2021-10-02_17h51.22.140,judgeSpeechMusic_20210919_logNormShiftAmp_detection_fixFreq,2020.1.2,MacIntel,60,,,,,,,,,,,,,,,,,,1,6.0231,,0,0,28,28,43,1,stimuli/stim_20210919_power2amp/equal_lnn_AM2Hz_s35_23.m4a,,,,,,,,,,,,
,,,,,,,,,,,,39916,2021-10-02_17h51.22.140,judgeSpeechMusic_20210919_logNormShiftAmp_detection_fixFreq,2020.1.2,MacIntel,60,,,,,,,,,,,,,,,,,,1,7.6239,,0,0,29,29,30,1,stimuli/stim_20210919_power2amp/equal_lnn_AM2Hz_s35_50.m4a,,,,,,,,,,,,
,,,,,,,,,,,,39916,2021-10-02_17h51.22.140,judgeSpeechMusic_20210919_logNormShiftAmp_detection_fixFreq,2020.1.2,MacIntel,60,,,,,,,,,,,,,,,,,,1,6.7573,,0,0,30,30,27,1,stimuli/stim_20210919_power2amp/equal_lnn_AM2Hz_s25_44.m4a,,,,,,,,,,,,
,,,,,,,,,,,,39916,2021-10-02_17h51.22.140,judgeSpeechMusic_20210919_logNormShiftAmp_detection_fixFreq,2020.1.2,MacIntel,60,,,,,,,,,,,,,,,,,,1,6.5915,,0,0,31,31,16,1,stimuli/stim_20210919_power2amp/equal_lnn_AM2Hz_s25_2.m4a,,,,,,,,,,,,
,,,,,,,,,,,,39916,2021-10-02_17h51.22.140,judgeSpeechMusic_20210919_logNormShiftAmp_detection_fixFreq,2020.1.2,MacIntel,60,,,,,,,,,,,,,,,,,,1,6.4898,,0,0,32,32,50,1,stimuli/stim_20210919_power2amp/equal_lnn_AM2Hz_s45_37.m4a,,,,,,,,,,,,
,,,,,,,,,,,,39916,2021-10-02_17h51.22.140,judgeSpeechMusic_20210919_logNormShiftAmp_detection_fixFreq,2020.1.2,MacIntel,60,,,,,,,,,,,,,,,,,,2,5.7918,,0,0,33,33,48,1,stimuli/stim_20210919_power2amp/equal_lnn_AM2Hz_s45_45.m4a,,,,,,,,,,,,
,,,,,,,,,,,,39916,2021-10-02_17h51.22.140,judgeSpeechMusic_20210919_logNormShiftAmp_detection_fixFreq,2020.1.2,MacIntel,60,,,,,,,,,,,,,,,,,,2,5.4581,,0,0,34,34,31,1,stimuli/stim_20210919_power2amp/equal_lnn_AM2Hz_s35_9.m4a,,,,,,,,,,,,
,,,,,,,,,,,,39916,2021-10-02_17h51.22.140,judgeSpeechMusic_20210919_logNormShiftAmp_detection_fixFreq,2020.1.2,MacIntel,60,,,,,,,,,,,,,,,,,,1,5.9628,,0,0,35,35,5,1,stimuli/stim_20210919_power2amp/equal_lnn_AM2Hz_s15_44.m4a,,,,,,,,,,,,
,,,,,,,,,,,,39916,2021-10-02_17h51.22.140,judgeSpeechMusic_20210919_logNormShiftAmp_detection_fixFreq,2020.1.2,MacIntel,60,,,,,,,,,,,,,,,,,,2,5.6388,,0,0,36,36,7,1,stimuli/stim_20210919_power2amp/equal_lnn_AM2Hz_s15_49.m4a,,,,,,,,,,,,
,,,,,,,,,,,,39916,2021-10-02_17h51.22.140,judgeSpeechMusic_20210919_logNormShiftAmp_detection_fixFreq,2020.1.2,MacIntel,60,,,,,,,,,,,,,,,,,,1,5.8902,,0,0,37,37,51,1,stimuli/stim_20210919_power2amp/equal_lnn_AM2Hz_s45_33.m4a,,,,,,,,,,,,
,,,,,,,,,,,,39916,2021-10-02_17h51.22.140,judgeSpeechMusic_20210919_logNormShiftAmp_detection_fixFreq,2020.1.2,MacIntel,60,,,,,,,,,,,,,,,,,,1,5.6409,,0,0,38,38,40,1,stimuli/stim_20210919_power2amp/equal_lnn_AM2Hz_s35_43.m4a,,,,,,,,,,,,
,,,,,,,,,,,,39916,2021-10-02_17h51.22.140,judgeSpeechMusic_20210919_logNormShiftAmp_detection_fixFreq,2020.1.2,MacIntel,60,,,,,,,,,,,,,,,,,,1,5.7557,1,1,0,39,39,62,1,stimuli/stim_20210919_power2amp/equal_lnn_AM2Hz_s55_40.m4a,1.3606,,,,,,,,,,,
,,,,,,,,,,,,39916,2021-10-02_17h51.22.140,judgeSpeechMusic_20210919_logNormShiftAmp_detection_fixFreq,2020.1.2,MacIntel,60,,,,,,,,,,,,,,,,,,1,6.4574,,0,0,40,40,19,1,stimuli/stim_20210919_power2amp/equal_lnn_AM2Hz_s25_38.m4a,,,,,,,,,,,,
,,,,,,,,,,,,39916,2021-10-02_17h51.22.140,judgeSpeechMusic_20210919_logNormShiftAmp_detection_fixFreq,2020.1.2,MacIntel,60,,,,,,,,,,,,,,,,,,1,6.3562,,0,0,41,41,53,1,stimuli/stim_20210919_power2amp/equal_lnn_AM2Hz_s45_14.m4a,,,,,,,,,,,,
,,,,,,,,,,,,39916,2021-10-02_17h51.22.140,judgeSpeechMusic_20210919_logNormShiftAmp_detection_fixFreq,2020.1.2,MacIntel,60,,,,,,,,,,,,,,,,,,1,5.7599,,0,0,42,42,11,1,stimuli/stim_20210919_power2amp/equal_lnn_AM2Hz_s15_7.m4a,,,,,,,,,,,,
,,,,,,,,,,,,39916,2021-10-02_17h51.22.140,judgeSpeechMusic_20210919_logNormShiftAmp_detection_fixFreq,2020.1.2,MacIntel,60,,,,,,,,,,,,,,,,,,2,6.1531,,0,0,43,43,61,1,stimuli/stim_20210919_power2amp/equal_lnn_AM2Hz_s55_5.m4a,,,,,,,,,,,,
,,,,,,,,,,,,39916,2021-10-02_17h51.22.140,judgeSpeechMusic_20210919_logNormShiftAmp_detection_fixFreq,2020.1.2,MacIntel,60,,,,,,,,,,,,,,,,,,1,5.6722,,0,0,44,44,17,1,stimuli/stim_20210919_power2amp/equal_lnn_AM2Hz_s25_20.m4a,,,,,,,,,,,,
,,,,,,,,,,,,39916,2021-10-02_17h51.22.140,judgeSpeechMusic_20210919_logNormShiftAmp_detection_fixFreq,2020.1.2,MacIntel,60,,,,,,,,,,,,,,,,,,2,5.6242,,0,0,45,45,1,1,stimuli/stim_20210919_power2amp/equal_lnn_AM2Hz_s15_37.m4a,,,,,,,,,,,,
,,,,,,,,,,,,39916,2021-10-02_17h51.22.140,judgeSpeechMusic_20210919_logNormShiftAmp_detection_fixFreq,2020.1.2,MacIntel,60,,,,,,,,,,,,,,,,,,1,6.5904,,0,0,46,46,8,1,stimuli/stim_20210919_power2amp/equal_lnn_AM2Hz_s15_21.m4a,,,,,,,,,,,,
,,,,,,,,,,,,39916,2021-10-02_17h51.22.140,judgeSpeechMusic_20210919_logNormShiftAmp_detection_fixFreq,2020.1.2,MacIntel,60,,,,,,,,,,,,,,,,,,1,5.9416,,0,0,47,47,2,1,stimuli/stim_20210919_power2amp/equal_lnn_AM2Hz_s15_42.m4a,,,,,,,,,,,,
,,,,,,,,,,,,39916,2021-10-02_17h51.22.140,judgeSpeechMusic_20210919_logNormShiftAmp_detection_fixFreq,2020.1.2,MacIntel,60,,,,,,,,,,,,,,,,,,2,5.6556,,0,0,48,48,20,1,stimuli/stim_20210919_power2amp/equal_lnn_AM2Hz_s25_12.m4a,,,,,,,,,,,,
,,,,,,,,,,,,39916,2021-10-02_17h51.22.140,judgeSpeechMusic_20210919_logNormShiftAmp_detection_fixFreq,2020.1.2,MacIntel,60,,,,,,,,,,,,,,,,,,1,6.0058,,0,0,49,49,59,1,stimuli/stim_20210919_power2amp/equal_lnn_AM2Hz_s45_43.m4a,,,,,,,,,,,,
,,,,,,,,,,,,39916,2021-10-02_17h51.22.140,judgeSpeechMusic_20210919_logNormShiftAmp_detection_fixFreq,2020.1.2,MacIntel,60,,,,,,,,,,,,,,,,,,2,6.043,,0,0,50,50,18,1,stimuli/stim_20210919_power2amp/equal_lnn_AM2Hz_s25_49.m4a,,,,,,,,,,,,
,,,,,,,,,,,,39916,2021-10-02_17h51.22.140,judgeSpeechMusic_20210919_logNormShiftAmp_detection_fixFreq,2020.1.2,MacIntel,60,,,,,,,,,,,,,,,,,,1,6.7062,,0,0,51,51,4,1,stimuli/stim_20210919_power2amp/equal_lnn_AM2Hz_s15_19.m4a,,,,,,,,,,,,
,,,,,,,,,,,,39916,2021-10-02_17h51.22.140,judgeSpeechMusic_20210919_logNormShiftAmp_detection_fixFreq,2020.1.2,MacIntel,60,,,,,,,,,,,,,,,,,,1,5.6577,,0,0,52,52,39,1,stimuli/stim_20210919_power2amp/equal_lnn_AM2Hz_s35_30.m4a,,,,,,,,,,,,
,,,,,,,,,,,,39916,2021-10-02_17h51.22.140,judgeSpeechMusic_20210919_logNormShiftAmp_detection_fixFreq,2020.1.2,MacIntel,60,,,,,,,,,,,,,,,,,,2,5.6234,,0,0,53,53,63,1,stimuli/stim_20210919_power2amp/equal_lnn_AM2Hz_s55_12.m4a,,,,,,,,,,,,
,,,,,,,,,,,,39916,2021-10-02_17h51.22.140,judgeSpeechMusic_20210919_logNormShiftAmp_detection_fixFreq,2020.1.2,MacIntel,60,,,,,,,,,,,,,,,,,,1,6.7236,,0,0,54,54,28,1,stimuli/stim_20210919_power2amp/equal_lnn_AM2Hz_s25_29.m4a,,,,,,,,,,,,
,,,,,,,,,,,,39916,2021-10-02_17h51.22.140,judgeSpeechMusic_20210919_logNormShiftAmp_detection_fixFreq,2020.1.2,MacIntel,60,,,,,,,,,,,,,,,,,,2,7.0411,,0,0,55,55,26,1,stimuli/stim_20210919_power2amp/equal_lnn_AM2Hz_s25_24.m4a,,,,,,,,,,,,
,,,,,,,,,,,,39916,2021-10-02_17h51.22.140,judgeSpeechMusic_20210919_logNormShiftAmp_detection_fixFreq,2020.1.2,MacIntel,60,,,,,,,,,,,,,,,,,,2,5.5895,,0,0,56,56,47,1,stimuli/stim_20210919_power2amp/equal_lnn_AM2Hz_s45_1.m4a,,,,,,,,,,,,
,,,,,,,,,,,,39916,2021-10-02_17h51.22.140,judgeSpeechMusic_20210919_logNormShiftAmp_detection_fixFreq,2020.1.2,MacIntel,60,,,,,,,,,,,,,,,,,,2,7.4593,,0,0,57,57,29,1,stimuli/stim_20210919_power2amp/equal_lnn_AM2Hz_s25_36.m4a,,,,,,,,,,,,
,,,,,,,,,,,,39916,2021-10-02_17h51.22.140,judgeSpeechMusic_20210919_logNormShiftAmp_detection_fixFreq,2020.1.2,MacIntel,60,,,,,,,,,,,,,,,,,,2,6.055,3,1,0,58,58,67,1,stimuli/stim_20210919_power2amp/equal_lnn_AM2Hz_s55_22.m4a,1.3935,,,,,,,,,,,
,,,,,,,,,,,,39916,2021-10-02_17h51.22.140,judgeSpeechMusic_20210919_logNormShiftAmp_detection_fixFreq,2020.1.2,MacIntel,60,,,,,,,,,,,,,,,,,,2,5.5895,,0,0,59,59,65,1,stimuli/stim_20210919_power2amp/equal_lnn_AM2Hz_s55_24.m4a,,,,,,,,,,,,
,,,,,,,,,,,,39916,2021-10-02_17h51.22.140,judgeSpeechMusic_20210919_logNormShiftAmp_detection_fixFreq,2020.1.2,MacIntel,60,,,,,,,,,,,,,,,,,,1,6.39,,0,0,60,60,58,1,stimuli/stim_20210919_power2amp/equal_lnn_AM2Hz_s45_4.m4a,,,,,,,,,,,,
,,,,,,,,,,,,39916,2021-10-02_17h51.22.140,judgeSpeechMusic_20210919_logNormShiftAmp_detection_fixFreq,2020.1.2,MacIntel,60,,,,,,,,,,,,,,,,,,2,5.7062,,0,0,61,61,3,1,stimuli/stim_20210919_power2amp/equal_lnn_AM2Hz_s15_24.m4a,,,,,,,,,,,,
,,,,,,,,,,,,39916,2021-10-02_17h51.22.140,judgeSpeechMusic_20210919_logNormShiftAmp_detection_fixFreq,2020.1.2,MacIntel,60,,,,,,,,,,,,,,,,,,2,5.6075,,0,0,62,62,56,1,stimuli/stim_20210919_power2amp/equal_lnn_AM2Hz_s45_3.m4a,,,,,,,,,,,,
,,,,,,,,,,,,39916,2021-10-02_17h51.22.140,judgeSpeechMusic_20210919_logNormShiftAmp_detection_fixFreq,2020.1.2,MacIntel,60,,,,,,,,,,,,,,,,,,2,5.4241,,0,0,63,63,22,1,stimuli/stim_20210919_power2amp/equal_lnn_AM2Hz_s25_40.m4a,,,,,,,,,,,,
,,,,,,,,,,,,39916,2021-10-02_17h51.22.140,judgeSpeechMusic_20210919_logNormShiftAmp_detection_fixFreq,2020.1.2,MacIntel,60,,,,,,,,,,,,,,,,,,2,5.5195,,0,0,64,64,0,1,stimuli/stim_20210919_power2amp/equal_lnn_AM2Hz_s15_17.m4a,,,,,,,,,,,,
,,,,,,,,,,,,39916,2021-10-02_17h51.22.140,judgeSpeechMusic_20210919_logNormShiftAmp_detection_fixFreq,2020.1.2,MacIntel,60,,,,,,,,,,,,,,,,,,1,5.6076,,0,0,65,65,70,1,stimuli/stim_20210919_power2amp/equal_lnn_AM2Hz_s55_20.m4a,,,,,,,,,,,,
,,,,,,,,,,,,39916,2021-10-02_17h51.22.140,judgeSpeechMusic_20210919_logNormShiftAmp_detection_fixFreq,2020.1.2,MacIntel,60,,,,,,,,,,,,,,,,,,2,6.6567,,0,0,66,66,25,1,stimuli/stim_20210919_power2amp/equal_lnn_AM2Hz_s25_30.m4a,,,,,,,,,,,,
,,,,,,,,,,,,39916,2021-10-02_17h51.22.140,judgeSpeechMusic_20210919_logNormShiftAmp_detection_fixFreq,2020.1.2,MacIntel,60,,,,,,,,,,,,,,,,,,2,5.9201,,0,0,67,67,34,1,stimuli/stim_20210919_power2amp/equal_lnn_AM2Hz_s35_27.m4a,,,,,,,,,,,,
,,,,,,,,,,,,39916,2021-10-02_17h51.22.140,judgeSpeechMusic_20210919_logNormShiftAmp_detection_fixFreq,2020.1.2,MacIntel,60,,,,,,,,,,,,,,,,,,1,5.9074,,0,0,68,68,69,1,stimuli/stim_20210919_power2amp/equal_lnn_AM2Hz_s55_47.m4a,,,,,,,,,,,,
,,,,,,,,,,,,39916,2021-10-02_17h51.22.140,judgeSpeechMusic_20210919_logNormShiftAmp_detection_fixFreq,2020.1.2,MacIntel,60,,,,,,,,,,,,,,,,,,1,6.1084,,0,0,69,69,60,1,stimuli/stim_20210919_power2amp/equal_lnn_AM2Hz_s55_1.m4a,,,,,,,,,,,,
,,,,,,,,,,,,39916,2021-10-02_17h51.22.140,judgeSpeechMusic_20210919_logNormShiftAmp_detection_fixFreq,2020.1.2,MacIntel,60,,,,,,,,,,,,,,,,,,1,5.9239,,0,0,70,70,35,1,stimuli/stim_20210919_power2amp/equal_lnn_AM2Hz_s35_42.m4a,,,,,,,,,,,,
,,,,,,,,,,,,39916,2021-10-02_17h51.22.140,judgeSpeechMusic_20210919_logNormShiftAmp_detection_fixFreq,2020.1.2,MacIntel,60,,,,,,,,,,,,,,,,,,2,6.2927,,0,0,71,71,45,1,stimuli/stim_20210919_power2amp/equal_lnn_AM2Hz_s45_46.m4a,,,,,,,,,,,,
,,,,,,,,,,,,39916,2021-10-02_17h51.22.140,judgeSpeechMusic_20210919_logNormShiftAmp_detection_fixFreq,2020.1.2,MacIntel,60,,,,,,,,,,,,,,,,,,2,6.0389,,0,0,72,72,68,1,stimuli/stim_20210919_power2amp/equal_lnn_AM2Hz_s55_31.m4a,,,,,,,,,,,,
,,,,,,,,,,,,39916,2021-10-02_17h51.22.140,judgeSpeechMusic_20210919_logNormShiftAmp_detection_fixFreq,2020.1.2,MacIntel,60,,,,,,,,,,,,,,,,,,2,10.8228,,0,0,73,73,6,1,stimuli/stim_20210919_power2amp/equal_lnn_AM2Hz_s15_8.m4a,,,,,,,,,,,,
,,,,,,,,,,,,39916,2021-10-02_17h51.22.140,judgeSpeechMusic_20210919_logNormShiftAmp_detection_fixFreq,2020.1.2,MacIntel,60,,,,,,,,,,,,,,,,,,1,5.7752,,0,0,74,74,37,1,stimuli/stim_20210919_power2amp/equal_lnn_AM2Hz_s35_31.m4a,,,,,,,,,,,,
,,,,,,,,,,,,39916,2021-10-02_17h51.22.140,judgeSpeechMusic_20210919_logNormShiftAmp_detection_fixFreq,2020.1.2,MacIntel,60,,,,,,,,,,,,,,,,,,,,,,,,,,,,,space,2.5269,1,0,2,1,1,SPEECH,stimuli/SPEECH.jpg,,
,,,,,,,,,,,,39916,2021-10-02_17h51.22.140,judgeSpeechMusic_20210919_logNormShiftAmp_detection_fixFreq,2020.1.2,MacIntel,60,,,,,,0,0,0,0,3,1,stimuli/stim_20210919_power2amp/equal_lnn_AM_training2Hz_s50.m4a,,,,,,,,,,,,,,,,,,,,,,,,,,,
,,,,,,,,,,,,39916,2021-10-02_17h51.22.140,judgeSpeechMusic_20210919_logNormShiftAmp_detection_fixFreq,2020.1.2,MacIntel,60,,,,,,,,,,,,,,space,3.8134,space,0.6014,1,6.8012,,0,0,0,0,63,1,stimuli/stim_20210919_power2amp/equal_lnn_AM2Hz_s55_12.m4a,,,,,,,,,,,,
,,,,,,,,,,,,39916,2021-10-02_17h51.22.140,judgeSpeechMusic_20210919_logNormShiftAmp_detection_fixFreq,2020.1.2,MacIntel,60,,,,,,,,,,,,,,,,,,2,6.0412,,0,0,1,1,47,1,stimuli/stim_20210919_power2amp/equal_lnn_AM2Hz_s45_1.m4a,,,,,,,,,,,,
,,,,,,,,,,,,39916,2021-10-02_17h51.22.140,judgeSpeechMusic_20210919_logNormShiftAmp_detection_fixFreq,2020.1.2,MacIntel,60,,,,,,,,,,,,,,,,,,2,5.7274,,0,0,2,2,50,1,stimuli/stim_20210919_power2amp/equal_lnn_AM2Hz_s45_37.m4a,,,,,,,,,,,,
,,,,,,,,,,,,39916,2021-10-02_17h51.22.140,judgeSpeechMusic_20210919_logNormShiftAmp_detection_fixFreq,2020.1.2,MacIntel,60,,,,,,,,,,,,,,,,,,2,5.6864,,0,0,3,3,11,1,stimuli/stim_20210919_power2amp/equal_lnn_AM2Hz_s15_7.m4a,,,,,,,,,,,,
,,,,,,,,,,,,39916,2021-10-02_17h51.22.140,judgeSpeechMusic_20210919_logNormShiftAmp_detection_fixFreq,2020.1.2,MacIntel,60,,,,,,,,,,,,,,,,,,2,5.5443,,0,0,4,4,51,1,stimuli/stim_20210919_power2amp/equal_lnn_AM2Hz_s45_33.m4a,,,,,,,,,,,,
,,,,,,,,,,,,39916,2021-10-02_17h51.22.140,judgeSpeechMusic_20210919_logNormShiftAmp_detection_fixFreq,2020.1.2,MacIntel,60,,,,,,,,,,,,,,,,,,1,5.838,,0,0,5,5,52,1,stimuli/stim_20210919_power2amp/equal_lnn_AM2Hz_s45_41.m4a,,,,,,,,,,,,
,,,,,,,,,,,,39916,2021-10-02_17h51.22.140,judgeSpeechMusic_20210919_logNormShiftAmp_detection_fixFreq,2020.1.2,MacIntel,60,,,,,,,,,,,,,,,,,,2,5.8231,,0,0,6,6,32,1,stimuli/stim_20210919_power2amp/equal_lnn_AM2Hz_s35_21.m4a,,,,,,,,,,,,
,,,,,,,,,,,,39916,2021-10-02_17h51.22.140,judgeSpeechMusic_20210919_logNormShiftAmp_detection_fixFreq,2020.1.2,MacIntel,60,,,,,,,,,,,,,,,,,,2,5.5559,,0,0,7,7,36,1,stimuli/stim_20210919_power2amp/equal_lnn_AM2Hz_s35_20.m4a,,,,,,,,,,,,
,,,,,,,,,,,,39916,2021-10-02_17h51.22.140,judgeSpeechMusic_20210919_logNormShiftAmp_detection_fixFreq,2020.1.2,MacIntel,60,,,,,,,,,,,,,,,,,,1,6.2565,,0,0,8,8,31,1,stimuli/stim_20210919_power2amp/equal_lnn_AM2Hz_s35_9.m4a,,,,,,,,,,,,
,,,,,,,,,,,,39916,2021-10-02_17h51.22.140,judgeSpeechMusic_20210919_logNormShiftAmp_detection_fixFreq,2020.1.2,MacIntel,60,,,,,,,,,,,,,,,,,,1,5.6573,,0,0,9,9,6,1,stimuli/stim_20210919_power2amp/equal_lnn_AM2Hz_s15_8.m4a,,,,,,,,,,,,
,,,,,,,,,,,,39916,2021-10-02_17h51.22.140,judgeSpeechMusic_20210919_logNormShiftAmp_detection_fixFreq,2020.1.2,MacIntel,60,,,,,,,,,,,,,,,,,,2,5.8239,,0,0,10,10,26,1,stimuli/stim_20210919_power2amp/equal_lnn_AM2Hz_s25_24.m4a,,,,,,,,,,,,
,,,,,,,,,,,,39916,2021-10-02_17h51.22.140,judgeSpeechMusic_20210919_logNormShiftAmp_detection_fixFreq,2020.1.2,MacIntel,60,,,,,,,,,,,,,,,,,,1,5.6215,,0,0,11,11,43,1,stimuli/stim_20210919_power2amp/equal_lnn_AM2Hz_s35_23.m4a,,,,,,,,,,,,
,,,,,,,,,,,,39916,2021-10-02_17h51.22.140,judgeSpeechMusic_20210919_logNormShiftAmp_detection_fixFreq,2020.1.2,MacIntel,60,,,,,,,,,,,,,,,,,,1,5.8582,,0,0,12,12,15,1,stimuli/stim_20210919_power2amp/equal_lnn_AM2Hz_s25_17.m4a,,,,,,,,,,,,
,,,,,,,,,,,,39916,2021-10-02_17h51.22.140,judgeSpeechMusic_20210919_logNormShiftAmp_detection_fixFreq,2020.1.2,MacIntel,60,,,,,,,,,,,,,,,,,,1,5.5921,,0,0,13,13,40,1,stimuli/stim_20210919_power2amp/equal_lnn_AM2Hz_s35_43.m4a,,,,,,,,,,,,
,,,,,,,,,,,,39916,2021-10-02_17h51.22.140,judgeSpeechMusic_20210919_logNormShiftAmp_detection_fixFreq,2020.1.2,MacIntel,60,,,,,,,,,,,,,,,,,,2,6.1585,,0,0,14,14,55,1,stimuli/stim_20210919_power2amp/equal_lnn_AM2Hz_s45_42.m4a,,,,,,,,,,,,
,,,,,,,,,,,,39916,2021-10-02_17h51.22.140,judgeSpeechMusic_20210919_logNormShiftAmp_detection_fixFreq,2020.1.2,MacIntel,60,,,,,,,,,,,,,,,,,,1,6.292,,0,0,15,15,56,1,stimuli/stim_20210919_power2amp/equal_lnn_AM2Hz_s45_3.m4a,,,,,,,,,,,,
,,,,,,,,,,,,39916,2021-10-02_17h51.22.140,judgeSpeechMusic_20210919_logNormShiftAmp_detection_fixFreq,2020.1.2,MacIntel,60,,,,,,,,,,,,,,,,,,2,6.0069,,0,0,16,16,0,1,stimuli/stim_20210919_power2amp/equal_lnn_AM2Hz_s15_17.m4a,,,,,,,,,,,,
,,,,,,,,,,,,39916,2021-10-02_17h51.22.140,judgeSpeechMusic_20210919_logNormShiftAmp_detection_fixFreq,2020.1.2,MacIntel,60,,,,,,,,,,,,,,,,,,1,5.84,,0,0,17,17,58,1,stimuli/stim_20210919_power2amp/equal_lnn_AM2Hz_s45_4.m4a,,,,,,,,,,,,
,,,,,,,,,,,,39916,2021-10-02_17h51.22.140,judgeSpeechMusic_20210919_logNormShiftAmp_detection_fixFreq,2020.1.2,MacIntel,60,,,,,,,,,,,,,,,,,,1,8.6894,,0,0,18,18,30,1,stimuli/stim_20210919_power2amp/equal_lnn_AM2Hz_s35_50.m4a,,,,,,,,,,,,
,,,,,,,,,,,,39916,2021-10-02_17h51.22.140,judgeSpeechMusic_20210919_logNormShiftAmp_detection_fixFreq,2020.1.2,MacIntel,60,,,,,,,,,,,,,,,,,,1,12.6393,3,1,0,19,19,73,1,stimuli/stim_20210919_power2amp/equal_lnn_AM2Hz_s55_25.m4a,1.6626,,,,,,,,,,,
,,,,,,,,,,,,39916,2021-10-02_17h51.22.140,judgeSpeechMusic_20210919_logNormShiftAmp_detection_fixFreq,2020.1.2,MacIntel,60,,,,,,,,,,,,,,,,,,1,5.6072,,0,0,20,20,28,1,stimuli/stim_20210919_power2amp/equal_lnn_AM2Hz_s25_29.m4a,,,,,,,,,,,,
,,,,,,,,,,,,39916,2021-10-02_17h51.22.140,judgeSpeechMusic_20210919_logNormShiftAmp_detection_fixFreq,2020.1.2,MacIntel,60,,,,,,,,,,,,,,,,,,2,5.7229,,0,0,21,21,57,1,stimuli/stim_20210919_power2amp/equal_lnn_AM2Hz_s45_16.m4a,,,,,,,,,,,,
,,,,,,,,,,,,39916,2021-10-02_17h51.22.140,judgeSpeechMusic_20210919_logNormShiftAmp_detection_fixFreq,2020.1.2,MacIntel,60,,,,,,,,,,,,,,,,,,1,6.3552,,0,0,22,22,54,1,stimuli/stim_20210919_power2amp/equal_lnn_AM2Hz_s45_26.m4a,,,,,,,,,,,,
,,,,,,,,,,,,39916,2021-10-02_17h51.22.140,judgeSpeechMusic_20210919_logNormShiftAmp_detection_fixFreq,2020.1.2,MacIntel,60,,,,,,,,,,,,,,,,,,1,5.9739,,0,0,23,23,46,1,stimuli/stim_20210919_power2amp/equal_lnn_AM2Hz_s45_31.m4a,,,,,,,,,,,,
,,,,,,,,,,,,39916,2021-10-02_17h51.22.140,judgeSpeechMusic_20210919_logNormShiftAmp_detection_fixFreq,2020.1.2,MacIntel,60,,,,,,,,,,,,,,,,,,1,6.1789,,0,0,24,24,41,1,stimuli/stim_20210919_power2amp/equal_lnn_AM2Hz_s35_17.m4a,,,,,,,,,,,,
,,,,,,,,,,,,39916,2021-10-02_17h51.22.140,judgeSpeechMusic_20210919_logNormShiftAmp_detection_fixFreq,2020.1.2,MacIntel,60,,,,,,,,,,,,,,,,,,2,6.8383,,0,0,25,25,23,1,stimuli/stim_20210919_power2amp/equal_lnn_AM2Hz_s25_32.m4a,,,,,,,,,,,,
,,,,,,,,,,,,39916,2021-10-02_17h51.22.140,judgeSpeechMusic_20210919_logNormShiftAmp_detection_fixFreq,2020.1.2,MacIntel,60,,,,,,,,,,,,,,,,,,2,5.5908,,0,0,26,26,22,1,stimuli/stim_20210919_power2amp/equal_lnn_AM2Hz_s25_40.m4a,,,,,,,,,,,,
,,,,,,,,,,,,39916,2021-10-02_17h51.22.140,judgeSpeechMusic_20210919_logNormShiftAmp_detection_fixFreq,2020.1.2,MacIntel,60,,,,,,,,,,,,,,,,,,2,5.5077,,0,0,27,27,69,1,stimuli/stim_20210919_power2amp/equal_lnn_AM2Hz_s55_47.m4a,,,,,,,,,,,,
,,,,,,,,,,,,39916,2021-10-02_17h51.22.140,judgeSpeechMusic_20210919_logNormShiftAmp_detection_fixFreq,2020.1.2,MacIntel,60,,,,,,,,,,,,,,,,,,1,5.741,,0,0,28,28,27,1,stimuli/stim_20210919_power2amp/equal_lnn_AM2Hz_s25_44.m4a,,,,,,,,,,,,
,,,,,,,,,,,,39916,2021-10-02_17h51.22.140,judgeSpeechMusic_20210919_logNormShiftAmp_detection_fixFreq,2020.1.2,MacIntel,60,,,,,,,,,,,,,,,,,,1,5.626,,0,0,29,29,21,1,stimuli/stim_20210919_power2amp/equal_lnn_AM2Hz_s25_1.m4a,,,,,,,,,,,,
,,,,,,,,,,,,39916,2021-10-02_17h51.22.140,judgeSpeechMusic_20210919_logNormShiftAmp_detection_fixFreq,2020.1.2,MacIntel,60,,,,,,,,,,,,,,,,,,1,6.0081,,0,0,30,30,8,1,stimuli/stim_20210919_power2amp/equal_lnn_AM2Hz_s15_21.m4a,,,,,,,,,,,,
,,,,,,,,,,,,39916,2021-10-02_17h51.22.140,judgeSpeechMusic_20210919_logNormShiftAmp_detection_fixFreq,2020.1.2,MacIntel,60,,,,,,,,,,,,,,,,,,1,5.5909,,0,0,31,31,44,1,stimuli/stim_20210919_power2amp/equal_lnn_AM2Hz_s35_15.m4a,,,,,,,,,,,,
,,,,,,,,,,,,39916,2021-10-02_17h51.22.140,judgeSpeechMusic_20210919_logNormShiftAmp_detection_fixFreq,2020.1.2,MacIntel,60,,,,,,,,,,,,,,,,,,2,5.7578,,0,0,32,32,20,1,stimuli/stim_20210919_power2amp/equal_lnn_AM2Hz_s25_12.m4a,,,,,,,,,,,,
,,,,,,,,,,,,39916,2021-10-02_17h51.22.140,judgeSpeechMusic_20210919_logNormShiftAmp_detection_fixFreq,2020.1.2,MacIntel,60,,,,,,,,,,,,,,,,,,2,5.6052,,0,0,33,33,14,1,stimuli/stim_20210919_power2amp/equal_lnn_AM2Hz_s15_41.m4a,,,,,,,,,,,,
,,,,,,,,,,,,39916,2021-10-02_17h51.22.140,judgeSpeechMusic_20210919_logNormShiftAmp_detection_fixFreq,2020.1.2,MacIntel,60,,,,,,,,,,,,,,,,,,2,8.7926,,0,0,34,34,19,1,stimuli/stim_20210919_power2amp/equal_lnn_AM2Hz_s25_38.m4a,,,,,,,,,,,,
,,,,,,,,,,,,39916,2021-10-02_17h51.22.140,judgeSpeechMusic_20210919_logNormShiftAmp_detection_fixFreq,2020.1.2,MacIntel,60,,,,,,,,,,,,,,,,,,1,7.6619,,0,0,35,35,12,1,stimuli/stim_20210919_power2amp/equal_lnn_AM2Hz_s15_23.m4a,,,,,,,,,,,,
,,,,,,,,,,,,39916,2021-10-02_17h51.22.140,judgeSpeechMusic_20210919_logNormShiftAmp_detection_fixFreq,2020.1.2,MacIntel,60,,,,,,,,,,,,,,,,,,1,5.5896,,0,0,36,36,13,1,stimuli/stim_20210919_power2amp/equal_lnn_AM2Hz_s15_39.m4a,,,,,,,,,,,,
,,,,,,,,,,,,39916,2021-10-02_17h51.22.140,judgeSpeechMusic_20210919_logNormShiftAmp_detection_fixFreq,2020.1.2,MacIntel,60,,,,,,,,,,,,,,,,,,2,6.5055,,0,0,37,37,7,1,stimuli/stim_20210919_power2amp/equal_lnn_AM2Hz_s15_49.m4a,,,,,,,,,,,,
,,,,,,,,,,,,39916,2021-10-02_17h51.22.140,judgeSpeechMusic_20210919_logNormShiftAmp_detection_fixFreq,2020.1.2,MacIntel,60,,,,,,,,,,,,,,,,,,2,5.9087,,0,0,38,38,24,1,stimuli/stim_20210919_power2amp/equal_lnn_AM2Hz_s25_27.m4a,,,,,,,,,,,,
,,,,,,,,,,,,39916,2021-10-02_17h51.22.140,judgeSpeechMusic_20210919_logNormShiftAmp_detection_fixFreq,2020.1.2,MacIntel,60,,,,,,,,,,,,,,,,,,1,5.7766,4,1,0,39,39,62,1,stimuli/stim_20210919_power2amp/equal_lnn_AM2Hz_s55_40.m4a,1.096,,,,,,,,,,,
,,,,,,,,,,,,39916,2021-10-02_17h51.22.140,judgeSpeechMusic_20210919_logNormShiftAmp_detection_fixFreq,2020.1.2,MacIntel,60,,,,,,,,,,,,,,,,,,1,6.0064,,0,0,40,40,42,1,stimuli/stim_20210919_power2amp/equal_lnn_AM2Hz_s35_36.m4a,,,,,,,,,,,,
,,,,,,,,,,,,39916,2021-10-02_17h51.22.140,judgeSpeechMusic_20210919_logNormShiftAmp_detection_fixFreq,2020.1.2,MacIntel,60,,,,,,,,,,,,,,,,,,1,6.2114,,0,0,41,41,70,1,stimuli/stim_20210919_power2amp/equal_lnn_AM2Hz_s55_20.m4a,,,,,,,,,,,,
,,,,,,,,,,,,39916,2021-10-02_17h51.22.140,judgeSpeechMusic_20210919_logNormShiftAmp_detection_fixFreq,2020.1.2,MacIntel,60,,,,,,,,,,,,,,,,,,1,5.4708,,0,0,42,42,60,1,stimuli/stim_20210919_power2amp/equal_lnn_AM2Hz_s55_1.m4a,,,,,,,,,,,,
,,,,,,,,,,,,39916,2021-10-02_17h51.22.140,judgeSpeechMusic_20210919_logNormShiftAmp_detection_fixFreq,2020.1.2,MacIntel,60,,,,,,,,,,,,,,,,,,1,5.7084,,0,0,43,43,39,1,stimuli/stim_20210919_power2amp/equal_lnn_AM2Hz_s35_30.m4a,,,,,,,,,,,,
,,,,,,,,,,,,39916,2021-10-02_17h51.22.140,judgeSpeechMusic_20210919_logNormShiftAmp_detection_fixFreq,2020.1.2,MacIntel,60,,,,,,,,,,,,,,,,,,1,5.4094,,0,0,44,44,71,1,stimuli/stim_20210919_power2amp/equal_lnn_AM2Hz_s55_9.m4a,,,,,,,,,,,,
,,,,,,,,,,,,39916,2021-10-02_17h51.22.140,judgeSpeechMusic_20210919_logNormShiftAmp_detection_fixFreq,2020.1.2,MacIntel,60,,,,,,,,,,,,,,,,,,2,5.7562,,0,0,45,45,4,1,stimuli/stim_20210919_power2amp/equal_lnn_AM2Hz_s15_19.m4a,,,,,,,,,,,,
,,,,,,,,,,,,39916,2021-10-02_17h51.22.140,judgeSpeechMusic_20210919_logNormShiftAmp_detection_fixFreq,2020.1.2,MacIntel,60,,,,,,,,,,,,,,,,,,1,5.807,,0,0,46,46,67,1,stimuli/stim_20210919_power2amp/equal_lnn_AM2Hz_s55_22.m4a,,,,,,,,,,,,
,,,,,,,,,,,,39916,2021-10-02_17h51.22.140,judgeSpeechMusic_20210919_logNormShiftAmp_detection_fixFreq,2020.1.2,MacIntel,60,,,,,,,,,,,,,,,,,,2,5.6729,,0,0,47,47,29,1,stimuli/stim_20210919_power2amp/equal_lnn_AM2Hz_s25_36.m4a,,,,,,,,,,,,
,,,,,,,,,,,,39916,2021-10-02_17h51.22.140,judgeSpeechMusic_20210919_logNormShiftAmp_detection_fixFreq,2020.1.2,MacIntel,60,,,,,,,,,,,,,,,,,,1,6.4576,,0,0,48,48,68,1,stimuli/stim_20210919_power2amp/equal_lnn_AM2Hz_s55_31.m4a,,,,,,,,,,,,
,,,,,,,,,,,,39916,2021-10-02_17h51.22.140,judgeSpeechMusic_20210919_logNormShiftAmp_detection_fixFreq,2020.1.2,MacIntel,60,,,,,,,,,,,,,,,,,,2,5.9917,,0,0,49,49,25,1,stimuli/stim_20210919_power2amp/equal_lnn_AM2Hz_s25_30.m4a,,,,,,,,,,,,
,,,,,,,,,,,,39916,2021-10-02_17h51.22.140,judgeSpeechMusic_20210919_logNormShiftAmp_detection_fixFreq,2020.1.2,MacIntel,60,,,,,,,,,,,,,,,,,,1,6.7432,,0,0,50,50,65,1,stimuli/stim_20210919_power2amp/equal_lnn_AM2Hz_s55_24.m4a,,,,,,,,,,,,
,,,,,,,,,,,,39916,2021-10-02_17h51.22.140,judgeSpeechMusic_20210919_logNormShiftAmp_detection_fixFreq,2020.1.2,MacIntel,60,,,,,,,,,,,,,,,,,,1,5.6051,,0,0,51,51,34,1,stimuli/stim_20210919_power2amp/equal_lnn_AM2Hz_s35_27.m4a,,,,,,,,,,,,
,,,,,,,,,,,,39916,2021-10-02_17h51.22.140,judgeSpeechMusic_20210919_logNormShiftAmp_detection_fixFreq,2020.1.2,MacIntel,60,,,,,,,,,,,,,,,,,,2,6.2778,,0,0,52,52,1,1,stimuli/stim_20210919_power2amp/equal_lnn_AM2Hz_s15_37.m4a,,,,,,,,,,,,
,,,,,,,,,,,,39916,2021-10-02_17h51.22.140,judgeSpeechMusic_20210919_logNormShiftAmp_detection_fixFreq,2020.1.2,MacIntel,60,,,,,,,,,,,,,,,,,,1,5.7065,,0,0,53,53,66,1,stimuli/stim_20210919_power2amp/equal_lnn_AM2Hz_s55_36.m4a,,,,,,,,,,,,
,,,,,,,,,,,,39916,2021-10-02_17h51.22.140,judgeSpeechMusic_20210919_logNormShiftAmp_detection_fixFreq,2020.1.2,MacIntel,60,,,,,,,,,,,,,,,,,,1,8.3087,,0,0,54,54,10,1,stimuli/stim_20210919_power2amp/equal_lnn_AM2Hz_s15_10.m4a,,,,,,,,,,,,
,,,,,,,,,,,,39916,2021-10-02_17h51.22.140,judgeSpeechMusic_20210919_logNormShiftAmp_detection_fixFreq,2020.1.2,MacIntel,60,,,,,,,,,,,,,,,,,,1,9.0441,,0,0,55,55,74,1,stimuli/stim_20210919_power2amp/equal_lnn_AM2Hz_s55_30.m4a,,,,,,,,,,,,
,,,,,,,,,,,,39916,2021-10-02_17h51.22.140,judgeSpeechMusic_20210919_logNormShiftAmp_detection_fixFreq,2020.1.2,MacIntel,60,,,,,,,,,,,,,,,,,,2,6.4918,,0,0,56,56,35,1,stimuli/stim_20210919_power2amp/equal_lnn_AM2Hz_s35_42.m4a,,,,,,,,,,,,
,,,,,,,,,,,,39916,2021-10-02_17h51.22.140,judgeSpeechMusic_20210919_logNormShiftAmp_detection_fixFreq,2020.1.2,MacIntel,60,,,,,,,,,,,,,,,,,,1,6.1698,,0,0,57,57,48,1,stimuli/stim_20210919_power2amp/equal_lnn_AM2Hz_s45_45.m4a,,,,,,,,,,,,
,,,,,,,,,,,,39916,2021-10-02_17h51.22.140,judgeSpeechMusic_20210919_logNormShiftAmp_detection_fixFreq,2020.1.2,MacIntel,60,,,,,,,,,,,,,,,,,,2,6.791,3,1,0,58,58,37,1,stimuli/stim_20210919_power2amp/equal_lnn_AM2Hz_s35_31.m4a,5.7776,,,,,,,,,,,
,,,,,,,,,,,,39916,2021-10-02_17h51.22.140,judgeSpeechMusic_20210919_logNormShiftAmp_detection_fixFreq,2020.1.2,MacIntel,60,,,,,,,,,,,,,,,,,,1,5.8876,,0,0,59,59,64,1,stimuli/stim_20210919_power2amp/equal_lnn_AM2Hz_s55_26.m4a,,,,,,,,,,,,
,,,,,,,,,,,,39916,2021-10-02_17h51.22.140,judgeSpeechMusic_20210919_logNormShiftAmp_detection_fixFreq,2020.1.2,MacIntel,60,,,,,,,,,,,,,,,,,,2,6.89,,0,0,60,60,2,1,stimuli/stim_20210919_power2amp/equal_lnn_AM2Hz_s15_42.m4a,,,,,,,,,,,,
,,,,,,,,,,,,39916,2021-10-02_17h51.22.140,judgeSpeechMusic_20210919_logNormShiftAmp_detection_fixFreq,2020.1.2,MacIntel,60,,,,,,,,,,,,,,,,,,1,6.1743,,0,0,61,61,38,1,stimuli/stim_20210919_power2amp/equal_lnn_AM2Hz_s35_35.m4a,,,,,,,,,,,,
,,,,,,,,,,,,39916,2021-10-02_17h51.22.140,judgeSpeechMusic_20210919_logNormShiftAmp_detection_fixFreq,2020.1.2,MacIntel,60,,,,,,,,,,,,,,,,,,1,5.9712,,0,0,62,62,53,1,stimuli/stim_20210919_power2amp/equal_lnn_AM2Hz_s45_14.m4a,,,,,,,,,,,,
,,,,,,,,,,,,39916,2021-10-02_17h51.22.140,judgeSpeechMusic_20210919_logNormShiftAmp_detection_fixFreq,2020.1.2,MacIntel,60,,,,,,,,,,,,,,,,,,1,5.9247,,0,0,63,63,61,1,stimuli/stim_20210919_power2amp/equal_lnn_AM2Hz_s55_5.m4a,,,,,,,,,,,,
,,,,,,,,,,,,39916,2021-10-02_17h51.22.140,judgeSpeechMusic_20210919_logNormShiftAmp_detection_fixFreq,2020.1.2,MacIntel,60,,,,,,,,,,,,,,,,,,1,5.9754,,0,0,64,64,18,1,stimuli/stim_20210919_power2amp/equal_lnn_AM2Hz_s25_49.m4a,,,,,,,,,,,,
,,,,,,,,,,,,39916,2021-10-02_17h51.22.140,judgeSpeechMusic_20210919_logNormShiftAmp_detection_fixFreq,2020.1.2,MacIntel,60,,,,,,,,,,,,,,,,,,2,5.6237,,0,0,65,65,3,1,stimuli/stim_20210919_power2amp/equal_lnn_AM2Hz_s15_24.m4a,,,,,,,,,,,,
,,,,,,,,,,,,39916,2021-10-02_17h51.22.140,judgeSpeechMusic_20210919_logNormShiftAmp_detection_fixFreq,2020.1.2,MacIntel,60,,,,,,,,,,,,,,,,,,1,5.7613,,0,0,66,66,9,1,stimuli/stim_20210919_power2amp/equal_lnn_AM2Hz_s15_1.m4a,,,,,,,,,,,,
,,,,,,,,,,,,39916,2021-10-02_17h51.22.140,judgeSpeechMusic_20210919_logNormShiftAmp_detection_fixFreq,2020.1.2,MacIntel,60,,,,,,,,,,,,,,,,,,1,5.4242,,0,0,67,67,16,1,stimuli/stim_20210919_power2amp/equal_lnn_AM2Hz_s25_2.m4a,,,,,,,,,,,,
,,,,,,,,,,,,39916,2021-10-02_17h51.22.140,judgeSpeechMusic_20210919_logNormShiftAmp_detection_fixFreq,2020.1.2,MacIntel,60,,,,,,,,,,,,,,,,,,2,6.1061,,0,0,68,68,45,1,stimuli/stim_20210919_power2amp/equal_lnn_AM2Hz_s45_46.m4a,,,,,,,,,,,,
,,,,,,,,,,,,39916,2021-10-02_17h51.22.140,judgeSpeechMusic_20210919_logNormShiftAmp_detection_fixFreq,2020.1.2,MacIntel,60,,,,,,,,,,,,,,,,,,2,5.7582,,0,0,69,69,5,1,stimuli/stim_20210919_power2amp/equal_lnn_AM2Hz_s15_44.m4a,,,,,,,,,,,,
,,,,,,,,,,,,39916,2021-10-02_17h51.22.140,judgeSpeechMusic_20210919_logNormShiftAmp_detection_fixFreq,2020.1.2,MacIntel,60,,,,,,,,,,,,,,,,,,1,5.7258,,0,0,70,70,72,1,stimuli/stim_20210919_power2amp/equal_lnn_AM2Hz_s55_15.m4a,,,,,,,,,,,,
,,,,,,,,,,,,39916,2021-10-02_17h51.22.140,judgeSpeechMusic_20210919_logNormShiftAmp_detection_fixFreq,2020.1.2,MacIntel,60,,,,,,,,,,,,,,,,,,1,5.8744,,0,0,71,71,49,1,stimuli/stim_20210919_power2amp/equal_lnn_AM2Hz_s45_44.m4a,,,,,,,,,,,,
,,,,,,,,,,,,39916,2021-10-02_17h51.22.140,judgeSpeechMusic_20210919_logNormShiftAmp_detection_fixFreq,2020.1.2,MacIntel,60,,,,,,,,,,,,,,,,,,1,5.608,,0,0,72,72,59,1,stimuli/stim_20210919_power2amp/equal_lnn_AM2Hz_s45_43.m4a,,,,,,,,,,,,
,,,,,,,,,,,,39916,2021-10-02_17h51.22.140,judgeSpeechMusic_20210919_logNormShiftAmp_detection_fixFreq,2020.1.2,MacIntel,60,,,,,,,,,,,,,,,,,,1,5.4746,,0,0,73,73,33,1,stimuli/stim_20210919_power2amp/equal_lnn_AM2Hz_s35_26.m4a,,,,,,,,,,,,
,,,,,,,,,,,,39916,2021-10-02_17h51.22.140,judgeSpeechMusic_20210919_logNormShiftAmp_detection_fixFreq,2020.1.2,MacIntel,60,,,,,,,,,,,,,,,,,,2,5.578,,0,0,74,74,17,1,stimuli/stim_20210919_power2amp/equal_lnn_AM2Hz_s25_20.m4a,,,,,,,,,,,,
,,,,,,,,,,,,39916,2021-10-02_17h51.22.140,judgeSpeechMusic_20210919_logNormShiftAmp_detection_fixFreq,2020.1.2,MacIntel,60,,,,,,,,,,,,,,,,,,,,,,,,,,,,,,,1,1,3,0,1,MUSIC,stimuli/MUSIC.jpg,,
,,,,,,,,,,,,39916,2021-10-02_17h51.22.140,judgeSpeechMusic_20210919_logNormShiftAmp_detection_fixFreq,2020.1.2,MacIntel,60,,,,,,,,,,,,,,,,,,,,,,,,,,,,,,,,,,,,,,space,8.2149
