headphoneResponse.keys,headphoneResponse.corr,headphoneResponse.rt,headphoneTrial.thisRepN,headphoneTrial.thisTrialN,headphoneTrial.thisN,headphoneTrial.thisIndex,headphoneTrial.ran,headphone_sound1,headphone_sound2,headphone_sound3,corrAns,participant,date,expName,psychopyVersion,OS,frameRate,checkInstruKey.keys,checkInstruKey.rt,trainSlider.response,trainSlider.rt,beepTrainResponse.keys,beepTrainResponse.corr,trainingTrials.thisRepN,trainingTrials.thisTrialN,trainingTrials.thisN,trainingTrials.thisIndex,trainingTrials.ran,trainAudioFile,beepTrainResponse.rt,readyReal_resp.keys,readyReal_resp.rt,checkInstru2_key.keys,checkInstru2_key.rt,ratingSlider.response,ratingSlider.rt,beepResp.keys,beepResp.corr,expTrials.thisRepN,expTrials.thisTrialN,expTrials.thisN,expTrials.thisIndex,expTrials.ran,audioFile,beepResp.rt,switchBlock_space.keys,switchBlock_space.rt,block.thisRepN,block.thisTrialN,block.thisN,block.thisIndex,block.ran,blockName,blockImage,end_resp.keys,end_resp.rt
2,1,0.4391,0,0,0,3,1,stimuli/screen_origin.wav,stimuli/screen_quiet.wav,stimuli/screen_antiphase.wav,2,41404,2021-10-11_14h37.24.737,judgeSpeechMusic_20210919_logNormShiftAmp_detection_fixFreq,2020.1.2,MacIntel,60,,,,,,,,,,,,,,,,,,,,,,,,,,,,,,,,,,,,,,,
1,1,0.3604,0,1,1,4,1,stimuli/screen_quiet.wav,stimuli/screen_antiphase.wav,stimuli/screen_origin.wav,1,41404,2021-10-11_14h37.24.737,judgeSpeechMusic_20210919_logNormShiftAmp_detection_fixFreq,2020.1.2,MacIntel,60,,,,,,,,,,,,,,,,,,,,,,,,,,,,,,,,,,,,,,,
1,1,0.3341,0,2,2,5,1,stimuli/screen_quiet.wav,stimuli/screen_origin.wav,stimuli/screen_antiphase.wav,1,41404,2021-10-11_14h37.24.737,judgeSpeechMusic_20210919_logNormShiftAmp_detection_fixFreq,2020.1.2,MacIntel,60,,,,,,,,,,,,,,,,,,,,,,,,,,,,,,,,,,,,,,,
3,1,0.4335,0,3,3,2,1,stimuli/screen_origin.wav,stimuli/screen_antiphase.wav,stimuli/screen_quiet.wav,3,41404,2021-10-11_14h37.24.737,judgeSpeechMusic_20210919_logNormShiftAmp_detection_fixFreq,2020.1.2,MacIntel,60,,,,,,,,,,,,,,,,,,,,,,,,,,,,,,,,,,,,,,,
1,0,0.903,0,4,4,1,1,stimuli/screen_antiphase.wav,stimuli/screen_quiet.wav,stimuli/screen_origin.wav,2,41404,2021-10-11_14h37.24.737,judgeSpeechMusic_20210919_logNormShiftAmp_detection_fixFreq,2020.1.2,MacIntel,60,,,,,,,,,,,,,,,,,,,,,,,,,,,,,,,,,,,,,,,
3,1,0.3837,0,5,5,0,1,stimuli/screen_antiphase.wav,stimuli/screen_origin.wav,stimuli/screen_quiet.wav,3,41404,2021-10-11_14h37.24.737,judgeSpeechMusic_20210919_logNormShiftAmp_detection_fixFreq,2020.1.2,MacIntel,60,,,,,,,,,,,,,,,,,,,,,,,,,,,,,,,,,,,,,,,
,,,,,,,,,,,,41404,2021-10-11_14h37.24.737,judgeSpeechMusic_20210919_logNormShiftAmp_detection_fixFreq,2020.1.2,MacIntel,60,space,1.0137,2,6.4291,,0,0,0,0,2,1,stimuli/stim_20210919_power2amp/equal_lnn_AM_training2Hz_s40.m4a,,,,,,,,,,,,,,,,,,,,,,,,,,,
,,,,,,,,,,,,41404,2021-10-11_14h37.24.737,judgeSpeechMusic_20210919_logNormShiftAmp_detection_fixFreq,2020.1.2,MacIntel,60,,,1,20.3675,,0,0,1,1,3,1,stimuli/stim_20210919_power2amp/equal_lnn_AM_training2Hz_s50.m4a,,,,,,,,,,,,,,,,,,,,,,,,,,,
,,,,,,,,,,,,41404,2021-10-11_14h37.24.737,judgeSpeechMusic_20210919_logNormShiftAmp_detection_fixFreq,2020.1.2,MacIntel,60,,,2,7.1132,4,1,0,2,2,1,1,stimuli/stim_20210919_power2amp/equal_lnn_AM_training2Hz_s30.m4a,2.3235,,,,,,,,,,,,,,,,,,,,,,,,,,
,,,,,,,,,,,,41404,2021-10-11_14h37.24.737,judgeSpeechMusic_20210919_logNormShiftAmp_detection_fixFreq,2020.1.2,MacIntel,60,,,2,6.1396,,0,0,3,3,0,1,stimuli/stim_20210919_power2amp/equal_lnn_AM_training2Hz_s20.m4a,,,,,,,,,,,,,,,,,,,,,,,,,,,
,,,,,,,,,,,,41404,2021-10-11_14h37.24.737,judgeSpeechMusic_20210919_logNormShiftAmp_detection_fixFreq,2020.1.2,MacIntel,60,,,,,,,,,,,,,,space,5.7146,space,1.1553,2,7.4118,,0,0,0,0,68,1,stimuli/stim_20210919_power2amp/equal_lnn_AM2Hz_s55_42.m4a,,,,,,,,,,,,
,,,,,,,,,,,,41404,2021-10-11_14h37.24.737,judgeSpeechMusic_20210919_logNormShiftAmp_detection_fixFreq,2020.1.2,MacIntel,60,,,,,,,,,,,,,,,,,,2,6.465,,0,0,1,1,19,1,stimuli/stim_20210919_power2amp/equal_lnn_AM2Hz_s25_16.m4a,,,,,,,,,,,,
,,,,,,,,,,,,41404,2021-10-11_14h37.24.737,judgeSpeechMusic_20210919_logNormShiftAmp_detection_fixFreq,2020.1.2,MacIntel,60,,,,,,,,,,,,,,,,,,2,6.0592,,0,0,2,2,69,1,stimuli/stim_20210919_power2amp/equal_lnn_AM2Hz_s55_7.m4a,,,,,,,,,,,,
,,,,,,,,,,,,41404,2021-10-11_14h37.24.737,judgeSpeechMusic_20210919_logNormShiftAmp_detection_fixFreq,2020.1.2,MacIntel,60,,,,,,,,,,,,,,,,,,1,5.6482,,0,0,3,3,46,1,stimuli/stim_20210919_power2amp/equal_lnn_AM2Hz_s45_49.m4a,,,,,,,,,,,,
,,,,,,,,,,,,41404,2021-10-11_14h37.24.737,judgeSpeechMusic_20210919_logNormShiftAmp_detection_fixFreq,2020.1.2,MacIntel,60,,,,,,,,,,,,,,,,,,1,5.9031,,0,0,4,4,47,1,stimuli/stim_20210919_power2amp/equal_lnn_AM2Hz_s45_13.m4a,,,,,,,,,,,,
,,,,,,,,,,,,41404,2021-10-11_14h37.24.737,judgeSpeechMusic_20210919_logNormShiftAmp_detection_fixFreq,2020.1.2,MacIntel,60,,,,,,,,,,,,,,,,,,2,5.7792,,0,0,5,5,9,1,stimuli/stim_20210919_power2amp/equal_lnn_AM2Hz_s15_38.m4a,,,,,,,,,,,,
,,,,,,,,,,,,41404,2021-10-11_14h37.24.737,judgeSpeechMusic_20210919_logNormShiftAmp_detection_fixFreq,2020.1.2,MacIntel,60,,,,,,,,,,,,,,,,,,1,11.8196,,0,0,6,6,49,1,stimuli/stim_20210919_power2amp/equal_lnn_AM2Hz_s45_46.m4a,,,,,,,,,,,,
,,,,,,,,,,,,41404,2021-10-11_14h37.24.737,judgeSpeechMusic_20210919_logNormShiftAmp_detection_fixFreq,2020.1.2,MacIntel,60,,,,,,,,,,,,,,,,,,2,5.6217,,0,0,7,7,52,1,stimuli/stim_20210919_power2amp/equal_lnn_AM2Hz_s45_27.m4a,,,,,,,,,,,,
,,,,,,,,,,,,41404,2021-10-11_14h37.24.737,judgeSpeechMusic_20210919_logNormShiftAmp_detection_fixFreq,2020.1.2,MacIntel,60,,,,,,,,,,,,,,,,,,1,5.9466,,0,0,8,8,31,1,stimuli/stim_20210919_power2amp/equal_lnn_AM2Hz_s35_3.m4a,,,,,,,,,,,,
,,,,,,,,,,,,41404,2021-10-11_14h37.24.737,judgeSpeechMusic_20210919_logNormShiftAmp_detection_fixFreq,2020.1.2,MacIntel,60,,,,,,,,,,,,,,,,,,1,5.6732,,0,0,9,9,11,1,stimuli/stim_20210919_power2amp/equal_lnn_AM2Hz_s15_26.m4a,,,,,,,,,,,,
,,,,,,,,,,,,41404,2021-10-11_14h37.24.737,judgeSpeechMusic_20210919_logNormShiftAmp_detection_fixFreq,2020.1.2,MacIntel,60,,,,,,,,,,,,,,,,,,2,6.8407,,0,0,10,10,63,1,stimuli/stim_20210919_power2amp/equal_lnn_AM2Hz_s55_28.m4a,,,,,,,,,,,,
,,,,,,,,,,,,41404,2021-10-11_14h37.24.737,judgeSpeechMusic_20210919_logNormShiftAmp_detection_fixFreq,2020.1.2,MacIntel,60,,,,,,,,,,,,,,,,,,2,6.4739,,0,0,11,11,40,1,stimuli/stim_20210919_power2amp/equal_lnn_AM2Hz_s35_5.m4a,,,,,,,,,,,,
,,,,,,,,,,,,41404,2021-10-11_14h37.24.737,judgeSpeechMusic_20210919_logNormShiftAmp_detection_fixFreq,2020.1.2,MacIntel,60,,,,,,,,,,,,,,,,,,1,7.2263,,0,0,12,12,73,1,stimuli/stim_20210919_power2amp/equal_lnn_AM2Hz_s55_41.m4a,,,,,,,,,,,,
,,,,,,,,,,,,41404,2021-10-11_14h37.24.737,judgeSpeechMusic_20210919_logNormShiftAmp_detection_fixFreq,2020.1.2,MacIntel,60,,,,,,,,,,,,,,,,,,2,8.4248,,0,0,13,13,12,1,stimuli/stim_20210919_power2amp/equal_lnn_AM2Hz_s15_23.m4a,,,,,,,,,,,,
,,,,,,,,,,,,41404,2021-10-11_14h37.24.737,judgeSpeechMusic_20210919_logNormShiftAmp_detection_fixFreq,2020.1.2,MacIntel,60,,,,,,,,,,,,,,,,,,2,13.5311,,0,0,14,14,53,1,stimuli/stim_20210919_power2amp/equal_lnn_AM2Hz_s45_44.m4a,,,,,,,,,,,,
,,,,,,,,,,,,41404,2021-10-11_14h37.24.737,judgeSpeechMusic_20210919_logNormShiftAmp_detection_fixFreq,2020.1.2,MacIntel,60,,,,,,,,,,,,,,,,,,2,6.5215,,0,0,15,15,61,1,stimuli/stim_20210919_power2amp/equal_lnn_AM2Hz_s55_30.m4a,,,,,,,,,,,,
,,,,,,,,,,,,41404,2021-10-11_14h37.24.737,judgeSpeechMusic_20210919_logNormShiftAmp_detection_fixFreq,2020.1.2,MacIntel,60,,,,,,,,,,,,,,,,,,1,9.5891,,0,0,16,16,55,1,stimuli/stim_20210919_power2amp/equal_lnn_AM2Hz_s45_28.m4a,,,,,,,,,,,,
,,,,,,,,,,,,41404,2021-10-11_14h37.24.737,judgeSpeechMusic_20210919_logNormShiftAmp_detection_fixFreq,2020.1.2,MacIntel,60,,,,,,,,,,,,,,,,,,1,7.7936,,0,0,17,17,57,1,stimuli/stim_20210919_power2amp/equal_lnn_AM2Hz_s45_14.m4a,,,,,,,,,,,,
,,,,,,,,,,,,41404,2021-10-11_14h37.24.737,judgeSpeechMusic_20210919_logNormShiftAmp_detection_fixFreq,2020.1.2,MacIntel,60,,,,,,,,,,,,,,,,,,2,9.4161,,0,0,18,18,23,1,stimuli/stim_20210919_power2amp/equal_lnn_AM2Hz_s25_19.m4a,,,,,,,,,,,,
,,,,,,,,,,,,41404,2021-10-11_14h37.24.737,judgeSpeechMusic_20210919_logNormShiftAmp_detection_fixFreq,2020.1.2,MacIntel,60,,,,,,,,,,,,,,,,,,2,6.4532,,0,0,19,19,36,1,stimuli/stim_20210919_power2amp/equal_lnn_AM2Hz_s35_11.m4a,,,,,,,,,,,,
,,,,,,,,,,,,41404,2021-10-11_14h37.24.737,judgeSpeechMusic_20210919_logNormShiftAmp_detection_fixFreq,2020.1.2,MacIntel,60,,,,,,,,,,,,,,,,,,1,16.5567,,0,0,20,20,60,1,stimuli/stim_20210919_power2amp/equal_lnn_AM2Hz_s55_22.m4a,,,,,,,,,,,,
,,,,,,,,,,,,41404,2021-10-11_14h37.24.737,judgeSpeechMusic_20210919_logNormShiftAmp_detection_fixFreq,2020.1.2,MacIntel,60,,,,,,,,,,,,,,,,,,2,5.8205,,0,0,21,21,41,1,stimuli/stim_20210919_power2amp/equal_lnn_AM2Hz_s35_7.m4a,,,,,,,,,,,,
,,,,,,,,,,,,41404,2021-10-11_14h37.24.737,judgeSpeechMusic_20210919_logNormShiftAmp_detection_fixFreq,2020.1.2,MacIntel,60,,,,,,,,,,,,,,,,,,2,5.5797,1,1,0,22,22,26,1,stimuli/stim_20210919_power2amp/equal_lnn_AM2Hz_s25_43.m4a,1.3575,,,,,,,,,,,
,,,,,,,,,,,,41404,2021-10-11_14h37.24.737,judgeSpeechMusic_20210919_logNormShiftAmp_detection_fixFreq,2020.1.2,MacIntel,60,,,,,,,,,,,,,,,,,,2,16.5722,,0,0,23,23,54,1,stimuli/stim_20210919_power2amp/equal_lnn_AM2Hz_s45_22.m4a,,,,,,,,,,,,
,,,,,,,,,,,,41404,2021-10-11_14h37.24.737,judgeSpeechMusic_20210919_logNormShiftAmp_detection_fixFreq,2020.1.2,MacIntel,60,,,,,,,,,,,,,,,,,,1,7.5392,,0,0,24,24,14,1,stimuli/stim_20210919_power2amp/equal_lnn_AM2Hz_s15_45.m4a,,,,,,,,,,,,
,,,,,,,,,,,,41404,2021-10-11_14h37.24.737,judgeSpeechMusic_20210919_logNormShiftAmp_detection_fixFreq,2020.1.2,MacIntel,60,,,,,,,,,,,,,,,,,,2,10.2354,,0,0,25,25,71,1,stimuli/stim_20210919_power2amp/equal_lnn_AM2Hz_s55_15.m4a,,,,,,,,,,,,
,,,,,,,,,,,,41404,2021-10-11_14h37.24.737,judgeSpeechMusic_20210919_logNormShiftAmp_detection_fixFreq,2020.1.2,MacIntel,60,,,,,,,,,,,,,,,,,,2,5.5887,,0,0,26,26,67,1,stimuli/stim_20210919_power2amp/equal_lnn_AM2Hz_s55_48.m4a,,,,,,,,,,,,
,,,,,,,,,,,,41404,2021-10-11_14h37.24.737,judgeSpeechMusic_20210919_logNormShiftAmp_detection_fixFreq,2020.1.2,MacIntel,60,,,,,,,,,,,,,,,,,,2,5.5703,,0,0,27,27,18,1,stimuli/stim_20210919_power2amp/equal_lnn_AM2Hz_s25_23.m4a,,,,,,,,,,,,
,,,,,,,,,,,,41404,2021-10-11_14h37.24.737,judgeSpeechMusic_20210919_logNormShiftAmp_detection_fixFreq,2020.1.2,MacIntel,60,,,,,,,,,,,,,,,,,,2,5.9757,,0,0,28,28,62,1,stimuli/stim_20210919_power2amp/equal_lnn_AM2Hz_s55_39.m4a,,,,,,,,,,,,
,,,,,,,,,,,,41404,2021-10-11_14h37.24.737,judgeSpeechMusic_20210919_logNormShiftAmp_detection_fixFreq,2020.1.2,MacIntel,60,,,,,,,,,,,,,,,,,,2,5.9558,,0,0,29,29,45,1,stimuli/stim_20210919_power2amp/equal_lnn_AM2Hz_s45_6.m4a,,,,,,,,,,,,
,,,,,,,,,,,,41404,2021-10-11_14h37.24.737,judgeSpeechMusic_20210919_logNormShiftAmp_detection_fixFreq,2020.1.2,MacIntel,60,,,,,,,,,,,,,,,,,,2,6.072,,0,0,30,30,37,1,stimuli/stim_20210919_power2amp/equal_lnn_AM2Hz_s35_29.m4a,,,,,,,,,,,,
,,,,,,,,,,,,41404,2021-10-11_14h37.24.737,judgeSpeechMusic_20210919_logNormShiftAmp_detection_fixFreq,2020.1.2,MacIntel,60,,,,,,,,,,,,,,,,,,1,5.8688,,0,0,31,31,70,1,stimuli/stim_20210919_power2amp/equal_lnn_AM2Hz_s55_20.m4a,,,,,,,,,,,,
,,,,,,,,,,,,41404,2021-10-11_14h37.24.737,judgeSpeechMusic_20210919_logNormShiftAmp_detection_fixFreq,2020.1.2,MacIntel,60,,,,,,,,,,,,,,,,,,1,5.6885,,0,0,32,32,22,1,stimuli/stim_20210919_power2amp/equal_lnn_AM2Hz_s25_25.m4a,,,,,,,,,,,,
,,,,,,,,,,,,41404,2021-10-11_14h37.24.737,judgeSpeechMusic_20210919_logNormShiftAmp_detection_fixFreq,2020.1.2,MacIntel,60,,,,,,,,,,,,,,,,,,2,5.8484,,0,0,33,33,38,1,stimuli/stim_20210919_power2amp/equal_lnn_AM2Hz_s35_24.m4a,,,,,,,,,,,,
,,,,,,,,,,,,41404,2021-10-11_14h37.24.737,judgeSpeechMusic_20210919_logNormShiftAmp_detection_fixFreq,2020.1.2,MacIntel,60,,,,,,,,,,,,,,,,,,2,6.0361,,0,0,34,34,58,1,stimuli/stim_20210919_power2amp/equal_lnn_AM2Hz_s45_2.m4a,,,,,,,,,,,,
,,,,,,,,,,,,41404,2021-10-11_14h37.24.737,judgeSpeechMusic_20210919_logNormShiftAmp_detection_fixFreq,2020.1.2,MacIntel,60,,,,,,,,,,,,,,,,,,2,6.7791,,0,0,35,35,4,1,stimuli/stim_20210919_power2amp/equal_lnn_AM2Hz_s15_10.m4a,,,,,,,,,,,,
,,,,,,,,,,,,41404,2021-10-11_14h37.24.737,judgeSpeechMusic_20210919_logNormShiftAmp_detection_fixFreq,2020.1.2,MacIntel,60,,,,,,,,,,,,,,,,,,1,8.0219,,0,0,36,36,27,1,stimuli/stim_20210919_power2amp/equal_lnn_AM2Hz_s25_44.m4a,,,,,,,,,,,,
,,,,,,,,,,,,41404,2021-10-11_14h37.24.737,judgeSpeechMusic_20210919_logNormShiftAmp_detection_fixFreq,2020.1.2,MacIntel,60,,,,,,,,,,,,,,,,,,2,10.8467,,0,0,37,37,43,1,stimuli/stim_20210919_power2amp/equal_lnn_AM2Hz_s35_35.m4a,,,,,,,,,,,,
,,,,,,,,,,,,41404,2021-10-11_14h37.24.737,judgeSpeechMusic_20210919_logNormShiftAmp_detection_fixFreq,2020.1.2,MacIntel,60,,,,,,,,,,,,,,,,,,1,7.7781,,0,0,38,38,44,1,stimuli/stim_20210919_power2amp/equal_lnn_AM2Hz_s35_20.m4a,,,,,,,,,,,,
,,,,,,,,,,,,41404,2021-10-11_14h37.24.737,judgeSpeechMusic_20210919_logNormShiftAmp_detection_fixFreq,2020.1.2,MacIntel,60,,,,,,,,,,,,,,,,,,1,6.3545,,0,0,39,39,50,1,stimuli/stim_20210919_power2amp/equal_lnn_AM2Hz_s45_35.m4a,,,,,,,,,,,,
,,,,,,,,,,,,41404,2021-10-11_14h37.24.737,judgeSpeechMusic_20210919_logNormShiftAmp_detection_fixFreq,2020.1.2,MacIntel,60,,,,,,,,,,,,,,,,,,1,8.1537,1,1,0,40,40,21,1,stimuli/stim_20210919_power2amp/equal_lnn_AM2Hz_s25_17.m4a,1.9619,,,,,,,,,,,
,,,,,,,,,,,,41404,2021-10-11_14h37.24.737,judgeSpeechMusic_20210919_logNormShiftAmp_detection_fixFreq,2020.1.2,MacIntel,60,,,,,,,,,,,,,,,,,,1,6.6703,,0,0,41,41,13,1,stimuli/stim_20210919_power2amp/equal_lnn_AM2Hz_s15_6.m4a,,,,,,,,,,,,
,,,,,,,,,,,,41404,2021-10-11_14h37.24.737,judgeSpeechMusic_20210919_logNormShiftAmp_detection_fixFreq,2020.1.2,MacIntel,60,,,,,,,,,,,,,,,,,,1,7.4088,,0,0,42,42,10,1,stimuli/stim_20210919_power2amp/equal_lnn_AM2Hz_s15_20.m4a,,,,,,,,,,,,
,,,,,,,,,,,,41404,2021-10-11_14h37.24.737,judgeSpeechMusic_20210919_logNormShiftAmp_detection_fixFreq,2020.1.2,MacIntel,60,,,,,,,,,,,,,,,,,,2,5.8946,,0,0,43,43,35,1,stimuli/stim_20210919_power2amp/equal_lnn_AM2Hz_s35_44.m4a,,,,,,,,,,,,
,,,,,,,,,,,,41404,2021-10-11_14h37.24.737,judgeSpeechMusic_20210919_logNormShiftAmp_detection_fixFreq,2020.1.2,MacIntel,60,,,,,,,,,,,,,,,,,,2,5.9152,,0,0,44,44,30,1,stimuli/stim_20210919_power2amp/equal_lnn_AM2Hz_s35_22.m4a,,,,,,,,,,,,
,,,,,,,,,,,,41404,2021-10-11_14h37.24.737,judgeSpeechMusic_20210919_logNormShiftAmp_detection_fixFreq,2020.1.2,MacIntel,60,,,,,,,,,,,,,,,,,,2,6.7705,,0,0,45,45,64,1,stimuli/stim_20210919_power2amp/equal_lnn_AM2Hz_s55_11.m4a,,,,,,,,,,,,
,,,,,,,,,,,,41404,2021-10-11_14h37.24.737,judgeSpeechMusic_20210919_logNormShiftAmp_detection_fixFreq,2020.1.2,MacIntel,60,,,,,,,,,,,,,,,,,,2,6.753,,0,0,46,46,48,1,stimuli/stim_20210919_power2amp/equal_lnn_AM2Hz_s45_20.m4a,,,,,,,,,,,,
,,,,,,,,,,,,41404,2021-10-11_14h37.24.737,judgeSpeechMusic_20210919_logNormShiftAmp_detection_fixFreq,2020.1.2,MacIntel,60,,,,,,,,,,,,,,,,,,2,5.6439,,0,0,47,47,8,1,stimuli/stim_20210919_power2amp/equal_lnn_AM2Hz_s15_32.m4a,,,,,,,,,,,,
,,,,,,,,,,,,41404,2021-10-11_14h37.24.737,judgeSpeechMusic_20210919_logNormShiftAmp_detection_fixFreq,2020.1.2,MacIntel,60,,,,,,,,,,,,,,,,,,2,5.5889,,0,0,48,48,34,1,stimuli/stim_20210919_power2amp/equal_lnn_AM2Hz_s35_13.m4a,,,,,,,,,,,,
,,,,,,,,,,,,41404,2021-10-11_14h37.24.737,judgeSpeechMusic_20210919_logNormShiftAmp_detection_fixFreq,2020.1.2,MacIntel,60,,,,,,,,,,,,,,,,,,1,5.7693,,0,0,49,49,17,1,stimuli/stim_20210919_power2amp/equal_lnn_AM2Hz_s25_18.m4a,,,,,,,,,,,,
,,,,,,,,,,,,41404,2021-10-11_14h37.24.737,judgeSpeechMusic_20210919_logNormShiftAmp_detection_fixFreq,2020.1.2,MacIntel,60,,,,,,,,,,,,,,,,,,1,8.7525,,0,0,50,50,66,1,stimuli/stim_20210919_power2amp/equal_lnn_AM2Hz_s55_29.m4a,,,,,,,,,,,,
,,,,,,,,,,,,41404,2021-10-11_14h37.24.737,judgeSpeechMusic_20210919_logNormShiftAmp_detection_fixFreq,2020.1.2,MacIntel,60,,,,,,,,,,,,,,,,,,2,6.6201,,0,0,51,51,15,1,stimuli/stim_20210919_power2amp/equal_lnn_AM2Hz_s25_45.m4a,,,,,,,,,,,,
,,,,,,,,,,,,41404,2021-10-11_14h37.24.737,judgeSpeechMusic_20210919_logNormShiftAmp_detection_fixFreq,2020.1.2,MacIntel,60,,,,,,,,,,,,,,,,,,2,9.0401,,0,0,52,52,20,1,stimuli/stim_20210919_power2amp/equal_lnn_AM2Hz_s25_2.m4a,,,,,,,,,,,,
,,,,,,,,,,,,41404,2021-10-11_14h37.24.737,judgeSpeechMusic_20210919_logNormShiftAmp_detection_fixFreq,2020.1.2,MacIntel,60,,,,,,,,,,,,,,,,,,2,7.7198,,0,0,53,53,5,1,stimuli/stim_20210919_power2amp/equal_lnn_AM2Hz_s15_5.m4a,,,,,,,,,,,,
,,,,,,,,,,,,41404,2021-10-11_14h37.24.737,judgeSpeechMusic_20210919_logNormShiftAmp_detection_fixFreq,2020.1.2,MacIntel,60,,,,,,,,,,,,,,,,,,1,7.6463,,0,0,54,54,42,1,stimuli/stim_20210919_power2amp/equal_lnn_AM2Hz_s35_39.m4a,,,,,,,,,,,,
,,,,,,,,,,,,41404,2021-10-11_14h37.24.737,judgeSpeechMusic_20210919_logNormShiftAmp_detection_fixFreq,2020.1.2,MacIntel,60,,,,,,,,,,,,,,,,,,1,5.7987,,0,0,55,55,51,1,stimuli/stim_20210919_power2amp/equal_lnn_AM2Hz_s45_11.m4a,,,,,,,,,,,,
,,,,,,,,,,,,41404,2021-10-11_14h37.24.737,judgeSpeechMusic_20210919_logNormShiftAmp_detection_fixFreq,2020.1.2,MacIntel,60,,,,,,,,,,,,,,,,,,1,6.8867,,0,0,56,56,0,1,stimuli/stim_20210919_power2amp/equal_lnn_AM2Hz_s15_24.m4a,,,,,,,,,,,,
,,,,,,,,,,,,41404,2021-10-11_14h37.24.737,judgeSpeechMusic_20210919_logNormShiftAmp_detection_fixFreq,2020.1.2,MacIntel,60,,,,,,,,,,,,,,,,,,2,6.5068,,0,0,57,57,7,1,stimuli/stim_20210919_power2amp/equal_lnn_AM2Hz_s15_21.m4a,,,,,,,,,,,,
,,,,,,,,,,,,41404,2021-10-11_14h37.24.737,judgeSpeechMusic_20210919_logNormShiftAmp_detection_fixFreq,2020.1.2,MacIntel,60,,,,,,,,,,,,,,,,,,1,8.1705,,0,0,58,58,39,1,stimuli/stim_20210919_power2amp/equal_lnn_AM2Hz_s35_23.m4a,,,,,,,,,,,,
,,,,,,,,,,,,41404,2021-10-11_14h37.24.737,judgeSpeechMusic_20210919_logNormShiftAmp_detection_fixFreq,2020.1.2,MacIntel,60,,,,,,,,,,,,,,,,,,1,6.6304,,0,0,59,59,3,1,stimuli/stim_20210919_power2amp/equal_lnn_AM2Hz_s15_49.m4a,,,,,,,,,,,,
,,,,,,,,,,,,41404,2021-10-11_14h37.24.737,judgeSpeechMusic_20210919_logNormShiftAmp_detection_fixFreq,2020.1.2,MacIntel,60,,,,,,,,,,,,,,,,,,1,6.9048,3,1,0,60,60,28,1,stimuli/stim_20210919_power2amp/equal_lnn_AM2Hz_s25_1.m4a,1.7389,,,,,,,,,,,
,,,,,,,,,,,,41404,2021-10-11_14h37.24.737,judgeSpeechMusic_20210919_logNormShiftAmp_detection_fixFreq,2020.1.2,MacIntel,60,,,,,,,,,,,,,,,,,,2,7.2696,,0,0,61,61,74,1,stimuli/stim_20210919_power2amp/equal_lnn_AM2Hz_s55_3.m4a,,,,,,,,,,,,
,,,,,,,,,,,,41404,2021-10-11_14h37.24.737,judgeSpeechMusic_20210919_logNormShiftAmp_detection_fixFreq,2020.1.2,MacIntel,60,,,,,,,,,,,,,,,,,,1,6.1531,,0,0,62,62,2,1,stimuli/stim_20210919_power2amp/equal_lnn_AM2Hz_s15_14.m4a,,,,,,,,,,,,
,,,,,,,,,,,,41404,2021-10-11_14h37.24.737,judgeSpeechMusic_20210919_logNormShiftAmp_detection_fixFreq,2020.1.2,MacIntel,60,,,,,,,,,,,,,,,,,,1,5.9392,,0,0,63,63,1,1,stimuli/stim_20210919_power2amp/equal_lnn_AM2Hz_s15_42.m4a,,,,,,,,,,,,
,,,,,,,,,,,,41404,2021-10-11_14h37.24.737,judgeSpeechMusic_20210919_logNormShiftAmp_detection_fixFreq,2020.1.2,MacIntel,60,,,,,,,,,,,,,,,,,,2,5.6109,,0,0,64,64,29,1,stimuli/stim_20210919_power2amp/equal_lnn_AM2Hz_s25_22.m4a,,,,,,,,,,,,
,,,,,,,,,,,,41404,2021-10-11_14h37.24.737,judgeSpeechMusic_20210919_logNormShiftAmp_detection_fixFreq,2020.1.2,MacIntel,60,,,,,,,,,,,,,,,,,,1,5.7632,,0,0,65,65,56,1,stimuli/stim_20210919_power2amp/equal_lnn_AM2Hz_s45_10.m4a,,,,,,,,,,,,
,,,,,,,,,,,,41404,2021-10-11_14h37.24.737,judgeSpeechMusic_20210919_logNormShiftAmp_detection_fixFreq,2020.1.2,MacIntel,60,,,,,,,,,,,,,,,,,,1,8.0686,,0,0,66,66,33,1,stimuli/stim_20210919_power2amp/equal_lnn_AM2Hz_s35_40.m4a,,,,,,,,,,,,
,,,,,,,,,,,,41404,2021-10-11_14h37.24.737,judgeSpeechMusic_20210919_logNormShiftAmp_detection_fixFreq,2020.1.2,MacIntel,60,,,,,,,,,,,,,,,,,,2,7.0899,,0,0,67,67,32,1,stimuli/stim_20210919_power2amp/equal_lnn_AM2Hz_s35_28.m4a,,,,,,,,,,,,
,,,,,,,,,,,,41404,2021-10-11_14h37.24.737,judgeSpeechMusic_20210919_logNormShiftAmp_detection_fixFreq,2020.1.2,MacIntel,60,,,,,,,,,,,,,,,,,,2,5.9188,,0,0,68,68,65,1,stimuli/stim_20210919_power2amp/equal_lnn_AM2Hz_s55_33.m4a,,,,,,,,,,,,
,,,,,,,,,,,,41404,2021-10-11_14h37.24.737,judgeSpeechMusic_20210919_logNormShiftAmp_detection_fixFreq,2020.1.2,MacIntel,60,,,,,,,,,,,,,,,,,,1,6.0268,,0,0,69,69,16,1,stimuli/stim_20210919_power2amp/equal_lnn_AM2Hz_s25_6.m4a,,,,,,,,,,,,
,,,,,,,,,,,,41404,2021-10-11_14h37.24.737,judgeSpeechMusic_20210919_logNormShiftAmp_detection_fixFreq,2020.1.2,MacIntel,60,,,,,,,,,,,,,,,,,,1,7.8869,,0,0,70,70,24,1,stimuli/stim_20210919_power2amp/equal_lnn_AM2Hz_s25_32.m4a,,,,,,,,,,,,
,,,,,,,,,,,,41404,2021-10-11_14h37.24.737,judgeSpeechMusic_20210919_logNormShiftAmp_detection_fixFreq,2020.1.2,MacIntel,60,,,,,,,,,,,,,,,,,,2,6.1057,,0,0,71,71,6,1,stimuli/stim_20210919_power2amp/equal_lnn_AM2Hz_s15_11.m4a,,,,,,,,,,,,
,,,,,,,,,,,,41404,2021-10-11_14h37.24.737,judgeSpeechMusic_20210919_logNormShiftAmp_detection_fixFreq,2020.1.2,MacIntel,60,,,,,,,,,,,,,,,,,,1,6.0204,,0,0,72,72,72,1,stimuli/stim_20210919_power2amp/equal_lnn_AM2Hz_s55_40.m4a,,,,,,,,,,,,
,,,,,,,,,,,,41404,2021-10-11_14h37.24.737,judgeSpeechMusic_20210919_logNormShiftAmp_detection_fixFreq,2020.1.2,MacIntel,60,,,,,,,,,,,,,,,,,,2,6.5305,,0,0,73,73,25,1,stimuli/stim_20210919_power2amp/equal_lnn_AM2Hz_s25_38.m4a,,,,,,,,,,,,
,,,,,,,,,,,,41404,2021-10-11_14h37.24.737,judgeSpeechMusic_20210919_logNormShiftAmp_detection_fixFreq,2020.1.2,MacIntel,60,,,,,,,,,,,,,,,,,,2,6.7447,,0,0,74,74,59,1,stimuli/stim_20210919_power2amp/equal_lnn_AM2Hz_s45_48.m4a,,,,,,,,,,,,
,,,,,,,,,,,,41404,2021-10-11_14h37.24.737,judgeSpeechMusic_20210919_logNormShiftAmp_detection_fixFreq,2020.1.2,MacIntel,60,,,,,,,,,,,,,,,,,,,,,,,,,,,,,space,1.0413,0,0,0,1,1,SPEECH,stimuli/SPEECH.jpg,,
,,,,,,,,,,,,41404,2021-10-11_14h37.24.737,judgeSpeechMusic_20210919_logNormShiftAmp_detection_fixFreq,2020.1.2,MacIntel,60,space,0.5674,2,7.1087,,0,0,0,0,2,1,stimuli/stim_20210919_power2amp/equal_lnn_AM_training2Hz_s40.m4a,,,,,,,,,,,,,,,,,,,,,,,,,,,
,,,,,,,,,,,,41404,2021-10-11_14h37.24.737,judgeSpeechMusic_20210919_logNormShiftAmp_detection_fixFreq,2020.1.2,MacIntel,60,,,2,5.8372,,0,0,1,1,0,1,stimuli/stim_20210919_power2amp/equal_lnn_AM_training2Hz_s20.m4a,,,,,,,,,,,,,,,,,,,,,,,,,,,
,,,,,,,,,,,,41404,2021-10-11_14h37.24.737,judgeSpeechMusic_20210919_logNormShiftAmp_detection_fixFreq,2020.1.2,MacIntel,60,,,1,5.7523,4,1,0,2,2,1,1,stimuli/stim_20210919_power2amp/equal_lnn_AM_training2Hz_s30.m4a,1.8774,,,,,,,,,,,,,,,,,,,,,,,,,,
,,,,,,,,,,,,41404,2021-10-11_14h37.24.737,judgeSpeechMusic_20210919_logNormShiftAmp_detection_fixFreq,2020.1.2,MacIntel,60,,,1,5.9686,,0,0,3,3,3,1,stimuli/stim_20210919_power2amp/equal_lnn_AM_training2Hz_s50.m4a,,,,,,,,,,,,,,,,,,,,,,,,,,,
,,,,,,,,,,,,41404,2021-10-11_14h37.24.737,judgeSpeechMusic_20210919_logNormShiftAmp_detection_fixFreq,2020.1.2,MacIntel,60,,,,,,,,,,,,,,space,4.8292,space,1.5368,1,5.7974,,0,0,0,0,68,1,stimuli/stim_20210919_power2amp/equal_lnn_AM2Hz_s55_42.m4a,,,,,,,,,,,,
,,,,,,,,,,,,41404,2021-10-11_14h37.24.737,judgeSpeechMusic_20210919_logNormShiftAmp_detection_fixFreq,2020.1.2,MacIntel,60,,,,,,,,,,,,,,,,,,1,6.6472,,0,0,1,1,56,1,stimuli/stim_20210919_power2amp/equal_lnn_AM2Hz_s45_10.m4a,,,,,,,,,,,,
,,,,,,,,,,,,41404,2021-10-11_14h37.24.737,judgeSpeechMusic_20210919_logNormShiftAmp_detection_fixFreq,2020.1.2,MacIntel,60,,,,,,,,,,,,,,,,,,2,6.0514,,0,0,2,2,53,1,stimuli/stim_20210919_power2amp/equal_lnn_AM2Hz_s45_44.m4a,,,,,,,,,,,,
,,,,,,,,,,,,41404,2021-10-11_14h37.24.737,judgeSpeechMusic_20210919_logNormShiftAmp_detection_fixFreq,2020.1.2,MacIntel,60,,,,,,,,,,,,,,,,,,2,5.8979,,0,0,3,3,33,1,stimuli/stim_20210919_power2amp/equal_lnn_AM2Hz_s35_40.m4a,,,,,,,,,,,,
,,,,,,,,,,,,41404,2021-10-11_14h37.24.737,judgeSpeechMusic_20210919_logNormShiftAmp_detection_fixFreq,2020.1.2,MacIntel,60,,,,,,,,,,,,,,,,,,2,6.0231,,0,0,4,4,52,1,stimuli/stim_20210919_power2amp/equal_lnn_AM2Hz_s45_27.m4a,,,,,,,,,,,,
,,,,,,,,,,,,41404,2021-10-11_14h37.24.737,judgeSpeechMusic_20210919_logNormShiftAmp_detection_fixFreq,2020.1.2,MacIntel,60,,,,,,,,,,,,,,,,,,2,6.8972,,0,0,5,5,19,1,stimuli/stim_20210919_power2amp/equal_lnn_AM2Hz_s25_16.m4a,,,,,,,,,,,,
,,,,,,,,,,,,41404,2021-10-11_14h37.24.737,judgeSpeechMusic_20210919_logNormShiftAmp_detection_fixFreq,2020.1.2,MacIntel,60,,,,,,,,,,,,,,,,,,2,6.1218,,0,0,6,6,4,1,stimuli/stim_20210919_power2amp/equal_lnn_AM2Hz_s15_10.m4a,,,,,,,,,,,,
,,,,,,,,,,,,41404,2021-10-11_14h37.24.737,judgeSpeechMusic_20210919_logNormShiftAmp_detection_fixFreq,2020.1.2,MacIntel,60,,,,,,,,,,,,,,,,,,1,6.4915,,0,0,7,7,25,1,stimuli/stim_20210919_power2amp/equal_lnn_AM2Hz_s25_38.m4a,,,,,,,,,,,,
,,,,,,,,,,,,41404,2021-10-11_14h37.24.737,judgeSpeechMusic_20210919_logNormShiftAmp_detection_fixFreq,2020.1.2,MacIntel,60,,,,,,,,,,,,,,,,,,1,7.4206,,0,0,8,8,26,1,stimuli/stim_20210919_power2amp/equal_lnn_AM2Hz_s25_43.m4a,,,,,,,,,,,,
,,,,,,,,,,,,41404,2021-10-11_14h37.24.737,judgeSpeechMusic_20210919_logNormShiftAmp_detection_fixFreq,2020.1.2,MacIntel,60,,,,,,,,,,,,,,,,,,2,5.887,,0,0,9,9,72,1,stimuli/stim_20210919_power2amp/equal_lnn_AM2Hz_s55_40.m4a,,,,,,,,,,,,
,,,,,,,,,,,,41404,2021-10-11_14h37.24.737,judgeSpeechMusic_20210919_logNormShiftAmp_detection_fixFreq,2020.1.2,MacIntel,60,,,,,,,,,,,,,,,,,,1,7.6665,,0,0,10,10,43,1,stimuli/stim_20210919_power2amp/equal_lnn_AM2Hz_s35_35.m4a,,,,,,,,,,,,
,,,,,,,,,,,,41404,2021-10-11_14h37.24.737,judgeSpeechMusic_20210919_logNormShiftAmp_detection_fixFreq,2020.1.2,MacIntel,60,,,,,,,,,,,,,,,,,,1,6.87,,0,0,11,11,21,1,stimuli/stim_20210919_power2amp/equal_lnn_AM2Hz_s25_17.m4a,,,,,,,,,,,,
,,,,,,,,,,,,41404,2021-10-11_14h37.24.737,judgeSpeechMusic_20210919_logNormShiftAmp_detection_fixFreq,2020.1.2,MacIntel,60,,,,,,,,,,,,,,,,,,2,7.1862,,0,0,12,12,31,1,stimuli/stim_20210919_power2amp/equal_lnn_AM2Hz_s35_3.m4a,,,,,,,,,,,,
,,,,,,,,,,,,41404,2021-10-11_14h37.24.737,judgeSpeechMusic_20210919_logNormShiftAmp_detection_fixFreq,2020.1.2,MacIntel,60,,,,,,,,,,,,,,,,,,1,7.0945,,0,0,13,13,13,1,stimuli/stim_20210919_power2amp/equal_lnn_AM2Hz_s15_6.m4a,,,,,,,,,,,,
,,,,,,,,,,,,41404,2021-10-11_14h37.24.737,judgeSpeechMusic_20210919_logNormShiftAmp_detection_fixFreq,2020.1.2,MacIntel,60,,,,,,,,,,,,,,,,,,1,6.096,,0,0,14,14,57,1,stimuli/stim_20210919_power2amp/equal_lnn_AM2Hz_s45_14.m4a,,,,,,,,,,,,
,,,,,,,,,,,,41404,2021-10-11_14h37.24.737,judgeSpeechMusic_20210919_logNormShiftAmp_detection_fixFreq,2020.1.2,MacIntel,60,,,,,,,,,,,,,,,,,,2,6.6652,,0,0,15,15,15,1,stimuli/stim_20210919_power2amp/equal_lnn_AM2Hz_s25_45.m4a,,,,,,,,,,,,
,,,,,,,,,,,,41404,2021-10-11_14h37.24.737,judgeSpeechMusic_20210919_logNormShiftAmp_detection_fixFreq,2020.1.2,MacIntel,60,,,,,,,,,,,,,,,,,,2,7.0401,,0,0,16,16,16,1,stimuli/stim_20210919_power2amp/equal_lnn_AM2Hz_s25_6.m4a,,,,,,,,,,,,
,,,,,,,,,,,,41404,2021-10-11_14h37.24.737,judgeSpeechMusic_20210919_logNormShiftAmp_detection_fixFreq,2020.1.2,MacIntel,60,,,,,,,,,,,,,,,,,,2,9.5645,,0,0,17,17,34,1,stimuli/stim_20210919_power2amp/equal_lnn_AM2Hz_s35_13.m4a,,,,,,,,,,,,
,,,,,,,,,,,,41404,2021-10-11_14h37.24.737,judgeSpeechMusic_20210919_logNormShiftAmp_detection_fixFreq,2020.1.2,MacIntel,60,,,,,,,,,,,,,,,,,,1,7.3348,,0,0,18,18,63,1,stimuli/stim_20210919_power2amp/equal_lnn_AM2Hz_s55_28.m4a,,,,,,,,,,,,
,,,,,,,,,,,,41404,2021-10-11_14h37.24.737,judgeSpeechMusic_20210919_logNormShiftAmp_detection_fixFreq,2020.1.2,MacIntel,60,,,,,,,,,,,,,,,,,,2,9.1257,,0,0,19,19,73,1,stimuli/stim_20210919_power2amp/equal_lnn_AM2Hz_s55_41.m4a,,,,,,,,,,,,
,,,,,,,,,,,,41404,2021-10-11_14h37.24.737,judgeSpeechMusic_20210919_logNormShiftAmp_detection_fixFreq,2020.1.2,MacIntel,60,,,,,,,,,,,,,,,,,,1,6.4869,,0,0,20,20,45,1,stimuli/stim_20210919_power2amp/equal_lnn_AM2Hz_s45_6.m4a,,,,,,,,,,,,
,,,,,,,,,,,,41404,2021-10-11_14h37.24.737,judgeSpeechMusic_20210919_logNormShiftAmp_detection_fixFreq,2020.1.2,MacIntel,60,,,,,,,,,,,,,,,,,,2,6.3985,,0,0,21,21,0,1,stimuli/stim_20210919_power2amp/equal_lnn_AM2Hz_s15_24.m4a,,,,,,,,,,,,
,,,,,,,,,,,,41404,2021-10-11_14h37.24.737,judgeSpeechMusic_20210919_logNormShiftAmp_detection_fixFreq,2020.1.2,MacIntel,60,,,,,,,,,,,,,,,,,,1,11.611,3,1,0,22,22,62,1,stimuli/stim_20210919_power2amp/equal_lnn_AM2Hz_s55_39.m4a,2.0621,,,,,,,,,,,
,,,,,,,,,,,,41404,2021-10-11_14h37.24.737,judgeSpeechMusic_20210919_logNormShiftAmp_detection_fixFreq,2020.1.2,MacIntel,60,,,,,,,,,,,,,,,,,,1,6.203,,0,0,23,23,27,1,stimuli/stim_20210919_power2amp/equal_lnn_AM2Hz_s25_44.m4a,,,,,,,,,,,,
,,,,,,,,,,,,41404,2021-10-11_14h37.24.737,judgeSpeechMusic_20210919_logNormShiftAmp_detection_fixFreq,2020.1.2,MacIntel,60,,,,,,,,,,,,,,,,,,2,5.7204,,0,0,24,24,12,1,stimuli/stim_20210919_power2amp/equal_lnn_AM2Hz_s15_23.m4a,,,,,,,,,,,,
,,,,,,,,,,,,41404,2021-10-11_14h37.24.737,judgeSpeechMusic_20210919_logNormShiftAmp_detection_fixFreq,2020.1.2,MacIntel,60,,,,,,,,,,,,,,,,,,2,8.3036,,0,0,25,25,22,1,stimuli/stim_20210919_power2amp/equal_lnn_AM2Hz_s25_25.m4a,,,,,,,,,,,,
,,,,,,,,,,,,41404,2021-10-11_14h37.24.737,judgeSpeechMusic_20210919_logNormShiftAmp_detection_fixFreq,2020.1.2,MacIntel,60,,,,,,,,,,,,,,,,,,2,5.9893,,0,0,26,26,61,1,stimuli/stim_20210919_power2amp/equal_lnn_AM2Hz_s55_30.m4a,,,,,,,,,,,,
,,,,,,,,,,,,41404,2021-10-11_14h37.24.737,judgeSpeechMusic_20210919_logNormShiftAmp_detection_fixFreq,2020.1.2,MacIntel,60,,,,,,,,,,,,,,,,,,2,7.2207,,0,0,27,27,46,1,stimuli/stim_20210919_power2amp/equal_lnn_AM2Hz_s45_49.m4a,,,,,,,,,,,,
,,,,,,,,,,,,41404,2021-10-11_14h37.24.737,judgeSpeechMusic_20210919_logNormShiftAmp_detection_fixFreq,2020.1.2,MacIntel,60,,,,,,,,,,,,,,,,,,1,6.0226,,0,0,28,28,70,1,stimuli/stim_20210919_power2amp/equal_lnn_AM2Hz_s55_20.m4a,,,,,,,,,,,,
,,,,,,,,,,,,41404,2021-10-11_14h37.24.737,judgeSpeechMusic_20210919_logNormShiftAmp_detection_fixFreq,2020.1.2,MacIntel,60,,,,,,,,,,,,,,,,,,1,5.6892,,0,0,29,29,47,1,stimuli/stim_20210919_power2amp/equal_lnn_AM2Hz_s45_13.m4a,,,,,,,,,,,,
,,,,,,,,,,,,41404,2021-10-11_14h37.24.737,judgeSpeechMusic_20210919_logNormShiftAmp_detection_fixFreq,2020.1.2,MacIntel,60,,,,,,,,,,,,,,,,,,1,5.9593,,0,0,30,30,69,1,stimuli/stim_20210919_power2amp/equal_lnn_AM2Hz_s55_7.m4a,,,,,,,,,,,,
,,,,,,,,,,,,41404,2021-10-11_14h37.24.737,judgeSpeechMusic_20210919_logNormShiftAmp_detection_fixFreq,2020.1.2,MacIntel,60,,,,,,,,,,,,,,,,,,1,6.0437,,0,0,31,31,74,1,stimuli/stim_20210919_power2amp/equal_lnn_AM2Hz_s55_3.m4a,,,,,,,,,,,,
,,,,,,,,,,,,41404,2021-10-11_14h37.24.737,judgeSpeechMusic_20210919_logNormShiftAmp_detection_fixFreq,2020.1.2,MacIntel,60,,,,,,,,,,,,,,,,,,2,6.1762,,0,0,32,32,54,1,stimuli/stim_20210919_power2amp/equal_lnn_AM2Hz_s45_22.m4a,,,,,,,,,,,,
,,,,,,,,,,,,41404,2021-10-11_14h37.24.737,judgeSpeechMusic_20210919_logNormShiftAmp_detection_fixFreq,2020.1.2,MacIntel,60,,,,,,,,,,,,,,,,,,1,6.3644,,0,0,33,33,58,1,stimuli/stim_20210919_power2amp/equal_lnn_AM2Hz_s45_2.m4a,,,,,,,,,,,,
,,,,,,,,,,,,41404,2021-10-11_14h37.24.737,judgeSpeechMusic_20210919_logNormShiftAmp_detection_fixFreq,2020.1.2,MacIntel,60,,,,,,,,,,,,,,,,,,1,6.3055,,0,0,34,34,32,1,stimuli/stim_20210919_power2amp/equal_lnn_AM2Hz_s35_28.m4a,,,,,,,,,,,,
,,,,,,,,,,,,41404,2021-10-11_14h37.24.737,judgeSpeechMusic_20210919_logNormShiftAmp_detection_fixFreq,2020.1.2,MacIntel,60,,,,,,,,,,,,,,,,,,1,5.972,,0,0,35,35,41,1,stimuli/stim_20210919_power2amp/equal_lnn_AM2Hz_s35_7.m4a,,,,,,,,,,,,
,,,,,,,,,,,,41404,2021-10-11_14h37.24.737,judgeSpeechMusic_20210919_logNormShiftAmp_detection_fixFreq,2020.1.2,MacIntel,60,,,,,,,,,,,,,,,,,,1,6.1426,,0,0,36,36,2,1,stimuli/stim_20210919_power2amp/equal_lnn_AM2Hz_s15_14.m4a,,,,,,,,,,,,
,,,,,,,,,,,,41404,2021-10-11_14h37.24.737,judgeSpeechMusic_20210919_logNormShiftAmp_detection_fixFreq,2020.1.2,MacIntel,60,,,,,,,,,,,,,,,,,,1,5.9126,,0,0,37,37,10,1,stimuli/stim_20210919_power2amp/equal_lnn_AM2Hz_s15_20.m4a,,,,,,,,,,,,
,,,,,,,,,,,,41404,2021-10-11_14h37.24.737,judgeSpeechMusic_20210919_logNormShiftAmp_detection_fixFreq,2020.1.2,MacIntel,60,,,,,,,,,,,,,,,,,,2,7.0378,,0,0,38,38,51,1,stimuli/stim_20210919_power2amp/equal_lnn_AM2Hz_s45_11.m4a,,,,,,,,,,,,
,,,,,,,,,,,,41404,2021-10-11_14h37.24.737,judgeSpeechMusic_20210919_logNormShiftAmp_detection_fixFreq,2020.1.2,MacIntel,60,,,,,,,,,,,,,,,,,,2,6.5226,,0,0,39,39,18,1,stimuli/stim_20210919_power2amp/equal_lnn_AM2Hz_s25_23.m4a,,,,,,,,,,,,
,,,,,,,,,,,,41404,2021-10-11_14h37.24.737,judgeSpeechMusic_20210919_logNormShiftAmp_detection_fixFreq,2020.1.2,MacIntel,60,,,,,,,,,,,,,,,,,,1,8.8033,3,1,0,40,40,66,1,stimuli/stim_20210919_power2amp/equal_lnn_AM2Hz_s55_29.m4a,1.4817,,,,,,,,,,,
,,,,,,,,,,,,41404,2021-10-11_14h37.24.737,judgeSpeechMusic_20210919_logNormShiftAmp_detection_fixFreq,2020.1.2,MacIntel,60,,,,,,,,,,,,,,,,,,1,7.436,,0,0,41,41,5,1,stimuli/stim_20210919_power2amp/equal_lnn_AM2Hz_s15_5.m4a,,,,,,,,,,,,
,,,,,,,,,,,,41404,2021-10-11_14h37.24.737,judgeSpeechMusic_20210919_logNormShiftAmp_detection_fixFreq,2020.1.2,MacIntel,60,,,,,,,,,,,,,,,,,,2,8.1711,,0,0,42,42,50,1,stimuli/stim_20210919_power2amp/equal_lnn_AM2Hz_s45_35.m4a,,,,,,,,,,,,
,,,,,,,,,,,,41404,2021-10-11_14h37.24.737,judgeSpeechMusic_20210919_logNormShiftAmp_detection_fixFreq,2020.1.2,MacIntel,60,,,,,,,,,,,,,,,,,,1,6.47,,0,0,43,43,1,1,stimuli/stim_20210919_power2amp/equal_lnn_AM2Hz_s15_42.m4a,,,,,,,,,,,,
,,,,,,,,,,,,41404,2021-10-11_14h37.24.737,judgeSpeechMusic_20210919_logNormShiftAmp_detection_fixFreq,2020.1.2,MacIntel,60,,,,,,,,,,,,,,,,,,2,7.8698,,0,0,44,44,39,1,stimuli/stim_20210919_power2amp/equal_lnn_AM2Hz_s35_23.m4a,,,,,,,,,,,,
,,,,,,,,,,,,41404,2021-10-11_14h37.24.737,judgeSpeechMusic_20210919_logNormShiftAmp_detection_fixFreq,2020.1.2,MacIntel,60,,,,,,,,,,,,,,,,,,1,5.7251,,0,0,45,45,29,1,stimuli/stim_20210919_power2amp/equal_lnn_AM2Hz_s25_22.m4a,,,,,,,,,,,,
,,,,,,,,,,,,41404,2021-10-11_14h37.24.737,judgeSpeechMusic_20210919_logNormShiftAmp_detection_fixFreq,2020.1.2,MacIntel,60,,,,,,,,,,,,,,,,,,1,6.3471,,0,0,46,46,6,1,stimuli/stim_20210919_power2amp/equal_lnn_AM2Hz_s15_11.m4a,,,,,,,,,,,,
,,,,,,,,,,,,41404,2021-10-11_14h37.24.737,judgeSpeechMusic_20210919_logNormShiftAmp_detection_fixFreq,2020.1.2,MacIntel,60,,,,,,,,,,,,,,,,,,2,7.2766,,0,0,47,47,14,1,stimuli/stim_20210919_power2amp/equal_lnn_AM2Hz_s15_45.m4a,,,,,,,,,,,,
,,,,,,,,,,,,41404,2021-10-11_14h37.24.737,judgeSpeechMusic_20210919_logNormShiftAmp_detection_fixFreq,2020.1.2,MacIntel,60,,,,,,,,,,,,,,,,,,1,6.3351,,0,0,48,48,35,1,stimuli/stim_20210919_power2amp/equal_lnn_AM2Hz_s35_44.m4a,,,,,,,,,,,,
,,,,,,,,,,,,41404,2021-10-11_14h37.24.737,judgeSpeechMusic_20210919_logNormShiftAmp_detection_fixFreq,2020.1.2,MacIntel,60,,,,,,,,,,,,,,,,,,2,7.2647,,0,0,49,49,48,1,stimuli/stim_20210919_power2amp/equal_lnn_AM2Hz_s45_20.m4a,,,,,,,,,,,,
,,,,,,,,,,,,41404,2021-10-11_14h37.24.737,judgeSpeechMusic_20210919_logNormShiftAmp_detection_fixFreq,2020.1.2,MacIntel,60,,,,,,,,,,,,,,,,,,2,5.8569,,0,0,50,50,11,1,stimuli/stim_20210919_power2amp/equal_lnn_AM2Hz_s15_26.m4a,,,,,,,,,,,,
,,,,,,,,,,,,41404,2021-10-11_14h37.24.737,judgeSpeechMusic_20210919_logNormShiftAmp_detection_fixFreq,2020.1.2,MacIntel,60,,,,,,,,,,,,,,,,,,1,7.1477,,0,0,51,51,36,1,stimuli/stim_20210919_power2amp/equal_lnn_AM2Hz_s35_11.m4a,,,,,,,,,,,,
,,,,,,,,,,,,41404,2021-10-11_14h37.24.737,judgeSpeechMusic_20210919_logNormShiftAmp_detection_fixFreq,2020.1.2,MacIntel,60,,,,,,,,,,,,,,,,,,1,5.7532,,0,0,52,52,44,1,stimuli/stim_20210919_power2amp/equal_lnn_AM2Hz_s35_20.m4a,,,,,,,,,,,,
,,,,,,,,,,,,41404,2021-10-11_14h37.24.737,judgeSpeechMusic_20210919_logNormShiftAmp_detection_fixFreq,2020.1.2,MacIntel,60,,,,,,,,,,,,,,,,,,1,5.7888,,0,0,53,53,3,1,stimuli/stim_20210919_power2amp/equal_lnn_AM2Hz_s15_49.m4a,,,,,,,,,,,,
,,,,,,,,,,,,41404,2021-10-11_14h37.24.737,judgeSpeechMusic_20210919_logNormShiftAmp_detection_fixFreq,2020.1.2,MacIntel,60,,,,,,,,,,,,,,,,,,1,5.9372,,0,0,54,54,64,1,stimuli/stim_20210919_power2amp/equal_lnn_AM2Hz_s55_11.m4a,,,,,,,,,,,,
,,,,,,,,,,,,41404,2021-10-11_14h37.24.737,judgeSpeechMusic_20210919_logNormShiftAmp_detection_fixFreq,2020.1.2,MacIntel,60,,,,,,,,,,,,,,,,,,2,7.2223,,0,0,55,55,17,1,stimuli/stim_20210919_power2amp/equal_lnn_AM2Hz_s25_18.m4a,,,,,,,,,,,,
,,,,,,,,,,,,41404,2021-10-11_14h37.24.737,judgeSpeechMusic_20210919_logNormShiftAmp_detection_fixFreq,2020.1.2,MacIntel,60,,,,,,,,,,,,,,,,,,2,6.52,,0,0,56,56,65,1,stimuli/stim_20210919_power2amp/equal_lnn_AM2Hz_s55_33.m4a,,,,,,,,,,,,
,,,,,,,,,,,,41404,2021-10-11_14h37.24.737,judgeSpeechMusic_20210919_logNormShiftAmp_detection_fixFreq,2020.1.2,MacIntel,60,,,,,,,,,,,,,,,,,,2,6.0697,,0,0,57,57,60,1,stimuli/stim_20210919_power2amp/equal_lnn_AM2Hz_s55_22.m4a,,,,,,,,,,,,
,,,,,,,,,,,,41404,2021-10-11_14h37.24.737,judgeSpeechMusic_20210919_logNormShiftAmp_detection_fixFreq,2020.1.2,MacIntel,60,,,,,,,,,,,,,,,,,,2,5.761,,0,0,58,58,7,1,stimuli/stim_20210919_power2amp/equal_lnn_AM2Hz_s15_21.m4a,,,,,,,,,,,,
,,,,,,,,,,,,41404,2021-10-11_14h37.24.737,judgeSpeechMusic_20210919_logNormShiftAmp_detection_fixFreq,2020.1.2,MacIntel,60,,,,,,,,,,,,,,,,,,1,6.3968,,0,0,59,59,28,1,stimuli/stim_20210919_power2amp/equal_lnn_AM2Hz_s25_1.m4a,,,,,,,,,,,,
,,,,,,,,,,,,41404,2021-10-11_14h37.24.737,judgeSpeechMusic_20210919_logNormShiftAmp_detection_fixFreq,2020.1.2,MacIntel,60,,,,,,,,,,,,,,,,,,1,7.1726,1,1,0,60,60,20,1,stimuli/stim_20210919_power2amp/equal_lnn_AM2Hz_s25_2.m4a,2.0062,,,,,,,,,,,
,,,,,,,,,,,,41404,2021-10-11_14h37.24.737,judgeSpeechMusic_20210919_logNormShiftAmp_detection_fixFreq,2020.1.2,MacIntel,60,,,,,,,,,,,,,,,,,,1,5.854,,0,0,61,61,55,1,stimuli/stim_20210919_power2amp/equal_lnn_AM2Hz_s45_28.m4a,,,,,,,,,,,,
,,,,,,,,,,,,41404,2021-10-11_14h37.24.737,judgeSpeechMusic_20210919_logNormShiftAmp_detection_fixFreq,2020.1.2,MacIntel,60,,,,,,,,,,,,,,,,,,1,6.0549,,0,0,62,62,67,1,stimuli/stim_20210919_power2amp/equal_lnn_AM2Hz_s55_48.m4a,,,,,,,,,,,,
,,,,,,,,,,,,41404,2021-10-11_14h37.24.737,judgeSpeechMusic_20210919_logNormShiftAmp_detection_fixFreq,2020.1.2,MacIntel,60,,,,,,,,,,,,,,,,,,2,6.0883,,0,0,63,63,30,1,stimuli/stim_20210919_power2amp/equal_lnn_AM2Hz_s35_22.m4a,,,,,,,,,,,,
,,,,,,,,,,,,41404,2021-10-11_14h37.24.737,judgeSpeechMusic_20210919_logNormShiftAmp_detection_fixFreq,2020.1.2,MacIntel,60,,,,,,,,,,,,,,,,,,2,5.9861,,0,0,64,64,71,1,stimuli/stim_20210919_power2amp/equal_lnn_AM2Hz_s55_15.m4a,,,,,,,,,,,,
,,,,,,,,,,,,41404,2021-10-11_14h37.24.737,judgeSpeechMusic_20210919_logNormShiftAmp_detection_fixFreq,2020.1.2,MacIntel,60,,,,,,,,,,,,,,,,,,2,5.9126,,0,0,65,65,24,1,stimuli/stim_20210919_power2amp/equal_lnn_AM2Hz_s25_32.m4a,,,,,,,,,,,,
,,,,,,,,,,,,41404,2021-10-11_14h37.24.737,judgeSpeechMusic_20210919_logNormShiftAmp_detection_fixFreq,2020.1.2,MacIntel,60,,,,,,,,,,,,,,,,,,1,5.6372,,0,0,66,66,59,1,stimuli/stim_20210919_power2amp/equal_lnn_AM2Hz_s45_48.m4a,,,,,,,,,,,,
,,,,,,,,,,,,41404,2021-10-11_14h37.24.737,judgeSpeechMusic_20210919_logNormShiftAmp_detection_fixFreq,2020.1.2,MacIntel,60,,,,,,,,,,,,,,,,,,2,5.8894,,0,0,67,67,49,1,stimuli/stim_20210919_power2amp/equal_lnn_AM2Hz_s45_46.m4a,,,,,,,,,,,,
,,,,,,,,,,,,41404,2021-10-11_14h37.24.737,judgeSpeechMusic_20210919_logNormShiftAmp_detection_fixFreq,2020.1.2,MacIntel,60,,,,,,,,,,,,,,,,,,1,6.0714,,0,0,68,68,9,1,stimuli/stim_20210919_power2amp/equal_lnn_AM2Hz_s15_38.m4a,,,,,,,,,,,,
,,,,,,,,,,,,41404,2021-10-11_14h37.24.737,judgeSpeechMusic_20210919_logNormShiftAmp_detection_fixFreq,2020.1.2,MacIntel,60,,,,,,,,,,,,,,,,,,1,6.2903,,0,0,69,69,40,1,stimuli/stim_20210919_power2amp/equal_lnn_AM2Hz_s35_5.m4a,,,,,,,,,,,,
,,,,,,,,,,,,41404,2021-10-11_14h37.24.737,judgeSpeechMusic_20210919_logNormShiftAmp_detection_fixFreq,2020.1.2,MacIntel,60,,,,,,,,,,,,,,,,,,1,5.969,,0,0,70,70,42,1,stimuli/stim_20210919_power2amp/equal_lnn_AM2Hz_s35_39.m4a,,,,,,,,,,,,
,,,,,,,,,,,,41404,2021-10-11_14h37.24.737,judgeSpeechMusic_20210919_logNormShiftAmp_detection_fixFreq,2020.1.2,MacIntel,60,,,,,,,,,,,,,,,,,,1,6.5591,,0,0,71,71,38,1,stimuli/stim_20210919_power2amp/equal_lnn_AM2Hz_s35_24.m4a,,,,,,,,,,,,
,,,,,,,,,,,,41404,2021-10-11_14h37.24.737,judgeSpeechMusic_20210919_logNormShiftAmp_detection_fixFreq,2020.1.2,MacIntel,60,,,,,,,,,,,,,,,,,,1,8.6235,,0,0,72,72,37,1,stimuli/stim_20210919_power2amp/equal_lnn_AM2Hz_s35_29.m4a,,,,,,,,,,,,
,,,,,,,,,,,,41404,2021-10-11_14h37.24.737,judgeSpeechMusic_20210919_logNormShiftAmp_detection_fixFreq,2020.1.2,MacIntel,60,,,,,,,,,,,,,,,,,,1,6.9454,,0,0,73,73,23,1,stimuli/stim_20210919_power2amp/equal_lnn_AM2Hz_s25_19.m4a,,,,,,,,,,,,
,,,,,,,,,,,,41404,2021-10-11_14h37.24.737,judgeSpeechMusic_20210919_logNormShiftAmp_detection_fixFreq,2020.1.2,MacIntel,60,,,,,,,,,,,,,,,,,,2,5.7476,,0,0,74,74,8,1,stimuli/stim_20210919_power2amp/equal_lnn_AM2Hz_s15_32.m4a,,,,,,,,,,,,
,,,,,,,,,,,,41404,2021-10-11_14h37.24.737,judgeSpeechMusic_20210919_logNormShiftAmp_detection_fixFreq,2020.1.2,MacIntel,60,,,,,,,,,,,,,,,,,,,,,,,,,,,,,space,1.0625,0,1,1,0,1,MUSIC,stimuli/MUSIC.jpg,,
,,,,,,,,,,,,41404,2021-10-11_14h37.24.737,judgeSpeechMusic_20210919_logNormShiftAmp_detection_fixFreq,2020.1.2,MacIntel,60,,,,,,0,0,0,0,3,1,stimuli/stim_20210919_power2amp/equal_lnn_AM_training2Hz_s50.m4a,,,,,,,,,,,,,,,,,,,,,,,,,,,
,,,,,,,,,,,,41404,2021-10-11_14h37.24.737,judgeSpeechMusic_20210919_logNormShiftAmp_detection_fixFreq,2020.1.2,MacIntel,60,,,,,,,,,,,,,,space,4.7835,space,1.3418,2,6.3598,,0,0,0,0,33,1,stimuli/stim_20210919_power2amp/equal_lnn_AM2Hz_s35_40.m4a,,,,,,,,,,,,
,,,,,,,,,,,,41404,2021-10-11_14h37.24.737,judgeSpeechMusic_20210919_logNormShiftAmp_detection_fixFreq,2020.1.2,MacIntel,60,,,,,,,,,,,,,,,,,,1,6.1014,,0,0,1,1,37,1,stimuli/stim_20210919_power2amp/equal_lnn_AM2Hz_s35_29.m4a,,,,,,,,,,,,
,,,,,,,,,,,,41404,2021-10-11_14h37.24.737,judgeSpeechMusic_20210919_logNormShiftAmp_detection_fixFreq,2020.1.2,MacIntel,60,,,,,,,,,,,,,,,,,,2,6.0411,,0,0,2,2,32,1,stimuli/stim_20210919_power2amp/equal_lnn_AM2Hz_s35_28.m4a,,,,,,,,,,,,
,,,,,,,,,,,,41404,2021-10-11_14h37.24.737,judgeSpeechMusic_20210919_logNormShiftAmp_detection_fixFreq,2020.1.2,MacIntel,60,,,,,,,,,,,,,,,,,,2,5.9712,,0,0,3,3,25,1,stimuli/stim_20210919_power2amp/equal_lnn_AM2Hz_s25_38.m4a,,,,,,,,,,,,
,,,,,,,,,,,,41404,2021-10-11_14h37.24.737,judgeSpeechMusic_20210919_logNormShiftAmp_detection_fixFreq,2020.1.2,MacIntel,60,,,,,,,,,,,,,,,,,,2,6.9697,,0,0,4,4,14,1,stimuli/stim_20210919_power2amp/equal_lnn_AM2Hz_s15_45.m4a,,,,,,,,,,,,
,,,,,,,,,,,,41404,2021-10-11_14h37.24.737,judgeSpeechMusic_20210919_logNormShiftAmp_detection_fixFreq,2020.1.2,MacIntel,60,,,,,,,,,,,,,,,,,,1,5.8033,,0,0,5,5,46,1,stimuli/stim_20210919_power2amp/equal_lnn_AM2Hz_s45_49.m4a,,,,,,,,,,,,
,,,,,,,,,,,,41404,2021-10-11_14h37.24.737,judgeSpeechMusic_20210919_logNormShiftAmp_detection_fixFreq,2020.1.2,MacIntel,60,,,,,,,,,,,,,,,,,,1,6.0919,,0,0,6,6,42,1,stimuli/stim_20210919_power2amp/equal_lnn_AM2Hz_s35_39.m4a,,,,,,,,,,,,
,,,,,,,,,,,,41404,2021-10-11_14h37.24.737,judgeSpeechMusic_20210919_logNormShiftAmp_detection_fixFreq,2020.1.2,MacIntel,60,,,,,,,,,,,,,,,,,,1,6.0374,,0,0,7,7,50,1,stimuli/stim_20210919_power2amp/equal_lnn_AM2Hz_s45_35.m4a,,,,,,,,,,,,
,,,,,,,,,,,,41404,2021-10-11_14h37.24.737,judgeSpeechMusic_20210919_logNormShiftAmp_detection_fixFreq,2020.1.2,MacIntel,60,,,,,,,,,,,,,,,,,,2,6.7939,,0,0,8,8,41,1,stimuli/stim_20210919_power2amp/equal_lnn_AM2Hz_s35_7.m4a,,,,,,,,,,,,
,,,,,,,,,,,,41404,2021-10-11_14h37.24.737,judgeSpeechMusic_20210919_logNormShiftAmp_detection_fixFreq,2020.1.2,MacIntel,60,,,,,,,,,,,,,,,,,,1,5.7886,,0,0,9,9,61,1,stimuli/stim_20210919_power2amp/equal_lnn_AM2Hz_s55_30.m4a,,,,,,,,,,,,
,,,,,,,,,,,,41404,2021-10-11_14h37.24.737,judgeSpeechMusic_20210919_logNormShiftAmp_detection_fixFreq,2020.1.2,MacIntel,60,,,,,,,,,,,,,,,,,,1,5.9711,,0,0,10,10,24,1,stimuli/stim_20210919_power2amp/equal_lnn_AM2Hz_s25_32.m4a,,,,,,,,,,,,
,,,,,,,,,,,,41404,2021-10-11_14h37.24.737,judgeSpeechMusic_20210919_logNormShiftAmp_detection_fixFreq,2020.1.2,MacIntel,60,,,,,,,,,,,,,,,,,,2,5.8364,,0,0,11,11,73,1,stimuli/stim_20210919_power2amp/equal_lnn_AM2Hz_s55_41.m4a,,,,,,,,,,,,
,,,,,,,,,,,,41404,2021-10-11_14h37.24.737,judgeSpeechMusic_20210919_logNormShiftAmp_detection_fixFreq,2020.1.2,MacIntel,60,,,,,,,,,,,,,,,,,,1,5.6542,,0,0,12,12,22,1,stimuli/stim_20210919_power2amp/equal_lnn_AM2Hz_s25_25.m4a,,,,,,,,,,,,
,,,,,,,,,,,,41404,2021-10-11_14h37.24.737,judgeSpeechMusic_20210919_logNormShiftAmp_detection_fixFreq,2020.1.2,MacIntel,60,,,,,,,,,,,,,,,,,,2,5.6303,,0,0,13,13,12,1,stimuli/stim_20210919_power2amp/equal_lnn_AM2Hz_s15_23.m4a,,,,,,,,,,,,
,,,,,,,,,,,,41404,2021-10-11_14h37.24.737,judgeSpeechMusic_20210919_logNormShiftAmp_detection_fixFreq,2020.1.2,MacIntel,60,,,,,,,,,,,,,,,,,,2,5.7945,,0,0,14,14,35,1,stimuli/stim_20210919_power2amp/equal_lnn_AM2Hz_s35_44.m4a,,,,,,,,,,,,
,,,,,,,,,,,,41404,2021-10-11_14h37.24.737,judgeSpeechMusic_20210919_logNormShiftAmp_detection_fixFreq,2020.1.2,MacIntel,60,,,,,,,,,,,,,,,,,,2,6.4713,,0,0,15,15,3,1,stimuli/stim_20210919_power2amp/equal_lnn_AM2Hz_s15_49.m4a,,,,,,,,,,,,
,,,,,,,,,,,,41404,2021-10-11_14h37.24.737,judgeSpeechMusic_20210919_logNormShiftAmp_detection_fixFreq,2020.1.2,MacIntel,60,,,,,,,,,,,,,,,,,,1,7.0599,,0,0,16,16,29,1,stimuli/stim_20210919_power2amp/equal_lnn_AM2Hz_s25_22.m4a,,,,,,,,,,,,
,,,,,,,,,,,,41404,2021-10-11_14h37.24.737,judgeSpeechMusic_20210919_logNormShiftAmp_detection_fixFreq,2020.1.2,MacIntel,60,,,,,,,,,,,,,,,,,,1,6.4892,,0,0,17,17,66,1,stimuli/stim_20210919_power2amp/equal_lnn_AM2Hz_s55_29.m4a,,,,,,,,,,,,
,,,,,,,,,,,,41404,2021-10-11_14h37.24.737,judgeSpeechMusic_20210919_logNormShiftAmp_detection_fixFreq,2020.1.2,MacIntel,60,,,,,,,,,,,,,,,,,,1,7.2935,,0,0,18,18,74,1,stimuli/stim_20210919_power2amp/equal_lnn_AM2Hz_s55_3.m4a,,,,,,,,,,,,
,,,,,,,,,,,,41404,2021-10-11_14h37.24.737,judgeSpeechMusic_20210919_logNormShiftAmp_detection_fixFreq,2020.1.2,MacIntel,60,,,,,,,,,,,,,,,,,,2,6.248,,0,0,19,19,56,1,stimuli/stim_20210919_power2amp/equal_lnn_AM2Hz_s45_10.m4a,,,,,,,,,,,,
,,,,,,,,,,,,41404,2021-10-11_14h37.24.737,judgeSpeechMusic_20210919_logNormShiftAmp_detection_fixFreq,2020.1.2,MacIntel,60,,,,,,,,,,,,,,,,,,1,6.277,,0,0,20,20,1,1,stimuli/stim_20210919_power2amp/equal_lnn_AM2Hz_s15_42.m4a,,,,,,,,,,,,
,,,,,,,,,,,,41404,2021-10-11_14h37.24.737,judgeSpeechMusic_20210919_logNormShiftAmp_detection_fixFreq,2020.1.2,MacIntel,60,,,,,,,,,,,,,,,,,,2,6.12,,0,0,21,21,2,1,stimuli/stim_20210919_power2amp/equal_lnn_AM2Hz_s15_14.m4a,,,,,,,,,,,,
,,,,,,,,,,,,41404,2021-10-11_14h37.24.737,judgeSpeechMusic_20210919_logNormShiftAmp_detection_fixFreq,2020.1.2,MacIntel,60,,,,,,,,,,,,,,,,,,2,5.6719,1,1,0,22,22,11,1,stimuli/stim_20210919_power2amp/equal_lnn_AM2Hz_s15_26.m4a,1.5024,,,,,,,,,,,
,,,,,,,,,,,,41404,2021-10-11_14h37.24.737,judgeSpeechMusic_20210919_logNormShiftAmp_detection_fixFreq,2020.1.2,MacIntel,60,,,,,,,,,,,,,,,,,,2,5.7576,,0,0,23,23,72,1,stimuli/stim_20210919_power2amp/equal_lnn_AM2Hz_s55_40.m4a,,,,,,,,,,,,
,,,,,,,,,,,,41404,2021-10-11_14h37.24.737,judgeSpeechMusic_20210919_logNormShiftAmp_detection_fixFreq,2020.1.2,MacIntel,60,,,,,,,,,,,,,,,,,,2,6.6881,,0,0,24,24,44,1,stimuli/stim_20210919_power2amp/equal_lnn_AM2Hz_s35_20.m4a,,,,,,,,,,,,
,,,,,,,,,,,,41404,2021-10-11_14h37.24.737,judgeSpeechMusic_20210919_logNormShiftAmp_detection_fixFreq,2020.1.2,MacIntel,60,,,,,,,,,,,,,,,,,,1,6.3397,,0,0,25,25,17,1,stimuli/stim_20210919_power2amp/equal_lnn_AM2Hz_s25_18.m4a,,,,,,,,,,,,
,,,,,,,,,,,,41404,2021-10-11_14h37.24.737,judgeSpeechMusic_20210919_logNormShiftAmp_detection_fixFreq,2020.1.2,MacIntel,60,,,,,,,,,,,,,,,,,,1,5.8975,,0,0,26,26,53,1,stimuli/stim_20210919_power2amp/equal_lnn_AM2Hz_s45_44.m4a,,,,,,,,,,,,
,,,,,,,,,,,,41404,2021-10-11_14h37.24.737,judgeSpeechMusic_20210919_logNormShiftAmp_detection_fixFreq,2020.1.2,MacIntel,60,,,,,,,,,,,,,,,,,,1,5.8712,,0,0,27,27,59,1,stimuli/stim_20210919_power2amp/equal_lnn_AM2Hz_s45_48.m4a,,,,,,,,,,,,
,,,,,,,,,,,,41404,2021-10-11_14h37.24.737,judgeSpeechMusic_20210919_logNormShiftAmp_detection_fixFreq,2020.1.2,MacIntel,60,,,,,,,,,,,,,,,,,,1,5.6768,,0,0,28,28,55,1,stimuli/stim_20210919_power2amp/equal_lnn_AM2Hz_s45_28.m4a,,,,,,,,,,,,
,,,,,,,,,,,,41404,2021-10-11_14h37.24.737,judgeSpeechMusic_20210919_logNormShiftAmp_detection_fixFreq,2020.1.2,MacIntel,60,,,,,,,,,,,,,,,,,,2,5.6631,,0,0,29,29,18,1,stimuli/stim_20210919_power2amp/equal_lnn_AM2Hz_s25_23.m4a,,,,,,,,,,,,
,,,,,,,,,,,,41404,2021-10-11_14h37.24.737,judgeSpeechMusic_20210919_logNormShiftAmp_detection_fixFreq,2020.1.2,MacIntel,60,,,,,,,,,,,,,,,,,,2,5.6248,,0,0,30,30,49,1,stimuli/stim_20210919_power2amp/equal_lnn_AM2Hz_s45_46.m4a,,,,,,,,,,,,
,,,,,,,,,,,,41404,2021-10-11_14h37.24.737,judgeSpeechMusic_20210919_logNormShiftAmp_detection_fixFreq,2020.1.2,MacIntel,60,,,,,,,,,,,,,,,,,,1,5.9862,,0,0,31,31,38,1,stimuli/stim_20210919_power2amp/equal_lnn_AM2Hz_s35_24.m4a,,,,,,,,,,,,
,,,,,,,,,,,,41404,2021-10-11_14h37.24.737,judgeSpeechMusic_20210919_logNormShiftAmp_detection_fixFreq,2020.1.2,MacIntel,60,,,,,,,,,,,,,,,,,,1,5.8372,,0,0,32,32,45,1,stimuli/stim_20210919_power2amp/equal_lnn_AM2Hz_s45_6.m4a,,,,,,,,,,,,
,,,,,,,,,,,,41404,2021-10-11_14h37.24.737,judgeSpeechMusic_20210919_logNormShiftAmp_detection_fixFreq,2020.1.2,MacIntel,60,,,,,,,,,,,,,,,,,,1,5.8826,,0,0,33,33,58,1,stimuli/stim_20210919_power2amp/equal_lnn_AM2Hz_s45_2.m4a,,,,,,,,,,,,
,,,,,,,,,,,,41404,2021-10-11_14h37.24.737,judgeSpeechMusic_20210919_logNormShiftAmp_detection_fixFreq,2020.1.2,MacIntel,60,,,,,,,,,,,,,,,,,,1,5.9157,,0,0,34,34,26,1,stimuli/stim_20210919_power2amp/equal_lnn_AM2Hz_s25_43.m4a,,,,,,,,,,,,
,,,,,,,,,,,,41404,2021-10-11_14h37.24.737,judgeSpeechMusic_20210919_logNormShiftAmp_detection_fixFreq,2020.1.2,MacIntel,60,,,,,,,,,,,,,,,,,,2,6.7372,,0,0,35,35,30,1,stimuli/stim_20210919_power2amp/equal_lnn_AM2Hz_s35_22.m4a,,,,,,,,,,,,
,,,,,,,,,,,,41404,2021-10-11_14h37.24.737,judgeSpeechMusic_20210919_logNormShiftAmp_detection_fixFreq,2020.1.2,MacIntel,60,,,,,,,,,,,,,,,,,,2,6.1692,,0,0,36,36,0,1,stimuli/stim_20210919_power2amp/equal_lnn_AM2Hz_s15_24.m4a,,,,,,,,,,,,
,,,,,,,,,,,,41404,2021-10-11_14h37.24.737,judgeSpeechMusic_20210919_logNormShiftAmp_detection_fixFreq,2020.1.2,MacIntel,60,,,,,,,,,,,,,,,,,,2,6.2286,,0,0,37,37,51,1,stimuli/stim_20210919_power2amp/equal_lnn_AM2Hz_s45_11.m4a,,,,,,,,,,,,
,,,,,,,,,,,,41404,2021-10-11_14h37.24.737,judgeSpeechMusic_20210919_logNormShiftAmp_detection_fixFreq,2020.1.2,MacIntel,60,,,,,,,,,,,,,,,,,,2,6.7616,,0,0,38,38,70,1,stimuli/stim_20210919_power2amp/equal_lnn_AM2Hz_s55_20.m4a,,,,,,,,,,,,
,,,,,,,,,,,,41404,2021-10-11_14h37.24.737,judgeSpeechMusic_20210919_logNormShiftAmp_detection_fixFreq,2020.1.2,MacIntel,60,,,,,,,,,,,,,,,,,,1,5.7967,,0,0,39,39,64,1,stimuli/stim_20210919_power2amp/equal_lnn_AM2Hz_s55_11.m4a,,,,,,,,,,,,
,,,,,,,,,,,,41404,2021-10-11_14h37.24.737,judgeSpeechMusic_20210919_logNormShiftAmp_detection_fixFreq,2020.1.2,MacIntel,60,,,,,,,,,,,,,,,,,,1,6.7691,4,1,0,40,40,54,1,stimuli/stim_20210919_power2amp/equal_lnn_AM2Hz_s45_22.m4a,1.6836,,,,,,,,,,,
,,,,,,,,,,,,41404,2021-10-11_14h37.24.737,judgeSpeechMusic_20210919_logNormShiftAmp_detection_fixFreq,2020.1.2,MacIntel,60,,,,,,,,,,,,,,,,,,2,6.0769,,0,0,41,41,39,1,stimuli/stim_20210919_power2amp/equal_lnn_AM2Hz_s35_23.m4a,,,,,,,,,,,,
,,,,,,,,,,,,41404,2021-10-11_14h37.24.737,judgeSpeechMusic_20210919_logNormShiftAmp_detection_fixFreq,2020.1.2,MacIntel,60,,,,,,,,,,,,,,,,,,2,5.688,,0,0,42,42,60,1,stimuli/stim_20210919_power2amp/equal_lnn_AM2Hz_s55_22.m4a,,,,,,,,,,,,
,,,,,,,,,,,,41404,2021-10-11_14h37.24.737,judgeSpeechMusic_20210919_logNormShiftAmp_detection_fixFreq,2020.1.2,MacIntel,60,,,,,,,,,,,,,,,,,,1,6.2704,,0,0,43,43,62,1,stimuli/stim_20210919_power2amp/equal_lnn_AM2Hz_s55_39.m4a,,,,,,,,,,,,
,,,,,,,,,,,,41404,2021-10-11_14h37.24.737,judgeSpeechMusic_20210919_logNormShiftAmp_detection_fixFreq,2020.1.2,MacIntel,60,,,,,,,,,,,,,,,,,,1,5.7111,,0,0,44,44,20,1,stimuli/stim_20210919_power2amp/equal_lnn_AM2Hz_s25_2.m4a,,,,,,,,,,,,
,,,,,,,,,,,,41404,2021-10-11_14h37.24.737,judgeSpeechMusic_20210919_logNormShiftAmp_detection_fixFreq,2020.1.2,MacIntel,60,,,,,,,,,,,,,,,,,,1,5.7772,,0,0,45,45,28,1,stimuli/stim_20210919_power2amp/equal_lnn_AM2Hz_s25_1.m4a,,,,,,,,,,,,
,,,,,,,,,,,,41404,2021-10-11_14h37.24.737,judgeSpeechMusic_20210919_logNormShiftAmp_detection_fixFreq,2020.1.2,MacIntel,60,,,,,,,,,,,,,,,,,,2,5.8418,,0,0,46,46,7,1,stimuli/stim_20210919_power2amp/equal_lnn_AM2Hz_s15_21.m4a,,,,,,,,,,,,
,,,,,,,,,,,,41404,2021-10-11_14h37.24.737,judgeSpeechMusic_20210919_logNormShiftAmp_detection_fixFreq,2020.1.2,MacIntel,60,,,,,,,,,,,,,,,,,,2,7.788,,0,0,47,47,47,1,stimuli/stim_20210919_power2amp/equal_lnn_AM2Hz_s45_13.m4a,,,,,,,,,,,,
,,,,,,,,,,,,41404,2021-10-11_14h37.24.737,judgeSpeechMusic_20210919_logNormShiftAmp_detection_fixFreq,2020.1.2,MacIntel,60,,,,,,,,,,,,,,,,,,1,6.639,,0,0,48,48,5,1,stimuli/stim_20210919_power2amp/equal_lnn_AM2Hz_s15_5.m4a,,,,,,,,,,,,
,,,,,,,,,,,,41404,2021-10-11_14h37.24.737,judgeSpeechMusic_20210919_logNormShiftAmp_detection_fixFreq,2020.1.2,MacIntel,60,,,,,,,,,,,,,,,,,,1,6.4399,,0,0,49,49,57,1,stimuli/stim_20210919_power2amp/equal_lnn_AM2Hz_s45_14.m4a,,,,,,,,,,,,
,,,,,,,,,,,,41404,2021-10-11_14h37.24.737,judgeSpeechMusic_20210919_logNormShiftAmp_detection_fixFreq,2020.1.2,MacIntel,60,,,,,,,,,,,,,,,,,,1,6.4337,,0,0,50,50,9,1,stimuli/stim_20210919_power2amp/equal_lnn_AM2Hz_s15_38.m4a,,,,,,,,,,,,
,,,,,,,,,,,,41404,2021-10-11_14h37.24.737,judgeSpeechMusic_20210919_logNormShiftAmp_detection_fixFreq,2020.1.2,MacIntel,60,,,,,,,,,,,,,,,,,,1,5.6788,,0,0,51,51,31,1,stimuli/stim_20210919_power2amp/equal_lnn_AM2Hz_s35_3.m4a,,,,,,,,,,,,
,,,,,,,,,,,,41404,2021-10-11_14h37.24.737,judgeSpeechMusic_20210919_logNormShiftAmp_detection_fixFreq,2020.1.2,MacIntel,60,,,,,,,,,,,,,,,,,,2,5.7755,,0,0,52,52,23,1,stimuli/stim_20210919_power2amp/equal_lnn_AM2Hz_s25_19.m4a,,,,,,,,,,,,
,,,,,,,,,,,,41404,2021-10-11_14h37.24.737,judgeSpeechMusic_20210919_logNormShiftAmp_detection_fixFreq,2020.1.2,MacIntel,60,,,,,,,,,,,,,,,,,,1,5.8876,,0,0,53,53,13,1,stimuli/stim_20210919_power2amp/equal_lnn_AM2Hz_s15_6.m4a,,,,,,,,,,,,
,,,,,,,,,,,,41404,2021-10-11_14h37.24.737,judgeSpeechMusic_20210919_logNormShiftAmp_detection_fixFreq,2020.1.2,MacIntel,60,,,,,,,,,,,,,,,,,,2,5.7095,,0,0,54,54,27,1,stimuli/stim_20210919_power2amp/equal_lnn_AM2Hz_s25_44.m4a,,,,,,,,,,,,
,,,,,,,,,,,,41404,2021-10-11_14h37.24.737,judgeSpeechMusic_20210919_logNormShiftAmp_detection_fixFreq,2020.1.2,MacIntel,60,,,,,,,,,,,,,,,,,,1,6.5214,,0,0,55,55,4,1,stimuli/stim_20210919_power2amp/equal_lnn_AM2Hz_s15_10.m4a,,,,,,,,,,,,
,,,,,,,,,,,,41404,2021-10-11_14h37.24.737,judgeSpeechMusic_20210919_logNormShiftAmp_detection_fixFreq,2020.1.2,MacIntel,60,,,,,,,,,,,,,,,,,,2,6.9397,,0,0,56,56,67,1,stimuli/stim_20210919_power2amp/equal_lnn_AM2Hz_s55_48.m4a,,,,,,,,,,,,
,,,,,,,,,,,,41404,2021-10-11_14h37.24.737,judgeSpeechMusic_20210919_logNormShiftAmp_detection_fixFreq,2020.1.2,MacIntel,60,,,,,,,,,,,,,,,,,,1,8.5247,,0,0,57,57,43,1,stimuli/stim_20210919_power2amp/equal_lnn_AM2Hz_s35_35.m4a,,,,,,,,,,,,
,,,,,,,,,,,,41404,2021-10-11_14h37.24.737,judgeSpeechMusic_20210919_logNormShiftAmp_detection_fixFreq,2020.1.2,MacIntel,60,,,,,,,,,,,,,,,,,,1,6.0972,,0,0,58,58,69,1,stimuli/stim_20210919_power2amp/equal_lnn_AM2Hz_s55_7.m4a,,,,,,,,,,,,
,,,,,,,,,,,,41404,2021-10-11_14h37.24.737,judgeSpeechMusic_20210919_logNormShiftAmp_detection_fixFreq,2020.1.2,MacIntel,60,,,,,,,,,,,,,,,,,,2,8.0061,,0,0,59,59,21,1,stimuli/stim_20210919_power2amp/equal_lnn_AM2Hz_s25_17.m4a,,,,,,,,,,,,
,,,,,,,,,,,,41404,2021-10-11_14h37.24.737,judgeSpeechMusic_20210919_logNormShiftAmp_detection_fixFreq,2020.1.2,MacIntel,60,,,,,,,,,,,,,,,,,,1,9.4429,3,1,0,60,60,40,1,stimuli/stim_20210919_power2amp/equal_lnn_AM2Hz_s35_5.m4a,2.6636,,,,,,,,,,,
,,,,,,,,,,,,41404,2021-10-11_14h37.24.737,judgeSpeechMusic_20210919_logNormShiftAmp_detection_fixFreq,2020.1.2,MacIntel,60,,,,,,,,,,,,,,,,,,1,50.1127,,0,0,61,61,71,1,stimuli/stim_20210919_power2amp/equal_lnn_AM2Hz_s55_15.m4a,,,,,,,,,,,,
,,,,,,,,,,,,41404,2021-10-11_14h37.24.737,judgeSpeechMusic_20210919_logNormShiftAmp_detection_fixFreq,2020.1.2,MacIntel,60,,,,,,,,,,,,,,,,,,1,5.8682,,0,0,62,62,34,1,stimuli/stim_20210919_power2amp/equal_lnn_AM2Hz_s35_13.m4a,,,,,,,,,,,,
,,,,,,,,,,,,41404,2021-10-11_14h37.24.737,judgeSpeechMusic_20210919_logNormShiftAmp_detection_fixFreq,2020.1.2,MacIntel,60,,,,,,,,,,,,,,,,,,2,5.9362,,0,0,63,63,63,1,stimuli/stim_20210919_power2amp/equal_lnn_AM2Hz_s55_28.m4a,,,,,,,,,,,,
,,,,,,,,,,,,41404,2021-10-11_14h37.24.737,judgeSpeechMusic_20210919_logNormShiftAmp_detection_fixFreq,2020.1.2,MacIntel,60,,,,,,,,,,,,,,,,,,1,5.6194,,0,0,64,64,65,1,stimuli/stim_20210919_power2amp/equal_lnn_AM2Hz_s55_33.m4a,,,,,,,,,,,,
,,,,,,,,,,,,41404,2021-10-11_14h37.24.737,judgeSpeechMusic_20210919_logNormShiftAmp_detection_fixFreq,2020.1.2,MacIntel,60,,,,,,,,,,,,,,,,,,1,6.1053,,0,0,65,65,19,1,stimuli/stim_20210919_power2amp/equal_lnn_AM2Hz_s25_16.m4a,,,,,,,,,,,,
,,,,,,,,,,,,41404,2021-10-11_14h37.24.737,judgeSpeechMusic_20210919_logNormShiftAmp_detection_fixFreq,2020.1.2,MacIntel,60,,,,,,,,,,,,,,,,,,2,6.4038,,0,0,66,66,68,1,stimuli/stim_20210919_power2amp/equal_lnn_AM2Hz_s55_42.m4a,,,,,,,,,,,,
,,,,,,,,,,,,41404,2021-10-11_14h37.24.737,judgeSpeechMusic_20210919_logNormShiftAmp_detection_fixFreq,2020.1.2,MacIntel,60,,,,,,,,,,,,,,,,,,2,5.5374,,0,0,67,67,48,1,stimuli/stim_20210919_power2amp/equal_lnn_AM2Hz_s45_20.m4a,,,,,,,,,,,,
,,,,,,,,,,,,41404,2021-10-11_14h37.24.737,judgeSpeechMusic_20210919_logNormShiftAmp_detection_fixFreq,2020.1.2,MacIntel,60,,,,,,,,,,,,,,,,,,1,5.9883,,0,0,68,68,52,1,stimuli/stim_20210919_power2amp/equal_lnn_AM2Hz_s45_27.m4a,,,,,,,,,,,,
,,,,,,,,,,,,41404,2021-10-11_14h37.24.737,judgeSpeechMusic_20210919_logNormShiftAmp_detection_fixFreq,2020.1.2,MacIntel,60,,,,,,,,,,,,,,,,,,1,6.0883,,0,0,69,69,36,1,stimuli/stim_20210919_power2amp/equal_lnn_AM2Hz_s35_11.m4a,,,,,,,,,,,,
,,,,,,,,,,,,41404,2021-10-11_14h37.24.737,judgeSpeechMusic_20210919_logNormShiftAmp_detection_fixFreq,2020.1.2,MacIntel,60,,,,,,,,,,,,,,,,,,2,8.856,,0,0,70,70,6,1,stimuli/stim_20210919_power2amp/equal_lnn_AM2Hz_s15_11.m4a,,,,,,,,,,,,
,,,,,,,,,,,,41404,2021-10-11_14h37.24.737,judgeSpeechMusic_20210919_logNormShiftAmp_detection_fixFreq,2020.1.2,MacIntel,60,,,,,,,,,,,,,,,,,,2,8.0746,,0,0,71,71,16,1,stimuli/stim_20210919_power2amp/equal_lnn_AM2Hz_s25_6.m4a,,,,,,,,,,,,
,,,,,,,,,,,,41404,2021-10-11_14h37.24.737,judgeSpeechMusic_20210919_logNormShiftAmp_detection_fixFreq,2020.1.2,MacIntel,60,,,,,,,,,,,,,,,,,,1,7.2211,,0,0,72,72,10,1,stimuli/stim_20210919_power2amp/equal_lnn_AM2Hz_s15_20.m4a,,,,,,,,,,,,
,,,,,,,,,,,,41404,2021-10-11_14h37.24.737,judgeSpeechMusic_20210919_logNormShiftAmp_detection_fixFreq,2020.1.2,MacIntel,60,,,,,,,,,,,,,,,,,,2,8.8772,,0,0,73,73,15,1,stimuli/stim_20210919_power2amp/equal_lnn_AM2Hz_s25_45.m4a,,,,,,,,,,,,
,,,,,,,,,,,,41404,2021-10-11_14h37.24.737,judgeSpeechMusic_20210919_logNormShiftAmp_detection_fixFreq,2020.1.2,MacIntel,60,,,,,,,,,,,,,,,,,,1,8.029,,0,0,74,74,8,1,stimuli/stim_20210919_power2amp/equal_lnn_AM2Hz_s15_32.m4a,,,,,,,,,,,,
,,,,,,,,,,,,41404,2021-10-11_14h37.24.737,judgeSpeechMusic_20210919_logNormShiftAmp_detection_fixFreq,2020.1.2,MacIntel,60,,,,,,,,,,,,,,,,,,,,,,,,,,,,,space,0.697,1,0,2,0,1,MUSIC,stimuli/MUSIC.jpg,,
,,,,,,,,,,,,41404,2021-10-11_14h37.24.737,judgeSpeechMusic_20210919_logNormShiftAmp_detection_fixFreq,2020.1.2,MacIntel,60,,,,,,0,0,0,0,2,1,stimuli/stim_20210919_power2amp/equal_lnn_AM_training2Hz_s40.m4a,,,,,,,,,,,,,,,,,,,,,,,,,,,
,,,,,,,,,,,,41404,2021-10-11_14h37.24.737,judgeSpeechMusic_20210919_logNormShiftAmp_detection_fixFreq,2020.1.2,MacIntel,60,,,,,,,,,,,,,,space,12.6197,space,8.0726,2,9.0611,,0,0,0,0,18,1,stimuli/stim_20210919_power2amp/equal_lnn_AM2Hz_s25_23.m4a,,,,,,,,,,,,
,,,,,,,,,,,,41404,2021-10-11_14h37.24.737,judgeSpeechMusic_20210919_logNormShiftAmp_detection_fixFreq,2020.1.2,MacIntel,60,,,,,,,,,,,,,,,,,,1,11.9268,,0,0,1,1,47,1,stimuli/stim_20210919_power2amp/equal_lnn_AM2Hz_s45_13.m4a,,,,,,,,,,,,
,,,,,,,,,,,,41404,2021-10-11_14h37.24.737,judgeSpeechMusic_20210919_logNormShiftAmp_detection_fixFreq,2020.1.2,MacIntel,60,,,,,,,,,,,,,,,,,,1,8.4638,,0,0,2,2,41,1,stimuli/stim_20210919_power2amp/equal_lnn_AM2Hz_s35_7.m4a,,,,,,,,,,,,
,,,,,,,,,,,,41404,2021-10-11_14h37.24.737,judgeSpeechMusic_20210919_logNormShiftAmp_detection_fixFreq,2020.1.2,MacIntel,60,,,,,,,,,,,,,,,,,,2,6.9247,,0,0,3,3,70,1,stimuli/stim_20210919_power2amp/equal_lnn_AM2Hz_s55_20.m4a,,,,,,,,,,,,
,,,,,,,,,,,,41404,2021-10-11_14h37.24.737,judgeSpeechMusic_20210919_logNormShiftAmp_detection_fixFreq,2020.1.2,MacIntel,60,,,,,,,,,,,,,,,,,,2,9.6392,,0,0,4,4,53,1,stimuli/stim_20210919_power2amp/equal_lnn_AM2Hz_s45_44.m4a,,,,,,,,,,,,
,,,,,,,,,,,,41404,2021-10-11_14h37.24.737,judgeSpeechMusic_20210919_logNormShiftAmp_detection_fixFreq,2020.1.2,MacIntel,60,,,,,,,,,,,,,,,,,,1,7.5797,,0,0,5,5,63,1,stimuli/stim_20210919_power2amp/equal_lnn_AM2Hz_s55_28.m4a,,,,,,,,,,,,
,,,,,,,,,,,,41404,2021-10-11_14h37.24.737,judgeSpeechMusic_20210919_logNormShiftAmp_detection_fixFreq,2020.1.2,MacIntel,60,,,,,,,,,,,,,,,,,,2,7.6787,,0,0,6,6,8,1,stimuli/stim_20210919_power2amp/equal_lnn_AM2Hz_s15_32.m4a,,,,,,,,,,,,
,,,,,,,,,,,,41404,2021-10-11_14h37.24.737,judgeSpeechMusic_20210919_logNormShiftAmp_detection_fixFreq,2020.1.2,MacIntel,60,,,,,,,,,,,,,,,,,,1,6.9672,,0,0,7,7,68,1,stimuli/stim_20210919_power2amp/equal_lnn_AM2Hz_s55_42.m4a,,,,,,,,,,,,
,,,,,,,,,,,,41404,2021-10-11_14h37.24.737,judgeSpeechMusic_20210919_logNormShiftAmp_detection_fixFreq,2020.1.2,MacIntel,60,,,,,,,,,,,,,,,,,,2,8.7489,,0,0,8,8,57,1,stimuli/stim_20210919_power2amp/equal_lnn_AM2Hz_s45_14.m4a,,,,,,,,,,,,
,,,,,,,,,,,,41404,2021-10-11_14h37.24.737,judgeSpeechMusic_20210919_logNormShiftAmp_detection_fixFreq,2020.1.2,MacIntel,60,,,,,,,,,,,,,,,,,,2,10.125,,0,0,9,9,37,1,stimuli/stim_20210919_power2amp/equal_lnn_AM2Hz_s35_29.m4a,,,,,,,,,,,,
,,,,,,,,,,,,41404,2021-10-11_14h37.24.737,judgeSpeechMusic_20210919_logNormShiftAmp_detection_fixFreq,2020.1.2,MacIntel,60,,,,,,,,,,,,,,,,,,2,10.0458,,0,0,10,10,62,1,stimuli/stim_20210919_power2amp/equal_lnn_AM2Hz_s55_39.m4a,,,,,,,,,,,,
,,,,,,,,,,,,41404,2021-10-11_14h37.24.737,judgeSpeechMusic_20210919_logNormShiftAmp_detection_fixFreq,2020.1.2,MacIntel,60,,,,,,,,,,,,,,,,,,2,10.2579,,0,0,11,11,7,1,stimuli/stim_20210919_power2amp/equal_lnn_AM2Hz_s15_21.m4a,,,,,,,,,,,,
,,,,,,,,,,,,41404,2021-10-11_14h37.24.737,judgeSpeechMusic_20210919_logNormShiftAmp_detection_fixFreq,2020.1.2,MacIntel,60,,,,,,,,,,,,,,,,,,1,7.8539,,0,0,12,12,35,1,stimuli/stim_20210919_power2amp/equal_lnn_AM2Hz_s35_44.m4a,,,,,,,,,,,,
,,,,,,,,,,,,41404,2021-10-11_14h37.24.737,judgeSpeechMusic_20210919_logNormShiftAmp_detection_fixFreq,2020.1.2,MacIntel,60,,,,,,,,,,,,,,,,,,1,7.5549,,0,0,13,13,45,1,stimuli/stim_20210919_power2amp/equal_lnn_AM2Hz_s45_6.m4a,,,,,,,,,,,,
,,,,,,,,,,,,41404,2021-10-11_14h37.24.737,judgeSpeechMusic_20210919_logNormShiftAmp_detection_fixFreq,2020.1.2,MacIntel,60,,,,,,,,,,,,,,,,,,1,8.3697,,0,0,14,14,12,1,stimuli/stim_20210919_power2amp/equal_lnn_AM2Hz_s15_23.m4a,,,,,,,,,,,,
,,,,,,,,,,,,41404,2021-10-11_14h37.24.737,judgeSpeechMusic_20210919_logNormShiftAmp_detection_fixFreq,2020.1.2,MacIntel,60,,,,,,,,,,,,,,,,,,2,6.6459,,0,0,15,15,36,1,stimuli/stim_20210919_power2amp/equal_lnn_AM2Hz_s35_11.m4a,,,,,,,,,,,,
,,,,,,,,,,,,41404,2021-10-11_14h37.24.737,judgeSpeechMusic_20210919_logNormShiftAmp_detection_fixFreq,2020.1.2,MacIntel,60,,,,,,,,,,,,,,,,,,1,6.3768,,0,0,16,16,32,1,stimuli/stim_20210919_power2amp/equal_lnn_AM2Hz_s35_28.m4a,,,,,,,,,,,,
,,,,,,,,,,,,41404,2021-10-11_14h37.24.737,judgeSpeechMusic_20210919_logNormShiftAmp_detection_fixFreq,2020.1.2,MacIntel,60,,,,,,,,,,,,,,,,,,2,8.6048,,0,0,17,17,43,1,stimuli/stim_20210919_power2amp/equal_lnn_AM2Hz_s35_35.m4a,,,,,,,,,,,,
,,,,,,,,,,,,41404,2021-10-11_14h37.24.737,judgeSpeechMusic_20210919_logNormShiftAmp_detection_fixFreq,2020.1.2,MacIntel,60,,,,,,,,,,,,,,,,,,2,8.5871,,0,0,18,18,14,1,stimuli/stim_20210919_power2amp/equal_lnn_AM2Hz_s15_45.m4a,,,,,,,,,,,,
,,,,,,,,,,,,41404,2021-10-11_14h37.24.737,judgeSpeechMusic_20210919_logNormShiftAmp_detection_fixFreq,2020.1.2,MacIntel,60,,,,,,,,,,,,,,,,,,1,7.1109,,0,0,19,19,11,1,stimuli/stim_20210919_power2amp/equal_lnn_AM2Hz_s15_26.m4a,,,,,,,,,,,,
,,,,,,,,,,,,41404,2021-10-11_14h37.24.737,judgeSpeechMusic_20210919_logNormShiftAmp_detection_fixFreq,2020.1.2,MacIntel,60,,,,,,,,,,,,,,,,,,2,10.1311,,0,0,20,20,15,1,stimuli/stim_20210919_power2amp/equal_lnn_AM2Hz_s25_45.m4a,,,,,,,,,,,,
,,,,,,,,,,,,41404,2021-10-11_14h37.24.737,judgeSpeechMusic_20210919_logNormShiftAmp_detection_fixFreq,2020.1.2,MacIntel,60,,,,,,,,,,,,,,,,,,2,7.3642,,0,0,21,21,60,1,stimuli/stim_20210919_power2amp/equal_lnn_AM2Hz_s55_22.m4a,,,,,,,,,,,,
,,,,,,,,,,,,41404,2021-10-11_14h37.24.737,judgeSpeechMusic_20210919_logNormShiftAmp_detection_fixFreq,2020.1.2,MacIntel,60,,,,,,,,,,,,,,,,,,1,6.6037,2,1,0,22,22,39,1,stimuli/stim_20210919_power2amp/equal_lnn_AM2Hz_s35_23.m4a,1.3252,,,,,,,,,,,
,,,,,,,,,,,,41404,2021-10-11_14h37.24.737,judgeSpeechMusic_20210919_logNormShiftAmp_detection_fixFreq,2020.1.2,MacIntel,60,,,,,,,,,,,,,,,,,,2,5.6704,,0,0,23,23,67,1,stimuli/stim_20210919_power2amp/equal_lnn_AM2Hz_s55_48.m4a,,,,,,,,,,,,
,,,,,,,,,,,,41404,2021-10-11_14h37.24.737,judgeSpeechMusic_20210919_logNormShiftAmp_detection_fixFreq,2020.1.2,MacIntel,60,,,,,,,,,,,,,,,,,,2,6.8074,,0,0,24,24,30,1,stimuli/stim_20210919_power2amp/equal_lnn_AM2Hz_s35_22.m4a,,,,,,,,,,,,
,,,,,,,,,,,,41404,2021-10-11_14h37.24.737,judgeSpeechMusic_20210919_logNormShiftAmp_detection_fixFreq,2020.1.2,MacIntel,60,,,,,,,,,,,,,,,,,,1,6.7116,,0,0,25,25,10,1,stimuli/stim_20210919_power2amp/equal_lnn_AM2Hz_s15_20.m4a,,,,,,,,,,,,
,,,,,,,,,,,,41404,2021-10-11_14h37.24.737,judgeSpeechMusic_20210919_logNormShiftAmp_detection_fixFreq,2020.1.2,MacIntel,60,,,,,,,,,,,,,,,,,,1,6.6427,,0,0,26,26,74,1,stimuli/stim_20210919_power2amp/equal_lnn_AM2Hz_s55_3.m4a,,,,,,,,,,,,
,,,,,,,,,,,,41404,2021-10-11_14h37.24.737,judgeSpeechMusic_20210919_logNormShiftAmp_detection_fixFreq,2020.1.2,MacIntel,60,,,,,,,,,,,,,,,,,,1,6.0253,,0,0,27,27,48,1,stimuli/stim_20210919_power2amp/equal_lnn_AM2Hz_s45_20.m4a,,,,,,,,,,,,
,,,,,,,,,,,,41404,2021-10-11_14h37.24.737,judgeSpeechMusic_20210919_logNormShiftAmp_detection_fixFreq,2020.1.2,MacIntel,60,,,,,,,,,,,,,,,,,,2,7.0373,,0,0,28,28,46,1,stimuli/stim_20210919_power2amp/equal_lnn_AM2Hz_s45_49.m4a,,,,,,,,,,,,
,,,,,,,,,,,,41404,2021-10-11_14h37.24.737,judgeSpeechMusic_20210919_logNormShiftAmp_detection_fixFreq,2020.1.2,MacIntel,60,,,,,,,,,,,,,,,,,,1,6.6656,,0,0,29,29,40,1,stimuli/stim_20210919_power2amp/equal_lnn_AM2Hz_s35_5.m4a,,,,,,,,,,,,
,,,,,,,,,,,,41404,2021-10-11_14h37.24.737,judgeSpeechMusic_20210919_logNormShiftAmp_detection_fixFreq,2020.1.2,MacIntel,60,,,,,,,,,,,,,,,,,,1,5.8694,,0,0,30,30,23,1,stimuli/stim_20210919_power2amp/equal_lnn_AM2Hz_s25_19.m4a,,,,,,,,,,,,
,,,,,,,,,,,,41404,2021-10-11_14h37.24.737,judgeSpeechMusic_20210919_logNormShiftAmp_detection_fixFreq,2020.1.2,MacIntel,60,,,,,,,,,,,,,,,,,,2,7.1558,,0,0,31,31,26,1,stimuli/stim_20210919_power2amp/equal_lnn_AM2Hz_s25_43.m4a,,,,,,,,,,,,
,,,,,,,,,,,,41404,2021-10-11_14h37.24.737,judgeSpeechMusic_20210919_logNormShiftAmp_detection_fixFreq,2020.1.2,MacIntel,60,,,,,,,,,,,,,,,,,,2,7.8536,,0,0,32,32,54,1,stimuli/stim_20210919_power2amp/equal_lnn_AM2Hz_s45_22.m4a,,,,,,,,,,,,
,,,,,,,,,,,,41404,2021-10-11_14h37.24.737,judgeSpeechMusic_20210919_logNormShiftAmp_detection_fixFreq,2020.1.2,MacIntel,60,,,,,,,,,,,,,,,,,,2,5.918,,0,0,33,33,5,1,stimuli/stim_20210919_power2amp/equal_lnn_AM2Hz_s15_5.m4a,,,,,,,,,,,,
,,,,,,,,,,,,41404,2021-10-11_14h37.24.737,judgeSpeechMusic_20210919_logNormShiftAmp_detection_fixFreq,2020.1.2,MacIntel,60,,,,,,,,,,,,,,,,,,1,6.0441,,0,0,34,34,51,1,stimuli/stim_20210919_power2amp/equal_lnn_AM2Hz_s45_11.m4a,,,,,,,,,,,,
,,,,,,,,,,,,41404,2021-10-11_14h37.24.737,judgeSpeechMusic_20210919_logNormShiftAmp_detection_fixFreq,2020.1.2,MacIntel,60,,,,,,,,,,,,,,,,,,1,6.8273,,0,0,35,35,0,1,stimuli/stim_20210919_power2amp/equal_lnn_AM2Hz_s15_24.m4a,,,,,,,,,,,,
,,,,,,,,,,,,41404,2021-10-11_14h37.24.737,judgeSpeechMusic_20210919_logNormShiftAmp_detection_fixFreq,2020.1.2,MacIntel,60,,,,,,,,,,,,,,,,,,2,7.1632,,0,0,36,36,19,1,stimuli/stim_20210919_power2amp/equal_lnn_AM2Hz_s25_16.m4a,,,,,,,,,,,,
,,,,,,,,,,,,41404,2021-10-11_14h37.24.737,judgeSpeechMusic_20210919_logNormShiftAmp_detection_fixFreq,2020.1.2,MacIntel,60,,,,,,,,,,,,,,,,,,1,7.714,,0,0,37,37,9,1,stimuli/stim_20210919_power2amp/equal_lnn_AM2Hz_s15_38.m4a,,,,,,,,,,,,
,,,,,,,,,,,,41404,2021-10-11_14h37.24.737,judgeSpeechMusic_20210919_logNormShiftAmp_detection_fixFreq,2020.1.2,MacIntel,60,,,,,,,,,,,,,,,,,,2,9.2069,,0,0,38,38,42,1,stimuli/stim_20210919_power2amp/equal_lnn_AM2Hz_s35_39.m4a,,,,,,,,,,,,
,,,,,,,,,,,,41404,2021-10-11_14h37.24.737,judgeSpeechMusic_20210919_logNormShiftAmp_detection_fixFreq,2020.1.2,MacIntel,60,,,,,,,,,,,,,,,,,,2,10.7489,,0,0,39,39,44,1,stimuli/stim_20210919_power2amp/equal_lnn_AM2Hz_s35_20.m4a,,,,,,,,,,,,
,,,,,,,,,,,,41404,2021-10-11_14h37.24.737,judgeSpeechMusic_20210919_logNormShiftAmp_detection_fixFreq,2020.1.2,MacIntel,60,,,,,,,,,,,,,,,,,,1,6.8896,2,1,0,40,40,31,1,stimuli/stim_20210919_power2amp/equal_lnn_AM2Hz_s35_3.m4a,1.5973,,,,,,,,,,,
,,,,,,,,,,,,41404,2021-10-11_14h37.24.737,judgeSpeechMusic_20210919_logNormShiftAmp_detection_fixFreq,2020.1.2,MacIntel,60,,,,,,,,,,,,,,,,,,1,12.6654,,0,0,41,41,49,1,stimuli/stim_20210919_power2amp/equal_lnn_AM2Hz_s45_46.m4a,,,,,,,,,,,,
,,,,,,,,,,,,41404,2021-10-11_14h37.24.737,judgeSpeechMusic_20210919_logNormShiftAmp_detection_fixFreq,2020.1.2,MacIntel,60,,,,,,,,,,,,,,,,,,1,7.5351,,0,0,42,42,58,1,stimuli/stim_20210919_power2amp/equal_lnn_AM2Hz_s45_2.m4a,,,,,,,,,,,,
,,,,,,,,,,,,41404,2021-10-11_14h37.24.737,judgeSpeechMusic_20210919_logNormShiftAmp_detection_fixFreq,2020.1.2,MacIntel,60,,,,,,,,,,,,,,,,,,2,7.5535,,0,0,43,43,22,1,stimuli/stim_20210919_power2amp/equal_lnn_AM2Hz_s25_25.m4a,,,,,,,,,,,,
,,,,,,,,,,,,41404,2021-10-11_14h37.24.737,judgeSpeechMusic_20210919_logNormShiftAmp_detection_fixFreq,2020.1.2,MacIntel,60,,,,,,,,,,,,,,,,,,2,8.6786,,0,0,44,44,64,1,stimuli/stim_20210919_power2amp/equal_lnn_AM2Hz_s55_11.m4a,,,,,,,,,,,,
,,,,,,,,,,,,41404,2021-10-11_14h37.24.737,judgeSpeechMusic_20210919_logNormShiftAmp_detection_fixFreq,2020.1.2,MacIntel,60,,,,,,,,,,,,,,,,,,2,8.0241,,0,0,45,45,16,1,stimuli/stim_20210919_power2amp/equal_lnn_AM2Hz_s25_6.m4a,,,,,,,,,,,,
,,,,,,,,,,,,41404,2021-10-11_14h37.24.737,judgeSpeechMusic_20210919_logNormShiftAmp_detection_fixFreq,2020.1.2,MacIntel,60,,,,,,,,,,,,,,,,,,1,8.1573,,0,0,46,46,50,1,stimuli/stim_20210919_power2amp/equal_lnn_AM2Hz_s45_35.m4a,,,,,,,,,,,,
,,,,,,,,,,,,41404,2021-10-11_14h37.24.737,judgeSpeechMusic_20210919_logNormShiftAmp_detection_fixFreq,2020.1.2,MacIntel,60,,,,,,,,,,,,,,,,,,1,9.5889,,0,0,47,47,25,1,stimuli/stim_20210919_power2amp/equal_lnn_AM2Hz_s25_38.m4a,,,,,,,,,,,,
,,,,,,,,,,,,41404,2021-10-11_14h37.24.737,judgeSpeechMusic_20210919_logNormShiftAmp_detection_fixFreq,2020.1.2,MacIntel,60,,,,,,,,,,,,,,,,,,2,10.4219,,0,0,48,48,3,1,stimuli/stim_20210919_power2amp/equal_lnn_AM2Hz_s15_49.m4a,,,,,,,,,,,,
,,,,,,,,,,,,41404,2021-10-11_14h37.24.737,judgeSpeechMusic_20210919_logNormShiftAmp_detection_fixFreq,2020.1.2,MacIntel,60,,,,,,,,,,,,,,,,,,1,7.3905,,0,0,49,49,21,1,stimuli/stim_20210919_power2amp/equal_lnn_AM2Hz_s25_17.m4a,,,,,,,,,,,,
,,,,,,,,,,,,41404,2021-10-11_14h37.24.737,judgeSpeechMusic_20210919_logNormShiftAmp_detection_fixFreq,2020.1.2,MacIntel,60,,,,,,,,,,,,,,,,,,2,6.0691,,0,0,50,50,65,1,stimuli/stim_20210919_power2amp/equal_lnn_AM2Hz_s55_33.m4a,,,,,,,,,,,,
,,,,,,,,,,,,41404,2021-10-11_14h37.24.737,judgeSpeechMusic_20210919_logNormShiftAmp_detection_fixFreq,2020.1.2,MacIntel,60,,,,,,,,,,,,,,,,,,1,7.1695,,0,0,51,51,38,1,stimuli/stim_20210919_power2amp/equal_lnn_AM2Hz_s35_24.m4a,,,,,,,,,,,,
,,,,,,,,,,,,41404,2021-10-11_14h37.24.737,judgeSpeechMusic_20210919_logNormShiftAmp_detection_fixFreq,2020.1.2,MacIntel,60,,,,,,,,,,,,,,,,,,1,15.1496,,0,0,52,52,1,1,stimuli/stim_20210919_power2amp/equal_lnn_AM2Hz_s15_42.m4a,,,,,,,,,,,,
,,,,,,,,,,,,41404,2021-10-11_14h37.24.737,judgeSpeechMusic_20210919_logNormShiftAmp_detection_fixFreq,2020.1.2,MacIntel,60,,,,,,,,,,,,,,,,,,1,19.8059,,0,0,53,53,61,1,stimuli/stim_20210919_power2amp/equal_lnn_AM2Hz_s55_30.m4a,,,,,,,,,,,,
,,,,,,,,,,,,41404,2021-10-11_14h37.24.737,judgeSpeechMusic_20210919_logNormShiftAmp_detection_fixFreq,2020.1.2,MacIntel,60,,,,,,,,,,,,,,,,,,2,5.8391,,0,0,54,54,27,1,stimuli/stim_20210919_power2amp/equal_lnn_AM2Hz_s25_44.m4a,,,,,,,,,,,,
,,,,,,,,,,,,41404,2021-10-11_14h37.24.737,judgeSpeechMusic_20210919_logNormShiftAmp_detection_fixFreq,2020.1.2,MacIntel,60,,,,,,,,,,,,,,,,,,2,5.7732,,0,0,55,55,24,1,stimuli/stim_20210919_power2amp/equal_lnn_AM2Hz_s25_32.m4a,,,,,,,,,,,,
,,,,,,,,,,,,41404,2021-10-11_14h37.24.737,judgeSpeechMusic_20210919_logNormShiftAmp_detection_fixFreq,2020.1.2,MacIntel,60,,,,,,,,,,,,,,,,,,1,6.2609,,0,0,56,56,33,1,stimuli/stim_20210919_power2amp/equal_lnn_AM2Hz_s35_40.m4a,,,,,,,,,,,,
,,,,,,,,,,,,41404,2021-10-11_14h37.24.737,judgeSpeechMusic_20210919_logNormShiftAmp_detection_fixFreq,2020.1.2,MacIntel,60,,,,,,,,,,,,,,,,,,2,6.3263,,0,0,57,57,4,1,stimuli/stim_20210919_power2amp/equal_lnn_AM2Hz_s15_10.m4a,,,,,,,,,,,,
,,,,,,,,,,,,41404,2021-10-11_14h37.24.737,judgeSpeechMusic_20210919_logNormShiftAmp_detection_fixFreq,2020.1.2,MacIntel,60,,,,,,,,,,,,,,,,,,1,8.0984,,0,0,58,58,71,1,stimuli/stim_20210919_power2amp/equal_lnn_AM2Hz_s55_15.m4a,,,,,,,,,,,,
,,,,,,,,,,,,41404,2021-10-11_14h37.24.737,judgeSpeechMusic_20210919_logNormShiftAmp_detection_fixFreq,2020.1.2,MacIntel,60,,,,,,,,,,,,,,,,,,2,5.6452,,0,0,59,59,66,1,stimuli/stim_20210919_power2amp/equal_lnn_AM2Hz_s55_29.m4a,,,,,,,,,,,,
,,,,,,,,,,,,41404,2021-10-11_14h37.24.737,judgeSpeechMusic_20210919_logNormShiftAmp_detection_fixFreq,2020.1.2,MacIntel,60,,,,,,,,,,,,,,,,,,1,7.0242,3,1,0,60,60,2,1,stimuli/stim_20210919_power2amp/equal_lnn_AM2Hz_s15_14.m4a,4.2421,,,,,,,,,,,
,,,,,,,,,,,,41404,2021-10-11_14h37.24.737,judgeSpeechMusic_20210919_logNormShiftAmp_detection_fixFreq,2020.1.2,MacIntel,60,,,,,,,,,,,,,,,,,,1,9.1381,,0,0,61,61,59,1,stimuli/stim_20210919_power2amp/equal_lnn_AM2Hz_s45_48.m4a,,,,,,,,,,,,
,,,,,,,,,,,,41404,2021-10-11_14h37.24.737,judgeSpeechMusic_20210919_logNormShiftAmp_detection_fixFreq,2020.1.2,MacIntel,60,,,,,,,,,,,,,,,,,,2,8.9736,,0,0,62,62,52,1,stimuli/stim_20210919_power2amp/equal_lnn_AM2Hz_s45_27.m4a,,,,,,,,,,,,
,,,,,,,,,,,,41404,2021-10-11_14h37.24.737,judgeSpeechMusic_20210919_logNormShiftAmp_detection_fixFreq,2020.1.2,MacIntel,60,,,,,,,,,,,,,,,,,,1,9.8246,,0,0,63,63,73,1,stimuli/stim_20210919_power2amp/equal_lnn_AM2Hz_s55_41.m4a,,,,,,,,,,,,
,,,,,,,,,,,,41404,2021-10-11_14h37.24.737,judgeSpeechMusic_20210919_logNormShiftAmp_detection_fixFreq,2020.1.2,MacIntel,60,,,,,,,,,,,,,,,,,,2,10.731,,0,0,64,64,56,1,stimuli/stim_20210919_power2amp/equal_lnn_AM2Hz_s45_10.m4a,,,,,,,,,,,,
,,,,,,,,,,,,41404,2021-10-11_14h37.24.737,judgeSpeechMusic_20210919_logNormShiftAmp_detection_fixFreq,2020.1.2,MacIntel,60,,,,,,,,,,,,,,,,,,1,8.9522,,0,0,65,65,6,1,stimuli/stim_20210919_power2amp/equal_lnn_AM2Hz_s15_11.m4a,,,,,,,,,,,,
,,,,,,,,,,,,41404,2021-10-11_14h37.24.737,judgeSpeechMusic_20210919_logNormShiftAmp_detection_fixFreq,2020.1.2,MacIntel,60,,,,,,,,,,,,,,,,,,1,12.9051,,0,0,66,66,72,1,stimuli/stim_20210919_power2amp/equal_lnn_AM2Hz_s55_40.m4a,,,,,,,,,,,,
,,,,,,,,,,,,41404,2021-10-11_14h37.24.737,judgeSpeechMusic_20210919_logNormShiftAmp_detection_fixFreq,2020.1.2,MacIntel,60,,,,,,,,,,,,,,,,,,1,25.8555,,0,0,67,67,29,1,stimuli/stim_20210919_power2amp/equal_lnn_AM2Hz_s25_22.m4a,,,,,,,,,,,,
,,,,,,,,,,,,41404,2021-10-11_14h37.24.737,judgeSpeechMusic_20210919_logNormShiftAmp_detection_fixFreq,2020.1.2,MacIntel,60,,,,,,,,,,,,,,,,,,2,9.702,,0,0,68,68,20,1,stimuli/stim_20210919_power2amp/equal_lnn_AM2Hz_s25_2.m4a,,,,,,,,,,,,
,,,,,,,,,,,,41404,2021-10-11_14h37.24.737,judgeSpeechMusic_20210919_logNormShiftAmp_detection_fixFreq,2020.1.2,MacIntel,60,,,,,,,,,,,,,,,,,,1,5.8571,,0,0,69,69,13,1,stimuli/stim_20210919_power2amp/equal_lnn_AM2Hz_s15_6.m4a,,,,,,,,,,,,
,,,,,,,,,,,,41404,2021-10-11_14h37.24.737,judgeSpeechMusic_20210919_logNormShiftAmp_detection_fixFreq,2020.1.2,MacIntel,60,,,,,,,,,,,,,,,,,,2,7.972,,0,0,70,70,34,1,stimuli/stim_20210919_power2amp/equal_lnn_AM2Hz_s35_13.m4a,,,,,,,,,,,,
,,,,,,,,,,,,41404,2021-10-11_14h37.24.737,judgeSpeechMusic_20210919_logNormShiftAmp_detection_fixFreq,2020.1.2,MacIntel,60,,,,,,,,,,,,,,,,,,2,7.09,,0,0,71,71,55,1,stimuli/stim_20210919_power2amp/equal_lnn_AM2Hz_s45_28.m4a,,,,,,,,,,,,
,,,,,,,,,,,,41404,2021-10-11_14h37.24.737,judgeSpeechMusic_20210919_logNormShiftAmp_detection_fixFreq,2020.1.2,MacIntel,60,,,,,,,,,,,,,,,,,,2,10.019,,0,0,72,72,28,1,stimuli/stim_20210919_power2amp/equal_lnn_AM2Hz_s25_1.m4a,,,,,,,,,,,,
,,,,,,,,,,,,41404,2021-10-11_14h37.24.737,judgeSpeechMusic_20210919_logNormShiftAmp_detection_fixFreq,2020.1.2,MacIntel,60,,,,,,,,,,,,,,,,,,1,5.8204,,0,0,73,73,17,1,stimuli/stim_20210919_power2amp/equal_lnn_AM2Hz_s25_18.m4a,,,,,,,,,,,,
,,,,,,,,,,,,41404,2021-10-11_14h37.24.737,judgeSpeechMusic_20210919_logNormShiftAmp_detection_fixFreq,2020.1.2,MacIntel,60,,,,,,,,,,,,,,,,,,1,7.2966,,0,0,74,74,69,1,stimuli/stim_20210919_power2amp/equal_lnn_AM2Hz_s55_7.m4a,,,,,,,,,,,,
,,,,,,,,,,,,41404,2021-10-11_14h37.24.737,judgeSpeechMusic_20210919_logNormShiftAmp_detection_fixFreq,2020.1.2,MacIntel,60,,,,,,,,,,,,,,,,,,,,,,,,,,,,,,,1,1,3,1,1,SPEECH,stimuli/SPEECH.jpg,,
,,,,,,,,,,,,41404,2021-10-11_14h37.24.737,judgeSpeechMusic_20210919_logNormShiftAmp_detection_fixFreq,2020.1.2,MacIntel,60,,,,,,,,,,,,,,,,,,,,,,,,,,,,,,,,,,,,,,space,9.0427
