headphoneResponse.keys,headphoneResponse.corr,headphoneResponse.rt,headphoneTrial.thisRepN,headphoneTrial.thisTrialN,headphoneTrial.thisN,headphoneTrial.thisIndex,headphoneTrial.ran,headphone_sound1,headphone_sound2,headphone_sound3,corrAns,participant,date,expName,psychopyVersion,OS,frameRate,checkInstruKey.keys,checkInstruKey.rt,trainSlider.response,trainSlider.rt,beepTrainResponse.keys,beepTrainResponse.corr,trainingTrials.thisRepN,trainingTrials.thisTrialN,trainingTrials.thisN,trainingTrials.thisIndex,trainingTrials.ran,trainAudioFile,beepTrainResponse.rt,readyReal_resp.keys,readyReal_resp.rt,checkInstru2_key.keys,checkInstru2_key.rt,ratingSlider.response,ratingSlider.rt,beepResp.keys,beepResp.corr,expTrials.thisRepN,expTrials.thisTrialN,expTrials.thisN,expTrials.thisIndex,expTrials.ran,audioFile,beepResp.rt,switchBlock_space.keys,switchBlock_space.rt,block.thisRepN,block.thisTrialN,block.thisN,block.thisIndex,block.ran,blockName,blockImage,end_resp.keys,end_resp.rt
3,1,2.1129,0,0,0,2,1,stimuli/screen_origin.wav,stimuli/screen_antiphase.wav,stimuli/screen_quiet.wav,3,41420,2021-09-30_11h35.31.588,judgeSpeechMusic_20210919_logNormShiftAmp_detection_fixFreq,2020.1.2,MacIntel,60,,,,,,,,,,,,,,,,,,,,,,,,,,,,,,,,,,,,,,,
2,1,0.8997,0,1,1,1,1,stimuli/screen_antiphase.wav,stimuli/screen_quiet.wav,stimuli/screen_origin.wav,2,41420,2021-09-30_11h35.31.588,judgeSpeechMusic_20210919_logNormShiftAmp_detection_fixFreq,2020.1.2,MacIntel,60,,,,,,,,,,,,,,,,,,,,,,,,,,,,,,,,,,,,,,,
1,1,0.8434,0,2,2,4,1,stimuli/screen_quiet.wav,stimuli/screen_antiphase.wav,stimuli/screen_origin.wav,1,41420,2021-09-30_11h35.31.588,judgeSpeechMusic_20210919_logNormShiftAmp_detection_fixFreq,2020.1.2,MacIntel,60,,,,,,,,,,,,,,,,,,,,,,,,,,,,,,,,,,,,,,,
1,1,0.8479,0,3,3,5,1,stimuli/screen_quiet.wav,stimuli/screen_origin.wav,stimuli/screen_antiphase.wav,1,41420,2021-09-30_11h35.31.588,judgeSpeechMusic_20210919_logNormShiftAmp_detection_fixFreq,2020.1.2,MacIntel,60,,,,,,,,,,,,,,,,,,,,,,,,,,,,,,,,,,,,,,,
2,1,0.763,0,4,4,3,1,stimuli/screen_origin.wav,stimuli/screen_quiet.wav,stimuli/screen_antiphase.wav,2,41420,2021-09-30_11h35.31.588,judgeSpeechMusic_20210919_logNormShiftAmp_detection_fixFreq,2020.1.2,MacIntel,60,,,,,,,,,,,,,,,,,,,,,,,,,,,,,,,,,,,,,,,
3,1,0.7615,0,5,5,0,1,stimuli/screen_antiphase.wav,stimuli/screen_origin.wav,stimuli/screen_quiet.wav,3,41420,2021-09-30_11h35.31.588,judgeSpeechMusic_20210919_logNormShiftAmp_detection_fixFreq,2020.1.2,MacIntel,60,,,,,,,,,,,,,,,,,,,,,,,,,,,,,,,,,,,,,,,
,,,,,,,,,,,,41420,2021-09-30_11h35.31.588,judgeSpeechMusic_20210919_logNormShiftAmp_detection_fixFreq,2020.1.2,MacIntel,60,space,1.6862,1,8.8783,,0,0,0,0,1,1,stimuli/stim_20210919_power2amp/equal_lnn_AM_training2Hz_s30.m4a,,,,,,,,,,,,,,,,,,,,,,,,,,,
,,,,,,,,,,,,41420,2021-09-30_11h35.31.588,judgeSpeechMusic_20210919_logNormShiftAmp_detection_fixFreq,2020.1.2,MacIntel,60,,,1,7.9473,,0,0,1,1,0,1,stimuli/stim_20210919_power2amp/equal_lnn_AM_training2Hz_s20.m4a,,,,,,,,,,,,,,,,,,,,,,,,,,,
,,,,,,,,,,,,41420,2021-09-30_11h35.31.588,judgeSpeechMusic_20210919_logNormShiftAmp_detection_fixFreq,2020.1.2,MacIntel,60,,,1,8.1252,2,1,0,2,2,2,1,stimuli/stim_20210919_power2amp/equal_lnn_AM_training2Hz_s40.m4a,2.2121,,,,,,,,,,,,,,,,,,,,,,,,,,
,,,,,,,,,,,,41420,2021-09-30_11h35.31.588,judgeSpeechMusic_20210919_logNormShiftAmp_detection_fixFreq,2020.1.2,MacIntel,60,,,1,7.3928,,0,0,3,3,3,1,stimuli/stim_20210919_power2amp/equal_lnn_AM_training2Hz_s50.m4a,,,,,,,,,,,,,,,,,,,,,,,,,,,
,,,,,,,,,,,,41420,2021-09-30_11h35.31.588,judgeSpeechMusic_20210919_logNormShiftAmp_detection_fixFreq,2020.1.2,MacIntel,60,,,,,,,,,,,,,,space,8.3557,space,4.3332,1,7.1073,,0,0,0,0,31,1,stimuli/stim_20210919_power2amp/equal_lnn_AM2Hz_s35_27.m4a,,,,,,,,,,,,
,,,,,,,,,,,,41420,2021-09-30_11h35.31.588,judgeSpeechMusic_20210919_logNormShiftAmp_detection_fixFreq,2020.1.2,MacIntel,60,,,,,,,,,,,,,,,,,,1,7.4583,,0,0,1,1,24,1,stimuli/stim_20210919_power2amp/equal_lnn_AM2Hz_s25_33.m4a,,,,,,,,,,,,
,,,,,,,,,,,,41420,2021-09-30_11h35.31.588,judgeSpeechMusic_20210919_logNormShiftAmp_detection_fixFreq,2020.1.2,MacIntel,60,,,,,,,,,,,,,,,,,,1,6.1823,,0,0,2,2,19,1,stimuli/stim_20210919_power2amp/equal_lnn_AM2Hz_s25_32.m4a,,,,,,,,,,,,
,,,,,,,,,,,,41420,2021-09-30_11h35.31.588,judgeSpeechMusic_20210919_logNormShiftAmp_detection_fixFreq,2020.1.2,MacIntel,60,,,,,,,,,,,,,,,,,,1,7.4802,,0,0,3,3,8,1,stimuli/stim_20210919_power2amp/equal_lnn_AM2Hz_s15_39.m4a,,,,,,,,,,,,
,,,,,,,,,,,,41420,2021-09-30_11h35.31.588,judgeSpeechMusic_20210919_logNormShiftAmp_detection_fixFreq,2020.1.2,MacIntel,60,,,,,,,,,,,,,,,,,,1,8.0799,,0,0,4,4,45,1,stimuli/stim_20210919_power2amp/equal_lnn_AM2Hz_s45_16.m4a,,,,,,,,,,,,
,,,,,,,,,,,,41420,2021-09-30_11h35.31.588,judgeSpeechMusic_20210919_logNormShiftAmp_detection_fixFreq,2020.1.2,MacIntel,60,,,,,,,,,,,,,,,,,,1,8.6066,,0,0,5,5,40,1,stimuli/stim_20210919_power2amp/equal_lnn_AM2Hz_s35_10.m4a,,,,,,,,,,,,
,,,,,,,,,,,,41420,2021-09-30_11h35.31.588,judgeSpeechMusic_20210919_logNormShiftAmp_detection_fixFreq,2020.1.2,MacIntel,60,,,,,,,,,,,,,,,,,,1,6.3372,,0,0,6,6,73,1,stimuli/stim_20210919_power2amp/equal_lnn_AM2Hz_s55_31.m4a,,,,,,,,,,,,
,,,,,,,,,,,,41420,2021-09-30_11h35.31.588,judgeSpeechMusic_20210919_logNormShiftAmp_detection_fixFreq,2020.1.2,MacIntel,60,,,,,,,,,,,,,,,,,,1,6.3246,,0,0,7,7,35,1,stimuli/stim_20210919_power2amp/equal_lnn_AM2Hz_s35_49.m4a,,,,,,,,,,,,
,,,,,,,,,,,,41420,2021-09-30_11h35.31.588,judgeSpeechMusic_20210919_logNormShiftAmp_detection_fixFreq,2020.1.2,MacIntel,60,,,,,,,,,,,,,,,,,,2,11.2646,,0,0,8,8,30,1,stimuli/stim_20210919_power2amp/equal_lnn_AM2Hz_s35_37.m4a,,,,,,,,,,,,
,,,,,,,,,,,,41420,2021-09-30_11h35.31.588,judgeSpeechMusic_20210919_logNormShiftAmp_detection_fixFreq,2020.1.2,MacIntel,60,,,,,,,,,,,,,,,,,,1,6.7112,,0,0,9,9,1,1,stimuli/stim_20210919_power2amp/equal_lnn_AM2Hz_s15_40.m4a,,,,,,,,,,,,
,,,,,,,,,,,,41420,2021-09-30_11h35.31.588,judgeSpeechMusic_20210919_logNormShiftAmp_detection_fixFreq,2020.1.2,MacIntel,60,,,,,,,,,,,,,,,,,,1,8.4781,,0,0,10,10,74,1,stimuli/stim_20210919_power2amp/equal_lnn_AM2Hz_s55_14.m4a,,,,,,,,,,,,
,,,,,,,,,,,,41420,2021-09-30_11h35.31.588,judgeSpeechMusic_20210919_logNormShiftAmp_detection_fixFreq,2020.1.2,MacIntel,60,,,,,,,,,,,,,,,,,,1,6.1986,,0,0,11,11,65,1,stimuli/stim_20210919_power2amp/equal_lnn_AM2Hz_s55_5.m4a,,,,,,,,,,,,
,,,,,,,,,,,,41420,2021-09-30_11h35.31.588,judgeSpeechMusic_20210919_logNormShiftAmp_detection_fixFreq,2020.1.2,MacIntel,60,,,,,,,,,,,,,,,,,,1,5.914,,0,0,12,12,2,1,stimuli/stim_20210919_power2amp/equal_lnn_AM2Hz_s15_28.m4a,,,,,,,,,,,,
,,,,,,,,,,,,41420,2021-09-30_11h35.31.588,judgeSpeechMusic_20210919_logNormShiftAmp_detection_fixFreq,2020.1.2,MacIntel,60,,,,,,,,,,,,,,,,,,2,6.1127,,0,0,13,13,47,1,stimuli/stim_20210919_power2amp/equal_lnn_AM2Hz_s45_30.m4a,,,,,,,,,,,,
,,,,,,,,,,,,41420,2021-09-30_11h35.31.588,judgeSpeechMusic_20210919_logNormShiftAmp_detection_fixFreq,2020.1.2,MacIntel,60,,,,,,,,,,,,,,,,,,1,6.26,,0,0,14,14,22,1,stimuli/stim_20210919_power2amp/equal_lnn_AM2Hz_s25_48.m4a,,,,,,,,,,,,
,,,,,,,,,,,,41420,2021-09-30_11h35.31.588,judgeSpeechMusic_20210919_logNormShiftAmp_detection_fixFreq,2020.1.2,MacIntel,60,,,,,,,,,,,,,,,,,,1,5.9488,,0,0,15,15,57,1,stimuli/stim_20210919_power2amp/equal_lnn_AM2Hz_s45_37.m4a,,,,,,,,,,,,
,,,,,,,,,,,,41420,2021-09-30_11h35.31.588,judgeSpeechMusic_20210919_logNormShiftAmp_detection_fixFreq,2020.1.2,MacIntel,60,,,,,,,,,,,,,,,,,,1,6.4934,,0,0,16,16,63,1,stimuli/stim_20210919_power2amp/equal_lnn_AM2Hz_s55_26.m4a,,,,,,,,,,,,
,,,,,,,,,,,,41420,2021-09-30_11h35.31.588,judgeSpeechMusic_20210919_logNormShiftAmp_detection_fixFreq,2020.1.2,MacIntel,60,,,,,,,,,,,,,,,,,,1,5.8457,,0,0,17,17,71,1,stimuli/stim_20210919_power2amp/equal_lnn_AM2Hz_s55_3.m4a,,,,,,,,,,,,
,,,,,,,,,,,,41420,2021-09-30_11h35.31.588,judgeSpeechMusic_20210919_logNormShiftAmp_detection_fixFreq,2020.1.2,MacIntel,60,,,,,,,,,,,,,,,,,,2,6.095,,0,0,18,18,38,1,stimuli/stim_20210919_power2amp/equal_lnn_AM2Hz_s35_20.m4a,,,,,,,,,,,,
,,,,,,,,,,,,41420,2021-09-30_11h35.31.588,judgeSpeechMusic_20210919_logNormShiftAmp_detection_fixFreq,2020.1.2,MacIntel,60,,,,,,,,,,,,,,,,,,1,6.5275,,0,0,19,19,51,1,stimuli/stim_20210919_power2amp/equal_lnn_AM2Hz_s45_47.m4a,,,,,,,,,,,,
,,,,,,,,,,,,41420,2021-09-30_11h35.31.588,judgeSpeechMusic_20210919_logNormShiftAmp_detection_fixFreq,2020.1.2,MacIntel,60,,,,,,,,,,,,,,,,,,2,7.7291,3,1,0,20,20,5,1,stimuli/stim_20210919_power2amp/equal_lnn_AM2Hz_s15_17.m4a,2.2773,,,,,,,,,,,
,,,,,,,,,,,,41420,2021-09-30_11h35.31.588,judgeSpeechMusic_20210919_logNormShiftAmp_detection_fixFreq,2020.1.2,MacIntel,60,,,,,,,,,,,,,,,,,,1,10.2807,,0,0,21,21,70,1,stimuli/stim_20210919_power2amp/equal_lnn_AM2Hz_s55_18.m4a,,,,,,,,,,,,
,,,,,,,,,,,,41420,2021-09-30_11h35.31.588,judgeSpeechMusic_20210919_logNormShiftAmp_detection_fixFreq,2020.1.2,MacIntel,60,,,,,,,,,,,,,,,,,,2,6.0292,,0,0,22,22,34,1,stimuli/stim_20210919_power2amp/equal_lnn_AM2Hz_s35_19.m4a,,,,,,,,,,,,
,,,,,,,,,,,,41420,2021-09-30_11h35.31.588,judgeSpeechMusic_20210919_logNormShiftAmp_detection_fixFreq,2020.1.2,MacIntel,60,,,,,,,,,,,,,,,,,,2,5.8974,,0,0,23,23,41,1,stimuli/stim_20210919_power2amp/equal_lnn_AM2Hz_s35_44.m4a,,,,,,,,,,,,
,,,,,,,,,,,,41420,2021-09-30_11h35.31.588,judgeSpeechMusic_20210919_logNormShiftAmp_detection_fixFreq,2020.1.2,MacIntel,60,,,,,,,,,,,,,,,,,,2,6.0431,,0,0,24,24,27,1,stimuli/stim_20210919_power2amp/equal_lnn_AM2Hz_s25_12.m4a,,,,,,,,,,,,
,,,,,,,,,,,,41420,2021-09-30_11h35.31.588,judgeSpeechMusic_20210919_logNormShiftAmp_detection_fixFreq,2020.1.2,MacIntel,60,,,,,,,,,,,,,,,,,,1,5.8967,,0,0,25,25,32,1,stimuli/stim_20210919_power2amp/equal_lnn_AM2Hz_s35_1.m4a,,,,,,,,,,,,
,,,,,,,,,,,,41420,2021-09-30_11h35.31.588,judgeSpeechMusic_20210919_logNormShiftAmp_detection_fixFreq,2020.1.2,MacIntel,60,,,,,,,,,,,,,,,,,,2,6.8501,,0,0,26,26,56,1,stimuli/stim_20210919_power2amp/equal_lnn_AM2Hz_s45_20.m4a,,,,,,,,,,,,
,,,,,,,,,,,,41420,2021-09-30_11h35.31.588,judgeSpeechMusic_20210919_logNormShiftAmp_detection_fixFreq,2020.1.2,MacIntel,60,,,,,,,,,,,,,,,,,,2,8.5809,,0,0,27,27,54,1,stimuli/stim_20210919_power2amp/equal_lnn_AM2Hz_s45_25.m4a,,,,,,,,,,,,
,,,,,,,,,,,,41420,2021-09-30_11h35.31.588,judgeSpeechMusic_20210919_logNormShiftAmp_detection_fixFreq,2020.1.2,MacIntel,60,,,,,,,,,,,,,,,,,,1,6.0135,,0,0,28,28,4,1,stimuli/stim_20210919_power2amp/equal_lnn_AM2Hz_s15_15.m4a,,,,,,,,,,,,
,,,,,,,,,,,,41420,2021-09-30_11h35.31.588,judgeSpeechMusic_20210919_logNormShiftAmp_detection_fixFreq,2020.1.2,MacIntel,60,,,,,,,,,,,,,,,,,,2,5.9789,,0,0,29,29,39,1,stimuli/stim_20210919_power2amp/equal_lnn_AM2Hz_s35_28.m4a,,,,,,,,,,,,
,,,,,,,,,,,,41420,2021-09-30_11h35.31.588,judgeSpeechMusic_20210919_logNormShiftAmp_detection_fixFreq,2020.1.2,MacIntel,60,,,,,,,,,,,,,,,,,,2,7.2274,,0,0,30,30,52,1,stimuli/stim_20210919_power2amp/equal_lnn_AM2Hz_s45_46.m4a,,,,,,,,,,,,
,,,,,,,,,,,,41420,2021-09-30_11h35.31.588,judgeSpeechMusic_20210919_logNormShiftAmp_detection_fixFreq,2020.1.2,MacIntel,60,,,,,,,,,,,,,,,,,,2,5.7939,,0,0,31,31,18,1,stimuli/stim_20210919_power2amp/equal_lnn_AM2Hz_s25_41.m4a,,,,,,,,,,,,
,,,,,,,,,,,,41420,2021-09-30_11h35.31.588,judgeSpeechMusic_20210919_logNormShiftAmp_detection_fixFreq,2020.1.2,MacIntel,60,,,,,,,,,,,,,,,,,,2,5.7819,,0,0,32,32,62,1,stimuli/stim_20210919_power2amp/equal_lnn_AM2Hz_s55_42.m4a,,,,,,,,,,,,
,,,,,,,,,,,,41420,2021-09-30_11h35.31.588,judgeSpeechMusic_20210919_logNormShiftAmp_detection_fixFreq,2020.1.2,MacIntel,60,,,,,,,,,,,,,,,,,,1,6.1641,,0,0,33,33,13,1,stimuli/stim_20210919_power2amp/equal_lnn_AM2Hz_s15_38.m4a,,,,,,,,,,,,
,,,,,,,,,,,,41420,2021-09-30_11h35.31.588,judgeSpeechMusic_20210919_logNormShiftAmp_detection_fixFreq,2020.1.2,MacIntel,60,,,,,,,,,,,,,,,,,,1,5.878,,0,0,34,34,11,1,stimuli/stim_20210919_power2amp/equal_lnn_AM2Hz_s15_3.m4a,,,,,,,,,,,,
,,,,,,,,,,,,41420,2021-09-30_11h35.31.588,judgeSpeechMusic_20210919_logNormShiftAmp_detection_fixFreq,2020.1.2,MacIntel,60,,,,,,,,,,,,,,,,,,1,5.7946,,0,0,35,35,9,1,stimuli/stim_20210919_power2amp/equal_lnn_AM2Hz_s15_27.m4a,,,,,,,,,,,,
,,,,,,,,,,,,41420,2021-09-30_11h35.31.588,judgeSpeechMusic_20210919_logNormShiftAmp_detection_fixFreq,2020.1.2,MacIntel,60,,,,,,,,,,,,,,,,,,1,5.9286,,0,0,36,36,26,1,stimuli/stim_20210919_power2amp/equal_lnn_AM2Hz_s25_9.m4a,,,,,,,,,,,,
,,,,,,,,,,,,41420,2021-09-30_11h35.31.588,judgeSpeechMusic_20210919_logNormShiftAmp_detection_fixFreq,2020.1.2,MacIntel,60,,,,,,,,,,,,,,,,,,1,5.8992,,0,0,37,37,50,1,stimuli/stim_20210919_power2amp/equal_lnn_AM2Hz_s45_42.m4a,,,,,,,,,,,,
,,,,,,,,,,,,41420,2021-09-30_11h35.31.588,judgeSpeechMusic_20210919_logNormShiftAmp_detection_fixFreq,2020.1.2,MacIntel,60,,,,,,,,,,,,,,,,,,2,7.127,,0,0,38,38,68,1,stimuli/stim_20210919_power2amp/equal_lnn_AM2Hz_s55_20.m4a,,,,,,,,,,,,
,,,,,,,,,,,,41420,2021-09-30_11h35.31.588,judgeSpeechMusic_20210919_logNormShiftAmp_detection_fixFreq,2020.1.2,MacIntel,60,,,,,,,,,,,,,,,,,,1,6.8122,,0,0,39,39,49,1,stimuli/stim_20210919_power2amp/equal_lnn_AM2Hz_s45_22.m4a,,,,,,,,,,,,
,,,,,,,,,,,,41420,2021-09-30_11h35.31.588,judgeSpeechMusic_20210919_logNormShiftAmp_detection_fixFreq,2020.1.2,MacIntel,60,,,,,,,,,,,,,,,,,,1,6.3983,1,1,0,40,40,16,1,stimuli/stim_20210919_power2amp/equal_lnn_AM2Hz_s25_43.m4a,2.0275,,,,,,,,,,,
,,,,,,,,,,,,41420,2021-09-30_11h35.31.588,judgeSpeechMusic_20210919_logNormShiftAmp_detection_fixFreq,2020.1.2,MacIntel,60,,,,,,,,,,,,,,,,,,2,6.9779,,0,0,41,41,72,1,stimuli/stim_20210919_power2amp/equal_lnn_AM2Hz_s55_8.m4a,,,,,,,,,,,,
,,,,,,,,,,,,41420,2021-09-30_11h35.31.588,judgeSpeechMusic_20210919_logNormShiftAmp_detection_fixFreq,2020.1.2,MacIntel,60,,,,,,,,,,,,,,,,,,2,5.8026,,0,0,42,42,44,1,stimuli/stim_20210919_power2amp/equal_lnn_AM2Hz_s35_45.m4a,,,,,,,,,,,,
,,,,,,,,,,,,41420,2021-09-30_11h35.31.588,judgeSpeechMusic_20210919_logNormShiftAmp_detection_fixFreq,2020.1.2,MacIntel,60,,,,,,,,,,,,,,,,,,2,5.9411,,0,0,43,43,33,1,stimuli/stim_20210919_power2amp/equal_lnn_AM2Hz_s35_6.m4a,,,,,,,,,,,,
,,,,,,,,,,,,41420,2021-09-30_11h35.31.588,judgeSpeechMusic_20210919_logNormShiftAmp_detection_fixFreq,2020.1.2,MacIntel,60,,,,,,,,,,,,,,,,,,1,6.4435,,0,0,44,44,37,1,stimuli/stim_20210919_power2amp/equal_lnn_AM2Hz_s35_34.m4a,,,,,,,,,,,,
,,,,,,,,,,,,41420,2021-09-30_11h35.31.588,judgeSpeechMusic_20210919_logNormShiftAmp_detection_fixFreq,2020.1.2,MacIntel,60,,,,,,,,,,,,,,,,,,1,5.7669,,0,0,45,45,0,1,stimuli/stim_20210919_power2amp/equal_lnn_AM2Hz_s15_18.m4a,,,,,,,,,,,,
,,,,,,,,,,,,41420,2021-09-30_11h35.31.588,judgeSpeechMusic_20210919_logNormShiftAmp_detection_fixFreq,2020.1.2,MacIntel,60,,,,,,,,,,,,,,,,,,1,5.7638,,0,0,46,46,6,1,stimuli/stim_20210919_power2amp/equal_lnn_AM2Hz_s15_44.m4a,,,,,,,,,,,,
,,,,,,,,,,,,41420,2021-09-30_11h35.31.588,judgeSpeechMusic_20210919_logNormShiftAmp_detection_fixFreq,2020.1.2,MacIntel,60,,,,,,,,,,,,,,,,,,1,5.7641,,0,0,47,47,17,1,stimuli/stim_20210919_power2amp/equal_lnn_AM2Hz_s25_18.m4a,,,,,,,,,,,,
,,,,,,,,,,,,41420,2021-09-30_11h35.31.588,judgeSpeechMusic_20210919_logNormShiftAmp_detection_fixFreq,2020.1.2,MacIntel,60,,,,,,,,,,,,,,,,,,1,5.9804,,0,0,48,48,36,1,stimuli/stim_20210919_power2amp/equal_lnn_AM2Hz_s35_33.m4a,,,,,,,,,,,,
,,,,,,,,,,,,41420,2021-09-30_11h35.31.588,judgeSpeechMusic_20210919_logNormShiftAmp_detection_fixFreq,2020.1.2,MacIntel,60,,,,,,,,,,,,,,,,,,1,5.7961,,0,0,49,49,69,1,stimuli/stim_20210919_power2amp/equal_lnn_AM2Hz_s55_6.m4a,,,,,,,,,,,,
,,,,,,,,,,,,41420,2021-09-30_11h35.31.588,judgeSpeechMusic_20210919_logNormShiftAmp_detection_fixFreq,2020.1.2,MacIntel,60,,,,,,,,,,,,,,,,,,1,5.925,,0,0,50,50,25,1,stimuli/stim_20210919_power2amp/equal_lnn_AM2Hz_s25_2.m4a,,,,,,,,,,,,
,,,,,,,,,,,,41420,2021-09-30_11h35.31.588,judgeSpeechMusic_20210919_logNormShiftAmp_detection_fixFreq,2020.1.2,MacIntel,60,,,,,,,,,,,,,,,,,,1,5.8115,,0,0,51,51,53,1,stimuli/stim_20210919_power2amp/equal_lnn_AM2Hz_s45_48.m4a,,,,,,,,,,,,
,,,,,,,,,,,,41420,2021-09-30_11h35.31.588,judgeSpeechMusic_20210919_logNormShiftAmp_detection_fixFreq,2020.1.2,MacIntel,60,,,,,,,,,,,,,,,,,,1,5.8669,,0,0,52,52,42,1,stimuli/stim_20210919_power2amp/equal_lnn_AM2Hz_s35_22.m4a,,,,,,,,,,,,
,,,,,,,,,,,,41420,2021-09-30_11h35.31.588,judgeSpeechMusic_20210919_logNormShiftAmp_detection_fixFreq,2020.1.2,MacIntel,60,,,,,,,,,,,,,,,,,,1,5.7786,,0,0,53,53,14,1,stimuli/stim_20210919_power2amp/equal_lnn_AM2Hz_s15_46.m4a,,,,,,,,,,,,
,,,,,,,,,,,,41420,2021-09-30_11h35.31.588,judgeSpeechMusic_20210919_logNormShiftAmp_detection_fixFreq,2020.1.2,MacIntel,60,,,,,,,,,,,,,,,,,,2,6.3479,,0,0,54,54,28,1,stimuli/stim_20210919_power2amp/equal_lnn_AM2Hz_s25_46.m4a,,,,,,,,,,,,
,,,,,,,,,,,,41420,2021-09-30_11h35.31.588,judgeSpeechMusic_20210919_logNormShiftAmp_detection_fixFreq,2020.1.2,MacIntel,60,,,,,,,,,,,,,,,,,,1,6.2952,,0,0,55,55,48,1,stimuli/stim_20210919_power2amp/equal_lnn_AM2Hz_s45_15.m4a,,,,,,,,,,,,
,,,,,,,,,,,,41420,2021-09-30_11h35.31.588,judgeSpeechMusic_20210919_logNormShiftAmp_detection_fixFreq,2020.1.2,MacIntel,60,,,,,,,,,,,,,,,,,,1,6.565,,0,0,56,56,64,1,stimuli/stim_20210919_power2amp/equal_lnn_AM2Hz_s55_37.m4a,,,,,,,,,,,,
,,,,,,,,,,,,41420,2021-09-30_11h35.31.588,judgeSpeechMusic_20210919_logNormShiftAmp_detection_fixFreq,2020.1.2,MacIntel,60,,,,,,,,,,,,,,,,,,1,5.8808,,0,0,57,57,66,1,stimuli/stim_20210919_power2amp/equal_lnn_AM2Hz_s55_4.m4a,,,,,,,,,,,,
,,,,,,,,,,,,41420,2021-09-30_11h35.31.588,judgeSpeechMusic_20210919_logNormShiftAmp_detection_fixFreq,2020.1.2,MacIntel,60,,,,,,,,,,,,,,,,,,1,7.4248,,0,0,58,58,55,1,stimuli/stim_20210919_power2amp/equal_lnn_AM2Hz_s45_24.m4a,,,,,,,,,,,,
,,,,,,,,,,,,41420,2021-09-30_11h35.31.588,judgeSpeechMusic_20210919_logNormShiftAmp_detection_fixFreq,2020.1.2,MacIntel,60,,,,,,,,,,,,,,,,,,2,7.6139,,0,0,59,59,20,1,stimuli/stim_20210919_power2amp/equal_lnn_AM2Hz_s25_16.m4a,,,,,,,,,,,,
,,,,,,,,,,,,41420,2021-09-30_11h35.31.588,judgeSpeechMusic_20210919_logNormShiftAmp_detection_fixFreq,2020.1.2,MacIntel,60,,,,,,,,,,,,,,,,,,1,6.2705,,0,0,60,60,43,1,stimuli/stim_20210919_power2amp/equal_lnn_AM2Hz_s35_8.m4a,,,,,,,,,,,,
,,,,,,,,,,,,41420,2021-09-30_11h35.31.588,judgeSpeechMusic_20210919_logNormShiftAmp_detection_fixFreq,2020.1.2,MacIntel,60,,,,,,,,,,,,,,,,,,2,5.993,,0,0,61,61,12,1,stimuli/stim_20210919_power2amp/equal_lnn_AM2Hz_s15_6.m4a,,,,,,,,,,,,
,,,,,,,,,,,,41420,2021-09-30_11h35.31.588,judgeSpeechMusic_20210919_logNormShiftAmp_detection_fixFreq,2020.1.2,MacIntel,60,,,,,,,,,,,,,,,,,,1,6.2973,1,1,0,62,62,10,1,stimuli/stim_20210919_power2amp/equal_lnn_AM2Hz_s15_25.m4a,2.0446,,,,,,,,,,,
,,,,,,,,,,,,41420,2021-09-30_11h35.31.588,judgeSpeechMusic_20210919_logNormShiftAmp_detection_fixFreq,2020.1.2,MacIntel,60,,,,,,,,,,,,,,,,,,2,6.5475,,0,0,63,63,60,1,stimuli/stim_20210919_power2amp/equal_lnn_AM2Hz_s55_50.m4a,,,,,,,,,,,,
,,,,,,,,,,,,41420,2021-09-30_11h35.31.588,judgeSpeechMusic_20210919_logNormShiftAmp_detection_fixFreq,2020.1.2,MacIntel,60,,,,,,,,,,,,,,,,,,2,6.2089,,0,0,64,64,58,1,stimuli/stim_20210919_power2amp/equal_lnn_AM2Hz_s45_11.m4a,,,,,,,,,,,,
,,,,,,,,,,,,41420,2021-09-30_11h35.31.588,judgeSpeechMusic_20210919_logNormShiftAmp_detection_fixFreq,2020.1.2,MacIntel,60,,,,,,,,,,,,,,,,,,2,6.9833,,0,0,65,65,21,1,stimuli/stim_20210919_power2amp/equal_lnn_AM2Hz_s25_17.m4a,,,,,,,,,,,,
,,,,,,,,,,,,41420,2021-09-30_11h35.31.588,judgeSpeechMusic_20210919_logNormShiftAmp_detection_fixFreq,2020.1.2,MacIntel,60,,,,,,,,,,,,,,,,,,1,6.079,,0,0,66,66,23,1,stimuli/stim_20210919_power2amp/equal_lnn_AM2Hz_s25_8.m4a,,,,,,,,,,,,
,,,,,,,,,,,,41420,2021-09-30_11h35.31.588,judgeSpeechMusic_20210919_logNormShiftAmp_detection_fixFreq,2020.1.2,MacIntel,60,,,,,,,,,,,,,,,,,,1,5.76,,0,0,67,67,67,1,stimuli/stim_20210919_power2amp/equal_lnn_AM2Hz_s55_28.m4a,,,,,,,,,,,,
,,,,,,,,,,,,41420,2021-09-30_11h35.31.588,judgeSpeechMusic_20210919_logNormShiftAmp_detection_fixFreq,2020.1.2,MacIntel,60,,,,,,,,,,,,,,,,,,2,6.0999,,0,0,68,68,61,1,stimuli/stim_20210919_power2amp/equal_lnn_AM2Hz_s55_46.m4a,,,,,,,,,,,,
,,,,,,,,,,,,41420,2021-09-30_11h35.31.588,judgeSpeechMusic_20210919_logNormShiftAmp_detection_fixFreq,2020.1.2,MacIntel,60,,,,,,,,,,,,,,,,,,2,6.063,,0,0,69,69,29,1,stimuli/stim_20210919_power2amp/equal_lnn_AM2Hz_s25_45.m4a,,,,,,,,,,,,
,,,,,,,,,,,,41420,2021-09-30_11h35.31.588,judgeSpeechMusic_20210919_logNormShiftAmp_detection_fixFreq,2020.1.2,MacIntel,60,,,,,,,,,,,,,,,,,,1,5.9964,,0,0,70,70,59,1,stimuli/stim_20210919_power2amp/equal_lnn_AM2Hz_s45_1.m4a,,,,,,,,,,,,
,,,,,,,,,,,,41420,2021-09-30_11h35.31.588,judgeSpeechMusic_20210919_logNormShiftAmp_detection_fixFreq,2020.1.2,MacIntel,60,,,,,,,,,,,,,,,,,,1,6.1462,,0,0,71,71,3,1,stimuli/stim_20210919_power2amp/equal_lnn_AM2Hz_s15_12.m4a,,,,,,,,,,,,
,,,,,,,,,,,,41420,2021-09-30_11h35.31.588,judgeSpeechMusic_20210919_logNormShiftAmp_detection_fixFreq,2020.1.2,MacIntel,60,,,,,,,,,,,,,,,,,,1,5.7661,,0,0,72,72,15,1,stimuli/stim_20210919_power2amp/equal_lnn_AM2Hz_s25_7.m4a,,,,,,,,,,,,
,,,,,,,,,,,,41420,2021-09-30_11h35.31.588,judgeSpeechMusic_20210919_logNormShiftAmp_detection_fixFreq,2020.1.2,MacIntel,60,,,,,,,,,,,,,,,,,,1,5.797,,0,0,73,73,7,1,stimuli/stim_20210919_power2amp/equal_lnn_AM2Hz_s15_1.m4a,,,,,,,,,,,,
,,,,,,,,,,,,41420,2021-09-30_11h35.31.588,judgeSpeechMusic_20210919_logNormShiftAmp_detection_fixFreq,2020.1.2,MacIntel,60,,,,,,,,,,,,,,,,,,2,6.1794,,0,0,74,74,46,1,stimuli/stim_20210919_power2amp/equal_lnn_AM2Hz_s45_41.m4a,,,,,,,,,,,,
,,,,,,,,,,,,41420,2021-09-30_11h35.31.588,judgeSpeechMusic_20210919_logNormShiftAmp_detection_fixFreq,2020.1.2,MacIntel,60,,,,,,,,,,,,,,,,,,,,,,,,,,,,,space,1.3981,0,0,0,1,1,SPEECH,stimuli/SPEECH.jpg,,
,,,,,,,,,,,,41420,2021-09-30_11h35.31.588,judgeSpeechMusic_20210919_logNormShiftAmp_detection_fixFreq,2020.1.2,MacIntel,60,space,1.2404,1,9.5318,,0,0,0,0,0,1,stimuli/stim_20210919_power2amp/equal_lnn_AM_training2Hz_s20.m4a,,,,,,,,,,,,,,,,,,,,,,,,,,,
,,,,,,,,,,,,41420,2021-09-30_11h35.31.588,judgeSpeechMusic_20210919_logNormShiftAmp_detection_fixFreq,2020.1.2,MacIntel,60,,,2,5.8442,,0,0,1,1,1,1,stimuli/stim_20210919_power2amp/equal_lnn_AM_training2Hz_s30.m4a,,,,,,,,,,,,,,,,,,,,,,,,,,,
,,,,,,,,,,,,41420,2021-09-30_11h35.31.588,judgeSpeechMusic_20210919_logNormShiftAmp_detection_fixFreq,2020.1.2,MacIntel,60,,,2,6.209,3,1,0,2,2,2,1,stimuli/stim_20210919_power2amp/equal_lnn_AM_training2Hz_s40.m4a,1.6443,,,,,,,,,,,,,,,,,,,,,,,,,,
,,,,,,,,,,,,41420,2021-09-30_11h35.31.588,judgeSpeechMusic_20210919_logNormShiftAmp_detection_fixFreq,2020.1.2,MacIntel,60,,,1,6.5631,,0,0,3,3,3,1,stimuli/stim_20210919_power2amp/equal_lnn_AM_training2Hz_s50.m4a,,,,,,,,,,,,,,,,,,,,,,,,,,,
,,,,,,,,,,,,41420,2021-09-30_11h35.31.588,judgeSpeechMusic_20210919_logNormShiftAmp_detection_fixFreq,2020.1.2,MacIntel,60,,,,,,,,,,,,,,space,4.4059,space,0.6856,1,8.3861,,0,0,0,0,54,1,stimuli/stim_20210919_power2amp/equal_lnn_AM2Hz_s45_25.m4a,,,,,,,,,,,,
,,,,,,,,,,,,41420,2021-09-30_11h35.31.588,judgeSpeechMusic_20210919_logNormShiftAmp_detection_fixFreq,2020.1.2,MacIntel,60,,,,,,,,,,,,,,,,,,1,6.9993,,0,0,1,1,4,1,stimuli/stim_20210919_power2amp/equal_lnn_AM2Hz_s15_15.m4a,,,,,,,,,,,,
,,,,,,,,,,,,41420,2021-09-30_11h35.31.588,judgeSpeechMusic_20210919_logNormShiftAmp_detection_fixFreq,2020.1.2,MacIntel,60,,,,,,,,,,,,,,,,,,1,6.1145,,0,0,2,2,23,1,stimuli/stim_20210919_power2amp/equal_lnn_AM2Hz_s25_8.m4a,,,,,,,,,,,,
,,,,,,,,,,,,41420,2021-09-30_11h35.31.588,judgeSpeechMusic_20210919_logNormShiftAmp_detection_fixFreq,2020.1.2,MacIntel,60,,,,,,,,,,,,,,,,,,1,7.2638,,0,0,3,3,55,1,stimuli/stim_20210919_power2amp/equal_lnn_AM2Hz_s45_24.m4a,,,,,,,,,,,,
,,,,,,,,,,,,41420,2021-09-30_11h35.31.588,judgeSpeechMusic_20210919_logNormShiftAmp_detection_fixFreq,2020.1.2,MacIntel,60,,,,,,,,,,,,,,,,,,2,6.8141,,0,0,4,4,49,1,stimuli/stim_20210919_power2amp/equal_lnn_AM2Hz_s45_22.m4a,,,,,,,,,,,,
,,,,,,,,,,,,41420,2021-09-30_11h35.31.588,judgeSpeechMusic_20210919_logNormShiftAmp_detection_fixFreq,2020.1.2,MacIntel,60,,,,,,,,,,,,,,,,,,2,6.6462,,0,0,5,5,38,1,stimuli/stim_20210919_power2amp/equal_lnn_AM2Hz_s35_20.m4a,,,,,,,,,,,,
,,,,,,,,,,,,41420,2021-09-30_11h35.31.588,judgeSpeechMusic_20210919_logNormShiftAmp_detection_fixFreq,2020.1.2,MacIntel,60,,,,,,,,,,,,,,,,,,1,6.3798,,0,0,6,6,57,1,stimuli/stim_20210919_power2amp/equal_lnn_AM2Hz_s45_37.m4a,,,,,,,,,,,,
,,,,,,,,,,,,41420,2021-09-30_11h35.31.588,judgeSpeechMusic_20210919_logNormShiftAmp_detection_fixFreq,2020.1.2,MacIntel,60,,,,,,,,,,,,,,,,,,2,10.8638,,0,0,7,7,2,1,stimuli/stim_20210919_power2amp/equal_lnn_AM2Hz_s15_28.m4a,,,,,,,,,,,,
,,,,,,,,,,,,41420,2021-09-30_11h35.31.588,judgeSpeechMusic_20210919_logNormShiftAmp_detection_fixFreq,2020.1.2,MacIntel,60,,,,,,,,,,,,,,,,,,2,5.8649,,0,0,8,8,12,1,stimuli/stim_20210919_power2amp/equal_lnn_AM2Hz_s15_6.m4a,,,,,,,,,,,,
,,,,,,,,,,,,41420,2021-09-30_11h35.31.588,judgeSpeechMusic_20210919_logNormShiftAmp_detection_fixFreq,2020.1.2,MacIntel,60,,,,,,,,,,,,,,,,,,2,7.4963,,0,0,9,9,24,1,stimuli/stim_20210919_power2amp/equal_lnn_AM2Hz_s25_33.m4a,,,,,,,,,,,,
,,,,,,,,,,,,41420,2021-09-30_11h35.31.588,judgeSpeechMusic_20210919_logNormShiftAmp_detection_fixFreq,2020.1.2,MacIntel,60,,,,,,,,,,,,,,,,,,1,6.2672,,0,0,10,10,71,1,stimuli/stim_20210919_power2amp/equal_lnn_AM2Hz_s55_3.m4a,,,,,,,,,,,,
,,,,,,,,,,,,41420,2021-09-30_11h35.31.588,judgeSpeechMusic_20210919_logNormShiftAmp_detection_fixFreq,2020.1.2,MacIntel,60,,,,,,,,,,,,,,,,,,1,6.6914,,0,0,11,11,43,1,stimuli/stim_20210919_power2amp/equal_lnn_AM2Hz_s35_8.m4a,,,,,,,,,,,,
,,,,,,,,,,,,41420,2021-09-30_11h35.31.588,judgeSpeechMusic_20210919_logNormShiftAmp_detection_fixFreq,2020.1.2,MacIntel,60,,,,,,,,,,,,,,,,,,2,6.4508,,0,0,12,12,72,1,stimuli/stim_20210919_power2amp/equal_lnn_AM2Hz_s55_8.m4a,,,,,,,,,,,,
,,,,,,,,,,,,41420,2021-09-30_11h35.31.588,judgeSpeechMusic_20210919_logNormShiftAmp_detection_fixFreq,2020.1.2,MacIntel,60,,,,,,,,,,,,,,,,,,2,7.9139,,0,0,13,13,22,1,stimuli/stim_20210919_power2amp/equal_lnn_AM2Hz_s25_48.m4a,,,,,,,,,,,,
,,,,,,,,,,,,41420,2021-09-30_11h35.31.588,judgeSpeechMusic_20210919_logNormShiftAmp_detection_fixFreq,2020.1.2,MacIntel,60,,,,,,,,,,,,,,,,,,2,7.0444,,0,0,14,14,40,1,stimuli/stim_20210919_power2amp/equal_lnn_AM2Hz_s35_10.m4a,,,,,,,,,,,,
,,,,,,,,,,,,41420,2021-09-30_11h35.31.588,judgeSpeechMusic_20210919_logNormShiftAmp_detection_fixFreq,2020.1.2,MacIntel,60,,,,,,,,,,,,,,,,,,1,6.0806,,0,0,15,15,42,1,stimuli/stim_20210919_power2amp/equal_lnn_AM2Hz_s35_22.m4a,,,,,,,,,,,,
,,,,,,,,,,,,41420,2021-09-30_11h35.31.588,judgeSpeechMusic_20210919_logNormShiftAmp_detection_fixFreq,2020.1.2,MacIntel,60,,,,,,,,,,,,,,,,,,1,5.763,,0,0,16,16,70,1,stimuli/stim_20210919_power2amp/equal_lnn_AM2Hz_s55_18.m4a,,,,,,,,,,,,
,,,,,,,,,,,,41420,2021-09-30_11h35.31.588,judgeSpeechMusic_20210919_logNormShiftAmp_detection_fixFreq,2020.1.2,MacIntel,60,,,,,,,,,,,,,,,,,,2,6.144,,0,0,17,17,64,1,stimuli/stim_20210919_power2amp/equal_lnn_AM2Hz_s55_37.m4a,,,,,,,,,,,,
,,,,,,,,,,,,41420,2021-09-30_11h35.31.588,judgeSpeechMusic_20210919_logNormShiftAmp_detection_fixFreq,2020.1.2,MacIntel,60,,,,,,,,,,,,,,,,,,2,7.0864,,0,0,18,18,37,1,stimuli/stim_20210919_power2amp/equal_lnn_AM2Hz_s35_34.m4a,,,,,,,,,,,,
,,,,,,,,,,,,41420,2021-09-30_11h35.31.588,judgeSpeechMusic_20210919_logNormShiftAmp_detection_fixFreq,2020.1.2,MacIntel,60,,,,,,,,,,,,,,,,,,1,5.8404,,0,0,19,19,73,1,stimuli/stim_20210919_power2amp/equal_lnn_AM2Hz_s55_31.m4a,,,,,,,,,,,,
,,,,,,,,,,,,41420,2021-09-30_11h35.31.588,judgeSpeechMusic_20210919_logNormShiftAmp_detection_fixFreq,2020.1.2,MacIntel,60,,,,,,,,,,,,,,,,,,1,6.1988,3,1,0,20,20,25,1,stimuli/stim_20210919_power2amp/equal_lnn_AM2Hz_s25_2.m4a,3.1242,,,,,,,,,,,
,,,,,,,,,,,,41420,2021-09-30_11h35.31.588,judgeSpeechMusic_20210919_logNormShiftAmp_detection_fixFreq,2020.1.2,MacIntel,60,,,,,,,,,,,,,,,,,,1,5.9312,,0,0,21,21,9,1,stimuli/stim_20210919_power2amp/equal_lnn_AM2Hz_s15_27.m4a,,,,,,,,,,,,
,,,,,,,,,,,,41420,2021-09-30_11h35.31.588,judgeSpeechMusic_20210919_logNormShiftAmp_detection_fixFreq,2020.1.2,MacIntel,60,,,,,,,,,,,,,,,,,,1,5.728,,0,0,22,22,17,1,stimuli/stim_20210919_power2amp/equal_lnn_AM2Hz_s25_18.m4a,,,,,,,,,,,,
,,,,,,,,,,,,41420,2021-09-30_11h35.31.588,judgeSpeechMusic_20210919_logNormShiftAmp_detection_fixFreq,2020.1.2,MacIntel,60,,,,,,,,,,,,,,,,,,2,6.0835,,0,0,23,23,52,1,stimuli/stim_20210919_power2amp/equal_lnn_AM2Hz_s45_46.m4a,,,,,,,,,,,,
,,,,,,,,,,,,41420,2021-09-30_11h35.31.588,judgeSpeechMusic_20210919_logNormShiftAmp_detection_fixFreq,2020.1.2,MacIntel,60,,,,,,,,,,,,,,,,,,2,5.7466,,0,0,24,24,62,1,stimuli/stim_20210919_power2amp/equal_lnn_AM2Hz_s55_42.m4a,,,,,,,,,,,,
,,,,,,,,,,,,41420,2021-09-30_11h35.31.588,judgeSpeechMusic_20210919_logNormShiftAmp_detection_fixFreq,2020.1.2,MacIntel,60,,,,,,,,,,,,,,,,,,1,6.0143,,0,0,25,25,31,1,stimuli/stim_20210919_power2amp/equal_lnn_AM2Hz_s35_27.m4a,,,,,,,,,,,,
,,,,,,,,,,,,41420,2021-09-30_11h35.31.588,judgeSpeechMusic_20210919_logNormShiftAmp_detection_fixFreq,2020.1.2,MacIntel,60,,,,,,,,,,,,,,,,,,2,7.0299,,0,0,26,26,10,1,stimuli/stim_20210919_power2amp/equal_lnn_AM2Hz_s15_25.m4a,,,,,,,,,,,,
,,,,,,,,,,,,41420,2021-09-30_11h35.31.588,judgeSpeechMusic_20210919_logNormShiftAmp_detection_fixFreq,2020.1.2,MacIntel,60,,,,,,,,,,,,,,,,,,1,5.9474,,0,0,27,27,69,1,stimuli/stim_20210919_power2amp/equal_lnn_AM2Hz_s55_6.m4a,,,,,,,,,,,,
,,,,,,,,,,,,41420,2021-09-30_11h35.31.588,judgeSpeechMusic_20210919_logNormShiftAmp_detection_fixFreq,2020.1.2,MacIntel,60,,,,,,,,,,,,,,,,,,1,5.7285,,0,0,28,28,53,1,stimuli/stim_20210919_power2amp/equal_lnn_AM2Hz_s45_48.m4a,,,,,,,,,,,,
,,,,,,,,,,,,41420,2021-09-30_11h35.31.588,judgeSpeechMusic_20210919_logNormShiftAmp_detection_fixFreq,2020.1.2,MacIntel,60,,,,,,,,,,,,,,,,,,1,5.8668,,0,0,29,29,13,1,stimuli/stim_20210919_power2amp/equal_lnn_AM2Hz_s15_38.m4a,,,,,,,,,,,,
,,,,,,,,,,,,41420,2021-09-30_11h35.31.588,judgeSpeechMusic_20210919_logNormShiftAmp_detection_fixFreq,2020.1.2,MacIntel,60,,,,,,,,,,,,,,,,,,2,5.7966,,0,0,30,30,41,1,stimuli/stim_20210919_power2amp/equal_lnn_AM2Hz_s35_44.m4a,,,,,,,,,,,,
,,,,,,,,,,,,41420,2021-09-30_11h35.31.588,judgeSpeechMusic_20210919_logNormShiftAmp_detection_fixFreq,2020.1.2,MacIntel,60,,,,,,,,,,,,,,,,,,2,6.7954,,0,0,31,31,11,1,stimuli/stim_20210919_power2amp/equal_lnn_AM2Hz_s15_3.m4a,,,,,,,,,,,,
,,,,,,,,,,,,41420,2021-09-30_11h35.31.588,judgeSpeechMusic_20210919_logNormShiftAmp_detection_fixFreq,2020.1.2,MacIntel,60,,,,,,,,,,,,,,,,,,2,6.2825,,0,0,32,32,32,1,stimuli/stim_20210919_power2amp/equal_lnn_AM2Hz_s35_1.m4a,,,,,,,,,,,,
,,,,,,,,,,,,41420,2021-09-30_11h35.31.588,judgeSpeechMusic_20210919_logNormShiftAmp_detection_fixFreq,2020.1.2,MacIntel,60,,,,,,,,,,,,,,,,,,2,5.8787,,0,0,33,33,60,1,stimuli/stim_20210919_power2amp/equal_lnn_AM2Hz_s55_50.m4a,,,,,,,,,,,,
,,,,,,,,,,,,41420,2021-09-30_11h35.31.588,judgeSpeechMusic_20210919_logNormShiftAmp_detection_fixFreq,2020.1.2,MacIntel,60,,,,,,,,,,,,,,,,,,2,6.0226,,0,0,34,34,47,1,stimuli/stim_20210919_power2amp/equal_lnn_AM2Hz_s45_30.m4a,,,,,,,,,,,,
,,,,,,,,,,,,41420,2021-09-30_11h35.31.588,judgeSpeechMusic_20210919_logNormShiftAmp_detection_fixFreq,2020.1.2,MacIntel,60,,,,,,,,,,,,,,,,,,2,5.9256,,0,0,35,35,63,1,stimuli/stim_20210919_power2amp/equal_lnn_AM2Hz_s55_26.m4a,,,,,,,,,,,,
,,,,,,,,,,,,41420,2021-09-30_11h35.31.588,judgeSpeechMusic_20210919_logNormShiftAmp_detection_fixFreq,2020.1.2,MacIntel,60,,,,,,,,,,,,,,,,,,1,6.1271,,0,0,36,36,19,1,stimuli/stim_20210919_power2amp/equal_lnn_AM2Hz_s25_32.m4a,,,,,,,,,,,,
,,,,,,,,,,,,41420,2021-09-30_11h35.31.588,judgeSpeechMusic_20210919_logNormShiftAmp_detection_fixFreq,2020.1.2,MacIntel,60,,,,,,,,,,,,,,,,,,1,5.948,,0,0,37,37,45,1,stimuli/stim_20210919_power2amp/equal_lnn_AM2Hz_s45_16.m4a,,,,,,,,,,,,
,,,,,,,,,,,,41420,2021-09-30_11h35.31.588,judgeSpeechMusic_20210919_logNormShiftAmp_detection_fixFreq,2020.1.2,MacIntel,60,,,,,,,,,,,,,,,,,,1,5.8961,,0,0,38,38,48,1,stimuli/stim_20210919_power2amp/equal_lnn_AM2Hz_s45_15.m4a,,,,,,,,,,,,
,,,,,,,,,,,,41420,2021-09-30_11h35.31.588,judgeSpeechMusic_20210919_logNormShiftAmp_detection_fixFreq,2020.1.2,MacIntel,60,,,,,,,,,,,,,,,,,,1,6.0969,,0,0,39,39,56,1,stimuli/stim_20210919_power2amp/equal_lnn_AM2Hz_s45_20.m4a,,,,,,,,,,,,
,,,,,,,,,,,,41420,2021-09-30_11h35.31.588,judgeSpeechMusic_20210919_logNormShiftAmp_detection_fixFreq,2020.1.2,MacIntel,60,,,,,,,,,,,,,,,,,,1,5.9123,3,1,0,40,40,66,1,stimuli/stim_20210919_power2amp/equal_lnn_AM2Hz_s55_4.m4a,1.8948,,,,,,,,,,,
,,,,,,,,,,,,41420,2021-09-30_11h35.31.588,judgeSpeechMusic_20210919_logNormShiftAmp_detection_fixFreq,2020.1.2,MacIntel,60,,,,,,,,,,,,,,,,,,1,5.8305,,0,0,41,41,5,1,stimuli/stim_20210919_power2amp/equal_lnn_AM2Hz_s15_17.m4a,,,,,,,,,,,,
,,,,,,,,,,,,41420,2021-09-30_11h35.31.588,judgeSpeechMusic_20210919_logNormShiftAmp_detection_fixFreq,2020.1.2,MacIntel,60,,,,,,,,,,,,,,,,,,1,5.819,,0,0,42,42,74,1,stimuli/stim_20210919_power2amp/equal_lnn_AM2Hz_s55_14.m4a,,,,,,,,,,,,
,,,,,,,,,,,,41420,2021-09-30_11h35.31.588,judgeSpeechMusic_20210919_logNormShiftAmp_detection_fixFreq,2020.1.2,MacIntel,60,,,,,,,,,,,,,,,,,,1,5.8411,,0,0,43,43,65,1,stimuli/stim_20210919_power2amp/equal_lnn_AM2Hz_s55_5.m4a,,,,,,,,,,,,
,,,,,,,,,,,,41420,2021-09-30_11h35.31.588,judgeSpeechMusic_20210919_logNormShiftAmp_detection_fixFreq,2020.1.2,MacIntel,60,,,,,,,,,,,,,,,,,,1,5.7809,,0,0,44,44,67,1,stimuli/stim_20210919_power2amp/equal_lnn_AM2Hz_s55_28.m4a,,,,,,,,,,,,
,,,,,,,,,,,,41420,2021-09-30_11h35.31.588,judgeSpeechMusic_20210919_logNormShiftAmp_detection_fixFreq,2020.1.2,MacIntel,60,,,,,,,,,,,,,,,,,,1,6.043,,0,0,45,45,14,1,stimuli/stim_20210919_power2amp/equal_lnn_AM2Hz_s15_46.m4a,,,,,,,,,,,,
,,,,,,,,,,,,41420,2021-09-30_11h35.31.588,judgeSpeechMusic_20210919_logNormShiftAmp_detection_fixFreq,2020.1.2,MacIntel,60,,,,,,,,,,,,,,,,,,1,5.7953,,0,0,46,46,27,1,stimuli/stim_20210919_power2amp/equal_lnn_AM2Hz_s25_12.m4a,,,,,,,,,,,,
,,,,,,,,,,,,41420,2021-09-30_11h35.31.588,judgeSpeechMusic_20210919_logNormShiftAmp_detection_fixFreq,2020.1.2,MacIntel,60,,,,,,,,,,,,,,,,,,1,6.3825,,0,0,47,47,15,1,stimuli/stim_20210919_power2amp/equal_lnn_AM2Hz_s25_7.m4a,,,,,,,,,,,,
,,,,,,,,,,,,41420,2021-09-30_11h35.31.588,judgeSpeechMusic_20210919_logNormShiftAmp_detection_fixFreq,2020.1.2,MacIntel,60,,,,,,,,,,,,,,,,,,1,6.6442,,0,0,48,48,59,1,stimuli/stim_20210919_power2amp/equal_lnn_AM2Hz_s45_1.m4a,,,,,,,,,,,,
,,,,,,,,,,,,41420,2021-09-30_11h35.31.588,judgeSpeechMusic_20210919_logNormShiftAmp_detection_fixFreq,2020.1.2,MacIntel,60,,,,,,,,,,,,,,,,,,1,5.8666,,0,0,49,49,0,1,stimuli/stim_20210919_power2amp/equal_lnn_AM2Hz_s15_18.m4a,,,,,,,,,,,,
,,,,,,,,,,,,41420,2021-09-30_11h35.31.588,judgeSpeechMusic_20210919_logNormShiftAmp_detection_fixFreq,2020.1.2,MacIntel,60,,,,,,,,,,,,,,,,,,1,6.1653,,0,0,50,50,20,1,stimuli/stim_20210919_power2amp/equal_lnn_AM2Hz_s25_16.m4a,,,,,,,,,,,,
,,,,,,,,,,,,41420,2021-09-30_11h35.31.588,judgeSpeechMusic_20210919_logNormShiftAmp_detection_fixFreq,2020.1.2,MacIntel,60,,,,,,,,,,,,,,,,,,1,6.0308,,0,0,51,51,36,1,stimuli/stim_20210919_power2amp/equal_lnn_AM2Hz_s35_33.m4a,,,,,,,,,,,,
,,,,,,,,,,,,41420,2021-09-30_11h35.31.588,judgeSpeechMusic_20210919_logNormShiftAmp_detection_fixFreq,2020.1.2,MacIntel,60,,,,,,,,,,,,,,,,,,2,6.7034,,0,0,52,52,29,1,stimuli/stim_20210919_power2amp/equal_lnn_AM2Hz_s25_45.m4a,,,,,,,,,,,,
,,,,,,,,,,,,41420,2021-09-30_11h35.31.588,judgeSpeechMusic_20210919_logNormShiftAmp_detection_fixFreq,2020.1.2,MacIntel,60,,,,,,,,,,,,,,,,,,1,6.7418,,0,0,53,53,1,1,stimuli/stim_20210919_power2amp/equal_lnn_AM2Hz_s15_40.m4a,,,,,,,,,,,,
,,,,,,,,,,,,41420,2021-09-30_11h35.31.588,judgeSpeechMusic_20210919_logNormShiftAmp_detection_fixFreq,2020.1.2,MacIntel,60,,,,,,,,,,,,,,,,,,1,6.6643,,0,0,54,54,16,1,stimuli/stim_20210919_power2amp/equal_lnn_AM2Hz_s25_43.m4a,,,,,,,,,,,,
,,,,,,,,,,,,41420,2021-09-30_11h35.31.588,judgeSpeechMusic_20210919_logNormShiftAmp_detection_fixFreq,2020.1.2,MacIntel,60,,,,,,,,,,,,,,,,,,1,5.9191,,0,0,55,55,7,1,stimuli/stim_20210919_power2amp/equal_lnn_AM2Hz_s15_1.m4a,,,,,,,,,,,,
,,,,,,,,,,,,41420,2021-09-30_11h35.31.588,judgeSpeechMusic_20210919_logNormShiftAmp_detection_fixFreq,2020.1.2,MacIntel,60,,,,,,,,,,,,,,,,,,1,6.0069,,0,0,56,56,21,1,stimuli/stim_20210919_power2amp/equal_lnn_AM2Hz_s25_17.m4a,,,,,,,,,,,,
,,,,,,,,,,,,41420,2021-09-30_11h35.31.588,judgeSpeechMusic_20210919_logNormShiftAmp_detection_fixFreq,2020.1.2,MacIntel,60,,,,,,,,,,,,,,,,,,2,6.5267,,0,0,57,57,33,1,stimuli/stim_20210919_power2amp/equal_lnn_AM2Hz_s35_6.m4a,,,,,,,,,,,,
,,,,,,,,,,,,41420,2021-09-30_11h35.31.588,judgeSpeechMusic_20210919_logNormShiftAmp_detection_fixFreq,2020.1.2,MacIntel,60,,,,,,,,,,,,,,,,,,2,6.132,,0,0,58,58,39,1,stimuli/stim_20210919_power2amp/equal_lnn_AM2Hz_s35_28.m4a,,,,,,,,,,,,
,,,,,,,,,,,,41420,2021-09-30_11h35.31.588,judgeSpeechMusic_20210919_logNormShiftAmp_detection_fixFreq,2020.1.2,MacIntel,60,,,,,,,,,,,,,,,,,,1,6.0593,,0,0,59,59,8,1,stimuli/stim_20210919_power2amp/equal_lnn_AM2Hz_s15_39.m4a,,,,,,,,,,,,
,,,,,,,,,,,,41420,2021-09-30_11h35.31.588,judgeSpeechMusic_20210919_logNormShiftAmp_detection_fixFreq,2020.1.2,MacIntel,60,,,,,,,,,,,,,,,,,,2,6.8784,,0,0,60,60,68,1,stimuli/stim_20210919_power2amp/equal_lnn_AM2Hz_s55_20.m4a,,,,,,,,,,,,
,,,,,,,,,,,,41420,2021-09-30_11h35.31.588,judgeSpeechMusic_20210919_logNormShiftAmp_detection_fixFreq,2020.1.2,MacIntel,60,,,,,,,,,,,,,,,,,,2,5.9624,,0,0,61,61,28,1,stimuli/stim_20210919_power2amp/equal_lnn_AM2Hz_s25_46.m4a,,,,,,,,,,,,
,,,,,,,,,,,,41420,2021-09-30_11h35.31.588,judgeSpeechMusic_20210919_logNormShiftAmp_detection_fixFreq,2020.1.2,MacIntel,60,,,,,,,,,,,,,,,,,,2,6.0496,1,1,0,62,62,44,1,stimuli/stim_20210919_power2amp/equal_lnn_AM2Hz_s35_45.m4a,1.4949,,,,,,,,,,,
,,,,,,,,,,,,41420,2021-09-30_11h35.31.588,judgeSpeechMusic_20210919_logNormShiftAmp_detection_fixFreq,2020.1.2,MacIntel,60,,,,,,,,,,,,,,,,,,2,6.3587,,0,0,63,63,6,1,stimuli/stim_20210919_power2amp/equal_lnn_AM2Hz_s15_44.m4a,,,,,,,,,,,,
,,,,,,,,,,,,41420,2021-09-30_11h35.31.588,judgeSpeechMusic_20210919_logNormShiftAmp_detection_fixFreq,2020.1.2,MacIntel,60,,,,,,,,,,,,,,,,,,1,6.4327,,0,0,64,64,3,1,stimuli/stim_20210919_power2amp/equal_lnn_AM2Hz_s15_12.m4a,,,,,,,,,,,,
,,,,,,,,,,,,41420,2021-09-30_11h35.31.588,judgeSpeechMusic_20210919_logNormShiftAmp_detection_fixFreq,2020.1.2,MacIntel,60,,,,,,,,,,,,,,,,,,2,6.0309,,0,0,65,65,18,1,stimuli/stim_20210919_power2amp/equal_lnn_AM2Hz_s25_41.m4a,,,,,,,,,,,,
,,,,,,,,,,,,41420,2021-09-30_11h35.31.588,judgeSpeechMusic_20210919_logNormShiftAmp_detection_fixFreq,2020.1.2,MacIntel,60,,,,,,,,,,,,,,,,,,2,5.7804,,0,0,66,66,46,1,stimuli/stim_20210919_power2amp/equal_lnn_AM2Hz_s45_41.m4a,,,,,,,,,,,,
,,,,,,,,,,,,41420,2021-09-30_11h35.31.588,judgeSpeechMusic_20210919_logNormShiftAmp_detection_fixFreq,2020.1.2,MacIntel,60,,,,,,,,,,,,,,,,,,1,6.509,,0,0,67,67,50,1,stimuli/stim_20210919_power2amp/equal_lnn_AM2Hz_s45_42.m4a,,,,,,,,,,,,
,,,,,,,,,,,,41420,2021-09-30_11h35.31.588,judgeSpeechMusic_20210919_logNormShiftAmp_detection_fixFreq,2020.1.2,MacIntel,60,,,,,,,,,,,,,,,,,,1,5.7456,,0,0,68,68,26,1,stimuli/stim_20210919_power2amp/equal_lnn_AM2Hz_s25_9.m4a,,,,,,,,,,,,
,,,,,,,,,,,,41420,2021-09-30_11h35.31.588,judgeSpeechMusic_20210919_logNormShiftAmp_detection_fixFreq,2020.1.2,MacIntel,60,,,,,,,,,,,,,,,,,,2,6.0129,,0,0,69,69,30,1,stimuli/stim_20210919_power2amp/equal_lnn_AM2Hz_s35_37.m4a,,,,,,,,,,,,
,,,,,,,,,,,,41420,2021-09-30_11h35.31.588,judgeSpeechMusic_20210919_logNormShiftAmp_detection_fixFreq,2020.1.2,MacIntel,60,,,,,,,,,,,,,,,,,,1,6.0977,,0,0,70,70,61,1,stimuli/stim_20210919_power2amp/equal_lnn_AM2Hz_s55_46.m4a,,,,,,,,,,,,
,,,,,,,,,,,,41420,2021-09-30_11h35.31.588,judgeSpeechMusic_20210919_logNormShiftAmp_detection_fixFreq,2020.1.2,MacIntel,60,,,,,,,,,,,,,,,,,,1,5.7476,,0,0,71,71,58,1,stimuli/stim_20210919_power2amp/equal_lnn_AM2Hz_s45_11.m4a,,,,,,,,,,,,
,,,,,,,,,,,,41420,2021-09-30_11h35.31.588,judgeSpeechMusic_20210919_logNormShiftAmp_detection_fixFreq,2020.1.2,MacIntel,60,,,,,,,,,,,,,,,,,,1,5.7143,,0,0,72,72,51,1,stimuli/stim_20210919_power2amp/equal_lnn_AM2Hz_s45_47.m4a,,,,,,,,,,,,
,,,,,,,,,,,,41420,2021-09-30_11h35.31.588,judgeSpeechMusic_20210919_logNormShiftAmp_detection_fixFreq,2020.1.2,MacIntel,60,,,,,,,,,,,,,,,,,,1,5.8102,,0,0,73,73,35,1,stimuli/stim_20210919_power2amp/equal_lnn_AM2Hz_s35_49.m4a,,,,,,,,,,,,
,,,,,,,,,,,,41420,2021-09-30_11h35.31.588,judgeSpeechMusic_20210919_logNormShiftAmp_detection_fixFreq,2020.1.2,MacIntel,60,,,,,,,,,,,,,,,,,,1,5.7161,,0,0,74,74,34,1,stimuli/stim_20210919_power2amp/equal_lnn_AM2Hz_s35_19.m4a,,,,,,,,,,,,
,,,,,,,,,,,,41420,2021-09-30_11h35.31.588,judgeSpeechMusic_20210919_logNormShiftAmp_detection_fixFreq,2020.1.2,MacIntel,60,,,,,,,,,,,,,,,,,,,,,,,,,,,,,space,1.8989,0,1,1,0,1,MUSIC,stimuli/MUSIC.jpg,,
,,,,,,,,,,,,41420,2021-09-30_11h35.31.588,judgeSpeechMusic_20210919_logNormShiftAmp_detection_fixFreq,2020.1.2,MacIntel,60,,,,,,0,0,0,0,2,1,stimuli/stim_20210919_power2amp/equal_lnn_AM_training2Hz_s40.m4a,,,,,,,,,,,,,,,,,,,,,,,,,,,
,,,,,,,,,,,,41420,2021-09-30_11h35.31.588,judgeSpeechMusic_20210919_logNormShiftAmp_detection_fixFreq,2020.1.2,MacIntel,60,,,,,,,,,,,,,,space,2.0985,space,1.2306,1,6.1612,,0,0,0,0,24,1,stimuli/stim_20210919_power2amp/equal_lnn_AM2Hz_s25_33.m4a,,,,,,,,,,,,
,,,,,,,,,,,,41420,2021-09-30_11h35.31.588,judgeSpeechMusic_20210919_logNormShiftAmp_detection_fixFreq,2020.1.2,MacIntel,60,,,,,,,,,,,,,,,,,,1,6.4152,,0,0,1,1,8,1,stimuli/stim_20210919_power2amp/equal_lnn_AM2Hz_s15_39.m4a,,,,,,,,,,,,
,,,,,,,,,,,,41420,2021-09-30_11h35.31.588,judgeSpeechMusic_20210919_logNormShiftAmp_detection_fixFreq,2020.1.2,MacIntel,60,,,,,,,,,,,,,,,,,,2,6.1931,,0,0,2,2,60,1,stimuli/stim_20210919_power2amp/equal_lnn_AM2Hz_s55_50.m4a,,,,,,,,,,,,
,,,,,,,,,,,,41420,2021-09-30_11h35.31.588,judgeSpeechMusic_20210919_logNormShiftAmp_detection_fixFreq,2020.1.2,MacIntel,60,,,,,,,,,,,,,,,,,,1,5.9597,,0,0,3,3,70,1,stimuli/stim_20210919_power2amp/equal_lnn_AM2Hz_s55_18.m4a,,,,,,,,,,,,
,,,,,,,,,,,,41420,2021-09-30_11h35.31.588,judgeSpeechMusic_20210919_logNormShiftAmp_detection_fixFreq,2020.1.2,MacIntel,60,,,,,,,,,,,,,,,,,,2,6.2657,,0,0,4,4,33,1,stimuli/stim_20210919_power2amp/equal_lnn_AM2Hz_s35_6.m4a,,,,,,,,,,,,
,,,,,,,,,,,,41420,2021-09-30_11h35.31.588,judgeSpeechMusic_20210919_logNormShiftAmp_detection_fixFreq,2020.1.2,MacIntel,60,,,,,,,,,,,,,,,,,,2,7.8647,,0,0,5,5,59,1,stimuli/stim_20210919_power2amp/equal_lnn_AM2Hz_s45_1.m4a,,,,,,,,,,,,
,,,,,,,,,,,,41420,2021-09-30_11h35.31.588,judgeSpeechMusic_20210919_logNormShiftAmp_detection_fixFreq,2020.1.2,MacIntel,60,,,,,,,,,,,,,,,,,,2,5.8305,,0,0,6,6,27,1,stimuli/stim_20210919_power2amp/equal_lnn_AM2Hz_s25_12.m4a,,,,,,,,,,,,
,,,,,,,,,,,,41420,2021-09-30_11h35.31.588,judgeSpeechMusic_20210919_logNormShiftAmp_detection_fixFreq,2020.1.2,MacIntel,60,,,,,,,,,,,,,,,,,,1,6.0306,,0,0,7,7,66,1,stimuli/stim_20210919_power2amp/equal_lnn_AM2Hz_s55_4.m4a,,,,,,,,,,,,
,,,,,,,,,,,,41420,2021-09-30_11h35.31.588,judgeSpeechMusic_20210919_logNormShiftAmp_detection_fixFreq,2020.1.2,MacIntel,60,,,,,,,,,,,,,,,,,,1,5.7147,,0,0,8,8,1,1,stimuli/stim_20210919_power2amp/equal_lnn_AM2Hz_s15_40.m4a,,,,,,,,,,,,
,,,,,,,,,,,,41420,2021-09-30_11h35.31.588,judgeSpeechMusic_20210919_logNormShiftAmp_detection_fixFreq,2020.1.2,MacIntel,60,,,,,,,,,,,,,,,,,,1,6.4289,,0,0,9,9,71,1,stimuli/stim_20210919_power2amp/equal_lnn_AM2Hz_s55_3.m4a,,,,,,,,,,,,
,,,,,,,,,,,,41420,2021-09-30_11h35.31.588,judgeSpeechMusic_20210919_logNormShiftAmp_detection_fixFreq,2020.1.2,MacIntel,60,,,,,,,,,,,,,,,,,,1,6.125,,0,0,10,10,52,1,stimuli/stim_20210919_power2amp/equal_lnn_AM2Hz_s45_46.m4a,,,,,,,,,,,,
,,,,,,,,,,,,41420,2021-09-30_11h35.31.588,judgeSpeechMusic_20210919_logNormShiftAmp_detection_fixFreq,2020.1.2,MacIntel,60,,,,,,,,,,,,,,,,,,2,7.6498,,0,0,11,11,46,1,stimuli/stim_20210919_power2amp/equal_lnn_AM2Hz_s45_41.m4a,,,,,,,,,,,,
,,,,,,,,,,,,41420,2021-09-30_11h35.31.588,judgeSpeechMusic_20210919_logNormShiftAmp_detection_fixFreq,2020.1.2,MacIntel,60,,,,,,,,,,,,,,,,,,1,6.4702,,0,0,12,12,69,1,stimuli/stim_20210919_power2amp/equal_lnn_AM2Hz_s55_6.m4a,,,,,,,,,,,,
,,,,,,,,,,,,41420,2021-09-30_11h35.31.588,judgeSpeechMusic_20210919_logNormShiftAmp_detection_fixFreq,2020.1.2,MacIntel,60,,,,,,,,,,,,,,,,,,1,6.0026,,0,0,13,13,34,1,stimuli/stim_20210919_power2amp/equal_lnn_AM2Hz_s35_19.m4a,,,,,,,,,,,,
,,,,,,,,,,,,41420,2021-09-30_11h35.31.588,judgeSpeechMusic_20210919_logNormShiftAmp_detection_fixFreq,2020.1.2,MacIntel,60,,,,,,,,,,,,,,,,,,2,6.9153,,0,0,14,14,56,1,stimuli/stim_20210919_power2amp/equal_lnn_AM2Hz_s45_20.m4a,,,,,,,,,,,,
,,,,,,,,,,,,41420,2021-09-30_11h35.31.588,judgeSpeechMusic_20210919_logNormShiftAmp_detection_fixFreq,2020.1.2,MacIntel,60,,,,,,,,,,,,,,,,,,2,7.6481,,0,0,15,15,6,1,stimuli/stim_20210919_power2amp/equal_lnn_AM2Hz_s15_44.m4a,,,,,,,,,,,,
,,,,,,,,,,,,41420,2021-09-30_11h35.31.588,judgeSpeechMusic_20210919_logNormShiftAmp_detection_fixFreq,2020.1.2,MacIntel,60,,,,,,,,,,,,,,,,,,1,6.4592,,0,0,16,16,51,1,stimuli/stim_20210919_power2amp/equal_lnn_AM2Hz_s45_47.m4a,,,,,,,,,,,,
,,,,,,,,,,,,41420,2021-09-30_11h35.31.588,judgeSpeechMusic_20210919_logNormShiftAmp_detection_fixFreq,2020.1.2,MacIntel,60,,,,,,,,,,,,,,,,,,1,6.7273,,0,0,17,17,41,1,stimuli/stim_20210919_power2amp/equal_lnn_AM2Hz_s35_44.m4a,,,,,,,,,,,,
,,,,,,,,,,,,41420,2021-09-30_11h35.31.588,judgeSpeechMusic_20210919_logNormShiftAmp_detection_fixFreq,2020.1.2,MacIntel,60,,,,,,,,,,,,,,,,,,1,5.7164,,0,0,18,18,32,1,stimuli/stim_20210919_power2amp/equal_lnn_AM2Hz_s35_1.m4a,,,,,,,,,,,,
,,,,,,,,,,,,41420,2021-09-30_11h35.31.588,judgeSpeechMusic_20210919_logNormShiftAmp_detection_fixFreq,2020.1.2,MacIntel,60,,,,,,,,,,,,,,,,,,1,5.7977,,0,0,19,19,50,1,stimuli/stim_20210919_power2amp/equal_lnn_AM2Hz_s45_42.m4a,,,,,,,,,,,,
,,,,,,,,,,,,41420,2021-09-30_11h35.31.588,judgeSpeechMusic_20210919_logNormShiftAmp_detection_fixFreq,2020.1.2,MacIntel,60,,,,,,,,,,,,,,,,,,1,6.7629,3,1,0,20,20,0,1,stimuli/stim_20210919_power2amp/equal_lnn_AM2Hz_s15_18.m4a,1.8454,,,,,,,,,,,
,,,,,,,,,,,,41420,2021-09-30_11h35.31.588,judgeSpeechMusic_20210919_logNormShiftAmp_detection_fixFreq,2020.1.2,MacIntel,60,,,,,,,,,,,,,,,,,,1,6.027,,0,0,21,21,48,1,stimuli/stim_20210919_power2amp/equal_lnn_AM2Hz_s45_15.m4a,,,,,,,,,,,,
,,,,,,,,,,,,41420,2021-09-30_11h35.31.588,judgeSpeechMusic_20210919_logNormShiftAmp_detection_fixFreq,2020.1.2,MacIntel,60,,,,,,,,,,,,,,,,,,1,5.7808,,0,0,22,22,23,1,stimuli/stim_20210919_power2amp/equal_lnn_AM2Hz_s25_8.m4a,,,,,,,,,,,,
,,,,,,,,,,,,41420,2021-09-30_11h35.31.588,judgeSpeechMusic_20210919_logNormShiftAmp_detection_fixFreq,2020.1.2,MacIntel,60,,,,,,,,,,,,,,,,,,2,6.3618,,0,0,23,23,10,1,stimuli/stim_20210919_power2amp/equal_lnn_AM2Hz_s15_25.m4a,,,,,,,,,,,,
,,,,,,,,,,,,41420,2021-09-30_11h35.31.588,judgeSpeechMusic_20210919_logNormShiftAmp_detection_fixFreq,2020.1.2,MacIntel,60,,,,,,,,,,,,,,,,,,1,5.7889,,0,0,24,24,11,1,stimuli/stim_20210919_power2amp/equal_lnn_AM2Hz_s15_3.m4a,,,,,,,,,,,,
,,,,,,,,,,,,41420,2021-09-30_11h35.31.588,judgeSpeechMusic_20210919_logNormShiftAmp_detection_fixFreq,2020.1.2,MacIntel,60,,,,,,,,,,,,,,,,,,2,5.7545,,0,0,25,25,12,1,stimuli/stim_20210919_power2amp/equal_lnn_AM2Hz_s15_6.m4a,,,,,,,,,,,,
,,,,,,,,,,,,41420,2021-09-30_11h35.31.588,judgeSpeechMusic_20210919_logNormShiftAmp_detection_fixFreq,2020.1.2,MacIntel,60,,,,,,,,,,,,,,,,,,1,5.6984,,0,0,26,26,37,1,stimuli/stim_20210919_power2amp/equal_lnn_AM2Hz_s35_34.m4a,,,,,,,,,,,,
,,,,,,,,,,,,41420,2021-09-30_11h35.31.588,judgeSpeechMusic_20210919_logNormShiftAmp_detection_fixFreq,2020.1.2,MacIntel,60,,,,,,,,,,,,,,,,,,1,6.1775,,0,0,27,27,64,1,stimuli/stim_20210919_power2amp/equal_lnn_AM2Hz_s55_37.m4a,,,,,,,,,,,,
,,,,,,,,,,,,41420,2021-09-30_11h35.31.588,judgeSpeechMusic_20210919_logNormShiftAmp_detection_fixFreq,2020.1.2,MacIntel,60,,,,,,,,,,,,,,,,,,2,6.499,,0,0,28,28,44,1,stimuli/stim_20210919_power2amp/equal_lnn_AM2Hz_s35_45.m4a,,,,,,,,,,,,
,,,,,,,,,,,,41420,2021-09-30_11h35.31.588,judgeSpeechMusic_20210919_logNormShiftAmp_detection_fixFreq,2020.1.2,MacIntel,60,,,,,,,,,,,,,,,,,,1,5.9478,,0,0,29,29,49,1,stimuli/stim_20210919_power2amp/equal_lnn_AM2Hz_s45_22.m4a,,,,,,,,,,,,
,,,,,,,,,,,,41420,2021-09-30_11h35.31.588,judgeSpeechMusic_20210919_logNormShiftAmp_detection_fixFreq,2020.1.2,MacIntel,60,,,,,,,,,,,,,,,,,,1,6.2788,,0,0,30,30,7,1,stimuli/stim_20210919_power2amp/equal_lnn_AM2Hz_s15_1.m4a,,,,,,,,,,,,
,,,,,,,,,,,,41420,2021-09-30_11h35.31.588,judgeSpeechMusic_20210919_logNormShiftAmp_detection_fixFreq,2020.1.2,MacIntel,60,,,,,,,,,,,,,,,,,,1,6.3804,,0,0,31,31,38,1,stimuli/stim_20210919_power2amp/equal_lnn_AM2Hz_s35_20.m4a,,,,,,,,,,,,
,,,,,,,,,,,,41420,2021-09-30_11h35.31.588,judgeSpeechMusic_20210919_logNormShiftAmp_detection_fixFreq,2020.1.2,MacIntel,60,,,,,,,,,,,,,,,,,,1,6.2932,,0,0,32,32,26,1,stimuli/stim_20210919_power2amp/equal_lnn_AM2Hz_s25_9.m4a,,,,,,,,,,,,
,,,,,,,,,,,,41420,2021-09-30_11h35.31.588,judgeSpeechMusic_20210919_logNormShiftAmp_detection_fixFreq,2020.1.2,MacIntel,60,,,,,,,,,,,,,,,,,,2,7.8149,,0,0,33,33,29,1,stimuli/stim_20210919_power2amp/equal_lnn_AM2Hz_s25_45.m4a,,,,,,,,,,,,
,,,,,,,,,,,,41420,2021-09-30_11h35.31.588,judgeSpeechMusic_20210919_logNormShiftAmp_detection_fixFreq,2020.1.2,MacIntel,60,,,,,,,,,,,,,,,,,,1,6.3815,,0,0,34,34,57,1,stimuli/stim_20210919_power2amp/equal_lnn_AM2Hz_s45_37.m4a,,,,,,,,,,,,
,,,,,,,,,,,,41420,2021-09-30_11h35.31.588,judgeSpeechMusic_20210919_logNormShiftAmp_detection_fixFreq,2020.1.2,MacIntel,60,,,,,,,,,,,,,,,,,,1,6.1084,,0,0,35,35,65,1,stimuli/stim_20210919_power2amp/equal_lnn_AM2Hz_s55_5.m4a,,,,,,,,,,,,
,,,,,,,,,,,,41420,2021-09-30_11h35.31.588,judgeSpeechMusic_20210919_logNormShiftAmp_detection_fixFreq,2020.1.2,MacIntel,60,,,,,,,,,,,,,,,,,,1,6.5656,,0,0,36,36,25,1,stimuli/stim_20210919_power2amp/equal_lnn_AM2Hz_s25_2.m4a,,,,,,,,,,,,
,,,,,,,,,,,,41420,2021-09-30_11h35.31.588,judgeSpeechMusic_20210919_logNormShiftAmp_detection_fixFreq,2020.1.2,MacIntel,60,,,,,,,,,,,,,,,,,,2,7.3983,,0,0,37,37,35,1,stimuli/stim_20210919_power2amp/equal_lnn_AM2Hz_s35_49.m4a,,,,,,,,,,,,
,,,,,,,,,,,,41420,2021-09-30_11h35.31.588,judgeSpeechMusic_20210919_logNormShiftAmp_detection_fixFreq,2020.1.2,MacIntel,60,,,,,,,,,,,,,,,,,,1,5.7237,,0,0,38,38,17,1,stimuli/stim_20210919_power2amp/equal_lnn_AM2Hz_s25_18.m4a,,,,,,,,,,,,
,,,,,,,,,,,,41420,2021-09-30_11h35.31.588,judgeSpeechMusic_20210919_logNormShiftAmp_detection_fixFreq,2020.1.2,MacIntel,60,,,,,,,,,,,,,,,,,,1,6.0497,,0,0,39,39,36,1,stimuli/stim_20210919_power2amp/equal_lnn_AM2Hz_s35_33.m4a,,,,,,,,,,,,
,,,,,,,,,,,,41420,2021-09-30_11h35.31.588,judgeSpeechMusic_20210919_logNormShiftAmp_detection_fixFreq,2020.1.2,MacIntel,60,,,,,,,,,,,,,,,,,,2,6.8922,3,1,0,40,40,72,1,stimuli/stim_20210919_power2amp/equal_lnn_AM2Hz_s55_8.m4a,3.2416,,,,,,,,,,,
,,,,,,,,,,,,41420,2021-09-30_11h35.31.588,judgeSpeechMusic_20210919_logNormShiftAmp_detection_fixFreq,2020.1.2,MacIntel,60,,,,,,,,,,,,,,,,,,1,6.0139,,0,0,41,41,13,1,stimuli/stim_20210919_power2amp/equal_lnn_AM2Hz_s15_38.m4a,,,,,,,,,,,,
,,,,,,,,,,,,41420,2021-09-30_11h35.31.588,judgeSpeechMusic_20210919_logNormShiftAmp_detection_fixFreq,2020.1.2,MacIntel,60,,,,,,,,,,,,,,,,,,1,6.5026,,0,0,42,42,4,1,stimuli/stim_20210919_power2amp/equal_lnn_AM2Hz_s15_15.m4a,,,,,,,,,,,,
,,,,,,,,,,,,41420,2021-09-30_11h35.31.588,judgeSpeechMusic_20210919_logNormShiftAmp_detection_fixFreq,2020.1.2,MacIntel,60,,,,,,,,,,,,,,,,,,1,6.4732,,0,0,43,43,5,1,stimuli/stim_20210919_power2amp/equal_lnn_AM2Hz_s15_17.m4a,,,,,,,,,,,,
,,,,,,,,,,,,41420,2021-09-30_11h35.31.588,judgeSpeechMusic_20210919_logNormShiftAmp_detection_fixFreq,2020.1.2,MacIntel,60,,,,,,,,,,,,,,,,,,1,5.7636,,0,0,44,44,31,1,stimuli/stim_20210919_power2amp/equal_lnn_AM2Hz_s35_27.m4a,,,,,,,,,,,,
,,,,,,,,,,,,41420,2021-09-30_11h35.31.588,judgeSpeechMusic_20210919_logNormShiftAmp_detection_fixFreq,2020.1.2,MacIntel,60,,,,,,,,,,,,,,,,,,1,8.2133,,0,0,45,45,45,1,stimuli/stim_20210919_power2amp/equal_lnn_AM2Hz_s45_16.m4a,,,,,,,,,,,,
,,,,,,,,,,,,41420,2021-09-30_11h35.31.588,judgeSpeechMusic_20210919_logNormShiftAmp_detection_fixFreq,2020.1.2,MacIntel,60,,,,,,,,,,,,,,,,,,2,6.9932,,0,0,46,46,62,1,stimuli/stim_20210919_power2amp/equal_lnn_AM2Hz_s55_42.m4a,,,,,,,,,,,,
,,,,,,,,,,,,41420,2021-09-30_11h35.31.588,judgeSpeechMusic_20210919_logNormShiftAmp_detection_fixFreq,2020.1.2,MacIntel,60,,,,,,,,,,,,,,,,,,2,5.8457,,0,0,47,47,39,1,stimuli/stim_20210919_power2amp/equal_lnn_AM2Hz_s35_28.m4a,,,,,,,,,,,,
,,,,,,,,,,,,41420,2021-09-30_11h35.31.588,judgeSpeechMusic_20210919_logNormShiftAmp_detection_fixFreq,2020.1.2,MacIntel,60,,,,,,,,,,,,,,,,,,1,6.0799,,0,0,48,48,55,1,stimuli/stim_20210919_power2amp/equal_lnn_AM2Hz_s45_24.m4a,,,,,,,,,,,,
,,,,,,,,,,,,41420,2021-09-30_11h35.31.588,judgeSpeechMusic_20210919_logNormShiftAmp_detection_fixFreq,2020.1.2,MacIntel,60,,,,,,,,,,,,,,,,,,1,6.328,,0,0,49,49,58,1,stimuli/stim_20210919_power2amp/equal_lnn_AM2Hz_s45_11.m4a,,,,,,,,,,,,
,,,,,,,,,,,,41420,2021-09-30_11h35.31.588,judgeSpeechMusic_20210919_logNormShiftAmp_detection_fixFreq,2020.1.2,MacIntel,60,,,,,,,,,,,,,,,,,,1,6.3406,,0,0,50,50,42,1,stimuli/stim_20210919_power2amp/equal_lnn_AM2Hz_s35_22.m4a,,,,,,,,,,,,
,,,,,,,,,,,,41420,2021-09-30_11h35.31.588,judgeSpeechMusic_20210919_logNormShiftAmp_detection_fixFreq,2020.1.2,MacIntel,60,,,,,,,,,,,,,,,,,,2,9.1658,,0,0,51,51,2,1,stimuli/stim_20210919_power2amp/equal_lnn_AM2Hz_s15_28.m4a,,,,,,,,,,,,
,,,,,,,,,,,,41420,2021-09-30_11h35.31.588,judgeSpeechMusic_20210919_logNormShiftAmp_detection_fixFreq,2020.1.2,MacIntel,60,,,,,,,,,,,,,,,,,,1,6.0634,,0,0,52,52,9,1,stimuli/stim_20210919_power2amp/equal_lnn_AM2Hz_s15_27.m4a,,,,,,,,,,,,
,,,,,,,,,,,,41420,2021-09-30_11h35.31.588,judgeSpeechMusic_20210919_logNormShiftAmp_detection_fixFreq,2020.1.2,MacIntel,60,,,,,,,,,,,,,,,,,,2,7.3872,,0,0,53,53,22,1,stimuli/stim_20210919_power2amp/equal_lnn_AM2Hz_s25_48.m4a,,,,,,,,,,,,
,,,,,,,,,,,,41420,2021-09-30_11h35.31.588,judgeSpeechMusic_20210919_logNormShiftAmp_detection_fixFreq,2020.1.2,MacIntel,60,,,,,,,,,,,,,,,,,,2,6.4043,,0,0,54,54,40,1,stimuli/stim_20210919_power2amp/equal_lnn_AM2Hz_s35_10.m4a,,,,,,,,,,,,
,,,,,,,,,,,,41420,2021-09-30_11h35.31.588,judgeSpeechMusic_20210919_logNormShiftAmp_detection_fixFreq,2020.1.2,MacIntel,60,,,,,,,,,,,,,,,,,,1,8.4987,,0,0,55,55,21,1,stimuli/stim_20210919_power2amp/equal_lnn_AM2Hz_s25_17.m4a,,,,,,,,,,,,
,,,,,,,,,,,,41420,2021-09-30_11h35.31.588,judgeSpeechMusic_20210919_logNormShiftAmp_detection_fixFreq,2020.1.2,MacIntel,60,,,,,,,,,,,,,,,,,,1,8.7148,,0,0,56,56,74,1,stimuli/stim_20210919_power2amp/equal_lnn_AM2Hz_s55_14.m4a,,,,,,,,,,,,
,,,,,,,,,,,,41420,2021-09-30_11h35.31.588,judgeSpeechMusic_20210919_logNormShiftAmp_detection_fixFreq,2020.1.2,MacIntel,60,,,,,,,,,,,,,,,,,,2,6.3967,,0,0,57,57,61,1,stimuli/stim_20210919_power2amp/equal_lnn_AM2Hz_s55_46.m4a,,,,,,,,,,,,
,,,,,,,,,,,,41420,2021-09-30_11h35.31.588,judgeSpeechMusic_20210919_logNormShiftAmp_detection_fixFreq,2020.1.2,MacIntel,60,,,,,,,,,,,,,,,,,,1,5.9647,,0,0,58,58,53,1,stimuli/stim_20210919_power2amp/equal_lnn_AM2Hz_s45_48.m4a,,,,,,,,,,,,
,,,,,,,,,,,,41420,2021-09-30_11h35.31.588,judgeSpeechMusic_20210919_logNormShiftAmp_detection_fixFreq,2020.1.2,MacIntel,60,,,,,,,,,,,,,,,,,,1,5.7463,,0,0,59,59,19,1,stimuli/stim_20210919_power2amp/equal_lnn_AM2Hz_s25_32.m4a,,,,,,,,,,,,
,,,,,,,,,,,,41420,2021-09-30_11h35.31.588,judgeSpeechMusic_20210919_logNormShiftAmp_detection_fixFreq,2020.1.2,MacIntel,60,,,,,,,,,,,,,,,,,,1,6.8792,,0,0,60,60,67,1,stimuli/stim_20210919_power2amp/equal_lnn_AM2Hz_s55_28.m4a,,,,,,,,,,,,
,,,,,,,,,,,,41420,2021-09-30_11h35.31.588,judgeSpeechMusic_20210919_logNormShiftAmp_detection_fixFreq,2020.1.2,MacIntel,60,,,,,,,,,,,,,,,,,,2,5.7251,,0,0,61,61,68,1,stimuli/stim_20210919_power2amp/equal_lnn_AM2Hz_s55_20.m4a,,,,,,,,,,,,
,,,,,,,,,,,,41420,2021-09-30_11h35.31.588,judgeSpeechMusic_20210919_logNormShiftAmp_detection_fixFreq,2020.1.2,MacIntel,60,,,,,,,,,,,,,,,,,,2,6.6165,1,1,0,62,62,3,1,stimuli/stim_20210919_power2amp/equal_lnn_AM2Hz_s15_12.m4a,0.5003,,,,,,,,,,,
,,,,,,,,,,,,41420,2021-09-30_11h35.31.588,judgeSpeechMusic_20210919_logNormShiftAmp_detection_fixFreq,2020.1.2,MacIntel,60,,,,,,,,,,,,,,,,,,2,5.7478,,0,0,63,63,30,1,stimuli/stim_20210919_power2amp/equal_lnn_AM2Hz_s35_37.m4a,,,,,,,,,,,,
,,,,,,,,,,,,41420,2021-09-30_11h35.31.588,judgeSpeechMusic_20210919_logNormShiftAmp_detection_fixFreq,2020.1.2,MacIntel,60,,,,,,,,,,,,,,,,,,2,5.8793,,0,0,64,64,63,1,stimuli/stim_20210919_power2amp/equal_lnn_AM2Hz_s55_26.m4a,,,,,,,,,,,,
,,,,,,,,,,,,41420,2021-09-30_11h35.31.588,judgeSpeechMusic_20210919_logNormShiftAmp_detection_fixFreq,2020.1.2,MacIntel,60,,,,,,,,,,,,,,,,,,1,6.4641,,0,0,65,65,43,1,stimuli/stim_20210919_power2amp/equal_lnn_AM2Hz_s35_8.m4a,,,,,,,,,,,,
,,,,,,,,,,,,41420,2021-09-30_11h35.31.588,judgeSpeechMusic_20210919_logNormShiftAmp_detection_fixFreq,2020.1.2,MacIntel,60,,,,,,,,,,,,,,,,,,1,6.4257,,0,0,66,66,16,1,stimuli/stim_20210919_power2amp/equal_lnn_AM2Hz_s25_43.m4a,,,,,,,,,,,,
,,,,,,,,,,,,41420,2021-09-30_11h35.31.588,judgeSpeechMusic_20210919_logNormShiftAmp_detection_fixFreq,2020.1.2,MacIntel,60,,,,,,,,,,,,,,,,,,2,6.5003,,0,0,67,67,18,1,stimuli/stim_20210919_power2amp/equal_lnn_AM2Hz_s25_41.m4a,,,,,,,,,,,,
,,,,,,,,,,,,41420,2021-09-30_11h35.31.588,judgeSpeechMusic_20210919_logNormShiftAmp_detection_fixFreq,2020.1.2,MacIntel,60,,,,,,,,,,,,,,,,,,2,7.1622,,0,0,68,68,47,1,stimuli/stim_20210919_power2amp/equal_lnn_AM2Hz_s45_30.m4a,,,,,,,,,,,,
,,,,,,,,,,,,41420,2021-09-30_11h35.31.588,judgeSpeechMusic_20210919_logNormShiftAmp_detection_fixFreq,2020.1.2,MacIntel,60,,,,,,,,,,,,,,,,,,1,5.9808,,0,0,69,69,20,1,stimuli/stim_20210919_power2amp/equal_lnn_AM2Hz_s25_16.m4a,,,,,,,,,,,,
,,,,,,,,,,,,41420,2021-09-30_11h35.31.588,judgeSpeechMusic_20210919_logNormShiftAmp_detection_fixFreq,2020.1.2,MacIntel,60,,,,,,,,,,,,,,,,,,2,6.5333,,0,0,70,70,28,1,stimuli/stim_20210919_power2amp/equal_lnn_AM2Hz_s25_46.m4a,,,,,,,,,,,,
,,,,,,,,,,,,41420,2021-09-30_11h35.31.588,judgeSpeechMusic_20210919_logNormShiftAmp_detection_fixFreq,2020.1.2,MacIntel,60,,,,,,,,,,,,,,,,,,1,5.9787,,0,0,71,71,14,1,stimuli/stim_20210919_power2amp/equal_lnn_AM2Hz_s15_46.m4a,,,,,,,,,,,,
,,,,,,,,,,,,41420,2021-09-30_11h35.31.588,judgeSpeechMusic_20210919_logNormShiftAmp_detection_fixFreq,2020.1.2,MacIntel,60,,,,,,,,,,,,,,,,,,2,6.2476,,0,0,72,72,54,1,stimuli/stim_20210919_power2amp/equal_lnn_AM2Hz_s45_25.m4a,,,,,,,,,,,,
,,,,,,,,,,,,41420,2021-09-30_11h35.31.588,judgeSpeechMusic_20210919_logNormShiftAmp_detection_fixFreq,2020.1.2,MacIntel,60,,,,,,,,,,,,,,,,,,1,5.8988,,0,0,73,73,15,1,stimuli/stim_20210919_power2amp/equal_lnn_AM2Hz_s25_7.m4a,,,,,,,,,,,,
,,,,,,,,,,,,41420,2021-09-30_11h35.31.588,judgeSpeechMusic_20210919_logNormShiftAmp_detection_fixFreq,2020.1.2,MacIntel,60,,,,,,,,,,,,,,,,,,1,5.879,,0,0,74,74,73,1,stimuli/stim_20210919_power2amp/equal_lnn_AM2Hz_s55_31.m4a,,,,,,,,,,,,
,,,,,,,,,,,,41420,2021-09-30_11h35.31.588,judgeSpeechMusic_20210919_logNormShiftAmp_detection_fixFreq,2020.1.2,MacIntel,60,,,,,,,,,,,,,,,,,,,,,,,,,,,,,space,0.6479,1,0,2,0,1,MUSIC,stimuli/MUSIC.jpg,,
,,,,,,,,,,,,41420,2021-09-30_11h35.31.588,judgeSpeechMusic_20210919_logNormShiftAmp_detection_fixFreq,2020.1.2,MacIntel,60,,,,,,0,0,0,0,2,1,stimuli/stim_20210919_power2amp/equal_lnn_AM_training2Hz_s40.m4a,,,,,,,,,,,,,,,,,,,,,,,,,,,
,,,,,,,,,,,,41420,2021-09-30_11h35.31.588,judgeSpeechMusic_20210919_logNormShiftAmp_detection_fixFreq,2020.1.2,MacIntel,60,,,,,,,,,,,,,,space,4.7982,space,1.3864,2,6.7119,,0,0,0,0,47,1,stimuli/stim_20210919_power2amp/equal_lnn_AM2Hz_s45_30.m4a,,,,,,,,,,,,
,,,,,,,,,,,,41420,2021-09-30_11h35.31.588,judgeSpeechMusic_20210919_logNormShiftAmp_detection_fixFreq,2020.1.2,MacIntel,60,,,,,,,,,,,,,,,,,,1,6.1308,,0,0,1,1,26,1,stimuli/stim_20210919_power2amp/equal_lnn_AM2Hz_s25_9.m4a,,,,,,,,,,,,
,,,,,,,,,,,,41420,2021-09-30_11h35.31.588,judgeSpeechMusic_20210919_logNormShiftAmp_detection_fixFreq,2020.1.2,MacIntel,60,,,,,,,,,,,,,,,,,,2,6.3298,,0,0,2,2,2,1,stimuli/stim_20210919_power2amp/equal_lnn_AM2Hz_s15_28.m4a,,,,,,,,,,,,
,,,,,,,,,,,,41420,2021-09-30_11h35.31.588,judgeSpeechMusic_20210919_logNormShiftAmp_detection_fixFreq,2020.1.2,MacIntel,60,,,,,,,,,,,,,,,,,,1,5.9293,,0,0,3,3,1,1,stimuli/stim_20210919_power2amp/equal_lnn_AM2Hz_s15_40.m4a,,,,,,,,,,,,
,,,,,,,,,,,,41420,2021-09-30_11h35.31.588,judgeSpeechMusic_20210919_logNormShiftAmp_detection_fixFreq,2020.1.2,MacIntel,60,,,,,,,,,,,,,,,,,,1,5.7435,,0,0,4,4,36,1,stimuli/stim_20210919_power2amp/equal_lnn_AM2Hz_s35_33.m4a,,,,,,,,,,,,
,,,,,,,,,,,,41420,2021-09-30_11h35.31.588,judgeSpeechMusic_20210919_logNormShiftAmp_detection_fixFreq,2020.1.2,MacIntel,60,,,,,,,,,,,,,,,,,,1,6.6495,,0,0,5,5,66,1,stimuli/stim_20210919_power2amp/equal_lnn_AM2Hz_s55_4.m4a,,,,,,,,,,,,
,,,,,,,,,,,,41420,2021-09-30_11h35.31.588,judgeSpeechMusic_20210919_logNormShiftAmp_detection_fixFreq,2020.1.2,MacIntel,60,,,,,,,,,,,,,,,,,,1,5.7948,,0,0,6,6,16,1,stimuli/stim_20210919_power2amp/equal_lnn_AM2Hz_s25_43.m4a,,,,,,,,,,,,
,,,,,,,,,,,,41420,2021-09-30_11h35.31.588,judgeSpeechMusic_20210919_logNormShiftAmp_detection_fixFreq,2020.1.2,MacIntel,60,,,,,,,,,,,,,,,,,,1,5.8461,,0,0,7,7,9,1,stimuli/stim_20210919_power2amp/equal_lnn_AM2Hz_s15_27.m4a,,,,,,,,,,,,
,,,,,,,,,,,,41420,2021-09-30_11h35.31.588,judgeSpeechMusic_20210919_logNormShiftAmp_detection_fixFreq,2020.1.2,MacIntel,60,,,,,,,,,,,,,,,,,,2,6.8948,,0,0,8,8,32,1,stimuli/stim_20210919_power2amp/equal_lnn_AM2Hz_s35_1.m4a,,,,,,,,,,,,
,,,,,,,,,,,,41420,2021-09-30_11h35.31.588,judgeSpeechMusic_20210919_logNormShiftAmp_detection_fixFreq,2020.1.2,MacIntel,60,,,,,,,,,,,,,,,,,,1,8.0828,,0,0,9,9,11,1,stimuli/stim_20210919_power2amp/equal_lnn_AM2Hz_s15_3.m4a,,,,,,,,,,,,
,,,,,,,,,,,,41420,2021-09-30_11h35.31.588,judgeSpeechMusic_20210919_logNormShiftAmp_detection_fixFreq,2020.1.2,MacIntel,60,,,,,,,,,,,,,,,,,,2,6.78,,0,0,10,10,52,1,stimuli/stim_20210919_power2amp/equal_lnn_AM2Hz_s45_46.m4a,,,,,,,,,,,,
,,,,,,,,,,,,41420,2021-09-30_11h35.31.588,judgeSpeechMusic_20210919_logNormShiftAmp_detection_fixFreq,2020.1.2,MacIntel,60,,,,,,,,,,,,,,,,,,2,6.2803,,0,0,11,11,18,1,stimuli/stim_20210919_power2amp/equal_lnn_AM2Hz_s25_41.m4a,,,,,,,,,,,,
,,,,,,,,,,,,41420,2021-09-30_11h35.31.588,judgeSpeechMusic_20210919_logNormShiftAmp_detection_fixFreq,2020.1.2,MacIntel,60,,,,,,,,,,,,,,,,,,2,6.6438,,0,0,12,12,38,1,stimuli/stim_20210919_power2amp/equal_lnn_AM2Hz_s35_20.m4a,,,,,,,,,,,,
,,,,,,,,,,,,41420,2021-09-30_11h35.31.588,judgeSpeechMusic_20210919_logNormShiftAmp_detection_fixFreq,2020.1.2,MacIntel,60,,,,,,,,,,,,,,,,,,1,5.8997,,0,0,13,13,17,1,stimuli/stim_20210919_power2amp/equal_lnn_AM2Hz_s25_18.m4a,,,,,,,,,,,,
,,,,,,,,,,,,41420,2021-09-30_11h35.31.588,judgeSpeechMusic_20210919_logNormShiftAmp_detection_fixFreq,2020.1.2,MacIntel,60,,,,,,,,,,,,,,,,,,2,6.2142,,0,0,14,14,72,1,stimuli/stim_20210919_power2amp/equal_lnn_AM2Hz_s55_8.m4a,,,,,,,,,,,,
,,,,,,,,,,,,41420,2021-09-30_11h35.31.588,judgeSpeechMusic_20210919_logNormShiftAmp_detection_fixFreq,2020.1.2,MacIntel,60,,,,,,,,,,,,,,,,,,2,6.4469,,0,0,15,15,74,1,stimuli/stim_20210919_power2amp/equal_lnn_AM2Hz_s55_14.m4a,,,,,,,,,,,,
,,,,,,,,,,,,41420,2021-09-30_11h35.31.588,judgeSpeechMusic_20210919_logNormShiftAmp_detection_fixFreq,2020.1.2,MacIntel,60,,,,,,,,,,,,,,,,,,2,6.3638,,0,0,16,16,48,1,stimuli/stim_20210919_power2amp/equal_lnn_AM2Hz_s45_15.m4a,,,,,,,,,,,,
,,,,,,,,,,,,41420,2021-09-30_11h35.31.588,judgeSpeechMusic_20210919_logNormShiftAmp_detection_fixFreq,2020.1.2,MacIntel,60,,,,,,,,,,,,,,,,,,1,5.8955,,0,0,17,17,57,1,stimuli/stim_20210919_power2amp/equal_lnn_AM2Hz_s45_37.m4a,,,,,,,,,,,,
,,,,,,,,,,,,41420,2021-09-30_11h35.31.588,judgeSpeechMusic_20210919_logNormShiftAmp_detection_fixFreq,2020.1.2,MacIntel,60,,,,,,,,,,,,,,,,,,1,5.7766,,0,0,18,18,15,1,stimuli/stim_20210919_power2amp/equal_lnn_AM2Hz_s25_7.m4a,,,,,,,,,,,,
,,,,,,,,,,,,41420,2021-09-30_11h35.31.588,judgeSpeechMusic_20210919_logNormShiftAmp_detection_fixFreq,2020.1.2,MacIntel,60,,,,,,,,,,,,,,,,,,2,6.8608,,0,0,19,19,28,1,stimuli/stim_20210919_power2amp/equal_lnn_AM2Hz_s25_46.m4a,,,,,,,,,,,,
,,,,,,,,,,,,41420,2021-09-30_11h35.31.588,judgeSpeechMusic_20210919_logNormShiftAmp_detection_fixFreq,2020.1.2,MacIntel,60,,,,,,,,,,,,,,,,,,1,5.8966,4,1,0,20,20,24,1,stimuli/stim_20210919_power2amp/equal_lnn_AM2Hz_s25_33.m4a,4.1601,,,,,,,,,,,
,,,,,,,,,,,,41420,2021-09-30_11h35.31.588,judgeSpeechMusic_20210919_logNormShiftAmp_detection_fixFreq,2020.1.2,MacIntel,60,,,,,,,,,,,,,,,,,,2,6.3822,,0,0,21,21,30,1,stimuli/stim_20210919_power2amp/equal_lnn_AM2Hz_s35_37.m4a,,,,,,,,,,,,
,,,,,,,,,,,,41420,2021-09-30_11h35.31.588,judgeSpeechMusic_20210919_logNormShiftAmp_detection_fixFreq,2020.1.2,MacIntel,60,,,,,,,,,,,,,,,,,,1,5.8293,,0,0,22,22,55,1,stimuli/stim_20210919_power2amp/equal_lnn_AM2Hz_s45_24.m4a,,,,,,,,,,,,
,,,,,,,,,,,,41420,2021-09-30_11h35.31.588,judgeSpeechMusic_20210919_logNormShiftAmp_detection_fixFreq,2020.1.2,MacIntel,60,,,,,,,,,,,,,,,,,,2,6.6137,,0,0,23,23,40,1,stimuli/stim_20210919_power2amp/equal_lnn_AM2Hz_s35_10.m4a,,,,,,,,,,,,
,,,,,,,,,,,,41420,2021-09-30_11h35.31.588,judgeSpeechMusic_20210919_logNormShiftAmp_detection_fixFreq,2020.1.2,MacIntel,60,,,,,,,,,,,,,,,,,,1,7.9637,,0,0,24,24,70,1,stimuli/stim_20210919_power2amp/equal_lnn_AM2Hz_s55_18.m4a,,,,,,,,,,,,
,,,,,,,,,,,,41420,2021-09-30_11h35.31.588,judgeSpeechMusic_20210919_logNormShiftAmp_detection_fixFreq,2020.1.2,MacIntel,60,,,,,,,,,,,,,,,,,,1,5.8984,,0,0,25,25,50,1,stimuli/stim_20210919_power2amp/equal_lnn_AM2Hz_s45_42.m4a,,,,,,,,,,,,
,,,,,,,,,,,,41420,2021-09-30_11h35.31.588,judgeSpeechMusic_20210919_logNormShiftAmp_detection_fixFreq,2020.1.2,MacIntel,60,,,,,,,,,,,,,,,,,,2,6.4286,,0,0,26,26,67,1,stimuli/stim_20210919_power2amp/equal_lnn_AM2Hz_s55_28.m4a,,,,,,,,,,,,
,,,,,,,,,,,,41420,2021-09-30_11h35.31.588,judgeSpeechMusic_20210919_logNormShiftAmp_detection_fixFreq,2020.1.2,MacIntel,60,,,,,,,,,,,,,,,,,,1,8.026,,0,0,27,27,25,1,stimuli/stim_20210919_power2amp/equal_lnn_AM2Hz_s25_2.m4a,,,,,,,,,,,,
,,,,,,,,,,,,41420,2021-09-30_11h35.31.588,judgeSpeechMusic_20210919_logNormShiftAmp_detection_fixFreq,2020.1.2,MacIntel,60,,,,,,,,,,,,,,,,,,2,6.5314,,0,0,28,28,49,1,stimuli/stim_20210919_power2amp/equal_lnn_AM2Hz_s45_22.m4a,,,,,,,,,,,,
,,,,,,,,,,,,41420,2021-09-30_11h35.31.588,judgeSpeechMusic_20210919_logNormShiftAmp_detection_fixFreq,2020.1.2,MacIntel,60,,,,,,,,,,,,,,,,,,1,6.4652,,0,0,29,29,14,1,stimuli/stim_20210919_power2amp/equal_lnn_AM2Hz_s15_46.m4a,,,,,,,,,,,,
,,,,,,,,,,,,41420,2021-09-30_11h35.31.588,judgeSpeechMusic_20210919_logNormShiftAmp_detection_fixFreq,2020.1.2,MacIntel,60,,,,,,,,,,,,,,,,,,2,5.9312,,0,0,30,30,33,1,stimuli/stim_20210919_power2amp/equal_lnn_AM2Hz_s35_6.m4a,,,,,,,,,,,,
,,,,,,,,,,,,41420,2021-09-30_11h35.31.588,judgeSpeechMusic_20210919_logNormShiftAmp_detection_fixFreq,2020.1.2,MacIntel,60,,,,,,,,,,,,,,,,,,1,6.3654,,0,0,31,31,73,1,stimuli/stim_20210919_power2amp/equal_lnn_AM2Hz_s55_31.m4a,,,,,,,,,,,,
,,,,,,,,,,,,41420,2021-09-30_11h35.31.588,judgeSpeechMusic_20210919_logNormShiftAmp_detection_fixFreq,2020.1.2,MacIntel,60,,,,,,,,,,,,,,,,,,2,6.2631,,0,0,32,32,63,1,stimuli/stim_20210919_power2amp/equal_lnn_AM2Hz_s55_26.m4a,,,,,,,,,,,,
,,,,,,,,,,,,41420,2021-09-30_11h35.31.588,judgeSpeechMusic_20210919_logNormShiftAmp_detection_fixFreq,2020.1.2,MacIntel,60,,,,,,,,,,,,,,,,,,2,6.3929,,0,0,33,33,31,1,stimuli/stim_20210919_power2amp/equal_lnn_AM2Hz_s35_27.m4a,,,,,,,,,,,,
,,,,,,,,,,,,41420,2021-09-30_11h35.31.588,judgeSpeechMusic_20210919_logNormShiftAmp_detection_fixFreq,2020.1.2,MacIntel,60,,,,,,,,,,,,,,,,,,2,5.9489,,0,0,34,34,29,1,stimuli/stim_20210919_power2amp/equal_lnn_AM2Hz_s25_45.m4a,,,,,,,,,,,,
,,,,,,,,,,,,41420,2021-09-30_11h35.31.588,judgeSpeechMusic_20210919_logNormShiftAmp_detection_fixFreq,2020.1.2,MacIntel,60,,,,,,,,,,,,,,,,,,2,8.1483,,0,0,35,35,13,1,stimuli/stim_20210919_power2amp/equal_lnn_AM2Hz_s15_38.m4a,,,,,,,,,,,,
,,,,,,,,,,,,41420,2021-09-30_11h35.31.588,judgeSpeechMusic_20210919_logNormShiftAmp_detection_fixFreq,2020.1.2,MacIntel,60,,,,,,,,,,,,,,,,,,1,6.6134,,0,0,36,36,8,1,stimuli/stim_20210919_power2amp/equal_lnn_AM2Hz_s15_39.m4a,,,,,,,,,,,,
,,,,,,,,,,,,41420,2021-09-30_11h35.31.588,judgeSpeechMusic_20210919_logNormShiftAmp_detection_fixFreq,2020.1.2,MacIntel,60,,,,,,,,,,,,,,,,,,1,5.7477,,0,0,37,37,34,1,stimuli/stim_20210919_power2amp/equal_lnn_AM2Hz_s35_19.m4a,,,,,,,,,,,,
,,,,,,,,,,,,41420,2021-09-30_11h35.31.588,judgeSpeechMusic_20210919_logNormShiftAmp_detection_fixFreq,2020.1.2,MacIntel,60,,,,,,,,,,,,,,,,,,1,7.4441,,0,0,38,38,27,1,stimuli/stim_20210919_power2amp/equal_lnn_AM2Hz_s25_12.m4a,,,,,,,,,,,,
,,,,,,,,,,,,41420,2021-09-30_11h35.31.588,judgeSpeechMusic_20210919_logNormShiftAmp_detection_fixFreq,2020.1.2,MacIntel,60,,,,,,,,,,,,,,,,,,1,5.7043,,0,0,39,39,71,1,stimuli/stim_20210919_power2amp/equal_lnn_AM2Hz_s55_3.m4a,,,,,,,,,,,,
,,,,,,,,,,,,41420,2021-09-30_11h35.31.588,judgeSpeechMusic_20210919_logNormShiftAmp_detection_fixFreq,2020.1.2,MacIntel,60,,,,,,,,,,,,,,,,,,1,5.7979,4,1,0,40,40,64,1,stimuli/stim_20210919_power2amp/equal_lnn_AM2Hz_s55_37.m4a,0.6285,,,,,,,,,,,
,,,,,,,,,,,,41420,2021-09-30_11h35.31.588,judgeSpeechMusic_20210919_logNormShiftAmp_detection_fixFreq,2020.1.2,MacIntel,60,,,,,,,,,,,,,,,,,,2,5.9482,,0,0,41,41,46,1,stimuli/stim_20210919_power2amp/equal_lnn_AM2Hz_s45_41.m4a,,,,,,,,,,,,
,,,,,,,,,,,,41420,2021-09-30_11h35.31.588,judgeSpeechMusic_20210919_logNormShiftAmp_detection_fixFreq,2020.1.2,MacIntel,60,,,,,,,,,,,,,,,,,,2,6.1985,,0,0,42,42,3,1,stimuli/stim_20210919_power2amp/equal_lnn_AM2Hz_s15_12.m4a,,,,,,,,,,,,
,,,,,,,,,,,,41420,2021-09-30_11h35.31.588,judgeSpeechMusic_20210919_logNormShiftAmp_detection_fixFreq,2020.1.2,MacIntel,60,,,,,,,,,,,,,,,,,,1,7.5741,,0,0,43,43,41,1,stimuli/stim_20210919_power2amp/equal_lnn_AM2Hz_s35_44.m4a,,,,,,,,,,,,
,,,,,,,,,,,,41420,2021-09-30_11h35.31.588,judgeSpeechMusic_20210919_logNormShiftAmp_detection_fixFreq,2020.1.2,MacIntel,60,,,,,,,,,,,,,,,,,,2,6.9166,,0,0,44,44,10,1,stimuli/stim_20210919_power2amp/equal_lnn_AM2Hz_s15_25.m4a,,,,,,,,,,,,
,,,,,,,,,,,,41420,2021-09-30_11h35.31.588,judgeSpeechMusic_20210919_logNormShiftAmp_detection_fixFreq,2020.1.2,MacIntel,60,,,,,,,,,,,,,,,,,,1,6.7092,,0,0,45,45,58,1,stimuli/stim_20210919_power2amp/equal_lnn_AM2Hz_s45_11.m4a,,,,,,,,,,,,
,,,,,,,,,,,,41420,2021-09-30_11h35.31.588,judgeSpeechMusic_20210919_logNormShiftAmp_detection_fixFreq,2020.1.2,MacIntel,60,,,,,,,,,,,,,,,,,,1,6.1452,,0,0,46,46,23,1,stimuli/stim_20210919_power2amp/equal_lnn_AM2Hz_s25_8.m4a,,,,,,,,,,,,
,,,,,,,,,,,,41420,2021-09-30_11h35.31.588,judgeSpeechMusic_20210919_logNormShiftAmp_detection_fixFreq,2020.1.2,MacIntel,60,,,,,,,,,,,,,,,,,,1,6.1168,,0,0,47,47,42,1,stimuli/stim_20210919_power2amp/equal_lnn_AM2Hz_s35_22.m4a,,,,,,,,,,,,
,,,,,,,,,,,,41420,2021-09-30_11h35.31.588,judgeSpeechMusic_20210919_logNormShiftAmp_detection_fixFreq,2020.1.2,MacIntel,60,,,,,,,,,,,,,,,,,,2,5.9313,,0,0,48,48,44,1,stimuli/stim_20210919_power2amp/equal_lnn_AM2Hz_s35_45.m4a,,,,,,,,,,,,
,,,,,,,,,,,,41420,2021-09-30_11h35.31.588,judgeSpeechMusic_20210919_logNormShiftAmp_detection_fixFreq,2020.1.2,MacIntel,60,,,,,,,,,,,,,,,,,,2,6.9302,,0,0,49,49,37,1,stimuli/stim_20210919_power2amp/equal_lnn_AM2Hz_s35_34.m4a,,,,,,,,,,,,
,,,,,,,,,,,,41420,2021-09-30_11h35.31.588,judgeSpeechMusic_20210919_logNormShiftAmp_detection_fixFreq,2020.1.2,MacIntel,60,,,,,,,,,,,,,,,,,,2,6.5794,,0,0,50,50,20,1,stimuli/stim_20210919_power2amp/equal_lnn_AM2Hz_s25_16.m4a,,,,,,,,,,,,
,,,,,,,,,,,,41420,2021-09-30_11h35.31.588,judgeSpeechMusic_20210919_logNormShiftAmp_detection_fixFreq,2020.1.2,MacIntel,60,,,,,,,,,,,,,,,,,,2,7.0806,,0,0,51,51,56,1,stimuli/stim_20210919_power2amp/equal_lnn_AM2Hz_s45_20.m4a,,,,,,,,,,,,
,,,,,,,,,,,,41420,2021-09-30_11h35.31.588,judgeSpeechMusic_20210919_logNormShiftAmp_detection_fixFreq,2020.1.2,MacIntel,60,,,,,,,,,,,,,,,,,,1,6.7315,,0,0,52,52,21,1,stimuli/stim_20210919_power2amp/equal_lnn_AM2Hz_s25_17.m4a,,,,,,,,,,,,
,,,,,,,,,,,,41420,2021-09-30_11h35.31.588,judgeSpeechMusic_20210919_logNormShiftAmp_detection_fixFreq,2020.1.2,MacIntel,60,,,,,,,,,,,,,,,,,,2,6.9254,,0,0,53,53,35,1,stimuli/stim_20210919_power2amp/equal_lnn_AM2Hz_s35_49.m4a,,,,,,,,,,,,
,,,,,,,,,,,,41420,2021-09-30_11h35.31.588,judgeSpeechMusic_20210919_logNormShiftAmp_detection_fixFreq,2020.1.2,MacIntel,60,,,,,,,,,,,,,,,,,,1,5.9656,,0,0,54,54,4,1,stimuli/stim_20210919_power2amp/equal_lnn_AM2Hz_s15_15.m4a,,,,,,,,,,,,
,,,,,,,,,,,,41420,2021-09-30_11h35.31.588,judgeSpeechMusic_20210919_logNormShiftAmp_detection_fixFreq,2020.1.2,MacIntel,60,,,,,,,,,,,,,,,,,,1,5.6474,,0,0,55,55,22,1,stimuli/stim_20210919_power2amp/equal_lnn_AM2Hz_s25_48.m4a,,,,,,,,,,,,
,,,,,,,,,,,,41420,2021-09-30_11h35.31.588,judgeSpeechMusic_20210919_logNormShiftAmp_detection_fixFreq,2020.1.2,MacIntel,60,,,,,,,,,,,,,,,,,,2,6.1812,,0,0,56,56,45,1,stimuli/stim_20210919_power2amp/equal_lnn_AM2Hz_s45_16.m4a,,,,,,,,,,,,
,,,,,,,,,,,,41420,2021-09-30_11h35.31.588,judgeSpeechMusic_20210919_logNormShiftAmp_detection_fixFreq,2020.1.2,MacIntel,60,,,,,,,,,,,,,,,,,,1,6.4296,,0,0,57,57,7,1,stimuli/stim_20210919_power2amp/equal_lnn_AM2Hz_s15_1.m4a,,,,,,,,,,,,
,,,,,,,,,,,,41420,2021-09-30_11h35.31.588,judgeSpeechMusic_20210919_logNormShiftAmp_detection_fixFreq,2020.1.2,MacIntel,60,,,,,,,,,,,,,,,,,,1,6.0478,,0,0,58,58,51,1,stimuli/stim_20210919_power2amp/equal_lnn_AM2Hz_s45_47.m4a,,,,,,,,,,,,
,,,,,,,,,,,,41420,2021-09-30_11h35.31.588,judgeSpeechMusic_20210919_logNormShiftAmp_detection_fixFreq,2020.1.2,MacIntel,60,,,,,,,,,,,,,,,,,,2,6.5635,,0,0,59,59,0,1,stimuli/stim_20210919_power2amp/equal_lnn_AM2Hz_s15_18.m4a,,,,,,,,,,,,
,,,,,,,,,,,,41420,2021-09-30_11h35.31.588,judgeSpeechMusic_20210919_logNormShiftAmp_detection_fixFreq,2020.1.2,MacIntel,60,,,,,,,,,,,,,,,,,,2,5.7969,,0,0,60,60,62,1,stimuli/stim_20210919_power2amp/equal_lnn_AM2Hz_s55_42.m4a,,,,,,,,,,,,
,,,,,,,,,,,,41420,2021-09-30_11h35.31.588,judgeSpeechMusic_20210919_logNormShiftAmp_detection_fixFreq,2020.1.2,MacIntel,60,,,,,,,,,,,,,,,,,,2,5.7157,,0,0,61,61,6,1,stimuli/stim_20210919_power2amp/equal_lnn_AM2Hz_s15_44.m4a,,,,,,,,,,,,
,,,,,,,,,,,,41420,2021-09-30_11h35.31.588,judgeSpeechMusic_20210919_logNormShiftAmp_detection_fixFreq,2020.1.2,MacIntel,60,,,,,,,,,,,,,,,,,,2,5.7639,2,1,0,62,62,61,1,stimuli/stim_20210919_power2amp/equal_lnn_AM2Hz_s55_46.m4a,1.2079,,,,,,,,,,,
,,,,,,,,,,,,41420,2021-09-30_11h35.31.588,judgeSpeechMusic_20210919_logNormShiftAmp_detection_fixFreq,2020.1.2,MacIntel,60,,,,,,,,,,,,,,,,,,2,5.8623,,0,0,63,63,60,1,stimuli/stim_20210919_power2amp/equal_lnn_AM2Hz_s55_50.m4a,,,,,,,,,,,,
,,,,,,,,,,,,41420,2021-09-30_11h35.31.588,judgeSpeechMusic_20210919_logNormShiftAmp_detection_fixFreq,2020.1.2,MacIntel,60,,,,,,,,,,,,,,,,,,1,7.1443,,0,0,64,64,43,1,stimuli/stim_20210919_power2amp/equal_lnn_AM2Hz_s35_8.m4a,,,,,,,,,,,,
,,,,,,,,,,,,41420,2021-09-30_11h35.31.588,judgeSpeechMusic_20210919_logNormShiftAmp_detection_fixFreq,2020.1.2,MacIntel,60,,,,,,,,,,,,,,,,,,1,5.7838,,0,0,65,65,19,1,stimuli/stim_20210919_power2amp/equal_lnn_AM2Hz_s25_32.m4a,,,,,,,,,,,,
,,,,,,,,,,,,41420,2021-09-30_11h35.31.588,judgeSpeechMusic_20210919_logNormShiftAmp_detection_fixFreq,2020.1.2,MacIntel,60,,,,,,,,,,,,,,,,,,2,6.4091,,0,0,66,66,59,1,stimuli/stim_20210919_power2amp/equal_lnn_AM2Hz_s45_1.m4a,,,,,,,,,,,,
,,,,,,,,,,,,41420,2021-09-30_11h35.31.588,judgeSpeechMusic_20210919_logNormShiftAmp_detection_fixFreq,2020.1.2,MacIntel,60,,,,,,,,,,,,,,,,,,2,6.583,,0,0,67,67,54,1,stimuli/stim_20210919_power2amp/equal_lnn_AM2Hz_s45_25.m4a,,,,,,,,,,,,
,,,,,,,,,,,,41420,2021-09-30_11h35.31.588,judgeSpeechMusic_20210919_logNormShiftAmp_detection_fixFreq,2020.1.2,MacIntel,60,,,,,,,,,,,,,,,,,,1,6.6469,,0,0,68,68,69,1,stimuli/stim_20210919_power2amp/equal_lnn_AM2Hz_s55_6.m4a,,,,,,,,,,,,
,,,,,,,,,,,,41420,2021-09-30_11h35.31.588,judgeSpeechMusic_20210919_logNormShiftAmp_detection_fixFreq,2020.1.2,MacIntel,60,,,,,,,,,,,,,,,,,,1,5.7802,,0,0,69,69,5,1,stimuli/stim_20210919_power2amp/equal_lnn_AM2Hz_s15_17.m4a,,,,,,,,,,,,
,,,,,,,,,,,,41420,2021-09-30_11h35.31.588,judgeSpeechMusic_20210919_logNormShiftAmp_detection_fixFreq,2020.1.2,MacIntel,60,,,,,,,,,,,,,,,,,,2,5.7964,,0,0,70,70,12,1,stimuli/stim_20210919_power2amp/equal_lnn_AM2Hz_s15_6.m4a,,,,,,,,,,,,
,,,,,,,,,,,,41420,2021-09-30_11h35.31.588,judgeSpeechMusic_20210919_logNormShiftAmp_detection_fixFreq,2020.1.2,MacIntel,60,,,,,,,,,,,,,,,,,,2,5.7767,,0,0,71,71,68,1,stimuli/stim_20210919_power2amp/equal_lnn_AM2Hz_s55_20.m4a,,,,,,,,,,,,
,,,,,,,,,,,,41420,2021-09-30_11h35.31.588,judgeSpeechMusic_20210919_logNormShiftAmp_detection_fixFreq,2020.1.2,MacIntel,60,,,,,,,,,,,,,,,,,,2,5.7877,,0,0,72,72,39,1,stimuli/stim_20210919_power2amp/equal_lnn_AM2Hz_s35_28.m4a,,,,,,,,,,,,
,,,,,,,,,,,,41420,2021-09-30_11h35.31.588,judgeSpeechMusic_20210919_logNormShiftAmp_detection_fixFreq,2020.1.2,MacIntel,60,,,,,,,,,,,,,,,,,,1,5.7068,,0,0,73,73,65,1,stimuli/stim_20210919_power2amp/equal_lnn_AM2Hz_s55_5.m4a,,,,,,,,,,,,
,,,,,,,,,,,,41420,2021-09-30_11h35.31.588,judgeSpeechMusic_20210919_logNormShiftAmp_detection_fixFreq,2020.1.2,MacIntel,60,,,,,,,,,,,,,,,,,,1,6.3995,,0,0,74,74,53,1,stimuli/stim_20210919_power2amp/equal_lnn_AM2Hz_s45_48.m4a,,,,,,,,,,,,
,,,,,,,,,,,,41420,2021-09-30_11h35.31.588,judgeSpeechMusic_20210919_logNormShiftAmp_detection_fixFreq,2020.1.2,MacIntel,60,,,,,,,,,,,,,,,,,,,,,,,,,,,,,,,1,1,3,1,1,SPEECH,stimuli/SPEECH.jpg,,
,,,,,,,,,,,,41420,2021-09-30_11h35.31.588,judgeSpeechMusic_20210919_logNormShiftAmp_detection_fixFreq,2020.1.2,MacIntel,60,,,,,,,,,,,,,,,,,,,,,,,,,,,,,,,,,,,,,,space,7.5325
