volAdjustRep.thisRepN,volAdjustRep.thisTrialN,volAdjustRep.thisN,volAdjustRep.thisIndex,volAdjustRep.ran,participant,date,expName,psychopyVersion,OS,frameRate,headphoneResponse.keys,headphoneResponse.corr,headphoneResponse.rt,headphoneTrial.thisRepN,headphoneTrial.thisTrialN,headphoneTrial.thisN,headphoneTrial.thisIndex,headphoneTrial.ran,headphone_sound1,headphone_sound2,headphone_sound3,corrAns,checkInstruKey.keys,checkInstruKey.rt,trainSlider.response,trainSlider.rt,beepTrainResponse.keys,beepTrainResponse.corr,trainingTrials.thisRepN,trainingTrials.thisTrialN,trainingTrials.thisN,trainingTrials.thisIndex,trainingTrials.ran,trainAudioFile,beepTrainResponse.rt,readyReal_resp.keys,readyReal_resp.rt,checkInstru2_key.keys,checkInstru2_key.rt,ratingSlider.response,ratingSlider.rt,beepResp.keys,beepResp.corr,expTrials.thisRepN,expTrials.thisTrialN,expTrials.thisN,expTrials.thisIndex,expTrials.ran,audioFile,beepResp.rt,switchBlock_space.keys,switchBlock_space.rt,block.thisRepN,block.thisTrialN,block.thisN,block.thisIndex,block.ran,blockName,blockImage,end_resp.keys,end_resp.rt
0,0,0,0,1,41498,2021-10-02_13h32.34.294,judgeSpeechMusic_20210919_logNormShiftAmp_detection_fixFreq,2020.1.2,MacIntel,60,,,,,,,,,,,,,,,,,,,,,,,,,,,,,,,,,,,,,,,,,,,,,,,,,,,
,,,,,41498,2021-10-02_13h32.34.294,judgeSpeechMusic_20210919_logNormShiftAmp_detection_fixFreq,2020.1.2,MacIntel,60,1,1,0.6082,0,0,0,4,1,stimuli/screen_quiet.wav,stimuli/screen_antiphase.wav,stimuli/screen_origin.wav,1,,,,,,,,,,,,,,,,,,,,,,,,,,,,,,,,,,,,,,,
,,,,,41498,2021-10-02_13h32.34.294,judgeSpeechMusic_20210919_logNormShiftAmp_detection_fixFreq,2020.1.2,MacIntel,60,2,1,1.2878,0,1,1,3,1,stimuli/screen_origin.wav,stimuli/screen_quiet.wav,stimuli/screen_antiphase.wav,2,,,,,,,,,,,,,,,,,,,,,,,,,,,,,,,,,,,,,,,
,,,,,41498,2021-10-02_13h32.34.294,judgeSpeechMusic_20210919_logNormShiftAmp_detection_fixFreq,2020.1.2,MacIntel,60,1,1,0.8554,0,2,2,5,1,stimuli/screen_quiet.wav,stimuli/screen_origin.wav,stimuli/screen_antiphase.wav,1,,,,,,,,,,,,,,,,,,,,,,,,,,,,,,,,,,,,,,,
,,,,,41498,2021-10-02_13h32.34.294,judgeSpeechMusic_20210919_logNormShiftAmp_detection_fixFreq,2020.1.2,MacIntel,60,3,1,0.9088,0,3,3,2,1,stimuli/screen_origin.wav,stimuli/screen_antiphase.wav,stimuli/screen_quiet.wav,3,,,,,,,,,,,,,,,,,,,,,,,,,,,,,,,,,,,,,,,
,,,,,41498,2021-10-02_13h32.34.294,judgeSpeechMusic_20210919_logNormShiftAmp_detection_fixFreq,2020.1.2,MacIntel,60,2,1,0.5714,0,4,4,1,1,stimuli/screen_antiphase.wav,stimuli/screen_quiet.wav,stimuli/screen_origin.wav,2,,,,,,,,,,,,,,,,,,,,,,,,,,,,,,,,,,,,,,,
,,,,,41498,2021-10-02_13h32.34.294,judgeSpeechMusic_20210919_logNormShiftAmp_detection_fixFreq,2020.1.2,MacIntel,60,3,1,0.4371,0,5,5,0,1,stimuli/screen_antiphase.wav,stimuli/screen_origin.wav,stimuli/screen_quiet.wav,3,,,,,,,,,,,,,,,,,,,,,,,,,,,,,,,,,,,,,,,
,,,,,41498,2021-10-02_13h32.34.294,judgeSpeechMusic_20210919_logNormShiftAmp_detection_fixFreq,2020.1.2,MacIntel,60,,,,,,,,,,,,,space,0.491,2,7.1631,,0,0,0,0,0,1,stimuli/stim_20210919_power2amp/equal_lnn_AM_training2Hz_s20.m4a,,,,,,,,,,,,,,,,,,,,,,,,,,,
,,,,,41498,2021-10-02_13h32.34.294,judgeSpeechMusic_20210919_logNormShiftAmp_detection_fixFreq,2020.1.2,MacIntel,60,,,,,,,,,,,,,,,2,7.0232,,0,0,1,1,1,1,stimuli/stim_20210919_power2amp/equal_lnn_AM_training2Hz_s30.m4a,,,,,,,,,,,,,,,,,,,,,,,,,,,
,,,,,41498,2021-10-02_13h32.34.294,judgeSpeechMusic_20210919_logNormShiftAmp_detection_fixFreq,2020.1.2,MacIntel,60,,,,,,,,,,,,,,,2,6.1281,3,1,0,2,2,3,1,stimuli/stim_20210919_power2amp/equal_lnn_AM_training2Hz_s50.m4a,1.5252,,,,,,,,,,,,,,,,,,,,,,,,,,
,,,,,41498,2021-10-02_13h32.34.294,judgeSpeechMusic_20210919_logNormShiftAmp_detection_fixFreq,2020.1.2,MacIntel,60,,,,,,,,,,,,,,,1,5.977,,0,0,3,3,2,1,stimuli/stim_20210919_power2amp/equal_lnn_AM_training2Hz_s40.m4a,,,,,,,,,,,,,,,,,,,,,,,,,,,
,,,,,41498,2021-10-02_13h32.34.294,judgeSpeechMusic_20210919_logNormShiftAmp_detection_fixFreq,2020.1.2,MacIntel,60,,,,,,,,,,,,,,,,,,,,,,,,,,space,1.2191,space,0.46,2,6.281,,0,0,0,0,20,1,stimuli/stim_20210919_power2amp/equal_lnn_AM2Hz_s25_7.m4a,,,,,,,,,,,,
,,,,,41498,2021-10-02_13h32.34.294,judgeSpeechMusic_20210919_logNormShiftAmp_detection_fixFreq,2020.1.2,MacIntel,60,,,,,,,,,,,,,,,,,,,,,,,,,,,,,,1,6.2182,,0,0,1,1,74,1,stimuli/stim_20210919_power2amp/equal_lnn_AM2Hz_s55_47.m4a,,,,,,,,,,,,
,,,,,41498,2021-10-02_13h32.34.294,judgeSpeechMusic_20210919_logNormShiftAmp_detection_fixFreq,2020.1.2,MacIntel,60,,,,,,,,,,,,,,,,,,,,,,,,,,,,,,1,8.9053,,0,0,2,2,6,1,stimuli/stim_20210919_power2amp/equal_lnn_AM2Hz_s15_21.m4a,,,,,,,,,,,,
,,,,,41498,2021-10-02_13h32.34.294,judgeSpeechMusic_20210919_logNormShiftAmp_detection_fixFreq,2020.1.2,MacIntel,60,,,,,,,,,,,,,,,,,,,,,,,,,,,,,,2,6.1045,,0,0,3,3,21,1,stimuli/stim_20210919_power2amp/equal_lnn_AM2Hz_s25_15.m4a,,,,,,,,,,,,
,,,,,41498,2021-10-02_13h32.34.294,judgeSpeechMusic_20210919_logNormShiftAmp_detection_fixFreq,2020.1.2,MacIntel,60,,,,,,,,,,,,,,,,,,,,,,,,,,,,,,2,5.9888,,0,0,4,4,39,1,stimuli/stim_20210919_power2amp/equal_lnn_AM2Hz_s35_1.m4a,,,,,,,,,,,,
,,,,,41498,2021-10-02_13h32.34.294,judgeSpeechMusic_20210919_logNormShiftAmp_detection_fixFreq,2020.1.2,MacIntel,60,,,,,,,,,,,,,,,,,,,,,,,,,,,,,,1,100.1789,,0,0,5,5,5,1,stimuli/stim_20210919_power2amp/equal_lnn_AM2Hz_s15_7.m4a,,,,,,,,,,,,
,,,,,41498,2021-10-02_13h32.34.294,judgeSpeechMusic_20210919_logNormShiftAmp_detection_fixFreq,2020.1.2,MacIntel,60,,,,,,,,,,,,,,,,,,,,,,,,,,,,,,1,7.3384,,0,0,6,6,28,1,stimuli/stim_20210919_power2amp/equal_lnn_AM2Hz_s25_2.m4a,,,,,,,,,,,,
,,,,,41498,2021-10-02_13h32.34.294,judgeSpeechMusic_20210919_logNormShiftAmp_detection_fixFreq,2020.1.2,MacIntel,60,,,,,,,,,,,,,,,,,,,,,,,,,,,,,,2,5.9219,,0,0,7,7,37,1,stimuli/stim_20210919_power2amp/equal_lnn_AM2Hz_s35_48.m4a,,,,,,,,,,,,
,,,,,41498,2021-10-02_13h32.34.294,judgeSpeechMusic_20210919_logNormShiftAmp_detection_fixFreq,2020.1.2,MacIntel,60,,,,,,,,,,,,,,,,,,,,,,,,,,,,,,1,7.8136,,0,0,8,8,63,1,stimuli/stim_20210919_power2amp/equal_lnn_AM2Hz_s55_1.m4a,,,,,,,,,,,,
,,,,,41498,2021-10-02_13h32.34.294,judgeSpeechMusic_20210919_logNormShiftAmp_detection_fixFreq,2020.1.2,MacIntel,60,,,,,,,,,,,,,,,,,,,,,,,,,,,,,,1,7.7471,,0,0,9,9,59,1,stimuli/stim_20210919_power2amp/equal_lnn_AM2Hz_s45_22.m4a,,,,,,,,,,,,
,,,,,41498,2021-10-02_13h32.34.294,judgeSpeechMusic_20210919_logNormShiftAmp_detection_fixFreq,2020.1.2,MacIntel,60,,,,,,,,,,,,,,,,,,,,,,,,,,,,,,2,8.6724,,0,0,10,10,27,1,stimuli/stim_20210919_power2amp/equal_lnn_AM2Hz_s25_29.m4a,,,,,,,,,,,,
,,,,,41498,2021-10-02_13h32.34.294,judgeSpeechMusic_20210919_logNormShiftAmp_detection_fixFreq,2020.1.2,MacIntel,60,,,,,,,,,,,,,,,,,,,,,,,,,,,,,,2,9.171,,0,0,11,11,65,1,stimuli/stim_20210919_power2amp/equal_lnn_AM2Hz_s55_43.m4a,,,,,,,,,,,,
,,,,,41498,2021-10-02_13h32.34.294,judgeSpeechMusic_20210919_logNormShiftAmp_detection_fixFreq,2020.1.2,MacIntel,60,,,,,,,,,,,,,,,,,,,,,,,,,,,,,,1,9.6273,,0,0,12,12,31,1,stimuli/stim_20210919_power2amp/equal_lnn_AM2Hz_s35_8.m4a,,,,,,,,,,,,
,,,,,41498,2021-10-02_13h32.34.294,judgeSpeechMusic_20210919_logNormShiftAmp_detection_fixFreq,2020.1.2,MacIntel,60,,,,,,,,,,,,,,,,,,,,,,,,,,,,,,2,7.227,,0,0,13,13,47,1,stimuli/stim_20210919_power2amp/equal_lnn_AM2Hz_s45_50.m4a,,,,,,,,,,,,
,,,,,41498,2021-10-02_13h32.34.294,judgeSpeechMusic_20210919_logNormShiftAmp_detection_fixFreq,2020.1.2,MacIntel,60,,,,,,,,,,,,,,,,,,,,,,,,,,,,,,1,7.2369,,0,0,14,14,72,1,stimuli/stim_20210919_power2amp/equal_lnn_AM2Hz_s55_36.m4a,,,,,,,,,,,,
,,,,,41498,2021-10-02_13h32.34.294,judgeSpeechMusic_20210919_logNormShiftAmp_detection_fixFreq,2020.1.2,MacIntel,60,,,,,,,,,,,,,,,,,,,,,,,,,,,,,,2,6.455,,0,0,15,15,0,1,stimuli/stim_20210919_power2amp/equal_lnn_AM2Hz_s15_39.m4a,,,,,,,,,,,,
,,,,,41498,2021-10-02_13h32.34.294,judgeSpeechMusic_20210919_logNormShiftAmp_detection_fixFreq,2020.1.2,MacIntel,60,,,,,,,,,,,,,,,,,,,,,,,,,,,,,,1,6.3535,,0,0,16,16,64,1,stimuli/stim_20210919_power2amp/equal_lnn_AM2Hz_s55_11.m4a,,,,,,,,,,,,
,,,,,41498,2021-10-02_13h32.34.294,judgeSpeechMusic_20210919_logNormShiftAmp_detection_fixFreq,2020.1.2,MacIntel,60,,,,,,,,,,,,,,,,,,,,,,,,,,,,,,1,6.9586,,0,0,17,17,23,1,stimuli/stim_20210919_power2amp/equal_lnn_AM2Hz_s25_10.m4a,,,,,,,,,,,,
,,,,,41498,2021-10-02_13h32.34.294,judgeSpeechMusic_20210919_logNormShiftAmp_detection_fixFreq,2020.1.2,MacIntel,60,,,,,,,,,,,,,,,,,,,,,,,,,,,,,,1,28.5451,,0,0,18,18,70,1,stimuli/stim_20210919_power2amp/equal_lnn_AM2Hz_s55_6.m4a,,,,,,,,,,,,
,,,,,41498,2021-10-02_13h32.34.294,judgeSpeechMusic_20210919_logNormShiftAmp_detection_fixFreq,2020.1.2,MacIntel,60,,,,,,,,,,,,,,,,,,,,,,,,,,,,,,1,10.8242,,0,0,19,19,33,1,stimuli/stim_20210919_power2amp/equal_lnn_AM2Hz_s35_49.m4a,,,,,,,,,,,,
,,,,,41498,2021-10-02_13h32.34.294,judgeSpeechMusic_20210919_logNormShiftAmp_detection_fixFreq,2020.1.2,MacIntel,60,,,,,,,,,,,,,,,,,,,,,,,,,,,,,,2,7.089,,0,0,20,20,26,1,stimuli/stim_20210919_power2amp/equal_lnn_AM2Hz_s25_11.m4a,,,,,,,,,,,,
,,,,,41498,2021-10-02_13h32.34.294,judgeSpeechMusic_20210919_logNormShiftAmp_detection_fixFreq,2020.1.2,MacIntel,60,,,,,,,,,,,,,,,,,,,,,,,,,,,,,,2,5.9925,2,1,0,21,21,36,1,stimuli/stim_20210919_power2amp/equal_lnn_AM2Hz_s35_50.m4a,1.0118,,,,,,,,,,,
,,,,,41498,2021-10-02_13h32.34.294,judgeSpeechMusic_20210919_logNormShiftAmp_detection_fixFreq,2020.1.2,MacIntel,60,,,,,,,,,,,,,,,,,,,,,,,,,,,,,,2,8.6645,,0,0,22,22,49,1,stimuli/stim_20210919_power2amp/equal_lnn_AM2Hz_s45_11.m4a,,,,,,,,,,,,
,,,,,41498,2021-10-02_13h32.34.294,judgeSpeechMusic_20210919_logNormShiftAmp_detection_fixFreq,2020.1.2,MacIntel,60,,,,,,,,,,,,,,,,,,,,,,,,,,,,,,1,6.5969,,0,0,23,23,66,1,stimuli/stim_20210919_power2amp/equal_lnn_AM2Hz_s55_34.m4a,,,,,,,,,,,,
,,,,,41498,2021-10-02_13h32.34.294,judgeSpeechMusic_20210919_logNormShiftAmp_detection_fixFreq,2020.1.2,MacIntel,60,,,,,,,,,,,,,,,,,,,,,,,,,,,,,,1,7.7343,,0,0,24,24,7,1,stimuli/stim_20210919_power2amp/equal_lnn_AM2Hz_s15_25.m4a,,,,,,,,,,,,
,,,,,41498,2021-10-02_13h32.34.294,judgeSpeechMusic_20210919_logNormShiftAmp_detection_fixFreq,2020.1.2,MacIntel,60,,,,,,,,,,,,,,,,,,,,,,,,,,,,,,1,6.1433,,0,0,25,25,11,1,stimuli/stim_20210919_power2amp/equal_lnn_AM2Hz_s15_9.m4a,,,,,,,,,,,,
,,,,,41498,2021-10-02_13h32.34.294,judgeSpeechMusic_20210919_logNormShiftAmp_detection_fixFreq,2020.1.2,MacIntel,60,,,,,,,,,,,,,,,,,,,,,,,,,,,,,,1,8.419,,0,0,26,26,43,1,stimuli/stim_20210919_power2amp/equal_lnn_AM2Hz_s35_6.m4a,,,,,,,,,,,,
,,,,,41498,2021-10-02_13h32.34.294,judgeSpeechMusic_20210919_logNormShiftAmp_detection_fixFreq,2020.1.2,MacIntel,60,,,,,,,,,,,,,,,,,,,,,,,,,,,,,,2,7.455,,0,0,27,27,22,1,stimuli/stim_20210919_power2amp/equal_lnn_AM2Hz_s25_13.m4a,,,,,,,,,,,,
,,,,,41498,2021-10-02_13h32.34.294,judgeSpeechMusic_20210919_logNormShiftAmp_detection_fixFreq,2020.1.2,MacIntel,60,,,,,,,,,,,,,,,,,,,,,,,,,,,,,,2,17.1122,,0,0,28,28,24,1,stimuli/stim_20210919_power2amp/equal_lnn_AM2Hz_s25_34.m4a,,,,,,,,,,,,
,,,,,41498,2021-10-02_13h32.34.294,judgeSpeechMusic_20210919_logNormShiftAmp_detection_fixFreq,2020.1.2,MacIntel,60,,,,,,,,,,,,,,,,,,,,,,,,,,,,,,2,23.7272,,0,0,29,29,25,1,stimuli/stim_20210919_power2amp/equal_lnn_AM2Hz_s25_16.m4a,,,,,,,,,,,,
,,,,,41498,2021-10-02_13h32.34.294,judgeSpeechMusic_20210919_logNormShiftAmp_detection_fixFreq,2020.1.2,MacIntel,60,,,,,,,,,,,,,,,,,,,,,,,,,,,,,,1,8.0974,,0,0,30,30,61,1,stimuli/stim_20210919_power2amp/equal_lnn_AM2Hz_s55_37.m4a,,,,,,,,,,,,
,,,,,41498,2021-10-02_13h32.34.294,judgeSpeechMusic_20210919_logNormShiftAmp_detection_fixFreq,2020.1.2,MacIntel,60,,,,,,,,,,,,,,,,,,,,,,,,,,,,,,1,8.224,,0,0,31,31,58,1,stimuli/stim_20210919_power2amp/equal_lnn_AM2Hz_s45_45.m4a,,,,,,,,,,,,
,,,,,41498,2021-10-02_13h32.34.294,judgeSpeechMusic_20210919_logNormShiftAmp_detection_fixFreq,2020.1.2,MacIntel,60,,,,,,,,,,,,,,,,,,,,,,,,,,,,,,1,7.9956,,0,0,32,32,35,1,stimuli/stim_20210919_power2amp/equal_lnn_AM2Hz_s35_17.m4a,,,,,,,,,,,,
,,,,,41498,2021-10-02_13h32.34.294,judgeSpeechMusic_20210919_logNormShiftAmp_detection_fixFreq,2020.1.2,MacIntel,60,,,,,,,,,,,,,,,,,,,,,,,,,,,,,,1,7.2291,,0,0,33,33,57,1,stimuli/stim_20210919_power2amp/equal_lnn_AM2Hz_s45_5.m4a,,,,,,,,,,,,
,,,,,41498,2021-10-02_13h32.34.294,judgeSpeechMusic_20210919_logNormShiftAmp_detection_fixFreq,2020.1.2,MacIntel,60,,,,,,,,,,,,,,,,,,,,,,,,,,,,,,2,10.2262,,0,0,34,34,56,1,stimuli/stim_20210919_power2amp/equal_lnn_AM2Hz_s45_2.m4a,,,,,,,,,,,,
,,,,,41498,2021-10-02_13h32.34.294,judgeSpeechMusic_20210919_logNormShiftAmp_detection_fixFreq,2020.1.2,MacIntel,60,,,,,,,,,,,,,,,,,,,,,,,,,,,,,,1,6.9888,,0,0,35,35,12,1,stimuli/stim_20210919_power2amp/equal_lnn_AM2Hz_s15_8.m4a,,,,,,,,,,,,
,,,,,41498,2021-10-02_13h32.34.294,judgeSpeechMusic_20210919_logNormShiftAmp_detection_fixFreq,2020.1.2,MacIntel,60,,,,,,,,,,,,,,,,,,,,,,,,,,,,,,1,8.0553,,0,0,36,36,51,1,stimuli/stim_20210919_power2amp/equal_lnn_AM2Hz_s45_35.m4a,,,,,,,,,,,,
,,,,,41498,2021-10-02_13h32.34.294,judgeSpeechMusic_20210919_logNormShiftAmp_detection_fixFreq,2020.1.2,MacIntel,60,,,,,,,,,,,,,,,,,,,,,,,,,,,,,,1,8.6811,,0,0,37,37,69,1,stimuli/stim_20210919_power2amp/equal_lnn_AM2Hz_s55_41.m4a,,,,,,,,,,,,
,,,,,41498,2021-10-02_13h32.34.294,judgeSpeechMusic_20210919_logNormShiftAmp_detection_fixFreq,2020.1.2,MacIntel,60,,,,,,,,,,,,,,,,,,,,,,,,,,,,,,2,6.2379,,0,0,38,38,73,1,stimuli/stim_20210919_power2amp/equal_lnn_AM2Hz_s55_18.m4a,,,,,,,,,,,,
,,,,,41498,2021-10-02_13h32.34.294,judgeSpeechMusic_20210919_logNormShiftAmp_detection_fixFreq,2020.1.2,MacIntel,60,,,,,,,,,,,,,,,,,,,,,,,,,,,,,,1,6.2225,,0,0,39,39,67,1,stimuli/stim_20210919_power2amp/equal_lnn_AM2Hz_s55_8.m4a,,,,,,,,,,,,
,,,,,41498,2021-10-02_13h32.34.294,judgeSpeechMusic_20210919_logNormShiftAmp_detection_fixFreq,2020.1.2,MacIntel,60,,,,,,,,,,,,,,,,,,,,,,,,,,,,,,1,12.8885,3,1,0,40,40,40,1,stimuli/stim_20210919_power2amp/equal_lnn_AM2Hz_s35_47.m4a,0.613,,,,,,,,,,,
,,,,,41498,2021-10-02_13h32.34.294,judgeSpeechMusic_20210919_logNormShiftAmp_detection_fixFreq,2020.1.2,MacIntel,60,,,,,,,,,,,,,,,,,,,,,,,,,,,,,,1,13.5755,,0,0,41,41,8,1,stimuli/stim_20210919_power2amp/equal_lnn_AM2Hz_s15_18.m4a,,,,,,,,,,,,
,,,,,41498,2021-10-02_13h32.34.294,judgeSpeechMusic_20210919_logNormShiftAmp_detection_fixFreq,2020.1.2,MacIntel,60,,,,,,,,,,,,,,,,,,,,,,,,,,,,,,1,9.8877,,0,0,42,42,52,1,stimuli/stim_20210919_power2amp/equal_lnn_AM2Hz_s45_6.m4a,,,,,,,,,,,,
,,,,,41498,2021-10-02_13h32.34.294,judgeSpeechMusic_20210919_logNormShiftAmp_detection_fixFreq,2020.1.2,MacIntel,60,,,,,,,,,,,,,,,,,,,,,,,,,,,,,,2,10.5123,,0,0,43,43,10,1,stimuli/stim_20210919_power2amp/equal_lnn_AM2Hz_s15_17.m4a,,,,,,,,,,,,
,,,,,41498,2021-10-02_13h32.34.294,judgeSpeechMusic_20210919_logNormShiftAmp_detection_fixFreq,2020.1.2,MacIntel,60,,,,,,,,,,,,,,,,,,,,,,,,,,,,,,1,15.8967,,0,0,44,44,62,1,stimuli/stim_20210919_power2amp/equal_lnn_AM2Hz_s55_12.m4a,,,,,,,,,,,,
,,,,,41498,2021-10-02_13h32.34.294,judgeSpeechMusic_20210919_logNormShiftAmp_detection_fixFreq,2020.1.2,MacIntel,60,,,,,,,,,,,,,,,,,,,,,,,,,,,,,,2,6.6809,,0,0,45,45,46,1,stimuli/stim_20210919_power2amp/equal_lnn_AM2Hz_s45_12.m4a,,,,,,,,,,,,
,,,,,41498,2021-10-02_13h32.34.294,judgeSpeechMusic_20210919_logNormShiftAmp_detection_fixFreq,2020.1.2,MacIntel,60,,,,,,,,,,,,,,,,,,,,,,,,,,,,,,2,8.7378,,0,0,46,46,2,1,stimuli/stim_20210919_power2amp/equal_lnn_AM2Hz_s15_26.m4a,,,,,,,,,,,,
,,,,,41498,2021-10-02_13h32.34.294,judgeSpeechMusic_20210919_logNormShiftAmp_detection_fixFreq,2020.1.2,MacIntel,60,,,,,,,,,,,,,,,,,,,,,,,,,,,,,,2,6.4394,,0,0,47,47,54,1,stimuli/stim_20210919_power2amp/equal_lnn_AM2Hz_s45_36.m4a,,,,,,,,,,,,
,,,,,41498,2021-10-02_13h32.34.294,judgeSpeechMusic_20210919_logNormShiftAmp_detection_fixFreq,2020.1.2,MacIntel,60,,,,,,,,,,,,,,,,,,,,,,,,,,,,,,1,6.4546,,0,0,48,48,29,1,stimuli/stim_20210919_power2amp/equal_lnn_AM2Hz_s25_21.m4a,,,,,,,,,,,,
,,,,,41498,2021-10-02_13h32.34.294,judgeSpeechMusic_20210919_logNormShiftAmp_detection_fixFreq,2020.1.2,MacIntel,60,,,,,,,,,,,,,,,,,,,,,,,,,,,,,,2,7.9739,,0,0,49,49,48,1,stimuli/stim_20210919_power2amp/equal_lnn_AM2Hz_s45_7.m4a,,,,,,,,,,,,
,,,,,41498,2021-10-02_13h32.34.294,judgeSpeechMusic_20210919_logNormShiftAmp_detection_fixFreq,2020.1.2,MacIntel,60,,,,,,,,,,,,,,,,,,,,,,,,,,,,,,2,10.2211,,0,0,50,50,16,1,stimuli/stim_20210919_power2amp/equal_lnn_AM2Hz_s25_36.m4a,,,,,,,,,,,,
,,,,,41498,2021-10-02_13h32.34.294,judgeSpeechMusic_20210919_logNormShiftAmp_detection_fixFreq,2020.1.2,MacIntel,60,,,,,,,,,,,,,,,,,,,,,,,,,,,,,,2,13.561,,0,0,51,51,34,1,stimuli/stim_20210919_power2amp/equal_lnn_AM2Hz_s35_46.m4a,,,,,,,,,,,,
,,,,,41498,2021-10-02_13h32.34.294,judgeSpeechMusic_20210919_logNormShiftAmp_detection_fixFreq,2020.1.2,MacIntel,60,,,,,,,,,,,,,,,,,,,,,,,,,,,,,,2,1659.0145,,0,0,52,52,41,1,stimuli/stim_20210919_power2amp/equal_lnn_AM2Hz_s35_10.m4a,,,,,,,,,,,,
,,,,,41498,2021-10-02_13h32.34.294,judgeSpeechMusic_20210919_logNormShiftAmp_detection_fixFreq,2020.1.2,MacIntel,60,,,,,,,,,,,,,,,,,,,,,,,,,,,,,,2,42.3544,,0,0,53,53,38,1,stimuli/stim_20210919_power2amp/equal_lnn_AM2Hz_s35_9.m4a,,,,,,,,,,,,
,,,,,41498,2021-10-02_13h32.34.294,judgeSpeechMusic_20210919_logNormShiftAmp_detection_fixFreq,2020.1.2,MacIntel,60,,,,,,,,,,,,,,,,,,,,,,,,,,,,,,1,9.4857,,0,0,54,54,1,1,stimuli/stim_20210919_power2amp/equal_lnn_AM2Hz_s15_31.m4a,,,,,,,,,,,,
,,,,,41498,2021-10-02_13h32.34.294,judgeSpeechMusic_20210919_logNormShiftAmp_detection_fixFreq,2020.1.2,MacIntel,60,,,,,,,,,,,,,,,,,,,,,,,,,,,,,,2,6.3893,,0,0,55,55,30,1,stimuli/stim_20210919_power2amp/equal_lnn_AM2Hz_s35_18.m4a,,,,,,,,,,,,
,,,,,41498,2021-10-02_13h32.34.294,judgeSpeechMusic_20210919_logNormShiftAmp_detection_fixFreq,2020.1.2,MacIntel,60,,,,,,,,,,,,,,,,,,,,,,,,,,,,,,1,517.3896,,0,0,56,56,42,1,stimuli/stim_20210919_power2amp/equal_lnn_AM2Hz_s35_38.m4a,,,,,,,,,,,,
,,,,,41498,2021-10-02_13h32.34.294,judgeSpeechMusic_20210919_logNormShiftAmp_detection_fixFreq,2020.1.2,MacIntel,60,,,,,,,,,,,,,,,,,,,,,,,,,,,,,,2,8.2088,,0,0,57,57,17,1,stimuli/stim_20210919_power2amp/equal_lnn_AM2Hz_s25_3.m4a,,,,,,,,,,,,
,,,,,41498,2021-10-02_13h32.34.294,judgeSpeechMusic_20210919_logNormShiftAmp_detection_fixFreq,2020.1.2,MacIntel,60,,,,,,,,,,,,,,,,,,,,,,,,,,,,,,2,8.291,1,1,0,58,58,50,1,stimuli/stim_20210919_power2amp/equal_lnn_AM2Hz_s45_29.m4a,0.4416,,,,,,,,,,,
,,,,,41498,2021-10-02_13h32.34.294,judgeSpeechMusic_20210919_logNormShiftAmp_detection_fixFreq,2020.1.2,MacIntel,60,,,,,,,,,,,,,,,,,,,,,,,,,,,,,,2,12.1055,,0,0,59,59,13,1,stimuli/stim_20210919_power2amp/equal_lnn_AM2Hz_s15_33.m4a,,,,,,,,,,,,
,,,,,41498,2021-10-02_13h32.34.294,judgeSpeechMusic_20210919_logNormShiftAmp_detection_fixFreq,2020.1.2,MacIntel,60,,,,,,,,,,,,,,,,,,,,,,,,,,,,,,2,18.2974,,0,0,60,60,55,1,stimuli/stim_20210919_power2amp/equal_lnn_AM2Hz_s45_46.m4a,,,,,,,,,,,,
,,,,,41498,2021-10-02_13h32.34.294,judgeSpeechMusic_20210919_logNormShiftAmp_detection_fixFreq,2020.1.2,MacIntel,60,,,,,,,,,,,,,,,,,,,,,,,,,,,,,,1,5.8287,,0,0,61,61,44,1,stimuli/stim_20210919_power2amp/equal_lnn_AM2Hz_s35_4.m4a,,,,,,,,,,,,
,,,,,41498,2021-10-02_13h32.34.294,judgeSpeechMusic_20210919_logNormShiftAmp_detection_fixFreq,2020.1.2,MacIntel,60,,,,,,,,,,,,,,,,,,,,,,,,,,,,,,1,5.5308,,0,0,62,62,53,1,stimuli/stim_20210919_power2amp/equal_lnn_AM2Hz_s45_30.m4a,,,,,,,,,,,,
,,,,,41498,2021-10-02_13h32.34.294,judgeSpeechMusic_20210919_logNormShiftAmp_detection_fixFreq,2020.1.2,MacIntel,60,,,,,,,,,,,,,,,,,,,,,,,,,,,,,,2,6.3717,,0,0,63,63,45,1,stimuli/stim_20210919_power2amp/equal_lnn_AM2Hz_s45_4.m4a,,,,,,,,,,,,
,,,,,41498,2021-10-02_13h32.34.294,judgeSpeechMusic_20210919_logNormShiftAmp_detection_fixFreq,2020.1.2,MacIntel,60,,,,,,,,,,,,,,,,,,,,,,,,,,,,,,1,5.9414,,0,0,64,64,14,1,stimuli/stim_20210919_power2amp/equal_lnn_AM2Hz_s15_10.m4a,,,,,,,,,,,,
,,,,,41498,2021-10-02_13h32.34.294,judgeSpeechMusic_20210919_logNormShiftAmp_detection_fixFreq,2020.1.2,MacIntel,60,,,,,,,,,,,,,,,,,,,,,,,,,,,,,,1,7.6712,,0,0,65,65,32,1,stimuli/stim_20210919_power2amp/equal_lnn_AM2Hz_s35_41.m4a,,,,,,,,,,,,
,,,,,41498,2021-10-02_13h32.34.294,judgeSpeechMusic_20210919_logNormShiftAmp_detection_fixFreq,2020.1.2,MacIntel,60,,,,,,,,,,,,,,,,,,,,,,,,,,,,,,1,6.9379,,0,0,66,66,19,1,stimuli/stim_20210919_power2amp/equal_lnn_AM2Hz_s25_42.m4a,,,,,,,,,,,,
,,,,,41498,2021-10-02_13h32.34.294,judgeSpeechMusic_20210919_logNormShiftAmp_detection_fixFreq,2020.1.2,MacIntel,60,,,,,,,,,,,,,,,,,,,,,,,,,,,,,,2,6.5462,,0,0,67,67,18,1,stimuli/stim_20210919_power2amp/equal_lnn_AM2Hz_s25_18.m4a,,,,,,,,,,,,
,,,,,41498,2021-10-02_13h32.34.294,judgeSpeechMusic_20210919_logNormShiftAmp_detection_fixFreq,2020.1.2,MacIntel,60,,,,,,,,,,,,,,,,,,,,,,,,,,,,,,2,6.9205,,0,0,68,68,71,1,stimuli/stim_20210919_power2amp/equal_lnn_AM2Hz_s55_4.m4a,,,,,,,,,,,,
,,,,,41498,2021-10-02_13h32.34.294,judgeSpeechMusic_20210919_logNormShiftAmp_detection_fixFreq,2020.1.2,MacIntel,60,,,,,,,,,,,,,,,,,,,,,,,,,,,,,,2,7.2295,,0,0,69,69,4,1,stimuli/stim_20210919_power2amp/equal_lnn_AM2Hz_s15_30.m4a,,,,,,,,,,,,
,,,,,41498,2021-10-02_13h32.34.294,judgeSpeechMusic_20210919_logNormShiftAmp_detection_fixFreq,2020.1.2,MacIntel,60,,,,,,,,,,,,,,,,,,,,,,,,,,,,,,2,8.3717,,0,0,70,70,60,1,stimuli/stim_20210919_power2amp/equal_lnn_AM2Hz_s55_29.m4a,,,,,,,,,,,,
,,,,,41498,2021-10-02_13h32.34.294,judgeSpeechMusic_20210919_logNormShiftAmp_detection_fixFreq,2020.1.2,MacIntel,60,,,,,,,,,,,,,,,,,,,,,,,,,,,,,,2,5.8042,,0,0,71,71,15,1,stimuli/stim_20210919_power2amp/equal_lnn_AM2Hz_s25_23.m4a,,,,,,,,,,,,
,,,,,41498,2021-10-02_13h32.34.294,judgeSpeechMusic_20210919_logNormShiftAmp_detection_fixFreq,2020.1.2,MacIntel,60,,,,,,,,,,,,,,,,,,,,,,,,,,,,,,2,5.6422,,0,0,72,72,3,1,stimuli/stim_20210919_power2amp/equal_lnn_AM2Hz_s15_20.m4a,,,,,,,,,,,,
,,,,,41498,2021-10-02_13h32.34.294,judgeSpeechMusic_20210919_logNormShiftAmp_detection_fixFreq,2020.1.2,MacIntel,60,,,,,,,,,,,,,,,,,,,,,,,,,,,,,,1,6.63,,0,0,73,73,68,1,stimuli/stim_20210919_power2amp/equal_lnn_AM2Hz_s55_2.m4a,,,,,,,,,,,,
,,,,,41498,2021-10-02_13h32.34.294,judgeSpeechMusic_20210919_logNormShiftAmp_detection_fixFreq,2020.1.2,MacIntel,60,,,,,,,,,,,,,,,,,,,,,,,,,,,,,,1,8.7227,,0,0,74,74,9,1,stimuli/stim_20210919_power2amp/equal_lnn_AM2Hz_s15_12.m4a,,,,,,,,,,,,
,,,,,41498,2021-10-02_13h32.34.294,judgeSpeechMusic_20210919_logNormShiftAmp_detection_fixFreq,2020.1.2,MacIntel,60,,,,,,,,,,,,,,,,,,,,,,,,,,,,,,,,,,,,,,,,,space,0.6575,0,0,0,1,1,SPEECH,stimuli/SPEECH.jpg,,
,,,,,41498,2021-10-02_13h32.34.294,judgeSpeechMusic_20210919_logNormShiftAmp_detection_fixFreq,2020.1.2,MacIntel,60,,,,,,,,,,,,,space,0.5834,1,8.7437,,0,0,0,0,1,1,stimuli/stim_20210919_power2amp/equal_lnn_AM_training2Hz_s30.m4a,,,,,,,,,,,,,,,,,,,,,,,,,,,
,,,,,41498,2021-10-02_13h32.34.294,judgeSpeechMusic_20210919_logNormShiftAmp_detection_fixFreq,2020.1.2,MacIntel,60,,,,,,,,,,,,,,,1,6.6724,,0,0,1,1,2,1,stimuli/stim_20210919_power2amp/equal_lnn_AM_training2Hz_s40.m4a,,,,,,,,,,,,,,,,,,,,,,,,,,,
,,,,,41498,2021-10-02_13h32.34.294,judgeSpeechMusic_20210919_logNormShiftAmp_detection_fixFreq,2020.1.2,MacIntel,60,,,,,,,,,,,,,,,2,6.2229,1,1,0,2,2,0,1,stimuli/stim_20210919_power2amp/equal_lnn_AM_training2Hz_s20.m4a,1.291,,,,,,,,,,,,,,,,,,,,,,,,,,
,,,,,41498,2021-10-02_13h32.34.294,judgeSpeechMusic_20210919_logNormShiftAmp_detection_fixFreq,2020.1.2,MacIntel,60,,,,,,,,,,,,,,,1,6.8211,,0,0,3,3,3,1,stimuli/stim_20210919_power2amp/equal_lnn_AM_training2Hz_s50.m4a,,,,,,,,,,,,,,,,,,,,,,,,,,,
,,,,,41498,2021-10-02_13h32.34.294,judgeSpeechMusic_20210919_logNormShiftAmp_detection_fixFreq,2020.1.2,MacIntel,60,,,,,,,,,,,,,,,,,,,,,,,,,,space,1.0251,space,0.4086,2,5.9637,,0,0,0,0,55,1,stimuli/stim_20210919_power2amp/equal_lnn_AM2Hz_s45_46.m4a,,,,,,,,,,,,
,,,,,41498,2021-10-02_13h32.34.294,judgeSpeechMusic_20210919_logNormShiftAmp_detection_fixFreq,2020.1.2,MacIntel,60,,,,,,,,,,,,,,,,,,,,,,,,,,,,,,2,5.9884,,0,0,1,1,59,1,stimuli/stim_20210919_power2amp/equal_lnn_AM2Hz_s45_22.m4a,,,,,,,,,,,,
,,,,,41498,2021-10-02_13h32.34.294,judgeSpeechMusic_20210919_logNormShiftAmp_detection_fixFreq,2020.1.2,MacIntel,60,,,,,,,,,,,,,,,,,,,,,,,,,,,,,,1,10.114,,0,0,2,2,48,1,stimuli/stim_20210919_power2amp/equal_lnn_AM2Hz_s45_7.m4a,,,,,,,,,,,,
,,,,,41498,2021-10-02_13h32.34.294,judgeSpeechMusic_20210919_logNormShiftAmp_detection_fixFreq,2020.1.2,MacIntel,60,,,,,,,,,,,,,,,,,,,,,,,,,,,,,,2,133.5594,,0,0,3,3,19,1,stimuli/stim_20210919_power2amp/equal_lnn_AM2Hz_s25_42.m4a,,,,,,,,,,,,
,,,,,41498,2021-10-02_13h32.34.294,judgeSpeechMusic_20210919_logNormShiftAmp_detection_fixFreq,2020.1.2,MacIntel,60,,,,,,,,,,,,,,,,,,,,,,,,,,,,,,2,5.8735,,0,0,4,4,31,1,stimuli/stim_20210919_power2amp/equal_lnn_AM2Hz_s35_8.m4a,,,,,,,,,,,,
,,,,,41498,2021-10-02_13h32.34.294,judgeSpeechMusic_20210919_logNormShiftAmp_detection_fixFreq,2020.1.2,MacIntel,60,,,,,,,,,,,,,,,,,,,,,,,,,,,,,,2,6.1895,,0,0,5,5,58,1,stimuli/stim_20210919_power2amp/equal_lnn_AM2Hz_s45_45.m4a,,,,,,,,,,,,
,,,,,41498,2021-10-02_13h32.34.294,judgeSpeechMusic_20210919_logNormShiftAmp_detection_fixFreq,2020.1.2,MacIntel,60,,,,,,,,,,,,,,,,,,,,,,,,,,,,,,2,5.8387,,0,0,6,6,29,1,stimuli/stim_20210919_power2amp/equal_lnn_AM2Hz_s25_21.m4a,,,,,,,,,,,,
,,,,,41498,2021-10-02_13h32.34.294,judgeSpeechMusic_20210919_logNormShiftAmp_detection_fixFreq,2020.1.2,MacIntel,60,,,,,,,,,,,,,,,,,,,,,,,,,,,,,,2,5.9814,,0,0,7,7,54,1,stimuli/stim_20210919_power2amp/equal_lnn_AM2Hz_s45_36.m4a,,,,,,,,,,,,
,,,,,41498,2021-10-02_13h32.34.294,judgeSpeechMusic_20210919_logNormShiftAmp_detection_fixFreq,2020.1.2,MacIntel,60,,,,,,,,,,,,,,,,,,,,,,,,,,,,,,2,6.6082,,0,0,8,8,51,1,stimuli/stim_20210919_power2amp/equal_lnn_AM2Hz_s45_35.m4a,,,,,,,,,,,,
,,,,,41498,2021-10-02_13h32.34.294,judgeSpeechMusic_20210919_logNormShiftAmp_detection_fixFreq,2020.1.2,MacIntel,60,,,,,,,,,,,,,,,,,,,,,,,,,,,,,,1,6.0958,,0,0,9,9,43,1,stimuli/stim_20210919_power2amp/equal_lnn_AM2Hz_s35_6.m4a,,,,,,,,,,,,
,,,,,41498,2021-10-02_13h32.34.294,judgeSpeechMusic_20210919_logNormShiftAmp_detection_fixFreq,2020.1.2,MacIntel,60,,,,,,,,,,,,,,,,,,,,,,,,,,,,,,1,13.3958,,0,0,10,10,17,1,stimuli/stim_20210919_power2amp/equal_lnn_AM2Hz_s25_3.m4a,,,,,,,,,,,,
,,,,,41498,2021-10-02_13h32.34.294,judgeSpeechMusic_20210919_logNormShiftAmp_detection_fixFreq,2020.1.2,MacIntel,60,,,,,,,,,,,,,,,,,,,,,,,,,,,,,,1,13.1417,,0,0,11,11,2,1,stimuli/stim_20210919_power2amp/equal_lnn_AM2Hz_s15_26.m4a,,,,,,,,,,,,
,,,,,41498,2021-10-02_13h32.34.294,judgeSpeechMusic_20210919_logNormShiftAmp_detection_fixFreq,2020.1.2,MacIntel,60,,,,,,,,,,,,,,,,,,,,,,,,,,,,,,1,9.3259,,0,0,12,12,69,1,stimuli/stim_20210919_power2amp/equal_lnn_AM2Hz_s55_41.m4a,,,,,,,,,,,,
,,,,,41498,2021-10-02_13h32.34.294,judgeSpeechMusic_20210919_logNormShiftAmp_detection_fixFreq,2020.1.2,MacIntel,60,,,,,,,,,,,,,,,,,,,,,,,,,,,,,,2,156.9051,,0,0,13,13,32,1,stimuli/stim_20210919_power2amp/equal_lnn_AM2Hz_s35_41.m4a,,,,,,,,,,,,
,,,,,41498,2021-10-02_13h32.34.294,judgeSpeechMusic_20210919_logNormShiftAmp_detection_fixFreq,2020.1.2,MacIntel,60,,,,,,,,,,,,,,,,,,,,,,,,,,,,,,2,5.7782,,0,0,14,14,38,1,stimuli/stim_20210919_power2amp/equal_lnn_AM2Hz_s35_9.m4a,,,,,,,,,,,,
,,,,,41498,2021-10-02_13h32.34.294,judgeSpeechMusic_20210919_logNormShiftAmp_detection_fixFreq,2020.1.2,MacIntel,60,,,,,,,,,,,,,,,,,,,,,,,,,,,,,,1,6.137,,0,0,15,15,15,1,stimuli/stim_20210919_power2amp/equal_lnn_AM2Hz_s25_23.m4a,,,,,,,,,,,,
,,,,,41498,2021-10-02_13h32.34.294,judgeSpeechMusic_20210919_logNormShiftAmp_detection_fixFreq,2020.1.2,MacIntel,60,,,,,,,,,,,,,,,,,,,,,,,,,,,,,,1,5.7233,,0,0,16,16,26,1,stimuli/stim_20210919_power2amp/equal_lnn_AM2Hz_s25_11.m4a,,,,,,,,,,,,
,,,,,41498,2021-10-02_13h32.34.294,judgeSpeechMusic_20210919_logNormShiftAmp_detection_fixFreq,2020.1.2,MacIntel,60,,,,,,,,,,,,,,,,,,,,,,,,,,,,,,1,5.7372,,0,0,17,17,11,1,stimuli/stim_20210919_power2amp/equal_lnn_AM2Hz_s15_9.m4a,,,,,,,,,,,,
,,,,,41498,2021-10-02_13h32.34.294,judgeSpeechMusic_20210919_logNormShiftAmp_detection_fixFreq,2020.1.2,MacIntel,60,,,,,,,,,,,,,,,,,,,,,,,,,,,,,,1,5.762,,0,0,18,18,24,1,stimuli/stim_20210919_power2amp/equal_lnn_AM2Hz_s25_34.m4a,,,,,,,,,,,,
,,,,,41498,2021-10-02_13h32.34.294,judgeSpeechMusic_20210919_logNormShiftAmp_detection_fixFreq,2020.1.2,MacIntel,60,,,,,,,,,,,,,,,,,,,,,,,,,,,,,,1,6.0431,,0,0,19,19,41,1,stimuli/stim_20210919_power2amp/equal_lnn_AM2Hz_s35_10.m4a,,,,,,,,,,,,
,,,,,41498,2021-10-02_13h32.34.294,judgeSpeechMusic_20210919_logNormShiftAmp_detection_fixFreq,2020.1.2,MacIntel,60,,,,,,,,,,,,,,,,,,,,,,,,,,,,,,1,6.7222,,0,0,20,20,40,1,stimuli/stim_20210919_power2amp/equal_lnn_AM2Hz_s35_47.m4a,,,,,,,,,,,,
,,,,,41498,2021-10-02_13h32.34.294,judgeSpeechMusic_20210919_logNormShiftAmp_detection_fixFreq,2020.1.2,MacIntel,60,,,,,,,,,,,,,,,,,,,,,,,,,,,,,,1,6.489,3,1,0,21,21,23,1,stimuli/stim_20210919_power2amp/equal_lnn_AM2Hz_s25_10.m4a,1.3938,,,,,,,,,,,
,,,,,41498,2021-10-02_13h32.34.294,judgeSpeechMusic_20210919_logNormShiftAmp_detection_fixFreq,2020.1.2,MacIntel,60,,,,,,,,,,,,,,,,,,,,,,,,,,,,,,1,5.7286,,0,0,22,22,16,1,stimuli/stim_20210919_power2amp/equal_lnn_AM2Hz_s25_36.m4a,,,,,,,,,,,,
,,,,,41498,2021-10-02_13h32.34.294,judgeSpeechMusic_20210919_logNormShiftAmp_detection_fixFreq,2020.1.2,MacIntel,60,,,,,,,,,,,,,,,,,,,,,,,,,,,,,,1,5.5892,,0,0,23,23,0,1,stimuli/stim_20210919_power2amp/equal_lnn_AM2Hz_s15_39.m4a,,,,,,,,,,,,
,,,,,41498,2021-10-02_13h32.34.294,judgeSpeechMusic_20210919_logNormShiftAmp_detection_fixFreq,2020.1.2,MacIntel,60,,,,,,,,,,,,,,,,,,,,,,,,,,,,,,1,7.8631,,0,0,24,24,53,1,stimuli/stim_20210919_power2amp/equal_lnn_AM2Hz_s45_30.m4a,,,,,,,,,,,,
,,,,,41498,2021-10-02_13h32.34.294,judgeSpeechMusic_20210919_logNormShiftAmp_detection_fixFreq,2020.1.2,MacIntel,60,,,,,,,,,,,,,,,,,,,,,,,,,,,,,,1,6.4632,,0,0,25,25,22,1,stimuli/stim_20210919_power2amp/equal_lnn_AM2Hz_s25_13.m4a,,,,,,,,,,,,
,,,,,41498,2021-10-02_13h32.34.294,judgeSpeechMusic_20210919_logNormShiftAmp_detection_fixFreq,2020.1.2,MacIntel,60,,,,,,,,,,,,,,,,,,,,,,,,,,,,,,1,5.91,,0,0,26,26,30,1,stimuli/stim_20210919_power2amp/equal_lnn_AM2Hz_s35_18.m4a,,,,,,,,,,,,
,,,,,41498,2021-10-02_13h32.34.294,judgeSpeechMusic_20210919_logNormShiftAmp_detection_fixFreq,2020.1.2,MacIntel,60,,,,,,,,,,,,,,,,,,,,,,,,,,,,,,1,6.0866,,0,0,27,27,34,1,stimuli/stim_20210919_power2amp/equal_lnn_AM2Hz_s35_46.m4a,,,,,,,,,,,,
,,,,,41498,2021-10-02_13h32.34.294,judgeSpeechMusic_20210919_logNormShiftAmp_detection_fixFreq,2020.1.2,MacIntel,60,,,,,,,,,,,,,,,,,,,,,,,,,,,,,,1,5.9998,,0,0,28,28,33,1,stimuli/stim_20210919_power2amp/equal_lnn_AM2Hz_s35_49.m4a,,,,,,,,,,,,
,,,,,41498,2021-10-02_13h32.34.294,judgeSpeechMusic_20210919_logNormShiftAmp_detection_fixFreq,2020.1.2,MacIntel,60,,,,,,,,,,,,,,,,,,,,,,,,,,,,,,1,6.5306,,0,0,29,29,1,1,stimuli/stim_20210919_power2amp/equal_lnn_AM2Hz_s15_31.m4a,,,,,,,,,,,,
,,,,,41498,2021-10-02_13h32.34.294,judgeSpeechMusic_20210919_logNormShiftAmp_detection_fixFreq,2020.1.2,MacIntel,60,,,,,,,,,,,,,,,,,,,,,,,,,,,,,,1,6.2483,,0,0,30,30,45,1,stimuli/stim_20210919_power2amp/equal_lnn_AM2Hz_s45_4.m4a,,,,,,,,,,,,
,,,,,41498,2021-10-02_13h32.34.294,judgeSpeechMusic_20210919_logNormShiftAmp_detection_fixFreq,2020.1.2,MacIntel,60,,,,,,,,,,,,,,,,,,,,,,,,,,,,,,1,6.1958,,0,0,31,31,21,1,stimuli/stim_20210919_power2amp/equal_lnn_AM2Hz_s25_15.m4a,,,,,,,,,,,,
,,,,,41498,2021-10-02_13h32.34.294,judgeSpeechMusic_20210919_logNormShiftAmp_detection_fixFreq,2020.1.2,MacIntel,60,,,,,,,,,,,,,,,,,,,,,,,,,,,,,,1,5.5964,,0,0,32,32,67,1,stimuli/stim_20210919_power2amp/equal_lnn_AM2Hz_s55_8.m4a,,,,,,,,,,,,
,,,,,41498,2021-10-02_13h32.34.294,judgeSpeechMusic_20210919_logNormShiftAmp_detection_fixFreq,2020.1.2,MacIntel,60,,,,,,,,,,,,,,,,,,,,,,,,,,,,,,1,5.6887,,0,0,33,33,60,1,stimuli/stim_20210919_power2amp/equal_lnn_AM2Hz_s55_29.m4a,,,,,,,,,,,,
,,,,,41498,2021-10-02_13h32.34.294,judgeSpeechMusic_20210919_logNormShiftAmp_detection_fixFreq,2020.1.2,MacIntel,60,,,,,,,,,,,,,,,,,,,,,,,,,,,,,,1,7.3463,,0,0,34,34,70,1,stimuli/stim_20210919_power2amp/equal_lnn_AM2Hz_s55_6.m4a,,,,,,,,,,,,
,,,,,41498,2021-10-02_13h32.34.294,judgeSpeechMusic_20210919_logNormShiftAmp_detection_fixFreq,2020.1.2,MacIntel,60,,,,,,,,,,,,,,,,,,,,,,,,,,,,,,1,7.1985,,0,0,35,35,49,1,stimuli/stim_20210919_power2amp/equal_lnn_AM2Hz_s45_11.m4a,,,,,,,,,,,,
,,,,,41498,2021-10-02_13h32.34.294,judgeSpeechMusic_20210919_logNormShiftAmp_detection_fixFreq,2020.1.2,MacIntel,60,,,,,,,,,,,,,,,,,,,,,,,,,,,,,,1,7.8877,,0,0,36,36,35,1,stimuli/stim_20210919_power2amp/equal_lnn_AM2Hz_s35_17.m4a,,,,,,,,,,,,
,,,,,41498,2021-10-02_13h32.34.294,judgeSpeechMusic_20210919_logNormShiftAmp_detection_fixFreq,2020.1.2,MacIntel,60,,,,,,,,,,,,,,,,,,,,,,,,,,,,,,1,5.6114,,0,0,37,37,39,1,stimuli/stim_20210919_power2amp/equal_lnn_AM2Hz_s35_1.m4a,,,,,,,,,,,,
,,,,,41498,2021-10-02_13h32.34.294,judgeSpeechMusic_20210919_logNormShiftAmp_detection_fixFreq,2020.1.2,MacIntel,60,,,,,,,,,,,,,,,,,,,,,,,,,,,,,,1,6.0137,,0,0,38,38,36,1,stimuli/stim_20210919_power2amp/equal_lnn_AM2Hz_s35_50.m4a,,,,,,,,,,,,
,,,,,41498,2021-10-02_13h32.34.294,judgeSpeechMusic_20210919_logNormShiftAmp_detection_fixFreq,2020.1.2,MacIntel,60,,,,,,,,,,,,,,,,,,,,,,,,,,,,,,1,5.9055,,0,0,39,39,62,1,stimuli/stim_20210919_power2amp/equal_lnn_AM2Hz_s55_12.m4a,,,,,,,,,,,,
,,,,,41498,2021-10-02_13h32.34.294,judgeSpeechMusic_20210919_logNormShiftAmp_detection_fixFreq,2020.1.2,MacIntel,60,,,,,,,,,,,,,,,,,,,,,,,,,,,,,,1,6.4401,3,1,0,40,40,56,1,stimuli/stim_20210919_power2amp/equal_lnn_AM2Hz_s45_2.m4a,1.009,,,,,,,,,,,
,,,,,41498,2021-10-02_13h32.34.294,judgeSpeechMusic_20210919_logNormShiftAmp_detection_fixFreq,2020.1.2,MacIntel,60,,,,,,,,,,,,,,,,,,,,,,,,,,,,,,2,6.5453,,0,0,41,41,73,1,stimuli/stim_20210919_power2amp/equal_lnn_AM2Hz_s55_18.m4a,,,,,,,,,,,,
,,,,,41498,2021-10-02_13h32.34.294,judgeSpeechMusic_20210919_logNormShiftAmp_detection_fixFreq,2020.1.2,MacIntel,60,,,,,,,,,,,,,,,,,,,,,,,,,,,,,,2,5.5389,,0,0,42,42,12,1,stimuli/stim_20210919_power2amp/equal_lnn_AM2Hz_s15_8.m4a,,,,,,,,,,,,
,,,,,41498,2021-10-02_13h32.34.294,judgeSpeechMusic_20210919_logNormShiftAmp_detection_fixFreq,2020.1.2,MacIntel,60,,,,,,,,,,,,,,,,,,,,,,,,,,,,,,2,5.3423,,0,0,43,43,3,1,stimuli/stim_20210919_power2amp/equal_lnn_AM2Hz_s15_20.m4a,,,,,,,,,,,,
,,,,,41498,2021-10-02_13h32.34.294,judgeSpeechMusic_20210919_logNormShiftAmp_detection_fixFreq,2020.1.2,MacIntel,60,,,,,,,,,,,,,,,,,,,,,,,,,,,,,,2,5.4585,,0,0,44,44,6,1,stimuli/stim_20210919_power2amp/equal_lnn_AM2Hz_s15_21.m4a,,,,,,,,,,,,
,,,,,41498,2021-10-02_13h32.34.294,judgeSpeechMusic_20210919_logNormShiftAmp_detection_fixFreq,2020.1.2,MacIntel,60,,,,,,,,,,,,,,,,,,,,,,,,,,,,,,2,5.6642,,0,0,45,45,9,1,stimuli/stim_20210919_power2amp/equal_lnn_AM2Hz_s15_12.m4a,,,,,,,,,,,,
,,,,,41498,2021-10-02_13h32.34.294,judgeSpeechMusic_20210919_logNormShiftAmp_detection_fixFreq,2020.1.2,MacIntel,60,,,,,,,,,,,,,,,,,,,,,,,,,,,,,,2,5.5877,,0,0,46,46,42,1,stimuli/stim_20210919_power2amp/equal_lnn_AM2Hz_s35_38.m4a,,,,,,,,,,,,
,,,,,41498,2021-10-02_13h32.34.294,judgeSpeechMusic_20210919_logNormShiftAmp_detection_fixFreq,2020.1.2,MacIntel,60,,,,,,,,,,,,,,,,,,,,,,,,,,,,,,2,5.6123,,0,0,47,47,65,1,stimuli/stim_20210919_power2amp/equal_lnn_AM2Hz_s55_43.m4a,,,,,,,,,,,,
,,,,,41498,2021-10-02_13h32.34.294,judgeSpeechMusic_20210919_logNormShiftAmp_detection_fixFreq,2020.1.2,MacIntel,60,,,,,,,,,,,,,,,,,,,,,,,,,,,,,,2,5.8542,,0,0,48,48,5,1,stimuli/stim_20210919_power2amp/equal_lnn_AM2Hz_s15_7.m4a,,,,,,,,,,,,
,,,,,41498,2021-10-02_13h32.34.294,judgeSpeechMusic_20210919_logNormShiftAmp_detection_fixFreq,2020.1.2,MacIntel,60,,,,,,,,,,,,,,,,,,,,,,,,,,,,,,2,5.8112,,0,0,49,49,14,1,stimuli/stim_20210919_power2amp/equal_lnn_AM2Hz_s15_10.m4a,,,,,,,,,,,,
,,,,,41498,2021-10-02_13h32.34.294,judgeSpeechMusic_20210919_logNormShiftAmp_detection_fixFreq,2020.1.2,MacIntel,60,,,,,,,,,,,,,,,,,,,,,,,,,,,,,,2,7.1288,,0,0,50,50,28,1,stimuli/stim_20210919_power2amp/equal_lnn_AM2Hz_s25_2.m4a,,,,,,,,,,,,
,,,,,41498,2021-10-02_13h32.34.294,judgeSpeechMusic_20210919_logNormShiftAmp_detection_fixFreq,2020.1.2,MacIntel,60,,,,,,,,,,,,,,,,,,,,,,,,,,,,,,2,5.5793,,0,0,51,51,27,1,stimuli/stim_20210919_power2amp/equal_lnn_AM2Hz_s25_29.m4a,,,,,,,,,,,,
,,,,,41498,2021-10-02_13h32.34.294,judgeSpeechMusic_20210919_logNormShiftAmp_detection_fixFreq,2020.1.2,MacIntel,60,,,,,,,,,,,,,,,,,,,,,,,,,,,,,,2,5.5218,,0,0,52,52,72,1,stimuli/stim_20210919_power2amp/equal_lnn_AM2Hz_s55_36.m4a,,,,,,,,,,,,
,,,,,41498,2021-10-02_13h32.34.294,judgeSpeechMusic_20210919_logNormShiftAmp_detection_fixFreq,2020.1.2,MacIntel,60,,,,,,,,,,,,,,,,,,,,,,,,,,,,,,2,5.5035,,0,0,53,53,13,1,stimuli/stim_20210919_power2amp/equal_lnn_AM2Hz_s15_33.m4a,,,,,,,,,,,,
,,,,,41498,2021-10-02_13h32.34.294,judgeSpeechMusic_20210919_logNormShiftAmp_detection_fixFreq,2020.1.2,MacIntel,60,,,,,,,,,,,,,,,,,,,,,,,,,,,,,,2,5.9762,,0,0,54,54,20,1,stimuli/stim_20210919_power2amp/equal_lnn_AM2Hz_s25_7.m4a,,,,,,,,,,,,
,,,,,41498,2021-10-02_13h32.34.294,judgeSpeechMusic_20210919_logNormShiftAmp_detection_fixFreq,2020.1.2,MacIntel,60,,,,,,,,,,,,,,,,,,,,,,,,,,,,,,2,5.588,,0,0,55,55,74,1,stimuli/stim_20210919_power2amp/equal_lnn_AM2Hz_s55_47.m4a,,,,,,,,,,,,
,,,,,41498,2021-10-02_13h32.34.294,judgeSpeechMusic_20210919_logNormShiftAmp_detection_fixFreq,2020.1.2,MacIntel,60,,,,,,,,,,,,,,,,,,,,,,,,,,,,,,2,5.7297,,0,0,56,56,4,1,stimuli/stim_20210919_power2amp/equal_lnn_AM2Hz_s15_30.m4a,,,,,,,,,,,,
,,,,,41498,2021-10-02_13h32.34.294,judgeSpeechMusic_20210919_logNormShiftAmp_detection_fixFreq,2020.1.2,MacIntel,60,,,,,,,,,,,,,,,,,,,,,,,,,,,,,,2,5.6558,,0,0,57,57,52,1,stimuli/stim_20210919_power2amp/equal_lnn_AM2Hz_s45_6.m4a,,,,,,,,,,,,
,,,,,41498,2021-10-02_13h32.34.294,judgeSpeechMusic_20210919_logNormShiftAmp_detection_fixFreq,2020.1.2,MacIntel,60,,,,,,,,,,,,,,,,,,,,,,,,,,,,,,1,6.0044,2,1,0,58,58,7,1,stimuli/stim_20210919_power2amp/equal_lnn_AM2Hz_s15_25.m4a,1.2248,,,,,,,,,,,
,,,,,41498,2021-10-02_13h32.34.294,judgeSpeechMusic_20210919_logNormShiftAmp_detection_fixFreq,2020.1.2,MacIntel,60,,,,,,,,,,,,,,,,,,,,,,,,,,,,,,1,5.397,,0,0,59,59,18,1,stimuli/stim_20210919_power2amp/equal_lnn_AM2Hz_s25_18.m4a,,,,,,,,,,,,
,,,,,41498,2021-10-02_13h32.34.294,judgeSpeechMusic_20210919_logNormShiftAmp_detection_fixFreq,2020.1.2,MacIntel,60,,,,,,,,,,,,,,,,,,,,,,,,,,,,,,1,5.5449,,0,0,60,60,47,1,stimuli/stim_20210919_power2amp/equal_lnn_AM2Hz_s45_50.m4a,,,,,,,,,,,,
,,,,,41498,2021-10-02_13h32.34.294,judgeSpeechMusic_20210919_logNormShiftAmp_detection_fixFreq,2020.1.2,MacIntel,60,,,,,,,,,,,,,,,,,,,,,,,,,,,,,,1,5.6127,,0,0,61,61,37,1,stimuli/stim_20210919_power2amp/equal_lnn_AM2Hz_s35_48.m4a,,,,,,,,,,,,
,,,,,41498,2021-10-02_13h32.34.294,judgeSpeechMusic_20210919_logNormShiftAmp_detection_fixFreq,2020.1.2,MacIntel,60,,,,,,,,,,,,,,,,,,,,,,,,,,,,,,1,5.5542,,0,0,62,62,64,1,stimuli/stim_20210919_power2amp/equal_lnn_AM2Hz_s55_11.m4a,,,,,,,,,,,,
,,,,,41498,2021-10-02_13h32.34.294,judgeSpeechMusic_20210919_logNormShiftAmp_detection_fixFreq,2020.1.2,MacIntel,60,,,,,,,,,,,,,,,,,,,,,,,,,,,,,,1,5.8119,,0,0,63,63,44,1,stimuli/stim_20210919_power2amp/equal_lnn_AM2Hz_s35_4.m4a,,,,,,,,,,,,
,,,,,41498,2021-10-02_13h32.34.294,judgeSpeechMusic_20210919_logNormShiftAmp_detection_fixFreq,2020.1.2,MacIntel,60,,,,,,,,,,,,,,,,,,,,,,,,,,,,,,1,5.613,,0,0,64,64,50,1,stimuli/stim_20210919_power2amp/equal_lnn_AM2Hz_s45_29.m4a,,,,,,,,,,,,
,,,,,41498,2021-10-02_13h32.34.294,judgeSpeechMusic_20210919_logNormShiftAmp_detection_fixFreq,2020.1.2,MacIntel,60,,,,,,,,,,,,,,,,,,,,,,,,,,,,,,1,5.7742,,0,0,65,65,8,1,stimuli/stim_20210919_power2amp/equal_lnn_AM2Hz_s15_18.m4a,,,,,,,,,,,,
,,,,,41498,2021-10-02_13h32.34.294,judgeSpeechMusic_20210919_logNormShiftAmp_detection_fixFreq,2020.1.2,MacIntel,60,,,,,,,,,,,,,,,,,,,,,,,,,,,,,,1,5.7552,,0,0,66,66,66,1,stimuli/stim_20210919_power2amp/equal_lnn_AM2Hz_s55_34.m4a,,,,,,,,,,,,
,,,,,41498,2021-10-02_13h32.34.294,judgeSpeechMusic_20210919_logNormShiftAmp_detection_fixFreq,2020.1.2,MacIntel,60,,,,,,,,,,,,,,,,,,,,,,,,,,,,,,1,5.5419,,0,0,67,67,68,1,stimuli/stim_20210919_power2amp/equal_lnn_AM2Hz_s55_2.m4a,,,,,,,,,,,,
,,,,,41498,2021-10-02_13h32.34.294,judgeSpeechMusic_20210919_logNormShiftAmp_detection_fixFreq,2020.1.2,MacIntel,60,,,,,,,,,,,,,,,,,,,,,,,,,,,,,,2,7.754,,0,0,68,68,71,1,stimuli/stim_20210919_power2amp/equal_lnn_AM2Hz_s55_4.m4a,,,,,,,,,,,,
,,,,,41498,2021-10-02_13h32.34.294,judgeSpeechMusic_20210919_logNormShiftAmp_detection_fixFreq,2020.1.2,MacIntel,60,,,,,,,,,,,,,,,,,,,,,,,,,,,,,,2,5.6384,,0,0,69,69,46,1,stimuli/stim_20210919_power2amp/equal_lnn_AM2Hz_s45_12.m4a,,,,,,,,,,,,
,,,,,41498,2021-10-02_13h32.34.294,judgeSpeechMusic_20210919_logNormShiftAmp_detection_fixFreq,2020.1.2,MacIntel,60,,,,,,,,,,,,,,,,,,,,,,,,,,,,,,2,5.8406,,0,0,70,70,63,1,stimuli/stim_20210919_power2amp/equal_lnn_AM2Hz_s55_1.m4a,,,,,,,,,,,,
,,,,,41498,2021-10-02_13h32.34.294,judgeSpeechMusic_20210919_logNormShiftAmp_detection_fixFreq,2020.1.2,MacIntel,60,,,,,,,,,,,,,,,,,,,,,,,,,,,,,,2,5.6628,,0,0,71,71,61,1,stimuli/stim_20210919_power2amp/equal_lnn_AM2Hz_s55_37.m4a,,,,,,,,,,,,
,,,,,41498,2021-10-02_13h32.34.294,judgeSpeechMusic_20210919_logNormShiftAmp_detection_fixFreq,2020.1.2,MacIntel,60,,,,,,,,,,,,,,,,,,,,,,,,,,,,,,2,5.3963,,0,0,72,72,57,1,stimuli/stim_20210919_power2amp/equal_lnn_AM2Hz_s45_5.m4a,,,,,,,,,,,,
,,,,,41498,2021-10-02_13h32.34.294,judgeSpeechMusic_20210919_logNormShiftAmp_detection_fixFreq,2020.1.2,MacIntel,60,,,,,,,,,,,,,,,,,,,,,,,,,,,,,,2,5.4782,,0,0,73,73,10,1,stimuli/stim_20210919_power2amp/equal_lnn_AM2Hz_s15_17.m4a,,,,,,,,,,,,
,,,,,41498,2021-10-02_13h32.34.294,judgeSpeechMusic_20210919_logNormShiftAmp_detection_fixFreq,2020.1.2,MacIntel,60,,,,,,,,,,,,,,,,,,,,,,,,,,,,,,2,5.6145,,0,0,74,74,25,1,stimuli/stim_20210919_power2amp/equal_lnn_AM2Hz_s25_16.m4a,,,,,,,,,,,,
,,,,,41498,2021-10-02_13h32.34.294,judgeSpeechMusic_20210919_logNormShiftAmp_detection_fixFreq,2020.1.2,MacIntel,60,,,,,,,,,,,,,,,,,,,,,,,,,,,,,,,,,,,,,,,,,space,0.6443,0,1,1,0,1,MUSIC,stimuli/MUSIC.jpg,,
,,,,,41498,2021-10-02_13h32.34.294,judgeSpeechMusic_20210919_logNormShiftAmp_detection_fixFreq,2020.1.2,MacIntel,60,,,,,,,,,,,,,,,,,,0,0,0,0,1,1,stimuli/stim_20210919_power2amp/equal_lnn_AM_training2Hz_s30.m4a,,,,,,,,,,,,,,,,,,,,,,,,,,,
,,,,,41498,2021-10-02_13h32.34.294,judgeSpeechMusic_20210919_logNormShiftAmp_detection_fixFreq,2020.1.2,MacIntel,60,,,,,,,,,,,,,,,,,,,,,,,,,,space,5.8624,space,0.3319,2,6.3076,,0,0,0,0,9,1,stimuli/stim_20210919_power2amp/equal_lnn_AM2Hz_s15_12.m4a,,,,,,,,,,,,
,,,,,41498,2021-10-02_13h32.34.294,judgeSpeechMusic_20210919_logNormShiftAmp_detection_fixFreq,2020.1.2,MacIntel,60,,,,,,,,,,,,,,,,,,,,,,,,,,,,,,2,5.5786,,0,0,1,1,49,1,stimuli/stim_20210919_power2amp/equal_lnn_AM2Hz_s45_11.m4a,,,,,,,,,,,,
,,,,,41498,2021-10-02_13h32.34.294,judgeSpeechMusic_20210919_logNormShiftAmp_detection_fixFreq,2020.1.2,MacIntel,60,,,,,,,,,,,,,,,,,,,,,,,,,,,,,,2,5.3205,,0,0,2,2,13,1,stimuli/stim_20210919_power2amp/equal_lnn_AM2Hz_s15_33.m4a,,,,,,,,,,,,
,,,,,41498,2021-10-02_13h32.34.294,judgeSpeechMusic_20210919_logNormShiftAmp_detection_fixFreq,2020.1.2,MacIntel,60,,,,,,,,,,,,,,,,,,,,,,,,,,,,,,2,5.5561,,0,0,3,3,53,1,stimuli/stim_20210919_power2amp/equal_lnn_AM2Hz_s45_30.m4a,,,,,,,,,,,,
,,,,,41498,2021-10-02_13h32.34.294,judgeSpeechMusic_20210919_logNormShiftAmp_detection_fixFreq,2020.1.2,MacIntel,60,,,,,,,,,,,,,,,,,,,,,,,,,,,,,,2,6.2299,,0,0,4,4,28,1,stimuli/stim_20210919_power2amp/equal_lnn_AM2Hz_s25_2.m4a,,,,,,,,,,,,
,,,,,41498,2021-10-02_13h32.34.294,judgeSpeechMusic_20210919_logNormShiftAmp_detection_fixFreq,2020.1.2,MacIntel,60,,,,,,,,,,,,,,,,,,,,,,,,,,,,,,2,6.162,,0,0,5,5,14,1,stimuli/stim_20210919_power2amp/equal_lnn_AM2Hz_s15_10.m4a,,,,,,,,,,,,
,,,,,41498,2021-10-02_13h32.34.294,judgeSpeechMusic_20210919_logNormShiftAmp_detection_fixFreq,2020.1.2,MacIntel,60,,,,,,,,,,,,,,,,,,,,,,,,,,,,,,2,5.6884,,0,0,6,6,45,1,stimuli/stim_20210919_power2amp/equal_lnn_AM2Hz_s45_4.m4a,,,,,,,,,,,,
,,,,,41498,2021-10-02_13h32.34.294,judgeSpeechMusic_20210919_logNormShiftAmp_detection_fixFreq,2020.1.2,MacIntel,60,,,,,,,,,,,,,,,,,,,,,,,,,,,,,,2,6.8863,,0,0,7,7,40,1,stimuli/stim_20210919_power2amp/equal_lnn_AM2Hz_s35_47.m4a,,,,,,,,,,,,
,,,,,41498,2021-10-02_13h32.34.294,judgeSpeechMusic_20210919_logNormShiftAmp_detection_fixFreq,2020.1.2,MacIntel,60,,,,,,,,,,,,,,,,,,,,,,,,,,,,,,2,5.6365,,0,0,8,8,39,1,stimuli/stim_20210919_power2amp/equal_lnn_AM2Hz_s35_1.m4a,,,,,,,,,,,,
,,,,,41498,2021-10-02_13h32.34.294,judgeSpeechMusic_20210919_logNormShiftAmp_detection_fixFreq,2020.1.2,MacIntel,60,,,,,,,,,,,,,,,,,,,,,,,,,,,,,,1,6.3629,,0,0,9,9,70,1,stimuli/stim_20210919_power2amp/equal_lnn_AM2Hz_s55_6.m4a,,,,,,,,,,,,
,,,,,41498,2021-10-02_13h32.34.294,judgeSpeechMusic_20210919_logNormShiftAmp_detection_fixFreq,2020.1.2,MacIntel,60,,,,,,,,,,,,,,,,,,,,,,,,,,,,,,1,5.3148,,0,0,10,10,41,1,stimuli/stim_20210919_power2amp/equal_lnn_AM2Hz_s35_10.m4a,,,,,,,,,,,,
,,,,,41498,2021-10-02_13h32.34.294,judgeSpeechMusic_20210919_logNormShiftAmp_detection_fixFreq,2020.1.2,MacIntel,60,,,,,,,,,,,,,,,,,,,,,,,,,,,,,,1,5.6226,,0,0,11,11,25,1,stimuli/stim_20210919_power2amp/equal_lnn_AM2Hz_s25_16.m4a,,,,,,,,,,,,
,,,,,41498,2021-10-02_13h32.34.294,judgeSpeechMusic_20210919_logNormShiftAmp_detection_fixFreq,2020.1.2,MacIntel,60,,,,,,,,,,,,,,,,,,,,,,,,,,,,,,1,5.5722,,0,0,12,12,52,1,stimuli/stim_20210919_power2amp/equal_lnn_AM2Hz_s45_6.m4a,,,,,,,,,,,,
,,,,,41498,2021-10-02_13h32.34.294,judgeSpeechMusic_20210919_logNormShiftAmp_detection_fixFreq,2020.1.2,MacIntel,60,,,,,,,,,,,,,,,,,,,,,,,,,,,,,,1,5.3712,,0,0,13,13,29,1,stimuli/stim_20210919_power2amp/equal_lnn_AM2Hz_s25_21.m4a,,,,,,,,,,,,
,,,,,41498,2021-10-02_13h32.34.294,judgeSpeechMusic_20210919_logNormShiftAmp_detection_fixFreq,2020.1.2,MacIntel,60,,,,,,,,,,,,,,,,,,,,,,,,,,,,,,1,8.0868,,0,0,14,14,57,1,stimuli/stim_20210919_power2amp/equal_lnn_AM2Hz_s45_5.m4a,,,,,,,,,,,,
,,,,,41498,2021-10-02_13h32.34.294,judgeSpeechMusic_20210919_logNormShiftAmp_detection_fixFreq,2020.1.2,MacIntel,60,,,,,,,,,,,,,,,,,,,,,,,,,,,,,,1,7.0215,,0,0,15,15,56,1,stimuli/stim_20210919_power2amp/equal_lnn_AM2Hz_s45_2.m4a,,,,,,,,,,,,
,,,,,41498,2021-10-02_13h32.34.294,judgeSpeechMusic_20210919_logNormShiftAmp_detection_fixFreq,2020.1.2,MacIntel,60,,,,,,,,,,,,,,,,,,,,,,,,,,,,,,1,5.6706,,0,0,16,16,31,1,stimuli/stim_20210919_power2amp/equal_lnn_AM2Hz_s35_8.m4a,,,,,,,,,,,,
,,,,,41498,2021-10-02_13h32.34.294,judgeSpeechMusic_20210919_logNormShiftAmp_detection_fixFreq,2020.1.2,MacIntel,60,,,,,,,,,,,,,,,,,,,,,,,,,,,,,,1,7.8551,,0,0,17,17,55,1,stimuli/stim_20210919_power2amp/equal_lnn_AM2Hz_s45_46.m4a,,,,,,,,,,,,
,,,,,41498,2021-10-02_13h32.34.294,judgeSpeechMusic_20210919_logNormShiftAmp_detection_fixFreq,2020.1.2,MacIntel,60,,,,,,,,,,,,,,,,,,,,,,,,,,,,,,1,8.3227,,0,0,18,18,26,1,stimuli/stim_20210919_power2amp/equal_lnn_AM2Hz_s25_11.m4a,,,,,,,,,,,,
,,,,,41498,2021-10-02_13h32.34.294,judgeSpeechMusic_20210919_logNormShiftAmp_detection_fixFreq,2020.1.2,MacIntel,60,,,,,,,,,,,,,,,,,,,,,,,,,,,,,,1,5.9122,,0,0,19,19,15,1,stimuli/stim_20210919_power2amp/equal_lnn_AM2Hz_s25_23.m4a,,,,,,,,,,,,
,,,,,41498,2021-10-02_13h32.34.294,judgeSpeechMusic_20210919_logNormShiftAmp_detection_fixFreq,2020.1.2,MacIntel,60,,,,,,,,,,,,,,,,,,,,,,,,,,,,,,1,7.055,,0,0,20,20,51,1,stimuli/stim_20210919_power2amp/equal_lnn_AM2Hz_s45_35.m4a,,,,,,,,,,,,
,,,,,41498,2021-10-02_13h32.34.294,judgeSpeechMusic_20210919_logNormShiftAmp_detection_fixFreq,2020.1.2,MacIntel,60,,,,,,,,,,,,,,,,,,,,,,,,,,,,,,1,7.2768,3,1,0,21,21,17,1,stimuli/stim_20210919_power2amp/equal_lnn_AM2Hz_s25_3.m4a,0.7753,,,,,,,,,,,
,,,,,41498,2021-10-02_13h32.34.294,judgeSpeechMusic_20210919_logNormShiftAmp_detection_fixFreq,2020.1.2,MacIntel,60,,,,,,,,,,,,,,,,,,,,,,,,,,,,,,1,5.7634,,0,0,22,22,69,1,stimuli/stim_20210919_power2amp/equal_lnn_AM2Hz_s55_41.m4a,,,,,,,,,,,,
,,,,,41498,2021-10-02_13h32.34.294,judgeSpeechMusic_20210919_logNormShiftAmp_detection_fixFreq,2020.1.2,MacIntel,60,,,,,,,,,,,,,,,,,,,,,,,,,,,,,,1,5.7409,,0,0,23,23,3,1,stimuli/stim_20210919_power2amp/equal_lnn_AM2Hz_s15_20.m4a,,,,,,,,,,,,
,,,,,41498,2021-10-02_13h32.34.294,judgeSpeechMusic_20210919_logNormShiftAmp_detection_fixFreq,2020.1.2,MacIntel,60,,,,,,,,,,,,,,,,,,,,,,,,,,,,,,1,5.5245,,0,0,24,24,74,1,stimuli/stim_20210919_power2amp/equal_lnn_AM2Hz_s55_47.m4a,,,,,,,,,,,,
,,,,,41498,2021-10-02_13h32.34.294,judgeSpeechMusic_20210919_logNormShiftAmp_detection_fixFreq,2020.1.2,MacIntel,60,,,,,,,,,,,,,,,,,,,,,,,,,,,,,,1,5.689,,0,0,25,25,48,1,stimuli/stim_20210919_power2amp/equal_lnn_AM2Hz_s45_7.m4a,,,,,,,,,,,,
,,,,,41498,2021-10-02_13h32.34.294,judgeSpeechMusic_20210919_logNormShiftAmp_detection_fixFreq,2020.1.2,MacIntel,60,,,,,,,,,,,,,,,,,,,,,,,,,,,,,,2,5.8372,,0,0,26,26,34,1,stimuli/stim_20210919_power2amp/equal_lnn_AM2Hz_s35_46.m4a,,,,,,,,,,,,
,,,,,41498,2021-10-02_13h32.34.294,judgeSpeechMusic_20210919_logNormShiftAmp_detection_fixFreq,2020.1.2,MacIntel,60,,,,,,,,,,,,,,,,,,,,,,,,,,,,,,2,5.6878,,0,0,27,27,0,1,stimuli/stim_20210919_power2amp/equal_lnn_AM2Hz_s15_39.m4a,,,,,,,,,,,,
,,,,,41498,2021-10-02_13h32.34.294,judgeSpeechMusic_20210919_logNormShiftAmp_detection_fixFreq,2020.1.2,MacIntel,60,,,,,,,,,,,,,,,,,,,,,,,,,,,,,,2,5.94,,0,0,28,28,71,1,stimuli/stim_20210919_power2amp/equal_lnn_AM2Hz_s55_4.m4a,,,,,,,,,,,,
,,,,,41498,2021-10-02_13h32.34.294,judgeSpeechMusic_20210919_logNormShiftAmp_detection_fixFreq,2020.1.2,MacIntel,60,,,,,,,,,,,,,,,,,,,,,,,,,,,,,,2,5.8287,,0,0,29,29,50,1,stimuli/stim_20210919_power2amp/equal_lnn_AM2Hz_s45_29.m4a,,,,,,,,,,,,
,,,,,41498,2021-10-02_13h32.34.294,judgeSpeechMusic_20210919_logNormShiftAmp_detection_fixFreq,2020.1.2,MacIntel,60,,,,,,,,,,,,,,,,,,,,,,,,,,,,,,2,5.6055,,0,0,30,30,18,1,stimuli/stim_20210919_power2amp/equal_lnn_AM2Hz_s25_18.m4a,,,,,,,,,,,,
,,,,,41498,2021-10-02_13h32.34.294,judgeSpeechMusic_20210919_logNormShiftAmp_detection_fixFreq,2020.1.2,MacIntel,60,,,,,,,,,,,,,,,,,,,,,,,,,,,,,,2,5.4916,,0,0,31,31,20,1,stimuli/stim_20210919_power2amp/equal_lnn_AM2Hz_s25_7.m4a,,,,,,,,,,,,
,,,,,41498,2021-10-02_13h32.34.294,judgeSpeechMusic_20210919_logNormShiftAmp_detection_fixFreq,2020.1.2,MacIntel,60,,,,,,,,,,,,,,,,,,,,,,,,,,,,,,2,5.7424,,0,0,32,32,22,1,stimuli/stim_20210919_power2amp/equal_lnn_AM2Hz_s25_13.m4a,,,,,,,,,,,,
,,,,,41498,2021-10-02_13h32.34.294,judgeSpeechMusic_20210919_logNormShiftAmp_detection_fixFreq,2020.1.2,MacIntel,60,,,,,,,,,,,,,,,,,,,,,,,,,,,,,,1,5.9119,,0,0,33,33,73,1,stimuli/stim_20210919_power2amp/equal_lnn_AM2Hz_s55_18.m4a,,,,,,,,,,,,
,,,,,41498,2021-10-02_13h32.34.294,judgeSpeechMusic_20210919_logNormShiftAmp_detection_fixFreq,2020.1.2,MacIntel,60,,,,,,,,,,,,,,,,,,,,,,,,,,,,,,1,5.5247,,0,0,34,34,21,1,stimuli/stim_20210919_power2amp/equal_lnn_AM2Hz_s25_15.m4a,,,,,,,,,,,,
,,,,,41498,2021-10-02_13h32.34.294,judgeSpeechMusic_20210919_logNormShiftAmp_detection_fixFreq,2020.1.2,MacIntel,60,,,,,,,,,,,,,,,,,,,,,,,,,,,,,,1,5.6954,,0,0,35,35,4,1,stimuli/stim_20210919_power2amp/equal_lnn_AM2Hz_s15_30.m4a,,,,,,,,,,,,
,,,,,41498,2021-10-02_13h32.34.294,judgeSpeechMusic_20210919_logNormShiftAmp_detection_fixFreq,2020.1.2,MacIntel,60,,,,,,,,,,,,,,,,,,,,,,,,,,,,,,1,5.505,,0,0,36,36,54,1,stimuli/stim_20210919_power2amp/equal_lnn_AM2Hz_s45_36.m4a,,,,,,,,,,,,
,,,,,41498,2021-10-02_13h32.34.294,judgeSpeechMusic_20210919_logNormShiftAmp_detection_fixFreq,2020.1.2,MacIntel,60,,,,,,,,,,,,,,,,,,,,,,,,,,,,,,1,5.9709,,0,0,37,37,8,1,stimuli/stim_20210919_power2amp/equal_lnn_AM2Hz_s15_18.m4a,,,,,,,,,,,,
,,,,,41498,2021-10-02_13h32.34.294,judgeSpeechMusic_20210919_logNormShiftAmp_detection_fixFreq,2020.1.2,MacIntel,60,,,,,,,,,,,,,,,,,,,,,,,,,,,,,,1,5.5625,,0,0,38,38,58,1,stimuli/stim_20210919_power2amp/equal_lnn_AM2Hz_s45_45.m4a,,,,,,,,,,,,
,,,,,41498,2021-10-02_13h32.34.294,judgeSpeechMusic_20210919_logNormShiftAmp_detection_fixFreq,2020.1.2,MacIntel,60,,,,,,,,,,,,,,,,,,,,,,,,,,,,,,1,5.7562,,0,0,39,39,38,1,stimuli/stim_20210919_power2amp/equal_lnn_AM2Hz_s35_9.m4a,,,,,,,,,,,,
,,,,,41498,2021-10-02_13h32.34.294,judgeSpeechMusic_20210919_logNormShiftAmp_detection_fixFreq,2020.1.2,MacIntel,60,,,,,,,,,,,,,,,,,,,,,,,,,,,,,,2,6.4793,3,1,0,40,40,65,1,stimuli/stim_20210919_power2amp/equal_lnn_AM2Hz_s55_43.m4a,0.5473,,,,,,,,,,,
,,,,,41498,2021-10-02_13h32.34.294,judgeSpeechMusic_20210919_logNormShiftAmp_detection_fixFreq,2020.1.2,MacIntel,60,,,,,,,,,,,,,,,,,,,,,,,,,,,,,,2,5.8904,,0,0,41,41,64,1,stimuli/stim_20210919_power2amp/equal_lnn_AM2Hz_s55_11.m4a,,,,,,,,,,,,
,,,,,41498,2021-10-02_13h32.34.294,judgeSpeechMusic_20210919_logNormShiftAmp_detection_fixFreq,2020.1.2,MacIntel,60,,,,,,,,,,,,,,,,,,,,,,,,,,,,,,2,5.547,,0,0,42,42,24,1,stimuli/stim_20210919_power2amp/equal_lnn_AM2Hz_s25_34.m4a,,,,,,,,,,,,
,,,,,41498,2021-10-02_13h32.34.294,judgeSpeechMusic_20210919_logNormShiftAmp_detection_fixFreq,2020.1.2,MacIntel,60,,,,,,,,,,,,,,,,,,,,,,,,,,,,,,2,5.5385,,0,0,43,43,66,1,stimuli/stim_20210919_power2amp/equal_lnn_AM2Hz_s55_34.m4a,,,,,,,,,,,,
,,,,,41498,2021-10-02_13h32.34.294,judgeSpeechMusic_20210919_logNormShiftAmp_detection_fixFreq,2020.1.2,MacIntel,60,,,,,,,,,,,,,,,,,,,,,,,,,,,,,,2,5.6064,,0,0,44,44,46,1,stimuli/stim_20210919_power2amp/equal_lnn_AM2Hz_s45_12.m4a,,,,,,,,,,,,
,,,,,41498,2021-10-02_13h32.34.294,judgeSpeechMusic_20210919_logNormShiftAmp_detection_fixFreq,2020.1.2,MacIntel,60,,,,,,,,,,,,,,,,,,,,,,,,,,,,,,2,5.6089,,0,0,45,45,68,1,stimuli/stim_20210919_power2amp/equal_lnn_AM2Hz_s55_2.m4a,,,,,,,,,,,,
,,,,,41498,2021-10-02_13h32.34.294,judgeSpeechMusic_20210919_logNormShiftAmp_detection_fixFreq,2020.1.2,MacIntel,60,,,,,,,,,,,,,,,,,,,,,,,,,,,,,,2,6.497,,0,0,46,46,16,1,stimuli/stim_20210919_power2amp/equal_lnn_AM2Hz_s25_36.m4a,,,,,,,,,,,,
,,,,,41498,2021-10-02_13h32.34.294,judgeSpeechMusic_20210919_logNormShiftAmp_detection_fixFreq,2020.1.2,MacIntel,60,,,,,,,,,,,,,,,,,,,,,,,,,,,,,,1,6.5937,,0,0,47,47,33,1,stimuli/stim_20210919_power2amp/equal_lnn_AM2Hz_s35_49.m4a,,,,,,,,,,,,
,,,,,41498,2021-10-02_13h32.34.294,judgeSpeechMusic_20210919_logNormShiftAmp_detection_fixFreq,2020.1.2,MacIntel,60,,,,,,,,,,,,,,,,,,,,,,,,,,,,,,1,7.0776,,0,0,48,48,67,1,stimuli/stim_20210919_power2amp/equal_lnn_AM2Hz_s55_8.m4a,,,,,,,,,,,,
,,,,,41498,2021-10-02_13h32.34.294,judgeSpeechMusic_20210919_logNormShiftAmp_detection_fixFreq,2020.1.2,MacIntel,60,,,,,,,,,,,,,,,,,,,,,,,,,,,,,,1,5.9954,,0,0,49,49,61,1,stimuli/stim_20210919_power2amp/equal_lnn_AM2Hz_s55_37.m4a,,,,,,,,,,,,
,,,,,41498,2021-10-02_13h32.34.294,judgeSpeechMusic_20210919_logNormShiftAmp_detection_fixFreq,2020.1.2,MacIntel,60,,,,,,,,,,,,,,,,,,,,,,,,,,,,,,2,6.1926,,0,0,50,50,12,1,stimuli/stim_20210919_power2amp/equal_lnn_AM2Hz_s15_8.m4a,,,,,,,,,,,,
,,,,,41498,2021-10-02_13h32.34.294,judgeSpeechMusic_20210919_logNormShiftAmp_detection_fixFreq,2020.1.2,MacIntel,60,,,,,,,,,,,,,,,,,,,,,,,,,,,,,,2,7.8715,,0,0,51,51,60,1,stimuli/stim_20210919_power2amp/equal_lnn_AM2Hz_s55_29.m4a,,,,,,,,,,,,
,,,,,41498,2021-10-02_13h32.34.294,judgeSpeechMusic_20210919_logNormShiftAmp_detection_fixFreq,2020.1.2,MacIntel,60,,,,,,,,,,,,,,,,,,,,,,,,,,,,,,2,6.4382,,0,0,52,52,7,1,stimuli/stim_20210919_power2amp/equal_lnn_AM2Hz_s15_25.m4a,,,,,,,,,,,,
,,,,,41498,2021-10-02_13h32.34.294,judgeSpeechMusic_20210919_logNormShiftAmp_detection_fixFreq,2020.1.2,MacIntel,60,,,,,,,,,,,,,,,,,,,,,,,,,,,,,,2,6.8715,,0,0,53,53,62,1,stimuli/stim_20210919_power2amp/equal_lnn_AM2Hz_s55_12.m4a,,,,,,,,,,,,
,,,,,41498,2021-10-02_13h32.34.294,judgeSpeechMusic_20210919_logNormShiftAmp_detection_fixFreq,2020.1.2,MacIntel,60,,,,,,,,,,,,,,,,,,,,,,,,,,,,,,2,7.1073,,0,0,54,54,47,1,stimuli/stim_20210919_power2amp/equal_lnn_AM2Hz_s45_50.m4a,,,,,,,,,,,,
,,,,,41498,2021-10-02_13h32.34.294,judgeSpeechMusic_20210919_logNormShiftAmp_detection_fixFreq,2020.1.2,MacIntel,60,,,,,,,,,,,,,,,,,,,,,,,,,,,,,,2,59.4189,,0,0,55,55,36,1,stimuli/stim_20210919_power2amp/equal_lnn_AM2Hz_s35_50.m4a,,,,,,,,,,,,
,,,,,41498,2021-10-02_13h32.34.294,judgeSpeechMusic_20210919_logNormShiftAmp_detection_fixFreq,2020.1.2,MacIntel,60,,,,,,,,,,,,,,,,,,,,,,,,,,,,,,2,7.3208,,0,0,56,56,42,1,stimuli/stim_20210919_power2amp/equal_lnn_AM2Hz_s35_38.m4a,,,,,,,,,,,,
,,,,,41498,2021-10-02_13h32.34.294,judgeSpeechMusic_20210919_logNormShiftAmp_detection_fixFreq,2020.1.2,MacIntel,60,,,,,,,,,,,,,,,,,,,,,,,,,,,,,,2,9.1054,,0,0,57,57,37,1,stimuli/stim_20210919_power2amp/equal_lnn_AM2Hz_s35_48.m4a,,,,,,,,,,,,
,,,,,41498,2021-10-02_13h32.34.294,judgeSpeechMusic_20210919_logNormShiftAmp_detection_fixFreq,2020.1.2,MacIntel,60,,,,,,,,,,,,,,,,,,,,,,,,,,,,,,2,5.8043,4,1,0,58,58,10,1,stimuli/stim_20210919_power2amp/equal_lnn_AM2Hz_s15_17.m4a,2.7929,,,,,,,,,,,
,,,,,41498,2021-10-02_13h32.34.294,judgeSpeechMusic_20210919_logNormShiftAmp_detection_fixFreq,2020.1.2,MacIntel,60,,,,,,,,,,,,,,,,,,,,,,,,,,,,,,1,6.1038,,0,0,59,59,5,1,stimuli/stim_20210919_power2amp/equal_lnn_AM2Hz_s15_7.m4a,,,,,,,,,,,,
,,,,,41498,2021-10-02_13h32.34.294,judgeSpeechMusic_20210919_logNormShiftAmp_detection_fixFreq,2020.1.2,MacIntel,60,,,,,,,,,,,,,,,,,,,,,,,,,,,,,,1,30.2878,,0,0,60,60,1,1,stimuli/stim_20210919_power2amp/equal_lnn_AM2Hz_s15_31.m4a,,,,,,,,,,,,
,,,,,41498,2021-10-02_13h32.34.294,judgeSpeechMusic_20210919_logNormShiftAmp_detection_fixFreq,2020.1.2,MacIntel,60,,,,,,,,,,,,,,,,,,,,,,,,,,,,,,1,5.6724,,0,0,61,61,6,1,stimuli/stim_20210919_power2amp/equal_lnn_AM2Hz_s15_21.m4a,,,,,,,,,,,,
,,,,,41498,2021-10-02_13h32.34.294,judgeSpeechMusic_20210919_logNormShiftAmp_detection_fixFreq,2020.1.2,MacIntel,60,,,,,,,,,,,,,,,,,,,,,,,,,,,,,,1,48.1287,,0,0,62,62,35,1,stimuli/stim_20210919_power2amp/equal_lnn_AM2Hz_s35_17.m4a,,,,,,,,,,,,
,,,,,41498,2021-10-02_13h32.34.294,judgeSpeechMusic_20210919_logNormShiftAmp_detection_fixFreq,2020.1.2,MacIntel,60,,,,,,,,,,,,,,,,,,,,,,,,,,,,,,1,6.4125,,0,0,63,63,30,1,stimuli/stim_20210919_power2amp/equal_lnn_AM2Hz_s35_18.m4a,,,,,,,,,,,,
,,,,,41498,2021-10-02_13h32.34.294,judgeSpeechMusic_20210919_logNormShiftAmp_detection_fixFreq,2020.1.2,MacIntel,60,,,,,,,,,,,,,,,,,,,,,,,,,,,,,,1,5.3453,,0,0,64,64,72,1,stimuli/stim_20210919_power2amp/equal_lnn_AM2Hz_s55_36.m4a,,,,,,,,,,,,
,,,,,41498,2021-10-02_13h32.34.294,judgeSpeechMusic_20210919_logNormShiftAmp_detection_fixFreq,2020.1.2,MacIntel,60,,,,,,,,,,,,,,,,,,,,,,,,,,,,,,1,5.8397,,0,0,65,65,32,1,stimuli/stim_20210919_power2amp/equal_lnn_AM2Hz_s35_41.m4a,,,,,,,,,,,,
,,,,,41498,2021-10-02_13h32.34.294,judgeSpeechMusic_20210919_logNormShiftAmp_detection_fixFreq,2020.1.2,MacIntel,60,,,,,,,,,,,,,,,,,,,,,,,,,,,,,,1,14.106,,0,0,66,66,27,1,stimuli/stim_20210919_power2amp/equal_lnn_AM2Hz_s25_29.m4a,,,,,,,,,,,,
,,,,,41498,2021-10-02_13h32.34.294,judgeSpeechMusic_20210919_logNormShiftAmp_detection_fixFreq,2020.1.2,MacIntel,60,,,,,,,,,,,,,,,,,,,,,,,,,,,,,,1,34.5877,,0,0,67,67,59,1,stimuli/stim_20210919_power2amp/equal_lnn_AM2Hz_s45_22.m4a,,,,,,,,,,,,
,,,,,41498,2021-10-02_13h32.34.294,judgeSpeechMusic_20210919_logNormShiftAmp_detection_fixFreq,2020.1.2,MacIntel,60,,,,,,,,,,,,,,,,,,,,,,,,,,,,,,1,5.5541,,0,0,68,68,63,1,stimuli/stim_20210919_power2amp/equal_lnn_AM2Hz_s55_1.m4a,,,,,,,,,,,,
,,,,,41498,2021-10-02_13h32.34.294,judgeSpeechMusic_20210919_logNormShiftAmp_detection_fixFreq,2020.1.2,MacIntel,60,,,,,,,,,,,,,,,,,,,,,,,,,,,,,,1,5.5955,,0,0,69,69,11,1,stimuli/stim_20210919_power2amp/equal_lnn_AM2Hz_s15_9.m4a,,,,,,,,,,,,
,,,,,41498,2021-10-02_13h32.34.294,judgeSpeechMusic_20210919_logNormShiftAmp_detection_fixFreq,2020.1.2,MacIntel,60,,,,,,,,,,,,,,,,,,,,,,,,,,,,,,1,6.0205,,0,0,70,70,44,1,stimuli/stim_20210919_power2amp/equal_lnn_AM2Hz_s35_4.m4a,,,,,,,,,,,,
,,,,,41498,2021-10-02_13h32.34.294,judgeSpeechMusic_20210919_logNormShiftAmp_detection_fixFreq,2020.1.2,MacIntel,60,,,,,,,,,,,,,,,,,,,,,,,,,,,,,,1,7.2945,,0,0,71,71,23,1,stimuli/stim_20210919_power2amp/equal_lnn_AM2Hz_s25_10.m4a,,,,,,,,,,,,
,,,,,41498,2021-10-02_13h32.34.294,judgeSpeechMusic_20210919_logNormShiftAmp_detection_fixFreq,2020.1.2,MacIntel,60,,,,,,,,,,,,,,,,,,,,,,,,,,,,,,1,7.2963,,0,0,72,72,2,1,stimuli/stim_20210919_power2amp/equal_lnn_AM2Hz_s15_26.m4a,,,,,,,,,,,,
,,,,,41498,2021-10-02_13h32.34.294,judgeSpeechMusic_20210919_logNormShiftAmp_detection_fixFreq,2020.1.2,MacIntel,60,,,,,,,,,,,,,,,,,,,,,,,,,,,,,,1,6.3978,,0,0,73,73,19,1,stimuli/stim_20210919_power2amp/equal_lnn_AM2Hz_s25_42.m4a,,,,,,,,,,,,
,,,,,41498,2021-10-02_13h32.34.294,judgeSpeechMusic_20210919_logNormShiftAmp_detection_fixFreq,2020.1.2,MacIntel,60,,,,,,,,,,,,,,,,,,,,,,,,,,,,,,1,5.7723,,0,0,74,74,43,1,stimuli/stim_20210919_power2amp/equal_lnn_AM2Hz_s35_6.m4a,,,,,,,,,,,,
,,,,,41498,2021-10-02_13h32.34.294,judgeSpeechMusic_20210919_logNormShiftAmp_detection_fixFreq,2020.1.2,MacIntel,60,,,,,,,,,,,,,,,,,,,,,,,,,,,,,,,,,,,,,,,,,space,0.9141,1,0,2,1,1,SPEECH,stimuli/SPEECH.jpg,,
,,,,,41498,2021-10-02_13h32.34.294,judgeSpeechMusic_20210919_logNormShiftAmp_detection_fixFreq,2020.1.2,MacIntel,60,,,,,,,,,,,,,,,,,,0,0,0,0,0,1,stimuli/stim_20210919_power2amp/equal_lnn_AM_training2Hz_s20.m4a,,,,,,,,,,,,,,,,,,,,,,,,,,,
,,,,,41498,2021-10-02_13h32.34.294,judgeSpeechMusic_20210919_logNormShiftAmp_detection_fixFreq,2020.1.2,MacIntel,60,,,,,,,,,,,,,,,,,,,,,,,,,,space,2.3261,space,1.3232,2,7.9717,,0,0,0,0,37,1,stimuli/stim_20210919_power2amp/equal_lnn_AM2Hz_s35_48.m4a,,,,,,,,,,,,
,,,,,41498,2021-10-02_13h32.34.294,judgeSpeechMusic_20210919_logNormShiftAmp_detection_fixFreq,2020.1.2,MacIntel,60,,,,,,,,,,,,,,,,,,,,,,,,,,,,,,2,5.894,,0,0,1,1,43,1,stimuli/stim_20210919_power2amp/equal_lnn_AM2Hz_s35_6.m4a,,,,,,,,,,,,
,,,,,41498,2021-10-02_13h32.34.294,judgeSpeechMusic_20210919_logNormShiftAmp_detection_fixFreq,2020.1.2,MacIntel,60,,,,,,,,,,,,,,,,,,,,,,,,,,,,,,2,5.4981,,0,0,2,2,4,1,stimuli/stim_20210919_power2amp/equal_lnn_AM2Hz_s15_30.m4a,,,,,,,,,,,,
,,,,,41498,2021-10-02_13h32.34.294,judgeSpeechMusic_20210919_logNormShiftAmp_detection_fixFreq,2020.1.2,MacIntel,60,,,,,,,,,,,,,,,,,,,,,,,,,,,,,,2,5.9419,,0,0,3,3,18,1,stimuli/stim_20210919_power2amp/equal_lnn_AM2Hz_s25_18.m4a,,,,,,,,,,,,
,,,,,41498,2021-10-02_13h32.34.294,judgeSpeechMusic_20210919_logNormShiftAmp_detection_fixFreq,2020.1.2,MacIntel,60,,,,,,,,,,,,,,,,,,,,,,,,,,,,,,2,5.8468,,0,0,4,4,16,1,stimuli/stim_20210919_power2amp/equal_lnn_AM2Hz_s25_36.m4a,,,,,,,,,,,,
,,,,,41498,2021-10-02_13h32.34.294,judgeSpeechMusic_20210919_logNormShiftAmp_detection_fixFreq,2020.1.2,MacIntel,60,,,,,,,,,,,,,,,,,,,,,,,,,,,,,,2,6.7232,,0,0,5,5,72,1,stimuli/stim_20210919_power2amp/equal_lnn_AM2Hz_s55_36.m4a,,,,,,,,,,,,
,,,,,41498,2021-10-02_13h32.34.294,judgeSpeechMusic_20210919_logNormShiftAmp_detection_fixFreq,2020.1.2,MacIntel,60,,,,,,,,,,,,,,,,,,,,,,,,,,,,,,2,6.1784,,0,0,6,6,1,1,stimuli/stim_20210919_power2amp/equal_lnn_AM2Hz_s15_31.m4a,,,,,,,,,,,,
,,,,,41498,2021-10-02_13h32.34.294,judgeSpeechMusic_20210919_logNormShiftAmp_detection_fixFreq,2020.1.2,MacIntel,60,,,,,,,,,,,,,,,,,,,,,,,,,,,,,,2,6.2796,,0,0,7,7,70,1,stimuli/stim_20210919_power2amp/equal_lnn_AM2Hz_s55_6.m4a,,,,,,,,,,,,
,,,,,41498,2021-10-02_13h32.34.294,judgeSpeechMusic_20210919_logNormShiftAmp_detection_fixFreq,2020.1.2,MacIntel,60,,,,,,,,,,,,,,,,,,,,,,,,,,,,,,2,8.4108,,0,0,8,8,29,1,stimuli/stim_20210919_power2amp/equal_lnn_AM2Hz_s25_21.m4a,,,,,,,,,,,,
,,,,,41498,2021-10-02_13h32.34.294,judgeSpeechMusic_20210919_logNormShiftAmp_detection_fixFreq,2020.1.2,MacIntel,60,,,,,,,,,,,,,,,,,,,,,,,,,,,,,,2,6.7215,,0,0,9,9,56,1,stimuli/stim_20210919_power2amp/equal_lnn_AM2Hz_s45_2.m4a,,,,,,,,,,,,
,,,,,41498,2021-10-02_13h32.34.294,judgeSpeechMusic_20210919_logNormShiftAmp_detection_fixFreq,2020.1.2,MacIntel,60,,,,,,,,,,,,,,,,,,,,,,,,,,,,,,2,10.9127,,0,0,10,10,5,1,stimuli/stim_20210919_power2amp/equal_lnn_AM2Hz_s15_7.m4a,,,,,,,,,,,,
,,,,,41498,2021-10-02_13h32.34.294,judgeSpeechMusic_20210919_logNormShiftAmp_detection_fixFreq,2020.1.2,MacIntel,60,,,,,,,,,,,,,,,,,,,,,,,,,,,,,,1,6.8575,,0,0,11,11,23,1,stimuli/stim_20210919_power2amp/equal_lnn_AM2Hz_s25_10.m4a,,,,,,,,,,,,
,,,,,41498,2021-10-02_13h32.34.294,judgeSpeechMusic_20210919_logNormShiftAmp_detection_fixFreq,2020.1.2,MacIntel,60,,,,,,,,,,,,,,,,,,,,,,,,,,,,,,1,5.6567,,0,0,12,12,69,1,stimuli/stim_20210919_power2amp/equal_lnn_AM2Hz_s55_41.m4a,,,,,,,,,,,,
,,,,,41498,2021-10-02_13h32.34.294,judgeSpeechMusic_20210919_logNormShiftAmp_detection_fixFreq,2020.1.2,MacIntel,60,,,,,,,,,,,,,,,,,,,,,,,,,,,,,,1,6.8373,,0,0,13,13,52,1,stimuli/stim_20210919_power2amp/equal_lnn_AM2Hz_s45_6.m4a,,,,,,,,,,,,
,,,,,41498,2021-10-02_13h32.34.294,judgeSpeechMusic_20210919_logNormShiftAmp_detection_fixFreq,2020.1.2,MacIntel,60,,,,,,,,,,,,,,,,,,,,,,,,,,,,,,1,8.2874,,0,0,14,14,38,1,stimuli/stim_20210919_power2amp/equal_lnn_AM2Hz_s35_9.m4a,,,,,,,,,,,,
,,,,,41498,2021-10-02_13h32.34.294,judgeSpeechMusic_20210919_logNormShiftAmp_detection_fixFreq,2020.1.2,MacIntel,60,,,,,,,,,,,,,,,,,,,,,,,,,,,,,,1,5.7975,,0,0,15,15,66,1,stimuli/stim_20210919_power2amp/equal_lnn_AM2Hz_s55_34.m4a,,,,,,,,,,,,
,,,,,41498,2021-10-02_13h32.34.294,judgeSpeechMusic_20210919_logNormShiftAmp_detection_fixFreq,2020.1.2,MacIntel,60,,,,,,,,,,,,,,,,,,,,,,,,,,,,,,1,5.726,,0,0,16,16,74,1,stimuli/stim_20210919_power2amp/equal_lnn_AM2Hz_s55_47.m4a,,,,,,,,,,,,
,,,,,41498,2021-10-02_13h32.34.294,judgeSpeechMusic_20210919_logNormShiftAmp_detection_fixFreq,2020.1.2,MacIntel,60,,,,,,,,,,,,,,,,,,,,,,,,,,,,,,1,7.2469,,0,0,17,17,36,1,stimuli/stim_20210919_power2amp/equal_lnn_AM2Hz_s35_50.m4a,,,,,,,,,,,,
,,,,,41498,2021-10-02_13h32.34.294,judgeSpeechMusic_20210919_logNormShiftAmp_detection_fixFreq,2020.1.2,MacIntel,60,,,,,,,,,,,,,,,,,,,,,,,,,,,,,,1,32.5919,,0,0,18,18,65,1,stimuli/stim_20210919_power2amp/equal_lnn_AM2Hz_s55_43.m4a,,,,,,,,,,,,
,,,,,41498,2021-10-02_13h32.34.294,judgeSpeechMusic_20210919_logNormShiftAmp_detection_fixFreq,2020.1.2,MacIntel,60,,,,,,,,,,,,,,,,,,,,,,,,,,,,,,1,6.7809,,0,0,19,19,39,1,stimuli/stim_20210919_power2amp/equal_lnn_AM2Hz_s35_1.m4a,,,,,,,,,,,,
,,,,,41498,2021-10-02_13h32.34.294,judgeSpeechMusic_20210919_logNormShiftAmp_detection_fixFreq,2020.1.2,MacIntel,60,,,,,,,,,,,,,,,,,,,,,,,,,,,,,,2,7.7613,,0,0,20,20,21,1,stimuli/stim_20210919_power2amp/equal_lnn_AM2Hz_s25_15.m4a,,,,,,,,,,,,
,,,,,41498,2021-10-02_13h32.34.294,judgeSpeechMusic_20210919_logNormShiftAmp_detection_fixFreq,2020.1.2,MacIntel,60,,,,,,,,,,,,,,,,,,,,,,,,,,,,,,2,5.5777,4,1,0,21,21,57,1,stimuli/stim_20210919_power2amp/equal_lnn_AM2Hz_s45_5.m4a,0.7989,,,,,,,,,,,
,,,,,41498,2021-10-02_13h32.34.294,judgeSpeechMusic_20210919_logNormShiftAmp_detection_fixFreq,2020.1.2,MacIntel,60,,,,,,,,,,,,,,,,,,,,,,,,,,,,,,1,6.4254,,0,0,22,22,0,1,stimuli/stim_20210919_power2amp/equal_lnn_AM2Hz_s15_39.m4a,,,,,,,,,,,,
,,,,,41498,2021-10-02_13h32.34.294,judgeSpeechMusic_20210919_logNormShiftAmp_detection_fixFreq,2020.1.2,MacIntel,60,,,,,,,,,,,,,,,,,,,,,,,,,,,,,,1,5.5807,,0,0,23,23,15,1,stimuli/stim_20210919_power2amp/equal_lnn_AM2Hz_s25_23.m4a,,,,,,,,,,,,
,,,,,41498,2021-10-02_13h32.34.294,judgeSpeechMusic_20210919_logNormShiftAmp_detection_fixFreq,2020.1.2,MacIntel,60,,,,,,,,,,,,,,,,,,,,,,,,,,,,,,1,5.4887,,0,0,24,24,34,1,stimuli/stim_20210919_power2amp/equal_lnn_AM2Hz_s35_46.m4a,,,,,,,,,,,,
,,,,,41498,2021-10-02_13h32.34.294,judgeSpeechMusic_20210919_logNormShiftAmp_detection_fixFreq,2020.1.2,MacIntel,60,,,,,,,,,,,,,,,,,,,,,,,,,,,,,,1,5.7888,,0,0,25,25,31,1,stimuli/stim_20210919_power2amp/equal_lnn_AM2Hz_s35_8.m4a,,,,,,,,,,,,
,,,,,41498,2021-10-02_13h32.34.294,judgeSpeechMusic_20210919_logNormShiftAmp_detection_fixFreq,2020.1.2,MacIntel,60,,,,,,,,,,,,,,,,,,,,,,,,,,,,,,1,5.6037,,0,0,26,26,40,1,stimuli/stim_20210919_power2amp/equal_lnn_AM2Hz_s35_47.m4a,,,,,,,,,,,,
,,,,,41498,2021-10-02_13h32.34.294,judgeSpeechMusic_20210919_logNormShiftAmp_detection_fixFreq,2020.1.2,MacIntel,60,,,,,,,,,,,,,,,,,,,,,,,,,,,,,,1,6.631,,0,0,27,27,2,1,stimuli/stim_20210919_power2amp/equal_lnn_AM2Hz_s15_26.m4a,,,,,,,,,,,,
,,,,,41498,2021-10-02_13h32.34.294,judgeSpeechMusic_20210919_logNormShiftAmp_detection_fixFreq,2020.1.2,MacIntel,60,,,,,,,,,,,,,,,,,,,,,,,,,,,,,,1,5.976,,0,0,28,28,6,1,stimuli/stim_20210919_power2amp/equal_lnn_AM2Hz_s15_21.m4a,,,,,,,,,,,,
,,,,,41498,2021-10-02_13h32.34.294,judgeSpeechMusic_20210919_logNormShiftAmp_detection_fixFreq,2020.1.2,MacIntel,60,,,,,,,,,,,,,,,,,,,,,,,,,,,,,,1,6.0285,,0,0,29,29,28,1,stimuli/stim_20210919_power2amp/equal_lnn_AM2Hz_s25_2.m4a,,,,,,,,,,,,
,,,,,41498,2021-10-02_13h32.34.294,judgeSpeechMusic_20210919_logNormShiftAmp_detection_fixFreq,2020.1.2,MacIntel,60,,,,,,,,,,,,,,,,,,,,,,,,,,,,,,2,6.3224,,0,0,30,30,62,1,stimuli/stim_20210919_power2amp/equal_lnn_AM2Hz_s55_12.m4a,,,,,,,,,,,,
,,,,,41498,2021-10-02_13h32.34.294,judgeSpeechMusic_20210919_logNormShiftAmp_detection_fixFreq,2020.1.2,MacIntel,60,,,,,,,,,,,,,,,,,,,,,,,,,,,,,,2,6.6209,,0,0,31,31,55,1,stimuli/stim_20210919_power2amp/equal_lnn_AM2Hz_s45_46.m4a,,,,,,,,,,,,
,,,,,41498,2021-10-02_13h32.34.294,judgeSpeechMusic_20210919_logNormShiftAmp_detection_fixFreq,2020.1.2,MacIntel,60,,,,,,,,,,,,,,,,,,,,,,,,,,,,,,2,10.7056,,0,0,32,32,7,1,stimuli/stim_20210919_power2amp/equal_lnn_AM2Hz_s15_25.m4a,,,,,,,,,,,,
,,,,,41498,2021-10-02_13h32.34.294,judgeSpeechMusic_20210919_logNormShiftAmp_detection_fixFreq,2020.1.2,MacIntel,60,,,,,,,,,,,,,,,,,,,,,,,,,,,,,,2,10.1083,,0,0,33,33,20,1,stimuli/stim_20210919_power2amp/equal_lnn_AM2Hz_s25_7.m4a,,,,,,,,,,,,
,,,,,41498,2021-10-02_13h32.34.294,judgeSpeechMusic_20210919_logNormShiftAmp_detection_fixFreq,2020.1.2,MacIntel,60,,,,,,,,,,,,,,,,,,,,,,,,,,,,,,2,7.8738,,0,0,34,34,13,1,stimuli/stim_20210919_power2amp/equal_lnn_AM2Hz_s15_33.m4a,,,,,,,,,,,,
,,,,,41498,2021-10-02_13h32.34.294,judgeSpeechMusic_20210919_logNormShiftAmp_detection_fixFreq,2020.1.2,MacIntel,60,,,,,,,,,,,,,,,,,,,,,,,,,,,,,,2,6.3611,,0,0,35,35,19,1,stimuli/stim_20210919_power2amp/equal_lnn_AM2Hz_s25_42.m4a,,,,,,,,,,,,
,,,,,41498,2021-10-02_13h32.34.294,judgeSpeechMusic_20210919_logNormShiftAmp_detection_fixFreq,2020.1.2,MacIntel,60,,,,,,,,,,,,,,,,,,,,,,,,,,,,,,1,6.6289,,0,0,36,36,44,1,stimuli/stim_20210919_power2amp/equal_lnn_AM2Hz_s35_4.m4a,,,,,,,,,,,,
,,,,,41498,2021-10-02_13h32.34.294,judgeSpeechMusic_20210919_logNormShiftAmp_detection_fixFreq,2020.1.2,MacIntel,60,,,,,,,,,,,,,,,,,,,,,,,,,,,,,,1,5.4716,,0,0,37,37,35,1,stimuli/stim_20210919_power2amp/equal_lnn_AM2Hz_s35_17.m4a,,,,,,,,,,,,
,,,,,41498,2021-10-02_13h32.34.294,judgeSpeechMusic_20210919_logNormShiftAmp_detection_fixFreq,2020.1.2,MacIntel,60,,,,,,,,,,,,,,,,,,,,,,,,,,,,,,1,6.4461,,0,0,38,38,45,1,stimuli/stim_20210919_power2amp/equal_lnn_AM2Hz_s45_4.m4a,,,,,,,,,,,,
,,,,,41498,2021-10-02_13h32.34.294,judgeSpeechMusic_20210919_logNormShiftAmp_detection_fixFreq,2020.1.2,MacIntel,60,,,,,,,,,,,,,,,,,,,,,,,,,,,,,,1,5.8245,,0,0,39,39,3,1,stimuli/stim_20210919_power2amp/equal_lnn_AM2Hz_s15_20.m4a,,,,,,,,,,,,
,,,,,41498,2021-10-02_13h32.34.294,judgeSpeechMusic_20210919_logNormShiftAmp_detection_fixFreq,2020.1.2,MacIntel,60,,,,,,,,,,,,,,,,,,,,,,,,,,,,,,2,7.2958,4,1,0,40,40,26,1,stimuli/stim_20210919_power2amp/equal_lnn_AM2Hz_s25_11.m4a,0.6801,,,,,,,,,,,
,,,,,41498,2021-10-02_13h32.34.294,judgeSpeechMusic_20210919_logNormShiftAmp_detection_fixFreq,2020.1.2,MacIntel,60,,,,,,,,,,,,,,,,,,,,,,,,,,,,,,2,5.5225,,0,0,41,41,58,1,stimuli/stim_20210919_power2amp/equal_lnn_AM2Hz_s45_45.m4a,,,,,,,,,,,,
,,,,,41498,2021-10-02_13h32.34.294,judgeSpeechMusic_20210919_logNormShiftAmp_detection_fixFreq,2020.1.2,MacIntel,60,,,,,,,,,,,,,,,,,,,,,,,,,,,,,,2,5.8037,,0,0,42,42,64,1,stimuli/stim_20210919_power2amp/equal_lnn_AM2Hz_s55_11.m4a,,,,,,,,,,,,
,,,,,41498,2021-10-02_13h32.34.294,judgeSpeechMusic_20210919_logNormShiftAmp_detection_fixFreq,2020.1.2,MacIntel,60,,,,,,,,,,,,,,,,,,,,,,,,,,,,,,2,5.6788,,0,0,43,43,53,1,stimuli/stim_20210919_power2amp/equal_lnn_AM2Hz_s45_30.m4a,,,,,,,,,,,,
,,,,,41498,2021-10-02_13h32.34.294,judgeSpeechMusic_20210919_logNormShiftAmp_detection_fixFreq,2020.1.2,MacIntel,60,,,,,,,,,,,,,,,,,,,,,,,,,,,,,,2,5.4271,,0,0,44,44,24,1,stimuli/stim_20210919_power2amp/equal_lnn_AM2Hz_s25_34.m4a,,,,,,,,,,,,
,,,,,41498,2021-10-02_13h32.34.294,judgeSpeechMusic_20210919_logNormShiftAmp_detection_fixFreq,2020.1.2,MacIntel,60,,,,,,,,,,,,,,,,,,,,,,,,,,,,,,1,6.2539,,0,0,45,45,63,1,stimuli/stim_20210919_power2amp/equal_lnn_AM2Hz_s55_1.m4a,,,,,,,,,,,,
,,,,,41498,2021-10-02_13h32.34.294,judgeSpeechMusic_20210919_logNormShiftAmp_detection_fixFreq,2020.1.2,MacIntel,60,,,,,,,,,,,,,,,,,,,,,,,,,,,,,,1,5.8381,,0,0,46,46,42,1,stimuli/stim_20210919_power2amp/equal_lnn_AM2Hz_s35_38.m4a,,,,,,,,,,,,
,,,,,41498,2021-10-02_13h32.34.294,judgeSpeechMusic_20210919_logNormShiftAmp_detection_fixFreq,2020.1.2,MacIntel,60,,,,,,,,,,,,,,,,,,,,,,,,,,,,,,1,5.6557,,0,0,47,47,14,1,stimuli/stim_20210919_power2amp/equal_lnn_AM2Hz_s15_10.m4a,,,,,,,,,,,,
,,,,,41498,2021-10-02_13h32.34.294,judgeSpeechMusic_20210919_logNormShiftAmp_detection_fixFreq,2020.1.2,MacIntel,60,,,,,,,,,,,,,,,,,,,,,,,,,,,,,,1,5.4419,,0,0,48,48,10,1,stimuli/stim_20210919_power2amp/equal_lnn_AM2Hz_s15_17.m4a,,,,,,,,,,,,
,,,,,41498,2021-10-02_13h32.34.294,judgeSpeechMusic_20210919_logNormShiftAmp_detection_fixFreq,2020.1.2,MacIntel,60,,,,,,,,,,,,,,,,,,,,,,,,,,,,,,1,5.411,,0,0,49,49,41,1,stimuli/stim_20210919_power2amp/equal_lnn_AM2Hz_s35_10.m4a,,,,,,,,,,,,
,,,,,41498,2021-10-02_13h32.34.294,judgeSpeechMusic_20210919_logNormShiftAmp_detection_fixFreq,2020.1.2,MacIntel,60,,,,,,,,,,,,,,,,,,,,,,,,,,,,,,2,5.9382,,0,0,50,50,46,1,stimuli/stim_20210919_power2amp/equal_lnn_AM2Hz_s45_12.m4a,,,,,,,,,,,,
,,,,,41498,2021-10-02_13h32.34.294,judgeSpeechMusic_20210919_logNormShiftAmp_detection_fixFreq,2020.1.2,MacIntel,60,,,,,,,,,,,,,,,,,,,,,,,,,,,,,,2,8.0838,,0,0,51,51,71,1,stimuli/stim_20210919_power2amp/equal_lnn_AM2Hz_s55_4.m4a,,,,,,,,,,,,
,,,,,41498,2021-10-02_13h32.34.294,judgeSpeechMusic_20210919_logNormShiftAmp_detection_fixFreq,2020.1.2,MacIntel,60,,,,,,,,,,,,,,,,,,,,,,,,,,,,,,2,7.4788,,0,0,52,52,59,1,stimuli/stim_20210919_power2amp/equal_lnn_AM2Hz_s45_22.m4a,,,,,,,,,,,,
,,,,,41498,2021-10-02_13h32.34.294,judgeSpeechMusic_20210919_logNormShiftAmp_detection_fixFreq,2020.1.2,MacIntel,60,,,,,,,,,,,,,,,,,,,,,,,,,,,,,,1,6.076,,0,0,53,53,11,1,stimuli/stim_20210919_power2amp/equal_lnn_AM2Hz_s15_9.m4a,,,,,,,,,,,,
,,,,,41498,2021-10-02_13h32.34.294,judgeSpeechMusic_20210919_logNormShiftAmp_detection_fixFreq,2020.1.2,MacIntel,60,,,,,,,,,,,,,,,,,,,,,,,,,,,,,,1,5.656,,0,0,54,54,33,1,stimuli/stim_20210919_power2amp/equal_lnn_AM2Hz_s35_49.m4a,,,,,,,,,,,,
,,,,,41498,2021-10-02_13h32.34.294,judgeSpeechMusic_20210919_logNormShiftAmp_detection_fixFreq,2020.1.2,MacIntel,60,,,,,,,,,,,,,,,,,,,,,,,,,,,,,,1,5.488,,0,0,55,55,30,1,stimuli/stim_20210919_power2amp/equal_lnn_AM2Hz_s35_18.m4a,,,,,,,,,,,,
,,,,,41498,2021-10-02_13h32.34.294,judgeSpeechMusic_20210919_logNormShiftAmp_detection_fixFreq,2020.1.2,MacIntel,60,,,,,,,,,,,,,,,,,,,,,,,,,,,,,,1,5.6533,,0,0,56,56,68,1,stimuli/stim_20210919_power2amp/equal_lnn_AM2Hz_s55_2.m4a,,,,,,,,,,,,
,,,,,41498,2021-10-02_13h32.34.294,judgeSpeechMusic_20210919_logNormShiftAmp_detection_fixFreq,2020.1.2,MacIntel,60,,,,,,,,,,,,,,,,,,,,,,,,,,,,,,1,5.7043,,0,0,57,57,17,1,stimuli/stim_20210919_power2amp/equal_lnn_AM2Hz_s25_3.m4a,,,,,,,,,,,,
,,,,,41498,2021-10-02_13h32.34.294,judgeSpeechMusic_20210919_logNormShiftAmp_detection_fixFreq,2020.1.2,MacIntel,60,,,,,,,,,,,,,,,,,,,,,,,,,,,,,,1,6.1603,4,1,0,58,58,25,1,stimuli/stim_20210919_power2amp/equal_lnn_AM2Hz_s25_16.m4a,4.5601,,,,,,,,,,,
,,,,,41498,2021-10-02_13h32.34.294,judgeSpeechMusic_20210919_logNormShiftAmp_detection_fixFreq,2020.1.2,MacIntel,60,,,,,,,,,,,,,,,,,,,,,,,,,,,,,,1,7.1594,,0,0,59,59,8,1,stimuli/stim_20210919_power2amp/equal_lnn_AM2Hz_s15_18.m4a,,,,,,,,,,,,
,,,,,41498,2021-10-02_13h32.34.294,judgeSpeechMusic_20210919_logNormShiftAmp_detection_fixFreq,2020.1.2,MacIntel,60,,,,,,,,,,,,,,,,,,,,,,,,,,,,,,1,5.838,,0,0,60,60,47,1,stimuli/stim_20210919_power2amp/equal_lnn_AM2Hz_s45_50.m4a,,,,,,,,,,,,
,,,,,41498,2021-10-02_13h32.34.294,judgeSpeechMusic_20210919_logNormShiftAmp_detection_fixFreq,2020.1.2,MacIntel,60,,,,,,,,,,,,,,,,,,,,,,,,,,,,,,1,5.8102,,0,0,61,61,49,1,stimuli/stim_20210919_power2amp/equal_lnn_AM2Hz_s45_11.m4a,,,,,,,,,,,,
,,,,,41498,2021-10-02_13h32.34.294,judgeSpeechMusic_20210919_logNormShiftAmp_detection_fixFreq,2020.1.2,MacIntel,60,,,,,,,,,,,,,,,,,,,,,,,,,,,,,,1,5.3489,,0,0,62,62,61,1,stimuli/stim_20210919_power2amp/equal_lnn_AM2Hz_s55_37.m4a,,,,,,,,,,,,
,,,,,41498,2021-10-02_13h32.34.294,judgeSpeechMusic_20210919_logNormShiftAmp_detection_fixFreq,2020.1.2,MacIntel,60,,,,,,,,,,,,,,,,,,,,,,,,,,,,,,1,5.5548,,0,0,63,63,67,1,stimuli/stim_20210919_power2amp/equal_lnn_AM2Hz_s55_8.m4a,,,,,,,,,,,,
,,,,,41498,2021-10-02_13h32.34.294,judgeSpeechMusic_20210919_logNormShiftAmp_detection_fixFreq,2020.1.2,MacIntel,60,,,,,,,,,,,,,,,,,,,,,,,,,,,,,,1,5.5045,,0,0,64,64,27,1,stimuli/stim_20210919_power2amp/equal_lnn_AM2Hz_s25_29.m4a,,,,,,,,,,,,
,,,,,41498,2021-10-02_13h32.34.294,judgeSpeechMusic_20210919_logNormShiftAmp_detection_fixFreq,2020.1.2,MacIntel,60,,,,,,,,,,,,,,,,,,,,,,,,,,,,,,2,6.1639,,0,0,65,65,51,1,stimuli/stim_20210919_power2amp/equal_lnn_AM2Hz_s45_35.m4a,,,,,,,,,,,,
,,,,,41498,2021-10-02_13h32.34.294,judgeSpeechMusic_20210919_logNormShiftAmp_detection_fixFreq,2020.1.2,MacIntel,60,,,,,,,,,,,,,,,,,,,,,,,,,,,,,,2,5.5552,,0,0,66,66,12,1,stimuli/stim_20210919_power2amp/equal_lnn_AM2Hz_s15_8.m4a,,,,,,,,,,,,
,,,,,41498,2021-10-02_13h32.34.294,judgeSpeechMusic_20210919_logNormShiftAmp_detection_fixFreq,2020.1.2,MacIntel,60,,,,,,,,,,,,,,,,,,,,,,,,,,,,,,2,5.4954,,0,0,67,67,60,1,stimuli/stim_20210919_power2amp/equal_lnn_AM2Hz_s55_29.m4a,,,,,,,,,,,,
,,,,,41498,2021-10-02_13h32.34.294,judgeSpeechMusic_20210919_logNormShiftAmp_detection_fixFreq,2020.1.2,MacIntel,60,,,,,,,,,,,,,,,,,,,,,,,,,,,,,,2,5.7718,,0,0,68,68,48,1,stimuli/stim_20210919_power2amp/equal_lnn_AM2Hz_s45_7.m4a,,,,,,,,,,,,
,,,,,41498,2021-10-02_13h32.34.294,judgeSpeechMusic_20210919_logNormShiftAmp_detection_fixFreq,2020.1.2,MacIntel,60,,,,,,,,,,,,,,,,,,,,,,,,,,,,,,2,5.4461,,0,0,69,69,50,1,stimuli/stim_20210919_power2amp/equal_lnn_AM2Hz_s45_29.m4a,,,,,,,,,,,,
,,,,,41498,2021-10-02_13h32.34.294,judgeSpeechMusic_20210919_logNormShiftAmp_detection_fixFreq,2020.1.2,MacIntel,60,,,,,,,,,,,,,,,,,,,,,,,,,,,,,,2,5.5704,,0,0,70,70,73,1,stimuli/stim_20210919_power2amp/equal_lnn_AM2Hz_s55_18.m4a,,,,,,,,,,,,
,,,,,41498,2021-10-02_13h32.34.294,judgeSpeechMusic_20210919_logNormShiftAmp_detection_fixFreq,2020.1.2,MacIntel,60,,,,,,,,,,,,,,,,,,,,,,,,,,,,,,2,7.0216,,0,0,71,71,22,1,stimuli/stim_20210919_power2amp/equal_lnn_AM2Hz_s25_13.m4a,,,,,,,,,,,,
,,,,,41498,2021-10-02_13h32.34.294,judgeSpeechMusic_20210919_logNormShiftAmp_detection_fixFreq,2020.1.2,MacIntel,60,,,,,,,,,,,,,,,,,,,,,,,,,,,,,,2,7.1766,,0,0,72,72,9,1,stimuli/stim_20210919_power2amp/equal_lnn_AM2Hz_s15_12.m4a,,,,,,,,,,,,
,,,,,41498,2021-10-02_13h32.34.294,judgeSpeechMusic_20210919_logNormShiftAmp_detection_fixFreq,2020.1.2,MacIntel,60,,,,,,,,,,,,,,,,,,,,,,,,,,,,,,2,5.8233,,0,0,73,73,32,1,stimuli/stim_20210919_power2amp/equal_lnn_AM2Hz_s35_41.m4a,,,,,,,,,,,,
,,,,,41498,2021-10-02_13h32.34.294,judgeSpeechMusic_20210919_logNormShiftAmp_detection_fixFreq,2020.1.2,MacIntel,60,,,,,,,,,,,,,,,,,,,,,,,,,,,,,,2,5.5865,,0,0,74,74,54,1,stimuli/stim_20210919_power2amp/equal_lnn_AM2Hz_s45_36.m4a,,,,,,,,,,,,
,,,,,41498,2021-10-02_13h32.34.294,judgeSpeechMusic_20210919_logNormShiftAmp_detection_fixFreq,2020.1.2,MacIntel,60,,,,,,,,,,,,,,,,,,,,,,,,,,,,,,,,,,,,,,,,,,,1,1,3,0,1,MUSIC,stimuli/MUSIC.jpg,,
,,,,,41498,2021-10-02_13h32.34.294,judgeSpeechMusic_20210919_logNormShiftAmp_detection_fixFreq,2020.1.2,MacIntel,60,,,,,,,,,,,,,,,,,,,,,,,,,,,,,,,,,,,,,,,,,,,,,,,,,,space,5.7086
