headphoneResponse.keys,headphoneResponse.corr,headphoneResponse.rt,headphoneTrial.thisRepN,headphoneTrial.thisTrialN,headphoneTrial.thisN,headphoneTrial.thisIndex,headphoneTrial.ran,headphone_sound1,headphone_sound2,headphone_sound3,corrAns,participant,date,expName,psychopyVersion,OS,frameRate,checkInstruKey.keys,checkInstruKey.rt,trainSlider.response,trainSlider.rt,beepTrainResponse.keys,beepTrainResponse.corr,trainingTrials.thisRepN,trainingTrials.thisTrialN,trainingTrials.thisN,trainingTrials.thisIndex,trainingTrials.ran,trainAudioFile,beepTrainResponse.rt,readyReal_resp.keys,readyReal_resp.rt,checkInstru2_key.keys,checkInstru2_key.rt,ratingSlider.response,ratingSlider.rt,beepResp.keys,beepResp.corr,expTrials.thisRepN,expTrials.thisTrialN,expTrials.thisN,expTrials.thisIndex,expTrials.ran,audioFile,beepResp.rt,switchBlock_space.keys,switchBlock_space.rt,block.thisRepN,block.thisTrialN,block.thisN,block.thisIndex,block.ran,blockName,blockImage,end_resp.keys,end_resp.rt
3,1,0.8659,0,0,0,0,1,stimuli/screen_antiphase.wav,stimuli/screen_origin.wav,stimuli/screen_quiet.wav,3,41569,2021-10-02_21h09.31.967,judgeSpeechMusic_20210919_logNormShiftAmp_detection_fixFreq,2020.1.2,MacIntel,60,,,,,,,,,,,,,,,,,,,,,,,,,,,,,,,,,,,,,,,
3,1,0.9726,0,1,1,2,1,stimuli/screen_origin.wav,stimuli/screen_antiphase.wav,stimuli/screen_quiet.wav,3,41569,2021-10-02_21h09.31.967,judgeSpeechMusic_20210919_logNormShiftAmp_detection_fixFreq,2020.1.2,MacIntel,60,,,,,,,,,,,,,,,,,,,,,,,,,,,,,,,,,,,,,,,
1,1,0.8521,0,2,2,5,1,stimuli/screen_quiet.wav,stimuli/screen_origin.wav,stimuli/screen_antiphase.wav,1,41569,2021-10-02_21h09.31.967,judgeSpeechMusic_20210919_logNormShiftAmp_detection_fixFreq,2020.1.2,MacIntel,60,,,,,,,,,,,,,,,,,,,,,,,,,,,,,,,,,,,,,,,
1,1,0.7502,0,3,3,4,1,stimuli/screen_quiet.wav,stimuli/screen_antiphase.wav,stimuli/screen_origin.wav,1,41569,2021-10-02_21h09.31.967,judgeSpeechMusic_20210919_logNormShiftAmp_detection_fixFreq,2020.1.2,MacIntel,60,,,,,,,,,,,,,,,,,,,,,,,,,,,,,,,,,,,,,,,
2,1,0.1351,0,4,4,3,1,stimuli/screen_origin.wav,stimuli/screen_quiet.wav,stimuli/screen_antiphase.wav,2,41569,2021-10-02_21h09.31.967,judgeSpeechMusic_20210919_logNormShiftAmp_detection_fixFreq,2020.1.2,MacIntel,60,,,,,,,,,,,,,,,,,,,,,,,,,,,,,,,,,,,,,,,
2,1,0.014,0,5,5,1,1,stimuli/screen_antiphase.wav,stimuli/screen_quiet.wav,stimuli/screen_origin.wav,2,41569,2021-10-02_21h09.31.967,judgeSpeechMusic_20210919_logNormShiftAmp_detection_fixFreq,2020.1.2,MacIntel,60,,,,,,,,,,,,,,,,,,,,,,,,,,,,,,,,,,,,,,,
,,,,,,,,,,,,41569,2021-10-02_21h09.31.967,judgeSpeechMusic_20210919_logNormShiftAmp_detection_fixFreq,2020.1.2,MacIntel,60,space,2.4232,2,7.7577,,0,0,0,0,0,1,stimuli/stim_20210919_power2amp/equal_lnn_AM_training2Hz_s20.m4a,,,,,,,,,,,,,,,,,,,,,,,,,,,
,,,,,,,,,,,,41569,2021-10-02_21h09.31.967,judgeSpeechMusic_20210919_logNormShiftAmp_detection_fixFreq,2020.1.2,MacIntel,60,,,1,7.8071,,0,0,1,1,1,1,stimuli/stim_20210919_power2amp/equal_lnn_AM_training2Hz_s30.m4a,,,,,,,,,,,,,,,,,,,,,,,,,,,
,,,,,,,,,,,,41569,2021-10-02_21h09.31.967,judgeSpeechMusic_20210919_logNormShiftAmp_detection_fixFreq,2020.1.2,MacIntel,60,,,1,7.3413,1,1,0,2,2,3,1,stimuli/stim_20210919_power2amp/equal_lnn_AM_training2Hz_s50.m4a,1.38,,,,,,,,,,,,,,,,,,,,,,,,,,
,,,,,,,,,,,,41569,2021-10-02_21h09.31.967,judgeSpeechMusic_20210919_logNormShiftAmp_detection_fixFreq,2020.1.2,MacIntel,60,,,1,6.2067,,0,0,3,3,2,1,stimuli/stim_20210919_power2amp/equal_lnn_AM_training2Hz_s40.m4a,,,,,,,,,,,,,,,,,,,,,,,,,,,
,,,,,,,,,,,,41569,2021-10-02_21h09.31.967,judgeSpeechMusic_20210919_logNormShiftAmp_detection_fixFreq,2020.1.2,MacIntel,60,,,,,,,,,,,,,,space,0.9439,space,0.8347,1,6.5597,,0,0,0,0,3,1,stimuli/stim_20210919_power2amp/equal_lnn_AM2Hz_s15_4.m4a,,,,,,,,,,,,
,,,,,,,,,,,,41569,2021-10-02_21h09.31.967,judgeSpeechMusic_20210919_logNormShiftAmp_detection_fixFreq,2020.1.2,MacIntel,60,,,,,,,,,,,,,,,,,,1,5.9125,,0,0,1,1,8,1,stimuli/stim_20210919_power2amp/equal_lnn_AM2Hz_s15_11.m4a,,,,,,,,,,,,
,,,,,,,,,,,,41569,2021-10-02_21h09.31.967,judgeSpeechMusic_20210919_logNormShiftAmp_detection_fixFreq,2020.1.2,MacIntel,60,,,,,,,,,,,,,,,,,,1,6.0274,,0,0,2,2,43,1,stimuli/stim_20210919_power2amp/equal_lnn_AM2Hz_s35_23.m4a,,,,,,,,,,,,
,,,,,,,,,,,,41569,2021-10-02_21h09.31.967,judgeSpeechMusic_20210919_logNormShiftAmp_detection_fixFreq,2020.1.2,MacIntel,60,,,,,,,,,,,,,,,,,,2,6.3568,,0,0,3,3,24,1,stimuli/stim_20210919_power2amp/equal_lnn_AM2Hz_s25_6.m4a,,,,,,,,,,,,
,,,,,,,,,,,,41569,2021-10-02_21h09.31.967,judgeSpeechMusic_20210919_logNormShiftAmp_detection_fixFreq,2020.1.2,MacIntel,60,,,,,,,,,,,,,,,,,,2,6.3289,,0,0,4,4,49,1,stimuli/stim_20210919_power2amp/equal_lnn_AM2Hz_s45_6.m4a,,,,,,,,,,,,
,,,,,,,,,,,,41569,2021-10-02_21h09.31.967,judgeSpeechMusic_20210919_logNormShiftAmp_detection_fixFreq,2020.1.2,MacIntel,60,,,,,,,,,,,,,,,,,,2,6.94,,0,0,5,5,58,1,stimuli/stim_20210919_power2amp/equal_lnn_AM2Hz_s45_20.m4a,,,,,,,,,,,,
,,,,,,,,,,,,41569,2021-10-02_21h09.31.967,judgeSpeechMusic_20210919_logNormShiftAmp_detection_fixFreq,2020.1.2,MacIntel,60,,,,,,,,,,,,,,,,,,1,6.1741,,0,0,6,6,0,1,stimuli/stim_20210919_power2amp/equal_lnn_AM2Hz_s15_24.m4a,,,,,,,,,,,,
,,,,,,,,,,,,41569,2021-10-02_21h09.31.967,judgeSpeechMusic_20210919_logNormShiftAmp_detection_fixFreq,2020.1.2,MacIntel,60,,,,,,,,,,,,,,,,,,2,7.6426,,0,0,7,7,72,1,stimuli/stim_20210919_power2amp/equal_lnn_AM2Hz_s55_4.m4a,,,,,,,,,,,,
,,,,,,,,,,,,41569,2021-10-02_21h09.31.967,judgeSpeechMusic_20210919_logNormShiftAmp_detection_fixFreq,2020.1.2,MacIntel,60,,,,,,,,,,,,,,,,,,1,5.6585,,0,0,8,8,28,1,stimuli/stim_20210919_power2amp/equal_lnn_AM2Hz_s25_31.m4a,,,,,,,,,,,,
,,,,,,,,,,,,41569,2021-10-02_21h09.31.967,judgeSpeechMusic_20210919_logNormShiftAmp_detection_fixFreq,2020.1.2,MacIntel,60,,,,,,,,,,,,,,,,,,2,6.3566,,0,0,9,9,50,1,stimuli/stim_20210919_power2amp/equal_lnn_AM2Hz_s45_48.m4a,,,,,,,,,,,,
,,,,,,,,,,,,41569,2021-10-02_21h09.31.967,judgeSpeechMusic_20210919_logNormShiftAmp_detection_fixFreq,2020.1.2,MacIntel,60,,,,,,,,,,,,,,,,,,2,5.8611,,0,0,10,10,25,1,stimuli/stim_20210919_power2amp/equal_lnn_AM2Hz_s25_30.m4a,,,,,,,,,,,,
,,,,,,,,,,,,41569,2021-10-02_21h09.31.967,judgeSpeechMusic_20210919_logNormShiftAmp_detection_fixFreq,2020.1.2,MacIntel,60,,,,,,,,,,,,,,,,,,1,5.9105,,0,0,11,11,42,1,stimuli/stim_20210919_power2amp/equal_lnn_AM2Hz_s35_26.m4a,,,,,,,,,,,,
,,,,,,,,,,,,41569,2021-10-02_21h09.31.967,judgeSpeechMusic_20210919_logNormShiftAmp_detection_fixFreq,2020.1.2,MacIntel,60,,,,,,,,,,,,,,,,,,1,5.6791,,0,0,12,12,73,1,stimuli/stim_20210919_power2amp/equal_lnn_AM2Hz_s55_35.m4a,,,,,,,,,,,,
,,,,,,,,,,,,41569,2021-10-02_21h09.31.967,judgeSpeechMusic_20210919_logNormShiftAmp_detection_fixFreq,2020.1.2,MacIntel,60,,,,,,,,,,,,,,,,,,1,5.8144,,0,0,13,13,51,1,stimuli/stim_20210919_power2amp/equal_lnn_AM2Hz_s45_3.m4a,,,,,,,,,,,,
,,,,,,,,,,,,41569,2021-10-02_21h09.31.967,judgeSpeechMusic_20210919_logNormShiftAmp_detection_fixFreq,2020.1.2,MacIntel,60,,,,,,,,,,,,,,,,,,1,5.9253,,0,0,14,14,71,1,stimuli/stim_20210919_power2amp/equal_lnn_AM2Hz_s55_50.m4a,,,,,,,,,,,,
,,,,,,,,,,,,41569,2021-10-02_21h09.31.967,judgeSpeechMusic_20210919_logNormShiftAmp_detection_fixFreq,2020.1.2,MacIntel,60,,,,,,,,,,,,,,,,,,1,6.9068,,0,0,15,15,69,1,stimuli/stim_20210919_power2amp/equal_lnn_AM2Hz_s55_25.m4a,,,,,,,,,,,,
,,,,,,,,,,,,41569,2021-10-02_21h09.31.967,judgeSpeechMusic_20210919_logNormShiftAmp_detection_fixFreq,2020.1.2,MacIntel,60,,,,,,,,,,,,,,,,,,1,5.724,,0,0,16,16,9,1,stimuli/stim_20210919_power2amp/equal_lnn_AM2Hz_s15_9.m4a,,,,,,,,,,,,
,,,,,,,,,,,,41569,2021-10-02_21h09.31.967,judgeSpeechMusic_20210919_logNormShiftAmp_detection_fixFreq,2020.1.2,MacIntel,60,,,,,,,,,,,,,,,,,,1,5.7731,,0,0,17,17,20,1,stimuli/stim_20210919_power2amp/equal_lnn_AM2Hz_s25_7.m4a,,,,,,,,,,,,
,,,,,,,,,,,,41569,2021-10-02_21h09.31.967,judgeSpeechMusic_20210919_logNormShiftAmp_detection_fixFreq,2020.1.2,MacIntel,60,,,,,,,,,,,,,,,,,,1,5.6553,,0,0,18,18,1,1,stimuli/stim_20210919_power2amp/equal_lnn_AM2Hz_s15_13.m4a,,,,,,,,,,,,
,,,,,,,,,,,,41569,2021-10-02_21h09.31.967,judgeSpeechMusic_20210919_logNormShiftAmp_detection_fixFreq,2020.1.2,MacIntel,60,,,,,,,,,,,,,,,,,,2,6.41,,0,0,19,19,47,1,stimuli/stim_20210919_power2amp/equal_lnn_AM2Hz_s45_22.m4a,,,,,,,,,,,,
,,,,,,,,,,,,41569,2021-10-02_21h09.31.967,judgeSpeechMusic_20210919_logNormShiftAmp_detection_fixFreq,2020.1.2,MacIntel,60,,,,,,,,,,,,,,,,,,1,7.3594,,0,0,20,20,45,1,stimuli/stim_20210919_power2amp/equal_lnn_AM2Hz_s45_37.m4a,,,,,,,,,,,,
,,,,,,,,,,,,41569,2021-10-02_21h09.31.967,judgeSpeechMusic_20210919_logNormShiftAmp_detection_fixFreq,2020.1.2,MacIntel,60,,,,,,,,,,,,,,,,,,1,5.7648,,0,0,21,21,44,1,stimuli/stim_20210919_power2amp/equal_lnn_AM2Hz_s35_4.m4a,,,,,,,,,,,,
,,,,,,,,,,,,41569,2021-10-02_21h09.31.967,judgeSpeechMusic_20210919_logNormShiftAmp_detection_fixFreq,2020.1.2,MacIntel,60,,,,,,,,,,,,,,,,,,1,7.7235,4,1,0,22,22,32,1,stimuli/stim_20210919_power2amp/equal_lnn_AM2Hz_s35_38.m4a,1.6796,,,,,,,,,,,
,,,,,,,,,,,,41569,2021-10-02_21h09.31.967,judgeSpeechMusic_20210919_logNormShiftAmp_detection_fixFreq,2020.1.2,MacIntel,60,,,,,,,,,,,,,,,,,,1,7.0419,,0,0,23,23,33,1,stimuli/stim_20210919_power2amp/equal_lnn_AM2Hz_s35_17.m4a,,,,,,,,,,,,
,,,,,,,,,,,,41569,2021-10-02_21h09.31.967,judgeSpeechMusic_20210919_logNormShiftAmp_detection_fixFreq,2020.1.2,MacIntel,60,,,,,,,,,,,,,,,,,,1,5.6273,,0,0,24,24,46,1,stimuli/stim_20210919_power2amp/equal_lnn_AM2Hz_s45_35.m4a,,,,,,,,,,,,
,,,,,,,,,,,,41569,2021-10-02_21h09.31.967,judgeSpeechMusic_20210919_logNormShiftAmp_detection_fixFreq,2020.1.2,MacIntel,60,,,,,,,,,,,,,,,,,,1,5.862,,0,0,25,25,21,1,stimuli/stim_20210919_power2amp/equal_lnn_AM2Hz_s25_45.m4a,,,,,,,,,,,,
,,,,,,,,,,,,41569,2021-10-02_21h09.31.967,judgeSpeechMusic_20210919_logNormShiftAmp_detection_fixFreq,2020.1.2,MacIntel,60,,,,,,,,,,,,,,,,,,1,5.9919,,0,0,26,26,7,1,stimuli/stim_20210919_power2amp/equal_lnn_AM2Hz_s15_28.m4a,,,,,,,,,,,,
,,,,,,,,,,,,41569,2021-10-02_21h09.31.967,judgeSpeechMusic_20210919_logNormShiftAmp_detection_fixFreq,2020.1.2,MacIntel,60,,,,,,,,,,,,,,,,,,2,6.6449,,0,0,27,27,37,1,stimuli/stim_20210919_power2amp/equal_lnn_AM2Hz_s35_29.m4a,,,,,,,,,,,,
,,,,,,,,,,,,41569,2021-10-02_21h09.31.967,judgeSpeechMusic_20210919_logNormShiftAmp_detection_fixFreq,2020.1.2,MacIntel,60,,,,,,,,,,,,,,,,,,1,6.1895,,0,0,28,28,60,1,stimuli/stim_20210919_power2amp/equal_lnn_AM2Hz_s55_11.m4a,,,,,,,,,,,,
,,,,,,,,,,,,41569,2021-10-02_21h09.31.967,judgeSpeechMusic_20210919_logNormShiftAmp_detection_fixFreq,2020.1.2,MacIntel,60,,,,,,,,,,,,,,,,,,2,6.2787,,0,0,29,29,39,1,stimuli/stim_20210919_power2amp/equal_lnn_AM2Hz_s35_41.m4a,,,,,,,,,,,,
,,,,,,,,,,,,41569,2021-10-02_21h09.31.967,judgeSpeechMusic_20210919_logNormShiftAmp_detection_fixFreq,2020.1.2,MacIntel,60,,,,,,,,,,,,,,,,,,2,5.7786,,0,0,30,30,68,1,stimuli/stim_20210919_power2amp/equal_lnn_AM2Hz_s55_48.m4a,,,,,,,,,,,,
,,,,,,,,,,,,41569,2021-10-02_21h09.31.967,judgeSpeechMusic_20210919_logNormShiftAmp_detection_fixFreq,2020.1.2,MacIntel,60,,,,,,,,,,,,,,,,,,1,5.9945,,0,0,31,31,22,1,stimuli/stim_20210919_power2amp/equal_lnn_AM2Hz_s25_24.m4a,,,,,,,,,,,,
,,,,,,,,,,,,41569,2021-10-02_21h09.31.967,judgeSpeechMusic_20210919_logNormShiftAmp_detection_fixFreq,2020.1.2,MacIntel,60,,,,,,,,,,,,,,,,,,1,6.2447,,0,0,32,32,18,1,stimuli/stim_20210919_power2amp/equal_lnn_AM2Hz_s25_12.m4a,,,,,,,,,,,,
,,,,,,,,,,,,41569,2021-10-02_21h09.31.967,judgeSpeechMusic_20210919_logNormShiftAmp_detection_fixFreq,2020.1.2,MacIntel,60,,,,,,,,,,,,,,,,,,2,6.0759,,0,0,33,33,17,1,stimuli/stim_20210919_power2amp/equal_lnn_AM2Hz_s25_44.m4a,,,,,,,,,,,,
,,,,,,,,,,,,41569,2021-10-02_21h09.31.967,judgeSpeechMusic_20210919_logNormShiftAmp_detection_fixFreq,2020.1.2,MacIntel,60,,,,,,,,,,,,,,,,,,1,6.5081,,0,0,34,34,65,1,stimuli/stim_20210919_power2amp/equal_lnn_AM2Hz_s55_37.m4a,,,,,,,,,,,,
,,,,,,,,,,,,41569,2021-10-02_21h09.31.967,judgeSpeechMusic_20210919_logNormShiftAmp_detection_fixFreq,2020.1.2,MacIntel,60,,,,,,,,,,,,,,,,,,1,5.7296,,0,0,35,35,19,1,stimuli/stim_20210919_power2amp/equal_lnn_AM2Hz_s25_25.m4a,,,,,,,,,,,,
,,,,,,,,,,,,41569,2021-10-02_21h09.31.967,judgeSpeechMusic_20210919_logNormShiftAmp_detection_fixFreq,2020.1.2,MacIntel,60,,,,,,,,,,,,,,,,,,1,5.696,,0,0,36,36,40,1,stimuli/stim_20210919_power2amp/equal_lnn_AM2Hz_s35_44.m4a,,,,,,,,,,,,
,,,,,,,,,,,,41569,2021-10-02_21h09.31.967,judgeSpeechMusic_20210919_logNormShiftAmp_detection_fixFreq,2020.1.2,MacIntel,60,,,,,,,,,,,,,,,,,,2,5.6765,,0,0,37,37,61,1,stimuli/stim_20210919_power2amp/equal_lnn_AM2Hz_s55_16.m4a,,,,,,,,,,,,
,,,,,,,,,,,,41569,2021-10-02_21h09.31.967,judgeSpeechMusic_20210919_logNormShiftAmp_detection_fixFreq,2020.1.2,MacIntel,60,,,,,,,,,,,,,,,,,,2,5.94,,0,0,38,38,5,1,stimuli/stim_20210919_power2amp/equal_lnn_AM2Hz_s15_35.m4a,,,,,,,,,,,,
,,,,,,,,,,,,41569,2021-10-02_21h09.31.967,judgeSpeechMusic_20210919_logNormShiftAmp_detection_fixFreq,2020.1.2,MacIntel,60,,,,,,,,,,,,,,,,,,2,5.6761,,0,0,39,39,74,1,stimuli/stim_20210919_power2amp/equal_lnn_AM2Hz_s55_5.m4a,,,,,,,,,,,,
,,,,,,,,,,,,41569,2021-10-02_21h09.31.967,judgeSpeechMusic_20210919_logNormShiftAmp_detection_fixFreq,2020.1.2,MacIntel,60,,,,,,,,,,,,,,,,,,2,5.6627,4,1,0,40,40,59,1,stimuli/stim_20210919_power2amp/equal_lnn_AM2Hz_s45_29.m4a,2.1296,,,,,,,,,,,
,,,,,,,,,,,,41569,2021-10-02_21h09.31.967,judgeSpeechMusic_20210919_logNormShiftAmp_detection_fixFreq,2020.1.2,MacIntel,60,,,,,,,,,,,,,,,,,,2,5.9261,,0,0,41,41,41,1,stimuli/stim_20210919_power2amp/equal_lnn_AM2Hz_s35_13.m4a,,,,,,,,,,,,
,,,,,,,,,,,,41569,2021-10-02_21h09.31.967,judgeSpeechMusic_20210919_logNormShiftAmp_detection_fixFreq,2020.1.2,MacIntel,60,,,,,,,,,,,,,,,,,,2,5.6807,,0,0,42,42,54,1,stimuli/stim_20210919_power2amp/equal_lnn_AM2Hz_s45_50.m4a,,,,,,,,,,,,
,,,,,,,,,,,,41569,2021-10-02_21h09.31.967,judgeSpeechMusic_20210919_logNormShiftAmp_detection_fixFreq,2020.1.2,MacIntel,60,,,,,,,,,,,,,,,,,,1,5.6943,,0,0,43,43,53,1,stimuli/stim_20210919_power2amp/equal_lnn_AM2Hz_s45_1.m4a,,,,,,,,,,,,
,,,,,,,,,,,,41569,2021-10-02_21h09.31.967,judgeSpeechMusic_20210919_logNormShiftAmp_detection_fixFreq,2020.1.2,MacIntel,60,,,,,,,,,,,,,,,,,,1,5.9922,,0,0,44,44,13,1,stimuli/stim_20210919_power2amp/equal_lnn_AM2Hz_s15_50.m4a,,,,,,,,,,,,
,,,,,,,,,,,,41569,2021-10-02_21h09.31.967,judgeSpeechMusic_20210919_logNormShiftAmp_detection_fixFreq,2020.1.2,MacIntel,60,,,,,,,,,,,,,,,,,,1,7.1742,,0,0,45,45,38,1,stimuli/stim_20210919_power2amp/equal_lnn_AM2Hz_s35_14.m4a,,,,,,,,,,,,
,,,,,,,,,,,,41569,2021-10-02_21h09.31.967,judgeSpeechMusic_20210919_logNormShiftAmp_detection_fixFreq,2020.1.2,MacIntel,60,,,,,,,,,,,,,,,,,,2,5.9748,,0,0,46,46,12,1,stimuli/stim_20210919_power2amp/equal_lnn_AM2Hz_s15_2.m4a,,,,,,,,,,,,
,,,,,,,,,,,,41569,2021-10-02_21h09.31.967,judgeSpeechMusic_20210919_logNormShiftAmp_detection_fixFreq,2020.1.2,MacIntel,60,,,,,,,,,,,,,,,,,,2,5.8593,,0,0,47,47,36,1,stimuli/stim_20210919_power2amp/equal_lnn_AM2Hz_s35_2.m4a,,,,,,,,,,,,
,,,,,,,,,,,,41569,2021-10-02_21h09.31.967,judgeSpeechMusic_20210919_logNormShiftAmp_detection_fixFreq,2020.1.2,MacIntel,60,,,,,,,,,,,,,,,,,,1,6.0866,,0,0,48,48,10,1,stimuli/stim_20210919_power2amp/equal_lnn_AM2Hz_s15_3.m4a,,,,,,,,,,,,
,,,,,,,,,,,,41569,2021-10-02_21h09.31.967,judgeSpeechMusic_20210919_logNormShiftAmp_detection_fixFreq,2020.1.2,MacIntel,60,,,,,,,,,,,,,,,,,,1,6.2779,,0,0,49,49,62,1,stimuli/stim_20210919_power2amp/equal_lnn_AM2Hz_s55_42.m4a,,,,,,,,,,,,
,,,,,,,,,,,,41569,2021-10-02_21h09.31.967,judgeSpeechMusic_20210919_logNormShiftAmp_detection_fixFreq,2020.1.2,MacIntel,60,,,,,,,,,,,,,,,,,,1,5.9603,,0,0,50,50,15,1,stimuli/stim_20210919_power2amp/equal_lnn_AM2Hz_s25_48.m4a,,,,,,,,,,,,
,,,,,,,,,,,,41569,2021-10-02_21h09.31.967,judgeSpeechMusic_20210919_logNormShiftAmp_detection_fixFreq,2020.1.2,MacIntel,60,,,,,,,,,,,,,,,,,,2,5.8977,,0,0,51,51,14,1,stimuli/stim_20210919_power2amp/equal_lnn_AM2Hz_s15_30.m4a,,,,,,,,,,,,
,,,,,,,,,,,,41569,2021-10-02_21h09.31.967,judgeSpeechMusic_20210919_logNormShiftAmp_detection_fixFreq,2020.1.2,MacIntel,60,,,,,,,,,,,,,,,,,,2,5.7913,,0,0,52,52,23,1,stimuli/stim_20210919_power2amp/equal_lnn_AM2Hz_s25_28.m4a,,,,,,,,,,,,
,,,,,,,,,,,,41569,2021-10-02_21h09.31.967,judgeSpeechMusic_20210919_logNormShiftAmp_detection_fixFreq,2020.1.2,MacIntel,60,,,,,,,,,,,,,,,,,,2,5.909,,0,0,53,53,64,1,stimuli/stim_20210919_power2amp/equal_lnn_AM2Hz_s55_45.m4a,,,,,,,,,,,,
,,,,,,,,,,,,41569,2021-10-02_21h09.31.967,judgeSpeechMusic_20210919_logNormShiftAmp_detection_fixFreq,2020.1.2,MacIntel,60,,,,,,,,,,,,,,,,,,1,6.6898,,0,0,54,54,34,1,stimuli/stim_20210919_power2amp/equal_lnn_AM2Hz_s35_28.m4a,,,,,,,,,,,,
,,,,,,,,,,,,41569,2021-10-02_21h09.31.967,judgeSpeechMusic_20210919_logNormShiftAmp_detection_fixFreq,2020.1.2,MacIntel,60,,,,,,,,,,,,,,,,,,1,6.3574,,0,0,55,55,63,1,stimuli/stim_20210919_power2amp/equal_lnn_AM2Hz_s55_24.m4a,,,,,,,,,,,,
,,,,,,,,,,,,41569,2021-10-02_21h09.31.967,judgeSpeechMusic_20210919_logNormShiftAmp_detection_fixFreq,2020.1.2,MacIntel,60,,,,,,,,,,,,,,,,,,2,5.997,,0,0,56,56,55,1,stimuli/stim_20210919_power2amp/equal_lnn_AM2Hz_s45_2.m4a,,,,,,,,,,,,
,,,,,,,,,,,,41569,2021-10-02_21h09.31.967,judgeSpeechMusic_20210919_logNormShiftAmp_detection_fixFreq,2020.1.2,MacIntel,60,,,,,,,,,,,,,,,,,,1,5.9117,,0,0,57,57,31,1,stimuli/stim_20210919_power2amp/equal_lnn_AM2Hz_s35_11.m4a,,,,,,,,,,,,
,,,,,,,,,,,,41569,2021-10-02_21h09.31.967,judgeSpeechMusic_20210919_logNormShiftAmp_detection_fixFreq,2020.1.2,MacIntel,60,,,,,,,,,,,,,,,,,,1,5.9707,,0,0,58,58,2,1,stimuli/stim_20210919_power2amp/equal_lnn_AM2Hz_s15_46.m4a,,,,,,,,,,,,
,,,,,,,,,,,,41569,2021-10-02_21h09.31.967,judgeSpeechMusic_20210919_logNormShiftAmp_detection_fixFreq,2020.1.2,MacIntel,60,,,,,,,,,,,,,,,,,,1,5.6594,1,1,0,59,59,6,1,stimuli/stim_20210919_power2amp/equal_lnn_AM2Hz_s15_43.m4a,1.2907,,,,,,,,,,,
,,,,,,,,,,,,41569,2021-10-02_21h09.31.967,judgeSpeechMusic_20210919_logNormShiftAmp_detection_fixFreq,2020.1.2,MacIntel,60,,,,,,,,,,,,,,,,,,1,5.6915,,0,0,60,60,70,1,stimuli/stim_20210919_power2amp/equal_lnn_AM2Hz_s55_18.m4a,,,,,,,,,,,,
,,,,,,,,,,,,41569,2021-10-02_21h09.31.967,judgeSpeechMusic_20210919_logNormShiftAmp_detection_fixFreq,2020.1.2,MacIntel,60,,,,,,,,,,,,,,,,,,1,5.7291,,0,0,61,61,48,1,stimuli/stim_20210919_power2amp/equal_lnn_AM2Hz_s45_33.m4a,,,,,,,,,,,,
,,,,,,,,,,,,41569,2021-10-02_21h09.31.967,judgeSpeechMusic_20210919_logNormShiftAmp_detection_fixFreq,2020.1.2,MacIntel,60,,,,,,,,,,,,,,,,,,2,6.4585,,0,0,62,62,67,1,stimuli/stim_20210919_power2amp/equal_lnn_AM2Hz_s55_19.m4a,,,,,,,,,,,,
,,,,,,,,,,,,41569,2021-10-02_21h09.31.967,judgeSpeechMusic_20210919_logNormShiftAmp_detection_fixFreq,2020.1.2,MacIntel,60,,,,,,,,,,,,,,,,,,1,6.2524,,0,0,63,63,27,1,stimuli/stim_20210919_power2amp/equal_lnn_AM2Hz_s25_11.m4a,,,,,,,,,,,,
,,,,,,,,,,,,41569,2021-10-02_21h09.31.967,judgeSpeechMusic_20210919_logNormShiftAmp_detection_fixFreq,2020.1.2,MacIntel,60,,,,,,,,,,,,,,,,,,1,5.7085,,0,0,64,64,66,1,stimuli/stim_20210919_power2amp/equal_lnn_AM2Hz_s55_15.m4a,,,,,,,,,,,,
,,,,,,,,,,,,41569,2021-10-02_21h09.31.967,judgeSpeechMusic_20210919_logNormShiftAmp_detection_fixFreq,2020.1.2,MacIntel,60,,,,,,,,,,,,,,,,,,1,5.6907,,0,0,65,65,57,1,stimuli/stim_20210919_power2amp/equal_lnn_AM2Hz_s45_34.m4a,,,,,,,,,,,,
,,,,,,,,,,,,41569,2021-10-02_21h09.31.967,judgeSpeechMusic_20210919_logNormShiftAmp_detection_fixFreq,2020.1.2,MacIntel,60,,,,,,,,,,,,,,,,,,1,5.7961,,0,0,66,66,26,1,stimuli/stim_20210919_power2amp/equal_lnn_AM2Hz_s25_32.m4a,,,,,,,,,,,,
,,,,,,,,,,,,41569,2021-10-02_21h09.31.967,judgeSpeechMusic_20210919_logNormShiftAmp_detection_fixFreq,2020.1.2,MacIntel,60,,,,,,,,,,,,,,,,,,1,5.9074,,0,0,67,67,30,1,stimuli/stim_20210919_power2amp/equal_lnn_AM2Hz_s35_27.m4a,,,,,,,,,,,,
,,,,,,,,,,,,41569,2021-10-02_21h09.31.967,judgeSpeechMusic_20210919_logNormShiftAmp_detection_fixFreq,2020.1.2,MacIntel,60,,,,,,,,,,,,,,,,,,1,9.3466,,0,0,68,68,52,1,stimuli/stim_20210919_power2amp/equal_lnn_AM2Hz_s45_11.m4a,,,,,,,,,,,,
,,,,,,,,,,,,41569,2021-10-02_21h09.31.967,judgeSpeechMusic_20210919_logNormShiftAmp_detection_fixFreq,2020.1.2,MacIntel,60,,,,,,,,,,,,,,,,,,2,6.211,,0,0,69,69,35,1,stimuli/stim_20210919_power2amp/equal_lnn_AM2Hz_s35_39.m4a,,,,,,,,,,,,
,,,,,,,,,,,,41569,2021-10-02_21h09.31.967,judgeSpeechMusic_20210919_logNormShiftAmp_detection_fixFreq,2020.1.2,MacIntel,60,,,,,,,,,,,,,,,,,,2,6.3278,,0,0,70,70,4,1,stimuli/stim_20210919_power2amp/equal_lnn_AM2Hz_s15_22.m4a,,,,,,,,,,,,
,,,,,,,,,,,,41569,2021-10-02_21h09.31.967,judgeSpeechMusic_20210919_logNormShiftAmp_detection_fixFreq,2020.1.2,MacIntel,60,,,,,,,,,,,,,,,,,,1,6.5439,,0,0,71,71,29,1,stimuli/stim_20210919_power2amp/equal_lnn_AM2Hz_s25_19.m4a,,,,,,,,,,,,
,,,,,,,,,,,,41569,2021-10-02_21h09.31.967,judgeSpeechMusic_20210919_logNormShiftAmp_detection_fixFreq,2020.1.2,MacIntel,60,,,,,,,,,,,,,,,,,,1,5.8751,,0,0,72,72,11,1,stimuli/stim_20210919_power2amp/equal_lnn_AM2Hz_s15_25.m4a,,,,,,,,,,,,
,,,,,,,,,,,,41569,2021-10-02_21h09.31.967,judgeSpeechMusic_20210919_logNormShiftAmp_detection_fixFreq,2020.1.2,MacIntel,60,,,,,,,,,,,,,,,,,,2,6.7122,,0,0,73,73,16,1,stimuli/stim_20210919_power2amp/equal_lnn_AM2Hz_s25_13.m4a,,,,,,,,,,,,
,,,,,,,,,,,,41569,2021-10-02_21h09.31.967,judgeSpeechMusic_20210919_logNormShiftAmp_detection_fixFreq,2020.1.2,MacIntel,60,,,,,,,,,,,,,,,,,,1,6.473,,0,0,74,74,56,1,stimuli/stim_20210919_power2amp/equal_lnn_AM2Hz_s45_38.m4a,,,,,,,,,,,,
,,,,,,,,,,,,41569,2021-10-02_21h09.31.967,judgeSpeechMusic_20210919_logNormShiftAmp_detection_fixFreq,2020.1.2,MacIntel,60,,,,,,,,,,,,,,,,,,,,,,,,,,,,,space,37.5416,0,0,0,1,1,SPEECH,stimuli/SPEECH.jpg,,
,,,,,,,,,,,,41569,2021-10-02_21h09.31.967,judgeSpeechMusic_20210919_logNormShiftAmp_detection_fixFreq,2020.1.2,MacIntel,60,space,0.1831,1,6.5603,,0,0,0,0,1,1,stimuli/stim_20210919_power2amp/equal_lnn_AM_training2Hz_s30.m4a,,,,,,,,,,,,,,,,,,,,,,,,,,,
,,,,,,,,,,,,41569,2021-10-02_21h09.31.967,judgeSpeechMusic_20210919_logNormShiftAmp_detection_fixFreq,2020.1.2,MacIntel,60,,,1,9.2066,,0,0,1,1,0,1,stimuli/stim_20210919_power2amp/equal_lnn_AM_training2Hz_s20.m4a,,,,,,,,,,,,,,,,,,,,,,,,,,,
,,,,,,,,,,,,41569,2021-10-02_21h09.31.967,judgeSpeechMusic_20210919_logNormShiftAmp_detection_fixFreq,2020.1.2,MacIntel,60,,,2,6.3747,2,1,0,2,2,2,1,stimuli/stim_20210919_power2amp/equal_lnn_AM_training2Hz_s40.m4a,1.0116,,,,,,,,,,,,,,,,,,,,,,,,,,
,,,,,,,,,,,,41569,2021-10-02_21h09.31.967,judgeSpeechMusic_20210919_logNormShiftAmp_detection_fixFreq,2020.1.2,MacIntel,60,,,2,5.7594,,0,0,3,3,3,1,stimuli/stim_20210919_power2amp/equal_lnn_AM_training2Hz_s50.m4a,,,,,,,,,,,,,,,,,,,,,,,,,,,
,,,,,,,,,,,,41569,2021-10-02_21h09.31.967,judgeSpeechMusic_20210919_logNormShiftAmp_detection_fixFreq,2020.1.2,MacIntel,60,space,0.1654,1,6.9758,,0,1,0,4,1,1,stimuli/stim_20210919_power2amp/equal_lnn_AM_training2Hz_s30.m4a,,,,,,,,,,,,,,,,,,,,,,,,,,,
,,,,,,,,,,,,41569,2021-10-02_21h09.31.967,judgeSpeechMusic_20210919_logNormShiftAmp_detection_fixFreq,2020.1.2,MacIntel,60,,,2,6.7708,,0,1,1,5,0,1,stimuli/stim_20210919_power2amp/equal_lnn_AM_training2Hz_s20.m4a,,,,,,,,,,,,,,,,,,,,,,,,,,,
,,,,,,,,,,,,41569,2021-10-02_21h09.31.967,judgeSpeechMusic_20210919_logNormShiftAmp_detection_fixFreq,2020.1.2,MacIntel,60,,,2,6.4229,2,1,1,2,6,2,1,stimuli/stim_20210919_power2amp/equal_lnn_AM_training2Hz_s40.m4a,0.4242,,,,,,,,,,,,,,,,,,,,,,,,,,
,,,,,,,,,,,,41569,2021-10-02_21h09.31.967,judgeSpeechMusic_20210919_logNormShiftAmp_detection_fixFreq,2020.1.2,MacIntel,60,,,1,6.0594,,0,1,3,7,3,1,stimuli/stim_20210919_power2amp/equal_lnn_AM_training2Hz_s50.m4a,,,,,,,,,,,,,,,,,,,,,,,,,,,
,,,,,,,,,,,,41569,2021-10-02_21h09.31.967,judgeSpeechMusic_20210919_logNormShiftAmp_detection_fixFreq,2020.1.2,MacIntel,60,,,,,,,,,,,,,,space,0.7659,space,0.9491,1,5.837,,0,0,0,0,9,1,stimuli/stim_20210919_power2amp/equal_lnn_AM2Hz_s15_9.m4a,,,,,,,,,,,,
,,,,,,,,,,,,41569,2021-10-02_21h09.31.967,judgeSpeechMusic_20210919_logNormShiftAmp_detection_fixFreq,2020.1.2,MacIntel,60,,,,,,,,,,,,,,,,,,1,5.7267,,0,0,1,1,44,1,stimuli/stim_20210919_power2amp/equal_lnn_AM2Hz_s35_4.m4a,,,,,,,,,,,,
,,,,,,,,,,,,41569,2021-10-02_21h09.31.967,judgeSpeechMusic_20210919_logNormShiftAmp_detection_fixFreq,2020.1.2,MacIntel,60,,,,,,,,,,,,,,,,,,1,6.2641,,0,0,2,2,47,1,stimuli/stim_20210919_power2amp/equal_lnn_AM2Hz_s45_22.m4a,,,,,,,,,,,,
,,,,,,,,,,,,41569,2021-10-02_21h09.31.967,judgeSpeechMusic_20210919_logNormShiftAmp_detection_fixFreq,2020.1.2,MacIntel,60,,,,,,,,,,,,,,,,,,1,6.0807,,0,0,3,3,26,1,stimuli/stim_20210919_power2amp/equal_lnn_AM2Hz_s25_32.m4a,,,,,,,,,,,,
,,,,,,,,,,,,41569,2021-10-02_21h09.31.967,judgeSpeechMusic_20210919_logNormShiftAmp_detection_fixFreq,2020.1.2,MacIntel,60,,,,,,,,,,,,,,,,,,1,6.0201,,0,0,4,4,17,1,stimuli/stim_20210919_power2amp/equal_lnn_AM2Hz_s25_44.m4a,,,,,,,,,,,,
,,,,,,,,,,,,41569,2021-10-02_21h09.31.967,judgeSpeechMusic_20210919_logNormShiftAmp_detection_fixFreq,2020.1.2,MacIntel,60,,,,,,,,,,,,,,,,,,2,6.7081,,0,0,5,5,13,1,stimuli/stim_20210919_power2amp/equal_lnn_AM2Hz_s15_50.m4a,,,,,,,,,,,,
,,,,,,,,,,,,41569,2021-10-02_21h09.31.967,judgeSpeechMusic_20210919_logNormShiftAmp_detection_fixFreq,2020.1.2,MacIntel,60,,,,,,,,,,,,,,,,,,2,6.5892,,0,0,6,6,36,1,stimuli/stim_20210919_power2amp/equal_lnn_AM2Hz_s35_2.m4a,,,,,,,,,,,,
,,,,,,,,,,,,41569,2021-10-02_21h09.31.967,judgeSpeechMusic_20210919_logNormShiftAmp_detection_fixFreq,2020.1.2,MacIntel,60,,,,,,,,,,,,,,,,,,1,6.2947,,0,0,7,7,35,1,stimuli/stim_20210919_power2amp/equal_lnn_AM2Hz_s35_39.m4a,,,,,,,,,,,,
,,,,,,,,,,,,41569,2021-10-02_21h09.31.967,judgeSpeechMusic_20210919_logNormShiftAmp_detection_fixFreq,2020.1.2,MacIntel,60,,,,,,,,,,,,,,,,,,1,5.7266,,0,0,8,8,63,1,stimuli/stim_20210919_power2amp/equal_lnn_AM2Hz_s55_24.m4a,,,,,,,,,,,,
,,,,,,,,,,,,41569,2021-10-02_21h09.31.967,judgeSpeechMusic_20210919_logNormShiftAmp_detection_fixFreq,2020.1.2,MacIntel,60,,,,,,,,,,,,,,,,,,1,6.2187,,0,0,9,9,46,1,stimuli/stim_20210919_power2amp/equal_lnn_AM2Hz_s45_35.m4a,,,,,,,,,,,,
,,,,,,,,,,,,41569,2021-10-02_21h09.31.967,judgeSpeechMusic_20210919_logNormShiftAmp_detection_fixFreq,2020.1.2,MacIntel,60,,,,,,,,,,,,,,,,,,1,6.0628,,0,0,10,10,68,1,stimuli/stim_20210919_power2amp/equal_lnn_AM2Hz_s55_48.m4a,,,,,,,,,,,,
,,,,,,,,,,,,41569,2021-10-02_21h09.31.967,judgeSpeechMusic_20210919_logNormShiftAmp_detection_fixFreq,2020.1.2,MacIntel,60,,,,,,,,,,,,,,,,,,1,6.0247,,0,0,11,11,42,1,stimuli/stim_20210919_power2amp/equal_lnn_AM2Hz_s35_26.m4a,,,,,,,,,,,,
,,,,,,,,,,,,41569,2021-10-02_21h09.31.967,judgeSpeechMusic_20210919_logNormShiftAmp_detection_fixFreq,2020.1.2,MacIntel,60,,,,,,,,,,,,,,,,,,2,5.9089,,0,0,12,12,64,1,stimuli/stim_20210919_power2amp/equal_lnn_AM2Hz_s55_45.m4a,,,,,,,,,,,,
,,,,,,,,,,,,41569,2021-10-02_21h09.31.967,judgeSpeechMusic_20210919_logNormShiftAmp_detection_fixFreq,2020.1.2,MacIntel,60,,,,,,,,,,,,,,,,,,2,5.9585,,0,0,13,13,22,1,stimuli/stim_20210919_power2amp/equal_lnn_AM2Hz_s25_24.m4a,,,,,,,,,,,,
,,,,,,,,,,,,41569,2021-10-02_21h09.31.967,judgeSpeechMusic_20210919_logNormShiftAmp_detection_fixFreq,2020.1.2,MacIntel,60,,,,,,,,,,,,,,,,,,1,6.4245,,0,0,14,14,58,1,stimuli/stim_20210919_power2amp/equal_lnn_AM2Hz_s45_20.m4a,,,,,,,,,,,,
,,,,,,,,,,,,41569,2021-10-02_21h09.31.967,judgeSpeechMusic_20210919_logNormShiftAmp_detection_fixFreq,2020.1.2,MacIntel,60,,,,,,,,,,,,,,,,,,1,6.1372,,0,0,15,15,53,1,stimuli/stim_20210919_power2amp/equal_lnn_AM2Hz_s45_1.m4a,,,,,,,,,,,,
,,,,,,,,,,,,41569,2021-10-02_21h09.31.967,judgeSpeechMusic_20210919_logNormShiftAmp_detection_fixFreq,2020.1.2,MacIntel,60,,,,,,,,,,,,,,,,,,1,5.9129,,0,0,16,16,65,1,stimuli/stim_20210919_power2amp/equal_lnn_AM2Hz_s55_37.m4a,,,,,,,,,,,,
,,,,,,,,,,,,41569,2021-10-02_21h09.31.967,judgeSpeechMusic_20210919_logNormShiftAmp_detection_fixFreq,2020.1.2,MacIntel,60,,,,,,,,,,,,,,,,,,2,6.3626,,0,0,17,17,32,1,stimuli/stim_20210919_power2amp/equal_lnn_AM2Hz_s35_38.m4a,,,,,,,,,,,,
,,,,,,,,,,,,41569,2021-10-02_21h09.31.967,judgeSpeechMusic_20210919_logNormShiftAmp_detection_fixFreq,2020.1.2,MacIntel,60,,,,,,,,,,,,,,,,,,2,5.8817,,0,0,18,18,61,1,stimuli/stim_20210919_power2amp/equal_lnn_AM2Hz_s55_16.m4a,,,,,,,,,,,,
,,,,,,,,,,,,41569,2021-10-02_21h09.31.967,judgeSpeechMusic_20210919_logNormShiftAmp_detection_fixFreq,2020.1.2,MacIntel,60,,,,,,,,,,,,,,,,,,2,6.059,,0,0,19,19,15,1,stimuli/stim_20210919_power2amp/equal_lnn_AM2Hz_s25_48.m4a,,,,,,,,,,,,
,,,,,,,,,,,,41569,2021-10-02_21h09.31.967,judgeSpeechMusic_20210919_logNormShiftAmp_detection_fixFreq,2020.1.2,MacIntel,60,,,,,,,,,,,,,,,,,,1,6.6172,,0,0,20,20,55,1,stimuli/stim_20210919_power2amp/equal_lnn_AM2Hz_s45_2.m4a,,,,,,,,,,,,
,,,,,,,,,,,,41569,2021-10-02_21h09.31.967,judgeSpeechMusic_20210919_logNormShiftAmp_detection_fixFreq,2020.1.2,MacIntel,60,,,,,,,,,,,,,,,,,,2,6.1024,,0,0,21,21,31,1,stimuli/stim_20210919_power2amp/equal_lnn_AM2Hz_s35_11.m4a,,,,,,,,,,,,
,,,,,,,,,,,,41569,2021-10-02_21h09.31.967,judgeSpeechMusic_20210919_logNormShiftAmp_detection_fixFreq,2020.1.2,MacIntel,60,,,,,,,,,,,,,,,,,,1,6.4114,4,1,0,22,22,74,1,stimuli/stim_20210919_power2amp/equal_lnn_AM2Hz_s55_5.m4a,1.0623,,,,,,,,,,,
,,,,,,,,,,,,41569,2021-10-02_21h09.31.967,judgeSpeechMusic_20210919_logNormShiftAmp_detection_fixFreq,2020.1.2,MacIntel,60,,,,,,,,,,,,,,,,,,1,5.9287,,0,0,23,23,54,1,stimuli/stim_20210919_power2amp/equal_lnn_AM2Hz_s45_50.m4a,,,,,,,,,,,,
,,,,,,,,,,,,41569,2021-10-02_21h09.31.967,judgeSpeechMusic_20210919_logNormShiftAmp_detection_fixFreq,2020.1.2,MacIntel,60,,,,,,,,,,,,,,,,,,1,6.6628,,0,0,24,24,0,1,stimuli/stim_20210919_power2amp/equal_lnn_AM2Hz_s15_24.m4a,,,,,,,,,,,,
,,,,,,,,,,,,41569,2021-10-02_21h09.31.967,judgeSpeechMusic_20210919_logNormShiftAmp_detection_fixFreq,2020.1.2,MacIntel,60,,,,,,,,,,,,,,,,,,2,7.2219,,0,0,25,25,5,1,stimuli/stim_20210919_power2amp/equal_lnn_AM2Hz_s15_35.m4a,,,,,,,,,,,,
,,,,,,,,,,,,41569,2021-10-02_21h09.31.967,judgeSpeechMusic_20210919_logNormShiftAmp_detection_fixFreq,2020.1.2,MacIntel,60,,,,,,,,,,,,,,,,,,1,5.9919,,0,0,26,26,72,1,stimuli/stim_20210919_power2amp/equal_lnn_AM2Hz_s55_4.m4a,,,,,,,,,,,,
,,,,,,,,,,,,41569,2021-10-02_21h09.31.967,judgeSpeechMusic_20210919_logNormShiftAmp_detection_fixFreq,2020.1.2,MacIntel,60,,,,,,,,,,,,,,,,,,1,5.9593,,0,0,27,27,62,1,stimuli/stim_20210919_power2amp/equal_lnn_AM2Hz_s55_42.m4a,,,,,,,,,,,,
,,,,,,,,,,,,41569,2021-10-02_21h09.31.967,judgeSpeechMusic_20210919_logNormShiftAmp_detection_fixFreq,2020.1.2,MacIntel,60,,,,,,,,,,,,,,,,,,1,6.0226,,0,0,28,28,52,1,stimuli/stim_20210919_power2amp/equal_lnn_AM2Hz_s45_11.m4a,,,,,,,,,,,,
,,,,,,,,,,,,41569,2021-10-02_21h09.31.967,judgeSpeechMusic_20210919_logNormShiftAmp_detection_fixFreq,2020.1.2,MacIntel,60,,,,,,,,,,,,,,,,,,2,6.5713,,0,0,29,29,33,1,stimuli/stim_20210919_power2amp/equal_lnn_AM2Hz_s35_17.m4a,,,,,,,,,,,,
,,,,,,,,,,,,41569,2021-10-02_21h09.31.967,judgeSpeechMusic_20210919_logNormShiftAmp_detection_fixFreq,2020.1.2,MacIntel,60,,,,,,,,,,,,,,,,,,1,6.7794,,0,0,30,30,28,1,stimuli/stim_20210919_power2amp/equal_lnn_AM2Hz_s25_31.m4a,,,,,,,,,,,,
,,,,,,,,,,,,41569,2021-10-02_21h09.31.967,judgeSpeechMusic_20210919_logNormShiftAmp_detection_fixFreq,2020.1.2,MacIntel,60,,,,,,,,,,,,,,,,,,1,5.9456,,0,0,31,31,71,1,stimuli/stim_20210919_power2amp/equal_lnn_AM2Hz_s55_50.m4a,,,,,,,,,,,,
,,,,,,,,,,,,41569,2021-10-02_21h09.31.967,judgeSpeechMusic_20210919_logNormShiftAmp_detection_fixFreq,2020.1.2,MacIntel,60,,,,,,,,,,,,,,,,,,2,6.2096,,0,0,32,32,70,1,stimuli/stim_20210919_power2amp/equal_lnn_AM2Hz_s55_18.m4a,,,,,,,,,,,,
,,,,,,,,,,,,41569,2021-10-02_21h09.31.967,judgeSpeechMusic_20210919_logNormShiftAmp_detection_fixFreq,2020.1.2,MacIntel,60,,,,,,,,,,,,,,,,,,1,6.3419,,0,0,33,33,1,1,stimuli/stim_20210919_power2amp/equal_lnn_AM2Hz_s15_13.m4a,,,,,,,,,,,,
,,,,,,,,,,,,41569,2021-10-02_21h09.31.967,judgeSpeechMusic_20210919_logNormShiftAmp_detection_fixFreq,2020.1.2,MacIntel,60,,,,,,,,,,,,,,,,,,1,6.3778,,0,0,34,34,20,1,stimuli/stim_20210919_power2amp/equal_lnn_AM2Hz_s25_7.m4a,,,,,,,,,,,,
,,,,,,,,,,,,41569,2021-10-02_21h09.31.967,judgeSpeechMusic_20210919_logNormShiftAmp_detection_fixFreq,2020.1.2,MacIntel,60,,,,,,,,,,,,,,,,,,2,6.9267,,0,0,35,35,45,1,stimuli/stim_20210919_power2amp/equal_lnn_AM2Hz_s45_37.m4a,,,,,,,,,,,,
,,,,,,,,,,,,41569,2021-10-02_21h09.31.967,judgeSpeechMusic_20210919_logNormShiftAmp_detection_fixFreq,2020.1.2,MacIntel,60,,,,,,,,,,,,,,,,,,1,7.14,,0,0,36,36,37,1,stimuli/stim_20210919_power2amp/equal_lnn_AM2Hz_s35_29.m4a,,,,,,,,,,,,
,,,,,,,,,,,,41569,2021-10-02_21h09.31.967,judgeSpeechMusic_20210919_logNormShiftAmp_detection_fixFreq,2020.1.2,MacIntel,60,,,,,,,,,,,,,,,,,,2,6.3753,,0,0,37,37,67,1,stimuli/stim_20210919_power2amp/equal_lnn_AM2Hz_s55_19.m4a,,,,,,,,,,,,
,,,,,,,,,,,,41569,2021-10-02_21h09.31.967,judgeSpeechMusic_20210919_logNormShiftAmp_detection_fixFreq,2020.1.2,MacIntel,60,,,,,,,,,,,,,,,,,,2,5.6939,,0,0,38,38,2,1,stimuli/stim_20210919_power2amp/equal_lnn_AM2Hz_s15_46.m4a,,,,,,,,,,,,
,,,,,,,,,,,,41569,2021-10-02_21h09.31.967,judgeSpeechMusic_20210919_logNormShiftAmp_detection_fixFreq,2020.1.2,MacIntel,60,,,,,,,,,,,,,,,,,,1,5.8961,,0,0,39,39,18,1,stimuli/stim_20210919_power2amp/equal_lnn_AM2Hz_s25_12.m4a,,,,,,,,,,,,
,,,,,,,,,,,,41569,2021-10-02_21h09.31.967,judgeSpeechMusic_20210919_logNormShiftAmp_detection_fixFreq,2020.1.2,MacIntel,60,,,,,,,,,,,,,,,,,,1,8.7735,1,1,0,40,40,34,1,stimuli/stim_20210919_power2amp/equal_lnn_AM2Hz_s35_28.m4a,0.9283,,,,,,,,,,,
,,,,,,,,,,,,41569,2021-10-02_21h09.31.967,judgeSpeechMusic_20210919_logNormShiftAmp_detection_fixFreq,2020.1.2,MacIntel,60,,,,,,,,,,,,,,,,,,2,6.5919,,0,0,41,41,10,1,stimuli/stim_20210919_power2amp/equal_lnn_AM2Hz_s15_3.m4a,,,,,,,,,,,,
,,,,,,,,,,,,41569,2021-10-02_21h09.31.967,judgeSpeechMusic_20210919_logNormShiftAmp_detection_fixFreq,2020.1.2,MacIntel,60,,,,,,,,,,,,,,,,,,1,7.9863,,0,0,42,42,73,1,stimuli/stim_20210919_power2amp/equal_lnn_AM2Hz_s55_35.m4a,,,,,,,,,,,,
,,,,,,,,,,,,41569,2021-10-02_21h09.31.967,judgeSpeechMusic_20210919_logNormShiftAmp_detection_fixFreq,2020.1.2,MacIntel,60,,,,,,,,,,,,,,,,,,1,6.3442,,0,0,43,43,25,1,stimuli/stim_20210919_power2amp/equal_lnn_AM2Hz_s25_30.m4a,,,,,,,,,,,,
,,,,,,,,,,,,41569,2021-10-02_21h09.31.967,judgeSpeechMusic_20210919_logNormShiftAmp_detection_fixFreq,2020.1.2,MacIntel,60,,,,,,,,,,,,,,,,,,2,7.7064,,0,0,44,44,11,1,stimuli/stim_20210919_power2amp/equal_lnn_AM2Hz_s15_25.m4a,,,,,,,,,,,,
,,,,,,,,,,,,41569,2021-10-02_21h09.31.967,judgeSpeechMusic_20210919_logNormShiftAmp_detection_fixFreq,2020.1.2,MacIntel,60,,,,,,,,,,,,,,,,,,2,5.8753,,0,0,45,45,29,1,stimuli/stim_20210919_power2amp/equal_lnn_AM2Hz_s25_19.m4a,,,,,,,,,,,,
,,,,,,,,,,,,41569,2021-10-02_21h09.31.967,judgeSpeechMusic_20210919_logNormShiftAmp_detection_fixFreq,2020.1.2,MacIntel,60,,,,,,,,,,,,,,,,,,1,6.716,,0,0,46,46,40,1,stimuli/stim_20210919_power2amp/equal_lnn_AM2Hz_s35_44.m4a,,,,,,,,,,,,
,,,,,,,,,,,,41569,2021-10-02_21h09.31.967,judgeSpeechMusic_20210919_logNormShiftAmp_detection_fixFreq,2020.1.2,MacIntel,60,,,,,,,,,,,,,,,,,,1,5.8081,,0,0,47,47,41,1,stimuli/stim_20210919_power2amp/equal_lnn_AM2Hz_s35_13.m4a,,,,,,,,,,,,
,,,,,,,,,,,,41569,2021-10-02_21h09.31.967,judgeSpeechMusic_20210919_logNormShiftAmp_detection_fixFreq,2020.1.2,MacIntel,60,,,,,,,,,,,,,,,,,,1,6.1768,,0,0,48,48,59,1,stimuli/stim_20210919_power2amp/equal_lnn_AM2Hz_s45_29.m4a,,,,,,,,,,,,
,,,,,,,,,,,,41569,2021-10-02_21h09.31.967,judgeSpeechMusic_20210919_logNormShiftAmp_detection_fixFreq,2020.1.2,MacIntel,60,,,,,,,,,,,,,,,,,,2,6.6764,,0,0,49,49,69,1,stimuli/stim_20210919_power2amp/equal_lnn_AM2Hz_s55_25.m4a,,,,,,,,,,,,
,,,,,,,,,,,,41569,2021-10-02_21h09.31.967,judgeSpeechMusic_20210919_logNormShiftAmp_detection_fixFreq,2020.1.2,MacIntel,60,,,,,,,,,,,,,,,,,,1,6.3279,,0,0,50,50,12,1,stimuli/stim_20210919_power2amp/equal_lnn_AM2Hz_s15_2.m4a,,,,,,,,,,,,
,,,,,,,,,,,,41569,2021-10-02_21h09.31.967,judgeSpeechMusic_20210919_logNormShiftAmp_detection_fixFreq,2020.1.2,MacIntel,60,,,,,,,,,,,,,,,,,,1,5.6645,,0,0,51,51,8,1,stimuli/stim_20210919_power2amp/equal_lnn_AM2Hz_s15_11.m4a,,,,,,,,,,,,
,,,,,,,,,,,,41569,2021-10-02_21h09.31.967,judgeSpeechMusic_20210919_logNormShiftAmp_detection_fixFreq,2020.1.2,MacIntel,60,,,,,,,,,,,,,,,,,,1,5.6418,,0,0,52,52,3,1,stimuli/stim_20210919_power2amp/equal_lnn_AM2Hz_s15_4.m4a,,,,,,,,,,,,
,,,,,,,,,,,,41569,2021-10-02_21h09.31.967,judgeSpeechMusic_20210919_logNormShiftAmp_detection_fixFreq,2020.1.2,MacIntel,60,,,,,,,,,,,,,,,,,,2,6.263,,0,0,53,53,50,1,stimuli/stim_20210919_power2amp/equal_lnn_AM2Hz_s45_48.m4a,,,,,,,,,,,,
,,,,,,,,,,,,41569,2021-10-02_21h09.31.967,judgeSpeechMusic_20210919_logNormShiftAmp_detection_fixFreq,2020.1.2,MacIntel,60,,,,,,,,,,,,,,,,,,2,5.6748,,0,0,54,54,24,1,stimuli/stim_20210919_power2amp/equal_lnn_AM2Hz_s25_6.m4a,,,,,,,,,,,,
,,,,,,,,,,,,41569,2021-10-02_21h09.31.967,judgeSpeechMusic_20210919_logNormShiftAmp_detection_fixFreq,2020.1.2,MacIntel,60,,,,,,,,,,,,,,,,,,1,5.622,,0,0,55,55,66,1,stimuli/stim_20210919_power2amp/equal_lnn_AM2Hz_s55_15.m4a,,,,,,,,,,,,
,,,,,,,,,,,,41569,2021-10-02_21h09.31.967,judgeSpeechMusic_20210919_logNormShiftAmp_detection_fixFreq,2020.1.2,MacIntel,60,,,,,,,,,,,,,,,,,,1,5.7078,,0,0,56,56,60,1,stimuli/stim_20210919_power2amp/equal_lnn_AM2Hz_s55_11.m4a,,,,,,,,,,,,
,,,,,,,,,,,,41569,2021-10-02_21h09.31.967,judgeSpeechMusic_20210919_logNormShiftAmp_detection_fixFreq,2020.1.2,MacIntel,60,,,,,,,,,,,,,,,,,,2,7.3584,,0,0,57,57,16,1,stimuli/stim_20210919_power2amp/equal_lnn_AM2Hz_s25_13.m4a,,,,,,,,,,,,
,,,,,,,,,,,,41569,2021-10-02_21h09.31.967,judgeSpeechMusic_20210919_logNormShiftAmp_detection_fixFreq,2020.1.2,MacIntel,60,,,,,,,,,,,,,,,,,,1,5.7477,,0,0,58,58,38,1,stimuli/stim_20210919_power2amp/equal_lnn_AM2Hz_s35_14.m4a,,,,,,,,,,,,
,,,,,,,,,,,,41569,2021-10-02_21h09.31.967,judgeSpeechMusic_20210919_logNormShiftAmp_detection_fixFreq,2020.1.2,MacIntel,60,,,,,,,,,,,,,,,,,,1,6.3453,2,1,0,59,59,43,1,stimuli/stim_20210919_power2amp/equal_lnn_AM2Hz_s35_23.m4a,0.3948,,,,,,,,,,,
,,,,,,,,,,,,41569,2021-10-02_21h09.31.967,judgeSpeechMusic_20210919_logNormShiftAmp_detection_fixFreq,2020.1.2,MacIntel,60,,,,,,,,,,,,,,,,,,1,7.4941,,0,0,60,60,23,1,stimuli/stim_20210919_power2amp/equal_lnn_AM2Hz_s25_28.m4a,,,,,,,,,,,,
,,,,,,,,,,,,41569,2021-10-02_21h09.31.967,judgeSpeechMusic_20210919_logNormShiftAmp_detection_fixFreq,2020.1.2,MacIntel,60,,,,,,,,,,,,,,,,,,1,5.6597,,0,0,61,61,48,1,stimuli/stim_20210919_power2amp/equal_lnn_AM2Hz_s45_33.m4a,,,,,,,,,,,,
,,,,,,,,,,,,41569,2021-10-02_21h09.31.967,judgeSpeechMusic_20210919_logNormShiftAmp_detection_fixFreq,2020.1.2,MacIntel,60,,,,,,,,,,,,,,,,,,2,6.2438,,0,0,62,62,21,1,stimuli/stim_20210919_power2amp/equal_lnn_AM2Hz_s25_45.m4a,,,,,,,,,,,,
,,,,,,,,,,,,41569,2021-10-02_21h09.31.967,judgeSpeechMusic_20210919_logNormShiftAmp_detection_fixFreq,2020.1.2,MacIntel,60,,,,,,,,,,,,,,,,,,1,6.2278,,0,0,63,63,30,1,stimuli/stim_20210919_power2amp/equal_lnn_AM2Hz_s35_27.m4a,,,,,,,,,,,,
,,,,,,,,,,,,41569,2021-10-02_21h09.31.967,judgeSpeechMusic_20210919_logNormShiftAmp_detection_fixFreq,2020.1.2,MacIntel,60,,,,,,,,,,,,,,,,,,1,5.7039,,0,0,64,64,14,1,stimuli/stim_20210919_power2amp/equal_lnn_AM2Hz_s15_30.m4a,,,,,,,,,,,,
,,,,,,,,,,,,41569,2021-10-02_21h09.31.967,judgeSpeechMusic_20210919_logNormShiftAmp_detection_fixFreq,2020.1.2,MacIntel,60,,,,,,,,,,,,,,,,,,1,5.826,,0,0,65,65,4,1,stimuli/stim_20210919_power2amp/equal_lnn_AM2Hz_s15_22.m4a,,,,,,,,,,,,
,,,,,,,,,,,,41569,2021-10-02_21h09.31.967,judgeSpeechMusic_20210919_logNormShiftAmp_detection_fixFreq,2020.1.2,MacIntel,60,,,,,,,,,,,,,,,,,,1,5.9743,,0,0,66,66,56,1,stimuli/stim_20210919_power2amp/equal_lnn_AM2Hz_s45_38.m4a,,,,,,,,,,,,
,,,,,,,,,,,,41569,2021-10-02_21h09.31.967,judgeSpeechMusic_20210919_logNormShiftAmp_detection_fixFreq,2020.1.2,MacIntel,60,,,,,,,,,,,,,,,,,,1,7.0077,,0,0,67,67,49,1,stimuli/stim_20210919_power2amp/equal_lnn_AM2Hz_s45_6.m4a,,,,,,,,,,,,
,,,,,,,,,,,,41569,2021-10-02_21h09.31.967,judgeSpeechMusic_20210919_logNormShiftAmp_detection_fixFreq,2020.1.2,MacIntel,60,,,,,,,,,,,,,,,,,,1,6.8865,,0,0,68,68,51,1,stimuli/stim_20210919_power2amp/equal_lnn_AM2Hz_s45_3.m4a,,,,,,,,,,,,
,,,,,,,,,,,,41569,2021-10-02_21h09.31.967,judgeSpeechMusic_20210919_logNormShiftAmp_detection_fixFreq,2020.1.2,MacIntel,60,,,,,,,,,,,,,,,,,,2,6.784,,0,0,69,69,39,1,stimuli/stim_20210919_power2amp/equal_lnn_AM2Hz_s35_41.m4a,,,,,,,,,,,,
,,,,,,,,,,,,41569,2021-10-02_21h09.31.967,judgeSpeechMusic_20210919_logNormShiftAmp_detection_fixFreq,2020.1.2,MacIntel,60,,,,,,,,,,,,,,,,,,1,6.793,,0,0,70,70,19,1,stimuli/stim_20210919_power2amp/equal_lnn_AM2Hz_s25_25.m4a,,,,,,,,,,,,
,,,,,,,,,,,,41569,2021-10-02_21h09.31.967,judgeSpeechMusic_20210919_logNormShiftAmp_detection_fixFreq,2020.1.2,MacIntel,60,,,,,,,,,,,,,,,,,,1,5.943,,0,0,71,71,57,1,stimuli/stim_20210919_power2amp/equal_lnn_AM2Hz_s45_34.m4a,,,,,,,,,,,,
,,,,,,,,,,,,41569,2021-10-02_21h09.31.967,judgeSpeechMusic_20210919_logNormShiftAmp_detection_fixFreq,2020.1.2,MacIntel,60,,,,,,,,,,,,,,,,,,1,6.2105,,0,0,72,72,6,1,stimuli/stim_20210919_power2amp/equal_lnn_AM2Hz_s15_43.m4a,,,,,,,,,,,,
,,,,,,,,,,,,41569,2021-10-02_21h09.31.967,judgeSpeechMusic_20210919_logNormShiftAmp_detection_fixFreq,2020.1.2,MacIntel,60,,,,,,,,,,,,,,,,,,1,5.8772,,0,0,73,73,7,1,stimuli/stim_20210919_power2amp/equal_lnn_AM2Hz_s15_28.m4a,,,,,,,,,,,,
,,,,,,,,,,,,41569,2021-10-02_21h09.31.967,judgeSpeechMusic_20210919_logNormShiftAmp_detection_fixFreq,2020.1.2,MacIntel,60,,,,,,,,,,,,,,,,,,2,6.0422,,0,0,74,74,27,1,stimuli/stim_20210919_power2amp/equal_lnn_AM2Hz_s25_11.m4a,,,,,,,,,,,,
,,,,,,,,,,,,41569,2021-10-02_21h09.31.967,judgeSpeechMusic_20210919_logNormShiftAmp_detection_fixFreq,2020.1.2,MacIntel,60,,,,,,,,,,,,,,,,,,,,,,,,,,,,,space,0.8589,0,1,1,0,1,MUSIC,stimuli/MUSIC.jpg,,
,,,,,,,,,,,,41569,2021-10-02_21h09.31.967,judgeSpeechMusic_20210919_logNormShiftAmp_detection_fixFreq,2020.1.2,MacIntel,60,,,,,,0,0,0,0,2,1,stimuli/stim_20210919_power2amp/equal_lnn_AM_training2Hz_s40.m4a,,,,,,,,,,,,,,,,,,,,,,,,,,,
,,,,,,,,,,,,41569,2021-10-02_21h09.31.967,judgeSpeechMusic_20210919_logNormShiftAmp_detection_fixFreq,2020.1.2,MacIntel,60,,,,,,,,,,,,,,space,7.1776,space,0.7012,1,6.6908,,0,0,0,0,2,1,stimuli/stim_20210919_power2amp/equal_lnn_AM2Hz_s15_46.m4a,,,,,,,,,,,,
,,,,,,,,,,,,41569,2021-10-02_21h09.31.967,judgeSpeechMusic_20210919_logNormShiftAmp_detection_fixFreq,2020.1.2,MacIntel,60,,,,,,,,,,,,,,,,,,1,5.7235,,0,0,1,1,34,1,stimuli/stim_20210919_power2amp/equal_lnn_AM2Hz_s35_28.m4a,,,,,,,,,,,,
,,,,,,,,,,,,41569,2021-10-02_21h09.31.967,judgeSpeechMusic_20210919_logNormShiftAmp_detection_fixFreq,2020.1.2,MacIntel,60,,,,,,,,,,,,,,,,,,2,6.3242,,0,0,2,2,58,1,stimuli/stim_20210919_power2amp/equal_lnn_AM2Hz_s45_20.m4a,,,,,,,,,,,,
,,,,,,,,,,,,41569,2021-10-02_21h09.31.967,judgeSpeechMusic_20210919_logNormShiftAmp_detection_fixFreq,2020.1.2,MacIntel,60,,,,,,,,,,,,,,,,,,1,6.8786,,0,0,3,3,17,1,stimuli/stim_20210919_power2amp/equal_lnn_AM2Hz_s25_44.m4a,,,,,,,,,,,,
,,,,,,,,,,,,41569,2021-10-02_21h09.31.967,judgeSpeechMusic_20210919_logNormShiftAmp_detection_fixFreq,2020.1.2,MacIntel,60,,,,,,,,,,,,,,,,,,1,5.7604,,0,0,4,4,70,1,stimuli/stim_20210919_power2amp/equal_lnn_AM2Hz_s55_18.m4a,,,,,,,,,,,,
,,,,,,,,,,,,41569,2021-10-02_21h09.31.967,judgeSpeechMusic_20210919_logNormShiftAmp_detection_fixFreq,2020.1.2,MacIntel,60,,,,,,,,,,,,,,,,,,1,6.2934,,0,0,5,5,41,1,stimuli/stim_20210919_power2amp/equal_lnn_AM2Hz_s35_13.m4a,,,,,,,,,,,,
,,,,,,,,,,,,41569,2021-10-02_21h09.31.967,judgeSpeechMusic_20210919_logNormShiftAmp_detection_fixFreq,2020.1.2,MacIntel,60,,,,,,,,,,,,,,,,,,1,6.3259,,0,0,6,6,71,1,stimuli/stim_20210919_power2amp/equal_lnn_AM2Hz_s55_50.m4a,,,,,,,,,,,,
,,,,,,,,,,,,41569,2021-10-02_21h09.31.967,judgeSpeechMusic_20210919_logNormShiftAmp_detection_fixFreq,2020.1.2,MacIntel,60,,,,,,,,,,,,,,,,,,2,6.7089,,0,0,7,7,30,1,stimuli/stim_20210919_power2amp/equal_lnn_AM2Hz_s35_27.m4a,,,,,,,,,,,,
,,,,,,,,,,,,41569,2021-10-02_21h09.31.967,judgeSpeechMusic_20210919_logNormShiftAmp_detection_fixFreq,2020.1.2,MacIntel,60,,,,,,,,,,,,,,,,,,1,6.8264,,0,0,8,8,45,1,stimuli/stim_20210919_power2amp/equal_lnn_AM2Hz_s45_37.m4a,,,,,,,,,,,,
,,,,,,,,,,,,41569,2021-10-02_21h09.31.967,judgeSpeechMusic_20210919_logNormShiftAmp_detection_fixFreq,2020.1.2,MacIntel,60,,,,,,,,,,,,,,,,,,1,6.1438,,0,0,9,9,13,1,stimuli/stim_20210919_power2amp/equal_lnn_AM2Hz_s15_50.m4a,,,,,,,,,,,,
,,,,,,,,,,,,41569,2021-10-02_21h09.31.967,judgeSpeechMusic_20210919_logNormShiftAmp_detection_fixFreq,2020.1.2,MacIntel,60,,,,,,,,,,,,,,,,,,1,5.9946,,0,0,10,10,28,1,stimuli/stim_20210919_power2amp/equal_lnn_AM2Hz_s25_31.m4a,,,,,,,,,,,,
,,,,,,,,,,,,41569,2021-10-02_21h09.31.967,judgeSpeechMusic_20210919_logNormShiftAmp_detection_fixFreq,2020.1.2,MacIntel,60,,,,,,,,,,,,,,,,,,1,5.6609,,0,0,11,11,10,1,stimuli/stim_20210919_power2amp/equal_lnn_AM2Hz_s15_3.m4a,,,,,,,,,,,,
,,,,,,,,,,,,41569,2021-10-02_21h09.31.967,judgeSpeechMusic_20210919_logNormShiftAmp_detection_fixFreq,2020.1.2,MacIntel,60,,,,,,,,,,,,,,,,,,2,6.3925,,0,0,12,12,48,1,stimuli/stim_20210919_power2amp/equal_lnn_AM2Hz_s45_33.m4a,,,,,,,,,,,,
,,,,,,,,,,,,41569,2021-10-02_21h09.31.967,judgeSpeechMusic_20210919_logNormShiftAmp_detection_fixFreq,2020.1.2,MacIntel,60,,,,,,,,,,,,,,,,,,1,6.6112,,0,0,13,13,54,1,stimuli/stim_20210919_power2amp/equal_lnn_AM2Hz_s45_50.m4a,,,,,,,,,,,,
,,,,,,,,,,,,41569,2021-10-02_21h09.31.967,judgeSpeechMusic_20210919_logNormShiftAmp_detection_fixFreq,2020.1.2,MacIntel,60,,,,,,,,,,,,,,,,,,1,5.6562,,0,0,14,14,44,1,stimuli/stim_20210919_power2amp/equal_lnn_AM2Hz_s35_4.m4a,,,,,,,,,,,,
,,,,,,,,,,,,41569,2021-10-02_21h09.31.967,judgeSpeechMusic_20210919_logNormShiftAmp_detection_fixFreq,2020.1.2,MacIntel,60,,,,,,,,,,,,,,,,,,1,5.6782,,0,0,15,15,46,1,stimuli/stim_20210919_power2amp/equal_lnn_AM2Hz_s45_35.m4a,,,,,,,,,,,,
,,,,,,,,,,,,41569,2021-10-02_21h09.31.967,judgeSpeechMusic_20210919_logNormShiftAmp_detection_fixFreq,2020.1.2,MacIntel,60,,,,,,,,,,,,,,,,,,2,7.3095,,0,0,16,16,1,1,stimuli/stim_20210919_power2amp/equal_lnn_AM2Hz_s15_13.m4a,,,,,,,,,,,,
,,,,,,,,,,,,41569,2021-10-02_21h09.31.967,judgeSpeechMusic_20210919_logNormShiftAmp_detection_fixFreq,2020.1.2,MacIntel,60,,,,,,,,,,,,,,,,,,2,5.7468,,0,0,17,17,55,1,stimuli/stim_20210919_power2amp/equal_lnn_AM2Hz_s45_2.m4a,,,,,,,,,,,,
,,,,,,,,,,,,41569,2021-10-02_21h09.31.967,judgeSpeechMusic_20210919_logNormShiftAmp_detection_fixFreq,2020.1.2,MacIntel,60,,,,,,,,,,,,,,,,,,1,6.2139,,0,0,18,18,64,1,stimuli/stim_20210919_power2amp/equal_lnn_AM2Hz_s55_45.m4a,,,,,,,,,,,,
,,,,,,,,,,,,41569,2021-10-02_21h09.31.967,judgeSpeechMusic_20210919_logNormShiftAmp_detection_fixFreq,2020.1.2,MacIntel,60,,,,,,,,,,,,,,,,,,1,5.9094,,0,0,19,19,4,1,stimuli/stim_20210919_power2amp/equal_lnn_AM2Hz_s15_22.m4a,,,,,,,,,,,,
,,,,,,,,,,,,41569,2021-10-02_21h09.31.967,judgeSpeechMusic_20210919_logNormShiftAmp_detection_fixFreq,2020.1.2,MacIntel,60,,,,,,,,,,,,,,,,,,2,6.4772,,0,0,20,20,50,1,stimuli/stim_20210919_power2amp/equal_lnn_AM2Hz_s45_48.m4a,,,,,,,,,,,,
,,,,,,,,,,,,41569,2021-10-02_21h09.31.967,judgeSpeechMusic_20210919_logNormShiftAmp_detection_fixFreq,2020.1.2,MacIntel,60,,,,,,,,,,,,,,,,,,1,5.8935,,0,0,21,21,25,1,stimuli/stim_20210919_power2amp/equal_lnn_AM2Hz_s25_30.m4a,,,,,,,,,,,,
,,,,,,,,,,,,41569,2021-10-02_21h09.31.967,judgeSpeechMusic_20210919_logNormShiftAmp_detection_fixFreq,2020.1.2,MacIntel,60,,,,,,,,,,,,,,,,,,2,6.4899,3,1,0,22,22,56,1,stimuli/stim_20210919_power2amp/equal_lnn_AM2Hz_s45_38.m4a,1.0499,,,,,,,,,,,
,,,,,,,,,,,,41569,2021-10-02_21h09.31.967,judgeSpeechMusic_20210919_logNormShiftAmp_detection_fixFreq,2020.1.2,MacIntel,60,,,,,,,,,,,,,,,,,,1,6.5029,,0,0,23,23,16,1,stimuli/stim_20210919_power2amp/equal_lnn_AM2Hz_s25_13.m4a,,,,,,,,,,,,
,,,,,,,,,,,,41569,2021-10-02_21h09.31.967,judgeSpeechMusic_20210919_logNormShiftAmp_detection_fixFreq,2020.1.2,MacIntel,60,,,,,,,,,,,,,,,,,,1,6.3572,,0,0,24,24,7,1,stimuli/stim_20210919_power2amp/equal_lnn_AM2Hz_s15_28.m4a,,,,,,,,,,,,
,,,,,,,,,,,,41569,2021-10-02_21h09.31.967,judgeSpeechMusic_20210919_logNormShiftAmp_detection_fixFreq,2020.1.2,MacIntel,60,,,,,,,,,,,,,,,,,,2,9.3539,,0,0,25,25,6,1,stimuli/stim_20210919_power2amp/equal_lnn_AM2Hz_s15_43.m4a,,,,,,,,,,,,
,,,,,,,,,,,,41569,2021-10-02_21h09.31.967,judgeSpeechMusic_20210919_logNormShiftAmp_detection_fixFreq,2020.1.2,MacIntel,60,,,,,,,,,,,,,,,,,,1,6.3604,,0,0,26,26,72,1,stimuli/stim_20210919_power2amp/equal_lnn_AM2Hz_s55_4.m4a,,,,,,,,,,,,
,,,,,,,,,,,,41569,2021-10-02_21h09.31.967,judgeSpeechMusic_20210919_logNormShiftAmp_detection_fixFreq,2020.1.2,MacIntel,60,,,,,,,,,,,,,,,,,,1,5.7252,,0,0,27,27,51,1,stimuli/stim_20210919_power2amp/equal_lnn_AM2Hz_s45_3.m4a,,,,,,,,,,,,
,,,,,,,,,,,,41569,2021-10-02_21h09.31.967,judgeSpeechMusic_20210919_logNormShiftAmp_detection_fixFreq,2020.1.2,MacIntel,60,,,,,,,,,,,,,,,,,,1,5.6943,,0,0,28,28,31,1,stimuli/stim_20210919_power2amp/equal_lnn_AM2Hz_s35_11.m4a,,,,,,,,,,,,
,,,,,,,,,,,,41569,2021-10-02_21h09.31.967,judgeSpeechMusic_20210919_logNormShiftAmp_detection_fixFreq,2020.1.2,MacIntel,60,,,,,,,,,,,,,,,,,,1,5.7798,,0,0,29,29,65,1,stimuli/stim_20210919_power2amp/equal_lnn_AM2Hz_s55_37.m4a,,,,,,,,,,,,
,,,,,,,,,,,,41569,2021-10-02_21h09.31.967,judgeSpeechMusic_20210919_logNormShiftAmp_detection_fixFreq,2020.1.2,MacIntel,60,,,,,,,,,,,,,,,,,,1,5.856,,0,0,30,30,22,1,stimuli/stim_20210919_power2amp/equal_lnn_AM2Hz_s25_24.m4a,,,,,,,,,,,,
,,,,,,,,,,,,41569,2021-10-02_21h09.31.967,judgeSpeechMusic_20210919_logNormShiftAmp_detection_fixFreq,2020.1.2,MacIntel,60,,,,,,,,,,,,,,,,,,1,5.9047,,0,0,31,31,11,1,stimuli/stim_20210919_power2amp/equal_lnn_AM2Hz_s15_25.m4a,,,,,,,,,,,,
,,,,,,,,,,,,41569,2021-10-02_21h09.31.967,judgeSpeechMusic_20210919_logNormShiftAmp_detection_fixFreq,2020.1.2,MacIntel,60,,,,,,,,,,,,,,,,,,2,6.761,,0,0,32,32,49,1,stimuli/stim_20210919_power2amp/equal_lnn_AM2Hz_s45_6.m4a,,,,,,,,,,,,
,,,,,,,,,,,,41569,2021-10-02_21h09.31.967,judgeSpeechMusic_20210919_logNormShiftAmp_detection_fixFreq,2020.1.2,MacIntel,60,,,,,,,,,,,,,,,,,,1,7.0445,,0,0,33,33,74,1,stimuli/stim_20210919_power2amp/equal_lnn_AM2Hz_s55_5.m4a,,,,,,,,,,,,
,,,,,,,,,,,,41569,2021-10-02_21h09.31.967,judgeSpeechMusic_20210919_logNormShiftAmp_detection_fixFreq,2020.1.2,MacIntel,60,,,,,,,,,,,,,,,,,,2,6.5587,,0,0,34,34,57,1,stimuli/stim_20210919_power2amp/equal_lnn_AM2Hz_s45_34.m4a,,,,,,,,,,,,
,,,,,,,,,,,,41569,2021-10-02_21h09.31.967,judgeSpeechMusic_20210919_logNormShiftAmp_detection_fixFreq,2020.1.2,MacIntel,60,,,,,,,,,,,,,,,,,,2,6.8601,,0,0,35,35,3,1,stimuli/stim_20210919_power2amp/equal_lnn_AM2Hz_s15_4.m4a,,,,,,,,,,,,
,,,,,,,,,,,,41569,2021-10-02_21h09.31.967,judgeSpeechMusic_20210919_logNormShiftAmp_detection_fixFreq,2020.1.2,MacIntel,60,,,,,,,,,,,,,,,,,,1,6.3226,,0,0,36,36,23,1,stimuli/stim_20210919_power2amp/equal_lnn_AM2Hz_s25_28.m4a,,,,,,,,,,,,
,,,,,,,,,,,,41569,2021-10-02_21h09.31.967,judgeSpeechMusic_20210919_logNormShiftAmp_detection_fixFreq,2020.1.2,MacIntel,60,,,,,,,,,,,,,,,,,,1,5.9114,,0,0,37,37,73,1,stimuli/stim_20210919_power2amp/equal_lnn_AM2Hz_s55_35.m4a,,,,,,,,,,,,
,,,,,,,,,,,,41569,2021-10-02_21h09.31.967,judgeSpeechMusic_20210919_logNormShiftAmp_detection_fixFreq,2020.1.2,MacIntel,60,,,,,,,,,,,,,,,,,,1,5.8555,,0,0,38,38,37,1,stimuli/stim_20210919_power2amp/equal_lnn_AM2Hz_s35_29.m4a,,,,,,,,,,,,
,,,,,,,,,,,,41569,2021-10-02_21h09.31.967,judgeSpeechMusic_20210919_logNormShiftAmp_detection_fixFreq,2020.1.2,MacIntel,60,,,,,,,,,,,,,,,,,,2,6.6756,,0,0,39,39,20,1,stimuli/stim_20210919_power2amp/equal_lnn_AM2Hz_s25_7.m4a,,,,,,,,,,,,
,,,,,,,,,,,,41569,2021-10-02_21h09.31.967,judgeSpeechMusic_20210919_logNormShiftAmp_detection_fixFreq,2020.1.2,MacIntel,60,,,,,,,,,,,,,,,,,,1,6.4955,3,1,0,40,40,68,1,stimuli/stim_20210919_power2amp/equal_lnn_AM2Hz_s55_48.m4a,1.2729,,,,,,,,,,,
,,,,,,,,,,,,41569,2021-10-02_21h09.31.967,judgeSpeechMusic_20210919_logNormShiftAmp_detection_fixFreq,2020.1.2,MacIntel,60,,,,,,,,,,,,,,,,,,1,5.6807,,0,0,41,41,21,1,stimuli/stim_20210919_power2amp/equal_lnn_AM2Hz_s25_45.m4a,,,,,,,,,,,,
,,,,,,,,,,,,41569,2021-10-02_21h09.31.967,judgeSpeechMusic_20210919_logNormShiftAmp_detection_fixFreq,2020.1.2,MacIntel,60,,,,,,,,,,,,,,,,,,2,7.3749,,0,0,42,42,24,1,stimuli/stim_20210919_power2amp/equal_lnn_AM2Hz_s25_6.m4a,,,,,,,,,,,,
,,,,,,,,,,,,41569,2021-10-02_21h09.31.967,judgeSpeechMusic_20210919_logNormShiftAmp_detection_fixFreq,2020.1.2,MacIntel,60,,,,,,,,,,,,,,,,,,1,5.9589,,0,0,43,43,43,1,stimuli/stim_20210919_power2amp/equal_lnn_AM2Hz_s35_23.m4a,,,,,,,,,,,,
,,,,,,,,,,,,41569,2021-10-02_21h09.31.967,judgeSpeechMusic_20210919_logNormShiftAmp_detection_fixFreq,2020.1.2,MacIntel,60,,,,,,,,,,,,,,,,,,1,5.8607,,0,0,44,44,5,1,stimuli/stim_20210919_power2amp/equal_lnn_AM2Hz_s15_35.m4a,,,,,,,,,,,,
,,,,,,,,,,,,41569,2021-10-02_21h09.31.967,judgeSpeechMusic_20210919_logNormShiftAmp_detection_fixFreq,2020.1.2,MacIntel,60,,,,,,,,,,,,,,,,,,1,5.7614,,0,0,45,45,40,1,stimuli/stim_20210919_power2amp/equal_lnn_AM2Hz_s35_44.m4a,,,,,,,,,,,,
,,,,,,,,,,,,41569,2021-10-02_21h09.31.967,judgeSpeechMusic_20210919_logNormShiftAmp_detection_fixFreq,2020.1.2,MacIntel,60,,,,,,,,,,,,,,,,,,1,5.7929,,0,0,46,46,47,1,stimuli/stim_20210919_power2amp/equal_lnn_AM2Hz_s45_22.m4a,,,,,,,,,,,,
,,,,,,,,,,,,41569,2021-10-02_21h09.31.967,judgeSpeechMusic_20210919_logNormShiftAmp_detection_fixFreq,2020.1.2,MacIntel,60,,,,,,,,,,,,,,,,,,1,6.0034,,0,0,47,47,38,1,stimuli/stim_20210919_power2amp/equal_lnn_AM2Hz_s35_14.m4a,,,,,,,,,,,,
,,,,,,,,,,,,41569,2021-10-02_21h09.31.967,judgeSpeechMusic_20210919_logNormShiftAmp_detection_fixFreq,2020.1.2,MacIntel,60,,,,,,,,,,,,,,,,,,2,7.3085,,0,0,48,48,15,1,stimuli/stim_20210919_power2amp/equal_lnn_AM2Hz_s25_48.m4a,,,,,,,,,,,,
,,,,,,,,,,,,41569,2021-10-02_21h09.31.967,judgeSpeechMusic_20210919_logNormShiftAmp_detection_fixFreq,2020.1.2,MacIntel,60,,,,,,,,,,,,,,,,,,1,6.1775,,0,0,49,49,63,1,stimuli/stim_20210919_power2amp/equal_lnn_AM2Hz_s55_24.m4a,,,,,,,,,,,,
,,,,,,,,,,,,41569,2021-10-02_21h09.31.967,judgeSpeechMusic_20210919_logNormShiftAmp_detection_fixFreq,2020.1.2,MacIntel,60,,,,,,,,,,,,,,,,,,1,5.7249,,0,0,50,50,33,1,stimuli/stim_20210919_power2amp/equal_lnn_AM2Hz_s35_17.m4a,,,,,,,,,,,,
,,,,,,,,,,,,41569,2021-10-02_21h09.31.967,judgeSpeechMusic_20210919_logNormShiftAmp_detection_fixFreq,2020.1.2,MacIntel,60,,,,,,,,,,,,,,,,,,2,7.6273,,0,0,51,51,59,1,stimuli/stim_20210919_power2amp/equal_lnn_AM2Hz_s45_29.m4a,,,,,,,,,,,,
,,,,,,,,,,,,41569,2021-10-02_21h09.31.967,judgeSpeechMusic_20210919_logNormShiftAmp_detection_fixFreq,2020.1.2,MacIntel,60,,,,,,,,,,,,,,,,,,2,6.037,,0,0,52,52,0,1,stimuli/stim_20210919_power2amp/equal_lnn_AM2Hz_s15_24.m4a,,,,,,,,,,,,
,,,,,,,,,,,,41569,2021-10-02_21h09.31.967,judgeSpeechMusic_20210919_logNormShiftAmp_detection_fixFreq,2020.1.2,MacIntel,60,,,,,,,,,,,,,,,,,,2,5.9433,,0,0,53,53,27,1,stimuli/stim_20210919_power2amp/equal_lnn_AM2Hz_s25_11.m4a,,,,,,,,,,,,
,,,,,,,,,,,,41569,2021-10-02_21h09.31.967,judgeSpeechMusic_20210919_logNormShiftAmp_detection_fixFreq,2020.1.2,MacIntel,60,,,,,,,,,,,,,,,,,,1,9.1919,,0,0,54,54,52,1,stimuli/stim_20210919_power2amp/equal_lnn_AM2Hz_s45_11.m4a,,,,,,,,,,,,
,,,,,,,,,,,,41569,2021-10-02_21h09.31.967,judgeSpeechMusic_20210919_logNormShiftAmp_detection_fixFreq,2020.1.2,MacIntel,60,,,,,,,,,,,,,,,,,,1,5.8856,,0,0,55,55,39,1,stimuli/stim_20210919_power2amp/equal_lnn_AM2Hz_s35_41.m4a,,,,,,,,,,,,
,,,,,,,,,,,,41569,2021-10-02_21h09.31.967,judgeSpeechMusic_20210919_logNormShiftAmp_detection_fixFreq,2020.1.2,MacIntel,60,,,,,,,,,,,,,,,,,,1,5.9574,,0,0,56,56,66,1,stimuli/stim_20210919_power2amp/equal_lnn_AM2Hz_s55_15.m4a,,,,,,,,,,,,
,,,,,,,,,,,,41569,2021-10-02_21h09.31.967,judgeSpeechMusic_20210919_logNormShiftAmp_detection_fixFreq,2020.1.2,MacIntel,60,,,,,,,,,,,,,,,,,,1,5.9408,,0,0,57,57,60,1,stimuli/stim_20210919_power2amp/equal_lnn_AM2Hz_s55_11.m4a,,,,,,,,,,,,
,,,,,,,,,,,,41569,2021-10-02_21h09.31.967,judgeSpeechMusic_20210919_logNormShiftAmp_detection_fixFreq,2020.1.2,MacIntel,60,,,,,,,,,,,,,,,,,,1,5.9906,,0,0,58,58,53,1,stimuli/stim_20210919_power2amp/equal_lnn_AM2Hz_s45_1.m4a,,,,,,,,,,,,
,,,,,,,,,,,,41569,2021-10-02_21h09.31.967,judgeSpeechMusic_20210919_logNormShiftAmp_detection_fixFreq,2020.1.2,MacIntel,60,,,,,,,,,,,,,,,,,,1,6.5099,2,1,0,59,59,67,1,stimuli/stim_20210919_power2amp/equal_lnn_AM2Hz_s55_19.m4a,1.38,,,,,,,,,,,
,,,,,,,,,,,,41569,2021-10-02_21h09.31.967,judgeSpeechMusic_20210919_logNormShiftAmp_detection_fixFreq,2020.1.2,MacIntel,60,,,,,,,,,,,,,,,,,,1,6.0438,,0,0,60,60,9,1,stimuli/stim_20210919_power2amp/equal_lnn_AM2Hz_s15_9.m4a,,,,,,,,,,,,
,,,,,,,,,,,,41569,2021-10-02_21h09.31.967,judgeSpeechMusic_20210919_logNormShiftAmp_detection_fixFreq,2020.1.2,MacIntel,60,,,,,,,,,,,,,,,,,,1,6.0126,,0,0,61,61,62,1,stimuli/stim_20210919_power2amp/equal_lnn_AM2Hz_s55_42.m4a,,,,,,,,,,,,
,,,,,,,,,,,,41569,2021-10-02_21h09.31.967,judgeSpeechMusic_20210919_logNormShiftAmp_detection_fixFreq,2020.1.2,MacIntel,60,,,,,,,,,,,,,,,,,,2,6.1948,,0,0,62,62,26,1,stimuli/stim_20210919_power2amp/equal_lnn_AM2Hz_s25_32.m4a,,,,,,,,,,,,
,,,,,,,,,,,,41569,2021-10-02_21h09.31.967,judgeSpeechMusic_20210919_logNormShiftAmp_detection_fixFreq,2020.1.2,MacIntel,60,,,,,,,,,,,,,,,,,,2,6.5255,,0,0,63,63,12,1,stimuli/stim_20210919_power2amp/equal_lnn_AM2Hz_s15_2.m4a,,,,,,,,,,,,
,,,,,,,,,,,,41569,2021-10-02_21h09.31.967,judgeSpeechMusic_20210919_logNormShiftAmp_detection_fixFreq,2020.1.2,MacIntel,60,,,,,,,,,,,,,,,,,,1,6.412,,0,0,64,64,42,1,stimuli/stim_20210919_power2amp/equal_lnn_AM2Hz_s35_26.m4a,,,,,,,,,,,,
,,,,,,,,,,,,41569,2021-10-02_21h09.31.967,judgeSpeechMusic_20210919_logNormShiftAmp_detection_fixFreq,2020.1.2,MacIntel,60,,,,,,,,,,,,,,,,,,1,5.578,,0,0,65,65,35,1,stimuli/stim_20210919_power2amp/equal_lnn_AM2Hz_s35_39.m4a,,,,,,,,,,,,
,,,,,,,,,,,,41569,2021-10-02_21h09.31.967,judgeSpeechMusic_20210919_logNormShiftAmp_detection_fixFreq,2020.1.2,MacIntel,60,,,,,,,,,,,,,,,,,,1,5.8454,,0,0,66,66,18,1,stimuli/stim_20210919_power2amp/equal_lnn_AM2Hz_s25_12.m4a,,,,,,,,,,,,
,,,,,,,,,,,,41569,2021-10-02_21h09.31.967,judgeSpeechMusic_20210919_logNormShiftAmp_detection_fixFreq,2020.1.2,MacIntel,60,,,,,,,,,,,,,,,,,,1,5.6882,,0,0,67,67,14,1,stimuli/stim_20210919_power2amp/equal_lnn_AM2Hz_s15_30.m4a,,,,,,,,,,,,
,,,,,,,,,,,,41569,2021-10-02_21h09.31.967,judgeSpeechMusic_20210919_logNormShiftAmp_detection_fixFreq,2020.1.2,MacIntel,60,,,,,,,,,,,,,,,,,,1,5.9102,,0,0,68,68,69,1,stimuli/stim_20210919_power2amp/equal_lnn_AM2Hz_s55_25.m4a,,,,,,,,,,,,
,,,,,,,,,,,,41569,2021-10-02_21h09.31.967,judgeSpeechMusic_20210919_logNormShiftAmp_detection_fixFreq,2020.1.2,MacIntel,60,,,,,,,,,,,,,,,,,,1,5.9619,,0,0,69,69,61,1,stimuli/stim_20210919_power2amp/equal_lnn_AM2Hz_s55_16.m4a,,,,,,,,,,,,
,,,,,,,,,,,,41569,2021-10-02_21h09.31.967,judgeSpeechMusic_20210919_logNormShiftAmp_detection_fixFreq,2020.1.2,MacIntel,60,,,,,,,,,,,,,,,,,,1,7.0461,,0,0,70,70,8,1,stimuli/stim_20210919_power2amp/equal_lnn_AM2Hz_s15_11.m4a,,,,,,,,,,,,
,,,,,,,,,,,,41569,2021-10-02_21h09.31.967,judgeSpeechMusic_20210919_logNormShiftAmp_detection_fixFreq,2020.1.2,MacIntel,60,,,,,,,,,,,,,,,,,,2,5.6064,,0,0,71,71,36,1,stimuli/stim_20210919_power2amp/equal_lnn_AM2Hz_s35_2.m4a,,,,,,,,,,,,
,,,,,,,,,,,,41569,2021-10-02_21h09.31.967,judgeSpeechMusic_20210919_logNormShiftAmp_detection_fixFreq,2020.1.2,MacIntel,60,,,,,,,,,,,,,,,,,,2,5.5593,,0,0,72,72,32,1,stimuli/stim_20210919_power2amp/equal_lnn_AM2Hz_s35_38.m4a,,,,,,,,,,,,
,,,,,,,,,,,,41569,2021-10-02_21h09.31.967,judgeSpeechMusic_20210919_logNormShiftAmp_detection_fixFreq,2020.1.2,MacIntel,60,,,,,,,,,,,,,,,,,,2,5.6983,,0,0,73,73,29,1,stimuli/stim_20210919_power2amp/equal_lnn_AM2Hz_s25_19.m4a,,,,,,,,,,,,
,,,,,,,,,,,,41569,2021-10-02_21h09.31.967,judgeSpeechMusic_20210919_logNormShiftAmp_detection_fixFreq,2020.1.2,MacIntel,60,,,,,,,,,,,,,,,,,,2,5.7418,,0,0,74,74,19,1,stimuli/stim_20210919_power2amp/equal_lnn_AM2Hz_s25_25.m4a,,,,,,,,,,,,
,,,,,,,,,,,,41569,2021-10-02_21h09.31.967,judgeSpeechMusic_20210919_logNormShiftAmp_detection_fixFreq,2020.1.2,MacIntel,60,,,,,,,,,,,,,,,,,,,,,,,,,,,,,space,0.7118,1,0,2,1,1,SPEECH,stimuli/SPEECH.jpg,,
,,,,,,,,,,,,41569,2021-10-02_21h09.31.967,judgeSpeechMusic_20210919_logNormShiftAmp_detection_fixFreq,2020.1.2,MacIntel,60,,,,,,0,0,0,0,1,1,stimuli/stim_20210919_power2amp/equal_lnn_AM_training2Hz_s30.m4a,,,,,,,,,,,,,,,,,,,,,,,,,,,
,,,,,,,,,,,,41569,2021-10-02_21h09.31.967,judgeSpeechMusic_20210919_logNormShiftAmp_detection_fixFreq,2020.1.2,MacIntel,60,,,,,,,,,,,,,,space,1.3848,space,0.366,2,6.2928,,0,0,0,0,22,1,stimuli/stim_20210919_power2amp/equal_lnn_AM2Hz_s25_24.m4a,,,,,,,,,,,,
,,,,,,,,,,,,41569,2021-10-02_21h09.31.967,judgeSpeechMusic_20210919_logNormShiftAmp_detection_fixFreq,2020.1.2,MacIntel,60,,,,,,,,,,,,,,,,,,2,5.6286,,0,0,1,1,41,1,stimuli/stim_20210919_power2amp/equal_lnn_AM2Hz_s35_13.m4a,,,,,,,,,,,,
,,,,,,,,,,,,41569,2021-10-02_21h09.31.967,judgeSpeechMusic_20210919_logNormShiftAmp_detection_fixFreq,2020.1.2,MacIntel,60,,,,,,,,,,,,,,,,,,2,5.9568,,0,0,2,2,58,1,stimuli/stim_20210919_power2amp/equal_lnn_AM2Hz_s45_20.m4a,,,,,,,,,,,,
,,,,,,,,,,,,41569,2021-10-02_21h09.31.967,judgeSpeechMusic_20210919_logNormShiftAmp_detection_fixFreq,2020.1.2,MacIntel,60,,,,,,,,,,,,,,,,,,2,5.6957,,0,0,3,3,59,1,stimuli/stim_20210919_power2amp/equal_lnn_AM2Hz_s45_29.m4a,,,,,,,,,,,,
,,,,,,,,,,,,41569,2021-10-02_21h09.31.967,judgeSpeechMusic_20210919_logNormShiftAmp_detection_fixFreq,2020.1.2,MacIntel,60,,,,,,,,,,,,,,,,,,1,5.9946,,0,0,4,4,26,1,stimuli/stim_20210919_power2amp/equal_lnn_AM2Hz_s25_32.m4a,,,,,,,,,,,,
,,,,,,,,,,,,41569,2021-10-02_21h09.31.967,judgeSpeechMusic_20210919_logNormShiftAmp_detection_fixFreq,2020.1.2,MacIntel,60,,,,,,,,,,,,,,,,,,1,5.7735,,0,0,5,5,20,1,stimuli/stim_20210919_power2amp/equal_lnn_AM2Hz_s25_7.m4a,,,,,,,,,,,,
,,,,,,,,,,,,41569,2021-10-02_21h09.31.967,judgeSpeechMusic_20210919_logNormShiftAmp_detection_fixFreq,2020.1.2,MacIntel,60,,,,,,,,,,,,,,,,,,1,6.741,,0,0,6,6,39,1,stimuli/stim_20210919_power2amp/equal_lnn_AM2Hz_s35_41.m4a,,,,,,,,,,,,
,,,,,,,,,,,,41569,2021-10-02_21h09.31.967,judgeSpeechMusic_20210919_logNormShiftAmp_detection_fixFreq,2020.1.2,MacIntel,60,,,,,,,,,,,,,,,,,,1,5.9118,,0,0,7,7,48,1,stimuli/stim_20210919_power2amp/equal_lnn_AM2Hz_s45_33.m4a,,,,,,,,,,,,
,,,,,,,,,,,,41569,2021-10-02_21h09.31.967,judgeSpeechMusic_20210919_logNormShiftAmp_detection_fixFreq,2020.1.2,MacIntel,60,,,,,,,,,,,,,,,,,,1,6.0613,,0,0,8,8,0,1,stimuli/stim_20210919_power2amp/equal_lnn_AM2Hz_s15_24.m4a,,,,,,,,,,,,
,,,,,,,,,,,,41569,2021-10-02_21h09.31.967,judgeSpeechMusic_20210919_logNormShiftAmp_detection_fixFreq,2020.1.2,MacIntel,60,,,,,,,,,,,,,,,,,,1,5.8265,,0,0,9,9,35,1,stimuli/stim_20210919_power2amp/equal_lnn_AM2Hz_s35_39.m4a,,,,,,,,,,,,
,,,,,,,,,,,,41569,2021-10-02_21h09.31.967,judgeSpeechMusic_20210919_logNormShiftAmp_detection_fixFreq,2020.1.2,MacIntel,60,,,,,,,,,,,,,,,,,,1,5.7156,,0,0,10,10,14,1,stimuli/stim_20210919_power2amp/equal_lnn_AM2Hz_s15_30.m4a,,,,,,,,,,,,
,,,,,,,,,,,,41569,2021-10-02_21h09.31.967,judgeSpeechMusic_20210919_logNormShiftAmp_detection_fixFreq,2020.1.2,MacIntel,60,,,,,,,,,,,,,,,,,,2,5.9743,,0,0,11,11,1,1,stimuli/stim_20210919_power2amp/equal_lnn_AM2Hz_s15_13.m4a,,,,,,,,,,,,
,,,,,,,,,,,,41569,2021-10-02_21h09.31.967,judgeSpeechMusic_20210919_logNormShiftAmp_detection_fixFreq,2020.1.2,MacIntel,60,,,,,,,,,,,,,,,,,,2,5.6252,,0,0,12,12,19,1,stimuli/stim_20210919_power2amp/equal_lnn_AM2Hz_s25_25.m4a,,,,,,,,,,,,
,,,,,,,,,,,,41569,2021-10-02_21h09.31.967,judgeSpeechMusic_20210919_logNormShiftAmp_detection_fixFreq,2020.1.2,MacIntel,60,,,,,,,,,,,,,,,,,,1,6.444,,0,0,13,13,54,1,stimuli/stim_20210919_power2amp/equal_lnn_AM2Hz_s45_50.m4a,,,,,,,,,,,,
,,,,,,,,,,,,41569,2021-10-02_21h09.31.967,judgeSpeechMusic_20210919_logNormShiftAmp_detection_fixFreq,2020.1.2,MacIntel,60,,,,,,,,,,,,,,,,,,1,5.6621,,0,0,14,14,45,1,stimuli/stim_20210919_power2amp/equal_lnn_AM2Hz_s45_37.m4a,,,,,,,,,,,,
,,,,,,,,,,,,41569,2021-10-02_21h09.31.967,judgeSpeechMusic_20210919_logNormShiftAmp_detection_fixFreq,2020.1.2,MacIntel,60,,,,,,,,,,,,,,,,,,1,6.2594,,0,0,15,15,63,1,stimuli/stim_20210919_power2amp/equal_lnn_AM2Hz_s55_24.m4a,,,,,,,,,,,,
,,,,,,,,,,,,41569,2021-10-02_21h09.31.967,judgeSpeechMusic_20210919_logNormShiftAmp_detection_fixFreq,2020.1.2,MacIntel,60,,,,,,,,,,,,,,,,,,1,8.2294,,0,0,16,16,13,1,stimuli/stim_20210919_power2amp/equal_lnn_AM2Hz_s15_50.m4a,,,,,,,,,,,,
,,,,,,,,,,,,41569,2021-10-02_21h09.31.967,judgeSpeechMusic_20210919_logNormShiftAmp_detection_fixFreq,2020.1.2,MacIntel,60,,,,,,,,,,,,,,,,,,1,6.9632,,0,0,17,17,5,1,stimuli/stim_20210919_power2amp/equal_lnn_AM2Hz_s15_35.m4a,,,,,,,,,,,,
,,,,,,,,,,,,41569,2021-10-02_21h09.31.967,judgeSpeechMusic_20210919_logNormShiftAmp_detection_fixFreq,2020.1.2,MacIntel,60,,,,,,,,,,,,,,,,,,1,6.3749,,0,0,18,18,34,1,stimuli/stim_20210919_power2amp/equal_lnn_AM2Hz_s35_28.m4a,,,,,,,,,,,,
,,,,,,,,,,,,41569,2021-10-02_21h09.31.967,judgeSpeechMusic_20210919_logNormShiftAmp_detection_fixFreq,2020.1.2,MacIntel,60,,,,,,,,,,,,,,,,,,1,5.7112,,0,0,19,19,71,1,stimuli/stim_20210919_power2amp/equal_lnn_AM2Hz_s55_50.m4a,,,,,,,,,,,,
,,,,,,,,,,,,41569,2021-10-02_21h09.31.967,judgeSpeechMusic_20210919_logNormShiftAmp_detection_fixFreq,2020.1.2,MacIntel,60,,,,,,,,,,,,,,,,,,1,5.9776,,0,0,20,20,47,1,stimuli/stim_20210919_power2amp/equal_lnn_AM2Hz_s45_22.m4a,,,,,,,,,,,,
,,,,,,,,,,,,41569,2021-10-02_21h09.31.967,judgeSpeechMusic_20210919_logNormShiftAmp_detection_fixFreq,2020.1.2,MacIntel,60,,,,,,,,,,,,,,,,,,1,5.6952,,0,0,21,21,44,1,stimuli/stim_20210919_power2amp/equal_lnn_AM2Hz_s35_4.m4a,,,,,,,,,,,,
,,,,,,,,,,,,41569,2021-10-02_21h09.31.967,judgeSpeechMusic_20210919_logNormShiftAmp_detection_fixFreq,2020.1.2,MacIntel,60,,,,,,,,,,,,,,,,,,2,6.3627,3,1,0,22,22,52,1,stimuli/stim_20210919_power2amp/equal_lnn_AM2Hz_s45_11.m4a,1.7798,,,,,,,,,,,
,,,,,,,,,,,,41569,2021-10-02_21h09.31.967,judgeSpeechMusic_20210919_logNormShiftAmp_detection_fixFreq,2020.1.2,MacIntel,60,,,,,,,,,,,,,,,,,,1,6.6776,,0,0,23,23,25,1,stimuli/stim_20210919_power2amp/equal_lnn_AM2Hz_s25_30.m4a,,,,,,,,,,,,
,,,,,,,,,,,,41569,2021-10-02_21h09.31.967,judgeSpeechMusic_20210919_logNormShiftAmp_detection_fixFreq,2020.1.2,MacIntel,60,,,,,,,,,,,,,,,,,,1,6.7079,,0,0,24,24,6,1,stimuli/stim_20210919_power2amp/equal_lnn_AM2Hz_s15_43.m4a,,,,,,,,,,,,
,,,,,,,,,,,,41569,2021-10-02_21h09.31.967,judgeSpeechMusic_20210919_logNormShiftAmp_detection_fixFreq,2020.1.2,MacIntel,60,,,,,,,,,,,,,,,,,,2,7.6936,,0,0,25,25,73,1,stimuli/stim_20210919_power2amp/equal_lnn_AM2Hz_s55_35.m4a,,,,,,,,,,,,
,,,,,,,,,,,,41569,2021-10-02_21h09.31.967,judgeSpeechMusic_20210919_logNormShiftAmp_detection_fixFreq,2020.1.2,MacIntel,60,,,,,,,,,,,,,,,,,,1,6.1786,,0,0,26,26,31,1,stimuli/stim_20210919_power2amp/equal_lnn_AM2Hz_s35_11.m4a,,,,,,,,,,,,
,,,,,,,,,,,,41569,2021-10-02_21h09.31.967,judgeSpeechMusic_20210919_logNormShiftAmp_detection_fixFreq,2020.1.2,MacIntel,60,,,,,,,,,,,,,,,,,,1,5.6908,,0,0,27,27,65,1,stimuli/stim_20210919_power2amp/equal_lnn_AM2Hz_s55_37.m4a,,,,,,,,,,,,
,,,,,,,,,,,,41569,2021-10-02_21h09.31.967,judgeSpeechMusic_20210919_logNormShiftAmp_detection_fixFreq,2020.1.2,MacIntel,60,,,,,,,,,,,,,,,,,,1,5.9763,,0,0,28,28,10,1,stimuli/stim_20210919_power2amp/equal_lnn_AM2Hz_s15_3.m4a,,,,,,,,,,,,
,,,,,,,,,,,,41569,2021-10-02_21h09.31.967,judgeSpeechMusic_20210919_logNormShiftAmp_detection_fixFreq,2020.1.2,MacIntel,60,,,,,,,,,,,,,,,,,,1,6.3112,,0,0,29,29,9,1,stimuli/stim_20210919_power2amp/equal_lnn_AM2Hz_s15_9.m4a,,,,,,,,,,,,
,,,,,,,,,,,,41569,2021-10-02_21h09.31.967,judgeSpeechMusic_20210919_logNormShiftAmp_detection_fixFreq,2020.1.2,MacIntel,60,,,,,,,,,,,,,,,,,,1,6.9588,,0,0,30,30,46,1,stimuli/stim_20210919_power2amp/equal_lnn_AM2Hz_s45_35.m4a,,,,,,,,,,,,
,,,,,,,,,,,,41569,2021-10-02_21h09.31.967,judgeSpeechMusic_20210919_logNormShiftAmp_detection_fixFreq,2020.1.2,MacIntel,60,,,,,,,,,,,,,,,,,,2,6.1272,,0,0,31,31,60,1,stimuli/stim_20210919_power2amp/equal_lnn_AM2Hz_s55_11.m4a,,,,,,,,,,,,
,,,,,,,,,,,,41569,2021-10-02_21h09.31.967,judgeSpeechMusic_20210919_logNormShiftAmp_detection_fixFreq,2020.1.2,MacIntel,60,,,,,,,,,,,,,,,,,,2,6.1939,,0,0,32,32,72,1,stimuli/stim_20210919_power2amp/equal_lnn_AM2Hz_s55_4.m4a,,,,,,,,,,,,
,,,,,,,,,,,,41569,2021-10-02_21h09.31.967,judgeSpeechMusic_20210919_logNormShiftAmp_detection_fixFreq,2020.1.2,MacIntel,60,,,,,,,,,,,,,,,,,,2,6.0919,,0,0,33,33,32,1,stimuli/stim_20210919_power2amp/equal_lnn_AM2Hz_s35_38.m4a,,,,,,,,,,,,
,,,,,,,,,,,,41569,2021-10-02_21h09.31.967,judgeSpeechMusic_20210919_logNormShiftAmp_detection_fixFreq,2020.1.2,MacIntel,60,,,,,,,,,,,,,,,,,,1,6.9714,,0,0,34,34,61,1,stimuli/stim_20210919_power2amp/equal_lnn_AM2Hz_s55_16.m4a,,,,,,,,,,,,
,,,,,,,,,,,,41569,2021-10-02_21h09.31.967,judgeSpeechMusic_20210919_logNormShiftAmp_detection_fixFreq,2020.1.2,MacIntel,60,,,,,,,,,,,,,,,,,,2,5.8426,,0,0,35,35,2,1,stimuli/stim_20210919_power2amp/equal_lnn_AM2Hz_s15_46.m4a,,,,,,,,,,,,
,,,,,,,,,,,,41569,2021-10-02_21h09.31.967,judgeSpeechMusic_20210919_logNormShiftAmp_detection_fixFreq,2020.1.2,MacIntel,60,,,,,,,,,,,,,,,,,,2,7.8656,,0,0,36,36,23,1,stimuli/stim_20210919_power2amp/equal_lnn_AM2Hz_s25_28.m4a,,,,,,,,,,,,
,,,,,,,,,,,,41569,2021-10-02_21h09.31.967,judgeSpeechMusic_20210919_logNormShiftAmp_detection_fixFreq,2020.1.2,MacIntel,60,,,,,,,,,,,,,,,,,,1,7.6585,,0,0,37,37,66,1,stimuli/stim_20210919_power2amp/equal_lnn_AM2Hz_s55_15.m4a,,,,,,,,,,,,
,,,,,,,,,,,,41569,2021-10-02_21h09.31.967,judgeSpeechMusic_20210919_logNormShiftAmp_detection_fixFreq,2020.1.2,MacIntel,60,,,,,,,,,,,,,,,,,,1,5.8131,,0,0,38,38,11,1,stimuli/stim_20210919_power2amp/equal_lnn_AM2Hz_s15_25.m4a,,,,,,,,,,,,
,,,,,,,,,,,,41569,2021-10-02_21h09.31.967,judgeSpeechMusic_20210919_logNormShiftAmp_detection_fixFreq,2020.1.2,MacIntel,60,,,,,,,,,,,,,,,,,,2,6.8345,,0,0,39,39,55,1,stimuli/stim_20210919_power2amp/equal_lnn_AM2Hz_s45_2.m4a,,,,,,,,,,,,
,,,,,,,,,,,,41569,2021-10-02_21h09.31.967,judgeSpeechMusic_20210919_logNormShiftAmp_detection_fixFreq,2020.1.2,MacIntel,60,,,,,,,,,,,,,,,,,,1,6.7616,3,1,0,40,40,8,1,stimuli/stim_20210919_power2amp/equal_lnn_AM2Hz_s15_11.m4a,1.1129,,,,,,,,,,,
,,,,,,,,,,,,41569,2021-10-02_21h09.31.967,judgeSpeechMusic_20210919_logNormShiftAmp_detection_fixFreq,2020.1.2,MacIntel,60,,,,,,,,,,,,,,,,,,2,6.126,,0,0,41,41,42,1,stimuli/stim_20210919_power2amp/equal_lnn_AM2Hz_s35_26.m4a,,,,,,,,,,,,
,,,,,,,,,,,,41569,2021-10-02_21h09.31.967,judgeSpeechMusic_20210919_logNormShiftAmp_detection_fixFreq,2020.1.2,MacIntel,60,,,,,,,,,,,,,,,,,,1,6.6567,,0,0,42,42,30,1,stimuli/stim_20210919_power2amp/equal_lnn_AM2Hz_s35_27.m4a,,,,,,,,,,,,
,,,,,,,,,,,,41569,2021-10-02_21h09.31.967,judgeSpeechMusic_20210919_logNormShiftAmp_detection_fixFreq,2020.1.2,MacIntel,60,,,,,,,,,,,,,,,,,,1,5.6885,,0,0,43,43,74,1,stimuli/stim_20210919_power2amp/equal_lnn_AM2Hz_s55_5.m4a,,,,,,,,,,,,
,,,,,,,,,,,,41569,2021-10-02_21h09.31.967,judgeSpeechMusic_20210919_logNormShiftAmp_detection_fixFreq,2020.1.2,MacIntel,60,,,,,,,,,,,,,,,,,,1,6.1982,,0,0,44,44,12,1,stimuli/stim_20210919_power2amp/equal_lnn_AM2Hz_s15_2.m4a,,,,,,,,,,,,
,,,,,,,,,,,,41569,2021-10-02_21h09.31.967,judgeSpeechMusic_20210919_logNormShiftAmp_detection_fixFreq,2020.1.2,MacIntel,60,,,,,,,,,,,,,,,,,,2,6.4085,,0,0,45,45,64,1,stimuli/stim_20210919_power2amp/equal_lnn_AM2Hz_s55_45.m4a,,,,,,,,,,,,
,,,,,,,,,,,,41569,2021-10-02_21h09.31.967,judgeSpeechMusic_20210919_logNormShiftAmp_detection_fixFreq,2020.1.2,MacIntel,60,,,,,,,,,,,,,,,,,,2,5.7938,,0,0,46,46,36,1,stimuli/stim_20210919_power2amp/equal_lnn_AM2Hz_s35_2.m4a,,,,,,,,,,,,
,,,,,,,,,,,,41569,2021-10-02_21h09.31.967,judgeSpeechMusic_20210919_logNormShiftAmp_detection_fixFreq,2020.1.2,MacIntel,60,,,,,,,,,,,,,,,,,,1,7.064,,0,0,47,47,69,1,stimuli/stim_20210919_power2amp/equal_lnn_AM2Hz_s55_25.m4a,,,,,,,,,,,,
,,,,,,,,,,,,41569,2021-10-02_21h09.31.967,judgeSpeechMusic_20210919_logNormShiftAmp_detection_fixFreq,2020.1.2,MacIntel,60,,,,,,,,,,,,,,,,,,1,5.9435,,0,0,48,48,33,1,stimuli/stim_20210919_power2amp/equal_lnn_AM2Hz_s35_17.m4a,,,,,,,,,,,,
,,,,,,,,,,,,41569,2021-10-02_21h09.31.967,judgeSpeechMusic_20210919_logNormShiftAmp_detection_fixFreq,2020.1.2,MacIntel,60,,,,,,,,,,,,,,,,,,1,5.7774,,0,0,49,49,28,1,stimuli/stim_20210919_power2amp/equal_lnn_AM2Hz_s25_31.m4a,,,,,,,,,,,,
,,,,,,,,,,,,41569,2021-10-02_21h09.31.967,judgeSpeechMusic_20210919_logNormShiftAmp_detection_fixFreq,2020.1.2,MacIntel,60,,,,,,,,,,,,,,,,,,2,6.1787,,0,0,50,50,29,1,stimuli/stim_20210919_power2amp/equal_lnn_AM2Hz_s25_19.m4a,,,,,,,,,,,,
,,,,,,,,,,,,41569,2021-10-02_21h09.31.967,judgeSpeechMusic_20210919_logNormShiftAmp_detection_fixFreq,2020.1.2,MacIntel,60,,,,,,,,,,,,,,,,,,2,6.9412,,0,0,51,51,15,1,stimuli/stim_20210919_power2amp/equal_lnn_AM2Hz_s25_48.m4a,,,,,,,,,,,,
,,,,,,,,,,,,41569,2021-10-02_21h09.31.967,judgeSpeechMusic_20210919_logNormShiftAmp_detection_fixFreq,2020.1.2,MacIntel,60,,,,,,,,,,,,,,,,,,1,6.796,,0,0,52,52,62,1,stimuli/stim_20210919_power2amp/equal_lnn_AM2Hz_s55_42.m4a,,,,,,,,,,,,
,,,,,,,,,,,,41569,2021-10-02_21h09.31.967,judgeSpeechMusic_20210919_logNormShiftAmp_detection_fixFreq,2020.1.2,MacIntel,60,,,,,,,,,,,,,,,,,,1,5.8734,,0,0,53,53,56,1,stimuli/stim_20210919_power2amp/equal_lnn_AM2Hz_s45_38.m4a,,,,,,,,,,,,
,,,,,,,,,,,,41569,2021-10-02_21h09.31.967,judgeSpeechMusic_20210919_logNormShiftAmp_detection_fixFreq,2020.1.2,MacIntel,60,,,,,,,,,,,,,,,,,,2,6.4355,,0,0,54,54,70,1,stimuli/stim_20210919_power2amp/equal_lnn_AM2Hz_s55_18.m4a,,,,,,,,,,,,
,,,,,,,,,,,,41569,2021-10-02_21h09.31.967,judgeSpeechMusic_20210919_logNormShiftAmp_detection_fixFreq,2020.1.2,MacIntel,60,,,,,,,,,,,,,,,,,,1,6.4746,,0,0,55,55,67,1,stimuli/stim_20210919_power2amp/equal_lnn_AM2Hz_s55_19.m4a,,,,,,,,,,,,
,,,,,,,,,,,,41569,2021-10-02_21h09.31.967,judgeSpeechMusic_20210919_logNormShiftAmp_detection_fixFreq,2020.1.2,MacIntel,60,,,,,,,,,,,,,,,,,,2,6.5599,,0,0,56,56,53,1,stimuli/stim_20210919_power2amp/equal_lnn_AM2Hz_s45_1.m4a,,,,,,,,,,,,
,,,,,,,,,,,,41569,2021-10-02_21h09.31.967,judgeSpeechMusic_20210919_logNormShiftAmp_detection_fixFreq,2020.1.2,MacIntel,60,,,,,,,,,,,,,,,,,,1,7.0917,,0,0,57,57,7,1,stimuli/stim_20210919_power2amp/equal_lnn_AM2Hz_s15_28.m4a,,,,,,,,,,,,
,,,,,,,,,,,,41569,2021-10-02_21h09.31.967,judgeSpeechMusic_20210919_logNormShiftAmp_detection_fixFreq,2020.1.2,MacIntel,60,,,,,,,,,,,,,,,,,,1,6.1915,,0,0,58,58,68,1,stimuli/stim_20210919_power2amp/equal_lnn_AM2Hz_s55_48.m4a,,,,,,,,,,,,
,,,,,,,,,,,,41569,2021-10-02_21h09.31.967,judgeSpeechMusic_20210919_logNormShiftAmp_detection_fixFreq,2020.1.2,MacIntel,60,,,,,,,,,,,,,,,,,,2,6.4919,1,1,0,59,59,38,1,stimuli/stim_20210919_power2amp/equal_lnn_AM2Hz_s35_14.m4a,0.617,,,,,,,,,,,
,,,,,,,,,,,,41569,2021-10-02_21h09.31.967,judgeSpeechMusic_20210919_logNormShiftAmp_detection_fixFreq,2020.1.2,MacIntel,60,,,,,,,,,,,,,,,,,,1,6.1921,,0,0,60,60,43,1,stimuli/stim_20210919_power2amp/equal_lnn_AM2Hz_s35_23.m4a,,,,,,,,,,,,
,,,,,,,,,,,,41569,2021-10-02_21h09.31.967,judgeSpeechMusic_20210919_logNormShiftAmp_detection_fixFreq,2020.1.2,MacIntel,60,,,,,,,,,,,,,,,,,,1,6.0246,,0,0,61,61,40,1,stimuli/stim_20210919_power2amp/equal_lnn_AM2Hz_s35_44.m4a,,,,,,,,,,,,
,,,,,,,,,,,,41569,2021-10-02_21h09.31.967,judgeSpeechMusic_20210919_logNormShiftAmp_detection_fixFreq,2020.1.2,MacIntel,60,,,,,,,,,,,,,,,,,,2,6.8536,,0,0,62,62,18,1,stimuli/stim_20210919_power2amp/equal_lnn_AM2Hz_s25_12.m4a,,,,,,,,,,,,
,,,,,,,,,,,,41569,2021-10-02_21h09.31.967,judgeSpeechMusic_20210919_logNormShiftAmp_detection_fixFreq,2020.1.2,MacIntel,60,,,,,,,,,,,,,,,,,,1,5.8766,,0,0,63,63,51,1,stimuli/stim_20210919_power2amp/equal_lnn_AM2Hz_s45_3.m4a,,,,,,,,,,,,
,,,,,,,,,,,,41569,2021-10-02_21h09.31.967,judgeSpeechMusic_20210919_logNormShiftAmp_detection_fixFreq,2020.1.2,MacIntel,60,,,,,,,,,,,,,,,,,,1,5.7282,,0,0,64,64,17,1,stimuli/stim_20210919_power2amp/equal_lnn_AM2Hz_s25_44.m4a,,,,,,,,,,,,
,,,,,,,,,,,,41569,2021-10-02_21h09.31.967,judgeSpeechMusic_20210919_logNormShiftAmp_detection_fixFreq,2020.1.2,MacIntel,60,,,,,,,,,,,,,,,,,,2,6.399,,0,0,65,65,50,1,stimuli/stim_20210919_power2amp/equal_lnn_AM2Hz_s45_48.m4a,,,,,,,,,,,,
,,,,,,,,,,,,41569,2021-10-02_21h09.31.967,judgeSpeechMusic_20210919_logNormShiftAmp_detection_fixFreq,2020.1.2,MacIntel,60,,,,,,,,,,,,,,,,,,1,6.042,,0,0,66,66,21,1,stimuli/stim_20210919_power2amp/equal_lnn_AM2Hz_s25_45.m4a,,,,,,,,,,,,
,,,,,,,,,,,,41569,2021-10-02_21h09.31.967,judgeSpeechMusic_20210919_logNormShiftAmp_detection_fixFreq,2020.1.2,MacIntel,60,,,,,,,,,,,,,,,,,,1,5.9925,,0,0,67,67,37,1,stimuli/stim_20210919_power2amp/equal_lnn_AM2Hz_s35_29.m4a,,,,,,,,,,,,
,,,,,,,,,,,,41569,2021-10-02_21h09.31.967,judgeSpeechMusic_20210919_logNormShiftAmp_detection_fixFreq,2020.1.2,MacIntel,60,,,,,,,,,,,,,,,,,,1,6.1444,,0,0,68,68,57,1,stimuli/stim_20210919_power2amp/equal_lnn_AM2Hz_s45_34.m4a,,,,,,,,,,,,
,,,,,,,,,,,,41569,2021-10-02_21h09.31.967,judgeSpeechMusic_20210919_logNormShiftAmp_detection_fixFreq,2020.1.2,MacIntel,60,,,,,,,,,,,,,,,,,,1,6.6598,,0,0,69,69,24,1,stimuli/stim_20210919_power2amp/equal_lnn_AM2Hz_s25_6.m4a,,,,,,,,,,,,
,,,,,,,,,,,,41569,2021-10-02_21h09.31.967,judgeSpeechMusic_20210919_logNormShiftAmp_detection_fixFreq,2020.1.2,MacIntel,60,,,,,,,,,,,,,,,,,,2,6.4623,,0,0,70,70,4,1,stimuli/stim_20210919_power2amp/equal_lnn_AM2Hz_s15_22.m4a,,,,,,,,,,,,
,,,,,,,,,,,,41569,2021-10-02_21h09.31.967,judgeSpeechMusic_20210919_logNormShiftAmp_detection_fixFreq,2020.1.2,MacIntel,60,,,,,,,,,,,,,,,,,,1,6.4422,,0,0,71,71,27,1,stimuli/stim_20210919_power2amp/equal_lnn_AM2Hz_s25_11.m4a,,,,,,,,,,,,
,,,,,,,,,,,,41569,2021-10-02_21h09.31.967,judgeSpeechMusic_20210919_logNormShiftAmp_detection_fixFreq,2020.1.2,MacIntel,60,,,,,,,,,,,,,,,,,,2,6.5086,,0,0,72,72,16,1,stimuli/stim_20210919_power2amp/equal_lnn_AM2Hz_s25_13.m4a,,,,,,,,,,,,
,,,,,,,,,,,,41569,2021-10-02_21h09.31.967,judgeSpeechMusic_20210919_logNormShiftAmp_detection_fixFreq,2020.1.2,MacIntel,60,,,,,,,,,,,,,,,,,,1,8.3944,,0,0,73,73,3,1,stimuli/stim_20210919_power2amp/equal_lnn_AM2Hz_s15_4.m4a,,,,,,,,,,,,
,,,,,,,,,,,,41569,2021-10-02_21h09.31.967,judgeSpeechMusic_20210919_logNormShiftAmp_detection_fixFreq,2020.1.2,MacIntel,60,,,,,,,,,,,,,,,,,,1,5.7449,,0,0,74,74,49,1,stimuli/stim_20210919_power2amp/equal_lnn_AM2Hz_s45_6.m4a,,,,,,,,,,,,
,,,,,,,,,,,,41569,2021-10-02_21h09.31.967,judgeSpeechMusic_20210919_logNormShiftAmp_detection_fixFreq,2020.1.2,MacIntel,60,,,,,,,,,,,,,,,,,,,,,,,,,,,,,,,1,1,3,0,1,MUSIC,stimuli/MUSIC.jpg,,
,,,,,,,,,,,,41569,2021-10-02_21h09.31.967,judgeSpeechMusic_20210919_logNormShiftAmp_detection_fixFreq,2020.1.2,MacIntel,60,,,,,,,,,,,,,,,,,,,,,,,,,,,,,,,,,,,,,,space,3.9593
