headphoneResponse.keys,headphoneResponse.corr,headphoneResponse.rt,headphoneTrial.thisRepN,headphoneTrial.thisTrialN,headphoneTrial.thisN,headphoneTrial.thisIndex,headphoneTrial.ran,headphone_sound1,headphone_sound2,headphone_sound3,corrAns,participant,date,expName,psychopyVersion,OS,frameRate,checkInstruKey.keys,checkInstruKey.rt,trainSlider.response,trainSlider.rt,beepTrainResponse.keys,beepTrainResponse.corr,trainingTrials.thisRepN,trainingTrials.thisTrialN,trainingTrials.thisN,trainingTrials.thisIndex,trainingTrials.ran,trainAudioFile,beepTrainResponse.rt,readyReal_resp.keys,readyReal_resp.rt,checkInstru2_key.keys,checkInstru2_key.rt,ratingSlider.response,ratingSlider.rt,beepResp.keys,beepResp.corr,expTrials.thisRepN,expTrials.thisTrialN,expTrials.thisN,expTrials.thisIndex,expTrials.ran,audioFile,beepResp.rt,switchBlock_space.keys,switchBlock_space.rt,block.thisRepN,block.thisTrialN,block.thisN,block.thisIndex,block.ran,blockName,blockImage,end_resp.keys,end_resp.rt
3,1,2.0736,0,0,0,0,1,stimuli/screen_antiphase.wav,stimuli/screen_origin.wav,stimuli/screen_quiet.wav,3,41618,2021-10-02_21h22.56.432,judgeSpeechMusic_20210919_logNormShiftAmp_detection_fixFreq,2020.1.2,MacIntel,60,,,,,,,,,,,,,,,,,,,,,,,,,,,,,,,,,,,,,,,
2,1,1.1509,0,1,1,3,1,stimuli/screen_origin.wav,stimuli/screen_quiet.wav,stimuli/screen_antiphase.wav,2,41618,2021-10-02_21h22.56.432,judgeSpeechMusic_20210919_logNormShiftAmp_detection_fixFreq,2020.1.2,MacIntel,60,,,,,,,,,,,,,,,,,,,,,,,,,,,,,,,,,,,,,,,
3,1,0.7364,0,2,2,2,1,stimuli/screen_origin.wav,stimuli/screen_antiphase.wav,stimuli/screen_quiet.wav,3,41618,2021-10-02_21h22.56.432,judgeSpeechMusic_20210919_logNormShiftAmp_detection_fixFreq,2020.1.2,MacIntel,60,,,,,,,,,,,,,,,,,,,,,,,,,,,,,,,,,,,,,,,
1,1,0.9259,0,3,3,4,1,stimuli/screen_quiet.wav,stimuli/screen_antiphase.wav,stimuli/screen_origin.wav,1,41618,2021-10-02_21h22.56.432,judgeSpeechMusic_20210919_logNormShiftAmp_detection_fixFreq,2020.1.2,MacIntel,60,,,,,,,,,,,,,,,,,,,,,,,,,,,,,,,,,,,,,,,
2,1,0.8128,0,4,4,1,1,stimuli/screen_antiphase.wav,stimuli/screen_quiet.wav,stimuli/screen_origin.wav,2,41618,2021-10-02_21h22.56.432,judgeSpeechMusic_20210919_logNormShiftAmp_detection_fixFreq,2020.1.2,MacIntel,60,,,,,,,,,,,,,,,,,,,,,,,,,,,,,,,,,,,,,,,
1,1,0.3701,0,5,5,5,1,stimuli/screen_quiet.wav,stimuli/screen_origin.wav,stimuli/screen_antiphase.wav,1,41618,2021-10-02_21h22.56.432,judgeSpeechMusic_20210919_logNormShiftAmp_detection_fixFreq,2020.1.2,MacIntel,60,,,,,,,,,,,,,,,,,,,,,,,,,,,,,,,,,,,,,,,
,,,,,,,,,,,,41618,2021-10-02_21h22.56.432,judgeSpeechMusic_20210919_logNormShiftAmp_detection_fixFreq,2020.1.2,MacIntel,60,space,1.5035,1,10.439,,0,0,0,0,0,1,stimuli/stim_20210919_power2amp/equal_lnn_AM_training2Hz_s20.m4a,,,,,,,,,,,,,,,,,,,,,,,,,,,
,,,,,,,,,,,,41618,2021-10-02_21h22.56.432,judgeSpeechMusic_20210919_logNormShiftAmp_detection_fixFreq,2020.1.2,MacIntel,60,,,1,7.0494,,0,0,1,1,3,1,stimuli/stim_20210919_power2amp/equal_lnn_AM_training2Hz_s50.m4a,,,,,,,,,,,,,,,,,,,,,,,,,,,
,,,,,,,,,,,,41618,2021-10-02_21h22.56.432,judgeSpeechMusic_20210919_logNormShiftAmp_detection_fixFreq,2020.1.2,MacIntel,60,,,1,6.3027,4,1,0,2,2,2,1,stimuli/stim_20210919_power2amp/equal_lnn_AM_training2Hz_s40.m4a,21.0886,,,,,,,,,,,,,,,,,,,,,,,,,,
,,,,,,,,,,,,41618,2021-10-02_21h22.56.432,judgeSpeechMusic_20210919_logNormShiftAmp_detection_fixFreq,2020.1.2,MacIntel,60,,,2,8.238,,0,0,3,3,1,1,stimuli/stim_20210919_power2amp/equal_lnn_AM_training2Hz_s30.m4a,,,,,,,,,,,,,,,,,,,,,,,,,,,
,,,,,,,,,,,,41618,2021-10-02_21h22.56.432,judgeSpeechMusic_20210919_logNormShiftAmp_detection_fixFreq,2020.1.2,MacIntel,60,,,,,,,,,,,,,,space,5.1739,space,3.5316,1,8.7778,,0,0,0,0,59,1,stimuli/stim_20210919_power2amp/equal_lnn_AM2Hz_s45_2.m4a,,,,,,,,,,,,
,,,,,,,,,,,,41618,2021-10-02_21h22.56.432,judgeSpeechMusic_20210919_logNormShiftAmp_detection_fixFreq,2020.1.2,MacIntel,60,,,,,,,,,,,,,,,,,,2,6.3181,,0,0,1,1,67,1,stimuli/stim_20210919_power2amp/equal_lnn_AM2Hz_s55_49.m4a,,,,,,,,,,,,
,,,,,,,,,,,,41618,2021-10-02_21h22.56.432,judgeSpeechMusic_20210919_logNormShiftAmp_detection_fixFreq,2020.1.2,MacIntel,60,,,,,,,,,,,,,,,,,,1,6.2063,,0,0,2,2,36,1,stimuli/stim_20210919_power2amp/equal_lnn_AM2Hz_s35_2.m4a,,,,,,,,,,,,
,,,,,,,,,,,,41618,2021-10-02_21h22.56.432,judgeSpeechMusic_20210919_logNormShiftAmp_detection_fixFreq,2020.1.2,MacIntel,60,,,,,,,,,,,,,,,,,,1,6.0941,,0,0,3,3,35,1,stimuli/stim_20210919_power2amp/equal_lnn_AM2Hz_s35_46.m4a,,,,,,,,,,,,
,,,,,,,,,,,,41618,2021-10-02_21h22.56.432,judgeSpeechMusic_20210919_logNormShiftAmp_detection_fixFreq,2020.1.2,MacIntel,60,,,,,,,,,,,,,,,,,,2,6.0237,,0,0,4,4,18,1,stimuli/stim_20210919_power2amp/equal_lnn_AM2Hz_s25_48.m4a,,,,,,,,,,,,
,,,,,,,,,,,,41618,2021-10-02_21h22.56.432,judgeSpeechMusic_20210919_logNormShiftAmp_detection_fixFreq,2020.1.2,MacIntel,60,,,,,,,,,,,,,,,,,,2,7.4905,,0,0,5,5,62,1,stimuli/stim_20210919_power2amp/equal_lnn_AM2Hz_s55_24.m4a,,,,,,,,,,,,
,,,,,,,,,,,,41618,2021-10-02_21h22.56.432,judgeSpeechMusic_20210919_logNormShiftAmp_detection_fixFreq,2020.1.2,MacIntel,60,,,,,,,,,,,,,,,,,,1,6.2272,,0,0,6,6,55,1,stimuli/stim_20210919_power2amp/equal_lnn_AM2Hz_s45_46.m4a,,,,,,,,,,,,
,,,,,,,,,,,,41618,2021-10-02_21h22.56.432,judgeSpeechMusic_20210919_logNormShiftAmp_detection_fixFreq,2020.1.2,MacIntel,60,,,,,,,,,,,,,,,,,,2,6.5812,,0,0,7,7,74,1,stimuli/stim_20210919_power2amp/equal_lnn_AM2Hz_s55_23.m4a,,,,,,,,,,,,
,,,,,,,,,,,,41618,2021-10-02_21h22.56.432,judgeSpeechMusic_20210919_logNormShiftAmp_detection_fixFreq,2020.1.2,MacIntel,60,,,,,,,,,,,,,,,,,,1,5.9779,,0,0,8,8,3,1,stimuli/stim_20210919_power2amp/equal_lnn_AM2Hz_s15_7.m4a,,,,,,,,,,,,
,,,,,,,,,,,,41618,2021-10-02_21h22.56.432,judgeSpeechMusic_20210919_logNormShiftAmp_detection_fixFreq,2020.1.2,MacIntel,60,,,,,,,,,,,,,,,,,,2,6.2391,,0,0,9,9,65,1,stimuli/stim_20210919_power2amp/equal_lnn_AM2Hz_s55_33.m4a,,,,,,,,,,,,
,,,,,,,,,,,,41618,2021-10-02_21h22.56.432,judgeSpeechMusic_20210919_logNormShiftAmp_detection_fixFreq,2020.1.2,MacIntel,60,,,,,,,,,,,,,,,,,,2,5.8967,,0,0,10,10,53,1,stimuli/stim_20210919_power2amp/equal_lnn_AM2Hz_s45_32.m4a,,,,,,,,,,,,
,,,,,,,,,,,,41618,2021-10-02_21h22.56.432,judgeSpeechMusic_20210919_logNormShiftAmp_detection_fixFreq,2020.1.2,MacIntel,60,,,,,,,,,,,,,,,,,,2,5.9193,,0,0,11,11,29,1,stimuli/stim_20210919_power2amp/equal_lnn_AM2Hz_s25_18.m4a,,,,,,,,,,,,
,,,,,,,,,,,,41618,2021-10-02_21h22.56.432,judgeSpeechMusic_20210919_logNormShiftAmp_detection_fixFreq,2020.1.2,MacIntel,60,,,,,,,,,,,,,,,,,,1,6.042,,0,0,12,12,68,1,stimuli/stim_20210919_power2amp/equal_lnn_AM2Hz_s55_14.m4a,,,,,,,,,,,,
,,,,,,,,,,,,41618,2021-10-02_21h22.56.432,judgeSpeechMusic_20210919_logNormShiftAmp_detection_fixFreq,2020.1.2,MacIntel,60,,,,,,,,,,,,,,,,,,2,6.0378,,0,0,13,13,42,1,stimuli/stim_20210919_power2amp/equal_lnn_AM2Hz_s35_22.m4a,,,,,,,,,,,,
,,,,,,,,,,,,41618,2021-10-02_21h22.56.432,judgeSpeechMusic_20210919_logNormShiftAmp_detection_fixFreq,2020.1.2,MacIntel,60,,,,,,,,,,,,,,,,,,2,5.7795,,0,0,14,14,37,1,stimuli/stim_20210919_power2amp/equal_lnn_AM2Hz_s35_8.m4a,,,,,,,,,,,,
,,,,,,,,,,,,41618,2021-10-02_21h22.56.432,judgeSpeechMusic_20210919_logNormShiftAmp_detection_fixFreq,2020.1.2,MacIntel,60,,,,,,,,,,,,,,,,,,2,5.8379,,0,0,15,15,58,1,stimuli/stim_20210919_power2amp/equal_lnn_AM2Hz_s45_4.m4a,,,,,,,,,,,,
,,,,,,,,,,,,41618,2021-10-02_21h22.56.432,judgeSpeechMusic_20210919_logNormShiftAmp_detection_fixFreq,2020.1.2,MacIntel,60,,,,,,,,,,,,,,,,,,1,6.0392,,0,0,16,16,51,1,stimuli/stim_20210919_power2amp/equal_lnn_AM2Hz_s45_38.m4a,,,,,,,,,,,,
,,,,,,,,,,,,41618,2021-10-02_21h22.56.432,judgeSpeechMusic_20210919_logNormShiftAmp_detection_fixFreq,2020.1.2,MacIntel,60,,,,,,,,,,,,,,,,,,2,6.238,,0,0,17,17,23,1,stimuli/stim_20210919_power2amp/equal_lnn_AM2Hz_s25_8.m4a,,,,,,,,,,,,
,,,,,,,,,,,,41618,2021-10-02_21h22.56.432,judgeSpeechMusic_20210919_logNormShiftAmp_detection_fixFreq,2020.1.2,MacIntel,60,,,,,,,,,,,,,,,,,,2,6.1901,,0,0,18,18,14,1,stimuli/stim_20210919_power2amp/equal_lnn_AM2Hz_s15_2.m4a,,,,,,,,,,,,
,,,,,,,,,,,,41618,2021-10-02_21h22.56.432,judgeSpeechMusic_20210919_logNormShiftAmp_detection_fixFreq,2020.1.2,MacIntel,60,,,,,,,,,,,,,,,,,,2,5.8753,,0,0,19,19,50,1,stimuli/stim_20210919_power2amp/equal_lnn_AM2Hz_s45_25.m4a,,,,,,,,,,,,
,,,,,,,,,,,,41618,2021-10-02_21h22.56.432,judgeSpeechMusic_20210919_logNormShiftAmp_detection_fixFreq,2020.1.2,MacIntel,60,,,,,,,,,,,,,,,,,,1,6.1777,,0,0,20,20,44,1,stimuli/stim_20210919_power2amp/equal_lnn_AM2Hz_s35_1.m4a,,,,,,,,,,,,
,,,,,,,,,,,,41618,2021-10-02_21h22.56.432,judgeSpeechMusic_20210919_logNormShiftAmp_detection_fixFreq,2020.1.2,MacIntel,60,,,,,,,,,,,,,,,,,,1,5.9792,3,1,0,21,21,41,1,stimuli/stim_20210919_power2amp/equal_lnn_AM2Hz_s35_17.m4a,1.3424,,,,,,,,,,,
,,,,,,,,,,,,41618,2021-10-02_21h22.56.432,judgeSpeechMusic_20210919_logNormShiftAmp_detection_fixFreq,2020.1.2,MacIntel,60,,,,,,,,,,,,,,,,,,1,6.428,,0,0,22,22,30,1,stimuli/stim_20210919_power2amp/equal_lnn_AM2Hz_s35_10.m4a,,,,,,,,,,,,
,,,,,,,,,,,,41618,2021-10-02_21h22.56.432,judgeSpeechMusic_20210919_logNormShiftAmp_detection_fixFreq,2020.1.2,MacIntel,60,,,,,,,,,,,,,,,,,,1,6.2106,,0,0,23,23,4,1,stimuli/stim_20210919_power2amp/equal_lnn_AM2Hz_s15_45.m4a,,,,,,,,,,,,
,,,,,,,,,,,,41618,2021-10-02_21h22.56.432,judgeSpeechMusic_20210919_logNormShiftAmp_detection_fixFreq,2020.1.2,MacIntel,60,,,,,,,,,,,,,,,,,,2,6.272,,0,0,24,24,64,1,stimuli/stim_20210919_power2amp/equal_lnn_AM2Hz_s55_31.m4a,,,,,,,,,,,,
,,,,,,,,,,,,41618,2021-10-02_21h22.56.432,judgeSpeechMusic_20210919_logNormShiftAmp_detection_fixFreq,2020.1.2,MacIntel,60,,,,,,,,,,,,,,,,,,1,5.9941,,0,0,25,25,22,1,stimuli/stim_20210919_power2amp/equal_lnn_AM2Hz_s25_49.m4a,,,,,,,,,,,,
,,,,,,,,,,,,41618,2021-10-02_21h22.56.432,judgeSpeechMusic_20210919_logNormShiftAmp_detection_fixFreq,2020.1.2,MacIntel,60,,,,,,,,,,,,,,,,,,1,6.0028,,0,0,26,26,57,1,stimuli/stim_20210919_power2amp/equal_lnn_AM2Hz_s45_27.m4a,,,,,,,,,,,,
,,,,,,,,,,,,41618,2021-10-02_21h22.56.432,judgeSpeechMusic_20210919_logNormShiftAmp_detection_fixFreq,2020.1.2,MacIntel,60,,,,,,,,,,,,,,,,,,1,6.1942,,0,0,27,27,32,1,stimuli/stim_20210919_power2amp/equal_lnn_AM2Hz_s35_3.m4a,,,,,,,,,,,,
,,,,,,,,,,,,41618,2021-10-02_21h22.56.432,judgeSpeechMusic_20210919_logNormShiftAmp_detection_fixFreq,2020.1.2,MacIntel,60,,,,,,,,,,,,,,,,,,2,6.764,,0,0,28,28,52,1,stimuli/stim_20210919_power2amp/equal_lnn_AM2Hz_s45_9.m4a,,,,,,,,,,,,
,,,,,,,,,,,,41618,2021-10-02_21h22.56.432,judgeSpeechMusic_20210919_logNormShiftAmp_detection_fixFreq,2020.1.2,MacIntel,60,,,,,,,,,,,,,,,,,,1,6.1704,,0,0,29,29,5,1,stimuli/stim_20210919_power2amp/equal_lnn_AM2Hz_s15_41.m4a,,,,,,,,,,,,
,,,,,,,,,,,,41618,2021-10-02_21h22.56.432,judgeSpeechMusic_20210919_logNormShiftAmp_detection_fixFreq,2020.1.2,MacIntel,60,,,,,,,,,,,,,,,,,,1,6.4306,,0,0,30,30,11,1,stimuli/stim_20210919_power2amp/equal_lnn_AM2Hz_s15_15.m4a,,,,,,,,,,,,
,,,,,,,,,,,,41618,2021-10-02_21h22.56.432,judgeSpeechMusic_20210919_logNormShiftAmp_detection_fixFreq,2020.1.2,MacIntel,60,,,,,,,,,,,,,,,,,,2,6.2117,,0,0,31,31,70,1,stimuli/stim_20210919_power2amp/equal_lnn_AM2Hz_s55_44.m4a,,,,,,,,,,,,
,,,,,,,,,,,,41618,2021-10-02_21h22.56.432,judgeSpeechMusic_20210919_logNormShiftAmp_detection_fixFreq,2020.1.2,MacIntel,60,,,,,,,,,,,,,,,,,,1,6.011,,0,0,32,32,45,1,stimuli/stim_20210919_power2amp/equal_lnn_AM2Hz_s45_23.m4a,,,,,,,,,,,,
,,,,,,,,,,,,41618,2021-10-02_21h22.56.432,judgeSpeechMusic_20210919_logNormShiftAmp_detection_fixFreq,2020.1.2,MacIntel,60,,,,,,,,,,,,,,,,,,1,5.9709,,0,0,33,33,63,1,stimuli/stim_20210919_power2amp/equal_lnn_AM2Hz_s55_42.m4a,,,,,,,,,,,,
,,,,,,,,,,,,41618,2021-10-02_21h22.56.432,judgeSpeechMusic_20210919_logNormShiftAmp_detection_fixFreq,2020.1.2,MacIntel,60,,,,,,,,,,,,,,,,,,2,5.824,,0,0,34,34,17,1,stimuli/stim_20210919_power2amp/equal_lnn_AM2Hz_s25_11.m4a,,,,,,,,,,,,
,,,,,,,,,,,,41618,2021-10-02_21h22.56.432,judgeSpeechMusic_20210919_logNormShiftAmp_detection_fixFreq,2020.1.2,MacIntel,60,,,,,,,,,,,,,,,,,,1,6.3093,,0,0,35,35,1,1,stimuli/stim_20210919_power2amp/equal_lnn_AM2Hz_s15_17.m4a,,,,,,,,,,,,
,,,,,,,,,,,,41618,2021-10-02_21h22.56.432,judgeSpeechMusic_20210919_logNormShiftAmp_detection_fixFreq,2020.1.2,MacIntel,60,,,,,,,,,,,,,,,,,,1,5.8758,,0,0,36,36,13,1,stimuli/stim_20210919_power2amp/equal_lnn_AM2Hz_s15_10.m4a,,,,,,,,,,,,
,,,,,,,,,,,,41618,2021-10-02_21h22.56.432,judgeSpeechMusic_20210919_logNormShiftAmp_detection_fixFreq,2020.1.2,MacIntel,60,,,,,,,,,,,,,,,,,,1,5.8261,,0,0,37,37,39,1,stimuli/stim_20210919_power2amp/equal_lnn_AM2Hz_s35_15.m4a,,,,,,,,,,,,
,,,,,,,,,,,,41618,2021-10-02_21h22.56.432,judgeSpeechMusic_20210919_logNormShiftAmp_detection_fixFreq,2020.1.2,MacIntel,60,,,,,,,,,,,,,,,,,,1,6.0059,,0,0,38,38,49,1,stimuli/stim_20210919_power2amp/equal_lnn_AM2Hz_s45_42.m4a,,,,,,,,,,,,
,,,,,,,,,,,,41618,2021-10-02_21h22.56.432,judgeSpeechMusic_20210919_logNormShiftAmp_detection_fixFreq,2020.1.2,MacIntel,60,,,,,,,,,,,,,,,,,,2,6.1881,4,1,0,39,39,40,1,stimuli/stim_20210919_power2amp/equal_lnn_AM2Hz_s35_21.m4a,2.4912,,,,,,,,,,,
,,,,,,,,,,,,41618,2021-10-02_21h22.56.432,judgeSpeechMusic_20210919_logNormShiftAmp_detection_fixFreq,2020.1.2,MacIntel,60,,,,,,,,,,,,,,,,,,2,6.0628,,0,0,40,40,25,1,stimuli/stim_20210919_power2amp/equal_lnn_AM2Hz_s25_14.m4a,,,,,,,,,,,,
,,,,,,,,,,,,41618,2021-10-02_21h22.56.432,judgeSpeechMusic_20210919_logNormShiftAmp_detection_fixFreq,2020.1.2,MacIntel,60,,,,,,,,,,,,,,,,,,2,6.9889,,0,0,41,41,31,1,stimuli/stim_20210919_power2amp/equal_lnn_AM2Hz_s35_5.m4a,,,,,,,,,,,,
,,,,,,,,,,,,41618,2021-10-02_21h22.56.432,judgeSpeechMusic_20210919_logNormShiftAmp_detection_fixFreq,2020.1.2,MacIntel,60,,,,,,,,,,,,,,,,,,2,5.8721,,0,0,42,42,48,1,stimuli/stim_20210919_power2amp/equal_lnn_AM2Hz_s45_7.m4a,,,,,,,,,,,,
,,,,,,,,,,,,41618,2021-10-02_21h22.56.432,judgeSpeechMusic_20210919_logNormShiftAmp_detection_fixFreq,2020.1.2,MacIntel,60,,,,,,,,,,,,,,,,,,2,7.2482,,0,0,43,43,43,1,stimuli/stim_20210919_power2amp/equal_lnn_AM2Hz_s35_38.m4a,,,,,,,,,,,,
,,,,,,,,,,,,41618,2021-10-02_21h22.56.432,judgeSpeechMusic_20210919_logNormShiftAmp_detection_fixFreq,2020.1.2,MacIntel,60,,,,,,,,,,,,,,,,,,1,5.8035,,0,0,44,44,69,1,stimuli/stim_20210919_power2amp/equal_lnn_AM2Hz_s55_15.m4a,,,,,,,,,,,,
,,,,,,,,,,,,41618,2021-10-02_21h22.56.432,judgeSpeechMusic_20210919_logNormShiftAmp_detection_fixFreq,2020.1.2,MacIntel,60,,,,,,,,,,,,,,,,,,1,6.3388,,0,0,45,45,33,1,stimuli/stim_20210919_power2amp/equal_lnn_AM2Hz_s35_47.m4a,,,,,,,,,,,,
,,,,,,,,,,,,41618,2021-10-02_21h22.56.432,judgeSpeechMusic_20210919_logNormShiftAmp_detection_fixFreq,2020.1.2,MacIntel,60,,,,,,,,,,,,,,,,,,1,5.9102,,0,0,46,46,9,1,stimuli/stim_20210919_power2amp/equal_lnn_AM2Hz_s15_35.m4a,,,,,,,,,,,,
,,,,,,,,,,,,41618,2021-10-02_21h22.56.432,judgeSpeechMusic_20210919_logNormShiftAmp_detection_fixFreq,2020.1.2,MacIntel,60,,,,,,,,,,,,,,,,,,1,6.3653,,0,0,47,47,72,1,stimuli/stim_20210919_power2amp/equal_lnn_AM2Hz_s55_27.m4a,,,,,,,,,,,,
,,,,,,,,,,,,41618,2021-10-02_21h22.56.432,judgeSpeechMusic_20210919_logNormShiftAmp_detection_fixFreq,2020.1.2,MacIntel,60,,,,,,,,,,,,,,,,,,1,5.9792,,0,0,48,48,12,1,stimuli/stim_20210919_power2amp/equal_lnn_AM2Hz_s15_31.m4a,,,,,,,,,,,,
,,,,,,,,,,,,41618,2021-10-02_21h22.56.432,judgeSpeechMusic_20210919_logNormShiftAmp_detection_fixFreq,2020.1.2,MacIntel,60,,,,,,,,,,,,,,,,,,2,7.7262,,0,0,49,49,46,1,stimuli/stim_20210919_power2amp/equal_lnn_AM2Hz_s45_45.m4a,,,,,,,,,,,,
,,,,,,,,,,,,41618,2021-10-02_21h22.56.432,judgeSpeechMusic_20210919_logNormShiftAmp_detection_fixFreq,2020.1.2,MacIntel,60,,,,,,,,,,,,,,,,,,2,6.1748,,0,0,50,50,38,1,stimuli/stim_20210919_power2amp/equal_lnn_AM2Hz_s35_35.m4a,,,,,,,,,,,,
,,,,,,,,,,,,41618,2021-10-02_21h22.56.432,judgeSpeechMusic_20210919_logNormShiftAmp_detection_fixFreq,2020.1.2,MacIntel,60,,,,,,,,,,,,,,,,,,2,6.6382,,0,0,51,51,71,1,stimuli/stim_20210919_power2amp/equal_lnn_AM2Hz_s55_45.m4a,,,,,,,,,,,,
,,,,,,,,,,,,41618,2021-10-02_21h22.56.432,judgeSpeechMusic_20210919_logNormShiftAmp_detection_fixFreq,2020.1.2,MacIntel,60,,,,,,,,,,,,,,,,,,1,5.8573,,0,0,52,52,6,1,stimuli/stim_20210919_power2amp/equal_lnn_AM2Hz_s15_11.m4a,,,,,,,,,,,,
,,,,,,,,,,,,41618,2021-10-02_21h22.56.432,judgeSpeechMusic_20210919_logNormShiftAmp_detection_fixFreq,2020.1.2,MacIntel,60,,,,,,,,,,,,,,,,,,2,6.4126,,0,0,53,53,54,1,stimuli/stim_20210919_power2amp/equal_lnn_AM2Hz_s45_48.m4a,,,,,,,,,,,,
,,,,,,,,,,,,41618,2021-10-02_21h22.56.432,judgeSpeechMusic_20210919_logNormShiftAmp_detection_fixFreq,2020.1.2,MacIntel,60,,,,,,,,,,,,,,,,,,1,8.5791,,0,0,54,54,66,1,stimuli/stim_20210919_power2amp/equal_lnn_AM2Hz_s55_13.m4a,,,,,,,,,,,,
,,,,,,,,,,,,41618,2021-10-02_21h22.56.432,judgeSpeechMusic_20210919_logNormShiftAmp_detection_fixFreq,2020.1.2,MacIntel,60,,,,,,,,,,,,,,,,,,2,8.3546,,0,0,55,55,47,1,stimuli/stim_20210919_power2amp/equal_lnn_AM2Hz_s45_5.m4a,,,,,,,,,,,,
,,,,,,,,,,,,41618,2021-10-02_21h22.56.432,judgeSpeechMusic_20210919_logNormShiftAmp_detection_fixFreq,2020.1.2,MacIntel,60,,,,,,,,,,,,,,,,,,1,9.3634,,0,0,56,56,8,1,stimuli/stim_20210919_power2amp/equal_lnn_AM2Hz_s15_28.m4a,,,,,,,,,,,,
,,,,,,,,,,,,41618,2021-10-02_21h22.56.432,judgeSpeechMusic_20210919_logNormShiftAmp_detection_fixFreq,2020.1.2,MacIntel,60,,,,,,,,,,,,,,,,,,2,20.6718,,0,0,57,57,15,1,stimuli/stim_20210919_power2amp/equal_lnn_AM2Hz_s25_12.m4a,,,,,,,,,,,,
,,,,,,,,,,,,41618,2021-10-02_21h22.56.432,judgeSpeechMusic_20210919_logNormShiftAmp_detection_fixFreq,2020.1.2,MacIntel,60,,,,,,,,,,,,,,,,,,1,7.2047,,0,0,58,58,61,1,stimuli/stim_20210919_power2amp/equal_lnn_AM2Hz_s55_25.m4a,,,,,,,,,,,,
,,,,,,,,,,,,41618,2021-10-02_21h22.56.432,judgeSpeechMusic_20210919_logNormShiftAmp_detection_fixFreq,2020.1.2,MacIntel,60,,,,,,,,,,,,,,,,,,2,20.929,,0,0,59,59,56,1,stimuli/stim_20210919_power2amp/equal_lnn_AM2Hz_s45_1.m4a,,,,,,,,,,,,
,,,,,,,,,,,,41618,2021-10-02_21h22.56.432,judgeSpeechMusic_20210919_logNormShiftAmp_detection_fixFreq,2020.1.2,MacIntel,60,,,,,,,,,,,,,,,,,,1,7.4125,2,1,0,60,60,28,1,stimuli/stim_20210919_power2amp/equal_lnn_AM2Hz_s25_42.m4a,4.9965,,,,,,,,,,,
,,,,,,,,,,,,41618,2021-10-02_21h22.56.432,judgeSpeechMusic_20210919_logNormShiftAmp_detection_fixFreq,2020.1.2,MacIntel,60,,,,,,,,,,,,,,,,,,2,6.8965,,0,0,61,61,10,1,stimuli/stim_20210919_power2amp/equal_lnn_AM2Hz_s15_13.m4a,,,,,,,,,,,,
,,,,,,,,,,,,41618,2021-10-02_21h22.56.432,judgeSpeechMusic_20210919_logNormShiftAmp_detection_fixFreq,2020.1.2,MacIntel,60,,,,,,,,,,,,,,,,,,1,7.929,,0,0,62,62,19,1,stimuli/stim_20210919_power2amp/equal_lnn_AM2Hz_s25_16.m4a,,,,,,,,,,,,
,,,,,,,,,,,,41618,2021-10-02_21h22.56.432,judgeSpeechMusic_20210919_logNormShiftAmp_detection_fixFreq,2020.1.2,MacIntel,60,,,,,,,,,,,,,,,,,,2,6.707,,0,0,63,63,7,1,stimuli/stim_20210919_power2amp/equal_lnn_AM2Hz_s15_25.m4a,,,,,,,,,,,,
,,,,,,,,,,,,41618,2021-10-02_21h22.56.432,judgeSpeechMusic_20210919_logNormShiftAmp_detection_fixFreq,2020.1.2,MacIntel,60,,,,,,,,,,,,,,,,,,2,8.078,,0,0,64,64,0,1,stimuli/stim_20210919_power2amp/equal_lnn_AM2Hz_s15_46.m4a,,,,,,,,,,,,
,,,,,,,,,,,,41618,2021-10-02_21h22.56.432,judgeSpeechMusic_20210919_logNormShiftAmp_detection_fixFreq,2020.1.2,MacIntel,60,,,,,,,,,,,,,,,,,,1,6.4061,,0,0,65,65,73,1,stimuli/stim_20210919_power2amp/equal_lnn_AM2Hz_s55_12.m4a,,,,,,,,,,,,
,,,,,,,,,,,,41618,2021-10-02_21h22.56.432,judgeSpeechMusic_20210919_logNormShiftAmp_detection_fixFreq,2020.1.2,MacIntel,60,,,,,,,,,,,,,,,,,,2,6.0546,,0,0,66,66,60,1,stimuli/stim_20210919_power2amp/equal_lnn_AM2Hz_s55_38.m4a,,,,,,,,,,,,
,,,,,,,,,,,,41618,2021-10-02_21h22.56.432,judgeSpeechMusic_20210919_logNormShiftAmp_detection_fixFreq,2020.1.2,MacIntel,60,,,,,,,,,,,,,,,,,,2,6.4752,,0,0,67,67,21,1,stimuli/stim_20210919_power2amp/equal_lnn_AM2Hz_s25_38.m4a,,,,,,,,,,,,
,,,,,,,,,,,,41618,2021-10-02_21h22.56.432,judgeSpeechMusic_20210919_logNormShiftAmp_detection_fixFreq,2020.1.2,MacIntel,60,,,,,,,,,,,,,,,,,,2,5.7769,,0,0,68,68,2,1,stimuli/stim_20210919_power2amp/equal_lnn_AM2Hz_s15_3.m4a,,,,,,,,,,,,
,,,,,,,,,,,,41618,2021-10-02_21h22.56.432,judgeSpeechMusic_20210919_logNormShiftAmp_detection_fixFreq,2020.1.2,MacIntel,60,,,,,,,,,,,,,,,,,,2,6.03,,0,0,69,69,26,1,stimuli/stim_20210919_power2amp/equal_lnn_AM2Hz_s25_9.m4a,,,,,,,,,,,,
,,,,,,,,,,,,41618,2021-10-02_21h22.56.432,judgeSpeechMusic_20210919_logNormShiftAmp_detection_fixFreq,2020.1.2,MacIntel,60,,,,,,,,,,,,,,,,,,1,6.7795,,0,0,70,70,20,1,stimuli/stim_20210919_power2amp/equal_lnn_AM2Hz_s25_13.m4a,,,,,,,,,,,,
,,,,,,,,,,,,41618,2021-10-02_21h22.56.432,judgeSpeechMusic_20210919_logNormShiftAmp_detection_fixFreq,2020.1.2,MacIntel,60,,,,,,,,,,,,,,,,,,2,6.6399,,0,0,71,71,27,1,stimuli/stim_20210919_power2amp/equal_lnn_AM2Hz_s25_21.m4a,,,,,,,,,,,,
,,,,,,,,,,,,41618,2021-10-02_21h22.56.432,judgeSpeechMusic_20210919_logNormShiftAmp_detection_fixFreq,2020.1.2,MacIntel,60,,,,,,,,,,,,,,,,,,2,7.673,,0,0,72,72,24,1,stimuli/stim_20210919_power2amp/equal_lnn_AM2Hz_s25_26.m4a,,,,,,,,,,,,
,,,,,,,,,,,,41618,2021-10-02_21h22.56.432,judgeSpeechMusic_20210919_logNormShiftAmp_detection_fixFreq,2020.1.2,MacIntel,60,,,,,,,,,,,,,,,,,,2,5.9063,,0,0,73,73,16,1,stimuli/stim_20210919_power2amp/equal_lnn_AM2Hz_s25_23.m4a,,,,,,,,,,,,
,,,,,,,,,,,,41618,2021-10-02_21h22.56.432,judgeSpeechMusic_20210919_logNormShiftAmp_detection_fixFreq,2020.1.2,MacIntel,60,,,,,,,,,,,,,,,,,,2,6.6792,,0,0,74,74,34,1,stimuli/stim_20210919_power2amp/equal_lnn_AM2Hz_s35_45.m4a,,,,,,,,,,,,
,,,,,,,,,,,,41618,2021-10-02_21h22.56.432,judgeSpeechMusic_20210919_logNormShiftAmp_detection_fixFreq,2020.1.2,MacIntel,60,,,,,,,,,,,,,,,,,,,,,,,,,,,,,space,0.7397,0,0,0,1,1,SPEECH,stimuli/SPEECH.jpg,,
,,,,,,,,,,,,41618,2021-10-02_21h22.56.432,judgeSpeechMusic_20210919_logNormShiftAmp_detection_fixFreq,2020.1.2,MacIntel,60,space,0.9341,1,8.8956,,0,0,0,0,2,1,stimuli/stim_20210919_power2amp/equal_lnn_AM_training2Hz_s40.m4a,,,,,,,,,,,,,,,,,,,,,,,,,,,
,,,,,,,,,,,,41618,2021-10-02_21h22.56.432,judgeSpeechMusic_20210919_logNormShiftAmp_detection_fixFreq,2020.1.2,MacIntel,60,,,2,6.1515,,0,0,1,1,0,1,stimuli/stim_20210919_power2amp/equal_lnn_AM_training2Hz_s20.m4a,,,,,,,,,,,,,,,,,,,,,,,,,,,
,,,,,,,,,,,,41618,2021-10-02_21h22.56.432,judgeSpeechMusic_20210919_logNormShiftAmp_detection_fixFreq,2020.1.2,MacIntel,60,,,2,6.239,3,1,0,2,2,1,1,stimuli/stim_20210919_power2amp/equal_lnn_AM_training2Hz_s30.m4a,1.1413,,,,,,,,,,,,,,,,,,,,,,,,,,
,,,,,,,,,,,,41618,2021-10-02_21h22.56.432,judgeSpeechMusic_20210919_logNormShiftAmp_detection_fixFreq,2020.1.2,MacIntel,60,,,1,6.6404,,0,0,3,3,3,1,stimuli/stim_20210919_power2amp/equal_lnn_AM_training2Hz_s50.m4a,,,,,,,,,,,,,,,,,,,,,,,,,,,
,,,,,,,,,,,,41618,2021-10-02_21h22.56.432,judgeSpeechMusic_20210919_logNormShiftAmp_detection_fixFreq,2020.1.2,MacIntel,60,,,,,,,,,,,,,,space,1.6749,space,0.6113,2,6.396,,0,0,0,0,65,1,stimuli/stim_20210919_power2amp/equal_lnn_AM2Hz_s55_33.m4a,,,,,,,,,,,,
,,,,,,,,,,,,41618,2021-10-02_21h22.56.432,judgeSpeechMusic_20210919_logNormShiftAmp_detection_fixFreq,2020.1.2,MacIntel,60,,,,,,,,,,,,,,,,,,1,6.1614,,0,0,1,1,38,1,stimuli/stim_20210919_power2amp/equal_lnn_AM2Hz_s35_35.m4a,,,,,,,,,,,,
,,,,,,,,,,,,41618,2021-10-02_21h22.56.432,judgeSpeechMusic_20210919_logNormShiftAmp_detection_fixFreq,2020.1.2,MacIntel,60,,,,,,,,,,,,,,,,,,2,6.4811,,0,0,2,2,6,1,stimuli/stim_20210919_power2amp/equal_lnn_AM2Hz_s15_11.m4a,,,,,,,,,,,,
,,,,,,,,,,,,41618,2021-10-02_21h22.56.432,judgeSpeechMusic_20210919_logNormShiftAmp_detection_fixFreq,2020.1.2,MacIntel,60,,,,,,,,,,,,,,,,,,2,6.2707,,0,0,3,3,71,1,stimuli/stim_20210919_power2amp/equal_lnn_AM2Hz_s55_45.m4a,,,,,,,,,,,,
,,,,,,,,,,,,41618,2021-10-02_21h22.56.432,judgeSpeechMusic_20210919_logNormShiftAmp_detection_fixFreq,2020.1.2,MacIntel,60,,,,,,,,,,,,,,,,,,2,6.2219,,0,0,4,4,22,1,stimuli/stim_20210919_power2amp/equal_lnn_AM2Hz_s25_49.m4a,,,,,,,,,,,,
,,,,,,,,,,,,41618,2021-10-02_21h22.56.432,judgeSpeechMusic_20210919_logNormShiftAmp_detection_fixFreq,2020.1.2,MacIntel,60,,,,,,,,,,,,,,,,,,2,5.7577,,0,0,5,5,36,1,stimuli/stim_20210919_power2amp/equal_lnn_AM2Hz_s35_2.m4a,,,,,,,,,,,,
,,,,,,,,,,,,41618,2021-10-02_21h22.56.432,judgeSpeechMusic_20210919_logNormShiftAmp_detection_fixFreq,2020.1.2,MacIntel,60,,,,,,,,,,,,,,,,,,2,6.3248,,0,0,6,6,49,1,stimuli/stim_20210919_power2amp/equal_lnn_AM2Hz_s45_42.m4a,,,,,,,,,,,,
,,,,,,,,,,,,41618,2021-10-02_21h22.56.432,judgeSpeechMusic_20210919_logNormShiftAmp_detection_fixFreq,2020.1.2,MacIntel,60,,,,,,,,,,,,,,,,,,2,6.1073,,0,0,7,7,39,1,stimuli/stim_20210919_power2amp/equal_lnn_AM2Hz_s35_15.m4a,,,,,,,,,,,,
,,,,,,,,,,,,41618,2021-10-02_21h22.56.432,judgeSpeechMusic_20210919_logNormShiftAmp_detection_fixFreq,2020.1.2,MacIntel,60,,,,,,,,,,,,,,,,,,2,6.2781,,0,0,8,8,35,1,stimuli/stim_20210919_power2amp/equal_lnn_AM2Hz_s35_46.m4a,,,,,,,,,,,,
,,,,,,,,,,,,41618,2021-10-02_21h22.56.432,judgeSpeechMusic_20210919_logNormShiftAmp_detection_fixFreq,2020.1.2,MacIntel,60,,,,,,,,,,,,,,,,,,2,5.7142,,0,0,9,9,72,1,stimuli/stim_20210919_power2amp/equal_lnn_AM2Hz_s55_27.m4a,,,,,,,,,,,,
,,,,,,,,,,,,41618,2021-10-02_21h22.56.432,judgeSpeechMusic_20210919_logNormShiftAmp_detection_fixFreq,2020.1.2,MacIntel,60,,,,,,,,,,,,,,,,,,1,6.2108,,0,0,10,10,67,1,stimuli/stim_20210919_power2amp/equal_lnn_AM2Hz_s55_49.m4a,,,,,,,,,,,,
,,,,,,,,,,,,41618,2021-10-02_21h22.56.432,judgeSpeechMusic_20210919_logNormShiftAmp_detection_fixFreq,2020.1.2,MacIntel,60,,,,,,,,,,,,,,,,,,1,7.377,,0,0,11,11,62,1,stimuli/stim_20210919_power2amp/equal_lnn_AM2Hz_s55_24.m4a,,,,,,,,,,,,
,,,,,,,,,,,,41618,2021-10-02_21h22.56.432,judgeSpeechMusic_20210919_logNormShiftAmp_detection_fixFreq,2020.1.2,MacIntel,60,,,,,,,,,,,,,,,,,,2,8.0386,,0,0,12,12,33,1,stimuli/stim_20210919_power2amp/equal_lnn_AM2Hz_s35_47.m4a,,,,,,,,,,,,
,,,,,,,,,,,,41618,2021-10-02_21h22.56.432,judgeSpeechMusic_20210919_logNormShiftAmp_detection_fixFreq,2020.1.2,MacIntel,60,,,,,,,,,,,,,,,,,,2,6.5762,,0,0,13,13,66,1,stimuli/stim_20210919_power2amp/equal_lnn_AM2Hz_s55_13.m4a,,,,,,,,,,,,
,,,,,,,,,,,,41618,2021-10-02_21h22.56.432,judgeSpeechMusic_20210919_logNormShiftAmp_detection_fixFreq,2020.1.2,MacIntel,60,,,,,,,,,,,,,,,,,,1,7.8913,,0,0,14,14,44,1,stimuli/stim_20210919_power2amp/equal_lnn_AM2Hz_s35_1.m4a,,,,,,,,,,,,
,,,,,,,,,,,,41618,2021-10-02_21h22.56.432,judgeSpeechMusic_20210919_logNormShiftAmp_detection_fixFreq,2020.1.2,MacIntel,60,,,,,,,,,,,,,,,,,,2,7.2309,,0,0,15,15,42,1,stimuli/stim_20210919_power2amp/equal_lnn_AM2Hz_s35_22.m4a,,,,,,,,,,,,
,,,,,,,,,,,,41618,2021-10-02_21h22.56.432,judgeSpeechMusic_20210919_logNormShiftAmp_detection_fixFreq,2020.1.2,MacIntel,60,,,,,,,,,,,,,,,,,,1,6.5366,,0,0,16,16,34,1,stimuli/stim_20210919_power2amp/equal_lnn_AM2Hz_s35_45.m4a,,,,,,,,,,,,
,,,,,,,,,,,,41618,2021-10-02_21h22.56.432,judgeSpeechMusic_20210919_logNormShiftAmp_detection_fixFreq,2020.1.2,MacIntel,60,,,,,,,,,,,,,,,,,,2,7.1796,,0,0,17,17,12,1,stimuli/stim_20210919_power2amp/equal_lnn_AM2Hz_s15_31.m4a,,,,,,,,,,,,
,,,,,,,,,,,,41618,2021-10-02_21h22.56.432,judgeSpeechMusic_20210919_logNormShiftAmp_detection_fixFreq,2020.1.2,MacIntel,60,,,,,,,,,,,,,,,,,,1,6.4456,,0,0,18,18,7,1,stimuli/stim_20210919_power2amp/equal_lnn_AM2Hz_s15_25.m4a,,,,,,,,,,,,
,,,,,,,,,,,,41618,2021-10-02_21h22.56.432,judgeSpeechMusic_20210919_logNormShiftAmp_detection_fixFreq,2020.1.2,MacIntel,60,,,,,,,,,,,,,,,,,,2,6.1562,,0,0,19,19,74,1,stimuli/stim_20210919_power2amp/equal_lnn_AM2Hz_s55_23.m4a,,,,,,,,,,,,
,,,,,,,,,,,,41618,2021-10-02_21h22.56.432,judgeSpeechMusic_20210919_logNormShiftAmp_detection_fixFreq,2020.1.2,MacIntel,60,,,,,,,,,,,,,,,,,,2,6.6878,,0,0,20,20,25,1,stimuli/stim_20210919_power2amp/equal_lnn_AM2Hz_s25_14.m4a,,,,,,,,,,,,
,,,,,,,,,,,,41618,2021-10-02_21h22.56.432,judgeSpeechMusic_20210919_logNormShiftAmp_detection_fixFreq,2020.1.2,MacIntel,60,,,,,,,,,,,,,,,,,,1,6.8742,1,1,0,21,21,70,1,stimuli/stim_20210919_power2amp/equal_lnn_AM2Hz_s55_44.m4a,1.2897,,,,,,,,,,,
,,,,,,,,,,,,41618,2021-10-02_21h22.56.432,judgeSpeechMusic_20210919_logNormShiftAmp_detection_fixFreq,2020.1.2,MacIntel,60,,,,,,,,,,,,,,,,,,2,6.4266,,0,0,22,22,1,1,stimuli/stim_20210919_power2amp/equal_lnn_AM2Hz_s15_17.m4a,,,,,,,,,,,,
,,,,,,,,,,,,41618,2021-10-02_21h22.56.432,judgeSpeechMusic_20210919_logNormShiftAmp_detection_fixFreq,2020.1.2,MacIntel,60,,,,,,,,,,,,,,,,,,2,6.1721,,0,0,23,23,30,1,stimuli/stim_20210919_power2amp/equal_lnn_AM2Hz_s35_10.m4a,,,,,,,,,,,,
,,,,,,,,,,,,41618,2021-10-02_21h22.56.432,judgeSpeechMusic_20210919_logNormShiftAmp_detection_fixFreq,2020.1.2,MacIntel,60,,,,,,,,,,,,,,,,,,1,6.4086,,0,0,24,24,13,1,stimuli/stim_20210919_power2amp/equal_lnn_AM2Hz_s15_10.m4a,,,,,,,,,,,,
,,,,,,,,,,,,41618,2021-10-02_21h22.56.432,judgeSpeechMusic_20210919_logNormShiftAmp_detection_fixFreq,2020.1.2,MacIntel,60,,,,,,,,,,,,,,,,,,2,5.9052,,0,0,25,25,4,1,stimuli/stim_20210919_power2amp/equal_lnn_AM2Hz_s15_45.m4a,,,,,,,,,,,,
,,,,,,,,,,,,41618,2021-10-02_21h22.56.432,judgeSpeechMusic_20210919_logNormShiftAmp_detection_fixFreq,2020.1.2,MacIntel,60,,,,,,,,,,,,,,,,,,2,5.9637,,0,0,26,26,21,1,stimuli/stim_20210919_power2amp/equal_lnn_AM2Hz_s25_38.m4a,,,,,,,,,,,,
,,,,,,,,,,,,41618,2021-10-02_21h22.56.432,judgeSpeechMusic_20210919_logNormShiftAmp_detection_fixFreq,2020.1.2,MacIntel,60,,,,,,,,,,,,,,,,,,2,5.6989,,0,0,27,27,57,1,stimuli/stim_20210919_power2amp/equal_lnn_AM2Hz_s45_27.m4a,,,,,,,,,,,,
,,,,,,,,,,,,41618,2021-10-02_21h22.56.432,judgeSpeechMusic_20210919_logNormShiftAmp_detection_fixFreq,2020.1.2,MacIntel,60,,,,,,,,,,,,,,,,,,2,6.0035,,0,0,28,28,23,1,stimuli/stim_20210919_power2amp/equal_lnn_AM2Hz_s25_8.m4a,,,,,,,,,,,,
,,,,,,,,,,,,41618,2021-10-02_21h22.56.432,judgeSpeechMusic_20210919_logNormShiftAmp_detection_fixFreq,2020.1.2,MacIntel,60,,,,,,,,,,,,,,,,,,2,5.6874,,0,0,29,29,11,1,stimuli/stim_20210919_power2amp/equal_lnn_AM2Hz_s15_15.m4a,,,,,,,,,,,,
,,,,,,,,,,,,41618,2021-10-02_21h22.56.432,judgeSpeechMusic_20210919_logNormShiftAmp_detection_fixFreq,2020.1.2,MacIntel,60,,,,,,,,,,,,,,,,,,2,5.98,,0,0,30,30,5,1,stimuli/stim_20210919_power2amp/equal_lnn_AM2Hz_s15_41.m4a,,,,,,,,,,,,
,,,,,,,,,,,,41618,2021-10-02_21h22.56.432,judgeSpeechMusic_20210919_logNormShiftAmp_detection_fixFreq,2020.1.2,MacIntel,60,,,,,,,,,,,,,,,,,,2,6.4899,,0,0,31,31,27,1,stimuli/stim_20210919_power2amp/equal_lnn_AM2Hz_s25_21.m4a,,,,,,,,,,,,
,,,,,,,,,,,,41618,2021-10-02_21h22.56.432,judgeSpeechMusic_20210919_logNormShiftAmp_detection_fixFreq,2020.1.2,MacIntel,60,,,,,,,,,,,,,,,,,,2,6.6281,,0,0,32,32,24,1,stimuli/stim_20210919_power2amp/equal_lnn_AM2Hz_s25_26.m4a,,,,,,,,,,,,
,,,,,,,,,,,,41618,2021-10-02_21h22.56.432,judgeSpeechMusic_20210919_logNormShiftAmp_detection_fixFreq,2020.1.2,MacIntel,60,,,,,,,,,,,,,,,,,,1,6.1428,,0,0,33,33,37,1,stimuli/stim_20210919_power2amp/equal_lnn_AM2Hz_s35_8.m4a,,,,,,,,,,,,
,,,,,,,,,,,,41618,2021-10-02_21h22.56.432,judgeSpeechMusic_20210919_logNormShiftAmp_detection_fixFreq,2020.1.2,MacIntel,60,,,,,,,,,,,,,,,,,,2,6.4616,,0,0,34,34,47,1,stimuli/stim_20210919_power2amp/equal_lnn_AM2Hz_s45_5.m4a,,,,,,,,,,,,
,,,,,,,,,,,,41618,2021-10-02_21h22.56.432,judgeSpeechMusic_20210919_logNormShiftAmp_detection_fixFreq,2020.1.2,MacIntel,60,,,,,,,,,,,,,,,,,,1,6.2382,,0,0,35,35,14,1,stimuli/stim_20210919_power2amp/equal_lnn_AM2Hz_s15_2.m4a,,,,,,,,,,,,
,,,,,,,,,,,,41618,2021-10-02_21h22.56.432,judgeSpeechMusic_20210919_logNormShiftAmp_detection_fixFreq,2020.1.2,MacIntel,60,,,,,,,,,,,,,,,,,,2,6.695,,0,0,36,36,61,1,stimuli/stim_20210919_power2amp/equal_lnn_AM2Hz_s55_25.m4a,,,,,,,,,,,,
,,,,,,,,,,,,41618,2021-10-02_21h22.56.432,judgeSpeechMusic_20210919_logNormShiftAmp_detection_fixFreq,2020.1.2,MacIntel,60,,,,,,,,,,,,,,,,,,1,6.1395,,0,0,37,37,19,1,stimuli/stim_20210919_power2amp/equal_lnn_AM2Hz_s25_16.m4a,,,,,,,,,,,,
,,,,,,,,,,,,41618,2021-10-02_21h22.56.432,judgeSpeechMusic_20210919_logNormShiftAmp_detection_fixFreq,2020.1.2,MacIntel,60,,,,,,,,,,,,,,,,,,1,5.739,,0,0,38,38,73,1,stimuli/stim_20210919_power2amp/equal_lnn_AM2Hz_s55_12.m4a,,,,,,,,,,,,
,,,,,,,,,,,,41618,2021-10-02_21h22.56.432,judgeSpeechMusic_20210919_logNormShiftAmp_detection_fixFreq,2020.1.2,MacIntel,60,,,,,,,,,,,,,,,,,,2,5.8285,1,1,0,39,39,29,1,stimuli/stim_20210919_power2amp/equal_lnn_AM2Hz_s25_18.m4a,0.8416,,,,,,,,,,,
,,,,,,,,,,,,41618,2021-10-02_21h22.56.432,judgeSpeechMusic_20210919_logNormShiftAmp_detection_fixFreq,2020.1.2,MacIntel,60,,,,,,,,,,,,,,,,,,2,6.2142,,0,0,40,40,15,1,stimuli/stim_20210919_power2amp/equal_lnn_AM2Hz_s25_12.m4a,,,,,,,,,,,,
,,,,,,,,,,,,41618,2021-10-02_21h22.56.432,judgeSpeechMusic_20210919_logNormShiftAmp_detection_fixFreq,2020.1.2,MacIntel,60,,,,,,,,,,,,,,,,,,2,6.1614,,0,0,41,41,68,1,stimuli/stim_20210919_power2amp/equal_lnn_AM2Hz_s55_14.m4a,,,,,,,,,,,,
,,,,,,,,,,,,41618,2021-10-02_21h22.56.432,judgeSpeechMusic_20210919_logNormShiftAmp_detection_fixFreq,2020.1.2,MacIntel,60,,,,,,,,,,,,,,,,,,2,8.0442,,0,0,42,42,58,1,stimuli/stim_20210919_power2amp/equal_lnn_AM2Hz_s45_4.m4a,,,,,,,,,,,,
,,,,,,,,,,,,41618,2021-10-02_21h22.56.432,judgeSpeechMusic_20210919_logNormShiftAmp_detection_fixFreq,2020.1.2,MacIntel,60,,,,,,,,,,,,,,,,,,2,6.3884,,0,0,43,43,69,1,stimuli/stim_20210919_power2amp/equal_lnn_AM2Hz_s55_15.m4a,,,,,,,,,,,,
,,,,,,,,,,,,41618,2021-10-02_21h22.56.432,judgeSpeechMusic_20210919_logNormShiftAmp_detection_fixFreq,2020.1.2,MacIntel,60,,,,,,,,,,,,,,,,,,2,5.8437,,0,0,44,44,9,1,stimuli/stim_20210919_power2amp/equal_lnn_AM2Hz_s15_35.m4a,,,,,,,,,,,,
,,,,,,,,,,,,41618,2021-10-02_21h22.56.432,judgeSpeechMusic_20210919_logNormShiftAmp_detection_fixFreq,2020.1.2,MacIntel,60,,,,,,,,,,,,,,,,,,2,8.5712,,0,0,45,45,63,1,stimuli/stim_20210919_power2amp/equal_lnn_AM2Hz_s55_42.m4a,,,,,,,,,,,,
,,,,,,,,,,,,41618,2021-10-02_21h22.56.432,judgeSpeechMusic_20210919_logNormShiftAmp_detection_fixFreq,2020.1.2,MacIntel,60,,,,,,,,,,,,,,,,,,2,10.86,,0,0,46,46,41,1,stimuli/stim_20210919_power2amp/equal_lnn_AM2Hz_s35_17.m4a,,,,,,,,,,,,
,,,,,,,,,,,,41618,2021-10-02_21h22.56.432,judgeSpeechMusic_20210919_logNormShiftAmp_detection_fixFreq,2020.1.2,MacIntel,60,,,,,,,,,,,,,,,,,,2,7.9724,,0,0,47,47,46,1,stimuli/stim_20210919_power2amp/equal_lnn_AM2Hz_s45_45.m4a,,,,,,,,,,,,
,,,,,,,,,,,,41618,2021-10-02_21h22.56.432,judgeSpeechMusic_20210919_logNormShiftAmp_detection_fixFreq,2020.1.2,MacIntel,60,,,,,,,,,,,,,,,,,,2,6.4089,,0,0,48,48,50,1,stimuli/stim_20210919_power2amp/equal_lnn_AM2Hz_s45_25.m4a,,,,,,,,,,,,
,,,,,,,,,,,,41618,2021-10-02_21h22.56.432,judgeSpeechMusic_20210919_logNormShiftAmp_detection_fixFreq,2020.1.2,MacIntel,60,,,,,,,,,,,,,,,,,,2,6.5627,,0,0,49,49,40,1,stimuli/stim_20210919_power2amp/equal_lnn_AM2Hz_s35_21.m4a,,,,,,,,,,,,
,,,,,,,,,,,,41618,2021-10-02_21h22.56.432,judgeSpeechMusic_20210919_logNormShiftAmp_detection_fixFreq,2020.1.2,MacIntel,60,,,,,,,,,,,,,,,,,,2,5.9614,,0,0,50,50,56,1,stimuli/stim_20210919_power2amp/equal_lnn_AM2Hz_s45_1.m4a,,,,,,,,,,,,
,,,,,,,,,,,,41618,2021-10-02_21h22.56.432,judgeSpeechMusic_20210919_logNormShiftAmp_detection_fixFreq,2020.1.2,MacIntel,60,,,,,,,,,,,,,,,,,,2,6.0549,,0,0,51,51,48,1,stimuli/stim_20210919_power2amp/equal_lnn_AM2Hz_s45_7.m4a,,,,,,,,,,,,
,,,,,,,,,,,,41618,2021-10-02_21h22.56.432,judgeSpeechMusic_20210919_logNormShiftAmp_detection_fixFreq,2020.1.2,MacIntel,60,,,,,,,,,,,,,,,,,,2,5.8397,,0,0,52,52,59,1,stimuli/stim_20210919_power2amp/equal_lnn_AM2Hz_s45_2.m4a,,,,,,,,,,,,
,,,,,,,,,,,,41618,2021-10-02_21h22.56.432,judgeSpeechMusic_20210919_logNormShiftAmp_detection_fixFreq,2020.1.2,MacIntel,60,,,,,,,,,,,,,,,,,,2,5.7717,,0,0,53,53,8,1,stimuli/stim_20210919_power2amp/equal_lnn_AM2Hz_s15_28.m4a,,,,,,,,,,,,
,,,,,,,,,,,,41618,2021-10-02_21h22.56.432,judgeSpeechMusic_20210919_logNormShiftAmp_detection_fixFreq,2020.1.2,MacIntel,60,,,,,,,,,,,,,,,,,,2,5.9128,,0,0,54,54,10,1,stimuli/stim_20210919_power2amp/equal_lnn_AM2Hz_s15_13.m4a,,,,,,,,,,,,
,,,,,,,,,,,,41618,2021-10-02_21h22.56.432,judgeSpeechMusic_20210919_logNormShiftAmp_detection_fixFreq,2020.1.2,MacIntel,60,,,,,,,,,,,,,,,,,,2,7.2931,,0,0,55,55,60,1,stimuli/stim_20210919_power2amp/equal_lnn_AM2Hz_s55_38.m4a,,,,,,,,,,,,
,,,,,,,,,,,,41618,2021-10-02_21h22.56.432,judgeSpeechMusic_20210919_logNormShiftAmp_detection_fixFreq,2020.1.2,MacIntel,60,,,,,,,,,,,,,,,,,,2,6.3874,,0,0,56,56,31,1,stimuli/stim_20210919_power2amp/equal_lnn_AM2Hz_s35_5.m4a,,,,,,,,,,,,
,,,,,,,,,,,,41618,2021-10-02_21h22.56.432,judgeSpeechMusic_20210919_logNormShiftAmp_detection_fixFreq,2020.1.2,MacIntel,60,,,,,,,,,,,,,,,,,,1,7.0398,,0,0,57,57,45,1,stimuli/stim_20210919_power2amp/equal_lnn_AM2Hz_s45_23.m4a,,,,,,,,,,,,
,,,,,,,,,,,,41618,2021-10-02_21h22.56.432,judgeSpeechMusic_20210919_logNormShiftAmp_detection_fixFreq,2020.1.2,MacIntel,60,,,,,,,,,,,,,,,,,,1,6.3388,,0,0,58,58,20,1,stimuli/stim_20210919_power2amp/equal_lnn_AM2Hz_s25_13.m4a,,,,,,,,,,,,
,,,,,,,,,,,,41618,2021-10-02_21h22.56.432,judgeSpeechMusic_20210919_logNormShiftAmp_detection_fixFreq,2020.1.2,MacIntel,60,,,,,,,,,,,,,,,,,,1,5.906,,0,0,59,59,43,1,stimuli/stim_20210919_power2amp/equal_lnn_AM2Hz_s35_38.m4a,,,,,,,,,,,,
,,,,,,,,,,,,41618,2021-10-02_21h22.56.432,judgeSpeechMusic_20210919_logNormShiftAmp_detection_fixFreq,2020.1.2,MacIntel,60,,,,,,,,,,,,,,,,,,2,5.8621,3,1,0,60,60,18,1,stimuli/stim_20210919_power2amp/equal_lnn_AM2Hz_s25_48.m4a,1.1142,,,,,,,,,,,
,,,,,,,,,,,,41618,2021-10-02_21h22.56.432,judgeSpeechMusic_20210919_logNormShiftAmp_detection_fixFreq,2020.1.2,MacIntel,60,,,,,,,,,,,,,,,,,,2,5.8882,,0,0,61,61,3,1,stimuli/stim_20210919_power2amp/equal_lnn_AM2Hz_s15_7.m4a,,,,,,,,,,,,
,,,,,,,,,,,,41618,2021-10-02_21h22.56.432,judgeSpeechMusic_20210919_logNormShiftAmp_detection_fixFreq,2020.1.2,MacIntel,60,,,,,,,,,,,,,,,,,,2,5.8396,,0,0,62,62,17,1,stimuli/stim_20210919_power2amp/equal_lnn_AM2Hz_s25_11.m4a,,,,,,,,,,,,
,,,,,,,,,,,,41618,2021-10-02_21h22.56.432,judgeSpeechMusic_20210919_logNormShiftAmp_detection_fixFreq,2020.1.2,MacIntel,60,,,,,,,,,,,,,,,,,,1,5.9311,,0,0,63,63,2,1,stimuli/stim_20210919_power2amp/equal_lnn_AM2Hz_s15_3.m4a,,,,,,,,,,,,
,,,,,,,,,,,,41618,2021-10-02_21h22.56.432,judgeSpeechMusic_20210919_logNormShiftAmp_detection_fixFreq,2020.1.2,MacIntel,60,,,,,,,,,,,,,,,,,,1,6.193,,0,0,64,64,53,1,stimuli/stim_20210919_power2amp/equal_lnn_AM2Hz_s45_32.m4a,,,,,,,,,,,,
,,,,,,,,,,,,41618,2021-10-02_21h22.56.432,judgeSpeechMusic_20210919_logNormShiftAmp_detection_fixFreq,2020.1.2,MacIntel,60,,,,,,,,,,,,,,,,,,1,6.4046,,0,0,65,65,64,1,stimuli/stim_20210919_power2amp/equal_lnn_AM2Hz_s55_31.m4a,,,,,,,,,,,,
,,,,,,,,,,,,41618,2021-10-02_21h22.56.432,judgeSpeechMusic_20210919_logNormShiftAmp_detection_fixFreq,2020.1.2,MacIntel,60,,,,,,,,,,,,,,,,,,2,6.8472,,0,0,66,66,32,1,stimuli/stim_20210919_power2amp/equal_lnn_AM2Hz_s35_3.m4a,,,,,,,,,,,,
,,,,,,,,,,,,41618,2021-10-02_21h22.56.432,judgeSpeechMusic_20210919_logNormShiftAmp_detection_fixFreq,2020.1.2,MacIntel,60,,,,,,,,,,,,,,,,,,2,7.0211,,0,0,67,67,52,1,stimuli/stim_20210919_power2amp/equal_lnn_AM2Hz_s45_9.m4a,,,,,,,,,,,,
,,,,,,,,,,,,41618,2021-10-02_21h22.56.432,judgeSpeechMusic_20210919_logNormShiftAmp_detection_fixFreq,2020.1.2,MacIntel,60,,,,,,,,,,,,,,,,,,2,6.6968,,0,0,68,68,0,1,stimuli/stim_20210919_power2amp/equal_lnn_AM2Hz_s15_46.m4a,,,,,,,,,,,,
,,,,,,,,,,,,41618,2021-10-02_21h22.56.432,judgeSpeechMusic_20210919_logNormShiftAmp_detection_fixFreq,2020.1.2,MacIntel,60,,,,,,,,,,,,,,,,,,1,6.356,,0,0,69,69,16,1,stimuli/stim_20210919_power2amp/equal_lnn_AM2Hz_s25_23.m4a,,,,,,,,,,,,
,,,,,,,,,,,,41618,2021-10-02_21h22.56.432,judgeSpeechMusic_20210919_logNormShiftAmp_detection_fixFreq,2020.1.2,MacIntel,60,,,,,,,,,,,,,,,,,,2,6.2567,,0,0,70,70,28,1,stimuli/stim_20210919_power2amp/equal_lnn_AM2Hz_s25_42.m4a,,,,,,,,,,,,
,,,,,,,,,,,,41618,2021-10-02_21h22.56.432,judgeSpeechMusic_20210919_logNormShiftAmp_detection_fixFreq,2020.1.2,MacIntel,60,,,,,,,,,,,,,,,,,,2,6.3309,,0,0,71,71,51,1,stimuli/stim_20210919_power2amp/equal_lnn_AM2Hz_s45_38.m4a,,,,,,,,,,,,
,,,,,,,,,,,,41618,2021-10-02_21h22.56.432,judgeSpeechMusic_20210919_logNormShiftAmp_detection_fixFreq,2020.1.2,MacIntel,60,,,,,,,,,,,,,,,,,,2,6.0759,,0,0,72,72,54,1,stimuli/stim_20210919_power2amp/equal_lnn_AM2Hz_s45_48.m4a,,,,,,,,,,,,
,,,,,,,,,,,,41618,2021-10-02_21h22.56.432,judgeSpeechMusic_20210919_logNormShiftAmp_detection_fixFreq,2020.1.2,MacIntel,60,,,,,,,,,,,,,,,,,,1,6.2817,,0,0,73,73,26,1,stimuli/stim_20210919_power2amp/equal_lnn_AM2Hz_s25_9.m4a,,,,,,,,,,,,
,,,,,,,,,,,,41618,2021-10-02_21h22.56.432,judgeSpeechMusic_20210919_logNormShiftAmp_detection_fixFreq,2020.1.2,MacIntel,60,,,,,,,,,,,,,,,,,,2,6.5048,,0,0,74,74,55,1,stimuli/stim_20210919_power2amp/equal_lnn_AM2Hz_s45_46.m4a,,,,,,,,,,,,
,,,,,,,,,,,,41618,2021-10-02_21h22.56.432,judgeSpeechMusic_20210919_logNormShiftAmp_detection_fixFreq,2020.1.2,MacIntel,60,,,,,,,,,,,,,,,,,,,,,,,,,,,,,space,0.5323,0,1,1,0,1,MUSIC,stimuli/MUSIC.jpg,,
,,,,,,,,,,,,41618,2021-10-02_21h22.56.432,judgeSpeechMusic_20210919_logNormShiftAmp_detection_fixFreq,2020.1.2,MacIntel,60,,,,,,0,0,0,0,3,1,stimuli/stim_20210919_power2amp/equal_lnn_AM_training2Hz_s50.m4a,,,,,,,,,,,,,,,,,,,,,,,,,,,
,,,,,,,,,,,,41618,2021-10-02_21h22.56.432,judgeSpeechMusic_20210919_logNormShiftAmp_detection_fixFreq,2020.1.2,MacIntel,60,,,,,,,,,,,,,,space,5.3784,space,1.8081,2,7.3945,,0,0,0,0,8,1,stimuli/stim_20210919_power2amp/equal_lnn_AM2Hz_s15_28.m4a,,,,,,,,,,,,
,,,,,,,,,,,,41618,2021-10-02_21h22.56.432,judgeSpeechMusic_20210919_logNormShiftAmp_detection_fixFreq,2020.1.2,MacIntel,60,,,,,,,,,,,,,,,,,,1,6.1947,,0,0,1,1,1,1,stimuli/stim_20210919_power2amp/equal_lnn_AM2Hz_s15_17.m4a,,,,,,,,,,,,
,,,,,,,,,,,,41618,2021-10-02_21h22.56.432,judgeSpeechMusic_20210919_logNormShiftAmp_detection_fixFreq,2020.1.2,MacIntel,60,,,,,,,,,,,,,,,,,,2,6.714,,0,0,2,2,65,1,stimuli/stim_20210919_power2amp/equal_lnn_AM2Hz_s55_33.m4a,,,,,,,,,,,,
,,,,,,,,,,,,41618,2021-10-02_21h22.56.432,judgeSpeechMusic_20210919_logNormShiftAmp_detection_fixFreq,2020.1.2,MacIntel,60,,,,,,,,,,,,,,,,,,2,5.8091,,0,0,3,3,28,1,stimuli/stim_20210919_power2amp/equal_lnn_AM2Hz_s25_42.m4a,,,,,,,,,,,,
,,,,,,,,,,,,41618,2021-10-02_21h22.56.432,judgeSpeechMusic_20210919_logNormShiftAmp_detection_fixFreq,2020.1.2,MacIntel,60,,,,,,,,,,,,,,,,,,2,5.9726,,0,0,4,4,16,1,stimuli/stim_20210919_power2amp/equal_lnn_AM2Hz_s25_23.m4a,,,,,,,,,,,,
,,,,,,,,,,,,41618,2021-10-02_21h22.56.432,judgeSpeechMusic_20210919_logNormShiftAmp_detection_fixFreq,2020.1.2,MacIntel,60,,,,,,,,,,,,,,,,,,1,6.4789,,0,0,5,5,52,1,stimuli/stim_20210919_power2amp/equal_lnn_AM2Hz_s45_9.m4a,,,,,,,,,,,,
,,,,,,,,,,,,41618,2021-10-02_21h22.56.432,judgeSpeechMusic_20210919_logNormShiftAmp_detection_fixFreq,2020.1.2,MacIntel,60,,,,,,,,,,,,,,,,,,2,6.523,,0,0,6,6,39,1,stimuli/stim_20210919_power2amp/equal_lnn_AM2Hz_s35_15.m4a,,,,,,,,,,,,
,,,,,,,,,,,,41618,2021-10-02_21h22.56.432,judgeSpeechMusic_20210919_logNormShiftAmp_detection_fixFreq,2020.1.2,MacIntel,60,,,,,,,,,,,,,,,,,,2,6.2926,,0,0,7,7,13,1,stimuli/stim_20210919_power2amp/equal_lnn_AM2Hz_s15_10.m4a,,,,,,,,,,,,
,,,,,,,,,,,,41618,2021-10-02_21h22.56.432,judgeSpeechMusic_20210919_logNormShiftAmp_detection_fixFreq,2020.1.2,MacIntel,60,,,,,,,,,,,,,,,,,,2,6.0309,,0,0,8,8,74,1,stimuli/stim_20210919_power2amp/equal_lnn_AM2Hz_s55_23.m4a,,,,,,,,,,,,
,,,,,,,,,,,,41618,2021-10-02_21h22.56.432,judgeSpeechMusic_20210919_logNormShiftAmp_detection_fixFreq,2020.1.2,MacIntel,60,,,,,,,,,,,,,,,,,,1,6.1286,,0,0,9,9,38,1,stimuli/stim_20210919_power2amp/equal_lnn_AM2Hz_s35_35.m4a,,,,,,,,,,,,
,,,,,,,,,,,,41618,2021-10-02_21h22.56.432,judgeSpeechMusic_20210919_logNormShiftAmp_detection_fixFreq,2020.1.2,MacIntel,60,,,,,,,,,,,,,,,,,,2,5.9226,,0,0,10,10,9,1,stimuli/stim_20210919_power2amp/equal_lnn_AM2Hz_s15_35.m4a,,,,,,,,,,,,
,,,,,,,,,,,,41618,2021-10-02_21h22.56.432,judgeSpeechMusic_20210919_logNormShiftAmp_detection_fixFreq,2020.1.2,MacIntel,60,,,,,,,,,,,,,,,,,,1,5.6064,,0,0,11,11,37,1,stimuli/stim_20210919_power2amp/equal_lnn_AM2Hz_s35_8.m4a,,,,,,,,,,,,
,,,,,,,,,,,,41618,2021-10-02_21h22.56.432,judgeSpeechMusic_20210919_logNormShiftAmp_detection_fixFreq,2020.1.2,MacIntel,60,,,,,,,,,,,,,,,,,,1,5.7574,,0,0,12,12,20,1,stimuli/stim_20210919_power2amp/equal_lnn_AM2Hz_s25_13.m4a,,,,,,,,,,,,
,,,,,,,,,,,,41618,2021-10-02_21h22.56.432,judgeSpeechMusic_20210919_logNormShiftAmp_detection_fixFreq,2020.1.2,MacIntel,60,,,,,,,,,,,,,,,,,,2,6.2222,,0,0,13,13,25,1,stimuli/stim_20210919_power2amp/equal_lnn_AM2Hz_s25_14.m4a,,,,,,,,,,,,
,,,,,,,,,,,,41618,2021-10-02_21h22.56.432,judgeSpeechMusic_20210919_logNormShiftAmp_detection_fixFreq,2020.1.2,MacIntel,60,,,,,,,,,,,,,,,,,,2,5.7742,,0,0,14,14,34,1,stimuli/stim_20210919_power2amp/equal_lnn_AM2Hz_s35_45.m4a,,,,,,,,,,,,
,,,,,,,,,,,,41618,2021-10-02_21h22.56.432,judgeSpeechMusic_20210919_logNormShiftAmp_detection_fixFreq,2020.1.2,MacIntel,60,,,,,,,,,,,,,,,,,,2,5.8084,,0,0,15,15,57,1,stimuli/stim_20210919_power2amp/equal_lnn_AM2Hz_s45_27.m4a,,,,,,,,,,,,
,,,,,,,,,,,,41618,2021-10-02_21h22.56.432,judgeSpeechMusic_20210919_logNormShiftAmp_detection_fixFreq,2020.1.2,MacIntel,60,,,,,,,,,,,,,,,,,,1,5.9379,,0,0,16,16,62,1,stimuli/stim_20210919_power2amp/equal_lnn_AM2Hz_s55_24.m4a,,,,,,,,,,,,
,,,,,,,,,,,,41618,2021-10-02_21h22.56.432,judgeSpeechMusic_20210919_logNormShiftAmp_detection_fixFreq,2020.1.2,MacIntel,60,,,,,,,,,,,,,,,,,,2,6.6109,,0,0,17,17,45,1,stimuli/stim_20210919_power2amp/equal_lnn_AM2Hz_s45_23.m4a,,,,,,,,,,,,
,,,,,,,,,,,,41618,2021-10-02_21h22.56.432,judgeSpeechMusic_20210919_logNormShiftAmp_detection_fixFreq,2020.1.2,MacIntel,60,,,,,,,,,,,,,,,,,,1,6.4603,,0,0,18,18,21,1,stimuli/stim_20210919_power2amp/equal_lnn_AM2Hz_s25_38.m4a,,,,,,,,,,,,
,,,,,,,,,,,,41618,2021-10-02_21h22.56.432,judgeSpeechMusic_20210919_logNormShiftAmp_detection_fixFreq,2020.1.2,MacIntel,60,,,,,,,,,,,,,,,,,,1,6.0303,,0,0,19,19,27,1,stimuli/stim_20210919_power2amp/equal_lnn_AM2Hz_s25_21.m4a,,,,,,,,,,,,
,,,,,,,,,,,,41618,2021-10-02_21h22.56.432,judgeSpeechMusic_20210919_logNormShiftAmp_detection_fixFreq,2020.1.2,MacIntel,60,,,,,,,,,,,,,,,,,,2,6.4576,,0,0,20,20,30,1,stimuli/stim_20210919_power2amp/equal_lnn_AM2Hz_s35_10.m4a,,,,,,,,,,,,
,,,,,,,,,,,,41618,2021-10-02_21h22.56.432,judgeSpeechMusic_20210919_logNormShiftAmp_detection_fixFreq,2020.1.2,MacIntel,60,,,,,,,,,,,,,,,,,,2,5.6613,2,1,0,21,21,22,1,stimuli/stim_20210919_power2amp/equal_lnn_AM2Hz_s25_49.m4a,0.5734,,,,,,,,,,,
,,,,,,,,,,,,41618,2021-10-02_21h22.56.432,judgeSpeechMusic_20210919_logNormShiftAmp_detection_fixFreq,2020.1.2,MacIntel,60,,,,,,,,,,,,,,,,,,2,6.2369,,0,0,22,22,68,1,stimuli/stim_20210919_power2amp/equal_lnn_AM2Hz_s55_14.m4a,,,,,,,,,,,,
,,,,,,,,,,,,41618,2021-10-02_21h22.56.432,judgeSpeechMusic_20210919_logNormShiftAmp_detection_fixFreq,2020.1.2,MacIntel,60,,,,,,,,,,,,,,,,,,1,6.1049,,0,0,23,23,35,1,stimuli/stim_20210919_power2amp/equal_lnn_AM2Hz_s35_46.m4a,,,,,,,,,,,,
,,,,,,,,,,,,41618,2021-10-02_21h22.56.432,judgeSpeechMusic_20210919_logNormShiftAmp_detection_fixFreq,2020.1.2,MacIntel,60,,,,,,,,,,,,,,,,,,2,6.0148,,0,0,24,24,26,1,stimuli/stim_20210919_power2amp/equal_lnn_AM2Hz_s25_9.m4a,,,,,,,,,,,,
,,,,,,,,,,,,41618,2021-10-02_21h22.56.432,judgeSpeechMusic_20210919_logNormShiftAmp_detection_fixFreq,2020.1.2,MacIntel,60,,,,,,,,,,,,,,,,,,2,6.3126,,0,0,25,25,3,1,stimuli/stim_20210919_power2amp/equal_lnn_AM2Hz_s15_7.m4a,,,,,,,,,,,,
,,,,,,,,,,,,41618,2021-10-02_21h22.56.432,judgeSpeechMusic_20210919_logNormShiftAmp_detection_fixFreq,2020.1.2,MacIntel,60,,,,,,,,,,,,,,,,,,2,5.993,,0,0,26,26,56,1,stimuli/stim_20210919_power2amp/equal_lnn_AM2Hz_s45_1.m4a,,,,,,,,,,,,
,,,,,,,,,,,,41618,2021-10-02_21h22.56.432,judgeSpeechMusic_20210919_logNormShiftAmp_detection_fixFreq,2020.1.2,MacIntel,60,,,,,,,,,,,,,,,,,,1,6.8238,,0,0,27,27,71,1,stimuli/stim_20210919_power2amp/equal_lnn_AM2Hz_s55_45.m4a,,,,,,,,,,,,
,,,,,,,,,,,,41618,2021-10-02_21h22.56.432,judgeSpeechMusic_20210919_logNormShiftAmp_detection_fixFreq,2020.1.2,MacIntel,60,,,,,,,,,,,,,,,,,,1,6.4894,,0,0,28,28,60,1,stimuli/stim_20210919_power2amp/equal_lnn_AM2Hz_s55_38.m4a,,,,,,,,,,,,
,,,,,,,,,,,,41618,2021-10-02_21h22.56.432,judgeSpeechMusic_20210919_logNormShiftAmp_detection_fixFreq,2020.1.2,MacIntel,60,,,,,,,,,,,,,,,,,,1,6.4766,,0,0,29,29,70,1,stimuli/stim_20210919_power2amp/equal_lnn_AM2Hz_s55_44.m4a,,,,,,,,,,,,
,,,,,,,,,,,,41618,2021-10-02_21h22.56.432,judgeSpeechMusic_20210919_logNormShiftAmp_detection_fixFreq,2020.1.2,MacIntel,60,,,,,,,,,,,,,,,,,,2,6.6288,,0,0,30,30,64,1,stimuli/stim_20210919_power2amp/equal_lnn_AM2Hz_s55_31.m4a,,,,,,,,,,,,
,,,,,,,,,,,,41618,2021-10-02_21h22.56.432,judgeSpeechMusic_20210919_logNormShiftAmp_detection_fixFreq,2020.1.2,MacIntel,60,,,,,,,,,,,,,,,,,,1,6.5734,,0,0,31,31,2,1,stimuli/stim_20210919_power2amp/equal_lnn_AM2Hz_s15_3.m4a,,,,,,,,,,,,
,,,,,,,,,,,,41618,2021-10-02_21h22.56.432,judgeSpeechMusic_20210919_logNormShiftAmp_detection_fixFreq,2020.1.2,MacIntel,60,,,,,,,,,,,,,,,,,,1,7.9409,,0,0,32,32,11,1,stimuli/stim_20210919_power2amp/equal_lnn_AM2Hz_s15_15.m4a,,,,,,,,,,,,
,,,,,,,,,,,,41618,2021-10-02_21h22.56.432,judgeSpeechMusic_20210919_logNormShiftAmp_detection_fixFreq,2020.1.2,MacIntel,60,,,,,,,,,,,,,,,,,,1,6.6888,,0,0,33,33,41,1,stimuli/stim_20210919_power2amp/equal_lnn_AM2Hz_s35_17.m4a,,,,,,,,,,,,
,,,,,,,,,,,,41618,2021-10-02_21h22.56.432,judgeSpeechMusic_20210919_logNormShiftAmp_detection_fixFreq,2020.1.2,MacIntel,60,,,,,,,,,,,,,,,,,,2,6.8269,,0,0,34,34,66,1,stimuli/stim_20210919_power2amp/equal_lnn_AM2Hz_s55_13.m4a,,,,,,,,,,,,
,,,,,,,,,,,,41618,2021-10-02_21h22.56.432,judgeSpeechMusic_20210919_logNormShiftAmp_detection_fixFreq,2020.1.2,MacIntel,60,,,,,,,,,,,,,,,,,,2,5.973,,0,0,35,35,72,1,stimuli/stim_20210919_power2amp/equal_lnn_AM2Hz_s55_27.m4a,,,,,,,,,,,,
,,,,,,,,,,,,41618,2021-10-02_21h22.56.432,judgeSpeechMusic_20210919_logNormShiftAmp_detection_fixFreq,2020.1.2,MacIntel,60,,,,,,,,,,,,,,,,,,2,6.0798,,0,0,36,36,46,1,stimuli/stim_20210919_power2amp/equal_lnn_AM2Hz_s45_45.m4a,,,,,,,,,,,,
,,,,,,,,,,,,41618,2021-10-02_21h22.56.432,judgeSpeechMusic_20210919_logNormShiftAmp_detection_fixFreq,2020.1.2,MacIntel,60,,,,,,,,,,,,,,,,,,2,9.5874,,0,0,37,37,48,1,stimuli/stim_20210919_power2amp/equal_lnn_AM2Hz_s45_7.m4a,,,,,,,,,,,,
,,,,,,,,,,,,41618,2021-10-02_21h22.56.432,judgeSpeechMusic_20210919_logNormShiftAmp_detection_fixFreq,2020.1.2,MacIntel,60,,,,,,,,,,,,,,,,,,1,6.5466,,0,0,38,38,43,1,stimuli/stim_20210919_power2amp/equal_lnn_AM2Hz_s35_38.m4a,,,,,,,,,,,,
,,,,,,,,,,,,41618,2021-10-02_21h22.56.432,judgeSpeechMusic_20210919_logNormShiftAmp_detection_fixFreq,2020.1.2,MacIntel,60,,,,,,,,,,,,,,,,,,2,8.2205,2,1,0,39,39,51,1,stimuli/stim_20210919_power2amp/equal_lnn_AM2Hz_s45_38.m4a,2.7392,,,,,,,,,,,
,,,,,,,,,,,,41618,2021-10-02_21h22.56.432,judgeSpeechMusic_20210919_logNormShiftAmp_detection_fixFreq,2020.1.2,MacIntel,60,,,,,,,,,,,,,,,,,,2,5.8064,,0,0,40,40,50,1,stimuli/stim_20210919_power2amp/equal_lnn_AM2Hz_s45_25.m4a,,,,,,,,,,,,
,,,,,,,,,,,,41618,2021-10-02_21h22.56.432,judgeSpeechMusic_20210919_logNormShiftAmp_detection_fixFreq,2020.1.2,MacIntel,60,,,,,,,,,,,,,,,,,,1,5.9223,,0,0,41,41,47,1,stimuli/stim_20210919_power2amp/equal_lnn_AM2Hz_s45_5.m4a,,,,,,,,,,,,
,,,,,,,,,,,,41618,2021-10-02_21h22.56.432,judgeSpeechMusic_20210919_logNormShiftAmp_detection_fixFreq,2020.1.2,MacIntel,60,,,,,,,,,,,,,,,,,,1,11.3897,,0,0,42,42,7,1,stimuli/stim_20210919_power2amp/equal_lnn_AM2Hz_s15_25.m4a,,,,,,,,,,,,
,,,,,,,,,,,,41618,2021-10-02_21h22.56.432,judgeSpeechMusic_20210919_logNormShiftAmp_detection_fixFreq,2020.1.2,MacIntel,60,,,,,,,,,,,,,,,,,,2,9.5284,,0,0,43,43,31,1,stimuli/stim_20210919_power2amp/equal_lnn_AM2Hz_s35_5.m4a,,,,,,,,,,,,
,,,,,,,,,,,,41618,2021-10-02_21h22.56.432,judgeSpeechMusic_20210919_logNormShiftAmp_detection_fixFreq,2020.1.2,MacIntel,60,,,,,,,,,,,,,,,,,,2,7.8558,,0,0,44,44,12,1,stimuli/stim_20210919_power2amp/equal_lnn_AM2Hz_s15_31.m4a,,,,,,,,,,,,
,,,,,,,,,,,,41618,2021-10-02_21h22.56.432,judgeSpeechMusic_20210919_logNormShiftAmp_detection_fixFreq,2020.1.2,MacIntel,60,,,,,,,,,,,,,,,,,,1,6.8294,,0,0,45,45,0,1,stimuli/stim_20210919_power2amp/equal_lnn_AM2Hz_s15_46.m4a,,,,,,,,,,,,
,,,,,,,,,,,,41618,2021-10-02_21h22.56.432,judgeSpeechMusic_20210919_logNormShiftAmp_detection_fixFreq,2020.1.2,MacIntel,60,,,,,,,,,,,,,,,,,,1,11.093,,0,0,46,46,6,1,stimuli/stim_20210919_power2amp/equal_lnn_AM2Hz_s15_11.m4a,,,,,,,,,,,,
,,,,,,,,,,,,41618,2021-10-02_21h22.56.432,judgeSpeechMusic_20210919_logNormShiftAmp_detection_fixFreq,2020.1.2,MacIntel,60,,,,,,,,,,,,,,,,,,2,6.3889,,0,0,47,47,33,1,stimuli/stim_20210919_power2amp/equal_lnn_AM2Hz_s35_47.m4a,,,,,,,,,,,,
,,,,,,,,,,,,41618,2021-10-02_21h22.56.432,judgeSpeechMusic_20210919_logNormShiftAmp_detection_fixFreq,2020.1.2,MacIntel,60,,,,,,,,,,,,,,,,,,2,7.7216,,0,0,48,48,24,1,stimuli/stim_20210919_power2amp/equal_lnn_AM2Hz_s25_26.m4a,,,,,,,,,,,,
,,,,,,,,,,,,41618,2021-10-02_21h22.56.432,judgeSpeechMusic_20210919_logNormShiftAmp_detection_fixFreq,2020.1.2,MacIntel,60,,,,,,,,,,,,,,,,,,1,6.0887,,0,0,49,49,61,1,stimuli/stim_20210919_power2amp/equal_lnn_AM2Hz_s55_25.m4a,,,,,,,,,,,,
,,,,,,,,,,,,41618,2021-10-02_21h22.56.432,judgeSpeechMusic_20210919_logNormShiftAmp_detection_fixFreq,2020.1.2,MacIntel,60,,,,,,,,,,,,,,,,,,2,7.508,,0,0,50,50,29,1,stimuli/stim_20210919_power2amp/equal_lnn_AM2Hz_s25_18.m4a,,,,,,,,,,,,
,,,,,,,,,,,,41618,2021-10-02_21h22.56.432,judgeSpeechMusic_20210919_logNormShiftAmp_detection_fixFreq,2020.1.2,MacIntel,60,,,,,,,,,,,,,,,,,,1,6.0544,,0,0,51,51,10,1,stimuli/stim_20210919_power2amp/equal_lnn_AM2Hz_s15_13.m4a,,,,,,,,,,,,
,,,,,,,,,,,,41618,2021-10-02_21h22.56.432,judgeSpeechMusic_20210919_logNormShiftAmp_detection_fixFreq,2020.1.2,MacIntel,60,,,,,,,,,,,,,,,,,,2,6.4093,,0,0,52,52,67,1,stimuli/stim_20210919_power2amp/equal_lnn_AM2Hz_s55_49.m4a,,,,,,,,,,,,
,,,,,,,,,,,,41618,2021-10-02_21h22.56.432,judgeSpeechMusic_20210919_logNormShiftAmp_detection_fixFreq,2020.1.2,MacIntel,60,,,,,,,,,,,,,,,,,,2,5.9766,,0,0,53,53,18,1,stimuli/stim_20210919_power2amp/equal_lnn_AM2Hz_s25_48.m4a,,,,,,,,,,,,
,,,,,,,,,,,,41618,2021-10-02_21h22.56.432,judgeSpeechMusic_20210919_logNormShiftAmp_detection_fixFreq,2020.1.2,MacIntel,60,,,,,,,,,,,,,,,,,,2,6.1954,,0,0,54,54,44,1,stimuli/stim_20210919_power2amp/equal_lnn_AM2Hz_s35_1.m4a,,,,,,,,,,,,
,,,,,,,,,,,,41618,2021-10-02_21h22.56.432,judgeSpeechMusic_20210919_logNormShiftAmp_detection_fixFreq,2020.1.2,MacIntel,60,,,,,,,,,,,,,,,,,,1,5.9396,,0,0,55,55,4,1,stimuli/stim_20210919_power2amp/equal_lnn_AM2Hz_s15_45.m4a,,,,,,,,,,,,
,,,,,,,,,,,,41618,2021-10-02_21h22.56.432,judgeSpeechMusic_20210919_logNormShiftAmp_detection_fixFreq,2020.1.2,MacIntel,60,,,,,,,,,,,,,,,,,,2,6.6517,,0,0,56,56,69,1,stimuli/stim_20210919_power2amp/equal_lnn_AM2Hz_s55_15.m4a,,,,,,,,,,,,
,,,,,,,,,,,,41618,2021-10-02_21h22.56.432,judgeSpeechMusic_20210919_logNormShiftAmp_detection_fixFreq,2020.1.2,MacIntel,60,,,,,,,,,,,,,,,,,,1,8.9451,,0,0,57,57,54,1,stimuli/stim_20210919_power2amp/equal_lnn_AM2Hz_s45_48.m4a,,,,,,,,,,,,
,,,,,,,,,,,,41618,2021-10-02_21h22.56.432,judgeSpeechMusic_20210919_logNormShiftAmp_detection_fixFreq,2020.1.2,MacIntel,60,,,,,,,,,,,,,,,,,,2,6.3938,,0,0,58,58,32,1,stimuli/stim_20210919_power2amp/equal_lnn_AM2Hz_s35_3.m4a,,,,,,,,,,,,
,,,,,,,,,,,,41618,2021-10-02_21h22.56.432,judgeSpeechMusic_20210919_logNormShiftAmp_detection_fixFreq,2020.1.2,MacIntel,60,,,,,,,,,,,,,,,,,,2,5.6933,,0,0,59,59,15,1,stimuli/stim_20210919_power2amp/equal_lnn_AM2Hz_s25_12.m4a,,,,,,,,,,,,
,,,,,,,,,,,,41618,2021-10-02_21h22.56.432,judgeSpeechMusic_20210919_logNormShiftAmp_detection_fixFreq,2020.1.2,MacIntel,60,,,,,,,,,,,,,,,,,,2,6.1639,2,1,0,60,60,63,1,stimuli/stim_20210919_power2amp/equal_lnn_AM2Hz_s55_42.m4a,1.1082,,,,,,,,,,,
,,,,,,,,,,,,41618,2021-10-02_21h22.56.432,judgeSpeechMusic_20210919_logNormShiftAmp_detection_fixFreq,2020.1.2,MacIntel,60,,,,,,,,,,,,,,,,,,1,7.9941,,0,0,61,61,55,1,stimuli/stim_20210919_power2amp/equal_lnn_AM2Hz_s45_46.m4a,,,,,,,,,,,,
,,,,,,,,,,,,41618,2021-10-02_21h22.56.432,judgeSpeechMusic_20210919_logNormShiftAmp_detection_fixFreq,2020.1.2,MacIntel,60,,,,,,,,,,,,,,,,,,1,6.3557,,0,0,62,62,5,1,stimuli/stim_20210919_power2amp/equal_lnn_AM2Hz_s15_41.m4a,,,,,,,,,,,,
,,,,,,,,,,,,41618,2021-10-02_21h22.56.432,judgeSpeechMusic_20210919_logNormShiftAmp_detection_fixFreq,2020.1.2,MacIntel,60,,,,,,,,,,,,,,,,,,2,8.0251,,0,0,63,63,42,1,stimuli/stim_20210919_power2amp/equal_lnn_AM2Hz_s35_22.m4a,,,,,,,,,,,,
,,,,,,,,,,,,41618,2021-10-02_21h22.56.432,judgeSpeechMusic_20210919_logNormShiftAmp_detection_fixFreq,2020.1.2,MacIntel,60,,,,,,,,,,,,,,,,,,1,6.0923,,0,0,64,64,19,1,stimuli/stim_20210919_power2amp/equal_lnn_AM2Hz_s25_16.m4a,,,,,,,,,,,,
,,,,,,,,,,,,41618,2021-10-02_21h22.56.432,judgeSpeechMusic_20210919_logNormShiftAmp_detection_fixFreq,2020.1.2,MacIntel,60,,,,,,,,,,,,,,,,,,1,10.4388,,0,0,65,65,36,1,stimuli/stim_20210919_power2amp/equal_lnn_AM2Hz_s35_2.m4a,,,,,,,,,,,,
,,,,,,,,,,,,41618,2021-10-02_21h22.56.432,judgeSpeechMusic_20210919_logNormShiftAmp_detection_fixFreq,2020.1.2,MacIntel,60,,,,,,,,,,,,,,,,,,2,6.8392,,0,0,66,66,17,1,stimuli/stim_20210919_power2amp/equal_lnn_AM2Hz_s25_11.m4a,,,,,,,,,,,,
,,,,,,,,,,,,41618,2021-10-02_21h22.56.432,judgeSpeechMusic_20210919_logNormShiftAmp_detection_fixFreq,2020.1.2,MacIntel,60,,,,,,,,,,,,,,,,,,2,6.4983,,0,0,67,67,23,1,stimuli/stim_20210919_power2amp/equal_lnn_AM2Hz_s25_8.m4a,,,,,,,,,,,,
,,,,,,,,,,,,41618,2021-10-02_21h22.56.432,judgeSpeechMusic_20210919_logNormShiftAmp_detection_fixFreq,2020.1.2,MacIntel,60,,,,,,,,,,,,,,,,,,2,6.7213,,0,0,68,68,14,1,stimuli/stim_20210919_power2amp/equal_lnn_AM2Hz_s15_2.m4a,,,,,,,,,,,,
,,,,,,,,,,,,41618,2021-10-02_21h22.56.432,judgeSpeechMusic_20210919_logNormShiftAmp_detection_fixFreq,2020.1.2,MacIntel,60,,,,,,,,,,,,,,,,,,1,5.7395,,0,0,69,69,59,1,stimuli/stim_20210919_power2amp/equal_lnn_AM2Hz_s45_2.m4a,,,,,,,,,,,,
,,,,,,,,,,,,41618,2021-10-02_21h22.56.432,judgeSpeechMusic_20210919_logNormShiftAmp_detection_fixFreq,2020.1.2,MacIntel,60,,,,,,,,,,,,,,,,,,2,5.8553,,0,0,70,70,73,1,stimuli/stim_20210919_power2amp/equal_lnn_AM2Hz_s55_12.m4a,,,,,,,,,,,,
,,,,,,,,,,,,41618,2021-10-02_21h22.56.432,judgeSpeechMusic_20210919_logNormShiftAmp_detection_fixFreq,2020.1.2,MacIntel,60,,,,,,,,,,,,,,,,,,2,7.9223,,0,0,71,71,40,1,stimuli/stim_20210919_power2amp/equal_lnn_AM2Hz_s35_21.m4a,,,,,,,,,,,,
,,,,,,,,,,,,41618,2021-10-02_21h22.56.432,judgeSpeechMusic_20210919_logNormShiftAmp_detection_fixFreq,2020.1.2,MacIntel,60,,,,,,,,,,,,,,,,,,1,6.2897,,0,0,72,72,49,1,stimuli/stim_20210919_power2amp/equal_lnn_AM2Hz_s45_42.m4a,,,,,,,,,,,,
,,,,,,,,,,,,41618,2021-10-02_21h22.56.432,judgeSpeechMusic_20210919_logNormShiftAmp_detection_fixFreq,2020.1.2,MacIntel,60,,,,,,,,,,,,,,,,,,2,6.1441,,0,0,73,73,53,1,stimuli/stim_20210919_power2amp/equal_lnn_AM2Hz_s45_32.m4a,,,,,,,,,,,,
,,,,,,,,,,,,41618,2021-10-02_21h22.56.432,judgeSpeechMusic_20210919_logNormShiftAmp_detection_fixFreq,2020.1.2,MacIntel,60,,,,,,,,,,,,,,,,,,1,6.8394,,0,0,74,74,58,1,stimuli/stim_20210919_power2amp/equal_lnn_AM2Hz_s45_4.m4a,,,,,,,,,,,,
,,,,,,,,,,,,41618,2021-10-02_21h22.56.432,judgeSpeechMusic_20210919_logNormShiftAmp_detection_fixFreq,2020.1.2,MacIntel,60,,,,,,,,,,,,,,,,,,,,,,,,,,,,,space,0.5117,1,0,2,0,1,MUSIC,stimuli/MUSIC.jpg,,
,,,,,,,,,,,,41618,2021-10-02_21h22.56.432,judgeSpeechMusic_20210919_logNormShiftAmp_detection_fixFreq,2020.1.2,MacIntel,60,,,,,,0,0,0,0,2,1,stimuli/stim_20210919_power2amp/equal_lnn_AM_training2Hz_s40.m4a,,,,,,,,,,,,,,,,,,,,,,,,,,,
,,,,,,,,,,,,41618,2021-10-02_21h22.56.432,judgeSpeechMusic_20210919_logNormShiftAmp_detection_fixFreq,2020.1.2,MacIntel,60,,,,,,,,,,,,,,space,1.0611,space,0.4417,2,5.7708,,0,0,0,0,54,1,stimuli/stim_20210919_power2amp/equal_lnn_AM2Hz_s45_48.m4a,,,,,,,,,,,,
,,,,,,,,,,,,41618,2021-10-02_21h22.56.432,judgeSpeechMusic_20210919_logNormShiftAmp_detection_fixFreq,2020.1.2,MacIntel,60,,,,,,,,,,,,,,,,,,2,9.8407,,0,0,1,1,42,1,stimuli/stim_20210919_power2amp/equal_lnn_AM2Hz_s35_22.m4a,,,,,,,,,,,,
,,,,,,,,,,,,41618,2021-10-02_21h22.56.432,judgeSpeechMusic_20210919_logNormShiftAmp_detection_fixFreq,2020.1.2,MacIntel,60,,,,,,,,,,,,,,,,,,2,5.7769,,0,0,2,2,13,1,stimuli/stim_20210919_power2amp/equal_lnn_AM2Hz_s15_10.m4a,,,,,,,,,,,,
,,,,,,,,,,,,41618,2021-10-02_21h22.56.432,judgeSpeechMusic_20210919_logNormShiftAmp_detection_fixFreq,2020.1.2,MacIntel,60,,,,,,,,,,,,,,,,,,1,6.1317,,0,0,3,3,12,1,stimuli/stim_20210919_power2amp/equal_lnn_AM2Hz_s15_31.m4a,,,,,,,,,,,,
,,,,,,,,,,,,41618,2021-10-02_21h22.56.432,judgeSpeechMusic_20210919_logNormShiftAmp_detection_fixFreq,2020.1.2,MacIntel,60,,,,,,,,,,,,,,,,,,1,6.1916,,0,0,4,4,6,1,stimuli/stim_20210919_power2amp/equal_lnn_AM2Hz_s15_11.m4a,,,,,,,,,,,,
,,,,,,,,,,,,41618,2021-10-02_21h22.56.432,judgeSpeechMusic_20210919_logNormShiftAmp_detection_fixFreq,2020.1.2,MacIntel,60,,,,,,,,,,,,,,,,,,2,6.8425,,0,0,5,5,64,1,stimuli/stim_20210919_power2amp/equal_lnn_AM2Hz_s55_31.m4a,,,,,,,,,,,,
,,,,,,,,,,,,41618,2021-10-02_21h22.56.432,judgeSpeechMusic_20210919_logNormShiftAmp_detection_fixFreq,2020.1.2,MacIntel,60,,,,,,,,,,,,,,,,,,1,6.1267,,0,0,6,6,33,1,stimuli/stim_20210919_power2amp/equal_lnn_AM2Hz_s35_47.m4a,,,,,,,,,,,,
,,,,,,,,,,,,41618,2021-10-02_21h22.56.432,judgeSpeechMusic_20210919_logNormShiftAmp_detection_fixFreq,2020.1.2,MacIntel,60,,,,,,,,,,,,,,,,,,2,6.5271,,0,0,7,7,48,1,stimuli/stim_20210919_power2amp/equal_lnn_AM2Hz_s45_7.m4a,,,,,,,,,,,,
,,,,,,,,,,,,41618,2021-10-02_21h22.56.432,judgeSpeechMusic_20210919_logNormShiftAmp_detection_fixFreq,2020.1.2,MacIntel,60,,,,,,,,,,,,,,,,,,2,6.0807,,0,0,8,8,22,1,stimuli/stim_20210919_power2amp/equal_lnn_AM2Hz_s25_49.m4a,,,,,,,,,,,,
,,,,,,,,,,,,41618,2021-10-02_21h22.56.432,judgeSpeechMusic_20210919_logNormShiftAmp_detection_fixFreq,2020.1.2,MacIntel,60,,,,,,,,,,,,,,,,,,2,5.854,,0,0,9,9,60,1,stimuli/stim_20210919_power2amp/equal_lnn_AM2Hz_s55_38.m4a,,,,,,,,,,,,
,,,,,,,,,,,,41618,2021-10-02_21h22.56.432,judgeSpeechMusic_20210919_logNormShiftAmp_detection_fixFreq,2020.1.2,MacIntel,60,,,,,,,,,,,,,,,,,,2,5.8974,,0,0,10,10,4,1,stimuli/stim_20210919_power2amp/equal_lnn_AM2Hz_s15_45.m4a,,,,,,,,,,,,
,,,,,,,,,,,,41618,2021-10-02_21h22.56.432,judgeSpeechMusic_20210919_logNormShiftAmp_detection_fixFreq,2020.1.2,MacIntel,60,,,,,,,,,,,,,,,,,,1,5.9261,,0,0,11,11,52,1,stimuli/stim_20210919_power2amp/equal_lnn_AM2Hz_s45_9.m4a,,,,,,,,,,,,
,,,,,,,,,,,,41618,2021-10-02_21h22.56.432,judgeSpeechMusic_20210919_logNormShiftAmp_detection_fixFreq,2020.1.2,MacIntel,60,,,,,,,,,,,,,,,,,,2,7.2723,,0,0,12,12,45,1,stimuli/stim_20210919_power2amp/equal_lnn_AM2Hz_s45_23.m4a,,,,,,,,,,,,
,,,,,,,,,,,,41618,2021-10-02_21h22.56.432,judgeSpeechMusic_20210919_logNormShiftAmp_detection_fixFreq,2020.1.2,MacIntel,60,,,,,,,,,,,,,,,,,,1,6.4438,,0,0,13,13,72,1,stimuli/stim_20210919_power2amp/equal_lnn_AM2Hz_s55_27.m4a,,,,,,,,,,,,
,,,,,,,,,,,,41618,2021-10-02_21h22.56.432,judgeSpeechMusic_20210919_logNormShiftAmp_detection_fixFreq,2020.1.2,MacIntel,60,,,,,,,,,,,,,,,,,,1,5.6065,,0,0,14,14,44,1,stimuli/stim_20210919_power2amp/equal_lnn_AM2Hz_s35_1.m4a,,,,,,,,,,,,
,,,,,,,,,,,,41618,2021-10-02_21h22.56.432,judgeSpeechMusic_20210919_logNormShiftAmp_detection_fixFreq,2020.1.2,MacIntel,60,,,,,,,,,,,,,,,,,,2,6.5219,,0,0,15,15,32,1,stimuli/stim_20210919_power2amp/equal_lnn_AM2Hz_s35_3.m4a,,,,,,,,,,,,
,,,,,,,,,,,,41618,2021-10-02_21h22.56.432,judgeSpeechMusic_20210919_logNormShiftAmp_detection_fixFreq,2020.1.2,MacIntel,60,,,,,,,,,,,,,,,,,,2,5.8606,,0,0,16,16,15,1,stimuli/stim_20210919_power2amp/equal_lnn_AM2Hz_s25_12.m4a,,,,,,,,,,,,
,,,,,,,,,,,,41618,2021-10-02_21h22.56.432,judgeSpeechMusic_20210919_logNormShiftAmp_detection_fixFreq,2020.1.2,MacIntel,60,,,,,,,,,,,,,,,,,,2,5.6909,,0,0,17,17,16,1,stimuli/stim_20210919_power2amp/equal_lnn_AM2Hz_s25_23.m4a,,,,,,,,,,,,
,,,,,,,,,,,,41618,2021-10-02_21h22.56.432,judgeSpeechMusic_20210919_logNormShiftAmp_detection_fixFreq,2020.1.2,MacIntel,60,,,,,,,,,,,,,,,,,,1,7.2297,,0,0,18,18,65,1,stimuli/stim_20210919_power2amp/equal_lnn_AM2Hz_s55_33.m4a,,,,,,,,,,,,
,,,,,,,,,,,,41618,2021-10-02_21h22.56.432,judgeSpeechMusic_20210919_logNormShiftAmp_detection_fixFreq,2020.1.2,MacIntel,60,,,,,,,,,,,,,,,,,,1,6.1302,,0,0,19,19,7,1,stimuli/stim_20210919_power2amp/equal_lnn_AM2Hz_s15_25.m4a,,,,,,,,,,,,
,,,,,,,,,,,,41618,2021-10-02_21h22.56.432,judgeSpeechMusic_20210919_logNormShiftAmp_detection_fixFreq,2020.1.2,MacIntel,60,,,,,,,,,,,,,,,,,,2,6.9788,,0,0,20,20,71,1,stimuli/stim_20210919_power2amp/equal_lnn_AM2Hz_s55_45.m4a,,,,,,,,,,,,
,,,,,,,,,,,,41618,2021-10-02_21h22.56.432,judgeSpeechMusic_20210919_logNormShiftAmp_detection_fixFreq,2020.1.2,MacIntel,60,,,,,,,,,,,,,,,,,,2,5.8942,3,1,0,21,21,63,1,stimuli/stim_20210919_power2amp/equal_lnn_AM2Hz_s55_42.m4a,0.9912,,,,,,,,,,,
,,,,,,,,,,,,41618,2021-10-02_21h22.56.432,judgeSpeechMusic_20210919_logNormShiftAmp_detection_fixFreq,2020.1.2,MacIntel,60,,,,,,,,,,,,,,,,,,2,7.1294,,0,0,22,22,19,1,stimuli/stim_20210919_power2amp/equal_lnn_AM2Hz_s25_16.m4a,,,,,,,,,,,,
,,,,,,,,,,,,41618,2021-10-02_21h22.56.432,judgeSpeechMusic_20210919_logNormShiftAmp_detection_fixFreq,2020.1.2,MacIntel,60,,,,,,,,,,,,,,,,,,2,5.9455,,0,0,23,23,26,1,stimuli/stim_20210919_power2amp/equal_lnn_AM2Hz_s25_9.m4a,,,,,,,,,,,,
,,,,,,,,,,,,41618,2021-10-02_21h22.56.432,judgeSpeechMusic_20210919_logNormShiftAmp_detection_fixFreq,2020.1.2,MacIntel,60,,,,,,,,,,,,,,,,,,1,6.7268,,0,0,24,24,34,1,stimuli/stim_20210919_power2amp/equal_lnn_AM2Hz_s35_45.m4a,,,,,,,,,,,,
,,,,,,,,,,,,41618,2021-10-02_21h22.56.432,judgeSpeechMusic_20210919_logNormShiftAmp_detection_fixFreq,2020.1.2,MacIntel,60,,,,,,,,,,,,,,,,,,2,6.7391,,0,0,25,25,49,1,stimuli/stim_20210919_power2amp/equal_lnn_AM2Hz_s45_42.m4a,,,,,,,,,,,,
,,,,,,,,,,,,41618,2021-10-02_21h22.56.432,judgeSpeechMusic_20210919_logNormShiftAmp_detection_fixFreq,2020.1.2,MacIntel,60,,,,,,,,,,,,,,,,,,1,6.5222,,0,0,26,26,24,1,stimuli/stim_20210919_power2amp/equal_lnn_AM2Hz_s25_26.m4a,,,,,,,,,,,,
,,,,,,,,,,,,41618,2021-10-02_21h22.56.432,judgeSpeechMusic_20210919_logNormShiftAmp_detection_fixFreq,2020.1.2,MacIntel,60,,,,,,,,,,,,,,,,,,2,30.6615,,0,0,27,27,9,1,stimuli/stim_20210919_power2amp/equal_lnn_AM2Hz_s15_35.m4a,,,,,,,,,,,,
,,,,,,,,,,,,41618,2021-10-02_21h22.56.432,judgeSpeechMusic_20210919_logNormShiftAmp_detection_fixFreq,2020.1.2,MacIntel,60,,,,,,,,,,,,,,,,,,1,6.6741,,0,0,28,28,21,1,stimuli/stim_20210919_power2amp/equal_lnn_AM2Hz_s25_38.m4a,,,,,,,,,,,,
,,,,,,,,,,,,41618,2021-10-02_21h22.56.432,judgeSpeechMusic_20210919_logNormShiftAmp_detection_fixFreq,2020.1.2,MacIntel,60,,,,,,,,,,,,,,,,,,2,6.5269,,0,0,29,29,0,1,stimuli/stim_20210919_power2amp/equal_lnn_AM2Hz_s15_46.m4a,,,,,,,,,,,,
,,,,,,,,,,,,41618,2021-10-02_21h22.56.432,judgeSpeechMusic_20210919_logNormShiftAmp_detection_fixFreq,2020.1.2,MacIntel,60,,,,,,,,,,,,,,,,,,2,5.8455,,0,0,30,30,46,1,stimuli/stim_20210919_power2amp/equal_lnn_AM2Hz_s45_45.m4a,,,,,,,,,,,,
,,,,,,,,,,,,41618,2021-10-02_21h22.56.432,judgeSpeechMusic_20210919_logNormShiftAmp_detection_fixFreq,2020.1.2,MacIntel,60,,,,,,,,,,,,,,,,,,2,7.755,,0,0,31,31,35,1,stimuli/stim_20210919_power2amp/equal_lnn_AM2Hz_s35_46.m4a,,,,,,,,,,,,
,,,,,,,,,,,,41618,2021-10-02_21h22.56.432,judgeSpeechMusic_20210919_logNormShiftAmp_detection_fixFreq,2020.1.2,MacIntel,60,,,,,,,,,,,,,,,,,,2,6.7296,,0,0,32,32,25,1,stimuli/stim_20210919_power2amp/equal_lnn_AM2Hz_s25_14.m4a,,,,,,,,,,,,
,,,,,,,,,,,,41618,2021-10-02_21h22.56.432,judgeSpeechMusic_20210919_logNormShiftAmp_detection_fixFreq,2020.1.2,MacIntel,60,,,,,,,,,,,,,,,,,,1,8.0753,,0,0,33,33,37,1,stimuli/stim_20210919_power2amp/equal_lnn_AM2Hz_s35_8.m4a,,,,,,,,,,,,
,,,,,,,,,,,,41618,2021-10-02_21h22.56.432,judgeSpeechMusic_20210919_logNormShiftAmp_detection_fixFreq,2020.1.2,MacIntel,60,,,,,,,,,,,,,,,,,,2,6.1051,,0,0,34,34,36,1,stimuli/stim_20210919_power2amp/equal_lnn_AM2Hz_s35_2.m4a,,,,,,,,,,,,
,,,,,,,,,,,,41618,2021-10-02_21h22.56.432,judgeSpeechMusic_20210919_logNormShiftAmp_detection_fixFreq,2020.1.2,MacIntel,60,,,,,,,,,,,,,,,,,,2,5.839,,0,0,35,35,68,1,stimuli/stim_20210919_power2amp/equal_lnn_AM2Hz_s55_14.m4a,,,,,,,,,,,,
,,,,,,,,,,,,41618,2021-10-02_21h22.56.432,judgeSpeechMusic_20210919_logNormShiftAmp_detection_fixFreq,2020.1.2,MacIntel,60,,,,,,,,,,,,,,,,,,1,5.893,,0,0,36,36,2,1,stimuli/stim_20210919_power2amp/equal_lnn_AM2Hz_s15_3.m4a,,,,,,,,,,,,
,,,,,,,,,,,,41618,2021-10-02_21h22.56.432,judgeSpeechMusic_20210919_logNormShiftAmp_detection_fixFreq,2020.1.2,MacIntel,60,,,,,,,,,,,,,,,,,,1,5.7449,,0,0,37,37,20,1,stimuli/stim_20210919_power2amp/equal_lnn_AM2Hz_s25_13.m4a,,,,,,,,,,,,
,,,,,,,,,,,,41618,2021-10-02_21h22.56.432,judgeSpeechMusic_20210919_logNormShiftAmp_detection_fixFreq,2020.1.2,MacIntel,60,,,,,,,,,,,,,,,,,,1,6.1229,,0,0,38,38,74,1,stimuli/stim_20210919_power2amp/equal_lnn_AM2Hz_s55_23.m4a,,,,,,,,,,,,
,,,,,,,,,,,,41618,2021-10-02_21h22.56.432,judgeSpeechMusic_20210919_logNormShiftAmp_detection_fixFreq,2020.1.2,MacIntel,60,,,,,,,,,,,,,,,,,,2,6.6554,2,1,0,39,39,57,1,stimuli/stim_20210919_power2amp/equal_lnn_AM2Hz_s45_27.m4a,0.8227,,,,,,,,,,,
,,,,,,,,,,,,41618,2021-10-02_21h22.56.432,judgeSpeechMusic_20210919_logNormShiftAmp_detection_fixFreq,2020.1.2,MacIntel,60,,,,,,,,,,,,,,,,,,2,6.5391,,0,0,40,40,29,1,stimuli/stim_20210919_power2amp/equal_lnn_AM2Hz_s25_18.m4a,,,,,,,,,,,,
,,,,,,,,,,,,41618,2021-10-02_21h22.56.432,judgeSpeechMusic_20210919_logNormShiftAmp_detection_fixFreq,2020.1.2,MacIntel,60,,,,,,,,,,,,,,,,,,1,7.2596,,0,0,41,41,3,1,stimuli/stim_20210919_power2amp/equal_lnn_AM2Hz_s15_7.m4a,,,,,,,,,,,,
,,,,,,,,,,,,41618,2021-10-02_21h22.56.432,judgeSpeechMusic_20210919_logNormShiftAmp_detection_fixFreq,2020.1.2,MacIntel,60,,,,,,,,,,,,,,,,,,2,6.0896,,0,0,42,42,59,1,stimuli/stim_20210919_power2amp/equal_lnn_AM2Hz_s45_2.m4a,,,,,,,,,,,,
,,,,,,,,,,,,41618,2021-10-02_21h22.56.432,judgeSpeechMusic_20210919_logNormShiftAmp_detection_fixFreq,2020.1.2,MacIntel,60,,,,,,,,,,,,,,,,,,2,6.0716,,0,0,43,43,47,1,stimuli/stim_20210919_power2amp/equal_lnn_AM2Hz_s45_5.m4a,,,,,,,,,,,,
,,,,,,,,,,,,41618,2021-10-02_21h22.56.432,judgeSpeechMusic_20210919_logNormShiftAmp_detection_fixFreq,2020.1.2,MacIntel,60,,,,,,,,,,,,,,,,,,1,6.1962,,0,0,44,44,73,1,stimuli/stim_20210919_power2amp/equal_lnn_AM2Hz_s55_12.m4a,,,,,,,,,,,,
,,,,,,,,,,,,41618,2021-10-02_21h22.56.432,judgeSpeechMusic_20210919_logNormShiftAmp_detection_fixFreq,2020.1.2,MacIntel,60,,,,,,,,,,,,,,,,,,2,6.8906,,0,0,45,45,39,1,stimuli/stim_20210919_power2amp/equal_lnn_AM2Hz_s35_15.m4a,,,,,,,,,,,,
,,,,,,,,,,,,41618,2021-10-02_21h22.56.432,judgeSpeechMusic_20210919_logNormShiftAmp_detection_fixFreq,2020.1.2,MacIntel,60,,,,,,,,,,,,,,,,,,2,6.1969,,0,0,46,46,18,1,stimuli/stim_20210919_power2amp/equal_lnn_AM2Hz_s25_48.m4a,,,,,,,,,,,,
,,,,,,,,,,,,41618,2021-10-02_21h22.56.432,judgeSpeechMusic_20210919_logNormShiftAmp_detection_fixFreq,2020.1.2,MacIntel,60,,,,,,,,,,,,,,,,,,1,6.3616,,0,0,47,47,38,1,stimuli/stim_20210919_power2amp/equal_lnn_AM2Hz_s35_35.m4a,,,,,,,,,,,,
,,,,,,,,,,,,41618,2021-10-02_21h22.56.432,judgeSpeechMusic_20210919_logNormShiftAmp_detection_fixFreq,2020.1.2,MacIntel,60,,,,,,,,,,,,,,,,,,2,6.3385,,0,0,48,48,70,1,stimuli/stim_20210919_power2amp/equal_lnn_AM2Hz_s55_44.m4a,,,,,,,,,,,,
,,,,,,,,,,,,41618,2021-10-02_21h22.56.432,judgeSpeechMusic_20210919_logNormShiftAmp_detection_fixFreq,2020.1.2,MacIntel,60,,,,,,,,,,,,,,,,,,1,6.8561,,0,0,49,49,1,1,stimuli/stim_20210919_power2amp/equal_lnn_AM2Hz_s15_17.m4a,,,,,,,,,,,,
,,,,,,,,,,,,41618,2021-10-02_21h22.56.432,judgeSpeechMusic_20210919_logNormShiftAmp_detection_fixFreq,2020.1.2,MacIntel,60,,,,,,,,,,,,,,,,,,2,9.8734,,0,0,50,50,51,1,stimuli/stim_20210919_power2amp/equal_lnn_AM2Hz_s45_38.m4a,,,,,,,,,,,,
,,,,,,,,,,,,41618,2021-10-02_21h22.56.432,judgeSpeechMusic_20210919_logNormShiftAmp_detection_fixFreq,2020.1.2,MacIntel,60,,,,,,,,,,,,,,,,,,2,6.0545,,0,0,51,51,66,1,stimuli/stim_20210919_power2amp/equal_lnn_AM2Hz_s55_13.m4a,,,,,,,,,,,,
,,,,,,,,,,,,41618,2021-10-02_21h22.56.432,judgeSpeechMusic_20210919_logNormShiftAmp_detection_fixFreq,2020.1.2,MacIntel,60,,,,,,,,,,,,,,,,,,1,7.0382,,0,0,52,52,56,1,stimuli/stim_20210919_power2amp/equal_lnn_AM2Hz_s45_1.m4a,,,,,,,,,,,,
,,,,,,,,,,,,41618,2021-10-02_21h22.56.432,judgeSpeechMusic_20210919_logNormShiftAmp_detection_fixFreq,2020.1.2,MacIntel,60,,,,,,,,,,,,,,,,,,2,10.6726,,0,0,53,53,40,1,stimuli/stim_20210919_power2amp/equal_lnn_AM2Hz_s35_21.m4a,,,,,,,,,,,,
,,,,,,,,,,,,41618,2021-10-02_21h22.56.432,judgeSpeechMusic_20210919_logNormShiftAmp_detection_fixFreq,2020.1.2,MacIntel,60,,,,,,,,,,,,,,,,,,1,6.6626,,0,0,54,54,69,1,stimuli/stim_20210919_power2amp/equal_lnn_AM2Hz_s55_15.m4a,,,,,,,,,,,,
,,,,,,,,,,,,41618,2021-10-02_21h22.56.432,judgeSpeechMusic_20210919_logNormShiftAmp_detection_fixFreq,2020.1.2,MacIntel,60,,,,,,,,,,,,,,,,,,2,6.3105,,0,0,55,55,23,1,stimuli/stim_20210919_power2amp/equal_lnn_AM2Hz_s25_8.m4a,,,,,,,,,,,,
,,,,,,,,,,,,41618,2021-10-02_21h22.56.432,judgeSpeechMusic_20210919_logNormShiftAmp_detection_fixFreq,2020.1.2,MacIntel,60,,,,,,,,,,,,,,,,,,1,8.7782,,0,0,56,56,50,1,stimuli/stim_20210919_power2amp/equal_lnn_AM2Hz_s45_25.m4a,,,,,,,,,,,,
,,,,,,,,,,,,41618,2021-10-02_21h22.56.432,judgeSpeechMusic_20210919_logNormShiftAmp_detection_fixFreq,2020.1.2,MacIntel,60,,,,,,,,,,,,,,,,,,2,8.5623,,0,0,57,57,5,1,stimuli/stim_20210919_power2amp/equal_lnn_AM2Hz_s15_41.m4a,,,,,,,,,,,,
,,,,,,,,,,,,41618,2021-10-02_21h22.56.432,judgeSpeechMusic_20210919_logNormShiftAmp_detection_fixFreq,2020.1.2,MacIntel,60,,,,,,,,,,,,,,,,,,2,5.9731,,0,0,58,58,58,1,stimuli/stim_20210919_power2amp/equal_lnn_AM2Hz_s45_4.m4a,,,,,,,,,,,,
,,,,,,,,,,,,41618,2021-10-02_21h22.56.432,judgeSpeechMusic_20210919_logNormShiftAmp_detection_fixFreq,2020.1.2,MacIntel,60,,,,,,,,,,,,,,,,,,1,5.995,,0,0,59,59,31,1,stimuli/stim_20210919_power2amp/equal_lnn_AM2Hz_s35_5.m4a,,,,,,,,,,,,
,,,,,,,,,,,,41618,2021-10-02_21h22.56.432,judgeSpeechMusic_20210919_logNormShiftAmp_detection_fixFreq,2020.1.2,MacIntel,60,,,,,,,,,,,,,,,,,,2,6.5043,2,1,0,60,60,62,1,stimuli/stim_20210919_power2amp/equal_lnn_AM2Hz_s55_24.m4a,0.6783,,,,,,,,,,,
,,,,,,,,,,,,41618,2021-10-02_21h22.56.432,judgeSpeechMusic_20210919_logNormShiftAmp_detection_fixFreq,2020.1.2,MacIntel,60,,,,,,,,,,,,,,,,,,1,6.7584,,0,0,61,61,61,1,stimuli/stim_20210919_power2amp/equal_lnn_AM2Hz_s55_25.m4a,,,,,,,,,,,,
,,,,,,,,,,,,41618,2021-10-02_21h22.56.432,judgeSpeechMusic_20210919_logNormShiftAmp_detection_fixFreq,2020.1.2,MacIntel,60,,,,,,,,,,,,,,,,,,2,5.8715,,0,0,62,62,53,1,stimuli/stim_20210919_power2amp/equal_lnn_AM2Hz_s45_32.m4a,,,,,,,,,,,,
,,,,,,,,,,,,41618,2021-10-02_21h22.56.432,judgeSpeechMusic_20210919_logNormShiftAmp_detection_fixFreq,2020.1.2,MacIntel,60,,,,,,,,,,,,,,,,,,1,6.9762,,0,0,63,63,55,1,stimuli/stim_20210919_power2amp/equal_lnn_AM2Hz_s45_46.m4a,,,,,,,,,,,,
,,,,,,,,,,,,41618,2021-10-02_21h22.56.432,judgeSpeechMusic_20210919_logNormShiftAmp_detection_fixFreq,2020.1.2,MacIntel,60,,,,,,,,,,,,,,,,,,2,5.8617,,0,0,64,64,67,1,stimuli/stim_20210919_power2amp/equal_lnn_AM2Hz_s55_49.m4a,,,,,,,,,,,,
,,,,,,,,,,,,41618,2021-10-02_21h22.56.432,judgeSpeechMusic_20210919_logNormShiftAmp_detection_fixFreq,2020.1.2,MacIntel,60,,,,,,,,,,,,,,,,,,1,6.4641,,0,0,65,65,8,1,stimuli/stim_20210919_power2amp/equal_lnn_AM2Hz_s15_28.m4a,,,,,,,,,,,,
,,,,,,,,,,,,41618,2021-10-02_21h22.56.432,judgeSpeechMusic_20210919_logNormShiftAmp_detection_fixFreq,2020.1.2,MacIntel,60,,,,,,,,,,,,,,,,,,1,6.6456,,0,0,66,66,41,1,stimuli/stim_20210919_power2amp/equal_lnn_AM2Hz_s35_17.m4a,,,,,,,,,,,,
,,,,,,,,,,,,41618,2021-10-02_21h22.56.432,judgeSpeechMusic_20210919_logNormShiftAmp_detection_fixFreq,2020.1.2,MacIntel,60,,,,,,,,,,,,,,,,,,2,7.4045,,0,0,67,67,11,1,stimuli/stim_20210919_power2amp/equal_lnn_AM2Hz_s15_15.m4a,,,,,,,,,,,,
,,,,,,,,,,,,41618,2021-10-02_21h22.56.432,judgeSpeechMusic_20210919_logNormShiftAmp_detection_fixFreq,2020.1.2,MacIntel,60,,,,,,,,,,,,,,,,,,1,6.1794,,0,0,68,68,10,1,stimuli/stim_20210919_power2amp/equal_lnn_AM2Hz_s15_13.m4a,,,,,,,,,,,,
,,,,,,,,,,,,41618,2021-10-02_21h22.56.432,judgeSpeechMusic_20210919_logNormShiftAmp_detection_fixFreq,2020.1.2,MacIntel,60,,,,,,,,,,,,,,,,,,2,6.9896,,0,0,69,69,17,1,stimuli/stim_20210919_power2amp/equal_lnn_AM2Hz_s25_11.m4a,,,,,,,,,,,,
,,,,,,,,,,,,41618,2021-10-02_21h22.56.432,judgeSpeechMusic_20210919_logNormShiftAmp_detection_fixFreq,2020.1.2,MacIntel,60,,,,,,,,,,,,,,,,,,2,6.6074,,0,0,70,70,27,1,stimuli/stim_20210919_power2amp/equal_lnn_AM2Hz_s25_21.m4a,,,,,,,,,,,,
,,,,,,,,,,,,41618,2021-10-02_21h22.56.432,judgeSpeechMusic_20210919_logNormShiftAmp_detection_fixFreq,2020.1.2,MacIntel,60,,,,,,,,,,,,,,,,,,1,7.2548,,0,0,71,71,28,1,stimuli/stim_20210919_power2amp/equal_lnn_AM2Hz_s25_42.m4a,,,,,,,,,,,,
,,,,,,,,,,,,41618,2021-10-02_21h22.56.432,judgeSpeechMusic_20210919_logNormShiftAmp_detection_fixFreq,2020.1.2,MacIntel,60,,,,,,,,,,,,,,,,,,2,6.5059,,0,0,72,72,14,1,stimuli/stim_20210919_power2amp/equal_lnn_AM2Hz_s15_2.m4a,,,,,,,,,,,,
,,,,,,,,,,,,41618,2021-10-02_21h22.56.432,judgeSpeechMusic_20210919_logNormShiftAmp_detection_fixFreq,2020.1.2,MacIntel,60,,,,,,,,,,,,,,,,,,1,6.3815,,0,0,73,73,30,1,stimuli/stim_20210919_power2amp/equal_lnn_AM2Hz_s35_10.m4a,,,,,,,,,,,,
,,,,,,,,,,,,41618,2021-10-02_21h22.56.432,judgeSpeechMusic_20210919_logNormShiftAmp_detection_fixFreq,2020.1.2,MacIntel,60,,,,,,,,,,,,,,,,,,2,10.8204,,0,0,74,74,43,1,stimuli/stim_20210919_power2amp/equal_lnn_AM2Hz_s35_38.m4a,,,,,,,,,,,,
,,,,,,,,,,,,41618,2021-10-02_21h22.56.432,judgeSpeechMusic_20210919_logNormShiftAmp_detection_fixFreq,2020.1.2,MacIntel,60,,,,,,,,,,,,,,,,,,,,,,,,,,,,,,,1,1,3,1,1,SPEECH,stimuli/SPEECH.jpg,,
,,,,,,,,,,,,41618,2021-10-02_21h22.56.432,judgeSpeechMusic_20210919_logNormShiftAmp_detection_fixFreq,2020.1.2,MacIntel,60,,,,,,,,,,,,,,,,,,,,,,,,,,,,,,,,,,,,,,space,9.3088
