volAdjustRep.thisRepN,volAdjustRep.thisTrialN,volAdjustRep.thisN,volAdjustRep.thisIndex,volAdjustRep.ran,participant,date,expName,psychopyVersion,OS,frameRate,headphoneResponse.keys,headphoneResponse.corr,headphoneResponse.rt,headphoneTrial.thisRepN,headphoneTrial.thisTrialN,headphoneTrial.thisN,headphoneTrial.thisIndex,headphoneTrial.ran,headphone_sound1,headphone_sound2,headphone_sound3,corrAns,checkInstruKey.keys,checkInstruKey.rt,trainSlider.response,trainSlider.rt,beepTrainResponse.keys,beepTrainResponse.corr,trainingTrials.thisRepN,trainingTrials.thisTrialN,trainingTrials.thisN,trainingTrials.thisIndex,trainingTrials.ran,trainAudioFile,beepTrainResponse.rt,readyReal_resp.keys,readyReal_resp.rt,checkInstru2_key.keys,checkInstru2_key.rt,ratingSlider.response,ratingSlider.rt,beepResp.keys,beepResp.corr,expTrials.thisRepN,expTrials.thisTrialN,expTrials.thisN,expTrials.thisIndex,expTrials.ran,audioFile,beepResp.rt,switchBlock_space.keys,switchBlock_space.rt,block.thisRepN,block.thisTrialN,block.thisN,block.thisIndex,block.ran,blockName,blockImage,end_resp.keys,end_resp.rt
0,0,0,0,1,41661,2021-09-30_14h20.15.927,judgeSpeechMusic_20210919_logNormShiftAmp_detection_fixFreq,2020.1.2,Win32,60,,,,,,,,,,,,,,,,,,,,,,,,,,,,,,,,,,,,,,,,,,,,,,,,,,,
,,,,,41661,2021-09-30_14h20.15.927,judgeSpeechMusic_20210919_logNormShiftAmp_detection_fixFreq,2020.1.2,Win32,60,2,0,5.8911,0,0,0,5,1,stimuli/screen_quiet.wav,stimuli/screen_origin.wav,stimuli/screen_antiphase.wav,1,,,,,,,,,,,,,,,,,,,,,,,,,,,,,,,,,,,,,,,
,,,,,41661,2021-09-30_14h20.15.927,judgeSpeechMusic_20210919_logNormShiftAmp_detection_fixFreq,2020.1.2,Win32,60,3,1,1.1854,0,1,1,2,1,stimuli/screen_origin.wav,stimuli/screen_antiphase.wav,stimuli/screen_quiet.wav,3,,,,,,,,,,,,,,,,,,,,,,,,,,,,,,,,,,,,,,,
,,,,,41661,2021-09-30_14h20.15.927,judgeSpeechMusic_20210919_logNormShiftAmp_detection_fixFreq,2020.1.2,Win32,60,2,1,1.5034,0,2,2,1,1,stimuli/screen_antiphase.wav,stimuli/screen_quiet.wav,stimuli/screen_origin.wav,2,,,,,,,,,,,,,,,,,,,,,,,,,,,,,,,,,,,,,,,
,,,,,41661,2021-09-30_14h20.15.927,judgeSpeechMusic_20210919_logNormShiftAmp_detection_fixFreq,2020.1.2,Win32,60,1,1,0.6548,0,3,3,4,1,stimuli/screen_quiet.wav,stimuli/screen_antiphase.wav,stimuli/screen_origin.wav,1,,,,,,,,,,,,,,,,,,,,,,,,,,,,,,,,,,,,,,,
,,,,,41661,2021-09-30_14h20.15.927,judgeSpeechMusic_20210919_logNormShiftAmp_detection_fixFreq,2020.1.2,Win32,60,3,1,1.3918,0,4,4,0,1,stimuli/screen_antiphase.wav,stimuli/screen_origin.wav,stimuli/screen_quiet.wav,3,,,,,,,,,,,,,,,,,,,,,,,,,,,,,,,,,,,,,,,
,,,,,41661,2021-09-30_14h20.15.927,judgeSpeechMusic_20210919_logNormShiftAmp_detection_fixFreq,2020.1.2,Win32,60,2,1,0.4695,0,5,5,3,1,stimuli/screen_origin.wav,stimuli/screen_quiet.wav,stimuli/screen_antiphase.wav,2,,,,,,,,,,,,,,,,,,,,,,,,,,,,,,,,,,,,,,,
,,,,,41661,2021-09-30_14h20.15.927,judgeSpeechMusic_20210919_logNormShiftAmp_detection_fixFreq,2020.1.2,Win32,60,,,,,,,,,,,,,space,1.5825,1,10.6467,,0,0,0,0,1,1,stimuli/stim_20210919_power2amp/equal_lnn_AM_training2Hz_s30.m4a,,,,,,,,,,,,,,,,,,,,,,,,,,,
,,,,,41661,2021-09-30_14h20.15.927,judgeSpeechMusic_20210919_logNormShiftAmp_detection_fixFreq,2020.1.2,Win32,60,,,,,,,,,,,,,,,1,8.0998,,0,0,1,1,2,1,stimuli/stim_20210919_power2amp/equal_lnn_AM_training2Hz_s40.m4a,,,,,,,,,,,,,,,,,,,,,,,,,,,
,,,,,41661,2021-09-30_14h20.15.927,judgeSpeechMusic_20210919_logNormShiftAmp_detection_fixFreq,2020.1.2,Win32,60,,,,,,,,,,,,,,,1,6.4005,2,1,0,2,2,0,1,stimuli/stim_20210919_power2amp/equal_lnn_AM_training2Hz_s20.m4a,0.0575,,,,,,,,,,,,,,,,,,,,,,,,,,
,,,,,41661,2021-09-30_14h20.15.927,judgeSpeechMusic_20210919_logNormShiftAmp_detection_fixFreq,2020.1.2,Win32,60,,,,,,,,,,,,,,,1,7.0945,,0,0,3,3,3,1,stimuli/stim_20210919_power2amp/equal_lnn_AM_training2Hz_s50.m4a,,,,,,,,,,,,,,,,,,,,,,,,,,,
,,,,,41661,2021-09-30_14h20.15.927,judgeSpeechMusic_20210919_logNormShiftAmp_detection_fixFreq,2020.1.2,Win32,60,,,,,,,,,,,,,,,,,,,,,,,,,,space,3.8584,space,0.6903,1,7.7252,,0,0,0,0,2,1,stimuli/stim_20210919_power2amp/equal_lnn_AM2Hz_s15_6.m4a,,,,,,,,,,,,
,,,,,41661,2021-09-30_14h20.15.927,judgeSpeechMusic_20210919_logNormShiftAmp_detection_fixFreq,2020.1.2,Win32,60,,,,,,,,,,,,,,,,,,,,,,,,,,,,,,1,7.7199,,0,0,1,1,9,1,stimuli/stim_20210919_power2amp/equal_lnn_AM2Hz_s15_42.m4a,,,,,,,,,,,,
,,,,,41661,2021-09-30_14h20.15.927,judgeSpeechMusic_20210919_logNormShiftAmp_detection_fixFreq,2020.1.2,Win32,60,,,,,,,,,,,,,,,,,,,,,,,,,,,,,,2,6.6512,,0,0,2,2,19,1,stimuli/stim_20210919_power2amp/equal_lnn_AM2Hz_s25_25.m4a,,,,,,,,,,,,
,,,,,41661,2021-09-30_14h20.15.927,judgeSpeechMusic_20210919_logNormShiftAmp_detection_fixFreq,2020.1.2,Win32,60,,,,,,,,,,,,,,,,,,,,,,,,,,,,,,2,6.0852,,0,0,3,3,38,1,stimuli/stim_20210919_power2amp/equal_lnn_AM2Hz_s35_31.m4a,,,,,,,,,,,,
,,,,,41661,2021-09-30_14h20.15.927,judgeSpeechMusic_20210919_logNormShiftAmp_detection_fixFreq,2020.1.2,Win32,60,,,,,,,,,,,,,,,,,,,,,,,,,,,,,,1,7.3259,,0,0,4,4,28,1,stimuli/stim_20210919_power2amp/equal_lnn_AM2Hz_s25_22.m4a,,,,,,,,,,,,
,,,,,41661,2021-09-30_14h20.15.927,judgeSpeechMusic_20210919_logNormShiftAmp_detection_fixFreq,2020.1.2,Win32,60,,,,,,,,,,,,,,,,,,,,,,,,,,,,,,1,6.7186,,0,0,5,5,61,1,stimuli/stim_20210919_power2amp/equal_lnn_AM2Hz_s55_17.m4a,,,,,,,,,,,,
,,,,,41661,2021-09-30_14h20.15.927,judgeSpeechMusic_20210919_logNormShiftAmp_detection_fixFreq,2020.1.2,Win32,60,,,,,,,,,,,,,,,,,,,,,,,,,,,,,,1,6.9352,,0,0,6,6,33,1,stimuli/stim_20210919_power2amp/equal_lnn_AM2Hz_s35_47.m4a,,,,,,,,,,,,
,,,,,41661,2021-09-30_14h20.15.927,judgeSpeechMusic_20210919_logNormShiftAmp_detection_fixFreq,2020.1.2,Win32,60,,,,,,,,,,,,,,,,,,,,,,,,,,,,,,2,6.8354,,0,0,7,7,3,1,stimuli/stim_20210919_power2amp/equal_lnn_AM2Hz_s15_34.m4a,,,,,,,,,,,,
,,,,,41661,2021-09-30_14h20.15.927,judgeSpeechMusic_20210919_logNormShiftAmp_detection_fixFreq,2020.1.2,Win32,60,,,,,,,,,,,,,,,,,,,,,,,,,,,,,,1,6.6263,,0,0,8,8,59,1,stimuli/stim_20210919_power2amp/equal_lnn_AM2Hz_s45_35.m4a,,,,,,,,,,,,
,,,,,41661,2021-09-30_14h20.15.927,judgeSpeechMusic_20210919_logNormShiftAmp_detection_fixFreq,2020.1.2,Win32,60,,,,,,,,,,,,,,,,,,,,,,,,,,,,,,1,7.3895,,0,0,9,9,63,1,stimuli/stim_20210919_power2amp/equal_lnn_AM2Hz_s55_49.m4a,,,,,,,,,,,,
,,,,,41661,2021-09-30_14h20.15.927,judgeSpeechMusic_20210919_logNormShiftAmp_detection_fixFreq,2020.1.2,Win32,60,,,,,,,,,,,,,,,,,,,,,,,,,,,,,,1,18.7363,,0,0,10,10,66,1,stimuli/stim_20210919_power2amp/equal_lnn_AM2Hz_s55_18.m4a,,,,,,,,,,,,
,,,,,41661,2021-09-30_14h20.15.927,judgeSpeechMusic_20210919_logNormShiftAmp_detection_fixFreq,2020.1.2,Win32,60,,,,,,,,,,,,,,,,,,,,,,,,,,,,,,1,6.4027,,0,0,11,11,11,1,stimuli/stim_20210919_power2amp/equal_lnn_AM2Hz_s15_10.m4a,,,,,,,,,,,,
,,,,,41661,2021-09-30_14h20.15.927,judgeSpeechMusic_20210919_logNormShiftAmp_detection_fixFreq,2020.1.2,Win32,60,,,,,,,,,,,,,,,,,,,,,,,,,,,,,,2,12.9843,,0,0,12,12,43,1,stimuli/stim_20210919_power2amp/equal_lnn_AM2Hz_s35_49.m4a,,,,,,,,,,,,
,,,,,41661,2021-09-30_14h20.15.927,judgeSpeechMusic_20210919_logNormShiftAmp_detection_fixFreq,2020.1.2,Win32,60,,,,,,,,,,,,,,,,,,,,,,,,,,,,,,2,6.9847,,0,0,13,13,53,1,stimuli/stim_20210919_power2amp/equal_lnn_AM2Hz_s45_45.m4a,,,,,,,,,,,,
,,,,,41661,2021-09-30_14h20.15.927,judgeSpeechMusic_20210919_logNormShiftAmp_detection_fixFreq,2020.1.2,Win32,60,,,,,,,,,,,,,,,,,,,,,,,,,,,,,,2,5.9023,,0,0,14,14,15,1,stimuli/stim_20210919_power2amp/equal_lnn_AM2Hz_s25_9.m4a,,,,,,,,,,,,
,,,,,41661,2021-09-30_14h20.15.927,judgeSpeechMusic_20210919_logNormShiftAmp_detection_fixFreq,2020.1.2,Win32,60,,,,,,,,,,,,,,,,,,,,,,,,,,,,,,1,7.0219,,0,0,15,15,70,1,stimuli/stim_20210919_power2amp/equal_lnn_AM2Hz_s55_28.m4a,,,,,,,,,,,,
,,,,,41661,2021-09-30_14h20.15.927,judgeSpeechMusic_20210919_logNormShiftAmp_detection_fixFreq,2020.1.2,Win32,60,,,,,,,,,,,,,,,,,,,,,,,,,,,,,,2,6.4436,,0,0,16,16,29,1,stimuli/stim_20210919_power2amp/equal_lnn_AM2Hz_s25_37.m4a,,,,,,,,,,,,
,,,,,41661,2021-09-30_14h20.15.927,judgeSpeechMusic_20210919_logNormShiftAmp_detection_fixFreq,2020.1.2,Win32,60,,,,,,,,,,,,,,,,,,,,,,,,,,,,,,1,6.6173,,0,0,17,17,49,1,stimuli/stim_20210919_power2amp/equal_lnn_AM2Hz_s45_25.m4a,,,,,,,,,,,,
,,,,,41661,2021-09-30_14h20.15.927,judgeSpeechMusic_20210919_logNormShiftAmp_detection_fixFreq,2020.1.2,Win32,60,,,,,,,,,,,,,,,,,,,,,,,,,,,,,,1,6.7739,,0,0,18,18,73,1,stimuli/stim_20210919_power2amp/equal_lnn_AM2Hz_s55_50.m4a,,,,,,,,,,,,
,,,,,41661,2021-09-30_14h20.15.927,judgeSpeechMusic_20210919_logNormShiftAmp_detection_fixFreq,2020.1.2,Win32,60,,,,,,,,,,,,,,,,,,,,,,,,,,,,,,2,6.6046,4,1,0,19,19,50,1,stimuli/stim_20210919_power2amp/equal_lnn_AM2Hz_s45_27.m4a,2.6222,,,,,,,,,,,
,,,,,41661,2021-09-30_14h20.15.927,judgeSpeechMusic_20210919_logNormShiftAmp_detection_fixFreq,2020.1.2,Win32,60,,,,,,,,,,,,,,,,,,,,,,,,,,,,,,2,8.5396,,0,0,20,20,7,1,stimuli/stim_20210919_power2amp/equal_lnn_AM2Hz_s15_28.m4a,,,,,,,,,,,,
,,,,,41661,2021-09-30_14h20.15.927,judgeSpeechMusic_20210919_logNormShiftAmp_detection_fixFreq,2020.1.2,Win32,60,,,,,,,,,,,,,,,,,,,,,,,,,,,,,,1,7.9579,,0,0,21,21,0,1,stimuli/stim_20210919_power2amp/equal_lnn_AM2Hz_s15_23.m4a,,,,,,,,,,,,
,,,,,41661,2021-09-30_14h20.15.927,judgeSpeechMusic_20210919_logNormShiftAmp_detection_fixFreq,2020.1.2,Win32,60,,,,,,,,,,,,,,,,,,,,,,,,,,,,,,1,8.4724,,0,0,22,22,6,1,stimuli/stim_20210919_power2amp/equal_lnn_AM2Hz_s15_45.m4a,,,,,,,,,,,,
,,,,,41661,2021-09-30_14h20.15.927,judgeSpeechMusic_20210919_logNormShiftAmp_detection_fixFreq,2020.1.2,Win32,60,,,,,,,,,,,,,,,,,,,,,,,,,,,,,,2,9.4444,,0,0,23,23,17,1,stimuli/stim_20210919_power2amp/equal_lnn_AM2Hz_s25_11.m4a,,,,,,,,,,,,
,,,,,41661,2021-09-30_14h20.15.927,judgeSpeechMusic_20210919_logNormShiftAmp_detection_fixFreq,2020.1.2,Win32,60,,,,,,,,,,,,,,,,,,,,,,,,,,,,,,1,6.5885,,0,0,24,24,30,1,stimuli/stim_20210919_power2amp/equal_lnn_AM2Hz_s35_37.m4a,,,,,,,,,,,,
,,,,,41661,2021-09-30_14h20.15.927,judgeSpeechMusic_20210919_logNormShiftAmp_detection_fixFreq,2020.1.2,Win32,60,,,,,,,,,,,,,,,,,,,,,,,,,,,,,,1,6.3708,,0,0,25,25,42,1,stimuli/stim_20210919_power2amp/equal_lnn_AM2Hz_s35_11.m4a,,,,,,,,,,,,
,,,,,41661,2021-09-30_14h20.15.927,judgeSpeechMusic_20210919_logNormShiftAmp_detection_fixFreq,2020.1.2,Win32,60,,,,,,,,,,,,,,,,,,,,,,,,,,,,,,2,5.9325,,0,0,26,26,31,1,stimuli/stim_20210919_power2amp/equal_lnn_AM2Hz_s35_22.m4a,,,,,,,,,,,,
,,,,,41661,2021-09-30_14h20.15.927,judgeSpeechMusic_20210919_logNormShiftAmp_detection_fixFreq,2020.1.2,Win32,60,,,,,,,,,,,,,,,,,,,,,,,,,,,,,,1,11.7791,,0,0,27,27,10,1,stimuli/stim_20210919_power2amp/equal_lnn_AM2Hz_s15_50.m4a,,,,,,,,,,,,
,,,,,41661,2021-09-30_14h20.15.927,judgeSpeechMusic_20210919_logNormShiftAmp_detection_fixFreq,2020.1.2,Win32,60,,,,,,,,,,,,,,,,,,,,,,,,,,,,,,2,27.3288,,0,0,28,28,25,1,stimuli/stim_20210919_power2amp/equal_lnn_AM2Hz_s25_48.m4a,,,,,,,,,,,,
,,,,,41661,2021-09-30_14h20.15.927,judgeSpeechMusic_20210919_logNormShiftAmp_detection_fixFreq,2020.1.2,Win32,60,,,,,,,,,,,,,,,,,,,,,,,,,,,,,,1,7.7568,,0,0,29,29,46,1,stimuli/stim_20210919_power2amp/equal_lnn_AM2Hz_s45_5.m4a,,,,,,,,,,,,
,,,,,41661,2021-09-30_14h20.15.927,judgeSpeechMusic_20210919_logNormShiftAmp_detection_fixFreq,2020.1.2,Win32,60,,,,,,,,,,,,,,,,,,,,,,,,,,,,,,1,7.8858,,0,0,30,30,65,1,stimuli/stim_20210919_power2amp/equal_lnn_AM2Hz_s55_25.m4a,,,,,,,,,,,,
,,,,,41661,2021-09-30_14h20.15.927,judgeSpeechMusic_20210919_logNormShiftAmp_detection_fixFreq,2020.1.2,Win32,60,,,,,,,,,,,,,,,,,,,,,,,,,,,,,,1,8.0561,,0,0,31,31,5,1,stimuli/stim_20210919_power2amp/equal_lnn_AM2Hz_s15_4.m4a,,,,,,,,,,,,
,,,,,41661,2021-09-30_14h20.15.927,judgeSpeechMusic_20210919_logNormShiftAmp_detection_fixFreq,2020.1.2,Win32,60,,,,,,,,,,,,,,,,,,,,,,,,,,,,,,2,10.0184,,0,0,32,32,55,1,stimuli/stim_20210919_power2amp/equal_lnn_AM2Hz_s45_28.m4a,,,,,,,,,,,,
,,,,,41661,2021-09-30_14h20.15.927,judgeSpeechMusic_20210919_logNormShiftAmp_detection_fixFreq,2020.1.2,Win32,60,,,,,,,,,,,,,,,,,,,,,,,,,,,,,,2,6.2408,,0,0,33,33,4,1,stimuli/stim_20210919_power2amp/equal_lnn_AM2Hz_s15_2.m4a,,,,,,,,,,,,
,,,,,41661,2021-09-30_14h20.15.927,judgeSpeechMusic_20210919_logNormShiftAmp_detection_fixFreq,2020.1.2,Win32,60,,,,,,,,,,,,,,,,,,,,,,,,,,,,,,1,7.2659,,0,0,34,34,60,1,stimuli/stim_20210919_power2amp/equal_lnn_AM2Hz_s55_21.m4a,,,,,,,,,,,,
,,,,,41661,2021-09-30_14h20.15.927,judgeSpeechMusic_20210919_logNormShiftAmp_detection_fixFreq,2020.1.2,Win32,60,,,,,,,,,,,,,,,,,,,,,,,,,,,,,,1,8.8681,,0,0,35,35,62,1,stimuli/stim_20210919_power2amp/equal_lnn_AM2Hz_s55_14.m4a,,,,,,,,,,,,
,,,,,41661,2021-09-30_14h20.15.927,judgeSpeechMusic_20210919_logNormShiftAmp_detection_fixFreq,2020.1.2,Win32,60,,,,,,,,,,,,,,,,,,,,,,,,,,,,,,1,10.35,,0,0,36,36,18,1,stimuli/stim_20210919_power2amp/equal_lnn_AM2Hz_s25_33.m4a,,,,,,,,,,,,
,,,,,41661,2021-09-30_14h20.15.927,judgeSpeechMusic_20210919_logNormShiftAmp_detection_fixFreq,2020.1.2,Win32,60,,,,,,,,,,,,,,,,,,,,,,,,,,,,,,2,6.4812,,0,0,37,37,26,1,stimuli/stim_20210919_power2amp/equal_lnn_AM2Hz_s25_44.m4a,,,,,,,,,,,,
,,,,,41661,2021-09-30_14h20.15.927,judgeSpeechMusic_20210919_logNormShiftAmp_detection_fixFreq,2020.1.2,Win32,60,,,,,,,,,,,,,,,,,,,,,,,,,,,,,,1,6.4161,3,1,0,38,38,67,1,stimuli/stim_20210919_power2amp/equal_lnn_AM2Hz_s55_32.m4a,1.2068,,,,,,,,,,,
,,,,,41661,2021-09-30_14h20.15.927,judgeSpeechMusic_20210919_logNormShiftAmp_detection_fixFreq,2020.1.2,Win32,60,,,,,,,,,,,,,,,,,,,,,,,,,,,,,,2,6.133,,0,0,39,39,68,1,stimuli/stim_20210919_power2amp/equal_lnn_AM2Hz_s55_3.m4a,,,,,,,,,,,,
,,,,,41661,2021-09-30_14h20.15.927,judgeSpeechMusic_20210919_logNormShiftAmp_detection_fixFreq,2020.1.2,Win32,60,,,,,,,,,,,,,,,,,,,,,,,,,,,,,,1,6.636,,0,0,40,40,58,1,stimuli/stim_20210919_power2amp/equal_lnn_AM2Hz_s45_40.m4a,,,,,,,,,,,,
,,,,,41661,2021-09-30_14h20.15.927,judgeSpeechMusic_20210919_logNormShiftAmp_detection_fixFreq,2020.1.2,Win32,60,,,,,,,,,,,,,,,,,,,,,,,,,,,,,,2,5.9001,,0,0,41,41,13,1,stimuli/stim_20210919_power2amp/equal_lnn_AM2Hz_s15_14.m4a,,,,,,,,,,,,
,,,,,41661,2021-09-30_14h20.15.927,judgeSpeechMusic_20210919_logNormShiftAmp_detection_fixFreq,2020.1.2,Win32,60,,,,,,,,,,,,,,,,,,,,,,,,,,,,,,1,6.207,,0,0,42,42,64,1,stimuli/stim_20210919_power2amp/equal_lnn_AM2Hz_s55_41.m4a,,,,,,,,,,,,
,,,,,41661,2021-09-30_14h20.15.927,judgeSpeechMusic_20210919_logNormShiftAmp_detection_fixFreq,2020.1.2,Win32,60,,,,,,,,,,,,,,,,,,,,,,,,,,,,,,2,6.0245,,0,0,43,43,1,1,stimuli/stim_20210919_power2amp/equal_lnn_AM2Hz_s15_35.m4a,,,,,,,,,,,,
,,,,,41661,2021-09-30_14h20.15.927,judgeSpeechMusic_20210919_logNormShiftAmp_detection_fixFreq,2020.1.2,Win32,60,,,,,,,,,,,,,,,,,,,,,,,,,,,,,,1,6.6177,,0,0,44,44,16,1,stimuli/stim_20210919_power2amp/equal_lnn_AM2Hz_s25_35.m4a,,,,,,,,,,,,
,,,,,41661,2021-09-30_14h20.15.927,judgeSpeechMusic_20210919_logNormShiftAmp_detection_fixFreq,2020.1.2,Win32,60,,,,,,,,,,,,,,,,,,,,,,,,,,,,,,1,10.1088,,0,0,45,45,8,1,stimuli/stim_20210919_power2amp/equal_lnn_AM2Hz_s15_46.m4a,,,,,,,,,,,,
,,,,,41661,2021-09-30_14h20.15.927,judgeSpeechMusic_20210919_logNormShiftAmp_detection_fixFreq,2020.1.2,Win32,60,,,,,,,,,,,,,,,,,,,,,,,,,,,,,,2,8.2507,,0,0,46,46,54,1,stimuli/stim_20210919_power2amp/equal_lnn_AM2Hz_s45_14.m4a,,,,,,,,,,,,
,,,,,41661,2021-09-30_14h20.15.927,judgeSpeechMusic_20210919_logNormShiftAmp_detection_fixFreq,2020.1.2,Win32,60,,,,,,,,,,,,,,,,,,,,,,,,,,,,,,1,8.9566,,0,0,47,47,27,1,stimuli/stim_20210919_power2amp/equal_lnn_AM2Hz_s25_7.m4a,,,,,,,,,,,,
,,,,,41661,2021-09-30_14h20.15.927,judgeSpeechMusic_20210919_logNormShiftAmp_detection_fixFreq,2020.1.2,Win32,60,,,,,,,,,,,,,,,,,,,,,,,,,,,,,,2,6.8853,,0,0,48,48,44,1,stimuli/stim_20210919_power2amp/equal_lnn_AM2Hz_s35_34.m4a,,,,,,,,,,,,
,,,,,41661,2021-09-30_14h20.15.927,judgeSpeechMusic_20210919_logNormShiftAmp_detection_fixFreq,2020.1.2,Win32,60,,,,,,,,,,,,,,,,,,,,,,,,,,,,,,2,6.4744,,0,0,49,49,69,1,stimuli/stim_20210919_power2amp/equal_lnn_AM2Hz_s55_46.m4a,,,,,,,,,,,,
,,,,,41661,2021-09-30_14h20.15.927,judgeSpeechMusic_20210919_logNormShiftAmp_detection_fixFreq,2020.1.2,Win32,60,,,,,,,,,,,,,,,,,,,,,,,,,,,,,,2,6.2704,,0,0,50,50,47,1,stimuli/stim_20210919_power2amp/equal_lnn_AM2Hz_s45_23.m4a,,,,,,,,,,,,
,,,,,41661,2021-09-30_14h20.15.927,judgeSpeechMusic_20210919_logNormShiftAmp_detection_fixFreq,2020.1.2,Win32,60,,,,,,,,,,,,,,,,,,,,,,,,,,,,,,1,6.4672,,0,0,51,51,52,1,stimuli/stim_20210919_power2amp/equal_lnn_AM2Hz_s45_20.m4a,,,,,,,,,,,,
,,,,,41661,2021-09-30_14h20.15.927,judgeSpeechMusic_20210919_logNormShiftAmp_detection_fixFreq,2020.1.2,Win32,60,,,,,,,,,,,,,,,,,,,,,,,,,,,,,,2,6.5463,,0,0,52,52,12,1,stimuli/stim_20210919_power2amp/equal_lnn_AM2Hz_s15_18.m4a,,,,,,,,,,,,
,,,,,41661,2021-09-30_14h20.15.927,judgeSpeechMusic_20210919_logNormShiftAmp_detection_fixFreq,2020.1.2,Win32,60,,,,,,,,,,,,,,,,,,,,,,,,,,,,,,2,7.0211,,0,0,53,53,35,1,stimuli/stim_20210919_power2amp/equal_lnn_AM2Hz_s35_17.m4a,,,,,,,,,,,,
,,,,,41661,2021-09-30_14h20.15.927,judgeSpeechMusic_20210919_logNormShiftAmp_detection_fixFreq,2020.1.2,Win32,60,,,,,,,,,,,,,,,,,,,,,,,,,,,,,,1,15.9179,,0,0,54,54,48,1,stimuli/stim_20210919_power2amp/equal_lnn_AM2Hz_s45_10.m4a,,,,,,,,,,,,
,,,,,41661,2021-09-30_14h20.15.927,judgeSpeechMusic_20210919_logNormShiftAmp_detection_fixFreq,2020.1.2,Win32,60,,,,,,,,,,,,,,,,,,,,,,,,,,,,,,2,8.2234,,0,0,55,55,37,1,stimuli/stim_20210919_power2amp/equal_lnn_AM2Hz_s35_27.m4a,,,,,,,,,,,,
,,,,,41661,2021-09-30_14h20.15.927,judgeSpeechMusic_20210919_logNormShiftAmp_detection_fixFreq,2020.1.2,Win32,60,,,,,,,,,,,,,,,,,,,,,,,,,,,,,,1,7.4216,,0,0,56,56,36,1,stimuli/stim_20210919_power2amp/equal_lnn_AM2Hz_s35_21.m4a,,,,,,,,,,,,
,,,,,41661,2021-09-30_14h20.15.927,judgeSpeechMusic_20210919_logNormShiftAmp_detection_fixFreq,2020.1.2,Win32,60,,,,,,,,,,,,,,,,,,,,,,,,,,,,,,1,9.6656,,0,0,57,57,51,1,stimuli/stim_20210919_power2amp/equal_lnn_AM2Hz_s45_38.m4a,,,,,,,,,,,,
,,,,,41661,2021-09-30_14h20.15.927,judgeSpeechMusic_20210919_logNormShiftAmp_detection_fixFreq,2020.1.2,Win32,60,,,,,,,,,,,,,,,,,,,,,,,,,,,,,,2,7.4095,3,1,0,58,58,32,1,stimuli/stim_20210919_power2amp/equal_lnn_AM2Hz_s35_19.m4a,1.6641,,,,,,,,,,,
,,,,,41661,2021-09-30_14h20.15.927,judgeSpeechMusic_20210919_logNormShiftAmp_detection_fixFreq,2020.1.2,Win32,60,,,,,,,,,,,,,,,,,,,,,,,,,,,,,,2,8.5303,,0,0,59,59,72,1,stimuli/stim_20210919_power2amp/equal_lnn_AM2Hz_s55_4.m4a,,,,,,,,,,,,
,,,,,41661,2021-09-30_14h20.15.927,judgeSpeechMusic_20210919_logNormShiftAmp_detection_fixFreq,2020.1.2,Win32,60,,,,,,,,,,,,,,,,,,,,,,,,,,,,,,1,11.3499,,0,0,60,60,24,1,stimuli/stim_20210919_power2amp/equal_lnn_AM2Hz_s25_40.m4a,,,,,,,,,,,,
,,,,,41661,2021-09-30_14h20.15.927,judgeSpeechMusic_20210919_logNormShiftAmp_detection_fixFreq,2020.1.2,Win32,60,,,,,,,,,,,,,,,,,,,,,,,,,,,,,,2,7.2735,,0,0,61,61,23,1,stimuli/stim_20210919_power2amp/equal_lnn_AM2Hz_s25_26.m4a,,,,,,,,,,,,
,,,,,41661,2021-09-30_14h20.15.927,judgeSpeechMusic_20210919_logNormShiftAmp_detection_fixFreq,2020.1.2,Win32,60,,,,,,,,,,,,,,,,,,,,,,,,,,,,,,1,8.9073,,0,0,62,62,14,1,stimuli/stim_20210919_power2amp/equal_lnn_AM2Hz_s15_31.m4a,,,,,,,,,,,,
,,,,,41661,2021-09-30_14h20.15.927,judgeSpeechMusic_20210919_logNormShiftAmp_detection_fixFreq,2020.1.2,Win32,60,,,,,,,,,,,,,,,,,,,,,,,,,,,,,,1,6.6166,,0,0,63,63,34,1,stimuli/stim_20210919_power2amp/equal_lnn_AM2Hz_s35_40.m4a,,,,,,,,,,,,
,,,,,41661,2021-09-30_14h20.15.927,judgeSpeechMusic_20210919_logNormShiftAmp_detection_fixFreq,2020.1.2,Win32,60,,,,,,,,,,,,,,,,,,,,,,,,,,,,,,2,7.119,,0,0,64,64,21,1,stimuli/stim_20210919_power2amp/equal_lnn_AM2Hz_s25_36.m4a,,,,,,,,,,,,
,,,,,41661,2021-09-30_14h20.15.927,judgeSpeechMusic_20210919_logNormShiftAmp_detection_fixFreq,2020.1.2,Win32,60,,,,,,,,,,,,,,,,,,,,,,,,,,,,,,2,6.0895,,0,0,65,65,74,1,stimuli/stim_20210919_power2amp/equal_lnn_AM2Hz_s55_16.m4a,,,,,,,,,,,,
,,,,,41661,2021-09-30_14h20.15.927,judgeSpeechMusic_20210919_logNormShiftAmp_detection_fixFreq,2020.1.2,Win32,60,,,,,,,,,,,,,,,,,,,,,,,,,,,,,,2,10.1285,,0,0,66,66,56,1,stimuli/stim_20210919_power2amp/equal_lnn_AM2Hz_s45_1.m4a,,,,,,,,,,,,
,,,,,41661,2021-09-30_14h20.15.927,judgeSpeechMusic_20210919_logNormShiftAmp_detection_fixFreq,2020.1.2,Win32,60,,,,,,,,,,,,,,,,,,,,,,,,,,,,,,1,10.3184,,0,0,67,67,22,1,stimuli/stim_20210919_power2amp/equal_lnn_AM2Hz_s25_34.m4a,,,,,,,,,,,,
,,,,,41661,2021-09-30_14h20.15.927,judgeSpeechMusic_20210919_logNormShiftAmp_detection_fixFreq,2020.1.2,Win32,60,,,,,,,,,,,,,,,,,,,,,,,,,,,,,,2,7.6565,,0,0,68,68,45,1,stimuli/stim_20210919_power2amp/equal_lnn_AM2Hz_s45_33.m4a,,,,,,,,,,,,
,,,,,41661,2021-09-30_14h20.15.927,judgeSpeechMusic_20210919_logNormShiftAmp_detection_fixFreq,2020.1.2,Win32,60,,,,,,,,,,,,,,,,,,,,,,,,,,,,,,1,6.2544,,0,0,69,69,40,1,stimuli/stim_20210919_power2amp/equal_lnn_AM2Hz_s35_9.m4a,,,,,,,,,,,,
,,,,,41661,2021-09-30_14h20.15.927,judgeSpeechMusic_20210919_logNormShiftAmp_detection_fixFreq,2020.1.2,Win32,60,,,,,,,,,,,,,,,,,,,,,,,,,,,,,,2,6.9379,,0,0,70,70,71,1,stimuli/stim_20210919_power2amp/equal_lnn_AM2Hz_s55_23.m4a,,,,,,,,,,,,
,,,,,41661,2021-09-30_14h20.15.927,judgeSpeechMusic_20210919_logNormShiftAmp_detection_fixFreq,2020.1.2,Win32,60,,,,,,,,,,,,,,,,,,,,,,,,,,,,,,1,6.4418,,0,0,71,71,20,1,stimuli/stim_20210919_power2amp/equal_lnn_AM2Hz_s25_17.m4a,,,,,,,,,,,,
,,,,,41661,2021-09-30_14h20.15.927,judgeSpeechMusic_20210919_logNormShiftAmp_detection_fixFreq,2020.1.2,Win32,60,,,,,,,,,,,,,,,,,,,,,,,,,,,,,,1,6.6975,,0,0,72,72,41,1,stimuli/stim_20210919_power2amp/equal_lnn_AM2Hz_s35_14.m4a,,,,,,,,,,,,
,,,,,41661,2021-09-30_14h20.15.927,judgeSpeechMusic_20210919_logNormShiftAmp_detection_fixFreq,2020.1.2,Win32,60,,,,,,,,,,,,,,,,,,,,,,,,,,,,,,2,6.3233,,0,0,73,73,39,1,stimuli/stim_20210919_power2amp/equal_lnn_AM2Hz_s35_32.m4a,,,,,,,,,,,,
,,,,,41661,2021-09-30_14h20.15.927,judgeSpeechMusic_20210919_logNormShiftAmp_detection_fixFreq,2020.1.2,Win32,60,,,,,,,,,,,,,,,,,,,,,,,,,,,,,,1,7.7664,,0,0,74,74,57,1,stimuli/stim_20210919_power2amp/equal_lnn_AM2Hz_s45_48.m4a,,,,,,,,,,,,
,,,,,41661,2021-09-30_14h20.15.927,judgeSpeechMusic_20210919_logNormShiftAmp_detection_fixFreq,2020.1.2,Win32,60,,,,,,,,,,,,,,,,,,,,,,,,,,,,,,,,,,,,,,,,,space,1.747,0,0,0,0,1,MUSIC,stimuli/MUSIC.jpg,,
,,,,,41661,2021-09-30_14h20.15.927,judgeSpeechMusic_20210919_logNormShiftAmp_detection_fixFreq,2020.1.2,Win32,60,,,,,,,,,,,,,space,0.9845,1,8.0667,,0,0,0,0,2,1,stimuli/stim_20210919_power2amp/equal_lnn_AM_training2Hz_s40.m4a,,,,,,,,,,,,,,,,,,,,,,,,,,,
,,,,,41661,2021-09-30_14h20.15.927,judgeSpeechMusic_20210919_logNormShiftAmp_detection_fixFreq,2020.1.2,Win32,60,,,,,,,,,,,,,,,1,15.9269,,0,0,1,1,1,1,stimuli/stim_20210919_power2amp/equal_lnn_AM_training2Hz_s30.m4a,,,,,,,,,,,,,,,,,,,,,,,,,,,
,,,,,41661,2021-09-30_14h20.15.927,judgeSpeechMusic_20210919_logNormShiftAmp_detection_fixFreq,2020.1.2,Win32,60,,,,,,,,,,,,,,,2,6.2691,4,1,0,2,2,0,1,stimuli/stim_20210919_power2amp/equal_lnn_AM_training2Hz_s20.m4a,0.9898,,,,,,,,,,,,,,,,,,,,,,,,,,
,,,,,41661,2021-09-30_14h20.15.927,judgeSpeechMusic_20210919_logNormShiftAmp_detection_fixFreq,2020.1.2,Win32,60,,,,,,,,,,,,,,,2,7.6052,,0,0,3,3,3,1,stimuli/stim_20210919_power2amp/equal_lnn_AM_training2Hz_s50.m4a,,,,,,,,,,,,,,,,,,,,,,,,,,,
,,,,,41661,2021-09-30_14h20.15.927,judgeSpeechMusic_20210919_logNormShiftAmp_detection_fixFreq,2020.1.2,Win32,60,,,,,,,,,,,,,,,,,,,,,,,,,,space,2.8833,space,2.0088,1,14.9174,,0,0,0,0,64,1,stimuli/stim_20210919_power2amp/equal_lnn_AM2Hz_s55_41.m4a,,,,,,,,,,,,
,,,,,41661,2021-09-30_14h20.15.927,judgeSpeechMusic_20210919_logNormShiftAmp_detection_fixFreq,2020.1.2,Win32,60,,,,,,,,,,,,,,,,,,,,,,,,,,,,,,2,7.2644,,0,0,1,1,59,1,stimuli/stim_20210919_power2amp/equal_lnn_AM2Hz_s45_35.m4a,,,,,,,,,,,,
,,,,,41661,2021-09-30_14h20.15.927,judgeSpeechMusic_20210919_logNormShiftAmp_detection_fixFreq,2020.1.2,Win32,60,,,,,,,,,,,,,,,,,,,,,,,,,,,,,,1,6.1848,,0,0,2,2,11,1,stimuli/stim_20210919_power2amp/equal_lnn_AM2Hz_s15_10.m4a,,,,,,,,,,,,
,,,,,41661,2021-09-30_14h20.15.927,judgeSpeechMusic_20210919_logNormShiftAmp_detection_fixFreq,2020.1.2,Win32,60,,,,,,,,,,,,,,,,,,,,,,,,,,,,,,2,6.7855,,0,0,3,3,27,1,stimuli/stim_20210919_power2amp/equal_lnn_AM2Hz_s25_7.m4a,,,,,,,,,,,,
,,,,,41661,2021-09-30_14h20.15.927,judgeSpeechMusic_20210919_logNormShiftAmp_detection_fixFreq,2020.1.2,Win32,60,,,,,,,,,,,,,,,,,,,,,,,,,,,,,,2,6.4872,,0,0,4,4,26,1,stimuli/stim_20210919_power2amp/equal_lnn_AM2Hz_s25_44.m4a,,,,,,,,,,,,
,,,,,41661,2021-09-30_14h20.15.927,judgeSpeechMusic_20210919_logNormShiftAmp_detection_fixFreq,2020.1.2,Win32,60,,,,,,,,,,,,,,,,,,,,,,,,,,,,,,1,6.1754,,0,0,5,5,66,1,stimuli/stim_20210919_power2amp/equal_lnn_AM2Hz_s55_18.m4a,,,,,,,,,,,,
,,,,,41661,2021-09-30_14h20.15.927,judgeSpeechMusic_20210919_logNormShiftAmp_detection_fixFreq,2020.1.2,Win32,60,,,,,,,,,,,,,,,,,,,,,,,,,,,,,,1,7.3667,,0,0,6,6,35,1,stimuli/stim_20210919_power2amp/equal_lnn_AM2Hz_s35_17.m4a,,,,,,,,,,,,
,,,,,41661,2021-09-30_14h20.15.927,judgeSpeechMusic_20210919_logNormShiftAmp_detection_fixFreq,2020.1.2,Win32,60,,,,,,,,,,,,,,,,,,,,,,,,,,,,,,1,7.4824,,0,0,7,7,15,1,stimuli/stim_20210919_power2amp/equal_lnn_AM2Hz_s25_9.m4a,,,,,,,,,,,,
,,,,,41661,2021-09-30_14h20.15.927,judgeSpeechMusic_20210919_logNormShiftAmp_detection_fixFreq,2020.1.2,Win32,60,,,,,,,,,,,,,,,,,,,,,,,,,,,,,,2,7.554,,0,0,8,8,24,1,stimuli/stim_20210919_power2amp/equal_lnn_AM2Hz_s25_40.m4a,,,,,,,,,,,,
,,,,,41661,2021-09-30_14h20.15.927,judgeSpeechMusic_20210919_logNormShiftAmp_detection_fixFreq,2020.1.2,Win32,60,,,,,,,,,,,,,,,,,,,,,,,,,,,,,,2,5.9,,0,0,9,9,68,1,stimuli/stim_20210919_power2amp/equal_lnn_AM2Hz_s55_3.m4a,,,,,,,,,,,,
,,,,,41661,2021-09-30_14h20.15.927,judgeSpeechMusic_20210919_logNormShiftAmp_detection_fixFreq,2020.1.2,Win32,60,,,,,,,,,,,,,,,,,,,,,,,,,,,,,,2,6.1823,,0,0,10,10,54,1,stimuli/stim_20210919_power2amp/equal_lnn_AM2Hz_s45_14.m4a,,,,,,,,,,,,
,,,,,41661,2021-09-30_14h20.15.927,judgeSpeechMusic_20210919_logNormShiftAmp_detection_fixFreq,2020.1.2,Win32,60,,,,,,,,,,,,,,,,,,,,,,,,,,,,,,1,7.5673,,0,0,11,11,2,1,stimuli/stim_20210919_power2amp/equal_lnn_AM2Hz_s15_6.m4a,,,,,,,,,,,,
,,,,,41661,2021-09-30_14h20.15.927,judgeSpeechMusic_20210919_logNormShiftAmp_detection_fixFreq,2020.1.2,Win32,60,,,,,,,,,,,,,,,,,,,,,,,,,,,,,,2,8.5131,,0,0,12,12,3,1,stimuli/stim_20210919_power2amp/equal_lnn_AM2Hz_s15_34.m4a,,,,,,,,,,,,
,,,,,41661,2021-09-30_14h20.15.927,judgeSpeechMusic_20210919_logNormShiftAmp_detection_fixFreq,2020.1.2,Win32,60,,,,,,,,,,,,,,,,,,,,,,,,,,,,,,2,6.7786,,0,0,13,13,1,1,stimuli/stim_20210919_power2amp/equal_lnn_AM2Hz_s15_35.m4a,,,,,,,,,,,,
,,,,,41661,2021-09-30_14h20.15.927,judgeSpeechMusic_20210919_logNormShiftAmp_detection_fixFreq,2020.1.2,Win32,60,,,,,,,,,,,,,,,,,,,,,,,,,,,,,,1,5.9065,,0,0,14,14,21,1,stimuli/stim_20210919_power2amp/equal_lnn_AM2Hz_s25_36.m4a,,,,,,,,,,,,
,,,,,41661,2021-09-30_14h20.15.927,judgeSpeechMusic_20210919_logNormShiftAmp_detection_fixFreq,2020.1.2,Win32,60,,,,,,,,,,,,,,,,,,,,,,,,,,,,,,1,7.1232,,0,0,15,15,57,1,stimuli/stim_20210919_power2amp/equal_lnn_AM2Hz_s45_48.m4a,,,,,,,,,,,,
,,,,,41661,2021-09-30_14h20.15.927,judgeSpeechMusic_20210919_logNormShiftAmp_detection_fixFreq,2020.1.2,Win32,60,,,,,,,,,,,,,,,,,,,,,,,,,,,,,,1,6.4544,,0,0,16,16,58,1,stimuli/stim_20210919_power2amp/equal_lnn_AM2Hz_s45_40.m4a,,,,,,,,,,,,
,,,,,41661,2021-09-30_14h20.15.927,judgeSpeechMusic_20210919_logNormShiftAmp_detection_fixFreq,2020.1.2,Win32,60,,,,,,,,,,,,,,,,,,,,,,,,,,,,,,1,6.284,,0,0,17,17,48,1,stimuli/stim_20210919_power2amp/equal_lnn_AM2Hz_s45_10.m4a,,,,,,,,,,,,
,,,,,41661,2021-09-30_14h20.15.927,judgeSpeechMusic_20210919_logNormShiftAmp_detection_fixFreq,2020.1.2,Win32,60,,,,,,,,,,,,,,,,,,,,,,,,,,,,,,1,7.2205,,0,0,18,18,37,1,stimuli/stim_20210919_power2amp/equal_lnn_AM2Hz_s35_27.m4a,,,,,,,,,,,,
,,,,,41661,2021-09-30_14h20.15.927,judgeSpeechMusic_20210919_logNormShiftAmp_detection_fixFreq,2020.1.2,Win32,60,,,,,,,,,,,,,,,,,,,,,,,,,,,,,,1,6.3069,2,1,0,19,19,71,1,stimuli/stim_20210919_power2amp/equal_lnn_AM2Hz_s55_23.m4a,0.7583,,,,,,,,,,,
,,,,,41661,2021-09-30_14h20.15.927,judgeSpeechMusic_20210919_logNormShiftAmp_detection_fixFreq,2020.1.2,Win32,60,,,,,,,,,,,,,,,,,,,,,,,,,,,,,,2,7.4615,,0,0,20,20,69,1,stimuli/stim_20210919_power2amp/equal_lnn_AM2Hz_s55_46.m4a,,,,,,,,,,,,
,,,,,41661,2021-09-30_14h20.15.927,judgeSpeechMusic_20210919_logNormShiftAmp_detection_fixFreq,2020.1.2,Win32,60,,,,,,,,,,,,,,,,,,,,,,,,,,,,,,1,6.0554,,0,0,21,21,8,1,stimuli/stim_20210919_power2amp/equal_lnn_AM2Hz_s15_46.m4a,,,,,,,,,,,,
,,,,,41661,2021-09-30_14h20.15.927,judgeSpeechMusic_20210919_logNormShiftAmp_detection_fixFreq,2020.1.2,Win32,60,,,,,,,,,,,,,,,,,,,,,,,,,,,,,,2,7.8462,,0,0,22,22,31,1,stimuli/stim_20210919_power2amp/equal_lnn_AM2Hz_s35_22.m4a,,,,,,,,,,,,
,,,,,41661,2021-09-30_14h20.15.927,judgeSpeechMusic_20210919_logNormShiftAmp_detection_fixFreq,2020.1.2,Win32,60,,,,,,,,,,,,,,,,,,,,,,,,,,,,,,1,6.472,,0,0,23,23,9,1,stimuli/stim_20210919_power2amp/equal_lnn_AM2Hz_s15_42.m4a,,,,,,,,,,,,
,,,,,41661,2021-09-30_14h20.15.927,judgeSpeechMusic_20210919_logNormShiftAmp_detection_fixFreq,2020.1.2,Win32,60,,,,,,,,,,,,,,,,,,,,,,,,,,,,,,2,7.5735,,0,0,24,24,29,1,stimuli/stim_20210919_power2amp/equal_lnn_AM2Hz_s25_37.m4a,,,,,,,,,,,,
,,,,,41661,2021-09-30_14h20.15.927,judgeSpeechMusic_20210919_logNormShiftAmp_detection_fixFreq,2020.1.2,Win32,60,,,,,,,,,,,,,,,,,,,,,,,,,,,,,,1,6.4265,,0,0,25,25,41,1,stimuli/stim_20210919_power2amp/equal_lnn_AM2Hz_s35_14.m4a,,,,,,,,,,,,
,,,,,41661,2021-09-30_14h20.15.927,judgeSpeechMusic_20210919_logNormShiftAmp_detection_fixFreq,2020.1.2,Win32,60,,,,,,,,,,,,,,,,,,,,,,,,,,,,,,1,7.3838,,0,0,26,26,49,1,stimuli/stim_20210919_power2amp/equal_lnn_AM2Hz_s45_25.m4a,,,,,,,,,,,,
,,,,,41661,2021-09-30_14h20.15.927,judgeSpeechMusic_20210919_logNormShiftAmp_detection_fixFreq,2020.1.2,Win32,60,,,,,,,,,,,,,,,,,,,,,,,,,,,,,,2,6.6295,,0,0,27,27,10,1,stimuli/stim_20210919_power2amp/equal_lnn_AM2Hz_s15_50.m4a,,,,,,,,,,,,
,,,,,41661,2021-09-30_14h20.15.927,judgeSpeechMusic_20210919_logNormShiftAmp_detection_fixFreq,2020.1.2,Win32,60,,,,,,,,,,,,,,,,,,,,,,,,,,,,,,2,6.974,,0,0,28,28,16,1,stimuli/stim_20210919_power2amp/equal_lnn_AM2Hz_s25_35.m4a,,,,,,,,,,,,
,,,,,41661,2021-09-30_14h20.15.927,judgeSpeechMusic_20210919_logNormShiftAmp_detection_fixFreq,2020.1.2,Win32,60,,,,,,,,,,,,,,,,,,,,,,,,,,,,,,1,6.8356,,0,0,29,29,19,1,stimuli/stim_20210919_power2amp/equal_lnn_AM2Hz_s25_25.m4a,,,,,,,,,,,,
,,,,,41661,2021-09-30_14h20.15.927,judgeSpeechMusic_20210919_logNormShiftAmp_detection_fixFreq,2020.1.2,Win32,60,,,,,,,,,,,,,,,,,,,,,,,,,,,,,,1,6.5819,,0,0,30,30,18,1,stimuli/stim_20210919_power2amp/equal_lnn_AM2Hz_s25_33.m4a,,,,,,,,,,,,
,,,,,41661,2021-09-30_14h20.15.927,judgeSpeechMusic_20210919_logNormShiftAmp_detection_fixFreq,2020.1.2,Win32,60,,,,,,,,,,,,,,,,,,,,,,,,,,,,,,2,6.3522,,0,0,31,31,56,1,stimuli/stim_20210919_power2amp/equal_lnn_AM2Hz_s45_1.m4a,,,,,,,,,,,,
,,,,,41661,2021-09-30_14h20.15.927,judgeSpeechMusic_20210919_logNormShiftAmp_detection_fixFreq,2020.1.2,Win32,60,,,,,,,,,,,,,,,,,,,,,,,,,,,,,,1,7.4702,,0,0,32,32,70,1,stimuli/stim_20210919_power2amp/equal_lnn_AM2Hz_s55_28.m4a,,,,,,,,,,,,
,,,,,41661,2021-09-30_14h20.15.927,judgeSpeechMusic_20210919_logNormShiftAmp_detection_fixFreq,2020.1.2,Win32,60,,,,,,,,,,,,,,,,,,,,,,,,,,,,,,2,13.7393,,0,0,33,33,13,1,stimuli/stim_20210919_power2amp/equal_lnn_AM2Hz_s15_14.m4a,,,,,,,,,,,,
,,,,,41661,2021-09-30_14h20.15.927,judgeSpeechMusic_20210919_logNormShiftAmp_detection_fixFreq,2020.1.2,Win32,60,,,,,,,,,,,,,,,,,,,,,,,,,,,,,,1,7.9701,,0,0,34,34,55,1,stimuli/stim_20210919_power2amp/equal_lnn_AM2Hz_s45_28.m4a,,,,,,,,,,,,
,,,,,41661,2021-09-30_14h20.15.927,judgeSpeechMusic_20210919_logNormShiftAmp_detection_fixFreq,2020.1.2,Win32,60,,,,,,,,,,,,,,,,,,,,,,,,,,,,,,1,7.2781,,0,0,35,35,28,1,stimuli/stim_20210919_power2amp/equal_lnn_AM2Hz_s25_22.m4a,,,,,,,,,,,,
,,,,,41661,2021-09-30_14h20.15.927,judgeSpeechMusic_20210919_logNormShiftAmp_detection_fixFreq,2020.1.2,Win32,60,,,,,,,,,,,,,,,,,,,,,,,,,,,,,,1,7.0917,,0,0,36,36,51,1,stimuli/stim_20210919_power2amp/equal_lnn_AM2Hz_s45_38.m4a,,,,,,,,,,,,
,,,,,41661,2021-09-30_14h20.15.927,judgeSpeechMusic_20210919_logNormShiftAmp_detection_fixFreq,2020.1.2,Win32,60,,,,,,,,,,,,,,,,,,,,,,,,,,,,,,2,6.9714,,0,0,37,37,74,1,stimuli/stim_20210919_power2amp/equal_lnn_AM2Hz_s55_16.m4a,,,,,,,,,,,,
,,,,,41661,2021-09-30_14h20.15.927,judgeSpeechMusic_20210919_logNormShiftAmp_detection_fixFreq,2020.1.2,Win32,60,,,,,,,,,,,,,,,,,,,,,,,,,,,,,,2,6.7377,1,1,0,38,38,32,1,stimuli/stim_20210919_power2amp/equal_lnn_AM2Hz_s35_19.m4a,1.9735,,,,,,,,,,,
,,,,,41661,2021-09-30_14h20.15.927,judgeSpeechMusic_20210919_logNormShiftAmp_detection_fixFreq,2020.1.2,Win32,60,,,,,,,,,,,,,,,,,,,,,,,,,,,,,,1,8.3808,,0,0,39,39,53,1,stimuli/stim_20210919_power2amp/equal_lnn_AM2Hz_s45_45.m4a,,,,,,,,,,,,
,,,,,41661,2021-09-30_14h20.15.927,judgeSpeechMusic_20210919_logNormShiftAmp_detection_fixFreq,2020.1.2,Win32,60,,,,,,,,,,,,,,,,,,,,,,,,,,,,,,2,6.3277,,0,0,40,40,44,1,stimuli/stim_20210919_power2amp/equal_lnn_AM2Hz_s35_34.m4a,,,,,,,,,,,,
,,,,,41661,2021-09-30_14h20.15.927,judgeSpeechMusic_20210919_logNormShiftAmp_detection_fixFreq,2020.1.2,Win32,60,,,,,,,,,,,,,,,,,,,,,,,,,,,,,,1,6.3227,,0,0,41,41,12,1,stimuli/stim_20210919_power2amp/equal_lnn_AM2Hz_s15_18.m4a,,,,,,,,,,,,
,,,,,41661,2021-09-30_14h20.15.927,judgeSpeechMusic_20210919_logNormShiftAmp_detection_fixFreq,2020.1.2,Win32,60,,,,,,,,,,,,,,,,,,,,,,,,,,,,,,2,6.6368,,0,0,42,42,42,1,stimuli/stim_20210919_power2amp/equal_lnn_AM2Hz_s35_11.m4a,,,,,,,,,,,,
,,,,,41661,2021-09-30_14h20.15.927,judgeSpeechMusic_20210919_logNormShiftAmp_detection_fixFreq,2020.1.2,Win32,60,,,,,,,,,,,,,,,,,,,,,,,,,,,,,,1,5.7916,,0,0,43,43,6,1,stimuli/stim_20210919_power2amp/equal_lnn_AM2Hz_s15_45.m4a,,,,,,,,,,,,
,,,,,41661,2021-09-30_14h20.15.927,judgeSpeechMusic_20210919_logNormShiftAmp_detection_fixFreq,2020.1.2,Win32,60,,,,,,,,,,,,,,,,,,,,,,,,,,,,,,1,6.258,,0,0,44,44,73,1,stimuli/stim_20210919_power2amp/equal_lnn_AM2Hz_s55_50.m4a,,,,,,,,,,,,
,,,,,41661,2021-09-30_14h20.15.927,judgeSpeechMusic_20210919_logNormShiftAmp_detection_fixFreq,2020.1.2,Win32,60,,,,,,,,,,,,,,,,,,,,,,,,,,,,,,1,6.2648,,0,0,45,45,43,1,stimuli/stim_20210919_power2amp/equal_lnn_AM2Hz_s35_49.m4a,,,,,,,,,,,,
,,,,,41661,2021-09-30_14h20.15.927,judgeSpeechMusic_20210919_logNormShiftAmp_detection_fixFreq,2020.1.2,Win32,60,,,,,,,,,,,,,,,,,,,,,,,,,,,,,,1,6.5351,,0,0,46,46,33,1,stimuli/stim_20210919_power2amp/equal_lnn_AM2Hz_s35_47.m4a,,,,,,,,,,,,
,,,,,41661,2021-09-30_14h20.15.927,judgeSpeechMusic_20210919_logNormShiftAmp_detection_fixFreq,2020.1.2,Win32,60,,,,,,,,,,,,,,,,,,,,,,,,,,,,,,1,6.4346,,0,0,47,47,38,1,stimuli/stim_20210919_power2amp/equal_lnn_AM2Hz_s35_31.m4a,,,,,,,,,,,,
,,,,,41661,2021-09-30_14h20.15.927,judgeSpeechMusic_20210919_logNormShiftAmp_detection_fixFreq,2020.1.2,Win32,60,,,,,,,,,,,,,,,,,,,,,,,,,,,,,,1,7.1498,,0,0,48,48,14,1,stimuli/stim_20210919_power2amp/equal_lnn_AM2Hz_s15_31.m4a,,,,,,,,,,,,
,,,,,41661,2021-09-30_14h20.15.927,judgeSpeechMusic_20210919_logNormShiftAmp_detection_fixFreq,2020.1.2,Win32,60,,,,,,,,,,,,,,,,,,,,,,,,,,,,,,1,6.0642,,0,0,49,49,4,1,stimuli/stim_20210919_power2amp/equal_lnn_AM2Hz_s15_2.m4a,,,,,,,,,,,,
,,,,,41661,2021-09-30_14h20.15.927,judgeSpeechMusic_20210919_logNormShiftAmp_detection_fixFreq,2020.1.2,Win32,60,,,,,,,,,,,,,,,,,,,,,,,,,,,,,,2,6.0859,,0,0,50,50,34,1,stimuli/stim_20210919_power2amp/equal_lnn_AM2Hz_s35_40.m4a,,,,,,,,,,,,
,,,,,41661,2021-09-30_14h20.15.927,judgeSpeechMusic_20210919_logNormShiftAmp_detection_fixFreq,2020.1.2,Win32,60,,,,,,,,,,,,,,,,,,,,,,,,,,,,,,1,5.872,,0,0,51,51,5,1,stimuli/stim_20210919_power2amp/equal_lnn_AM2Hz_s15_4.m4a,,,,,,,,,,,,
,,,,,41661,2021-09-30_14h20.15.927,judgeSpeechMusic_20210919_logNormShiftAmp_detection_fixFreq,2020.1.2,Win32,60,,,,,,,,,,,,,,,,,,,,,,,,,,,,,,1,6.9338,,0,0,52,52,63,1,stimuli/stim_20210919_power2amp/equal_lnn_AM2Hz_s55_49.m4a,,,,,,,,,,,,
,,,,,41661,2021-09-30_14h20.15.927,judgeSpeechMusic_20210919_logNormShiftAmp_detection_fixFreq,2020.1.2,Win32,60,,,,,,,,,,,,,,,,,,,,,,,,,,,,,,1,5.9738,,0,0,53,53,25,1,stimuli/stim_20210919_power2amp/equal_lnn_AM2Hz_s25_48.m4a,,,,,,,,,,,,
,,,,,41661,2021-09-30_14h20.15.927,judgeSpeechMusic_20210919_logNormShiftAmp_detection_fixFreq,2020.1.2,Win32,60,,,,,,,,,,,,,,,,,,,,,,,,,,,,,,1,5.8566,,0,0,54,54,60,1,stimuli/stim_20210919_power2amp/equal_lnn_AM2Hz_s55_21.m4a,,,,,,,,,,,,
,,,,,41661,2021-09-30_14h20.15.927,judgeSpeechMusic_20210919_logNormShiftAmp_detection_fixFreq,2020.1.2,Win32,60,,,,,,,,,,,,,,,,,,,,,,,,,,,,,,1,6.2673,,0,0,55,55,72,1,stimuli/stim_20210919_power2amp/equal_lnn_AM2Hz_s55_4.m4a,,,,,,,,,,,,
,,,,,41661,2021-09-30_14h20.15.927,judgeSpeechMusic_20210919_logNormShiftAmp_detection_fixFreq,2020.1.2,Win32,60,,,,,,,,,,,,,,,,,,,,,,,,,,,,,,1,5.7377,,0,0,56,56,23,1,stimuli/stim_20210919_power2amp/equal_lnn_AM2Hz_s25_26.m4a,,,,,,,,,,,,
,,,,,41661,2021-09-30_14h20.15.927,judgeSpeechMusic_20210919_logNormShiftAmp_detection_fixFreq,2020.1.2,Win32,60,,,,,,,,,,,,,,,,,,,,,,,,,,,,,,2,5.8894,,0,0,57,57,52,1,stimuli/stim_20210919_power2amp/equal_lnn_AM2Hz_s45_20.m4a,,,,,,,,,,,,
,,,,,41661,2021-09-30_14h20.15.927,judgeSpeechMusic_20210919_logNormShiftAmp_detection_fixFreq,2020.1.2,Win32,60,,,,,,,,,,,,,,,,,,,,,,,,,,,,,,1,5.8882,3,1,0,58,58,67,1,stimuli/stim_20210919_power2amp/equal_lnn_AM2Hz_s55_32.m4a,1.4066,,,,,,,,,,,
,,,,,41661,2021-09-30_14h20.15.927,judgeSpeechMusic_20210919_logNormShiftAmp_detection_fixFreq,2020.1.2,Win32,60,,,,,,,,,,,,,,,,,,,,,,,,,,,,,,1,6.5217,,0,0,59,59,30,1,stimuli/stim_20210919_power2amp/equal_lnn_AM2Hz_s35_37.m4a,,,,,,,,,,,,
,,,,,41661,2021-09-30_14h20.15.927,judgeSpeechMusic_20210919_logNormShiftAmp_detection_fixFreq,2020.1.2,Win32,60,,,,,,,,,,,,,,,,,,,,,,,,,,,,,,1,9.4488,,0,0,60,60,46,1,stimuli/stim_20210919_power2amp/equal_lnn_AM2Hz_s45_5.m4a,,,,,,,,,,,,
,,,,,41661,2021-09-30_14h20.15.927,judgeSpeechMusic_20210919_logNormShiftAmp_detection_fixFreq,2020.1.2,Win32,60,,,,,,,,,,,,,,,,,,,,,,,,,,,,,,2,6.739,,0,0,61,61,17,1,stimuli/stim_20210919_power2amp/equal_lnn_AM2Hz_s25_11.m4a,,,,,,,,,,,,
,,,,,41661,2021-09-30_14h20.15.927,judgeSpeechMusic_20210919_logNormShiftAmp_detection_fixFreq,2020.1.2,Win32,60,,,,,,,,,,,,,,,,,,,,,,,,,,,,,,1,6.3994,,0,0,62,62,62,1,stimuli/stim_20210919_power2amp/equal_lnn_AM2Hz_s55_14.m4a,,,,,,,,,,,,
,,,,,41661,2021-09-30_14h20.15.927,judgeSpeechMusic_20210919_logNormShiftAmp_detection_fixFreq,2020.1.2,Win32,60,,,,,,,,,,,,,,,,,,,,,,,,,,,,,,1,6.5488,,0,0,63,63,39,1,stimuli/stim_20210919_power2amp/equal_lnn_AM2Hz_s35_32.m4a,,,,,,,,,,,,
,,,,,41661,2021-09-30_14h20.15.927,judgeSpeechMusic_20210919_logNormShiftAmp_detection_fixFreq,2020.1.2,Win32,60,,,,,,,,,,,,,,,,,,,,,,,,,,,,,,1,7.6032,,0,0,64,64,22,1,stimuli/stim_20210919_power2amp/equal_lnn_AM2Hz_s25_34.m4a,,,,,,,,,,,,
,,,,,41661,2021-09-30_14h20.15.927,judgeSpeechMusic_20210919_logNormShiftAmp_detection_fixFreq,2020.1.2,Win32,60,,,,,,,,,,,,,,,,,,,,,,,,,,,,,,2,6.8188,,0,0,65,65,47,1,stimuli/stim_20210919_power2amp/equal_lnn_AM2Hz_s45_23.m4a,,,,,,,,,,,,
,,,,,41661,2021-09-30_14h20.15.927,judgeSpeechMusic_20210919_logNormShiftAmp_detection_fixFreq,2020.1.2,Win32,60,,,,,,,,,,,,,,,,,,,,,,,,,,,,,,1,6.2995,,0,0,66,66,61,1,stimuli/stim_20210919_power2amp/equal_lnn_AM2Hz_s55_17.m4a,,,,,,,,,,,,
,,,,,41661,2021-09-30_14h20.15.927,judgeSpeechMusic_20210919_logNormShiftAmp_detection_fixFreq,2020.1.2,Win32,60,,,,,,,,,,,,,,,,,,,,,,,,,,,,,,1,6.1292,,0,0,67,67,20,1,stimuli/stim_20210919_power2amp/equal_lnn_AM2Hz_s25_17.m4a,,,,,,,,,,,,
,,,,,41661,2021-09-30_14h20.15.927,judgeSpeechMusic_20210919_logNormShiftAmp_detection_fixFreq,2020.1.2,Win32,60,,,,,,,,,,,,,,,,,,,,,,,,,,,,,,2,7.1109,,0,0,68,68,50,1,stimuli/stim_20210919_power2amp/equal_lnn_AM2Hz_s45_27.m4a,,,,,,,,,,,,
,,,,,41661,2021-09-30_14h20.15.927,judgeSpeechMusic_20210919_logNormShiftAmp_detection_fixFreq,2020.1.2,Win32,60,,,,,,,,,,,,,,,,,,,,,,,,,,,,,,1,6.7579,,0,0,69,69,7,1,stimuli/stim_20210919_power2amp/equal_lnn_AM2Hz_s15_28.m4a,,,,,,,,,,,,
,,,,,41661,2021-09-30_14h20.15.927,judgeSpeechMusic_20210919_logNormShiftAmp_detection_fixFreq,2020.1.2,Win32,60,,,,,,,,,,,,,,,,,,,,,,,,,,,,,,1,9.0898,,0,0,70,70,36,1,stimuli/stim_20210919_power2amp/equal_lnn_AM2Hz_s35_21.m4a,,,,,,,,,,,,
,,,,,41661,2021-09-30_14h20.15.927,judgeSpeechMusic_20210919_logNormShiftAmp_detection_fixFreq,2020.1.2,Win32,60,,,,,,,,,,,,,,,,,,,,,,,,,,,,,,2,7.9145,,0,0,71,71,40,1,stimuli/stim_20210919_power2amp/equal_lnn_AM2Hz_s35_9.m4a,,,,,,,,,,,,
,,,,,41661,2021-09-30_14h20.15.927,judgeSpeechMusic_20210919_logNormShiftAmp_detection_fixFreq,2020.1.2,Win32,60,,,,,,,,,,,,,,,,,,,,,,,,,,,,,,1,7.4376,,0,0,72,72,0,1,stimuli/stim_20210919_power2amp/equal_lnn_AM2Hz_s15_23.m4a,,,,,,,,,,,,
,,,,,41661,2021-09-30_14h20.15.927,judgeSpeechMusic_20210919_logNormShiftAmp_detection_fixFreq,2020.1.2,Win32,60,,,,,,,,,,,,,,,,,,,,,,,,,,,,,,2,7.037,,0,0,73,73,65,1,stimuli/stim_20210919_power2amp/equal_lnn_AM2Hz_s55_25.m4a,,,,,,,,,,,,
,,,,,41661,2021-09-30_14h20.15.927,judgeSpeechMusic_20210919_logNormShiftAmp_detection_fixFreq,2020.1.2,Win32,60,,,,,,,,,,,,,,,,,,,,,,,,,,,,,,1,12.1397,,0,0,74,74,45,1,stimuli/stim_20210919_power2amp/equal_lnn_AM2Hz_s45_33.m4a,,,,,,,,,,,,
,,,,,41661,2021-09-30_14h20.15.927,judgeSpeechMusic_20210919_logNormShiftAmp_detection_fixFreq,2020.1.2,Win32,60,,,,,,,,,,,,,,,,,,,,,,,,,,,,,,,,,,,,,,,,,space,1.1138,0,1,1,1,1,SPEECH,stimuli/SPEECH.jpg,,
,,,,,41661,2021-09-30_14h20.15.927,judgeSpeechMusic_20210919_logNormShiftAmp_detection_fixFreq,2020.1.2,Win32,60,,,,,,,,,,,,,,,,,,0,0,0,0,0,1,stimuli/stim_20210919_power2amp/equal_lnn_AM_training2Hz_s20.m4a,,,,,,,,,,,,,,,,,,,,,,,,,,,
,,,,,41661,2021-09-30_14h20.15.927,judgeSpeechMusic_20210919_logNormShiftAmp_detection_fixFreq,2020.1.2,Win32,60,,,,,,,,,,,,,,,,,,,,,,,,,,space,3.6731,space,1.5988,1,7.3268,,0,0,0,0,67,1,stimuli/stim_20210919_power2amp/equal_lnn_AM2Hz_s55_32.m4a,,,,,,,,,,,,
,,,,,41661,2021-09-30_14h20.15.927,judgeSpeechMusic_20210919_logNormShiftAmp_detection_fixFreq,2020.1.2,Win32,60,,,,,,,,,,,,,,,,,,,,,,,,,,,,,,2,12.9024,,0,0,1,1,40,1,stimuli/stim_20210919_power2amp/equal_lnn_AM2Hz_s35_9.m4a,,,,,,,,,,,,
,,,,,41661,2021-09-30_14h20.15.927,judgeSpeechMusic_20210919_logNormShiftAmp_detection_fixFreq,2020.1.2,Win32,60,,,,,,,,,,,,,,,,,,,,,,,,,,,,,,1,13.6051,,0,0,2,2,8,1,stimuli/stim_20210919_power2amp/equal_lnn_AM2Hz_s15_46.m4a,,,,,,,,,,,,
,,,,,41661,2021-09-30_14h20.15.927,judgeSpeechMusic_20210919_logNormShiftAmp_detection_fixFreq,2020.1.2,Win32,60,,,,,,,,,,,,,,,,,,,,,,,,,,,,,,1,12.3169,,0,0,3,3,50,1,stimuli/stim_20210919_power2amp/equal_lnn_AM2Hz_s45_27.m4a,,,,,,,,,,,,
,,,,,41661,2021-09-30_14h20.15.927,judgeSpeechMusic_20210919_logNormShiftAmp_detection_fixFreq,2020.1.2,Win32,60,,,,,,,,,,,,,,,,,,,,,,,,,,,,,,2,8.9089,,0,0,4,4,27,1,stimuli/stim_20210919_power2amp/equal_lnn_AM2Hz_s25_7.m4a,,,,,,,,,,,,
,,,,,41661,2021-09-30_14h20.15.927,judgeSpeechMusic_20210919_logNormShiftAmp_detection_fixFreq,2020.1.2,Win32,60,,,,,,,,,,,,,,,,,,,,,,,,,,,,,,1,12.5313,,0,0,5,5,55,1,stimuli/stim_20210919_power2amp/equal_lnn_AM2Hz_s45_28.m4a,,,,,,,,,,,,
,,,,,41661,2021-09-30_14h20.15.927,judgeSpeechMusic_20210919_logNormShiftAmp_detection_fixFreq,2020.1.2,Win32,60,,,,,,,,,,,,,,,,,,,,,,,,,,,,,,1,10.2166,,0,0,6,6,17,1,stimuli/stim_20210919_power2amp/equal_lnn_AM2Hz_s25_11.m4a,,,,,,,,,,,,
,,,,,41661,2021-09-30_14h20.15.927,judgeSpeechMusic_20210919_logNormShiftAmp_detection_fixFreq,2020.1.2,Win32,60,,,,,,,,,,,,,,,,,,,,,,,,,,,,,,2,6.2036,,0,0,7,7,2,1,stimuli/stim_20210919_power2amp/equal_lnn_AM2Hz_s15_6.m4a,,,,,,,,,,,,
,,,,,41661,2021-09-30_14h20.15.927,judgeSpeechMusic_20210919_logNormShiftAmp_detection_fixFreq,2020.1.2,Win32,60,,,,,,,,,,,,,,,,,,,,,,,,,,,,,,1,5.951,,0,0,8,8,29,1,stimuli/stim_20210919_power2amp/equal_lnn_AM2Hz_s25_37.m4a,,,,,,,,,,,,
,,,,,41661,2021-09-30_14h20.15.927,judgeSpeechMusic_20210919_logNormShiftAmp_detection_fixFreq,2020.1.2,Win32,60,,,,,,,,,,,,,,,,,,,,,,,,,,,,,,2,9.155,,0,0,9,9,57,1,stimuli/stim_20210919_power2amp/equal_lnn_AM2Hz_s45_48.m4a,,,,,,,,,,,,
,,,,,41661,2021-09-30_14h20.15.927,judgeSpeechMusic_20210919_logNormShiftAmp_detection_fixFreq,2020.1.2,Win32,60,,,,,,,,,,,,,,,,,,,,,,,,,,,,,,2,8.8034,,0,0,10,10,53,1,stimuli/stim_20210919_power2amp/equal_lnn_AM2Hz_s45_45.m4a,,,,,,,,,,,,
,,,,,41661,2021-09-30_14h20.15.927,judgeSpeechMusic_20210919_logNormShiftAmp_detection_fixFreq,2020.1.2,Win32,60,,,,,,,,,,,,,,,,,,,,,,,,,,,,,,1,6.3907,,0,0,11,11,44,1,stimuli/stim_20210919_power2amp/equal_lnn_AM2Hz_s35_34.m4a,,,,,,,,,,,,
,,,,,41661,2021-09-30_14h20.15.927,judgeSpeechMusic_20210919_logNormShiftAmp_detection_fixFreq,2020.1.2,Win32,60,,,,,,,,,,,,,,,,,,,,,,,,,,,,,,1,8.4865,,0,0,12,12,5,1,stimuli/stim_20210919_power2amp/equal_lnn_AM2Hz_s15_4.m4a,,,,,,,,,,,,
,,,,,41661,2021-09-30_14h20.15.927,judgeSpeechMusic_20210919_logNormShiftAmp_detection_fixFreq,2020.1.2,Win32,60,,,,,,,,,,,,,,,,,,,,,,,,,,,,,,2,7.3966,,0,0,13,13,65,1,stimuli/stim_20210919_power2amp/equal_lnn_AM2Hz_s55_25.m4a,,,,,,,,,,,,
,,,,,41661,2021-09-30_14h20.15.927,judgeSpeechMusic_20210919_logNormShiftAmp_detection_fixFreq,2020.1.2,Win32,60,,,,,,,,,,,,,,,,,,,,,,,,,,,,,,1,7.5222,,0,0,14,14,13,1,stimuli/stim_20210919_power2amp/equal_lnn_AM2Hz_s15_14.m4a,,,,,,,,,,,,
,,,,,41661,2021-09-30_14h20.15.927,judgeSpeechMusic_20210919_logNormShiftAmp_detection_fixFreq,2020.1.2,Win32,60,,,,,,,,,,,,,,,,,,,,,,,,,,,,,,1,7.6312,,0,0,15,15,31,1,stimuli/stim_20210919_power2amp/equal_lnn_AM2Hz_s35_22.m4a,,,,,,,,,,,,
,,,,,41661,2021-09-30_14h20.15.927,judgeSpeechMusic_20210919_logNormShiftAmp_detection_fixFreq,2020.1.2,Win32,60,,,,,,,,,,,,,,,,,,,,,,,,,,,,,,1,6.0239,,0,0,16,16,3,1,stimuli/stim_20210919_power2amp/equal_lnn_AM2Hz_s15_34.m4a,,,,,,,,,,,,
,,,,,41661,2021-09-30_14h20.15.927,judgeSpeechMusic_20210919_logNormShiftAmp_detection_fixFreq,2020.1.2,Win32,60,,,,,,,,,,,,,,,,,,,,,,,,,,,,,,1,6.4079,,0,0,17,17,16,1,stimuli/stim_20210919_power2amp/equal_lnn_AM2Hz_s25_35.m4a,,,,,,,,,,,,
,,,,,41661,2021-09-30_14h20.15.927,judgeSpeechMusic_20210919_logNormShiftAmp_detection_fixFreq,2020.1.2,Win32,60,,,,,,,,,,,,,,,,,,,,,,,,,,,,,,1,7.249,,0,0,18,18,9,1,stimuli/stim_20210919_power2amp/equal_lnn_AM2Hz_s15_42.m4a,,,,,,,,,,,,
,,,,,41661,2021-09-30_14h20.15.927,judgeSpeechMusic_20210919_logNormShiftAmp_detection_fixFreq,2020.1.2,Win32,60,,,,,,,,,,,,,,,,,,,,,,,,,,,,,,1,6.2555,2,1,0,19,19,52,1,stimuli/stim_20210919_power2amp/equal_lnn_AM2Hz_s45_20.m4a,0.7827,,,,,,,,,,,
,,,,,41661,2021-09-30_14h20.15.927,judgeSpeechMusic_20210919_logNormShiftAmp_detection_fixFreq,2020.1.2,Win32,60,,,,,,,,,,,,,,,,,,,,,,,,,,,,,,1,5.8665,,0,0,20,20,70,1,stimuli/stim_20210919_power2amp/equal_lnn_AM2Hz_s55_28.m4a,,,,,,,,,,,,
,,,,,41661,2021-09-30_14h20.15.927,judgeSpeechMusic_20210919_logNormShiftAmp_detection_fixFreq,2020.1.2,Win32,60,,,,,,,,,,,,,,,,,,,,,,,,,,,,,,2,6.444,,0,0,21,21,63,1,stimuli/stim_20210919_power2amp/equal_lnn_AM2Hz_s55_49.m4a,,,,,,,,,,,,
,,,,,41661,2021-09-30_14h20.15.927,judgeSpeechMusic_20210919_logNormShiftAmp_detection_fixFreq,2020.1.2,Win32,60,,,,,,,,,,,,,,,,,,,,,,,,,,,,,,1,17.1965,,0,0,22,22,68,1,stimuli/stim_20210919_power2amp/equal_lnn_AM2Hz_s55_3.m4a,,,,,,,,,,,,
,,,,,41661,2021-09-30_14h20.15.927,judgeSpeechMusic_20210919_logNormShiftAmp_detection_fixFreq,2020.1.2,Win32,60,,,,,,,,,,,,,,,,,,,,,,,,,,,,,,1,7.4221,,0,0,23,23,49,1,stimuli/stim_20210919_power2amp/equal_lnn_AM2Hz_s45_25.m4a,,,,,,,,,,,,
,,,,,41661,2021-09-30_14h20.15.927,judgeSpeechMusic_20210919_logNormShiftAmp_detection_fixFreq,2020.1.2,Win32,60,,,,,,,,,,,,,,,,,,,,,,,,,,,,,,1,7.3417,,0,0,24,24,20,1,stimuli/stim_20210919_power2amp/equal_lnn_AM2Hz_s25_17.m4a,,,,,,,,,,,,
,,,,,41661,2021-09-30_14h20.15.927,judgeSpeechMusic_20210919_logNormShiftAmp_detection_fixFreq,2020.1.2,Win32,60,,,,,,,,,,,,,,,,,,,,,,,,,,,,,,2,9.9573,,0,0,25,25,60,1,stimuli/stim_20210919_power2amp/equal_lnn_AM2Hz_s55_21.m4a,,,,,,,,,,,,
,,,,,41661,2021-09-30_14h20.15.927,judgeSpeechMusic_20210919_logNormShiftAmp_detection_fixFreq,2020.1.2,Win32,60,,,,,,,,,,,,,,,,,,,,,,,,,,,,,,1,6.8828,,0,0,26,26,18,1,stimuli/stim_20210919_power2amp/equal_lnn_AM2Hz_s25_33.m4a,,,,,,,,,,,,
,,,,,41661,2021-09-30_14h20.15.927,judgeSpeechMusic_20210919_logNormShiftAmp_detection_fixFreq,2020.1.2,Win32,60,,,,,,,,,,,,,,,,,,,,,,,,,,,,,,1,6.703,,0,0,27,27,48,1,stimuli/stim_20210919_power2amp/equal_lnn_AM2Hz_s45_10.m4a,,,,,,,,,,,,
,,,,,41661,2021-09-30_14h20.15.927,judgeSpeechMusic_20210919_logNormShiftAmp_detection_fixFreq,2020.1.2,Win32,60,,,,,,,,,,,,,,,,,,,,,,,,,,,,,,1,7.1899,,0,0,28,28,10,1,stimuli/stim_20210919_power2amp/equal_lnn_AM2Hz_s15_50.m4a,,,,,,,,,,,,
,,,,,41661,2021-09-30_14h20.15.927,judgeSpeechMusic_20210919_logNormShiftAmp_detection_fixFreq,2020.1.2,Win32,60,,,,,,,,,,,,,,,,,,,,,,,,,,,,,,1,9.8149,,0,0,29,29,74,1,stimuli/stim_20210919_power2amp/equal_lnn_AM2Hz_s55_16.m4a,,,,,,,,,,,,
,,,,,41661,2021-09-30_14h20.15.927,judgeSpeechMusic_20210919_logNormShiftAmp_detection_fixFreq,2020.1.2,Win32,60,,,,,,,,,,,,,,,,,,,,,,,,,,,,,,1,9.3316,,0,0,30,30,42,1,stimuli/stim_20210919_power2amp/equal_lnn_AM2Hz_s35_11.m4a,,,,,,,,,,,,
,,,,,41661,2021-09-30_14h20.15.927,judgeSpeechMusic_20210919_logNormShiftAmp_detection_fixFreq,2020.1.2,Win32,60,,,,,,,,,,,,,,,,,,,,,,,,,,,,,,1,6.802,,0,0,31,31,64,1,stimuli/stim_20210919_power2amp/equal_lnn_AM2Hz_s55_41.m4a,,,,,,,,,,,,
,,,,,41661,2021-09-30_14h20.15.927,judgeSpeechMusic_20210919_logNormShiftAmp_detection_fixFreq,2020.1.2,Win32,60,,,,,,,,,,,,,,,,,,,,,,,,,,,,,,1,6.7582,,0,0,32,32,45,1,stimuli/stim_20210919_power2amp/equal_lnn_AM2Hz_s45_33.m4a,,,,,,,,,,,,
,,,,,41661,2021-09-30_14h20.15.927,judgeSpeechMusic_20210919_logNormShiftAmp_detection_fixFreq,2020.1.2,Win32,60,,,,,,,,,,,,,,,,,,,,,,,,,,,,,,2,8.89,,0,0,33,33,59,1,stimuli/stim_20210919_power2amp/equal_lnn_AM2Hz_s45_35.m4a,,,,,,,,,,,,
,,,,,41661,2021-09-30_14h20.15.927,judgeSpeechMusic_20210919_logNormShiftAmp_detection_fixFreq,2020.1.2,Win32,60,,,,,,,,,,,,,,,,,,,,,,,,,,,,,,1,6.8918,,0,0,34,34,19,1,stimuli/stim_20210919_power2amp/equal_lnn_AM2Hz_s25_25.m4a,,,,,,,,,,,,
,,,,,41661,2021-09-30_14h20.15.927,judgeSpeechMusic_20210919_logNormShiftAmp_detection_fixFreq,2020.1.2,Win32,60,,,,,,,,,,,,,,,,,,,,,,,,,,,,,,1,19.4468,,0,0,35,35,12,1,stimuli/stim_20210919_power2amp/equal_lnn_AM2Hz_s15_18.m4a,,,,,,,,,,,,
,,,,,41661,2021-09-30_14h20.15.927,judgeSpeechMusic_20210919_logNormShiftAmp_detection_fixFreq,2020.1.2,Win32,60,,,,,,,,,,,,,,,,,,,,,,,,,,,,,,1,6.5042,,0,0,36,36,43,1,stimuli/stim_20210919_power2amp/equal_lnn_AM2Hz_s35_49.m4a,,,,,,,,,,,,
,,,,,41661,2021-09-30_14h20.15.927,judgeSpeechMusic_20210919_logNormShiftAmp_detection_fixFreq,2020.1.2,Win32,60,,,,,,,,,,,,,,,,,,,,,,,,,,,,,,2,7.4897,,0,0,37,37,66,1,stimuli/stim_20210919_power2amp/equal_lnn_AM2Hz_s55_18.m4a,,,,,,,,,,,,
,,,,,41661,2021-09-30_14h20.15.927,judgeSpeechMusic_20210919_logNormShiftAmp_detection_fixFreq,2020.1.2,Win32,60,,,,,,,,,,,,,,,,,,,,,,,,,,,,,,1,7.6025,4,1,0,38,38,34,1,stimuli/stim_20210919_power2amp/equal_lnn_AM2Hz_s35_40.m4a,1.2795,,,,,,,,,,,
,,,,,41661,2021-09-30_14h20.15.927,judgeSpeechMusic_20210919_logNormShiftAmp_detection_fixFreq,2020.1.2,Win32,60,,,,,,,,,,,,,,,,,,,,,,,,,,,,,,1,6.2531,,0,0,39,39,6,1,stimuli/stim_20210919_power2amp/equal_lnn_AM2Hz_s15_45.m4a,,,,,,,,,,,,
,,,,,41661,2021-09-30_14h20.15.927,judgeSpeechMusic_20210919_logNormShiftAmp_detection_fixFreq,2020.1.2,Win32,60,,,,,,,,,,,,,,,,,,,,,,,,,,,,,,1,17.0047,,0,0,40,40,41,1,stimuli/stim_20210919_power2amp/equal_lnn_AM2Hz_s35_14.m4a,,,,,,,,,,,,
,,,,,41661,2021-09-30_14h20.15.927,judgeSpeechMusic_20210919_logNormShiftAmp_detection_fixFreq,2020.1.2,Win32,60,,,,,,,,,,,,,,,,,,,,,,,,,,,,,,2,6.0358,,0,0,41,41,39,1,stimuli/stim_20210919_power2amp/equal_lnn_AM2Hz_s35_32.m4a,,,,,,,,,,,,
,,,,,41661,2021-09-30_14h20.15.927,judgeSpeechMusic_20210919_logNormShiftAmp_detection_fixFreq,2020.1.2,Win32,60,,,,,,,,,,,,,,,,,,,,,,,,,,,,,,1,7.3405,,0,0,42,42,24,1,stimuli/stim_20210919_power2amp/equal_lnn_AM2Hz_s25_40.m4a,,,,,,,,,,,,
,,,,,41661,2021-09-30_14h20.15.927,judgeSpeechMusic_20210919_logNormShiftAmp_detection_fixFreq,2020.1.2,Win32,60,,,,,,,,,,,,,,,,,,,,,,,,,,,,,,1,13.8005,,0,0,43,43,61,1,stimuli/stim_20210919_power2amp/equal_lnn_AM2Hz_s55_17.m4a,,,,,,,,,,,,
,,,,,41661,2021-09-30_14h20.15.927,judgeSpeechMusic_20210919_logNormShiftAmp_detection_fixFreq,2020.1.2,Win32,60,,,,,,,,,,,,,,,,,,,,,,,,,,,,,,1,6.1801,,0,0,44,44,56,1,stimuli/stim_20210919_power2amp/equal_lnn_AM2Hz_s45_1.m4a,,,,,,,,,,,,
,,,,,41661,2021-09-30_14h20.15.927,judgeSpeechMusic_20210919_logNormShiftAmp_detection_fixFreq,2020.1.2,Win32,60,,,,,,,,,,,,,,,,,,,,,,,,,,,,,,2,6.2284,,0,0,45,45,22,1,stimuli/stim_20210919_power2amp/equal_lnn_AM2Hz_s25_34.m4a,,,,,,,,,,,,
,,,,,41661,2021-09-30_14h20.15.927,judgeSpeechMusic_20210919_logNormShiftAmp_detection_fixFreq,2020.1.2,Win32,60,,,,,,,,,,,,,,,,,,,,,,,,,,,,,,1,5.8653,,0,0,46,46,14,1,stimuli/stim_20210919_power2amp/equal_lnn_AM2Hz_s15_31.m4a,,,,,,,,,,,,
,,,,,41661,2021-09-30_14h20.15.927,judgeSpeechMusic_20210919_logNormShiftAmp_detection_fixFreq,2020.1.2,Win32,60,,,,,,,,,,,,,,,,,,,,,,,,,,,,,,1,14.2495,,0,0,47,47,7,1,stimuli/stim_20210919_power2amp/equal_lnn_AM2Hz_s15_28.m4a,,,,,,,,,,,,
,,,,,41661,2021-09-30_14h20.15.927,judgeSpeechMusic_20210919_logNormShiftAmp_detection_fixFreq,2020.1.2,Win32,60,,,,,,,,,,,,,,,,,,,,,,,,,,,,,,1,9.9036,,0,0,48,48,62,1,stimuli/stim_20210919_power2amp/equal_lnn_AM2Hz_s55_14.m4a,,,,,,,,,,,,
,,,,,41661,2021-09-30_14h20.15.927,judgeSpeechMusic_20210919_logNormShiftAmp_detection_fixFreq,2020.1.2,Win32,60,,,,,,,,,,,,,,,,,,,,,,,,,,,,,,1,6.6353,,0,0,49,49,32,1,stimuli/stim_20210919_power2amp/equal_lnn_AM2Hz_s35_19.m4a,,,,,,,,,,,,
,,,,,41661,2021-09-30_14h20.15.927,judgeSpeechMusic_20210919_logNormShiftAmp_detection_fixFreq,2020.1.2,Win32,60,,,,,,,,,,,,,,,,,,,,,,,,,,,,,,2,7.216,,0,0,50,50,36,1,stimuli/stim_20210919_power2amp/equal_lnn_AM2Hz_s35_21.m4a,,,,,,,,,,,,
,,,,,41661,2021-09-30_14h20.15.927,judgeSpeechMusic_20210919_logNormShiftAmp_detection_fixFreq,2020.1.2,Win32,60,,,,,,,,,,,,,,,,,,,,,,,,,,,,,,1,8.2265,,0,0,51,51,73,1,stimuli/stim_20210919_power2amp/equal_lnn_AM2Hz_s55_50.m4a,,,,,,,,,,,,
,,,,,41661,2021-09-30_14h20.15.927,judgeSpeechMusic_20210919_logNormShiftAmp_detection_fixFreq,2020.1.2,Win32,60,,,,,,,,,,,,,,,,,,,,,,,,,,,,,,2,16.0655,,0,0,52,52,21,1,stimuli/stim_20210919_power2amp/equal_lnn_AM2Hz_s25_36.m4a,,,,,,,,,,,,
,,,,,41661,2021-09-30_14h20.15.927,judgeSpeechMusic_20210919_logNormShiftAmp_detection_fixFreq,2020.1.2,Win32,60,,,,,,,,,,,,,,,,,,,,,,,,,,,,,,1,8.2527,,0,0,53,53,26,1,stimuli/stim_20210919_power2amp/equal_lnn_AM2Hz_s25_44.m4a,,,,,,,,,,,,
,,,,,41661,2021-09-30_14h20.15.927,judgeSpeechMusic_20210919_logNormShiftAmp_detection_fixFreq,2020.1.2,Win32,60,,,,,,,,,,,,,,,,,,,,,,,,,,,,,,1,6.9189,,0,0,54,54,25,1,stimuli/stim_20210919_power2amp/equal_lnn_AM2Hz_s25_48.m4a,,,,,,,,,,,,
,,,,,41661,2021-09-30_14h20.15.927,judgeSpeechMusic_20210919_logNormShiftAmp_detection_fixFreq,2020.1.2,Win32,60,,,,,,,,,,,,,,,,,,,,,,,,,,,,,,2,8.7984,,0,0,55,55,35,1,stimuli/stim_20210919_power2amp/equal_lnn_AM2Hz_s35_17.m4a,,,,,,,,,,,,
,,,,,41661,2021-09-30_14h20.15.927,judgeSpeechMusic_20210919_logNormShiftAmp_detection_fixFreq,2020.1.2,Win32,60,,,,,,,,,,,,,,,,,,,,,,,,,,,,,,1,12.3823,,0,0,56,56,58,1,stimuli/stim_20210919_power2amp/equal_lnn_AM2Hz_s45_40.m4a,,,,,,,,,,,,
,,,,,41661,2021-09-30_14h20.15.927,judgeSpeechMusic_20210919_logNormShiftAmp_detection_fixFreq,2020.1.2,Win32,60,,,,,,,,,,,,,,,,,,,,,,,,,,,,,,1,9.7835,,0,0,57,57,51,1,stimuli/stim_20210919_power2amp/equal_lnn_AM2Hz_s45_38.m4a,,,,,,,,,,,,
,,,,,41661,2021-09-30_14h20.15.927,judgeSpeechMusic_20210919_logNormShiftAmp_detection_fixFreq,2020.1.2,Win32,60,,,,,,,,,,,,,,,,,,,,,,,,,,,,,,1,8.4069,1,1,0,58,58,11,1,stimuli/stim_20210919_power2amp/equal_lnn_AM2Hz_s15_10.m4a,0.6236,,,,,,,,,,,
,,,,,41661,2021-09-30_14h20.15.927,judgeSpeechMusic_20210919_logNormShiftAmp_detection_fixFreq,2020.1.2,Win32,60,,,,,,,,,,,,,,,,,,,,,,,,,,,,,,1,16.3313,,0,0,59,59,37,1,stimuli/stim_20210919_power2amp/equal_lnn_AM2Hz_s35_27.m4a,,,,,,,,,,,,
,,,,,41661,2021-09-30_14h20.15.927,judgeSpeechMusic_20210919_logNormShiftAmp_detection_fixFreq,2020.1.2,Win32,60,,,,,,,,,,,,,,,,,,,,,,,,,,,,,,1,9.8051,,0,0,60,60,23,1,stimuli/stim_20210919_power2amp/equal_lnn_AM2Hz_s25_26.m4a,,,,,,,,,,,,
,,,,,41661,2021-09-30_14h20.15.927,judgeSpeechMusic_20210919_logNormShiftAmp_detection_fixFreq,2020.1.2,Win32,60,,,,,,,,,,,,,,,,,,,,,,,,,,,,,,1,12.3212,,0,0,61,61,69,1,stimuli/stim_20210919_power2amp/equal_lnn_AM2Hz_s55_46.m4a,,,,,,,,,,,,
,,,,,41661,2021-09-30_14h20.15.927,judgeSpeechMusic_20210919_logNormShiftAmp_detection_fixFreq,2020.1.2,Win32,60,,,,,,,,,,,,,,,,,,,,,,,,,,,,,,1,7.9931,,0,0,62,62,15,1,stimuli/stim_20210919_power2amp/equal_lnn_AM2Hz_s25_9.m4a,,,,,,,,,,,,
,,,,,41661,2021-09-30_14h20.15.927,judgeSpeechMusic_20210919_logNormShiftAmp_detection_fixFreq,2020.1.2,Win32,60,,,,,,,,,,,,,,,,,,,,,,,,,,,,,,1,9.5959,,0,0,63,63,28,1,stimuli/stim_20210919_power2amp/equal_lnn_AM2Hz_s25_22.m4a,,,,,,,,,,,,
,,,,,41661,2021-09-30_14h20.15.927,judgeSpeechMusic_20210919_logNormShiftAmp_detection_fixFreq,2020.1.2,Win32,60,,,,,,,,,,,,,,,,,,,,,,,,,,,,,,1,9.0564,,0,0,64,64,54,1,stimuli/stim_20210919_power2amp/equal_lnn_AM2Hz_s45_14.m4a,,,,,,,,,,,,
,,,,,41661,2021-09-30_14h20.15.927,judgeSpeechMusic_20210919_logNormShiftAmp_detection_fixFreq,2020.1.2,Win32,60,,,,,,,,,,,,,,,,,,,,,,,,,,,,,,1,11.0193,,0,0,65,65,72,1,stimuli/stim_20210919_power2amp/equal_lnn_AM2Hz_s55_4.m4a,,,,,,,,,,,,
,,,,,41661,2021-09-30_14h20.15.927,judgeSpeechMusic_20210919_logNormShiftAmp_detection_fixFreq,2020.1.2,Win32,60,,,,,,,,,,,,,,,,,,,,,,,,,,,,,,1,22.7663,,0,0,66,66,38,1,stimuli/stim_20210919_power2amp/equal_lnn_AM2Hz_s35_31.m4a,,,,,,,,,,,,
,,,,,41661,2021-09-30_14h20.15.927,judgeSpeechMusic_20210919_logNormShiftAmp_detection_fixFreq,2020.1.2,Win32,60,,,,,,,,,,,,,,,,,,,,,,,,,,,,,,1,8.4747,,0,0,67,67,46,1,stimuli/stim_20210919_power2amp/equal_lnn_AM2Hz_s45_5.m4a,,,,,,,,,,,,
,,,,,41661,2021-09-30_14h20.15.927,judgeSpeechMusic_20210919_logNormShiftAmp_detection_fixFreq,2020.1.2,Win32,60,,,,,,,,,,,,,,,,,,,,,,,,,,,,,,2,7.2008,,0,0,68,68,4,1,stimuli/stim_20210919_power2amp/equal_lnn_AM2Hz_s15_2.m4a,,,,,,,,,,,,
,,,,,41661,2021-09-30_14h20.15.927,judgeSpeechMusic_20210919_logNormShiftAmp_detection_fixFreq,2020.1.2,Win32,60,,,,,,,,,,,,,,,,,,,,,,,,,,,,,,1,15.7016,,0,0,69,69,1,1,stimuli/stim_20210919_power2amp/equal_lnn_AM2Hz_s15_35.m4a,,,,,,,,,,,,
,,,,,41661,2021-09-30_14h20.15.927,judgeSpeechMusic_20210919_logNormShiftAmp_detection_fixFreq,2020.1.2,Win32,60,,,,,,,,,,,,,,,,,,,,,,,,,,,,,,1,7.3388,,0,0,70,70,0,1,stimuli/stim_20210919_power2amp/equal_lnn_AM2Hz_s15_23.m4a,,,,,,,,,,,,
,,,,,41661,2021-09-30_14h20.15.927,judgeSpeechMusic_20210919_logNormShiftAmp_detection_fixFreq,2020.1.2,Win32,60,,,,,,,,,,,,,,,,,,,,,,,,,,,,,,2,8.0825,,0,0,71,71,71,1,stimuli/stim_20210919_power2amp/equal_lnn_AM2Hz_s55_23.m4a,,,,,,,,,,,,
,,,,,41661,2021-09-30_14h20.15.927,judgeSpeechMusic_20210919_logNormShiftAmp_detection_fixFreq,2020.1.2,Win32,60,,,,,,,,,,,,,,,,,,,,,,,,,,,,,,1,6.5827,,0,0,72,72,30,1,stimuli/stim_20210919_power2amp/equal_lnn_AM2Hz_s35_37.m4a,,,,,,,,,,,,
,,,,,41661,2021-09-30_14h20.15.927,judgeSpeechMusic_20210919_logNormShiftAmp_detection_fixFreq,2020.1.2,Win32,60,,,,,,,,,,,,,,,,,,,,,,,,,,,,,,2,8.0232,,0,0,73,73,47,1,stimuli/stim_20210919_power2amp/equal_lnn_AM2Hz_s45_23.m4a,,,,,,,,,,,,
,,,,,41661,2021-09-30_14h20.15.927,judgeSpeechMusic_20210919_logNormShiftAmp_detection_fixFreq,2020.1.2,Win32,60,,,,,,,,,,,,,,,,,,,,,,,,,,,,,,1,6.946,,0,0,74,74,33,1,stimuli/stim_20210919_power2amp/equal_lnn_AM2Hz_s35_47.m4a,,,,,,,,,,,,
,,,,,41661,2021-09-30_14h20.15.927,judgeSpeechMusic_20210919_logNormShiftAmp_detection_fixFreq,2020.1.2,Win32,60,,,,,,,,,,,,,,,,,,,,,,,,,,,,,,,,,,,,,,,,,space,2.9333,1,0,2,0,1,MUSIC,stimuli/MUSIC.jpg,,
,,,,,41661,2021-09-30_14h20.15.927,judgeSpeechMusic_20210919_logNormShiftAmp_detection_fixFreq,2020.1.2,Win32,60,,,,,,,,,,,,,,,,,,0,0,0,0,1,1,stimuli/stim_20210919_power2amp/equal_lnn_AM_training2Hz_s30.m4a,,,,,,,,,,,,,,,,,,,,,,,,,,,
,,,,,41661,2021-09-30_14h20.15.927,judgeSpeechMusic_20210919_logNormShiftAmp_detection_fixFreq,2020.1.2,Win32,60,,,,,,,,,,,,,,,,,,,,,,,,,,space,4.0113,space,3.2384,2,19.9253,,0,0,0,0,56,1,stimuli/stim_20210919_power2amp/equal_lnn_AM2Hz_s45_1.m4a,,,,,,,,,,,,
,,,,,41661,2021-09-30_14h20.15.927,judgeSpeechMusic_20210919_logNormShiftAmp_detection_fixFreq,2020.1.2,Win32,60,,,,,,,,,,,,,,,,,,,,,,,,,,,,,,1,19.8872,,0,0,1,1,55,1,stimuli/stim_20210919_power2amp/equal_lnn_AM2Hz_s45_28.m4a,,,,,,,,,,,,
,,,,,41661,2021-09-30_14h20.15.927,judgeSpeechMusic_20210919_logNormShiftAmp_detection_fixFreq,2020.1.2,Win32,60,,,,,,,,,,,,,,,,,,,,,,,,,,,,,,1,7.058,,0,0,2,2,15,1,stimuli/stim_20210919_power2amp/equal_lnn_AM2Hz_s25_9.m4a,,,,,,,,,,,,
,,,,,41661,2021-09-30_14h20.15.927,judgeSpeechMusic_20210919_logNormShiftAmp_detection_fixFreq,2020.1.2,Win32,60,,,,,,,,,,,,,,,,,,,,,,,,,,,,,,2,6.6393,,0,0,3,3,61,1,stimuli/stim_20210919_power2amp/equal_lnn_AM2Hz_s55_17.m4a,,,,,,,,,,,,
,,,,,41661,2021-09-30_14h20.15.927,judgeSpeechMusic_20210919_logNormShiftAmp_detection_fixFreq,2020.1.2,Win32,60,,,,,,,,,,,,,,,,,,,,,,,,,,,,,,1,32.6339,,0,0,4,4,6,1,stimuli/stim_20210919_power2amp/equal_lnn_AM2Hz_s15_45.m4a,,,,,,,,,,,,
,,,,,41661,2021-09-30_14h20.15.927,judgeSpeechMusic_20210919_logNormShiftAmp_detection_fixFreq,2020.1.2,Win32,60,,,,,,,,,,,,,,,,,,,,,,,,,,,,,,2,7.507,,0,0,5,5,19,1,stimuli/stim_20210919_power2amp/equal_lnn_AM2Hz_s25_25.m4a,,,,,,,,,,,,
,,,,,41661,2021-09-30_14h20.15.927,judgeSpeechMusic_20210919_logNormShiftAmp_detection_fixFreq,2020.1.2,Win32,60,,,,,,,,,,,,,,,,,,,,,,,,,,,,,,1,7.5259,,0,0,6,6,44,1,stimuli/stim_20210919_power2amp/equal_lnn_AM2Hz_s35_34.m4a,,,,,,,,,,,,
,,,,,41661,2021-09-30_14h20.15.927,judgeSpeechMusic_20210919_logNormShiftAmp_detection_fixFreq,2020.1.2,Win32,60,,,,,,,,,,,,,,,,,,,,,,,,,,,,,,1,7.4112,,0,0,7,7,16,1,stimuli/stim_20210919_power2amp/equal_lnn_AM2Hz_s25_35.m4a,,,,,,,,,,,,
,,,,,41661,2021-09-30_14h20.15.927,judgeSpeechMusic_20210919_logNormShiftAmp_detection_fixFreq,2020.1.2,Win32,60,,,,,,,,,,,,,,,,,,,,,,,,,,,,,,2,7.8819,,0,0,8,8,71,1,stimuli/stim_20210919_power2amp/equal_lnn_AM2Hz_s55_23.m4a,,,,,,,,,,,,
,,,,,41661,2021-09-30_14h20.15.927,judgeSpeechMusic_20210919_logNormShiftAmp_detection_fixFreq,2020.1.2,Win32,60,,,,,,,,,,,,,,,,,,,,,,,,,,,,,,1,11.7899,,0,0,9,9,28,1,stimuli/stim_20210919_power2amp/equal_lnn_AM2Hz_s25_22.m4a,,,,,,,,,,,,
,,,,,41661,2021-09-30_14h20.15.927,judgeSpeechMusic_20210919_logNormShiftAmp_detection_fixFreq,2020.1.2,Win32,60,,,,,,,,,,,,,,,,,,,,,,,,,,,,,,2,6.6319,,0,0,10,10,30,1,stimuli/stim_20210919_power2amp/equal_lnn_AM2Hz_s35_37.m4a,,,,,,,,,,,,
,,,,,41661,2021-09-30_14h20.15.927,judgeSpeechMusic_20210919_logNormShiftAmp_detection_fixFreq,2020.1.2,Win32,60,,,,,,,,,,,,,,,,,,,,,,,,,,,,,,1,7.8379,,0,0,11,11,7,1,stimuli/stim_20210919_power2amp/equal_lnn_AM2Hz_s15_28.m4a,,,,,,,,,,,,
,,,,,41661,2021-09-30_14h20.15.927,judgeSpeechMusic_20210919_logNormShiftAmp_detection_fixFreq,2020.1.2,Win32,60,,,,,,,,,,,,,,,,,,,,,,,,,,,,,,1,12.1051,,0,0,12,12,69,1,stimuli/stim_20210919_power2amp/equal_lnn_AM2Hz_s55_46.m4a,,,,,,,,,,,,
,,,,,41661,2021-09-30_14h20.15.927,judgeSpeechMusic_20210919_logNormShiftAmp_detection_fixFreq,2020.1.2,Win32,60,,,,,,,,,,,,,,,,,,,,,,,,,,,,,,2,9.6363,,0,0,13,13,45,1,stimuli/stim_20210919_power2amp/equal_lnn_AM2Hz_s45_33.m4a,,,,,,,,,,,,
,,,,,41661,2021-09-30_14h20.15.927,judgeSpeechMusic_20210919_logNormShiftAmp_detection_fixFreq,2020.1.2,Win32,60,,,,,,,,,,,,,,,,,,,,,,,,,,,,,,2,12.5215,,0,0,14,14,10,1,stimuli/stim_20210919_power2amp/equal_lnn_AM2Hz_s15_50.m4a,,,,,,,,,,,,
,,,,,41661,2021-09-30_14h20.15.927,judgeSpeechMusic_20210919_logNormShiftAmp_detection_fixFreq,2020.1.2,Win32,60,,,,,,,,,,,,,,,,,,,,,,,,,,,,,,1,7.5443,,0,0,15,15,63,1,stimuli/stim_20210919_power2amp/equal_lnn_AM2Hz_s55_49.m4a,,,,,,,,,,,,
,,,,,41661,2021-09-30_14h20.15.927,judgeSpeechMusic_20210919_logNormShiftAmp_detection_fixFreq,2020.1.2,Win32,60,,,,,,,,,,,,,,,,,,,,,,,,,,,,,,2,8.4043,,0,0,16,16,73,1,stimuli/stim_20210919_power2amp/equal_lnn_AM2Hz_s55_50.m4a,,,,,,,,,,,,
,,,,,41661,2021-09-30_14h20.15.927,judgeSpeechMusic_20210919_logNormShiftAmp_detection_fixFreq,2020.1.2,Win32,60,,,,,,,,,,,,,,,,,,,,,,,,,,,,,,1,8.3012,,0,0,17,17,40,1,stimuli/stim_20210919_power2amp/equal_lnn_AM2Hz_s35_9.m4a,,,,,,,,,,,,
,,,,,41661,2021-09-30_14h20.15.927,judgeSpeechMusic_20210919_logNormShiftAmp_detection_fixFreq,2020.1.2,Win32,60,,,,,,,,,,,,,,,,,,,,,,,,,,,,,,2,7.8191,,0,0,18,18,0,1,stimuli/stim_20210919_power2amp/equal_lnn_AM2Hz_s15_23.m4a,,,,,,,,,,,,
,,,,,41661,2021-09-30_14h20.15.927,judgeSpeechMusic_20210919_logNormShiftAmp_detection_fixFreq,2020.1.2,Win32,60,,,,,,,,,,,,,,,,,,,,,,,,,,,,,,1,8.2737,1,1,0,19,19,26,1,stimuli/stim_20210919_power2amp/equal_lnn_AM2Hz_s25_44.m4a,2.0501,,,,,,,,,,,
,,,,,41661,2021-09-30_14h20.15.927,judgeSpeechMusic_20210919_logNormShiftAmp_detection_fixFreq,2020.1.2,Win32,60,,,,,,,,,,,,,,,,,,,,,,,,,,,,,,1,6.6165,,0,0,20,20,9,1,stimuli/stim_20210919_power2amp/equal_lnn_AM2Hz_s15_42.m4a,,,,,,,,,,,,
,,,,,41661,2021-09-30_14h20.15.927,judgeSpeechMusic_20210919_logNormShiftAmp_detection_fixFreq,2020.1.2,Win32,60,,,,,,,,,,,,,,,,,,,,,,,,,,,,,,1,6.4754,,0,0,21,21,47,1,stimuli/stim_20210919_power2amp/equal_lnn_AM2Hz_s45_23.m4a,,,,,,,,,,,,
,,,,,41661,2021-09-30_14h20.15.927,judgeSpeechMusic_20210919_logNormShiftAmp_detection_fixFreq,2020.1.2,Win32,60,,,,,,,,,,,,,,,,,,,,,,,,,,,,,,1,8.2057,,0,0,22,22,25,1,stimuli/stim_20210919_power2amp/equal_lnn_AM2Hz_s25_48.m4a,,,,,,,,,,,,
,,,,,41661,2021-09-30_14h20.15.927,judgeSpeechMusic_20210919_logNormShiftAmp_detection_fixFreq,2020.1.2,Win32,60,,,,,,,,,,,,,,,,,,,,,,,,,,,,,,2,6.5311,,0,0,23,23,41,1,stimuli/stim_20210919_power2amp/equal_lnn_AM2Hz_s35_14.m4a,,,,,,,,,,,,
,,,,,41661,2021-09-30_14h20.15.927,judgeSpeechMusic_20210919_logNormShiftAmp_detection_fixFreq,2020.1.2,Win32,60,,,,,,,,,,,,,,,,,,,,,,,,,,,,,,1,7.7661,,0,0,24,24,23,1,stimuli/stim_20210919_power2amp/equal_lnn_AM2Hz_s25_26.m4a,,,,,,,,,,,,
,,,,,41661,2021-09-30_14h20.15.927,judgeSpeechMusic_20210919_logNormShiftAmp_detection_fixFreq,2020.1.2,Win32,60,,,,,,,,,,,,,,,,,,,,,,,,,,,,,,2,6.4171,,0,0,25,25,53,1,stimuli/stim_20210919_power2amp/equal_lnn_AM2Hz_s45_45.m4a,,,,,,,,,,,,
,,,,,41661,2021-09-30_14h20.15.927,judgeSpeechMusic_20210919_logNormShiftAmp_detection_fixFreq,2020.1.2,Win32,60,,,,,,,,,,,,,,,,,,,,,,,,,,,,,,1,7.1787,,0,0,26,26,49,1,stimuli/stim_20210919_power2amp/equal_lnn_AM2Hz_s45_25.m4a,,,,,,,,,,,,
,,,,,41661,2021-09-30_14h20.15.927,judgeSpeechMusic_20210919_logNormShiftAmp_detection_fixFreq,2020.1.2,Win32,60,,,,,,,,,,,,,,,,,,,,,,,,,,,,,,1,9.4126,,0,0,27,27,37,1,stimuli/stim_20210919_power2amp/equal_lnn_AM2Hz_s35_27.m4a,,,,,,,,,,,,
,,,,,41661,2021-09-30_14h20.15.927,judgeSpeechMusic_20210919_logNormShiftAmp_detection_fixFreq,2020.1.2,Win32,60,,,,,,,,,,,,,,,,,,,,,,,,,,,,,,1,7.3341,,0,0,28,28,62,1,stimuli/stim_20210919_power2amp/equal_lnn_AM2Hz_s55_14.m4a,,,,,,,,,,,,
,,,,,41661,2021-09-30_14h20.15.927,judgeSpeechMusic_20210919_logNormShiftAmp_detection_fixFreq,2020.1.2,Win32,60,,,,,,,,,,,,,,,,,,,,,,,,,,,,,,1,6.8192,,0,0,29,29,46,1,stimuli/stim_20210919_power2amp/equal_lnn_AM2Hz_s45_5.m4a,,,,,,,,,,,,
,,,,,41661,2021-09-30_14h20.15.927,judgeSpeechMusic_20210919_logNormShiftAmp_detection_fixFreq,2020.1.2,Win32,60,,,,,,,,,,,,,,,,,,,,,,,,,,,,,,1,6.4829,,0,0,30,30,72,1,stimuli/stim_20210919_power2amp/equal_lnn_AM2Hz_s55_4.m4a,,,,,,,,,,,,
,,,,,41661,2021-09-30_14h20.15.927,judgeSpeechMusic_20210919_logNormShiftAmp_detection_fixFreq,2020.1.2,Win32,60,,,,,,,,,,,,,,,,,,,,,,,,,,,,,,2,6.2368,,0,0,31,31,4,1,stimuli/stim_20210919_power2amp/equal_lnn_AM2Hz_s15_2.m4a,,,,,,,,,,,,
,,,,,41661,2021-09-30_14h20.15.927,judgeSpeechMusic_20210919_logNormShiftAmp_detection_fixFreq,2020.1.2,Win32,60,,,,,,,,,,,,,,,,,,,,,,,,,,,,,,1,6.5975,,0,0,32,32,58,1,stimuli/stim_20210919_power2amp/equal_lnn_AM2Hz_s45_40.m4a,,,,,,,,,,,,
,,,,,41661,2021-09-30_14h20.15.927,judgeSpeechMusic_20210919_logNormShiftAmp_detection_fixFreq,2020.1.2,Win32,60,,,,,,,,,,,,,,,,,,,,,,,,,,,,,,1,6.7371,,0,0,33,33,33,1,stimuli/stim_20210919_power2amp/equal_lnn_AM2Hz_s35_47.m4a,,,,,,,,,,,,
,,,,,41661,2021-09-30_14h20.15.927,judgeSpeechMusic_20210919_logNormShiftAmp_detection_fixFreq,2020.1.2,Win32,60,,,,,,,,,,,,,,,,,,,,,,,,,,,,,,1,5.9994,,0,0,34,34,8,1,stimuli/stim_20210919_power2amp/equal_lnn_AM2Hz_s15_46.m4a,,,,,,,,,,,,
,,,,,41661,2021-09-30_14h20.15.927,judgeSpeechMusic_20210919_logNormShiftAmp_detection_fixFreq,2020.1.2,Win32,60,,,,,,,,,,,,,,,,,,,,,,,,,,,,,,1,6.6355,,0,0,35,35,13,1,stimuli/stim_20210919_power2amp/equal_lnn_AM2Hz_s15_14.m4a,,,,,,,,,,,,
,,,,,41661,2021-09-30_14h20.15.927,judgeSpeechMusic_20210919_logNormShiftAmp_detection_fixFreq,2020.1.2,Win32,60,,,,,,,,,,,,,,,,,,,,,,,,,,,,,,1,9.4013,,0,0,36,36,17,1,stimuli/stim_20210919_power2amp/equal_lnn_AM2Hz_s25_11.m4a,,,,,,,,,,,,
,,,,,41661,2021-09-30_14h20.15.927,judgeSpeechMusic_20210919_logNormShiftAmp_detection_fixFreq,2020.1.2,Win32,60,,,,,,,,,,,,,,,,,,,,,,,,,,,,,,2,11.7158,,0,0,37,37,22,1,stimuli/stim_20210919_power2amp/equal_lnn_AM2Hz_s25_34.m4a,,,,,,,,,,,,
,,,,,41661,2021-09-30_14h20.15.927,judgeSpeechMusic_20210919_logNormShiftAmp_detection_fixFreq,2020.1.2,Win32,60,,,,,,,,,,,,,,,,,,,,,,,,,,,,,,1,6.5245,3,1,0,38,38,50,1,stimuli/stim_20210919_power2amp/equal_lnn_AM2Hz_s45_27.m4a,1.2777,,,,,,,,,,,
,,,,,41661,2021-09-30_14h20.15.927,judgeSpeechMusic_20210919_logNormShiftAmp_detection_fixFreq,2020.1.2,Win32,60,,,,,,,,,,,,,,,,,,,,,,,,,,,,,,1,7.1544,,0,0,39,39,12,1,stimuli/stim_20210919_power2amp/equal_lnn_AM2Hz_s15_18.m4a,,,,,,,,,,,,
,,,,,41661,2021-09-30_14h20.15.927,judgeSpeechMusic_20210919_logNormShiftAmp_detection_fixFreq,2020.1.2,Win32,60,,,,,,,,,,,,,,,,,,,,,,,,,,,,,,1,6.7371,,0,0,40,40,11,1,stimuli/stim_20210919_power2amp/equal_lnn_AM2Hz_s15_10.m4a,,,,,,,,,,,,
,,,,,41661,2021-09-30_14h20.15.927,judgeSpeechMusic_20210919_logNormShiftAmp_detection_fixFreq,2020.1.2,Win32,60,,,,,,,,,,,,,,,,,,,,,,,,,,,,,,1,7.9802,,0,0,41,41,57,1,stimuli/stim_20210919_power2amp/equal_lnn_AM2Hz_s45_48.m4a,,,,,,,,,,,,
,,,,,41661,2021-09-30_14h20.15.927,judgeSpeechMusic_20210919_logNormShiftAmp_detection_fixFreq,2020.1.2,Win32,60,,,,,,,,,,,,,,,,,,,,,,,,,,,,,,1,7.8887,,0,0,42,42,42,1,stimuli/stim_20210919_power2amp/equal_lnn_AM2Hz_s35_11.m4a,,,,,,,,,,,,
,,,,,41661,2021-09-30_14h20.15.927,judgeSpeechMusic_20210919_logNormShiftAmp_detection_fixFreq,2020.1.2,Win32,60,,,,,,,,,,,,,,,,,,,,,,,,,,,,,,1,13.15,,0,0,43,43,38,1,stimuli/stim_20210919_power2amp/equal_lnn_AM2Hz_s35_31.m4a,,,,,,,,,,,,
,,,,,41661,2021-09-30_14h20.15.927,judgeSpeechMusic_20210919_logNormShiftAmp_detection_fixFreq,2020.1.2,Win32,60,,,,,,,,,,,,,,,,,,,,,,,,,,,,,,2,9.9225,,0,0,44,44,54,1,stimuli/stim_20210919_power2amp/equal_lnn_AM2Hz_s45_14.m4a,,,,,,,,,,,,
,,,,,41661,2021-09-30_14h20.15.927,judgeSpeechMusic_20210919_logNormShiftAmp_detection_fixFreq,2020.1.2,Win32,60,,,,,,,,,,,,,,,,,,,,,,,,,,,,,,1,7.4007,,0,0,45,45,70,1,stimuli/stim_20210919_power2amp/equal_lnn_AM2Hz_s55_28.m4a,,,,,,,,,,,,
,,,,,41661,2021-09-30_14h20.15.927,judgeSpeechMusic_20210919_logNormShiftAmp_detection_fixFreq,2020.1.2,Win32,60,,,,,,,,,,,,,,,,,,,,,,,,,,,,,,1,7.4498,,0,0,46,46,35,1,stimuli/stim_20210919_power2amp/equal_lnn_AM2Hz_s35_17.m4a,,,,,,,,,,,,
,,,,,41661,2021-09-30_14h20.15.927,judgeSpeechMusic_20210919_logNormShiftAmp_detection_fixFreq,2020.1.2,Win32,60,,,,,,,,,,,,,,,,,,,,,,,,,,,,,,2,9.4098,,0,0,47,47,74,1,stimuli/stim_20210919_power2amp/equal_lnn_AM2Hz_s55_16.m4a,,,,,,,,,,,,
,,,,,41661,2021-09-30_14h20.15.927,judgeSpeechMusic_20210919_logNormShiftAmp_detection_fixFreq,2020.1.2,Win32,60,,,,,,,,,,,,,,,,,,,,,,,,,,,,,,1,7.0153,,0,0,48,48,2,1,stimuli/stim_20210919_power2amp/equal_lnn_AM2Hz_s15_6.m4a,,,,,,,,,,,,
,,,,,41661,2021-09-30_14h20.15.927,judgeSpeechMusic_20210919_logNormShiftAmp_detection_fixFreq,2020.1.2,Win32,60,,,,,,,,,,,,,,,,,,,,,,,,,,,,,,1,6.7832,,0,0,49,49,21,1,stimuli/stim_20210919_power2amp/equal_lnn_AM2Hz_s25_36.m4a,,,,,,,,,,,,
,,,,,41661,2021-09-30_14h20.15.927,judgeSpeechMusic_20210919_logNormShiftAmp_detection_fixFreq,2020.1.2,Win32,60,,,,,,,,,,,,,,,,,,,,,,,,,,,,,,1,5.7556,,0,0,50,50,29,1,stimuli/stim_20210919_power2amp/equal_lnn_AM2Hz_s25_37.m4a,,,,,,,,,,,,
,,,,,41661,2021-09-30_14h20.15.927,judgeSpeechMusic_20210919_logNormShiftAmp_detection_fixFreq,2020.1.2,Win32,60,,,,,,,,,,,,,,,,,,,,,,,,,,,,,,1,6.3774,,0,0,51,51,34,1,stimuli/stim_20210919_power2amp/equal_lnn_AM2Hz_s35_40.m4a,,,,,,,,,,,,
,,,,,41661,2021-09-30_14h20.15.927,judgeSpeechMusic_20210919_logNormShiftAmp_detection_fixFreq,2020.1.2,Win32,60,,,,,,,,,,,,,,,,,,,,,,,,,,,,,,2,6.8972,,0,0,52,52,32,1,stimuli/stim_20210919_power2amp/equal_lnn_AM2Hz_s35_19.m4a,,,,,,,,,,,,
,,,,,41661,2021-09-30_14h20.15.927,judgeSpeechMusic_20210919_logNormShiftAmp_detection_fixFreq,2020.1.2,Win32,60,,,,,,,,,,,,,,,,,,,,,,,,,,,,,,1,7.3159,,0,0,53,53,31,1,stimuli/stim_20210919_power2amp/equal_lnn_AM2Hz_s35_22.m4a,,,,,,,,,,,,
,,,,,41661,2021-09-30_14h20.15.927,judgeSpeechMusic_20210919_logNormShiftAmp_detection_fixFreq,2020.1.2,Win32,60,,,,,,,,,,,,,,,,,,,,,,,,,,,,,,1,7.5672,,0,0,54,54,24,1,stimuli/stim_20210919_power2amp/equal_lnn_AM2Hz_s25_40.m4a,,,,,,,,,,,,
,,,,,41661,2021-09-30_14h20.15.927,judgeSpeechMusic_20210919_logNormShiftAmp_detection_fixFreq,2020.1.2,Win32,60,,,,,,,,,,,,,,,,,,,,,,,,,,,,,,1,7.4212,,0,0,55,55,68,1,stimuli/stim_20210919_power2amp/equal_lnn_AM2Hz_s55_3.m4a,,,,,,,,,,,,
,,,,,41661,2021-09-30_14h20.15.927,judgeSpeechMusic_20210919_logNormShiftAmp_detection_fixFreq,2020.1.2,Win32,60,,,,,,,,,,,,,,,,,,,,,,,,,,,,,,2,6.3966,,0,0,56,56,36,1,stimuli/stim_20210919_power2amp/equal_lnn_AM2Hz_s35_21.m4a,,,,,,,,,,,,
,,,,,41661,2021-09-30_14h20.15.927,judgeSpeechMusic_20210919_logNormShiftAmp_detection_fixFreq,2020.1.2,Win32,60,,,,,,,,,,,,,,,,,,,,,,,,,,,,,,1,6.5973,,0,0,57,57,59,1,stimuli/stim_20210919_power2amp/equal_lnn_AM2Hz_s45_35.m4a,,,,,,,,,,,,
,,,,,41661,2021-09-30_14h20.15.927,judgeSpeechMusic_20210919_logNormShiftAmp_detection_fixFreq,2020.1.2,Win32,60,,,,,,,,,,,,,,,,,,,,,,,,,,,,,,1,6.4181,2,1,0,58,58,20,1,stimuli/stim_20210919_power2amp/equal_lnn_AM2Hz_s25_17.m4a,0.6246,,,,,,,,,,,
,,,,,41661,2021-09-30_14h20.15.927,judgeSpeechMusic_20210919_logNormShiftAmp_detection_fixFreq,2020.1.2,Win32,60,,,,,,,,,,,,,,,,,,,,,,,,,,,,,,2,6.2717,,0,0,59,59,64,1,stimuli/stim_20210919_power2amp/equal_lnn_AM2Hz_s55_41.m4a,,,,,,,,,,,,
,,,,,41661,2021-09-30_14h20.15.927,judgeSpeechMusic_20210919_logNormShiftAmp_detection_fixFreq,2020.1.2,Win32,60,,,,,,,,,,,,,,,,,,,,,,,,,,,,,,1,5.741,,0,0,60,60,5,1,stimuli/stim_20210919_power2amp/equal_lnn_AM2Hz_s15_4.m4a,,,,,,,,,,,,
,,,,,41661,2021-09-30_14h20.15.927,judgeSpeechMusic_20210919_logNormShiftAmp_detection_fixFreq,2020.1.2,Win32,60,,,,,,,,,,,,,,,,,,,,,,,,,,,,,,1,5.8718,,0,0,61,61,51,1,stimuli/stim_20210919_power2amp/equal_lnn_AM2Hz_s45_38.m4a,,,,,,,,,,,,
,,,,,41661,2021-09-30_14h20.15.927,judgeSpeechMusic_20210919_logNormShiftAmp_detection_fixFreq,2020.1.2,Win32,60,,,,,,,,,,,,,,,,,,,,,,,,,,,,,,1,6.0051,,0,0,62,62,43,1,stimuli/stim_20210919_power2amp/equal_lnn_AM2Hz_s35_49.m4a,,,,,,,,,,,,
,,,,,41661,2021-09-30_14h20.15.927,judgeSpeechMusic_20210919_logNormShiftAmp_detection_fixFreq,2020.1.2,Win32,60,,,,,,,,,,,,,,,,,,,,,,,,,,,,,,1,6.2,,0,0,63,63,60,1,stimuli/stim_20210919_power2amp/equal_lnn_AM2Hz_s55_21.m4a,,,,,,,,,,,,
,,,,,41661,2021-09-30_14h20.15.927,judgeSpeechMusic_20210919_logNormShiftAmp_detection_fixFreq,2020.1.2,Win32,60,,,,,,,,,,,,,,,,,,,,,,,,,,,,,,1,5.9516,,0,0,64,64,14,1,stimuli/stim_20210919_power2amp/equal_lnn_AM2Hz_s15_31.m4a,,,,,,,,,,,,
,,,,,41661,2021-09-30_14h20.15.927,judgeSpeechMusic_20210919_logNormShiftAmp_detection_fixFreq,2020.1.2,Win32,60,,,,,,,,,,,,,,,,,,,,,,,,,,,,,,1,6.6897,,0,0,65,65,66,1,stimuli/stim_20210919_power2amp/equal_lnn_AM2Hz_s55_18.m4a,,,,,,,,,,,,
,,,,,41661,2021-09-30_14h20.15.927,judgeSpeechMusic_20210919_logNormShiftAmp_detection_fixFreq,2020.1.2,Win32,60,,,,,,,,,,,,,,,,,,,,,,,,,,,,,,1,6.4191,,0,0,66,66,3,1,stimuli/stim_20210919_power2amp/equal_lnn_AM2Hz_s15_34.m4a,,,,,,,,,,,,
,,,,,41661,2021-09-30_14h20.15.927,judgeSpeechMusic_20210919_logNormShiftAmp_detection_fixFreq,2020.1.2,Win32,60,,,,,,,,,,,,,,,,,,,,,,,,,,,,,,1,6.219,,0,0,67,67,39,1,stimuli/stim_20210919_power2amp/equal_lnn_AM2Hz_s35_32.m4a,,,,,,,,,,,,
,,,,,41661,2021-09-30_14h20.15.927,judgeSpeechMusic_20210919_logNormShiftAmp_detection_fixFreq,2020.1.2,Win32,60,,,,,,,,,,,,,,,,,,,,,,,,,,,,,,1,6.036,,0,0,68,68,27,1,stimuli/stim_20210919_power2amp/equal_lnn_AM2Hz_s25_7.m4a,,,,,,,,,,,,
,,,,,41661,2021-09-30_14h20.15.927,judgeSpeechMusic_20210919_logNormShiftAmp_detection_fixFreq,2020.1.2,Win32,60,,,,,,,,,,,,,,,,,,,,,,,,,,,,,,1,6.0565,,0,0,69,69,65,1,stimuli/stim_20210919_power2amp/equal_lnn_AM2Hz_s55_25.m4a,,,,,,,,,,,,
,,,,,41661,2021-09-30_14h20.15.927,judgeSpeechMusic_20210919_logNormShiftAmp_detection_fixFreq,2020.1.2,Win32,60,,,,,,,,,,,,,,,,,,,,,,,,,,,,,,1,6.6522,,0,0,70,70,18,1,stimuli/stim_20210919_power2amp/equal_lnn_AM2Hz_s25_33.m4a,,,,,,,,,,,,
,,,,,41661,2021-09-30_14h20.15.927,judgeSpeechMusic_20210919_logNormShiftAmp_detection_fixFreq,2020.1.2,Win32,60,,,,,,,,,,,,,,,,,,,,,,,,,,,,,,2,6.0386,,0,0,71,71,52,1,stimuli/stim_20210919_power2amp/equal_lnn_AM2Hz_s45_20.m4a,,,,,,,,,,,,
,,,,,41661,2021-09-30_14h20.15.927,judgeSpeechMusic_20210919_logNormShiftAmp_detection_fixFreq,2020.1.2,Win32,60,,,,,,,,,,,,,,,,,,,,,,,,,,,,,,1,5.9835,,0,0,72,72,1,1,stimuli/stim_20210919_power2amp/equal_lnn_AM2Hz_s15_35.m4a,,,,,,,,,,,,
,,,,,41661,2021-09-30_14h20.15.927,judgeSpeechMusic_20210919_logNormShiftAmp_detection_fixFreq,2020.1.2,Win32,60,,,,,,,,,,,,,,,,,,,,,,,,,,,,,,1,6.541,,0,0,73,73,48,1,stimuli/stim_20210919_power2amp/equal_lnn_AM2Hz_s45_10.m4a,,,,,,,,,,,,
,,,,,41661,2021-09-30_14h20.15.927,judgeSpeechMusic_20210919_logNormShiftAmp_detection_fixFreq,2020.1.2,Win32,60,,,,,,,,,,,,,,,,,,,,,,,,,,,,,,1,6.681,,0,0,74,74,67,1,stimuli/stim_20210919_power2amp/equal_lnn_AM2Hz_s55_32.m4a,,,,,,,,,,,,
,,,,,41661,2021-09-30_14h20.15.927,judgeSpeechMusic_20210919_logNormShiftAmp_detection_fixFreq,2020.1.2,Win32,60,,,,,,,,,,,,,,,,,,,,,,,,,,,,,,,,,,,,,,,,,,,1,1,3,1,1,SPEECH,stimuli/SPEECH.jpg,,
,,,,,41661,2021-09-30_14h20.15.927,judgeSpeechMusic_20210919_logNormShiftAmp_detection_fixFreq,2020.1.2,Win32,60,,,,,,,,,,,,,,,,,,,,,,,,,,,,,,,,,,,,,,,,,,,,,,,,,,space,4.7836
