volAdjustRep.thisRepN,volAdjustRep.thisTrialN,volAdjustRep.thisN,volAdjustRep.thisIndex,volAdjustRep.ran,participant,date,expName,psychopyVersion,OS,frameRate,headphoneResponse.keys,headphoneResponse.corr,headphoneResponse.rt,headphoneTrial.thisRepN,headphoneTrial.thisTrialN,headphoneTrial.thisN,headphoneTrial.thisIndex,headphoneTrial.ran,headphone_sound1,headphone_sound2,headphone_sound3,corrAns,checkInstruKey.keys,checkInstruKey.rt,trainSlider.response,trainSlider.rt,beepTrainResponse.keys,beepTrainResponse.corr,trainingTrials.thisRepN,trainingTrials.thisTrialN,trainingTrials.thisN,trainingTrials.thisIndex,trainingTrials.ran,trainAudioFile,beepTrainResponse.rt,readyReal_resp.keys,readyReal_resp.rt,checkInstru2_key.keys,checkInstru2_key.rt,ratingSlider.response,ratingSlider.rt,beepResp.keys,beepResp.corr,expTrials.thisRepN,expTrials.thisTrialN,expTrials.thisN,expTrials.thisIndex,expTrials.ran,audioFile,beepResp.rt,switchBlock_space.keys,switchBlock_space.rt,block.thisRepN,block.thisTrialN,block.thisN,block.thisIndex,block.ran,blockName,blockImage,end_resp.keys,end_resp.rt
0,0,0,0,1,41707,2021-10-09_16h16.03.879,judgeSpeechMusic_20210919_logNormShiftAmp_detection_fixFreq,2020.1.2,Win32,60,,,,,,,,,,,,,,,,,,,,,,,,,,,,,,,,,,,,,,,,,,,,,,,,,,,
,,,,,41707,2021-10-09_16h16.03.879,judgeSpeechMusic_20210919_logNormShiftAmp_detection_fixFreq,2020.1.2,Win32,60,1,1,5.405,0,0,0,5,1,stimuli/screen_quiet.wav,stimuli/screen_origin.wav,stimuli/screen_antiphase.wav,1,,,,,,,,,,,,,,,,,,,,,,,,,,,,,,,,,,,,,,,
,,,,,41707,2021-10-09_16h16.03.879,judgeSpeechMusic_20210919_logNormShiftAmp_detection_fixFreq,2020.1.2,Win32,60,1,1,0.549,0,1,1,4,1,stimuli/screen_quiet.wav,stimuli/screen_antiphase.wav,stimuli/screen_origin.wav,1,,,,,,,,,,,,,,,,,,,,,,,,,,,,,,,,,,,,,,,
,,,,,41707,2021-10-09_16h16.03.879,judgeSpeechMusic_20210919_logNormShiftAmp_detection_fixFreq,2020.1.2,Win32,60,3,1,0.489,0,2,2,0,1,stimuli/screen_antiphase.wav,stimuli/screen_origin.wav,stimuli/screen_quiet.wav,3,,,,,,,,,,,,,,,,,,,,,,,,,,,,,,,,,,,,,,,
,,,,,41707,2021-10-09_16h16.03.879,judgeSpeechMusic_20210919_logNormShiftAmp_detection_fixFreq,2020.1.2,Win32,60,2,1,0.508,0,3,3,3,1,stimuli/screen_origin.wav,stimuli/screen_quiet.wav,stimuli/screen_antiphase.wav,2,,,,,,,,,,,,,,,,,,,,,,,,,,,,,,,,,,,,,,,
,,,,,41707,2021-10-09_16h16.03.879,judgeSpeechMusic_20210919_logNormShiftAmp_detection_fixFreq,2020.1.2,Win32,60,2,1,0.48,0,4,4,1,1,stimuli/screen_antiphase.wav,stimuli/screen_quiet.wav,stimuli/screen_origin.wav,2,,,,,,,,,,,,,,,,,,,,,,,,,,,,,,,,,,,,,,,
,,,,,41707,2021-10-09_16h16.03.879,judgeSpeechMusic_20210919_logNormShiftAmp_detection_fixFreq,2020.1.2,Win32,60,3,1,0.557,0,5,5,2,1,stimuli/screen_origin.wav,stimuli/screen_antiphase.wav,stimuli/screen_quiet.wav,3,,,,,,,,,,,,,,,,,,,,,,,,,,,,,,,,,,,,,,,
,,,,,41707,2021-10-09_16h16.03.879,judgeSpeechMusic_20210919_logNormShiftAmp_detection_fixFreq,2020.1.2,Win32,60,,,,,,,,,,,,,space,1.68,1,12.491,,0,0,0,0,1,1,stimuli/stim_20210919_power2amp/equal_lnn_AM_training2Hz_s30.m4a,,,,,,,,,,,,,,,,,,,,,,,,,,,
,,,,,41707,2021-10-09_16h16.03.879,judgeSpeechMusic_20210919_logNormShiftAmp_detection_fixFreq,2020.1.2,Win32,60,,,,,,,,,,,,,,,1,7.396,,0,0,1,1,0,1,stimuli/stim_20210919_power2amp/equal_lnn_AM_training2Hz_s20.m4a,,,,,,,,,,,,,,,,,,,,,,,,,,,
,,,,,41707,2021-10-09_16h16.03.879,judgeSpeechMusic_20210919_logNormShiftAmp_detection_fixFreq,2020.1.2,Win32,60,,,,,,,,,,,,,,,2,6.599,4,1,0,2,2,2,1,stimuli/stim_20210919_power2amp/equal_lnn_AM_training2Hz_s40.m4a,2.352,,,,,,,,,,,,,,,,,,,,,,,,,,
,,,,,41707,2021-10-09_16h16.03.879,judgeSpeechMusic_20210919_logNormShiftAmp_detection_fixFreq,2020.1.2,Win32,60,,,,,,,,,,,,,,,2,9.286,,0,0,3,3,3,1,stimuli/stim_20210919_power2amp/equal_lnn_AM_training2Hz_s50.m4a,,,,,,,,,,,,,,,,,,,,,,,,,,,
,,,,,41707,2021-10-09_16h16.03.879,judgeSpeechMusic_20210919_logNormShiftAmp_detection_fixFreq,2020.1.2,Win32,60,,,,,,,,,,,,,,,,,,,,,,,,,,space,8.634,space,0.373,2,6.889,,0,0,0,0,36,1,stimuli/stim_20210919_power2amp/equal_lnn_AM2Hz_s35_9.m4a,,,,,,,,,,,,
,,,,,41707,2021-10-09_16h16.03.879,judgeSpeechMusic_20210919_logNormShiftAmp_detection_fixFreq,2020.1.2,Win32,60,,,,,,,,,,,,,,,,,,,,,,,,,,,,,,1,6.398,,0,0,1,1,55,1,stimuli/stim_20210919_power2amp/equal_lnn_AM2Hz_s45_27.m4a,,,,,,,,,,,,
,,,,,41707,2021-10-09_16h16.03.879,judgeSpeechMusic_20210919_logNormShiftAmp_detection_fixFreq,2020.1.2,Win32,60,,,,,,,,,,,,,,,,,,,,,,,,,,,,,,2,6.308,,0,0,2,2,9,1,stimuli/stim_20210919_power2amp/equal_lnn_AM2Hz_s15_32.m4a,,,,,,,,,,,,
,,,,,41707,2021-10-09_16h16.03.879,judgeSpeechMusic_20210919_logNormShiftAmp_detection_fixFreq,2020.1.2,Win32,60,,,,,,,,,,,,,,,,,,,,,,,,,,,,,,2,5.927,,0,0,3,3,7,1,stimuli/stim_20210919_power2amp/equal_lnn_AM2Hz_s15_21.m4a,,,,,,,,,,,,
,,,,,41707,2021-10-09_16h16.03.879,judgeSpeechMusic_20210919_logNormShiftAmp_detection_fixFreq,2020.1.2,Win32,60,,,,,,,,,,,,,,,,,,,,,,,,,,,,,,2,6.442,,0,0,4,4,30,1,stimuli/stim_20210919_power2amp/equal_lnn_AM2Hz_s35_42.m4a,,,,,,,,,,,,
,,,,,41707,2021-10-09_16h16.03.879,judgeSpeechMusic_20210919_logNormShiftAmp_detection_fixFreq,2020.1.2,Win32,60,,,,,,,,,,,,,,,,,,,,,,,,,,,,,,1,6.316,,0,0,5,5,20,1,stimuli/stim_20210919_power2amp/equal_lnn_AM2Hz_s25_49.m4a,,,,,,,,,,,,
,,,,,41707,2021-10-09_16h16.03.879,judgeSpeechMusic_20210919_logNormShiftAmp_detection_fixFreq,2020.1.2,Win32,60,,,,,,,,,,,,,,,,,,,,,,,,,,,,,,2,7.753,,0,0,6,6,62,1,stimuli/stim_20210919_power2amp/equal_lnn_AM2Hz_s55_34.m4a,,,,,,,,,,,,
,,,,,41707,2021-10-09_16h16.03.879,judgeSpeechMusic_20210919_logNormShiftAmp_detection_fixFreq,2020.1.2,Win32,60,,,,,,,,,,,,,,,,,,,,,,,,,,,,,,1,8.581,,0,0,7,7,0,1,stimuli/stim_20210919_power2amp/equal_lnn_AM2Hz_s15_35.m4a,,,,,,,,,,,,
,,,,,41707,2021-10-09_16h16.03.879,judgeSpeechMusic_20210919_logNormShiftAmp_detection_fixFreq,2020.1.2,Win32,60,,,,,,,,,,,,,,,,,,,,,,,,,,,,,,2,7.773,,0,0,8,8,47,1,stimuli/stim_20210919_power2amp/equal_lnn_AM2Hz_s45_29.m4a,,,,,,,,,,,,
,,,,,41707,2021-10-09_16h16.03.879,judgeSpeechMusic_20210919_logNormShiftAmp_detection_fixFreq,2020.1.2,Win32,60,,,,,,,,,,,,,,,,,,,,,,,,,,,,,,2,6.886,,0,0,9,9,42,1,stimuli/stim_20210919_power2amp/equal_lnn_AM2Hz_s35_23.m4a,,,,,,,,,,,,
,,,,,41707,2021-10-09_16h16.03.879,judgeSpeechMusic_20210919_logNormShiftAmp_detection_fixFreq,2020.1.2,Win32,60,,,,,,,,,,,,,,,,,,,,,,,,,,,,,,2,9.976,,0,0,10,10,71,1,stimuli/stim_20210919_power2amp/equal_lnn_AM2Hz_s55_28.m4a,,,,,,,,,,,,
,,,,,41707,2021-10-09_16h16.03.879,judgeSpeechMusic_20210919_logNormShiftAmp_detection_fixFreq,2020.1.2,Win32,60,,,,,,,,,,,,,,,,,,,,,,,,,,,,,,1,6.346,,0,0,11,11,49,1,stimuli/stim_20210919_power2amp/equal_lnn_AM2Hz_s45_31.m4a,,,,,,,,,,,,
,,,,,41707,2021-10-09_16h16.03.879,judgeSpeechMusic_20210919_logNormShiftAmp_detection_fixFreq,2020.1.2,Win32,60,,,,,,,,,,,,,,,,,,,,,,,,,,,,,,1,15.457,,0,0,12,12,66,1,stimuli/stim_20210919_power2amp/equal_lnn_AM2Hz_s55_36.m4a,,,,,,,,,,,,
,,,,,41707,2021-10-09_16h16.03.879,judgeSpeechMusic_20210919_logNormShiftAmp_detection_fixFreq,2020.1.2,Win32,60,,,,,,,,,,,,,,,,,,,,,,,,,,,,,,1,8.065,,0,0,13,13,53,1,stimuli/stim_20210919_power2amp/equal_lnn_AM2Hz_s45_2.m4a,,,,,,,,,,,,
,,,,,41707,2021-10-09_16h16.03.879,judgeSpeechMusic_20210919_logNormShiftAmp_detection_fixFreq,2020.1.2,Win32,60,,,,,,,,,,,,,,,,,,,,,,,,,,,,,,2,10.128,,0,0,14,14,45,1,stimuli/stim_20210919_power2amp/equal_lnn_AM2Hz_s45_7.m4a,,,,,,,,,,,,
,,,,,41707,2021-10-09_16h16.03.879,judgeSpeechMusic_20210919_logNormShiftAmp_detection_fixFreq,2020.1.2,Win32,60,,,,,,,,,,,,,,,,,,,,,,,,,,,,,,1,9.534,,0,0,15,15,70,1,stimuli/stim_20210919_power2amp/equal_lnn_AM2Hz_s55_31.m4a,,,,,,,,,,,,
,,,,,41707,2021-10-09_16h16.03.879,judgeSpeechMusic_20210919_logNormShiftAmp_detection_fixFreq,2020.1.2,Win32,60,,,,,,,,,,,,,,,,,,,,,,,,,,,,,,1,6.613,,0,0,16,16,73,1,stimuli/stim_20210919_power2amp/equal_lnn_AM2Hz_s55_5.m4a,,,,,,,,,,,,
,,,,,41707,2021-10-09_16h16.03.879,judgeSpeechMusic_20210919_logNormShiftAmp_detection_fixFreq,2020.1.2,Win32,60,,,,,,,,,,,,,,,,,,,,,,,,,,,,,,2,8.523,,0,0,17,17,28,1,stimuli/stim_20210919_power2amp/equal_lnn_AM2Hz_s25_2.m4a,,,,,,,,,,,,
,,,,,41707,2021-10-09_16h16.03.879,judgeSpeechMusic_20210919_logNormShiftAmp_detection_fixFreq,2020.1.2,Win32,60,,,,,,,,,,,,,,,,,,,,,,,,,,,,,,1,6.641,,0,0,18,18,64,1,stimuli/stim_20210919_power2amp/equal_lnn_AM2Hz_s55_40.m4a,,,,,,,,,,,,
,,,,,41707,2021-10-09_16h16.03.879,judgeSpeechMusic_20210919_logNormShiftAmp_detection_fixFreq,2020.1.2,Win32,60,,,,,,,,,,,,,,,,,,,,,,,,,,,,,,2,6.83,,0,0,19,19,10,1,stimuli/stim_20210919_power2amp/equal_lnn_AM2Hz_s15_31.m4a,,,,,,,,,,,,
,,,,,41707,2021-10-09_16h16.03.879,judgeSpeechMusic_20210919_logNormShiftAmp_detection_fixFreq,2020.1.2,Win32,60,,,,,,,,,,,,,,,,,,,,,,,,,,,,,,1,6.969,,0,0,20,20,25,1,stimuli/stim_20210919_power2amp/equal_lnn_AM2Hz_s25_4.m4a,,,,,,,,,,,,
,,,,,41707,2021-10-09_16h16.03.879,judgeSpeechMusic_20210919_logNormShiftAmp_detection_fixFreq,2020.1.2,Win32,60,,,,,,,,,,,,,,,,,,,,,,,,,,,,,,2,7.753,,0,0,21,21,48,1,stimuli/stim_20210919_power2amp/equal_lnn_AM2Hz_s45_34.m4a,,,,,,,,,,,,
,,,,,41707,2021-10-09_16h16.03.879,judgeSpeechMusic_20210919_logNormShiftAmp_detection_fixFreq,2020.1.2,Win32,60,,,,,,,,,,,,,,,,,,,,,,,,,,,,,,1,6.554,4,1,0,22,22,35,1,stimuli/stim_20210919_power2amp/equal_lnn_AM2Hz_s35_4.m4a,5.309,,,,,,,,,,,
,,,,,41707,2021-10-09_16h16.03.879,judgeSpeechMusic_20210919_logNormShiftAmp_detection_fixFreq,2020.1.2,Win32,60,,,,,,,,,,,,,,,,,,,,,,,,,,,,,,1,6.092,,0,0,23,23,69,1,stimuli/stim_20210919_power2amp/equal_lnn_AM2Hz_s55_26.m4a,,,,,,,,,,,,
,,,,,41707,2021-10-09_16h16.03.879,judgeSpeechMusic_20210919_logNormShiftAmp_detection_fixFreq,2020.1.2,Win32,60,,,,,,,,,,,,,,,,,,,,,,,,,,,,,,1,9.908,,0,0,24,24,61,1,stimuli/stim_20210919_power2amp/equal_lnn_AM2Hz_s55_15.m4a,,,,,,,,,,,,
,,,,,41707,2021-10-09_16h16.03.879,judgeSpeechMusic_20210919_logNormShiftAmp_detection_fixFreq,2020.1.2,Win32,60,,,,,,,,,,,,,,,,,,,,,,,,,,,,,,1,8.642,,0,0,25,25,2,1,stimuli/stim_20210919_power2amp/equal_lnn_AM2Hz_s15_12.m4a,,,,,,,,,,,,
,,,,,41707,2021-10-09_16h16.03.879,judgeSpeechMusic_20210919_logNormShiftAmp_detection_fixFreq,2020.1.2,Win32,60,,,,,,,,,,,,,,,,,,,,,,,,,,,,,,1,8.706,,0,0,26,26,52,1,stimuli/stim_20210919_power2amp/equal_lnn_AM2Hz_s45_43.m4a,,,,,,,,,,,,
,,,,,41707,2021-10-09_16h16.03.879,judgeSpeechMusic_20210919_logNormShiftAmp_detection_fixFreq,2020.1.2,Win32,60,,,,,,,,,,,,,,,,,,,,,,,,,,,,,,1,10.495,,0,0,27,27,40,1,stimuli/stim_20210919_power2amp/equal_lnn_AM2Hz_s35_22.m4a,,,,,,,,,,,,
,,,,,41707,2021-10-09_16h16.03.879,judgeSpeechMusic_20210919_logNormShiftAmp_detection_fixFreq,2020.1.2,Win32,60,,,,,,,,,,,,,,,,,,,,,,,,,,,,,,1,7.594,,0,0,28,28,41,1,stimuli/stim_20210919_power2amp/equal_lnn_AM2Hz_s35_14.m4a,,,,,,,,,,,,
,,,,,41707,2021-10-09_16h16.03.879,judgeSpeechMusic_20210919_logNormShiftAmp_detection_fixFreq,2020.1.2,Win32,60,,,,,,,,,,,,,,,,,,,,,,,,,,,,,,1,6.26,,0,0,29,29,34,1,stimuli/stim_20210919_power2amp/equal_lnn_AM2Hz_s35_37.m4a,,,,,,,,,,,,
,,,,,41707,2021-10-09_16h16.03.879,judgeSpeechMusic_20210919_logNormShiftAmp_detection_fixFreq,2020.1.2,Win32,60,,,,,,,,,,,,,,,,,,,,,,,,,,,,,,2,6.247,,0,0,30,30,74,1,stimuli/stim_20210919_power2amp/equal_lnn_AM2Hz_s55_30.m4a,,,,,,,,,,,,
,,,,,41707,2021-10-09_16h16.03.879,judgeSpeechMusic_20210919_logNormShiftAmp_detection_fixFreq,2020.1.2,Win32,60,,,,,,,,,,,,,,,,,,,,,,,,,,,,,,1,7.308,,0,0,31,31,4,1,stimuli/stim_20210919_power2amp/equal_lnn_AM2Hz_s15_7.m4a,,,,,,,,,,,,
,,,,,41707,2021-10-09_16h16.03.879,judgeSpeechMusic_20210919_logNormShiftAmp_detection_fixFreq,2020.1.2,Win32,60,,,,,,,,,,,,,,,,,,,,,,,,,,,,,,1,11.745,,0,0,32,32,16,1,stimuli/stim_20210919_power2amp/equal_lnn_AM2Hz_s25_7.m4a,,,,,,,,,,,,
,,,,,41707,2021-10-09_16h16.03.879,judgeSpeechMusic_20210919_logNormShiftAmp_detection_fixFreq,2020.1.2,Win32,60,,,,,,,,,,,,,,,,,,,,,,,,,,,,,,1,14.127,,0,0,33,33,60,1,stimuli/stim_20210919_power2amp/equal_lnn_AM2Hz_s55_29.m4a,,,,,,,,,,,,
,,,,,41707,2021-10-09_16h16.03.879,judgeSpeechMusic_20210919_logNormShiftAmp_detection_fixFreq,2020.1.2,Win32,60,,,,,,,,,,,,,,,,,,,,,,,,,,,,,,1,7.196,,0,0,34,34,43,1,stimuli/stim_20210919_power2amp/equal_lnn_AM2Hz_s35_18.m4a,,,,,,,,,,,,
,,,,,41707,2021-10-09_16h16.03.879,judgeSpeechMusic_20210919_logNormShiftAmp_detection_fixFreq,2020.1.2,Win32,60,,,,,,,,,,,,,,,,,,,,,,,,,,,,,,2,7.448,,0,0,35,35,24,1,stimuli/stim_20210919_power2amp/equal_lnn_AM2Hz_s25_33.m4a,,,,,,,,,,,,
,,,,,41707,2021-10-09_16h16.03.879,judgeSpeechMusic_20210919_logNormShiftAmp_detection_fixFreq,2020.1.2,Win32,60,,,,,,,,,,,,,,,,,,,,,,,,,,,,,,2,7.593,,0,0,36,36,12,1,stimuli/stim_20210919_power2amp/equal_lnn_AM2Hz_s15_34.m4a,,,,,,,,,,,,
,,,,,41707,2021-10-09_16h16.03.879,judgeSpeechMusic_20210919_logNormShiftAmp_detection_fixFreq,2020.1.2,Win32,60,,,,,,,,,,,,,,,,,,,,,,,,,,,,,,1,15.599,,0,0,37,37,37,1,stimuli/stim_20210919_power2amp/equal_lnn_AM2Hz_s35_39.m4a,,,,,,,,,,,,
,,,,,41707,2021-10-09_16h16.03.879,judgeSpeechMusic_20210919_logNormShiftAmp_detection_fixFreq,2020.1.2,Win32,60,,,,,,,,,,,,,,,,,,,,,,,,,,,,,,2,7.925,,0,0,38,38,44,1,stimuli/stim_20210919_power2amp/equal_lnn_AM2Hz_s35_33.m4a,,,,,,,,,,,,
,,,,,41707,2021-10-09_16h16.03.879,judgeSpeechMusic_20210919_logNormShiftAmp_detection_fixFreq,2020.1.2,Win32,60,,,,,,,,,,,,,,,,,,,,,,,,,,,,,,1,8.947,,0,0,39,39,57,1,stimuli/stim_20210919_power2amp/equal_lnn_AM2Hz_s45_37.m4a,,,,,,,,,,,,
,,,,,41707,2021-10-09_16h16.03.879,judgeSpeechMusic_20210919_logNormShiftAmp_detection_fixFreq,2020.1.2,Win32,60,,,,,,,,,,,,,,,,,,,,,,,,,,,,,,1,8.6,,0,0,40,40,68,1,stimuli/stim_20210919_power2amp/equal_lnn_AM2Hz_s55_2.m4a,,,,,,,,,,,,
,,,,,41707,2021-10-09_16h16.03.879,judgeSpeechMusic_20210919_logNormShiftAmp_detection_fixFreq,2020.1.2,Win32,60,,,,,,,,,,,,,,,,,,,,,,,,,,,,,,1,14.519,,0,0,41,41,32,1,stimuli/stim_20210919_power2amp/equal_lnn_AM2Hz_s35_28.m4a,,,,,,,,,,,,
,,,,,41707,2021-10-09_16h16.03.879,judgeSpeechMusic_20210919_logNormShiftAmp_detection_fixFreq,2020.1.2,Win32,60,,,,,,,,,,,,,,,,,,,,,,,,,,,,,,2,6.523,1,1,0,42,42,19,1,stimuli/stim_20210919_power2amp/equal_lnn_AM2Hz_s25_23.m4a,1.319,,,,,,,,,,,
,,,,,41707,2021-10-09_16h16.03.879,judgeSpeechMusic_20210919_logNormShiftAmp_detection_fixFreq,2020.1.2,Win32,60,,,,,,,,,,,,,,,,,,,,,,,,,,,,,,1,9.261,,0,0,43,43,31,1,stimuli/stim_20210919_power2amp/equal_lnn_AM2Hz_s35_20.m4a,,,,,,,,,,,,
,,,,,41707,2021-10-09_16h16.03.879,judgeSpeechMusic_20210919_logNormShiftAmp_detection_fixFreq,2020.1.2,Win32,60,,,,,,,,,,,,,,,,,,,,,,,,,,,,,,1,8.969,,0,0,44,44,5,1,stimuli/stim_20210919_power2amp/equal_lnn_AM2Hz_s15_49.m4a,,,,,,,,,,,,
,,,,,41707,2021-10-09_16h16.03.879,judgeSpeechMusic_20210919_logNormShiftAmp_detection_fixFreq,2020.1.2,Win32,60,,,,,,,,,,,,,,,,,,,,,,,,,,,,,,1,7.376,,0,0,45,45,13,1,stimuli/stim_20210919_power2amp/equal_lnn_AM2Hz_s15_25.m4a,,,,,,,,,,,,
,,,,,41707,2021-10-09_16h16.03.879,judgeSpeechMusic_20210919_logNormShiftAmp_detection_fixFreq,2020.1.2,Win32,60,,,,,,,,,,,,,,,,,,,,,,,,,,,,,,1,12.11,,0,0,46,46,6,1,stimuli/stim_20210919_power2amp/equal_lnn_AM2Hz_s15_45.m4a,,,,,,,,,,,,
,,,,,41707,2021-10-09_16h16.03.879,judgeSpeechMusic_20210919_logNormShiftAmp_detection_fixFreq,2020.1.2,Win32,60,,,,,,,,,,,,,,,,,,,,,,,,,,,,,,1,22.307,,0,0,47,47,26,1,stimuli/stim_20210919_power2amp/equal_lnn_AM2Hz_s25_46.m4a,,,,,,,,,,,,
,,,,,41707,2021-10-09_16h16.03.879,judgeSpeechMusic_20210919_logNormShiftAmp_detection_fixFreq,2020.1.2,Win32,60,,,,,,,,,,,,,,,,,,,,,,,,,,,,,,1,10.119,,0,0,48,48,65,1,stimuli/stim_20210919_power2amp/equal_lnn_AM2Hz_s55_43.m4a,,,,,,,,,,,,
,,,,,41707,2021-10-09_16h16.03.879,judgeSpeechMusic_20210919_logNormShiftAmp_detection_fixFreq,2020.1.2,Win32,60,,,,,,,,,,,,,,,,,,,,,,,,,,,,,,1,6.963,,0,0,49,49,29,1,stimuli/stim_20210919_power2amp/equal_lnn_AM2Hz_s25_36.m4a,,,,,,,,,,,,
,,,,,41707,2021-10-09_16h16.03.879,judgeSpeechMusic_20210919_logNormShiftAmp_detection_fixFreq,2020.1.2,Win32,60,,,,,,,,,,,,,,,,,,,,,,,,,,,,,,1,6.976,,0,0,50,50,14,1,stimuli/stim_20210919_power2amp/equal_lnn_AM2Hz_s15_42.m4a,,,,,,,,,,,,
,,,,,41707,2021-10-09_16h16.03.879,judgeSpeechMusic_20210919_logNormShiftAmp_detection_fixFreq,2020.1.2,Win32,60,,,,,,,,,,,,,,,,,,,,,,,,,,,,,,1,6.969,,0,0,51,51,67,1,stimuli/stim_20210919_power2amp/equal_lnn_AM2Hz_s55_32.m4a,,,,,,,,,,,,
,,,,,41707,2021-10-09_16h16.03.879,judgeSpeechMusic_20210919_logNormShiftAmp_detection_fixFreq,2020.1.2,Win32,60,,,,,,,,,,,,,,,,,,,,,,,,,,,,,,1,7.453,,0,0,52,52,15,1,stimuli/stim_20210919_power2amp/equal_lnn_AM2Hz_s25_50.m4a,,,,,,,,,,,,
,,,,,41707,2021-10-09_16h16.03.879,judgeSpeechMusic_20210919_logNormShiftAmp_detection_fixFreq,2020.1.2,Win32,60,,,,,,,,,,,,,,,,,,,,,,,,,,,,,,1,9.571,,0,0,53,53,8,1,stimuli/stim_20210919_power2amp/equal_lnn_AM2Hz_s15_30.m4a,,,,,,,,,,,,
,,,,,41707,2021-10-09_16h16.03.879,judgeSpeechMusic_20210919_logNormShiftAmp_detection_fixFreq,2020.1.2,Win32,60,,,,,,,,,,,,,,,,,,,,,,,,,,,,,,1,7.27,,0,0,54,54,39,1,stimuli/stim_20210919_power2amp/equal_lnn_AM2Hz_s35_10.m4a,,,,,,,,,,,,
,,,,,41707,2021-10-09_16h16.03.879,judgeSpeechMusic_20210919_logNormShiftAmp_detection_fixFreq,2020.1.2,Win32,60,,,,,,,,,,,,,,,,,,,,,,,,,,,,,,1,8.433,,0,0,55,55,58,1,stimuli/stim_20210919_power2amp/equal_lnn_AM2Hz_s45_1.m4a,,,,,,,,,,,,
,,,,,41707,2021-10-09_16h16.03.879,judgeSpeechMusic_20210919_logNormShiftAmp_detection_fixFreq,2020.1.2,Win32,60,,,,,,,,,,,,,,,,,,,,,,,,,,,,,,1,7.291,,0,0,56,56,21,1,stimuli/stim_20210919_power2amp/equal_lnn_AM2Hz_s25_34.m4a,,,,,,,,,,,,
,,,,,41707,2021-10-09_16h16.03.879,judgeSpeechMusic_20210919_logNormShiftAmp_detection_fixFreq,2020.1.2,Win32,60,,,,,,,,,,,,,,,,,,,,,,,,,,,,,,1,7.842,,0,0,57,57,54,1,stimuli/stim_20210919_power2amp/equal_lnn_AM2Hz_s45_46.m4a,,,,,,,,,,,,
,,,,,41707,2021-10-09_16h16.03.879,judgeSpeechMusic_20210919_logNormShiftAmp_detection_fixFreq,2020.1.2,Win32,60,,,,,,,,,,,,,,,,,,,,,,,,,,,,,,1,6.655,,0,0,58,58,72,1,stimuli/stim_20210919_power2amp/equal_lnn_AM2Hz_s55_23.m4a,,,,,,,,,,,,
,,,,,41707,2021-10-09_16h16.03.879,judgeSpeechMusic_20210919_logNormShiftAmp_detection_fixFreq,2020.1.2,Win32,60,,,,,,,,,,,,,,,,,,,,,,,,,,,,,,1,9.148,,0,0,59,59,1,1,stimuli/stim_20210919_power2amp/equal_lnn_AM2Hz_s15_50.m4a,,,,,,,,,,,,
,,,,,41707,2021-10-09_16h16.03.879,judgeSpeechMusic_20210919_logNormShiftAmp_detection_fixFreq,2020.1.2,Win32,60,,,,,,,,,,,,,,,,,,,,,,,,,,,,,,2,6.663,4,1,0,60,60,22,1,stimuli/stim_20210919_power2amp/equal_lnn_AM2Hz_s25_38.m4a,1.944,,,,,,,,,,,
,,,,,41707,2021-10-09_16h16.03.879,judgeSpeechMusic_20210919_logNormShiftAmp_detection_fixFreq,2020.1.2,Win32,60,,,,,,,,,,,,,,,,,,,,,,,,,,,,,,1,9.846,,0,0,61,61,46,1,stimuli/stim_20210919_power2amp/equal_lnn_AM2Hz_s45_40.m4a,,,,,,,,,,,,
,,,,,41707,2021-10-09_16h16.03.879,judgeSpeechMusic_20210919_logNormShiftAmp_detection_fixFreq,2020.1.2,Win32,60,,,,,,,,,,,,,,,,,,,,,,,,,,,,,,1,10.231,,0,0,62,62,50,1,stimuli/stim_20210919_power2amp/equal_lnn_AM2Hz_s45_11.m4a,,,,,,,,,,,,
,,,,,41707,2021-10-09_16h16.03.879,judgeSpeechMusic_20210919_logNormShiftAmp_detection_fixFreq,2020.1.2,Win32,60,,,,,,,,,,,,,,,,,,,,,,,,,,,,,,1,8.523,,0,0,63,63,56,1,stimuli/stim_20210919_power2amp/equal_lnn_AM2Hz_s45_32.m4a,,,,,,,,,,,,
,,,,,41707,2021-10-09_16h16.03.879,judgeSpeechMusic_20210919_logNormShiftAmp_detection_fixFreq,2020.1.2,Win32,60,,,,,,,,,,,,,,,,,,,,,,,,,,,,,,1,8.023,,0,0,64,64,59,1,stimuli/stim_20210919_power2amp/equal_lnn_AM2Hz_s45_18.m4a,,,,,,,,,,,,
,,,,,41707,2021-10-09_16h16.03.879,judgeSpeechMusic_20210919_logNormShiftAmp_detection_fixFreq,2020.1.2,Win32,60,,,,,,,,,,,,,,,,,,,,,,,,,,,,,,1,13.202,,0,0,65,65,51,1,stimuli/stim_20210919_power2amp/equal_lnn_AM2Hz_s45_16.m4a,,,,,,,,,,,,
,,,,,41707,2021-10-09_16h16.03.879,judgeSpeechMusic_20210919_logNormShiftAmp_detection_fixFreq,2020.1.2,Win32,60,,,,,,,,,,,,,,,,,,,,,,,,,,,,,,1,8.176,,0,0,66,66,18,1,stimuli/stim_20210919_power2amp/equal_lnn_AM2Hz_s25_43.m4a,,,,,,,,,,,,
,,,,,41707,2021-10-09_16h16.03.879,judgeSpeechMusic_20210919_logNormShiftAmp_detection_fixFreq,2020.1.2,Win32,60,,,,,,,,,,,,,,,,,,,,,,,,,,,,,,1,10.669,,0,0,67,67,33,1,stimuli/stim_20210919_power2amp/equal_lnn_AM2Hz_s35_5.m4a,,,,,,,,,,,,
,,,,,41707,2021-10-09_16h16.03.879,judgeSpeechMusic_20210919_logNormShiftAmp_detection_fixFreq,2020.1.2,Win32,60,,,,,,,,,,,,,,,,,,,,,,,,,,,,,,1,7.524,,0,0,68,68,17,1,stimuli/stim_20210919_power2amp/equal_lnn_AM2Hz_s25_40.m4a,,,,,,,,,,,,
,,,,,41707,2021-10-09_16h16.03.879,judgeSpeechMusic_20210919_logNormShiftAmp_detection_fixFreq,2020.1.2,Win32,60,,,,,,,,,,,,,,,,,,,,,,,,,,,,,,1,11.52,,0,0,69,69,3,1,stimuli/stim_20210919_power2amp/equal_lnn_AM2Hz_s15_9.m4a,,,,,,,,,,,,
,,,,,41707,2021-10-09_16h16.03.879,judgeSpeechMusic_20210919_logNormShiftAmp_detection_fixFreq,2020.1.2,Win32,60,,,,,,,,,,,,,,,,,,,,,,,,,,,,,,2,7.942,,0,0,70,70,11,1,stimuli/stim_20210919_power2amp/equal_lnn_AM2Hz_s15_18.m4a,,,,,,,,,,,,
,,,,,41707,2021-10-09_16h16.03.879,judgeSpeechMusic_20210919_logNormShiftAmp_detection_fixFreq,2020.1.2,Win32,60,,,,,,,,,,,,,,,,,,,,,,,,,,,,,,1,11.384,,0,0,71,71,27,1,stimuli/stim_20210919_power2amp/equal_lnn_AM2Hz_s25_47.m4a,,,,,,,,,,,,
,,,,,41707,2021-10-09_16h16.03.879,judgeSpeechMusic_20210919_logNormShiftAmp_detection_fixFreq,2020.1.2,Win32,60,,,,,,,,,,,,,,,,,,,,,,,,,,,,,,1,8.524,,0,0,72,72,63,1,stimuli/stim_20210919_power2amp/equal_lnn_AM2Hz_s55_25.m4a,,,,,,,,,,,,
,,,,,41707,2021-10-09_16h16.03.879,judgeSpeechMusic_20210919_logNormShiftAmp_detection_fixFreq,2020.1.2,Win32,60,,,,,,,,,,,,,,,,,,,,,,,,,,,,,,1,10.011,,0,0,73,73,23,1,stimuli/stim_20210919_power2amp/equal_lnn_AM2Hz_s25_17.m4a,,,,,,,,,,,,
,,,,,41707,2021-10-09_16h16.03.879,judgeSpeechMusic_20210919_logNormShiftAmp_detection_fixFreq,2020.1.2,Win32,60,,,,,,,,,,,,,,,,,,,,,,,,,,,,,,1,14.47,,0,0,74,74,38,1,stimuli/stim_20210919_power2amp/equal_lnn_AM2Hz_s35_24.m4a,,,,,,,,,,,,
,,,,,41707,2021-10-09_16h16.03.879,judgeSpeechMusic_20210919_logNormShiftAmp_detection_fixFreq,2020.1.2,Win32,60,,,,,,,,,,,,,,,,,,,,,,,,,,,,,,,,,,,,,,,,,space,2.49,0,0,0,0,1,MUSIC,stimuli/MUSIC.jpg,,
,,,,,41707,2021-10-09_16h16.03.879,judgeSpeechMusic_20210919_logNormShiftAmp_detection_fixFreq,2020.1.2,Win32,60,,,,,,,,,,,,,space,0.589,2,7.183,,0,0,0,0,1,1,stimuli/stim_20210919_power2amp/equal_lnn_AM_training2Hz_s30.m4a,,,,,,,,,,,,,,,,,,,,,,,,,,,
,,,,,41707,2021-10-09_16h16.03.879,judgeSpeechMusic_20210919_logNormShiftAmp_detection_fixFreq,2020.1.2,Win32,60,,,,,,,,,,,,,,,2,6.065,,0,0,1,1,3,1,stimuli/stim_20210919_power2amp/equal_lnn_AM_training2Hz_s50.m4a,,,,,,,,,,,,,,,,,,,,,,,,,,,
,,,,,41707,2021-10-09_16h16.03.879,judgeSpeechMusic_20210919_logNormShiftAmp_detection_fixFreq,2020.1.2,Win32,60,,,,,,,,,,,,,,,2,6.57,4,1,0,2,2,0,1,stimuli/stim_20210919_power2amp/equal_lnn_AM_training2Hz_s20.m4a,1.047,,,,,,,,,,,,,,,,,,,,,,,,,,
,,,,,41707,2021-10-09_16h16.03.879,judgeSpeechMusic_20210919_logNormShiftAmp_detection_fixFreq,2020.1.2,Win32,60,,,,,,,,,,,,,,,1,7.997,,0,0,3,3,2,1,stimuli/stim_20210919_power2amp/equal_lnn_AM_training2Hz_s40.m4a,,,,,,,,,,,,,,,,,,,,,,,,,,,
,,,,,41707,2021-10-09_16h16.03.879,judgeSpeechMusic_20210919_logNormShiftAmp_detection_fixFreq,2020.1.2,Win32,60,,,,,,,,,,,,,,,,,,,,,,,,,,space,1.557,space,0.373,2,7.218,,0,0,0,0,18,1,stimuli/stim_20210919_power2amp/equal_lnn_AM2Hz_s25_43.m4a,,,,,,,,,,,,
,,,,,41707,2021-10-09_16h16.03.879,judgeSpeechMusic_20210919_logNormShiftAmp_detection_fixFreq,2020.1.2,Win32,60,,,,,,,,,,,,,,,,,,,,,,,,,,,,,,2,6.89,,0,0,1,1,57,1,stimuli/stim_20210919_power2amp/equal_lnn_AM2Hz_s45_37.m4a,,,,,,,,,,,,
,,,,,41707,2021-10-09_16h16.03.879,judgeSpeechMusic_20210919_logNormShiftAmp_detection_fixFreq,2020.1.2,Win32,60,,,,,,,,,,,,,,,,,,,,,,,,,,,,,,2,7.911,,0,0,2,2,43,1,stimuli/stim_20210919_power2amp/equal_lnn_AM2Hz_s35_18.m4a,,,,,,,,,,,,
,,,,,41707,2021-10-09_16h16.03.879,judgeSpeechMusic_20210919_logNormShiftAmp_detection_fixFreq,2020.1.2,Win32,60,,,,,,,,,,,,,,,,,,,,,,,,,,,,,,1,6.641,,0,0,3,3,35,1,stimuli/stim_20210919_power2amp/equal_lnn_AM2Hz_s35_4.m4a,,,,,,,,,,,,
,,,,,41707,2021-10-09_16h16.03.879,judgeSpeechMusic_20210919_logNormShiftAmp_detection_fixFreq,2020.1.2,Win32,60,,,,,,,,,,,,,,,,,,,,,,,,,,,,,,2,8.377,,0,0,4,4,47,1,stimuli/stim_20210919_power2amp/equal_lnn_AM2Hz_s45_29.m4a,,,,,,,,,,,,
,,,,,41707,2021-10-09_16h16.03.879,judgeSpeechMusic_20210919_logNormShiftAmp_detection_fixFreq,2020.1.2,Win32,60,,,,,,,,,,,,,,,,,,,,,,,,,,,,,,1,7.332,,0,0,5,5,10,1,stimuli/stim_20210919_power2amp/equal_lnn_AM2Hz_s15_31.m4a,,,,,,,,,,,,
,,,,,41707,2021-10-09_16h16.03.879,judgeSpeechMusic_20210919_logNormShiftAmp_detection_fixFreq,2020.1.2,Win32,60,,,,,,,,,,,,,,,,,,,,,,,,,,,,,,1,16.294,,0,0,6,6,67,1,stimuli/stim_20210919_power2amp/equal_lnn_AM2Hz_s55_32.m4a,,,,,,,,,,,,
,,,,,41707,2021-10-09_16h16.03.879,judgeSpeechMusic_20210919_logNormShiftAmp_detection_fixFreq,2020.1.2,Win32,60,,,,,,,,,,,,,,,,,,,,,,,,,,,,,,2,7.239,,0,0,7,7,37,1,stimuli/stim_20210919_power2amp/equal_lnn_AM2Hz_s35_39.m4a,,,,,,,,,,,,
,,,,,41707,2021-10-09_16h16.03.879,judgeSpeechMusic_20210919_logNormShiftAmp_detection_fixFreq,2020.1.2,Win32,60,,,,,,,,,,,,,,,,,,,,,,,,,,,,,,1,8.628,,0,0,8,8,52,1,stimuli/stim_20210919_power2amp/equal_lnn_AM2Hz_s45_43.m4a,,,,,,,,,,,,
,,,,,41707,2021-10-09_16h16.03.879,judgeSpeechMusic_20210919_logNormShiftAmp_detection_fixFreq,2020.1.2,Win32,60,,,,,,,,,,,,,,,,,,,,,,,,,,,,,,1,11.679,,0,0,9,9,23,1,stimuli/stim_20210919_power2amp/equal_lnn_AM2Hz_s25_17.m4a,,,,,,,,,,,,
,,,,,41707,2021-10-09_16h16.03.879,judgeSpeechMusic_20210919_logNormShiftAmp_detection_fixFreq,2020.1.2,Win32,60,,,,,,,,,,,,,,,,,,,,,,,,,,,,,,2,6.921,,0,0,10,10,72,1,stimuli/stim_20210919_power2amp/equal_lnn_AM2Hz_s55_23.m4a,,,,,,,,,,,,
,,,,,41707,2021-10-09_16h16.03.879,judgeSpeechMusic_20210919_logNormShiftAmp_detection_fixFreq,2020.1.2,Win32,60,,,,,,,,,,,,,,,,,,,,,,,,,,,,,,1,16.461,,0,0,11,11,3,1,stimuli/stim_20210919_power2amp/equal_lnn_AM2Hz_s15_9.m4a,,,,,,,,,,,,
,,,,,41707,2021-10-09_16h16.03.879,judgeSpeechMusic_20210919_logNormShiftAmp_detection_fixFreq,2020.1.2,Win32,60,,,,,,,,,,,,,,,,,,,,,,,,,,,,,,1,9.635,,0,0,12,12,49,1,stimuli/stim_20210919_power2amp/equal_lnn_AM2Hz_s45_31.m4a,,,,,,,,,,,,
,,,,,41707,2021-10-09_16h16.03.879,judgeSpeechMusic_20210919_logNormShiftAmp_detection_fixFreq,2020.1.2,Win32,60,,,,,,,,,,,,,,,,,,,,,,,,,,,,,,2,11.58,,0,0,13,13,19,1,stimuli/stim_20210919_power2amp/equal_lnn_AM2Hz_s25_23.m4a,,,,,,,,,,,,
,,,,,41707,2021-10-09_16h16.03.879,judgeSpeechMusic_20210919_logNormShiftAmp_detection_fixFreq,2020.1.2,Win32,60,,,,,,,,,,,,,,,,,,,,,,,,,,,,,,1,19.339,,0,0,14,14,45,1,stimuli/stim_20210919_power2amp/equal_lnn_AM2Hz_s45_7.m4a,,,,,,,,,,,,
,,,,,41707,2021-10-09_16h16.03.879,judgeSpeechMusic_20210919_logNormShiftAmp_detection_fixFreq,2020.1.2,Win32,60,,,,,,,,,,,,,,,,,,,,,,,,,,,,,,2,7.469,,0,0,15,15,30,1,stimuli/stim_20210919_power2amp/equal_lnn_AM2Hz_s35_42.m4a,,,,,,,,,,,,
,,,,,41707,2021-10-09_16h16.03.879,judgeSpeechMusic_20210919_logNormShiftAmp_detection_fixFreq,2020.1.2,Win32,60,,,,,,,,,,,,,,,,,,,,,,,,,,,,,,1,13.872,,0,0,16,16,62,1,stimuli/stim_20210919_power2amp/equal_lnn_AM2Hz_s55_34.m4a,,,,,,,,,,,,
,,,,,41707,2021-10-09_16h16.03.879,judgeSpeechMusic_20210919_logNormShiftAmp_detection_fixFreq,2020.1.2,Win32,60,,,,,,,,,,,,,,,,,,,,,,,,,,,,,,1,12.185,,0,0,17,17,16,1,stimuli/stim_20210919_power2amp/equal_lnn_AM2Hz_s25_7.m4a,,,,,,,,,,,,
,,,,,41707,2021-10-09_16h16.03.879,judgeSpeechMusic_20210919_logNormShiftAmp_detection_fixFreq,2020.1.2,Win32,60,,,,,,,,,,,,,,,,,,,,,,,,,,,,,,2,11.087,,0,0,18,18,6,1,stimuli/stim_20210919_power2amp/equal_lnn_AM2Hz_s15_45.m4a,,,,,,,,,,,,
,,,,,41707,2021-10-09_16h16.03.879,judgeSpeechMusic_20210919_logNormShiftAmp_detection_fixFreq,2020.1.2,Win32,60,,,,,,,,,,,,,,,,,,,,,,,,,,,,,,1,15.143,,0,0,19,19,15,1,stimuli/stim_20210919_power2amp/equal_lnn_AM2Hz_s25_50.m4a,,,,,,,,,,,,
,,,,,41707,2021-10-09_16h16.03.879,judgeSpeechMusic_20210919_logNormShiftAmp_detection_fixFreq,2020.1.2,Win32,60,,,,,,,,,,,,,,,,,,,,,,,,,,,,,,1,8.115,,0,0,20,20,29,1,stimuli/stim_20210919_power2amp/equal_lnn_AM2Hz_s25_36.m4a,,,,,,,,,,,,
,,,,,41707,2021-10-09_16h16.03.879,judgeSpeechMusic_20210919_logNormShiftAmp_detection_fixFreq,2020.1.2,Win32,60,,,,,,,,,,,,,,,,,,,,,,,,,,,,,,1,8.294,,0,0,21,21,73,1,stimuli/stim_20210919_power2amp/equal_lnn_AM2Hz_s55_5.m4a,,,,,,,,,,,,
,,,,,41707,2021-10-09_16h16.03.879,judgeSpeechMusic_20210919_logNormShiftAmp_detection_fixFreq,2020.1.2,Win32,60,,,,,,,,,,,,,,,,,,,,,,,,,,,,,,1,8.447,4,1,0,22,22,31,1,stimuli/stim_20210919_power2amp/equal_lnn_AM2Hz_s35_20.m4a,2.393,,,,,,,,,,,
,,,,,41707,2021-10-09_16h16.03.879,judgeSpeechMusic_20210919_logNormShiftAmp_detection_fixFreq,2020.1.2,Win32,60,,,,,,,,,,,,,,,,,,,,,,,,,,,,,,2,13.413,,0,0,23,23,50,1,stimuli/stim_20210919_power2amp/equal_lnn_AM2Hz_s45_11.m4a,,,,,,,,,,,,
,,,,,41707,2021-10-09_16h16.03.879,judgeSpeechMusic_20210919_logNormShiftAmp_detection_fixFreq,2020.1.2,Win32,60,,,,,,,,,,,,,,,,,,,,,,,,,,,,,,1,7.971,,0,0,24,24,22,1,stimuli/stim_20210919_power2amp/equal_lnn_AM2Hz_s25_38.m4a,,,,,,,,,,,,
,,,,,41707,2021-10-09_16h16.03.879,judgeSpeechMusic_20210919_logNormShiftAmp_detection_fixFreq,2020.1.2,Win32,60,,,,,,,,,,,,,,,,,,,,,,,,,,,,,,1,15.676,,0,0,25,25,5,1,stimuli/stim_20210919_power2amp/equal_lnn_AM2Hz_s15_49.m4a,,,,,,,,,,,,
,,,,,41707,2021-10-09_16h16.03.879,judgeSpeechMusic_20210919_logNormShiftAmp_detection_fixFreq,2020.1.2,Win32,60,,,,,,,,,,,,,,,,,,,,,,,,,,,,,,2,6.565,,0,0,26,26,34,1,stimuli/stim_20210919_power2amp/equal_lnn_AM2Hz_s35_37.m4a,,,,,,,,,,,,
,,,,,41707,2021-10-09_16h16.03.879,judgeSpeechMusic_20210919_logNormShiftAmp_detection_fixFreq,2020.1.2,Win32,60,,,,,,,,,,,,,,,,,,,,,,,,,,,,,,1,7.382,,0,0,27,27,14,1,stimuli/stim_20210919_power2amp/equal_lnn_AM2Hz_s15_42.m4a,,,,,,,,,,,,
,,,,,41707,2021-10-09_16h16.03.879,judgeSpeechMusic_20210919_logNormShiftAmp_detection_fixFreq,2020.1.2,Win32,60,,,,,,,,,,,,,,,,,,,,,,,,,,,,,,1,9.302,,0,0,28,28,53,1,stimuli/stim_20210919_power2amp/equal_lnn_AM2Hz_s45_2.m4a,,,,,,,,,,,,
,,,,,41707,2021-10-09_16h16.03.879,judgeSpeechMusic_20210919_logNormShiftAmp_detection_fixFreq,2020.1.2,Win32,60,,,,,,,,,,,,,,,,,,,,,,,,,,,,,,1,10.28,,0,0,29,29,8,1,stimuli/stim_20210919_power2amp/equal_lnn_AM2Hz_s15_30.m4a,,,,,,,,,,,,
,,,,,41707,2021-10-09_16h16.03.879,judgeSpeechMusic_20210919_logNormShiftAmp_detection_fixFreq,2020.1.2,Win32,60,,,,,,,,,,,,,,,,,,,,,,,,,,,,,,2,7.158,,0,0,30,30,32,1,stimuli/stim_20210919_power2amp/equal_lnn_AM2Hz_s35_28.m4a,,,,,,,,,,,,
,,,,,41707,2021-10-09_16h16.03.879,judgeSpeechMusic_20210919_logNormShiftAmp_detection_fixFreq,2020.1.2,Win32,60,,,,,,,,,,,,,,,,,,,,,,,,,,,,,,1,13.655,,0,0,31,31,7,1,stimuli/stim_20210919_power2amp/equal_lnn_AM2Hz_s15_21.m4a,,,,,,,,,,,,
,,,,,41707,2021-10-09_16h16.03.879,judgeSpeechMusic_20210919_logNormShiftAmp_detection_fixFreq,2020.1.2,Win32,60,,,,,,,,,,,,,,,,,,,,,,,,,,,,,,2,6.929,,0,0,32,32,40,1,stimuli/stim_20210919_power2amp/equal_lnn_AM2Hz_s35_22.m4a,,,,,,,,,,,,
,,,,,41707,2021-10-09_16h16.03.879,judgeSpeechMusic_20210919_logNormShiftAmp_detection_fixFreq,2020.1.2,Win32,60,,,,,,,,,,,,,,,,,,,,,,,,,,,,,,1,11.461,,0,0,33,33,4,1,stimuli/stim_20210919_power2amp/equal_lnn_AM2Hz_s15_7.m4a,,,,,,,,,,,,
,,,,,41707,2021-10-09_16h16.03.879,judgeSpeechMusic_20210919_logNormShiftAmp_detection_fixFreq,2020.1.2,Win32,60,,,,,,,,,,,,,,,,,,,,,,,,,,,,,,2,10.372,,0,0,34,34,38,1,stimuli/stim_20210919_power2amp/equal_lnn_AM2Hz_s35_24.m4a,,,,,,,,,,,,
,,,,,41707,2021-10-09_16h16.03.879,judgeSpeechMusic_20210919_logNormShiftAmp_detection_fixFreq,2020.1.2,Win32,60,,,,,,,,,,,,,,,,,,,,,,,,,,,,,,1,16.913,,0,0,35,35,54,1,stimuli/stim_20210919_power2amp/equal_lnn_AM2Hz_s45_46.m4a,,,,,,,,,,,,
,,,,,41707,2021-10-09_16h16.03.879,judgeSpeechMusic_20210919_logNormShiftAmp_detection_fixFreq,2020.1.2,Win32,60,,,,,,,,,,,,,,,,,,,,,,,,,,,,,,2,7.62,,0,0,36,36,0,1,stimuli/stim_20210919_power2amp/equal_lnn_AM2Hz_s15_35.m4a,,,,,,,,,,,,
,,,,,41707,2021-10-09_16h16.03.879,judgeSpeechMusic_20210919_logNormShiftAmp_detection_fixFreq,2020.1.2,Win32,60,,,,,,,,,,,,,,,,,,,,,,,,,,,,,,1,11.888,,0,0,37,37,46,1,stimuli/stim_20210919_power2amp/equal_lnn_AM2Hz_s45_40.m4a,,,,,,,,,,,,
,,,,,41707,2021-10-09_16h16.03.879,judgeSpeechMusic_20210919_logNormShiftAmp_detection_fixFreq,2020.1.2,Win32,60,,,,,,,,,,,,,,,,,,,,,,,,,,,,,,2,9.328,,0,0,38,38,13,1,stimuli/stim_20210919_power2amp/equal_lnn_AM2Hz_s15_25.m4a,,,,,,,,,,,,
,,,,,41707,2021-10-09_16h16.03.879,judgeSpeechMusic_20210919_logNormShiftAmp_detection_fixFreq,2020.1.2,Win32,60,,,,,,,,,,,,,,,,,,,,,,,,,,,,,,1,8.387,,0,0,39,39,26,1,stimuli/stim_20210919_power2amp/equal_lnn_AM2Hz_s25_46.m4a,,,,,,,,,,,,
,,,,,41707,2021-10-09_16h16.03.879,judgeSpeechMusic_20210919_logNormShiftAmp_detection_fixFreq,2020.1.2,Win32,60,,,,,,,,,,,,,,,,,,,,,,,,,,,,,,1,8.896,,0,0,40,40,70,1,stimuli/stim_20210919_power2amp/equal_lnn_AM2Hz_s55_31.m4a,,,,,,,,,,,,
,,,,,41707,2021-10-09_16h16.03.879,judgeSpeechMusic_20210919_logNormShiftAmp_detection_fixFreq,2020.1.2,Win32,60,,,,,,,,,,,,,,,,,,,,,,,,,,,,,,2,7.162,,0,0,41,41,51,1,stimuli/stim_20210919_power2amp/equal_lnn_AM2Hz_s45_16.m4a,,,,,,,,,,,,
,,,,,41707,2021-10-09_16h16.03.879,judgeSpeechMusic_20210919_logNormShiftAmp_detection_fixFreq,2020.1.2,Win32,60,,,,,,,,,,,,,,,,,,,,,,,,,,,,,,1,11.628,1,1,0,42,42,2,1,stimuli/stim_20210919_power2amp/equal_lnn_AM2Hz_s15_12.m4a,1.2,,,,,,,,,,,
,,,,,41707,2021-10-09_16h16.03.879,judgeSpeechMusic_20210919_logNormShiftAmp_detection_fixFreq,2020.1.2,Win32,60,,,,,,,,,,,,,,,,,,,,,,,,,,,,,,1,8.672,,0,0,43,43,1,1,stimuli/stim_20210919_power2amp/equal_lnn_AM2Hz_s15_50.m4a,,,,,,,,,,,,
,,,,,41707,2021-10-09_16h16.03.879,judgeSpeechMusic_20210919_logNormShiftAmp_detection_fixFreq,2020.1.2,Win32,60,,,,,,,,,,,,,,,,,,,,,,,,,,,,,,2,9.663,,0,0,44,44,66,1,stimuli/stim_20210919_power2amp/equal_lnn_AM2Hz_s55_36.m4a,,,,,,,,,,,,
,,,,,41707,2021-10-09_16h16.03.879,judgeSpeechMusic_20210919_logNormShiftAmp_detection_fixFreq,2020.1.2,Win32,60,,,,,,,,,,,,,,,,,,,,,,,,,,,,,,1,11.454,,0,0,45,45,63,1,stimuli/stim_20210919_power2amp/equal_lnn_AM2Hz_s55_25.m4a,,,,,,,,,,,,
,,,,,41707,2021-10-09_16h16.03.879,judgeSpeechMusic_20210919_logNormShiftAmp_detection_fixFreq,2020.1.2,Win32,60,,,,,,,,,,,,,,,,,,,,,,,,,,,,,,2,8.432,,0,0,46,46,56,1,stimuli/stim_20210919_power2amp/equal_lnn_AM2Hz_s45_32.m4a,,,,,,,,,,,,
,,,,,41707,2021-10-09_16h16.03.879,judgeSpeechMusic_20210919_logNormShiftAmp_detection_fixFreq,2020.1.2,Win32,60,,,,,,,,,,,,,,,,,,,,,,,,,,,,,,1,14.857,,0,0,47,47,9,1,stimuli/stim_20210919_power2amp/equal_lnn_AM2Hz_s15_32.m4a,,,,,,,,,,,,
,,,,,41707,2021-10-09_16h16.03.879,judgeSpeechMusic_20210919_logNormShiftAmp_detection_fixFreq,2020.1.2,Win32,60,,,,,,,,,,,,,,,,,,,,,,,,,,,,,,2,11.122,,0,0,48,48,24,1,stimuli/stim_20210919_power2amp/equal_lnn_AM2Hz_s25_33.m4a,,,,,,,,,,,,
,,,,,41707,2021-10-09_16h16.03.879,judgeSpeechMusic_20210919_logNormShiftAmp_detection_fixFreq,2020.1.2,Win32,60,,,,,,,,,,,,,,,,,,,,,,,,,,,,,,1,6.357,,0,0,49,49,27,1,stimuli/stim_20210919_power2amp/equal_lnn_AM2Hz_s25_47.m4a,,,,,,,,,,,,
,,,,,41707,2021-10-09_16h16.03.879,judgeSpeechMusic_20210919_logNormShiftAmp_detection_fixFreq,2020.1.2,Win32,60,,,,,,,,,,,,,,,,,,,,,,,,,,,,,,1,7.471,,0,0,50,50,68,1,stimuli/stim_20210919_power2amp/equal_lnn_AM2Hz_s55_2.m4a,,,,,,,,,,,,
,,,,,41707,2021-10-09_16h16.03.879,judgeSpeechMusic_20210919_logNormShiftAmp_detection_fixFreq,2020.1.2,Win32,60,,,,,,,,,,,,,,,,,,,,,,,,,,,,,,1,6.496,,0,0,51,51,71,1,stimuli/stim_20210919_power2amp/equal_lnn_AM2Hz_s55_28.m4a,,,,,,,,,,,,
,,,,,41707,2021-10-09_16h16.03.879,judgeSpeechMusic_20210919_logNormShiftAmp_detection_fixFreq,2020.1.2,Win32,60,,,,,,,,,,,,,,,,,,,,,,,,,,,,,,2,6.454,,0,0,52,52,74,1,stimuli/stim_20210919_power2amp/equal_lnn_AM2Hz_s55_30.m4a,,,,,,,,,,,,
,,,,,41707,2021-10-09_16h16.03.879,judgeSpeechMusic_20210919_logNormShiftAmp_detection_fixFreq,2020.1.2,Win32,60,,,,,,,,,,,,,,,,,,,,,,,,,,,,,,1,6.211,,0,0,53,53,25,1,stimuli/stim_20210919_power2amp/equal_lnn_AM2Hz_s25_4.m4a,,,,,,,,,,,,
,,,,,41707,2021-10-09_16h16.03.879,judgeSpeechMusic_20210919_logNormShiftAmp_detection_fixFreq,2020.1.2,Win32,60,,,,,,,,,,,,,,,,,,,,,,,,,,,,,,1,6.053,,0,0,54,54,69,1,stimuli/stim_20210919_power2amp/equal_lnn_AM2Hz_s55_26.m4a,,,,,,,,,,,,
,,,,,41707,2021-10-09_16h16.03.879,judgeSpeechMusic_20210919_logNormShiftAmp_detection_fixFreq,2020.1.2,Win32,60,,,,,,,,,,,,,,,,,,,,,,,,,,,,,,2,6.113,,0,0,55,55,20,1,stimuli/stim_20210919_power2amp/equal_lnn_AM2Hz_s25_49.m4a,,,,,,,,,,,,
,,,,,41707,2021-10-09_16h16.03.879,judgeSpeechMusic_20210919_logNormShiftAmp_detection_fixFreq,2020.1.2,Win32,60,,,,,,,,,,,,,,,,,,,,,,,,,,,,,,1,10.045,,0,0,56,56,58,1,stimuli/stim_20210919_power2amp/equal_lnn_AM2Hz_s45_1.m4a,,,,,,,,,,,,
,,,,,41707,2021-10-09_16h16.03.879,judgeSpeechMusic_20210919_logNormShiftAmp_detection_fixFreq,2020.1.2,Win32,60,,,,,,,,,,,,,,,,,,,,,,,,,,,,,,1,6.255,,0,0,57,57,17,1,stimuli/stim_20210919_power2amp/equal_lnn_AM2Hz_s25_40.m4a,,,,,,,,,,,,
,,,,,41707,2021-10-09_16h16.03.879,judgeSpeechMusic_20210919_logNormShiftAmp_detection_fixFreq,2020.1.2,Win32,60,,,,,,,,,,,,,,,,,,,,,,,,,,,,,,2,6.539,,0,0,58,58,60,1,stimuli/stim_20210919_power2amp/equal_lnn_AM2Hz_s55_29.m4a,,,,,,,,,,,,
,,,,,41707,2021-10-09_16h16.03.879,judgeSpeechMusic_20210919_logNormShiftAmp_detection_fixFreq,2020.1.2,Win32,60,,,,,,,,,,,,,,,,,,,,,,,,,,,,,,2,7.734,,0,0,59,59,28,1,stimuli/stim_20210919_power2amp/equal_lnn_AM2Hz_s25_2.m4a,,,,,,,,,,,,
,,,,,41707,2021-10-09_16h16.03.879,judgeSpeechMusic_20210919_logNormShiftAmp_detection_fixFreq,2020.1.2,Win32,60,,,,,,,,,,,,,,,,,,,,,,,,,,,,,,1,6.344,3,1,0,60,60,21,1,stimuli/stim_20210919_power2amp/equal_lnn_AM2Hz_s25_34.m4a,1.559,,,,,,,,,,,
,,,,,41707,2021-10-09_16h16.03.879,judgeSpeechMusic_20210919_logNormShiftAmp_detection_fixFreq,2020.1.2,Win32,60,,,,,,,,,,,,,,,,,,,,,,,,,,,,,,1,6.003,,0,0,61,61,65,1,stimuli/stim_20210919_power2amp/equal_lnn_AM2Hz_s55_43.m4a,,,,,,,,,,,,
,,,,,41707,2021-10-09_16h16.03.879,judgeSpeechMusic_20210919_logNormShiftAmp_detection_fixFreq,2020.1.2,Win32,60,,,,,,,,,,,,,,,,,,,,,,,,,,,,,,2,7.114,,0,0,62,62,39,1,stimuli/stim_20210919_power2amp/equal_lnn_AM2Hz_s35_10.m4a,,,,,,,,,,,,
,,,,,41707,2021-10-09_16h16.03.879,judgeSpeechMusic_20210919_logNormShiftAmp_detection_fixFreq,2020.1.2,Win32,60,,,,,,,,,,,,,,,,,,,,,,,,,,,,,,1,7.256,,0,0,63,63,36,1,stimuli/stim_20210919_power2amp/equal_lnn_AM2Hz_s35_9.m4a,,,,,,,,,,,,
,,,,,41707,2021-10-09_16h16.03.879,judgeSpeechMusic_20210919_logNormShiftAmp_detection_fixFreq,2020.1.2,Win32,60,,,,,,,,,,,,,,,,,,,,,,,,,,,,,,1,7.305,,0,0,64,64,12,1,stimuli/stim_20210919_power2amp/equal_lnn_AM2Hz_s15_34.m4a,,,,,,,,,,,,
,,,,,41707,2021-10-09_16h16.03.879,judgeSpeechMusic_20210919_logNormShiftAmp_detection_fixFreq,2020.1.2,Win32,60,,,,,,,,,,,,,,,,,,,,,,,,,,,,,,1,6.379,,0,0,65,65,11,1,stimuli/stim_20210919_power2amp/equal_lnn_AM2Hz_s15_18.m4a,,,,,,,,,,,,
,,,,,41707,2021-10-09_16h16.03.879,judgeSpeechMusic_20210919_logNormShiftAmp_detection_fixFreq,2020.1.2,Win32,60,,,,,,,,,,,,,,,,,,,,,,,,,,,,,,2,6.43,,0,0,66,66,55,1,stimuli/stim_20210919_power2amp/equal_lnn_AM2Hz_s45_27.m4a,,,,,,,,,,,,
,,,,,41707,2021-10-09_16h16.03.879,judgeSpeechMusic_20210919_logNormShiftAmp_detection_fixFreq,2020.1.2,Win32,60,,,,,,,,,,,,,,,,,,,,,,,,,,,,,,1,6.253,,0,0,67,67,64,1,stimuli/stim_20210919_power2amp/equal_lnn_AM2Hz_s55_40.m4a,,,,,,,,,,,,
,,,,,41707,2021-10-09_16h16.03.879,judgeSpeechMusic_20210919_logNormShiftAmp_detection_fixFreq,2020.1.2,Win32,60,,,,,,,,,,,,,,,,,,,,,,,,,,,,,,1,5.705,,0,0,68,68,61,1,stimuli/stim_20210919_power2amp/equal_lnn_AM2Hz_s55_15.m4a,,,,,,,,,,,,
,,,,,41707,2021-10-09_16h16.03.879,judgeSpeechMusic_20210919_logNormShiftAmp_detection_fixFreq,2020.1.2,Win32,60,,,,,,,,,,,,,,,,,,,,,,,,,,,,,,1,12.145,,0,0,69,69,42,1,stimuli/stim_20210919_power2amp/equal_lnn_AM2Hz_s35_23.m4a,,,,,,,,,,,,
,,,,,41707,2021-10-09_16h16.03.879,judgeSpeechMusic_20210919_logNormShiftAmp_detection_fixFreq,2020.1.2,Win32,60,,,,,,,,,,,,,,,,,,,,,,,,,,,,,,2,6.854,,0,0,70,70,33,1,stimuli/stim_20210919_power2amp/equal_lnn_AM2Hz_s35_5.m4a,,,,,,,,,,,,
,,,,,41707,2021-10-09_16h16.03.879,judgeSpeechMusic_20210919_logNormShiftAmp_detection_fixFreq,2020.1.2,Win32,60,,,,,,,,,,,,,,,,,,,,,,,,,,,,,,1,7.622,,0,0,71,71,41,1,stimuli/stim_20210919_power2amp/equal_lnn_AM2Hz_s35_14.m4a,,,,,,,,,,,,
,,,,,41707,2021-10-09_16h16.03.879,judgeSpeechMusic_20210919_logNormShiftAmp_detection_fixFreq,2020.1.2,Win32,60,,,,,,,,,,,,,,,,,,,,,,,,,,,,,,1,7.96,,0,0,72,72,44,1,stimuli/stim_20210919_power2amp/equal_lnn_AM2Hz_s35_33.m4a,,,,,,,,,,,,
,,,,,41707,2021-10-09_16h16.03.879,judgeSpeechMusic_20210919_logNormShiftAmp_detection_fixFreq,2020.1.2,Win32,60,,,,,,,,,,,,,,,,,,,,,,,,,,,,,,2,6.442,,0,0,73,73,48,1,stimuli/stim_20210919_power2amp/equal_lnn_AM2Hz_s45_34.m4a,,,,,,,,,,,,
,,,,,41707,2021-10-09_16h16.03.879,judgeSpeechMusic_20210919_logNormShiftAmp_detection_fixFreq,2020.1.2,Win32,60,,,,,,,,,,,,,,,,,,,,,,,,,,,,,,1,6.225,,0,0,74,74,59,1,stimuli/stim_20210919_power2amp/equal_lnn_AM2Hz_s45_18.m4a,,,,,,,,,,,,
,,,,,41707,2021-10-09_16h16.03.879,judgeSpeechMusic_20210919_logNormShiftAmp_detection_fixFreq,2020.1.2,Win32,60,,,,,,,,,,,,,,,,,,,,,,,,,,,,,,,,,,,,,,,,,space,1.303,0,1,1,1,1,SPEECH,stimuli/SPEECH.jpg,,
,,,,,41707,2021-10-09_16h16.03.879,judgeSpeechMusic_20210919_logNormShiftAmp_detection_fixFreq,2020.1.2,Win32,60,,,,,,,,,,,,,,,,,,0,0,0,0,0,1,stimuli/stim_20210919_power2amp/equal_lnn_AM_training2Hz_s20.m4a,,,,,,,,,,,,,,,,,,,,,,,,,,,
,,,,,41707,2021-10-09_16h16.03.879,judgeSpeechMusic_20210919_logNormShiftAmp_detection_fixFreq,2020.1.2,Win32,60,,,,,,,,,,,,,,,,,,,,,,,,,,space,8.641,space,0.31,2,6.739,,0,0,0,0,54,1,stimuli/stim_20210919_power2amp/equal_lnn_AM2Hz_s45_46.m4a,,,,,,,,,,,,
,,,,,41707,2021-10-09_16h16.03.879,judgeSpeechMusic_20210919_logNormShiftAmp_detection_fixFreq,2020.1.2,Win32,60,,,,,,,,,,,,,,,,,,,,,,,,,,,,,,2,5.789,,0,0,1,1,50,1,stimuli/stim_20210919_power2amp/equal_lnn_AM2Hz_s45_11.m4a,,,,,,,,,,,,
,,,,,41707,2021-10-09_16h16.03.879,judgeSpeechMusic_20210919_logNormShiftAmp_detection_fixFreq,2020.1.2,Win32,60,,,,,,,,,,,,,,,,,,,,,,,,,,,,,,2,8.482,,0,0,2,2,73,1,stimuli/stim_20210919_power2amp/equal_lnn_AM2Hz_s55_5.m4a,,,,,,,,,,,,
,,,,,41707,2021-10-09_16h16.03.879,judgeSpeechMusic_20210919_logNormShiftAmp_detection_fixFreq,2020.1.2,Win32,60,,,,,,,,,,,,,,,,,,,,,,,,,,,,,,1,5.911,,0,0,3,3,35,1,stimuli/stim_20210919_power2amp/equal_lnn_AM2Hz_s35_4.m4a,,,,,,,,,,,,
,,,,,41707,2021-10-09_16h16.03.879,judgeSpeechMusic_20210919_logNormShiftAmp_detection_fixFreq,2020.1.2,Win32,60,,,,,,,,,,,,,,,,,,,,,,,,,,,,,,1,6.947,,0,0,4,4,49,1,stimuli/stim_20210919_power2amp/equal_lnn_AM2Hz_s45_31.m4a,,,,,,,,,,,,
,,,,,41707,2021-10-09_16h16.03.879,judgeSpeechMusic_20210919_logNormShiftAmp_detection_fixFreq,2020.1.2,Win32,60,,,,,,,,,,,,,,,,,,,,,,,,,,,,,,1,6.571,,0,0,5,5,41,1,stimuli/stim_20210919_power2amp/equal_lnn_AM2Hz_s35_14.m4a,,,,,,,,,,,,
,,,,,41707,2021-10-09_16h16.03.879,judgeSpeechMusic_20210919_logNormShiftAmp_detection_fixFreq,2020.1.2,Win32,60,,,,,,,,,,,,,,,,,,,,,,,,,,,,,,1,6.394,,0,0,6,6,11,1,stimuli/stim_20210919_power2amp/equal_lnn_AM2Hz_s15_18.m4a,,,,,,,,,,,,
,,,,,41707,2021-10-09_16h16.03.879,judgeSpeechMusic_20210919_logNormShiftAmp_detection_fixFreq,2020.1.2,Win32,60,,,,,,,,,,,,,,,,,,,,,,,,,,,,,,1,6.312,,0,0,7,7,20,1,stimuli/stim_20210919_power2amp/equal_lnn_AM2Hz_s25_49.m4a,,,,,,,,,,,,
,,,,,41707,2021-10-09_16h16.03.879,judgeSpeechMusic_20210919_logNormShiftAmp_detection_fixFreq,2020.1.2,Win32,60,,,,,,,,,,,,,,,,,,,,,,,,,,,,,,1,6.776,,0,0,8,8,33,1,stimuli/stim_20210919_power2amp/equal_lnn_AM2Hz_s35_5.m4a,,,,,,,,,,,,
,,,,,41707,2021-10-09_16h16.03.879,judgeSpeechMusic_20210919_logNormShiftAmp_detection_fixFreq,2020.1.2,Win32,60,,,,,,,,,,,,,,,,,,,,,,,,,,,,,,1,10.399,,0,0,9,9,27,1,stimuli/stim_20210919_power2amp/equal_lnn_AM2Hz_s25_47.m4a,,,,,,,,,,,,
,,,,,41707,2021-10-09_16h16.03.879,judgeSpeechMusic_20210919_logNormShiftAmp_detection_fixFreq,2020.1.2,Win32,60,,,,,,,,,,,,,,,,,,,,,,,,,,,,,,1,7.83,,0,0,10,10,47,1,stimuli/stim_20210919_power2amp/equal_lnn_AM2Hz_s45_29.m4a,,,,,,,,,,,,
,,,,,41707,2021-10-09_16h16.03.879,judgeSpeechMusic_20210919_logNormShiftAmp_detection_fixFreq,2020.1.2,Win32,60,,,,,,,,,,,,,,,,,,,,,,,,,,,,,,2,5.863,,0,0,11,11,59,1,stimuli/stim_20210919_power2amp/equal_lnn_AM2Hz_s45_18.m4a,,,,,,,,,,,,
,,,,,41707,2021-10-09_16h16.03.879,judgeSpeechMusic_20210919_logNormShiftAmp_detection_fixFreq,2020.1.2,Win32,60,,,,,,,,,,,,,,,,,,,,,,,,,,,,,,1,8.177,,0,0,12,12,31,1,stimuli/stim_20210919_power2amp/equal_lnn_AM2Hz_s35_20.m4a,,,,,,,,,,,,
,,,,,41707,2021-10-09_16h16.03.879,judgeSpeechMusic_20210919_logNormShiftAmp_detection_fixFreq,2020.1.2,Win32,60,,,,,,,,,,,,,,,,,,,,,,,,,,,,,,1,6.066,,0,0,13,13,6,1,stimuli/stim_20210919_power2amp/equal_lnn_AM2Hz_s15_45.m4a,,,,,,,,,,,,
,,,,,41707,2021-10-09_16h16.03.879,judgeSpeechMusic_20210919_logNormShiftAmp_detection_fixFreq,2020.1.2,Win32,60,,,,,,,,,,,,,,,,,,,,,,,,,,,,,,1,6.037,,0,0,14,14,38,1,stimuli/stim_20210919_power2amp/equal_lnn_AM2Hz_s35_24.m4a,,,,,,,,,,,,
,,,,,41707,2021-10-09_16h16.03.879,judgeSpeechMusic_20210919_logNormShiftAmp_detection_fixFreq,2020.1.2,Win32,60,,,,,,,,,,,,,,,,,,,,,,,,,,,,,,1,6.753,,0,0,15,15,21,1,stimuli/stim_20210919_power2amp/equal_lnn_AM2Hz_s25_34.m4a,,,,,,,,,,,,
,,,,,41707,2021-10-09_16h16.03.879,judgeSpeechMusic_20210919_logNormShiftAmp_detection_fixFreq,2020.1.2,Win32,60,,,,,,,,,,,,,,,,,,,,,,,,,,,,,,1,7.2,,0,0,16,16,7,1,stimuli/stim_20210919_power2amp/equal_lnn_AM2Hz_s15_21.m4a,,,,,,,,,,,,
,,,,,41707,2021-10-09_16h16.03.879,judgeSpeechMusic_20210919_logNormShiftAmp_detection_fixFreq,2020.1.2,Win32,60,,,,,,,,,,,,,,,,,,,,,,,,,,,,,,1,6.44,,0,0,17,17,58,1,stimuli/stim_20210919_power2amp/equal_lnn_AM2Hz_s45_1.m4a,,,,,,,,,,,,
,,,,,41707,2021-10-09_16h16.03.879,judgeSpeechMusic_20210919_logNormShiftAmp_detection_fixFreq,2020.1.2,Win32,60,,,,,,,,,,,,,,,,,,,,,,,,,,,,,,1,7.512,,0,0,18,18,45,1,stimuli/stim_20210919_power2amp/equal_lnn_AM2Hz_s45_7.m4a,,,,,,,,,,,,
,,,,,41707,2021-10-09_16h16.03.879,judgeSpeechMusic_20210919_logNormShiftAmp_detection_fixFreq,2020.1.2,Win32,60,,,,,,,,,,,,,,,,,,,,,,,,,,,,,,2,5.825,,0,0,19,19,25,1,stimuli/stim_20210919_power2amp/equal_lnn_AM2Hz_s25_4.m4a,,,,,,,,,,,,
,,,,,41707,2021-10-09_16h16.03.879,judgeSpeechMusic_20210919_logNormShiftAmp_detection_fixFreq,2020.1.2,Win32,60,,,,,,,,,,,,,,,,,,,,,,,,,,,,,,2,10.01,,0,0,20,20,46,1,stimuli/stim_20210919_power2amp/equal_lnn_AM2Hz_s45_40.m4a,,,,,,,,,,,,
,,,,,41707,2021-10-09_16h16.03.879,judgeSpeechMusic_20210919_logNormShiftAmp_detection_fixFreq,2020.1.2,Win32,60,,,,,,,,,,,,,,,,,,,,,,,,,,,,,,1,6.219,,0,0,21,21,29,1,stimuli/stim_20210919_power2amp/equal_lnn_AM2Hz_s25_36.m4a,,,,,,,,,,,,
,,,,,41707,2021-10-09_16h16.03.879,judgeSpeechMusic_20210919_logNormShiftAmp_detection_fixFreq,2020.1.2,Win32,60,,,,,,,,,,,,,,,,,,,,,,,,,,,,,,1,6.921,1,1,0,22,22,40,1,stimuli/stim_20210919_power2amp/equal_lnn_AM2Hz_s35_22.m4a,1.187,,,,,,,,,,,
,,,,,41707,2021-10-09_16h16.03.879,judgeSpeechMusic_20210919_logNormShiftAmp_detection_fixFreq,2020.1.2,Win32,60,,,,,,,,,,,,,,,,,,,,,,,,,,,,,,2,6.121,,0,0,23,23,2,1,stimuli/stim_20210919_power2amp/equal_lnn_AM2Hz_s15_12.m4a,,,,,,,,,,,,
,,,,,41707,2021-10-09_16h16.03.879,judgeSpeechMusic_20210919_logNormShiftAmp_detection_fixFreq,2020.1.2,Win32,60,,,,,,,,,,,,,,,,,,,,,,,,,,,,,,1,7.072,,0,0,24,24,3,1,stimuli/stim_20210919_power2amp/equal_lnn_AM2Hz_s15_9.m4a,,,,,,,,,,,,
,,,,,41707,2021-10-09_16h16.03.879,judgeSpeechMusic_20210919_logNormShiftAmp_detection_fixFreq,2020.1.2,Win32,60,,,,,,,,,,,,,,,,,,,,,,,,,,,,,,2,5.651,,0,0,25,25,61,1,stimuli/stim_20210919_power2amp/equal_lnn_AM2Hz_s55_15.m4a,,,,,,,,,,,,
,,,,,41707,2021-10-09_16h16.03.879,judgeSpeechMusic_20210919_logNormShiftAmp_detection_fixFreq,2020.1.2,Win32,60,,,,,,,,,,,,,,,,,,,,,,,,,,,,,,1,7.465,,0,0,26,26,71,1,stimuli/stim_20210919_power2amp/equal_lnn_AM2Hz_s55_28.m4a,,,,,,,,,,,,
,,,,,41707,2021-10-09_16h16.03.879,judgeSpeechMusic_20210919_logNormShiftAmp_detection_fixFreq,2020.1.2,Win32,60,,,,,,,,,,,,,,,,,,,,,,,,,,,,,,1,6.19,,0,0,27,27,34,1,stimuli/stim_20210919_power2amp/equal_lnn_AM2Hz_s35_37.m4a,,,,,,,,,,,,
,,,,,41707,2021-10-09_16h16.03.879,judgeSpeechMusic_20210919_logNormShiftAmp_detection_fixFreq,2020.1.2,Win32,60,,,,,,,,,,,,,,,,,,,,,,,,,,,,,,1,6.101,,0,0,28,28,65,1,stimuli/stim_20210919_power2amp/equal_lnn_AM2Hz_s55_43.m4a,,,,,,,,,,,,
,,,,,41707,2021-10-09_16h16.03.879,judgeSpeechMusic_20210919_logNormShiftAmp_detection_fixFreq,2020.1.2,Win32,60,,,,,,,,,,,,,,,,,,,,,,,,,,,,,,1,7.149,,0,0,29,29,24,1,stimuli/stim_20210919_power2amp/equal_lnn_AM2Hz_s25_33.m4a,,,,,,,,,,,,
,,,,,41707,2021-10-09_16h16.03.879,judgeSpeechMusic_20210919_logNormShiftAmp_detection_fixFreq,2020.1.2,Win32,60,,,,,,,,,,,,,,,,,,,,,,,,,,,,,,2,7.439,,0,0,30,30,70,1,stimuli/stim_20210919_power2amp/equal_lnn_AM2Hz_s55_31.m4a,,,,,,,,,,,,
,,,,,41707,2021-10-09_16h16.03.879,judgeSpeechMusic_20210919_logNormShiftAmp_detection_fixFreq,2020.1.2,Win32,60,,,,,,,,,,,,,,,,,,,,,,,,,,,,,,1,6.384,,0,0,31,31,53,1,stimuli/stim_20210919_power2amp/equal_lnn_AM2Hz_s45_2.m4a,,,,,,,,,,,,
,,,,,41707,2021-10-09_16h16.03.879,judgeSpeechMusic_20210919_logNormShiftAmp_detection_fixFreq,2020.1.2,Win32,60,,,,,,,,,,,,,,,,,,,,,,,,,,,,,,1,6.655,,0,0,32,32,55,1,stimuli/stim_20210919_power2amp/equal_lnn_AM2Hz_s45_27.m4a,,,,,,,,,,,,
,,,,,41707,2021-10-09_16h16.03.879,judgeSpeechMusic_20210919_logNormShiftAmp_detection_fixFreq,2020.1.2,Win32,60,,,,,,,,,,,,,,,,,,,,,,,,,,,,,,1,6.58,,0,0,33,33,18,1,stimuli/stim_20210919_power2amp/equal_lnn_AM2Hz_s25_43.m4a,,,,,,,,,,,,
,,,,,41707,2021-10-09_16h16.03.879,judgeSpeechMusic_20210919_logNormShiftAmp_detection_fixFreq,2020.1.2,Win32,60,,,,,,,,,,,,,,,,,,,,,,,,,,,,,,1,6.836,,0,0,34,34,12,1,stimuli/stim_20210919_power2amp/equal_lnn_AM2Hz_s15_34.m4a,,,,,,,,,,,,
,,,,,41707,2021-10-09_16h16.03.879,judgeSpeechMusic_20210919_logNormShiftAmp_detection_fixFreq,2020.1.2,Win32,60,,,,,,,,,,,,,,,,,,,,,,,,,,,,,,1,7.238,,0,0,35,35,23,1,stimuli/stim_20210919_power2amp/equal_lnn_AM2Hz_s25_17.m4a,,,,,,,,,,,,
,,,,,41707,2021-10-09_16h16.03.879,judgeSpeechMusic_20210919_logNormShiftAmp_detection_fixFreq,2020.1.2,Win32,60,,,,,,,,,,,,,,,,,,,,,,,,,,,,,,1,10.079,,0,0,36,36,39,1,stimuli/stim_20210919_power2amp/equal_lnn_AM2Hz_s35_10.m4a,,,,,,,,,,,,
,,,,,41707,2021-10-09_16h16.03.879,judgeSpeechMusic_20210919_logNormShiftAmp_detection_fixFreq,2020.1.2,Win32,60,,,,,,,,,,,,,,,,,,,,,,,,,,,,,,1,7.425,,0,0,37,37,60,1,stimuli/stim_20210919_power2amp/equal_lnn_AM2Hz_s55_29.m4a,,,,,,,,,,,,
,,,,,41707,2021-10-09_16h16.03.879,judgeSpeechMusic_20210919_logNormShiftAmp_detection_fixFreq,2020.1.2,Win32,60,,,,,,,,,,,,,,,,,,,,,,,,,,,,,,1,12.281,,0,0,38,38,4,1,stimuli/stim_20210919_power2amp/equal_lnn_AM2Hz_s15_7.m4a,,,,,,,,,,,,
,,,,,41707,2021-10-09_16h16.03.879,judgeSpeechMusic_20210919_logNormShiftAmp_detection_fixFreq,2020.1.2,Win32,60,,,,,,,,,,,,,,,,,,,,,,,,,,,,,,1,6.662,,0,0,39,39,13,1,stimuli/stim_20210919_power2amp/equal_lnn_AM2Hz_s15_25.m4a,,,,,,,,,,,,
,,,,,41707,2021-10-09_16h16.03.879,judgeSpeechMusic_20210919_logNormShiftAmp_detection_fixFreq,2020.1.2,Win32,60,,,,,,,,,,,,,,,,,,,,,,,,,,,,,,1,7.776,,0,0,40,40,9,1,stimuli/stim_20210919_power2amp/equal_lnn_AM2Hz_s15_32.m4a,,,,,,,,,,,,
,,,,,41707,2021-10-09_16h16.03.879,judgeSpeechMusic_20210919_logNormShiftAmp_detection_fixFreq,2020.1.2,Win32,60,,,,,,,,,,,,,,,,,,,,,,,,,,,,,,2,6.74,,0,0,41,41,44,1,stimuli/stim_20210919_power2amp/equal_lnn_AM2Hz_s35_33.m4a,,,,,,,,,,,,
,,,,,41707,2021-10-09_16h16.03.879,judgeSpeechMusic_20210919_logNormShiftAmp_detection_fixFreq,2020.1.2,Win32,60,,,,,,,,,,,,,,,,,,,,,,,,,,,,,,2,5.593,2,1,0,42,42,67,1,stimuli/stim_20210919_power2amp/equal_lnn_AM2Hz_s55_32.m4a,1.205,,,,,,,,,,,
,,,,,41707,2021-10-09_16h16.03.879,judgeSpeechMusic_20210919_logNormShiftAmp_detection_fixFreq,2020.1.2,Win32,60,,,,,,,,,,,,,,,,,,,,,,,,,,,,,,1,7.421,,0,0,43,43,8,1,stimuli/stim_20210919_power2amp/equal_lnn_AM2Hz_s15_30.m4a,,,,,,,,,,,,
,,,,,41707,2021-10-09_16h16.03.879,judgeSpeechMusic_20210919_logNormShiftAmp_detection_fixFreq,2020.1.2,Win32,60,,,,,,,,,,,,,,,,,,,,,,,,,,,,,,2,6.615,,0,0,44,44,30,1,stimuli/stim_20210919_power2amp/equal_lnn_AM2Hz_s35_42.m4a,,,,,,,,,,,,
,,,,,41707,2021-10-09_16h16.03.879,judgeSpeechMusic_20210919_logNormShiftAmp_detection_fixFreq,2020.1.2,Win32,60,,,,,,,,,,,,,,,,,,,,,,,,,,,,,,2,5.916,,0,0,45,45,64,1,stimuli/stim_20210919_power2amp/equal_lnn_AM2Hz_s55_40.m4a,,,,,,,,,,,,
,,,,,41707,2021-10-09_16h16.03.879,judgeSpeechMusic_20210919_logNormShiftAmp_detection_fixFreq,2020.1.2,Win32,60,,,,,,,,,,,,,,,,,,,,,,,,,,,,,,1,5.554,,0,0,46,46,62,1,stimuli/stim_20210919_power2amp/equal_lnn_AM2Hz_s55_34.m4a,,,,,,,,,,,,
,,,,,41707,2021-10-09_16h16.03.879,judgeSpeechMusic_20210919_logNormShiftAmp_detection_fixFreq,2020.1.2,Win32,60,,,,,,,,,,,,,,,,,,,,,,,,,,,,,,2,5.5,,0,0,47,47,28,1,stimuli/stim_20210919_power2amp/equal_lnn_AM2Hz_s25_2.m4a,,,,,,,,,,,,
,,,,,41707,2021-10-09_16h16.03.879,judgeSpeechMusic_20210919_logNormShiftAmp_detection_fixFreq,2020.1.2,Win32,60,,,,,,,,,,,,,,,,,,,,,,,,,,,,,,1,6.04,,0,0,48,48,26,1,stimuli/stim_20210919_power2amp/equal_lnn_AM2Hz_s25_46.m4a,,,,,,,,,,,,
,,,,,41707,2021-10-09_16h16.03.879,judgeSpeechMusic_20210919_logNormShiftAmp_detection_fixFreq,2020.1.2,Win32,60,,,,,,,,,,,,,,,,,,,,,,,,,,,,,,1,9.553,,0,0,49,49,36,1,stimuli/stim_20210919_power2amp/equal_lnn_AM2Hz_s35_9.m4a,,,,,,,,,,,,
,,,,,41707,2021-10-09_16h16.03.879,judgeSpeechMusic_20210919_logNormShiftAmp_detection_fixFreq,2020.1.2,Win32,60,,,,,,,,,,,,,,,,,,,,,,,,,,,,,,2,8.295,,0,0,50,50,74,1,stimuli/stim_20210919_power2amp/equal_lnn_AM2Hz_s55_30.m4a,,,,,,,,,,,,
,,,,,41707,2021-10-09_16h16.03.879,judgeSpeechMusic_20210919_logNormShiftAmp_detection_fixFreq,2020.1.2,Win32,60,,,,,,,,,,,,,,,,,,,,,,,,,,,,,,1,6.308,,0,0,51,51,42,1,stimuli/stim_20210919_power2amp/equal_lnn_AM2Hz_s35_23.m4a,,,,,,,,,,,,
,,,,,41707,2021-10-09_16h16.03.879,judgeSpeechMusic_20210919_logNormShiftAmp_detection_fixFreq,2020.1.2,Win32,60,,,,,,,,,,,,,,,,,,,,,,,,,,,,,,1,7.188,,0,0,52,52,48,1,stimuli/stim_20210919_power2amp/equal_lnn_AM2Hz_s45_34.m4a,,,,,,,,,,,,
,,,,,41707,2021-10-09_16h16.03.879,judgeSpeechMusic_20210919_logNormShiftAmp_detection_fixFreq,2020.1.2,Win32,60,,,,,,,,,,,,,,,,,,,,,,,,,,,,,,2,9.196,,0,0,53,53,10,1,stimuli/stim_20210919_power2amp/equal_lnn_AM2Hz_s15_31.m4a,,,,,,,,,,,,
,,,,,41707,2021-10-09_16h16.03.879,judgeSpeechMusic_20210919_logNormShiftAmp_detection_fixFreq,2020.1.2,Win32,60,,,,,,,,,,,,,,,,,,,,,,,,,,,,,,1,6.516,,0,0,54,54,69,1,stimuli/stim_20210919_power2amp/equal_lnn_AM2Hz_s55_26.m4a,,,,,,,,,,,,
,,,,,41707,2021-10-09_16h16.03.879,judgeSpeechMusic_20210919_logNormShiftAmp_detection_fixFreq,2020.1.2,Win32,60,,,,,,,,,,,,,,,,,,,,,,,,,,,,,,1,6.204,,0,0,55,55,0,1,stimuli/stim_20210919_power2amp/equal_lnn_AM2Hz_s15_35.m4a,,,,,,,,,,,,
,,,,,41707,2021-10-09_16h16.03.879,judgeSpeechMusic_20210919_logNormShiftAmp_detection_fixFreq,2020.1.2,Win32,60,,,,,,,,,,,,,,,,,,,,,,,,,,,,,,2,8.212,,0,0,56,56,68,1,stimuli/stim_20210919_power2amp/equal_lnn_AM2Hz_s55_2.m4a,,,,,,,,,,,,
,,,,,41707,2021-10-09_16h16.03.879,judgeSpeechMusic_20210919_logNormShiftAmp_detection_fixFreq,2020.1.2,Win32,60,,,,,,,,,,,,,,,,,,,,,,,,,,,,,,1,6.488,,0,0,57,57,51,1,stimuli/stim_20210919_power2amp/equal_lnn_AM2Hz_s45_16.m4a,,,,,,,,,,,,
,,,,,41707,2021-10-09_16h16.03.879,judgeSpeechMusic_20210919_logNormShiftAmp_detection_fixFreq,2020.1.2,Win32,60,,,,,,,,,,,,,,,,,,,,,,,,,,,,,,1,5.487,,0,0,58,58,17,1,stimuli/stim_20210919_power2amp/equal_lnn_AM2Hz_s25_40.m4a,,,,,,,,,,,,
,,,,,41707,2021-10-09_16h16.03.879,judgeSpeechMusic_20210919_logNormShiftAmp_detection_fixFreq,2020.1.2,Win32,60,,,,,,,,,,,,,,,,,,,,,,,,,,,,,,1,5.692,,0,0,59,59,63,1,stimuli/stim_20210919_power2amp/equal_lnn_AM2Hz_s55_25.m4a,,,,,,,,,,,,
,,,,,41707,2021-10-09_16h16.03.879,judgeSpeechMusic_20210919_logNormShiftAmp_detection_fixFreq,2020.1.2,Win32,60,,,,,,,,,,,,,,,,,,,,,,,,,,,,,,2,7.336,2,1,0,60,60,66,1,stimuli/stim_20210919_power2amp/equal_lnn_AM2Hz_s55_36.m4a,0.803,,,,,,,,,,,
,,,,,41707,2021-10-09_16h16.03.879,judgeSpeechMusic_20210919_logNormShiftAmp_detection_fixFreq,2020.1.2,Win32,60,,,,,,,,,,,,,,,,,,,,,,,,,,,,,,2,8.006,,0,0,61,61,15,1,stimuli/stim_20210919_power2amp/equal_lnn_AM2Hz_s25_50.m4a,,,,,,,,,,,,
,,,,,41707,2021-10-09_16h16.03.879,judgeSpeechMusic_20210919_logNormShiftAmp_detection_fixFreq,2020.1.2,Win32,60,,,,,,,,,,,,,,,,,,,,,,,,,,,,,,2,6.483,,0,0,62,62,1,1,stimuli/stim_20210919_power2amp/equal_lnn_AM2Hz_s15_50.m4a,,,,,,,,,,,,
,,,,,41707,2021-10-09_16h16.03.879,judgeSpeechMusic_20210919_logNormShiftAmp_detection_fixFreq,2020.1.2,Win32,60,,,,,,,,,,,,,,,,,,,,,,,,,,,,,,2,5.796,,0,0,63,63,57,1,stimuli/stim_20210919_power2amp/equal_lnn_AM2Hz_s45_37.m4a,,,,,,,,,,,,
,,,,,41707,2021-10-09_16h16.03.879,judgeSpeechMusic_20210919_logNormShiftAmp_detection_fixFreq,2020.1.2,Win32,60,,,,,,,,,,,,,,,,,,,,,,,,,,,,,,1,6.433,,0,0,64,64,52,1,stimuli/stim_20210919_power2amp/equal_lnn_AM2Hz_s45_43.m4a,,,,,,,,,,,,
,,,,,41707,2021-10-09_16h16.03.879,judgeSpeechMusic_20210919_logNormShiftAmp_detection_fixFreq,2020.1.2,Win32,60,,,,,,,,,,,,,,,,,,,,,,,,,,,,,,1,6.406,,0,0,65,65,56,1,stimuli/stim_20210919_power2amp/equal_lnn_AM2Hz_s45_32.m4a,,,,,,,,,,,,
,,,,,41707,2021-10-09_16h16.03.879,judgeSpeechMusic_20210919_logNormShiftAmp_detection_fixFreq,2020.1.2,Win32,60,,,,,,,,,,,,,,,,,,,,,,,,,,,,,,1,6.829,,0,0,66,66,16,1,stimuli/stim_20210919_power2amp/equal_lnn_AM2Hz_s25_7.m4a,,,,,,,,,,,,
,,,,,41707,2021-10-09_16h16.03.879,judgeSpeechMusic_20210919_logNormShiftAmp_detection_fixFreq,2020.1.2,Win32,60,,,,,,,,,,,,,,,,,,,,,,,,,,,,,,1,8.55,,0,0,67,67,19,1,stimuli/stim_20210919_power2amp/equal_lnn_AM2Hz_s25_23.m4a,,,,,,,,,,,,
,,,,,41707,2021-10-09_16h16.03.879,judgeSpeechMusic_20210919_logNormShiftAmp_detection_fixFreq,2020.1.2,Win32,60,,,,,,,,,,,,,,,,,,,,,,,,,,,,,,1,8.878,,0,0,68,68,14,1,stimuli/stim_20210919_power2amp/equal_lnn_AM2Hz_s15_42.m4a,,,,,,,,,,,,
,,,,,41707,2021-10-09_16h16.03.879,judgeSpeechMusic_20210919_logNormShiftAmp_detection_fixFreq,2020.1.2,Win32,60,,,,,,,,,,,,,,,,,,,,,,,,,,,,,,1,8.734,,0,0,69,69,37,1,stimuli/stim_20210919_power2amp/equal_lnn_AM2Hz_s35_39.m4a,,,,,,,,,,,,
,,,,,41707,2021-10-09_16h16.03.879,judgeSpeechMusic_20210919_logNormShiftAmp_detection_fixFreq,2020.1.2,Win32,60,,,,,,,,,,,,,,,,,,,,,,,,,,,,,,2,7.246,,0,0,70,70,72,1,stimuli/stim_20210919_power2amp/equal_lnn_AM2Hz_s55_23.m4a,,,,,,,,,,,,
,,,,,41707,2021-10-09_16h16.03.879,judgeSpeechMusic_20210919_logNormShiftAmp_detection_fixFreq,2020.1.2,Win32,60,,,,,,,,,,,,,,,,,,,,,,,,,,,,,,1,6.289,,0,0,71,71,32,1,stimuli/stim_20210919_power2amp/equal_lnn_AM2Hz_s35_28.m4a,,,,,,,,,,,,
,,,,,41707,2021-10-09_16h16.03.879,judgeSpeechMusic_20210919_logNormShiftAmp_detection_fixFreq,2020.1.2,Win32,60,,,,,,,,,,,,,,,,,,,,,,,,,,,,,,1,6.038,,0,0,72,72,43,1,stimuli/stim_20210919_power2amp/equal_lnn_AM2Hz_s35_18.m4a,,,,,,,,,,,,
,,,,,41707,2021-10-09_16h16.03.879,judgeSpeechMusic_20210919_logNormShiftAmp_detection_fixFreq,2020.1.2,Win32,60,,,,,,,,,,,,,,,,,,,,,,,,,,,,,,2,6.477,,0,0,73,73,5,1,stimuli/stim_20210919_power2amp/equal_lnn_AM2Hz_s15_49.m4a,,,,,,,,,,,,
,,,,,41707,2021-10-09_16h16.03.879,judgeSpeechMusic_20210919_logNormShiftAmp_detection_fixFreq,2020.1.2,Win32,60,,,,,,,,,,,,,,,,,,,,,,,,,,,,,,1,7.345,,0,0,74,74,22,1,stimuli/stim_20210919_power2amp/equal_lnn_AM2Hz_s25_38.m4a,,,,,,,,,,,,
,,,,,41707,2021-10-09_16h16.03.879,judgeSpeechMusic_20210919_logNormShiftAmp_detection_fixFreq,2020.1.2,Win32,60,,,,,,,,,,,,,,,,,,,,,,,,,,,,,,,,,,,,,,,,,space,0.366,1,0,2,0,1,MUSIC,stimuli/MUSIC.jpg,,
,,,,,41707,2021-10-09_16h16.03.879,judgeSpeechMusic_20210919_logNormShiftAmp_detection_fixFreq,2020.1.2,Win32,60,,,,,,,,,,,,,,,,,,0,0,0,0,1,1,stimuli/stim_20210919_power2amp/equal_lnn_AM_training2Hz_s30.m4a,,,,,,,,,,,,,,,,,,,,,,,,,,,
,,,,,41707,2021-10-09_16h16.03.879,judgeSpeechMusic_20210919_logNormShiftAmp_detection_fixFreq,2020.1.2,Win32,60,,,,,,,,,,,,,,,,,,,,,,,,,,space,1.771,space,0.32,2,5.545,,0,0,0,0,27,1,stimuli/stim_20210919_power2amp/equal_lnn_AM2Hz_s25_47.m4a,,,,,,,,,,,,
,,,,,41707,2021-10-09_16h16.03.879,judgeSpeechMusic_20210919_logNormShiftAmp_detection_fixFreq,2020.1.2,Win32,60,,,,,,,,,,,,,,,,,,,,,,,,,,,,,,1,7.683,,0,0,1,1,45,1,stimuli/stim_20210919_power2amp/equal_lnn_AM2Hz_s45_7.m4a,,,,,,,,,,,,
,,,,,41707,2021-10-09_16h16.03.879,judgeSpeechMusic_20210919_logNormShiftAmp_detection_fixFreq,2020.1.2,Win32,60,,,,,,,,,,,,,,,,,,,,,,,,,,,,,,2,6.054,,0,0,2,2,60,1,stimuli/stim_20210919_power2amp/equal_lnn_AM2Hz_s55_29.m4a,,,,,,,,,,,,
,,,,,41707,2021-10-09_16h16.03.879,judgeSpeechMusic_20210919_logNormShiftAmp_detection_fixFreq,2020.1.2,Win32,60,,,,,,,,,,,,,,,,,,,,,,,,,,,,,,2,9.413,,0,0,3,3,50,1,stimuli/stim_20210919_power2amp/equal_lnn_AM2Hz_s45_11.m4a,,,,,,,,,,,,
,,,,,41707,2021-10-09_16h16.03.879,judgeSpeechMusic_20210919_logNormShiftAmp_detection_fixFreq,2020.1.2,Win32,60,,,,,,,,,,,,,,,,,,,,,,,,,,,,,,1,6.08,,0,0,4,4,35,1,stimuli/stim_20210919_power2amp/equal_lnn_AM2Hz_s35_4.m4a,,,,,,,,,,,,
,,,,,41707,2021-10-09_16h16.03.879,judgeSpeechMusic_20210919_logNormShiftAmp_detection_fixFreq,2020.1.2,Win32,60,,,,,,,,,,,,,,,,,,,,,,,,,,,,,,1,5.879,,0,0,5,5,12,1,stimuli/stim_20210919_power2amp/equal_lnn_AM2Hz_s15_34.m4a,,,,,,,,,,,,
,,,,,41707,2021-10-09_16h16.03.879,judgeSpeechMusic_20210919_logNormShiftAmp_detection_fixFreq,2020.1.2,Win32,60,,,,,,,,,,,,,,,,,,,,,,,,,,,,,,2,5.899,,0,0,6,6,2,1,stimuli/stim_20210919_power2amp/equal_lnn_AM2Hz_s15_12.m4a,,,,,,,,,,,,
,,,,,41707,2021-10-09_16h16.03.879,judgeSpeechMusic_20210919_logNormShiftAmp_detection_fixFreq,2020.1.2,Win32,60,,,,,,,,,,,,,,,,,,,,,,,,,,,,,,1,5.991,,0,0,7,7,23,1,stimuli/stim_20210919_power2amp/equal_lnn_AM2Hz_s25_17.m4a,,,,,,,,,,,,
,,,,,41707,2021-10-09_16h16.03.879,judgeSpeechMusic_20210919_logNormShiftAmp_detection_fixFreq,2020.1.2,Win32,60,,,,,,,,,,,,,,,,,,,,,,,,,,,,,,2,6.963,,0,0,8,8,19,1,stimuli/stim_20210919_power2amp/equal_lnn_AM2Hz_s25_23.m4a,,,,,,,,,,,,
,,,,,41707,2021-10-09_16h16.03.879,judgeSpeechMusic_20210919_logNormShiftAmp_detection_fixFreq,2020.1.2,Win32,60,,,,,,,,,,,,,,,,,,,,,,,,,,,,,,1,6.343,,0,0,9,9,33,1,stimuli/stim_20210919_power2amp/equal_lnn_AM2Hz_s35_5.m4a,,,,,,,,,,,,
,,,,,41707,2021-10-09_16h16.03.879,judgeSpeechMusic_20210919_logNormShiftAmp_detection_fixFreq,2020.1.2,Win32,60,,,,,,,,,,,,,,,,,,,,,,,,,,,,,,1,6.809,,0,0,10,10,6,1,stimuli/stim_20210919_power2amp/equal_lnn_AM2Hz_s15_45.m4a,,,,,,,,,,,,
,,,,,41707,2021-10-09_16h16.03.879,judgeSpeechMusic_20210919_logNormShiftAmp_detection_fixFreq,2020.1.2,Win32,60,,,,,,,,,,,,,,,,,,,,,,,,,,,,,,2,5.937,,0,0,11,11,39,1,stimuli/stim_20210919_power2amp/equal_lnn_AM2Hz_s35_10.m4a,,,,,,,,,,,,
,,,,,41707,2021-10-09_16h16.03.879,judgeSpeechMusic_20210919_logNormShiftAmp_detection_fixFreq,2020.1.2,Win32,60,,,,,,,,,,,,,,,,,,,,,,,,,,,,,,1,7.642,,0,0,12,12,57,1,stimuli/stim_20210919_power2amp/equal_lnn_AM2Hz_s45_37.m4a,,,,,,,,,,,,
,,,,,41707,2021-10-09_16h16.03.879,judgeSpeechMusic_20210919_logNormShiftAmp_detection_fixFreq,2020.1.2,Win32,60,,,,,,,,,,,,,,,,,,,,,,,,,,,,,,2,10.448,,0,0,13,13,37,1,stimuli/stim_20210919_power2amp/equal_lnn_AM2Hz_s35_39.m4a,,,,,,,,,,,,
,,,,,41707,2021-10-09_16h16.03.879,judgeSpeechMusic_20210919_logNormShiftAmp_detection_fixFreq,2020.1.2,Win32,60,,,,,,,,,,,,,,,,,,,,,,,,,,,,,,2,6.168,,0,0,14,14,48,1,stimuli/stim_20210919_power2amp/equal_lnn_AM2Hz_s45_34.m4a,,,,,,,,,,,,
,,,,,41707,2021-10-09_16h16.03.879,judgeSpeechMusic_20210919_logNormShiftAmp_detection_fixFreq,2020.1.2,Win32,60,,,,,,,,,,,,,,,,,,,,,,,,,,,,,,1,5.581,,0,0,15,15,42,1,stimuli/stim_20210919_power2amp/equal_lnn_AM2Hz_s35_23.m4a,,,,,,,,,,,,
,,,,,41707,2021-10-09_16h16.03.879,judgeSpeechMusic_20210919_logNormShiftAmp_detection_fixFreq,2020.1.2,Win32,60,,,,,,,,,,,,,,,,,,,,,,,,,,,,,,2,5.495,,0,0,16,16,29,1,stimuli/stim_20210919_power2amp/equal_lnn_AM2Hz_s25_36.m4a,,,,,,,,,,,,
,,,,,41707,2021-10-09_16h16.03.879,judgeSpeechMusic_20210919_logNormShiftAmp_detection_fixFreq,2020.1.2,Win32,60,,,,,,,,,,,,,,,,,,,,,,,,,,,,,,2,6.081,,0,0,17,17,40,1,stimuli/stim_20210919_power2amp/equal_lnn_AM2Hz_s35_22.m4a,,,,,,,,,,,,
,,,,,41707,2021-10-09_16h16.03.879,judgeSpeechMusic_20210919_logNormShiftAmp_detection_fixFreq,2020.1.2,Win32,60,,,,,,,,,,,,,,,,,,,,,,,,,,,,,,1,6.238,,0,0,18,18,18,1,stimuli/stim_20210919_power2amp/equal_lnn_AM2Hz_s25_43.m4a,,,,,,,,,,,,
,,,,,41707,2021-10-09_16h16.03.879,judgeSpeechMusic_20210919_logNormShiftAmp_detection_fixFreq,2020.1.2,Win32,60,,,,,,,,,,,,,,,,,,,,,,,,,,,,,,2,6.073,,0,0,19,19,5,1,stimuli/stim_20210919_power2amp/equal_lnn_AM2Hz_s15_49.m4a,,,,,,,,,,,,
,,,,,41707,2021-10-09_16h16.03.879,judgeSpeechMusic_20210919_logNormShiftAmp_detection_fixFreq,2020.1.2,Win32,60,,,,,,,,,,,,,,,,,,,,,,,,,,,,,,1,6.42,,0,0,20,20,67,1,stimuli/stim_20210919_power2amp/equal_lnn_AM2Hz_s55_32.m4a,,,,,,,,,,,,
,,,,,41707,2021-10-09_16h16.03.879,judgeSpeechMusic_20210919_logNormShiftAmp_detection_fixFreq,2020.1.2,Win32,60,,,,,,,,,,,,,,,,,,,,,,,,,,,,,,1,6.449,,0,0,21,21,32,1,stimuli/stim_20210919_power2amp/equal_lnn_AM2Hz_s35_28.m4a,,,,,,,,,,,,
,,,,,41707,2021-10-09_16h16.03.879,judgeSpeechMusic_20210919_logNormShiftAmp_detection_fixFreq,2020.1.2,Win32,60,,,,,,,,,,,,,,,,,,,,,,,,,,,,,,2,5.557,1,1,0,22,22,10,1,stimuli/stim_20210919_power2amp/equal_lnn_AM2Hz_s15_31.m4a,1.116,,,,,,,,,,,
,,,,,41707,2021-10-09_16h16.03.879,judgeSpeechMusic_20210919_logNormShiftAmp_detection_fixFreq,2020.1.2,Win32,60,,,,,,,,,,,,,,,,,,,,,,,,,,,,,,1,6.022,,0,0,23,23,7,1,stimuli/stim_20210919_power2amp/equal_lnn_AM2Hz_s15_21.m4a,,,,,,,,,,,,
,,,,,41707,2021-10-09_16h16.03.879,judgeSpeechMusic_20210919_logNormShiftAmp_detection_fixFreq,2020.1.2,Win32,60,,,,,,,,,,,,,,,,,,,,,,,,,,,,,,1,8.434,,0,0,24,24,54,1,stimuli/stim_20210919_power2amp/equal_lnn_AM2Hz_s45_46.m4a,,,,,,,,,,,,
,,,,,41707,2021-10-09_16h16.03.879,judgeSpeechMusic_20210919_logNormShiftAmp_detection_fixFreq,2020.1.2,Win32,60,,,,,,,,,,,,,,,,,,,,,,,,,,,,,,1,6.186,,0,0,25,25,47,1,stimuli/stim_20210919_power2amp/equal_lnn_AM2Hz_s45_29.m4a,,,,,,,,,,,,
,,,,,41707,2021-10-09_16h16.03.879,judgeSpeechMusic_20210919_logNormShiftAmp_detection_fixFreq,2020.1.2,Win32,60,,,,,,,,,,,,,,,,,,,,,,,,,,,,,,1,6.002,,0,0,26,26,31,1,stimuli/stim_20210919_power2amp/equal_lnn_AM2Hz_s35_20.m4a,,,,,,,,,,,,
,,,,,41707,2021-10-09_16h16.03.879,judgeSpeechMusic_20210919_logNormShiftAmp_detection_fixFreq,2020.1.2,Win32,60,,,,,,,,,,,,,,,,,,,,,,,,,,,,,,2,7.124,,0,0,27,27,64,1,stimuli/stim_20210919_power2amp/equal_lnn_AM2Hz_s55_40.m4a,,,,,,,,,,,,
,,,,,41707,2021-10-09_16h16.03.879,judgeSpeechMusic_20210919_logNormShiftAmp_detection_fixFreq,2020.1.2,Win32,60,,,,,,,,,,,,,,,,,,,,,,,,,,,,,,1,6.852,,0,0,28,28,11,1,stimuli/stim_20210919_power2amp/equal_lnn_AM2Hz_s15_18.m4a,,,,,,,,,,,,
,,,,,41707,2021-10-09_16h16.03.879,judgeSpeechMusic_20210919_logNormShiftAmp_detection_fixFreq,2020.1.2,Win32,60,,,,,,,,,,,,,,,,,,,,,,,,,,,,,,1,5.691,,0,0,29,29,73,1,stimuli/stim_20210919_power2amp/equal_lnn_AM2Hz_s55_5.m4a,,,,,,,,,,,,
,,,,,41707,2021-10-09_16h16.03.879,judgeSpeechMusic_20210919_logNormShiftAmp_detection_fixFreq,2020.1.2,Win32,60,,,,,,,,,,,,,,,,,,,,,,,,,,,,,,1,5.952,,0,0,30,30,20,1,stimuli/stim_20210919_power2amp/equal_lnn_AM2Hz_s25_49.m4a,,,,,,,,,,,,
,,,,,41707,2021-10-09_16h16.03.879,judgeSpeechMusic_20210919_logNormShiftAmp_detection_fixFreq,2020.1.2,Win32,60,,,,,,,,,,,,,,,,,,,,,,,,,,,,,,1,5.905,,0,0,31,31,49,1,stimuli/stim_20210919_power2amp/equal_lnn_AM2Hz_s45_31.m4a,,,,,,,,,,,,
,,,,,41707,2021-10-09_16h16.03.879,judgeSpeechMusic_20210919_logNormShiftAmp_detection_fixFreq,2020.1.2,Win32,60,,,,,,,,,,,,,,,,,,,,,,,,,,,,,,1,6.023,,0,0,32,32,55,1,stimuli/stim_20210919_power2amp/equal_lnn_AM2Hz_s45_27.m4a,,,,,,,,,,,,
,,,,,41707,2021-10-09_16h16.03.879,judgeSpeechMusic_20210919_logNormShiftAmp_detection_fixFreq,2020.1.2,Win32,60,,,,,,,,,,,,,,,,,,,,,,,,,,,,,,2,6.71,,0,0,33,33,68,1,stimuli/stim_20210919_power2amp/equal_lnn_AM2Hz_s55_2.m4a,,,,,,,,,,,,
,,,,,41707,2021-10-09_16h16.03.879,judgeSpeechMusic_20210919_logNormShiftAmp_detection_fixFreq,2020.1.2,Win32,60,,,,,,,,,,,,,,,,,,,,,,,,,,,,,,1,6.114,,0,0,34,34,30,1,stimuli/stim_20210919_power2amp/equal_lnn_AM2Hz_s35_42.m4a,,,,,,,,,,,,
,,,,,41707,2021-10-09_16h16.03.879,judgeSpeechMusic_20210919_logNormShiftAmp_detection_fixFreq,2020.1.2,Win32,60,,,,,,,,,,,,,,,,,,,,,,,,,,,,,,1,7.013,,0,0,35,35,34,1,stimuli/stim_20210919_power2amp/equal_lnn_AM2Hz_s35_37.m4a,,,,,,,,,,,,
,,,,,41707,2021-10-09_16h16.03.879,judgeSpeechMusic_20210919_logNormShiftAmp_detection_fixFreq,2020.1.2,Win32,60,,,,,,,,,,,,,,,,,,,,,,,,,,,,,,1,7.087,,0,0,36,36,43,1,stimuli/stim_20210919_power2amp/equal_lnn_AM2Hz_s35_18.m4a,,,,,,,,,,,,
,,,,,41707,2021-10-09_16h16.03.879,judgeSpeechMusic_20210919_logNormShiftAmp_detection_fixFreq,2020.1.2,Win32,60,,,,,,,,,,,,,,,,,,,,,,,,,,,,,,1,6.863,,0,0,37,37,66,1,stimuli/stim_20210919_power2amp/equal_lnn_AM2Hz_s55_36.m4a,,,,,,,,,,,,
,,,,,41707,2021-10-09_16h16.03.879,judgeSpeechMusic_20210919_logNormShiftAmp_detection_fixFreq,2020.1.2,Win32,60,,,,,,,,,,,,,,,,,,,,,,,,,,,,,,2,6.531,,0,0,38,38,4,1,stimuli/stim_20210919_power2amp/equal_lnn_AM2Hz_s15_7.m4a,,,,,,,,,,,,
,,,,,41707,2021-10-09_16h16.03.879,judgeSpeechMusic_20210919_logNormShiftAmp_detection_fixFreq,2020.1.2,Win32,60,,,,,,,,,,,,,,,,,,,,,,,,,,,,,,1,7.912,,0,0,39,39,25,1,stimuli/stim_20210919_power2amp/equal_lnn_AM2Hz_s25_4.m4a,,,,,,,,,,,,
,,,,,41707,2021-10-09_16h16.03.879,judgeSpeechMusic_20210919_logNormShiftAmp_detection_fixFreq,2020.1.2,Win32,60,,,,,,,,,,,,,,,,,,,,,,,,,,,,,,2,5.954,,0,0,40,40,16,1,stimuli/stim_20210919_power2amp/equal_lnn_AM2Hz_s25_7.m4a,,,,,,,,,,,,
,,,,,41707,2021-10-09_16h16.03.879,judgeSpeechMusic_20210919_logNormShiftAmp_detection_fixFreq,2020.1.2,Win32,60,,,,,,,,,,,,,,,,,,,,,,,,,,,,,,1,5.516,,0,0,41,41,41,1,stimuli/stim_20210919_power2amp/equal_lnn_AM2Hz_s35_14.m4a,,,,,,,,,,,,
,,,,,41707,2021-10-09_16h16.03.879,judgeSpeechMusic_20210919_logNormShiftAmp_detection_fixFreq,2020.1.2,Win32,60,,,,,,,,,,,,,,,,,,,,,,,,,,,,,,2,7.411,4,1,0,42,42,17,1,stimuli/stim_20210919_power2amp/equal_lnn_AM2Hz_s25_40.m4a,1.331,,,,,,,,,,,
,,,,,41707,2021-10-09_16h16.03.879,judgeSpeechMusic_20210919_logNormShiftAmp_detection_fixFreq,2020.1.2,Win32,60,,,,,,,,,,,,,,,,,,,,,,,,,,,,,,1,7.663,,0,0,43,43,3,1,stimuli/stim_20210919_power2amp/equal_lnn_AM2Hz_s15_9.m4a,,,,,,,,,,,,
,,,,,41707,2021-10-09_16h16.03.879,judgeSpeechMusic_20210919_logNormShiftAmp_detection_fixFreq,2020.1.2,Win32,60,,,,,,,,,,,,,,,,,,,,,,,,,,,,,,1,5.991,,0,0,44,44,46,1,stimuli/stim_20210919_power2amp/equal_lnn_AM2Hz_s45_40.m4a,,,,,,,,,,,,
,,,,,41707,2021-10-09_16h16.03.879,judgeSpeechMusic_20210919_logNormShiftAmp_detection_fixFreq,2020.1.2,Win32,60,,,,,,,,,,,,,,,,,,,,,,,,,,,,,,1,6.794,,0,0,45,45,59,1,stimuli/stim_20210919_power2amp/equal_lnn_AM2Hz_s45_18.m4a,,,,,,,,,,,,
,,,,,41707,2021-10-09_16h16.03.879,judgeSpeechMusic_20210919_logNormShiftAmp_detection_fixFreq,2020.1.2,Win32,60,,,,,,,,,,,,,,,,,,,,,,,,,,,,,,1,6.002,,0,0,46,46,38,1,stimuli/stim_20210919_power2amp/equal_lnn_AM2Hz_s35_24.m4a,,,,,,,,,,,,
,,,,,41707,2021-10-09_16h16.03.879,judgeSpeechMusic_20210919_logNormShiftAmp_detection_fixFreq,2020.1.2,Win32,60,,,,,,,,,,,,,,,,,,,,,,,,,,,,,,2,6.127,,0,0,47,47,56,1,stimuli/stim_20210919_power2amp/equal_lnn_AM2Hz_s45_32.m4a,,,,,,,,,,,,
,,,,,41707,2021-10-09_16h16.03.879,judgeSpeechMusic_20210919_logNormShiftAmp_detection_fixFreq,2020.1.2,Win32,60,,,,,,,,,,,,,,,,,,,,,,,,,,,,,,2,5.525,,0,0,48,48,71,1,stimuli/stim_20210919_power2amp/equal_lnn_AM2Hz_s55_28.m4a,,,,,,,,,,,,
,,,,,41707,2021-10-09_16h16.03.879,judgeSpeechMusic_20210919_logNormShiftAmp_detection_fixFreq,2020.1.2,Win32,60,,,,,,,,,,,,,,,,,,,,,,,,,,,,,,1,6.325,,0,0,49,49,9,1,stimuli/stim_20210919_power2amp/equal_lnn_AM2Hz_s15_32.m4a,,,,,,,,,,,,
,,,,,41707,2021-10-09_16h16.03.879,judgeSpeechMusic_20210919_logNormShiftAmp_detection_fixFreq,2020.1.2,Win32,60,,,,,,,,,,,,,,,,,,,,,,,,,,,,,,1,20.419,,0,0,50,50,74,1,stimuli/stim_20210919_power2amp/equal_lnn_AM2Hz_s55_30.m4a,,,,,,,,,,,,
,,,,,41707,2021-10-09_16h16.03.879,judgeSpeechMusic_20210919_logNormShiftAmp_detection_fixFreq,2020.1.2,Win32,60,,,,,,,,,,,,,,,,,,,,,,,,,,,,,,2,6.721,,0,0,51,51,52,1,stimuli/stim_20210919_power2amp/equal_lnn_AM2Hz_s45_43.m4a,,,,,,,,,,,,
,,,,,41707,2021-10-09_16h16.03.879,judgeSpeechMusic_20210919_logNormShiftAmp_detection_fixFreq,2020.1.2,Win32,60,,,,,,,,,,,,,,,,,,,,,,,,,,,,,,1,6.54,,0,0,52,52,69,1,stimuli/stim_20210919_power2amp/equal_lnn_AM2Hz_s55_26.m4a,,,,,,,,,,,,
,,,,,41707,2021-10-09_16h16.03.879,judgeSpeechMusic_20210919_logNormShiftAmp_detection_fixFreq,2020.1.2,Win32,60,,,,,,,,,,,,,,,,,,,,,,,,,,,,,,1,5.921,,0,0,53,53,51,1,stimuli/stim_20210919_power2amp/equal_lnn_AM2Hz_s45_16.m4a,,,,,,,,,,,,
,,,,,41707,2021-10-09_16h16.03.879,judgeSpeechMusic_20210919_logNormShiftAmp_detection_fixFreq,2020.1.2,Win32,60,,,,,,,,,,,,,,,,,,,,,,,,,,,,,,1,5.61,,0,0,54,54,72,1,stimuli/stim_20210919_power2amp/equal_lnn_AM2Hz_s55_23.m4a,,,,,,,,,,,,
,,,,,41707,2021-10-09_16h16.03.879,judgeSpeechMusic_20210919_logNormShiftAmp_detection_fixFreq,2020.1.2,Win32,60,,,,,,,,,,,,,,,,,,,,,,,,,,,,,,1,5.717,,0,0,55,55,58,1,stimuli/stim_20210919_power2amp/equal_lnn_AM2Hz_s45_1.m4a,,,,,,,,,,,,
,,,,,41707,2021-10-09_16h16.03.879,judgeSpeechMusic_20210919_logNormShiftAmp_detection_fixFreq,2020.1.2,Win32,60,,,,,,,,,,,,,,,,,,,,,,,,,,,,,,2,5.886,,0,0,56,56,65,1,stimuli/stim_20210919_power2amp/equal_lnn_AM2Hz_s55_43.m4a,,,,,,,,,,,,
,,,,,41707,2021-10-09_16h16.03.879,judgeSpeechMusic_20210919_logNormShiftAmp_detection_fixFreq,2020.1.2,Win32,60,,,,,,,,,,,,,,,,,,,,,,,,,,,,,,1,5.947,,0,0,57,57,1,1,stimuli/stim_20210919_power2amp/equal_lnn_AM2Hz_s15_50.m4a,,,,,,,,,,,,
,,,,,41707,2021-10-09_16h16.03.879,judgeSpeechMusic_20210919_logNormShiftAmp_detection_fixFreq,2020.1.2,Win32,60,,,,,,,,,,,,,,,,,,,,,,,,,,,,,,1,6.266,,0,0,58,58,63,1,stimuli/stim_20210919_power2amp/equal_lnn_AM2Hz_s55_25.m4a,,,,,,,,,,,,
,,,,,41707,2021-10-09_16h16.03.879,judgeSpeechMusic_20210919_logNormShiftAmp_detection_fixFreq,2020.1.2,Win32,60,,,,,,,,,,,,,,,,,,,,,,,,,,,,,,1,6.101,,0,0,59,59,22,1,stimuli/stim_20210919_power2amp/equal_lnn_AM2Hz_s25_38.m4a,,,,,,,,,,,,
,,,,,41707,2021-10-09_16h16.03.879,judgeSpeechMusic_20210919_logNormShiftAmp_detection_fixFreq,2020.1.2,Win32,60,,,,,,,,,,,,,,,,,,,,,,,,,,,,,,2,7.336,1,1,0,60,60,13,1,stimuli/stim_20210919_power2amp/equal_lnn_AM2Hz_s15_25.m4a,1.524,,,,,,,,,,,
,,,,,41707,2021-10-09_16h16.03.879,judgeSpeechMusic_20210919_logNormShiftAmp_detection_fixFreq,2020.1.2,Win32,60,,,,,,,,,,,,,,,,,,,,,,,,,,,,,,1,8.383,,0,0,61,61,26,1,stimuli/stim_20210919_power2amp/equal_lnn_AM2Hz_s25_46.m4a,,,,,,,,,,,,
,,,,,41707,2021-10-09_16h16.03.879,judgeSpeechMusic_20210919_logNormShiftAmp_detection_fixFreq,2020.1.2,Win32,60,,,,,,,,,,,,,,,,,,,,,,,,,,,,,,1,9.017,,0,0,62,62,8,1,stimuli/stim_20210919_power2amp/equal_lnn_AM2Hz_s15_30.m4a,,,,,,,,,,,,
,,,,,41707,2021-10-09_16h16.03.879,judgeSpeechMusic_20210919_logNormShiftAmp_detection_fixFreq,2020.1.2,Win32,60,,,,,,,,,,,,,,,,,,,,,,,,,,,,,,1,6.268,,0,0,63,63,62,1,stimuli/stim_20210919_power2amp/equal_lnn_AM2Hz_s55_34.m4a,,,,,,,,,,,,
,,,,,41707,2021-10-09_16h16.03.879,judgeSpeechMusic_20210919_logNormShiftAmp_detection_fixFreq,2020.1.2,Win32,60,,,,,,,,,,,,,,,,,,,,,,,,,,,,,,2,14.325,,0,0,64,64,44,1,stimuli/stim_20210919_power2amp/equal_lnn_AM2Hz_s35_33.m4a,,,,,,,,,,,,
,,,,,41707,2021-10-09_16h16.03.879,judgeSpeechMusic_20210919_logNormShiftAmp_detection_fixFreq,2020.1.2,Win32,60,,,,,,,,,,,,,,,,,,,,,,,,,,,,,,2,5.808,,0,0,65,65,53,1,stimuli/stim_20210919_power2amp/equal_lnn_AM2Hz_s45_2.m4a,,,,,,,,,,,,
,,,,,41707,2021-10-09_16h16.03.879,judgeSpeechMusic_20210919_logNormShiftAmp_detection_fixFreq,2020.1.2,Win32,60,,,,,,,,,,,,,,,,,,,,,,,,,,,,,,1,5.613,,0,0,66,66,36,1,stimuli/stim_20210919_power2amp/equal_lnn_AM2Hz_s35_9.m4a,,,,,,,,,,,,
,,,,,41707,2021-10-09_16h16.03.879,judgeSpeechMusic_20210919_logNormShiftAmp_detection_fixFreq,2020.1.2,Win32,60,,,,,,,,,,,,,,,,,,,,,,,,,,,,,,1,6.522,,0,0,67,67,61,1,stimuli/stim_20210919_power2amp/equal_lnn_AM2Hz_s55_15.m4a,,,,,,,,,,,,
,,,,,41707,2021-10-09_16h16.03.879,judgeSpeechMusic_20210919_logNormShiftAmp_detection_fixFreq,2020.1.2,Win32,60,,,,,,,,,,,,,,,,,,,,,,,,,,,,,,1,7.859,,0,0,68,68,70,1,stimuli/stim_20210919_power2amp/equal_lnn_AM2Hz_s55_31.m4a,,,,,,,,,,,,
,,,,,41707,2021-10-09_16h16.03.879,judgeSpeechMusic_20210919_logNormShiftAmp_detection_fixFreq,2020.1.2,Win32,60,,,,,,,,,,,,,,,,,,,,,,,,,,,,,,2,9.436,,0,0,69,69,28,1,stimuli/stim_20210919_power2amp/equal_lnn_AM2Hz_s25_2.m4a,,,,,,,,,,,,
,,,,,41707,2021-10-09_16h16.03.879,judgeSpeechMusic_20210919_logNormShiftAmp_detection_fixFreq,2020.1.2,Win32,60,,,,,,,,,,,,,,,,,,,,,,,,,,,,,,1,7.572,,0,0,70,70,0,1,stimuli/stim_20210919_power2amp/equal_lnn_AM2Hz_s15_35.m4a,,,,,,,,,,,,
,,,,,41707,2021-10-09_16h16.03.879,judgeSpeechMusic_20210919_logNormShiftAmp_detection_fixFreq,2020.1.2,Win32,60,,,,,,,,,,,,,,,,,,,,,,,,,,,,,,1,9.246,,0,0,71,71,21,1,stimuli/stim_20210919_power2amp/equal_lnn_AM2Hz_s25_34.m4a,,,,,,,,,,,,
,,,,,41707,2021-10-09_16h16.03.879,judgeSpeechMusic_20210919_logNormShiftAmp_detection_fixFreq,2020.1.2,Win32,60,,,,,,,,,,,,,,,,,,,,,,,,,,,,,,2,5.571,,0,0,72,72,15,1,stimuli/stim_20210919_power2amp/equal_lnn_AM2Hz_s25_50.m4a,,,,,,,,,,,,
,,,,,41707,2021-10-09_16h16.03.879,judgeSpeechMusic_20210919_logNormShiftAmp_detection_fixFreq,2020.1.2,Win32,60,,,,,,,,,,,,,,,,,,,,,,,,,,,,,,2,6.203,,0,0,73,73,14,1,stimuli/stim_20210919_power2amp/equal_lnn_AM2Hz_s15_42.m4a,,,,,,,,,,,,
,,,,,41707,2021-10-09_16h16.03.879,judgeSpeechMusic_20210919_logNormShiftAmp_detection_fixFreq,2020.1.2,Win32,60,,,,,,,,,,,,,,,,,,,,,,,,,,,,,,1,7.579,,0,0,74,74,24,1,stimuli/stim_20210919_power2amp/equal_lnn_AM2Hz_s25_33.m4a,,,,,,,,,,,,
,,,,,41707,2021-10-09_16h16.03.879,judgeSpeechMusic_20210919_logNormShiftAmp_detection_fixFreq,2020.1.2,Win32,60,,,,,,,,,,,,,,,,,,,,,,,,,,,,,,,,,,,,,,,,,,,1,1,3,1,1,SPEECH,stimuli/SPEECH.jpg,,
,,,,,41707,2021-10-09_16h16.03.879,judgeSpeechMusic_20210919_logNormShiftAmp_detection_fixFreq,2020.1.2,Win32,60,,,,,,,,,,,,,,,,,,,,,,,,,,,,,,,,,,,,,,,,,,,,,,,,,,space,8.303
