volAdjustRep.thisRepN,volAdjustRep.thisTrialN,volAdjustRep.thisN,volAdjustRep.thisIndex,volAdjustRep.ran,participant,date,expName,psychopyVersion,OS,frameRate,headphoneResponse.keys,headphoneResponse.corr,headphoneResponse.rt,headphoneTrial.thisRepN,headphoneTrial.thisTrialN,headphoneTrial.thisN,headphoneTrial.thisIndex,headphoneTrial.ran,headphone_sound1,headphone_sound2,headphone_sound3,corrAns,checkInstruKey.keys,checkInstruKey.rt,trainSlider.response,trainSlider.rt,beepTrainResponse.keys,beepTrainResponse.corr,trainingTrials.thisRepN,trainingTrials.thisTrialN,trainingTrials.thisN,trainingTrials.thisIndex,trainingTrials.ran,trainAudioFile,beepTrainResponse.rt,readyReal_resp.keys,readyReal_resp.rt,checkInstru2_key.keys,checkInstru2_key.rt,ratingSlider.response,ratingSlider.rt,beepResp.keys,beepResp.corr,expTrials.thisRepN,expTrials.thisTrialN,expTrials.thisN,expTrials.thisIndex,expTrials.ran,audioFile,beepResp.rt,switchBlock_space.keys,switchBlock_space.rt,block.thisRepN,block.thisTrialN,block.thisN,block.thisIndex,block.ran,blockName,blockImage,end_resp.keys,end_resp.rt
0,0,0,0,1,41724,2021-10-03_03h22.12.565,judgeSpeechMusic_20210919_logNormShiftAmp_detection_fixFreq,2020.1.2,Win32,60,,,,,,,,,,,,,,,,,,,,,,,,,,,,,,,,,,,,,,,,,,,,,,,,,,,
1,0,1,0,1,41724,2021-10-03_03h22.12.565,judgeSpeechMusic_20210919_logNormShiftAmp_detection_fixFreq,2020.1.2,Win32,60,,,,,,,,,,,,,,,,,,,,,,,,,,,,,,,,,,,,,,,,,,,,,,,,,,,
,,,,,41724,2021-10-03_03h22.12.565,judgeSpeechMusic_20210919_logNormShiftAmp_detection_fixFreq,2020.1.2,Win32,60,1,1,10.8789,0,0,0,4,1,stimuli/screen_quiet.wav,stimuli/screen_antiphase.wav,stimuli/screen_origin.wav,1,,,,,,,,,,,,,,,,,,,,,,,,,,,,,,,,,,,,,,,
,,,,,41724,2021-10-03_03h22.12.565,judgeSpeechMusic_20210919_logNormShiftAmp_detection_fixFreq,2020.1.2,Win32,60,1,1,0.8676,0,1,1,5,1,stimuli/screen_quiet.wav,stimuli/screen_origin.wav,stimuli/screen_antiphase.wav,1,,,,,,,,,,,,,,,,,,,,,,,,,,,,,,,,,,,,,,,
,,,,,41724,2021-10-03_03h22.12.565,judgeSpeechMusic_20210919_logNormShiftAmp_detection_fixFreq,2020.1.2,Win32,60,2,1,0.5216,0,2,2,1,1,stimuli/screen_antiphase.wav,stimuli/screen_quiet.wav,stimuli/screen_origin.wav,2,,,,,,,,,,,,,,,,,,,,,,,,,,,,,,,,,,,,,,,
,,,,,41724,2021-10-03_03h22.12.565,judgeSpeechMusic_20210919_logNormShiftAmp_detection_fixFreq,2020.1.2,Win32,60,3,1,0.5156,0,3,3,0,1,stimuli/screen_antiphase.wav,stimuli/screen_origin.wav,stimuli/screen_quiet.wav,3,,,,,,,,,,,,,,,,,,,,,,,,,,,,,,,,,,,,,,,
,,,,,41724,2021-10-03_03h22.12.565,judgeSpeechMusic_20210919_logNormShiftAmp_detection_fixFreq,2020.1.2,Win32,60,2,1,0.3376,0,4,4,3,1,stimuli/screen_origin.wav,stimuli/screen_quiet.wav,stimuli/screen_antiphase.wav,2,,,,,,,,,,,,,,,,,,,,,,,,,,,,,,,,,,,,,,,
,,,,,41724,2021-10-03_03h22.12.565,judgeSpeechMusic_20210919_logNormShiftAmp_detection_fixFreq,2020.1.2,Win32,60,3,1,0.3957,0,5,5,2,1,stimuli/screen_origin.wav,stimuli/screen_antiphase.wav,stimuli/screen_quiet.wav,3,,,,,,,,,,,,,,,,,,,,,,,,,,,,,,,,,,,,,,,
,,,,,41724,2021-10-03_03h22.12.565,judgeSpeechMusic_20210919_logNormShiftAmp_detection_fixFreq,2020.1.2,Win32,60,,,,,,,,,,,,,space,1.0361,1,11.4913,,0,0,0,0,1,1,stimuli/stim_20210919_power2amp/equal_lnn_AM_training2Hz_s30.m4a,,,,,,,,,,,,,,,,,,,,,,,,,,,
,,,,,41724,2021-10-03_03h22.12.565,judgeSpeechMusic_20210919_logNormShiftAmp_detection_fixFreq,2020.1.2,Win32,60,,,,,,,,,,,,,,,1,20.9776,,0,0,1,1,2,1,stimuli/stim_20210919_power2amp/equal_lnn_AM_training2Hz_s40.m4a,,,,,,,,,,,,,,,,,,,,,,,,,,,
,,,,,41724,2021-10-03_03h22.12.565,judgeSpeechMusic_20210919_logNormShiftAmp_detection_fixFreq,2020.1.2,Win32,60,,,,,,,,,,,,,,,2,7.2663,4,1,0,2,2,0,1,stimuli/stim_20210919_power2amp/equal_lnn_AM_training2Hz_s20.m4a,1.9078,,,,,,,,,,,,,,,,,,,,,,,,,,
,,,,,41724,2021-10-03_03h22.12.565,judgeSpeechMusic_20210919_logNormShiftAmp_detection_fixFreq,2020.1.2,Win32,60,,,,,,,,,,,,,,,2,83.8198,,0,0,3,3,3,1,stimuli/stim_20210919_power2amp/equal_lnn_AM_training2Hz_s50.m4a,,,,,,,,,,,,,,,,,,,,,,,,,,,
,,,,,41724,2021-10-03_03h22.12.565,judgeSpeechMusic_20210919_logNormShiftAmp_detection_fixFreq,2020.1.2,Win32,60,,,,,,,,,,,,,,,,,,,,,,,,,,space,1.1274,space,1.0528,1,8.0641,,0,0,0,0,68,1,stimuli/stim_20210919_power2amp/equal_lnn_AM2Hz_s55_11.m4a,,,,,,,,,,,,
,,,,,41724,2021-10-03_03h22.12.565,judgeSpeechMusic_20210919_logNormShiftAmp_detection_fixFreq,2020.1.2,Win32,60,,,,,,,,,,,,,,,,,,,,,,,,,,,,,,2,6.1952,,0,0,1,1,25,1,stimuli/stim_20210919_power2amp/equal_lnn_AM2Hz_s25_18.m4a,,,,,,,,,,,,
,,,,,41724,2021-10-03_03h22.12.565,judgeSpeechMusic_20210919_logNormShiftAmp_detection_fixFreq,2020.1.2,Win32,60,,,,,,,,,,,,,,,,,,,,,,,,,,,,,,2,5.687,,0,0,2,2,40,1,stimuli/stim_20210919_power2amp/equal_lnn_AM2Hz_s35_12.m4a,,,,,,,,,,,,
,,,,,41724,2021-10-03_03h22.12.565,judgeSpeechMusic_20210919_logNormShiftAmp_detection_fixFreq,2020.1.2,Win32,60,,,,,,,,,,,,,,,,,,,,,,,,,,,,,,2,7.9042,,0,0,3,3,1,1,stimuli/stim_20210919_power2amp/equal_lnn_AM2Hz_s15_49.m4a,,,,,,,,,,,,
,,,,,41724,2021-10-03_03h22.12.565,judgeSpeechMusic_20210919_logNormShiftAmp_detection_fixFreq,2020.1.2,Win32,60,,,,,,,,,,,,,,,,,,,,,,,,,,,,,,1,6.0187,,0,0,4,4,31,1,stimuli/stim_20210919_power2amp/equal_lnn_AM2Hz_s35_40.m4a,,,,,,,,,,,,
,,,,,41724,2021-10-03_03h22.12.565,judgeSpeechMusic_20210919_logNormShiftAmp_detection_fixFreq,2020.1.2,Win32,60,,,,,,,,,,,,,,,,,,,,,,,,,,,,,,2,48.1503,,0,0,5,5,62,1,stimuli/stim_20210919_power2amp/equal_lnn_AM2Hz_s55_33.m4a,,,,,,,,,,,,
,,,,,41724,2021-10-03_03h22.12.565,judgeSpeechMusic_20210919_logNormShiftAmp_detection_fixFreq,2020.1.2,Win32,60,,,,,,,,,,,,,,,,,,,,,,,,,,,,,,1,7.5796,,0,0,6,6,50,1,stimuli/stim_20210919_power2amp/equal_lnn_AM2Hz_s45_12.m4a,,,,,,,,,,,,
,,,,,41724,2021-10-03_03h22.12.565,judgeSpeechMusic_20210919_logNormShiftAmp_detection_fixFreq,2020.1.2,Win32,60,,,,,,,,,,,,,,,,,,,,,,,,,,,,,,1,6.1776,,0,0,7,7,24,1,stimuli/stim_20210919_power2amp/equal_lnn_AM2Hz_s25_6.m4a,,,,,,,,,,,,
,,,,,41724,2021-10-03_03h22.12.565,judgeSpeechMusic_20210919_logNormShiftAmp_detection_fixFreq,2020.1.2,Win32,60,,,,,,,,,,,,,,,,,,,,,,,,,,,,,,1,5.6942,,0,0,8,8,12,1,stimuli/stim_20210919_power2amp/equal_lnn_AM2Hz_s15_16.m4a,,,,,,,,,,,,
,,,,,41724,2021-10-03_03h22.12.565,judgeSpeechMusic_20210919_logNormShiftAmp_detection_fixFreq,2020.1.2,Win32,60,,,,,,,,,,,,,,,,,,,,,,,,,,,,,,2,5.6974,,0,0,9,9,42,1,stimuli/stim_20210919_power2amp/equal_lnn_AM2Hz_s35_48.m4a,,,,,,,,,,,,
,,,,,41724,2021-10-03_03h22.12.565,judgeSpeechMusic_20210919_logNormShiftAmp_detection_fixFreq,2020.1.2,Win32,60,,,,,,,,,,,,,,,,,,,,,,,,,,,,,,2,5.7241,,0,0,10,10,47,1,stimuli/stim_20210919_power2amp/equal_lnn_AM2Hz_s45_1.m4a,,,,,,,,,,,,
,,,,,41724,2021-10-03_03h22.12.565,judgeSpeechMusic_20210919_logNormShiftAmp_detection_fixFreq,2020.1.2,Win32,60,,,,,,,,,,,,,,,,,,,,,,,,,,,,,,2,5.6727,,0,0,11,11,71,1,stimuli/stim_20210919_power2amp/equal_lnn_AM2Hz_s55_39.m4a,,,,,,,,,,,,
,,,,,41724,2021-10-03_03h22.12.565,judgeSpeechMusic_20210919_logNormShiftAmp_detection_fixFreq,2020.1.2,Win32,60,,,,,,,,,,,,,,,,,,,,,,,,,,,,,,1,5.7599,,0,0,12,12,2,1,stimuli/stim_20210919_power2amp/equal_lnn_AM2Hz_s15_5.m4a,,,,,,,,,,,,
,,,,,41724,2021-10-03_03h22.12.565,judgeSpeechMusic_20210919_logNormShiftAmp_detection_fixFreq,2020.1.2,Win32,60,,,,,,,,,,,,,,,,,,,,,,,,,,,,,,1,5.7658,,0,0,13,13,27,1,stimuli/stim_20210919_power2amp/equal_lnn_AM2Hz_s25_31.m4a,,,,,,,,,,,,
,,,,,41724,2021-10-03_03h22.12.565,judgeSpeechMusic_20210919_logNormShiftAmp_detection_fixFreq,2020.1.2,Win32,60,,,,,,,,,,,,,,,,,,,,,,,,,,,,,,1,5.6604,,0,0,14,14,23,1,stimuli/stim_20210919_power2amp/equal_lnn_AM2Hz_s25_25.m4a,,,,,,,,,,,,
,,,,,41724,2021-10-03_03h22.12.565,judgeSpeechMusic_20210919_logNormShiftAmp_detection_fixFreq,2020.1.2,Win32,60,,,,,,,,,,,,,,,,,,,,,,,,,,,,,,2,7.0048,,0,0,15,15,70,1,stimuli/stim_20210919_power2amp/equal_lnn_AM2Hz_s55_34.m4a,,,,,,,,,,,,
,,,,,41724,2021-10-03_03h22.12.565,judgeSpeechMusic_20210919_logNormShiftAmp_detection_fixFreq,2020.1.2,Win32,60,,,,,,,,,,,,,,,,,,,,,,,,,,,,,,1,5.92,,0,0,16,16,35,1,stimuli/stim_20210919_power2amp/equal_lnn_AM2Hz_s35_14.m4a,,,,,,,,,,,,
,,,,,41724,2021-10-03_03h22.12.565,judgeSpeechMusic_20210919_logNormShiftAmp_detection_fixFreq,2020.1.2,Win32,60,,,,,,,,,,,,,,,,,,,,,,,,,,,,,,2,5.7387,,0,0,17,17,17,1,stimuli/stim_20210919_power2amp/equal_lnn_AM2Hz_s25_22.m4a,,,,,,,,,,,,
,,,,,41724,2021-10-03_03h22.12.565,judgeSpeechMusic_20210919_logNormShiftAmp_detection_fixFreq,2020.1.2,Win32,60,,,,,,,,,,,,,,,,,,,,,,,,,,,,,,1,5.7815,2,1,0,18,18,11,1,stimuli/stim_20210919_power2amp/equal_lnn_AM2Hz_s15_45.m4a,1.5725,,,,,,,,,,,
,,,,,41724,2021-10-03_03h22.12.565,judgeSpeechMusic_20210919_logNormShiftAmp_detection_fixFreq,2020.1.2,Win32,60,,,,,,,,,,,,,,,,,,,,,,,,,,,,,,2,6.199,,0,0,19,19,49,1,stimuli/stim_20210919_power2amp/equal_lnn_AM2Hz_s45_50.m4a,,,,,,,,,,,,
,,,,,41724,2021-10-03_03h22.12.565,judgeSpeechMusic_20210919_logNormShiftAmp_detection_fixFreq,2020.1.2,Win32,60,,,,,,,,,,,,,,,,,,,,,,,,,,,,,,2,6.922,,0,0,20,20,15,1,stimuli/stim_20210919_power2amp/equal_lnn_AM2Hz_s25_13.m4a,,,,,,,,,,,,
,,,,,41724,2021-10-03_03h22.12.565,judgeSpeechMusic_20210919_logNormShiftAmp_detection_fixFreq,2020.1.2,Win32,60,,,,,,,,,,,,,,,,,,,,,,,,,,,,,,2,6.0862,,0,0,21,21,8,1,stimuli/stim_20210919_power2amp/equal_lnn_AM2Hz_s15_36.m4a,,,,,,,,,,,,
,,,,,41724,2021-10-03_03h22.12.565,judgeSpeechMusic_20210919_logNormShiftAmp_detection_fixFreq,2020.1.2,Win32,60,,,,,,,,,,,,,,,,,,,,,,,,,,,,,,1,5.6794,,0,0,22,22,38,1,stimuli/stim_20210919_power2amp/equal_lnn_AM2Hz_s35_37.m4a,,,,,,,,,,,,
,,,,,41724,2021-10-03_03h22.12.565,judgeSpeechMusic_20210919_logNormShiftAmp_detection_fixFreq,2020.1.2,Win32,60,,,,,,,,,,,,,,,,,,,,,,,,,,,,,,1,6.2315,,0,0,23,23,66,1,stimuli/stim_20210919_power2amp/equal_lnn_AM2Hz_s55_18.m4a,,,,,,,,,,,,
,,,,,41724,2021-10-03_03h22.12.565,judgeSpeechMusic_20210919_logNormShiftAmp_detection_fixFreq,2020.1.2,Win32,60,,,,,,,,,,,,,,,,,,,,,,,,,,,,,,2,5.7903,,0,0,24,24,28,1,stimuli/stim_20210919_power2amp/equal_lnn_AM2Hz_s25_44.m4a,,,,,,,,,,,,
,,,,,41724,2021-10-03_03h22.12.565,judgeSpeechMusic_20210919_logNormShiftAmp_detection_fixFreq,2020.1.2,Win32,60,,,,,,,,,,,,,,,,,,,,,,,,,,,,,,1,6.513,,0,0,25,25,10,1,stimuli/stim_20210919_power2amp/equal_lnn_AM2Hz_s15_47.m4a,,,,,,,,,,,,
,,,,,41724,2021-10-03_03h22.12.565,judgeSpeechMusic_20210919_logNormShiftAmp_detection_fixFreq,2020.1.2,Win32,60,,,,,,,,,,,,,,,,,,,,,,,,,,,,,,2,6.5216,,0,0,26,26,5,1,stimuli/stim_20210919_power2amp/equal_lnn_AM2Hz_s15_2.m4a,,,,,,,,,,,,
,,,,,41724,2021-10-03_03h22.12.565,judgeSpeechMusic_20210919_logNormShiftAmp_detection_fixFreq,2020.1.2,Win32,60,,,,,,,,,,,,,,,,,,,,,,,,,,,,,,2,7.5432,,0,0,27,27,16,1,stimuli/stim_20210919_power2amp/equal_lnn_AM2Hz_s25_32.m4a,,,,,,,,,,,,
,,,,,41724,2021-10-03_03h22.12.565,judgeSpeechMusic_20210919_logNormShiftAmp_detection_fixFreq,2020.1.2,Win32,60,,,,,,,,,,,,,,,,,,,,,,,,,,,,,,1,6.3942,,0,0,28,28,64,1,stimuli/stim_20210919_power2amp/equal_lnn_AM2Hz_s55_20.m4a,,,,,,,,,,,,
,,,,,41724,2021-10-03_03h22.12.565,judgeSpeechMusic_20210919_logNormShiftAmp_detection_fixFreq,2020.1.2,Win32,60,,,,,,,,,,,,,,,,,,,,,,,,,,,,,,1,5.696,,0,0,29,29,73,1,stimuli/stim_20210919_power2amp/equal_lnn_AM2Hz_s55_23.m4a,,,,,,,,,,,,
,,,,,41724,2021-10-03_03h22.12.565,judgeSpeechMusic_20210919_logNormShiftAmp_detection_fixFreq,2020.1.2,Win32,60,,,,,,,,,,,,,,,,,,,,,,,,,,,,,,1,5.8941,,0,0,30,30,69,1,stimuli/stim_20210919_power2amp/equal_lnn_AM2Hz_s55_45.m4a,,,,,,,,,,,,
,,,,,41724,2021-10-03_03h22.12.565,judgeSpeechMusic_20210919_logNormShiftAmp_detection_fixFreq,2020.1.2,Win32,60,,,,,,,,,,,,,,,,,,,,,,,,,,,,,,1,7.1735,,0,0,31,31,34,1,stimuli/stim_20210919_power2amp/equal_lnn_AM2Hz_s35_42.m4a,,,,,,,,,,,,
,,,,,41724,2021-10-03_03h22.12.565,judgeSpeechMusic_20210919_logNormShiftAmp_detection_fixFreq,2020.1.2,Win32,60,,,,,,,,,,,,,,,,,,,,,,,,,,,,,,2,6.1491,,0,0,32,32,74,1,stimuli/stim_20210919_power2amp/equal_lnn_AM2Hz_s55_46.m4a,,,,,,,,,,,,
,,,,,41724,2021-10-03_03h22.12.565,judgeSpeechMusic_20210919_logNormShiftAmp_detection_fixFreq,2020.1.2,Win32,60,,,,,,,,,,,,,,,,,,,,,,,,,,,,,,1,6.8797,,0,0,33,33,59,1,stimuli/stim_20210919_power2amp/equal_lnn_AM2Hz_s45_32.m4a,,,,,,,,,,,,
,,,,,41724,2021-10-03_03h22.12.565,judgeSpeechMusic_20210919_logNormShiftAmp_detection_fixFreq,2020.1.2,Win32,60,,,,,,,,,,,,,,,,,,,,,,,,,,,,,,1,5.9077,,0,0,34,34,4,1,stimuli/stim_20210919_power2amp/equal_lnn_AM2Hz_s15_43.m4a,,,,,,,,,,,,
,,,,,41724,2021-10-03_03h22.12.565,judgeSpeechMusic_20210919_logNormShiftAmp_detection_fixFreq,2020.1.2,Win32,60,,,,,,,,,,,,,,,,,,,,,,,,,,,,,,2,5.8299,,0,0,35,35,54,1,stimuli/stim_20210919_power2amp/equal_lnn_AM2Hz_s45_16.m4a,,,,,,,,,,,,
,,,,,41724,2021-10-03_03h22.12.565,judgeSpeechMusic_20210919_logNormShiftAmp_detection_fixFreq,2020.1.2,Win32,60,,,,,,,,,,,,,,,,,,,,,,,,,,,,,,1,5.8431,,0,0,36,36,58,1,stimuli/stim_20210919_power2amp/equal_lnn_AM2Hz_s45_7.m4a,,,,,,,,,,,,
,,,,,41724,2021-10-03_03h22.12.565,judgeSpeechMusic_20210919_logNormShiftAmp_detection_fixFreq,2020.1.2,Win32,60,,,,,,,,,,,,,,,,,,,,,,,,,,,,,,1,5.7388,,0,0,37,37,37,1,stimuli/stim_20210919_power2amp/equal_lnn_AM2Hz_s35_11.m4a,,,,,,,,,,,,
,,,,,41724,2021-10-03_03h22.12.565,judgeSpeechMusic_20210919_logNormShiftAmp_detection_fixFreq,2020.1.2,Win32,60,,,,,,,,,,,,,,,,,,,,,,,,,,,,,,2,5.7617,,0,0,38,38,43,1,stimuli/stim_20210919_power2amp/equal_lnn_AM2Hz_s35_26.m4a,,,,,,,,,,,,
,,,,,41724,2021-10-03_03h22.12.565,judgeSpeechMusic_20210919_logNormShiftAmp_detection_fixFreq,2020.1.2,Win32,60,,,,,,,,,,,,,,,,,,,,,,,,,,,,,,1,5.8748,,0,0,39,39,13,1,stimuli/stim_20210919_power2amp/equal_lnn_AM2Hz_s15_25.m4a,,,,,,,,,,,,
,,,,,41724,2021-10-03_03h22.12.565,judgeSpeechMusic_20210919_logNormShiftAmp_detection_fixFreq,2020.1.2,Win32,60,,,,,,,,,,,,,,,,,,,,,,,,,,,,,,2,5.7127,2,1,0,40,40,53,1,stimuli/stim_20210919_power2amp/equal_lnn_AM2Hz_s45_43.m4a,1.1976,,,,,,,,,,,
,,,,,41724,2021-10-03_03h22.12.565,judgeSpeechMusic_20210919_logNormShiftAmp_detection_fixFreq,2020.1.2,Win32,60,,,,,,,,,,,,,,,,,,,,,,,,,,,,,,1,7.5266,,0,0,41,41,39,1,stimuli/stim_20210919_power2amp/equal_lnn_AM2Hz_s35_35.m4a,,,,,,,,,,,,
,,,,,41724,2021-10-03_03h22.12.565,judgeSpeechMusic_20210919_logNormShiftAmp_detection_fixFreq,2020.1.2,Win32,60,,,,,,,,,,,,,,,,,,,,,,,,,,,,,,2,6.172,,0,0,42,42,61,1,stimuli/stim_20210919_power2amp/equal_lnn_AM2Hz_s55_4.m4a,,,,,,,,,,,,
,,,,,41724,2021-10-03_03h22.12.565,judgeSpeechMusic_20210919_logNormShiftAmp_detection_fixFreq,2020.1.2,Win32,60,,,,,,,,,,,,,,,,,,,,,,,,,,,,,,2,10.3159,,0,0,43,43,36,1,stimuli/stim_20210919_power2amp/equal_lnn_AM2Hz_s35_44.m4a,,,,,,,,,,,,
,,,,,41724,2021-10-03_03h22.12.565,judgeSpeechMusic_20210919_logNormShiftAmp_detection_fixFreq,2020.1.2,Win32,60,,,,,,,,,,,,,,,,,,,,,,,,,,,,,,2,5.7032,,0,0,44,44,3,1,stimuli/stim_20210919_power2amp/equal_lnn_AM2Hz_s15_28.m4a,,,,,,,,,,,,
,,,,,41724,2021-10-03_03h22.12.565,judgeSpeechMusic_20210919_logNormShiftAmp_detection_fixFreq,2020.1.2,Win32,60,,,,,,,,,,,,,,,,,,,,,,,,,,,,,,2,6.1563,,0,0,45,45,20,1,stimuli/stim_20210919_power2amp/equal_lnn_AM2Hz_s25_7.m4a,,,,,,,,,,,,
,,,,,41724,2021-10-03_03h22.12.565,judgeSpeechMusic_20210919_logNormShiftAmp_detection_fixFreq,2020.1.2,Win32,60,,,,,,,,,,,,,,,,,,,,,,,,,,,,,,1,6.4157,,0,0,46,46,32,1,stimuli/stim_20210919_power2amp/equal_lnn_AM2Hz_s35_32.m4a,,,,,,,,,,,,
,,,,,41724,2021-10-03_03h22.12.565,judgeSpeechMusic_20210919_logNormShiftAmp_detection_fixFreq,2020.1.2,Win32,60,,,,,,,,,,,,,,,,,,,,,,,,,,,,,,1,5.7827,,0,0,47,47,22,1,stimuli/stim_20210919_power2amp/equal_lnn_AM2Hz_s25_29.m4a,,,,,,,,,,,,
,,,,,41724,2021-10-03_03h22.12.565,judgeSpeechMusic_20210919_logNormShiftAmp_detection_fixFreq,2020.1.2,Win32,60,,,,,,,,,,,,,,,,,,,,,,,,,,,,,,1,6.0382,,0,0,48,48,63,1,stimuli/stim_20210919_power2amp/equal_lnn_AM2Hz_s55_3.m4a,,,,,,,,,,,,
,,,,,41724,2021-10-03_03h22.12.565,judgeSpeechMusic_20210919_logNormShiftAmp_detection_fixFreq,2020.1.2,Win32,60,,,,,,,,,,,,,,,,,,,,,,,,,,,,,,2,5.7763,,0,0,49,49,33,1,stimuli/stim_20210919_power2amp/equal_lnn_AM2Hz_s35_8.m4a,,,,,,,,,,,,
,,,,,41724,2021-10-03_03h22.12.565,judgeSpeechMusic_20210919_logNormShiftAmp_detection_fixFreq,2020.1.2,Win32,60,,,,,,,,,,,,,,,,,,,,,,,,,,,,,,2,5.7157,,0,0,50,50,9,1,stimuli/stim_20210919_power2amp/equal_lnn_AM2Hz_s15_12.m4a,,,,,,,,,,,,
,,,,,41724,2021-10-03_03h22.12.565,judgeSpeechMusic_20210919_logNormShiftAmp_detection_fixFreq,2020.1.2,Win32,60,,,,,,,,,,,,,,,,,,,,,,,,,,,,,,1,5.9953,,0,0,51,51,0,1,stimuli/stim_20210919_power2amp/equal_lnn_AM2Hz_s15_4.m4a,,,,,,,,,,,,
,,,,,41724,2021-10-03_03h22.12.565,judgeSpeechMusic_20210919_logNormShiftAmp_detection_fixFreq,2020.1.2,Win32,60,,,,,,,,,,,,,,,,,,,,,,,,,,,,,,1,6.4036,,0,0,52,52,46,1,stimuli/stim_20210919_power2amp/equal_lnn_AM2Hz_s45_36.m4a,,,,,,,,,,,,
,,,,,41724,2021-10-03_03h22.12.565,judgeSpeechMusic_20210919_logNormShiftAmp_detection_fixFreq,2020.1.2,Win32,60,,,,,,,,,,,,,,,,,,,,,,,,,,,,,,1,7.9136,,0,0,53,53,7,1,stimuli/stim_20210919_power2amp/equal_lnn_AM2Hz_s15_31.m4a,,,,,,,,,,,,
,,,,,41724,2021-10-03_03h22.12.565,judgeSpeechMusic_20210919_logNormShiftAmp_detection_fixFreq,2020.1.2,Win32,60,,,,,,,,,,,,,,,,,,,,,,,,,,,,,,2,6.1653,,0,0,54,54,44,1,stimuli/stim_20210919_power2amp/equal_lnn_AM2Hz_s35_30.m4a,,,,,,,,,,,,
,,,,,41724,2021-10-03_03h22.12.565,judgeSpeechMusic_20210919_logNormShiftAmp_detection_fixFreq,2020.1.2,Win32,60,,,,,,,,,,,,,,,,,,,,,,,,,,,,,,2,6.6554,,0,0,55,55,21,1,stimuli/stim_20210919_power2amp/equal_lnn_AM2Hz_s25_19.m4a,,,,,,,,,,,,
,,,,,41724,2021-10-03_03h22.12.565,judgeSpeechMusic_20210919_logNormShiftAmp_detection_fixFreq,2020.1.2,Win32,60,,,,,,,,,,,,,,,,,,,,,,,,,,,,,,1,6.3624,,0,0,56,56,45,1,stimuli/stim_20210919_power2amp/equal_lnn_AM2Hz_s45_6.m4a,,,,,,,,,,,,
,,,,,41724,2021-10-03_03h22.12.565,judgeSpeechMusic_20210919_logNormShiftAmp_detection_fixFreq,2020.1.2,Win32,60,,,,,,,,,,,,,,,,,,,,,,,,,,,,,,1,6.7055,,0,0,57,57,30,1,stimuli/stim_20210919_power2amp/equal_lnn_AM2Hz_s35_7.m4a,,,,,,,,,,,,
,,,,,41724,2021-10-03_03h22.12.565,judgeSpeechMusic_20210919_logNormShiftAmp_detection_fixFreq,2020.1.2,Win32,60,,,,,,,,,,,,,,,,,,,,,,,,,,,,,,2,6.1414,,0,0,58,58,60,1,stimuli/stim_20210919_power2amp/equal_lnn_AM2Hz_s55_17.m4a,,,,,,,,,,,,
,,,,,41724,2021-10-03_03h22.12.565,judgeSpeechMusic_20210919_logNormShiftAmp_detection_fixFreq,2020.1.2,Win32,60,,,,,,,,,,,,,,,,,,,,,,,,,,,,,,2,8.1141,,0,0,59,59,57,1,stimuli/stim_20210919_power2amp/equal_lnn_AM2Hz_s45_37.m4a,,,,,,,,,,,,
,,,,,41724,2021-10-03_03h22.12.565,judgeSpeechMusic_20210919_logNormShiftAmp_detection_fixFreq,2020.1.2,Win32,60,,,,,,,,,,,,,,,,,,,,,,,,,,,,,,1,6.819,,0,0,60,60,48,1,stimuli/stim_20210919_power2amp/equal_lnn_AM2Hz_s45_24.m4a,,,,,,,,,,,,
,,,,,41724,2021-10-03_03h22.12.565,judgeSpeechMusic_20210919_logNormShiftAmp_detection_fixFreq,2020.1.2,Win32,60,,,,,,,,,,,,,,,,,,,,,,,,,,,,,,2,9.7078,1,1,0,61,61,18,1,stimuli/stim_20210919_power2amp/equal_lnn_AM2Hz_s25_3.m4a,1.1266,,,,,,,,,,,
,,,,,41724,2021-10-03_03h22.12.565,judgeSpeechMusic_20210919_logNormShiftAmp_detection_fixFreq,2020.1.2,Win32,60,,,,,,,,,,,,,,,,,,,,,,,,,,,,,,2,7.9767,,0,0,62,62,19,1,stimuli/stim_20210919_power2amp/equal_lnn_AM2Hz_s25_38.m4a,,,,,,,,,,,,
,,,,,41724,2021-10-03_03h22.12.565,judgeSpeechMusic_20210919_logNormShiftAmp_detection_fixFreq,2020.1.2,Win32,60,,,,,,,,,,,,,,,,,,,,,,,,,,,,,,2,6.6359,,0,0,63,63,51,1,stimuli/stim_20210919_power2amp/equal_lnn_AM2Hz_s45_14.m4a,,,,,,,,,,,,
,,,,,41724,2021-10-03_03h22.12.565,judgeSpeechMusic_20210919_logNormShiftAmp_detection_fixFreq,2020.1.2,Win32,60,,,,,,,,,,,,,,,,,,,,,,,,,,,,,,1,6.9057,,0,0,64,64,55,1,stimuli/stim_20210919_power2amp/equal_lnn_AM2Hz_s45_25.m4a,,,,,,,,,,,,
,,,,,41724,2021-10-03_03h22.12.565,judgeSpeechMusic_20210919_logNormShiftAmp_detection_fixFreq,2020.1.2,Win32,60,,,,,,,,,,,,,,,,,,,,,,,,,,,,,,1,6.2066,,0,0,65,65,26,1,stimuli/stim_20210919_power2amp/equal_lnn_AM2Hz_s25_35.m4a,,,,,,,,,,,,
,,,,,41724,2021-10-03_03h22.12.565,judgeSpeechMusic_20210919_logNormShiftAmp_detection_fixFreq,2020.1.2,Win32,60,,,,,,,,,,,,,,,,,,,,,,,,,,,,,,2,7.9561,,0,0,66,66,52,1,stimuli/stim_20210919_power2amp/equal_lnn_AM2Hz_s45_21.m4a,,,,,,,,,,,,
,,,,,41724,2021-10-03_03h22.12.565,judgeSpeechMusic_20210919_logNormShiftAmp_detection_fixFreq,2020.1.2,Win32,60,,,,,,,,,,,,,,,,,,,,,,,,,,,,,,2,8.41,,0,0,67,67,65,1,stimuli/stim_20210919_power2amp/equal_lnn_AM2Hz_s55_30.m4a,,,,,,,,,,,,
,,,,,41724,2021-10-03_03h22.12.565,judgeSpeechMusic_20210919_logNormShiftAmp_detection_fixFreq,2020.1.2,Win32,60,,,,,,,,,,,,,,,,,,,,,,,,,,,,,,1,6.3604,,0,0,68,68,41,1,stimuli/stim_20210919_power2amp/equal_lnn_AM2Hz_s35_25.m4a,,,,,,,,,,,,
,,,,,41724,2021-10-03_03h22.12.565,judgeSpeechMusic_20210919_logNormShiftAmp_detection_fixFreq,2020.1.2,Win32,60,,,,,,,,,,,,,,,,,,,,,,,,,,,,,,1,7.547,,0,0,69,69,14,1,stimuli/stim_20210919_power2amp/equal_lnn_AM2Hz_s15_14.m4a,,,,,,,,,,,,
,,,,,41724,2021-10-03_03h22.12.565,judgeSpeechMusic_20210919_logNormShiftAmp_detection_fixFreq,2020.1.2,Win32,60,,,,,,,,,,,,,,,,,,,,,,,,,,,,,,2,7.8359,,0,0,70,70,56,1,stimuli/stim_20210919_power2amp/equal_lnn_AM2Hz_s45_2.m4a,,,,,,,,,,,,
,,,,,41724,2021-10-03_03h22.12.565,judgeSpeechMusic_20210919_logNormShiftAmp_detection_fixFreq,2020.1.2,Win32,60,,,,,,,,,,,,,,,,,,,,,,,,,,,,,,2,7.2196,,0,0,71,71,72,1,stimuli/stim_20210919_power2amp/equal_lnn_AM2Hz_s55_38.m4a,,,,,,,,,,,,
,,,,,41724,2021-10-03_03h22.12.565,judgeSpeechMusic_20210919_logNormShiftAmp_detection_fixFreq,2020.1.2,Win32,60,,,,,,,,,,,,,,,,,,,,,,,,,,,,,,1,6.4222,,0,0,72,72,67,1,stimuli/stim_20210919_power2amp/equal_lnn_AM2Hz_s55_41.m4a,,,,,,,,,,,,
,,,,,41724,2021-10-03_03h22.12.565,judgeSpeechMusic_20210919_logNormShiftAmp_detection_fixFreq,2020.1.2,Win32,60,,,,,,,,,,,,,,,,,,,,,,,,,,,,,,1,5.8099,,0,0,73,73,29,1,stimuli/stim_20210919_power2amp/equal_lnn_AM2Hz_s25_40.m4a,,,,,,,,,,,,
,,,,,41724,2021-10-03_03h22.12.565,judgeSpeechMusic_20210919_logNormShiftAmp_detection_fixFreq,2020.1.2,Win32,60,,,,,,,,,,,,,,,,,,,,,,,,,,,,,,2,7.4015,,0,0,74,74,6,1,stimuli/stim_20210919_power2amp/equal_lnn_AM2Hz_s15_21.m4a,,,,,,,,,,,,
,,,,,41724,2021-10-03_03h22.12.565,judgeSpeechMusic_20210919_logNormShiftAmp_detection_fixFreq,2020.1.2,Win32,60,,,,,,,,,,,,,,,,,,,,,,,,,,,,,,,,,,,,,,,,,space,0.8759,0,0,0,1,1,SPEECH,stimuli/SPEECH.jpg,,
,,,,,41724,2021-10-03_03h22.12.565,judgeSpeechMusic_20210919_logNormShiftAmp_detection_fixFreq,2020.1.2,Win32,60,,,,,,,,,,,,,space,0.8173,2,8.8982,,0,0,0,0,2,1,stimuli/stim_20210919_power2amp/equal_lnn_AM_training2Hz_s40.m4a,,,,,,,,,,,,,,,,,,,,,,,,,,,
,,,,,41724,2021-10-03_03h22.12.565,judgeSpeechMusic_20210919_logNormShiftAmp_detection_fixFreq,2020.1.2,Win32,60,,,,,,,,,,,,,,,1,6.0249,,0,0,1,1,1,1,stimuli/stim_20210919_power2amp/equal_lnn_AM_training2Hz_s30.m4a,,,,,,,,,,,,,,,,,,,,,,,,,,,
,,,,,41724,2021-10-03_03h22.12.565,judgeSpeechMusic_20210919_logNormShiftAmp_detection_fixFreq,2020.1.2,Win32,60,,,,,,,,,,,,,,,2,6.059,2,1,0,2,2,3,1,stimuli/stim_20210919_power2amp/equal_lnn_AM_training2Hz_s50.m4a,1.5061,,,,,,,,,,,,,,,,,,,,,,,,,,
,,,,,41724,2021-10-03_03h22.12.565,judgeSpeechMusic_20210919_logNormShiftAmp_detection_fixFreq,2020.1.2,Win32,60,,,,,,,,,,,,,,,2,6.3802,,0,0,3,3,0,1,stimuli/stim_20210919_power2amp/equal_lnn_AM_training2Hz_s20.m4a,,,,,,,,,,,,,,,,,,,,,,,,,,,
,,,,,41724,2021-10-03_03h22.12.565,judgeSpeechMusic_20210919_logNormShiftAmp_detection_fixFreq,2020.1.2,Win32,60,,,,,,,,,,,,,,,,,,,,,,,,,,space,1.2446,space,0.1193,1,7.414,,0,0,0,0,68,1,stimuli/stim_20210919_power2amp/equal_lnn_AM2Hz_s55_11.m4a,,,,,,,,,,,,
,,,,,41724,2021-10-03_03h22.12.565,judgeSpeechMusic_20210919_logNormShiftAmp_detection_fixFreq,2020.1.2,Win32,60,,,,,,,,,,,,,,,,,,,,,,,,,,,,,,2,6.5788,,0,0,1,1,74,1,stimuli/stim_20210919_power2amp/equal_lnn_AM2Hz_s55_46.m4a,,,,,,,,,,,,
,,,,,41724,2021-10-03_03h22.12.565,judgeSpeechMusic_20210919_logNormShiftAmp_detection_fixFreq,2020.1.2,Win32,60,,,,,,,,,,,,,,,,,,,,,,,,,,,,,,2,5.6381,,0,0,2,2,28,1,stimuli/stim_20210919_power2amp/equal_lnn_AM2Hz_s25_44.m4a,,,,,,,,,,,,
,,,,,41724,2021-10-03_03h22.12.565,judgeSpeechMusic_20210919_logNormShiftAmp_detection_fixFreq,2020.1.2,Win32,60,,,,,,,,,,,,,,,,,,,,,,,,,,,,,,2,6.1663,,0,0,3,3,65,1,stimuli/stim_20210919_power2amp/equal_lnn_AM2Hz_s55_30.m4a,,,,,,,,,,,,
,,,,,41724,2021-10-03_03h22.12.565,judgeSpeechMusic_20210919_logNormShiftAmp_detection_fixFreq,2020.1.2,Win32,60,,,,,,,,,,,,,,,,,,,,,,,,,,,,,,2,5.8458,,0,0,4,4,21,1,stimuli/stim_20210919_power2amp/equal_lnn_AM2Hz_s25_19.m4a,,,,,,,,,,,,
,,,,,41724,2021-10-03_03h22.12.565,judgeSpeechMusic_20210919_logNormShiftAmp_detection_fixFreq,2020.1.2,Win32,60,,,,,,,,,,,,,,,,,,,,,,,,,,,,,,2,6.0876,,0,0,5,5,23,1,stimuli/stim_20210919_power2amp/equal_lnn_AM2Hz_s25_25.m4a,,,,,,,,,,,,
,,,,,41724,2021-10-03_03h22.12.565,judgeSpeechMusic_20210919_logNormShiftAmp_detection_fixFreq,2020.1.2,Win32,60,,,,,,,,,,,,,,,,,,,,,,,,,,,,,,1,5.8888,,0,0,6,6,72,1,stimuli/stim_20210919_power2amp/equal_lnn_AM2Hz_s55_38.m4a,,,,,,,,,,,,
,,,,,41724,2021-10-03_03h22.12.565,judgeSpeechMusic_20210919_logNormShiftAmp_detection_fixFreq,2020.1.2,Win32,60,,,,,,,,,,,,,,,,,,,,,,,,,,,,,,1,8.2272,,0,0,7,7,67,1,stimuli/stim_20210919_power2amp/equal_lnn_AM2Hz_s55_41.m4a,,,,,,,,,,,,
,,,,,41724,2021-10-03_03h22.12.565,judgeSpeechMusic_20210919_logNormShiftAmp_detection_fixFreq,2020.1.2,Win32,60,,,,,,,,,,,,,,,,,,,,,,,,,,,,,,2,5.7562,,0,0,8,8,19,1,stimuli/stim_20210919_power2amp/equal_lnn_AM2Hz_s25_38.m4a,,,,,,,,,,,,
,,,,,41724,2021-10-03_03h22.12.565,judgeSpeechMusic_20210919_logNormShiftAmp_detection_fixFreq,2020.1.2,Win32,60,,,,,,,,,,,,,,,,,,,,,,,,,,,,,,2,6.8989,,0,0,9,9,36,1,stimuli/stim_20210919_power2amp/equal_lnn_AM2Hz_s35_44.m4a,,,,,,,,,,,,
,,,,,41724,2021-10-03_03h22.12.565,judgeSpeechMusic_20210919_logNormShiftAmp_detection_fixFreq,2020.1.2,Win32,60,,,,,,,,,,,,,,,,,,,,,,,,,,,,,,1,7.0682,,0,0,10,10,55,1,stimuli/stim_20210919_power2amp/equal_lnn_AM2Hz_s45_25.m4a,,,,,,,,,,,,
,,,,,41724,2021-10-03_03h22.12.565,judgeSpeechMusic_20210919_logNormShiftAmp_detection_fixFreq,2020.1.2,Win32,60,,,,,,,,,,,,,,,,,,,,,,,,,,,,,,1,7.2547,,0,0,11,11,37,1,stimuli/stim_20210919_power2amp/equal_lnn_AM2Hz_s35_11.m4a,,,,,,,,,,,,
,,,,,41724,2021-10-03_03h22.12.565,judgeSpeechMusic_20210919_logNormShiftAmp_detection_fixFreq,2020.1.2,Win32,60,,,,,,,,,,,,,,,,,,,,,,,,,,,,,,2,6.8794,,0,0,12,12,24,1,stimuli/stim_20210919_power2amp/equal_lnn_AM2Hz_s25_6.m4a,,,,,,,,,,,,
,,,,,41724,2021-10-03_03h22.12.565,judgeSpeechMusic_20210919_logNormShiftAmp_detection_fixFreq,2020.1.2,Win32,60,,,,,,,,,,,,,,,,,,,,,,,,,,,,,,2,6.9596,,0,0,13,13,54,1,stimuli/stim_20210919_power2amp/equal_lnn_AM2Hz_s45_16.m4a,,,,,,,,,,,,
,,,,,41724,2021-10-03_03h22.12.565,judgeSpeechMusic_20210919_logNormShiftAmp_detection_fixFreq,2020.1.2,Win32,60,,,,,,,,,,,,,,,,,,,,,,,,,,,,,,1,5.9863,,0,0,14,14,0,1,stimuli/stim_20210919_power2amp/equal_lnn_AM2Hz_s15_4.m4a,,,,,,,,,,,,
,,,,,41724,2021-10-03_03h22.12.565,judgeSpeechMusic_20210919_logNormShiftAmp_detection_fixFreq,2020.1.2,Win32,60,,,,,,,,,,,,,,,,,,,,,,,,,,,,,,2,8.6896,,0,0,15,15,44,1,stimuli/stim_20210919_power2amp/equal_lnn_AM2Hz_s35_30.m4a,,,,,,,,,,,,
,,,,,41724,2021-10-03_03h22.12.565,judgeSpeechMusic_20210919_logNormShiftAmp_detection_fixFreq,2020.1.2,Win32,60,,,,,,,,,,,,,,,,,,,,,,,,,,,,,,1,8.7476,,0,0,16,16,42,1,stimuli/stim_20210919_power2amp/equal_lnn_AM2Hz_s35_48.m4a,,,,,,,,,,,,
,,,,,41724,2021-10-03_03h22.12.565,judgeSpeechMusic_20210919_logNormShiftAmp_detection_fixFreq,2020.1.2,Win32,60,,,,,,,,,,,,,,,,,,,,,,,,,,,,,,1,8.5141,,0,0,17,17,38,1,stimuli/stim_20210919_power2amp/equal_lnn_AM2Hz_s35_37.m4a,,,,,,,,,,,,
,,,,,41724,2021-10-03_03h22.12.565,judgeSpeechMusic_20210919_logNormShiftAmp_detection_fixFreq,2020.1.2,Win32,60,,,,,,,,,,,,,,,,,,,,,,,,,,,,,,2,15.3896,4,1,0,18,18,15,1,stimuli/stim_20210919_power2amp/equal_lnn_AM2Hz_s25_13.m4a,0.7654,,,,,,,,,,,
,,,,,41724,2021-10-03_03h22.12.565,judgeSpeechMusic_20210919_logNormShiftAmp_detection_fixFreq,2020.1.2,Win32,60,,,,,,,,,,,,,,,,,,,,,,,,,,,,,,1,5.7518,,0,0,19,19,39,1,stimuli/stim_20210919_power2amp/equal_lnn_AM2Hz_s35_35.m4a,,,,,,,,,,,,
,,,,,41724,2021-10-03_03h22.12.565,judgeSpeechMusic_20210919_logNormShiftAmp_detection_fixFreq,2020.1.2,Win32,60,,,,,,,,,,,,,,,,,,,,,,,,,,,,,,1,6.8496,,0,0,20,20,66,1,stimuli/stim_20210919_power2amp/equal_lnn_AM2Hz_s55_18.m4a,,,,,,,,,,,,
,,,,,41724,2021-10-03_03h22.12.565,judgeSpeechMusic_20210919_logNormShiftAmp_detection_fixFreq,2020.1.2,Win32,60,,,,,,,,,,,,,,,,,,,,,,,,,,,,,,2,5.7887,,0,0,21,21,20,1,stimuli/stim_20210919_power2amp/equal_lnn_AM2Hz_s25_7.m4a,,,,,,,,,,,,
,,,,,41724,2021-10-03_03h22.12.565,judgeSpeechMusic_20210919_logNormShiftAmp_detection_fixFreq,2020.1.2,Win32,60,,,,,,,,,,,,,,,,,,,,,,,,,,,,,,2,8.7932,,0,0,22,22,32,1,stimuli/stim_20210919_power2amp/equal_lnn_AM2Hz_s35_32.m4a,,,,,,,,,,,,
,,,,,41724,2021-10-03_03h22.12.565,judgeSpeechMusic_20210919_logNormShiftAmp_detection_fixFreq,2020.1.2,Win32,60,,,,,,,,,,,,,,,,,,,,,,,,,,,,,,2,6.8715,,0,0,23,23,29,1,stimuli/stim_20210919_power2amp/equal_lnn_AM2Hz_s25_40.m4a,,,,,,,,,,,,
,,,,,41724,2021-10-03_03h22.12.565,judgeSpeechMusic_20210919_logNormShiftAmp_detection_fixFreq,2020.1.2,Win32,60,,,,,,,,,,,,,,,,,,,,,,,,,,,,,,2,14.6574,,0,0,24,24,52,1,stimuli/stim_20210919_power2amp/equal_lnn_AM2Hz_s45_21.m4a,,,,,,,,,,,,
,,,,,41724,2021-10-03_03h22.12.565,judgeSpeechMusic_20210919_logNormShiftAmp_detection_fixFreq,2020.1.2,Win32,60,,,,,,,,,,,,,,,,,,,,,,,,,,,,,,1,17.9643,,0,0,25,25,17,1,stimuli/stim_20210919_power2amp/equal_lnn_AM2Hz_s25_22.m4a,,,,,,,,,,,,
,,,,,41724,2021-10-03_03h22.12.565,judgeSpeechMusic_20210919_logNormShiftAmp_detection_fixFreq,2020.1.2,Win32,60,,,,,,,,,,,,,,,,,,,,,,,,,,,,,,1,5.9427,,0,0,26,26,13,1,stimuli/stim_20210919_power2amp/equal_lnn_AM2Hz_s15_25.m4a,,,,,,,,,,,,
,,,,,41724,2021-10-03_03h22.12.565,judgeSpeechMusic_20210919_logNormShiftAmp_detection_fixFreq,2020.1.2,Win32,60,,,,,,,,,,,,,,,,,,,,,,,,,,,,,,1,17.2508,,0,0,27,27,71,1,stimuli/stim_20210919_power2amp/equal_lnn_AM2Hz_s55_39.m4a,,,,,,,,,,,,
,,,,,41724,2021-10-03_03h22.12.565,judgeSpeechMusic_20210919_logNormShiftAmp_detection_fixFreq,2020.1.2,Win32,60,,,,,,,,,,,,,,,,,,,,,,,,,,,,,,2,5.8665,,0,0,28,28,16,1,stimuli/stim_20210919_power2amp/equal_lnn_AM2Hz_s25_32.m4a,,,,,,,,,,,,
,,,,,41724,2021-10-03_03h22.12.565,judgeSpeechMusic_20210919_logNormShiftAmp_detection_fixFreq,2020.1.2,Win32,60,,,,,,,,,,,,,,,,,,,,,,,,,,,,,,2,36.1284,,0,0,29,29,63,1,stimuli/stim_20210919_power2amp/equal_lnn_AM2Hz_s55_3.m4a,,,,,,,,,,,,
,,,,,41724,2021-10-03_03h22.12.565,judgeSpeechMusic_20210919_logNormShiftAmp_detection_fixFreq,2020.1.2,Win32,60,,,,,,,,,,,,,,,,,,,,,,,,,,,,,,2,5.9374,,0,0,30,30,7,1,stimuli/stim_20210919_power2amp/equal_lnn_AM2Hz_s15_31.m4a,,,,,,,,,,,,
,,,,,41724,2021-10-03_03h22.12.565,judgeSpeechMusic_20210919_logNormShiftAmp_detection_fixFreq,2020.1.2,Win32,60,,,,,,,,,,,,,,,,,,,,,,,,,,,,,,2,7.0226,,0,0,31,31,62,1,stimuli/stim_20210919_power2amp/equal_lnn_AM2Hz_s55_33.m4a,,,,,,,,,,,,
,,,,,41724,2021-10-03_03h22.12.565,judgeSpeechMusic_20210919_logNormShiftAmp_detection_fixFreq,2020.1.2,Win32,60,,,,,,,,,,,,,,,,,,,,,,,,,,,,,,1,7.1966,,0,0,32,32,50,1,stimuli/stim_20210919_power2amp/equal_lnn_AM2Hz_s45_12.m4a,,,,,,,,,,,,
,,,,,41724,2021-10-03_03h22.12.565,judgeSpeechMusic_20210919_logNormShiftAmp_detection_fixFreq,2020.1.2,Win32,60,,,,,,,,,,,,,,,,,,,,,,,,,,,,,,1,7.8953,,0,0,33,33,25,1,stimuli/stim_20210919_power2amp/equal_lnn_AM2Hz_s25_18.m4a,,,,,,,,,,,,
,,,,,41724,2021-10-03_03h22.12.565,judgeSpeechMusic_20210919_logNormShiftAmp_detection_fixFreq,2020.1.2,Win32,60,,,,,,,,,,,,,,,,,,,,,,,,,,,,,,1,6.5752,,0,0,34,34,73,1,stimuli/stim_20210919_power2amp/equal_lnn_AM2Hz_s55_23.m4a,,,,,,,,,,,,
,,,,,41724,2021-10-03_03h22.12.565,judgeSpeechMusic_20210919_logNormShiftAmp_detection_fixFreq,2020.1.2,Win32,60,,,,,,,,,,,,,,,,,,,,,,,,,,,,,,2,6.0123,,0,0,35,35,34,1,stimuli/stim_20210919_power2amp/equal_lnn_AM2Hz_s35_42.m4a,,,,,,,,,,,,
,,,,,41724,2021-10-03_03h22.12.565,judgeSpeechMusic_20210919_logNormShiftAmp_detection_fixFreq,2020.1.2,Win32,60,,,,,,,,,,,,,,,,,,,,,,,,,,,,,,2,9.288,,0,0,36,36,64,1,stimuli/stim_20210919_power2amp/equal_lnn_AM2Hz_s55_20.m4a,,,,,,,,,,,,
,,,,,41724,2021-10-03_03h22.12.565,judgeSpeechMusic_20210919_logNormShiftAmp_detection_fixFreq,2020.1.2,Win32,60,,,,,,,,,,,,,,,,,,,,,,,,,,,,,,1,7.0326,,0,0,37,37,41,1,stimuli/stim_20210919_power2amp/equal_lnn_AM2Hz_s35_25.m4a,,,,,,,,,,,,
,,,,,41724,2021-10-03_03h22.12.565,judgeSpeechMusic_20210919_logNormShiftAmp_detection_fixFreq,2020.1.2,Win32,60,,,,,,,,,,,,,,,,,,,,,,,,,,,,,,1,7.128,,0,0,38,38,3,1,stimuli/stim_20210919_power2amp/equal_lnn_AM2Hz_s15_28.m4a,,,,,,,,,,,,
,,,,,41724,2021-10-03_03h22.12.565,judgeSpeechMusic_20210919_logNormShiftAmp_detection_fixFreq,2020.1.2,Win32,60,,,,,,,,,,,,,,,,,,,,,,,,,,,,,,1,8.874,,0,0,39,39,61,1,stimuli/stim_20210919_power2amp/equal_lnn_AM2Hz_s55_4.m4a,,,,,,,,,,,,
,,,,,41724,2021-10-03_03h22.12.565,judgeSpeechMusic_20210919_logNormShiftAmp_detection_fixFreq,2020.1.2,Win32,60,,,,,,,,,,,,,,,,,,,,,,,,,,,,,,2,5.5995,3,1,0,40,40,30,1,stimuli/stim_20210919_power2amp/equal_lnn_AM2Hz_s35_7.m4a,2.8298,,,,,,,,,,,
,,,,,41724,2021-10-03_03h22.12.565,judgeSpeechMusic_20210919_logNormShiftAmp_detection_fixFreq,2020.1.2,Win32,60,,,,,,,,,,,,,,,,,,,,,,,,,,,,,,1,6.4225,,0,0,41,41,53,1,stimuli/stim_20210919_power2amp/equal_lnn_AM2Hz_s45_43.m4a,,,,,,,,,,,,
,,,,,41724,2021-10-03_03h22.12.565,judgeSpeechMusic_20210919_logNormShiftAmp_detection_fixFreq,2020.1.2,Win32,60,,,,,,,,,,,,,,,,,,,,,,,,,,,,,,1,6.2575,,0,0,42,42,40,1,stimuli/stim_20210919_power2amp/equal_lnn_AM2Hz_s35_12.m4a,,,,,,,,,,,,
,,,,,41724,2021-10-03_03h22.12.565,judgeSpeechMusic_20210919_logNormShiftAmp_detection_fixFreq,2020.1.2,Win32,60,,,,,,,,,,,,,,,,,,,,,,,,,,,,,,1,7.8167,,0,0,43,43,27,1,stimuli/stim_20210919_power2amp/equal_lnn_AM2Hz_s25_31.m4a,,,,,,,,,,,,
,,,,,41724,2021-10-03_03h22.12.565,judgeSpeechMusic_20210919_logNormShiftAmp_detection_fixFreq,2020.1.2,Win32,60,,,,,,,,,,,,,,,,,,,,,,,,,,,,,,2,5.8183,,0,0,44,44,70,1,stimuli/stim_20210919_power2amp/equal_lnn_AM2Hz_s55_34.m4a,,,,,,,,,,,,
,,,,,41724,2021-10-03_03h22.12.565,judgeSpeechMusic_20210919_logNormShiftAmp_detection_fixFreq,2020.1.2,Win32,60,,,,,,,,,,,,,,,,,,,,,,,,,,,,,,1,6.724,,0,0,45,45,18,1,stimuli/stim_20210919_power2amp/equal_lnn_AM2Hz_s25_3.m4a,,,,,,,,,,,,
,,,,,41724,2021-10-03_03h22.12.565,judgeSpeechMusic_20210919_logNormShiftAmp_detection_fixFreq,2020.1.2,Win32,60,,,,,,,,,,,,,,,,,,,,,,,,,,,,,,2,6.7871,,0,0,46,46,26,1,stimuli/stim_20210919_power2amp/equal_lnn_AM2Hz_s25_35.m4a,,,,,,,,,,,,
,,,,,41724,2021-10-03_03h22.12.565,judgeSpeechMusic_20210919_logNormShiftAmp_detection_fixFreq,2020.1.2,Win32,60,,,,,,,,,,,,,,,,,,,,,,,,,,,,,,1,5.8375,,0,0,47,47,59,1,stimuli/stim_20210919_power2amp/equal_lnn_AM2Hz_s45_32.m4a,,,,,,,,,,,,
,,,,,41724,2021-10-03_03h22.12.565,judgeSpeechMusic_20210919_logNormShiftAmp_detection_fixFreq,2020.1.2,Win32,60,,,,,,,,,,,,,,,,,,,,,,,,,,,,,,2,7.1826,,0,0,48,48,11,1,stimuli/stim_20210919_power2amp/equal_lnn_AM2Hz_s15_45.m4a,,,,,,,,,,,,
,,,,,41724,2021-10-03_03h22.12.565,judgeSpeechMusic_20210919_logNormShiftAmp_detection_fixFreq,2020.1.2,Win32,60,,,,,,,,,,,,,,,,,,,,,,,,,,,,,,2,6.2697,,0,0,49,49,12,1,stimuli/stim_20210919_power2amp/equal_lnn_AM2Hz_s15_16.m4a,,,,,,,,,,,,
,,,,,41724,2021-10-03_03h22.12.565,judgeSpeechMusic_20210919_logNormShiftAmp_detection_fixFreq,2020.1.2,Win32,60,,,,,,,,,,,,,,,,,,,,,,,,,,,,,,2,7.7506,,0,0,50,50,57,1,stimuli/stim_20210919_power2amp/equal_lnn_AM2Hz_s45_37.m4a,,,,,,,,,,,,
,,,,,41724,2021-10-03_03h22.12.565,judgeSpeechMusic_20210919_logNormShiftAmp_detection_fixFreq,2020.1.2,Win32,60,,,,,,,,,,,,,,,,,,,,,,,,,,,,,,1,8.049,,0,0,51,51,6,1,stimuli/stim_20210919_power2amp/equal_lnn_AM2Hz_s15_21.m4a,,,,,,,,,,,,
,,,,,41724,2021-10-03_03h22.12.565,judgeSpeechMusic_20210919_logNormShiftAmp_detection_fixFreq,2020.1.2,Win32,60,,,,,,,,,,,,,,,,,,,,,,,,,,,,,,1,6.3307,,0,0,52,52,58,1,stimuli/stim_20210919_power2amp/equal_lnn_AM2Hz_s45_7.m4a,,,,,,,,,,,,
,,,,,41724,2021-10-03_03h22.12.565,judgeSpeechMusic_20210919_logNormShiftAmp_detection_fixFreq,2020.1.2,Win32,60,,,,,,,,,,,,,,,,,,,,,,,,,,,,,,1,6.5802,,0,0,53,53,22,1,stimuli/stim_20210919_power2amp/equal_lnn_AM2Hz_s25_29.m4a,,,,,,,,,,,,
,,,,,41724,2021-10-03_03h22.12.565,judgeSpeechMusic_20210919_logNormShiftAmp_detection_fixFreq,2020.1.2,Win32,60,,,,,,,,,,,,,,,,,,,,,,,,,,,,,,2,6.2289,,0,0,54,54,33,1,stimuli/stim_20210919_power2amp/equal_lnn_AM2Hz_s35_8.m4a,,,,,,,,,,,,
,,,,,41724,2021-10-03_03h22.12.565,judgeSpeechMusic_20210919_logNormShiftAmp_detection_fixFreq,2020.1.2,Win32,60,,,,,,,,,,,,,,,,,,,,,,,,,,,,,,1,6.1569,,0,0,55,55,51,1,stimuli/stim_20210919_power2amp/equal_lnn_AM2Hz_s45_14.m4a,,,,,,,,,,,,
,,,,,41724,2021-10-03_03h22.12.565,judgeSpeechMusic_20210919_logNormShiftAmp_detection_fixFreq,2020.1.2,Win32,60,,,,,,,,,,,,,,,,,,,,,,,,,,,,,,2,25.8975,,0,0,56,56,49,1,stimuli/stim_20210919_power2amp/equal_lnn_AM2Hz_s45_50.m4a,,,,,,,,,,,,
,,,,,41724,2021-10-03_03h22.12.565,judgeSpeechMusic_20210919_logNormShiftAmp_detection_fixFreq,2020.1.2,Win32,60,,,,,,,,,,,,,,,,,,,,,,,,,,,,,,1,8.3768,,0,0,57,57,5,1,stimuli/stim_20210919_power2amp/equal_lnn_AM2Hz_s15_2.m4a,,,,,,,,,,,,
,,,,,41724,2021-10-03_03h22.12.565,judgeSpeechMusic_20210919_logNormShiftAmp_detection_fixFreq,2020.1.2,Win32,60,,,,,,,,,,,,,,,,,,,,,,,,,,,,,,1,6.9147,,0,0,58,58,43,1,stimuli/stim_20210919_power2amp/equal_lnn_AM2Hz_s35_26.m4a,,,,,,,,,,,,
,,,,,41724,2021-10-03_03h22.12.565,judgeSpeechMusic_20210919_logNormShiftAmp_detection_fixFreq,2020.1.2,Win32,60,,,,,,,,,,,,,,,,,,,,,,,,,,,,,,2,6.5764,,0,0,59,59,48,1,stimuli/stim_20210919_power2amp/equal_lnn_AM2Hz_s45_24.m4a,,,,,,,,,,,,
,,,,,41724,2021-10-03_03h22.12.565,judgeSpeechMusic_20210919_logNormShiftAmp_detection_fixFreq,2020.1.2,Win32,60,,,,,,,,,,,,,,,,,,,,,,,,,,,,,,2,8.4788,,0,0,60,60,69,1,stimuli/stim_20210919_power2amp/equal_lnn_AM2Hz_s55_45.m4a,,,,,,,,,,,,
,,,,,41724,2021-10-03_03h22.12.565,judgeSpeechMusic_20210919_logNormShiftAmp_detection_fixFreq,2020.1.2,Win32,60,,,,,,,,,,,,,,,,,,,,,,,,,,,,,,1,6.9219,2,1,0,61,61,31,1,stimuli/stim_20210919_power2amp/equal_lnn_AM2Hz_s35_40.m4a,1.1153,,,,,,,,,,,
,,,,,41724,2021-10-03_03h22.12.565,judgeSpeechMusic_20210919_logNormShiftAmp_detection_fixFreq,2020.1.2,Win32,60,,,,,,,,,,,,,,,,,,,,,,,,,,,,,,2,6.6156,,0,0,62,62,47,1,stimuli/stim_20210919_power2amp/equal_lnn_AM2Hz_s45_1.m4a,,,,,,,,,,,,
,,,,,41724,2021-10-03_03h22.12.565,judgeSpeechMusic_20210919_logNormShiftAmp_detection_fixFreq,2020.1.2,Win32,60,,,,,,,,,,,,,,,,,,,,,,,,,,,,,,1,6.4115,,0,0,63,63,46,1,stimuli/stim_20210919_power2amp/equal_lnn_AM2Hz_s45_36.m4a,,,,,,,,,,,,
,,,,,41724,2021-10-03_03h22.12.565,judgeSpeechMusic_20210919_logNormShiftAmp_detection_fixFreq,2020.1.2,Win32,60,,,,,,,,,,,,,,,,,,,,,,,,,,,,,,2,5.6603,,0,0,64,64,8,1,stimuli/stim_20210919_power2amp/equal_lnn_AM2Hz_s15_36.m4a,,,,,,,,,,,,
,,,,,41724,2021-10-03_03h22.12.565,judgeSpeechMusic_20210919_logNormShiftAmp_detection_fixFreq,2020.1.2,Win32,60,,,,,,,,,,,,,,,,,,,,,,,,,,,,,,1,7.1215,,0,0,65,65,14,1,stimuli/stim_20210919_power2amp/equal_lnn_AM2Hz_s15_14.m4a,,,,,,,,,,,,
,,,,,41724,2021-10-03_03h22.12.565,judgeSpeechMusic_20210919_logNormShiftAmp_detection_fixFreq,2020.1.2,Win32,60,,,,,,,,,,,,,,,,,,,,,,,,,,,,,,2,7.9144,,0,0,66,66,45,1,stimuli/stim_20210919_power2amp/equal_lnn_AM2Hz_s45_6.m4a,,,,,,,,,,,,
,,,,,41724,2021-10-03_03h22.12.565,judgeSpeechMusic_20210919_logNormShiftAmp_detection_fixFreq,2020.1.2,Win32,60,,,,,,,,,,,,,,,,,,,,,,,,,,,,,,1,10.4973,,0,0,67,67,4,1,stimuli/stim_20210919_power2amp/equal_lnn_AM2Hz_s15_43.m4a,,,,,,,,,,,,
,,,,,41724,2021-10-03_03h22.12.565,judgeSpeechMusic_20210919_logNormShiftAmp_detection_fixFreq,2020.1.2,Win32,60,,,,,,,,,,,,,,,,,,,,,,,,,,,,,,2,5.6205,,0,0,68,68,9,1,stimuli/stim_20210919_power2amp/equal_lnn_AM2Hz_s15_12.m4a,,,,,,,,,,,,
,,,,,41724,2021-10-03_03h22.12.565,judgeSpeechMusic_20210919_logNormShiftAmp_detection_fixFreq,2020.1.2,Win32,60,,,,,,,,,,,,,,,,,,,,,,,,,,,,,,1,8.5872,,0,0,69,69,1,1,stimuli/stim_20210919_power2amp/equal_lnn_AM2Hz_s15_49.m4a,,,,,,,,,,,,
,,,,,41724,2021-10-03_03h22.12.565,judgeSpeechMusic_20210919_logNormShiftAmp_detection_fixFreq,2020.1.2,Win32,60,,,,,,,,,,,,,,,,,,,,,,,,,,,,,,1,5.6395,,0,0,70,70,2,1,stimuli/stim_20210919_power2amp/equal_lnn_AM2Hz_s15_5.m4a,,,,,,,,,,,,
,,,,,41724,2021-10-03_03h22.12.565,judgeSpeechMusic_20210919_logNormShiftAmp_detection_fixFreq,2020.1.2,Win32,60,,,,,,,,,,,,,,,,,,,,,,,,,,,,,,2,6.0921,,0,0,71,71,56,1,stimuli/stim_20210919_power2amp/equal_lnn_AM2Hz_s45_2.m4a,,,,,,,,,,,,
,,,,,41724,2021-10-03_03h22.12.565,judgeSpeechMusic_20210919_logNormShiftAmp_detection_fixFreq,2020.1.2,Win32,60,,,,,,,,,,,,,,,,,,,,,,,,,,,,,,2,5.6539,,0,0,72,72,10,1,stimuli/stim_20210919_power2amp/equal_lnn_AM2Hz_s15_47.m4a,,,,,,,,,,,,
,,,,,41724,2021-10-03_03h22.12.565,judgeSpeechMusic_20210919_logNormShiftAmp_detection_fixFreq,2020.1.2,Win32,60,,,,,,,,,,,,,,,,,,,,,,,,,,,,,,1,5.6124,,0,0,73,73,60,1,stimuli/stim_20210919_power2amp/equal_lnn_AM2Hz_s55_17.m4a,,,,,,,,,,,,
,,,,,41724,2021-10-03_03h22.12.565,judgeSpeechMusic_20210919_logNormShiftAmp_detection_fixFreq,2020.1.2,Win32,60,,,,,,,,,,,,,,,,,,,,,,,,,,,,,,2,5.7243,,0,0,74,74,35,1,stimuli/stim_20210919_power2amp/equal_lnn_AM2Hz_s35_14.m4a,,,,,,,,,,,,
,,,,,41724,2021-10-03_03h22.12.565,judgeSpeechMusic_20210919_logNormShiftAmp_detection_fixFreq,2020.1.2,Win32,60,,,,,,,,,,,,,,,,,,,,,,,,,,,,,,,,,,,,,,,,,space,1.5232,0,1,1,0,1,MUSIC,stimuli/MUSIC.jpg,,
,,,,,41724,2021-10-03_03h22.12.565,judgeSpeechMusic_20210919_logNormShiftAmp_detection_fixFreq,2020.1.2,Win32,60,,,,,,,,,,,,,,,,,,0,0,0,0,1,1,stimuli/stim_20210919_power2amp/equal_lnn_AM_training2Hz_s30.m4a,,,,,,,,,,,,,,,,,,,,,,,,,,,
,,,,,41724,2021-10-03_03h22.12.565,judgeSpeechMusic_20210919_logNormShiftAmp_detection_fixFreq,2020.1.2,Win32,60,,,,,,,,,,,,,,,,,,,,,,,,,,space,1.0015,space,0.4832,1,5.7236,,0,0,0,0,23,1,stimuli/stim_20210919_power2amp/equal_lnn_AM2Hz_s25_25.m4a,,,,,,,,,,,,
,,,,,41724,2021-10-03_03h22.12.565,judgeSpeechMusic_20210919_logNormShiftAmp_detection_fixFreq,2020.1.2,Win32,60,,,,,,,,,,,,,,,,,,,,,,,,,,,,,,2,5.6409,,0,0,1,1,4,1,stimuli/stim_20210919_power2amp/equal_lnn_AM2Hz_s15_43.m4a,,,,,,,,,,,,
,,,,,41724,2021-10-03_03h22.12.565,judgeSpeechMusic_20210919_logNormShiftAmp_detection_fixFreq,2020.1.2,Win32,60,,,,,,,,,,,,,,,,,,,,,,,,,,,,,,2,5.5713,,0,0,2,2,74,1,stimuli/stim_20210919_power2amp/equal_lnn_AM2Hz_s55_46.m4a,,,,,,,,,,,,
,,,,,41724,2021-10-03_03h22.12.565,judgeSpeechMusic_20210919_logNormShiftAmp_detection_fixFreq,2020.1.2,Win32,60,,,,,,,,,,,,,,,,,,,,,,,,,,,,,,1,5.5945,,0,0,3,3,19,1,stimuli/stim_20210919_power2amp/equal_lnn_AM2Hz_s25_38.m4a,,,,,,,,,,,,
,,,,,41724,2021-10-03_03h22.12.565,judgeSpeechMusic_20210919_logNormShiftAmp_detection_fixFreq,2020.1.2,Win32,60,,,,,,,,,,,,,,,,,,,,,,,,,,,,,,1,5.9707,,0,0,4,4,12,1,stimuli/stim_20210919_power2amp/equal_lnn_AM2Hz_s15_16.m4a,,,,,,,,,,,,
,,,,,41724,2021-10-03_03h22.12.565,judgeSpeechMusic_20210919_logNormShiftAmp_detection_fixFreq,2020.1.2,Win32,60,,,,,,,,,,,,,,,,,,,,,,,,,,,,,,2,5.5647,,0,0,5,5,49,1,stimuli/stim_20210919_power2amp/equal_lnn_AM2Hz_s45_50.m4a,,,,,,,,,,,,
,,,,,41724,2021-10-03_03h22.12.565,judgeSpeechMusic_20210919_logNormShiftAmp_detection_fixFreq,2020.1.2,Win32,60,,,,,,,,,,,,,,,,,,,,,,,,,,,,,,2,5.6618,,0,0,6,6,21,1,stimuli/stim_20210919_power2amp/equal_lnn_AM2Hz_s25_19.m4a,,,,,,,,,,,,
,,,,,41724,2021-10-03_03h22.12.565,judgeSpeechMusic_20210919_logNormShiftAmp_detection_fixFreq,2020.1.2,Win32,60,,,,,,,,,,,,,,,,,,,,,,,,,,,,,,2,7.4562,,0,0,7,7,59,1,stimuli/stim_20210919_power2amp/equal_lnn_AM2Hz_s45_32.m4a,,,,,,,,,,,,
,,,,,41724,2021-10-03_03h22.12.565,judgeSpeechMusic_20210919_logNormShiftAmp_detection_fixFreq,2020.1.2,Win32,60,,,,,,,,,,,,,,,,,,,,,,,,,,,,,,1,6.4045,,0,0,8,8,50,1,stimuli/stim_20210919_power2amp/equal_lnn_AM2Hz_s45_12.m4a,,,,,,,,,,,,
,,,,,41724,2021-10-03_03h22.12.565,judgeSpeechMusic_20210919_logNormShiftAmp_detection_fixFreq,2020.1.2,Win32,60,,,,,,,,,,,,,,,,,,,,,,,,,,,,,,1,7.8385,,0,0,9,9,47,1,stimuli/stim_20210919_power2amp/equal_lnn_AM2Hz_s45_1.m4a,,,,,,,,,,,,
,,,,,41724,2021-10-03_03h22.12.565,judgeSpeechMusic_20210919_logNormShiftAmp_detection_fixFreq,2020.1.2,Win32,60,,,,,,,,,,,,,,,,,,,,,,,,,,,,,,1,8.4765,,0,0,10,10,32,1,stimuli/stim_20210919_power2amp/equal_lnn_AM2Hz_s35_32.m4a,,,,,,,,,,,,
,,,,,41724,2021-10-03_03h22.12.565,judgeSpeechMusic_20210919_logNormShiftAmp_detection_fixFreq,2020.1.2,Win32,60,,,,,,,,,,,,,,,,,,,,,,,,,,,,,,1,6.7131,,0,0,11,11,5,1,stimuli/stim_20210919_power2amp/equal_lnn_AM2Hz_s15_2.m4a,,,,,,,,,,,,
,,,,,41724,2021-10-03_03h22.12.565,judgeSpeechMusic_20210919_logNormShiftAmp_detection_fixFreq,2020.1.2,Win32,60,,,,,,,,,,,,,,,,,,,,,,,,,,,,,,1,5.53,,0,0,12,12,63,1,stimuli/stim_20210919_power2amp/equal_lnn_AM2Hz_s55_3.m4a,,,,,,,,,,,,
,,,,,41724,2021-10-03_03h22.12.565,judgeSpeechMusic_20210919_logNormShiftAmp_detection_fixFreq,2020.1.2,Win32,60,,,,,,,,,,,,,,,,,,,,,,,,,,,,,,2,6.2042,,0,0,13,13,57,1,stimuli/stim_20210919_power2amp/equal_lnn_AM2Hz_s45_37.m4a,,,,,,,,,,,,
,,,,,41724,2021-10-03_03h22.12.565,judgeSpeechMusic_20210919_logNormShiftAmp_detection_fixFreq,2020.1.2,Win32,60,,,,,,,,,,,,,,,,,,,,,,,,,,,,,,1,12.4375,,0,0,14,14,62,1,stimuli/stim_20210919_power2amp/equal_lnn_AM2Hz_s55_33.m4a,,,,,,,,,,,,
,,,,,41724,2021-10-03_03h22.12.565,judgeSpeechMusic_20210919_logNormShiftAmp_detection_fixFreq,2020.1.2,Win32,60,,,,,,,,,,,,,,,,,,,,,,,,,,,,,,2,6.1824,,0,0,15,15,30,1,stimuli/stim_20210919_power2amp/equal_lnn_AM2Hz_s35_7.m4a,,,,,,,,,,,,
,,,,,41724,2021-10-03_03h22.12.565,judgeSpeechMusic_20210919_logNormShiftAmp_detection_fixFreq,2020.1.2,Win32,60,,,,,,,,,,,,,,,,,,,,,,,,,,,,,,2,5.781,,0,0,16,16,28,1,stimuli/stim_20210919_power2amp/equal_lnn_AM2Hz_s25_44.m4a,,,,,,,,,,,,
,,,,,41724,2021-10-03_03h22.12.565,judgeSpeechMusic_20210919_logNormShiftAmp_detection_fixFreq,2020.1.2,Win32,60,,,,,,,,,,,,,,,,,,,,,,,,,,,,,,1,9.4899,,0,0,17,17,53,1,stimuli/stim_20210919_power2amp/equal_lnn_AM2Hz_s45_43.m4a,,,,,,,,,,,,
,,,,,41724,2021-10-03_03h22.12.565,judgeSpeechMusic_20210919_logNormShiftAmp_detection_fixFreq,2020.1.2,Win32,60,,,,,,,,,,,,,,,,,,,,,,,,,,,,,,2,6.3131,1,1,0,18,18,25,1,stimuli/stim_20210919_power2amp/equal_lnn_AM2Hz_s25_18.m4a,1.3543,,,,,,,,,,,
,,,,,41724,2021-10-03_03h22.12.565,judgeSpeechMusic_20210919_logNormShiftAmp_detection_fixFreq,2020.1.2,Win32,60,,,,,,,,,,,,,,,,,,,,,,,,,,,,,,1,7.471,,0,0,19,19,51,1,stimuli/stim_20210919_power2amp/equal_lnn_AM2Hz_s45_14.m4a,,,,,,,,,,,,
,,,,,41724,2021-10-03_03h22.12.565,judgeSpeechMusic_20210919_logNormShiftAmp_detection_fixFreq,2020.1.2,Win32,60,,,,,,,,,,,,,,,,,,,,,,,,,,,,,,2,5.7736,,0,0,20,20,39,1,stimuli/stim_20210919_power2amp/equal_lnn_AM2Hz_s35_35.m4a,,,,,,,,,,,,
,,,,,41724,2021-10-03_03h22.12.565,judgeSpeechMusic_20210919_logNormShiftAmp_detection_fixFreq,2020.1.2,Win32,60,,,,,,,,,,,,,,,,,,,,,,,,,,,,,,1,7.2044,,0,0,21,21,22,1,stimuli/stim_20210919_power2amp/equal_lnn_AM2Hz_s25_29.m4a,,,,,,,,,,,,
,,,,,41724,2021-10-03_03h22.12.565,judgeSpeechMusic_20210919_logNormShiftAmp_detection_fixFreq,2020.1.2,Win32,60,,,,,,,,,,,,,,,,,,,,,,,,,,,,,,1,7.1129,,0,0,22,22,2,1,stimuli/stim_20210919_power2amp/equal_lnn_AM2Hz_s15_5.m4a,,,,,,,,,,,,
,,,,,41724,2021-10-03_03h22.12.565,judgeSpeechMusic_20210919_logNormShiftAmp_detection_fixFreq,2020.1.2,Win32,60,,,,,,,,,,,,,,,,,,,,,,,,,,,,,,1,5.7772,,0,0,23,23,11,1,stimuli/stim_20210919_power2amp/equal_lnn_AM2Hz_s15_45.m4a,,,,,,,,,,,,
,,,,,41724,2021-10-03_03h22.12.565,judgeSpeechMusic_20210919_logNormShiftAmp_detection_fixFreq,2020.1.2,Win32,60,,,,,,,,,,,,,,,,,,,,,,,,,,,,,,2,5.813,,0,0,24,24,72,1,stimuli/stim_20210919_power2amp/equal_lnn_AM2Hz_s55_38.m4a,,,,,,,,,,,,
,,,,,41724,2021-10-03_03h22.12.565,judgeSpeechMusic_20210919_logNormShiftAmp_detection_fixFreq,2020.1.2,Win32,60,,,,,,,,,,,,,,,,,,,,,,,,,,,,,,1,10.2652,,0,0,25,25,34,1,stimuli/stim_20210919_power2amp/equal_lnn_AM2Hz_s35_42.m4a,,,,,,,,,,,,
,,,,,41724,2021-10-03_03h22.12.565,judgeSpeechMusic_20210919_logNormShiftAmp_detection_fixFreq,2020.1.2,Win32,60,,,,,,,,,,,,,,,,,,,,,,,,,,,,,,2,5.6885,,0,0,26,26,6,1,stimuli/stim_20210919_power2amp/equal_lnn_AM2Hz_s15_21.m4a,,,,,,,,,,,,
,,,,,41724,2021-10-03_03h22.12.565,judgeSpeechMusic_20210919_logNormShiftAmp_detection_fixFreq,2020.1.2,Win32,60,,,,,,,,,,,,,,,,,,,,,,,,,,,,,,2,5.605,,0,0,27,27,36,1,stimuli/stim_20210919_power2amp/equal_lnn_AM2Hz_s35_44.m4a,,,,,,,,,,,,
,,,,,41724,2021-10-03_03h22.12.565,judgeSpeechMusic_20210919_logNormShiftAmp_detection_fixFreq,2020.1.2,Win32,60,,,,,,,,,,,,,,,,,,,,,,,,,,,,,,1,5.913,,0,0,28,28,10,1,stimuli/stim_20210919_power2amp/equal_lnn_AM2Hz_s15_47.m4a,,,,,,,,,,,,
,,,,,41724,2021-10-03_03h22.12.565,judgeSpeechMusic_20210919_logNormShiftAmp_detection_fixFreq,2020.1.2,Win32,60,,,,,,,,,,,,,,,,,,,,,,,,,,,,,,2,5.5965,,0,0,29,29,29,1,stimuli/stim_20210919_power2amp/equal_lnn_AM2Hz_s25_40.m4a,,,,,,,,,,,,
,,,,,41724,2021-10-03_03h22.12.565,judgeSpeechMusic_20210919_logNormShiftAmp_detection_fixFreq,2020.1.2,Win32,60,,,,,,,,,,,,,,,,,,,,,,,,,,,,,,1,6.7787,,0,0,30,30,20,1,stimuli/stim_20210919_power2amp/equal_lnn_AM2Hz_s25_7.m4a,,,,,,,,,,,,
,,,,,41724,2021-10-03_03h22.12.565,judgeSpeechMusic_20210919_logNormShiftAmp_detection_fixFreq,2020.1.2,Win32,60,,,,,,,,,,,,,,,,,,,,,,,,,,,,,,2,5.5703,,0,0,31,31,41,1,stimuli/stim_20210919_power2amp/equal_lnn_AM2Hz_s35_25.m4a,,,,,,,,,,,,
,,,,,41724,2021-10-03_03h22.12.565,judgeSpeechMusic_20210919_logNormShiftAmp_detection_fixFreq,2020.1.2,Win32,60,,,,,,,,,,,,,,,,,,,,,,,,,,,,,,2,5.9617,,0,0,32,32,65,1,stimuli/stim_20210919_power2amp/equal_lnn_AM2Hz_s55_30.m4a,,,,,,,,,,,,
,,,,,41724,2021-10-03_03h22.12.565,judgeSpeechMusic_20210919_logNormShiftAmp_detection_fixFreq,2020.1.2,Win32,60,,,,,,,,,,,,,,,,,,,,,,,,,,,,,,2,6.3324,,0,0,33,33,67,1,stimuli/stim_20210919_power2amp/equal_lnn_AM2Hz_s55_41.m4a,,,,,,,,,,,,
,,,,,41724,2021-10-03_03h22.12.565,judgeSpeechMusic_20210919_logNormShiftAmp_detection_fixFreq,2020.1.2,Win32,60,,,,,,,,,,,,,,,,,,,,,,,,,,,,,,2,9.1236,,0,0,34,34,18,1,stimuli/stim_20210919_power2amp/equal_lnn_AM2Hz_s25_3.m4a,,,,,,,,,,,,
,,,,,41724,2021-10-03_03h22.12.565,judgeSpeechMusic_20210919_logNormShiftAmp_detection_fixFreq,2020.1.2,Win32,60,,,,,,,,,,,,,,,,,,,,,,,,,,,,,,1,6.2709,,0,0,35,35,54,1,stimuli/stim_20210919_power2amp/equal_lnn_AM2Hz_s45_16.m4a,,,,,,,,,,,,
,,,,,41724,2021-10-03_03h22.12.565,judgeSpeechMusic_20210919_logNormShiftAmp_detection_fixFreq,2020.1.2,Win32,60,,,,,,,,,,,,,,,,,,,,,,,,,,,,,,1,5.9245,,0,0,36,36,26,1,stimuli/stim_20210919_power2amp/equal_lnn_AM2Hz_s25_35.m4a,,,,,,,,,,,,
,,,,,41724,2021-10-03_03h22.12.565,judgeSpeechMusic_20210919_logNormShiftAmp_detection_fixFreq,2020.1.2,Win32,60,,,,,,,,,,,,,,,,,,,,,,,,,,,,,,1,8.6559,,0,0,37,37,46,1,stimuli/stim_20210919_power2amp/equal_lnn_AM2Hz_s45_36.m4a,,,,,,,,,,,,
,,,,,41724,2021-10-03_03h22.12.565,judgeSpeechMusic_20210919_logNormShiftAmp_detection_fixFreq,2020.1.2,Win32,60,,,,,,,,,,,,,,,,,,,,,,,,,,,,,,2,5.611,,0,0,38,38,17,1,stimuli/stim_20210919_power2amp/equal_lnn_AM2Hz_s25_22.m4a,,,,,,,,,,,,
,,,,,41724,2021-10-03_03h22.12.565,judgeSpeechMusic_20210919_logNormShiftAmp_detection_fixFreq,2020.1.2,Win32,60,,,,,,,,,,,,,,,,,,,,,,,,,,,,,,2,5.9051,,0,0,39,39,42,1,stimuli/stim_20210919_power2amp/equal_lnn_AM2Hz_s35_48.m4a,,,,,,,,,,,,
,,,,,41724,2021-10-03_03h22.12.565,judgeSpeechMusic_20210919_logNormShiftAmp_detection_fixFreq,2020.1.2,Win32,60,,,,,,,,,,,,,,,,,,,,,,,,,,,,,,1,7.0564,3,1,0,40,40,15,1,stimuli/stim_20210919_power2amp/equal_lnn_AM2Hz_s25_13.m4a,1.4477,,,,,,,,,,,
,,,,,41724,2021-10-03_03h22.12.565,judgeSpeechMusic_20210919_logNormShiftAmp_detection_fixFreq,2020.1.2,Win32,60,,,,,,,,,,,,,,,,,,,,,,,,,,,,,,2,8.8052,,0,0,41,41,38,1,stimuli/stim_20210919_power2amp/equal_lnn_AM2Hz_s35_37.m4a,,,,,,,,,,,,
,,,,,41724,2021-10-03_03h22.12.565,judgeSpeechMusic_20210919_logNormShiftAmp_detection_fixFreq,2020.1.2,Win32,60,,,,,,,,,,,,,,,,,,,,,,,,,,,,,,1,5.697,,0,0,42,42,7,1,stimuli/stim_20210919_power2amp/equal_lnn_AM2Hz_s15_31.m4a,,,,,,,,,,,,
,,,,,41724,2021-10-03_03h22.12.565,judgeSpeechMusic_20210919_logNormShiftAmp_detection_fixFreq,2020.1.2,Win32,60,,,,,,,,,,,,,,,,,,,,,,,,,,,,,,2,5.5975,,0,0,43,43,8,1,stimuli/stim_20210919_power2amp/equal_lnn_AM2Hz_s15_36.m4a,,,,,,,,,,,,
,,,,,41724,2021-10-03_03h22.12.565,judgeSpeechMusic_20210919_logNormShiftAmp_detection_fixFreq,2020.1.2,Win32,60,,,,,,,,,,,,,,,,,,,,,,,,,,,,,,2,5.6712,,0,0,44,44,43,1,stimuli/stim_20210919_power2amp/equal_lnn_AM2Hz_s35_26.m4a,,,,,,,,,,,,
,,,,,41724,2021-10-03_03h22.12.565,judgeSpeechMusic_20210919_logNormShiftAmp_detection_fixFreq,2020.1.2,Win32,60,,,,,,,,,,,,,,,,,,,,,,,,,,,,,,2,6.6545,,0,0,45,45,70,1,stimuli/stim_20210919_power2amp/equal_lnn_AM2Hz_s55_34.m4a,,,,,,,,,,,,
,,,,,41724,2021-10-03_03h22.12.565,judgeSpeechMusic_20210919_logNormShiftAmp_detection_fixFreq,2020.1.2,Win32,60,,,,,,,,,,,,,,,,,,,,,,,,,,,,,,1,6.7229,,0,0,46,46,71,1,stimuli/stim_20210919_power2amp/equal_lnn_AM2Hz_s55_39.m4a,,,,,,,,,,,,
,,,,,41724,2021-10-03_03h22.12.565,judgeSpeechMusic_20210919_logNormShiftAmp_detection_fixFreq,2020.1.2,Win32,60,,,,,,,,,,,,,,,,,,,,,,,,,,,,,,2,6.2626,,0,0,47,47,58,1,stimuli/stim_20210919_power2amp/equal_lnn_AM2Hz_s45_7.m4a,,,,,,,,,,,,
,,,,,41724,2021-10-03_03h22.12.565,judgeSpeechMusic_20210919_logNormShiftAmp_detection_fixFreq,2020.1.2,Win32,60,,,,,,,,,,,,,,,,,,,,,,,,,,,,,,1,6.7894,,0,0,48,48,45,1,stimuli/stim_20210919_power2amp/equal_lnn_AM2Hz_s45_6.m4a,,,,,,,,,,,,
,,,,,41724,2021-10-03_03h22.12.565,judgeSpeechMusic_20210919_logNormShiftAmp_detection_fixFreq,2020.1.2,Win32,60,,,,,,,,,,,,,,,,,,,,,,,,,,,,,,2,5.6876,,0,0,49,49,69,1,stimuli/stim_20210919_power2amp/equal_lnn_AM2Hz_s55_45.m4a,,,,,,,,,,,,
,,,,,41724,2021-10-03_03h22.12.565,judgeSpeechMusic_20210919_logNormShiftAmp_detection_fixFreq,2020.1.2,Win32,60,,,,,,,,,,,,,,,,,,,,,,,,,,,,,,2,7.9451,,0,0,50,50,48,1,stimuli/stim_20210919_power2amp/equal_lnn_AM2Hz_s45_24.m4a,,,,,,,,,,,,
,,,,,41724,2021-10-03_03h22.12.565,judgeSpeechMusic_20210919_logNormShiftAmp_detection_fixFreq,2020.1.2,Win32,60,,,,,,,,,,,,,,,,,,,,,,,,,,,,,,1,5.8551,,0,0,51,51,13,1,stimuli/stim_20210919_power2amp/equal_lnn_AM2Hz_s15_25.m4a,,,,,,,,,,,,
,,,,,41724,2021-10-03_03h22.12.565,judgeSpeechMusic_20210919_logNormShiftAmp_detection_fixFreq,2020.1.2,Win32,60,,,,,,,,,,,,,,,,,,,,,,,,,,,,,,1,6.9279,,0,0,52,52,68,1,stimuli/stim_20210919_power2amp/equal_lnn_AM2Hz_s55_11.m4a,,,,,,,,,,,,
,,,,,41724,2021-10-03_03h22.12.565,judgeSpeechMusic_20210919_logNormShiftAmp_detection_fixFreq,2020.1.2,Win32,60,,,,,,,,,,,,,,,,,,,,,,,,,,,,,,2,6.6654,,0,0,53,53,37,1,stimuli/stim_20210919_power2amp/equal_lnn_AM2Hz_s35_11.m4a,,,,,,,,,,,,
,,,,,41724,2021-10-03_03h22.12.565,judgeSpeechMusic_20210919_logNormShiftAmp_detection_fixFreq,2020.1.2,Win32,60,,,,,,,,,,,,,,,,,,,,,,,,,,,,,,2,7.076,,0,0,54,54,27,1,stimuli/stim_20210919_power2amp/equal_lnn_AM2Hz_s25_31.m4a,,,,,,,,,,,,
,,,,,41724,2021-10-03_03h22.12.565,judgeSpeechMusic_20210919_logNormShiftAmp_detection_fixFreq,2020.1.2,Win32,60,,,,,,,,,,,,,,,,,,,,,,,,,,,,,,1,6.2798,,0,0,55,55,14,1,stimuli/stim_20210919_power2amp/equal_lnn_AM2Hz_s15_14.m4a,,,,,,,,,,,,
,,,,,41724,2021-10-03_03h22.12.565,judgeSpeechMusic_20210919_logNormShiftAmp_detection_fixFreq,2020.1.2,Win32,60,,,,,,,,,,,,,,,,,,,,,,,,,,,,,,1,6.3387,,0,0,56,56,0,1,stimuli/stim_20210919_power2amp/equal_lnn_AM2Hz_s15_4.m4a,,,,,,,,,,,,
,,,,,41724,2021-10-03_03h22.12.565,judgeSpeechMusic_20210919_logNormShiftAmp_detection_fixFreq,2020.1.2,Win32,60,,,,,,,,,,,,,,,,,,,,,,,,,,,,,,2,7.3727,,0,0,57,57,73,1,stimuli/stim_20210919_power2amp/equal_lnn_AM2Hz_s55_23.m4a,,,,,,,,,,,,
,,,,,41724,2021-10-03_03h22.12.565,judgeSpeechMusic_20210919_logNormShiftAmp_detection_fixFreq,2020.1.2,Win32,60,,,,,,,,,,,,,,,,,,,,,,,,,,,,,,1,32.1965,,0,0,58,58,55,1,stimuli/stim_20210919_power2amp/equal_lnn_AM2Hz_s45_25.m4a,,,,,,,,,,,,
,,,,,41724,2021-10-03_03h22.12.565,judgeSpeechMusic_20210919_logNormShiftAmp_detection_fixFreq,2020.1.2,Win32,60,,,,,,,,,,,,,,,,,,,,,,,,,,,,,,2,5.8493,,0,0,59,59,61,1,stimuli/stim_20210919_power2amp/equal_lnn_AM2Hz_s55_4.m4a,,,,,,,,,,,,
,,,,,41724,2021-10-03_03h22.12.565,judgeSpeechMusic_20210919_logNormShiftAmp_detection_fixFreq,2020.1.2,Win32,60,,,,,,,,,,,,,,,,,,,,,,,,,,,,,,1,6.3169,,0,0,60,60,64,1,stimuli/stim_20210919_power2amp/equal_lnn_AM2Hz_s55_20.m4a,,,,,,,,,,,,
,,,,,41724,2021-10-03_03h22.12.565,judgeSpeechMusic_20210919_logNormShiftAmp_detection_fixFreq,2020.1.2,Win32,60,,,,,,,,,,,,,,,,,,,,,,,,,,,,,,2,5.8312,2,1,0,61,61,3,1,stimuli/stim_20210919_power2amp/equal_lnn_AM2Hz_s15_28.m4a,0.8506,,,,,,,,,,,
,,,,,41724,2021-10-03_03h22.12.565,judgeSpeechMusic_20210919_logNormShiftAmp_detection_fixFreq,2020.1.2,Win32,60,,,,,,,,,,,,,,,,,,,,,,,,,,,,,,1,10.2939,,0,0,62,62,9,1,stimuli/stim_20210919_power2amp/equal_lnn_AM2Hz_s15_12.m4a,,,,,,,,,,,,
,,,,,41724,2021-10-03_03h22.12.565,judgeSpeechMusic_20210919_logNormShiftAmp_detection_fixFreq,2020.1.2,Win32,60,,,,,,,,,,,,,,,,,,,,,,,,,,,,,,1,8.347,,0,0,63,63,24,1,stimuli/stim_20210919_power2amp/equal_lnn_AM2Hz_s25_6.m4a,,,,,,,,,,,,
,,,,,41724,2021-10-03_03h22.12.565,judgeSpeechMusic_20210919_logNormShiftAmp_detection_fixFreq,2020.1.2,Win32,60,,,,,,,,,,,,,,,,,,,,,,,,,,,,,,1,7.2946,,0,0,64,64,60,1,stimuli/stim_20210919_power2amp/equal_lnn_AM2Hz_s55_17.m4a,,,,,,,,,,,,
,,,,,41724,2021-10-03_03h22.12.565,judgeSpeechMusic_20210919_logNormShiftAmp_detection_fixFreq,2020.1.2,Win32,60,,,,,,,,,,,,,,,,,,,,,,,,,,,,,,2,5.656,,0,0,65,65,56,1,stimuli/stim_20210919_power2amp/equal_lnn_AM2Hz_s45_2.m4a,,,,,,,,,,,,
,,,,,41724,2021-10-03_03h22.12.565,judgeSpeechMusic_20210919_logNormShiftAmp_detection_fixFreq,2020.1.2,Win32,60,,,,,,,,,,,,,,,,,,,,,,,,,,,,,,2,7.7494,,0,0,66,66,35,1,stimuli/stim_20210919_power2amp/equal_lnn_AM2Hz_s35_14.m4a,,,,,,,,,,,,
,,,,,41724,2021-10-03_03h22.12.565,judgeSpeechMusic_20210919_logNormShiftAmp_detection_fixFreq,2020.1.2,Win32,60,,,,,,,,,,,,,,,,,,,,,,,,,,,,,,1,6.2202,,0,0,67,67,33,1,stimuli/stim_20210919_power2amp/equal_lnn_AM2Hz_s35_8.m4a,,,,,,,,,,,,
,,,,,41724,2021-10-03_03h22.12.565,judgeSpeechMusic_20210919_logNormShiftAmp_detection_fixFreq,2020.1.2,Win32,60,,,,,,,,,,,,,,,,,,,,,,,,,,,,,,2,8.5924,,0,0,68,68,52,1,stimuli/stim_20210919_power2amp/equal_lnn_AM2Hz_s45_21.m4a,,,,,,,,,,,,
,,,,,41724,2021-10-03_03h22.12.565,judgeSpeechMusic_20210919_logNormShiftAmp_detection_fixFreq,2020.1.2,Win32,60,,,,,,,,,,,,,,,,,,,,,,,,,,,,,,1,5.6066,,0,0,69,69,1,1,stimuli/stim_20210919_power2amp/equal_lnn_AM2Hz_s15_49.m4a,,,,,,,,,,,,
,,,,,41724,2021-10-03_03h22.12.565,judgeSpeechMusic_20210919_logNormShiftAmp_detection_fixFreq,2020.1.2,Win32,60,,,,,,,,,,,,,,,,,,,,,,,,,,,,,,2,6.3782,,0,0,70,70,66,1,stimuli/stim_20210919_power2amp/equal_lnn_AM2Hz_s55_18.m4a,,,,,,,,,,,,
,,,,,41724,2021-10-03_03h22.12.565,judgeSpeechMusic_20210919_logNormShiftAmp_detection_fixFreq,2020.1.2,Win32,60,,,,,,,,,,,,,,,,,,,,,,,,,,,,,,1,6.9404,,0,0,71,71,31,1,stimuli/stim_20210919_power2amp/equal_lnn_AM2Hz_s35_40.m4a,,,,,,,,,,,,
,,,,,41724,2021-10-03_03h22.12.565,judgeSpeechMusic_20210919_logNormShiftAmp_detection_fixFreq,2020.1.2,Win32,60,,,,,,,,,,,,,,,,,,,,,,,,,,,,,,2,9.7781,,0,0,72,72,44,1,stimuli/stim_20210919_power2amp/equal_lnn_AM2Hz_s35_30.m4a,,,,,,,,,,,,
,,,,,41724,2021-10-03_03h22.12.565,judgeSpeechMusic_20210919_logNormShiftAmp_detection_fixFreq,2020.1.2,Win32,60,,,,,,,,,,,,,,,,,,,,,,,,,,,,,,1,13.7566,,0,0,73,73,16,1,stimuli/stim_20210919_power2amp/equal_lnn_AM2Hz_s25_32.m4a,,,,,,,,,,,,
,,,,,41724,2021-10-03_03h22.12.565,judgeSpeechMusic_20210919_logNormShiftAmp_detection_fixFreq,2020.1.2,Win32,60,,,,,,,,,,,,,,,,,,,,,,,,,,,,,,1,7.7316,,0,0,74,74,40,1,stimuli/stim_20210919_power2amp/equal_lnn_AM2Hz_s35_12.m4a,,,,,,,,,,,,
,,,,,41724,2021-10-03_03h22.12.565,judgeSpeechMusic_20210919_logNormShiftAmp_detection_fixFreq,2020.1.2,Win32,60,,,,,,,,,,,,,,,,,,,,,,,,,,,,,,,,,,,,,,,,,space,0.6427,1,0,2,1,1,SPEECH,stimuli/SPEECH.jpg,,
,,,,,41724,2021-10-03_03h22.12.565,judgeSpeechMusic_20210919_logNormShiftAmp_detection_fixFreq,2020.1.2,Win32,60,,,,,,,,,,,,,,,,,,0,0,0,0,3,1,stimuli/stim_20210919_power2amp/equal_lnn_AM_training2Hz_s50.m4a,,,,,,,,,,,,,,,,,,,,,,,,,,,
,,,,,41724,2021-10-03_03h22.12.565,judgeSpeechMusic_20210919_logNormShiftAmp_detection_fixFreq,2020.1.2,Win32,60,,,,,,,,,,,,,,,,,,,,,,,,,,space,0.6885,space,22.8084,2,6.9052,,0,0,0,0,32,1,stimuli/stim_20210919_power2amp/equal_lnn_AM2Hz_s35_32.m4a,,,,,,,,,,,,
,,,,,41724,2021-10-03_03h22.12.565,judgeSpeechMusic_20210919_logNormShiftAmp_detection_fixFreq,2020.1.2,Win32,60,,,,,,,,,,,,,,,,,,,,,,,,,,,,,,2,5.7094,,0,0,1,1,9,1,stimuli/stim_20210919_power2amp/equal_lnn_AM2Hz_s15_12.m4a,,,,,,,,,,,,
,,,,,41724,2021-10-03_03h22.12.565,judgeSpeechMusic_20210919_logNormShiftAmp_detection_fixFreq,2020.1.2,Win32,60,,,,,,,,,,,,,,,,,,,,,,,,,,,,,,1,5.826,,0,0,2,2,1,1,stimuli/stim_20210919_power2amp/equal_lnn_AM2Hz_s15_49.m4a,,,,,,,,,,,,
,,,,,41724,2021-10-03_03h22.12.565,judgeSpeechMusic_20210919_logNormShiftAmp_detection_fixFreq,2020.1.2,Win32,60,,,,,,,,,,,,,,,,,,,,,,,,,,,,,,2,5.6739,,0,0,3,3,24,1,stimuli/stim_20210919_power2amp/equal_lnn_AM2Hz_s25_6.m4a,,,,,,,,,,,,
,,,,,41724,2021-10-03_03h22.12.565,judgeSpeechMusic_20210919_logNormShiftAmp_detection_fixFreq,2020.1.2,Win32,60,,,,,,,,,,,,,,,,,,,,,,,,,,,,,,2,5.9599,,0,0,4,4,18,1,stimuli/stim_20210919_power2amp/equal_lnn_AM2Hz_s25_3.m4a,,,,,,,,,,,,
,,,,,41724,2021-10-03_03h22.12.565,judgeSpeechMusic_20210919_logNormShiftAmp_detection_fixFreq,2020.1.2,Win32,60,,,,,,,,,,,,,,,,,,,,,,,,,,,,,,1,6.0393,,0,0,5,5,33,1,stimuli/stim_20210919_power2amp/equal_lnn_AM2Hz_s35_8.m4a,,,,,,,,,,,,
,,,,,41724,2021-10-03_03h22.12.565,judgeSpeechMusic_20210919_logNormShiftAmp_detection_fixFreq,2020.1.2,Win32,60,,,,,,,,,,,,,,,,,,,,,,,,,,,,,,2,5.7384,,0,0,6,6,62,1,stimuli/stim_20210919_power2amp/equal_lnn_AM2Hz_s55_33.m4a,,,,,,,,,,,,
,,,,,41724,2021-10-03_03h22.12.565,judgeSpeechMusic_20210919_logNormShiftAmp_detection_fixFreq,2020.1.2,Win32,60,,,,,,,,,,,,,,,,,,,,,,,,,,,,,,1,6.0961,,0,0,7,7,49,1,stimuli/stim_20210919_power2amp/equal_lnn_AM2Hz_s45_50.m4a,,,,,,,,,,,,
,,,,,41724,2021-10-03_03h22.12.565,judgeSpeechMusic_20210919_logNormShiftAmp_detection_fixFreq,2020.1.2,Win32,60,,,,,,,,,,,,,,,,,,,,,,,,,,,,,,1,5.704,,0,0,8,8,28,1,stimuli/stim_20210919_power2amp/equal_lnn_AM2Hz_s25_44.m4a,,,,,,,,,,,,
,,,,,41724,2021-10-03_03h22.12.565,judgeSpeechMusic_20210919_logNormShiftAmp_detection_fixFreq,2020.1.2,Win32,60,,,,,,,,,,,,,,,,,,,,,,,,,,,,,,2,5.8207,,0,0,9,9,57,1,stimuli/stim_20210919_power2amp/equal_lnn_AM2Hz_s45_37.m4a,,,,,,,,,,,,
,,,,,41724,2021-10-03_03h22.12.565,judgeSpeechMusic_20210919_logNormShiftAmp_detection_fixFreq,2020.1.2,Win32,60,,,,,,,,,,,,,,,,,,,,,,,,,,,,,,2,5.8751,,0,0,10,10,35,1,stimuli/stim_20210919_power2amp/equal_lnn_AM2Hz_s35_14.m4a,,,,,,,,,,,,
,,,,,41724,2021-10-03_03h22.12.565,judgeSpeechMusic_20210919_logNormShiftAmp_detection_fixFreq,2020.1.2,Win32,60,,,,,,,,,,,,,,,,,,,,,,,,,,,,,,2,5.5568,,0,0,11,11,66,1,stimuli/stim_20210919_power2amp/equal_lnn_AM2Hz_s55_18.m4a,,,,,,,,,,,,
,,,,,41724,2021-10-03_03h22.12.565,judgeSpeechMusic_20210919_logNormShiftAmp_detection_fixFreq,2020.1.2,Win32,60,,,,,,,,,,,,,,,,,,,,,,,,,,,,,,1,5.764,,0,0,12,12,36,1,stimuli/stim_20210919_power2amp/equal_lnn_AM2Hz_s35_44.m4a,,,,,,,,,,,,
,,,,,41724,2021-10-03_03h22.12.565,judgeSpeechMusic_20210919_logNormShiftAmp_detection_fixFreq,2020.1.2,Win32,60,,,,,,,,,,,,,,,,,,,,,,,,,,,,,,2,5.6722,,0,0,13,13,0,1,stimuli/stim_20210919_power2amp/equal_lnn_AM2Hz_s15_4.m4a,,,,,,,,,,,,
,,,,,41724,2021-10-03_03h22.12.565,judgeSpeechMusic_20210919_logNormShiftAmp_detection_fixFreq,2020.1.2,Win32,60,,,,,,,,,,,,,,,,,,,,,,,,,,,,,,2,6.9279,,0,0,14,14,10,1,stimuli/stim_20210919_power2amp/equal_lnn_AM2Hz_s15_47.m4a,,,,,,,,,,,,
,,,,,41724,2021-10-03_03h22.12.565,judgeSpeechMusic_20210919_logNormShiftAmp_detection_fixFreq,2020.1.2,Win32,60,,,,,,,,,,,,,,,,,,,,,,,,,,,,,,1,7.7435,,0,0,15,15,50,1,stimuli/stim_20210919_power2amp/equal_lnn_AM2Hz_s45_12.m4a,,,,,,,,,,,,
,,,,,41724,2021-10-03_03h22.12.565,judgeSpeechMusic_20210919_logNormShiftAmp_detection_fixFreq,2020.1.2,Win32,60,,,,,,,,,,,,,,,,,,,,,,,,,,,,,,1,7.0986,,0,0,16,16,13,1,stimuli/stim_20210919_power2amp/equal_lnn_AM2Hz_s15_25.m4a,,,,,,,,,,,,
,,,,,41724,2021-10-03_03h22.12.565,judgeSpeechMusic_20210919_logNormShiftAmp_detection_fixFreq,2020.1.2,Win32,60,,,,,,,,,,,,,,,,,,,,,,,,,,,,,,1,5.7323,,0,0,17,17,55,1,stimuli/stim_20210919_power2amp/equal_lnn_AM2Hz_s45_25.m4a,,,,,,,,,,,,
,,,,,41724,2021-10-03_03h22.12.565,judgeSpeechMusic_20210919_logNormShiftAmp_detection_fixFreq,2020.1.2,Win32,60,,,,,,,,,,,,,,,,,,,,,,,,,,,,,,1,5.7189,1,1,0,18,18,44,1,stimuli/stim_20210919_power2amp/equal_lnn_AM2Hz_s35_30.m4a,0.7229,,,,,,,,,,,
,,,,,41724,2021-10-03_03h22.12.565,judgeSpeechMusic_20210919_logNormShiftAmp_detection_fixFreq,2020.1.2,Win32,60,,,,,,,,,,,,,,,,,,,,,,,,,,,,,,2,8.5999,,0,0,19,19,17,1,stimuli/stim_20210919_power2amp/equal_lnn_AM2Hz_s25_22.m4a,,,,,,,,,,,,
,,,,,41724,2021-10-03_03h22.12.565,judgeSpeechMusic_20210919_logNormShiftAmp_detection_fixFreq,2020.1.2,Win32,60,,,,,,,,,,,,,,,,,,,,,,,,,,,,,,1,6.3687,,0,0,20,20,43,1,stimuli/stim_20210919_power2amp/equal_lnn_AM2Hz_s35_26.m4a,,,,,,,,,,,,
,,,,,41724,2021-10-03_03h22.12.565,judgeSpeechMusic_20210919_logNormShiftAmp_detection_fixFreq,2020.1.2,Win32,60,,,,,,,,,,,,,,,,,,,,,,,,,,,,,,2,6.3876,,0,0,21,21,30,1,stimuli/stim_20210919_power2amp/equal_lnn_AM2Hz_s35_7.m4a,,,,,,,,,,,,
,,,,,41724,2021-10-03_03h22.12.565,judgeSpeechMusic_20210919_logNormShiftAmp_detection_fixFreq,2020.1.2,Win32,60,,,,,,,,,,,,,,,,,,,,,,,,,,,,,,1,6.77,,0,0,22,22,19,1,stimuli/stim_20210919_power2amp/equal_lnn_AM2Hz_s25_38.m4a,,,,,,,,,,,,
,,,,,41724,2021-10-03_03h22.12.565,judgeSpeechMusic_20210919_logNormShiftAmp_detection_fixFreq,2020.1.2,Win32,60,,,,,,,,,,,,,,,,,,,,,,,,,,,,,,1,5.6549,,0,0,23,23,37,1,stimuli/stim_20210919_power2amp/equal_lnn_AM2Hz_s35_11.m4a,,,,,,,,,,,,
,,,,,41724,2021-10-03_03h22.12.565,judgeSpeechMusic_20210919_logNormShiftAmp_detection_fixFreq,2020.1.2,Win32,60,,,,,,,,,,,,,,,,,,,,,,,,,,,,,,2,8.6729,,0,0,24,24,59,1,stimuli/stim_20210919_power2amp/equal_lnn_AM2Hz_s45_32.m4a,,,,,,,,,,,,
,,,,,41724,2021-10-03_03h22.12.565,judgeSpeechMusic_20210919_logNormShiftAmp_detection_fixFreq,2020.1.2,Win32,60,,,,,,,,,,,,,,,,,,,,,,,,,,,,,,2,5.8916,,0,0,25,25,34,1,stimuli/stim_20210919_power2amp/equal_lnn_AM2Hz_s35_42.m4a,,,,,,,,,,,,
,,,,,41724,2021-10-03_03h22.12.565,judgeSpeechMusic_20210919_logNormShiftAmp_detection_fixFreq,2020.1.2,Win32,60,,,,,,,,,,,,,,,,,,,,,,,,,,,,,,2,6.6249,,0,0,26,26,7,1,stimuli/stim_20210919_power2amp/equal_lnn_AM2Hz_s15_31.m4a,,,,,,,,,,,,
,,,,,41724,2021-10-03_03h22.12.565,judgeSpeechMusic_20210919_logNormShiftAmp_detection_fixFreq,2020.1.2,Win32,60,,,,,,,,,,,,,,,,,,,,,,,,,,,,,,1,8.8882,,0,0,27,27,73,1,stimuli/stim_20210919_power2amp/equal_lnn_AM2Hz_s55_23.m4a,,,,,,,,,,,,
,,,,,41724,2021-10-03_03h22.12.565,judgeSpeechMusic_20210919_logNormShiftAmp_detection_fixFreq,2020.1.2,Win32,60,,,,,,,,,,,,,,,,,,,,,,,,,,,,,,2,5.58,,0,0,28,28,29,1,stimuli/stim_20210919_power2amp/equal_lnn_AM2Hz_s25_40.m4a,,,,,,,,,,,,
,,,,,41724,2021-10-03_03h22.12.565,judgeSpeechMusic_20210919_logNormShiftAmp_detection_fixFreq,2020.1.2,Win32,60,,,,,,,,,,,,,,,,,,,,,,,,,,,,,,1,6.4974,,0,0,29,29,61,1,stimuli/stim_20210919_power2amp/equal_lnn_AM2Hz_s55_4.m4a,,,,,,,,,,,,
,,,,,41724,2021-10-03_03h22.12.565,judgeSpeechMusic_20210919_logNormShiftAmp_detection_fixFreq,2020.1.2,Win32,60,,,,,,,,,,,,,,,,,,,,,,,,,,,,,,1,7.2225,,0,0,30,30,42,1,stimuli/stim_20210919_power2amp/equal_lnn_AM2Hz_s35_48.m4a,,,,,,,,,,,,
,,,,,41724,2021-10-03_03h22.12.565,judgeSpeechMusic_20210919_logNormShiftAmp_detection_fixFreq,2020.1.2,Win32,60,,,,,,,,,,,,,,,,,,,,,,,,,,,,,,1,8.5052,,0,0,31,31,27,1,stimuli/stim_20210919_power2amp/equal_lnn_AM2Hz_s25_31.m4a,,,,,,,,,,,,
,,,,,41724,2021-10-03_03h22.12.565,judgeSpeechMusic_20210919_logNormShiftAmp_detection_fixFreq,2020.1.2,Win32,60,,,,,,,,,,,,,,,,,,,,,,,,,,,,,,2,7.3034,,0,0,32,32,54,1,stimuli/stim_20210919_power2amp/equal_lnn_AM2Hz_s45_16.m4a,,,,,,,,,,,,
,,,,,41724,2021-10-03_03h22.12.565,judgeSpeechMusic_20210919_logNormShiftAmp_detection_fixFreq,2020.1.2,Win32,60,,,,,,,,,,,,,,,,,,,,,,,,,,,,,,2,6.3648,,0,0,33,33,65,1,stimuli/stim_20210919_power2amp/equal_lnn_AM2Hz_s55_30.m4a,,,,,,,,,,,,
,,,,,41724,2021-10-03_03h22.12.565,judgeSpeechMusic_20210919_logNormShiftAmp_detection_fixFreq,2020.1.2,Win32,60,,,,,,,,,,,,,,,,,,,,,,,,,,,,,,2,6.9696,,0,0,34,34,2,1,stimuli/stim_20210919_power2amp/equal_lnn_AM2Hz_s15_5.m4a,,,,,,,,,,,,
,,,,,41724,2021-10-03_03h22.12.565,judgeSpeechMusic_20210919_logNormShiftAmp_detection_fixFreq,2020.1.2,Win32,60,,,,,,,,,,,,,,,,,,,,,,,,,,,,,,2,5.6473,,0,0,35,35,39,1,stimuli/stim_20210919_power2amp/equal_lnn_AM2Hz_s35_35.m4a,,,,,,,,,,,,
,,,,,41724,2021-10-03_03h22.12.565,judgeSpeechMusic_20210919_logNormShiftAmp_detection_fixFreq,2020.1.2,Win32,60,,,,,,,,,,,,,,,,,,,,,,,,,,,,,,1,5.7213,,0,0,36,36,64,1,stimuli/stim_20210919_power2amp/equal_lnn_AM2Hz_s55_20.m4a,,,,,,,,,,,,
,,,,,41724,2021-10-03_03h22.12.565,judgeSpeechMusic_20210919_logNormShiftAmp_detection_fixFreq,2020.1.2,Win32,60,,,,,,,,,,,,,,,,,,,,,,,,,,,,,,2,5.9467,,0,0,37,37,4,1,stimuli/stim_20210919_power2amp/equal_lnn_AM2Hz_s15_43.m4a,,,,,,,,,,,,
,,,,,41724,2021-10-03_03h22.12.565,judgeSpeechMusic_20210919_logNormShiftAmp_detection_fixFreq,2020.1.2,Win32,60,,,,,,,,,,,,,,,,,,,,,,,,,,,,,,1,5.8705,,0,0,38,38,11,1,stimuli/stim_20210919_power2amp/equal_lnn_AM2Hz_s15_45.m4a,,,,,,,,,,,,
,,,,,41724,2021-10-03_03h22.12.565,judgeSpeechMusic_20210919_logNormShiftAmp_detection_fixFreq,2020.1.2,Win32,60,,,,,,,,,,,,,,,,,,,,,,,,,,,,,,2,5.6557,,0,0,39,39,41,1,stimuli/stim_20210919_power2amp/equal_lnn_AM2Hz_s35_25.m4a,,,,,,,,,,,,
,,,,,41724,2021-10-03_03h22.12.565,judgeSpeechMusic_20210919_logNormShiftAmp_detection_fixFreq,2020.1.2,Win32,60,,,,,,,,,,,,,,,,,,,,,,,,,,,,,,2,6.5203,3,1,0,40,40,22,1,stimuli/stim_20210919_power2amp/equal_lnn_AM2Hz_s25_29.m4a,1.2935,,,,,,,,,,,
,,,,,41724,2021-10-03_03h22.12.565,judgeSpeechMusic_20210919_logNormShiftAmp_detection_fixFreq,2020.1.2,Win32,60,,,,,,,,,,,,,,,,,,,,,,,,,,,,,,2,5.7109,,0,0,41,41,69,1,stimuli/stim_20210919_power2amp/equal_lnn_AM2Hz_s55_45.m4a,,,,,,,,,,,,
,,,,,41724,2021-10-03_03h22.12.565,judgeSpeechMusic_20210919_logNormShiftAmp_detection_fixFreq,2020.1.2,Win32,60,,,,,,,,,,,,,,,,,,,,,,,,,,,,,,2,6.9365,,0,0,42,42,74,1,stimuli/stim_20210919_power2amp/equal_lnn_AM2Hz_s55_46.m4a,,,,,,,,,,,,
,,,,,41724,2021-10-03_03h22.12.565,judgeSpeechMusic_20210919_logNormShiftAmp_detection_fixFreq,2020.1.2,Win32,60,,,,,,,,,,,,,,,,,,,,,,,,,,,,,,1,6.2103,,0,0,43,43,58,1,stimuli/stim_20210919_power2amp/equal_lnn_AM2Hz_s45_7.m4a,,,,,,,,,,,,
,,,,,41724,2021-10-03_03h22.12.565,judgeSpeechMusic_20210919_logNormShiftAmp_detection_fixFreq,2020.1.2,Win32,60,,,,,,,,,,,,,,,,,,,,,,,,,,,,,,1,6.4707,,0,0,44,44,53,1,stimuli/stim_20210919_power2amp/equal_lnn_AM2Hz_s45_43.m4a,,,,,,,,,,,,
,,,,,41724,2021-10-03_03h22.12.565,judgeSpeechMusic_20210919_logNormShiftAmp_detection_fixFreq,2020.1.2,Win32,60,,,,,,,,,,,,,,,,,,,,,,,,,,,,,,2,5.7407,,0,0,45,45,15,1,stimuli/stim_20210919_power2amp/equal_lnn_AM2Hz_s25_13.m4a,,,,,,,,,,,,
,,,,,41724,2021-10-03_03h22.12.565,judgeSpeechMusic_20210919_logNormShiftAmp_detection_fixFreq,2020.1.2,Win32,60,,,,,,,,,,,,,,,,,,,,,,,,,,,,,,2,7.8751,,0,0,46,46,14,1,stimuli/stim_20210919_power2amp/equal_lnn_AM2Hz_s15_14.m4a,,,,,,,,,,,,
,,,,,41724,2021-10-03_03h22.12.565,judgeSpeechMusic_20210919_logNormShiftAmp_detection_fixFreq,2020.1.2,Win32,60,,,,,,,,,,,,,,,,,,,,,,,,,,,,,,2,6.4995,,0,0,47,47,6,1,stimuli/stim_20210919_power2amp/equal_lnn_AM2Hz_s15_21.m4a,,,,,,,,,,,,
,,,,,41724,2021-10-03_03h22.12.565,judgeSpeechMusic_20210919_logNormShiftAmp_detection_fixFreq,2020.1.2,Win32,60,,,,,,,,,,,,,,,,,,,,,,,,,,,,,,2,5.6128,,0,0,48,48,8,1,stimuli/stim_20210919_power2amp/equal_lnn_AM2Hz_s15_36.m4a,,,,,,,,,,,,
,,,,,41724,2021-10-03_03h22.12.565,judgeSpeechMusic_20210919_logNormShiftAmp_detection_fixFreq,2020.1.2,Win32,60,,,,,,,,,,,,,,,,,,,,,,,,,,,,,,2,6.0471,,0,0,49,49,60,1,stimuli/stim_20210919_power2amp/equal_lnn_AM2Hz_s55_17.m4a,,,,,,,,,,,,
,,,,,41724,2021-10-03_03h22.12.565,judgeSpeechMusic_20210919_logNormShiftAmp_detection_fixFreq,2020.1.2,Win32,60,,,,,,,,,,,,,,,,,,,,,,,,,,,,,,1,6.3236,,0,0,50,50,31,1,stimuli/stim_20210919_power2amp/equal_lnn_AM2Hz_s35_40.m4a,,,,,,,,,,,,
,,,,,41724,2021-10-03_03h22.12.565,judgeSpeechMusic_20210919_logNormShiftAmp_detection_fixFreq,2020.1.2,Win32,60,,,,,,,,,,,,,,,,,,,,,,,,,,,,,,1,5.9196,,0,0,51,51,72,1,stimuli/stim_20210919_power2amp/equal_lnn_AM2Hz_s55_38.m4a,,,,,,,,,,,,
,,,,,41724,2021-10-03_03h22.12.565,judgeSpeechMusic_20210919_logNormShiftAmp_detection_fixFreq,2020.1.2,Win32,60,,,,,,,,,,,,,,,,,,,,,,,,,,,,,,2,5.7273,,0,0,52,52,23,1,stimuli/stim_20210919_power2amp/equal_lnn_AM2Hz_s25_25.m4a,,,,,,,,,,,,
,,,,,41724,2021-10-03_03h22.12.565,judgeSpeechMusic_20210919_logNormShiftAmp_detection_fixFreq,2020.1.2,Win32,60,,,,,,,,,,,,,,,,,,,,,,,,,,,,,,2,5.6744,,0,0,53,53,20,1,stimuli/stim_20210919_power2amp/equal_lnn_AM2Hz_s25_7.m4a,,,,,,,,,,,,
,,,,,41724,2021-10-03_03h22.12.565,judgeSpeechMusic_20210919_logNormShiftAmp_detection_fixFreq,2020.1.2,Win32,60,,,,,,,,,,,,,,,,,,,,,,,,,,,,,,1,5.5644,,0,0,54,54,38,1,stimuli/stim_20210919_power2amp/equal_lnn_AM2Hz_s35_37.m4a,,,,,,,,,,,,
,,,,,41724,2021-10-03_03h22.12.565,judgeSpeechMusic_20210919_logNormShiftAmp_detection_fixFreq,2020.1.2,Win32,60,,,,,,,,,,,,,,,,,,,,,,,,,,,,,,2,5.8888,,0,0,55,55,67,1,stimuli/stim_20210919_power2amp/equal_lnn_AM2Hz_s55_41.m4a,,,,,,,,,,,,
,,,,,41724,2021-10-03_03h22.12.565,judgeSpeechMusic_20210919_logNormShiftAmp_detection_fixFreq,2020.1.2,Win32,60,,,,,,,,,,,,,,,,,,,,,,,,,,,,,,1,5.7026,,0,0,56,56,21,1,stimuli/stim_20210919_power2amp/equal_lnn_AM2Hz_s25_19.m4a,,,,,,,,,,,,
,,,,,41724,2021-10-03_03h22.12.565,judgeSpeechMusic_20210919_logNormShiftAmp_detection_fixFreq,2020.1.2,Win32,60,,,,,,,,,,,,,,,,,,,,,,,,,,,,,,2,5.7277,,0,0,57,57,47,1,stimuli/stim_20210919_power2amp/equal_lnn_AM2Hz_s45_1.m4a,,,,,,,,,,,,
,,,,,41724,2021-10-03_03h22.12.565,judgeSpeechMusic_20210919_logNormShiftAmp_detection_fixFreq,2020.1.2,Win32,60,,,,,,,,,,,,,,,,,,,,,,,,,,,,,,2,6.1501,,0,0,58,58,12,1,stimuli/stim_20210919_power2amp/equal_lnn_AM2Hz_s15_16.m4a,,,,,,,,,,,,
,,,,,41724,2021-10-03_03h22.12.565,judgeSpeechMusic_20210919_logNormShiftAmp_detection_fixFreq,2020.1.2,Win32,60,,,,,,,,,,,,,,,,,,,,,,,,,,,,,,2,5.881,,0,0,59,59,48,1,stimuli/stim_20210919_power2amp/equal_lnn_AM2Hz_s45_24.m4a,,,,,,,,,,,,
,,,,,41724,2021-10-03_03h22.12.565,judgeSpeechMusic_20210919_logNormShiftAmp_detection_fixFreq,2020.1.2,Win32,60,,,,,,,,,,,,,,,,,,,,,,,,,,,,,,2,6.1458,,0,0,60,60,26,1,stimuli/stim_20210919_power2amp/equal_lnn_AM2Hz_s25_35.m4a,,,,,,,,,,,,
,,,,,41724,2021-10-03_03h22.12.565,judgeSpeechMusic_20210919_logNormShiftAmp_detection_fixFreq,2020.1.2,Win32,60,,,,,,,,,,,,,,,,,,,,,,,,,,,,,,1,5.8554,2,1,0,61,61,3,1,stimuli/stim_20210919_power2amp/equal_lnn_AM2Hz_s15_28.m4a,0.4591,,,,,,,,,,,
,,,,,41724,2021-10-03_03h22.12.565,judgeSpeechMusic_20210919_logNormShiftAmp_detection_fixFreq,2020.1.2,Win32,60,,,,,,,,,,,,,,,,,,,,,,,,,,,,,,2,8.6585,,0,0,62,62,71,1,stimuli/stim_20210919_power2amp/equal_lnn_AM2Hz_s55_39.m4a,,,,,,,,,,,,
,,,,,41724,2021-10-03_03h22.12.565,judgeSpeechMusic_20210919_logNormShiftAmp_detection_fixFreq,2020.1.2,Win32,60,,,,,,,,,,,,,,,,,,,,,,,,,,,,,,1,6.1579,,0,0,63,63,25,1,stimuli/stim_20210919_power2amp/equal_lnn_AM2Hz_s25_18.m4a,,,,,,,,,,,,
,,,,,41724,2021-10-03_03h22.12.565,judgeSpeechMusic_20210919_logNormShiftAmp_detection_fixFreq,2020.1.2,Win32,60,,,,,,,,,,,,,,,,,,,,,,,,,,,,,,1,9.2204,,0,0,64,64,45,1,stimuli/stim_20210919_power2amp/equal_lnn_AM2Hz_s45_6.m4a,,,,,,,,,,,,
,,,,,41724,2021-10-03_03h22.12.565,judgeSpeechMusic_20210919_logNormShiftAmp_detection_fixFreq,2020.1.2,Win32,60,,,,,,,,,,,,,,,,,,,,,,,,,,,,,,1,7.4621,,0,0,65,65,46,1,stimuli/stim_20210919_power2amp/equal_lnn_AM2Hz_s45_36.m4a,,,,,,,,,,,,
,,,,,41724,2021-10-03_03h22.12.565,judgeSpeechMusic_20210919_logNormShiftAmp_detection_fixFreq,2020.1.2,Win32,60,,,,,,,,,,,,,,,,,,,,,,,,,,,,,,1,8.2607,,0,0,66,66,40,1,stimuli/stim_20210919_power2amp/equal_lnn_AM2Hz_s35_12.m4a,,,,,,,,,,,,
,,,,,41724,2021-10-03_03h22.12.565,judgeSpeechMusic_20210919_logNormShiftAmp_detection_fixFreq,2020.1.2,Win32,60,,,,,,,,,,,,,,,,,,,,,,,,,,,,,,2,5.6987,,0,0,67,67,16,1,stimuli/stim_20210919_power2amp/equal_lnn_AM2Hz_s25_32.m4a,,,,,,,,,,,,
,,,,,41724,2021-10-03_03h22.12.565,judgeSpeechMusic_20210919_logNormShiftAmp_detection_fixFreq,2020.1.2,Win32,60,,,,,,,,,,,,,,,,,,,,,,,,,,,,,,1,6.3467,,0,0,68,68,68,1,stimuli/stim_20210919_power2amp/equal_lnn_AM2Hz_s55_11.m4a,,,,,,,,,,,,
,,,,,41724,2021-10-03_03h22.12.565,judgeSpeechMusic_20210919_logNormShiftAmp_detection_fixFreq,2020.1.2,Win32,60,,,,,,,,,,,,,,,,,,,,,,,,,,,,,,2,5.9714,,0,0,69,69,56,1,stimuli/stim_20210919_power2amp/equal_lnn_AM2Hz_s45_2.m4a,,,,,,,,,,,,
,,,,,41724,2021-10-03_03h22.12.565,judgeSpeechMusic_20210919_logNormShiftAmp_detection_fixFreq,2020.1.2,Win32,60,,,,,,,,,,,,,,,,,,,,,,,,,,,,,,2,9.7397,,0,0,70,70,70,1,stimuli/stim_20210919_power2amp/equal_lnn_AM2Hz_s55_34.m4a,,,,,,,,,,,,
,,,,,41724,2021-10-03_03h22.12.565,judgeSpeechMusic_20210919_logNormShiftAmp_detection_fixFreq,2020.1.2,Win32,60,,,,,,,,,,,,,,,,,,,,,,,,,,,,,,2,5.7132,,0,0,71,71,52,1,stimuli/stim_20210919_power2amp/equal_lnn_AM2Hz_s45_21.m4a,,,,,,,,,,,,
,,,,,41724,2021-10-03_03h22.12.565,judgeSpeechMusic_20210919_logNormShiftAmp_detection_fixFreq,2020.1.2,Win32,60,,,,,,,,,,,,,,,,,,,,,,,,,,,,,,1,5.9039,,0,0,72,72,63,1,stimuli/stim_20210919_power2amp/equal_lnn_AM2Hz_s55_3.m4a,,,,,,,,,,,,
,,,,,41724,2021-10-03_03h22.12.565,judgeSpeechMusic_20210919_logNormShiftAmp_detection_fixFreq,2020.1.2,Win32,60,,,,,,,,,,,,,,,,,,,,,,,,,,,,,,2,6.8219,,0,0,73,73,5,1,stimuli/stim_20210919_power2amp/equal_lnn_AM2Hz_s15_2.m4a,,,,,,,,,,,,
,,,,,41724,2021-10-03_03h22.12.565,judgeSpeechMusic_20210919_logNormShiftAmp_detection_fixFreq,2020.1.2,Win32,60,,,,,,,,,,,,,,,,,,,,,,,,,,,,,,1,6.3127,,0,0,74,74,51,1,stimuli/stim_20210919_power2amp/equal_lnn_AM2Hz_s45_14.m4a,,,,,,,,,,,,
,,,,,41724,2021-10-03_03h22.12.565,judgeSpeechMusic_20210919_logNormShiftAmp_detection_fixFreq,2020.1.2,Win32,60,,,,,,,,,,,,,,,,,,,,,,,,,,,,,,,,,,,,,,,,,,,1,1,3,0,1,MUSIC,stimuli/MUSIC.jpg,,
,,,,,41724,2021-10-03_03h22.12.565,judgeSpeechMusic_20210919_logNormShiftAmp_detection_fixFreq,2020.1.2,Win32,60,,,,,,,,,,,,,,,,,,,,,,,,,,,,,,,,,,,,,,,,,,,,,,,,,,space,6.973
