volAdjustRep.thisRepN,volAdjustRep.thisTrialN,volAdjustRep.thisN,volAdjustRep.thisIndex,volAdjustRep.ran,participant,date,expName,psychopyVersion,OS,frameRate,headphoneResponse.keys,headphoneResponse.corr,headphoneResponse.rt,headphoneTrial.thisRepN,headphoneTrial.thisTrialN,headphoneTrial.thisN,headphoneTrial.thisIndex,headphoneTrial.ran,headphone_sound1,headphone_sound2,headphone_sound3,corrAns,checkInstruKey.keys,checkInstruKey.rt,trainSlider.response,trainSlider.rt,beepTrainResponse.keys,beepTrainResponse.corr,trainingTrials.thisRepN,trainingTrials.thisTrialN,trainingTrials.thisN,trainingTrials.thisIndex,trainingTrials.ran,trainAudioFile,beepTrainResponse.rt,readyReal_resp.keys,readyReal_resp.rt,checkInstru2_key.keys,checkInstru2_key.rt,ratingSlider.response,ratingSlider.rt,beepResp.keys,beepResp.corr,expTrials.thisRepN,expTrials.thisTrialN,expTrials.thisN,expTrials.thisIndex,expTrials.ran,audioFile,beepResp.rt,switchBlock_space.keys,switchBlock_space.rt,block.thisRepN,block.thisTrialN,block.thisN,block.thisIndex,block.ran,blockName,blockImage,end_resp.keys,end_resp.rt
0,0,0,0,1,41734,2021-10-01_17h04.52.842,judgeSpeechMusic_20210919_logNormShiftAmp_detection_fixFreq,2020.1.2,MacIntel,60,,,,,,,,,,,,,,,,,,,,,,,,,,,,,,,,,,,,,,,,,,,,,,,,,,,
,,,,,41734,2021-10-01_17h04.52.842,judgeSpeechMusic_20210919_logNormShiftAmp_detection_fixFreq,2020.1.2,MacIntel,60,1,1,5.6697,0,0,0,5,1,stimuli/screen_quiet.wav,stimuli/screen_origin.wav,stimuli/screen_antiphase.wav,1,,,,,,,,,,,,,,,,,,,,,,,,,,,,,,,,,,,,,,,
,,,,,41734,2021-10-01_17h04.52.842,judgeSpeechMusic_20210919_logNormShiftAmp_detection_fixFreq,2020.1.2,MacIntel,60,3,1,1.9177,0,1,1,0,1,stimuli/screen_antiphase.wav,stimuli/screen_origin.wav,stimuli/screen_quiet.wav,3,,,,,,,,,,,,,,,,,,,,,,,,,,,,,,,,,,,,,,,
,,,,,41734,2021-10-01_17h04.52.842,judgeSpeechMusic_20210919_logNormShiftAmp_detection_fixFreq,2020.1.2,MacIntel,60,2,1,0.8705,0,2,2,1,1,stimuli/screen_antiphase.wav,stimuli/screen_quiet.wav,stimuli/screen_origin.wav,2,,,,,,,,,,,,,,,,,,,,,,,,,,,,,,,,,,,,,,,
,,,,,41734,2021-10-01_17h04.52.842,judgeSpeechMusic_20210919_logNormShiftAmp_detection_fixFreq,2020.1.2,MacIntel,60,2,1,0.6654,0,3,3,3,1,stimuli/screen_origin.wav,stimuli/screen_quiet.wav,stimuli/screen_antiphase.wav,2,,,,,,,,,,,,,,,,,,,,,,,,,,,,,,,,,,,,,,,
,,,,,41734,2021-10-01_17h04.52.842,judgeSpeechMusic_20210919_logNormShiftAmp_detection_fixFreq,2020.1.2,MacIntel,60,1,1,0.3563,0,4,4,4,1,stimuli/screen_quiet.wav,stimuli/screen_antiphase.wav,stimuli/screen_origin.wav,1,,,,,,,,,,,,,,,,,,,,,,,,,,,,,,,,,,,,,,,
,,,,,41734,2021-10-01_17h04.52.842,judgeSpeechMusic_20210919_logNormShiftAmp_detection_fixFreq,2020.1.2,MacIntel,60,3,1,0.4048,0,5,5,2,1,stimuli/screen_origin.wav,stimuli/screen_antiphase.wav,stimuli/screen_quiet.wav,3,,,,,,,,,,,,,,,,,,,,,,,,,,,,,,,,,,,,,,,
,,,,,41734,2021-10-01_17h04.52.842,judgeSpeechMusic_20210919_logNormShiftAmp_detection_fixFreq,2020.1.2,MacIntel,60,,,,,,,,,,,,,space,2.6157,1,7.5739,,0,0,0,0,0,1,stimuli/stim_20210919_power2amp/equal_lnn_AM_training2Hz_s20.m4a,,,,,,,,,,,,,,,,,,,,,,,,,,,
,,,,,41734,2021-10-01_17h04.52.842,judgeSpeechMusic_20210919_logNormShiftAmp_detection_fixFreq,2020.1.2,MacIntel,60,,,,,,,,,,,,,,,1,5.8553,,0,0,1,1,3,1,stimuli/stim_20210919_power2amp/equal_lnn_AM_training2Hz_s50.m4a,,,,,,,,,,,,,,,,,,,,,,,,,,,
,,,,,41734,2021-10-01_17h04.52.842,judgeSpeechMusic_20210919_logNormShiftAmp_detection_fixFreq,2020.1.2,MacIntel,60,,,,,,,,,,,,,,,1,5.7895,2,1,0,2,2,2,1,stimuli/stim_20210919_power2amp/equal_lnn_AM_training2Hz_s40.m4a,4.0934,,,,,,,,,,,,,,,,,,,,,,,,,,
,,,,,41734,2021-10-01_17h04.52.842,judgeSpeechMusic_20210919_logNormShiftAmp_detection_fixFreq,2020.1.2,MacIntel,60,,,,,,,,,,,,,,,1,8.8353,,0,0,3,3,1,1,stimuli/stim_20210919_power2amp/equal_lnn_AM_training2Hz_s30.m4a,,,,,,,,,,,,,,,,,,,,,,,,,,,
,,,,,41734,2021-10-01_17h04.52.842,judgeSpeechMusic_20210919_logNormShiftAmp_detection_fixFreq,2020.1.2,MacIntel,60,,,,,,,,,,,,,,,,,,,,,,,,,,space,5.1306,space,1.9525,1,6.6337,,0,0,0,0,19,1,stimuli/stim_20210919_power2amp/equal_lnn_AM2Hz_s25_46.m4a,,,,,,,,,,,,
,,,,,41734,2021-10-01_17h04.52.842,judgeSpeechMusic_20210919_logNormShiftAmp_detection_fixFreq,2020.1.2,MacIntel,60,,,,,,,,,,,,,,,,,,,,,,,,,,,,,,1,9.1249,,0,0,1,1,12,1,stimuli/stim_20210919_power2amp/equal_lnn_AM2Hz_s15_26.m4a,,,,,,,,,,,,
,,,,,41734,2021-10-01_17h04.52.842,judgeSpeechMusic_20210919_logNormShiftAmp_detection_fixFreq,2020.1.2,MacIntel,60,,,,,,,,,,,,,,,,,,,,,,,,,,,,,,1,6.2087,,0,0,2,2,38,1,stimuli/stim_20210919_power2amp/equal_lnn_AM2Hz_s35_25.m4a,,,,,,,,,,,,
,,,,,41734,2021-10-01_17h04.52.842,judgeSpeechMusic_20210919_logNormShiftAmp_detection_fixFreq,2020.1.2,MacIntel,60,,,,,,,,,,,,,,,,,,,,,,,,,,,,,,2,5.9291,,0,0,3,3,44,1,stimuli/stim_20210919_power2amp/equal_lnn_AM2Hz_s35_22.m4a,,,,,,,,,,,,
,,,,,41734,2021-10-01_17h04.52.842,judgeSpeechMusic_20210919_logNormShiftAmp_detection_fixFreq,2020.1.2,MacIntel,60,,,,,,,,,,,,,,,,,,,,,,,,,,,,,,1,5.5941,,0,0,4,4,43,1,stimuli/stim_20210919_power2amp/equal_lnn_AM2Hz_s35_2.m4a,,,,,,,,,,,,
,,,,,41734,2021-10-01_17h04.52.842,judgeSpeechMusic_20210919_logNormShiftAmp_detection_fixFreq,2020.1.2,MacIntel,60,,,,,,,,,,,,,,,,,,,,,,,,,,,,,,1,6.4371,,0,0,5,5,57,1,stimuli/stim_20210919_power2amp/equal_lnn_AM2Hz_s45_13.m4a,,,,,,,,,,,,
,,,,,41734,2021-10-01_17h04.52.842,judgeSpeechMusic_20210919_logNormShiftAmp_detection_fixFreq,2020.1.2,MacIntel,60,,,,,,,,,,,,,,,,,,,,,,,,,,,,,,1,5.8812,,0,0,6,6,42,1,stimuli/stim_20210919_power2amp/equal_lnn_AM2Hz_s35_1.m4a,,,,,,,,,,,,
,,,,,41734,2021-10-01_17h04.52.842,judgeSpeechMusic_20210919_logNormShiftAmp_detection_fixFreq,2020.1.2,MacIntel,60,,,,,,,,,,,,,,,,,,,,,,,,,,,,,,2,5.9921,,0,0,7,7,48,1,stimuli/stim_20210919_power2amp/equal_lnn_AM2Hz_s45_31.m4a,,,,,,,,,,,,
,,,,,41734,2021-10-01_17h04.52.842,judgeSpeechMusic_20210919_logNormShiftAmp_detection_fixFreq,2020.1.2,MacIntel,60,,,,,,,,,,,,,,,,,,,,,,,,,,,,,,1,9.2756,,0,0,8,8,49,1,stimuli/stim_20210919_power2amp/equal_lnn_AM2Hz_s45_18.m4a,,,,,,,,,,,,
,,,,,41734,2021-10-01_17h04.52.842,judgeSpeechMusic_20210919_logNormShiftAmp_detection_fixFreq,2020.1.2,MacIntel,60,,,,,,,,,,,,,,,,,,,,,,,,,,,,,,1,5.6417,,0,0,9,9,66,1,stimuli/stim_20210919_power2amp/equal_lnn_AM2Hz_s55_19.m4a,,,,,,,,,,,,
,,,,,41734,2021-10-01_17h04.52.842,judgeSpeechMusic_20210919_logNormShiftAmp_detection_fixFreq,2020.1.2,MacIntel,60,,,,,,,,,,,,,,,,,,,,,,,,,,,,,,1,6.5256,,0,0,10,10,7,1,stimuli/stim_20210919_power2amp/equal_lnn_AM2Hz_s15_20.m4a,,,,,,,,,,,,
,,,,,41734,2021-10-01_17h04.52.842,judgeSpeechMusic_20210919_logNormShiftAmp_detection_fixFreq,2020.1.2,MacIntel,60,,,,,,,,,,,,,,,,,,,,,,,,,,,,,,1,6.2563,,0,0,11,11,71,1,stimuli/stim_20210919_power2amp/equal_lnn_AM2Hz_s55_11.m4a,,,,,,,,,,,,
,,,,,41734,2021-10-01_17h04.52.842,judgeSpeechMusic_20210919_logNormShiftAmp_detection_fixFreq,2020.1.2,MacIntel,60,,,,,,,,,,,,,,,,,,,,,,,,,,,,,,1,5.6401,,0,0,12,12,32,1,stimuli/stim_20210919_power2amp/equal_lnn_AM2Hz_s35_50.m4a,,,,,,,,,,,,
,,,,,41734,2021-10-01_17h04.52.842,judgeSpeechMusic_20210919_logNormShiftAmp_detection_fixFreq,2020.1.2,MacIntel,60,,,,,,,,,,,,,,,,,,,,,,,,,,,,,,2,5.381,,0,0,13,13,34,1,stimuli/stim_20210919_power2amp/equal_lnn_AM2Hz_s35_43.m4a,,,,,,,,,,,,
,,,,,41734,2021-10-01_17h04.52.842,judgeSpeechMusic_20210919_logNormShiftAmp_detection_fixFreq,2020.1.2,MacIntel,60,,,,,,,,,,,,,,,,,,,,,,,,,,,,,,1,5.6918,,0,0,14,14,74,1,stimuli/stim_20210919_power2amp/equal_lnn_AM2Hz_s55_15.m4a,,,,,,,,,,,,
,,,,,41734,2021-10-01_17h04.52.842,judgeSpeechMusic_20210919_logNormShiftAmp_detection_fixFreq,2020.1.2,MacIntel,60,,,,,,,,,,,,,,,,,,,,,,,,,,,,,,1,5.4915,,0,0,15,15,0,1,stimuli/stim_20210919_power2amp/equal_lnn_AM2Hz_s15_45.m4a,,,,,,,,,,,,
,,,,,41734,2021-10-01_17h04.52.842,judgeSpeechMusic_20210919_logNormShiftAmp_detection_fixFreq,2020.1.2,MacIntel,60,,,,,,,,,,,,,,,,,,,,,,,,,,,,,,1,5.6475,,0,0,16,16,73,1,stimuli/stim_20210919_power2amp/equal_lnn_AM2Hz_s55_41.m4a,,,,,,,,,,,,
,,,,,41734,2021-10-01_17h04.52.842,judgeSpeechMusic_20210919_logNormShiftAmp_detection_fixFreq,2020.1.2,MacIntel,60,,,,,,,,,,,,,,,,,,,,,,,,,,,,,,2,6.4093,,0,0,17,17,36,1,stimuli/stim_20210919_power2amp/equal_lnn_AM2Hz_s35_3.m4a,,,,,,,,,,,,
,,,,,41734,2021-10-01_17h04.52.842,judgeSpeechMusic_20210919_logNormShiftAmp_detection_fixFreq,2020.1.2,MacIntel,60,,,,,,,,,,,,,,,,,,,,,,,,,,,,,,1,5.6932,1,1,0,18,18,61,1,stimuli/stim_20210919_power2amp/equal_lnn_AM2Hz_s55_48.m4a,1.2625,,,,,,,,,,,
,,,,,41734,2021-10-01_17h04.52.842,judgeSpeechMusic_20210919_logNormShiftAmp_detection_fixFreq,2020.1.2,MacIntel,60,,,,,,,,,,,,,,,,,,,,,,,,,,,,,,1,6.0764,,0,0,19,19,37,1,stimuli/stim_20210919_power2amp/equal_lnn_AM2Hz_s35_20.m4a,,,,,,,,,,,,
,,,,,41734,2021-10-01_17h04.52.842,judgeSpeechMusic_20210919_logNormShiftAmp_detection_fixFreq,2020.1.2,MacIntel,60,,,,,,,,,,,,,,,,,,,,,,,,,,,,,,1,6.0771,,0,0,20,20,18,1,stimuli/stim_20210919_power2amp/equal_lnn_AM2Hz_s25_24.m4a,,,,,,,,,,,,
,,,,,41734,2021-10-01_17h04.52.842,judgeSpeechMusic_20210919_logNormShiftAmp_detection_fixFreq,2020.1.2,MacIntel,60,,,,,,,,,,,,,,,,,,,,,,,,,,,,,,1,5.5587,,0,0,21,21,52,1,stimuli/stim_20210919_power2amp/equal_lnn_AM2Hz_s45_21.m4a,,,,,,,,,,,,
,,,,,41734,2021-10-01_17h04.52.842,judgeSpeechMusic_20210919_logNormShiftAmp_detection_fixFreq,2020.1.2,MacIntel,60,,,,,,,,,,,,,,,,,,,,,,,,,,,,,,1,7.3429,,0,0,22,22,55,1,stimuli/stim_20210919_power2amp/equal_lnn_AM2Hz_s45_50.m4a,,,,,,,,,,,,
,,,,,41734,2021-10-01_17h04.52.842,judgeSpeechMusic_20210919_logNormShiftAmp_detection_fixFreq,2020.1.2,MacIntel,60,,,,,,,,,,,,,,,,,,,,,,,,,,,,,,2,5.6761,,0,0,23,23,51,1,stimuli/stim_20210919_power2amp/equal_lnn_AM2Hz_s45_46.m4a,,,,,,,,,,,,
,,,,,41734,2021-10-01_17h04.52.842,judgeSpeechMusic_20210919_logNormShiftAmp_detection_fixFreq,2020.1.2,MacIntel,60,,,,,,,,,,,,,,,,,,,,,,,,,,,,,,1,6.3106,,0,0,24,24,47,1,stimuli/stim_20210919_power2amp/equal_lnn_AM2Hz_s45_27.m4a,,,,,,,,,,,,
,,,,,41734,2021-10-01_17h04.52.842,judgeSpeechMusic_20210919_logNormShiftAmp_detection_fixFreq,2020.1.2,MacIntel,60,,,,,,,,,,,,,,,,,,,,,,,,,,,,,,1,5.876,,0,0,25,25,20,1,stimuli/stim_20210919_power2amp/equal_lnn_AM2Hz_s25_29.m4a,,,,,,,,,,,,
,,,,,41734,2021-10-01_17h04.52.842,judgeSpeechMusic_20210919_logNormShiftAmp_detection_fixFreq,2020.1.2,MacIntel,60,,,,,,,,,,,,,,,,,,,,,,,,,,,,,,2,5.8254,,0,0,26,26,54,1,stimuli/stim_20210919_power2amp/equal_lnn_AM2Hz_s45_49.m4a,,,,,,,,,,,,
,,,,,41734,2021-10-01_17h04.52.842,judgeSpeechMusic_20210919_logNormShiftAmp_detection_fixFreq,2020.1.2,MacIntel,60,,,,,,,,,,,,,,,,,,,,,,,,,,,,,,2,6.2931,,0,0,27,27,39,1,stimuli/stim_20210919_power2amp/equal_lnn_AM2Hz_s35_46.m4a,,,,,,,,,,,,
,,,,,41734,2021-10-01_17h04.52.842,judgeSpeechMusic_20210919_logNormShiftAmp_detection_fixFreq,2020.1.2,MacIntel,60,,,,,,,,,,,,,,,,,,,,,,,,,,,,,,1,5.8112,,0,0,28,28,24,1,stimuli/stim_20210919_power2amp/equal_lnn_AM2Hz_s25_42.m4a,,,,,,,,,,,,
,,,,,41734,2021-10-01_17h04.52.842,judgeSpeechMusic_20210919_logNormShiftAmp_detection_fixFreq,2020.1.2,MacIntel,60,,,,,,,,,,,,,,,,,,,,,,,,,,,,,,1,5.8195,,0,0,29,29,65,1,stimuli/stim_20210919_power2amp/equal_lnn_AM2Hz_s55_38.m4a,,,,,,,,,,,,
,,,,,41734,2021-10-01_17h04.52.842,judgeSpeechMusic_20210919_logNormShiftAmp_detection_fixFreq,2020.1.2,MacIntel,60,,,,,,,,,,,,,,,,,,,,,,,,,,,,,,2,5.8747,,0,0,30,30,30,1,stimuli/stim_20210919_power2amp/equal_lnn_AM2Hz_s35_40.m4a,,,,,,,,,,,,
,,,,,41734,2021-10-01_17h04.52.842,judgeSpeechMusic_20210919_logNormShiftAmp_detection_fixFreq,2020.1.2,MacIntel,60,,,,,,,,,,,,,,,,,,,,,,,,,,,,,,1,6.1813,,0,0,31,31,40,1,stimuli/stim_20210919_power2amp/equal_lnn_AM2Hz_s35_24.m4a,,,,,,,,,,,,
,,,,,41734,2021-10-01_17h04.52.842,judgeSpeechMusic_20210919_logNormShiftAmp_detection_fixFreq,2020.1.2,MacIntel,60,,,,,,,,,,,,,,,,,,,,,,,,,,,,,,1,6.2753,,0,0,32,32,72,1,stimuli/stim_20210919_power2amp/equal_lnn_AM2Hz_s55_31.m4a,,,,,,,,,,,,
,,,,,41734,2021-10-01_17h04.52.842,judgeSpeechMusic_20210919_logNormShiftAmp_detection_fixFreq,2020.1.2,MacIntel,60,,,,,,,,,,,,,,,,,,,,,,,,,,,,,,1,5.5439,,0,0,33,33,50,1,stimuli/stim_20210919_power2amp/equal_lnn_AM2Hz_s45_9.m4a,,,,,,,,,,,,
,,,,,41734,2021-10-01_17h04.52.842,judgeSpeechMusic_20210919_logNormShiftAmp_detection_fixFreq,2020.1.2,MacIntel,60,,,,,,,,,,,,,,,,,,,,,,,,,,,,,,2,5.6134,,0,0,34,34,10,1,stimuli/stim_20210919_power2amp/equal_lnn_AM2Hz_s15_42.m4a,,,,,,,,,,,,
,,,,,41734,2021-10-01_17h04.52.842,judgeSpeechMusic_20210919_logNormShiftAmp_detection_fixFreq,2020.1.2,MacIntel,60,,,,,,,,,,,,,,,,,,,,,,,,,,,,,,1,5.5918,,0,0,35,35,31,1,stimuli/stim_20210919_power2amp/equal_lnn_AM2Hz_s35_39.m4a,,,,,,,,,,,,
,,,,,41734,2021-10-01_17h04.52.842,judgeSpeechMusic_20210919_logNormShiftAmp_detection_fixFreq,2020.1.2,MacIntel,60,,,,,,,,,,,,,,,,,,,,,,,,,,,,,,1,5.4253,1,1,0,36,36,21,1,stimuli/stim_20210919_power2amp/equal_lnn_AM2Hz_s25_38.m4a,1.2467,,,,,,,,,,,
,,,,,41734,2021-10-01_17h04.52.842,judgeSpeechMusic_20210919_logNormShiftAmp_detection_fixFreq,2020.1.2,MacIntel,60,,,,,,,,,,,,,,,,,,,,,,,,,,,,,,1,6.5295,,0,0,37,37,9,1,stimuli/stim_20210919_power2amp/equal_lnn_AM2Hz_s15_48.m4a,,,,,,,,,,,,
,,,,,41734,2021-10-01_17h04.52.842,judgeSpeechMusic_20210919_logNormShiftAmp_detection_fixFreq,2020.1.2,MacIntel,60,,,,,,,,,,,,,,,,,,,,,,,,,,,,,,2,16.993,,0,0,38,38,67,1,stimuli/stim_20210919_power2amp/equal_lnn_AM2Hz_s55_5.m4a,,,,,,,,,,,,
,,,,,41734,2021-10-01_17h04.52.842,judgeSpeechMusic_20210919_logNormShiftAmp_detection_fixFreq,2020.1.2,MacIntel,60,,,,,,,,,,,,,,,,,,,,,,,,,,,,,,1,9.2295,,0,0,39,39,15,1,stimuli/stim_20210919_power2amp/equal_lnn_AM2Hz_s25_44.m4a,,,,,,,,,,,,
,,,,,41734,2021-10-01_17h04.52.842,judgeSpeechMusic_20210919_logNormShiftAmp_detection_fixFreq,2020.1.2,MacIntel,60,,,,,,,,,,,,,,,,,,,,,,,,,,,,,,1,8.199,,0,0,40,40,25,1,stimuli/stim_20210919_power2amp/equal_lnn_AM2Hz_s25_23.m4a,,,,,,,,,,,,
,,,,,41734,2021-10-01_17h04.52.842,judgeSpeechMusic_20210919_logNormShiftAmp_detection_fixFreq,2020.1.2,MacIntel,60,,,,,,,,,,,,,,,,,,,,,,,,,,,,,,1,7.1719,,0,0,41,41,6,1,stimuli/stim_20210919_power2amp/equal_lnn_AM2Hz_s15_36.m4a,,,,,,,,,,,,
,,,,,41734,2021-10-01_17h04.52.842,judgeSpeechMusic_20210919_logNormShiftAmp_detection_fixFreq,2020.1.2,MacIntel,60,,,,,,,,,,,,,,,,,,,,,,,,,,,,,,2,5.9461,,0,0,42,42,41,1,stimuli/stim_20210919_power2amp/equal_lnn_AM2Hz_s35_27.m4a,,,,,,,,,,,,
,,,,,41734,2021-10-01_17h04.52.842,judgeSpeechMusic_20210919_logNormShiftAmp_detection_fixFreq,2020.1.2,MacIntel,60,,,,,,,,,,,,,,,,,,,,,,,,,,,,,,2,5.5934,,0,0,43,43,45,1,stimuli/stim_20210919_power2amp/equal_lnn_AM2Hz_s45_47.m4a,,,,,,,,,,,,
,,,,,41734,2021-10-01_17h04.52.842,judgeSpeechMusic_20210919_logNormShiftAmp_detection_fixFreq,2020.1.2,MacIntel,60,,,,,,,,,,,,,,,,,,,,,,,,,,,,,,1,5.4778,,0,0,44,44,29,1,stimuli/stim_20210919_power2amp/equal_lnn_AM2Hz_s25_2.m4a,,,,,,,,,,,,
,,,,,41734,2021-10-01_17h04.52.842,judgeSpeechMusic_20210919_logNormShiftAmp_detection_fixFreq,2020.1.2,MacIntel,60,,,,,,,,,,,,,,,,,,,,,,,,,,,,,,1,5.4818,,0,0,45,45,69,1,stimuli/stim_20210919_power2amp/equal_lnn_AM2Hz_s55_47.m4a,,,,,,,,,,,,
,,,,,41734,2021-10-01_17h04.52.842,judgeSpeechMusic_20210919_logNormShiftAmp_detection_fixFreq,2020.1.2,MacIntel,60,,,,,,,,,,,,,,,,,,,,,,,,,,,,,,1,5.4047,,0,0,46,46,2,1,stimuli/stim_20210919_power2amp/equal_lnn_AM2Hz_s15_12.m4a,,,,,,,,,,,,
,,,,,41734,2021-10-01_17h04.52.842,judgeSpeechMusic_20210919_logNormShiftAmp_detection_fixFreq,2020.1.2,MacIntel,60,,,,,,,,,,,,,,,,,,,,,,,,,,,,,,1,5.9744,,0,0,47,47,60,1,stimuli/stim_20210919_power2amp/equal_lnn_AM2Hz_s55_33.m4a,,,,,,,,,,,,
,,,,,41734,2021-10-01_17h04.52.842,judgeSpeechMusic_20210919_logNormShiftAmp_detection_fixFreq,2020.1.2,MacIntel,60,,,,,,,,,,,,,,,,,,,,,,,,,,,,,,1,5.6317,,0,0,48,48,23,1,stimuli/stim_20210919_power2amp/equal_lnn_AM2Hz_s25_17.m4a,,,,,,,,,,,,
,,,,,41734,2021-10-01_17h04.52.842,judgeSpeechMusic_20210919_logNormShiftAmp_detection_fixFreq,2020.1.2,MacIntel,60,,,,,,,,,,,,,,,,,,,,,,,,,,,,,,1,5.3741,,0,0,49,49,13,1,stimuli/stim_20210919_power2amp/equal_lnn_AM2Hz_s15_47.m4a,,,,,,,,,,,,
,,,,,41734,2021-10-01_17h04.52.842,judgeSpeechMusic_20210919_logNormShiftAmp_detection_fixFreq,2020.1.2,MacIntel,60,,,,,,,,,,,,,,,,,,,,,,,,,,,,,,1,6.0802,,0,0,50,50,27,1,stimuli/stim_20210919_power2amp/equal_lnn_AM2Hz_s25_28.m4a,,,,,,,,,,,,
,,,,,41734,2021-10-01_17h04.52.842,judgeSpeechMusic_20210919_logNormShiftAmp_detection_fixFreq,2020.1.2,MacIntel,60,,,,,,,,,,,,,,,,,,,,,,,,,,,,,,1,9.3273,,0,0,51,51,33,1,stimuli/stim_20210919_power2amp/equal_lnn_AM2Hz_s35_11.m4a,,,,,,,,,,,,
,,,,,41734,2021-10-01_17h04.52.842,judgeSpeechMusic_20210919_logNormShiftAmp_detection_fixFreq,2020.1.2,MacIntel,60,,,,,,,,,,,,,,,,,,,,,,,,,,,,,,1,140.9356,,0,0,52,52,63,1,stimuli/stim_20210919_power2amp/equal_lnn_AM2Hz_s55_45.m4a,,,,,,,,,,,,
,,,,,41734,2021-10-01_17h04.52.842,judgeSpeechMusic_20210919_logNormShiftAmp_detection_fixFreq,2020.1.2,MacIntel,60,,,,,,,,,,,,,,,,,,,,,,,,,,,,,,1,5.4855,,0,0,53,53,17,1,stimuli/stim_20210919_power2amp/equal_lnn_AM2Hz_s25_25.m4a,,,,,,,,,,,,
,,,,,41734,2021-10-01_17h04.52.842,judgeSpeechMusic_20210919_logNormShiftAmp_detection_fixFreq,2020.1.2,MacIntel,60,,,,,,,,,,,,,,,,,,,,,,,,,,,,,,1,6.294,,0,0,54,54,28,1,stimuli/stim_20210919_power2amp/equal_lnn_AM2Hz_s25_31.m4a,,,,,,,,,,,,
,,,,,41734,2021-10-01_17h04.52.842,judgeSpeechMusic_20210919_logNormShiftAmp_detection_fixFreq,2020.1.2,MacIntel,60,,,,,,,,,,,,,,,,,,,,,,,,,,,,,,2,46.7761,2,1,0,55,55,46,1,stimuli/stim_20210919_power2amp/equal_lnn_AM2Hz_s45_35.m4a,1.0266,,,,,,,,,,,
,,,,,41734,2021-10-01_17h04.52.842,judgeSpeechMusic_20210919_logNormShiftAmp_detection_fixFreq,2020.1.2,MacIntel,60,,,,,,,,,,,,,,,,,,,,,,,,,,,,,,1,65.0907,,0,0,56,56,4,1,stimuli/stim_20210919_power2amp/equal_lnn_AM2Hz_s15_40.m4a,,,,,,,,,,,,
,,,,,41734,2021-10-01_17h04.52.842,judgeSpeechMusic_20210919_logNormShiftAmp_detection_fixFreq,2020.1.2,MacIntel,60,,,,,,,,,,,,,,,,,,,,,,,,,,,,,,1,5.7045,,0,0,57,57,62,1,stimuli/stim_20210919_power2amp/equal_lnn_AM2Hz_s55_7.m4a,,,,,,,,,,,,
,,,,,41734,2021-10-01_17h04.52.842,judgeSpeechMusic_20210919_logNormShiftAmp_detection_fixFreq,2020.1.2,MacIntel,60,,,,,,,,,,,,,,,,,,,,,,,,,,,,,,1,5.8405,,0,0,58,58,56,1,stimuli/stim_20210919_power2amp/equal_lnn_AM2Hz_s45_44.m4a,,,,,,,,,,,,
,,,,,41734,2021-10-01_17h04.52.842,judgeSpeechMusic_20210919_logNormShiftAmp_detection_fixFreq,2020.1.2,MacIntel,60,,,,,,,,,,,,,,,,,,,,,,,,,,,,,,1,6.3768,,0,0,59,59,64,1,stimuli/stim_20210919_power2amp/equal_lnn_AM2Hz_s55_12.m4a,,,,,,,,,,,,
,,,,,41734,2021-10-01_17h04.52.842,judgeSpeechMusic_20210919_logNormShiftAmp_detection_fixFreq,2020.1.2,MacIntel,60,,,,,,,,,,,,,,,,,,,,,,,,,,,,,,2,5.809,,0,0,60,60,59,1,stimuli/stim_20210919_power2amp/equal_lnn_AM2Hz_s45_26.m4a,,,,,,,,,,,,
,,,,,41734,2021-10-01_17h04.52.842,judgeSpeechMusic_20210919_logNormShiftAmp_detection_fixFreq,2020.1.2,MacIntel,60,,,,,,,,,,,,,,,,,,,,,,,,,,,,,,1,5.8643,,0,0,61,61,22,1,stimuli/stim_20210919_power2amp/equal_lnn_AM2Hz_s25_50.m4a,,,,,,,,,,,,
,,,,,41734,2021-10-01_17h04.52.842,judgeSpeechMusic_20210919_logNormShiftAmp_detection_fixFreq,2020.1.2,MacIntel,60,,,,,,,,,,,,,,,,,,,,,,,,,,,,,,1,5.56,,0,0,62,62,5,1,stimuli/stim_20210919_power2amp/equal_lnn_AM2Hz_s15_16.m4a,,,,,,,,,,,,
,,,,,41734,2021-10-01_17h04.52.842,judgeSpeechMusic_20210919_logNormShiftAmp_detection_fixFreq,2020.1.2,MacIntel,60,,,,,,,,,,,,,,,,,,,,,,,,,,,,,,1,5.4082,,0,0,63,63,26,1,stimuli/stim_20210919_power2amp/equal_lnn_AM2Hz_s25_45.m4a,,,,,,,,,,,,
,,,,,41734,2021-10-01_17h04.52.842,judgeSpeechMusic_20210919_logNormShiftAmp_detection_fixFreq,2020.1.2,MacIntel,60,,,,,,,,,,,,,,,,,,,,,,,,,,,,,,1,5.392,,0,0,64,64,70,1,stimuli/stim_20210919_power2amp/equal_lnn_AM2Hz_s55_42.m4a,,,,,,,,,,,,
,,,,,41734,2021-10-01_17h04.52.842,judgeSpeechMusic_20210919_logNormShiftAmp_detection_fixFreq,2020.1.2,MacIntel,60,,,,,,,,,,,,,,,,,,,,,,,,,,,,,,1,5.4091,,0,0,65,65,53,1,stimuli/stim_20210919_power2amp/equal_lnn_AM2Hz_s45_24.m4a,,,,,,,,,,,,
,,,,,41734,2021-10-01_17h04.52.842,judgeSpeechMusic_20210919_logNormShiftAmp_detection_fixFreq,2020.1.2,MacIntel,60,,,,,,,,,,,,,,,,,,,,,,,,,,,,,,1,5.3984,,0,0,66,66,58,1,stimuli/stim_20210919_power2amp/equal_lnn_AM2Hz_s45_1.m4a,,,,,,,,,,,,
,,,,,41734,2021-10-01_17h04.52.842,judgeSpeechMusic_20210919_logNormShiftAmp_detection_fixFreq,2020.1.2,MacIntel,60,,,,,,,,,,,,,,,,,,,,,,,,,,,,,,2,6.2704,,0,0,67,67,3,1,stimuli/stim_20210919_power2amp/equal_lnn_AM2Hz_s15_25.m4a,,,,,,,,,,,,
,,,,,41734,2021-10-01_17h04.52.842,judgeSpeechMusic_20210919_logNormShiftAmp_detection_fixFreq,2020.1.2,MacIntel,60,,,,,,,,,,,,,,,,,,,,,,,,,,,,,,1,6.4761,,0,0,68,68,35,1,stimuli/stim_20210919_power2amp/equal_lnn_AM2Hz_s35_13.m4a,,,,,,,,,,,,
,,,,,41734,2021-10-01_17h04.52.842,judgeSpeechMusic_20210919_logNormShiftAmp_detection_fixFreq,2020.1.2,MacIntel,60,,,,,,,,,,,,,,,,,,,,,,,,,,,,,,1,5.6898,,0,0,69,69,68,1,stimuli/stim_20210919_power2amp/equal_lnn_AM2Hz_s55_46.m4a,,,,,,,,,,,,
,,,,,41734,2021-10-01_17h04.52.842,judgeSpeechMusic_20210919_logNormShiftAmp_detection_fixFreq,2020.1.2,MacIntel,60,,,,,,,,,,,,,,,,,,,,,,,,,,,,,,1,5.8577,,0,0,70,70,1,1,stimuli/stim_20210919_power2amp/equal_lnn_AM2Hz_s15_22.m4a,,,,,,,,,,,,
,,,,,41734,2021-10-01_17h04.52.842,judgeSpeechMusic_20210919_logNormShiftAmp_detection_fixFreq,2020.1.2,MacIntel,60,,,,,,,,,,,,,,,,,,,,,,,,,,,,,,1,5.7923,,0,0,71,71,8,1,stimuli/stim_20210919_power2amp/equal_lnn_AM2Hz_s15_3.m4a,,,,,,,,,,,,
,,,,,41734,2021-10-01_17h04.52.842,judgeSpeechMusic_20210919_logNormShiftAmp_detection_fixFreq,2020.1.2,MacIntel,60,,,,,,,,,,,,,,,,,,,,,,,,,,,,,,1,5.4586,,0,0,72,72,11,1,stimuli/stim_20210919_power2amp/equal_lnn_AM2Hz_s15_2.m4a,,,,,,,,,,,,
,,,,,41734,2021-10-01_17h04.52.842,judgeSpeechMusic_20210919_logNormShiftAmp_detection_fixFreq,2020.1.2,MacIntel,60,,,,,,,,,,,,,,,,,,,,,,,,,,,,,,1,28.3567,,0,0,73,73,16,1,stimuli/stim_20210919_power2amp/equal_lnn_AM2Hz_s25_20.m4a,,,,,,,,,,,,
,,,,,41734,2021-10-01_17h04.52.842,judgeSpeechMusic_20210919_logNormShiftAmp_detection_fixFreq,2020.1.2,MacIntel,60,,,,,,,,,,,,,,,,,,,,,,,,,,,,,,1,64.2964,,0,0,74,74,14,1,stimuli/stim_20210919_power2amp/equal_lnn_AM2Hz_s15_1.m4a,,,,,,,,,,,,
,,,,,41734,2021-10-01_17h04.52.842,judgeSpeechMusic_20210919_logNormShiftAmp_detection_fixFreq,2020.1.2,MacIntel,60,,,,,,,,,,,,,,,,,,,,,,,,,,,,,,,,,,,,,,,,,space,1.4407,0,0,0,0,1,MUSIC,stimuli/MUSIC.jpg,,
,,,,,41734,2021-10-01_17h04.52.842,judgeSpeechMusic_20210919_logNormShiftAmp_detection_fixFreq,2020.1.2,MacIntel,60,,,,,,,,,,,,,space,1.0204,1,20.5944,,0,0,0,0,3,1,stimuli/stim_20210919_power2amp/equal_lnn_AM_training2Hz_s50.m4a,,,,,,,,,,,,,,,,,,,,,,,,,,,
,,,,,41734,2021-10-01_17h04.52.842,judgeSpeechMusic_20210919_logNormShiftAmp_detection_fixFreq,2020.1.2,MacIntel,60,,,,,,,,,,,,,,,2,44.9623,,0,0,1,1,1,1,stimuli/stim_20210919_power2amp/equal_lnn_AM_training2Hz_s30.m4a,,,,,,,,,,,,,,,,,,,,,,,,,,,
,,,,,41734,2021-10-01_17h04.52.842,judgeSpeechMusic_20210919_logNormShiftAmp_detection_fixFreq,2020.1.2,MacIntel,60,,,,,,,,,,,,,,,1,5.6856,1,1,0,2,2,0,1,stimuli/stim_20210919_power2amp/equal_lnn_AM_training2Hz_s20.m4a,1.1666,,,,,,,,,,,,,,,,,,,,,,,,,,
,,,,,41734,2021-10-01_17h04.52.842,judgeSpeechMusic_20210919_logNormShiftAmp_detection_fixFreq,2020.1.2,MacIntel,60,,,,,,,,,,,,,,,1,7.8555,,0,0,3,3,2,1,stimuli/stim_20210919_power2amp/equal_lnn_AM_training2Hz_s40.m4a,,,,,,,,,,,,,,,,,,,,,,,,,,,
,,,,,41734,2021-10-01_17h04.52.842,judgeSpeechMusic_20210919_logNormShiftAmp_detection_fixFreq,2020.1.2,MacIntel,60,,,,,,,,,,,,,,,,,,,,,,,,,,space,0.8101,space,1.2361,1,5.9392,,0,0,0,0,22,1,stimuli/stim_20210919_power2amp/equal_lnn_AM2Hz_s25_50.m4a,,,,,,,,,,,,
,,,,,41734,2021-10-01_17h04.52.842,judgeSpeechMusic_20210919_logNormShiftAmp_detection_fixFreq,2020.1.2,MacIntel,60,,,,,,,,,,,,,,,,,,,,,,,,,,,,,,1,34.7127,,0,0,1,1,69,1,stimuli/stim_20210919_power2amp/equal_lnn_AM2Hz_s55_47.m4a,,,,,,,,,,,,
,,,,,41734,2021-10-01_17h04.52.842,judgeSpeechMusic_20210919_logNormShiftAmp_detection_fixFreq,2020.1.2,MacIntel,60,,,,,,,,,,,,,,,,,,,,,,,,,,,,,,2,6.3784,,0,0,2,2,47,1,stimuli/stim_20210919_power2amp/equal_lnn_AM2Hz_s45_27.m4a,,,,,,,,,,,,
,,,,,41734,2021-10-01_17h04.52.842,judgeSpeechMusic_20210919_logNormShiftAmp_detection_fixFreq,2020.1.2,MacIntel,60,,,,,,,,,,,,,,,,,,,,,,,,,,,,,,1,8.359,,0,0,3,3,13,1,stimuli/stim_20210919_power2amp/equal_lnn_AM2Hz_s15_47.m4a,,,,,,,,,,,,
,,,,,41734,2021-10-01_17h04.52.842,judgeSpeechMusic_20210919_logNormShiftAmp_detection_fixFreq,2020.1.2,MacIntel,60,,,,,,,,,,,,,,,,,,,,,,,,,,,,,,1,6.2219,,0,0,4,4,31,1,stimuli/stim_20210919_power2amp/equal_lnn_AM2Hz_s35_39.m4a,,,,,,,,,,,,
,,,,,41734,2021-10-01_17h04.52.842,judgeSpeechMusic_20210919_logNormShiftAmp_detection_fixFreq,2020.1.2,MacIntel,60,,,,,,,,,,,,,,,,,,,,,,,,,,,,,,2,6.7385,,0,0,5,5,60,1,stimuli/stim_20210919_power2amp/equal_lnn_AM2Hz_s55_33.m4a,,,,,,,,,,,,
,,,,,41734,2021-10-01_17h04.52.842,judgeSpeechMusic_20210919_logNormShiftAmp_detection_fixFreq,2020.1.2,MacIntel,60,,,,,,,,,,,,,,,,,,,,,,,,,,,,,,1,7.0784,,0,0,6,6,46,1,stimuli/stim_20210919_power2amp/equal_lnn_AM2Hz_s45_35.m4a,,,,,,,,,,,,
,,,,,41734,2021-10-01_17h04.52.842,judgeSpeechMusic_20210919_logNormShiftAmp_detection_fixFreq,2020.1.2,MacIntel,60,,,,,,,,,,,,,,,,,,,,,,,,,,,,,,1,6.8575,,0,0,7,7,28,1,stimuli/stim_20210919_power2amp/equal_lnn_AM2Hz_s25_31.m4a,,,,,,,,,,,,
,,,,,41734,2021-10-01_17h04.52.842,judgeSpeechMusic_20210919_logNormShiftAmp_detection_fixFreq,2020.1.2,MacIntel,60,,,,,,,,,,,,,,,,,,,,,,,,,,,,,,1,40.394,,0,0,8,8,45,1,stimuli/stim_20210919_power2amp/equal_lnn_AM2Hz_s45_47.m4a,,,,,,,,,,,,
,,,,,41734,2021-10-01_17h04.52.842,judgeSpeechMusic_20210919_logNormShiftAmp_detection_fixFreq,2020.1.2,MacIntel,60,,,,,,,,,,,,,,,,,,,,,,,,,,,,,,2,6.9929,,0,0,9,9,0,1,stimuli/stim_20210919_power2amp/equal_lnn_AM2Hz_s15_45.m4a,,,,,,,,,,,,
,,,,,41734,2021-10-01_17h04.52.842,judgeSpeechMusic_20210919_logNormShiftAmp_detection_fixFreq,2020.1.2,MacIntel,60,,,,,,,,,,,,,,,,,,,,,,,,,,,,,,2,5.8917,,0,0,10,10,70,1,stimuli/stim_20210919_power2amp/equal_lnn_AM2Hz_s55_42.m4a,,,,,,,,,,,,
,,,,,41734,2021-10-01_17h04.52.842,judgeSpeechMusic_20210919_logNormShiftAmp_detection_fixFreq,2020.1.2,MacIntel,60,,,,,,,,,,,,,,,,,,,,,,,,,,,,,,1,9.6711,,0,0,11,11,7,1,stimuli/stim_20210919_power2amp/equal_lnn_AM2Hz_s15_20.m4a,,,,,,,,,,,,
,,,,,41734,2021-10-01_17h04.52.842,judgeSpeechMusic_20210919_logNormShiftAmp_detection_fixFreq,2020.1.2,MacIntel,60,,,,,,,,,,,,,,,,,,,,,,,,,,,,,,1,8.5432,,0,0,12,12,42,1,stimuli/stim_20210919_power2amp/equal_lnn_AM2Hz_s35_1.m4a,,,,,,,,,,,,
,,,,,41734,2021-10-01_17h04.52.842,judgeSpeechMusic_20210919_logNormShiftAmp_detection_fixFreq,2020.1.2,MacIntel,60,,,,,,,,,,,,,,,,,,,,,,,,,,,,,,2,7.1417,,0,0,13,13,29,1,stimuli/stim_20210919_power2amp/equal_lnn_AM2Hz_s25_2.m4a,,,,,,,,,,,,
,,,,,41734,2021-10-01_17h04.52.842,judgeSpeechMusic_20210919_logNormShiftAmp_detection_fixFreq,2020.1.2,MacIntel,60,,,,,,,,,,,,,,,,,,,,,,,,,,,,,,1,6.8796,,0,0,14,14,57,1,stimuli/stim_20210919_power2amp/equal_lnn_AM2Hz_s45_13.m4a,,,,,,,,,,,,
,,,,,41734,2021-10-01_17h04.52.842,judgeSpeechMusic_20210919_logNormShiftAmp_detection_fixFreq,2020.1.2,MacIntel,60,,,,,,,,,,,,,,,,,,,,,,,,,,,,,,1,6.6755,,0,0,15,15,3,1,stimuli/stim_20210919_power2amp/equal_lnn_AM2Hz_s15_25.m4a,,,,,,,,,,,,
,,,,,41734,2021-10-01_17h04.52.842,judgeSpeechMusic_20210919_logNormShiftAmp_detection_fixFreq,2020.1.2,MacIntel,60,,,,,,,,,,,,,,,,,,,,,,,,,,,,,,1,7.5724,,0,0,16,16,16,1,stimuli/stim_20210919_power2amp/equal_lnn_AM2Hz_s25_20.m4a,,,,,,,,,,,,
,,,,,41734,2021-10-01_17h04.52.842,judgeSpeechMusic_20210919_logNormShiftAmp_detection_fixFreq,2020.1.2,MacIntel,60,,,,,,,,,,,,,,,,,,,,,,,,,,,,,,2,6.8442,,0,0,17,17,53,1,stimuli/stim_20210919_power2amp/equal_lnn_AM2Hz_s45_24.m4a,,,,,,,,,,,,
,,,,,41734,2021-10-01_17h04.52.842,judgeSpeechMusic_20210919_logNormShiftAmp_detection_fixFreq,2020.1.2,MacIntel,60,,,,,,,,,,,,,,,,,,,,,,,,,,,,,,1,7.0085,3,1,0,18,18,14,1,stimuli/stim_20210919_power2amp/equal_lnn_AM2Hz_s15_1.m4a,0.5246,,,,,,,,,,,
,,,,,41734,2021-10-01_17h04.52.842,judgeSpeechMusic_20210919_logNormShiftAmp_detection_fixFreq,2020.1.2,MacIntel,60,,,,,,,,,,,,,,,,,,,,,,,,,,,,,,1,6.5408,,0,0,19,19,1,1,stimuli/stim_20210919_power2amp/equal_lnn_AM2Hz_s15_22.m4a,,,,,,,,,,,,
,,,,,41734,2021-10-01_17h04.52.842,judgeSpeechMusic_20210919_logNormShiftAmp_detection_fixFreq,2020.1.2,MacIntel,60,,,,,,,,,,,,,,,,,,,,,,,,,,,,,,1,5.7131,,0,0,20,20,26,1,stimuli/stim_20210919_power2amp/equal_lnn_AM2Hz_s25_45.m4a,,,,,,,,,,,,
,,,,,41734,2021-10-01_17h04.52.842,judgeSpeechMusic_20210919_logNormShiftAmp_detection_fixFreq,2020.1.2,MacIntel,60,,,,,,,,,,,,,,,,,,,,,,,,,,,,,,1,5.6094,,0,0,21,21,39,1,stimuli/stim_20210919_power2amp/equal_lnn_AM2Hz_s35_46.m4a,,,,,,,,,,,,
,,,,,41734,2021-10-01_17h04.52.842,judgeSpeechMusic_20210919_logNormShiftAmp_detection_fixFreq,2020.1.2,MacIntel,60,,,,,,,,,,,,,,,,,,,,,,,,,,,,,,1,7.5262,,0,0,22,22,48,1,stimuli/stim_20210919_power2amp/equal_lnn_AM2Hz_s45_31.m4a,,,,,,,,,,,,
,,,,,41734,2021-10-01_17h04.52.842,judgeSpeechMusic_20210919_logNormShiftAmp_detection_fixFreq,2020.1.2,MacIntel,60,,,,,,,,,,,,,,,,,,,,,,,,,,,,,,1,7.1906,,0,0,23,23,11,1,stimuli/stim_20210919_power2amp/equal_lnn_AM2Hz_s15_2.m4a,,,,,,,,,,,,
,,,,,41734,2021-10-01_17h04.52.842,judgeSpeechMusic_20210919_logNormShiftAmp_detection_fixFreq,2020.1.2,MacIntel,60,,,,,,,,,,,,,,,,,,,,,,,,,,,,,,1,6.9115,,0,0,24,24,15,1,stimuli/stim_20210919_power2amp/equal_lnn_AM2Hz_s25_44.m4a,,,,,,,,,,,,
,,,,,41734,2021-10-01_17h04.52.842,judgeSpeechMusic_20210919_logNormShiftAmp_detection_fixFreq,2020.1.2,MacIntel,60,,,,,,,,,,,,,,,,,,,,,,,,,,,,,,1,7.6116,,0,0,25,25,35,1,stimuli/stim_20210919_power2amp/equal_lnn_AM2Hz_s35_13.m4a,,,,,,,,,,,,
,,,,,41734,2021-10-01_17h04.52.842,judgeSpeechMusic_20210919_logNormShiftAmp_detection_fixFreq,2020.1.2,MacIntel,60,,,,,,,,,,,,,,,,,,,,,,,,,,,,,,2,21.093,,0,0,26,26,64,1,stimuli/stim_20210919_power2amp/equal_lnn_AM2Hz_s55_12.m4a,,,,,,,,,,,,
,,,,,41734,2021-10-01_17h04.52.842,judgeSpeechMusic_20210919_logNormShiftAmp_detection_fixFreq,2020.1.2,MacIntel,60,,,,,,,,,,,,,,,,,,,,,,,,,,,,,,1,6.611,,0,0,27,27,5,1,stimuli/stim_20210919_power2amp/equal_lnn_AM2Hz_s15_16.m4a,,,,,,,,,,,,
,,,,,41734,2021-10-01_17h04.52.842,judgeSpeechMusic_20210919_logNormShiftAmp_detection_fixFreq,2020.1.2,MacIntel,60,,,,,,,,,,,,,,,,,,,,,,,,,,,,,,2,7.2378,,0,0,28,28,27,1,stimuli/stim_20210919_power2amp/equal_lnn_AM2Hz_s25_28.m4a,,,,,,,,,,,,
,,,,,41734,2021-10-01_17h04.52.842,judgeSpeechMusic_20210919_logNormShiftAmp_detection_fixFreq,2020.1.2,MacIntel,60,,,,,,,,,,,,,,,,,,,,,,,,,,,,,,1,5.9232,,0,0,29,29,41,1,stimuli/stim_20210919_power2amp/equal_lnn_AM2Hz_s35_27.m4a,,,,,,,,,,,,
,,,,,41734,2021-10-01_17h04.52.842,judgeSpeechMusic_20210919_logNormShiftAmp_detection_fixFreq,2020.1.2,MacIntel,60,,,,,,,,,,,,,,,,,,,,,,,,,,,,,,1,7.7763,,0,0,30,30,10,1,stimuli/stim_20210919_power2amp/equal_lnn_AM2Hz_s15_42.m4a,,,,,,,,,,,,
,,,,,41734,2021-10-01_17h04.52.842,judgeSpeechMusic_20210919_logNormShiftAmp_detection_fixFreq,2020.1.2,MacIntel,60,,,,,,,,,,,,,,,,,,,,,,,,,,,,,,1,6.1592,,0,0,31,31,32,1,stimuli/stim_20210919_power2amp/equal_lnn_AM2Hz_s35_50.m4a,,,,,,,,,,,,
,,,,,41734,2021-10-01_17h04.52.842,judgeSpeechMusic_20210919_logNormShiftAmp_detection_fixFreq,2020.1.2,MacIntel,60,,,,,,,,,,,,,,,,,,,,,,,,,,,,,,1,5.8246,,0,0,32,32,71,1,stimuli/stim_20210919_power2amp/equal_lnn_AM2Hz_s55_11.m4a,,,,,,,,,,,,
,,,,,41734,2021-10-01_17h04.52.842,judgeSpeechMusic_20210919_logNormShiftAmp_detection_fixFreq,2020.1.2,MacIntel,60,,,,,,,,,,,,,,,,,,,,,,,,,,,,,,2,6.6405,,0,0,33,33,51,1,stimuli/stim_20210919_power2amp/equal_lnn_AM2Hz_s45_46.m4a,,,,,,,,,,,,
,,,,,41734,2021-10-01_17h04.52.842,judgeSpeechMusic_20210919_logNormShiftAmp_detection_fixFreq,2020.1.2,MacIntel,60,,,,,,,,,,,,,,,,,,,,,,,,,,,,,,1,6.7922,,0,0,34,34,2,1,stimuli/stim_20210919_power2amp/equal_lnn_AM2Hz_s15_12.m4a,,,,,,,,,,,,
,,,,,41734,2021-10-01_17h04.52.842,judgeSpeechMusic_20210919_logNormShiftAmp_detection_fixFreq,2020.1.2,MacIntel,60,,,,,,,,,,,,,,,,,,,,,,,,,,,,,,1,11.6149,,0,0,35,35,52,1,stimuli/stim_20210919_power2amp/equal_lnn_AM2Hz_s45_21.m4a,,,,,,,,,,,,
,,,,,41734,2021-10-01_17h04.52.842,judgeSpeechMusic_20210919_logNormShiftAmp_detection_fixFreq,2020.1.2,MacIntel,60,,,,,,,,,,,,,,,,,,,,,,,,,,,,,,1,6.4382,3,1,0,36,36,67,1,stimuli/stim_20210919_power2amp/equal_lnn_AM2Hz_s55_5.m4a,1.2758,,,,,,,,,,,
,,,,,41734,2021-10-01_17h04.52.842,judgeSpeechMusic_20210919_logNormShiftAmp_detection_fixFreq,2020.1.2,MacIntel,60,,,,,,,,,,,,,,,,,,,,,,,,,,,,,,1,7.1598,,0,0,37,37,54,1,stimuli/stim_20210919_power2amp/equal_lnn_AM2Hz_s45_49.m4a,,,,,,,,,,,,
,,,,,41734,2021-10-01_17h04.52.842,judgeSpeechMusic_20210919_logNormShiftAmp_detection_fixFreq,2020.1.2,MacIntel,60,,,,,,,,,,,,,,,,,,,,,,,,,,,,,,2,5.9754,,0,0,38,38,12,1,stimuli/stim_20210919_power2amp/equal_lnn_AM2Hz_s15_26.m4a,,,,,,,,,,,,
,,,,,41734,2021-10-01_17h04.52.842,judgeSpeechMusic_20210919_logNormShiftAmp_detection_fixFreq,2020.1.2,MacIntel,60,,,,,,,,,,,,,,,,,,,,,,,,,,,,,,1,9.1398,,0,0,39,39,44,1,stimuli/stim_20210919_power2amp/equal_lnn_AM2Hz_s35_22.m4a,,,,,,,,,,,,
,,,,,41734,2021-10-01_17h04.52.842,judgeSpeechMusic_20210919_logNormShiftAmp_detection_fixFreq,2020.1.2,MacIntel,60,,,,,,,,,,,,,,,,,,,,,,,,,,,,,,1,6.2756,,0,0,40,40,73,1,stimuli/stim_20210919_power2amp/equal_lnn_AM2Hz_s55_41.m4a,,,,,,,,,,,,
,,,,,41734,2021-10-01_17h04.52.842,judgeSpeechMusic_20210919_logNormShiftAmp_detection_fixFreq,2020.1.2,MacIntel,60,,,,,,,,,,,,,,,,,,,,,,,,,,,,,,1,8.6556,,0,0,41,41,19,1,stimuli/stim_20210919_power2amp/equal_lnn_AM2Hz_s25_46.m4a,,,,,,,,,,,,
,,,,,41734,2021-10-01_17h04.52.842,judgeSpeechMusic_20210919_logNormShiftAmp_detection_fixFreq,2020.1.2,MacIntel,60,,,,,,,,,,,,,,,,,,,,,,,,,,,,,,2,6.9775,,0,0,42,42,37,1,stimuli/stim_20210919_power2amp/equal_lnn_AM2Hz_s35_20.m4a,,,,,,,,,,,,
,,,,,41734,2021-10-01_17h04.52.842,judgeSpeechMusic_20210919_logNormShiftAmp_detection_fixFreq,2020.1.2,MacIntel,60,,,,,,,,,,,,,,,,,,,,,,,,,,,,,,1,6.938,,0,0,43,43,58,1,stimuli/stim_20210919_power2amp/equal_lnn_AM2Hz_s45_1.m4a,,,,,,,,,,,,
,,,,,41734,2021-10-01_17h04.52.842,judgeSpeechMusic_20210919_logNormShiftAmp_detection_fixFreq,2020.1.2,MacIntel,60,,,,,,,,,,,,,,,,,,,,,,,,,,,,,,1,5.9263,,0,0,44,44,40,1,stimuli/stim_20210919_power2amp/equal_lnn_AM2Hz_s35_24.m4a,,,,,,,,,,,,
,,,,,41734,2021-10-01_17h04.52.842,judgeSpeechMusic_20210919_logNormShiftAmp_detection_fixFreq,2020.1.2,MacIntel,60,,,,,,,,,,,,,,,,,,,,,,,,,,,,,,1,21.5406,,0,0,45,45,49,1,stimuli/stim_20210919_power2amp/equal_lnn_AM2Hz_s45_18.m4a,,,,,,,,,,,,
,,,,,41734,2021-10-01_17h04.52.842,judgeSpeechMusic_20210919_logNormShiftAmp_detection_fixFreq,2020.1.2,MacIntel,60,,,,,,,,,,,,,,,,,,,,,,,,,,,,,,1,8.3439,,0,0,46,46,50,1,stimuli/stim_20210919_power2amp/equal_lnn_AM2Hz_s45_9.m4a,,,,,,,,,,,,
,,,,,41734,2021-10-01_17h04.52.842,judgeSpeechMusic_20210919_logNormShiftAmp_detection_fixFreq,2020.1.2,MacIntel,60,,,,,,,,,,,,,,,,,,,,,,,,,,,,,,1,11.2263,,0,0,47,47,6,1,stimuli/stim_20210919_power2amp/equal_lnn_AM2Hz_s15_36.m4a,,,,,,,,,,,,
,,,,,41734,2021-10-01_17h04.52.842,judgeSpeechMusic_20210919_logNormShiftAmp_detection_fixFreq,2020.1.2,MacIntel,60,,,,,,,,,,,,,,,,,,,,,,,,,,,,,,1,12.0565,,0,0,48,48,34,1,stimuli/stim_20210919_power2amp/equal_lnn_AM2Hz_s35_43.m4a,,,,,,,,,,,,
,,,,,41734,2021-10-01_17h04.52.842,judgeSpeechMusic_20210919_logNormShiftAmp_detection_fixFreq,2020.1.2,MacIntel,60,,,,,,,,,,,,,,,,,,,,,,,,,,,,,,1,10.7586,,0,0,49,49,36,1,stimuli/stim_20210919_power2amp/equal_lnn_AM2Hz_s35_3.m4a,,,,,,,,,,,,
,,,,,41734,2021-10-01_17h04.52.842,judgeSpeechMusic_20210919_logNormShiftAmp_detection_fixFreq,2020.1.2,MacIntel,60,,,,,,,,,,,,,,,,,,,,,,,,,,,,,,1,6.0247,,0,0,50,50,17,1,stimuli/stim_20210919_power2amp/equal_lnn_AM2Hz_s25_25.m4a,,,,,,,,,,,,
,,,,,41734,2021-10-01_17h04.52.842,judgeSpeechMusic_20210919_logNormShiftAmp_detection_fixFreq,2020.1.2,MacIntel,60,,,,,,,,,,,,,,,,,,,,,,,,,,,,,,1,10.4564,,0,0,51,51,4,1,stimuli/stim_20210919_power2amp/equal_lnn_AM2Hz_s15_40.m4a,,,,,,,,,,,,
,,,,,41734,2021-10-01_17h04.52.842,judgeSpeechMusic_20210919_logNormShiftAmp_detection_fixFreq,2020.1.2,MacIntel,60,,,,,,,,,,,,,,,,,,,,,,,,,,,,,,1,8.342,,0,0,52,52,9,1,stimuli/stim_20210919_power2amp/equal_lnn_AM2Hz_s15_48.m4a,,,,,,,,,,,,
,,,,,41734,2021-10-01_17h04.52.842,judgeSpeechMusic_20210919_logNormShiftAmp_detection_fixFreq,2020.1.2,MacIntel,60,,,,,,,,,,,,,,,,,,,,,,,,,,,,,,1,5.815,,0,0,53,53,18,1,stimuli/stim_20210919_power2amp/equal_lnn_AM2Hz_s25_24.m4a,,,,,,,,,,,,
,,,,,41734,2021-10-01_17h04.52.842,judgeSpeechMusic_20210919_logNormShiftAmp_detection_fixFreq,2020.1.2,MacIntel,60,,,,,,,,,,,,,,,,,,,,,,,,,,,,,,1,6.677,,0,0,54,54,74,1,stimuli/stim_20210919_power2amp/equal_lnn_AM2Hz_s55_15.m4a,,,,,,,,,,,,
,,,,,41734,2021-10-01_17h04.52.842,judgeSpeechMusic_20210919_logNormShiftAmp_detection_fixFreq,2020.1.2,MacIntel,60,,,,,,,,,,,,,,,,,,,,,,,,,,,,,,1,41.0935,1,1,0,55,55,24,1,stimuli/stim_20210919_power2amp/equal_lnn_AM2Hz_s25_42.m4a,2.043,,,,,,,,,,,
,,,,,41734,2021-10-01_17h04.52.842,judgeSpeechMusic_20210919_logNormShiftAmp_detection_fixFreq,2020.1.2,MacIntel,60,,,,,,,,,,,,,,,,,,,,,,,,,,,,,,1,12.4365,,0,0,56,56,62,1,stimuli/stim_20210919_power2amp/equal_lnn_AM2Hz_s55_7.m4a,,,,,,,,,,,,
,,,,,41734,2021-10-01_17h04.52.842,judgeSpeechMusic_20210919_logNormShiftAmp_detection_fixFreq,2020.1.2,MacIntel,60,,,,,,,,,,,,,,,,,,,,,,,,,,,,,,1,7.0629,,0,0,57,57,20,1,stimuli/stim_20210919_power2amp/equal_lnn_AM2Hz_s25_29.m4a,,,,,,,,,,,,
,,,,,41734,2021-10-01_17h04.52.842,judgeSpeechMusic_20210919_logNormShiftAmp_detection_fixFreq,2020.1.2,MacIntel,60,,,,,,,,,,,,,,,,,,,,,,,,,,,,,,1,56.5,,0,0,58,58,25,1,stimuli/stim_20210919_power2amp/equal_lnn_AM2Hz_s25_23.m4a,,,,,,,,,,,,
,,,,,41734,2021-10-01_17h04.52.842,judgeSpeechMusic_20210919_logNormShiftAmp_detection_fixFreq,2020.1.2,MacIntel,60,,,,,,,,,,,,,,,,,,,,,,,,,,,,,,1,6.8687,,0,0,59,59,43,1,stimuli/stim_20210919_power2amp/equal_lnn_AM2Hz_s35_2.m4a,,,,,,,,,,,,
,,,,,41734,2021-10-01_17h04.52.842,judgeSpeechMusic_20210919_logNormShiftAmp_detection_fixFreq,2020.1.2,MacIntel,60,,,,,,,,,,,,,,,,,,,,,,,,,,,,,,1,6.8437,,0,0,60,60,68,1,stimuli/stim_20210919_power2amp/equal_lnn_AM2Hz_s55_46.m4a,,,,,,,,,,,,
,,,,,41734,2021-10-01_17h04.52.842,judgeSpeechMusic_20210919_logNormShiftAmp_detection_fixFreq,2020.1.2,MacIntel,60,,,,,,,,,,,,,,,,,,,,,,,,,,,,,,2,6.675,,0,0,61,61,63,1,stimuli/stim_20210919_power2amp/equal_lnn_AM2Hz_s55_45.m4a,,,,,,,,,,,,
,,,,,41734,2021-10-01_17h04.52.842,judgeSpeechMusic_20210919_logNormShiftAmp_detection_fixFreq,2020.1.2,MacIntel,60,,,,,,,,,,,,,,,,,,,,,,,,,,,,,,1,6.7568,,0,0,62,62,61,1,stimuli/stim_20210919_power2amp/equal_lnn_AM2Hz_s55_48.m4a,,,,,,,,,,,,
,,,,,41734,2021-10-01_17h04.52.842,judgeSpeechMusic_20210919_logNormShiftAmp_detection_fixFreq,2020.1.2,MacIntel,60,,,,,,,,,,,,,,,,,,,,,,,,,,,,,,1,9.4414,,0,0,63,63,21,1,stimuli/stim_20210919_power2amp/equal_lnn_AM2Hz_s25_38.m4a,,,,,,,,,,,,
,,,,,41734,2021-10-01_17h04.52.842,judgeSpeechMusic_20210919_logNormShiftAmp_detection_fixFreq,2020.1.2,MacIntel,60,,,,,,,,,,,,,,,,,,,,,,,,,,,,,,1,6.9099,,0,0,64,64,59,1,stimuli/stim_20210919_power2amp/equal_lnn_AM2Hz_s45_26.m4a,,,,,,,,,,,,
,,,,,41734,2021-10-01_17h04.52.842,judgeSpeechMusic_20210919_logNormShiftAmp_detection_fixFreq,2020.1.2,MacIntel,60,,,,,,,,,,,,,,,,,,,,,,,,,,,,,,1,6.9467,,0,0,65,65,65,1,stimuli/stim_20210919_power2amp/equal_lnn_AM2Hz_s55_38.m4a,,,,,,,,,,,,
,,,,,41734,2021-10-01_17h04.52.842,judgeSpeechMusic_20210919_logNormShiftAmp_detection_fixFreq,2020.1.2,MacIntel,60,,,,,,,,,,,,,,,,,,,,,,,,,,,,,,1,7.5077,,0,0,66,66,72,1,stimuli/stim_20210919_power2amp/equal_lnn_AM2Hz_s55_31.m4a,,,,,,,,,,,,
,,,,,41734,2021-10-01_17h04.52.842,judgeSpeechMusic_20210919_logNormShiftAmp_detection_fixFreq,2020.1.2,MacIntel,60,,,,,,,,,,,,,,,,,,,,,,,,,,,,,,1,7.0227,,0,0,67,67,33,1,stimuli/stim_20210919_power2amp/equal_lnn_AM2Hz_s35_11.m4a,,,,,,,,,,,,
,,,,,41734,2021-10-01_17h04.52.842,judgeSpeechMusic_20210919_logNormShiftAmp_detection_fixFreq,2020.1.2,MacIntel,60,,,,,,,,,,,,,,,,,,,,,,,,,,,,,,2,7.7443,,0,0,68,68,66,1,stimuli/stim_20210919_power2amp/equal_lnn_AM2Hz_s55_19.m4a,,,,,,,,,,,,
,,,,,41734,2021-10-01_17h04.52.842,judgeSpeechMusic_20210919_logNormShiftAmp_detection_fixFreq,2020.1.2,MacIntel,60,,,,,,,,,,,,,,,,,,,,,,,,,,,,,,2,6.391,,0,0,69,69,8,1,stimuli/stim_20210919_power2amp/equal_lnn_AM2Hz_s15_3.m4a,,,,,,,,,,,,
,,,,,41734,2021-10-01_17h04.52.842,judgeSpeechMusic_20210919_logNormShiftAmp_detection_fixFreq,2020.1.2,MacIntel,60,,,,,,,,,,,,,,,,,,,,,,,,,,,,,,1,7.7408,,0,0,70,70,56,1,stimuli/stim_20210919_power2amp/equal_lnn_AM2Hz_s45_44.m4a,,,,,,,,,,,,
,,,,,41734,2021-10-01_17h04.52.842,judgeSpeechMusic_20210919_logNormShiftAmp_detection_fixFreq,2020.1.2,MacIntel,60,,,,,,,,,,,,,,,,,,,,,,,,,,,,,,1,7.3748,,0,0,71,71,23,1,stimuli/stim_20210919_power2amp/equal_lnn_AM2Hz_s25_17.m4a,,,,,,,,,,,,
,,,,,41734,2021-10-01_17h04.52.842,judgeSpeechMusic_20210919_logNormShiftAmp_detection_fixFreq,2020.1.2,MacIntel,60,,,,,,,,,,,,,,,,,,,,,,,,,,,,,,1,7.6062,,0,0,72,72,55,1,stimuli/stim_20210919_power2amp/equal_lnn_AM2Hz_s45_50.m4a,,,,,,,,,,,,
,,,,,41734,2021-10-01_17h04.52.842,judgeSpeechMusic_20210919_logNormShiftAmp_detection_fixFreq,2020.1.2,MacIntel,60,,,,,,,,,,,,,,,,,,,,,,,,,,,,,,2,7.3922,,0,0,73,73,30,1,stimuli/stim_20210919_power2amp/equal_lnn_AM2Hz_s35_40.m4a,,,,,,,,,,,,
,,,,,41734,2021-10-01_17h04.52.842,judgeSpeechMusic_20210919_logNormShiftAmp_detection_fixFreq,2020.1.2,MacIntel,60,,,,,,,,,,,,,,,,,,,,,,,,,,,,,,1,7.2776,,0,0,74,74,38,1,stimuli/stim_20210919_power2amp/equal_lnn_AM2Hz_s35_25.m4a,,,,,,,,,,,,
,,,,,41734,2021-10-01_17h04.52.842,judgeSpeechMusic_20210919_logNormShiftAmp_detection_fixFreq,2020.1.2,MacIntel,60,,,,,,,,,,,,,,,,,,,,,,,,,,,,,,,,,,,,,,,,,space,1.9946,0,1,1,1,1,SPEECH,stimuli/SPEECH.jpg,,
,,,,,41734,2021-10-01_17h04.52.842,judgeSpeechMusic_20210919_logNormShiftAmp_detection_fixFreq,2020.1.2,MacIntel,60,,,,,,,,,,,,,,,,,,0,0,0,0,2,1,stimuli/stim_20210919_power2amp/equal_lnn_AM_training2Hz_s40.m4a,,,,,,,,,,,,,,,,,,,,,,,,,,,
,,,,,41734,2021-10-01_17h04.52.842,judgeSpeechMusic_20210919_logNormShiftAmp_detection_fixFreq,2020.1.2,MacIntel,60,,,,,,,,,,,,,,,,,,,,,,,,,,space,1.8667,space,0.6333,1,5.8775,,0,0,0,0,67,1,stimuli/stim_20210919_power2amp/equal_lnn_AM2Hz_s55_5.m4a,,,,,,,,,,,,
,,,,,41734,2021-10-01_17h04.52.842,judgeSpeechMusic_20210919_logNormShiftAmp_detection_fixFreq,2020.1.2,MacIntel,60,,,,,,,,,,,,,,,,,,,,,,,,,,,,,,1,6.3929,,0,0,1,1,0,1,stimuli/stim_20210919_power2amp/equal_lnn_AM2Hz_s15_45.m4a,,,,,,,,,,,,
,,,,,41734,2021-10-01_17h04.52.842,judgeSpeechMusic_20210919_logNormShiftAmp_detection_fixFreq,2020.1.2,MacIntel,60,,,,,,,,,,,,,,,,,,,,,,,,,,,,,,1,6.9605,,0,0,2,2,51,1,stimuli/stim_20210919_power2amp/equal_lnn_AM2Hz_s45_46.m4a,,,,,,,,,,,,
,,,,,41734,2021-10-01_17h04.52.842,judgeSpeechMusic_20210919_logNormShiftAmp_detection_fixFreq,2020.1.2,MacIntel,60,,,,,,,,,,,,,,,,,,,,,,,,,,,,,,1,10.7098,,0,0,3,3,24,1,stimuli/stim_20210919_power2amp/equal_lnn_AM2Hz_s25_42.m4a,,,,,,,,,,,,
,,,,,41734,2021-10-01_17h04.52.842,judgeSpeechMusic_20210919_logNormShiftAmp_detection_fixFreq,2020.1.2,MacIntel,60,,,,,,,,,,,,,,,,,,,,,,,,,,,,,,1,5.848,,0,0,4,4,1,1,stimuli/stim_20210919_power2amp/equal_lnn_AM2Hz_s15_22.m4a,,,,,,,,,,,,
,,,,,41734,2021-10-01_17h04.52.842,judgeSpeechMusic_20210919_logNormShiftAmp_detection_fixFreq,2020.1.2,MacIntel,60,,,,,,,,,,,,,,,,,,,,,,,,,,,,,,1,42.7933,,0,0,5,5,37,1,stimuli/stim_20210919_power2amp/equal_lnn_AM2Hz_s35_20.m4a,,,,,,,,,,,,
,,,,,41734,2021-10-01_17h04.52.842,judgeSpeechMusic_20210919_logNormShiftAmp_detection_fixFreq,2020.1.2,MacIntel,60,,,,,,,,,,,,,,,,,,,,,,,,,,,,,,2,7.6593,,0,0,6,6,46,1,stimuli/stim_20210919_power2amp/equal_lnn_AM2Hz_s45_35.m4a,,,,,,,,,,,,
,,,,,41734,2021-10-01_17h04.52.842,judgeSpeechMusic_20210919_logNormShiftAmp_detection_fixFreq,2020.1.2,MacIntel,60,,,,,,,,,,,,,,,,,,,,,,,,,,,,,,1,15.8728,,0,0,7,7,40,1,stimuli/stim_20210919_power2amp/equal_lnn_AM2Hz_s35_24.m4a,,,,,,,,,,,,
,,,,,41734,2021-10-01_17h04.52.842,judgeSpeechMusic_20210919_logNormShiftAmp_detection_fixFreq,2020.1.2,MacIntel,60,,,,,,,,,,,,,,,,,,,,,,,,,,,,,,1,13.3142,,0,0,8,8,70,1,stimuli/stim_20210919_power2amp/equal_lnn_AM2Hz_s55_42.m4a,,,,,,,,,,,,
,,,,,41734,2021-10-01_17h04.52.842,judgeSpeechMusic_20210919_logNormShiftAmp_detection_fixFreq,2020.1.2,MacIntel,60,,,,,,,,,,,,,,,,,,,,,,,,,,,,,,1,6.695,,0,0,9,9,23,1,stimuli/stim_20210919_power2amp/equal_lnn_AM2Hz_s25_17.m4a,,,,,,,,,,,,
,,,,,41734,2021-10-01_17h04.52.842,judgeSpeechMusic_20210919_logNormShiftAmp_detection_fixFreq,2020.1.2,MacIntel,60,,,,,,,,,,,,,,,,,,,,,,,,,,,,,,1,34.5088,,0,0,10,10,11,1,stimuli/stim_20210919_power2amp/equal_lnn_AM2Hz_s15_2.m4a,,,,,,,,,,,,
,,,,,41734,2021-10-01_17h04.52.842,judgeSpeechMusic_20210919_logNormShiftAmp_detection_fixFreq,2020.1.2,MacIntel,60,,,,,,,,,,,,,,,,,,,,,,,,,,,,,,1,15.4642,,0,0,11,11,7,1,stimuli/stim_20210919_power2amp/equal_lnn_AM2Hz_s15_20.m4a,,,,,,,,,,,,
,,,,,41734,2021-10-01_17h04.52.842,judgeSpeechMusic_20210919_logNormShiftAmp_detection_fixFreq,2020.1.2,MacIntel,60,,,,,,,,,,,,,,,,,,,,,,,,,,,,,,1,8.5864,,0,0,12,12,14,1,stimuli/stim_20210919_power2amp/equal_lnn_AM2Hz_s15_1.m4a,,,,,,,,,,,,
,,,,,41734,2021-10-01_17h04.52.842,judgeSpeechMusic_20210919_logNormShiftAmp_detection_fixFreq,2020.1.2,MacIntel,60,,,,,,,,,,,,,,,,,,,,,,,,,,,,,,1,10.3061,,0,0,13,13,39,1,stimuli/stim_20210919_power2amp/equal_lnn_AM2Hz_s35_46.m4a,,,,,,,,,,,,
,,,,,41734,2021-10-01_17h04.52.842,judgeSpeechMusic_20210919_logNormShiftAmp_detection_fixFreq,2020.1.2,MacIntel,60,,,,,,,,,,,,,,,,,,,,,,,,,,,,,,1,6.8109,,0,0,14,14,25,1,stimuli/stim_20210919_power2amp/equal_lnn_AM2Hz_s25_23.m4a,,,,,,,,,,,,
,,,,,41734,2021-10-01_17h04.52.842,judgeSpeechMusic_20210919_logNormShiftAmp_detection_fixFreq,2020.1.2,MacIntel,60,,,,,,,,,,,,,,,,,,,,,,,,,,,,,,1,22.2474,,0,0,15,15,49,1,stimuli/stim_20210919_power2amp/equal_lnn_AM2Hz_s45_18.m4a,,,,,,,,,,,,
,,,,,41734,2021-10-01_17h04.52.842,judgeSpeechMusic_20210919_logNormShiftAmp_detection_fixFreq,2020.1.2,MacIntel,60,,,,,,,,,,,,,,,,,,,,,,,,,,,,,,1,6.6818,,0,0,16,16,3,1,stimuli/stim_20210919_power2amp/equal_lnn_AM2Hz_s15_25.m4a,,,,,,,,,,,,
,,,,,41734,2021-10-01_17h04.52.842,judgeSpeechMusic_20210919_logNormShiftAmp_detection_fixFreq,2020.1.2,MacIntel,60,,,,,,,,,,,,,,,,,,,,,,,,,,,,,,1,12.1739,,0,0,17,17,17,1,stimuli/stim_20210919_power2amp/equal_lnn_AM2Hz_s25_25.m4a,,,,,,,,,,,,
,,,,,41734,2021-10-01_17h04.52.842,judgeSpeechMusic_20210919_logNormShiftAmp_detection_fixFreq,2020.1.2,MacIntel,60,,,,,,,,,,,,,,,,,,,,,,,,,,,,,,1,17.19,3,1,0,18,18,60,1,stimuli/stim_20210919_power2amp/equal_lnn_AM2Hz_s55_33.m4a,4.6331,,,,,,,,,,,
,,,,,41734,2021-10-01_17h04.52.842,judgeSpeechMusic_20210919_logNormShiftAmp_detection_fixFreq,2020.1.2,MacIntel,60,,,,,,,,,,,,,,,,,,,,,,,,,,,,,,1,8.5081,,0,0,19,19,59,1,stimuli/stim_20210919_power2amp/equal_lnn_AM2Hz_s45_26.m4a,,,,,,,,,,,,
,,,,,41734,2021-10-01_17h04.52.842,judgeSpeechMusic_20210919_logNormShiftAmp_detection_fixFreq,2020.1.2,MacIntel,60,,,,,,,,,,,,,,,,,,,,,,,,,,,,,,1,22.0475,,0,0,20,20,16,1,stimuli/stim_20210919_power2amp/equal_lnn_AM2Hz_s25_20.m4a,,,,,,,,,,,,
,,,,,41734,2021-10-01_17h04.52.842,judgeSpeechMusic_20210919_logNormShiftAmp_detection_fixFreq,2020.1.2,MacIntel,60,,,,,,,,,,,,,,,,,,,,,,,,,,,,,,1,11.0283,,0,0,21,21,62,1,stimuli/stim_20210919_power2amp/equal_lnn_AM2Hz_s55_7.m4a,,,,,,,,,,,,
,,,,,41734,2021-10-01_17h04.52.842,judgeSpeechMusic_20210919_logNormShiftAmp_detection_fixFreq,2020.1.2,MacIntel,60,,,,,,,,,,,,,,,,,,,,,,,,,,,,,,1,6.3917,,0,0,22,22,66,1,stimuli/stim_20210919_power2amp/equal_lnn_AM2Hz_s55_19.m4a,,,,,,,,,,,,
,,,,,41734,2021-10-01_17h04.52.842,judgeSpeechMusic_20210919_logNormShiftAmp_detection_fixFreq,2020.1.2,MacIntel,60,,,,,,,,,,,,,,,,,,,,,,,,,,,,,,1,11.0097,,0,0,23,23,73,1,stimuli/stim_20210919_power2amp/equal_lnn_AM2Hz_s55_41.m4a,,,,,,,,,,,,
,,,,,41734,2021-10-01_17h04.52.842,judgeSpeechMusic_20210919_logNormShiftAmp_detection_fixFreq,2020.1.2,MacIntel,60,,,,,,,,,,,,,,,,,,,,,,,,,,,,,,1,6.7924,,0,0,24,24,9,1,stimuli/stim_20210919_power2amp/equal_lnn_AM2Hz_s15_48.m4a,,,,,,,,,,,,
,,,,,41734,2021-10-01_17h04.52.842,judgeSpeechMusic_20210919_logNormShiftAmp_detection_fixFreq,2020.1.2,MacIntel,60,,,,,,,,,,,,,,,,,,,,,,,,,,,,,,1,7.4596,,0,0,25,25,30,1,stimuli/stim_20210919_power2amp/equal_lnn_AM2Hz_s35_40.m4a,,,,,,,,,,,,
,,,,,41734,2021-10-01_17h04.52.842,judgeSpeechMusic_20210919_logNormShiftAmp_detection_fixFreq,2020.1.2,MacIntel,60,,,,,,,,,,,,,,,,,,,,,,,,,,,,,,1,10.1401,,0,0,26,26,21,1,stimuli/stim_20210919_power2amp/equal_lnn_AM2Hz_s25_38.m4a,,,,,,,,,,,,
,,,,,41734,2021-10-01_17h04.52.842,judgeSpeechMusic_20210919_logNormShiftAmp_detection_fixFreq,2020.1.2,MacIntel,60,,,,,,,,,,,,,,,,,,,,,,,,,,,,,,1,7.6601,,0,0,27,27,41,1,stimuli/stim_20210919_power2amp/equal_lnn_AM2Hz_s35_27.m4a,,,,,,,,,,,,
,,,,,41734,2021-10-01_17h04.52.842,judgeSpeechMusic_20210919_logNormShiftAmp_detection_fixFreq,2020.1.2,MacIntel,60,,,,,,,,,,,,,,,,,,,,,,,,,,,,,,1,7.0592,,0,0,28,28,44,1,stimuli/stim_20210919_power2amp/equal_lnn_AM2Hz_s35_22.m4a,,,,,,,,,,,,
,,,,,41734,2021-10-01_17h04.52.842,judgeSpeechMusic_20210919_logNormShiftAmp_detection_fixFreq,2020.1.2,MacIntel,60,,,,,,,,,,,,,,,,,,,,,,,,,,,,,,1,6.2427,,0,0,29,29,53,1,stimuli/stim_20210919_power2amp/equal_lnn_AM2Hz_s45_24.m4a,,,,,,,,,,,,
,,,,,41734,2021-10-01_17h04.52.842,judgeSpeechMusic_20210919_logNormShiftAmp_detection_fixFreq,2020.1.2,MacIntel,60,,,,,,,,,,,,,,,,,,,,,,,,,,,,,,1,6.2101,,0,0,30,30,68,1,stimuli/stim_20210919_power2amp/equal_lnn_AM2Hz_s55_46.m4a,,,,,,,,,,,,
,,,,,41734,2021-10-01_17h04.52.842,judgeSpeechMusic_20210919_logNormShiftAmp_detection_fixFreq,2020.1.2,MacIntel,60,,,,,,,,,,,,,,,,,,,,,,,,,,,,,,2,7.6119,,0,0,31,31,31,1,stimuli/stim_20210919_power2amp/equal_lnn_AM2Hz_s35_39.m4a,,,,,,,,,,,,
,,,,,41734,2021-10-01_17h04.52.842,judgeSpeechMusic_20210919_logNormShiftAmp_detection_fixFreq,2020.1.2,MacIntel,60,,,,,,,,,,,,,,,,,,,,,,,,,,,,,,1,6.5961,,0,0,32,32,54,1,stimuli/stim_20210919_power2amp/equal_lnn_AM2Hz_s45_49.m4a,,,,,,,,,,,,
,,,,,41734,2021-10-01_17h04.52.842,judgeSpeechMusic_20210919_logNormShiftAmp_detection_fixFreq,2020.1.2,MacIntel,60,,,,,,,,,,,,,,,,,,,,,,,,,,,,,,1,6.9752,,0,0,33,33,13,1,stimuli/stim_20210919_power2amp/equal_lnn_AM2Hz_s15_47.m4a,,,,,,,,,,,,
,,,,,41734,2021-10-01_17h04.52.842,judgeSpeechMusic_20210919_logNormShiftAmp_detection_fixFreq,2020.1.2,MacIntel,60,,,,,,,,,,,,,,,,,,,,,,,,,,,,,,1,6.0748,,0,0,34,34,33,1,stimuli/stim_20210919_power2amp/equal_lnn_AM2Hz_s35_11.m4a,,,,,,,,,,,,
,,,,,41734,2021-10-01_17h04.52.842,judgeSpeechMusic_20210919_logNormShiftAmp_detection_fixFreq,2020.1.2,MacIntel,60,,,,,,,,,,,,,,,,,,,,,,,,,,,,,,1,6.6427,,0,0,35,35,56,1,stimuli/stim_20210919_power2amp/equal_lnn_AM2Hz_s45_44.m4a,,,,,,,,,,,,
,,,,,41734,2021-10-01_17h04.52.842,judgeSpeechMusic_20210919_logNormShiftAmp_detection_fixFreq,2020.1.2,MacIntel,60,,,,,,,,,,,,,,,,,,,,,,,,,,,,,,1,6.0582,4,1,0,36,36,15,1,stimuli/stim_20210919_power2amp/equal_lnn_AM2Hz_s25_44.m4a,0.9455,,,,,,,,,,,
,,,,,41734,2021-10-01_17h04.52.842,judgeSpeechMusic_20210919_logNormShiftAmp_detection_fixFreq,2020.1.2,MacIntel,60,,,,,,,,,,,,,,,,,,,,,,,,,,,,,,1,6.6467,,0,0,37,37,8,1,stimuli/stim_20210919_power2amp/equal_lnn_AM2Hz_s15_3.m4a,,,,,,,,,,,,
,,,,,41734,2021-10-01_17h04.52.842,judgeSpeechMusic_20210919_logNormShiftAmp_detection_fixFreq,2020.1.2,MacIntel,60,,,,,,,,,,,,,,,,,,,,,,,,,,,,,,1,6.3795,,0,0,38,38,32,1,stimuli/stim_20210919_power2amp/equal_lnn_AM2Hz_s35_50.m4a,,,,,,,,,,,,
,,,,,41734,2021-10-01_17h04.52.842,judgeSpeechMusic_20210919_logNormShiftAmp_detection_fixFreq,2020.1.2,MacIntel,60,,,,,,,,,,,,,,,,,,,,,,,,,,,,,,1,6.5917,,0,0,39,39,5,1,stimuli/stim_20210919_power2amp/equal_lnn_AM2Hz_s15_16.m4a,,,,,,,,,,,,
,,,,,41734,2021-10-01_17h04.52.842,judgeSpeechMusic_20210919_logNormShiftAmp_detection_fixFreq,2020.1.2,MacIntel,60,,,,,,,,,,,,,,,,,,,,,,,,,,,,,,1,6.9089,,0,0,40,40,69,1,stimuli/stim_20210919_power2amp/equal_lnn_AM2Hz_s55_47.m4a,,,,,,,,,,,,
,,,,,41734,2021-10-01_17h04.52.842,judgeSpeechMusic_20210919_logNormShiftAmp_detection_fixFreq,2020.1.2,MacIntel,60,,,,,,,,,,,,,,,,,,,,,,,,,,,,,,2,7.7445,,0,0,41,41,58,1,stimuli/stim_20210919_power2amp/equal_lnn_AM2Hz_s45_1.m4a,,,,,,,,,,,,
,,,,,41734,2021-10-01_17h04.52.842,judgeSpeechMusic_20210919_logNormShiftAmp_detection_fixFreq,2020.1.2,MacIntel,60,,,,,,,,,,,,,,,,,,,,,,,,,,,,,,2,13.8761,,0,0,42,42,57,1,stimuli/stim_20210919_power2amp/equal_lnn_AM2Hz_s45_13.m4a,,,,,,,,,,,,
,,,,,41734,2021-10-01_17h04.52.842,judgeSpeechMusic_20210919_logNormShiftAmp_detection_fixFreq,2020.1.2,MacIntel,60,,,,,,,,,,,,,,,,,,,,,,,,,,,,,,1,8.265,,0,0,43,43,27,1,stimuli/stim_20210919_power2amp/equal_lnn_AM2Hz_s25_28.m4a,,,,,,,,,,,,
,,,,,41734,2021-10-01_17h04.52.842,judgeSpeechMusic_20210919_logNormShiftAmp_detection_fixFreq,2020.1.2,MacIntel,60,,,,,,,,,,,,,,,,,,,,,,,,,,,,,,1,6.4425,,0,0,44,44,42,1,stimuli/stim_20210919_power2amp/equal_lnn_AM2Hz_s35_1.m4a,,,,,,,,,,,,
,,,,,41734,2021-10-01_17h04.52.842,judgeSpeechMusic_20210919_logNormShiftAmp_detection_fixFreq,2020.1.2,MacIntel,60,,,,,,,,,,,,,,,,,,,,,,,,,,,,,,1,8.3614,,0,0,45,45,2,1,stimuli/stim_20210919_power2amp/equal_lnn_AM2Hz_s15_12.m4a,,,,,,,,,,,,
,,,,,41734,2021-10-01_17h04.52.842,judgeSpeechMusic_20210919_logNormShiftAmp_detection_fixFreq,2020.1.2,MacIntel,60,,,,,,,,,,,,,,,,,,,,,,,,,,,,,,1,11.7065,,0,0,46,46,63,1,stimuli/stim_20210919_power2amp/equal_lnn_AM2Hz_s55_45.m4a,,,,,,,,,,,,
,,,,,41734,2021-10-01_17h04.52.842,judgeSpeechMusic_20210919_logNormShiftAmp_detection_fixFreq,2020.1.2,MacIntel,60,,,,,,,,,,,,,,,,,,,,,,,,,,,,,,1,13.2425,,0,0,47,47,74,1,stimuli/stim_20210919_power2amp/equal_lnn_AM2Hz_s55_15.m4a,,,,,,,,,,,,
,,,,,41734,2021-10-01_17h04.52.842,judgeSpeechMusic_20210919_logNormShiftAmp_detection_fixFreq,2020.1.2,MacIntel,60,,,,,,,,,,,,,,,,,,,,,,,,,,,,,,1,6.5424,,0,0,48,48,45,1,stimuli/stim_20210919_power2amp/equal_lnn_AM2Hz_s45_47.m4a,,,,,,,,,,,,
,,,,,41734,2021-10-01_17h04.52.842,judgeSpeechMusic_20210919_logNormShiftAmp_detection_fixFreq,2020.1.2,MacIntel,60,,,,,,,,,,,,,,,,,,,,,,,,,,,,,,1,5.9111,,0,0,49,49,26,1,stimuli/stim_20210919_power2amp/equal_lnn_AM2Hz_s25_45.m4a,,,,,,,,,,,,
,,,,,41734,2021-10-01_17h04.52.842,judgeSpeechMusic_20210919_logNormShiftAmp_detection_fixFreq,2020.1.2,MacIntel,60,,,,,,,,,,,,,,,,,,,,,,,,,,,,,,2,7.5308,,0,0,50,50,29,1,stimuli/stim_20210919_power2amp/equal_lnn_AM2Hz_s25_2.m4a,,,,,,,,,,,,
,,,,,41734,2021-10-01_17h04.52.842,judgeSpeechMusic_20210919_logNormShiftAmp_detection_fixFreq,2020.1.2,MacIntel,60,,,,,,,,,,,,,,,,,,,,,,,,,,,,,,2,21.9203,,0,0,51,51,43,1,stimuli/stim_20210919_power2amp/equal_lnn_AM2Hz_s35_2.m4a,,,,,,,,,,,,
,,,,,41734,2021-10-01_17h04.52.842,judgeSpeechMusic_20210919_logNormShiftAmp_detection_fixFreq,2020.1.2,MacIntel,60,,,,,,,,,,,,,,,,,,,,,,,,,,,,,,2,10.109,,0,0,52,52,65,1,stimuli/stim_20210919_power2amp/equal_lnn_AM2Hz_s55_38.m4a,,,,,,,,,,,,
,,,,,41734,2021-10-01_17h04.52.842,judgeSpeechMusic_20210919_logNormShiftAmp_detection_fixFreq,2020.1.2,MacIntel,60,,,,,,,,,,,,,,,,,,,,,,,,,,,,,,1,6.2286,,0,0,53,53,71,1,stimuli/stim_20210919_power2amp/equal_lnn_AM2Hz_s55_11.m4a,,,,,,,,,,,,
,,,,,41734,2021-10-01_17h04.52.842,judgeSpeechMusic_20210919_logNormShiftAmp_detection_fixFreq,2020.1.2,MacIntel,60,,,,,,,,,,,,,,,,,,,,,,,,,,,,,,2,5.7919,,0,0,54,54,12,1,stimuli/stim_20210919_power2amp/equal_lnn_AM2Hz_s15_26.m4a,,,,,,,,,,,,
,,,,,41734,2021-10-01_17h04.52.842,judgeSpeechMusic_20210919_logNormShiftAmp_detection_fixFreq,2020.1.2,MacIntel,60,,,,,,,,,,,,,,,,,,,,,,,,,,,,,,2,1595.274,3,0,0,55,55,20,1,stimuli/stim_20210919_power2amp/equal_lnn_AM2Hz_s25_29.m4a,6.5213,,,,,,,,,,,
,,,,,41734,2021-10-01_17h04.52.842,judgeSpeechMusic_20210919_logNormShiftAmp_detection_fixFreq,2020.1.2,MacIntel,60,,,,,,,,,,,,,,,,,,,,,,,,,,,,,,2,5.79,,0,0,56,56,64,1,stimuli/stim_20210919_power2amp/equal_lnn_AM2Hz_s55_12.m4a,,,,,,,,,,,,
,,,,,41734,2021-10-01_17h04.52.842,judgeSpeechMusic_20210919_logNormShiftAmp_detection_fixFreq,2020.1.2,MacIntel,60,,,,,,,,,,,,,,,,,,,,,,,,,,,,,,1,6.7744,,0,0,57,57,52,1,stimuli/stim_20210919_power2amp/equal_lnn_AM2Hz_s45_21.m4a,,,,,,,,,,,,
,,,,,41734,2021-10-01_17h04.52.842,judgeSpeechMusic_20210919_logNormShiftAmp_detection_fixFreq,2020.1.2,MacIntel,60,,,,,,,,,,,,,,,,,,,,,,,,,,,,,,1,6.5015,,0,0,58,58,47,1,stimuli/stim_20210919_power2amp/equal_lnn_AM2Hz_s45_27.m4a,,,,,,,,,,,,
,,,,,41734,2021-10-01_17h04.52.842,judgeSpeechMusic_20210919_logNormShiftAmp_detection_fixFreq,2020.1.2,MacIntel,60,,,,,,,,,,,,,,,,,,,,,,,,,,,,,,1,6.0586,,0,0,59,59,34,1,stimuli/stim_20210919_power2amp/equal_lnn_AM2Hz_s35_43.m4a,,,,,,,,,,,,
,,,,,41734,2021-10-01_17h04.52.842,judgeSpeechMusic_20210919_logNormShiftAmp_detection_fixFreq,2020.1.2,MacIntel,60,,,,,,,,,,,,,,,,,,,,,,,,,,,,,,1,5.8751,,0,0,60,60,18,1,stimuli/stim_20210919_power2amp/equal_lnn_AM2Hz_s25_24.m4a,,,,,,,,,,,,
,,,,,41734,2021-10-01_17h04.52.842,judgeSpeechMusic_20210919_logNormShiftAmp_detection_fixFreq,2020.1.2,MacIntel,60,,,,,,,,,,,,,,,,,,,,,,,,,,,,,,1,5.6806,,0,0,61,61,35,1,stimuli/stim_20210919_power2amp/equal_lnn_AM2Hz_s35_13.m4a,,,,,,,,,,,,
,,,,,41734,2021-10-01_17h04.52.842,judgeSpeechMusic_20210919_logNormShiftAmp_detection_fixFreq,2020.1.2,MacIntel,60,,,,,,,,,,,,,,,,,,,,,,,,,,,,,,2,6.0249,,0,0,62,62,55,1,stimuli/stim_20210919_power2amp/equal_lnn_AM2Hz_s45_50.m4a,,,,,,,,,,,,
,,,,,41734,2021-10-01_17h04.52.842,judgeSpeechMusic_20210919_logNormShiftAmp_detection_fixFreq,2020.1.2,MacIntel,60,,,,,,,,,,,,,,,,,,,,,,,,,,,,,,1,5.9266,,0,0,63,63,19,1,stimuli/stim_20210919_power2amp/equal_lnn_AM2Hz_s25_46.m4a,,,,,,,,,,,,
,,,,,41734,2021-10-01_17h04.52.842,judgeSpeechMusic_20210919_logNormShiftAmp_detection_fixFreq,2020.1.2,MacIntel,60,,,,,,,,,,,,,,,,,,,,,,,,,,,,,,2,5.527,,0,0,64,64,36,1,stimuli/stim_20210919_power2amp/equal_lnn_AM2Hz_s35_3.m4a,,,,,,,,,,,,
,,,,,41734,2021-10-01_17h04.52.842,judgeSpeechMusic_20210919_logNormShiftAmp_detection_fixFreq,2020.1.2,MacIntel,60,,,,,,,,,,,,,,,,,,,,,,,,,,,,,,1,7.0595,,0,0,65,65,50,1,stimuli/stim_20210919_power2amp/equal_lnn_AM2Hz_s45_9.m4a,,,,,,,,,,,,
,,,,,41734,2021-10-01_17h04.52.842,judgeSpeechMusic_20210919_logNormShiftAmp_detection_fixFreq,2020.1.2,MacIntel,60,,,,,,,,,,,,,,,,,,,,,,,,,,,,,,1,5.6069,,0,0,66,66,10,1,stimuli/stim_20210919_power2amp/equal_lnn_AM2Hz_s15_42.m4a,,,,,,,,,,,,
,,,,,41734,2021-10-01_17h04.52.842,judgeSpeechMusic_20210919_logNormShiftAmp_detection_fixFreq,2020.1.2,MacIntel,60,,,,,,,,,,,,,,,,,,,,,,,,,,,,,,2,5.8439,,0,0,67,67,38,1,stimuli/stim_20210919_power2amp/equal_lnn_AM2Hz_s35_25.m4a,,,,,,,,,,,,
,,,,,41734,2021-10-01_17h04.52.842,judgeSpeechMusic_20210919_logNormShiftAmp_detection_fixFreq,2020.1.2,MacIntel,60,,,,,,,,,,,,,,,,,,,,,,,,,,,,,,1,5.8814,,0,0,68,68,61,1,stimuli/stim_20210919_power2amp/equal_lnn_AM2Hz_s55_48.m4a,,,,,,,,,,,,
,,,,,41734,2021-10-01_17h04.52.842,judgeSpeechMusic_20210919_logNormShiftAmp_detection_fixFreq,2020.1.2,MacIntel,60,,,,,,,,,,,,,,,,,,,,,,,,,,,,,,1,5.3732,,0,0,69,69,22,1,stimuli/stim_20210919_power2amp/equal_lnn_AM2Hz_s25_50.m4a,,,,,,,,,,,,
,,,,,41734,2021-10-01_17h04.52.842,judgeSpeechMusic_20210919_logNormShiftAmp_detection_fixFreq,2020.1.2,MacIntel,60,,,,,,,,,,,,,,,,,,,,,,,,,,,,,,2,5.7108,,0,0,70,70,48,1,stimuli/stim_20210919_power2amp/equal_lnn_AM2Hz_s45_31.m4a,,,,,,,,,,,,
,,,,,41734,2021-10-01_17h04.52.842,judgeSpeechMusic_20210919_logNormShiftAmp_detection_fixFreq,2020.1.2,MacIntel,60,,,,,,,,,,,,,,,,,,,,,,,,,,,,,,1,5.3748,,0,0,71,71,4,1,stimuli/stim_20210919_power2amp/equal_lnn_AM2Hz_s15_40.m4a,,,,,,,,,,,,
,,,,,41734,2021-10-01_17h04.52.842,judgeSpeechMusic_20210919_logNormShiftAmp_detection_fixFreq,2020.1.2,MacIntel,60,,,,,,,,,,,,,,,,,,,,,,,,,,,,,,2,5.5414,,0,0,72,72,6,1,stimuli/stim_20210919_power2amp/equal_lnn_AM2Hz_s15_36.m4a,,,,,,,,,,,,
,,,,,41734,2021-10-01_17h04.52.842,judgeSpeechMusic_20210919_logNormShiftAmp_detection_fixFreq,2020.1.2,MacIntel,60,,,,,,,,,,,,,,,,,,,,,,,,,,,,,,1,5.5471,,0,0,73,73,28,1,stimuli/stim_20210919_power2amp/equal_lnn_AM2Hz_s25_31.m4a,,,,,,,,,,,,
,,,,,41734,2021-10-01_17h04.52.842,judgeSpeechMusic_20210919_logNormShiftAmp_detection_fixFreq,2020.1.2,MacIntel,60,,,,,,,,,,,,,,,,,,,,,,,,,,,,,,1,5.8065,,0,0,74,74,72,1,stimuli/stim_20210919_power2amp/equal_lnn_AM2Hz_s55_31.m4a,,,,,,,,,,,,
,,,,,41734,2021-10-01_17h04.52.842,judgeSpeechMusic_20210919_logNormShiftAmp_detection_fixFreq,2020.1.2,MacIntel,60,,,,,,,,,,,,,,,,,,,,,,,,,,,,,,,,,,,,,,,,,space,0.7994,1,0,2,1,1,SPEECH,stimuli/SPEECH.jpg,,
,,,,,41734,2021-10-01_17h04.52.842,judgeSpeechMusic_20210919_logNormShiftAmp_detection_fixFreq,2020.1.2,MacIntel,60,,,,,,,,,,,,,,,,,,0,0,0,0,3,1,stimuli/stim_20210919_power2amp/equal_lnn_AM_training2Hz_s50.m4a,,,,,,,,,,,,,,,,,,,,,,,,,,,
,,,,,41734,2021-10-01_17h04.52.842,judgeSpeechMusic_20210919_logNormShiftAmp_detection_fixFreq,2020.1.2,MacIntel,60,,,,,,,,,,,,,,,,,,,,,,,,,,space,2.5931,space,2.2732,1,7.0403,,0,0,0,0,48,1,stimuli/stim_20210919_power2amp/equal_lnn_AM2Hz_s45_31.m4a,,,,,,,,,,,,
,,,,,41734,2021-10-01_17h04.52.842,judgeSpeechMusic_20210919_logNormShiftAmp_detection_fixFreq,2020.1.2,MacIntel,60,,,,,,,,,,,,,,,,,,,,,,,,,,,,,,1,6.1558,,0,0,1,1,53,1,stimuli/stim_20210919_power2amp/equal_lnn_AM2Hz_s45_24.m4a,,,,,,,,,,,,
,,,,,41734,2021-10-01_17h04.52.842,judgeSpeechMusic_20210919_logNormShiftAmp_detection_fixFreq,2020.1.2,MacIntel,60,,,,,,,,,,,,,,,,,,,,,,,,,,,,,,2,5.7582,,0,0,2,2,66,1,stimuli/stim_20210919_power2amp/equal_lnn_AM2Hz_s55_19.m4a,,,,,,,,,,,,
,,,,,41734,2021-10-01_17h04.52.842,judgeSpeechMusic_20210919_logNormShiftAmp_detection_fixFreq,2020.1.2,MacIntel,60,,,,,,,,,,,,,,,,,,,,,,,,,,,,,,1,5.7072,,0,0,3,3,59,1,stimuli/stim_20210919_power2amp/equal_lnn_AM2Hz_s45_26.m4a,,,,,,,,,,,,
,,,,,41734,2021-10-01_17h04.52.842,judgeSpeechMusic_20210919_logNormShiftAmp_detection_fixFreq,2020.1.2,MacIntel,60,,,,,,,,,,,,,,,,,,,,,,,,,,,,,,1,5.9912,,0,0,4,4,9,1,stimuli/stim_20210919_power2amp/equal_lnn_AM2Hz_s15_48.m4a,,,,,,,,,,,,
,,,,,41734,2021-10-01_17h04.52.842,judgeSpeechMusic_20210919_logNormShiftAmp_detection_fixFreq,2020.1.2,MacIntel,60,,,,,,,,,,,,,,,,,,,,,,,,,,,,,,2,5.6725,,0,0,5,5,60,1,stimuli/stim_20210919_power2amp/equal_lnn_AM2Hz_s55_33.m4a,,,,,,,,,,,,
,,,,,41734,2021-10-01_17h04.52.842,judgeSpeechMusic_20210919_logNormShiftAmp_detection_fixFreq,2020.1.2,MacIntel,60,,,,,,,,,,,,,,,,,,,,,,,,,,,,,,2,6.6409,,0,0,6,6,32,1,stimuli/stim_20210919_power2amp/equal_lnn_AM2Hz_s35_50.m4a,,,,,,,,,,,,
,,,,,41734,2021-10-01_17h04.52.842,judgeSpeechMusic_20210919_logNormShiftAmp_detection_fixFreq,2020.1.2,MacIntel,60,,,,,,,,,,,,,,,,,,,,,,,,,,,,,,1,5.6257,,0,0,7,7,10,1,stimuli/stim_20210919_power2amp/equal_lnn_AM2Hz_s15_42.m4a,,,,,,,,,,,,
,,,,,41734,2021-10-01_17h04.52.842,judgeSpeechMusic_20210919_logNormShiftAmp_detection_fixFreq,2020.1.2,MacIntel,60,,,,,,,,,,,,,,,,,,,,,,,,,,,,,,1,5.6819,,0,0,8,8,65,1,stimuli/stim_20210919_power2amp/equal_lnn_AM2Hz_s55_38.m4a,,,,,,,,,,,,
,,,,,41734,2021-10-01_17h04.52.842,judgeSpeechMusic_20210919_logNormShiftAmp_detection_fixFreq,2020.1.2,MacIntel,60,,,,,,,,,,,,,,,,,,,,,,,,,,,,,,2,7.0566,,0,0,9,9,56,1,stimuli/stim_20210919_power2amp/equal_lnn_AM2Hz_s45_44.m4a,,,,,,,,,,,,
,,,,,41734,2021-10-01_17h04.52.842,judgeSpeechMusic_20210919_logNormShiftAmp_detection_fixFreq,2020.1.2,MacIntel,60,,,,,,,,,,,,,,,,,,,,,,,,,,,,,,1,12.3789,,0,0,10,10,47,1,stimuli/stim_20210919_power2amp/equal_lnn_AM2Hz_s45_27.m4a,,,,,,,,,,,,
,,,,,41734,2021-10-01_17h04.52.842,judgeSpeechMusic_20210919_logNormShiftAmp_detection_fixFreq,2020.1.2,MacIntel,60,,,,,,,,,,,,,,,,,,,,,,,,,,,,,,1,9.4582,,0,0,11,11,5,1,stimuli/stim_20210919_power2amp/equal_lnn_AM2Hz_s15_16.m4a,,,,,,,,,,,,
,,,,,41734,2021-10-01_17h04.52.842,judgeSpeechMusic_20210919_logNormShiftAmp_detection_fixFreq,2020.1.2,MacIntel,60,,,,,,,,,,,,,,,,,,,,,,,,,,,,,,1,15.6084,,0,0,12,12,22,1,stimuli/stim_20210919_power2amp/equal_lnn_AM2Hz_s25_50.m4a,,,,,,,,,,,,
,,,,,41734,2021-10-01_17h04.52.842,judgeSpeechMusic_20210919_logNormShiftAmp_detection_fixFreq,2020.1.2,MacIntel,60,,,,,,,,,,,,,,,,,,,,,,,,,,,,,,1,5.8588,,0,0,13,13,69,1,stimuli/stim_20210919_power2amp/equal_lnn_AM2Hz_s55_47.m4a,,,,,,,,,,,,
,,,,,41734,2021-10-01_17h04.52.842,judgeSpeechMusic_20210919_logNormShiftAmp_detection_fixFreq,2020.1.2,MacIntel,60,,,,,,,,,,,,,,,,,,,,,,,,,,,,,,1,5.6125,,0,0,14,14,16,1,stimuli/stim_20210919_power2amp/equal_lnn_AM2Hz_s25_20.m4a,,,,,,,,,,,,
,,,,,41734,2021-10-01_17h04.52.842,judgeSpeechMusic_20210919_logNormShiftAmp_detection_fixFreq,2020.1.2,MacIntel,60,,,,,,,,,,,,,,,,,,,,,,,,,,,,,,1,5.6096,,0,0,15,15,49,1,stimuli/stim_20210919_power2amp/equal_lnn_AM2Hz_s45_18.m4a,,,,,,,,,,,,
,,,,,41734,2021-10-01_17h04.52.842,judgeSpeechMusic_20210919_logNormShiftAmp_detection_fixFreq,2020.1.2,MacIntel,60,,,,,,,,,,,,,,,,,,,,,,,,,,,,,,2,6.4582,,0,0,16,16,6,1,stimuli/stim_20210919_power2amp/equal_lnn_AM2Hz_s15_36.m4a,,,,,,,,,,,,
,,,,,41734,2021-10-01_17h04.52.842,judgeSpeechMusic_20210919_logNormShiftAmp_detection_fixFreq,2020.1.2,MacIntel,60,,,,,,,,,,,,,,,,,,,,,,,,,,,,,,1,8.5296,,0,0,17,17,52,1,stimuli/stim_20210919_power2amp/equal_lnn_AM2Hz_s45_21.m4a,,,,,,,,,,,,
,,,,,41734,2021-10-01_17h04.52.842,judgeSpeechMusic_20210919_logNormShiftAmp_detection_fixFreq,2020.1.2,MacIntel,60,,,,,,,,,,,,,,,,,,,,,,,,,,,,,,1,21.4577,4,0,0,18,18,37,1,stimuli/stim_20210919_power2amp/equal_lnn_AM2Hz_s35_20.m4a,11.1069,,,,,,,,,,,
,,,,,41734,2021-10-01_17h04.52.842,judgeSpeechMusic_20210919_logNormShiftAmp_detection_fixFreq,2020.1.2,MacIntel,60,,,,,,,,,,,,,,,,,,,,,,,,,,,,,,1,7.1591,,0,0,19,19,72,1,stimuli/stim_20210919_power2amp/equal_lnn_AM2Hz_s55_31.m4a,,,,,,,,,,,,
,,,,,41734,2021-10-01_17h04.52.842,judgeSpeechMusic_20210919_logNormShiftAmp_detection_fixFreq,2020.1.2,MacIntel,60,,,,,,,,,,,,,,,,,,,,,,,,,,,,,,1,5.6763,,0,0,20,20,67,1,stimuli/stim_20210919_power2amp/equal_lnn_AM2Hz_s55_5.m4a,,,,,,,,,,,,
,,,,,41734,2021-10-01_17h04.52.842,judgeSpeechMusic_20210919_logNormShiftAmp_detection_fixFreq,2020.1.2,MacIntel,60,,,,,,,,,,,,,,,,,,,,,,,,,,,,,,2,5.727,,0,0,21,21,39,1,stimuli/stim_20210919_power2amp/equal_lnn_AM2Hz_s35_46.m4a,,,,,,,,,,,,
,,,,,41734,2021-10-01_17h04.52.842,judgeSpeechMusic_20210919_logNormShiftAmp_detection_fixFreq,2020.1.2,MacIntel,60,,,,,,,,,,,,,,,,,,,,,,,,,,,,,,2,5.7414,,0,0,22,22,63,1,stimuli/stim_20210919_power2amp/equal_lnn_AM2Hz_s55_45.m4a,,,,,,,,,,,,
,,,,,41734,2021-10-01_17h04.52.842,judgeSpeechMusic_20210919_logNormShiftAmp_detection_fixFreq,2020.1.2,MacIntel,60,,,,,,,,,,,,,,,,,,,,,,,,,,,,,,1,5.8257,,0,0,23,23,58,1,stimuli/stim_20210919_power2amp/equal_lnn_AM2Hz_s45_1.m4a,,,,,,,,,,,,
,,,,,41734,2021-10-01_17h04.52.842,judgeSpeechMusic_20210919_logNormShiftAmp_detection_fixFreq,2020.1.2,MacIntel,60,,,,,,,,,,,,,,,,,,,,,,,,,,,,,,1,6.4274,,0,0,24,24,14,1,stimuli/stim_20210919_power2amp/equal_lnn_AM2Hz_s15_1.m4a,,,,,,,,,,,,
,,,,,41734,2021-10-01_17h04.52.842,judgeSpeechMusic_20210919_logNormShiftAmp_detection_fixFreq,2020.1.2,MacIntel,60,,,,,,,,,,,,,,,,,,,,,,,,,,,,,,1,7.0473,,0,0,25,25,11,1,stimuli/stim_20210919_power2amp/equal_lnn_AM2Hz_s15_2.m4a,,,,,,,,,,,,
,,,,,41734,2021-10-01_17h04.52.842,judgeSpeechMusic_20210919_logNormShiftAmp_detection_fixFreq,2020.1.2,MacIntel,60,,,,,,,,,,,,,,,,,,,,,,,,,,,,,,1,7.8401,,0,0,26,26,15,1,stimuli/stim_20210919_power2amp/equal_lnn_AM2Hz_s25_44.m4a,,,,,,,,,,,,
,,,,,41734,2021-10-01_17h04.52.842,judgeSpeechMusic_20210919_logNormShiftAmp_detection_fixFreq,2020.1.2,MacIntel,60,,,,,,,,,,,,,,,,,,,,,,,,,,,,,,2,6.5735,,0,0,27,27,24,1,stimuli/stim_20210919_power2amp/equal_lnn_AM2Hz_s25_42.m4a,,,,,,,,,,,,
,,,,,41734,2021-10-01_17h04.52.842,judgeSpeechMusic_20210919_logNormShiftAmp_detection_fixFreq,2020.1.2,MacIntel,60,,,,,,,,,,,,,,,,,,,,,,,,,,,,,,1,5.844,,0,0,28,28,1,1,stimuli/stim_20210919_power2amp/equal_lnn_AM2Hz_s15_22.m4a,,,,,,,,,,,,
,,,,,41734,2021-10-01_17h04.52.842,judgeSpeechMusic_20210919_logNormShiftAmp_detection_fixFreq,2020.1.2,MacIntel,60,,,,,,,,,,,,,,,,,,,,,,,,,,,,,,1,6.0222,,0,0,29,29,36,1,stimuli/stim_20210919_power2amp/equal_lnn_AM2Hz_s35_3.m4a,,,,,,,,,,,,
,,,,,41734,2021-10-01_17h04.52.842,judgeSpeechMusic_20210919_logNormShiftAmp_detection_fixFreq,2020.1.2,MacIntel,60,,,,,,,,,,,,,,,,,,,,,,,,,,,,,,1,5.5098,,0,0,30,30,12,1,stimuli/stim_20210919_power2amp/equal_lnn_AM2Hz_s15_26.m4a,,,,,,,,,,,,
,,,,,41734,2021-10-01_17h04.52.842,judgeSpeechMusic_20210919_logNormShiftAmp_detection_fixFreq,2020.1.2,MacIntel,60,,,,,,,,,,,,,,,,,,,,,,,,,,,,,,1,5.8905,,0,0,31,31,35,1,stimuli/stim_20210919_power2amp/equal_lnn_AM2Hz_s35_13.m4a,,,,,,,,,,,,
,,,,,41734,2021-10-01_17h04.52.842,judgeSpeechMusic_20210919_logNormShiftAmp_detection_fixFreq,2020.1.2,MacIntel,60,,,,,,,,,,,,,,,,,,,,,,,,,,,,,,1,6.1743,,0,0,32,32,73,1,stimuli/stim_20210919_power2amp/equal_lnn_AM2Hz_s55_41.m4a,,,,,,,,,,,,
,,,,,41734,2021-10-01_17h04.52.842,judgeSpeechMusic_20210919_logNormShiftAmp_detection_fixFreq,2020.1.2,MacIntel,60,,,,,,,,,,,,,,,,,,,,,,,,,,,,,,1,5.8931,,0,0,33,33,13,1,stimuli/stim_20210919_power2amp/equal_lnn_AM2Hz_s15_47.m4a,,,,,,,,,,,,
,,,,,41734,2021-10-01_17h04.52.842,judgeSpeechMusic_20210919_logNormShiftAmp_detection_fixFreq,2020.1.2,MacIntel,60,,,,,,,,,,,,,,,,,,,,,,,,,,,,,,2,6.739,,0,0,34,34,31,1,stimuli/stim_20210919_power2amp/equal_lnn_AM2Hz_s35_39.m4a,,,,,,,,,,,,
,,,,,41734,2021-10-01_17h04.52.842,judgeSpeechMusic_20210919_logNormShiftAmp_detection_fixFreq,2020.1.2,MacIntel,60,,,,,,,,,,,,,,,,,,,,,,,,,,,,,,1,5.595,,0,0,35,35,57,1,stimuli/stim_20210919_power2amp/equal_lnn_AM2Hz_s45_13.m4a,,,,,,,,,,,,
,,,,,41734,2021-10-01_17h04.52.842,judgeSpeechMusic_20210919_logNormShiftAmp_detection_fixFreq,2020.1.2,MacIntel,60,,,,,,,,,,,,,,,,,,,,,,,,,,,,,,1,5.6212,3,1,0,36,36,74,1,stimuli/stim_20210919_power2amp/equal_lnn_AM2Hz_s55_15.m4a,2.144,,,,,,,,,,,
,,,,,41734,2021-10-01_17h04.52.842,judgeSpeechMusic_20210919_logNormShiftAmp_detection_fixFreq,2020.1.2,MacIntel,60,,,,,,,,,,,,,,,,,,,,,,,,,,,,,,1,5.6438,,0,0,37,37,34,1,stimuli/stim_20210919_power2amp/equal_lnn_AM2Hz_s35_43.m4a,,,,,,,,,,,,
,,,,,41734,2021-10-01_17h04.52.842,judgeSpeechMusic_20210919_logNormShiftAmp_detection_fixFreq,2020.1.2,MacIntel,60,,,,,,,,,,,,,,,,,,,,,,,,,,,,,,1,5.7625,,0,0,38,38,29,1,stimuli/stim_20210919_power2amp/equal_lnn_AM2Hz_s25_2.m4a,,,,,,,,,,,,
,,,,,41734,2021-10-01_17h04.52.842,judgeSpeechMusic_20210919_logNormShiftAmp_detection_fixFreq,2020.1.2,MacIntel,60,,,,,,,,,,,,,,,,,,,,,,,,,,,,,,1,5.8454,,0,0,39,39,3,1,stimuli/stim_20210919_power2amp/equal_lnn_AM2Hz_s15_25.m4a,,,,,,,,,,,,
,,,,,41734,2021-10-01_17h04.52.842,judgeSpeechMusic_20210919_logNormShiftAmp_detection_fixFreq,2020.1.2,MacIntel,60,,,,,,,,,,,,,,,,,,,,,,,,,,,,,,1,7.5099,,0,0,40,40,18,1,stimuli/stim_20210919_power2amp/equal_lnn_AM2Hz_s25_24.m4a,,,,,,,,,,,,
,,,,,41734,2021-10-01_17h04.52.842,judgeSpeechMusic_20210919_logNormShiftAmp_detection_fixFreq,2020.1.2,MacIntel,60,,,,,,,,,,,,,,,,,,,,,,,,,,,,,,1,7.4079,,0,0,41,41,0,1,stimuli/stim_20210919_power2amp/equal_lnn_AM2Hz_s15_45.m4a,,,,,,,,,,,,
,,,,,41734,2021-10-01_17h04.52.842,judgeSpeechMusic_20210919_logNormShiftAmp_detection_fixFreq,2020.1.2,MacIntel,60,,,,,,,,,,,,,,,,,,,,,,,,,,,,,,1,8.5305,,0,0,42,42,45,1,stimuli/stim_20210919_power2amp/equal_lnn_AM2Hz_s45_47.m4a,,,,,,,,,,,,
,,,,,41734,2021-10-01_17h04.52.842,judgeSpeechMusic_20210919_logNormShiftAmp_detection_fixFreq,2020.1.2,MacIntel,60,,,,,,,,,,,,,,,,,,,,,,,,,,,,,,1,6.377,,0,0,43,43,42,1,stimuli/stim_20210919_power2amp/equal_lnn_AM2Hz_s35_1.m4a,,,,,,,,,,,,
,,,,,41734,2021-10-01_17h04.52.842,judgeSpeechMusic_20210919_logNormShiftAmp_detection_fixFreq,2020.1.2,MacIntel,60,,,,,,,,,,,,,,,,,,,,,,,,,,,,,,2,6.9751,,0,0,44,44,70,1,stimuli/stim_20210919_power2amp/equal_lnn_AM2Hz_s55_42.m4a,,,,,,,,,,,,
,,,,,41734,2021-10-01_17h04.52.842,judgeSpeechMusic_20210919_logNormShiftAmp_detection_fixFreq,2020.1.2,MacIntel,60,,,,,,,,,,,,,,,,,,,,,,,,,,,,,,1,5.773,,0,0,45,45,40,1,stimuli/stim_20210919_power2amp/equal_lnn_AM2Hz_s35_24.m4a,,,,,,,,,,,,
,,,,,41734,2021-10-01_17h04.52.842,judgeSpeechMusic_20210919_logNormShiftAmp_detection_fixFreq,2020.1.2,MacIntel,60,,,,,,,,,,,,,,,,,,,,,,,,,,,,,,1,6.6432,,0,0,46,46,55,1,stimuli/stim_20210919_power2amp/equal_lnn_AM2Hz_s45_50.m4a,,,,,,,,,,,,
,,,,,41734,2021-10-01_17h04.52.842,judgeSpeechMusic_20210919_logNormShiftAmp_detection_fixFreq,2020.1.2,MacIntel,60,,,,,,,,,,,,,,,,,,,,,,,,,,,,,,2,6.4757,,0,0,47,47,28,1,stimuli/stim_20210919_power2amp/equal_lnn_AM2Hz_s25_31.m4a,,,,,,,,,,,,
,,,,,41734,2021-10-01_17h04.52.842,judgeSpeechMusic_20210919_logNormShiftAmp_detection_fixFreq,2020.1.2,MacIntel,60,,,,,,,,,,,,,,,,,,,,,,,,,,,,,,1,5.944,,0,0,48,48,51,1,stimuli/stim_20210919_power2amp/equal_lnn_AM2Hz_s45_46.m4a,,,,,,,,,,,,
,,,,,41734,2021-10-01_17h04.52.842,judgeSpeechMusic_20210919_logNormShiftAmp_detection_fixFreq,2020.1.2,MacIntel,60,,,,,,,,,,,,,,,,,,,,,,,,,,,,,,1,6.5569,,0,0,49,49,33,1,stimuli/stim_20210919_power2amp/equal_lnn_AM2Hz_s35_11.m4a,,,,,,,,,,,,
,,,,,41734,2021-10-01_17h04.52.842,judgeSpeechMusic_20210919_logNormShiftAmp_detection_fixFreq,2020.1.2,MacIntel,60,,,,,,,,,,,,,,,,,,,,,,,,,,,,,,1,5.9876,,0,0,50,50,54,1,stimuli/stim_20210919_power2amp/equal_lnn_AM2Hz_s45_49.m4a,,,,,,,,,,,,
,,,,,41734,2021-10-01_17h04.52.842,judgeSpeechMusic_20210919_logNormShiftAmp_detection_fixFreq,2020.1.2,MacIntel,60,,,,,,,,,,,,,,,,,,,,,,,,,,,,,,1,5.958,,0,0,51,51,8,1,stimuli/stim_20210919_power2amp/equal_lnn_AM2Hz_s15_3.m4a,,,,,,,,,,,,
,,,,,41734,2021-10-01_17h04.52.842,judgeSpeechMusic_20210919_logNormShiftAmp_detection_fixFreq,2020.1.2,MacIntel,60,,,,,,,,,,,,,,,,,,,,,,,,,,,,,,1,6.7251,,0,0,52,52,64,1,stimuli/stim_20210919_power2amp/equal_lnn_AM2Hz_s55_12.m4a,,,,,,,,,,,,
,,,,,41734,2021-10-01_17h04.52.842,judgeSpeechMusic_20210919_logNormShiftAmp_detection_fixFreq,2020.1.2,MacIntel,60,,,,,,,,,,,,,,,,,,,,,,,,,,,,,,1,6.8106,,0,0,53,53,21,1,stimuli/stim_20210919_power2amp/equal_lnn_AM2Hz_s25_38.m4a,,,,,,,,,,,,
,,,,,41734,2021-10-01_17h04.52.842,judgeSpeechMusic_20210919_logNormShiftAmp_detection_fixFreq,2020.1.2,MacIntel,60,,,,,,,,,,,,,,,,,,,,,,,,,,,,,,2,5.9585,,0,0,54,54,71,1,stimuli/stim_20210919_power2amp/equal_lnn_AM2Hz_s55_11.m4a,,,,,,,,,,,,
,,,,,41734,2021-10-01_17h04.52.842,judgeSpeechMusic_20210919_logNormShiftAmp_detection_fixFreq,2020.1.2,MacIntel,60,,,,,,,,,,,,,,,,,,,,,,,,,,,,,,1,6.1132,3,0,0,55,55,19,1,stimuli/stim_20210919_power2amp/equal_lnn_AM2Hz_s25_46.m4a,8.0771,,,,,,,,,,,
,,,,,41734,2021-10-01_17h04.52.842,judgeSpeechMusic_20210919_logNormShiftAmp_detection_fixFreq,2020.1.2,MacIntel,60,,,,,,,,,,,,,,,,,,,,,,,,,,,,,,1,15.9466,,0,0,56,56,46,1,stimuli/stim_20210919_power2amp/equal_lnn_AM2Hz_s45_35.m4a,,,,,,,,,,,,
,,,,,41734,2021-10-01_17h04.52.842,judgeSpeechMusic_20210919_logNormShiftAmp_detection_fixFreq,2020.1.2,MacIntel,60,,,,,,,,,,,,,,,,,,,,,,,,,,,,,,1,10.3813,,0,0,57,57,44,1,stimuli/stim_20210919_power2amp/equal_lnn_AM2Hz_s35_22.m4a,,,,,,,,,,,,
,,,,,41734,2021-10-01_17h04.52.842,judgeSpeechMusic_20210919_logNormShiftAmp_detection_fixFreq,2020.1.2,MacIntel,60,,,,,,,,,,,,,,,,,,,,,,,,,,,,,,2,7.771,,0,0,58,58,25,1,stimuli/stim_20210919_power2amp/equal_lnn_AM2Hz_s25_23.m4a,,,,,,,,,,,,
,,,,,41734,2021-10-01_17h04.52.842,judgeSpeechMusic_20210919_logNormShiftAmp_detection_fixFreq,2020.1.2,MacIntel,60,,,,,,,,,,,,,,,,,,,,,,,,,,,,,,1,7.5224,,0,0,59,59,23,1,stimuli/stim_20210919_power2amp/equal_lnn_AM2Hz_s25_17.m4a,,,,,,,,,,,,
,,,,,41734,2021-10-01_17h04.52.842,judgeSpeechMusic_20210919_logNormShiftAmp_detection_fixFreq,2020.1.2,MacIntel,60,,,,,,,,,,,,,,,,,,,,,,,,,,,,,,1,5.8973,,0,0,60,60,4,1,stimuli/stim_20210919_power2amp/equal_lnn_AM2Hz_s15_40.m4a,,,,,,,,,,,,
,,,,,41734,2021-10-01_17h04.52.842,judgeSpeechMusic_20210919_logNormShiftAmp_detection_fixFreq,2020.1.2,MacIntel,60,,,,,,,,,,,,,,,,,,,,,,,,,,,,,,1,6.426,,0,0,61,61,26,1,stimuli/stim_20210919_power2amp/equal_lnn_AM2Hz_s25_45.m4a,,,,,,,,,,,,
,,,,,41734,2021-10-01_17h04.52.842,judgeSpeechMusic_20210919_logNormShiftAmp_detection_fixFreq,2020.1.2,MacIntel,60,,,,,,,,,,,,,,,,,,,,,,,,,,,,,,1,7.3447,,0,0,62,62,17,1,stimuli/stim_20210919_power2amp/equal_lnn_AM2Hz_s25_25.m4a,,,,,,,,,,,,
,,,,,41734,2021-10-01_17h04.52.842,judgeSpeechMusic_20210919_logNormShiftAmp_detection_fixFreq,2020.1.2,MacIntel,60,,,,,,,,,,,,,,,,,,,,,,,,,,,,,,1,7.4593,,0,0,63,63,50,1,stimuli/stim_20210919_power2amp/equal_lnn_AM2Hz_s45_9.m4a,,,,,,,,,,,,
,,,,,41734,2021-10-01_17h04.52.842,judgeSpeechMusic_20210919_logNormShiftAmp_detection_fixFreq,2020.1.2,MacIntel,60,,,,,,,,,,,,,,,,,,,,,,,,,,,,,,1,5.9301,,0,0,64,64,7,1,stimuli/stim_20210919_power2amp/equal_lnn_AM2Hz_s15_20.m4a,,,,,,,,,,,,
,,,,,41734,2021-10-01_17h04.52.842,judgeSpeechMusic_20210919_logNormShiftAmp_detection_fixFreq,2020.1.2,MacIntel,60,,,,,,,,,,,,,,,,,,,,,,,,,,,,,,2,5.6267,,0,0,65,65,30,1,stimuli/stim_20210919_power2amp/equal_lnn_AM2Hz_s35_40.m4a,,,,,,,,,,,,
,,,,,41734,2021-10-01_17h04.52.842,judgeSpeechMusic_20210919_logNormShiftAmp_detection_fixFreq,2020.1.2,MacIntel,60,,,,,,,,,,,,,,,,,,,,,,,,,,,,,,1,5.8262,,0,0,66,66,62,1,stimuli/stim_20210919_power2amp/equal_lnn_AM2Hz_s55_7.m4a,,,,,,,,,,,,
,,,,,41734,2021-10-01_17h04.52.842,judgeSpeechMusic_20210919_logNormShiftAmp_detection_fixFreq,2020.1.2,MacIntel,60,,,,,,,,,,,,,,,,,,,,,,,,,,,,,,1,7.2574,,0,0,67,67,41,1,stimuli/stim_20210919_power2amp/equal_lnn_AM2Hz_s35_27.m4a,,,,,,,,,,,,
,,,,,41734,2021-10-01_17h04.52.842,judgeSpeechMusic_20210919_logNormShiftAmp_detection_fixFreq,2020.1.2,MacIntel,60,,,,,,,,,,,,,,,,,,,,,,,,,,,,,,1,8.1863,,0,0,68,68,20,1,stimuli/stim_20210919_power2amp/equal_lnn_AM2Hz_s25_29.m4a,,,,,,,,,,,,
,,,,,41734,2021-10-01_17h04.52.842,judgeSpeechMusic_20210919_logNormShiftAmp_detection_fixFreq,2020.1.2,MacIntel,60,,,,,,,,,,,,,,,,,,,,,,,,,,,,,,2,5.6483,,0,0,69,69,38,1,stimuli/stim_20210919_power2amp/equal_lnn_AM2Hz_s35_25.m4a,,,,,,,,,,,,
,,,,,41734,2021-10-01_17h04.52.842,judgeSpeechMusic_20210919_logNormShiftAmp_detection_fixFreq,2020.1.2,MacIntel,60,,,,,,,,,,,,,,,,,,,,,,,,,,,,,,1,5.6955,,0,0,70,70,68,1,stimuli/stim_20210919_power2amp/equal_lnn_AM2Hz_s55_46.m4a,,,,,,,,,,,,
,,,,,41734,2021-10-01_17h04.52.842,judgeSpeechMusic_20210919_logNormShiftAmp_detection_fixFreq,2020.1.2,MacIntel,60,,,,,,,,,,,,,,,,,,,,,,,,,,,,,,1,8.0431,,0,0,71,71,27,1,stimuli/stim_20210919_power2amp/equal_lnn_AM2Hz_s25_28.m4a,,,,,,,,,,,,
,,,,,41734,2021-10-01_17h04.52.842,judgeSpeechMusic_20210919_logNormShiftAmp_detection_fixFreq,2020.1.2,MacIntel,60,,,,,,,,,,,,,,,,,,,,,,,,,,,,,,1,5.3746,,0,0,72,72,2,1,stimuli/stim_20210919_power2amp/equal_lnn_AM2Hz_s15_12.m4a,,,,,,,,,,,,
,,,,,41734,2021-10-01_17h04.52.842,judgeSpeechMusic_20210919_logNormShiftAmp_detection_fixFreq,2020.1.2,MacIntel,60,,,,,,,,,,,,,,,,,,,,,,,,,,,,,,1,6.5091,,0,0,73,73,61,1,stimuli/stim_20210919_power2amp/equal_lnn_AM2Hz_s55_48.m4a,,,,,,,,,,,,
,,,,,41734,2021-10-01_17h04.52.842,judgeSpeechMusic_20210919_logNormShiftAmp_detection_fixFreq,2020.1.2,MacIntel,60,,,,,,,,,,,,,,,,,,,,,,,,,,,,,,1,12.3752,,0,0,74,74,43,1,stimuli/stim_20210919_power2amp/equal_lnn_AM2Hz_s35_2.m4a,,,,,,,,,,,,
,,,,,41734,2021-10-01_17h04.52.842,judgeSpeechMusic_20210919_logNormShiftAmp_detection_fixFreq,2020.1.2,MacIntel,60,,,,,,,,,,,,,,,,,,,,,,,,,,,,,,,,,,,,,,,,,,,1,1,3,0,1,MUSIC,stimuli/MUSIC.jpg,,
,,,,,41734,2021-10-01_17h04.52.842,judgeSpeechMusic_20210919_logNormShiftAmp_detection_fixFreq,2020.1.2,MacIntel,60,,,,,,,,,,,,,,,,,,,,,,,,,,,,,,,,,,,,,,,,,,,,,,,,,,space,3.9465
