headphoneResponse.keys,headphoneResponse.corr,headphoneResponse.rt,headphoneTrial.thisRepN,headphoneTrial.thisTrialN,headphoneTrial.thisN,headphoneTrial.thisIndex,headphoneTrial.ran,headphone_sound1,headphone_sound2,headphone_sound3,corrAns,participant,date,expName,psychopyVersion,OS,frameRate,checkInstruKey.keys,checkInstruKey.rt,trainSlider.response,trainSlider.rt,beepTrainResponse.keys,beepTrainResponse.corr,trainingTrials.thisRepN,trainingTrials.thisTrialN,trainingTrials.thisN,trainingTrials.thisIndex,trainingTrials.ran,trainAudioFile,beepTrainResponse.rt,readyReal_resp.keys,readyReal_resp.rt,checkInstru2_key.keys,checkInstru2_key.rt,ratingSlider.response,ratingSlider.rt,beepResp.keys,beepResp.corr,expTrials.thisRepN,expTrials.thisTrialN,expTrials.thisN,expTrials.thisIndex,expTrials.ran,audioFile,beepResp.rt,switchBlock_space.keys,switchBlock_space.rt,block.thisRepN,block.thisTrialN,block.thisN,block.thisIndex,block.ran,blockName,blockImage,end_resp.keys,end_resp.rt
3,1,0.339,0,0,0,0,1,stimuli/screen_antiphase.wav,stimuli/screen_origin.wav,stimuli/screen_quiet.wav,3,41753,2021-09-29_22h06.55.705,judgeSpeechMusic_20210919_logNormShiftAmp_detection_fixFreq,2020.1.2,MacIntel,60,,,,,,,,,,,,,,,,,,,,,,,,,,,,,,,,,,,,,,,
1,1,1.9093,0,1,1,5,1,stimuli/screen_quiet.wav,stimuli/screen_origin.wav,stimuli/screen_antiphase.wav,1,41753,2021-09-29_22h06.55.705,judgeSpeechMusic_20210919_logNormShiftAmp_detection_fixFreq,2020.1.2,MacIntel,60,,,,,,,,,,,,,,,,,,,,,,,,,,,,,,,,,,,,,,,
2,1,0.1058,0,2,2,1,1,stimuli/screen_antiphase.wav,stimuli/screen_quiet.wav,stimuli/screen_origin.wav,2,41753,2021-09-29_22h06.55.705,judgeSpeechMusic_20210919_logNormShiftAmp_detection_fixFreq,2020.1.2,MacIntel,60,,,,,,,,,,,,,,,,,,,,,,,,,,,,,,,,,,,,,,,
1,1,2.1946,0,3,3,4,1,stimuli/screen_quiet.wav,stimuli/screen_antiphase.wav,stimuli/screen_origin.wav,1,41753,2021-09-29_22h06.55.705,judgeSpeechMusic_20210919_logNormShiftAmp_detection_fixFreq,2020.1.2,MacIntel,60,,,,,,,,,,,,,,,,,,,,,,,,,,,,,,,,,,,,,,,
2,1,0.639,0,4,4,3,1,stimuli/screen_origin.wav,stimuli/screen_quiet.wav,stimuli/screen_antiphase.wav,2,41753,2021-09-29_22h06.55.705,judgeSpeechMusic_20210919_logNormShiftAmp_detection_fixFreq,2020.1.2,MacIntel,60,,,,,,,,,,,,,,,,,,,,,,,,,,,,,,,,,,,,,,,
3,1,3.1504,0,5,5,2,1,stimuli/screen_origin.wav,stimuli/screen_antiphase.wav,stimuli/screen_quiet.wav,3,41753,2021-09-29_22h06.55.705,judgeSpeechMusic_20210919_logNormShiftAmp_detection_fixFreq,2020.1.2,MacIntel,60,,,,,,,,,,,,,,,,,,,,,,,,,,,,,,,,,,,,,,,
,,,,,,,,,,,,41753,2021-09-29_22h06.55.705,judgeSpeechMusic_20210919_logNormShiftAmp_detection_fixFreq,2020.1.2,MacIntel,60,space,0.6468,1,9.8853,,0,0,0,0,3,1,stimuli/stim_20210919_power2amp/equal_lnn_AM_training2Hz_s50.m4a,,,,,,,,,,,,,,,,,,,,,,,,,,,
,,,,,,,,,,,,41753,2021-09-29_22h06.55.705,judgeSpeechMusic_20210919_logNormShiftAmp_detection_fixFreq,2020.1.2,MacIntel,60,,,2,6.8517,,0,0,1,1,1,1,stimuli/stim_20210919_power2amp/equal_lnn_AM_training2Hz_s30.m4a,,,,,,,,,,,,,,,,,,,,,,,,,,,
,,,,,,,,,,,,41753,2021-09-29_22h06.55.705,judgeSpeechMusic_20210919_logNormShiftAmp_detection_fixFreq,2020.1.2,MacIntel,60,,,1,8.1863,2,1,0,2,2,0,1,stimuli/stim_20210919_power2amp/equal_lnn_AM_training2Hz_s20.m4a,0.1564,,,,,,,,,,,,,,,,,,,,,,,,,,
,,,,,,,,,,,,41753,2021-09-29_22h06.55.705,judgeSpeechMusic_20210919_logNormShiftAmp_detection_fixFreq,2020.1.2,MacIntel,60,,,1,6.4061,,0,0,3,3,2,1,stimuli/stim_20210919_power2amp/equal_lnn_AM_training2Hz_s40.m4a,,,,,,,,,,,,,,,,,,,,,,,,,,,
,,,,,,,,,,,,41753,2021-09-29_22h06.55.705,judgeSpeechMusic_20210919_logNormShiftAmp_detection_fixFreq,2020.1.2,MacIntel,60,,,,,,,,,,,,,,space,1.2483,space,0.7307,1,7.1455,,0,0,0,0,47,1,stimuli/stim_20210919_power2amp/equal_lnn_AM2Hz_s45_21.m4a,,,,,,,,,,,,
,,,,,,,,,,,,41753,2021-09-29_22h06.55.705,judgeSpeechMusic_20210919_logNormShiftAmp_detection_fixFreq,2020.1.2,MacIntel,60,,,,,,,,,,,,,,,,,,1,6.2174,,0,0,1,1,0,1,stimuli/stim_20210919_power2amp/equal_lnn_AM2Hz_s15_7.m4a,,,,,,,,,,,,
,,,,,,,,,,,,41753,2021-09-29_22h06.55.705,judgeSpeechMusic_20210919_logNormShiftAmp_detection_fixFreq,2020.1.2,MacIntel,60,,,,,,,,,,,,,,,,,,2,6.2056,,0,0,2,2,41,1,stimuli/stim_20210919_power2amp/equal_lnn_AM2Hz_s35_14.m4a,,,,,,,,,,,,
,,,,,,,,,,,,41753,2021-09-29_22h06.55.705,judgeSpeechMusic_20210919_logNormShiftAmp_detection_fixFreq,2020.1.2,MacIntel,60,,,,,,,,,,,,,,,,,,1,6.2857,,0,0,3,3,31,1,stimuli/stim_20210919_power2amp/equal_lnn_AM2Hz_s35_24.m4a,,,,,,,,,,,,
,,,,,,,,,,,,41753,2021-09-29_22h06.55.705,judgeSpeechMusic_20210919_logNormShiftAmp_detection_fixFreq,2020.1.2,MacIntel,60,,,,,,,,,,,,,,,,,,2,6.387,,0,0,4,4,48,1,stimuli/stim_20210919_power2amp/equal_lnn_AM2Hz_s45_30.m4a,,,,,,,,,,,,
,,,,,,,,,,,,41753,2021-09-29_22h06.55.705,judgeSpeechMusic_20210919_logNormShiftAmp_detection_fixFreq,2020.1.2,MacIntel,60,,,,,,,,,,,,,,,,,,1,5.7727,,0,0,5,5,53,1,stimuli/stim_20210919_power2amp/equal_lnn_AM2Hz_s45_20.m4a,,,,,,,,,,,,
,,,,,,,,,,,,41753,2021-09-29_22h06.55.705,judgeSpeechMusic_20210919_logNormShiftAmp_detection_fixFreq,2020.1.2,MacIntel,60,,,,,,,,,,,,,,,,,,2,6.2442,,0,0,6,6,56,1,stimuli/stim_20210919_power2amp/equal_lnn_AM2Hz_s45_31.m4a,,,,,,,,,,,,
,,,,,,,,,,,,41753,2021-09-29_22h06.55.705,judgeSpeechMusic_20210919_logNormShiftAmp_detection_fixFreq,2020.1.2,MacIntel,60,,,,,,,,,,,,,,,,,,2,6.4075,,0,0,7,7,49,1,stimuli/stim_20210919_power2amp/equal_lnn_AM2Hz_s45_44.m4a,,,,,,,,,,,,
,,,,,,,,,,,,41753,2021-09-29_22h06.55.705,judgeSpeechMusic_20210919_logNormShiftAmp_detection_fixFreq,2020.1.2,MacIntel,60,,,,,,,,,,,,,,,,,,1,6.2037,,0,0,8,8,62,1,stimuli/stim_20210919_power2amp/equal_lnn_AM2Hz_s55_9.m4a,,,,,,,,,,,,
,,,,,,,,,,,,41753,2021-09-29_22h06.55.705,judgeSpeechMusic_20210919_logNormShiftAmp_detection_fixFreq,2020.1.2,MacIntel,60,,,,,,,,,,,,,,,,,,2,6.5099,,0,0,9,9,59,1,stimuli/stim_20210919_power2amp/equal_lnn_AM2Hz_s45_48.m4a,,,,,,,,,,,,
,,,,,,,,,,,,41753,2021-09-29_22h06.55.705,judgeSpeechMusic_20210919_logNormShiftAmp_detection_fixFreq,2020.1.2,MacIntel,60,,,,,,,,,,,,,,,,,,2,6.7684,,0,0,10,10,34,1,stimuli/stim_20210919_power2amp/equal_lnn_AM2Hz_s35_25.m4a,,,,,,,,,,,,
,,,,,,,,,,,,41753,2021-09-29_22h06.55.705,judgeSpeechMusic_20210919_logNormShiftAmp_detection_fixFreq,2020.1.2,MacIntel,60,,,,,,,,,,,,,,,,,,1,8.0612,,0,0,11,11,46,1,stimuli/stim_20210919_power2amp/equal_lnn_AM2Hz_s45_33.m4a,,,,,,,,,,,,
,,,,,,,,,,,,41753,2021-09-29_22h06.55.705,judgeSpeechMusic_20210919_logNormShiftAmp_detection_fixFreq,2020.1.2,MacIntel,60,,,,,,,,,,,,,,,,,,1,6.1717,,0,0,12,12,12,1,stimuli/stim_20210919_power2amp/equal_lnn_AM2Hz_s15_5.m4a,,,,,,,,,,,,
,,,,,,,,,,,,41753,2021-09-29_22h06.55.705,judgeSpeechMusic_20210919_logNormShiftAmp_detection_fixFreq,2020.1.2,MacIntel,60,,,,,,,,,,,,,,,,,,1,6.3688,,0,0,13,13,4,1,stimuli/stim_20210919_power2amp/equal_lnn_AM2Hz_s15_27.m4a,,,,,,,,,,,,
,,,,,,,,,,,,41753,2021-09-29_22h06.55.705,judgeSpeechMusic_20210919_logNormShiftAmp_detection_fixFreq,2020.1.2,MacIntel,60,,,,,,,,,,,,,,,,,,2,6.5853,,0,0,14,14,17,1,stimuli/stim_20210919_power2amp/equal_lnn_AM2Hz_s25_15.m4a,,,,,,,,,,,,
,,,,,,,,,,,,41753,2021-09-29_22h06.55.705,judgeSpeechMusic_20210919_logNormShiftAmp_detection_fixFreq,2020.1.2,MacIntel,60,,,,,,,,,,,,,,,,,,2,7.1718,,0,0,15,15,69,1,stimuli/stim_20210919_power2amp/equal_lnn_AM2Hz_s55_26.m4a,,,,,,,,,,,,
,,,,,,,,,,,,41753,2021-09-29_22h06.55.705,judgeSpeechMusic_20210919_logNormShiftAmp_detection_fixFreq,2020.1.2,MacIntel,60,,,,,,,,,,,,,,,,,,2,6.2954,,0,0,16,16,32,1,stimuli/stim_20210919_power2amp/equal_lnn_AM2Hz_s35_49.m4a,,,,,,,,,,,,
,,,,,,,,,,,,41753,2021-09-29_22h06.55.705,judgeSpeechMusic_20210919_logNormShiftAmp_detection_fixFreq,2020.1.2,MacIntel,60,,,,,,,,,,,,,,,,,,2,6.32,,0,0,17,17,16,1,stimuli/stim_20210919_power2amp/equal_lnn_AM2Hz_s25_14.m4a,,,,,,,,,,,,
,,,,,,,,,,,,41753,2021-09-29_22h06.55.705,judgeSpeechMusic_20210919_logNormShiftAmp_detection_fixFreq,2020.1.2,MacIntel,60,,,,,,,,,,,,,,,,,,2,15.6854,,0,0,18,18,67,1,stimuli/stim_20210919_power2amp/equal_lnn_AM2Hz_s55_20.m4a,,,,,,,,,,,,
,,,,,,,,,,,,41753,2021-09-29_22h06.55.705,judgeSpeechMusic_20210919_logNormShiftAmp_detection_fixFreq,2020.1.2,MacIntel,60,,,,,,,,,,,,,,,,,,2,7.106,1,1,0,19,19,58,1,stimuli/stim_20210919_power2amp/equal_lnn_AM2Hz_s45_34.m4a,1.4895,,,,,,,,,,,
,,,,,,,,,,,,41753,2021-09-29_22h06.55.705,judgeSpeechMusic_20210919_logNormShiftAmp_detection_fixFreq,2020.1.2,MacIntel,60,,,,,,,,,,,,,,,,,,2,110.6929,,0,0,20,20,60,1,stimuli/stim_20210919_power2amp/equal_lnn_AM2Hz_s55_12.m4a,,,,,,,,,,,,
,,,,,,,,,,,,41753,2021-09-29_22h06.55.705,judgeSpeechMusic_20210919_logNormShiftAmp_detection_fixFreq,2020.1.2,MacIntel,60,,,,,,,,,,,,,,,,,,1,8.9551,,0,0,21,21,73,1,stimuli/stim_20210919_power2amp/equal_lnn_AM2Hz_s55_36.m4a,,,,,,,,,,,,
,,,,,,,,,,,,41753,2021-09-29_22h06.55.705,judgeSpeechMusic_20210919_logNormShiftAmp_detection_fixFreq,2020.1.2,MacIntel,60,,,,,,,,,,,,,,,,,,2,7.9261,,0,0,22,22,74,1,stimuli/stim_20210919_power2amp/equal_lnn_AM2Hz_s55_39.m4a,,,,,,,,,,,,
,,,,,,,,,,,,41753,2021-09-29_22h06.55.705,judgeSpeechMusic_20210919_logNormShiftAmp_detection_fixFreq,2020.1.2,MacIntel,60,,,,,,,,,,,,,,,,,,2,6.5758,,0,0,23,23,30,1,stimuli/stim_20210919_power2amp/equal_lnn_AM2Hz_s35_48.m4a,,,,,,,,,,,,
,,,,,,,,,,,,41753,2021-09-29_22h06.55.705,judgeSpeechMusic_20210919_logNormShiftAmp_detection_fixFreq,2020.1.2,MacIntel,60,,,,,,,,,,,,,,,,,,1,6.5389,,0,0,24,24,54,1,stimuli/stim_20210919_power2amp/equal_lnn_AM2Hz_s45_28.m4a,,,,,,,,,,,,
,,,,,,,,,,,,41753,2021-09-29_22h06.55.705,judgeSpeechMusic_20210919_logNormShiftAmp_detection_fixFreq,2020.1.2,MacIntel,60,,,,,,,,,,,,,,,,,,1,6.7131,,0,0,25,25,71,1,stimuli/stim_20210919_power2amp/equal_lnn_AM2Hz_s55_43.m4a,,,,,,,,,,,,
,,,,,,,,,,,,41753,2021-09-29_22h06.55.705,judgeSpeechMusic_20210919_logNormShiftAmp_detection_fixFreq,2020.1.2,MacIntel,60,,,,,,,,,,,,,,,,,,1,7.0176,,0,0,26,26,36,1,stimuli/stim_20210919_power2amp/equal_lnn_AM2Hz_s35_23.m4a,,,,,,,,,,,,
,,,,,,,,,,,,41753,2021-09-29_22h06.55.705,judgeSpeechMusic_20210919_logNormShiftAmp_detection_fixFreq,2020.1.2,MacIntel,60,,,,,,,,,,,,,,,,,,2,10.6548,,0,0,27,27,7,1,stimuli/stim_20210919_power2amp/equal_lnn_AM2Hz_s15_36.m4a,,,,,,,,,,,,
,,,,,,,,,,,,41753,2021-09-29_22h06.55.705,judgeSpeechMusic_20210919_logNormShiftAmp_detection_fixFreq,2020.1.2,MacIntel,60,,,,,,,,,,,,,,,,,,2,11.6215,,0,0,28,28,45,1,stimuli/stim_20210919_power2amp/equal_lnn_AM2Hz_s45_49.m4a,,,,,,,,,,,,
,,,,,,,,,,,,41753,2021-09-29_22h06.55.705,judgeSpeechMusic_20210919_logNormShiftAmp_detection_fixFreq,2020.1.2,MacIntel,60,,,,,,,,,,,,,,,,,,1,7.0881,,0,0,29,29,28,1,stimuli/stim_20210919_power2amp/equal_lnn_AM2Hz_s25_50.m4a,,,,,,,,,,,,
,,,,,,,,,,,,41753,2021-09-29_22h06.55.705,judgeSpeechMusic_20210919_logNormShiftAmp_detection_fixFreq,2020.1.2,MacIntel,60,,,,,,,,,,,,,,,,,,1,6.5734,,0,0,30,30,8,1,stimuli/stim_20210919_power2amp/equal_lnn_AM2Hz_s15_42.m4a,,,,,,,,,,,,
,,,,,,,,,,,,41753,2021-09-29_22h06.55.705,judgeSpeechMusic_20210919_logNormShiftAmp_detection_fixFreq,2020.1.2,MacIntel,60,,,,,,,,,,,,,,,,,,1,6.3035,,0,0,31,31,25,1,stimuli/stim_20210919_power2amp/equal_lnn_AM2Hz_s25_10.m4a,,,,,,,,,,,,
,,,,,,,,,,,,41753,2021-09-29_22h06.55.705,judgeSpeechMusic_20210919_logNormShiftAmp_detection_fixFreq,2020.1.2,MacIntel,60,,,,,,,,,,,,,,,,,,1,8.135,,0,0,32,32,19,1,stimuli/stim_20210919_power2amp/equal_lnn_AM2Hz_s25_34.m4a,,,,,,,,,,,,
,,,,,,,,,,,,41753,2021-09-29_22h06.55.705,judgeSpeechMusic_20210919_logNormShiftAmp_detection_fixFreq,2020.1.2,MacIntel,60,,,,,,,,,,,,,,,,,,2,6.4226,,0,0,33,33,63,1,stimuli/stim_20210919_power2amp/equal_lnn_AM2Hz_s55_31.m4a,,,,,,,,,,,,
,,,,,,,,,,,,41753,2021-09-29_22h06.55.705,judgeSpeechMusic_20210919_logNormShiftAmp_detection_fixFreq,2020.1.2,MacIntel,60,,,,,,,,,,,,,,,,,,2,6.5124,,0,0,34,34,22,1,stimuli/stim_20210919_power2amp/equal_lnn_AM2Hz_s25_3.m4a,,,,,,,,,,,,
,,,,,,,,,,,,41753,2021-09-29_22h06.55.705,judgeSpeechMusic_20210919_logNormShiftAmp_detection_fixFreq,2020.1.2,MacIntel,60,,,,,,,,,,,,,,,,,,2,6.3342,,0,0,35,35,14,1,stimuli/stim_20210919_power2amp/equal_lnn_AM2Hz_s15_9.m4a,,,,,,,,,,,,
,,,,,,,,,,,,41753,2021-09-29_22h06.55.705,judgeSpeechMusic_20210919_logNormShiftAmp_detection_fixFreq,2020.1.2,MacIntel,60,,,,,,,,,,,,,,,,,,2,9.0252,,0,0,36,36,23,1,stimuli/stim_20210919_power2amp/equal_lnn_AM2Hz_s25_1.m4a,,,,,,,,,,,,
,,,,,,,,,,,,41753,2021-09-29_22h06.55.705,judgeSpeechMusic_20210919_logNormShiftAmp_detection_fixFreq,2020.1.2,MacIntel,60,,,,,,,,,,,,,,,,,,2,9.7443,,0,0,37,37,43,1,stimuli/stim_20210919_power2amp/equal_lnn_AM2Hz_s35_3.m4a,,,,,,,,,,,,
,,,,,,,,,,,,41753,2021-09-29_22h06.55.705,judgeSpeechMusic_20210919_logNormShiftAmp_detection_fixFreq,2020.1.2,MacIntel,60,,,,,,,,,,,,,,,,,,2,6.3032,,0,0,38,38,11,1,stimuli/stim_20210919_power2amp/equal_lnn_AM2Hz_s15_44.m4a,,,,,,,,,,,,
,,,,,,,,,,,,41753,2021-09-29_22h06.55.705,judgeSpeechMusic_20210919_logNormShiftAmp_detection_fixFreq,2020.1.2,MacIntel,60,,,,,,,,,,,,,,,,,,2,6.591,,0,0,39,39,51,1,stimuli/stim_20210919_power2amp/equal_lnn_AM2Hz_s45_11.m4a,,,,,,,,,,,,
,,,,,,,,,,,,41753,2021-09-29_22h06.55.705,judgeSpeechMusic_20210919_logNormShiftAmp_detection_fixFreq,2020.1.2,MacIntel,60,,,,,,,,,,,,,,,,,,2,5.9679,,0,0,40,40,55,1,stimuli/stim_20210919_power2amp/equal_lnn_AM2Hz_s45_16.m4a,,,,,,,,,,,,
,,,,,,,,,,,,41753,2021-09-29_22h06.55.705,judgeSpeechMusic_20210919_logNormShiftAmp_detection_fixFreq,2020.1.2,MacIntel,60,,,,,,,,,,,,,,,,,,1,6.1272,3,0,0,41,41,9,1,stimuli/stim_20210919_power2amp/equal_lnn_AM2Hz_s15_20.m4a,0.4766,,,,,,,,,,,
,,,,,,,,,,,,41753,2021-09-29_22h06.55.705,judgeSpeechMusic_20210919_logNormShiftAmp_detection_fixFreq,2020.1.2,MacIntel,60,,,,,,,,,,,,,,,,,,1,7.3298,,0,0,42,42,37,1,stimuli/stim_20210919_power2amp/equal_lnn_AM2Hz_s35_12.m4a,,,,,,,,,,,,
,,,,,,,,,,,,41753,2021-09-29_22h06.55.705,judgeSpeechMusic_20210919_logNormShiftAmp_detection_fixFreq,2020.1.2,MacIntel,60,,,,,,,,,,,,,,,,,,1,9.1048,,0,0,43,43,52,1,stimuli/stim_20210919_power2amp/equal_lnn_AM2Hz_s45_27.m4a,,,,,,,,,,,,
,,,,,,,,,,,,41753,2021-09-29_22h06.55.705,judgeSpeechMusic_20210919_logNormShiftAmp_detection_fixFreq,2020.1.2,MacIntel,60,,,,,,,,,,,,,,,,,,2,6.6116,,0,0,44,44,5,1,stimuli/stim_20210919_power2amp/equal_lnn_AM2Hz_s15_18.m4a,,,,,,,,,,,,
,,,,,,,,,,,,41753,2021-09-29_22h06.55.705,judgeSpeechMusic_20210919_logNormShiftAmp_detection_fixFreq,2020.1.2,MacIntel,60,,,,,,,,,,,,,,,,,,1,7.9696,,0,0,45,45,66,1,stimuli/stim_20210919_power2amp/equal_lnn_AM2Hz_s55_45.m4a,,,,,,,,,,,,
,,,,,,,,,,,,41753,2021-09-29_22h06.55.705,judgeSpeechMusic_20210919_logNormShiftAmp_detection_fixFreq,2020.1.2,MacIntel,60,,,,,,,,,,,,,,,,,,2,6.3431,,0,0,46,46,10,1,stimuli/stim_20210919_power2amp/equal_lnn_AM2Hz_s15_39.m4a,,,,,,,,,,,,
,,,,,,,,,,,,41753,2021-09-29_22h06.55.705,judgeSpeechMusic_20210919_logNormShiftAmp_detection_fixFreq,2020.1.2,MacIntel,60,,,,,,,,,,,,,,,,,,2,6.913,,0,0,47,47,72,1,stimuli/stim_20210919_power2amp/equal_lnn_AM2Hz_s55_7.m4a,,,,,,,,,,,,
,,,,,,,,,,,,41753,2021-09-29_22h06.55.705,judgeSpeechMusic_20210919_logNormShiftAmp_detection_fixFreq,2020.1.2,MacIntel,60,,,,,,,,,,,,,,,,,,2,6.262,,0,0,48,48,29,1,stimuli/stim_20210919_power2amp/equal_lnn_AM2Hz_s25_22.m4a,,,,,,,,,,,,
,,,,,,,,,,,,41753,2021-09-29_22h06.55.705,judgeSpeechMusic_20210919_logNormShiftAmp_detection_fixFreq,2020.1.2,MacIntel,60,,,,,,,,,,,,,,,,,,2,6.2771,,0,0,49,49,65,1,stimuli/stim_20210919_power2amp/equal_lnn_AM2Hz_s55_13.m4a,,,,,,,,,,,,
,,,,,,,,,,,,41753,2021-09-29_22h06.55.705,judgeSpeechMusic_20210919_logNormShiftAmp_detection_fixFreq,2020.1.2,MacIntel,60,,,,,,,,,,,,,,,,,,2,6.3013,,0,0,50,50,40,1,stimuli/stim_20210919_power2amp/equal_lnn_AM2Hz_s35_42.m4a,,,,,,,,,,,,
,,,,,,,,,,,,41753,2021-09-29_22h06.55.705,judgeSpeechMusic_20210919_logNormShiftAmp_detection_fixFreq,2020.1.2,MacIntel,60,,,,,,,,,,,,,,,,,,1,6.6417,,0,0,51,51,44,1,stimuli/stim_20210919_power2amp/equal_lnn_AM2Hz_s35_33.m4a,,,,,,,,,,,,
,,,,,,,,,,,,41753,2021-09-29_22h06.55.705,judgeSpeechMusic_20210919_logNormShiftAmp_detection_fixFreq,2020.1.2,MacIntel,60,,,,,,,,,,,,,,,,,,1,9.0147,,0,0,52,52,68,1,stimuli/stim_20210919_power2amp/equal_lnn_AM2Hz_s55_22.m4a,,,,,,,,,,,,
,,,,,,,,,,,,41753,2021-09-29_22h06.55.705,judgeSpeechMusic_20210919_logNormShiftAmp_detection_fixFreq,2020.1.2,MacIntel,60,,,,,,,,,,,,,,,,,,2,7.0158,,0,0,53,53,42,1,stimuli/stim_20210919_power2amp/equal_lnn_AM2Hz_s35_21.m4a,,,,,,,,,,,,
,,,,,,,,,,,,41753,2021-09-29_22h06.55.705,judgeSpeechMusic_20210919_logNormShiftAmp_detection_fixFreq,2020.1.2,MacIntel,60,,,,,,,,,,,,,,,,,,2,19.9741,,0,0,54,54,64,1,stimuli/stim_20210919_power2amp/equal_lnn_AM2Hz_s55_5.m4a,,,,,,,,,,,,
,,,,,,,,,,,,41753,2021-09-29_22h06.55.705,judgeSpeechMusic_20210919_logNormShiftAmp_detection_fixFreq,2020.1.2,MacIntel,60,,,,,,,,,,,,,,,,,,1,15.2372,,0,0,55,55,24,1,stimuli/stim_20210919_power2amp/equal_lnn_AM2Hz_s25_18.m4a,,,,,,,,,,,,
,,,,,,,,,,,,41753,2021-09-29_22h06.55.705,judgeSpeechMusic_20210919_logNormShiftAmp_detection_fixFreq,2020.1.2,MacIntel,60,,,,,,,,,,,,,,,,,,1,6.438,,0,0,56,56,6,1,stimuli/stim_20210919_power2amp/equal_lnn_AM2Hz_s15_47.m4a,,,,,,,,,,,,
,,,,,,,,,,,,41753,2021-09-29_22h06.55.705,judgeSpeechMusic_20210919_logNormShiftAmp_detection_fixFreq,2020.1.2,MacIntel,60,,,,,,,,,,,,,,,,,,1,6.0099,,0,0,57,57,27,1,stimuli/stim_20210919_power2amp/equal_lnn_AM2Hz_s25_20.m4a,,,,,,,,,,,,
,,,,,,,,,,,,41753,2021-09-29_22h06.55.705,judgeSpeechMusic_20210919_logNormShiftAmp_detection_fixFreq,2020.1.2,MacIntel,60,,,,,,,,,,,,,,,,,,1,6.4256,,0,0,58,58,2,1,stimuli/stim_20210919_power2amp/equal_lnn_AM2Hz_s15_10.m4a,,,,,,,,,,,,
,,,,,,,,,,,,41753,2021-09-29_22h06.55.705,judgeSpeechMusic_20210919_logNormShiftAmp_detection_fixFreq,2020.1.2,MacIntel,60,,,,,,,,,,,,,,,,,,1,11.1206,,0,0,59,59,26,1,stimuli/stim_20210919_power2amp/equal_lnn_AM2Hz_s25_47.m4a,,,,,,,,,,,,
,,,,,,,,,,,,41753,2021-09-29_22h06.55.705,judgeSpeechMusic_20210919_logNormShiftAmp_detection_fixFreq,2020.1.2,MacIntel,60,,,,,,,,,,,,,,,,,,1,6.6864,,0,0,60,60,15,1,stimuli/stim_20210919_power2amp/equal_lnn_AM2Hz_s25_17.m4a,,,,,,,,,,,,
,,,,,,,,,,,,41753,2021-09-29_22h06.55.705,judgeSpeechMusic_20210919_logNormShiftAmp_detection_fixFreq,2020.1.2,MacIntel,60,,,,,,,,,,,,,,,,,,1,6.4641,,0,0,61,61,3,1,stimuli/stim_20210919_power2amp/equal_lnn_AM2Hz_s15_29.m4a,,,,,,,,,,,,
,,,,,,,,,,,,41753,2021-09-29_22h06.55.705,judgeSpeechMusic_20210919_logNormShiftAmp_detection_fixFreq,2020.1.2,MacIntel,60,,,,,,,,,,,,,,,,,,2,7.8876,2,1,0,62,62,21,1,stimuli/stim_20210919_power2amp/equal_lnn_AM2Hz_s25_46.m4a,1.0799,,,,,,,,,,,
,,,,,,,,,,,,41753,2021-09-29_22h06.55.705,judgeSpeechMusic_20210919_logNormShiftAmp_detection_fixFreq,2020.1.2,MacIntel,60,,,,,,,,,,,,,,,,,,2,12.4193,,0,0,63,63,61,1,stimuli/stim_20210919_power2amp/equal_lnn_AM2Hz_s55_34.m4a,,,,,,,,,,,,
,,,,,,,,,,,,41753,2021-09-29_22h06.55.705,judgeSpeechMusic_20210919_logNormShiftAmp_detection_fixFreq,2020.1.2,MacIntel,60,,,,,,,,,,,,,,,,,,2,9.3512,,0,0,64,64,1,1,stimuli/stim_20210919_power2amp/equal_lnn_AM2Hz_s15_35.m4a,,,,,,,,,,,,
,,,,,,,,,,,,41753,2021-09-29_22h06.55.705,judgeSpeechMusic_20210919_logNormShiftAmp_detection_fixFreq,2020.1.2,MacIntel,60,,,,,,,,,,,,,,,,,,2,6.6964,,0,0,65,65,70,1,stimuli/stim_20210919_power2amp/equal_lnn_AM2Hz_s55_47.m4a,,,,,,,,,,,,
,,,,,,,,,,,,41753,2021-09-29_22h06.55.705,judgeSpeechMusic_20210919_logNormShiftAmp_detection_fixFreq,2020.1.2,MacIntel,60,,,,,,,,,,,,,,,,,,2,6.4651,,0,0,66,66,20,1,stimuli/stim_20210919_power2amp/equal_lnn_AM2Hz_s25_5.m4a,,,,,,,,,,,,
,,,,,,,,,,,,41753,2021-09-29_22h06.55.705,judgeSpeechMusic_20210919_logNormShiftAmp_detection_fixFreq,2020.1.2,MacIntel,60,,,,,,,,,,,,,,,,,,2,6.1334,,0,0,67,67,57,1,stimuli/stim_20210919_power2amp/equal_lnn_AM2Hz_s45_18.m4a,,,,,,,,,,,,
,,,,,,,,,,,,41753,2021-09-29_22h06.55.705,judgeSpeechMusic_20210919_logNormShiftAmp_detection_fixFreq,2020.1.2,MacIntel,60,,,,,,,,,,,,,,,,,,2,6.3908,,0,0,68,68,38,1,stimuli/stim_20210919_power2amp/equal_lnn_AM2Hz_s35_11.m4a,,,,,,,,,,,,
,,,,,,,,,,,,41753,2021-09-29_22h06.55.705,judgeSpeechMusic_20210919_logNormShiftAmp_detection_fixFreq,2020.1.2,MacIntel,60,,,,,,,,,,,,,,,,,,2,5.9694,,0,0,69,69,13,1,stimuli/stim_20210919_power2amp/equal_lnn_AM2Hz_s15_1.m4a,,,,,,,,,,,,
,,,,,,,,,,,,41753,2021-09-29_22h06.55.705,judgeSpeechMusic_20210919_logNormShiftAmp_detection_fixFreq,2020.1.2,MacIntel,60,,,,,,,,,,,,,,,,,,2,7.2085,,0,0,70,70,50,1,stimuli/stim_20210919_power2amp/equal_lnn_AM2Hz_s45_17.m4a,,,,,,,,,,,,
,,,,,,,,,,,,41753,2021-09-29_22h06.55.705,judgeSpeechMusic_20210919_logNormShiftAmp_detection_fixFreq,2020.1.2,MacIntel,60,,,,,,,,,,,,,,,,,,2,6.3884,,0,0,71,71,33,1,stimuli/stim_20210919_power2amp/equal_lnn_AM2Hz_s35_31.m4a,,,,,,,,,,,,
,,,,,,,,,,,,41753,2021-09-29_22h06.55.705,judgeSpeechMusic_20210919_logNormShiftAmp_detection_fixFreq,2020.1.2,MacIntel,60,,,,,,,,,,,,,,,,,,2,6.603,,0,0,72,72,39,1,stimuli/stim_20210919_power2amp/equal_lnn_AM2Hz_s35_47.m4a,,,,,,,,,,,,
,,,,,,,,,,,,41753,2021-09-29_22h06.55.705,judgeSpeechMusic_20210919_logNormShiftAmp_detection_fixFreq,2020.1.2,MacIntel,60,,,,,,,,,,,,,,,,,,1,7.8421,,0,0,73,73,18,1,stimuli/stim_20210919_power2amp/equal_lnn_AM2Hz_s25_6.m4a,,,,,,,,,,,,
,,,,,,,,,,,,41753,2021-09-29_22h06.55.705,judgeSpeechMusic_20210919_logNormShiftAmp_detection_fixFreq,2020.1.2,MacIntel,60,,,,,,,,,,,,,,,,,,1,6.2396,,0,0,74,74,35,1,stimuli/stim_20210919_power2amp/equal_lnn_AM2Hz_s35_8.m4a,,,,,,,,,,,,
,,,,,,,,,,,,41753,2021-09-29_22h06.55.705,judgeSpeechMusic_20210919_logNormShiftAmp_detection_fixFreq,2020.1.2,MacIntel,60,,,,,,,,,,,,,,,,,,,,,,,,,,,,,space,6.3966,0,0,0,1,1,SPEECH,stimuli/SPEECH.jpg,,
,,,,,,,,,,,,41753,2021-09-29_22h06.55.705,judgeSpeechMusic_20210919_logNormShiftAmp_detection_fixFreq,2020.1.2,MacIntel,60,space,10.9346,2,6.5717,,0,0,0,0,0,1,stimuli/stim_20210919_power2amp/equal_lnn_AM_training2Hz_s20.m4a,,,,,,,,,,,,,,,,,,,,,,,,,,,
,,,,,,,,,,,,41753,2021-09-29_22h06.55.705,judgeSpeechMusic_20210919_logNormShiftAmp_detection_fixFreq,2020.1.2,MacIntel,60,,,2,11.8441,,0,0,1,1,3,1,stimuli/stim_20210919_power2amp/equal_lnn_AM_training2Hz_s50.m4a,,,,,,,,,,,,,,,,,,,,,,,,,,,
,,,,,,,,,,,,41753,2021-09-29_22h06.55.705,judgeSpeechMusic_20210919_logNormShiftAmp_detection_fixFreq,2020.1.2,MacIntel,60,,,2,5.8831,2,1,0,2,2,2,1,stimuli/stim_20210919_power2amp/equal_lnn_AM_training2Hz_s40.m4a,0.6884,,,,,,,,,,,,,,,,,,,,,,,,,,
,,,,,,,,,,,,41753,2021-09-29_22h06.55.705,judgeSpeechMusic_20210919_logNormShiftAmp_detection_fixFreq,2020.1.2,MacIntel,60,,,2,6.3342,,0,0,3,3,1,1,stimuli/stim_20210919_power2amp/equal_lnn_AM_training2Hz_s30.m4a,,,,,,,,,,,,,,,,,,,,,,,,,,,
,,,,,,,,,,,,41753,2021-09-29_22h06.55.705,judgeSpeechMusic_20210919_logNormShiftAmp_detection_fixFreq,2020.1.2,MacIntel,60,,,,,,,,,,,,,,space,1.4888,space,8.3829,2,7.2292,,0,0,0,0,66,1,stimuli/stim_20210919_power2amp/equal_lnn_AM2Hz_s55_45.m4a,,,,,,,,,,,,
,,,,,,,,,,,,41753,2021-09-29_22h06.55.705,judgeSpeechMusic_20210919_logNormShiftAmp_detection_fixFreq,2020.1.2,MacIntel,60,,,,,,,,,,,,,,,,,,1,6.9521,,0,0,1,1,13,1,stimuli/stim_20210919_power2amp/equal_lnn_AM2Hz_s15_1.m4a,,,,,,,,,,,,
,,,,,,,,,,,,41753,2021-09-29_22h06.55.705,judgeSpeechMusic_20210919_logNormShiftAmp_detection_fixFreq,2020.1.2,MacIntel,60,,,,,,,,,,,,,,,,,,1,9.6252,,0,0,2,2,46,1,stimuli/stim_20210919_power2amp/equal_lnn_AM2Hz_s45_33.m4a,,,,,,,,,,,,
,,,,,,,,,,,,41753,2021-09-29_22h06.55.705,judgeSpeechMusic_20210919_logNormShiftAmp_detection_fixFreq,2020.1.2,MacIntel,60,,,,,,,,,,,,,,,,,,1,11.4042,,0,0,3,3,16,1,stimuli/stim_20210919_power2amp/equal_lnn_AM2Hz_s25_14.m4a,,,,,,,,,,,,
,,,,,,,,,,,,41753,2021-09-29_22h06.55.705,judgeSpeechMusic_20210919_logNormShiftAmp_detection_fixFreq,2020.1.2,MacIntel,60,,,,,,,,,,,,,,,,,,2,6.5875,,0,0,4,4,47,1,stimuli/stim_20210919_power2amp/equal_lnn_AM2Hz_s45_21.m4a,,,,,,,,,,,,
,,,,,,,,,,,,41753,2021-09-29_22h06.55.705,judgeSpeechMusic_20210919_logNormShiftAmp_detection_fixFreq,2020.1.2,MacIntel,60,,,,,,,,,,,,,,,,,,2,6.5688,,0,0,5,5,67,1,stimuli/stim_20210919_power2amp/equal_lnn_AM2Hz_s55_20.m4a,,,,,,,,,,,,
,,,,,,,,,,,,41753,2021-09-29_22h06.55.705,judgeSpeechMusic_20210919_logNormShiftAmp_detection_fixFreq,2020.1.2,MacIntel,60,,,,,,,,,,,,,,,,,,2,6.4084,,0,0,6,6,0,1,stimuli/stim_20210919_power2amp/equal_lnn_AM2Hz_s15_7.m4a,,,,,,,,,,,,
,,,,,,,,,,,,41753,2021-09-29_22h06.55.705,judgeSpeechMusic_20210919_logNormShiftAmp_detection_fixFreq,2020.1.2,MacIntel,60,,,,,,,,,,,,,,,,,,2,6.5922,,0,0,7,7,52,1,stimuli/stim_20210919_power2amp/equal_lnn_AM2Hz_s45_27.m4a,,,,,,,,,,,,
,,,,,,,,,,,,41753,2021-09-29_22h06.55.705,judgeSpeechMusic_20210919_logNormShiftAmp_detection_fixFreq,2020.1.2,MacIntel,60,,,,,,,,,,,,,,,,,,1,6.9927,,0,0,8,8,15,1,stimuli/stim_20210919_power2amp/equal_lnn_AM2Hz_s25_17.m4a,,,,,,,,,,,,
,,,,,,,,,,,,41753,2021-09-29_22h06.55.705,judgeSpeechMusic_20210919_logNormShiftAmp_detection_fixFreq,2020.1.2,MacIntel,60,,,,,,,,,,,,,,,,,,1,7.1454,,0,0,9,9,29,1,stimuli/stim_20210919_power2amp/equal_lnn_AM2Hz_s25_22.m4a,,,,,,,,,,,,
,,,,,,,,,,,,41753,2021-09-29_22h06.55.705,judgeSpeechMusic_20210919_logNormShiftAmp_detection_fixFreq,2020.1.2,MacIntel,60,,,,,,,,,,,,,,,,,,1,7.6697,,0,0,10,10,18,1,stimuli/stim_20210919_power2amp/equal_lnn_AM2Hz_s25_6.m4a,,,,,,,,,,,,
,,,,,,,,,,,,41753,2021-09-29_22h06.55.705,judgeSpeechMusic_20210919_logNormShiftAmp_detection_fixFreq,2020.1.2,MacIntel,60,,,,,,,,,,,,,,,,,,1,8.2326,,0,0,11,11,62,1,stimuli/stim_20210919_power2amp/equal_lnn_AM2Hz_s55_9.m4a,,,,,,,,,,,,
,,,,,,,,,,,,41753,2021-09-29_22h06.55.705,judgeSpeechMusic_20210919_logNormShiftAmp_detection_fixFreq,2020.1.2,MacIntel,60,,,,,,,,,,,,,,,,,,2,7.2112,,0,0,12,12,50,1,stimuli/stim_20210919_power2amp/equal_lnn_AM2Hz_s45_17.m4a,,,,,,,,,,,,
,,,,,,,,,,,,41753,2021-09-29_22h06.55.705,judgeSpeechMusic_20210919_logNormShiftAmp_detection_fixFreq,2020.1.2,MacIntel,60,,,,,,,,,,,,,,,,,,2,9.9833,,0,0,13,13,40,1,stimuli/stim_20210919_power2amp/equal_lnn_AM2Hz_s35_42.m4a,,,,,,,,,,,,
,,,,,,,,,,,,41753,2021-09-29_22h06.55.705,judgeSpeechMusic_20210919_logNormShiftAmp_detection_fixFreq,2020.1.2,MacIntel,60,,,,,,,,,,,,,,,,,,2,7.0204,,0,0,14,14,6,1,stimuli/stim_20210919_power2amp/equal_lnn_AM2Hz_s15_47.m4a,,,,,,,,,,,,
,,,,,,,,,,,,41753,2021-09-29_22h06.55.705,judgeSpeechMusic_20210919_logNormShiftAmp_detection_fixFreq,2020.1.2,MacIntel,60,,,,,,,,,,,,,,,,,,1,7.4091,,0,0,15,15,23,1,stimuli/stim_20210919_power2amp/equal_lnn_AM2Hz_s25_1.m4a,,,,,,,,,,,,
,,,,,,,,,,,,41753,2021-09-29_22h06.55.705,judgeSpeechMusic_20210919_logNormShiftAmp_detection_fixFreq,2020.1.2,MacIntel,60,,,,,,,,,,,,,,,,,,1,10.4047,,0,0,16,16,39,1,stimuli/stim_20210919_power2amp/equal_lnn_AM2Hz_s35_47.m4a,,,,,,,,,,,,
,,,,,,,,,,,,41753,2021-09-29_22h06.55.705,judgeSpeechMusic_20210919_logNormShiftAmp_detection_fixFreq,2020.1.2,MacIntel,60,,,,,,,,,,,,,,,,,,1,7.6189,,0,0,17,17,22,1,stimuli/stim_20210919_power2amp/equal_lnn_AM2Hz_s25_3.m4a,,,,,,,,,,,,
,,,,,,,,,,,,41753,2021-09-29_22h06.55.705,judgeSpeechMusic_20210919_logNormShiftAmp_detection_fixFreq,2020.1.2,MacIntel,60,,,,,,,,,,,,,,,,,,2,6.97,,0,0,18,18,2,1,stimuli/stim_20210919_power2amp/equal_lnn_AM2Hz_s15_10.m4a,,,,,,,,,,,,
,,,,,,,,,,,,41753,2021-09-29_22h06.55.705,judgeSpeechMusic_20210919_logNormShiftAmp_detection_fixFreq,2020.1.2,MacIntel,60,,,,,,,,,,,,,,,,,,2,16.1221,3,1,0,19,19,41,1,stimuli/stim_20210919_power2amp/equal_lnn_AM2Hz_s35_14.m4a,0.6646,,,,,,,,,,,
,,,,,,,,,,,,41753,2021-09-29_22h06.55.705,judgeSpeechMusic_20210919_logNormShiftAmp_detection_fixFreq,2020.1.2,MacIntel,60,,,,,,,,,,,,,,,,,,2,6.7271,,0,0,20,20,55,1,stimuli/stim_20210919_power2amp/equal_lnn_AM2Hz_s45_16.m4a,,,,,,,,,,,,
,,,,,,,,,,,,41753,2021-09-29_22h06.55.705,judgeSpeechMusic_20210919_logNormShiftAmp_detection_fixFreq,2020.1.2,MacIntel,60,,,,,,,,,,,,,,,,,,1,6.5675,,0,0,21,21,3,1,stimuli/stim_20210919_power2amp/equal_lnn_AM2Hz_s15_29.m4a,,,,,,,,,,,,
,,,,,,,,,,,,41753,2021-09-29_22h06.55.705,judgeSpeechMusic_20210919_logNormShiftAmp_detection_fixFreq,2020.1.2,MacIntel,60,,,,,,,,,,,,,,,,,,1,6.7089,,0,0,22,22,17,1,stimuli/stim_20210919_power2amp/equal_lnn_AM2Hz_s25_15.m4a,,,,,,,,,,,,
,,,,,,,,,,,,41753,2021-09-29_22h06.55.705,judgeSpeechMusic_20210919_logNormShiftAmp_detection_fixFreq,2020.1.2,MacIntel,60,,,,,,,,,,,,,,,,,,1,8.6343,,0,0,23,23,4,1,stimuli/stim_20210919_power2amp/equal_lnn_AM2Hz_s15_27.m4a,,,,,,,,,,,,
,,,,,,,,,,,,41753,2021-09-29_22h06.55.705,judgeSpeechMusic_20210919_logNormShiftAmp_detection_fixFreq,2020.1.2,MacIntel,60,,,,,,,,,,,,,,,,,,1,9.1088,,0,0,24,24,51,1,stimuli/stim_20210919_power2amp/equal_lnn_AM2Hz_s45_11.m4a,,,,,,,,,,,,
,,,,,,,,,,,,41753,2021-09-29_22h06.55.705,judgeSpeechMusic_20210919_logNormShiftAmp_detection_fixFreq,2020.1.2,MacIntel,60,,,,,,,,,,,,,,,,,,2,8.2084,,0,0,25,25,43,1,stimuli/stim_20210919_power2amp/equal_lnn_AM2Hz_s35_3.m4a,,,,,,,,,,,,
,,,,,,,,,,,,41753,2021-09-29_22h06.55.705,judgeSpeechMusic_20210919_logNormShiftAmp_detection_fixFreq,2020.1.2,MacIntel,60,,,,,,,,,,,,,,,,,,2,6.5685,,0,0,26,26,8,1,stimuli/stim_20210919_power2amp/equal_lnn_AM2Hz_s15_42.m4a,,,,,,,,,,,,
,,,,,,,,,,,,41753,2021-09-29_22h06.55.705,judgeSpeechMusic_20210919_logNormShiftAmp_detection_fixFreq,2020.1.2,MacIntel,60,,,,,,,,,,,,,,,,,,2,6.5852,,0,0,27,27,9,1,stimuli/stim_20210919_power2amp/equal_lnn_AM2Hz_s15_20.m4a,,,,,,,,,,,,
,,,,,,,,,,,,41753,2021-09-29_22h06.55.705,judgeSpeechMusic_20210919_logNormShiftAmp_detection_fixFreq,2020.1.2,MacIntel,60,,,,,,,,,,,,,,,,,,2,10.6975,,0,0,28,28,68,1,stimuli/stim_20210919_power2amp/equal_lnn_AM2Hz_s55_22.m4a,,,,,,,,,,,,
,,,,,,,,,,,,41753,2021-09-29_22h06.55.705,judgeSpeechMusic_20210919_logNormShiftAmp_detection_fixFreq,2020.1.2,MacIntel,60,,,,,,,,,,,,,,,,,,2,65.2494,,0,0,29,29,20,1,stimuli/stim_20210919_power2amp/equal_lnn_AM2Hz_s25_5.m4a,,,,,,,,,,,,
,,,,,,,,,,,,41753,2021-09-29_22h06.55.705,judgeSpeechMusic_20210919_logNormShiftAmp_detection_fixFreq,2020.1.2,MacIntel,60,,,,,,,,,,,,,,,,,,1,13.8578,,0,0,30,30,37,1,stimuli/stim_20210919_power2amp/equal_lnn_AM2Hz_s35_12.m4a,,,,,,,,,,,,
,,,,,,,,,,,,41753,2021-09-29_22h06.55.705,judgeSpeechMusic_20210919_logNormShiftAmp_detection_fixFreq,2020.1.2,MacIntel,60,,,,,,,,,,,,,,,,,,1,8.4365,,0,0,31,31,38,1,stimuli/stim_20210919_power2amp/equal_lnn_AM2Hz_s35_11.m4a,,,,,,,,,,,,
,,,,,,,,,,,,41753,2021-09-29_22h06.55.705,judgeSpeechMusic_20210919_logNormShiftAmp_detection_fixFreq,2020.1.2,MacIntel,60,,,,,,,,,,,,,,,,,,1,6.8642,,0,0,32,32,49,1,stimuli/stim_20210919_power2amp/equal_lnn_AM2Hz_s45_44.m4a,,,,,,,,,,,,
,,,,,,,,,,,,41753,2021-09-29_22h06.55.705,judgeSpeechMusic_20210919_logNormShiftAmp_detection_fixFreq,2020.1.2,MacIntel,60,,,,,,,,,,,,,,,,,,1,9.3888,,0,0,33,33,12,1,stimuli/stim_20210919_power2amp/equal_lnn_AM2Hz_s15_5.m4a,,,,,,,,,,,,
,,,,,,,,,,,,41753,2021-09-29_22h06.55.705,judgeSpeechMusic_20210919_logNormShiftAmp_detection_fixFreq,2020.1.2,MacIntel,60,,,,,,,,,,,,,,,,,,1,6.6422,,0,0,34,34,44,1,stimuli/stim_20210919_power2amp/equal_lnn_AM2Hz_s35_33.m4a,,,,,,,,,,,,
,,,,,,,,,,,,41753,2021-09-29_22h06.55.705,judgeSpeechMusic_20210919_logNormShiftAmp_detection_fixFreq,2020.1.2,MacIntel,60,,,,,,,,,,,,,,,,,,2,7.1599,,0,0,35,35,27,1,stimuli/stim_20210919_power2amp/equal_lnn_AM2Hz_s25_20.m4a,,,,,,,,,,,,
,,,,,,,,,,,,41753,2021-09-29_22h06.55.705,judgeSpeechMusic_20210919_logNormShiftAmp_detection_fixFreq,2020.1.2,MacIntel,60,,,,,,,,,,,,,,,,,,2,6.481,,0,0,36,36,74,1,stimuli/stim_20210919_power2amp/equal_lnn_AM2Hz_s55_39.m4a,,,,,,,,,,,,
,,,,,,,,,,,,41753,2021-09-29_22h06.55.705,judgeSpeechMusic_20210919_logNormShiftAmp_detection_fixFreq,2020.1.2,MacIntel,60,,,,,,,,,,,,,,,,,,2,6.5555,,0,0,37,37,19,1,stimuli/stim_20210919_power2amp/equal_lnn_AM2Hz_s25_34.m4a,,,,,,,,,,,,
,,,,,,,,,,,,41753,2021-09-29_22h06.55.705,judgeSpeechMusic_20210919_logNormShiftAmp_detection_fixFreq,2020.1.2,MacIntel,60,,,,,,,,,,,,,,,,,,2,11.9122,,0,0,38,38,14,1,stimuli/stim_20210919_power2amp/equal_lnn_AM2Hz_s15_9.m4a,,,,,,,,,,,,
,,,,,,,,,,,,41753,2021-09-29_22h06.55.705,judgeSpeechMusic_20210919_logNormShiftAmp_detection_fixFreq,2020.1.2,MacIntel,60,,,,,,,,,,,,,,,,,,2,7.739,,0,0,39,39,65,1,stimuli/stim_20210919_power2amp/equal_lnn_AM2Hz_s55_13.m4a,,,,,,,,,,,,
,,,,,,,,,,,,41753,2021-09-29_22h06.55.705,judgeSpeechMusic_20210919_logNormShiftAmp_detection_fixFreq,2020.1.2,MacIntel,60,,,,,,,,,,,,,,,,,,1,7.7934,,0,0,40,40,28,1,stimuli/stim_20210919_power2amp/equal_lnn_AM2Hz_s25_50.m4a,,,,,,,,,,,,
,,,,,,,,,,,,41753,2021-09-29_22h06.55.705,judgeSpeechMusic_20210919_logNormShiftAmp_detection_fixFreq,2020.1.2,MacIntel,60,,,,,,,,,,,,,,,,,,1,6.5285,1,1,0,41,41,5,1,stimuli/stim_20210919_power2amp/equal_lnn_AM2Hz_s15_18.m4a,1.8941,,,,,,,,,,,
,,,,,,,,,,,,41753,2021-09-29_22h06.55.705,judgeSpeechMusic_20210919_logNormShiftAmp_detection_fixFreq,2020.1.2,MacIntel,60,,,,,,,,,,,,,,,,,,2,7.2399,,0,0,42,42,21,1,stimuli/stim_20210919_power2amp/equal_lnn_AM2Hz_s25_46.m4a,,,,,,,,,,,,
,,,,,,,,,,,,41753,2021-09-29_22h06.55.705,judgeSpeechMusic_20210919_logNormShiftAmp_detection_fixFreq,2020.1.2,MacIntel,60,,,,,,,,,,,,,,,,,,2,8.1881,,0,0,43,43,30,1,stimuli/stim_20210919_power2amp/equal_lnn_AM2Hz_s35_48.m4a,,,,,,,,,,,,
,,,,,,,,,,,,41753,2021-09-29_22h06.55.705,judgeSpeechMusic_20210919_logNormShiftAmp_detection_fixFreq,2020.1.2,MacIntel,60,,,,,,,,,,,,,,,,,,2,20.1348,,0,0,44,44,10,1,stimuli/stim_20210919_power2amp/equal_lnn_AM2Hz_s15_39.m4a,,,,,,,,,,,,
,,,,,,,,,,,,41753,2021-09-29_22h06.55.705,judgeSpeechMusic_20210919_logNormShiftAmp_detection_fixFreq,2020.1.2,MacIntel,60,,,,,,,,,,,,,,,,,,2,27.3715,,0,0,45,45,36,1,stimuli/stim_20210919_power2amp/equal_lnn_AM2Hz_s35_23.m4a,,,,,,,,,,,,
,,,,,,,,,,,,41753,2021-09-29_22h06.55.705,judgeSpeechMusic_20210919_logNormShiftAmp_detection_fixFreq,2020.1.2,MacIntel,60,,,,,,,,,,,,,,,,,,1,7.5448,,0,0,46,46,54,1,stimuli/stim_20210919_power2amp/equal_lnn_AM2Hz_s45_28.m4a,,,,,,,,,,,,
,,,,,,,,,,,,41753,2021-09-29_22h06.55.705,judgeSpeechMusic_20210919_logNormShiftAmp_detection_fixFreq,2020.1.2,MacIntel,60,,,,,,,,,,,,,,,,,,1,10.8751,,0,0,47,47,56,1,stimuli/stim_20210919_power2amp/equal_lnn_AM2Hz_s45_31.m4a,,,,,,,,,,,,
,,,,,,,,,,,,41753,2021-09-29_22h06.55.705,judgeSpeechMusic_20210919_logNormShiftAmp_detection_fixFreq,2020.1.2,MacIntel,60,,,,,,,,,,,,,,,,,,1,11.1484,,0,0,48,48,42,1,stimuli/stim_20210919_power2amp/equal_lnn_AM2Hz_s35_21.m4a,,,,,,,,,,,,
,,,,,,,,,,,,41753,2021-09-29_22h06.55.705,judgeSpeechMusic_20210919_logNormShiftAmp_detection_fixFreq,2020.1.2,MacIntel,60,,,,,,,,,,,,,,,,,,2,6.9691,,0,0,49,49,26,1,stimuli/stim_20210919_power2amp/equal_lnn_AM2Hz_s25_47.m4a,,,,,,,,,,,,
,,,,,,,,,,,,41753,2021-09-29_22h06.55.705,judgeSpeechMusic_20210919_logNormShiftAmp_detection_fixFreq,2020.1.2,MacIntel,60,,,,,,,,,,,,,,,,,,2,6.3626,,0,0,50,50,45,1,stimuli/stim_20210919_power2amp/equal_lnn_AM2Hz_s45_49.m4a,,,,,,,,,,,,
,,,,,,,,,,,,41753,2021-09-29_22h06.55.705,judgeSpeechMusic_20210919_logNormShiftAmp_detection_fixFreq,2020.1.2,MacIntel,60,,,,,,,,,,,,,,,,,,2,10.2277,,0,0,51,51,57,1,stimuli/stim_20210919_power2amp/equal_lnn_AM2Hz_s45_18.m4a,,,,,,,,,,,,
,,,,,,,,,,,,41753,2021-09-29_22h06.55.705,judgeSpeechMusic_20210919_logNormShiftAmp_detection_fixFreq,2020.1.2,MacIntel,60,,,,,,,,,,,,,,,,,,2,6.8055,,0,0,52,52,1,1,stimuli/stim_20210919_power2amp/equal_lnn_AM2Hz_s15_35.m4a,,,,,,,,,,,,
,,,,,,,,,,,,41753,2021-09-29_22h06.55.705,judgeSpeechMusic_20210919_logNormShiftAmp_detection_fixFreq,2020.1.2,MacIntel,60,,,,,,,,,,,,,,,,,,2,6.453,,0,0,53,53,58,1,stimuli/stim_20210919_power2amp/equal_lnn_AM2Hz_s45_34.m4a,,,,,,,,,,,,
,,,,,,,,,,,,41753,2021-09-29_22h06.55.705,judgeSpeechMusic_20210919_logNormShiftAmp_detection_fixFreq,2020.1.2,MacIntel,60,,,,,,,,,,,,,,,,,,2,6.4277,,0,0,54,54,72,1,stimuli/stim_20210919_power2amp/equal_lnn_AM2Hz_s55_7.m4a,,,,,,,,,,,,
,,,,,,,,,,,,41753,2021-09-29_22h06.55.705,judgeSpeechMusic_20210919_logNormShiftAmp_detection_fixFreq,2020.1.2,MacIntel,60,,,,,,,,,,,,,,,,,,1,10.2057,,0,0,55,55,53,1,stimuli/stim_20210919_power2amp/equal_lnn_AM2Hz_s45_20.m4a,,,,,,,,,,,,
,,,,,,,,,,,,41753,2021-09-29_22h06.55.705,judgeSpeechMusic_20210919_logNormShiftAmp_detection_fixFreq,2020.1.2,MacIntel,60,,,,,,,,,,,,,,,,,,1,6.719,,0,0,56,56,31,1,stimuli/stim_20210919_power2amp/equal_lnn_AM2Hz_s35_24.m4a,,,,,,,,,,,,
,,,,,,,,,,,,41753,2021-09-29_22h06.55.705,judgeSpeechMusic_20210919_logNormShiftAmp_detection_fixFreq,2020.1.2,MacIntel,60,,,,,,,,,,,,,,,,,,1,7.6261,,0,0,57,57,11,1,stimuli/stim_20210919_power2amp/equal_lnn_AM2Hz_s15_44.m4a,,,,,,,,,,,,
,,,,,,,,,,,,41753,2021-09-29_22h06.55.705,judgeSpeechMusic_20210919_logNormShiftAmp_detection_fixFreq,2020.1.2,MacIntel,60,,,,,,,,,,,,,,,,,,2,8.4262,,0,0,58,58,24,1,stimuli/stim_20210919_power2amp/equal_lnn_AM2Hz_s25_18.m4a,,,,,,,,,,,,
,,,,,,,,,,,,41753,2021-09-29_22h06.55.705,judgeSpeechMusic_20210919_logNormShiftAmp_detection_fixFreq,2020.1.2,MacIntel,60,,,,,,,,,,,,,,,,,,2,7.5877,,0,0,59,59,7,1,stimuli/stim_20210919_power2amp/equal_lnn_AM2Hz_s15_36.m4a,,,,,,,,,,,,
,,,,,,,,,,,,41753,2021-09-29_22h06.55.705,judgeSpeechMusic_20210919_logNormShiftAmp_detection_fixFreq,2020.1.2,MacIntel,60,,,,,,,,,,,,,,,,,,2,8.7014,,0,0,60,60,71,1,stimuli/stim_20210919_power2amp/equal_lnn_AM2Hz_s55_43.m4a,,,,,,,,,,,,
,,,,,,,,,,,,41753,2021-09-29_22h06.55.705,judgeSpeechMusic_20210919_logNormShiftAmp_detection_fixFreq,2020.1.2,MacIntel,60,,,,,,,,,,,,,,,,,,1,11.8582,,0,0,61,61,63,1,stimuli/stim_20210919_power2amp/equal_lnn_AM2Hz_s55_31.m4a,,,,,,,,,,,,
,,,,,,,,,,,,41753,2021-09-29_22h06.55.705,judgeSpeechMusic_20210919_logNormShiftAmp_detection_fixFreq,2020.1.2,MacIntel,60,,,,,,,,,,,,,,,,,,1,11.7725,3,1,0,62,62,32,1,stimuli/stim_20210919_power2amp/equal_lnn_AM2Hz_s35_49.m4a,0.4942,,,,,,,,,,,
,,,,,,,,,,,,41753,2021-09-29_22h06.55.705,judgeSpeechMusic_20210919_logNormShiftAmp_detection_fixFreq,2020.1.2,MacIntel,60,,,,,,,,,,,,,,,,,,2,7.1252,,0,0,63,63,60,1,stimuli/stim_20210919_power2amp/equal_lnn_AM2Hz_s55_12.m4a,,,,,,,,,,,,
,,,,,,,,,,,,41753,2021-09-29_22h06.55.705,judgeSpeechMusic_20210919_logNormShiftAmp_detection_fixFreq,2020.1.2,MacIntel,60,,,,,,,,,,,,,,,,,,2,14.8377,,0,0,64,64,64,1,stimuli/stim_20210919_power2amp/equal_lnn_AM2Hz_s55_5.m4a,,,,,,,,,,,,
,,,,,,,,,,,,41753,2021-09-29_22h06.55.705,judgeSpeechMusic_20210919_logNormShiftAmp_detection_fixFreq,2020.1.2,MacIntel,60,,,,,,,,,,,,,,,,,,2,8.1902,,0,0,65,65,48,1,stimuli/stim_20210919_power2amp/equal_lnn_AM2Hz_s45_30.m4a,,,,,,,,,,,,
,,,,,,,,,,,,41753,2021-09-29_22h06.55.705,judgeSpeechMusic_20210919_logNormShiftAmp_detection_fixFreq,2020.1.2,MacIntel,60,,,,,,,,,,,,,,,,,,2,10.7371,,0,0,66,66,25,1,stimuli/stim_20210919_power2amp/equal_lnn_AM2Hz_s25_10.m4a,,,,,,,,,,,,
,,,,,,,,,,,,41753,2021-09-29_22h06.55.705,judgeSpeechMusic_20210919_logNormShiftAmp_detection_fixFreq,2020.1.2,MacIntel,60,,,,,,,,,,,,,,,,,,2,9.4006,,0,0,67,67,70,1,stimuli/stim_20210919_power2amp/equal_lnn_AM2Hz_s55_47.m4a,,,,,,,,,,,,
,,,,,,,,,,,,41753,2021-09-29_22h06.55.705,judgeSpeechMusic_20210919_logNormShiftAmp_detection_fixFreq,2020.1.2,MacIntel,60,,,,,,,,,,,,,,,,,,2,8.1426,,0,0,68,68,33,1,stimuli/stim_20210919_power2amp/equal_lnn_AM2Hz_s35_31.m4a,,,,,,,,,,,,
,,,,,,,,,,,,41753,2021-09-29_22h06.55.705,judgeSpeechMusic_20210919_logNormShiftAmp_detection_fixFreq,2020.1.2,MacIntel,60,,,,,,,,,,,,,,,,,,1,7.4065,,0,0,69,69,61,1,stimuli/stim_20210919_power2amp/equal_lnn_AM2Hz_s55_34.m4a,,,,,,,,,,,,
,,,,,,,,,,,,41753,2021-09-29_22h06.55.705,judgeSpeechMusic_20210919_logNormShiftAmp_detection_fixFreq,2020.1.2,MacIntel,60,,,,,,,,,,,,,,,,,,1,12.7865,,0,0,70,70,73,1,stimuli/stim_20210919_power2amp/equal_lnn_AM2Hz_s55_36.m4a,,,,,,,,,,,,
,,,,,,,,,,,,41753,2021-09-29_22h06.55.705,judgeSpeechMusic_20210919_logNormShiftAmp_detection_fixFreq,2020.1.2,MacIntel,60,,,,,,,,,,,,,,,,,,2,7.8899,,0,0,71,71,69,1,stimuli/stim_20210919_power2amp/equal_lnn_AM2Hz_s55_26.m4a,,,,,,,,,,,,
,,,,,,,,,,,,41753,2021-09-29_22h06.55.705,judgeSpeechMusic_20210919_logNormShiftAmp_detection_fixFreq,2020.1.2,MacIntel,60,,,,,,,,,,,,,,,,,,2,7.053,,0,0,72,72,34,1,stimuli/stim_20210919_power2amp/equal_lnn_AM2Hz_s35_25.m4a,,,,,,,,,,,,
,,,,,,,,,,,,41753,2021-09-29_22h06.55.705,judgeSpeechMusic_20210919_logNormShiftAmp_detection_fixFreq,2020.1.2,MacIntel,60,,,,,,,,,,,,,,,,,,2,6.7348,,0,0,73,73,59,1,stimuli/stim_20210919_power2amp/equal_lnn_AM2Hz_s45_48.m4a,,,,,,,,,,,,
,,,,,,,,,,,,41753,2021-09-29_22h06.55.705,judgeSpeechMusic_20210919_logNormShiftAmp_detection_fixFreq,2020.1.2,MacIntel,60,,,,,,,,,,,,,,,,,,2,9.5747,,0,0,74,74,35,1,stimuli/stim_20210919_power2amp/equal_lnn_AM2Hz_s35_8.m4a,,,,,,,,,,,,
,,,,,,,,,,,,41753,2021-09-29_22h06.55.705,judgeSpeechMusic_20210919_logNormShiftAmp_detection_fixFreq,2020.1.2,MacIntel,60,,,,,,,,,,,,,,,,,,,,,,,,,,,,,space,0.04,0,1,1,0,1,MUSIC,stimuli/MUSIC.jpg,,
,,,,,,,,,,,,41753,2021-09-29_22h06.55.705,judgeSpeechMusic_20210919_logNormShiftAmp_detection_fixFreq,2020.1.2,MacIntel,60,,,,,,0,0,0,0,3,1,stimuli/stim_20210919_power2amp/equal_lnn_AM_training2Hz_s50.m4a,,,,,,,,,,,,,,,,,,,,,,,,,,,
,,,,,,,,,,,,41753,2021-09-29_22h06.55.705,judgeSpeechMusic_20210919_logNormShiftAmp_detection_fixFreq,2020.1.2,MacIntel,60,,,,,,,,,,,,,,space,1.4626,space,0.7867,1,7.9014,,0,0,0,0,55,1,stimuli/stim_20210919_power2amp/equal_lnn_AM2Hz_s45_16.m4a,,,,,,,,,,,,
,,,,,,,,,,,,41753,2021-09-29_22h06.55.705,judgeSpeechMusic_20210919_logNormShiftAmp_detection_fixFreq,2020.1.2,MacIntel,60,,,,,,,,,,,,,,,,,,1,6.4227,,0,0,1,1,20,1,stimuli/stim_20210919_power2amp/equal_lnn_AM2Hz_s25_5.m4a,,,,,,,,,,,,
,,,,,,,,,,,,41753,2021-09-29_22h06.55.705,judgeSpeechMusic_20210919_logNormShiftAmp_detection_fixFreq,2020.1.2,MacIntel,60,,,,,,,,,,,,,,,,,,1,7.4023,,0,0,2,2,49,1,stimuli/stim_20210919_power2amp/equal_lnn_AM2Hz_s45_44.m4a,,,,,,,,,,,,
,,,,,,,,,,,,41753,2021-09-29_22h06.55.705,judgeSpeechMusic_20210919_logNormShiftAmp_detection_fixFreq,2020.1.2,MacIntel,60,,,,,,,,,,,,,,,,,,1,6.502,,0,0,3,3,18,1,stimuli/stim_20210919_power2amp/equal_lnn_AM2Hz_s25_6.m4a,,,,,,,,,,,,
,,,,,,,,,,,,41753,2021-09-29_22h06.55.705,judgeSpeechMusic_20210919_logNormShiftAmp_detection_fixFreq,2020.1.2,MacIntel,60,,,,,,,,,,,,,,,,,,1,7.9209,,0,0,4,4,38,1,stimuli/stim_20210919_power2amp/equal_lnn_AM2Hz_s35_11.m4a,,,,,,,,,,,,
,,,,,,,,,,,,41753,2021-09-29_22h06.55.705,judgeSpeechMusic_20210919_logNormShiftAmp_detection_fixFreq,2020.1.2,MacIntel,60,,,,,,,,,,,,,,,,,,2,7.9057,,0,0,5,5,23,1,stimuli/stim_20210919_power2amp/equal_lnn_AM2Hz_s25_1.m4a,,,,,,,,,,,,
,,,,,,,,,,,,41753,2021-09-29_22h06.55.705,judgeSpeechMusic_20210919_logNormShiftAmp_detection_fixFreq,2020.1.2,MacIntel,60,,,,,,,,,,,,,,,,,,2,6.5037,,0,0,6,6,73,1,stimuli/stim_20210919_power2amp/equal_lnn_AM2Hz_s55_36.m4a,,,,,,,,,,,,
,,,,,,,,,,,,41753,2021-09-29_22h06.55.705,judgeSpeechMusic_20210919_logNormShiftAmp_detection_fixFreq,2020.1.2,MacIntel,60,,,,,,,,,,,,,,,,,,2,8.3849,,0,0,7,7,24,1,stimuli/stim_20210919_power2amp/equal_lnn_AM2Hz_s25_18.m4a,,,,,,,,,,,,
,,,,,,,,,,,,41753,2021-09-29_22h06.55.705,judgeSpeechMusic_20210919_logNormShiftAmp_detection_fixFreq,2020.1.2,MacIntel,60,,,,,,,,,,,,,,,,,,2,6.5293,,0,0,8,8,43,1,stimuli/stim_20210919_power2amp/equal_lnn_AM2Hz_s35_3.m4a,,,,,,,,,,,,
,,,,,,,,,,,,41753,2021-09-29_22h06.55.705,judgeSpeechMusic_20210919_logNormShiftAmp_detection_fixFreq,2020.1.2,MacIntel,60,,,,,,,,,,,,,,,,,,2,8.5459,,0,0,9,9,37,1,stimuli/stim_20210919_power2amp/equal_lnn_AM2Hz_s35_12.m4a,,,,,,,,,,,,
,,,,,,,,,,,,41753,2021-09-29_22h06.55.705,judgeSpeechMusic_20210919_logNormShiftAmp_detection_fixFreq,2020.1.2,MacIntel,60,,,,,,,,,,,,,,,,,,2,10.0001,,0,0,10,10,2,1,stimuli/stim_20210919_power2amp/equal_lnn_AM2Hz_s15_10.m4a,,,,,,,,,,,,
,,,,,,,,,,,,41753,2021-09-29_22h06.55.705,judgeSpeechMusic_20210919_logNormShiftAmp_detection_fixFreq,2020.1.2,MacIntel,60,,,,,,,,,,,,,,,,,,2,8.8379,,0,0,11,11,51,1,stimuli/stim_20210919_power2amp/equal_lnn_AM2Hz_s45_11.m4a,,,,,,,,,,,,
,,,,,,,,,,,,41753,2021-09-29_22h06.55.705,judgeSpeechMusic_20210919_logNormShiftAmp_detection_fixFreq,2020.1.2,MacIntel,60,,,,,,,,,,,,,,,,,,2,7.986,,0,0,12,12,3,1,stimuli/stim_20210919_power2amp/equal_lnn_AM2Hz_s15_29.m4a,,,,,,,,,,,,
,,,,,,,,,,,,41753,2021-09-29_22h06.55.705,judgeSpeechMusic_20210919_logNormShiftAmp_detection_fixFreq,2020.1.2,MacIntel,60,,,,,,,,,,,,,,,,,,2,10.8043,,0,0,13,13,12,1,stimuli/stim_20210919_power2amp/equal_lnn_AM2Hz_s15_5.m4a,,,,,,,,,,,,
,,,,,,,,,,,,41753,2021-09-29_22h06.55.705,judgeSpeechMusic_20210919_logNormShiftAmp_detection_fixFreq,2020.1.2,MacIntel,60,,,,,,,,,,,,,,,,,,2,7.9537,,0,0,14,14,33,1,stimuli/stim_20210919_power2amp/equal_lnn_AM2Hz_s35_31.m4a,,,,,,,,,,,,
,,,,,,,,,,,,41753,2021-09-29_22h06.55.705,judgeSpeechMusic_20210919_logNormShiftAmp_detection_fixFreq,2020.1.2,MacIntel,60,,,,,,,,,,,,,,,,,,1,12.3141,,0,0,15,15,52,1,stimuli/stim_20210919_power2amp/equal_lnn_AM2Hz_s45_27.m4a,,,,,,,,,,,,
,,,,,,,,,,,,41753,2021-09-29_22h06.55.705,judgeSpeechMusic_20210919_logNormShiftAmp_detection_fixFreq,2020.1.2,MacIntel,60,,,,,,,,,,,,,,,,,,1,7.4173,,0,0,16,16,65,1,stimuli/stim_20210919_power2amp/equal_lnn_AM2Hz_s55_13.m4a,,,,,,,,,,,,
,,,,,,,,,,,,41753,2021-09-29_22h06.55.705,judgeSpeechMusic_20210919_logNormShiftAmp_detection_fixFreq,2020.1.2,MacIntel,60,,,,,,,,,,,,,,,,,,1,14.1576,,0,0,17,17,63,1,stimuli/stim_20210919_power2amp/equal_lnn_AM2Hz_s55_31.m4a,,,,,,,,,,,,
,,,,,,,,,,,,41753,2021-09-29_22h06.55.705,judgeSpeechMusic_20210919_logNormShiftAmp_detection_fixFreq,2020.1.2,MacIntel,60,,,,,,,,,,,,,,,,,,1,12.7538,,0,0,18,18,74,1,stimuli/stim_20210919_power2amp/equal_lnn_AM2Hz_s55_39.m4a,,,,,,,,,,,,
,,,,,,,,,,,,41753,2021-09-29_22h06.55.705,judgeSpeechMusic_20210919_logNormShiftAmp_detection_fixFreq,2020.1.2,MacIntel,60,,,,,,,,,,,,,,,,,,1,12.7527,4,1,0,19,19,61,1,stimuli/stim_20210919_power2amp/equal_lnn_AM2Hz_s55_34.m4a,0.4767,,,,,,,,,,,
,,,,,,,,,,,,41753,2021-09-29_22h06.55.705,judgeSpeechMusic_20210919_logNormShiftAmp_detection_fixFreq,2020.1.2,MacIntel,60,,,,,,,,,,,,,,,,,,1,11.9278,,0,0,20,20,56,1,stimuli/stim_20210919_power2amp/equal_lnn_AM2Hz_s45_31.m4a,,,,,,,,,,,,
,,,,,,,,,,,,41753,2021-09-29_22h06.55.705,judgeSpeechMusic_20210919_logNormShiftAmp_detection_fixFreq,2020.1.2,MacIntel,60,,,,,,,,,,,,,,,,,,1,8.0253,,0,0,21,21,31,1,stimuli/stim_20210919_power2amp/equal_lnn_AM2Hz_s35_24.m4a,,,,,,,,,,,,
,,,,,,,,,,,,41753,2021-09-29_22h06.55.705,judgeSpeechMusic_20210919_logNormShiftAmp_detection_fixFreq,2020.1.2,MacIntel,60,,,,,,,,,,,,,,,,,,1,8.3924,,0,0,22,22,19,1,stimuli/stim_20210919_power2amp/equal_lnn_AM2Hz_s25_34.m4a,,,,,,,,,,,,
,,,,,,,,,,,,41753,2021-09-29_22h06.55.705,judgeSpeechMusic_20210919_logNormShiftAmp_detection_fixFreq,2020.1.2,MacIntel,60,,,,,,,,,,,,,,,,,,1,10.7924,,0,0,23,23,67,1,stimuli/stim_20210919_power2amp/equal_lnn_AM2Hz_s55_20.m4a,,,,,,,,,,,,
,,,,,,,,,,,,41753,2021-09-29_22h06.55.705,judgeSpeechMusic_20210919_logNormShiftAmp_detection_fixFreq,2020.1.2,MacIntel,60,,,,,,,,,,,,,,,,,,1,9.5198,,0,0,24,24,29,1,stimuli/stim_20210919_power2amp/equal_lnn_AM2Hz_s25_22.m4a,,,,,,,,,,,,
,,,,,,,,,,,,41753,2021-09-29_22h06.55.705,judgeSpeechMusic_20210919_logNormShiftAmp_detection_fixFreq,2020.1.2,MacIntel,60,,,,,,,,,,,,,,,,,,1,8.4014,,0,0,25,25,6,1,stimuli/stim_20210919_power2amp/equal_lnn_AM2Hz_s15_47.m4a,,,,,,,,,,,,
,,,,,,,,,,,,41753,2021-09-29_22h06.55.705,judgeSpeechMusic_20210919_logNormShiftAmp_detection_fixFreq,2020.1.2,MacIntel,60,,,,,,,,,,,,,,,,,,1,7.8302,,0,0,26,26,9,1,stimuli/stim_20210919_power2amp/equal_lnn_AM2Hz_s15_20.m4a,,,,,,,,,,,,
,,,,,,,,,,,,41753,2021-09-29_22h06.55.705,judgeSpeechMusic_20210919_logNormShiftAmp_detection_fixFreq,2020.1.2,MacIntel,60,,,,,,,,,,,,,,,,,,1,9.3788,,0,0,27,27,53,1,stimuli/stim_20210919_power2amp/equal_lnn_AM2Hz_s45_20.m4a,,,,,,,,,,,,
,,,,,,,,,,,,41753,2021-09-29_22h06.55.705,judgeSpeechMusic_20210919_logNormShiftAmp_detection_fixFreq,2020.1.2,MacIntel,60,,,,,,,,,,,,,,,,,,1,8.6426,,0,0,28,28,17,1,stimuli/stim_20210919_power2amp/equal_lnn_AM2Hz_s25_15.m4a,,,,,,,,,,,,
,,,,,,,,,,,,41753,2021-09-29_22h06.55.705,judgeSpeechMusic_20210919_logNormShiftAmp_detection_fixFreq,2020.1.2,MacIntel,60,,,,,,,,,,,,,,,,,,1,8.3099,,0,0,29,29,41,1,stimuli/stim_20210919_power2amp/equal_lnn_AM2Hz_s35_14.m4a,,,,,,,,,,,,
,,,,,,,,,,,,41753,2021-09-29_22h06.55.705,judgeSpeechMusic_20210919_logNormShiftAmp_detection_fixFreq,2020.1.2,MacIntel,60,,,,,,,,,,,,,,,,,,2,7.8054,,0,0,30,30,45,1,stimuli/stim_20210919_power2amp/equal_lnn_AM2Hz_s45_49.m4a,,,,,,,,,,,,
,,,,,,,,,,,,41753,2021-09-29_22h06.55.705,judgeSpeechMusic_20210919_logNormShiftAmp_detection_fixFreq,2020.1.2,MacIntel,60,,,,,,,,,,,,,,,,,,2,6.59,,0,0,31,31,36,1,stimuli/stim_20210919_power2amp/equal_lnn_AM2Hz_s35_23.m4a,,,,,,,,,,,,
,,,,,,,,,,,,41753,2021-09-29_22h06.55.705,judgeSpeechMusic_20210919_logNormShiftAmp_detection_fixFreq,2020.1.2,MacIntel,60,,,,,,,,,,,,,,,,,,2,6.609,,0,0,32,32,28,1,stimuli/stim_20210919_power2amp/equal_lnn_AM2Hz_s25_50.m4a,,,,,,,,,,,,
,,,,,,,,,,,,41753,2021-09-29_22h06.55.705,judgeSpeechMusic_20210919_logNormShiftAmp_detection_fixFreq,2020.1.2,MacIntel,60,,,,,,,,,,,,,,,,,,2,7.1937,,0,0,33,33,46,1,stimuli/stim_20210919_power2amp/equal_lnn_AM2Hz_s45_33.m4a,,,,,,,,,,,,
,,,,,,,,,,,,41753,2021-09-29_22h06.55.705,judgeSpeechMusic_20210919_logNormShiftAmp_detection_fixFreq,2020.1.2,MacIntel,60,,,,,,,,,,,,,,,,,,2,13.3069,,0,0,34,34,8,1,stimuli/stim_20210919_power2amp/equal_lnn_AM2Hz_s15_42.m4a,,,,,,,,,,,,
,,,,,,,,,,,,41753,2021-09-29_22h06.55.705,judgeSpeechMusic_20210919_logNormShiftAmp_detection_fixFreq,2020.1.2,MacIntel,60,,,,,,,,,,,,,,,,,,2,7.8251,,0,0,35,35,62,1,stimuli/stim_20210919_power2amp/equal_lnn_AM2Hz_s55_9.m4a,,,,,,,,,,,,
,,,,,,,,,,,,41753,2021-09-29_22h06.55.705,judgeSpeechMusic_20210919_logNormShiftAmp_detection_fixFreq,2020.1.2,MacIntel,60,,,,,,,,,,,,,,,,,,2,7.8892,,0,0,36,36,0,1,stimuli/stim_20210919_power2amp/equal_lnn_AM2Hz_s15_7.m4a,,,,,,,,,,,,
,,,,,,,,,,,,41753,2021-09-29_22h06.55.705,judgeSpeechMusic_20210919_logNormShiftAmp_detection_fixFreq,2020.1.2,MacIntel,60,,,,,,,,,,,,,,,,,,1,7.5784,,0,0,37,37,15,1,stimuli/stim_20210919_power2amp/equal_lnn_AM2Hz_s25_17.m4a,,,,,,,,,,,,
,,,,,,,,,,,,41753,2021-09-29_22h06.55.705,judgeSpeechMusic_20210919_logNormShiftAmp_detection_fixFreq,2020.1.2,MacIntel,60,,,,,,,,,,,,,,,,,,1,9.9768,,0,0,38,38,50,1,stimuli/stim_20210919_power2amp/equal_lnn_AM2Hz_s45_17.m4a,,,,,,,,,,,,
,,,,,,,,,,,,41753,2021-09-29_22h06.55.705,judgeSpeechMusic_20210919_logNormShiftAmp_detection_fixFreq,2020.1.2,MacIntel,60,,,,,,,,,,,,,,,,,,1,7.7755,,0,0,39,39,60,1,stimuli/stim_20210919_power2amp/equal_lnn_AM2Hz_s55_12.m4a,,,,,,,,,,,,
,,,,,,,,,,,,41753,2021-09-29_22h06.55.705,judgeSpeechMusic_20210919_logNormShiftAmp_detection_fixFreq,2020.1.2,MacIntel,60,,,,,,,,,,,,,,,,,,1,7.5684,,0,0,40,40,48,1,stimuli/stim_20210919_power2amp/equal_lnn_AM2Hz_s45_30.m4a,,,,,,,,,,,,
,,,,,,,,,,,,41753,2021-09-29_22h06.55.705,judgeSpeechMusic_20210919_logNormShiftAmp_detection_fixFreq,2020.1.2,MacIntel,60,,,,,,,,,,,,,,,,,,1,6.9296,3,1,0,41,41,44,1,stimuli/stim_20210919_power2amp/equal_lnn_AM2Hz_s35_33.m4a,1.0753,,,,,,,,,,,
,,,,,,,,,,,,41753,2021-09-29_22h06.55.705,judgeSpeechMusic_20210919_logNormShiftAmp_detection_fixFreq,2020.1.2,MacIntel,60,,,,,,,,,,,,,,,,,,2,6.5182,,0,0,42,42,1,1,stimuli/stim_20210919_power2amp/equal_lnn_AM2Hz_s15_35.m4a,,,,,,,,,,,,
,,,,,,,,,,,,41753,2021-09-29_22h06.55.705,judgeSpeechMusic_20210919_logNormShiftAmp_detection_fixFreq,2020.1.2,MacIntel,60,,,,,,,,,,,,,,,,,,1,7.2212,,0,0,43,43,69,1,stimuli/stim_20210919_power2amp/equal_lnn_AM2Hz_s55_26.m4a,,,,,,,,,,,,
,,,,,,,,,,,,41753,2021-09-29_22h06.55.705,judgeSpeechMusic_20210919_logNormShiftAmp_detection_fixFreq,2020.1.2,MacIntel,60,,,,,,,,,,,,,,,,,,2,7.5361,,0,0,44,44,64,1,stimuli/stim_20210919_power2amp/equal_lnn_AM2Hz_s55_5.m4a,,,,,,,,,,,,
,,,,,,,,,,,,41753,2021-09-29_22h06.55.705,judgeSpeechMusic_20210919_logNormShiftAmp_detection_fixFreq,2020.1.2,MacIntel,60,,,,,,,,,,,,,,,,,,2,8.2457,,0,0,45,45,25,1,stimuli/stim_20210919_power2amp/equal_lnn_AM2Hz_s25_10.m4a,,,,,,,,,,,,
,,,,,,,,,,,,41753,2021-09-29_22h06.55.705,judgeSpeechMusic_20210919_logNormShiftAmp_detection_fixFreq,2020.1.2,MacIntel,60,,,,,,,,,,,,,,,,,,2,6.186,,0,0,46,46,68,1,stimuli/stim_20210919_power2amp/equal_lnn_AM2Hz_s55_22.m4a,,,,,,,,,,,,
,,,,,,,,,,,,41753,2021-09-29_22h06.55.705,judgeSpeechMusic_20210919_logNormShiftAmp_detection_fixFreq,2020.1.2,MacIntel,60,,,,,,,,,,,,,,,,,,2,7.5363,,0,0,47,47,54,1,stimuli/stim_20210919_power2amp/equal_lnn_AM2Hz_s45_28.m4a,,,,,,,,,,,,
,,,,,,,,,,,,41753,2021-09-29_22h06.55.705,judgeSpeechMusic_20210919_logNormShiftAmp_detection_fixFreq,2020.1.2,MacIntel,60,,,,,,,,,,,,,,,,,,2,6.2799,,0,0,48,48,35,1,stimuli/stim_20210919_power2amp/equal_lnn_AM2Hz_s35_8.m4a,,,,,,,,,,,,
,,,,,,,,,,,,41753,2021-09-29_22h06.55.705,judgeSpeechMusic_20210919_logNormShiftAmp_detection_fixFreq,2020.1.2,MacIntel,60,,,,,,,,,,,,,,,,,,2,6.3847,,0,0,49,49,13,1,stimuli/stim_20210919_power2amp/equal_lnn_AM2Hz_s15_1.m4a,,,,,,,,,,,,
,,,,,,,,,,,,41753,2021-09-29_22h06.55.705,judgeSpeechMusic_20210919_logNormShiftAmp_detection_fixFreq,2020.1.2,MacIntel,60,,,,,,,,,,,,,,,,,,2,7.1254,,0,0,50,50,59,1,stimuli/stim_20210919_power2amp/equal_lnn_AM2Hz_s45_48.m4a,,,,,,,,,,,,
,,,,,,,,,,,,41753,2021-09-29_22h06.55.705,judgeSpeechMusic_20210919_logNormShiftAmp_detection_fixFreq,2020.1.2,MacIntel,60,,,,,,,,,,,,,,,,,,2,17.3542,,0,0,51,51,32,1,stimuli/stim_20210919_power2amp/equal_lnn_AM2Hz_s35_49.m4a,,,,,,,,,,,,
,,,,,,,,,,,,41753,2021-09-29_22h06.55.705,judgeSpeechMusic_20210919_logNormShiftAmp_detection_fixFreq,2020.1.2,MacIntel,60,,,,,,,,,,,,,,,,,,1,9.6738,,0,0,52,52,57,1,stimuli/stim_20210919_power2amp/equal_lnn_AM2Hz_s45_18.m4a,,,,,,,,,,,,
,,,,,,,,,,,,41753,2021-09-29_22h06.55.705,judgeSpeechMusic_20210919_logNormShiftAmp_detection_fixFreq,2020.1.2,MacIntel,60,,,,,,,,,,,,,,,,,,1,15.7037,,0,0,53,53,27,1,stimuli/stim_20210919_power2amp/equal_lnn_AM2Hz_s25_20.m4a,,,,,,,,,,,,
,,,,,,,,,,,,41753,2021-09-29_22h06.55.705,judgeSpeechMusic_20210919_logNormShiftAmp_detection_fixFreq,2020.1.2,MacIntel,60,,,,,,,,,,,,,,,,,,1,7.7043,,0,0,54,54,40,1,stimuli/stim_20210919_power2amp/equal_lnn_AM2Hz_s35_42.m4a,,,,,,,,,,,,
,,,,,,,,,,,,41753,2021-09-29_22h06.55.705,judgeSpeechMusic_20210919_logNormShiftAmp_detection_fixFreq,2020.1.2,MacIntel,60,,,,,,,,,,,,,,,,,,1,16.612,,0,0,55,55,42,1,stimuli/stim_20210919_power2amp/equal_lnn_AM2Hz_s35_21.m4a,,,,,,,,,,,,
,,,,,,,,,,,,41753,2021-09-29_22h06.55.705,judgeSpeechMusic_20210919_logNormShiftAmp_detection_fixFreq,2020.1.2,MacIntel,60,,,,,,,,,,,,,,,,,,2,7.2425,,0,0,56,56,70,1,stimuli/stim_20210919_power2amp/equal_lnn_AM2Hz_s55_47.m4a,,,,,,,,,,,,
,,,,,,,,,,,,41753,2021-09-29_22h06.55.705,judgeSpeechMusic_20210919_logNormShiftAmp_detection_fixFreq,2020.1.2,MacIntel,60,,,,,,,,,,,,,,,,,,2,6.2427,,0,0,57,57,66,1,stimuli/stim_20210919_power2amp/equal_lnn_AM2Hz_s55_45.m4a,,,,,,,,,,,,
,,,,,,,,,,,,41753,2021-09-29_22h06.55.705,judgeSpeechMusic_20210919_logNormShiftAmp_detection_fixFreq,2020.1.2,MacIntel,60,,,,,,,,,,,,,,,,,,2,7.0711,,0,0,58,58,30,1,stimuli/stim_20210919_power2amp/equal_lnn_AM2Hz_s35_48.m4a,,,,,,,,,,,,
,,,,,,,,,,,,41753,2021-09-29_22h06.55.705,judgeSpeechMusic_20210919_logNormShiftAmp_detection_fixFreq,2020.1.2,MacIntel,60,,,,,,,,,,,,,,,,,,2,5.4039,,0,0,59,59,71,1,stimuli/stim_20210919_power2amp/equal_lnn_AM2Hz_s55_43.m4a,,,,,,,,,,,,
,,,,,,,,,,,,41753,2021-09-29_22h06.55.705,judgeSpeechMusic_20210919_logNormShiftAmp_detection_fixFreq,2020.1.2,MacIntel,60,,,,,,,,,,,,,,,,,,2,8.8352,,0,0,60,60,58,1,stimuli/stim_20210919_power2amp/equal_lnn_AM2Hz_s45_34.m4a,,,,,,,,,,,,
,,,,,,,,,,,,41753,2021-09-29_22h06.55.705,judgeSpeechMusic_20210919_logNormShiftAmp_detection_fixFreq,2020.1.2,MacIntel,60,,,,,,,,,,,,,,,,,,1,11.0176,,0,0,61,61,7,1,stimuli/stim_20210919_power2amp/equal_lnn_AM2Hz_s15_36.m4a,,,,,,,,,,,,
,,,,,,,,,,,,41753,2021-09-29_22h06.55.705,judgeSpeechMusic_20210919_logNormShiftAmp_detection_fixFreq,2020.1.2,MacIntel,60,,,,,,,,,,,,,,,,,,1,8.1424,1,1,0,62,62,5,1,stimuli/stim_20210919_power2amp/equal_lnn_AM2Hz_s15_18.m4a,14.6418,,,,,,,,,,,
,,,,,,,,,,,,41753,2021-09-29_22h06.55.705,judgeSpeechMusic_20210919_logNormShiftAmp_detection_fixFreq,2020.1.2,MacIntel,60,,,,,,,,,,,,,,,,,,2,7.7078,,0,0,63,63,34,1,stimuli/stim_20210919_power2amp/equal_lnn_AM2Hz_s35_25.m4a,,,,,,,,,,,,
,,,,,,,,,,,,41753,2021-09-29_22h06.55.705,judgeSpeechMusic_20210919_logNormShiftAmp_detection_fixFreq,2020.1.2,MacIntel,60,,,,,,,,,,,,,,,,,,2,6.5196,,0,0,64,64,22,1,stimuli/stim_20210919_power2amp/equal_lnn_AM2Hz_s25_3.m4a,,,,,,,,,,,,
,,,,,,,,,,,,41753,2021-09-29_22h06.55.705,judgeSpeechMusic_20210919_logNormShiftAmp_detection_fixFreq,2020.1.2,MacIntel,60,,,,,,,,,,,,,,,,,,2,8.3188,,0,0,65,65,39,1,stimuli/stim_20210919_power2amp/equal_lnn_AM2Hz_s35_47.m4a,,,,,,,,,,,,
,,,,,,,,,,,,41753,2021-09-29_22h06.55.705,judgeSpeechMusic_20210919_logNormShiftAmp_detection_fixFreq,2020.1.2,MacIntel,60,,,,,,,,,,,,,,,,,,2,6.3522,,0,0,66,66,10,1,stimuli/stim_20210919_power2amp/equal_lnn_AM2Hz_s15_39.m4a,,,,,,,,,,,,
,,,,,,,,,,,,41753,2021-09-29_22h06.55.705,judgeSpeechMusic_20210919_logNormShiftAmp_detection_fixFreq,2020.1.2,MacIntel,60,,,,,,,,,,,,,,,,,,2,8.5704,,0,0,67,67,26,1,stimuli/stim_20210919_power2amp/equal_lnn_AM2Hz_s25_47.m4a,,,,,,,,,,,,
,,,,,,,,,,,,41753,2021-09-29_22h06.55.705,judgeSpeechMusic_20210919_logNormShiftAmp_detection_fixFreq,2020.1.2,MacIntel,60,,,,,,,,,,,,,,,,,,1,7.258,,0,0,68,68,47,1,stimuli/stim_20210919_power2amp/equal_lnn_AM2Hz_s45_21.m4a,,,,,,,,,,,,
,,,,,,,,,,,,41753,2021-09-29_22h06.55.705,judgeSpeechMusic_20210919_logNormShiftAmp_detection_fixFreq,2020.1.2,MacIntel,60,,,,,,,,,,,,,,,,,,1,6.3905,,0,0,69,69,21,1,stimuli/stim_20210919_power2amp/equal_lnn_AM2Hz_s25_46.m4a,,,,,,,,,,,,
,,,,,,,,,,,,41753,2021-09-29_22h06.55.705,judgeSpeechMusic_20210919_logNormShiftAmp_detection_fixFreq,2020.1.2,MacIntel,60,,,,,,,,,,,,,,,,,,2,7.2905,,0,0,70,70,16,1,stimuli/stim_20210919_power2amp/equal_lnn_AM2Hz_s25_14.m4a,,,,,,,,,,,,
,,,,,,,,,,,,41753,2021-09-29_22h06.55.705,judgeSpeechMusic_20210919_logNormShiftAmp_detection_fixFreq,2020.1.2,MacIntel,60,,,,,,,,,,,,,,,,,,2,6.3042,,0,0,71,71,11,1,stimuli/stim_20210919_power2amp/equal_lnn_AM2Hz_s15_44.m4a,,,,,,,,,,,,
,,,,,,,,,,,,41753,2021-09-29_22h06.55.705,judgeSpeechMusic_20210919_logNormShiftAmp_detection_fixFreq,2020.1.2,MacIntel,60,,,,,,,,,,,,,,,,,,2,6.174,,0,0,72,72,14,1,stimuli/stim_20210919_power2amp/equal_lnn_AM2Hz_s15_9.m4a,,,,,,,,,,,,
,,,,,,,,,,,,41753,2021-09-29_22h06.55.705,judgeSpeechMusic_20210919_logNormShiftAmp_detection_fixFreq,2020.1.2,MacIntel,60,,,,,,,,,,,,,,,,,,2,7.3358,,0,0,73,73,4,1,stimuli/stim_20210919_power2amp/equal_lnn_AM2Hz_s15_27.m4a,,,,,,,,,,,,
,,,,,,,,,,,,41753,2021-09-29_22h06.55.705,judgeSpeechMusic_20210919_logNormShiftAmp_detection_fixFreq,2020.1.2,MacIntel,60,,,,,,,,,,,,,,,,,,2,6.34,,0,0,74,74,72,1,stimuli/stim_20210919_power2amp/equal_lnn_AM2Hz_s55_7.m4a,,,,,,,,,,,,
,,,,,,,,,,,,41753,2021-09-29_22h06.55.705,judgeSpeechMusic_20210919_logNormShiftAmp_detection_fixFreq,2020.1.2,MacIntel,60,,,,,,,,,,,,,,,,,,,,,,,,,,,,,space,0.9889,1,0,2,0,1,MUSIC,stimuli/MUSIC.jpg,,
,,,,,,,,,,,,41753,2021-09-29_22h06.55.705,judgeSpeechMusic_20210919_logNormShiftAmp_detection_fixFreq,2020.1.2,MacIntel,60,,,,,,0,0,0,0,3,1,stimuli/stim_20210919_power2amp/equal_lnn_AM_training2Hz_s50.m4a,,,,,,,,,,,,,,,,,,,,,,,,,,,
,,,,,,,,,,,,41753,2021-09-29_22h06.55.705,judgeSpeechMusic_20210919_logNormShiftAmp_detection_fixFreq,2020.1.2,MacIntel,60,,,,,,,,,,,,,,space,0.9279,space,1.0354,1,7.1943,,0,0,0,0,68,1,stimuli/stim_20210919_power2amp/equal_lnn_AM2Hz_s55_22.m4a,,,,,,,,,,,,
,,,,,,,,,,,,41753,2021-09-29_22h06.55.705,judgeSpeechMusic_20210919_logNormShiftAmp_detection_fixFreq,2020.1.2,MacIntel,60,,,,,,,,,,,,,,,,,,1,7.173,,0,0,1,1,55,1,stimuli/stim_20210919_power2amp/equal_lnn_AM2Hz_s45_16.m4a,,,,,,,,,,,,
,,,,,,,,,,,,41753,2021-09-29_22h06.55.705,judgeSpeechMusic_20210919_logNormShiftAmp_detection_fixFreq,2020.1.2,MacIntel,60,,,,,,,,,,,,,,,,,,1,7.058,,0,0,2,2,1,1,stimuli/stim_20210919_power2amp/equal_lnn_AM2Hz_s15_35.m4a,,,,,,,,,,,,
,,,,,,,,,,,,41753,2021-09-29_22h06.55.705,judgeSpeechMusic_20210919_logNormShiftAmp_detection_fixFreq,2020.1.2,MacIntel,60,,,,,,,,,,,,,,,,,,2,8.0197,,0,0,3,3,64,1,stimuli/stim_20210919_power2amp/equal_lnn_AM2Hz_s55_5.m4a,,,,,,,,,,,,
,,,,,,,,,,,,41753,2021-09-29_22h06.55.705,judgeSpeechMusic_20210919_logNormShiftAmp_detection_fixFreq,2020.1.2,MacIntel,60,,,,,,,,,,,,,,,,,,2,7.1972,,0,0,4,4,65,1,stimuli/stim_20210919_power2amp/equal_lnn_AM2Hz_s55_13.m4a,,,,,,,,,,,,
,,,,,,,,,,,,41753,2021-09-29_22h06.55.705,judgeSpeechMusic_20210919_logNormShiftAmp_detection_fixFreq,2020.1.2,MacIntel,60,,,,,,,,,,,,,,,,,,2,6.2949,,0,0,5,5,57,1,stimuli/stim_20210919_power2amp/equal_lnn_AM2Hz_s45_18.m4a,,,,,,,,,,,,
,,,,,,,,,,,,41753,2021-09-29_22h06.55.705,judgeSpeechMusic_20210919_logNormShiftAmp_detection_fixFreq,2020.1.2,MacIntel,60,,,,,,,,,,,,,,,,,,2,6.3708,,0,0,6,6,2,1,stimuli/stim_20210919_power2amp/equal_lnn_AM2Hz_s15_10.m4a,,,,,,,,,,,,
,,,,,,,,,,,,41753,2021-09-29_22h06.55.705,judgeSpeechMusic_20210919_logNormShiftAmp_detection_fixFreq,2020.1.2,MacIntel,60,,,,,,,,,,,,,,,,,,1,7.2681,,0,0,7,7,66,1,stimuli/stim_20210919_power2amp/equal_lnn_AM2Hz_s55_45.m4a,,,,,,,,,,,,
,,,,,,,,,,,,41753,2021-09-29_22h06.55.705,judgeSpeechMusic_20210919_logNormShiftAmp_detection_fixFreq,2020.1.2,MacIntel,60,,,,,,,,,,,,,,,,,,1,6.5372,,0,0,8,8,17,1,stimuli/stim_20210919_power2amp/equal_lnn_AM2Hz_s25_15.m4a,,,,,,,,,,,,
,,,,,,,,,,,,41753,2021-09-29_22h06.55.705,judgeSpeechMusic_20210919_logNormShiftAmp_detection_fixFreq,2020.1.2,MacIntel,60,,,,,,,,,,,,,,,,,,1,9.0911,,0,0,9,9,11,1,stimuli/stim_20210919_power2amp/equal_lnn_AM2Hz_s15_44.m4a,,,,,,,,,,,,
,,,,,,,,,,,,41753,2021-09-29_22h06.55.705,judgeSpeechMusic_20210919_logNormShiftAmp_detection_fixFreq,2020.1.2,MacIntel,60,,,,,,,,,,,,,,,,,,1,8.5438,,0,0,10,10,19,1,stimuli/stim_20210919_power2amp/equal_lnn_AM2Hz_s25_34.m4a,,,,,,,,,,,,
,,,,,,,,,,,,41753,2021-09-29_22h06.55.705,judgeSpeechMusic_20210919_logNormShiftAmp_detection_fixFreq,2020.1.2,MacIntel,60,,,,,,,,,,,,,,,,,,2,7.9111,,0,0,11,11,23,1,stimuli/stim_20210919_power2amp/equal_lnn_AM2Hz_s25_1.m4a,,,,,,,,,,,,
,,,,,,,,,,,,41753,2021-09-29_22h06.55.705,judgeSpeechMusic_20210919_logNormShiftAmp_detection_fixFreq,2020.1.2,MacIntel,60,,,,,,,,,,,,,,,,,,2,6.5036,,0,0,12,12,53,1,stimuli/stim_20210919_power2amp/equal_lnn_AM2Hz_s45_20.m4a,,,,,,,,,,,,
,,,,,,,,,,,,41753,2021-09-29_22h06.55.705,judgeSpeechMusic_20210919_logNormShiftAmp_detection_fixFreq,2020.1.2,MacIntel,60,,,,,,,,,,,,,,,,,,2,6.9083,,0,0,13,13,22,1,stimuli/stim_20210919_power2amp/equal_lnn_AM2Hz_s25_3.m4a,,,,,,,,,,,,
,,,,,,,,,,,,41753,2021-09-29_22h06.55.705,judgeSpeechMusic_20210919_logNormShiftAmp_detection_fixFreq,2020.1.2,MacIntel,60,,,,,,,,,,,,,,,,,,2,7.0436,,0,0,14,14,46,1,stimuli/stim_20210919_power2amp/equal_lnn_AM2Hz_s45_33.m4a,,,,,,,,,,,,
,,,,,,,,,,,,41753,2021-09-29_22h06.55.705,judgeSpeechMusic_20210919_logNormShiftAmp_detection_fixFreq,2020.1.2,MacIntel,60,,,,,,,,,,,,,,,,,,1,7.4544,,0,0,15,15,21,1,stimuli/stim_20210919_power2amp/equal_lnn_AM2Hz_s25_46.m4a,,,,,,,,,,,,
,,,,,,,,,,,,41753,2021-09-29_22h06.55.705,judgeSpeechMusic_20210919_logNormShiftAmp_detection_fixFreq,2020.1.2,MacIntel,60,,,,,,,,,,,,,,,,,,1,6.5379,,0,0,16,16,33,1,stimuli/stim_20210919_power2amp/equal_lnn_AM2Hz_s35_31.m4a,,,,,,,,,,,,
,,,,,,,,,,,,41753,2021-09-29_22h06.55.705,judgeSpeechMusic_20210919_logNormShiftAmp_detection_fixFreq,2020.1.2,MacIntel,60,,,,,,,,,,,,,,,,,,1,6.8811,,0,0,17,17,34,1,stimuli/stim_20210919_power2amp/equal_lnn_AM2Hz_s35_25.m4a,,,,,,,,,,,,
,,,,,,,,,,,,41753,2021-09-29_22h06.55.705,judgeSpeechMusic_20210919_logNormShiftAmp_detection_fixFreq,2020.1.2,MacIntel,60,,,,,,,,,,,,,,,,,,1,6.4626,,0,0,18,18,26,1,stimuli/stim_20210919_power2amp/equal_lnn_AM2Hz_s25_47.m4a,,,,,,,,,,,,
,,,,,,,,,,,,41753,2021-09-29_22h06.55.705,judgeSpeechMusic_20210919_logNormShiftAmp_detection_fixFreq,2020.1.2,MacIntel,60,,,,,,,,,,,,,,,,,,1,7.1013,4,1,0,19,19,38,1,stimuli/stim_20210919_power2amp/equal_lnn_AM2Hz_s35_11.m4a,1.32,,,,,,,,,,,
,,,,,,,,,,,,41753,2021-09-29_22h06.55.705,judgeSpeechMusic_20210919_logNormShiftAmp_detection_fixFreq,2020.1.2,MacIntel,60,,,,,,,,,,,,,,,,,,2,7.3681,,0,0,20,20,40,1,stimuli/stim_20210919_power2amp/equal_lnn_AM2Hz_s35_42.m4a,,,,,,,,,,,,
,,,,,,,,,,,,41753,2021-09-29_22h06.55.705,judgeSpeechMusic_20210919_logNormShiftAmp_detection_fixFreq,2020.1.2,MacIntel,60,,,,,,,,,,,,,,,,,,2,6.156,,0,0,21,21,42,1,stimuli/stim_20210919_power2amp/equal_lnn_AM2Hz_s35_21.m4a,,,,,,,,,,,,
,,,,,,,,,,,,41753,2021-09-29_22h06.55.705,judgeSpeechMusic_20210919_logNormShiftAmp_detection_fixFreq,2020.1.2,MacIntel,60,,,,,,,,,,,,,,,,,,2,6.3182,,0,0,22,22,62,1,stimuli/stim_20210919_power2amp/equal_lnn_AM2Hz_s55_9.m4a,,,,,,,,,,,,
,,,,,,,,,,,,41753,2021-09-29_22h06.55.705,judgeSpeechMusic_20210919_logNormShiftAmp_detection_fixFreq,2020.1.2,MacIntel,60,,,,,,,,,,,,,,,,,,2,6.2922,,0,0,23,23,12,1,stimuli/stim_20210919_power2amp/equal_lnn_AM2Hz_s15_5.m4a,,,,,,,,,,,,
,,,,,,,,,,,,41753,2021-09-29_22h06.55.705,judgeSpeechMusic_20210919_logNormShiftAmp_detection_fixFreq,2020.1.2,MacIntel,60,,,,,,,,,,,,,,,,,,2,6.646,,0,0,24,24,50,1,stimuli/stim_20210919_power2amp/equal_lnn_AM2Hz_s45_17.m4a,,,,,,,,,,,,
,,,,,,,,,,,,41753,2021-09-29_22h06.55.705,judgeSpeechMusic_20210919_logNormShiftAmp_detection_fixFreq,2020.1.2,MacIntel,60,,,,,,,,,,,,,,,,,,2,9.9266,,0,0,25,25,44,1,stimuli/stim_20210919_power2amp/equal_lnn_AM2Hz_s35_33.m4a,,,,,,,,,,,,
,,,,,,,,,,,,41753,2021-09-29_22h06.55.705,judgeSpeechMusic_20210919_logNormShiftAmp_detection_fixFreq,2020.1.2,MacIntel,60,,,,,,,,,,,,,,,,,,2,7.0765,,0,0,26,26,71,1,stimuli/stim_20210919_power2amp/equal_lnn_AM2Hz_s55_43.m4a,,,,,,,,,,,,
,,,,,,,,,,,,41753,2021-09-29_22h06.55.705,judgeSpeechMusic_20210919_logNormShiftAmp_detection_fixFreq,2020.1.2,MacIntel,60,,,,,,,,,,,,,,,,,,1,7.8346,,0,0,27,27,60,1,stimuli/stim_20210919_power2amp/equal_lnn_AM2Hz_s55_12.m4a,,,,,,,,,,,,
,,,,,,,,,,,,41753,2021-09-29_22h06.55.705,judgeSpeechMusic_20210919_logNormShiftAmp_detection_fixFreq,2020.1.2,MacIntel,60,,,,,,,,,,,,,,,,,,2,9.4458,,0,0,28,28,10,1,stimuli/stim_20210919_power2amp/equal_lnn_AM2Hz_s15_39.m4a,,,,,,,,,,,,
,,,,,,,,,,,,41753,2021-09-29_22h06.55.705,judgeSpeechMusic_20210919_logNormShiftAmp_detection_fixFreq,2020.1.2,MacIntel,60,,,,,,,,,,,,,,,,,,1,7.0174,,0,0,29,29,5,1,stimuli/stim_20210919_power2amp/equal_lnn_AM2Hz_s15_18.m4a,,,,,,,,,,,,
,,,,,,,,,,,,41753,2021-09-29_22h06.55.705,judgeSpeechMusic_20210919_logNormShiftAmp_detection_fixFreq,2020.1.2,MacIntel,60,,,,,,,,,,,,,,,,,,1,12.3293,,0,0,30,30,24,1,stimuli/stim_20210919_power2amp/equal_lnn_AM2Hz_s25_18.m4a,,,,,,,,,,,,
,,,,,,,,,,,,41753,2021-09-29_22h06.55.705,judgeSpeechMusic_20210919_logNormShiftAmp_detection_fixFreq,2020.1.2,MacIntel,60,,,,,,,,,,,,,,,,,,1,6.644,,0,0,31,31,51,1,stimuli/stim_20210919_power2amp/equal_lnn_AM2Hz_s45_11.m4a,,,,,,,,,,,,
,,,,,,,,,,,,41753,2021-09-29_22h06.55.705,judgeSpeechMusic_20210919_logNormShiftAmp_detection_fixFreq,2020.1.2,MacIntel,60,,,,,,,,,,,,,,,,,,1,6.9205,,0,0,32,32,39,1,stimuli/stim_20210919_power2amp/equal_lnn_AM2Hz_s35_47.m4a,,,,,,,,,,,,
,,,,,,,,,,,,41753,2021-09-29_22h06.55.705,judgeSpeechMusic_20210919_logNormShiftAmp_detection_fixFreq,2020.1.2,MacIntel,60,,,,,,,,,,,,,,,,,,1,6.8153,,0,0,33,33,13,1,stimuli/stim_20210919_power2amp/equal_lnn_AM2Hz_s15_1.m4a,,,,,,,,,,,,
,,,,,,,,,,,,41753,2021-09-29_22h06.55.705,judgeSpeechMusic_20210919_logNormShiftAmp_detection_fixFreq,2020.1.2,MacIntel,60,,,,,,,,,,,,,,,,,,1,8.888,,0,0,34,34,58,1,stimuli/stim_20210919_power2amp/equal_lnn_AM2Hz_s45_34.m4a,,,,,,,,,,,,
,,,,,,,,,,,,41753,2021-09-29_22h06.55.705,judgeSpeechMusic_20210919_logNormShiftAmp_detection_fixFreq,2020.1.2,MacIntel,60,,,,,,,,,,,,,,,,,,1,6.5204,,0,0,35,35,32,1,stimuli/stim_20210919_power2amp/equal_lnn_AM2Hz_s35_49.m4a,,,,,,,,,,,,
,,,,,,,,,,,,41753,2021-09-29_22h06.55.705,judgeSpeechMusic_20210919_logNormShiftAmp_detection_fixFreq,2020.1.2,MacIntel,60,,,,,,,,,,,,,,,,,,2,9.0509,,0,0,36,36,43,1,stimuli/stim_20210919_power2amp/equal_lnn_AM2Hz_s35_3.m4a,,,,,,,,,,,,
,,,,,,,,,,,,41753,2021-09-29_22h06.55.705,judgeSpeechMusic_20210919_logNormShiftAmp_detection_fixFreq,2020.1.2,MacIntel,60,,,,,,,,,,,,,,,,,,2,8.3873,,0,0,37,37,14,1,stimuli/stim_20210919_power2amp/equal_lnn_AM2Hz_s15_9.m4a,,,,,,,,,,,,
,,,,,,,,,,,,41753,2021-09-29_22h06.55.705,judgeSpeechMusic_20210919_logNormShiftAmp_detection_fixFreq,2020.1.2,MacIntel,60,,,,,,,,,,,,,,,,,,2,7.336,,0,0,38,38,3,1,stimuli/stim_20210919_power2amp/equal_lnn_AM2Hz_s15_29.m4a,,,,,,,,,,,,
,,,,,,,,,,,,41753,2021-09-29_22h06.55.705,judgeSpeechMusic_20210919_logNormShiftAmp_detection_fixFreq,2020.1.2,MacIntel,60,,,,,,,,,,,,,,,,,,2,6.7364,,0,0,39,39,9,1,stimuli/stim_20210919_power2amp/equal_lnn_AM2Hz_s15_20.m4a,,,,,,,,,,,,
,,,,,,,,,,,,41753,2021-09-29_22h06.55.705,judgeSpeechMusic_20210919_logNormShiftAmp_detection_fixFreq,2020.1.2,MacIntel,60,,,,,,,,,,,,,,,,,,2,8.2193,,0,0,40,40,36,1,stimuli/stim_20210919_power2amp/equal_lnn_AM2Hz_s35_23.m4a,,,,,,,,,,,,
,,,,,,,,,,,,41753,2021-09-29_22h06.55.705,judgeSpeechMusic_20210919_logNormShiftAmp_detection_fixFreq,2020.1.2,MacIntel,60,,,,,,,,,,,,,,,,,,2,6.338,4,1,0,41,41,54,1,stimuli/stim_20210919_power2amp/equal_lnn_AM2Hz_s45_28.m4a,0.2376,,,,,,,,,,,
,,,,,,,,,,,,41753,2021-09-29_22h06.55.705,judgeSpeechMusic_20210919_logNormShiftAmp_detection_fixFreq,2020.1.2,MacIntel,60,,,,,,,,,,,,,,,,,,2,6.0863,,0,0,42,42,59,1,stimuli/stim_20210919_power2amp/equal_lnn_AM2Hz_s45_48.m4a,,,,,,,,,,,,
,,,,,,,,,,,,41753,2021-09-29_22h06.55.705,judgeSpeechMusic_20210919_logNormShiftAmp_detection_fixFreq,2020.1.2,MacIntel,60,,,,,,,,,,,,,,,,,,2,6.0416,,0,0,43,43,72,1,stimuli/stim_20210919_power2amp/equal_lnn_AM2Hz_s55_7.m4a,,,,,,,,,,,,
,,,,,,,,,,,,41753,2021-09-29_22h06.55.705,judgeSpeechMusic_20210919_logNormShiftAmp_detection_fixFreq,2020.1.2,MacIntel,60,,,,,,,,,,,,,,,,,,2,8.8734,,0,0,44,44,48,1,stimuli/stim_20210919_power2amp/equal_lnn_AM2Hz_s45_30.m4a,,,,,,,,,,,,
,,,,,,,,,,,,41753,2021-09-29_22h06.55.705,judgeSpeechMusic_20210919_logNormShiftAmp_detection_fixFreq,2020.1.2,MacIntel,60,,,,,,,,,,,,,,,,,,2,8.4238,,0,0,45,45,18,1,stimuli/stim_20210919_power2amp/equal_lnn_AM2Hz_s25_6.m4a,,,,,,,,,,,,
,,,,,,,,,,,,41753,2021-09-29_22h06.55.705,judgeSpeechMusic_20210919_logNormShiftAmp_detection_fixFreq,2020.1.2,MacIntel,60,,,,,,,,,,,,,,,,,,2,14.8429,,0,0,46,46,6,1,stimuli/stim_20210919_power2amp/equal_lnn_AM2Hz_s15_47.m4a,,,,,,,,,,,,
,,,,,,,,,,,,41753,2021-09-29_22h06.55.705,judgeSpeechMusic_20210919_logNormShiftAmp_detection_fixFreq,2020.1.2,MacIntel,60,,,,,,,,,,,,,,,,,,2,7.2111,,0,0,47,47,16,1,stimuli/stim_20210919_power2amp/equal_lnn_AM2Hz_s25_14.m4a,,,,,,,,,,,,
,,,,,,,,,,,,41753,2021-09-29_22h06.55.705,judgeSpeechMusic_20210919_logNormShiftAmp_detection_fixFreq,2020.1.2,MacIntel,60,,,,,,,,,,,,,,,,,,2,6.1875,,0,0,48,48,73,1,stimuli/stim_20210919_power2amp/equal_lnn_AM2Hz_s55_36.m4a,,,,,,,,,,,,
,,,,,,,,,,,,41753,2021-09-29_22h06.55.705,judgeSpeechMusic_20210919_logNormShiftAmp_detection_fixFreq,2020.1.2,MacIntel,60,,,,,,,,,,,,,,,,,,2,8.2857,,0,0,49,49,28,1,stimuli/stim_20210919_power2amp/equal_lnn_AM2Hz_s25_50.m4a,,,,,,,,,,,,
,,,,,,,,,,,,41753,2021-09-29_22h06.55.705,judgeSpeechMusic_20210919_logNormShiftAmp_detection_fixFreq,2020.1.2,MacIntel,60,,,,,,,,,,,,,,,,,,1,8.1191,,0,0,50,50,29,1,stimuli/stim_20210919_power2amp/equal_lnn_AM2Hz_s25_22.m4a,,,,,,,,,,,,
,,,,,,,,,,,,41753,2021-09-29_22h06.55.705,judgeSpeechMusic_20210919_logNormShiftAmp_detection_fixFreq,2020.1.2,MacIntel,60,,,,,,,,,,,,,,,,,,1,6.9565,,0,0,51,51,45,1,stimuli/stim_20210919_power2amp/equal_lnn_AM2Hz_s45_49.m4a,,,,,,,,,,,,
,,,,,,,,,,,,41753,2021-09-29_22h06.55.705,judgeSpeechMusic_20210919_logNormShiftAmp_detection_fixFreq,2020.1.2,MacIntel,60,,,,,,,,,,,,,,,,,,1,5.9345,,0,0,52,52,49,1,stimuli/stim_20210919_power2amp/equal_lnn_AM2Hz_s45_44.m4a,,,,,,,,,,,,
,,,,,,,,,,,,41753,2021-09-29_22h06.55.705,judgeSpeechMusic_20210919_logNormShiftAmp_detection_fixFreq,2020.1.2,MacIntel,60,,,,,,,,,,,,,,,,,,1,6.2101,,0,0,53,53,0,1,stimuli/stim_20210919_power2amp/equal_lnn_AM2Hz_s15_7.m4a,,,,,,,,,,,,
,,,,,,,,,,,,41753,2021-09-29_22h06.55.705,judgeSpeechMusic_20210919_logNormShiftAmp_detection_fixFreq,2020.1.2,MacIntel,60,,,,,,,,,,,,,,,,,,2,8.0118,,0,0,54,54,15,1,stimuli/stim_20210919_power2amp/equal_lnn_AM2Hz_s25_17.m4a,,,,,,,,,,,,
,,,,,,,,,,,,41753,2021-09-29_22h06.55.705,judgeSpeechMusic_20210919_logNormShiftAmp_detection_fixFreq,2020.1.2,MacIntel,60,,,,,,,,,,,,,,,,,,2,7.5093,,0,0,55,55,37,1,stimuli/stim_20210919_power2amp/equal_lnn_AM2Hz_s35_12.m4a,,,,,,,,,,,,
,,,,,,,,,,,,41753,2021-09-29_22h06.55.705,judgeSpeechMusic_20210919_logNormShiftAmp_detection_fixFreq,2020.1.2,MacIntel,60,,,,,,,,,,,,,,,,,,2,6.2206,,0,0,56,56,63,1,stimuli/stim_20210919_power2amp/equal_lnn_AM2Hz_s55_31.m4a,,,,,,,,,,,,
,,,,,,,,,,,,41753,2021-09-29_22h06.55.705,judgeSpeechMusic_20210919_logNormShiftAmp_detection_fixFreq,2020.1.2,MacIntel,60,,,,,,,,,,,,,,,,,,2,6.2027,,0,0,57,57,8,1,stimuli/stim_20210919_power2amp/equal_lnn_AM2Hz_s15_42.m4a,,,,,,,,,,,,
,,,,,,,,,,,,41753,2021-09-29_22h06.55.705,judgeSpeechMusic_20210919_logNormShiftAmp_detection_fixFreq,2020.1.2,MacIntel,60,,,,,,,,,,,,,,,,,,2,6.3561,,0,0,58,58,4,1,stimuli/stim_20210919_power2amp/equal_lnn_AM2Hz_s15_27.m4a,,,,,,,,,,,,
,,,,,,,,,,,,41753,2021-09-29_22h06.55.705,judgeSpeechMusic_20210919_logNormShiftAmp_detection_fixFreq,2020.1.2,MacIntel,60,,,,,,,,,,,,,,,,,,2,7.5679,,0,0,59,59,52,1,stimuli/stim_20210919_power2amp/equal_lnn_AM2Hz_s45_27.m4a,,,,,,,,,,,,
,,,,,,,,,,,,41753,2021-09-29_22h06.55.705,judgeSpeechMusic_20210919_logNormShiftAmp_detection_fixFreq,2020.1.2,MacIntel,60,,,,,,,,,,,,,,,,,,1,7.6875,,0,0,60,60,25,1,stimuli/stim_20210919_power2amp/equal_lnn_AM2Hz_s25_10.m4a,,,,,,,,,,,,
,,,,,,,,,,,,41753,2021-09-29_22h06.55.705,judgeSpeechMusic_20210919_logNormShiftAmp_detection_fixFreq,2020.1.2,MacIntel,60,,,,,,,,,,,,,,,,,,1,6.1684,,0,0,61,61,20,1,stimuli/stim_20210919_power2amp/equal_lnn_AM2Hz_s25_5.m4a,,,,,,,,,,,,
,,,,,,,,,,,,41753,2021-09-29_22h06.55.705,judgeSpeechMusic_20210919_logNormShiftAmp_detection_fixFreq,2020.1.2,MacIntel,60,,,,,,,,,,,,,,,,,,1,6.3528,4,1,0,62,62,41,1,stimuli/stim_20210919_power2amp/equal_lnn_AM2Hz_s35_14.m4a,0.9247,,,,,,,,,,,
,,,,,,,,,,,,41753,2021-09-29_22h06.55.705,judgeSpeechMusic_20210919_logNormShiftAmp_detection_fixFreq,2020.1.2,MacIntel,60,,,,,,,,,,,,,,,,,,2,7.2044,,0,0,63,63,61,1,stimuli/stim_20210919_power2amp/equal_lnn_AM2Hz_s55_34.m4a,,,,,,,,,,,,
,,,,,,,,,,,,41753,2021-09-29_22h06.55.705,judgeSpeechMusic_20210919_logNormShiftAmp_detection_fixFreq,2020.1.2,MacIntel,60,,,,,,,,,,,,,,,,,,1,6.7203,,0,0,64,64,47,1,stimuli/stim_20210919_power2amp/equal_lnn_AM2Hz_s45_21.m4a,,,,,,,,,,,,
,,,,,,,,,,,,41753,2021-09-29_22h06.55.705,judgeSpeechMusic_20210919_logNormShiftAmp_detection_fixFreq,2020.1.2,MacIntel,60,,,,,,,,,,,,,,,,,,1,6.4732,,0,0,65,65,67,1,stimuli/stim_20210919_power2amp/equal_lnn_AM2Hz_s55_20.m4a,,,,,,,,,,,,
,,,,,,,,,,,,41753,2021-09-29_22h06.55.705,judgeSpeechMusic_20210919_logNormShiftAmp_detection_fixFreq,2020.1.2,MacIntel,60,,,,,,,,,,,,,,,,,,1,9.7004,,0,0,66,66,7,1,stimuli/stim_20210919_power2amp/equal_lnn_AM2Hz_s15_36.m4a,,,,,,,,,,,,
,,,,,,,,,,,,41753,2021-09-29_22h06.55.705,judgeSpeechMusic_20210919_logNormShiftAmp_detection_fixFreq,2020.1.2,MacIntel,60,,,,,,,,,,,,,,,,,,1,6.4027,,0,0,67,67,35,1,stimuli/stim_20210919_power2amp/equal_lnn_AM2Hz_s35_8.m4a,,,,,,,,,,,,
,,,,,,,,,,,,41753,2021-09-29_22h06.55.705,judgeSpeechMusic_20210919_logNormShiftAmp_detection_fixFreq,2020.1.2,MacIntel,60,,,,,,,,,,,,,,,,,,1,11.8868,,0,0,68,68,69,1,stimuli/stim_20210919_power2amp/equal_lnn_AM2Hz_s55_26.m4a,,,,,,,,,,,,
,,,,,,,,,,,,41753,2021-09-29_22h06.55.705,judgeSpeechMusic_20210919_logNormShiftAmp_detection_fixFreq,2020.1.2,MacIntel,60,,,,,,,,,,,,,,,,,,2,7.7362,,0,0,69,69,74,1,stimuli/stim_20210919_power2amp/equal_lnn_AM2Hz_s55_39.m4a,,,,,,,,,,,,
,,,,,,,,,,,,41753,2021-09-29_22h06.55.705,judgeSpeechMusic_20210919_logNormShiftAmp_detection_fixFreq,2020.1.2,MacIntel,60,,,,,,,,,,,,,,,,,,1,7.4707,,0,0,70,70,31,1,stimuli/stim_20210919_power2amp/equal_lnn_AM2Hz_s35_24.m4a,,,,,,,,,,,,
,,,,,,,,,,,,41753,2021-09-29_22h06.55.705,judgeSpeechMusic_20210919_logNormShiftAmp_detection_fixFreq,2020.1.2,MacIntel,60,,,,,,,,,,,,,,,,,,1,6.051,,0,0,71,71,70,1,stimuli/stim_20210919_power2amp/equal_lnn_AM2Hz_s55_47.m4a,,,,,,,,,,,,
,,,,,,,,,,,,41753,2021-09-29_22h06.55.705,judgeSpeechMusic_20210919_logNormShiftAmp_detection_fixFreq,2020.1.2,MacIntel,60,,,,,,,,,,,,,,,,,,1,5.932,,0,0,72,72,56,1,stimuli/stim_20210919_power2amp/equal_lnn_AM2Hz_s45_31.m4a,,,,,,,,,,,,
,,,,,,,,,,,,41753,2021-09-29_22h06.55.705,judgeSpeechMusic_20210919_logNormShiftAmp_detection_fixFreq,2020.1.2,MacIntel,60,,,,,,,,,,,,,,,,,,1,6.349,,0,0,73,73,30,1,stimuli/stim_20210919_power2amp/equal_lnn_AM2Hz_s35_48.m4a,,,,,,,,,,,,
,,,,,,,,,,,,41753,2021-09-29_22h06.55.705,judgeSpeechMusic_20210919_logNormShiftAmp_detection_fixFreq,2020.1.2,MacIntel,60,,,,,,,,,,,,,,,,,,1,7.4208,,0,0,74,74,27,1,stimuli/stim_20210919_power2amp/equal_lnn_AM2Hz_s25_20.m4a,,,,,,,,,,,,
,,,,,,,,,,,,41753,2021-09-29_22h06.55.705,judgeSpeechMusic_20210919_logNormShiftAmp_detection_fixFreq,2020.1.2,MacIntel,60,,,,,,,,,,,,,,,,,,,,,,,,,,,,,,,1,1,3,1,1,SPEECH,stimuli/SPEECH.jpg,,
,,,,,,,,,,,,41753,2021-09-29_22h06.55.705,judgeSpeechMusic_20210919_logNormShiftAmp_detection_fixFreq,2020.1.2,MacIntel,60,,,,,,,,,,,,,,,,,,,,,,,,,,,,,,,,,,,,,,space,3.8343
