volAdjustRep.thisRepN,volAdjustRep.thisTrialN,volAdjustRep.thisN,volAdjustRep.thisIndex,volAdjustRep.ran,participant,date,expName,psychopyVersion,OS,frameRate,headphoneResponse.keys,headphoneResponse.corr,headphoneResponse.rt,headphoneTrial.thisRepN,headphoneTrial.thisTrialN,headphoneTrial.thisN,headphoneTrial.thisIndex,headphoneTrial.ran,headphone_sound1,headphone_sound2,headphone_sound3,corrAns,checkInstruKey.keys,checkInstruKey.rt,trainSlider.response,trainSlider.rt,beepTrainResponse.keys,beepTrainResponse.corr,trainingTrials.thisRepN,trainingTrials.thisTrialN,trainingTrials.thisN,trainingTrials.thisIndex,trainingTrials.ran,trainAudioFile,beepTrainResponse.rt,readyReal_resp.keys,readyReal_resp.rt,checkInstru2_key.keys,checkInstru2_key.rt,ratingSlider.response,ratingSlider.rt,beepResp.keys,beepResp.corr,expTrials.thisRepN,expTrials.thisTrialN,expTrials.thisN,expTrials.thisIndex,expTrials.ran,audioFile,beepResp.rt,switchBlock_space.keys,switchBlock_space.rt,block.thisRepN,block.thisTrialN,block.thisN,block.thisIndex,block.ran,blockName,blockImage,end_resp.keys,end_resp.rt
0,0,0,0,1,41757,2021-10-03_19h42.12.932,judgeSpeechMusic_20210919_logNormShiftAmp_detection_fixFreq,2020.1.2,Win32,60,,,,,,,,,,,,,,,,,,,,,,,,,,,,,,,,,,,,,,,,,,,,,,,,,,,
,,,,,41757,2021-10-03_19h42.12.932,judgeSpeechMusic_20210919_logNormShiftAmp_detection_fixFreq,2020.1.2,Win32,60,3,1,1.2594,0,0,0,2,1,stimuli/screen_origin.wav,stimuli/screen_antiphase.wav,stimuli/screen_quiet.wav,3,,,,,,,,,,,,,,,,,,,,,,,,,,,,,,,,,,,,,,,
,,,,,41757,2021-10-03_19h42.12.932,judgeSpeechMusic_20210919_logNormShiftAmp_detection_fixFreq,2020.1.2,Win32,60,1,1,0.7029,0,1,1,4,1,stimuli/screen_quiet.wav,stimuli/screen_antiphase.wav,stimuli/screen_origin.wav,1,,,,,,,,,,,,,,,,,,,,,,,,,,,,,,,,,,,,,,,
,,,,,41757,2021-10-03_19h42.12.932,judgeSpeechMusic_20210919_logNormShiftAmp_detection_fixFreq,2020.1.2,Win32,60,2,1,0.5091,0,2,2,3,1,stimuli/screen_origin.wav,stimuli/screen_quiet.wav,stimuli/screen_antiphase.wav,2,,,,,,,,,,,,,,,,,,,,,,,,,,,,,,,,,,,,,,,
,,,,,41757,2021-10-03_19h42.12.932,judgeSpeechMusic_20210919_logNormShiftAmp_detection_fixFreq,2020.1.2,Win32,60,1,1,0.3312,0,3,3,5,1,stimuli/screen_quiet.wav,stimuli/screen_origin.wav,stimuli/screen_antiphase.wav,1,,,,,,,,,,,,,,,,,,,,,,,,,,,,,,,,,,,,,,,
,,,,,41757,2021-10-03_19h42.12.932,judgeSpeechMusic_20210919_logNormShiftAmp_detection_fixFreq,2020.1.2,Win32,60,2,1,0.3558,0,4,4,1,1,stimuli/screen_antiphase.wav,stimuli/screen_quiet.wav,stimuli/screen_origin.wav,2,,,,,,,,,,,,,,,,,,,,,,,,,,,,,,,,,,,,,,,
,,,,,41757,2021-10-03_19h42.12.932,judgeSpeechMusic_20210919_logNormShiftAmp_detection_fixFreq,2020.1.2,Win32,60,3,1,0.6749,0,5,5,0,1,stimuli/screen_antiphase.wav,stimuli/screen_origin.wav,stimuli/screen_quiet.wav,3,,,,,,,,,,,,,,,,,,,,,,,,,,,,,,,,,,,,,,,
,,,,,41757,2021-10-03_19h42.12.932,judgeSpeechMusic_20210919_logNormShiftAmp_detection_fixFreq,2020.1.2,Win32,60,,,,,,,,,,,,,space,1.3826,1,9.7614,,0,0,0,0,3,1,stimuli/stim_20210919_power2amp/equal_lnn_AM_training2Hz_s50.m4a,,,,,,,,,,,,,,,,,,,,,,,,,,,
,,,,,41757,2021-10-03_19h42.12.932,judgeSpeechMusic_20210919_logNormShiftAmp_detection_fixFreq,2020.1.2,Win32,60,,,,,,,,,,,,,,,1,7.4507,,0,0,1,1,1,1,stimuli/stim_20210919_power2amp/equal_lnn_AM_training2Hz_s30.m4a,,,,,,,,,,,,,,,,,,,,,,,,,,,
,,,,,41757,2021-10-03_19h42.12.932,judgeSpeechMusic_20210919_logNormShiftAmp_detection_fixFreq,2020.1.2,Win32,60,,,,,,,,,,,,,,,1,7.3569,2,1,0,2,2,2,1,stimuli/stim_20210919_power2amp/equal_lnn_AM_training2Hz_s40.m4a,1.93,,,,,,,,,,,,,,,,,,,,,,,,,,
,,,,,41757,2021-10-03_19h42.12.932,judgeSpeechMusic_20210919_logNormShiftAmp_detection_fixFreq,2020.1.2,Win32,60,,,,,,,,,,,,,,,2,9.6067,,0,0,3,3,0,1,stimuli/stim_20210919_power2amp/equal_lnn_AM_training2Hz_s20.m4a,,,,,,,,,,,,,,,,,,,,,,,,,,,
,,,,,41757,2021-10-03_19h42.12.932,judgeSpeechMusic_20210919_logNormShiftAmp_detection_fixFreq,2020.1.2,Win32,60,,,,,,,,,,,,,,,,,,,,,,,,,,space,6.4054,space,0.8565,1,7.7481,,0,0,0,0,49,1,stimuli/stim_20210919_power2amp/equal_lnn_AM2Hz_s45_18.m4a,,,,,,,,,,,,
,,,,,41757,2021-10-03_19h42.12.932,judgeSpeechMusic_20210919_logNormShiftAmp_detection_fixFreq,2020.1.2,Win32,60,,,,,,,,,,,,,,,,,,,,,,,,,,,,,,1,6.0596,,0,0,1,1,63,1,stimuli/stim_20210919_power2amp/equal_lnn_AM2Hz_s55_18.m4a,,,,,,,,,,,,
,,,,,41757,2021-10-03_19h42.12.932,judgeSpeechMusic_20210919_logNormShiftAmp_detection_fixFreq,2020.1.2,Win32,60,,,,,,,,,,,,,,,,,,,,,,,,,,,,,,2,8.0809,,0,0,2,2,10,1,stimuli/stim_20210919_power2amp/equal_lnn_AM2Hz_s15_31.m4a,,,,,,,,,,,,
,,,,,41757,2021-10-03_19h42.12.932,judgeSpeechMusic_20210919_logNormShiftAmp_detection_fixFreq,2020.1.2,Win32,60,,,,,,,,,,,,,,,,,,,,,,,,,,,,,,1,5.8443,,0,0,3,3,9,1,stimuli/stim_20210919_power2amp/equal_lnn_AM2Hz_s15_43.m4a,,,,,,,,,,,,
,,,,,41757,2021-10-03_19h42.12.932,judgeSpeechMusic_20210919_logNormShiftAmp_detection_fixFreq,2020.1.2,Win32,60,,,,,,,,,,,,,,,,,,,,,,,,,,,,,,1,5.858,,0,0,4,4,13,1,stimuli/stim_20210919_power2amp/equal_lnn_AM2Hz_s15_10.m4a,,,,,,,,,,,,
,,,,,41757,2021-10-03_19h42.12.932,judgeSpeechMusic_20210919_logNormShiftAmp_detection_fixFreq,2020.1.2,Win32,60,,,,,,,,,,,,,,,,,,,,,,,,,,,,,,2,6.7249,,0,0,5,5,28,1,stimuli/stim_20210919_power2amp/equal_lnn_AM2Hz_s25_48.m4a,,,,,,,,,,,,
,,,,,41757,2021-10-03_19h42.12.932,judgeSpeechMusic_20210919_logNormShiftAmp_detection_fixFreq,2020.1.2,Win32,60,,,,,,,,,,,,,,,,,,,,,,,,,,,,,,1,6.3041,,0,0,6,6,24,1,stimuli/stim_20210919_power2amp/equal_lnn_AM2Hz_s25_28.m4a,,,,,,,,,,,,
,,,,,41757,2021-10-03_19h42.12.932,judgeSpeechMusic_20210919_logNormShiftAmp_detection_fixFreq,2020.1.2,Win32,60,,,,,,,,,,,,,,,,,,,,,,,,,,,,,,1,6.9069,,0,0,7,7,68,1,stimuli/stim_20210919_power2amp/equal_lnn_AM2Hz_s55_9.m4a,,,,,,,,,,,,
,,,,,41757,2021-10-03_19h42.12.932,judgeSpeechMusic_20210919_logNormShiftAmp_detection_fixFreq,2020.1.2,Win32,60,,,,,,,,,,,,,,,,,,,,,,,,,,,,,,1,6.0589,,0,0,8,8,65,1,stimuli/stim_20210919_power2amp/equal_lnn_AM2Hz_s55_34.m4a,,,,,,,,,,,,
,,,,,41757,2021-10-03_19h42.12.932,judgeSpeechMusic_20210919_logNormShiftAmp_detection_fixFreq,2020.1.2,Win32,60,,,,,,,,,,,,,,,,,,,,,,,,,,,,,,2,6.178,,0,0,9,9,74,1,stimuli/stim_20210919_power2amp/equal_lnn_AM2Hz_s55_3.m4a,,,,,,,,,,,,
,,,,,41757,2021-10-03_19h42.12.932,judgeSpeechMusic_20210919_logNormShiftAmp_detection_fixFreq,2020.1.2,Win32,60,,,,,,,,,,,,,,,,,,,,,,,,,,,,,,2,5.8862,,0,0,10,10,23,1,stimuli/stim_20210919_power2amp/equal_lnn_AM2Hz_s25_7.m4a,,,,,,,,,,,,
,,,,,41757,2021-10-03_19h42.12.932,judgeSpeechMusic_20210919_logNormShiftAmp_detection_fixFreq,2020.1.2,Win32,60,,,,,,,,,,,,,,,,,,,,,,,,,,,,,,1,6.0662,,0,0,11,11,12,1,stimuli/stim_20210919_power2amp/equal_lnn_AM2Hz_s15_38.m4a,,,,,,,,,,,,
,,,,,41757,2021-10-03_19h42.12.932,judgeSpeechMusic_20210919_logNormShiftAmp_detection_fixFreq,2020.1.2,Win32,60,,,,,,,,,,,,,,,,,,,,,,,,,,,,,,2,6.1358,,0,0,12,12,64,1,stimuli/stim_20210919_power2amp/equal_lnn_AM2Hz_s55_49.m4a,,,,,,,,,,,,
,,,,,41757,2021-10-03_19h42.12.932,judgeSpeechMusic_20210919_logNormShiftAmp_detection_fixFreq,2020.1.2,Win32,60,,,,,,,,,,,,,,,,,,,,,,,,,,,,,,1,6.3598,,0,0,13,13,21,1,stimuli/stim_20210919_power2amp/equal_lnn_AM2Hz_s25_36.m4a,,,,,,,,,,,,
,,,,,41757,2021-10-03_19h42.12.932,judgeSpeechMusic_20210919_logNormShiftAmp_detection_fixFreq,2020.1.2,Win32,60,,,,,,,,,,,,,,,,,,,,,,,,,,,,,,1,5.6847,,0,0,14,14,67,1,stimuli/stim_20210919_power2amp/equal_lnn_AM2Hz_s55_7.m4a,,,,,,,,,,,,
,,,,,41757,2021-10-03_19h42.12.932,judgeSpeechMusic_20210919_logNormShiftAmp_detection_fixFreq,2020.1.2,Win32,60,,,,,,,,,,,,,,,,,,,,,,,,,,,,,,1,5.9481,,0,0,15,15,47,1,stimuli/stim_20210919_power2amp/equal_lnn_AM2Hz_s45_46.m4a,,,,,,,,,,,,
,,,,,41757,2021-10-03_19h42.12.932,judgeSpeechMusic_20210919_logNormShiftAmp_detection_fixFreq,2020.1.2,Win32,60,,,,,,,,,,,,,,,,,,,,,,,,,,,,,,1,6.1289,,0,0,16,16,39,1,stimuli/stim_20210919_power2amp/equal_lnn_AM2Hz_s35_46.m4a,,,,,,,,,,,,
,,,,,41757,2021-10-03_19h42.12.932,judgeSpeechMusic_20210919_logNormShiftAmp_detection_fixFreq,2020.1.2,Win32,60,,,,,,,,,,,,,,,,,,,,,,,,,,,,,,1,7.6567,,0,0,17,17,73,1,stimuli/stim_20210919_power2amp/equal_lnn_AM2Hz_s55_38.m4a,,,,,,,,,,,,
,,,,,41757,2021-10-03_19h42.12.932,judgeSpeechMusic_20210919_logNormShiftAmp_detection_fixFreq,2020.1.2,Win32,60,,,,,,,,,,,,,,,,,,,,,,,,,,,,,,2,10.167,1,1,0,18,18,11,1,stimuli/stim_20210919_power2amp/equal_lnn_AM2Hz_s15_16.m4a,2.4293,,,,,,,,,,,
,,,,,41757,2021-10-03_19h42.12.932,judgeSpeechMusic_20210919_logNormShiftAmp_detection_fixFreq,2020.1.2,Win32,60,,,,,,,,,,,,,,,,,,,,,,,,,,,,,,1,6.3358,,0,0,19,19,30,1,stimuli/stim_20210919_power2amp/equal_lnn_AM2Hz_s35_34.m4a,,,,,,,,,,,,
,,,,,41757,2021-10-03_19h42.12.932,judgeSpeechMusic_20210919_logNormShiftAmp_detection_fixFreq,2020.1.2,Win32,60,,,,,,,,,,,,,,,,,,,,,,,,,,,,,,1,6.4639,,0,0,20,20,1,1,stimuli/stim_20210919_power2amp/equal_lnn_AM2Hz_s15_18.m4a,,,,,,,,,,,,
,,,,,41757,2021-10-03_19h42.12.932,judgeSpeechMusic_20210919_logNormShiftAmp_detection_fixFreq,2020.1.2,Win32,60,,,,,,,,,,,,,,,,,,,,,,,,,,,,,,1,6.101,,0,0,21,21,51,1,stimuli/stim_20210919_power2amp/equal_lnn_AM2Hz_s45_22.m4a,,,,,,,,,,,,
,,,,,41757,2021-10-03_19h42.12.932,judgeSpeechMusic_20210919_logNormShiftAmp_detection_fixFreq,2020.1.2,Win32,60,,,,,,,,,,,,,,,,,,,,,,,,,,,,,,1,6.329,,0,0,22,22,34,1,stimuli/stim_20210919_power2amp/equal_lnn_AM2Hz_s35_42.m4a,,,,,,,,,,,,
,,,,,41757,2021-10-03_19h42.12.932,judgeSpeechMusic_20210919_logNormShiftAmp_detection_fixFreq,2020.1.2,Win32,60,,,,,,,,,,,,,,,,,,,,,,,,,,,,,,1,5.8983,,0,0,23,23,42,1,stimuli/stim_20210919_power2amp/equal_lnn_AM2Hz_s35_13.m4a,,,,,,,,,,,,
,,,,,41757,2021-10-03_19h42.12.932,judgeSpeechMusic_20210919_logNormShiftAmp_detection_fixFreq,2020.1.2,Win32,60,,,,,,,,,,,,,,,,,,,,,,,,,,,,,,1,5.6728,,0,0,24,24,37,1,stimuli/stim_20210919_power2amp/equal_lnn_AM2Hz_s35_30.m4a,,,,,,,,,,,,
,,,,,41757,2021-10-03_19h42.12.932,judgeSpeechMusic_20210919_logNormShiftAmp_detection_fixFreq,2020.1.2,Win32,60,,,,,,,,,,,,,,,,,,,,,,,,,,,,,,1,7.937,,0,0,25,25,0,1,stimuli/stim_20210919_power2amp/equal_lnn_AM2Hz_s15_13.m4a,,,,,,,,,,,,
,,,,,41757,2021-10-03_19h42.12.932,judgeSpeechMusic_20210919_logNormShiftAmp_detection_fixFreq,2020.1.2,Win32,60,,,,,,,,,,,,,,,,,,,,,,,,,,,,,,1,10.2731,,0,0,26,26,44,1,stimuli/stim_20210919_power2amp/equal_lnn_AM2Hz_s35_50.m4a,,,,,,,,,,,,
,,,,,41757,2021-10-03_19h42.12.932,judgeSpeechMusic_20210919_logNormShiftAmp_detection_fixFreq,2020.1.2,Win32,60,,,,,,,,,,,,,,,,,,,,,,,,,,,,,,1,6.9812,,0,0,27,27,71,1,stimuli/stim_20210919_power2amp/equal_lnn_AM2Hz_s55_32.m4a,,,,,,,,,,,,
,,,,,41757,2021-10-03_19h42.12.932,judgeSpeechMusic_20210919_logNormShiftAmp_detection_fixFreq,2020.1.2,Win32,60,,,,,,,,,,,,,,,,,,,,,,,,,,,,,,1,6.8383,,0,0,28,28,20,1,stimuli/stim_20210919_power2amp/equal_lnn_AM2Hz_s25_30.m4a,,,,,,,,,,,,
,,,,,41757,2021-10-03_19h42.12.932,judgeSpeechMusic_20210919_logNormShiftAmp_detection_fixFreq,2020.1.2,Win32,60,,,,,,,,,,,,,,,,,,,,,,,,,,,,,,1,6.2679,,0,0,29,29,15,1,stimuli/stim_20210919_power2amp/equal_lnn_AM2Hz_s25_31.m4a,,,,,,,,,,,,
,,,,,41757,2021-10-03_19h42.12.932,judgeSpeechMusic_20210919_logNormShiftAmp_detection_fixFreq,2020.1.2,Win32,60,,,,,,,,,,,,,,,,,,,,,,,,,,,,,,1,7.0127,,0,0,30,30,52,1,stimuli/stim_20210919_power2amp/equal_lnn_AM2Hz_s45_29.m4a,,,,,,,,,,,,
,,,,,41757,2021-10-03_19h42.12.932,judgeSpeechMusic_20210919_logNormShiftAmp_detection_fixFreq,2020.1.2,Win32,60,,,,,,,,,,,,,,,,,,,,,,,,,,,,,,1,5.7106,,0,0,31,31,45,1,stimuli/stim_20210919_power2amp/equal_lnn_AM2Hz_s45_33.m4a,,,,,,,,,,,,
,,,,,41757,2021-10-03_19h42.12.932,judgeSpeechMusic_20210919_logNormShiftAmp_detection_fixFreq,2020.1.2,Win32,60,,,,,,,,,,,,,,,,,,,,,,,,,,,,,,1,5.7469,,0,0,32,32,56,1,stimuli/stim_20210919_power2amp/equal_lnn_AM2Hz_s45_41.m4a,,,,,,,,,,,,
,,,,,41757,2021-10-03_19h42.12.932,judgeSpeechMusic_20210919_logNormShiftAmp_detection_fixFreq,2020.1.2,Win32,60,,,,,,,,,,,,,,,,,,,,,,,,,,,,,,1,6.4552,,0,0,33,33,38,1,stimuli/stim_20210919_power2amp/equal_lnn_AM2Hz_s35_3.m4a,,,,,,,,,,,,
,,,,,41757,2021-10-03_19h42.12.932,judgeSpeechMusic_20210919_logNormShiftAmp_detection_fixFreq,2020.1.2,Win32,60,,,,,,,,,,,,,,,,,,,,,,,,,,,,,,1,6.2333,,0,0,34,34,18,1,stimuli/stim_20210919_power2amp/equal_lnn_AM2Hz_s25_2.m4a,,,,,,,,,,,,
,,,,,41757,2021-10-03_19h42.12.932,judgeSpeechMusic_20210919_logNormShiftAmp_detection_fixFreq,2020.1.2,Win32,60,,,,,,,,,,,,,,,,,,,,,,,,,,,,,,1,5.7066,,0,0,35,35,60,1,stimuli/stim_20210919_power2amp/equal_lnn_AM2Hz_s55_25.m4a,,,,,,,,,,,,
,,,,,41757,2021-10-03_19h42.12.932,judgeSpeechMusic_20210919_logNormShiftAmp_detection_fixFreq,2020.1.2,Win32,60,,,,,,,,,,,,,,,,,,,,,,,,,,,,,,1,10.8645,,0,0,36,36,58,1,stimuli/stim_20210919_power2amp/equal_lnn_AM2Hz_s45_31.m4a,,,,,,,,,,,,
,,,,,41757,2021-10-03_19h42.12.932,judgeSpeechMusic_20210919_logNormShiftAmp_detection_fixFreq,2020.1.2,Win32,60,,,,,,,,,,,,,,,,,,,,,,,,,,,,,,1,29.1228,,0,0,37,37,7,1,stimuli/stim_20210919_power2amp/equal_lnn_AM2Hz_s15_19.m4a,,,,,,,,,,,,
,,,,,41757,2021-10-03_19h42.12.932,judgeSpeechMusic_20210919_logNormShiftAmp_detection_fixFreq,2020.1.2,Win32,60,,,,,,,,,,,,,,,,,,,,,,,,,,,,,,1,15.108,,0,0,38,38,55,1,stimuli/stim_20210919_power2amp/equal_lnn_AM2Hz_s45_20.m4a,,,,,,,,,,,,
,,,,,41757,2021-10-03_19h42.12.932,judgeSpeechMusic_20210919_logNormShiftAmp_detection_fixFreq,2020.1.2,Win32,60,,,,,,,,,,,,,,,,,,,,,,,,,,,,,,1,5.8949,3,1,0,39,39,66,1,stimuli/stim_20210919_power2amp/equal_lnn_AM2Hz_s55_16.m4a,2.3074,,,,,,,,,,,
,,,,,41757,2021-10-03_19h42.12.932,judgeSpeechMusic_20210919_logNormShiftAmp_detection_fixFreq,2020.1.2,Win32,60,,,,,,,,,,,,,,,,,,,,,,,,,,,,,,1,6.5948,,0,0,40,40,8,1,stimuli/stim_20210919_power2amp/equal_lnn_AM2Hz_s15_20.m4a,,,,,,,,,,,,
,,,,,41757,2021-10-03_19h42.12.932,judgeSpeechMusic_20210919_logNormShiftAmp_detection_fixFreq,2020.1.2,Win32,60,,,,,,,,,,,,,,,,,,,,,,,,,,,,,,1,6.5394,,0,0,41,41,27,1,stimuli/stim_20210919_power2amp/equal_lnn_AM2Hz_s25_5.m4a,,,,,,,,,,,,
,,,,,41757,2021-10-03_19h42.12.932,judgeSpeechMusic_20210919_logNormShiftAmp_detection_fixFreq,2020.1.2,Win32,60,,,,,,,,,,,,,,,,,,,,,,,,,,,,,,1,8.1862,,0,0,42,42,6,1,stimuli/stim_20210919_power2amp/equal_lnn_AM2Hz_s15_14.m4a,,,,,,,,,,,,
,,,,,41757,2021-10-03_19h42.12.932,judgeSpeechMusic_20210919_logNormShiftAmp_detection_fixFreq,2020.1.2,Win32,60,,,,,,,,,,,,,,,,,,,,,,,,,,,,,,1,9.5439,,0,0,43,43,29,1,stimuli/stim_20210919_power2amp/equal_lnn_AM2Hz_s25_35.m4a,,,,,,,,,,,,
,,,,,41757,2021-10-03_19h42.12.932,judgeSpeechMusic_20210919_logNormShiftAmp_detection_fixFreq,2020.1.2,Win32,60,,,,,,,,,,,,,,,,,,,,,,,,,,,,,,1,6.0929,,0,0,44,44,31,1,stimuli/stim_20210919_power2amp/equal_lnn_AM2Hz_s35_17.m4a,,,,,,,,,,,,
,,,,,41757,2021-10-03_19h42.12.932,judgeSpeechMusic_20210919_logNormShiftAmp_detection_fixFreq,2020.1.2,Win32,60,,,,,,,,,,,,,,,,,,,,,,,,,,,,,,1,6.2324,,0,0,45,45,32,1,stimuli/stim_20210919_power2amp/equal_lnn_AM2Hz_s35_8.m4a,,,,,,,,,,,,
,,,,,41757,2021-10-03_19h42.12.932,judgeSpeechMusic_20210919_logNormShiftAmp_detection_fixFreq,2020.1.2,Win32,60,,,,,,,,,,,,,,,,,,,,,,,,,,,,,,2,5.6915,,0,0,46,46,40,1,stimuli/stim_20210919_power2amp/equal_lnn_AM2Hz_s35_39.m4a,,,,,,,,,,,,
,,,,,41757,2021-10-03_19h42.12.932,judgeSpeechMusic_20210919_logNormShiftAmp_detection_fixFreq,2020.1.2,Win32,60,,,,,,,,,,,,,,,,,,,,,,,,,,,,,,1,6.2192,,0,0,47,47,33,1,stimuli/stim_20210919_power2amp/equal_lnn_AM2Hz_s35_40.m4a,,,,,,,,,,,,
,,,,,41757,2021-10-03_19h42.12.932,judgeSpeechMusic_20210919_logNormShiftAmp_detection_fixFreq,2020.1.2,Win32,60,,,,,,,,,,,,,,,,,,,,,,,,,,,,,,1,5.7319,,0,0,48,48,61,1,stimuli/stim_20210919_power2amp/equal_lnn_AM2Hz_s55_36.m4a,,,,,,,,,,,,
,,,,,41757,2021-10-03_19h42.12.932,judgeSpeechMusic_20210919_logNormShiftAmp_detection_fixFreq,2020.1.2,Win32,60,,,,,,,,,,,,,,,,,,,,,,,,,,,,,,1,6.0861,,0,0,49,49,46,1,stimuli/stim_20210919_power2amp/equal_lnn_AM2Hz_s45_48.m4a,,,,,,,,,,,,
,,,,,41757,2021-10-03_19h42.12.932,judgeSpeechMusic_20210919_logNormShiftAmp_detection_fixFreq,2020.1.2,Win32,60,,,,,,,,,,,,,,,,,,,,,,,,,,,,,,1,6.205,,0,0,50,50,19,1,stimuli/stim_20210919_power2amp/equal_lnn_AM2Hz_s25_6.m4a,,,,,,,,,,,,
,,,,,41757,2021-10-03_19h42.12.932,judgeSpeechMusic_20210919_logNormShiftAmp_detection_fixFreq,2020.1.2,Win32,60,,,,,,,,,,,,,,,,,,,,,,,,,,,,,,1,6.2349,,0,0,51,51,69,1,stimuli/stim_20210919_power2amp/equal_lnn_AM2Hz_s55_33.m4a,,,,,,,,,,,,
,,,,,41757,2021-10-03_19h42.12.932,judgeSpeechMusic_20210919_logNormShiftAmp_detection_fixFreq,2020.1.2,Win32,60,,,,,,,,,,,,,,,,,,,,,,,,,,,,,,1,6.033,,0,0,52,52,4,1,stimuli/stim_20210919_power2amp/equal_lnn_AM2Hz_s15_29.m4a,,,,,,,,,,,,
,,,,,41757,2021-10-03_19h42.12.932,judgeSpeechMusic_20210919_logNormShiftAmp_detection_fixFreq,2020.1.2,Win32,60,,,,,,,,,,,,,,,,,,,,,,,,,,,,,,1,7.4149,,0,0,53,53,50,1,stimuli/stim_20210919_power2amp/equal_lnn_AM2Hz_s45_38.m4a,,,,,,,,,,,,
,,,,,41757,2021-10-03_19h42.12.932,judgeSpeechMusic_20210919_logNormShiftAmp_detection_fixFreq,2020.1.2,Win32,60,,,,,,,,,,,,,,,,,,,,,,,,,,,,,,1,5.7487,,0,0,54,54,70,1,stimuli/stim_20210919_power2amp/equal_lnn_AM2Hz_s55_1.m4a,,,,,,,,,,,,
,,,,,41757,2021-10-03_19h42.12.932,judgeSpeechMusic_20210919_logNormShiftAmp_detection_fixFreq,2020.1.2,Win32,60,,,,,,,,,,,,,,,,,,,,,,,,,,,,,,2,6.6084,,0,0,55,55,54,1,stimuli/stim_20210919_power2amp/equal_lnn_AM2Hz_s45_39.m4a,,,,,,,,,,,,
,,,,,41757,2021-10-03_19h42.12.932,judgeSpeechMusic_20210919_logNormShiftAmp_detection_fixFreq,2020.1.2,Win32,60,,,,,,,,,,,,,,,,,,,,,,,,,,,,,,2,7.839,,0,0,56,56,3,1,stimuli/stim_20210919_power2amp/equal_lnn_AM2Hz_s15_11.m4a,,,,,,,,,,,,
,,,,,41757,2021-10-03_19h42.12.932,judgeSpeechMusic_20210919_logNormShiftAmp_detection_fixFreq,2020.1.2,Win32,60,,,,,,,,,,,,,,,,,,,,,,,,,,,,,,1,110.1783,1,1,0,57,57,25,1,stimuli/stim_20210919_power2amp/equal_lnn_AM2Hz_s25_13.m4a,1.4498,,,,,,,,,,,
,,,,,41757,2021-10-03_19h42.12.932,judgeSpeechMusic_20210919_logNormShiftAmp_detection_fixFreq,2020.1.2,Win32,60,,,,,,,,,,,,,,,,,,,,,,,,,,,,,,1,7.2978,,0,0,58,58,41,1,stimuli/stim_20210919_power2amp/equal_lnn_AM2Hz_s35_33.m4a,,,,,,,,,,,,
,,,,,41757,2021-10-03_19h42.12.932,judgeSpeechMusic_20210919_logNormShiftAmp_detection_fixFreq,2020.1.2,Win32,60,,,,,,,,,,,,,,,,,,,,,,,,,,,,,,1,9.0623,,0,0,59,59,59,1,stimuli/stim_20210919_power2amp/equal_lnn_AM2Hz_s45_15.m4a,,,,,,,,,,,,
,,,,,41757,2021-10-03_19h42.12.932,judgeSpeechMusic_20210919_logNormShiftAmp_detection_fixFreq,2020.1.2,Win32,60,,,,,,,,,,,,,,,,,,,,,,,,,,,,,,1,7.0558,,0,0,60,60,22,1,stimuli/stim_20210919_power2amp/equal_lnn_AM2Hz_s25_32.m4a,,,,,,,,,,,,
,,,,,41757,2021-10-03_19h42.12.932,judgeSpeechMusic_20210919_logNormShiftAmp_detection_fixFreq,2020.1.2,Win32,60,,,,,,,,,,,,,,,,,,,,,,,,,,,,,,1,22.0713,,0,0,61,61,62,1,stimuli/stim_20210919_power2amp/equal_lnn_AM2Hz_s55_45.m4a,,,,,,,,,,,,
,,,,,41757,2021-10-03_19h42.12.932,judgeSpeechMusic_20210919_logNormShiftAmp_detection_fixFreq,2020.1.2,Win32,60,,,,,,,,,,,,,,,,,,,,,,,,,,,,,,1,6.6565,,0,0,62,62,43,1,stimuli/stim_20210919_power2amp/equal_lnn_AM2Hz_s35_48.m4a,,,,,,,,,,,,
,,,,,41757,2021-10-03_19h42.12.932,judgeSpeechMusic_20210919_logNormShiftAmp_detection_fixFreq,2020.1.2,Win32,60,,,,,,,,,,,,,,,,,,,,,,,,,,,,,,1,6.149,,0,0,63,63,53,1,stimuli/stim_20210919_power2amp/equal_lnn_AM2Hz_s45_19.m4a,,,,,,,,,,,,
,,,,,41757,2021-10-03_19h42.12.932,judgeSpeechMusic_20210919_logNormShiftAmp_detection_fixFreq,2020.1.2,Win32,60,,,,,,,,,,,,,,,,,,,,,,,,,,,,,,1,6.324,,0,0,64,64,5,1,stimuli/stim_20210919_power2amp/equal_lnn_AM2Hz_s15_2.m4a,,,,,,,,,,,,
,,,,,41757,2021-10-03_19h42.12.932,judgeSpeechMusic_20210919_logNormShiftAmp_detection_fixFreq,2020.1.2,Win32,60,,,,,,,,,,,,,,,,,,,,,,,,,,,,,,1,9.7349,,0,0,65,65,2,1,stimuli/stim_20210919_power2amp/equal_lnn_AM2Hz_s15_36.m4a,,,,,,,,,,,,
,,,,,41757,2021-10-03_19h42.12.932,judgeSpeechMusic_20210919_logNormShiftAmp_detection_fixFreq,2020.1.2,Win32,60,,,,,,,,,,,,,,,,,,,,,,,,,,,,,,1,5.9886,,0,0,66,66,72,1,stimuli/stim_20210919_power2amp/equal_lnn_AM2Hz_s55_43.m4a,,,,,,,,,,,,
,,,,,41757,2021-10-03_19h42.12.932,judgeSpeechMusic_20210919_logNormShiftAmp_detection_fixFreq,2020.1.2,Win32,60,,,,,,,,,,,,,,,,,,,,,,,,,,,,,,1,5.5654,,0,0,67,67,48,1,stimuli/stim_20210919_power2amp/equal_lnn_AM2Hz_s45_17.m4a,,,,,,,,,,,,
,,,,,41757,2021-10-03_19h42.12.932,judgeSpeechMusic_20210919_logNormShiftAmp_detection_fixFreq,2020.1.2,Win32,60,,,,,,,,,,,,,,,,,,,,,,,,,,,,,,1,5.7905,,0,0,68,68,36,1,stimuli/stim_20210919_power2amp/equal_lnn_AM2Hz_s35_44.m4a,,,,,,,,,,,,
,,,,,41757,2021-10-03_19h42.12.932,judgeSpeechMusic_20210919_logNormShiftAmp_detection_fixFreq,2020.1.2,Win32,60,,,,,,,,,,,,,,,,,,,,,,,,,,,,,,1,5.9634,,0,0,69,69,26,1,stimuli/stim_20210919_power2amp/equal_lnn_AM2Hz_s25_33.m4a,,,,,,,,,,,,
,,,,,41757,2021-10-03_19h42.12.932,judgeSpeechMusic_20210919_logNormShiftAmp_detection_fixFreq,2020.1.2,Win32,60,,,,,,,,,,,,,,,,,,,,,,,,,,,,,,1,6.0241,,0,0,70,70,16,1,stimuli/stim_20210919_power2amp/equal_lnn_AM2Hz_s25_38.m4a,,,,,,,,,,,,
,,,,,41757,2021-10-03_19h42.12.932,judgeSpeechMusic_20210919_logNormShiftAmp_detection_fixFreq,2020.1.2,Win32,60,,,,,,,,,,,,,,,,,,,,,,,,,,,,,,1,10.1692,,0,0,71,71,35,1,stimuli/stim_20210919_power2amp/equal_lnn_AM2Hz_s35_1.m4a,,,,,,,,,,,,
,,,,,41757,2021-10-03_19h42.12.932,judgeSpeechMusic_20210919_logNormShiftAmp_detection_fixFreq,2020.1.2,Win32,60,,,,,,,,,,,,,,,,,,,,,,,,,,,,,,1,5.8323,,0,0,72,72,14,1,stimuli/stim_20210919_power2amp/equal_lnn_AM2Hz_s15_37.m4a,,,,,,,,,,,,
,,,,,41757,2021-10-03_19h42.12.932,judgeSpeechMusic_20210919_logNormShiftAmp_detection_fixFreq,2020.1.2,Win32,60,,,,,,,,,,,,,,,,,,,,,,,,,,,,,,1,9.3982,,0,0,73,73,17,1,stimuli/stim_20210919_power2amp/equal_lnn_AM2Hz_s25_12.m4a,,,,,,,,,,,,
,,,,,41757,2021-10-03_19h42.12.932,judgeSpeechMusic_20210919_logNormShiftAmp_detection_fixFreq,2020.1.2,Win32,60,,,,,,,,,,,,,,,,,,,,,,,,,,,,,,1,6.2233,,0,0,74,74,57,1,stimuli/stim_20210919_power2amp/equal_lnn_AM2Hz_s45_37.m4a,,,,,,,,,,,,
,,,,,41757,2021-10-03_19h42.12.932,judgeSpeechMusic_20210919_logNormShiftAmp_detection_fixFreq,2020.1.2,Win32,60,,,,,,,,,,,,,,,,,,,,,,,,,,,,,,,,,,,,,,,,,space,0.7346,0,0,0,0,1,MUSIC,stimuli/MUSIC.jpg,,
,,,,,41757,2021-10-03_19h42.12.932,judgeSpeechMusic_20210919_logNormShiftAmp_detection_fixFreq,2020.1.2,Win32,60,,,,,,,,,,,,,space,1.7164,1,7.8088,,0,0,0,0,3,1,stimuli/stim_20210919_power2amp/equal_lnn_AM_training2Hz_s50.m4a,,,,,,,,,,,,,,,,,,,,,,,,,,,
,,,,,41757,2021-10-03_19h42.12.932,judgeSpeechMusic_20210919_logNormShiftAmp_detection_fixFreq,2020.1.2,Win32,60,,,,,,,,,,,,,,,1,6.246,,0,0,1,1,0,1,stimuli/stim_20210919_power2amp/equal_lnn_AM_training2Hz_s20.m4a,,,,,,,,,,,,,,,,,,,,,,,,,,,
,,,,,41757,2021-10-03_19h42.12.932,judgeSpeechMusic_20210919_logNormShiftAmp_detection_fixFreq,2020.1.2,Win32,60,,,,,,,,,,,,,,,1,6.0785,1,1,0,2,2,2,1,stimuli/stim_20210919_power2amp/equal_lnn_AM_training2Hz_s40.m4a,1.4821,,,,,,,,,,,,,,,,,,,,,,,,,,
,,,,,41757,2021-10-03_19h42.12.932,judgeSpeechMusic_20210919_logNormShiftAmp_detection_fixFreq,2020.1.2,Win32,60,,,,,,,,,,,,,,,1,6.0064,,0,0,3,3,1,1,stimuli/stim_20210919_power2amp/equal_lnn_AM_training2Hz_s30.m4a,,,,,,,,,,,,,,,,,,,,,,,,,,,
,,,,,41757,2021-10-03_19h42.12.932,judgeSpeechMusic_20210919_logNormShiftAmp_detection_fixFreq,2020.1.2,Win32,60,,,,,,,,,,,,,,,,,,,,,,,,,,space,3.0545,space,34.6895,1,15.0999,,0,0,0,0,73,1,stimuli/stim_20210919_power2amp/equal_lnn_AM2Hz_s55_38.m4a,,,,,,,,,,,,
,,,,,41757,2021-10-03_19h42.12.932,judgeSpeechMusic_20210919_logNormShiftAmp_detection_fixFreq,2020.1.2,Win32,60,,,,,,,,,,,,,,,,,,,,,,,,,,,,,,1,22.6677,,0,0,1,1,19,1,stimuli/stim_20210919_power2amp/equal_lnn_AM2Hz_s25_6.m4a,,,,,,,,,,,,
,,,,,41757,2021-10-03_19h42.12.932,judgeSpeechMusic_20210919_logNormShiftAmp_detection_fixFreq,2020.1.2,Win32,60,,,,,,,,,,,,,,,,,,,,,,,,,,,,,,1,20.2397,,0,0,2,2,17,1,stimuli/stim_20210919_power2amp/equal_lnn_AM2Hz_s25_12.m4a,,,,,,,,,,,,
,,,,,41757,2021-10-03_19h42.12.932,judgeSpeechMusic_20210919_logNormShiftAmp_detection_fixFreq,2020.1.2,Win32,60,,,,,,,,,,,,,,,,,,,,,,,,,,,,,,1,9.5044,,0,0,3,3,36,1,stimuli/stim_20210919_power2amp/equal_lnn_AM2Hz_s35_44.m4a,,,,,,,,,,,,
,,,,,41757,2021-10-03_19h42.12.932,judgeSpeechMusic_20210919_logNormShiftAmp_detection_fixFreq,2020.1.2,Win32,60,,,,,,,,,,,,,,,,,,,,,,,,,,,,,,1,10.9063,,0,0,4,4,20,1,stimuli/stim_20210919_power2amp/equal_lnn_AM2Hz_s25_30.m4a,,,,,,,,,,,,
,,,,,41757,2021-10-03_19h42.12.932,judgeSpeechMusic_20210919_logNormShiftAmp_detection_fixFreq,2020.1.2,Win32,60,,,,,,,,,,,,,,,,,,,,,,,,,,,,,,1,15.247,,0,0,5,5,42,1,stimuli/stim_20210919_power2amp/equal_lnn_AM2Hz_s35_13.m4a,,,,,,,,,,,,
,,,,,41757,2021-10-03_19h42.12.932,judgeSpeechMusic_20210919_logNormShiftAmp_detection_fixFreq,2020.1.2,Win32,60,,,,,,,,,,,,,,,,,,,,,,,,,,,,,,1,15.0224,,0,0,6,6,61,1,stimuli/stim_20210919_power2amp/equal_lnn_AM2Hz_s55_36.m4a,,,,,,,,,,,,
,,,,,41757,2021-10-03_19h42.12.932,judgeSpeechMusic_20210919_logNormShiftAmp_detection_fixFreq,2020.1.2,Win32,60,,,,,,,,,,,,,,,,,,,,,,,,,,,,,,1,72.8499,,0,0,7,7,2,1,stimuli/stim_20210919_power2amp/equal_lnn_AM2Hz_s15_36.m4a,,,,,,,,,,,,
,,,,,41757,2021-10-03_19h42.12.932,judgeSpeechMusic_20210919_logNormShiftAmp_detection_fixFreq,2020.1.2,Win32,60,,,,,,,,,,,,,,,,,,,,,,,,,,,,,,1,27.2033,,0,0,8,8,1,1,stimuli/stim_20210919_power2amp/equal_lnn_AM2Hz_s15_18.m4a,,,,,,,,,,,,
,,,,,41757,2021-10-03_19h42.12.932,judgeSpeechMusic_20210919_logNormShiftAmp_detection_fixFreq,2020.1.2,Win32,60,,,,,,,,,,,,,,,,,,,,,,,,,,,,,,1,11.7005,,0,0,9,9,27,1,stimuli/stim_20210919_power2amp/equal_lnn_AM2Hz_s25_5.m4a,,,,,,,,,,,,
,,,,,41757,2021-10-03_19h42.12.932,judgeSpeechMusic_20210919_logNormShiftAmp_detection_fixFreq,2020.1.2,Win32,60,,,,,,,,,,,,,,,,,,,,,,,,,,,,,,1,69.5329,,0,0,10,10,58,1,stimuli/stim_20210919_power2amp/equal_lnn_AM2Hz_s45_31.m4a,,,,,,,,,,,,
,,,,,41757,2021-10-03_19h42.12.932,judgeSpeechMusic_20210919_logNormShiftAmp_detection_fixFreq,2020.1.2,Win32,60,,,,,,,,,,,,,,,,,,,,,,,,,,,,,,1,7.7369,,0,0,11,11,23,1,stimuli/stim_20210919_power2amp/equal_lnn_AM2Hz_s25_7.m4a,,,,,,,,,,,,
,,,,,41757,2021-10-03_19h42.12.932,judgeSpeechMusic_20210919_logNormShiftAmp_detection_fixFreq,2020.1.2,Win32,60,,,,,,,,,,,,,,,,,,,,,,,,,,,,,,1,7.3642,,0,0,12,12,62,1,stimuli/stim_20210919_power2amp/equal_lnn_AM2Hz_s55_45.m4a,,,,,,,,,,,,
,,,,,41757,2021-10-03_19h42.12.932,judgeSpeechMusic_20210919_logNormShiftAmp_detection_fixFreq,2020.1.2,Win32,60,,,,,,,,,,,,,,,,,,,,,,,,,,,,,,1,41.1237,,0,0,13,13,69,1,stimuli/stim_20210919_power2amp/equal_lnn_AM2Hz_s55_33.m4a,,,,,,,,,,,,
,,,,,41757,2021-10-03_19h42.12.932,judgeSpeechMusic_20210919_logNormShiftAmp_detection_fixFreq,2020.1.2,Win32,60,,,,,,,,,,,,,,,,,,,,,,,,,,,,,,1,8.7845,,0,0,14,14,25,1,stimuli/stim_20210919_power2amp/equal_lnn_AM2Hz_s25_13.m4a,,,,,,,,,,,,
,,,,,41757,2021-10-03_19h42.12.932,judgeSpeechMusic_20210919_logNormShiftAmp_detection_fixFreq,2020.1.2,Win32,60,,,,,,,,,,,,,,,,,,,,,,,,,,,,,,1,13.4237,,0,0,15,15,41,1,stimuli/stim_20210919_power2amp/equal_lnn_AM2Hz_s35_33.m4a,,,,,,,,,,,,
,,,,,41757,2021-10-03_19h42.12.932,judgeSpeechMusic_20210919_logNormShiftAmp_detection_fixFreq,2020.1.2,Win32,60,,,,,,,,,,,,,,,,,,,,,,,,,,,,,,1,41.496,,0,0,16,16,9,1,stimuli/stim_20210919_power2amp/equal_lnn_AM2Hz_s15_43.m4a,,,,,,,,,,,,
,,,,,41757,2021-10-03_19h42.12.932,judgeSpeechMusic_20210919_logNormShiftAmp_detection_fixFreq,2020.1.2,Win32,60,,,,,,,,,,,,,,,,,,,,,,,,,,,,,,1,36.0695,,0,0,17,17,44,1,stimuli/stim_20210919_power2amp/equal_lnn_AM2Hz_s35_50.m4a,,,,,,,,,,,,
,,,,,41757,2021-10-03_19h42.12.932,judgeSpeechMusic_20210919_logNormShiftAmp_detection_fixFreq,2020.1.2,Win32,60,,,,,,,,,,,,,,,,,,,,,,,,,,,,,,1,104.4014,3,1,0,18,18,13,1,stimuli/stim_20210919_power2amp/equal_lnn_AM2Hz_s15_10.m4a,16.6095,,,,,,,,,,,
,,,,,41757,2021-10-03_19h42.12.932,judgeSpeechMusic_20210919_logNormShiftAmp_detection_fixFreq,2020.1.2,Win32,60,,,,,,,,,,,,,,,,,,,,,,,,,,,,,,1,120.1361,,0,0,19,19,32,1,stimuli/stim_20210919_power2amp/equal_lnn_AM2Hz_s35_8.m4a,,,,,,,,,,,,
,,,,,41757,2021-10-03_19h42.12.932,judgeSpeechMusic_20210919_logNormShiftAmp_detection_fixFreq,2020.1.2,Win32,60,,,,,,,,,,,,,,,,,,,,,,,,,,,,,,1,19.416,,0,0,20,20,21,1,stimuli/stim_20210919_power2amp/equal_lnn_AM2Hz_s25_36.m4a,,,,,,,,,,,,
,,,,,41757,2021-10-03_19h42.12.932,judgeSpeechMusic_20210919_logNormShiftAmp_detection_fixFreq,2020.1.2,Win32,60,,,,,,,,,,,,,,,,,,,,,,,,,,,,,,1,9.0661,,0,0,21,21,8,1,stimuli/stim_20210919_power2amp/equal_lnn_AM2Hz_s15_20.m4a,,,,,,,,,,,,
,,,,,41757,2021-10-03_19h42.12.932,judgeSpeechMusic_20210919_logNormShiftAmp_detection_fixFreq,2020.1.2,Win32,60,,,,,,,,,,,,,,,,,,,,,,,,,,,,,,1,6.0535,,0,0,22,22,65,1,stimuli/stim_20210919_power2amp/equal_lnn_AM2Hz_s55_34.m4a,,,,,,,,,,,,
,,,,,41757,2021-10-03_19h42.12.932,judgeSpeechMusic_20210919_logNormShiftAmp_detection_fixFreq,2020.1.2,Win32,60,,,,,,,,,,,,,,,,,,,,,,,,,,,,,,1,5.614,,0,0,23,23,55,1,stimuli/stim_20210919_power2amp/equal_lnn_AM2Hz_s45_20.m4a,,,,,,,,,,,,
,,,,,41757,2021-10-03_19h42.12.932,judgeSpeechMusic_20210919_logNormShiftAmp_detection_fixFreq,2020.1.2,Win32,60,,,,,,,,,,,,,,,,,,,,,,,,,,,,,,1,5.7448,,0,0,24,24,28,1,stimuli/stim_20210919_power2amp/equal_lnn_AM2Hz_s25_48.m4a,,,,,,,,,,,,
,,,,,41757,2021-10-03_19h42.12.932,judgeSpeechMusic_20210919_logNormShiftAmp_detection_fixFreq,2020.1.2,Win32,60,,,,,,,,,,,,,,,,,,,,,,,,,,,,,,1,5.7818,,0,0,25,25,4,1,stimuli/stim_20210919_power2amp/equal_lnn_AM2Hz_s15_29.m4a,,,,,,,,,,,,
,,,,,41757,2021-10-03_19h42.12.932,judgeSpeechMusic_20210919_logNormShiftAmp_detection_fixFreq,2020.1.2,Win32,60,,,,,,,,,,,,,,,,,,,,,,,,,,,,,,1,22.782,,0,0,26,26,70,1,stimuli/stim_20210919_power2amp/equal_lnn_AM2Hz_s55_1.m4a,,,,,,,,,,,,
,,,,,41757,2021-10-03_19h42.12.932,judgeSpeechMusic_20210919_logNormShiftAmp_detection_fixFreq,2020.1.2,Win32,60,,,,,,,,,,,,,,,,,,,,,,,,,,,,,,1,26.0122,,0,0,27,27,35,1,stimuli/stim_20210919_power2amp/equal_lnn_AM2Hz_s35_1.m4a,,,,,,,,,,,,
,,,,,41757,2021-10-03_19h42.12.932,judgeSpeechMusic_20210919_logNormShiftAmp_detection_fixFreq,2020.1.2,Win32,60,,,,,,,,,,,,,,,,,,,,,,,,,,,,,,1,7.2312,,0,0,28,28,49,1,stimuli/stim_20210919_power2amp/equal_lnn_AM2Hz_s45_18.m4a,,,,,,,,,,,,
,,,,,41757,2021-10-03_19h42.12.932,judgeSpeechMusic_20210919_logNormShiftAmp_detection_fixFreq,2020.1.2,Win32,60,,,,,,,,,,,,,,,,,,,,,,,,,,,,,,1,12.1538,,0,0,29,29,46,1,stimuli/stim_20210919_power2amp/equal_lnn_AM2Hz_s45_48.m4a,,,,,,,,,,,,
,,,,,41757,2021-10-03_19h42.12.932,judgeSpeechMusic_20210919_logNormShiftAmp_detection_fixFreq,2020.1.2,Win32,60,,,,,,,,,,,,,,,,,,,,,,,,,,,,,,1,6.8081,,0,0,30,30,38,1,stimuli/stim_20210919_power2amp/equal_lnn_AM2Hz_s35_3.m4a,,,,,,,,,,,,
,,,,,41757,2021-10-03_19h42.12.932,judgeSpeechMusic_20210919_logNormShiftAmp_detection_fixFreq,2020.1.2,Win32,60,,,,,,,,,,,,,,,,,,,,,,,,,,,,,,1,8.0091,,0,0,31,31,15,1,stimuli/stim_20210919_power2amp/equal_lnn_AM2Hz_s25_31.m4a,,,,,,,,,,,,
,,,,,41757,2021-10-03_19h42.12.932,judgeSpeechMusic_20210919_logNormShiftAmp_detection_fixFreq,2020.1.2,Win32,60,,,,,,,,,,,,,,,,,,,,,,,,,,,,,,1,7.1359,,0,0,32,32,6,1,stimuli/stim_20210919_power2amp/equal_lnn_AM2Hz_s15_14.m4a,,,,,,,,,,,,
,,,,,41757,2021-10-03_19h42.12.932,judgeSpeechMusic_20210919_logNormShiftAmp_detection_fixFreq,2020.1.2,Win32,60,,,,,,,,,,,,,,,,,,,,,,,,,,,,,,1,7.5347,,0,0,33,33,68,1,stimuli/stim_20210919_power2amp/equal_lnn_AM2Hz_s55_9.m4a,,,,,,,,,,,,
,,,,,41757,2021-10-03_19h42.12.932,judgeSpeechMusic_20210919_logNormShiftAmp_detection_fixFreq,2020.1.2,Win32,60,,,,,,,,,,,,,,,,,,,,,,,,,,,,,,1,10.1167,,0,0,34,34,10,1,stimuli/stim_20210919_power2amp/equal_lnn_AM2Hz_s15_31.m4a,,,,,,,,,,,,
,,,,,41757,2021-10-03_19h42.12.932,judgeSpeechMusic_20210919_logNormShiftAmp_detection_fixFreq,2020.1.2,Win32,60,,,,,,,,,,,,,,,,,,,,,,,,,,,,,,1,8.6198,,0,0,35,35,47,1,stimuli/stim_20210919_power2amp/equal_lnn_AM2Hz_s45_46.m4a,,,,,,,,,,,,
,,,,,41757,2021-10-03_19h42.12.932,judgeSpeechMusic_20210919_logNormShiftAmp_detection_fixFreq,2020.1.2,Win32,60,,,,,,,,,,,,,,,,,,,,,,,,,,,,,,1,6.6767,,0,0,36,36,56,1,stimuli/stim_20210919_power2amp/equal_lnn_AM2Hz_s45_41.m4a,,,,,,,,,,,,
,,,,,41757,2021-10-03_19h42.12.932,judgeSpeechMusic_20210919_logNormShiftAmp_detection_fixFreq,2020.1.2,Win32,60,,,,,,,,,,,,,,,,,,,,,,,,,,,,,,1,7.3354,,0,0,37,37,74,1,stimuli/stim_20210919_power2amp/equal_lnn_AM2Hz_s55_3.m4a,,,,,,,,,,,,
,,,,,41757,2021-10-03_19h42.12.932,judgeSpeechMusic_20210919_logNormShiftAmp_detection_fixFreq,2020.1.2,Win32,60,,,,,,,,,,,,,,,,,,,,,,,,,,,,,,1,5.9534,,0,0,38,38,50,1,stimuli/stim_20210919_power2amp/equal_lnn_AM2Hz_s45_38.m4a,,,,,,,,,,,,
,,,,,41757,2021-10-03_19h42.12.932,judgeSpeechMusic_20210919_logNormShiftAmp_detection_fixFreq,2020.1.2,Win32,60,,,,,,,,,,,,,,,,,,,,,,,,,,,,,,1,6.0402,2,1,0,39,39,39,1,stimuli/stim_20210919_power2amp/equal_lnn_AM2Hz_s35_46.m4a,1.9789,,,,,,,,,,,
,,,,,41757,2021-10-03_19h42.12.932,judgeSpeechMusic_20210919_logNormShiftAmp_detection_fixFreq,2020.1.2,Win32,60,,,,,,,,,,,,,,,,,,,,,,,,,,,,,,1,7.9071,,0,0,40,40,12,1,stimuli/stim_20210919_power2amp/equal_lnn_AM2Hz_s15_38.m4a,,,,,,,,,,,,
,,,,,41757,2021-10-03_19h42.12.932,judgeSpeechMusic_20210919_logNormShiftAmp_detection_fixFreq,2020.1.2,Win32,60,,,,,,,,,,,,,,,,,,,,,,,,,,,,,,1,5.8974,,0,0,41,41,29,1,stimuli/stim_20210919_power2amp/equal_lnn_AM2Hz_s25_35.m4a,,,,,,,,,,,,
,,,,,41757,2021-10-03_19h42.12.932,judgeSpeechMusic_20210919_logNormShiftAmp_detection_fixFreq,2020.1.2,Win32,60,,,,,,,,,,,,,,,,,,,,,,,,,,,,,,1,5.7327,,0,0,42,42,18,1,stimuli/stim_20210919_power2amp/equal_lnn_AM2Hz_s25_2.m4a,,,,,,,,,,,,
,,,,,41757,2021-10-03_19h42.12.932,judgeSpeechMusic_20210919_logNormShiftAmp_detection_fixFreq,2020.1.2,Win32,60,,,,,,,,,,,,,,,,,,,,,,,,,,,,,,1,11.2205,,0,0,43,43,54,1,stimuli/stim_20210919_power2amp/equal_lnn_AM2Hz_s45_39.m4a,,,,,,,,,,,,
,,,,,41757,2021-10-03_19h42.12.932,judgeSpeechMusic_20210919_logNormShiftAmp_detection_fixFreq,2020.1.2,Win32,60,,,,,,,,,,,,,,,,,,,,,,,,,,,,,,1,6.2231,,0,0,44,44,24,1,stimuli/stim_20210919_power2amp/equal_lnn_AM2Hz_s25_28.m4a,,,,,,,,,,,,
,,,,,41757,2021-10-03_19h42.12.932,judgeSpeechMusic_20210919_logNormShiftAmp_detection_fixFreq,2020.1.2,Win32,60,,,,,,,,,,,,,,,,,,,,,,,,,,,,,,1,8.1676,,0,0,45,45,53,1,stimuli/stim_20210919_power2amp/equal_lnn_AM2Hz_s45_19.m4a,,,,,,,,,,,,
,,,,,41757,2021-10-03_19h42.12.932,judgeSpeechMusic_20210919_logNormShiftAmp_detection_fixFreq,2020.1.2,Win32,60,,,,,,,,,,,,,,,,,,,,,,,,,,,,,,1,6.6516,,0,0,46,46,22,1,stimuli/stim_20210919_power2amp/equal_lnn_AM2Hz_s25_32.m4a,,,,,,,,,,,,
,,,,,41757,2021-10-03_19h42.12.932,judgeSpeechMusic_20210919_logNormShiftAmp_detection_fixFreq,2020.1.2,Win32,60,,,,,,,,,,,,,,,,,,,,,,,,,,,,,,1,6.6954,,0,0,47,47,14,1,stimuli/stim_20210919_power2amp/equal_lnn_AM2Hz_s15_37.m4a,,,,,,,,,,,,
,,,,,41757,2021-10-03_19h42.12.932,judgeSpeechMusic_20210919_logNormShiftAmp_detection_fixFreq,2020.1.2,Win32,60,,,,,,,,,,,,,,,,,,,,,,,,,,,,,,2,7.1518,,0,0,48,48,71,1,stimuli/stim_20210919_power2amp/equal_lnn_AM2Hz_s55_32.m4a,,,,,,,,,,,,
,,,,,41757,2021-10-03_19h42.12.932,judgeSpeechMusic_20210919_logNormShiftAmp_detection_fixFreq,2020.1.2,Win32,60,,,,,,,,,,,,,,,,,,,,,,,,,,,,,,1,6.2517,,0,0,49,49,51,1,stimuli/stim_20210919_power2amp/equal_lnn_AM2Hz_s45_22.m4a,,,,,,,,,,,,
,,,,,41757,2021-10-03_19h42.12.932,judgeSpeechMusic_20210919_logNormShiftAmp_detection_fixFreq,2020.1.2,Win32,60,,,,,,,,,,,,,,,,,,,,,,,,,,,,,,1,6.1,,0,0,50,50,30,1,stimuli/stim_20210919_power2amp/equal_lnn_AM2Hz_s35_34.m4a,,,,,,,,,,,,
,,,,,41757,2021-10-03_19h42.12.932,judgeSpeechMusic_20210919_logNormShiftAmp_detection_fixFreq,2020.1.2,Win32,60,,,,,,,,,,,,,,,,,,,,,,,,,,,,,,1,7.1207,,0,0,51,51,5,1,stimuli/stim_20210919_power2amp/equal_lnn_AM2Hz_s15_2.m4a,,,,,,,,,,,,
,,,,,41757,2021-10-03_19h42.12.932,judgeSpeechMusic_20210919_logNormShiftAmp_detection_fixFreq,2020.1.2,Win32,60,,,,,,,,,,,,,,,,,,,,,,,,,,,,,,1,12.1324,,0,0,52,52,45,1,stimuli/stim_20210919_power2amp/equal_lnn_AM2Hz_s45_33.m4a,,,,,,,,,,,,
,,,,,41757,2021-10-03_19h42.12.932,judgeSpeechMusic_20210919_logNormShiftAmp_detection_fixFreq,2020.1.2,Win32,60,,,,,,,,,,,,,,,,,,,,,,,,,,,,,,1,5.7191,,0,0,53,53,34,1,stimuli/stim_20210919_power2amp/equal_lnn_AM2Hz_s35_42.m4a,,,,,,,,,,,,
,,,,,41757,2021-10-03_19h42.12.932,judgeSpeechMusic_20210919_logNormShiftAmp_detection_fixFreq,2020.1.2,Win32,60,,,,,,,,,,,,,,,,,,,,,,,,,,,,,,1,6.2363,,0,0,54,54,43,1,stimuli/stim_20210919_power2amp/equal_lnn_AM2Hz_s35_48.m4a,,,,,,,,,,,,
,,,,,41757,2021-10-03_19h42.12.932,judgeSpeechMusic_20210919_logNormShiftAmp_detection_fixFreq,2020.1.2,Win32,60,,,,,,,,,,,,,,,,,,,,,,,,,,,,,,1,5.7698,,0,0,55,55,52,1,stimuli/stim_20210919_power2amp/equal_lnn_AM2Hz_s45_29.m4a,,,,,,,,,,,,
,,,,,41757,2021-10-03_19h42.12.932,judgeSpeechMusic_20210919_logNormShiftAmp_detection_fixFreq,2020.1.2,Win32,60,,,,,,,,,,,,,,,,,,,,,,,,,,,,,,1,5.758,,0,0,56,56,3,1,stimuli/stim_20210919_power2amp/equal_lnn_AM2Hz_s15_11.m4a,,,,,,,,,,,,
,,,,,41757,2021-10-03_19h42.12.932,judgeSpeechMusic_20210919_logNormShiftAmp_detection_fixFreq,2020.1.2,Win32,60,,,,,,,,,,,,,,,,,,,,,,,,,,,,,,1,7.2663,2,1,0,57,57,48,1,stimuli/stim_20210919_power2amp/equal_lnn_AM2Hz_s45_17.m4a,4.1774,,,,,,,,,,,
,,,,,41757,2021-10-03_19h42.12.932,judgeSpeechMusic_20210919_logNormShiftAmp_detection_fixFreq,2020.1.2,Win32,60,,,,,,,,,,,,,,,,,,,,,,,,,,,,,,1,6.0707,,0,0,58,58,66,1,stimuli/stim_20210919_power2amp/equal_lnn_AM2Hz_s55_16.m4a,,,,,,,,,,,,
,,,,,41757,2021-10-03_19h42.12.932,judgeSpeechMusic_20210919_logNormShiftAmp_detection_fixFreq,2020.1.2,Win32,60,,,,,,,,,,,,,,,,,,,,,,,,,,,,,,2,6.0588,,0,0,59,59,26,1,stimuli/stim_20210919_power2amp/equal_lnn_AM2Hz_s25_33.m4a,,,,,,,,,,,,
,,,,,41757,2021-10-03_19h42.12.932,judgeSpeechMusic_20210919_logNormShiftAmp_detection_fixFreq,2020.1.2,Win32,60,,,,,,,,,,,,,,,,,,,,,,,,,,,,,,1,5.895,,0,0,60,60,57,1,stimuli/stim_20210919_power2amp/equal_lnn_AM2Hz_s45_37.m4a,,,,,,,,,,,,
,,,,,41757,2021-10-03_19h42.12.932,judgeSpeechMusic_20210919_logNormShiftAmp_detection_fixFreq,2020.1.2,Win32,60,,,,,,,,,,,,,,,,,,,,,,,,,,,,,,1,6.7398,,0,0,61,61,0,1,stimuli/stim_20210919_power2amp/equal_lnn_AM2Hz_s15_13.m4a,,,,,,,,,,,,
,,,,,41757,2021-10-03_19h42.12.932,judgeSpeechMusic_20210919_logNormShiftAmp_detection_fixFreq,2020.1.2,Win32,60,,,,,,,,,,,,,,,,,,,,,,,,,,,,,,1,5.6287,,0,0,62,62,59,1,stimuli/stim_20210919_power2amp/equal_lnn_AM2Hz_s45_15.m4a,,,,,,,,,,,,
,,,,,41757,2021-10-03_19h42.12.932,judgeSpeechMusic_20210919_logNormShiftAmp_detection_fixFreq,2020.1.2,Win32,60,,,,,,,,,,,,,,,,,,,,,,,,,,,,,,1,5.5427,,0,0,63,63,72,1,stimuli/stim_20210919_power2amp/equal_lnn_AM2Hz_s55_43.m4a,,,,,,,,,,,,
,,,,,41757,2021-10-03_19h42.12.932,judgeSpeechMusic_20210919_logNormShiftAmp_detection_fixFreq,2020.1.2,Win32,60,,,,,,,,,,,,,,,,,,,,,,,,,,,,,,1,5.6221,,0,0,64,64,7,1,stimuli/stim_20210919_power2amp/equal_lnn_AM2Hz_s15_19.m4a,,,,,,,,,,,,
,,,,,41757,2021-10-03_19h42.12.932,judgeSpeechMusic_20210919_logNormShiftAmp_detection_fixFreq,2020.1.2,Win32,60,,,,,,,,,,,,,,,,,,,,,,,,,,,,,,1,5.5633,,0,0,65,65,31,1,stimuli/stim_20210919_power2amp/equal_lnn_AM2Hz_s35_17.m4a,,,,,,,,,,,,
,,,,,41757,2021-10-03_19h42.12.932,judgeSpeechMusic_20210919_logNormShiftAmp_detection_fixFreq,2020.1.2,Win32,60,,,,,,,,,,,,,,,,,,,,,,,,,,,,,,1,6.0261,,0,0,66,66,37,1,stimuli/stim_20210919_power2amp/equal_lnn_AM2Hz_s35_30.m4a,,,,,,,,,,,,
,,,,,41757,2021-10-03_19h42.12.932,judgeSpeechMusic_20210919_logNormShiftAmp_detection_fixFreq,2020.1.2,Win32,60,,,,,,,,,,,,,,,,,,,,,,,,,,,,,,1,8.7222,,0,0,67,67,63,1,stimuli/stim_20210919_power2amp/equal_lnn_AM2Hz_s55_18.m4a,,,,,,,,,,,,
,,,,,41757,2021-10-03_19h42.12.932,judgeSpeechMusic_20210919_logNormShiftAmp_detection_fixFreq,2020.1.2,Win32,60,,,,,,,,,,,,,,,,,,,,,,,,,,,,,,1,5.9234,,0,0,68,68,33,1,stimuli/stim_20210919_power2amp/equal_lnn_AM2Hz_s35_40.m4a,,,,,,,,,,,,
,,,,,41757,2021-10-03_19h42.12.932,judgeSpeechMusic_20210919_logNormShiftAmp_detection_fixFreq,2020.1.2,Win32,60,,,,,,,,,,,,,,,,,,,,,,,,,,,,,,1,6.8553,,0,0,69,69,11,1,stimuli/stim_20210919_power2amp/equal_lnn_AM2Hz_s15_16.m4a,,,,,,,,,,,,
,,,,,41757,2021-10-03_19h42.12.932,judgeSpeechMusic_20210919_logNormShiftAmp_detection_fixFreq,2020.1.2,Win32,60,,,,,,,,,,,,,,,,,,,,,,,,,,,,,,1,5.9871,,0,0,70,70,16,1,stimuli/stim_20210919_power2amp/equal_lnn_AM2Hz_s25_38.m4a,,,,,,,,,,,,
,,,,,41757,2021-10-03_19h42.12.932,judgeSpeechMusic_20210919_logNormShiftAmp_detection_fixFreq,2020.1.2,Win32,60,,,,,,,,,,,,,,,,,,,,,,,,,,,,,,1,5.3588,,0,0,71,71,67,1,stimuli/stim_20210919_power2amp/equal_lnn_AM2Hz_s55_7.m4a,,,,,,,,,,,,
,,,,,41757,2021-10-03_19h42.12.932,judgeSpeechMusic_20210919_logNormShiftAmp_detection_fixFreq,2020.1.2,Win32,60,,,,,,,,,,,,,,,,,,,,,,,,,,,,,,1,5.7558,,0,0,72,72,60,1,stimuli/stim_20210919_power2amp/equal_lnn_AM2Hz_s55_25.m4a,,,,,,,,,,,,
,,,,,41757,2021-10-03_19h42.12.932,judgeSpeechMusic_20210919_logNormShiftAmp_detection_fixFreq,2020.1.2,Win32,60,,,,,,,,,,,,,,,,,,,,,,,,,,,,,,1,5.598,,0,0,73,73,64,1,stimuli/stim_20210919_power2amp/equal_lnn_AM2Hz_s55_49.m4a,,,,,,,,,,,,
,,,,,41757,2021-10-03_19h42.12.932,judgeSpeechMusic_20210919_logNormShiftAmp_detection_fixFreq,2020.1.2,Win32,60,,,,,,,,,,,,,,,,,,,,,,,,,,,,,,1,5.421,,0,0,74,74,40,1,stimuli/stim_20210919_power2amp/equal_lnn_AM2Hz_s35_39.m4a,,,,,,,,,,,,
,,,,,41757,2021-10-03_19h42.12.932,judgeSpeechMusic_20210919_logNormShiftAmp_detection_fixFreq,2020.1.2,Win32,60,,,,,,,,,,,,,,,,,,,,,,,,,,,,,,,,,,,,,,,,,space,4.8691,0,1,1,1,1,SPEECH,stimuli/SPEECH.jpg,,
,,,,,41757,2021-10-03_19h42.12.932,judgeSpeechMusic_20210919_logNormShiftAmp_detection_fixFreq,2020.1.2,Win32,60,,,,,,,,,,,,,,,,,,0,0,0,0,3,1,stimuli/stim_20210919_power2amp/equal_lnn_AM_training2Hz_s50.m4a,,,,,,,,,,,,,,,,,,,,,,,,,,,
,,,,,41757,2021-10-03_19h42.12.932,judgeSpeechMusic_20210919_logNormShiftAmp_detection_fixFreq,2020.1.2,Win32,60,,,,,,,,,,,,,,,,,,,,,,,,,,space,5.3387,space,22.2607,1,8.7607,,0,0,0,0,56,1,stimuli/stim_20210919_power2amp/equal_lnn_AM2Hz_s45_41.m4a,,,,,,,,,,,,
,,,,,41757,2021-10-03_19h42.12.932,judgeSpeechMusic_20210919_logNormShiftAmp_detection_fixFreq,2020.1.2,Win32,60,,,,,,,,,,,,,,,,,,,,,,,,,,,,,,1,10.5039,,0,0,1,1,15,1,stimuli/stim_20210919_power2amp/equal_lnn_AM2Hz_s25_31.m4a,,,,,,,,,,,,
,,,,,41757,2021-10-03_19h42.12.932,judgeSpeechMusic_20210919_logNormShiftAmp_detection_fixFreq,2020.1.2,Win32,60,,,,,,,,,,,,,,,,,,,,,,,,,,,,,,1,5.9002,,0,0,2,2,52,1,stimuli/stim_20210919_power2amp/equal_lnn_AM2Hz_s45_29.m4a,,,,,,,,,,,,
,,,,,41757,2021-10-03_19h42.12.932,judgeSpeechMusic_20210919_logNormShiftAmp_detection_fixFreq,2020.1.2,Win32,60,,,,,,,,,,,,,,,,,,,,,,,,,,,,,,1,5.8216,,0,0,3,3,55,1,stimuli/stim_20210919_power2amp/equal_lnn_AM2Hz_s45_20.m4a,,,,,,,,,,,,
,,,,,41757,2021-10-03_19h42.12.932,judgeSpeechMusic_20210919_logNormShiftAmp_detection_fixFreq,2020.1.2,Win32,60,,,,,,,,,,,,,,,,,,,,,,,,,,,,,,1,6.4556,,0,0,4,4,46,1,stimuli/stim_20210919_power2amp/equal_lnn_AM2Hz_s45_48.m4a,,,,,,,,,,,,
,,,,,41757,2021-10-03_19h42.12.932,judgeSpeechMusic_20210919_logNormShiftAmp_detection_fixFreq,2020.1.2,Win32,60,,,,,,,,,,,,,,,,,,,,,,,,,,,,,,1,7.3485,,0,0,5,5,53,1,stimuli/stim_20210919_power2amp/equal_lnn_AM2Hz_s45_19.m4a,,,,,,,,,,,,
,,,,,41757,2021-10-03_19h42.12.932,judgeSpeechMusic_20210919_logNormShiftAmp_detection_fixFreq,2020.1.2,Win32,60,,,,,,,,,,,,,,,,,,,,,,,,,,,,,,1,6.5788,,0,0,6,6,73,1,stimuli/stim_20210919_power2amp/equal_lnn_AM2Hz_s55_38.m4a,,,,,,,,,,,,
,,,,,41757,2021-10-03_19h42.12.932,judgeSpeechMusic_20210919_logNormShiftAmp_detection_fixFreq,2020.1.2,Win32,60,,,,,,,,,,,,,,,,,,,,,,,,,,,,,,1,6.0108,,0,0,7,7,30,1,stimuli/stim_20210919_power2amp/equal_lnn_AM2Hz_s35_34.m4a,,,,,,,,,,,,
,,,,,41757,2021-10-03_19h42.12.932,judgeSpeechMusic_20210919_logNormShiftAmp_detection_fixFreq,2020.1.2,Win32,60,,,,,,,,,,,,,,,,,,,,,,,,,,,,,,1,5.9718,,0,0,8,8,57,1,stimuli/stim_20210919_power2amp/equal_lnn_AM2Hz_s45_37.m4a,,,,,,,,,,,,
,,,,,41757,2021-10-03_19h42.12.932,judgeSpeechMusic_20210919_logNormShiftAmp_detection_fixFreq,2020.1.2,Win32,60,,,,,,,,,,,,,,,,,,,,,,,,,,,,,,1,8.9804,,0,0,9,9,22,1,stimuli/stim_20210919_power2amp/equal_lnn_AM2Hz_s25_32.m4a,,,,,,,,,,,,
,,,,,41757,2021-10-03_19h42.12.932,judgeSpeechMusic_20210919_logNormShiftAmp_detection_fixFreq,2020.1.2,Win32,60,,,,,,,,,,,,,,,,,,,,,,,,,,,,,,1,9.9975,,0,0,10,10,47,1,stimuli/stim_20210919_power2amp/equal_lnn_AM2Hz_s45_46.m4a,,,,,,,,,,,,
,,,,,41757,2021-10-03_19h42.12.932,judgeSpeechMusic_20210919_logNormShiftAmp_detection_fixFreq,2020.1.2,Win32,60,,,,,,,,,,,,,,,,,,,,,,,,,,,,,,1,8.4688,,0,0,11,11,74,1,stimuli/stim_20210919_power2amp/equal_lnn_AM2Hz_s55_3.m4a,,,,,,,,,,,,
,,,,,41757,2021-10-03_19h42.12.932,judgeSpeechMusic_20210919_logNormShiftAmp_detection_fixFreq,2020.1.2,Win32,60,,,,,,,,,,,,,,,,,,,,,,,,,,,,,,1,6.8048,,0,0,12,12,31,1,stimuli/stim_20210919_power2amp/equal_lnn_AM2Hz_s35_17.m4a,,,,,,,,,,,,
,,,,,41757,2021-10-03_19h42.12.932,judgeSpeechMusic_20210919_logNormShiftAmp_detection_fixFreq,2020.1.2,Win32,60,,,,,,,,,,,,,,,,,,,,,,,,,,,,,,1,6.0741,,0,0,13,13,17,1,stimuli/stim_20210919_power2amp/equal_lnn_AM2Hz_s25_12.m4a,,,,,,,,,,,,
,,,,,41757,2021-10-03_19h42.12.932,judgeSpeechMusic_20210919_logNormShiftAmp_detection_fixFreq,2020.1.2,Win32,60,,,,,,,,,,,,,,,,,,,,,,,,,,,,,,1,6.6097,,0,0,14,14,62,1,stimuli/stim_20210919_power2amp/equal_lnn_AM2Hz_s55_45.m4a,,,,,,,,,,,,
,,,,,41757,2021-10-03_19h42.12.932,judgeSpeechMusic_20210919_logNormShiftAmp_detection_fixFreq,2020.1.2,Win32,60,,,,,,,,,,,,,,,,,,,,,,,,,,,,,,1,8.9305,,0,0,15,15,45,1,stimuli/stim_20210919_power2amp/equal_lnn_AM2Hz_s45_33.m4a,,,,,,,,,,,,
,,,,,41757,2021-10-03_19h42.12.932,judgeSpeechMusic_20210919_logNormShiftAmp_detection_fixFreq,2020.1.2,Win32,60,,,,,,,,,,,,,,,,,,,,,,,,,,,,,,1,6.7068,,0,0,16,16,35,1,stimuli/stim_20210919_power2amp/equal_lnn_AM2Hz_s35_1.m4a,,,,,,,,,,,,
,,,,,41757,2021-10-03_19h42.12.932,judgeSpeechMusic_20210919_logNormShiftAmp_detection_fixFreq,2020.1.2,Win32,60,,,,,,,,,,,,,,,,,,,,,,,,,,,,,,1,5.9047,,0,0,17,17,33,1,stimuli/stim_20210919_power2amp/equal_lnn_AM2Hz_s35_40.m4a,,,,,,,,,,,,
,,,,,41757,2021-10-03_19h42.12.932,judgeSpeechMusic_20210919_logNormShiftAmp_detection_fixFreq,2020.1.2,Win32,60,,,,,,,,,,,,,,,,,,,,,,,,,,,,,,1,7.5243,3,1,0,18,18,7,1,stimuli/stim_20210919_power2amp/equal_lnn_AM2Hz_s15_19.m4a,1.778,,,,,,,,,,,
,,,,,41757,2021-10-03_19h42.12.932,judgeSpeechMusic_20210919_logNormShiftAmp_detection_fixFreq,2020.1.2,Win32,60,,,,,,,,,,,,,,,,,,,,,,,,,,,,,,1,8.7693,,0,0,19,19,44,1,stimuli/stim_20210919_power2amp/equal_lnn_AM2Hz_s35_50.m4a,,,,,,,,,,,,
,,,,,41757,2021-10-03_19h42.12.932,judgeSpeechMusic_20210919_logNormShiftAmp_detection_fixFreq,2020.1.2,Win32,60,,,,,,,,,,,,,,,,,,,,,,,,,,,,,,1,6.4841,,0,0,20,20,61,1,stimuli/stim_20210919_power2amp/equal_lnn_AM2Hz_s55_36.m4a,,,,,,,,,,,,
,,,,,41757,2021-10-03_19h42.12.932,judgeSpeechMusic_20210919_logNormShiftAmp_detection_fixFreq,2020.1.2,Win32,60,,,,,,,,,,,,,,,,,,,,,,,,,,,,,,1,8.256,,0,0,21,21,12,1,stimuli/stim_20210919_power2amp/equal_lnn_AM2Hz_s15_38.m4a,,,,,,,,,,,,
,,,,,41757,2021-10-03_19h42.12.932,judgeSpeechMusic_20210919_logNormShiftAmp_detection_fixFreq,2020.1.2,Win32,60,,,,,,,,,,,,,,,,,,,,,,,,,,,,,,1,11.6905,,0,0,22,22,23,1,stimuli/stim_20210919_power2amp/equal_lnn_AM2Hz_s25_7.m4a,,,,,,,,,,,,
,,,,,41757,2021-10-03_19h42.12.932,judgeSpeechMusic_20210919_logNormShiftAmp_detection_fixFreq,2020.1.2,Win32,60,,,,,,,,,,,,,,,,,,,,,,,,,,,,,,1,12.5028,,0,0,23,23,16,1,stimuli/stim_20210919_power2amp/equal_lnn_AM2Hz_s25_38.m4a,,,,,,,,,,,,
,,,,,41757,2021-10-03_19h42.12.932,judgeSpeechMusic_20210919_logNormShiftAmp_detection_fixFreq,2020.1.2,Win32,60,,,,,,,,,,,,,,,,,,,,,,,,,,,,,,1,8.5833,,0,0,24,24,40,1,stimuli/stim_20210919_power2amp/equal_lnn_AM2Hz_s35_39.m4a,,,,,,,,,,,,
,,,,,41757,2021-10-03_19h42.12.932,judgeSpeechMusic_20210919_logNormShiftAmp_detection_fixFreq,2020.1.2,Win32,60,,,,,,,,,,,,,,,,,,,,,,,,,,,,,,1,8.8164,,0,0,25,25,13,1,stimuli/stim_20210919_power2amp/equal_lnn_AM2Hz_s15_10.m4a,,,,,,,,,,,,
,,,,,41757,2021-10-03_19h42.12.932,judgeSpeechMusic_20210919_logNormShiftAmp_detection_fixFreq,2020.1.2,Win32,60,,,,,,,,,,,,,,,,,,,,,,,,,,,,,,1,8.9075,,0,0,26,26,48,1,stimuli/stim_20210919_power2amp/equal_lnn_AM2Hz_s45_17.m4a,,,,,,,,,,,,
,,,,,41757,2021-10-03_19h42.12.932,judgeSpeechMusic_20210919_logNormShiftAmp_detection_fixFreq,2020.1.2,Win32,60,,,,,,,,,,,,,,,,,,,,,,,,,,,,,,1,7.2175,,0,0,27,27,65,1,stimuli/stim_20210919_power2amp/equal_lnn_AM2Hz_s55_34.m4a,,,,,,,,,,,,
,,,,,41757,2021-10-03_19h42.12.932,judgeSpeechMusic_20210919_logNormShiftAmp_detection_fixFreq,2020.1.2,Win32,60,,,,,,,,,,,,,,,,,,,,,,,,,,,,,,1,10.3528,,0,0,28,28,38,1,stimuli/stim_20210919_power2amp/equal_lnn_AM2Hz_s35_3.m4a,,,,,,,,,,,,
,,,,,41757,2021-10-03_19h42.12.932,judgeSpeechMusic_20210919_logNormShiftAmp_detection_fixFreq,2020.1.2,Win32,60,,,,,,,,,,,,,,,,,,,,,,,,,,,,,,1,13.9201,,0,0,29,29,58,1,stimuli/stim_20210919_power2amp/equal_lnn_AM2Hz_s45_31.m4a,,,,,,,,,,,,
,,,,,41757,2021-10-03_19h42.12.932,judgeSpeechMusic_20210919_logNormShiftAmp_detection_fixFreq,2020.1.2,Win32,60,,,,,,,,,,,,,,,,,,,,,,,,,,,,,,1,6.5605,,0,0,30,30,3,1,stimuli/stim_20210919_power2amp/equal_lnn_AM2Hz_s15_11.m4a,,,,,,,,,,,,
,,,,,41757,2021-10-03_19h42.12.932,judgeSpeechMusic_20210919_logNormShiftAmp_detection_fixFreq,2020.1.2,Win32,60,,,,,,,,,,,,,,,,,,,,,,,,,,,,,,1,6.2,,0,0,31,31,1,1,stimuli/stim_20210919_power2amp/equal_lnn_AM2Hz_s15_18.m4a,,,,,,,,,,,,
,,,,,41757,2021-10-03_19h42.12.932,judgeSpeechMusic_20210919_logNormShiftAmp_detection_fixFreq,2020.1.2,Win32,60,,,,,,,,,,,,,,,,,,,,,,,,,,,,,,1,7.3723,,0,0,32,32,4,1,stimuli/stim_20210919_power2amp/equal_lnn_AM2Hz_s15_29.m4a,,,,,,,,,,,,
,,,,,41757,2021-10-03_19h42.12.932,judgeSpeechMusic_20210919_logNormShiftAmp_detection_fixFreq,2020.1.2,Win32,60,,,,,,,,,,,,,,,,,,,,,,,,,,,,,,1,6.8781,,0,0,33,33,0,1,stimuli/stim_20210919_power2amp/equal_lnn_AM2Hz_s15_13.m4a,,,,,,,,,,,,
,,,,,41757,2021-10-03_19h42.12.932,judgeSpeechMusic_20210919_logNormShiftAmp_detection_fixFreq,2020.1.2,Win32,60,,,,,,,,,,,,,,,,,,,,,,,,,,,,,,1,7.5934,,0,0,34,34,37,1,stimuli/stim_20210919_power2amp/equal_lnn_AM2Hz_s35_30.m4a,,,,,,,,,,,,
,,,,,41757,2021-10-03_19h42.12.932,judgeSpeechMusic_20210919_logNormShiftAmp_detection_fixFreq,2020.1.2,Win32,60,,,,,,,,,,,,,,,,,,,,,,,,,,,,,,1,10.3067,,0,0,35,35,34,1,stimuli/stim_20210919_power2amp/equal_lnn_AM2Hz_s35_42.m4a,,,,,,,,,,,,
,,,,,41757,2021-10-03_19h42.12.932,judgeSpeechMusic_20210919_logNormShiftAmp_detection_fixFreq,2020.1.2,Win32,60,,,,,,,,,,,,,,,,,,,,,,,,,,,,,,1,9.8503,,0,0,36,36,42,1,stimuli/stim_20210919_power2amp/equal_lnn_AM2Hz_s35_13.m4a,,,,,,,,,,,,
,,,,,41757,2021-10-03_19h42.12.932,judgeSpeechMusic_20210919_logNormShiftAmp_detection_fixFreq,2020.1.2,Win32,60,,,,,,,,,,,,,,,,,,,,,,,,,,,,,,1,9.1785,,0,0,37,37,32,1,stimuli/stim_20210919_power2amp/equal_lnn_AM2Hz_s35_8.m4a,,,,,,,,,,,,
,,,,,41757,2021-10-03_19h42.12.932,judgeSpeechMusic_20210919_logNormShiftAmp_detection_fixFreq,2020.1.2,Win32,60,,,,,,,,,,,,,,,,,,,,,,,,,,,,,,1,5.7281,,0,0,38,38,11,1,stimuli/stim_20210919_power2amp/equal_lnn_AM2Hz_s15_16.m4a,,,,,,,,,,,,
,,,,,41757,2021-10-03_19h42.12.932,judgeSpeechMusic_20210919_logNormShiftAmp_detection_fixFreq,2020.1.2,Win32,60,,,,,,,,,,,,,,,,,,,,,,,,,,,,,,1,6.8985,1,1,0,39,39,68,1,stimuli/stim_20210919_power2amp/equal_lnn_AM2Hz_s55_9.m4a,2.5963,,,,,,,,,,,
,,,,,41757,2021-10-03_19h42.12.932,judgeSpeechMusic_20210919_logNormShiftAmp_detection_fixFreq,2020.1.2,Win32,60,,,,,,,,,,,,,,,,,,,,,,,,,,,,,,1,10.5094,,0,0,40,40,64,1,stimuli/stim_20210919_power2amp/equal_lnn_AM2Hz_s55_49.m4a,,,,,,,,,,,,
,,,,,41757,2021-10-03_19h42.12.932,judgeSpeechMusic_20210919_logNormShiftAmp_detection_fixFreq,2020.1.2,Win32,60,,,,,,,,,,,,,,,,,,,,,,,,,,,,,,1,6.4794,,0,0,41,41,36,1,stimuli/stim_20210919_power2amp/equal_lnn_AM2Hz_s35_44.m4a,,,,,,,,,,,,
,,,,,41757,2021-10-03_19h42.12.932,judgeSpeechMusic_20210919_logNormShiftAmp_detection_fixFreq,2020.1.2,Win32,60,,,,,,,,,,,,,,,,,,,,,,,,,,,,,,1,11.7484,,0,0,42,42,51,1,stimuli/stim_20210919_power2amp/equal_lnn_AM2Hz_s45_22.m4a,,,,,,,,,,,,
,,,,,41757,2021-10-03_19h42.12.932,judgeSpeechMusic_20210919_logNormShiftAmp_detection_fixFreq,2020.1.2,Win32,60,,,,,,,,,,,,,,,,,,,,,,,,,,,,,,1,6.0516,,0,0,43,43,49,1,stimuli/stim_20210919_power2amp/equal_lnn_AM2Hz_s45_18.m4a,,,,,,,,,,,,
,,,,,41757,2021-10-03_19h42.12.932,judgeSpeechMusic_20210919_logNormShiftAmp_detection_fixFreq,2020.1.2,Win32,60,,,,,,,,,,,,,,,,,,,,,,,,,,,,,,1,5.992,,0,0,44,44,71,1,stimuli/stim_20210919_power2amp/equal_lnn_AM2Hz_s55_32.m4a,,,,,,,,,,,,
,,,,,41757,2021-10-03_19h42.12.932,judgeSpeechMusic_20210919_logNormShiftAmp_detection_fixFreq,2020.1.2,Win32,60,,,,,,,,,,,,,,,,,,,,,,,,,,,,,,1,7.9549,,0,0,45,45,24,1,stimuli/stim_20210919_power2amp/equal_lnn_AM2Hz_s25_28.m4a,,,,,,,,,,,,
,,,,,41757,2021-10-03_19h42.12.932,judgeSpeechMusic_20210919_logNormShiftAmp_detection_fixFreq,2020.1.2,Win32,60,,,,,,,,,,,,,,,,,,,,,,,,,,,,,,1,6.6117,,0,0,46,46,54,1,stimuli/stim_20210919_power2amp/equal_lnn_AM2Hz_s45_39.m4a,,,,,,,,,,,,
,,,,,41757,2021-10-03_19h42.12.932,judgeSpeechMusic_20210919_logNormShiftAmp_detection_fixFreq,2020.1.2,Win32,60,,,,,,,,,,,,,,,,,,,,,,,,,,,,,,1,6.4994,,0,0,47,47,26,1,stimuli/stim_20210919_power2amp/equal_lnn_AM2Hz_s25_33.m4a,,,,,,,,,,,,
,,,,,41757,2021-10-03_19h42.12.932,judgeSpeechMusic_20210919_logNormShiftAmp_detection_fixFreq,2020.1.2,Win32,60,,,,,,,,,,,,,,,,,,,,,,,,,,,,,,1,11.9906,,0,0,48,48,27,1,stimuli/stim_20210919_power2amp/equal_lnn_AM2Hz_s25_5.m4a,,,,,,,,,,,,
,,,,,41757,2021-10-03_19h42.12.932,judgeSpeechMusic_20210919_logNormShiftAmp_detection_fixFreq,2020.1.2,Win32,60,,,,,,,,,,,,,,,,,,,,,,,,,,,,,,1,7.2756,,0,0,49,49,69,1,stimuli/stim_20210919_power2amp/equal_lnn_AM2Hz_s55_33.m4a,,,,,,,,,,,,
,,,,,41757,2021-10-03_19h42.12.932,judgeSpeechMusic_20210919_logNormShiftAmp_detection_fixFreq,2020.1.2,Win32,60,,,,,,,,,,,,,,,,,,,,,,,,,,,,,,1,8.0832,,0,0,50,50,39,1,stimuli/stim_20210919_power2amp/equal_lnn_AM2Hz_s35_46.m4a,,,,,,,,,,,,
,,,,,41757,2021-10-03_19h42.12.932,judgeSpeechMusic_20210919_logNormShiftAmp_detection_fixFreq,2020.1.2,Win32,60,,,,,,,,,,,,,,,,,,,,,,,,,,,,,,1,6.1712,,0,0,51,51,2,1,stimuli/stim_20210919_power2amp/equal_lnn_AM2Hz_s15_36.m4a,,,,,,,,,,,,
,,,,,41757,2021-10-03_19h42.12.932,judgeSpeechMusic_20210919_logNormShiftAmp_detection_fixFreq,2020.1.2,Win32,60,,,,,,,,,,,,,,,,,,,,,,,,,,,,,,1,6.0126,,0,0,52,52,29,1,stimuli/stim_20210919_power2amp/equal_lnn_AM2Hz_s25_35.m4a,,,,,,,,,,,,
,,,,,41757,2021-10-03_19h42.12.932,judgeSpeechMusic_20210919_logNormShiftAmp_detection_fixFreq,2020.1.2,Win32,60,,,,,,,,,,,,,,,,,,,,,,,,,,,,,,1,7.8302,,0,0,53,53,9,1,stimuli/stim_20210919_power2amp/equal_lnn_AM2Hz_s15_43.m4a,,,,,,,,,,,,
,,,,,41757,2021-10-03_19h42.12.932,judgeSpeechMusic_20210919_logNormShiftAmp_detection_fixFreq,2020.1.2,Win32,60,,,,,,,,,,,,,,,,,,,,,,,,,,,,,,1,9.983,,0,0,54,54,18,1,stimuli/stim_20210919_power2amp/equal_lnn_AM2Hz_s25_2.m4a,,,,,,,,,,,,
,,,,,41757,2021-10-03_19h42.12.932,judgeSpeechMusic_20210919_logNormShiftAmp_detection_fixFreq,2020.1.2,Win32,60,,,,,,,,,,,,,,,,,,,,,,,,,,,,,,1,6.7815,,0,0,55,55,21,1,stimuli/stim_20210919_power2amp/equal_lnn_AM2Hz_s25_36.m4a,,,,,,,,,,,,
,,,,,41757,2021-10-03_19h42.12.932,judgeSpeechMusic_20210919_logNormShiftAmp_detection_fixFreq,2020.1.2,Win32,60,,,,,,,,,,,,,,,,,,,,,,,,,,,,,,1,7.19,,0,0,56,56,43,1,stimuli/stim_20210919_power2amp/equal_lnn_AM2Hz_s35_48.m4a,,,,,,,,,,,,
,,,,,41757,2021-10-03_19h42.12.932,judgeSpeechMusic_20210919_logNormShiftAmp_detection_fixFreq,2020.1.2,Win32,60,,,,,,,,,,,,,,,,,,,,,,,,,,,,,,1,11.5406,1,1,0,57,57,63,1,stimuli/stim_20210919_power2amp/equal_lnn_AM2Hz_s55_18.m4a,1.3552,,,,,,,,,,,
,,,,,41757,2021-10-03_19h42.12.932,judgeSpeechMusic_20210919_logNormShiftAmp_detection_fixFreq,2020.1.2,Win32,60,,,,,,,,,,,,,,,,,,,,,,,,,,,,,,1,6.1991,,0,0,58,58,19,1,stimuli/stim_20210919_power2amp/equal_lnn_AM2Hz_s25_6.m4a,,,,,,,,,,,,
,,,,,41757,2021-10-03_19h42.12.932,judgeSpeechMusic_20210919_logNormShiftAmp_detection_fixFreq,2020.1.2,Win32,60,,,,,,,,,,,,,,,,,,,,,,,,,,,,,,1,6.0952,,0,0,59,59,28,1,stimuli/stim_20210919_power2amp/equal_lnn_AM2Hz_s25_48.m4a,,,,,,,,,,,,
,,,,,41757,2021-10-03_19h42.12.932,judgeSpeechMusic_20210919_logNormShiftAmp_detection_fixFreq,2020.1.2,Win32,60,,,,,,,,,,,,,,,,,,,,,,,,,,,,,,1,5.973,,0,0,60,60,25,1,stimuli/stim_20210919_power2amp/equal_lnn_AM2Hz_s25_13.m4a,,,,,,,,,,,,
,,,,,41757,2021-10-03_19h42.12.932,judgeSpeechMusic_20210919_logNormShiftAmp_detection_fixFreq,2020.1.2,Win32,60,,,,,,,,,,,,,,,,,,,,,,,,,,,,,,1,5.689,,0,0,61,61,50,1,stimuli/stim_20210919_power2amp/equal_lnn_AM2Hz_s45_38.m4a,,,,,,,,,,,,
,,,,,41757,2021-10-03_19h42.12.932,judgeSpeechMusic_20210919_logNormShiftAmp_detection_fixFreq,2020.1.2,Win32,60,,,,,,,,,,,,,,,,,,,,,,,,,,,,,,1,5.903,,0,0,62,62,6,1,stimuli/stim_20210919_power2amp/equal_lnn_AM2Hz_s15_14.m4a,,,,,,,,,,,,
,,,,,41757,2021-10-03_19h42.12.932,judgeSpeechMusic_20210919_logNormShiftAmp_detection_fixFreq,2020.1.2,Win32,60,,,,,,,,,,,,,,,,,,,,,,,,,,,,,,1,5.5253,,0,0,63,63,10,1,stimuli/stim_20210919_power2amp/equal_lnn_AM2Hz_s15_31.m4a,,,,,,,,,,,,
,,,,,41757,2021-10-03_19h42.12.932,judgeSpeechMusic_20210919_logNormShiftAmp_detection_fixFreq,2020.1.2,Win32,60,,,,,,,,,,,,,,,,,,,,,,,,,,,,,,1,6.1935,,0,0,64,64,70,1,stimuli/stim_20210919_power2amp/equal_lnn_AM2Hz_s55_1.m4a,,,,,,,,,,,,
,,,,,41757,2021-10-03_19h42.12.932,judgeSpeechMusic_20210919_logNormShiftAmp_detection_fixFreq,2020.1.2,Win32,60,,,,,,,,,,,,,,,,,,,,,,,,,,,,,,1,9.837,,0,0,65,65,66,1,stimuli/stim_20210919_power2amp/equal_lnn_AM2Hz_s55_16.m4a,,,,,,,,,,,,
,,,,,41757,2021-10-03_19h42.12.932,judgeSpeechMusic_20210919_logNormShiftAmp_detection_fixFreq,2020.1.2,Win32,60,,,,,,,,,,,,,,,,,,,,,,,,,,,,,,1,7.1978,,0,0,66,66,67,1,stimuli/stim_20210919_power2amp/equal_lnn_AM2Hz_s55_7.m4a,,,,,,,,,,,,
,,,,,41757,2021-10-03_19h42.12.932,judgeSpeechMusic_20210919_logNormShiftAmp_detection_fixFreq,2020.1.2,Win32,60,,,,,,,,,,,,,,,,,,,,,,,,,,,,,,1,9.4801,,0,0,67,67,5,1,stimuli/stim_20210919_power2amp/equal_lnn_AM2Hz_s15_2.m4a,,,,,,,,,,,,
,,,,,41757,2021-10-03_19h42.12.932,judgeSpeechMusic_20210919_logNormShiftAmp_detection_fixFreq,2020.1.2,Win32,60,,,,,,,,,,,,,,,,,,,,,,,,,,,,,,1,7.424,,0,0,68,68,72,1,stimuli/stim_20210919_power2amp/equal_lnn_AM2Hz_s55_43.m4a,,,,,,,,,,,,
,,,,,41757,2021-10-03_19h42.12.932,judgeSpeechMusic_20210919_logNormShiftAmp_detection_fixFreq,2020.1.2,Win32,60,,,,,,,,,,,,,,,,,,,,,,,,,,,,,,1,6.0679,,0,0,69,69,20,1,stimuli/stim_20210919_power2amp/equal_lnn_AM2Hz_s25_30.m4a,,,,,,,,,,,,
,,,,,41757,2021-10-03_19h42.12.932,judgeSpeechMusic_20210919_logNormShiftAmp_detection_fixFreq,2020.1.2,Win32,60,,,,,,,,,,,,,,,,,,,,,,,,,,,,,,1,6.0423,,0,0,70,70,8,1,stimuli/stim_20210919_power2amp/equal_lnn_AM2Hz_s15_20.m4a,,,,,,,,,,,,
,,,,,41757,2021-10-03_19h42.12.932,judgeSpeechMusic_20210919_logNormShiftAmp_detection_fixFreq,2020.1.2,Win32,60,,,,,,,,,,,,,,,,,,,,,,,,,,,,,,1,5.8896,,0,0,71,71,59,1,stimuli/stim_20210919_power2amp/equal_lnn_AM2Hz_s45_15.m4a,,,,,,,,,,,,
,,,,,41757,2021-10-03_19h42.12.932,judgeSpeechMusic_20210919_logNormShiftAmp_detection_fixFreq,2020.1.2,Win32,60,,,,,,,,,,,,,,,,,,,,,,,,,,,,,,1,5.7876,,0,0,72,72,41,1,stimuli/stim_20210919_power2amp/equal_lnn_AM2Hz_s35_33.m4a,,,,,,,,,,,,
,,,,,41757,2021-10-03_19h42.12.932,judgeSpeechMusic_20210919_logNormShiftAmp_detection_fixFreq,2020.1.2,Win32,60,,,,,,,,,,,,,,,,,,,,,,,,,,,,,,1,5.9751,,0,0,73,73,60,1,stimuli/stim_20210919_power2amp/equal_lnn_AM2Hz_s55_25.m4a,,,,,,,,,,,,
,,,,,41757,2021-10-03_19h42.12.932,judgeSpeechMusic_20210919_logNormShiftAmp_detection_fixFreq,2020.1.2,Win32,60,,,,,,,,,,,,,,,,,,,,,,,,,,,,,,1,6.0413,,0,0,74,74,14,1,stimuli/stim_20210919_power2amp/equal_lnn_AM2Hz_s15_37.m4a,,,,,,,,,,,,
,,,,,41757,2021-10-03_19h42.12.932,judgeSpeechMusic_20210919_logNormShiftAmp_detection_fixFreq,2020.1.2,Win32,60,,,,,,,,,,,,,,,,,,,,,,,,,,,,,,,,,,,,,,,,,space,0.8726,1,0,2,1,1,SPEECH,stimuli/SPEECH.jpg,,
,,,,,41757,2021-10-03_19h42.12.932,judgeSpeechMusic_20210919_logNormShiftAmp_detection_fixFreq,2020.1.2,Win32,60,,,,,,,,,,,,,,,,,,0,0,0,0,0,1,stimuli/stim_20210919_power2amp/equal_lnn_AM_training2Hz_s20.m4a,,,,,,,,,,,,,,,,,,,,,,,,,,,
,,,,,41757,2021-10-03_19h42.12.932,judgeSpeechMusic_20210919_logNormShiftAmp_detection_fixFreq,2020.1.2,Win32,60,,,,,,,,,,,,,,,,,,,,,,,,,,space,5.8674,space,2.0368,1,6.0092,,0,0,0,0,55,1,stimuli/stim_20210919_power2amp/equal_lnn_AM2Hz_s45_20.m4a,,,,,,,,,,,,
,,,,,41757,2021-10-03_19h42.12.932,judgeSpeechMusic_20210919_logNormShiftAmp_detection_fixFreq,2020.1.2,Win32,60,,,,,,,,,,,,,,,,,,,,,,,,,,,,,,1,5.5912,,0,0,1,1,50,1,stimuli/stim_20210919_power2amp/equal_lnn_AM2Hz_s45_38.m4a,,,,,,,,,,,,
,,,,,41757,2021-10-03_19h42.12.932,judgeSpeechMusic_20210919_logNormShiftAmp_detection_fixFreq,2020.1.2,Win32,60,,,,,,,,,,,,,,,,,,,,,,,,,,,,,,1,5.3178,,0,0,2,2,74,1,stimuli/stim_20210919_power2amp/equal_lnn_AM2Hz_s55_3.m4a,,,,,,,,,,,,
,,,,,41757,2021-10-03_19h42.12.932,judgeSpeechMusic_20210919_logNormShiftAmp_detection_fixFreq,2020.1.2,Win32,60,,,,,,,,,,,,,,,,,,,,,,,,,,,,,,1,5.874,,0,0,3,3,40,1,stimuli/stim_20210919_power2amp/equal_lnn_AM2Hz_s35_39.m4a,,,,,,,,,,,,
,,,,,41757,2021-10-03_19h42.12.932,judgeSpeechMusic_20210919_logNormShiftAmp_detection_fixFreq,2020.1.2,Win32,60,,,,,,,,,,,,,,,,,,,,,,,,,,,,,,1,8.4118,,0,0,4,4,37,1,stimuli/stim_20210919_power2amp/equal_lnn_AM2Hz_s35_30.m4a,,,,,,,,,,,,
,,,,,41757,2021-10-03_19h42.12.932,judgeSpeechMusic_20210919_logNormShiftAmp_detection_fixFreq,2020.1.2,Win32,60,,,,,,,,,,,,,,,,,,,,,,,,,,,,,,1,6.2633,,0,0,5,5,0,1,stimuli/stim_20210919_power2amp/equal_lnn_AM2Hz_s15_13.m4a,,,,,,,,,,,,
,,,,,41757,2021-10-03_19h42.12.932,judgeSpeechMusic_20210919_logNormShiftAmp_detection_fixFreq,2020.1.2,Win32,60,,,,,,,,,,,,,,,,,,,,,,,,,,,,,,1,6.4091,,0,0,6,6,15,1,stimuli/stim_20210919_power2amp/equal_lnn_AM2Hz_s25_31.m4a,,,,,,,,,,,,
,,,,,41757,2021-10-03_19h42.12.932,judgeSpeechMusic_20210919_logNormShiftAmp_detection_fixFreq,2020.1.2,Win32,60,,,,,,,,,,,,,,,,,,,,,,,,,,,,,,1,6.351,,0,0,7,7,72,1,stimuli/stim_20210919_power2amp/equal_lnn_AM2Hz_s55_43.m4a,,,,,,,,,,,,
,,,,,41757,2021-10-03_19h42.12.932,judgeSpeechMusic_20210919_logNormShiftAmp_detection_fixFreq,2020.1.2,Win32,60,,,,,,,,,,,,,,,,,,,,,,,,,,,,,,1,7.2315,,0,0,8,8,43,1,stimuli/stim_20210919_power2amp/equal_lnn_AM2Hz_s35_48.m4a,,,,,,,,,,,,
,,,,,41757,2021-10-03_19h42.12.932,judgeSpeechMusic_20210919_logNormShiftAmp_detection_fixFreq,2020.1.2,Win32,60,,,,,,,,,,,,,,,,,,,,,,,,,,,,,,1,7.5063,,0,0,9,9,52,1,stimuli/stim_20210919_power2amp/equal_lnn_AM2Hz_s45_29.m4a,,,,,,,,,,,,
,,,,,41757,2021-10-03_19h42.12.932,judgeSpeechMusic_20210919_logNormShiftAmp_detection_fixFreq,2020.1.2,Win32,60,,,,,,,,,,,,,,,,,,,,,,,,,,,,,,1,6.1108,,0,0,10,10,47,1,stimuli/stim_20210919_power2amp/equal_lnn_AM2Hz_s45_46.m4a,,,,,,,,,,,,
,,,,,41757,2021-10-03_19h42.12.932,judgeSpeechMusic_20210919_logNormShiftAmp_detection_fixFreq,2020.1.2,Win32,60,,,,,,,,,,,,,,,,,,,,,,,,,,,,,,1,6.8599,,0,0,11,11,31,1,stimuli/stim_20210919_power2amp/equal_lnn_AM2Hz_s35_17.m4a,,,,,,,,,,,,
,,,,,41757,2021-10-03_19h42.12.932,judgeSpeechMusic_20210919_logNormShiftAmp_detection_fixFreq,2020.1.2,Win32,60,,,,,,,,,,,,,,,,,,,,,,,,,,,,,,1,10.7156,,0,0,12,12,32,1,stimuli/stim_20210919_power2amp/equal_lnn_AM2Hz_s35_8.m4a,,,,,,,,,,,,
,,,,,41757,2021-10-03_19h42.12.932,judgeSpeechMusic_20210919_logNormShiftAmp_detection_fixFreq,2020.1.2,Win32,60,,,,,,,,,,,,,,,,,,,,,,,,,,,,,,1,16.7707,,0,0,13,13,3,1,stimuli/stim_20210919_power2amp/equal_lnn_AM2Hz_s15_11.m4a,,,,,,,,,,,,
,,,,,41757,2021-10-03_19h42.12.932,judgeSpeechMusic_20210919_logNormShiftAmp_detection_fixFreq,2020.1.2,Win32,60,,,,,,,,,,,,,,,,,,,,,,,,,,,,,,1,10.3083,,0,0,14,14,35,1,stimuli/stim_20210919_power2amp/equal_lnn_AM2Hz_s35_1.m4a,,,,,,,,,,,,
,,,,,41757,2021-10-03_19h42.12.932,judgeSpeechMusic_20210919_logNormShiftAmp_detection_fixFreq,2020.1.2,Win32,60,,,,,,,,,,,,,,,,,,,,,,,,,,,,,,1,6.495,,0,0,15,15,1,1,stimuli/stim_20210919_power2amp/equal_lnn_AM2Hz_s15_18.m4a,,,,,,,,,,,,
,,,,,41757,2021-10-03_19h42.12.932,judgeSpeechMusic_20210919_logNormShiftAmp_detection_fixFreq,2020.1.2,Win32,60,,,,,,,,,,,,,,,,,,,,,,,,,,,,,,1,6.0118,,0,0,16,16,21,1,stimuli/stim_20210919_power2amp/equal_lnn_AM2Hz_s25_36.m4a,,,,,,,,,,,,
,,,,,41757,2021-10-03_19h42.12.932,judgeSpeechMusic_20210919_logNormShiftAmp_detection_fixFreq,2020.1.2,Win32,60,,,,,,,,,,,,,,,,,,,,,,,,,,,,,,1,26.8416,,0,0,17,17,61,1,stimuli/stim_20210919_power2amp/equal_lnn_AM2Hz_s55_36.m4a,,,,,,,,,,,,
,,,,,41757,2021-10-03_19h42.12.932,judgeSpeechMusic_20210919_logNormShiftAmp_detection_fixFreq,2020.1.2,Win32,60,,,,,,,,,,,,,,,,,,,,,,,,,,,,,,1,10.6366,3,1,0,18,18,67,1,stimuli/stim_20210919_power2amp/equal_lnn_AM2Hz_s55_7.m4a,7.1775,,,,,,,,,,,
,,,,,41757,2021-10-03_19h42.12.932,judgeSpeechMusic_20210919_logNormShiftAmp_detection_fixFreq,2020.1.2,Win32,60,,,,,,,,,,,,,,,,,,,,,,,,,,,,,,1,11.4072,,0,0,19,19,39,1,stimuli/stim_20210919_power2amp/equal_lnn_AM2Hz_s35_46.m4a,,,,,,,,,,,,
,,,,,41757,2021-10-03_19h42.12.932,judgeSpeechMusic_20210919_logNormShiftAmp_detection_fixFreq,2020.1.2,Win32,60,,,,,,,,,,,,,,,,,,,,,,,,,,,,,,1,23.1698,,0,0,20,20,34,1,stimuli/stim_20210919_power2amp/equal_lnn_AM2Hz_s35_42.m4a,,,,,,,,,,,,
,,,,,41757,2021-10-03_19h42.12.932,judgeSpeechMusic_20210919_logNormShiftAmp_detection_fixFreq,2020.1.2,Win32,60,,,,,,,,,,,,,,,,,,,,,,,,,,,,,,1,12.8123,,0,0,21,21,48,1,stimuli/stim_20210919_power2amp/equal_lnn_AM2Hz_s45_17.m4a,,,,,,,,,,,,
,,,,,41757,2021-10-03_19h42.12.932,judgeSpeechMusic_20210919_logNormShiftAmp_detection_fixFreq,2020.1.2,Win32,60,,,,,,,,,,,,,,,,,,,,,,,,,,,,,,1,8.1331,,0,0,22,22,46,1,stimuli/stim_20210919_power2amp/equal_lnn_AM2Hz_s45_48.m4a,,,,,,,,,,,,
,,,,,41757,2021-10-03_19h42.12.932,judgeSpeechMusic_20210919_logNormShiftAmp_detection_fixFreq,2020.1.2,Win32,60,,,,,,,,,,,,,,,,,,,,,,,,,,,,,,1,11.5403,,0,0,23,23,63,1,stimuli/stim_20210919_power2amp/equal_lnn_AM2Hz_s55_18.m4a,,,,,,,,,,,,
,,,,,41757,2021-10-03_19h42.12.932,judgeSpeechMusic_20210919_logNormShiftAmp_detection_fixFreq,2020.1.2,Win32,60,,,,,,,,,,,,,,,,,,,,,,,,,,,,,,1,34.3453,,0,0,24,24,64,1,stimuli/stim_20210919_power2amp/equal_lnn_AM2Hz_s55_49.m4a,,,,,,,,,,,,
,,,,,41757,2021-10-03_19h42.12.932,judgeSpeechMusic_20210919_logNormShiftAmp_detection_fixFreq,2020.1.2,Win32,60,,,,,,,,,,,,,,,,,,,,,,,,,,,,,,1,18.2194,,0,0,25,25,56,1,stimuli/stim_20210919_power2amp/equal_lnn_AM2Hz_s45_41.m4a,,,,,,,,,,,,
,,,,,41757,2021-10-03_19h42.12.932,judgeSpeechMusic_20210919_logNormShiftAmp_detection_fixFreq,2020.1.2,Win32,60,,,,,,,,,,,,,,,,,,,,,,,,,,,,,,1,26.6401,,0,0,26,26,12,1,stimuli/stim_20210919_power2amp/equal_lnn_AM2Hz_s15_38.m4a,,,,,,,,,,,,
,,,,,41757,2021-10-03_19h42.12.932,judgeSpeechMusic_20210919_logNormShiftAmp_detection_fixFreq,2020.1.2,Win32,60,,,,,,,,,,,,,,,,,,,,,,,,,,,,,,1,10.1457,,0,0,27,27,71,1,stimuli/stim_20210919_power2amp/equal_lnn_AM2Hz_s55_32.m4a,,,,,,,,,,,,
,,,,,41757,2021-10-03_19h42.12.932,judgeSpeechMusic_20210919_logNormShiftAmp_detection_fixFreq,2020.1.2,Win32,60,,,,,,,,,,,,,,,,,,,,,,,,,,,,,,1,12.9643,,0,0,28,28,60,1,stimuli/stim_20210919_power2amp/equal_lnn_AM2Hz_s55_25.m4a,,,,,,,,,,,,
,,,,,41757,2021-10-03_19h42.12.932,judgeSpeechMusic_20210919_logNormShiftAmp_detection_fixFreq,2020.1.2,Win32,60,,,,,,,,,,,,,,,,,,,,,,,,,,,,,,1,9.0596,,0,0,29,29,57,1,stimuli/stim_20210919_power2amp/equal_lnn_AM2Hz_s45_37.m4a,,,,,,,,,,,,
,,,,,41757,2021-10-03_19h42.12.932,judgeSpeechMusic_20210919_logNormShiftAmp_detection_fixFreq,2020.1.2,Win32,60,,,,,,,,,,,,,,,,,,,,,,,,,,,,,,1,5.691,,0,0,30,30,25,1,stimuli/stim_20210919_power2amp/equal_lnn_AM2Hz_s25_13.m4a,,,,,,,,,,,,
,,,,,41757,2021-10-03_19h42.12.932,judgeSpeechMusic_20210919_logNormShiftAmp_detection_fixFreq,2020.1.2,Win32,60,,,,,,,,,,,,,,,,,,,,,,,,,,,,,,1,6.2621,,0,0,31,31,9,1,stimuli/stim_20210919_power2amp/equal_lnn_AM2Hz_s15_43.m4a,,,,,,,,,,,,
,,,,,41757,2021-10-03_19h42.12.932,judgeSpeechMusic_20210919_logNormShiftAmp_detection_fixFreq,2020.1.2,Win32,60,,,,,,,,,,,,,,,,,,,,,,,,,,,,,,1,6.0868,,0,0,32,32,19,1,stimuli/stim_20210919_power2amp/equal_lnn_AM2Hz_s25_6.m4a,,,,,,,,,,,,
,,,,,41757,2021-10-03_19h42.12.932,judgeSpeechMusic_20210919_logNormShiftAmp_detection_fixFreq,2020.1.2,Win32,60,,,,,,,,,,,,,,,,,,,,,,,,,,,,,,1,20.0185,,0,0,33,33,27,1,stimuli/stim_20210919_power2amp/equal_lnn_AM2Hz_s25_5.m4a,,,,,,,,,,,,
,,,,,41757,2021-10-03_19h42.12.932,judgeSpeechMusic_20210919_logNormShiftAmp_detection_fixFreq,2020.1.2,Win32,60,,,,,,,,,,,,,,,,,,,,,,,,,,,,,,1,16.4461,,0,0,34,34,44,1,stimuli/stim_20210919_power2amp/equal_lnn_AM2Hz_s35_50.m4a,,,,,,,,,,,,
,,,,,41757,2021-10-03_19h42.12.932,judgeSpeechMusic_20210919_logNormShiftAmp_detection_fixFreq,2020.1.2,Win32,60,,,,,,,,,,,,,,,,,,,,,,,,,,,,,,1,17.358,,0,0,35,35,11,1,stimuli/stim_20210919_power2amp/equal_lnn_AM2Hz_s15_16.m4a,,,,,,,,,,,,
,,,,,41757,2021-10-03_19h42.12.932,judgeSpeechMusic_20210919_logNormShiftAmp_detection_fixFreq,2020.1.2,Win32,60,,,,,,,,,,,,,,,,,,,,,,,,,,,,,,1,7.6544,,0,0,36,36,42,1,stimuli/stim_20210919_power2amp/equal_lnn_AM2Hz_s35_13.m4a,,,,,,,,,,,,
,,,,,41757,2021-10-03_19h42.12.932,judgeSpeechMusic_20210919_logNormShiftAmp_detection_fixFreq,2020.1.2,Win32,60,,,,,,,,,,,,,,,,,,,,,,,,,,,,,,1,7.103,,0,0,37,37,38,1,stimuli/stim_20210919_power2amp/equal_lnn_AM2Hz_s35_3.m4a,,,,,,,,,,,,
,,,,,41757,2021-10-03_19h42.12.932,judgeSpeechMusic_20210919_logNormShiftAmp_detection_fixFreq,2020.1.2,Win32,60,,,,,,,,,,,,,,,,,,,,,,,,,,,,,,1,10.9491,,0,0,38,38,23,1,stimuli/stim_20210919_power2amp/equal_lnn_AM2Hz_s25_7.m4a,,,,,,,,,,,,
,,,,,41757,2021-10-03_19h42.12.932,judgeSpeechMusic_20210919_logNormShiftAmp_detection_fixFreq,2020.1.2,Win32,60,,,,,,,,,,,,,,,,,,,,,,,,,,,,,,1,9.0902,1,1,0,39,39,30,1,stimuli/stim_20210919_power2amp/equal_lnn_AM2Hz_s35_34.m4a,3.3377,,,,,,,,,,,
,,,,,41757,2021-10-03_19h42.12.932,judgeSpeechMusic_20210919_logNormShiftAmp_detection_fixFreq,2020.1.2,Win32,60,,,,,,,,,,,,,,,,,,,,,,,,,,,,,,1,6.9075,,0,0,40,40,49,1,stimuli/stim_20210919_power2amp/equal_lnn_AM2Hz_s45_18.m4a,,,,,,,,,,,,
,,,,,41757,2021-10-03_19h42.12.932,judgeSpeechMusic_20210919_logNormShiftAmp_detection_fixFreq,2020.1.2,Win32,60,,,,,,,,,,,,,,,,,,,,,,,,,,,,,,1,10.6051,,0,0,41,41,20,1,stimuli/stim_20210919_power2amp/equal_lnn_AM2Hz_s25_30.m4a,,,,,,,,,,,,
,,,,,41757,2021-10-03_19h42.12.932,judgeSpeechMusic_20210919_logNormShiftAmp_detection_fixFreq,2020.1.2,Win32,60,,,,,,,,,,,,,,,,,,,,,,,,,,,,,,1,6.9592,,0,0,42,42,26,1,stimuli/stim_20210919_power2amp/equal_lnn_AM2Hz_s25_33.m4a,,,,,,,,,,,,
,,,,,41757,2021-10-03_19h42.12.932,judgeSpeechMusic_20210919_logNormShiftAmp_detection_fixFreq,2020.1.2,Win32,60,,,,,,,,,,,,,,,,,,,,,,,,,,,,,,1,13.4566,,0,0,43,43,22,1,stimuli/stim_20210919_power2amp/equal_lnn_AM2Hz_s25_32.m4a,,,,,,,,,,,,
,,,,,41757,2021-10-03_19h42.12.932,judgeSpeechMusic_20210919_logNormShiftAmp_detection_fixFreq,2020.1.2,Win32,60,,,,,,,,,,,,,,,,,,,,,,,,,,,,,,1,7.5962,,0,0,44,44,65,1,stimuli/stim_20210919_power2amp/equal_lnn_AM2Hz_s55_34.m4a,,,,,,,,,,,,
,,,,,41757,2021-10-03_19h42.12.932,judgeSpeechMusic_20210919_logNormShiftAmp_detection_fixFreq,2020.1.2,Win32,60,,,,,,,,,,,,,,,,,,,,,,,,,,,,,,1,8.6148,,0,0,45,45,36,1,stimuli/stim_20210919_power2amp/equal_lnn_AM2Hz_s35_44.m4a,,,,,,,,,,,,
,,,,,41757,2021-10-03_19h42.12.932,judgeSpeechMusic_20210919_logNormShiftAmp_detection_fixFreq,2020.1.2,Win32,60,,,,,,,,,,,,,,,,,,,,,,,,,,,,,,1,6.2484,,0,0,46,46,10,1,stimuli/stim_20210919_power2amp/equal_lnn_AM2Hz_s15_31.m4a,,,,,,,,,,,,
,,,,,41757,2021-10-03_19h42.12.932,judgeSpeechMusic_20210919_logNormShiftAmp_detection_fixFreq,2020.1.2,Win32,60,,,,,,,,,,,,,,,,,,,,,,,,,,,,,,1,6.7431,,0,0,47,47,66,1,stimuli/stim_20210919_power2amp/equal_lnn_AM2Hz_s55_16.m4a,,,,,,,,,,,,
,,,,,41757,2021-10-03_19h42.12.932,judgeSpeechMusic_20210919_logNormShiftAmp_detection_fixFreq,2020.1.2,Win32,60,,,,,,,,,,,,,,,,,,,,,,,,,,,,,,1,6.803,,0,0,48,48,69,1,stimuli/stim_20210919_power2amp/equal_lnn_AM2Hz_s55_33.m4a,,,,,,,,,,,,
,,,,,41757,2021-10-03_19h42.12.932,judgeSpeechMusic_20210919_logNormShiftAmp_detection_fixFreq,2020.1.2,Win32,60,,,,,,,,,,,,,,,,,,,,,,,,,,,,,,1,6.0918,,0,0,49,49,7,1,stimuli/stim_20210919_power2amp/equal_lnn_AM2Hz_s15_19.m4a,,,,,,,,,,,,
,,,,,41757,2021-10-03_19h42.12.932,judgeSpeechMusic_20210919_logNormShiftAmp_detection_fixFreq,2020.1.2,Win32,60,,,,,,,,,,,,,,,,,,,,,,,,,,,,,,1,6.4074,,0,0,50,50,59,1,stimuli/stim_20210919_power2amp/equal_lnn_AM2Hz_s45_15.m4a,,,,,,,,,,,,
,,,,,41757,2021-10-03_19h42.12.932,judgeSpeechMusic_20210919_logNormShiftAmp_detection_fixFreq,2020.1.2,Win32,60,,,,,,,,,,,,,,,,,,,,,,,,,,,,,,1,24.0962,,0,0,51,51,45,1,stimuli/stim_20210919_power2amp/equal_lnn_AM2Hz_s45_33.m4a,,,,,,,,,,,,
,,,,,41757,2021-10-03_19h42.12.932,judgeSpeechMusic_20210919_logNormShiftAmp_detection_fixFreq,2020.1.2,Win32,60,,,,,,,,,,,,,,,,,,,,,,,,,,,,,,1,6.7336,,0,0,52,52,8,1,stimuli/stim_20210919_power2amp/equal_lnn_AM2Hz_s15_20.m4a,,,,,,,,,,,,
,,,,,41757,2021-10-03_19h42.12.932,judgeSpeechMusic_20210919_logNormShiftAmp_detection_fixFreq,2020.1.2,Win32,60,,,,,,,,,,,,,,,,,,,,,,,,,,,,,,1,18.6426,,0,0,53,53,24,1,stimuli/stim_20210919_power2amp/equal_lnn_AM2Hz_s25_28.m4a,,,,,,,,,,,,
,,,,,41757,2021-10-03_19h42.12.932,judgeSpeechMusic_20210919_logNormShiftAmp_detection_fixFreq,2020.1.2,Win32,60,,,,,,,,,,,,,,,,,,,,,,,,,,,,,,1,7.1389,,0,0,54,54,51,1,stimuli/stim_20210919_power2amp/equal_lnn_AM2Hz_s45_22.m4a,,,,,,,,,,,,
,,,,,41757,2021-10-03_19h42.12.932,judgeSpeechMusic_20210919_logNormShiftAmp_detection_fixFreq,2020.1.2,Win32,60,,,,,,,,,,,,,,,,,,,,,,,,,,,,,,1,6.8077,,0,0,55,55,54,1,stimuli/stim_20210919_power2amp/equal_lnn_AM2Hz_s45_39.m4a,,,,,,,,,,,,
,,,,,41757,2021-10-03_19h42.12.932,judgeSpeechMusic_20210919_logNormShiftAmp_detection_fixFreq,2020.1.2,Win32,60,,,,,,,,,,,,,,,,,,,,,,,,,,,,,,1,5.6297,,0,0,56,56,6,1,stimuli/stim_20210919_power2amp/equal_lnn_AM2Hz_s15_14.m4a,,,,,,,,,,,,
,,,,,41757,2021-10-03_19h42.12.932,judgeSpeechMusic_20210919_logNormShiftAmp_detection_fixFreq,2020.1.2,Win32,60,,,,,,,,,,,,,,,,,,,,,,,,,,,,,,1,6.1818,3,1,0,57,57,2,1,stimuli/stim_20210919_power2amp/equal_lnn_AM2Hz_s15_36.m4a,1.4884,,,,,,,,,,,
,,,,,41757,2021-10-03_19h42.12.932,judgeSpeechMusic_20210919_logNormShiftAmp_detection_fixFreq,2020.1.2,Win32,60,,,,,,,,,,,,,,,,,,,,,,,,,,,,,,1,5.9992,,0,0,58,58,58,1,stimuli/stim_20210919_power2amp/equal_lnn_AM2Hz_s45_31.m4a,,,,,,,,,,,,
,,,,,41757,2021-10-03_19h42.12.932,judgeSpeechMusic_20210919_logNormShiftAmp_detection_fixFreq,2020.1.2,Win32,60,,,,,,,,,,,,,,,,,,,,,,,,,,,,,,1,5.8862,,0,0,59,59,41,1,stimuli/stim_20210919_power2amp/equal_lnn_AM2Hz_s35_33.m4a,,,,,,,,,,,,
,,,,,41757,2021-10-03_19h42.12.932,judgeSpeechMusic_20210919_logNormShiftAmp_detection_fixFreq,2020.1.2,Win32,60,,,,,,,,,,,,,,,,,,,,,,,,,,,,,,1,12.1618,,0,0,60,60,70,1,stimuli/stim_20210919_power2amp/equal_lnn_AM2Hz_s55_1.m4a,,,,,,,,,,,,
,,,,,41757,2021-10-03_19h42.12.932,judgeSpeechMusic_20210919_logNormShiftAmp_detection_fixFreq,2020.1.2,Win32,60,,,,,,,,,,,,,,,,,,,,,,,,,,,,,,1,15.6424,,0,0,61,61,5,1,stimuli/stim_20210919_power2amp/equal_lnn_AM2Hz_s15_2.m4a,,,,,,,,,,,,
,,,,,41757,2021-10-03_19h42.12.932,judgeSpeechMusic_20210919_logNormShiftAmp_detection_fixFreq,2020.1.2,Win32,60,,,,,,,,,,,,,,,,,,,,,,,,,,,,,,1,6.7602,,0,0,62,62,53,1,stimuli/stim_20210919_power2amp/equal_lnn_AM2Hz_s45_19.m4a,,,,,,,,,,,,
,,,,,41757,2021-10-03_19h42.12.932,judgeSpeechMusic_20210919_logNormShiftAmp_detection_fixFreq,2020.1.2,Win32,60,,,,,,,,,,,,,,,,,,,,,,,,,,,,,,1,5.8841,,0,0,63,63,4,1,stimuli/stim_20210919_power2amp/equal_lnn_AM2Hz_s15_29.m4a,,,,,,,,,,,,
,,,,,41757,2021-10-03_19h42.12.932,judgeSpeechMusic_20210919_logNormShiftAmp_detection_fixFreq,2020.1.2,Win32,60,,,,,,,,,,,,,,,,,,,,,,,,,,,,,,1,7.0382,,0,0,64,64,29,1,stimuli/stim_20210919_power2amp/equal_lnn_AM2Hz_s25_35.m4a,,,,,,,,,,,,
,,,,,41757,2021-10-03_19h42.12.932,judgeSpeechMusic_20210919_logNormShiftAmp_detection_fixFreq,2020.1.2,Win32,60,,,,,,,,,,,,,,,,,,,,,,,,,,,,,,1,23.2188,,0,0,65,65,73,1,stimuli/stim_20210919_power2amp/equal_lnn_AM2Hz_s55_38.m4a,,,,,,,,,,,,
,,,,,41757,2021-10-03_19h42.12.932,judgeSpeechMusic_20210919_logNormShiftAmp_detection_fixFreq,2020.1.2,Win32,60,,,,,,,,,,,,,,,,,,,,,,,,,,,,,,1,6.2125,,0,0,66,66,16,1,stimuli/stim_20210919_power2amp/equal_lnn_AM2Hz_s25_38.m4a,,,,,,,,,,,,
,,,,,41757,2021-10-03_19h42.12.932,judgeSpeechMusic_20210919_logNormShiftAmp_detection_fixFreq,2020.1.2,Win32,60,,,,,,,,,,,,,,,,,,,,,,,,,,,,,,1,15.8089,,0,0,67,67,17,1,stimuli/stim_20210919_power2amp/equal_lnn_AM2Hz_s25_12.m4a,,,,,,,,,,,,
,,,,,41757,2021-10-03_19h42.12.932,judgeSpeechMusic_20210919_logNormShiftAmp_detection_fixFreq,2020.1.2,Win32,60,,,,,,,,,,,,,,,,,,,,,,,,,,,,,,1,16.7488,,0,0,68,68,62,1,stimuli/stim_20210919_power2amp/equal_lnn_AM2Hz_s55_45.m4a,,,,,,,,,,,,
,,,,,41757,2021-10-03_19h42.12.932,judgeSpeechMusic_20210919_logNormShiftAmp_detection_fixFreq,2020.1.2,Win32,60,,,,,,,,,,,,,,,,,,,,,,,,,,,,,,1,6.9816,,0,0,69,69,28,1,stimuli/stim_20210919_power2amp/equal_lnn_AM2Hz_s25_48.m4a,,,,,,,,,,,,
,,,,,41757,2021-10-03_19h42.12.932,judgeSpeechMusic_20210919_logNormShiftAmp_detection_fixFreq,2020.1.2,Win32,60,,,,,,,,,,,,,,,,,,,,,,,,,,,,,,1,7.3703,,0,0,70,70,14,1,stimuli/stim_20210919_power2amp/equal_lnn_AM2Hz_s15_37.m4a,,,,,,,,,,,,
,,,,,41757,2021-10-03_19h42.12.932,judgeSpeechMusic_20210919_logNormShiftAmp_detection_fixFreq,2020.1.2,Win32,60,,,,,,,,,,,,,,,,,,,,,,,,,,,,,,1,7.6688,,0,0,71,71,18,1,stimuli/stim_20210919_power2amp/equal_lnn_AM2Hz_s25_2.m4a,,,,,,,,,,,,
,,,,,41757,2021-10-03_19h42.12.932,judgeSpeechMusic_20210919_logNormShiftAmp_detection_fixFreq,2020.1.2,Win32,60,,,,,,,,,,,,,,,,,,,,,,,,,,,,,,1,7.683,,0,0,72,72,68,1,stimuli/stim_20210919_power2amp/equal_lnn_AM2Hz_s55_9.m4a,,,,,,,,,,,,
,,,,,41757,2021-10-03_19h42.12.932,judgeSpeechMusic_20210919_logNormShiftAmp_detection_fixFreq,2020.1.2,Win32,60,,,,,,,,,,,,,,,,,,,,,,,,,,,,,,1,5.8579,,0,0,73,73,13,1,stimuli/stim_20210919_power2amp/equal_lnn_AM2Hz_s15_10.m4a,,,,,,,,,,,,
,,,,,41757,2021-10-03_19h42.12.932,judgeSpeechMusic_20210919_logNormShiftAmp_detection_fixFreq,2020.1.2,Win32,60,,,,,,,,,,,,,,,,,,,,,,,,,,,,,,1,6.4995,,0,0,74,74,33,1,stimuli/stim_20210919_power2amp/equal_lnn_AM2Hz_s35_40.m4a,,,,,,,,,,,,
,,,,,41757,2021-10-03_19h42.12.932,judgeSpeechMusic_20210919_logNormShiftAmp_detection_fixFreq,2020.1.2,Win32,60,,,,,,,,,,,,,,,,,,,,,,,,,,,,,,,,,,,,,,,,,,,1,1,3,0,1,MUSIC,stimuli/MUSIC.jpg,,
,,,,,41757,2021-10-03_19h42.12.932,judgeSpeechMusic_20210919_logNormShiftAmp_detection_fixFreq,2020.1.2,Win32,60,,,,,,,,,,,,,,,,,,,,,,,,,,,,,,,,,,,,,,,,,,,,,,,,,,space,20.2896
