volAdjustRep.thisRepN,volAdjustRep.thisTrialN,volAdjustRep.thisN,volAdjustRep.thisIndex,volAdjustRep.ran,participant,date,expName,psychopyVersion,OS,frameRate,headphoneResponse.keys,headphoneResponse.corr,headphoneResponse.rt,headphoneTrial.thisRepN,headphoneTrial.thisTrialN,headphoneTrial.thisN,headphoneTrial.thisIndex,headphoneTrial.ran,headphone_sound1,headphone_sound2,headphone_sound3,corrAns,checkInstruKey.keys,checkInstruKey.rt,trainSlider.response,trainSlider.rt,beepTrainResponse.keys,beepTrainResponse.corr,trainingTrials.thisRepN,trainingTrials.thisTrialN,trainingTrials.thisN,trainingTrials.thisIndex,trainingTrials.ran,trainAudioFile,beepTrainResponse.rt,readyReal_resp.keys,readyReal_resp.rt,checkInstru2_key.keys,checkInstru2_key.rt,ratingSlider.response,ratingSlider.rt,beepResp.keys,beepResp.corr,expTrials.thisRepN,expTrials.thisTrialN,expTrials.thisN,expTrials.thisIndex,expTrials.ran,audioFile,beepResp.rt,switchBlock_space.keys,switchBlock_space.rt,block.thisRepN,block.thisTrialN,block.thisN,block.thisIndex,block.ran,blockName,blockImage,end_resp.keys,end_resp.rt
0,0,0,0,1,41811,2021-10-01_04h16.19.071,judgeSpeechMusic_20210919_logNormShiftAmp_detection_fixFreq,2020.1.2,Linux x86_64,60,,,,,,,,,,,,,,,,,,,,,,,,,,,,,,,,,,,,,,,,,,,,,,,,,,,
,,,,,41811,2021-10-01_04h16.19.071,judgeSpeechMusic_20210919_logNormShiftAmp_detection_fixFreq,2020.1.2,Linux x86_64,60,3,1,0.9984,0,0,0,0,1,stimuli/screen_antiphase.wav,stimuli/screen_origin.wav,stimuli/screen_quiet.wav,3,,,,,,,,,,,,,,,,,,,,,,,,,,,,,,,,,,,,,,,
,,,,,41811,2021-10-01_04h16.19.071,judgeSpeechMusic_20210919_logNormShiftAmp_detection_fixFreq,2020.1.2,Linux x86_64,60,2,1,0.4662,0,1,1,1,1,stimuli/screen_antiphase.wav,stimuli/screen_quiet.wav,stimuli/screen_origin.wav,2,,,,,,,,,,,,,,,,,,,,,,,,,,,,,,,,,,,,,,,
,,,,,41811,2021-10-01_04h16.19.071,judgeSpeechMusic_20210919_logNormShiftAmp_detection_fixFreq,2020.1.2,Linux x86_64,60,1,1,0.4548,0,2,2,5,1,stimuli/screen_quiet.wav,stimuli/screen_origin.wav,stimuli/screen_antiphase.wav,1,,,,,,,,,,,,,,,,,,,,,,,,,,,,,,,,,,,,,,,
,,,,,41811,2021-10-01_04h16.19.071,judgeSpeechMusic_20210919_logNormShiftAmp_detection_fixFreq,2020.1.2,Linux x86_64,60,1,1,0.4699,0,3,3,4,1,stimuli/screen_quiet.wav,stimuli/screen_antiphase.wav,stimuli/screen_origin.wav,1,,,,,,,,,,,,,,,,,,,,,,,,,,,,,,,,,,,,,,,
,,,,,41811,2021-10-01_04h16.19.071,judgeSpeechMusic_20210919_logNormShiftAmp_detection_fixFreq,2020.1.2,Linux x86_64,60,3,1,3.4055,0,4,4,2,1,stimuli/screen_origin.wav,stimuli/screen_antiphase.wav,stimuli/screen_quiet.wav,3,,,,,,,,,,,,,,,,,,,,,,,,,,,,,,,,,,,,,,,
,,,,,41811,2021-10-01_04h16.19.071,judgeSpeechMusic_20210919_logNormShiftAmp_detection_fixFreq,2020.1.2,Linux x86_64,60,2,1,0.5896,0,5,5,3,1,stimuli/screen_origin.wav,stimuli/screen_quiet.wav,stimuli/screen_antiphase.wav,2,,,,,,,,,,,,,,,,,,,,,,,,,,,,,,,,,,,,,,,
,,,,,41811,2021-10-01_04h16.19.071,judgeSpeechMusic_20210919_logNormShiftAmp_detection_fixFreq,2020.1.2,Linux x86_64,60,,,,,,,,,,,,,space,2.1028,2,7.0213,,0,0,0,0,2,1,stimuli/stim_20210919_power2amp/equal_lnn_AM_training2Hz_s40.m4a,,,,,,,,,,,,,,,,,,,,,,,,,,,
,,,,,41811,2021-10-01_04h16.19.071,judgeSpeechMusic_20210919_logNormShiftAmp_detection_fixFreq,2020.1.2,Linux x86_64,60,,,,,,,,,,,,,,,1,6.1998,,0,0,1,1,0,1,stimuli/stim_20210919_power2amp/equal_lnn_AM_training2Hz_s20.m4a,,,,,,,,,,,,,,,,,,,,,,,,,,,
,,,,,41811,2021-10-01_04h16.19.071,judgeSpeechMusic_20210919_logNormShiftAmp_detection_fixFreq,2020.1.2,Linux x86_64,60,,,,,,,,,,,,,,,2,8.5283,3,1,0,2,2,3,1,stimuli/stim_20210919_power2amp/equal_lnn_AM_training2Hz_s50.m4a,1.3338,,,,,,,,,,,,,,,,,,,,,,,,,,
,,,,,41811,2021-10-01_04h16.19.071,judgeSpeechMusic_20210919_logNormShiftAmp_detection_fixFreq,2020.1.2,Linux x86_64,60,,,,,,,,,,,,,,,2,7.8539,,0,0,3,3,1,1,stimuli/stim_20210919_power2amp/equal_lnn_AM_training2Hz_s30.m4a,,,,,,,,,,,,,,,,,,,,,,,,,,,
,,,,,41811,2021-10-01_04h16.19.071,judgeSpeechMusic_20210919_logNormShiftAmp_detection_fixFreq,2020.1.2,Linux x86_64,60,,,,,,,,,,,,,,,,,,,,,,,,,,space,8.6258,space,47.8246,2,9.9366,,0,0,0,0,61,1,stimuli/stim_20210919_power2amp/equal_lnn_AM2Hz_s55_42.m4a,,,,,,,,,,,,
,,,,,41811,2021-10-01_04h16.19.071,judgeSpeechMusic_20210919_logNormShiftAmp_detection_fixFreq,2020.1.2,Linux x86_64,60,,,,,,,,,,,,,,,,,,,,,,,,,,,,,,1,6.5725,,0,0,1,1,0,1,stimuli/stim_20210919_power2amp/equal_lnn_AM2Hz_s15_41.m4a,,,,,,,,,,,,
,,,,,41811,2021-10-01_04h16.19.071,judgeSpeechMusic_20210919_logNormShiftAmp_detection_fixFreq,2020.1.2,Linux x86_64,60,,,,,,,,,,,,,,,,,,,,,,,,,,,,,,2,7.2638,,0,0,2,2,65,1,stimuli/stim_20210919_power2amp/equal_lnn_AM2Hz_s55_26.m4a,,,,,,,,,,,,
,,,,,41811,2021-10-01_04h16.19.071,judgeSpeechMusic_20210919_logNormShiftAmp_detection_fixFreq,2020.1.2,Linux x86_64,60,,,,,,,,,,,,,,,,,,,,,,,,,,,,,,2,8.3951,,0,0,3,3,6,1,stimuli/stim_20210919_power2amp/equal_lnn_AM2Hz_s15_18.m4a,,,,,,,,,,,,
,,,,,41811,2021-10-01_04h16.19.071,judgeSpeechMusic_20210919_logNormShiftAmp_detection_fixFreq,2020.1.2,Linux x86_64,60,,,,,,,,,,,,,,,,,,,,,,,,,,,,,,1,5.79,,0,0,4,4,10,1,stimuli/stim_20210919_power2amp/equal_lnn_AM2Hz_s15_35.m4a,,,,,,,,,,,,
,,,,,41811,2021-10-01_04h16.19.071,judgeSpeechMusic_20210919_logNormShiftAmp_detection_fixFreq,2020.1.2,Linux x86_64,60,,,,,,,,,,,,,,,,,,,,,,,,,,,,,,2,7.8458,,0,0,5,5,38,1,stimuli/stim_20210919_power2amp/equal_lnn_AM2Hz_s35_3.m4a,,,,,,,,,,,,
,,,,,41811,2021-10-01_04h16.19.071,judgeSpeechMusic_20210919_logNormShiftAmp_detection_fixFreq,2020.1.2,Linux x86_64,60,,,,,,,,,,,,,,,,,,,,,,,,,,,,,,2,8.6923,,0,0,6,6,28,1,stimuli/stim_20210919_power2amp/equal_lnn_AM2Hz_s25_8.m4a,,,,,,,,,,,,
,,,,,41811,2021-10-01_04h16.19.071,judgeSpeechMusic_20210919_logNormShiftAmp_detection_fixFreq,2020.1.2,Linux x86_64,60,,,,,,,,,,,,,,,,,,,,,,,,,,,,,,1,6.0116,,0,0,7,7,57,1,stimuli/stim_20210919_power2amp/equal_lnn_AM2Hz_s45_1.m4a,,,,,,,,,,,,
,,,,,41811,2021-10-01_04h16.19.071,judgeSpeechMusic_20210919_logNormShiftAmp_detection_fixFreq,2020.1.2,Linux x86_64,60,,,,,,,,,,,,,,,,,,,,,,,,,,,,,,2,7.7316,,0,0,8,8,42,1,stimuli/stim_20210919_power2amp/equal_lnn_AM2Hz_s35_45.m4a,,,,,,,,,,,,
,,,,,41811,2021-10-01_04h16.19.071,judgeSpeechMusic_20210919_logNormShiftAmp_detection_fixFreq,2020.1.2,Linux x86_64,60,,,,,,,,,,,,,,,,,,,,,,,,,,,,,,1,5.9135,,0,0,9,9,15,1,stimuli/stim_20210919_power2amp/equal_lnn_AM2Hz_s25_27.m4a,,,,,,,,,,,,
,,,,,41811,2021-10-01_04h16.19.071,judgeSpeechMusic_20210919_logNormShiftAmp_detection_fixFreq,2020.1.2,Linux x86_64,60,,,,,,,,,,,,,,,,,,,,,,,,,,,,,,2,10.6483,,0,0,10,10,51,1,stimuli/stim_20210919_power2amp/equal_lnn_AM2Hz_s45_31.m4a,,,,,,,,,,,,
,,,,,41811,2021-10-01_04h16.19.071,judgeSpeechMusic_20210919_logNormShiftAmp_detection_fixFreq,2020.1.2,Linux x86_64,60,,,,,,,,,,,,,,,,,,,,,,,,,,,,,,1,6.5495,,0,0,11,11,8,1,stimuli/stim_20210919_power2amp/equal_lnn_AM2Hz_s15_5.m4a,,,,,,,,,,,,
,,,,,41811,2021-10-01_04h16.19.071,judgeSpeechMusic_20210919_logNormShiftAmp_detection_fixFreq,2020.1.2,Linux x86_64,60,,,,,,,,,,,,,,,,,,,,,,,,,,,,,,2,7.7462,,0,0,12,12,27,1,stimuli/stim_20210919_power2amp/equal_lnn_AM2Hz_s25_30.m4a,,,,,,,,,,,,
,,,,,41811,2021-10-01_04h16.19.071,judgeSpeechMusic_20210919_logNormShiftAmp_detection_fixFreq,2020.1.2,Linux x86_64,60,,,,,,,,,,,,,,,,,,,,,,,,,,,,,,1,5.9274,,0,0,13,13,71,1,stimuli/stim_20210919_power2amp/equal_lnn_AM2Hz_s55_49.m4a,,,,,,,,,,,,
,,,,,41811,2021-10-01_04h16.19.071,judgeSpeechMusic_20210919_logNormShiftAmp_detection_fixFreq,2020.1.2,Linux x86_64,60,,,,,,,,,,,,,,,,,,,,,,,,,,,,,,2,8.0304,,0,0,14,14,3,1,stimuli/stim_20210919_power2amp/equal_lnn_AM2Hz_s15_21.m4a,,,,,,,,,,,,
,,,,,41811,2021-10-01_04h16.19.071,judgeSpeechMusic_20210919_logNormShiftAmp_detection_fixFreq,2020.1.2,Linux x86_64,60,,,,,,,,,,,,,,,,,,,,,,,,,,,,,,1,7.628,,0,0,15,15,24,1,stimuli/stim_20210919_power2amp/equal_lnn_AM2Hz_s25_15.m4a,,,,,,,,,,,,
,,,,,41811,2021-10-01_04h16.19.071,judgeSpeechMusic_20210919_logNormShiftAmp_detection_fixFreq,2020.1.2,Linux x86_64,60,,,,,,,,,,,,,,,,,,,,,,,,,,,,,,2,9.9142,,0,0,16,16,7,1,stimuli/stim_20210919_power2amp/equal_lnn_AM2Hz_s15_14.m4a,,,,,,,,,,,,
,,,,,41811,2021-10-01_04h16.19.071,judgeSpeechMusic_20210919_logNormShiftAmp_detection_fixFreq,2020.1.2,Linux x86_64,60,,,,,,,,,,,,,,,,,,,,,,,,,,,,,,1,6.1801,,0,0,17,17,5,1,stimuli/stim_20210919_power2amp/equal_lnn_AM2Hz_s15_12.m4a,,,,,,,,,,,,
,,,,,41811,2021-10-01_04h16.19.071,judgeSpeechMusic_20210919_logNormShiftAmp_detection_fixFreq,2020.1.2,Linux x86_64,60,,,,,,,,,,,,,,,,,,,,,,,,,,,,,,2,7.0837,,0,0,18,18,66,1,stimuli/stim_20210919_power2amp/equal_lnn_AM2Hz_s55_43.m4a,,,,,,,,,,,,
,,,,,41811,2021-10-01_04h16.19.071,judgeSpeechMusic_20210919_logNormShiftAmp_detection_fixFreq,2020.1.2,Linux x86_64,60,,,,,,,,,,,,,,,,,,,,,,,,,,,,,,2,9.7339,,0,0,19,19,2,1,stimuli/stim_20210919_power2amp/equal_lnn_AM2Hz_s15_20.m4a,,,,,,,,,,,,
,,,,,41811,2021-10-01_04h16.19.071,judgeSpeechMusic_20210919_logNormShiftAmp_detection_fixFreq,2020.1.2,Linux x86_64,60,,,,,,,,,,,,,,,,,,,,,,,,,,,,,,1,6.1095,,0,0,20,20,56,1,stimuli/stim_20210919_power2amp/equal_lnn_AM2Hz_s45_44.m4a,,,,,,,,,,,,
,,,,,41811,2021-10-01_04h16.19.071,judgeSpeechMusic_20210919_logNormShiftAmp_detection_fixFreq,2020.1.2,Linux x86_64,60,,,,,,,,,,,,,,,,,,,,,,,,,,,,,,1,8.3953,,0,0,21,21,35,1,stimuli/stim_20210919_power2amp/equal_lnn_AM2Hz_s35_9.m4a,,,,,,,,,,,,
,,,,,41811,2021-10-01_04h16.19.071,judgeSpeechMusic_20210919_logNormShiftAmp_detection_fixFreq,2020.1.2,Linux x86_64,60,,,,,,,,,,,,,,,,,,,,,,,,,,,,,,2,8.8999,4,1,0,22,22,36,1,stimuli/stim_20210919_power2amp/equal_lnn_AM2Hz_s35_4.m4a,5.6153,,,,,,,,,,,
,,,,,41811,2021-10-01_04h16.19.071,judgeSpeechMusic_20210919_logNormShiftAmp_detection_fixFreq,2020.1.2,Linux x86_64,60,,,,,,,,,,,,,,,,,,,,,,,,,,,,,,1,8.1977,,0,0,23,23,73,1,stimuli/stim_20210919_power2amp/equal_lnn_AM2Hz_s55_27.m4a,,,,,,,,,,,,
,,,,,41811,2021-10-01_04h16.19.071,judgeSpeechMusic_20210919_logNormShiftAmp_detection_fixFreq,2020.1.2,Linux x86_64,60,,,,,,,,,,,,,,,,,,,,,,,,,,,,,,1,7.6123,,0,0,24,24,4,1,stimuli/stim_20210919_power2amp/equal_lnn_AM2Hz_s15_22.m4a,,,,,,,,,,,,
,,,,,41811,2021-10-01_04h16.19.071,judgeSpeechMusic_20210919_logNormShiftAmp_detection_fixFreq,2020.1.2,Linux x86_64,60,,,,,,,,,,,,,,,,,,,,,,,,,,,,,,2,9.1657,,0,0,25,25,45,1,stimuli/stim_20210919_power2amp/equal_lnn_AM2Hz_s45_14.m4a,,,,,,,,,,,,
,,,,,41811,2021-10-01_04h16.19.071,judgeSpeechMusic_20210919_logNormShiftAmp_detection_fixFreq,2020.1.2,Linux x86_64,60,,,,,,,,,,,,,,,,,,,,,,,,,,,,,,2,5.7469,,0,0,26,26,30,1,stimuli/stim_20210919_power2amp/equal_lnn_AM2Hz_s35_22.m4a,,,,,,,,,,,,
,,,,,41811,2021-10-01_04h16.19.071,judgeSpeechMusic_20210919_logNormShiftAmp_detection_fixFreq,2020.1.2,Linux x86_64,60,,,,,,,,,,,,,,,,,,,,,,,,,,,,,,1,6.8461,,0,0,27,27,47,1,stimuli/stim_20210919_power2amp/equal_lnn_AM2Hz_s45_18.m4a,,,,,,,,,,,,
,,,,,41811,2021-10-01_04h16.19.071,judgeSpeechMusic_20210919_logNormShiftAmp_detection_fixFreq,2020.1.2,Linux x86_64,60,,,,,,,,,,,,,,,,,,,,,,,,,,,,,,1,10.0819,,0,0,28,28,50,1,stimuli/stim_20210919_power2amp/equal_lnn_AM2Hz_s45_40.m4a,,,,,,,,,,,,
,,,,,41811,2021-10-01_04h16.19.071,judgeSpeechMusic_20210919_logNormShiftAmp_detection_fixFreq,2020.1.2,Linux x86_64,60,,,,,,,,,,,,,,,,,,,,,,,,,,,,,,2,6.9499,,0,0,29,29,29,1,stimuli/stim_20210919_power2amp/equal_lnn_AM2Hz_s25_36.m4a,,,,,,,,,,,,
,,,,,41811,2021-10-01_04h16.19.071,judgeSpeechMusic_20210919_logNormShiftAmp_detection_fixFreq,2020.1.2,Linux x86_64,60,,,,,,,,,,,,,,,,,,,,,,,,,,,,,,1,10.0857,,0,0,30,30,21,1,stimuli/stim_20210919_power2amp/equal_lnn_AM2Hz_s25_35.m4a,,,,,,,,,,,,
,,,,,41811,2021-10-01_04h16.19.071,judgeSpeechMusic_20210919_logNormShiftAmp_detection_fixFreq,2020.1.2,Linux x86_64,60,,,,,,,,,,,,,,,,,,,,,,,,,,,,,,2,5.8093,,0,0,31,31,34,1,stimuli/stim_20210919_power2amp/equal_lnn_AM2Hz_s35_32.m4a,,,,,,,,,,,,
,,,,,41811,2021-10-01_04h16.19.071,judgeSpeechMusic_20210919_logNormShiftAmp_detection_fixFreq,2020.1.2,Linux x86_64,60,,,,,,,,,,,,,,,,,,,,,,,,,,,,,,1,8.8659,,0,0,32,32,48,1,stimuli/stim_20210919_power2amp/equal_lnn_AM2Hz_s45_42.m4a,,,,,,,,,,,,
,,,,,41811,2021-10-01_04h16.19.071,judgeSpeechMusic_20210919_logNormShiftAmp_detection_fixFreq,2020.1.2,Linux x86_64,60,,,,,,,,,,,,,,,,,,,,,,,,,,,,,,2,8.7973,,0,0,33,33,18,1,stimuli/stim_20210919_power2amp/equal_lnn_AM2Hz_s25_32.m4a,,,,,,,,,,,,
,,,,,41811,2021-10-01_04h16.19.071,judgeSpeechMusic_20210919_logNormShiftAmp_detection_fixFreq,2020.1.2,Linux x86_64,60,,,,,,,,,,,,,,,,,,,,,,,,,,,,,,1,9.5298,,0,0,34,34,69,1,stimuli/stim_20210919_power2amp/equal_lnn_AM2Hz_s55_48.m4a,,,,,,,,,,,,
,,,,,41811,2021-10-01_04h16.19.071,judgeSpeechMusic_20210919_logNormShiftAmp_detection_fixFreq,2020.1.2,Linux x86_64,60,,,,,,,,,,,,,,,,,,,,,,,,,,,,,,1,8.8465,,0,0,35,35,44,1,stimuli/stim_20210919_power2amp/equal_lnn_AM2Hz_s35_2.m4a,,,,,,,,,,,,
,,,,,41811,2021-10-01_04h16.19.071,judgeSpeechMusic_20210919_logNormShiftAmp_detection_fixFreq,2020.1.2,Linux x86_64,60,,,,,,,,,,,,,,,,,,,,,,,,,,,,,,2,7.4307,,0,0,36,36,23,1,stimuli/stim_20210919_power2amp/equal_lnn_AM2Hz_s25_20.m4a,,,,,,,,,,,,
,,,,,41811,2021-10-01_04h16.19.071,judgeSpeechMusic_20210919_logNormShiftAmp_detection_fixFreq,2020.1.2,Linux x86_64,60,,,,,,,,,,,,,,,,,,,,,,,,,,,,,,2,9.1509,,0,0,37,37,55,1,stimuli/stim_20210919_power2amp/equal_lnn_AM2Hz_s45_24.m4a,,,,,,,,,,,,
,,,,,41811,2021-10-01_04h16.19.071,judgeSpeechMusic_20210919_logNormShiftAmp_detection_fixFreq,2020.1.2,Linux x86_64,60,,,,,,,,,,,,,,,,,,,,,,,,,,,,,,2,17.9837,,0,0,38,38,31,1,stimuli/stim_20210919_power2amp/equal_lnn_AM2Hz_s35_10.m4a,,,,,,,,,,,,
,,,,,41811,2021-10-01_04h16.19.071,judgeSpeechMusic_20210919_logNormShiftAmp_detection_fixFreq,2020.1.2,Linux x86_64,60,,,,,,,,,,,,,,,,,,,,,,,,,,,,,,1,7.1641,,0,0,39,39,46,1,stimuli/stim_20210919_power2amp/equal_lnn_AM2Hz_s45_33.m4a,,,,,,,,,,,,
,,,,,41811,2021-10-01_04h16.19.071,judgeSpeechMusic_20210919_logNormShiftAmp_detection_fixFreq,2020.1.2,Linux x86_64,60,,,,,,,,,,,,,,,,,,,,,,,,,,,,,,1,48.9394,4,1,0,40,40,63,1,stimuli/stim_20210919_power2amp/equal_lnn_AM2Hz_s55_21.m4a,1.0746,,,,,,,,,,,
,,,,,41811,2021-10-01_04h16.19.071,judgeSpeechMusic_20210919_logNormShiftAmp_detection_fixFreq,2020.1.2,Linux x86_64,60,,,,,,,,,,,,,,,,,,,,,,,,,,,,,,2,11.9964,,0,0,41,41,1,1,stimuli/stim_20210919_power2amp/equal_lnn_AM2Hz_s15_23.m4a,,,,,,,,,,,,
,,,,,41811,2021-10-01_04h16.19.071,judgeSpeechMusic_20210919_logNormShiftAmp_detection_fixFreq,2020.1.2,Linux x86_64,60,,,,,,,,,,,,,,,,,,,,,,,,,,,,,,1,10.032,,0,0,42,42,49,1,stimuli/stim_20210919_power2amp/equal_lnn_AM2Hz_s45_7.m4a,,,,,,,,,,,,
,,,,,41811,2021-10-01_04h16.19.071,judgeSpeechMusic_20210919_logNormShiftAmp_detection_fixFreq,2020.1.2,Linux x86_64,60,,,,,,,,,,,,,,,,,,,,,,,,,,,,,,2,8.6451,,0,0,43,43,22,1,stimuli/stim_20210919_power2amp/equal_lnn_AM2Hz_s25_19.m4a,,,,,,,,,,,,
,,,,,41811,2021-10-01_04h16.19.071,judgeSpeechMusic_20210919_logNormShiftAmp_detection_fixFreq,2020.1.2,Linux x86_64,60,,,,,,,,,,,,,,,,,,,,,,,,,,,,,,1,7.1496,,0,0,44,44,68,1,stimuli/stim_20210919_power2amp/equal_lnn_AM2Hz_s55_47.m4a,,,,,,,,,,,,
,,,,,41811,2021-10-01_04h16.19.071,judgeSpeechMusic_20210919_logNormShiftAmp_detection_fixFreq,2020.1.2,Linux x86_64,60,,,,,,,,,,,,,,,,,,,,,,,,,,,,,,2,6.6602,,0,0,45,45,72,1,stimuli/stim_20210919_power2amp/equal_lnn_AM2Hz_s55_23.m4a,,,,,,,,,,,,
,,,,,41811,2021-10-01_04h16.19.071,judgeSpeechMusic_20210919_logNormShiftAmp_detection_fixFreq,2020.1.2,Linux x86_64,60,,,,,,,,,,,,,,,,,,,,,,,,,,,,,,2,23.3705,,0,0,46,46,70,1,stimuli/stim_20210919_power2amp/equal_lnn_AM2Hz_s55_15.m4a,,,,,,,,,,,,
,,,,,41811,2021-10-01_04h16.19.071,judgeSpeechMusic_20210919_logNormShiftAmp_detection_fixFreq,2020.1.2,Linux x86_64,60,,,,,,,,,,,,,,,,,,,,,,,,,,,,,,1,7.2787,,0,0,47,47,60,1,stimuli/stim_20210919_power2amp/equal_lnn_AM2Hz_s55_44.m4a,,,,,,,,,,,,
,,,,,41811,2021-10-01_04h16.19.071,judgeSpeechMusic_20210919_logNormShiftAmp_detection_fixFreq,2020.1.2,Linux x86_64,60,,,,,,,,,,,,,,,,,,,,,,,,,,,,,,2,6.5249,,0,0,48,48,19,1,stimuli/stim_20210919_power2amp/equal_lnn_AM2Hz_s25_11.m4a,,,,,,,,,,,,
,,,,,41811,2021-10-01_04h16.19.071,judgeSpeechMusic_20210919_logNormShiftAmp_detection_fixFreq,2020.1.2,Linux x86_64,60,,,,,,,,,,,,,,,,,,,,,,,,,,,,,,1,7.0102,,0,0,49,49,43,1,stimuli/stim_20210919_power2amp/equal_lnn_AM2Hz_s35_8.m4a,,,,,,,,,,,,
,,,,,41811,2021-10-01_04h16.19.071,judgeSpeechMusic_20210919_logNormShiftAmp_detection_fixFreq,2020.1.2,Linux x86_64,60,,,,,,,,,,,,,,,,,,,,,,,,,,,,,,2,5.798,,0,0,50,50,26,1,stimuli/stim_20210919_power2amp/equal_lnn_AM2Hz_s25_47.m4a,,,,,,,,,,,,
,,,,,41811,2021-10-01_04h16.19.071,judgeSpeechMusic_20210919_logNormShiftAmp_detection_fixFreq,2020.1.2,Linux x86_64,60,,,,,,,,,,,,,,,,,,,,,,,,,,,,,,1,7.212,,0,0,51,51,16,1,stimuli/stim_20210919_power2amp/equal_lnn_AM2Hz_s25_46.m4a,,,,,,,,,,,,
,,,,,41811,2021-10-01_04h16.19.071,judgeSpeechMusic_20210919_logNormShiftAmp_detection_fixFreq,2020.1.2,Linux x86_64,60,,,,,,,,,,,,,,,,,,,,,,,,,,,,,,2,8.1122,,0,0,52,52,25,1,stimuli/stim_20210919_power2amp/equal_lnn_AM2Hz_s25_34.m4a,,,,,,,,,,,,
,,,,,41811,2021-10-01_04h16.19.071,judgeSpeechMusic_20210919_logNormShiftAmp_detection_fixFreq,2020.1.2,Linux x86_64,60,,,,,,,,,,,,,,,,,,,,,,,,,,,,,,2,6.5792,,0,0,53,53,11,1,stimuli/stim_20210919_power2amp/equal_lnn_AM2Hz_s15_25.m4a,,,,,,,,,,,,
,,,,,41811,2021-10-01_04h16.19.071,judgeSpeechMusic_20210919_logNormShiftAmp_detection_fixFreq,2020.1.2,Linux x86_64,60,,,,,,,,,,,,,,,,,,,,,,,,,,,,,,1,7.9182,,0,0,54,54,62,1,stimuli/stim_20210919_power2amp/equal_lnn_AM2Hz_s55_14.m4a,,,,,,,,,,,,
,,,,,41811,2021-10-01_04h16.19.071,judgeSpeechMusic_20210919_logNormShiftAmp_detection_fixFreq,2020.1.2,Linux x86_64,60,,,,,,,,,,,,,,,,,,,,,,,,,,,,,,2,9.6277,,0,0,55,55,9,1,stimuli/stim_20210919_power2amp/equal_lnn_AM2Hz_s15_30.m4a,,,,,,,,,,,,
,,,,,41811,2021-10-01_04h16.19.071,judgeSpeechMusic_20210919_logNormShiftAmp_detection_fixFreq,2020.1.2,Linux x86_64,60,,,,,,,,,,,,,,,,,,,,,,,,,,,,,,2,30.5792,,0,0,56,56,41,1,stimuli/stim_20210919_power2amp/equal_lnn_AM2Hz_s35_24.m4a,,,,,,,,,,,,
,,,,,41811,2021-10-01_04h16.19.071,judgeSpeechMusic_20210919_logNormShiftAmp_detection_fixFreq,2020.1.2,Linux x86_64,60,,,,,,,,,,,,,,,,,,,,,,,,,,,,,,2,12.2494,,0,0,57,57,37,1,stimuli/stim_20210919_power2amp/equal_lnn_AM2Hz_s35_34.m4a,,,,,,,,,,,,
,,,,,41811,2021-10-01_04h16.19.071,judgeSpeechMusic_20210919_logNormShiftAmp_detection_fixFreq,2020.1.2,Linux x86_64,60,,,,,,,,,,,,,,,,,,,,,,,,,,,,,,1,54.3537,4,1,0,58,58,52,1,stimuli/stim_20210919_power2amp/equal_lnn_AM2Hz_s45_28.m4a,1.9793,,,,,,,,,,,
,,,,,41811,2021-10-01_04h16.19.071,judgeSpeechMusic_20210919_logNormShiftAmp_detection_fixFreq,2020.1.2,Linux x86_64,60,,,,,,,,,,,,,,,,,,,,,,,,,,,,,,2,13.6948,,0,0,59,59,32,1,stimuli/stim_20210919_power2amp/equal_lnn_AM2Hz_s35_13.m4a,,,,,,,,,,,,
,,,,,41811,2021-10-01_04h16.19.071,judgeSpeechMusic_20210919_logNormShiftAmp_detection_fixFreq,2020.1.2,Linux x86_64,60,,,,,,,,,,,,,,,,,,,,,,,,,,,,,,1,6.866,,0,0,60,60,13,1,stimuli/stim_20210919_power2amp/equal_lnn_AM2Hz_s15_31.m4a,,,,,,,,,,,,
,,,,,41811,2021-10-01_04h16.19.071,judgeSpeechMusic_20210919_logNormShiftAmp_detection_fixFreq,2020.1.2,Linux x86_64,60,,,,,,,,,,,,,,,,,,,,,,,,,,,,,,2,7.051,,0,0,61,61,59,1,stimuli/stim_20210919_power2amp/equal_lnn_AM2Hz_s45_20.m4a,,,,,,,,,,,,
,,,,,41811,2021-10-01_04h16.19.071,judgeSpeechMusic_20210919_logNormShiftAmp_detection_fixFreq,2020.1.2,Linux x86_64,60,,,,,,,,,,,,,,,,,,,,,,,,,,,,,,1,6.8473,,0,0,62,62,54,1,stimuli/stim_20210919_power2amp/equal_lnn_AM2Hz_s45_37.m4a,,,,,,,,,,,,
,,,,,41811,2021-10-01_04h16.19.071,judgeSpeechMusic_20210919_logNormShiftAmp_detection_fixFreq,2020.1.2,Linux x86_64,60,,,,,,,,,,,,,,,,,,,,,,,,,,,,,,2,34.7263,,0,0,63,63,17,1,stimuli/stim_20210919_power2amp/equal_lnn_AM2Hz_s25_24.m4a,,,,,,,,,,,,
,,,,,41811,2021-10-01_04h16.19.071,judgeSpeechMusic_20210919_logNormShiftAmp_detection_fixFreq,2020.1.2,Linux x86_64,60,,,,,,,,,,,,,,,,,,,,,,,,,,,,,,1,9.0622,,0,0,64,64,53,1,stimuli/stim_20210919_power2amp/equal_lnn_AM2Hz_s45_26.m4a,,,,,,,,,,,,
,,,,,41811,2021-10-01_04h16.19.071,judgeSpeechMusic_20210919_logNormShiftAmp_detection_fixFreq,2020.1.2,Linux x86_64,60,,,,,,,,,,,,,,,,,,,,,,,,,,,,,,2,5.6783,,0,0,65,65,33,1,stimuli/stim_20210919_power2amp/equal_lnn_AM2Hz_s35_1.m4a,,,,,,,,,,,,
,,,,,41811,2021-10-01_04h16.19.071,judgeSpeechMusic_20210919_logNormShiftAmp_detection_fixFreq,2020.1.2,Linux x86_64,60,,,,,,,,,,,,,,,,,,,,,,,,,,,,,,2,11.0475,,0,0,66,66,74,1,stimuli/stim_20210919_power2amp/equal_lnn_AM2Hz_s55_13.m4a,,,,,,,,,,,,
,,,,,41811,2021-10-01_04h16.19.071,judgeSpeechMusic_20210919_logNormShiftAmp_detection_fixFreq,2020.1.2,Linux x86_64,60,,,,,,,,,,,,,,,,,,,,,,,,,,,,,,1,17.1714,,0,0,67,67,58,1,stimuli/stim_20210919_power2amp/equal_lnn_AM2Hz_s45_3.m4a,,,,,,,,,,,,
,,,,,41811,2021-10-01_04h16.19.071,judgeSpeechMusic_20210919_logNormShiftAmp_detection_fixFreq,2020.1.2,Linux x86_64,60,,,,,,,,,,,,,,,,,,,,,,,,,,,,,,1,31.2085,,0,0,68,68,67,1,stimuli/stim_20210919_power2amp/equal_lnn_AM2Hz_s55_12.m4a,,,,,,,,,,,,
,,,,,41811,2021-10-01_04h16.19.071,judgeSpeechMusic_20210919_logNormShiftAmp_detection_fixFreq,2020.1.2,Linux x86_64,60,,,,,,,,,,,,,,,,,,,,,,,,,,,,,,2,6.8676,,0,0,69,69,40,1,stimuli/stim_20210919_power2amp/equal_lnn_AM2Hz_s35_38.m4a,,,,,,,,,,,,
,,,,,41811,2021-10-01_04h16.19.071,judgeSpeechMusic_20210919_logNormShiftAmp_detection_fixFreq,2020.1.2,Linux x86_64,60,,,,,,,,,,,,,,,,,,,,,,,,,,,,,,2,8.5792,,0,0,70,70,14,1,stimuli/stim_20210919_power2amp/equal_lnn_AM2Hz_s15_24.m4a,,,,,,,,,,,,
,,,,,41811,2021-10-01_04h16.19.071,judgeSpeechMusic_20210919_logNormShiftAmp_detection_fixFreq,2020.1.2,Linux x86_64,60,,,,,,,,,,,,,,,,,,,,,,,,,,,,,,1,8.1631,,0,0,71,71,39,1,stimuli/stim_20210919_power2amp/equal_lnn_AM2Hz_s35_18.m4a,,,,,,,,,,,,
,,,,,41811,2021-10-01_04h16.19.071,judgeSpeechMusic_20210919_logNormShiftAmp_detection_fixFreq,2020.1.2,Linux x86_64,60,,,,,,,,,,,,,,,,,,,,,,,,,,,,,,2,20.0219,,0,0,72,72,20,1,stimuli/stim_20210919_power2amp/equal_lnn_AM2Hz_s25_22.m4a,,,,,,,,,,,,
,,,,,41811,2021-10-01_04h16.19.071,judgeSpeechMusic_20210919_logNormShiftAmp_detection_fixFreq,2020.1.2,Linux x86_64,60,,,,,,,,,,,,,,,,,,,,,,,,,,,,,,2,7.307,,0,0,73,73,12,1,stimuli/stim_20210919_power2amp/equal_lnn_AM2Hz_s15_15.m4a,,,,,,,,,,,,
,,,,,41811,2021-10-01_04h16.19.071,judgeSpeechMusic_20210919_logNormShiftAmp_detection_fixFreq,2020.1.2,Linux x86_64,60,,,,,,,,,,,,,,,,,,,,,,,,,,,,,,2,6.6614,,0,0,74,74,64,1,stimuli/stim_20210919_power2amp/equal_lnn_AM2Hz_s55_6.m4a,,,,,,,,,,,,
,,,,,41811,2021-10-01_04h16.19.071,judgeSpeechMusic_20210919_logNormShiftAmp_detection_fixFreq,2020.1.2,Linux x86_64,60,,,,,,,,,,,,,,,,,,,,,,,,,,,,,,,,,,,,,,,,,space,1.9111,0,0,0,1,1,SPEECH,stimuli/SPEECH.jpg,,
,,,,,41811,2021-10-01_04h16.19.071,judgeSpeechMusic_20210919_logNormShiftAmp_detection_fixFreq,2020.1.2,Linux x86_64,60,,,,,,,,,,,,,space,0.0201,1,6.4146,,0,0,0,0,3,1,stimuli/stim_20210919_power2amp/equal_lnn_AM_training2Hz_s50.m4a,,,,,,,,,,,,,,,,,,,,,,,,,,,
,,,,,41811,2021-10-01_04h16.19.071,judgeSpeechMusic_20210919_logNormShiftAmp_detection_fixFreq,2020.1.2,Linux x86_64,60,,,,,,,,,,,,,,,2,7.024,,0,0,1,1,0,1,stimuli/stim_20210919_power2amp/equal_lnn_AM_training2Hz_s20.m4a,,,,,,,,,,,,,,,,,,,,,,,,,,,
,,,,,41811,2021-10-01_04h16.19.071,judgeSpeechMusic_20210919_logNormShiftAmp_detection_fixFreq,2020.1.2,Linux x86_64,60,,,,,,,,,,,,,,,1,13.3324,3,1,0,2,2,2,1,stimuli/stim_20210919_power2amp/equal_lnn_AM_training2Hz_s40.m4a,4.02,,,,,,,,,,,,,,,,,,,,,,,,,,
,,,,,41811,2021-10-01_04h16.19.071,judgeSpeechMusic_20210919_logNormShiftAmp_detection_fixFreq,2020.1.2,Linux x86_64,60,,,,,,,,,,,,,,,2,54.2151,,0,0,3,3,1,1,stimuli/stim_20210919_power2amp/equal_lnn_AM_training2Hz_s30.m4a,,,,,,,,,,,,,,,,,,,,,,,,,,,
,,,,,41811,2021-10-01_04h16.19.071,judgeSpeechMusic_20210919_logNormShiftAmp_detection_fixFreq,2020.1.2,Linux x86_64,60,,,,,,,,,,,,,,,,,,,,,,,,,,space,8.6329,space,35.0183,2,6.4862,,0,0,0,0,71,1,stimuli/stim_20210919_power2amp/equal_lnn_AM2Hz_s55_49.m4a,,,,,,,,,,,,
,,,,,41811,2021-10-01_04h16.19.071,judgeSpeechMusic_20210919_logNormShiftAmp_detection_fixFreq,2020.1.2,Linux x86_64,60,,,,,,,,,,,,,,,,,,,,,,,,,,,,,,1,8.0614,,0,0,1,1,17,1,stimuli/stim_20210919_power2amp/equal_lnn_AM2Hz_s25_24.m4a,,,,,,,,,,,,
,,,,,41811,2021-10-01_04h16.19.071,judgeSpeechMusic_20210919_logNormShiftAmp_detection_fixFreq,2020.1.2,Linux x86_64,60,,,,,,,,,,,,,,,,,,,,,,,,,,,,,,2,6.0602,,0,0,2,2,4,1,stimuli/stim_20210919_power2amp/equal_lnn_AM2Hz_s15_22.m4a,,,,,,,,,,,,
,,,,,41811,2021-10-01_04h16.19.071,judgeSpeechMusic_20210919_logNormShiftAmp_detection_fixFreq,2020.1.2,Linux x86_64,60,,,,,,,,,,,,,,,,,,,,,,,,,,,,,,1,8.1119,,0,0,3,3,10,1,stimuli/stim_20210919_power2amp/equal_lnn_AM2Hz_s15_35.m4a,,,,,,,,,,,,
,,,,,41811,2021-10-01_04h16.19.071,judgeSpeechMusic_20210919_logNormShiftAmp_detection_fixFreq,2020.1.2,Linux x86_64,60,,,,,,,,,,,,,,,,,,,,,,,,,,,,,,1,7.3465,,0,0,4,4,29,1,stimuli/stim_20210919_power2amp/equal_lnn_AM2Hz_s25_36.m4a,,,,,,,,,,,,
,,,,,41811,2021-10-01_04h16.19.071,judgeSpeechMusic_20210919_logNormShiftAmp_detection_fixFreq,2020.1.2,Linux x86_64,60,,,,,,,,,,,,,,,,,,,,,,,,,,,,,,1,13.7183,,0,0,5,5,39,1,stimuli/stim_20210919_power2amp/equal_lnn_AM2Hz_s35_18.m4a,,,,,,,,,,,,
,,,,,41811,2021-10-01_04h16.19.071,judgeSpeechMusic_20210919_logNormShiftAmp_detection_fixFreq,2020.1.2,Linux x86_64,60,,,,,,,,,,,,,,,,,,,,,,,,,,,,,,2,7.6962,,0,0,6,6,11,1,stimuli/stim_20210919_power2amp/equal_lnn_AM2Hz_s15_25.m4a,,,,,,,,,,,,
,,,,,41811,2021-10-01_04h16.19.071,judgeSpeechMusic_20210919_logNormShiftAmp_detection_fixFreq,2020.1.2,Linux x86_64,60,,,,,,,,,,,,,,,,,,,,,,,,,,,,,,2,8.2642,,0,0,7,7,41,1,stimuli/stim_20210919_power2amp/equal_lnn_AM2Hz_s35_24.m4a,,,,,,,,,,,,
,,,,,41811,2021-10-01_04h16.19.071,judgeSpeechMusic_20210919_logNormShiftAmp_detection_fixFreq,2020.1.2,Linux x86_64,60,,,,,,,,,,,,,,,,,,,,,,,,,,,,,,1,6.3787,,0,0,8,8,66,1,stimuli/stim_20210919_power2amp/equal_lnn_AM2Hz_s55_43.m4a,,,,,,,,,,,,
,,,,,41811,2021-10-01_04h16.19.071,judgeSpeechMusic_20210919_logNormShiftAmp_detection_fixFreq,2020.1.2,Linux x86_64,60,,,,,,,,,,,,,,,,,,,,,,,,,,,,,,2,5.8597,,0,0,9,9,1,1,stimuli/stim_20210919_power2amp/equal_lnn_AM2Hz_s15_23.m4a,,,,,,,,,,,,
,,,,,41811,2021-10-01_04h16.19.071,judgeSpeechMusic_20210919_logNormShiftAmp_detection_fixFreq,2020.1.2,Linux x86_64,60,,,,,,,,,,,,,,,,,,,,,,,,,,,,,,2,7.2624,,0,0,10,10,18,1,stimuli/stim_20210919_power2amp/equal_lnn_AM2Hz_s25_32.m4a,,,,,,,,,,,,
,,,,,41811,2021-10-01_04h16.19.071,judgeSpeechMusic_20210919_logNormShiftAmp_detection_fixFreq,2020.1.2,Linux x86_64,60,,,,,,,,,,,,,,,,,,,,,,,,,,,,,,1,9.9968,,0,0,11,11,22,1,stimuli/stim_20210919_power2amp/equal_lnn_AM2Hz_s25_19.m4a,,,,,,,,,,,,
,,,,,41811,2021-10-01_04h16.19.071,judgeSpeechMusic_20210919_logNormShiftAmp_detection_fixFreq,2020.1.2,Linux x86_64,60,,,,,,,,,,,,,,,,,,,,,,,,,,,,,,2,7.629,,0,0,12,12,23,1,stimuli/stim_20210919_power2amp/equal_lnn_AM2Hz_s25_20.m4a,,,,,,,,,,,,
,,,,,41811,2021-10-01_04h16.19.071,judgeSpeechMusic_20210919_logNormShiftAmp_detection_fixFreq,2020.1.2,Linux x86_64,60,,,,,,,,,,,,,,,,,,,,,,,,,,,,,,2,6.0977,,0,0,13,13,15,1,stimuli/stim_20210919_power2amp/equal_lnn_AM2Hz_s25_27.m4a,,,,,,,,,,,,
,,,,,41811,2021-10-01_04h16.19.071,judgeSpeechMusic_20210919_logNormShiftAmp_detection_fixFreq,2020.1.2,Linux x86_64,60,,,,,,,,,,,,,,,,,,,,,,,,,,,,,,1,22.4101,,0,0,14,14,64,1,stimuli/stim_20210919_power2amp/equal_lnn_AM2Hz_s55_6.m4a,,,,,,,,,,,,
,,,,,41811,2021-10-01_04h16.19.071,judgeSpeechMusic_20210919_logNormShiftAmp_detection_fixFreq,2020.1.2,Linux x86_64,60,,,,,,,,,,,,,,,,,,,,,,,,,,,,,,2,9.4438,,0,0,15,15,5,1,stimuli/stim_20210919_power2amp/equal_lnn_AM2Hz_s15_12.m4a,,,,,,,,,,,,
,,,,,41811,2021-10-01_04h16.19.071,judgeSpeechMusic_20210919_logNormShiftAmp_detection_fixFreq,2020.1.2,Linux x86_64,60,,,,,,,,,,,,,,,,,,,,,,,,,,,,,,1,20.768,,0,0,16,16,47,1,stimuli/stim_20210919_power2amp/equal_lnn_AM2Hz_s45_18.m4a,,,,,,,,,,,,
,,,,,41811,2021-10-01_04h16.19.071,judgeSpeechMusic_20210919_logNormShiftAmp_detection_fixFreq,2020.1.2,Linux x86_64,60,,,,,,,,,,,,,,,,,,,,,,,,,,,,,,2,6.6125,,0,0,17,17,28,1,stimuli/stim_20210919_power2amp/equal_lnn_AM2Hz_s25_8.m4a,,,,,,,,,,,,
,,,,,41811,2021-10-01_04h16.19.071,judgeSpeechMusic_20210919_logNormShiftAmp_detection_fixFreq,2020.1.2,Linux x86_64,60,,,,,,,,,,,,,,,,,,,,,,,,,,,,,,1,9.8594,,0,0,18,18,6,1,stimuli/stim_20210919_power2amp/equal_lnn_AM2Hz_s15_18.m4a,,,,,,,,,,,,
,,,,,41811,2021-10-01_04h16.19.071,judgeSpeechMusic_20210919_logNormShiftAmp_detection_fixFreq,2020.1.2,Linux x86_64,60,,,,,,,,,,,,,,,,,,,,,,,,,,,,,,2,8.1788,,0,0,19,19,59,1,stimuli/stim_20210919_power2amp/equal_lnn_AM2Hz_s45_20.m4a,,,,,,,,,,,,
,,,,,41811,2021-10-01_04h16.19.071,judgeSpeechMusic_20210919_logNormShiftAmp_detection_fixFreq,2020.1.2,Linux x86_64,60,,,,,,,,,,,,,,,,,,,,,,,,,,,,,,1,35.4031,,0,0,20,20,67,1,stimuli/stim_20210919_power2amp/equal_lnn_AM2Hz_s55_12.m4a,,,,,,,,,,,,
,,,,,41811,2021-10-01_04h16.19.071,judgeSpeechMusic_20210919_logNormShiftAmp_detection_fixFreq,2020.1.2,Linux x86_64,60,,,,,,,,,,,,,,,,,,,,,,,,,,,,,,2,9.2288,,0,0,21,21,46,1,stimuli/stim_20210919_power2amp/equal_lnn_AM2Hz_s45_33.m4a,,,,,,,,,,,,
,,,,,41811,2021-10-01_04h16.19.071,judgeSpeechMusic_20210919_logNormShiftAmp_detection_fixFreq,2020.1.2,Linux x86_64,60,,,,,,,,,,,,,,,,,,,,,,,,,,,,,,1,10.1217,1,1,0,22,22,69,1,stimuli/stim_20210919_power2amp/equal_lnn_AM2Hz_s55_48.m4a,14.3912,,,,,,,,,,,
,,,,,41811,2021-10-01_04h16.19.071,judgeSpeechMusic_20210919_logNormShiftAmp_detection_fixFreq,2020.1.2,Linux x86_64,60,,,,,,,,,,,,,,,,,,,,,,,,,,,,,,1,11.9471,,0,0,23,23,13,1,stimuli/stim_20210919_power2amp/equal_lnn_AM2Hz_s15_31.m4a,,,,,,,,,,,,
,,,,,41811,2021-10-01_04h16.19.071,judgeSpeechMusic_20210919_logNormShiftAmp_detection_fixFreq,2020.1.2,Linux x86_64,60,,,,,,,,,,,,,,,,,,,,,,,,,,,,,,2,7.1946,,0,0,24,24,21,1,stimuli/stim_20210919_power2amp/equal_lnn_AM2Hz_s25_35.m4a,,,,,,,,,,,,
,,,,,41811,2021-10-01_04h16.19.071,judgeSpeechMusic_20210919_logNormShiftAmp_detection_fixFreq,2020.1.2,Linux x86_64,60,,,,,,,,,,,,,,,,,,,,,,,,,,,,,,1,6.5262,,0,0,25,25,68,1,stimuli/stim_20210919_power2amp/equal_lnn_AM2Hz_s55_47.m4a,,,,,,,,,,,,
,,,,,41811,2021-10-01_04h16.19.071,judgeSpeechMusic_20210919_logNormShiftAmp_detection_fixFreq,2020.1.2,Linux x86_64,60,,,,,,,,,,,,,,,,,,,,,,,,,,,,,,2,8.2582,,0,0,26,26,73,1,stimuli/stim_20210919_power2amp/equal_lnn_AM2Hz_s55_27.m4a,,,,,,,,,,,,
,,,,,41811,2021-10-01_04h16.19.071,judgeSpeechMusic_20210919_logNormShiftAmp_detection_fixFreq,2020.1.2,Linux x86_64,60,,,,,,,,,,,,,,,,,,,,,,,,,,,,,,1,7.0575,,0,0,27,27,40,1,stimuli/stim_20210919_power2amp/equal_lnn_AM2Hz_s35_38.m4a,,,,,,,,,,,,
,,,,,41811,2021-10-01_04h16.19.071,judgeSpeechMusic_20210919_logNormShiftAmp_detection_fixFreq,2020.1.2,Linux x86_64,60,,,,,,,,,,,,,,,,,,,,,,,,,,,,,,2,8.1263,,0,0,28,28,34,1,stimuli/stim_20210919_power2amp/equal_lnn_AM2Hz_s35_32.m4a,,,,,,,,,,,,
,,,,,41811,2021-10-01_04h16.19.071,judgeSpeechMusic_20210919_logNormShiftAmp_detection_fixFreq,2020.1.2,Linux x86_64,60,,,,,,,,,,,,,,,,,,,,,,,,,,,,,,1,12.3866,,0,0,29,29,25,1,stimuli/stim_20210919_power2amp/equal_lnn_AM2Hz_s25_34.m4a,,,,,,,,,,,,
,,,,,41811,2021-10-01_04h16.19.071,judgeSpeechMusic_20210919_logNormShiftAmp_detection_fixFreq,2020.1.2,Linux x86_64,60,,,,,,,,,,,,,,,,,,,,,,,,,,,,,,2,9.1917,,0,0,30,30,27,1,stimuli/stim_20210919_power2amp/equal_lnn_AM2Hz_s25_30.m4a,,,,,,,,,,,,
,,,,,41811,2021-10-01_04h16.19.071,judgeSpeechMusic_20210919_logNormShiftAmp_detection_fixFreq,2020.1.2,Linux x86_64,60,,,,,,,,,,,,,,,,,,,,,,,,,,,,,,1,7.4103,,0,0,31,31,26,1,stimuli/stim_20210919_power2amp/equal_lnn_AM2Hz_s25_47.m4a,,,,,,,,,,,,
,,,,,41811,2021-10-01_04h16.19.071,judgeSpeechMusic_20210919_logNormShiftAmp_detection_fixFreq,2020.1.2,Linux x86_64,60,,,,,,,,,,,,,,,,,,,,,,,,,,,,,,2,11.132,,0,0,32,32,55,1,stimuli/stim_20210919_power2amp/equal_lnn_AM2Hz_s45_24.m4a,,,,,,,,,,,,
,,,,,41811,2021-10-01_04h16.19.071,judgeSpeechMusic_20210919_logNormShiftAmp_detection_fixFreq,2020.1.2,Linux x86_64,60,,,,,,,,,,,,,,,,,,,,,,,,,,,,,,1,8.3074,,0,0,33,33,54,1,stimuli/stim_20210919_power2amp/equal_lnn_AM2Hz_s45_37.m4a,,,,,,,,,,,,
,,,,,41811,2021-10-01_04h16.19.071,judgeSpeechMusic_20210919_logNormShiftAmp_detection_fixFreq,2020.1.2,Linux x86_64,60,,,,,,,,,,,,,,,,,,,,,,,,,,,,,,2,7.0911,,0,0,34,34,33,1,stimuli/stim_20210919_power2amp/equal_lnn_AM2Hz_s35_1.m4a,,,,,,,,,,,,
,,,,,41811,2021-10-01_04h16.19.071,judgeSpeechMusic_20210919_logNormShiftAmp_detection_fixFreq,2020.1.2,Linux x86_64,60,,,,,,,,,,,,,,,,,,,,,,,,,,,,,,1,28.9094,,0,0,35,35,2,1,stimuli/stim_20210919_power2amp/equal_lnn_AM2Hz_s15_20.m4a,,,,,,,,,,,,
,,,,,41811,2021-10-01_04h16.19.071,judgeSpeechMusic_20210919_logNormShiftAmp_detection_fixFreq,2020.1.2,Linux x86_64,60,,,,,,,,,,,,,,,,,,,,,,,,,,,,,,2,5.757,,0,0,36,36,7,1,stimuli/stim_20210919_power2amp/equal_lnn_AM2Hz_s15_14.m4a,,,,,,,,,,,,
,,,,,41811,2021-10-01_04h16.19.071,judgeSpeechMusic_20210919_logNormShiftAmp_detection_fixFreq,2020.1.2,Linux x86_64,60,,,,,,,,,,,,,,,,,,,,,,,,,,,,,,1,28.7777,,0,0,37,37,35,1,stimuli/stim_20210919_power2amp/equal_lnn_AM2Hz_s35_9.m4a,,,,,,,,,,,,
,,,,,41811,2021-10-01_04h16.19.071,judgeSpeechMusic_20210919_logNormShiftAmp_detection_fixFreq,2020.1.2,Linux x86_64,60,,,,,,,,,,,,,,,,,,,,,,,,,,,,,,1,6.8743,,0,0,38,38,8,1,stimuli/stim_20210919_power2amp/equal_lnn_AM2Hz_s15_5.m4a,,,,,,,,,,,,
,,,,,41811,2021-10-01_04h16.19.071,judgeSpeechMusic_20210919_logNormShiftAmp_detection_fixFreq,2020.1.2,Linux x86_64,60,,,,,,,,,,,,,,,,,,,,,,,,,,,,,,2,5.7579,,0,0,39,39,19,1,stimuli/stim_20210919_power2amp/equal_lnn_AM2Hz_s25_11.m4a,,,,,,,,,,,,
,,,,,41811,2021-10-01_04h16.19.071,judgeSpeechMusic_20210919_logNormShiftAmp_detection_fixFreq,2020.1.2,Linux x86_64,60,,,,,,,,,,,,,,,,,,,,,,,,,,,,,,2,5.7271,1,1,0,40,40,63,1,stimuli/stim_20210919_power2amp/equal_lnn_AM2Hz_s55_21.m4a,1.6941,,,,,,,,,,,
,,,,,41811,2021-10-01_04h16.19.071,judgeSpeechMusic_20210919_logNormShiftAmp_detection_fixFreq,2020.1.2,Linux x86_64,60,,,,,,,,,,,,,,,,,,,,,,,,,,,,,,1,19.4757,,0,0,41,41,61,1,stimuli/stim_20210919_power2amp/equal_lnn_AM2Hz_s55_42.m4a,,,,,,,,,,,,
,,,,,41811,2021-10-01_04h16.19.071,judgeSpeechMusic_20210919_logNormShiftAmp_detection_fixFreq,2020.1.2,Linux x86_64,60,,,,,,,,,,,,,,,,,,,,,,,,,,,,,,2,11.9744,,0,0,42,42,45,1,stimuli/stim_20210919_power2amp/equal_lnn_AM2Hz_s45_14.m4a,,,,,,,,,,,,
,,,,,41811,2021-10-01_04h16.19.071,judgeSpeechMusic_20210919_logNormShiftAmp_detection_fixFreq,2020.1.2,Linux x86_64,60,,,,,,,,,,,,,,,,,,,,,,,,,,,,,,1,93.3594,,0,0,43,43,14,1,stimuli/stim_20210919_power2amp/equal_lnn_AM2Hz_s15_24.m4a,,,,,,,,,,,,
,,,,,41811,2021-10-01_04h16.19.071,judgeSpeechMusic_20210919_logNormShiftAmp_detection_fixFreq,2020.1.2,Linux x86_64,60,,,,,,,,,,,,,,,,,,,,,,,,,,,,,,2,12.0098,,0,0,44,44,3,1,stimuli/stim_20210919_power2amp/equal_lnn_AM2Hz_s15_21.m4a,,,,,,,,,,,,
,,,,,41811,2021-10-01_04h16.19.071,judgeSpeechMusic_20210919_logNormShiftAmp_detection_fixFreq,2020.1.2,Linux x86_64,60,,,,,,,,,,,,,,,,,,,,,,,,,,,,,,2,13.7586,,0,0,45,45,32,1,stimuli/stim_20210919_power2amp/equal_lnn_AM2Hz_s35_13.m4a,,,,,,,,,,,,
,,,,,41811,2021-10-01_04h16.19.071,judgeSpeechMusic_20210919_logNormShiftAmp_detection_fixFreq,2020.1.2,Linux x86_64,60,,,,,,,,,,,,,,,,,,,,,,,,,,,,,,2,20.9798,,0,0,46,46,65,1,stimuli/stim_20210919_power2amp/equal_lnn_AM2Hz_s55_26.m4a,,,,,,,,,,,,
,,,,,41811,2021-10-01_04h16.19.071,judgeSpeechMusic_20210919_logNormShiftAmp_detection_fixFreq,2020.1.2,Linux x86_64,60,,,,,,,,,,,,,,,,,,,,,,,,,,,,,,1,10.3073,,0,0,47,47,50,1,stimuli/stim_20210919_power2amp/equal_lnn_AM2Hz_s45_40.m4a,,,,,,,,,,,,
,,,,,41811,2021-10-01_04h16.19.071,judgeSpeechMusic_20210919_logNormShiftAmp_detection_fixFreq,2020.1.2,Linux x86_64,60,,,,,,,,,,,,,,,,,,,,,,,,,,,,,,2,14.5264,,0,0,48,48,53,1,stimuli/stim_20210919_power2amp/equal_lnn_AM2Hz_s45_26.m4a,,,,,,,,,,,,
,,,,,41811,2021-10-01_04h16.19.071,judgeSpeechMusic_20210919_logNormShiftAmp_detection_fixFreq,2020.1.2,Linux x86_64,60,,,,,,,,,,,,,,,,,,,,,,,,,,,,,,1,7.1247,,0,0,49,49,37,1,stimuli/stim_20210919_power2amp/equal_lnn_AM2Hz_s35_34.m4a,,,,,,,,,,,,
,,,,,41811,2021-10-01_04h16.19.071,judgeSpeechMusic_20210919_logNormShiftAmp_detection_fixFreq,2020.1.2,Linux x86_64,60,,,,,,,,,,,,,,,,,,,,,,,,,,,,,,2,12.6598,,0,0,50,50,56,1,stimuli/stim_20210919_power2amp/equal_lnn_AM2Hz_s45_44.m4a,,,,,,,,,,,,
,,,,,41811,2021-10-01_04h16.19.071,judgeSpeechMusic_20210919_logNormShiftAmp_detection_fixFreq,2020.1.2,Linux x86_64,60,,,,,,,,,,,,,,,,,,,,,,,,,,,,,,1,7.3885,,0,0,51,51,12,1,stimuli/stim_20210919_power2amp/equal_lnn_AM2Hz_s15_15.m4a,,,,,,,,,,,,
,,,,,41811,2021-10-01_04h16.19.071,judgeSpeechMusic_20210919_logNormShiftAmp_detection_fixFreq,2020.1.2,Linux x86_64,60,,,,,,,,,,,,,,,,,,,,,,,,,,,,,,2,6.1242,,0,0,52,52,42,1,stimuli/stim_20210919_power2amp/equal_lnn_AM2Hz_s35_45.m4a,,,,,,,,,,,,
,,,,,41811,2021-10-01_04h16.19.071,judgeSpeechMusic_20210919_logNormShiftAmp_detection_fixFreq,2020.1.2,Linux x86_64,60,,,,,,,,,,,,,,,,,,,,,,,,,,,,,,2,12.775,,0,0,53,53,57,1,stimuli/stim_20210919_power2amp/equal_lnn_AM2Hz_s45_1.m4a,,,,,,,,,,,,
,,,,,41811,2021-10-01_04h16.19.071,judgeSpeechMusic_20210919_logNormShiftAmp_detection_fixFreq,2020.1.2,Linux x86_64,60,,,,,,,,,,,,,,,,,,,,,,,,,,,,,,1,6.0603,,0,0,54,54,74,1,stimuli/stim_20210919_power2amp/equal_lnn_AM2Hz_s55_13.m4a,,,,,,,,,,,,
,,,,,41811,2021-10-01_04h16.19.071,judgeSpeechMusic_20210919_logNormShiftAmp_detection_fixFreq,2020.1.2,Linux x86_64,60,,,,,,,,,,,,,,,,,,,,,,,,,,,,,,2,6.6888,,0,0,55,55,60,1,stimuli/stim_20210919_power2amp/equal_lnn_AM2Hz_s55_44.m4a,,,,,,,,,,,,
,,,,,41811,2021-10-01_04h16.19.071,judgeSpeechMusic_20210919_logNormShiftAmp_detection_fixFreq,2020.1.2,Linux x86_64,60,,,,,,,,,,,,,,,,,,,,,,,,,,,,,,2,24.8712,,0,0,56,56,16,1,stimuli/stim_20210919_power2amp/equal_lnn_AM2Hz_s25_46.m4a,,,,,,,,,,,,
,,,,,41811,2021-10-01_04h16.19.071,judgeSpeechMusic_20210919_logNormShiftAmp_detection_fixFreq,2020.1.2,Linux x86_64,60,,,,,,,,,,,,,,,,,,,,,,,,,,,,,,1,6.3425,,0,0,57,57,72,1,stimuli/stim_20210919_power2amp/equal_lnn_AM2Hz_s55_23.m4a,,,,,,,,,,,,
,,,,,41811,2021-10-01_04h16.19.071,judgeSpeechMusic_20210919_logNormShiftAmp_detection_fixFreq,2020.1.2,Linux x86_64,60,,,,,,,,,,,,,,,,,,,,,,,,,,,,,,2,8.893,2,1,0,58,58,0,1,stimuli/stim_20210919_power2amp/equal_lnn_AM2Hz_s15_41.m4a,0.6607,,,,,,,,,,,
,,,,,41811,2021-10-01_04h16.19.071,judgeSpeechMusic_20210919_logNormShiftAmp_detection_fixFreq,2020.1.2,Linux x86_64,60,,,,,,,,,,,,,,,,,,,,,,,,,,,,,,2,8.828,,0,0,59,59,62,1,stimuli/stim_20210919_power2amp/equal_lnn_AM2Hz_s55_14.m4a,,,,,,,,,,,,
,,,,,41811,2021-10-01_04h16.19.071,judgeSpeechMusic_20210919_logNormShiftAmp_detection_fixFreq,2020.1.2,Linux x86_64,60,,,,,,,,,,,,,,,,,,,,,,,,,,,,,,1,10.3091,,0,0,60,60,36,1,stimuli/stim_20210919_power2amp/equal_lnn_AM2Hz_s35_4.m4a,,,,,,,,,,,,
,,,,,41811,2021-10-01_04h16.19.071,judgeSpeechMusic_20210919_logNormShiftAmp_detection_fixFreq,2020.1.2,Linux x86_64,60,,,,,,,,,,,,,,,,,,,,,,,,,,,,,,2,8.3253,,0,0,61,61,52,1,stimuli/stim_20210919_power2amp/equal_lnn_AM2Hz_s45_28.m4a,,,,,,,,,,,,
,,,,,41811,2021-10-01_04h16.19.071,judgeSpeechMusic_20210919_logNormShiftAmp_detection_fixFreq,2020.1.2,Linux x86_64,60,,,,,,,,,,,,,,,,,,,,,,,,,,,,,,2,9.1431,,0,0,62,62,51,1,stimuli/stim_20210919_power2amp/equal_lnn_AM2Hz_s45_31.m4a,,,,,,,,,,,,
,,,,,41811,2021-10-01_04h16.19.071,judgeSpeechMusic_20210919_logNormShiftAmp_detection_fixFreq,2020.1.2,Linux x86_64,60,,,,,,,,,,,,,,,,,,,,,,,,,,,,,,1,6.4909,,0,0,63,63,20,1,stimuli/stim_20210919_power2amp/equal_lnn_AM2Hz_s25_22.m4a,,,,,,,,,,,,
,,,,,41811,2021-10-01_04h16.19.071,judgeSpeechMusic_20210919_logNormShiftAmp_detection_fixFreq,2020.1.2,Linux x86_64,60,,,,,,,,,,,,,,,,,,,,,,,,,,,,,,2,6.6554,,0,0,64,64,38,1,stimuli/stim_20210919_power2amp/equal_lnn_AM2Hz_s35_3.m4a,,,,,,,,,,,,
,,,,,41811,2021-10-01_04h16.19.071,judgeSpeechMusic_20210919_logNormShiftAmp_detection_fixFreq,2020.1.2,Linux x86_64,60,,,,,,,,,,,,,,,,,,,,,,,,,,,,,,1,8.8733,,0,0,65,65,58,1,stimuli/stim_20210919_power2amp/equal_lnn_AM2Hz_s45_3.m4a,,,,,,,,,,,,
,,,,,41811,2021-10-01_04h16.19.071,judgeSpeechMusic_20210919_logNormShiftAmp_detection_fixFreq,2020.1.2,Linux x86_64,60,,,,,,,,,,,,,,,,,,,,,,,,,,,,,,2,18.9945,,0,0,66,66,70,1,stimuli/stim_20210919_power2amp/equal_lnn_AM2Hz_s55_15.m4a,,,,,,,,,,,,
,,,,,41811,2021-10-01_04h16.19.071,judgeSpeechMusic_20210919_logNormShiftAmp_detection_fixFreq,2020.1.2,Linux x86_64,60,,,,,,,,,,,,,,,,,,,,,,,,,,,,,,1,33.9256,,0,0,67,67,44,1,stimuli/stim_20210919_power2amp/equal_lnn_AM2Hz_s35_2.m4a,,,,,,,,,,,,
,,,,,41811,2021-10-01_04h16.19.071,judgeSpeechMusic_20210919_logNormShiftAmp_detection_fixFreq,2020.1.2,Linux x86_64,60,,,,,,,,,,,,,,,,,,,,,,,,,,,,,,1,12.7291,,0,0,68,68,24,1,stimuli/stim_20210919_power2amp/equal_lnn_AM2Hz_s25_15.m4a,,,,,,,,,,,,
,,,,,41811,2021-10-01_04h16.19.071,judgeSpeechMusic_20210919_logNormShiftAmp_detection_fixFreq,2020.1.2,Linux x86_64,60,,,,,,,,,,,,,,,,,,,,,,,,,,,,,,2,5.941,,0,0,69,69,9,1,stimuli/stim_20210919_power2amp/equal_lnn_AM2Hz_s15_30.m4a,,,,,,,,,,,,
,,,,,41811,2021-10-01_04h16.19.071,judgeSpeechMusic_20210919_logNormShiftAmp_detection_fixFreq,2020.1.2,Linux x86_64,60,,,,,,,,,,,,,,,,,,,,,,,,,,,,,,2,7.7759,,0,0,70,70,31,1,stimuli/stim_20210919_power2amp/equal_lnn_AM2Hz_s35_10.m4a,,,,,,,,,,,,
,,,,,41811,2021-10-01_04h16.19.071,judgeSpeechMusic_20210919_logNormShiftAmp_detection_fixFreq,2020.1.2,Linux x86_64,60,,,,,,,,,,,,,,,,,,,,,,,,,,,,,,1,11.1066,,0,0,71,71,30,1,stimuli/stim_20210919_power2amp/equal_lnn_AM2Hz_s35_22.m4a,,,,,,,,,,,,
,,,,,41811,2021-10-01_04h16.19.071,judgeSpeechMusic_20210919_logNormShiftAmp_detection_fixFreq,2020.1.2,Linux x86_64,60,,,,,,,,,,,,,,,,,,,,,,,,,,,,,,2,7.6088,,0,0,72,72,49,1,stimuli/stim_20210919_power2amp/equal_lnn_AM2Hz_s45_7.m4a,,,,,,,,,,,,
,,,,,41811,2021-10-01_04h16.19.071,judgeSpeechMusic_20210919_logNormShiftAmp_detection_fixFreq,2020.1.2,Linux x86_64,60,,,,,,,,,,,,,,,,,,,,,,,,,,,,,,2,33.6296,,0,0,73,73,48,1,stimuli/stim_20210919_power2amp/equal_lnn_AM2Hz_s45_42.m4a,,,,,,,,,,,,
,,,,,41811,2021-10-01_04h16.19.071,judgeSpeechMusic_20210919_logNormShiftAmp_detection_fixFreq,2020.1.2,Linux x86_64,60,,,,,,,,,,,,,,,,,,,,,,,,,,,,,,2,8.0942,,0,0,74,74,43,1,stimuli/stim_20210919_power2amp/equal_lnn_AM2Hz_s35_8.m4a,,,,,,,,,,,,
,,,,,41811,2021-10-01_04h16.19.071,judgeSpeechMusic_20210919_logNormShiftAmp_detection_fixFreq,2020.1.2,Linux x86_64,60,,,,,,,,,,,,,,,,,,,,,,,,,,,,,,,,,,,,,,,,,space,50.7456,0,1,1,0,1,MUSIC,stimuli/MUSIC.jpg,,
,,,,,41811,2021-10-01_04h16.19.071,judgeSpeechMusic_20210919_logNormShiftAmp_detection_fixFreq,2020.1.2,Linux x86_64,60,,,,,,,,,,,,,,,,,,0,0,0,0,1,1,stimuli/stim_20210919_power2amp/equal_lnn_AM_training2Hz_s30.m4a,,,,,,,,,,,,,,,,,,,,,,,,,,,
,,,,,41811,2021-10-01_04h16.19.071,judgeSpeechMusic_20210919_logNormShiftAmp_detection_fixFreq,2020.1.2,Linux x86_64,60,,,,,,,,,,,,,,,,,,,,,,,,,,space,33.1721,space,17.671,1,6.7597,,0,0,0,0,54,1,stimuli/stim_20210919_power2amp/equal_lnn_AM2Hz_s45_37.m4a,,,,,,,,,,,,
,,,,,41811,2021-10-01_04h16.19.071,judgeSpeechMusic_20210919_logNormShiftAmp_detection_fixFreq,2020.1.2,Linux x86_64,60,,,,,,,,,,,,,,,,,,,,,,,,,,,,,,2,7.6606,,0,0,1,1,9,1,stimuli/stim_20210919_power2amp/equal_lnn_AM2Hz_s15_30.m4a,,,,,,,,,,,,
,,,,,41811,2021-10-01_04h16.19.071,judgeSpeechMusic_20210919_logNormShiftAmp_detection_fixFreq,2020.1.2,Linux x86_64,60,,,,,,,,,,,,,,,,,,,,,,,,,,,,,,1,14.4889,,0,0,2,2,21,1,stimuli/stim_20210919_power2amp/equal_lnn_AM2Hz_s25_35.m4a,,,,,,,,,,,,
,,,,,41811,2021-10-01_04h16.19.071,judgeSpeechMusic_20210919_logNormShiftAmp_detection_fixFreq,2020.1.2,Linux x86_64,60,,,,,,,,,,,,,,,,,,,,,,,,,,,,,,2,6.8384,,0,0,3,3,15,1,stimuli/stim_20210919_power2amp/equal_lnn_AM2Hz_s25_27.m4a,,,,,,,,,,,,
,,,,,41811,2021-10-01_04h16.19.071,judgeSpeechMusic_20210919_logNormShiftAmp_detection_fixFreq,2020.1.2,Linux x86_64,60,,,,,,,,,,,,,,,,,,,,,,,,,,,,,,1,13.2596,,0,0,4,4,28,1,stimuli/stim_20210919_power2amp/equal_lnn_AM2Hz_s25_8.m4a,,,,,,,,,,,,
,,,,,41811,2021-10-01_04h16.19.071,judgeSpeechMusic_20210919_logNormShiftAmp_detection_fixFreq,2020.1.2,Linux x86_64,60,,,,,,,,,,,,,,,,,,,,,,,,,,,,,,2,9.9251,,0,0,5,5,72,1,stimuli/stim_20210919_power2amp/equal_lnn_AM2Hz_s55_23.m4a,,,,,,,,,,,,
,,,,,41811,2021-10-01_04h16.19.071,judgeSpeechMusic_20210919_logNormShiftAmp_detection_fixFreq,2020.1.2,Linux x86_64,60,,,,,,,,,,,,,,,,,,,,,,,,,,,,,,1,8.0231,,0,0,6,6,50,1,stimuli/stim_20210919_power2amp/equal_lnn_AM2Hz_s45_40.m4a,,,,,,,,,,,,
,,,,,41811,2021-10-01_04h16.19.071,judgeSpeechMusic_20210919_logNormShiftAmp_detection_fixFreq,2020.1.2,Linux x86_64,60,,,,,,,,,,,,,,,,,,,,,,,,,,,,,,2,33.1101,,0,0,7,7,52,1,stimuli/stim_20210919_power2amp/equal_lnn_AM2Hz_s45_28.m4a,,,,,,,,,,,,
,,,,,41811,2021-10-01_04h16.19.071,judgeSpeechMusic_20210919_logNormShiftAmp_detection_fixFreq,2020.1.2,Linux x86_64,60,,,,,,,,,,,,,,,,,,,,,,,,,,,,,,2,21.9917,,0,0,8,8,57,1,stimuli/stim_20210919_power2amp/equal_lnn_AM2Hz_s45_1.m4a,,,,,,,,,,,,
,,,,,41811,2021-10-01_04h16.19.071,judgeSpeechMusic_20210919_logNormShiftAmp_detection_fixFreq,2020.1.2,Linux x86_64,60,,,,,,,,,,,,,,,,,,,,,,,,,,,,,,1,7.4754,,0,0,9,9,6,1,stimuli/stim_20210919_power2amp/equal_lnn_AM2Hz_s15_18.m4a,,,,,,,,,,,,
,,,,,41811,2021-10-01_04h16.19.071,judgeSpeechMusic_20210919_logNormShiftAmp_detection_fixFreq,2020.1.2,Linux x86_64,60,,,,,,,,,,,,,,,,,,,,,,,,,,,,,,2,31.9225,,0,0,10,10,34,1,stimuli/stim_20210919_power2amp/equal_lnn_AM2Hz_s35_32.m4a,,,,,,,,,,,,
,,,,,41811,2021-10-01_04h16.19.071,judgeSpeechMusic_20210919_logNormShiftAmp_detection_fixFreq,2020.1.2,Linux x86_64,60,,,,,,,,,,,,,,,,,,,,,,,,,,,,,,1,6.9743,,0,0,11,11,10,1,stimuli/stim_20210919_power2amp/equal_lnn_AM2Hz_s15_35.m4a,,,,,,,,,,,,
,,,,,41811,2021-10-01_04h16.19.071,judgeSpeechMusic_20210919_logNormShiftAmp_detection_fixFreq,2020.1.2,Linux x86_64,60,,,,,,,,,,,,,,,,,,,,,,,,,,,,,,2,7.6593,,0,0,12,12,3,1,stimuli/stim_20210919_power2amp/equal_lnn_AM2Hz_s15_21.m4a,,,,,,,,,,,,
,,,,,41811,2021-10-01_04h16.19.071,judgeSpeechMusic_20210919_logNormShiftAmp_detection_fixFreq,2020.1.2,Linux x86_64,60,,,,,,,,,,,,,,,,,,,,,,,,,,,,,,1,8.9259,,0,0,13,13,66,1,stimuli/stim_20210919_power2amp/equal_lnn_AM2Hz_s55_43.m4a,,,,,,,,,,,,
,,,,,41811,2021-10-01_04h16.19.071,judgeSpeechMusic_20210919_logNormShiftAmp_detection_fixFreq,2020.1.2,Linux x86_64,60,,,,,,,,,,,,,,,,,,,,,,,,,,,,,,1,8.7749,,0,0,14,14,74,1,stimuli/stim_20210919_power2amp/equal_lnn_AM2Hz_s55_13.m4a,,,,,,,,,,,,
,,,,,41811,2021-10-01_04h16.19.071,judgeSpeechMusic_20210919_logNormShiftAmp_detection_fixFreq,2020.1.2,Linux x86_64,60,,,,,,,,,,,,,,,,,,,,,,,,,,,,,,2,7.2751,,0,0,15,15,67,1,stimuli/stim_20210919_power2amp/equal_lnn_AM2Hz_s55_12.m4a,,,,,,,,,,,,
,,,,,41811,2021-10-01_04h16.19.071,judgeSpeechMusic_20210919_logNormShiftAmp_detection_fixFreq,2020.1.2,Linux x86_64,60,,,,,,,,,,,,,,,,,,,,,,,,,,,,,,2,21.6461,,0,0,16,16,46,1,stimuli/stim_20210919_power2amp/equal_lnn_AM2Hz_s45_33.m4a,,,,,,,,,,,,
,,,,,41811,2021-10-01_04h16.19.071,judgeSpeechMusic_20210919_logNormShiftAmp_detection_fixFreq,2020.1.2,Linux x86_64,60,,,,,,,,,,,,,,,,,,,,,,,,,,,,,,2,74.0101,,0,0,17,17,71,1,stimuli/stim_20210919_power2amp/equal_lnn_AM2Hz_s55_49.m4a,,,,,,,,,,,,
,,,,,41811,2021-10-01_04h16.19.071,judgeSpeechMusic_20210919_logNormShiftAmp_detection_fixFreq,2020.1.2,Linux x86_64,60,,,,,,,,,,,,,,,,,,,,,,,,,,,,,,2,32.7392,,0,0,18,18,55,1,stimuli/stim_20210919_power2amp/equal_lnn_AM2Hz_s45_24.m4a,,,,,,,,,,,,
,,,,,41811,2021-10-01_04h16.19.071,judgeSpeechMusic_20210919_logNormShiftAmp_detection_fixFreq,2020.1.2,Linux x86_64,60,,,,,,,,,,,,,,,,,,,,,,,,,,,,,,1,8.2104,,0,0,19,19,17,1,stimuli/stim_20210919_power2amp/equal_lnn_AM2Hz_s25_24.m4a,,,,,,,,,,,,
,,,,,41811,2021-10-01_04h16.19.071,judgeSpeechMusic_20210919_logNormShiftAmp_detection_fixFreq,2020.1.2,Linux x86_64,60,,,,,,,,,,,,,,,,,,,,,,,,,,,,,,2,6.923,,0,0,20,20,36,1,stimuli/stim_20210919_power2amp/equal_lnn_AM2Hz_s35_4.m4a,,,,,,,,,,,,
,,,,,41811,2021-10-01_04h16.19.071,judgeSpeechMusic_20210919_logNormShiftAmp_detection_fixFreq,2020.1.2,Linux x86_64,60,,,,,,,,,,,,,,,,,,,,,,,,,,,,,,1,6.0411,,0,0,21,21,48,1,stimuli/stim_20210919_power2amp/equal_lnn_AM2Hz_s45_42.m4a,,,,,,,,,,,,
,,,,,41811,2021-10-01_04h16.19.071,judgeSpeechMusic_20210919_logNormShiftAmp_detection_fixFreq,2020.1.2,Linux x86_64,60,,,,,,,,,,,,,,,,,,,,,,,,,,,,,,2,6.8635,3,1,0,22,22,24,1,stimuli/stim_20210919_power2amp/equal_lnn_AM2Hz_s25_15.m4a,1.861,,,,,,,,,,,
,,,,,41811,2021-10-01_04h16.19.071,judgeSpeechMusic_20210919_logNormShiftAmp_detection_fixFreq,2020.1.2,Linux x86_64,60,,,,,,,,,,,,,,,,,,,,,,,,,,,,,,2,7.3707,,0,0,23,23,8,1,stimuli/stim_20210919_power2amp/equal_lnn_AM2Hz_s15_5.m4a,,,,,,,,,,,,
,,,,,41811,2021-10-01_04h16.19.071,judgeSpeechMusic_20210919_logNormShiftAmp_detection_fixFreq,2020.1.2,Linux x86_64,60,,,,,,,,,,,,,,,,,,,,,,,,,,,,,,1,6.6582,,0,0,24,24,16,1,stimuli/stim_20210919_power2amp/equal_lnn_AM2Hz_s25_46.m4a,,,,,,,,,,,,
,,,,,41811,2021-10-01_04h16.19.071,judgeSpeechMusic_20210919_logNormShiftAmp_detection_fixFreq,2020.1.2,Linux x86_64,60,,,,,,,,,,,,,,,,,,,,,,,,,,,,,,2,5.8264,,0,0,25,25,44,1,stimuli/stim_20210919_power2amp/equal_lnn_AM2Hz_s35_2.m4a,,,,,,,,,,,,
,,,,,41811,2021-10-01_04h16.19.071,judgeSpeechMusic_20210919_logNormShiftAmp_detection_fixFreq,2020.1.2,Linux x86_64,60,,,,,,,,,,,,,,,,,,,,,,,,,,,,,,2,7.0262,,0,0,26,26,0,1,stimuli/stim_20210919_power2amp/equal_lnn_AM2Hz_s15_41.m4a,,,,,,,,,,,,
,,,,,41811,2021-10-01_04h16.19.071,judgeSpeechMusic_20210919_logNormShiftAmp_detection_fixFreq,2020.1.2,Linux x86_64,60,,,,,,,,,,,,,,,,,,,,,,,,,,,,,,1,6.9257,,0,0,27,27,25,1,stimuli/stim_20210919_power2amp/equal_lnn_AM2Hz_s25_34.m4a,,,,,,,,,,,,
,,,,,41811,2021-10-01_04h16.19.071,judgeSpeechMusic_20210919_logNormShiftAmp_detection_fixFreq,2020.1.2,Linux x86_64,60,,,,,,,,,,,,,,,,,,,,,,,,,,,,,,2,9.9703,,0,0,28,28,62,1,stimuli/stim_20210919_power2amp/equal_lnn_AM2Hz_s55_14.m4a,,,,,,,,,,,,
,,,,,41811,2021-10-01_04h16.19.071,judgeSpeechMusic_20210919_logNormShiftAmp_detection_fixFreq,2020.1.2,Linux x86_64,60,,,,,,,,,,,,,,,,,,,,,,,,,,,,,,2,6.0614,,0,0,29,29,42,1,stimuli/stim_20210919_power2amp/equal_lnn_AM2Hz_s35_45.m4a,,,,,,,,,,,,
,,,,,41811,2021-10-01_04h16.19.071,judgeSpeechMusic_20210919_logNormShiftAmp_detection_fixFreq,2020.1.2,Linux x86_64,60,,,,,,,,,,,,,,,,,,,,,,,,,,,,,,2,5.7103,,0,0,30,30,14,1,stimuli/stim_20210919_power2amp/equal_lnn_AM2Hz_s15_24.m4a,,,,,,,,,,,,
,,,,,41811,2021-10-01_04h16.19.071,judgeSpeechMusic_20210919_logNormShiftAmp_detection_fixFreq,2020.1.2,Linux x86_64,60,,,,,,,,,,,,,,,,,,,,,,,,,,,,,,2,7.3715,,0,0,31,31,47,1,stimuli/stim_20210919_power2amp/equal_lnn_AM2Hz_s45_18.m4a,,,,,,,,,,,,
,,,,,41811,2021-10-01_04h16.19.071,judgeSpeechMusic_20210919_logNormShiftAmp_detection_fixFreq,2020.1.2,Linux x86_64,60,,,,,,,,,,,,,,,,,,,,,,,,,,,,,,2,6.394,,0,0,32,32,7,1,stimuli/stim_20210919_power2amp/equal_lnn_AM2Hz_s15_14.m4a,,,,,,,,,,,,
,,,,,41811,2021-10-01_04h16.19.071,judgeSpeechMusic_20210919_logNormShiftAmp_detection_fixFreq,2020.1.2,Linux x86_64,60,,,,,,,,,,,,,,,,,,,,,,,,,,,,,,2,8.0925,,0,0,33,33,29,1,stimuli/stim_20210919_power2amp/equal_lnn_AM2Hz_s25_36.m4a,,,,,,,,,,,,
,,,,,41811,2021-10-01_04h16.19.071,judgeSpeechMusic_20210919_logNormShiftAmp_detection_fixFreq,2020.1.2,Linux x86_64,60,,,,,,,,,,,,,,,,,,,,,,,,,,,,,,1,10.81,,0,0,34,34,49,1,stimuli/stim_20210919_power2amp/equal_lnn_AM2Hz_s45_7.m4a,,,,,,,,,,,,
,,,,,41811,2021-10-01_04h16.19.071,judgeSpeechMusic_20210919_logNormShiftAmp_detection_fixFreq,2020.1.2,Linux x86_64,60,,,,,,,,,,,,,,,,,,,,,,,,,,,,,,1,10.9739,,0,0,35,35,18,1,stimuli/stim_20210919_power2amp/equal_lnn_AM2Hz_s25_32.m4a,,,,,,,,,,,,
,,,,,41811,2021-10-01_04h16.19.071,judgeSpeechMusic_20210919_logNormShiftAmp_detection_fixFreq,2020.1.2,Linux x86_64,60,,,,,,,,,,,,,,,,,,,,,,,,,,,,,,2,5.9145,,0,0,36,36,61,1,stimuli/stim_20210919_power2amp/equal_lnn_AM2Hz_s55_42.m4a,,,,,,,,,,,,
,,,,,41811,2021-10-01_04h16.19.071,judgeSpeechMusic_20210919_logNormShiftAmp_detection_fixFreq,2020.1.2,Linux x86_64,60,,,,,,,,,,,,,,,,,,,,,,,,,,,,,,2,5.9041,,0,0,37,37,39,1,stimuli/stim_20210919_power2amp/equal_lnn_AM2Hz_s35_18.m4a,,,,,,,,,,,,
,,,,,41811,2021-10-01_04h16.19.071,judgeSpeechMusic_20210919_logNormShiftAmp_detection_fixFreq,2020.1.2,Linux x86_64,60,,,,,,,,,,,,,,,,,,,,,,,,,,,,,,2,6.016,,0,0,38,38,26,1,stimuli/stim_20210919_power2amp/equal_lnn_AM2Hz_s25_47.m4a,,,,,,,,,,,,
,,,,,41811,2021-10-01_04h16.19.071,judgeSpeechMusic_20210919_logNormShiftAmp_detection_fixFreq,2020.1.2,Linux x86_64,60,,,,,,,,,,,,,,,,,,,,,,,,,,,,,,2,7.4473,,0,0,39,39,19,1,stimuli/stim_20210919_power2amp/equal_lnn_AM2Hz_s25_11.m4a,,,,,,,,,,,,
,,,,,41811,2021-10-01_04h16.19.071,judgeSpeechMusic_20210919_logNormShiftAmp_detection_fixFreq,2020.1.2,Linux x86_64,60,,,,,,,,,,,,,,,,,,,,,,,,,,,,,,2,8.2582,2,1,0,40,40,58,1,stimuli/stim_20210919_power2amp/equal_lnn_AM2Hz_s45_3.m4a,3.177,,,,,,,,,,,
,,,,,41811,2021-10-01_04h16.19.071,judgeSpeechMusic_20210919_logNormShiftAmp_detection_fixFreq,2020.1.2,Linux x86_64,60,,,,,,,,,,,,,,,,,,,,,,,,,,,,,,1,12.8078,,0,0,41,41,5,1,stimuli/stim_20210919_power2amp/equal_lnn_AM2Hz_s15_12.m4a,,,,,,,,,,,,
,,,,,41811,2021-10-01_04h16.19.071,judgeSpeechMusic_20210919_logNormShiftAmp_detection_fixFreq,2020.1.2,Linux x86_64,60,,,,,,,,,,,,,,,,,,,,,,,,,,,,,,1,6.3063,,0,0,42,42,20,1,stimuli/stim_20210919_power2amp/equal_lnn_AM2Hz_s25_22.m4a,,,,,,,,,,,,
,,,,,41811,2021-10-01_04h16.19.071,judgeSpeechMusic_20210919_logNormShiftAmp_detection_fixFreq,2020.1.2,Linux x86_64,60,,,,,,,,,,,,,,,,,,,,,,,,,,,,,,2,14.7601,,0,0,43,43,68,1,stimuli/stim_20210919_power2amp/equal_lnn_AM2Hz_s55_47.m4a,,,,,,,,,,,,
,,,,,41811,2021-10-01_04h16.19.071,judgeSpeechMusic_20210919_logNormShiftAmp_detection_fixFreq,2020.1.2,Linux x86_64,60,,,,,,,,,,,,,,,,,,,,,,,,,,,,,,2,25.8088,,0,0,44,44,51,1,stimuli/stim_20210919_power2amp/equal_lnn_AM2Hz_s45_31.m4a,,,,,,,,,,,,
,,,,,41811,2021-10-01_04h16.19.071,judgeSpeechMusic_20210919_logNormShiftAmp_detection_fixFreq,2020.1.2,Linux x86_64,60,,,,,,,,,,,,,,,,,,,,,,,,,,,,,,2,6.0251,,0,0,45,45,56,1,stimuli/stim_20210919_power2amp/equal_lnn_AM2Hz_s45_44.m4a,,,,,,,,,,,,
,,,,,41811,2021-10-01_04h16.19.071,judgeSpeechMusic_20210919_logNormShiftAmp_detection_fixFreq,2020.1.2,Linux x86_64,60,,,,,,,,,,,,,,,,,,,,,,,,,,,,,,1,14.5275,,0,0,46,46,73,1,stimuli/stim_20210919_power2amp/equal_lnn_AM2Hz_s55_27.m4a,,,,,,,,,,,,
,,,,,41811,2021-10-01_04h16.19.071,judgeSpeechMusic_20210919_logNormShiftAmp_detection_fixFreq,2020.1.2,Linux x86_64,60,,,,,,,,,,,,,,,,,,,,,,,,,,,,,,2,12.3753,,0,0,47,47,40,1,stimuli/stim_20210919_power2amp/equal_lnn_AM2Hz_s35_38.m4a,,,,,,,,,,,,
,,,,,41811,2021-10-01_04h16.19.071,judgeSpeechMusic_20210919_logNormShiftAmp_detection_fixFreq,2020.1.2,Linux x86_64,60,,,,,,,,,,,,,,,,,,,,,,,,,,,,,,2,8.2291,,0,0,48,48,33,1,stimuli/stim_20210919_power2amp/equal_lnn_AM2Hz_s35_1.m4a,,,,,,,,,,,,
,,,,,41811,2021-10-01_04h16.19.071,judgeSpeechMusic_20210919_logNormShiftAmp_detection_fixFreq,2020.1.2,Linux x86_64,60,,,,,,,,,,,,,,,,,,,,,,,,,,,,,,1,8.0399,,0,0,49,49,4,1,stimuli/stim_20210919_power2amp/equal_lnn_AM2Hz_s15_22.m4a,,,,,,,,,,,,
,,,,,41811,2021-10-01_04h16.19.071,judgeSpeechMusic_20210919_logNormShiftAmp_detection_fixFreq,2020.1.2,Linux x86_64,60,,,,,,,,,,,,,,,,,,,,,,,,,,,,,,2,6.7094,,0,0,50,50,32,1,stimuli/stim_20210919_power2amp/equal_lnn_AM2Hz_s35_13.m4a,,,,,,,,,,,,
,,,,,41811,2021-10-01_04h16.19.071,judgeSpeechMusic_20210919_logNormShiftAmp_detection_fixFreq,2020.1.2,Linux x86_64,60,,,,,,,,,,,,,,,,,,,,,,,,,,,,,,1,7.158,,0,0,51,51,41,1,stimuli/stim_20210919_power2amp/equal_lnn_AM2Hz_s35_24.m4a,,,,,,,,,,,,
,,,,,41811,2021-10-01_04h16.19.071,judgeSpeechMusic_20210919_logNormShiftAmp_detection_fixFreq,2020.1.2,Linux x86_64,60,,,,,,,,,,,,,,,,,,,,,,,,,,,,,,2,5.8908,,0,0,52,52,53,1,stimuli/stim_20210919_power2amp/equal_lnn_AM2Hz_s45_26.m4a,,,,,,,,,,,,
,,,,,41811,2021-10-01_04h16.19.071,judgeSpeechMusic_20210919_logNormShiftAmp_detection_fixFreq,2020.1.2,Linux x86_64,60,,,,,,,,,,,,,,,,,,,,,,,,,,,,,,2,6.0254,,0,0,53,53,37,1,stimuli/stim_20210919_power2amp/equal_lnn_AM2Hz_s35_34.m4a,,,,,,,,,,,,
,,,,,41811,2021-10-01_04h16.19.071,judgeSpeechMusic_20210919_logNormShiftAmp_detection_fixFreq,2020.1.2,Linux x86_64,60,,,,,,,,,,,,,,,,,,,,,,,,,,,,,,1,7.075,,0,0,54,54,12,1,stimuli/stim_20210919_power2amp/equal_lnn_AM2Hz_s15_15.m4a,,,,,,,,,,,,
,,,,,41811,2021-10-01_04h16.19.071,judgeSpeechMusic_20210919_logNormShiftAmp_detection_fixFreq,2020.1.2,Linux x86_64,60,,,,,,,,,,,,,,,,,,,,,,,,,,,,,,1,12.0578,,0,0,55,55,63,1,stimuli/stim_20210919_power2amp/equal_lnn_AM2Hz_s55_21.m4a,,,,,,,,,,,,
,,,,,41811,2021-10-01_04h16.19.071,judgeSpeechMusic_20210919_logNormShiftAmp_detection_fixFreq,2020.1.2,Linux x86_64,60,,,,,,,,,,,,,,,,,,,,,,,,,,,,,,2,7.6075,,0,0,56,56,22,1,stimuli/stim_20210919_power2amp/equal_lnn_AM2Hz_s25_19.m4a,,,,,,,,,,,,
,,,,,41811,2021-10-01_04h16.19.071,judgeSpeechMusic_20210919_logNormShiftAmp_detection_fixFreq,2020.1.2,Linux x86_64,60,,,,,,,,,,,,,,,,,,,,,,,,,,,,,,2,5.8569,,0,0,57,57,38,1,stimuli/stim_20210919_power2amp/equal_lnn_AM2Hz_s35_3.m4a,,,,,,,,,,,,
,,,,,41811,2021-10-01_04h16.19.071,judgeSpeechMusic_20210919_logNormShiftAmp_detection_fixFreq,2020.1.2,Linux x86_64,60,,,,,,,,,,,,,,,,,,,,,,,,,,,,,,1,6.7416,4,1,0,58,58,43,1,stimuli/stim_20210919_power2amp/equal_lnn_AM2Hz_s35_8.m4a,0.7651,,,,,,,,,,,
,,,,,41811,2021-10-01_04h16.19.071,judgeSpeechMusic_20210919_logNormShiftAmp_detection_fixFreq,2020.1.2,Linux x86_64,60,,,,,,,,,,,,,,,,,,,,,,,,,,,,,,2,5.7083,,0,0,59,59,65,1,stimuli/stim_20210919_power2amp/equal_lnn_AM2Hz_s55_26.m4a,,,,,,,,,,,,
,,,,,41811,2021-10-01_04h16.19.071,judgeSpeechMusic_20210919_logNormShiftAmp_detection_fixFreq,2020.1.2,Linux x86_64,60,,,,,,,,,,,,,,,,,,,,,,,,,,,,,,1,5.9234,,0,0,60,60,70,1,stimuli/stim_20210919_power2amp/equal_lnn_AM2Hz_s55_15.m4a,,,,,,,,,,,,
,,,,,41811,2021-10-01_04h16.19.071,judgeSpeechMusic_20210919_logNormShiftAmp_detection_fixFreq,2020.1.2,Linux x86_64,60,,,,,,,,,,,,,,,,,,,,,,,,,,,,,,2,6.8753,,0,0,61,61,60,1,stimuli/stim_20210919_power2amp/equal_lnn_AM2Hz_s55_44.m4a,,,,,,,,,,,,
,,,,,41811,2021-10-01_04h16.19.071,judgeSpeechMusic_20210919_logNormShiftAmp_detection_fixFreq,2020.1.2,Linux x86_64,60,,,,,,,,,,,,,,,,,,,,,,,,,,,,,,2,6.4928,,0,0,62,62,2,1,stimuli/stim_20210919_power2amp/equal_lnn_AM2Hz_s15_20.m4a,,,,,,,,,,,,
,,,,,41811,2021-10-01_04h16.19.071,judgeSpeechMusic_20210919_logNormShiftAmp_detection_fixFreq,2020.1.2,Linux x86_64,60,,,,,,,,,,,,,,,,,,,,,,,,,,,,,,2,5.8082,,0,0,63,63,23,1,stimuli/stim_20210919_power2amp/equal_lnn_AM2Hz_s25_20.m4a,,,,,,,,,,,,
,,,,,41811,2021-10-01_04h16.19.071,judgeSpeechMusic_20210919_logNormShiftAmp_detection_fixFreq,2020.1.2,Linux x86_64,60,,,,,,,,,,,,,,,,,,,,,,,,,,,,,,1,7.0424,,0,0,64,64,59,1,stimuli/stim_20210919_power2amp/equal_lnn_AM2Hz_s45_20.m4a,,,,,,,,,,,,
,,,,,41811,2021-10-01_04h16.19.071,judgeSpeechMusic_20210919_logNormShiftAmp_detection_fixFreq,2020.1.2,Linux x86_64,60,,,,,,,,,,,,,,,,,,,,,,,,,,,,,,1,5.6919,,0,0,65,65,64,1,stimuli/stim_20210919_power2amp/equal_lnn_AM2Hz_s55_6.m4a,,,,,,,,,,,,
,,,,,41811,2021-10-01_04h16.19.071,judgeSpeechMusic_20210919_logNormShiftAmp_detection_fixFreq,2020.1.2,Linux x86_64,60,,,,,,,,,,,,,,,,,,,,,,,,,,,,,,1,7.959,,0,0,66,66,27,1,stimuli/stim_20210919_power2amp/equal_lnn_AM2Hz_s25_30.m4a,,,,,,,,,,,,
,,,,,41811,2021-10-01_04h16.19.071,judgeSpeechMusic_20210919_logNormShiftAmp_detection_fixFreq,2020.1.2,Linux x86_64,60,,,,,,,,,,,,,,,,,,,,,,,,,,,,,,1,5.9085,,0,0,67,67,45,1,stimuli/stim_20210919_power2amp/equal_lnn_AM2Hz_s45_14.m4a,,,,,,,,,,,,
,,,,,41811,2021-10-01_04h16.19.071,judgeSpeechMusic_20210919_logNormShiftAmp_detection_fixFreq,2020.1.2,Linux x86_64,60,,,,,,,,,,,,,,,,,,,,,,,,,,,,,,2,6.6649,,0,0,68,68,13,1,stimuli/stim_20210919_power2amp/equal_lnn_AM2Hz_s15_31.m4a,,,,,,,,,,,,
,,,,,41811,2021-10-01_04h16.19.071,judgeSpeechMusic_20210919_logNormShiftAmp_detection_fixFreq,2020.1.2,Linux x86_64,60,,,,,,,,,,,,,,,,,,,,,,,,,,,,,,1,7.1574,,0,0,69,69,1,1,stimuli/stim_20210919_power2amp/equal_lnn_AM2Hz_s15_23.m4a,,,,,,,,,,,,
,,,,,41811,2021-10-01_04h16.19.071,judgeSpeechMusic_20210919_logNormShiftAmp_detection_fixFreq,2020.1.2,Linux x86_64,60,,,,,,,,,,,,,,,,,,,,,,,,,,,,,,1,7.3811,,0,0,70,70,31,1,stimuli/stim_20210919_power2amp/equal_lnn_AM2Hz_s35_10.m4a,,,,,,,,,,,,
,,,,,41811,2021-10-01_04h16.19.071,judgeSpeechMusic_20210919_logNormShiftAmp_detection_fixFreq,2020.1.2,Linux x86_64,60,,,,,,,,,,,,,,,,,,,,,,,,,,,,,,2,5.7915,,0,0,71,71,35,1,stimuli/stim_20210919_power2amp/equal_lnn_AM2Hz_s35_9.m4a,,,,,,,,,,,,
,,,,,41811,2021-10-01_04h16.19.071,judgeSpeechMusic_20210919_logNormShiftAmp_detection_fixFreq,2020.1.2,Linux x86_64,60,,,,,,,,,,,,,,,,,,,,,,,,,,,,,,2,5.8575,,0,0,72,72,30,1,stimuli/stim_20210919_power2amp/equal_lnn_AM2Hz_s35_22.m4a,,,,,,,,,,,,
,,,,,41811,2021-10-01_04h16.19.071,judgeSpeechMusic_20210919_logNormShiftAmp_detection_fixFreq,2020.1.2,Linux x86_64,60,,,,,,,,,,,,,,,,,,,,,,,,,,,,,,1,6.3448,,0,0,73,73,11,1,stimuli/stim_20210919_power2amp/equal_lnn_AM2Hz_s15_25.m4a,,,,,,,,,,,,
,,,,,41811,2021-10-01_04h16.19.071,judgeSpeechMusic_20210919_logNormShiftAmp_detection_fixFreq,2020.1.2,Linux x86_64,60,,,,,,,,,,,,,,,,,,,,,,,,,,,,,,2,5.9922,,0,0,74,74,69,1,stimuli/stim_20210919_power2amp/equal_lnn_AM2Hz_s55_48.m4a,,,,,,,,,,,,
,,,,,41811,2021-10-01_04h16.19.071,judgeSpeechMusic_20210919_logNormShiftAmp_detection_fixFreq,2020.1.2,Linux x86_64,60,,,,,,,,,,,,,,,,,,,,,,,,,,,,,,,,,,,,,,,,,space,0.6835,1,0,2,0,1,MUSIC,stimuli/MUSIC.jpg,,
,,,,,41811,2021-10-01_04h16.19.071,judgeSpeechMusic_20210919_logNormShiftAmp_detection_fixFreq,2020.1.2,Linux x86_64,60,,,,,,,,,,,,,,,,,,0,0,0,0,0,1,stimuli/stim_20210919_power2amp/equal_lnn_AM_training2Hz_s20.m4a,,,,,,,,,,,,,,,,,,,,,,,,,,,
,,,,,41811,2021-10-01_04h16.19.071,judgeSpeechMusic_20210919_logNormShiftAmp_detection_fixFreq,2020.1.2,Linux x86_64,60,,,,,,,,,,,,,,,,,,,,,,,,,,space,3.8241,space,0.5662,2,8.162,,0,0,0,0,50,1,stimuli/stim_20210919_power2amp/equal_lnn_AM2Hz_s45_40.m4a,,,,,,,,,,,,
,,,,,41811,2021-10-01_04h16.19.071,judgeSpeechMusic_20210919_logNormShiftAmp_detection_fixFreq,2020.1.2,Linux x86_64,60,,,,,,,,,,,,,,,,,,,,,,,,,,,,,,1,9.1288,,0,0,1,1,33,1,stimuli/stim_20210919_power2amp/equal_lnn_AM2Hz_s35_1.m4a,,,,,,,,,,,,
,,,,,41811,2021-10-01_04h16.19.071,judgeSpeechMusic_20210919_logNormShiftAmp_detection_fixFreq,2020.1.2,Linux x86_64,60,,,,,,,,,,,,,,,,,,,,,,,,,,,,,,2,11.4924,,0,0,2,2,14,1,stimuli/stim_20210919_power2amp/equal_lnn_AM2Hz_s15_24.m4a,,,,,,,,,,,,
,,,,,41811,2021-10-01_04h16.19.071,judgeSpeechMusic_20210919_logNormShiftAmp_detection_fixFreq,2020.1.2,Linux x86_64,60,,,,,,,,,,,,,,,,,,,,,,,,,,,,,,2,7.2624,,0,0,3,3,66,1,stimuli/stim_20210919_power2amp/equal_lnn_AM2Hz_s55_43.m4a,,,,,,,,,,,,
,,,,,41811,2021-10-01_04h16.19.071,judgeSpeechMusic_20210919_logNormShiftAmp_detection_fixFreq,2020.1.2,Linux x86_64,60,,,,,,,,,,,,,,,,,,,,,,,,,,,,,,1,6.8802,,0,0,4,4,28,1,stimuli/stim_20210919_power2amp/equal_lnn_AM2Hz_s25_8.m4a,,,,,,,,,,,,
,,,,,41811,2021-10-01_04h16.19.071,judgeSpeechMusic_20210919_logNormShiftAmp_detection_fixFreq,2020.1.2,Linux x86_64,60,,,,,,,,,,,,,,,,,,,,,,,,,,,,,,1,8.5776,,0,0,5,5,67,1,stimuli/stim_20210919_power2amp/equal_lnn_AM2Hz_s55_12.m4a,,,,,,,,,,,,
,,,,,41811,2021-10-01_04h16.19.071,judgeSpeechMusic_20210919_logNormShiftAmp_detection_fixFreq,2020.1.2,Linux x86_64,60,,,,,,,,,,,,,,,,,,,,,,,,,,,,,,2,26.5087,,0,0,6,6,70,1,stimuli/stim_20210919_power2amp/equal_lnn_AM2Hz_s55_15.m4a,,,,,,,,,,,,
,,,,,41811,2021-10-01_04h16.19.071,judgeSpeechMusic_20210919_logNormShiftAmp_detection_fixFreq,2020.1.2,Linux x86_64,60,,,,,,,,,,,,,,,,,,,,,,,,,,,,,,2,19.7264,,0,0,7,7,9,1,stimuli/stim_20210919_power2amp/equal_lnn_AM2Hz_s15_30.m4a,,,,,,,,,,,,
,,,,,41811,2021-10-01_04h16.19.071,judgeSpeechMusic_20210919_logNormShiftAmp_detection_fixFreq,2020.1.2,Linux x86_64,60,,,,,,,,,,,,,,,,,,,,,,,,,,,,,,1,11.3086,,0,0,8,8,30,1,stimuli/stim_20210919_power2amp/equal_lnn_AM2Hz_s35_22.m4a,,,,,,,,,,,,
,,,,,41811,2021-10-01_04h16.19.071,judgeSpeechMusic_20210919_logNormShiftAmp_detection_fixFreq,2020.1.2,Linux x86_64,60,,,,,,,,,,,,,,,,,,,,,,,,,,,,,,2,15.5411,,0,0,9,9,37,1,stimuli/stim_20210919_power2amp/equal_lnn_AM2Hz_s35_34.m4a,,,,,,,,,,,,
,,,,,41811,2021-10-01_04h16.19.071,judgeSpeechMusic_20210919_logNormShiftAmp_detection_fixFreq,2020.1.2,Linux x86_64,60,,,,,,,,,,,,,,,,,,,,,,,,,,,,,,2,11.5946,,0,0,10,10,45,1,stimuli/stim_20210919_power2amp/equal_lnn_AM2Hz_s45_14.m4a,,,,,,,,,,,,
,,,,,41811,2021-10-01_04h16.19.071,judgeSpeechMusic_20210919_logNormShiftAmp_detection_fixFreq,2020.1.2,Linux x86_64,60,,,,,,,,,,,,,,,,,,,,,,,,,,,,,,2,15.3872,,0,0,11,11,72,1,stimuli/stim_20210919_power2amp/equal_lnn_AM2Hz_s55_23.m4a,,,,,,,,,,,,
,,,,,41811,2021-10-01_04h16.19.071,judgeSpeechMusic_20210919_logNormShiftAmp_detection_fixFreq,2020.1.2,Linux x86_64,60,,,,,,,,,,,,,,,,,,,,,,,,,,,,,,2,10.8784,,0,0,12,12,13,1,stimuli/stim_20210919_power2amp/equal_lnn_AM2Hz_s15_31.m4a,,,,,,,,,,,,
,,,,,41811,2021-10-01_04h16.19.071,judgeSpeechMusic_20210919_logNormShiftAmp_detection_fixFreq,2020.1.2,Linux x86_64,60,,,,,,,,,,,,,,,,,,,,,,,,,,,,,,2,11.4371,,0,0,13,13,24,1,stimuli/stim_20210919_power2amp/equal_lnn_AM2Hz_s25_15.m4a,,,,,,,,,,,,
,,,,,41811,2021-10-01_04h16.19.071,judgeSpeechMusic_20210919_logNormShiftAmp_detection_fixFreq,2020.1.2,Linux x86_64,60,,,,,,,,,,,,,,,,,,,,,,,,,,,,,,1,6.7762,,0,0,14,14,40,1,stimuli/stim_20210919_power2amp/equal_lnn_AM2Hz_s35_38.m4a,,,,,,,,,,,,
,,,,,41811,2021-10-01_04h16.19.071,judgeSpeechMusic_20210919_logNormShiftAmp_detection_fixFreq,2020.1.2,Linux x86_64,60,,,,,,,,,,,,,,,,,,,,,,,,,,,,,,2,12.3916,,0,0,15,15,20,1,stimuli/stim_20210919_power2amp/equal_lnn_AM2Hz_s25_22.m4a,,,,,,,,,,,,
,,,,,41811,2021-10-01_04h16.19.071,judgeSpeechMusic_20210919_logNormShiftAmp_detection_fixFreq,2020.1.2,Linux x86_64,60,,,,,,,,,,,,,,,,,,,,,,,,,,,,,,2,7.4477,,0,0,16,16,17,1,stimuli/stim_20210919_power2amp/equal_lnn_AM2Hz_s25_24.m4a,,,,,,,,,,,,
,,,,,41811,2021-10-01_04h16.19.071,judgeSpeechMusic_20210919_logNormShiftAmp_detection_fixFreq,2020.1.2,Linux x86_64,60,,,,,,,,,,,,,,,,,,,,,,,,,,,,,,1,6.9863,,0,0,17,17,44,1,stimuli/stim_20210919_power2amp/equal_lnn_AM2Hz_s35_2.m4a,,,,,,,,,,,,
,,,,,41811,2021-10-01_04h16.19.071,judgeSpeechMusic_20210919_logNormShiftAmp_detection_fixFreq,2020.1.2,Linux x86_64,60,,,,,,,,,,,,,,,,,,,,,,,,,,,,,,2,6.078,,0,0,18,18,10,1,stimuli/stim_20210919_power2amp/equal_lnn_AM2Hz_s15_35.m4a,,,,,,,,,,,,
,,,,,41811,2021-10-01_04h16.19.071,judgeSpeechMusic_20210919_logNormShiftAmp_detection_fixFreq,2020.1.2,Linux x86_64,60,,,,,,,,,,,,,,,,,,,,,,,,,,,,,,2,6.0066,,0,0,19,19,35,1,stimuli/stim_20210919_power2amp/equal_lnn_AM2Hz_s35_9.m4a,,,,,,,,,,,,
,,,,,41811,2021-10-01_04h16.19.071,judgeSpeechMusic_20210919_logNormShiftAmp_detection_fixFreq,2020.1.2,Linux x86_64,60,,,,,,,,,,,,,,,,,,,,,,,,,,,,,,2,7.5422,,0,0,20,20,2,1,stimuli/stim_20210919_power2amp/equal_lnn_AM2Hz_s15_20.m4a,,,,,,,,,,,,
,,,,,41811,2021-10-01_04h16.19.071,judgeSpeechMusic_20210919_logNormShiftAmp_detection_fixFreq,2020.1.2,Linux x86_64,60,,,,,,,,,,,,,,,,,,,,,,,,,,,,,,1,5.5571,,0,0,21,21,73,1,stimuli/stim_20210919_power2amp/equal_lnn_AM2Hz_s55_27.m4a,,,,,,,,,,,,
,,,,,41811,2021-10-01_04h16.19.071,judgeSpeechMusic_20210919_logNormShiftAmp_detection_fixFreq,2020.1.2,Linux x86_64,60,,,,,,,,,,,,,,,,,,,,,,,,,,,,,,2,5.9444,4,1,0,22,22,0,1,stimuli/stim_20210919_power2amp/equal_lnn_AM2Hz_s15_41.m4a,0.5261,,,,,,,,,,,
,,,,,41811,2021-10-01_04h16.19.071,judgeSpeechMusic_20210919_logNormShiftAmp_detection_fixFreq,2020.1.2,Linux x86_64,60,,,,,,,,,,,,,,,,,,,,,,,,,,,,,,1,6.0756,,0,0,23,23,29,1,stimuli/stim_20210919_power2amp/equal_lnn_AM2Hz_s25_36.m4a,,,,,,,,,,,,
,,,,,41811,2021-10-01_04h16.19.071,judgeSpeechMusic_20210919_logNormShiftAmp_detection_fixFreq,2020.1.2,Linux x86_64,60,,,,,,,,,,,,,,,,,,,,,,,,,,,,,,2,6.4232,,0,0,24,24,42,1,stimuli/stim_20210919_power2amp/equal_lnn_AM2Hz_s35_45.m4a,,,,,,,,,,,,
,,,,,41811,2021-10-01_04h16.19.071,judgeSpeechMusic_20210919_logNormShiftAmp_detection_fixFreq,2020.1.2,Linux x86_64,60,,,,,,,,,,,,,,,,,,,,,,,,,,,,,,1,6.0434,,0,0,25,25,18,1,stimuli/stim_20210919_power2amp/equal_lnn_AM2Hz_s25_32.m4a,,,,,,,,,,,,
,,,,,41811,2021-10-01_04h16.19.071,judgeSpeechMusic_20210919_logNormShiftAmp_detection_fixFreq,2020.1.2,Linux x86_64,60,,,,,,,,,,,,,,,,,,,,,,,,,,,,,,1,6.6084,,0,0,26,26,3,1,stimuli/stim_20210919_power2amp/equal_lnn_AM2Hz_s15_21.m4a,,,,,,,,,,,,
,,,,,41811,2021-10-01_04h16.19.071,judgeSpeechMusic_20210919_logNormShiftAmp_detection_fixFreq,2020.1.2,Linux x86_64,60,,,,,,,,,,,,,,,,,,,,,,,,,,,,,,2,6.2821,,0,0,27,27,58,1,stimuli/stim_20210919_power2amp/equal_lnn_AM2Hz_s45_3.m4a,,,,,,,,,,,,
,,,,,41811,2021-10-01_04h16.19.071,judgeSpeechMusic_20210919_logNormShiftAmp_detection_fixFreq,2020.1.2,Linux x86_64,60,,,,,,,,,,,,,,,,,,,,,,,,,,,,,,1,8.7852,,0,0,28,28,27,1,stimuli/stim_20210919_power2amp/equal_lnn_AM2Hz_s25_30.m4a,,,,,,,,,,,,
,,,,,41811,2021-10-01_04h16.19.071,judgeSpeechMusic_20210919_logNormShiftAmp_detection_fixFreq,2020.1.2,Linux x86_64,60,,,,,,,,,,,,,,,,,,,,,,,,,,,,,,2,7.5933,,0,0,29,29,56,1,stimuli/stim_20210919_power2amp/equal_lnn_AM2Hz_s45_44.m4a,,,,,,,,,,,,
,,,,,41811,2021-10-01_04h16.19.071,judgeSpeechMusic_20210919_logNormShiftAmp_detection_fixFreq,2020.1.2,Linux x86_64,60,,,,,,,,,,,,,,,,,,,,,,,,,,,,,,1,7.7432,,0,0,30,30,43,1,stimuli/stim_20210919_power2amp/equal_lnn_AM2Hz_s35_8.m4a,,,,,,,,,,,,
,,,,,41811,2021-10-01_04h16.19.071,judgeSpeechMusic_20210919_logNormShiftAmp_detection_fixFreq,2020.1.2,Linux x86_64,60,,,,,,,,,,,,,,,,,,,,,,,,,,,,,,2,18.1584,,0,0,31,31,32,1,stimuli/stim_20210919_power2amp/equal_lnn_AM2Hz_s35_13.m4a,,,,,,,,,,,,
,,,,,41811,2021-10-01_04h16.19.071,judgeSpeechMusic_20210919_logNormShiftAmp_detection_fixFreq,2020.1.2,Linux x86_64,60,,,,,,,,,,,,,,,,,,,,,,,,,,,,,,1,8.4074,,0,0,32,32,64,1,stimuli/stim_20210919_power2amp/equal_lnn_AM2Hz_s55_6.m4a,,,,,,,,,,,,
,,,,,41811,2021-10-01_04h16.19.071,judgeSpeechMusic_20210919_logNormShiftAmp_detection_fixFreq,2020.1.2,Linux x86_64,60,,,,,,,,,,,,,,,,,,,,,,,,,,,,,,2,9.3588,,0,0,33,33,54,1,stimuli/stim_20210919_power2amp/equal_lnn_AM2Hz_s45_37.m4a,,,,,,,,,,,,
,,,,,41811,2021-10-01_04h16.19.071,judgeSpeechMusic_20210919_logNormShiftAmp_detection_fixFreq,2020.1.2,Linux x86_64,60,,,,,,,,,,,,,,,,,,,,,,,,,,,,,,1,7.0786,,0,0,34,34,8,1,stimuli/stim_20210919_power2amp/equal_lnn_AM2Hz_s15_5.m4a,,,,,,,,,,,,
,,,,,41811,2021-10-01_04h16.19.071,judgeSpeechMusic_20210919_logNormShiftAmp_detection_fixFreq,2020.1.2,Linux x86_64,60,,,,,,,,,,,,,,,,,,,,,,,,,,,,,,2,6.7587,,0,0,35,35,60,1,stimuli/stim_20210919_power2amp/equal_lnn_AM2Hz_s55_44.m4a,,,,,,,,,,,,
,,,,,41811,2021-10-01_04h16.19.071,judgeSpeechMusic_20210919_logNormShiftAmp_detection_fixFreq,2020.1.2,Linux x86_64,60,,,,,,,,,,,,,,,,,,,,,,,,,,,,,,2,5.6912,,0,0,36,36,25,1,stimuli/stim_20210919_power2amp/equal_lnn_AM2Hz_s25_34.m4a,,,,,,,,,,,,
,,,,,41811,2021-10-01_04h16.19.071,judgeSpeechMusic_20210919_logNormShiftAmp_detection_fixFreq,2020.1.2,Linux x86_64,60,,,,,,,,,,,,,,,,,,,,,,,,,,,,,,1,6.2243,,0,0,37,37,36,1,stimuli/stim_20210919_power2amp/equal_lnn_AM2Hz_s35_4.m4a,,,,,,,,,,,,
,,,,,41811,2021-10-01_04h16.19.071,judgeSpeechMusic_20210919_logNormShiftAmp_detection_fixFreq,2020.1.2,Linux x86_64,60,,,,,,,,,,,,,,,,,,,,,,,,,,,,,,1,7.6775,,0,0,38,38,53,1,stimuli/stim_20210919_power2amp/equal_lnn_AM2Hz_s45_26.m4a,,,,,,,,,,,,
,,,,,41811,2021-10-01_04h16.19.071,judgeSpeechMusic_20210919_logNormShiftAmp_detection_fixFreq,2020.1.2,Linux x86_64,60,,,,,,,,,,,,,,,,,,,,,,,,,,,,,,2,8.3451,,0,0,39,39,16,1,stimuli/stim_20210919_power2amp/equal_lnn_AM2Hz_s25_46.m4a,,,,,,,,,,,,
,,,,,41811,2021-10-01_04h16.19.071,judgeSpeechMusic_20210919_logNormShiftAmp_detection_fixFreq,2020.1.2,Linux x86_64,60,,,,,,,,,,,,,,,,,,,,,,,,,,,,,,1,7.0782,2,1,0,40,40,6,1,stimuli/stim_20210919_power2amp/equal_lnn_AM2Hz_s15_18.m4a,1.1602,,,,,,,,,,,
,,,,,41811,2021-10-01_04h16.19.071,judgeSpeechMusic_20210919_logNormShiftAmp_detection_fixFreq,2020.1.2,Linux x86_64,60,,,,,,,,,,,,,,,,,,,,,,,,,,,,,,1,8.1781,,0,0,41,41,22,1,stimuli/stim_20210919_power2amp/equal_lnn_AM2Hz_s25_19.m4a,,,,,,,,,,,,
,,,,,41811,2021-10-01_04h16.19.071,judgeSpeechMusic_20210919_logNormShiftAmp_detection_fixFreq,2020.1.2,Linux x86_64,60,,,,,,,,,,,,,,,,,,,,,,,,,,,,,,2,6.4083,,0,0,42,42,63,1,stimuli/stim_20210919_power2amp/equal_lnn_AM2Hz_s55_21.m4a,,,,,,,,,,,,
,,,,,41811,2021-10-01_04h16.19.071,judgeSpeechMusic_20210919_logNormShiftAmp_detection_fixFreq,2020.1.2,Linux x86_64,60,,,,,,,,,,,,,,,,,,,,,,,,,,,,,,2,7.0038,,0,0,43,43,57,1,stimuli/stim_20210919_power2amp/equal_lnn_AM2Hz_s45_1.m4a,,,,,,,,,,,,
,,,,,41811,2021-10-01_04h16.19.071,judgeSpeechMusic_20210919_logNormShiftAmp_detection_fixFreq,2020.1.2,Linux x86_64,60,,,,,,,,,,,,,,,,,,,,,,,,,,,,,,2,6.7077,,0,0,44,44,51,1,stimuli/stim_20210919_power2amp/equal_lnn_AM2Hz_s45_31.m4a,,,,,,,,,,,,
,,,,,41811,2021-10-01_04h16.19.071,judgeSpeechMusic_20210919_logNormShiftAmp_detection_fixFreq,2020.1.2,Linux x86_64,60,,,,,,,,,,,,,,,,,,,,,,,,,,,,,,1,6.8624,,0,0,45,45,52,1,stimuli/stim_20210919_power2amp/equal_lnn_AM2Hz_s45_28.m4a,,,,,,,,,,,,
,,,,,41811,2021-10-01_04h16.19.071,judgeSpeechMusic_20210919_logNormShiftAmp_detection_fixFreq,2020.1.2,Linux x86_64,60,,,,,,,,,,,,,,,,,,,,,,,,,,,,,,1,11.8426,,0,0,46,46,4,1,stimuli/stim_20210919_power2amp/equal_lnn_AM2Hz_s15_22.m4a,,,,,,,,,,,,
,,,,,41811,2021-10-01_04h16.19.071,judgeSpeechMusic_20210919_logNormShiftAmp_detection_fixFreq,2020.1.2,Linux x86_64,60,,,,,,,,,,,,,,,,,,,,,,,,,,,,,,2,6.6928,,0,0,47,47,39,1,stimuli/stim_20210919_power2amp/equal_lnn_AM2Hz_s35_18.m4a,,,,,,,,,,,,
,,,,,41811,2021-10-01_04h16.19.071,judgeSpeechMusic_20210919_logNormShiftAmp_detection_fixFreq,2020.1.2,Linux x86_64,60,,,,,,,,,,,,,,,,,,,,,,,,,,,,,,1,6.7088,,0,0,48,48,69,1,stimuli/stim_20210919_power2amp/equal_lnn_AM2Hz_s55_48.m4a,,,,,,,,,,,,
,,,,,41811,2021-10-01_04h16.19.071,judgeSpeechMusic_20210919_logNormShiftAmp_detection_fixFreq,2020.1.2,Linux x86_64,60,,,,,,,,,,,,,,,,,,,,,,,,,,,,,,2,8.3587,,0,0,49,49,71,1,stimuli/stim_20210919_power2amp/equal_lnn_AM2Hz_s55_49.m4a,,,,,,,,,,,,
,,,,,41811,2021-10-01_04h16.19.071,judgeSpeechMusic_20210919_logNormShiftAmp_detection_fixFreq,2020.1.2,Linux x86_64,60,,,,,,,,,,,,,,,,,,,,,,,,,,,,,,2,8.1117,,0,0,50,50,55,1,stimuli/stim_20210919_power2amp/equal_lnn_AM2Hz_s45_24.m4a,,,,,,,,,,,,
,,,,,41811,2021-10-01_04h16.19.071,judgeSpeechMusic_20210919_logNormShiftAmp_detection_fixFreq,2020.1.2,Linux x86_64,60,,,,,,,,,,,,,,,,,,,,,,,,,,,,,,1,6.8451,,0,0,51,51,46,1,stimuli/stim_20210919_power2amp/equal_lnn_AM2Hz_s45_33.m4a,,,,,,,,,,,,
,,,,,41811,2021-10-01_04h16.19.071,judgeSpeechMusic_20210919_logNormShiftAmp_detection_fixFreq,2020.1.2,Linux x86_64,60,,,,,,,,,,,,,,,,,,,,,,,,,,,,,,2,6.1428,,0,0,52,52,1,1,stimuli/stim_20210919_power2amp/equal_lnn_AM2Hz_s15_23.m4a,,,,,,,,,,,,
,,,,,41811,2021-10-01_04h16.19.071,judgeSpeechMusic_20210919_logNormShiftAmp_detection_fixFreq,2020.1.2,Linux x86_64,60,,,,,,,,,,,,,,,,,,,,,,,,,,,,,,2,6.0887,,0,0,53,53,68,1,stimuli/stim_20210919_power2amp/equal_lnn_AM2Hz_s55_47.m4a,,,,,,,,,,,,
,,,,,41811,2021-10-01_04h16.19.071,judgeSpeechMusic_20210919_logNormShiftAmp_detection_fixFreq,2020.1.2,Linux x86_64,60,,,,,,,,,,,,,,,,,,,,,,,,,,,,,,1,5.9282,,0,0,54,54,74,1,stimuli/stim_20210919_power2amp/equal_lnn_AM2Hz_s55_13.m4a,,,,,,,,,,,,
,,,,,41811,2021-10-01_04h16.19.071,judgeSpeechMusic_20210919_logNormShiftAmp_detection_fixFreq,2020.1.2,Linux x86_64,60,,,,,,,,,,,,,,,,,,,,,,,,,,,,,,1,7.0407,,0,0,55,55,49,1,stimuli/stim_20210919_power2amp/equal_lnn_AM2Hz_s45_7.m4a,,,,,,,,,,,,
,,,,,41811,2021-10-01_04h16.19.071,judgeSpeechMusic_20210919_logNormShiftAmp_detection_fixFreq,2020.1.2,Linux x86_64,60,,,,,,,,,,,,,,,,,,,,,,,,,,,,,,2,5.6604,,0,0,56,56,41,1,stimuli/stim_20210919_power2amp/equal_lnn_AM2Hz_s35_24.m4a,,,,,,,,,,,,
,,,,,41811,2021-10-01_04h16.19.071,judgeSpeechMusic_20210919_logNormShiftAmp_detection_fixFreq,2020.1.2,Linux x86_64,60,,,,,,,,,,,,,,,,,,,,,,,,,,,,,,2,10.2072,,0,0,57,57,47,1,stimuli/stim_20210919_power2amp/equal_lnn_AM2Hz_s45_18.m4a,,,,,,,,,,,,
,,,,,41811,2021-10-01_04h16.19.071,judgeSpeechMusic_20210919_logNormShiftAmp_detection_fixFreq,2020.1.2,Linux x86_64,60,,,,,,,,,,,,,,,,,,,,,,,,,,,,,,2,5.9756,1,1,0,58,58,26,1,stimuli/stim_20210919_power2amp/equal_lnn_AM2Hz_s25_47.m4a,0.5621,,,,,,,,,,,
,,,,,41811,2021-10-01_04h16.19.071,judgeSpeechMusic_20210919_logNormShiftAmp_detection_fixFreq,2020.1.2,Linux x86_64,60,,,,,,,,,,,,,,,,,,,,,,,,,,,,,,1,5.7397,,0,0,59,59,12,1,stimuli/stim_20210919_power2amp/equal_lnn_AM2Hz_s15_15.m4a,,,,,,,,,,,,
,,,,,41811,2021-10-01_04h16.19.071,judgeSpeechMusic_20210919_logNormShiftAmp_detection_fixFreq,2020.1.2,Linux x86_64,60,,,,,,,,,,,,,,,,,,,,,,,,,,,,,,2,5.8908,,0,0,60,60,48,1,stimuli/stim_20210919_power2amp/equal_lnn_AM2Hz_s45_42.m4a,,,,,,,,,,,,
,,,,,41811,2021-10-01_04h16.19.071,judgeSpeechMusic_20210919_logNormShiftAmp_detection_fixFreq,2020.1.2,Linux x86_64,60,,,,,,,,,,,,,,,,,,,,,,,,,,,,,,1,5.8386,,0,0,61,61,15,1,stimuli/stim_20210919_power2amp/equal_lnn_AM2Hz_s25_27.m4a,,,,,,,,,,,,
,,,,,41811,2021-10-01_04h16.19.071,judgeSpeechMusic_20210919_logNormShiftAmp_detection_fixFreq,2020.1.2,Linux x86_64,60,,,,,,,,,,,,,,,,,,,,,,,,,,,,,,1,6.622,,0,0,62,62,5,1,stimuli/stim_20210919_power2amp/equal_lnn_AM2Hz_s15_12.m4a,,,,,,,,,,,,
,,,,,41811,2021-10-01_04h16.19.071,judgeSpeechMusic_20210919_logNormShiftAmp_detection_fixFreq,2020.1.2,Linux x86_64,60,,,,,,,,,,,,,,,,,,,,,,,,,,,,,,2,6.7744,,0,0,63,63,31,1,stimuli/stim_20210919_power2amp/equal_lnn_AM2Hz_s35_10.m4a,,,,,,,,,,,,
,,,,,41811,2021-10-01_04h16.19.071,judgeSpeechMusic_20210919_logNormShiftAmp_detection_fixFreq,2020.1.2,Linux x86_64,60,,,,,,,,,,,,,,,,,,,,,,,,,,,,,,2,5.794,,0,0,64,64,62,1,stimuli/stim_20210919_power2amp/equal_lnn_AM2Hz_s55_14.m4a,,,,,,,,,,,,
,,,,,41811,2021-10-01_04h16.19.071,judgeSpeechMusic_20210919_logNormShiftAmp_detection_fixFreq,2020.1.2,Linux x86_64,60,,,,,,,,,,,,,,,,,,,,,,,,,,,,,,1,6.8392,,0,0,65,65,61,1,stimuli/stim_20210919_power2amp/equal_lnn_AM2Hz_s55_42.m4a,,,,,,,,,,,,
,,,,,41811,2021-10-01_04h16.19.071,judgeSpeechMusic_20210919_logNormShiftAmp_detection_fixFreq,2020.1.2,Linux x86_64,60,,,,,,,,,,,,,,,,,,,,,,,,,,,,,,2,5.828,,0,0,66,66,65,1,stimuli/stim_20210919_power2amp/equal_lnn_AM2Hz_s55_26.m4a,,,,,,,,,,,,
,,,,,41811,2021-10-01_04h16.19.071,judgeSpeechMusic_20210919_logNormShiftAmp_detection_fixFreq,2020.1.2,Linux x86_64,60,,,,,,,,,,,,,,,,,,,,,,,,,,,,,,2,7.0919,,0,0,67,67,23,1,stimuli/stim_20210919_power2amp/equal_lnn_AM2Hz_s25_20.m4a,,,,,,,,,,,,
,,,,,41811,2021-10-01_04h16.19.071,judgeSpeechMusic_20210919_logNormShiftAmp_detection_fixFreq,2020.1.2,Linux x86_64,60,,,,,,,,,,,,,,,,,,,,,,,,,,,,,,2,6.0739,,0,0,68,68,21,1,stimuli/stim_20210919_power2amp/equal_lnn_AM2Hz_s25_35.m4a,,,,,,,,,,,,
,,,,,41811,2021-10-01_04h16.19.071,judgeSpeechMusic_20210919_logNormShiftAmp_detection_fixFreq,2020.1.2,Linux x86_64,60,,,,,,,,,,,,,,,,,,,,,,,,,,,,,,2,6.2579,,0,0,69,69,34,1,stimuli/stim_20210919_power2amp/equal_lnn_AM2Hz_s35_32.m4a,,,,,,,,,,,,
,,,,,41811,2021-10-01_04h16.19.071,judgeSpeechMusic_20210919_logNormShiftAmp_detection_fixFreq,2020.1.2,Linux x86_64,60,,,,,,,,,,,,,,,,,,,,,,,,,,,,,,1,5.8252,,0,0,70,70,7,1,stimuli/stim_20210919_power2amp/equal_lnn_AM2Hz_s15_14.m4a,,,,,,,,,,,,
,,,,,41811,2021-10-01_04h16.19.071,judgeSpeechMusic_20210919_logNormShiftAmp_detection_fixFreq,2020.1.2,Linux x86_64,60,,,,,,,,,,,,,,,,,,,,,,,,,,,,,,1,5.7756,,0,0,71,71,59,1,stimuli/stim_20210919_power2amp/equal_lnn_AM2Hz_s45_20.m4a,,,,,,,,,,,,
,,,,,41811,2021-10-01_04h16.19.071,judgeSpeechMusic_20210919_logNormShiftAmp_detection_fixFreq,2020.1.2,Linux x86_64,60,,,,,,,,,,,,,,,,,,,,,,,,,,,,,,2,5.7763,,0,0,72,72,11,1,stimuli/stim_20210919_power2amp/equal_lnn_AM2Hz_s15_25.m4a,,,,,,,,,,,,
,,,,,41811,2021-10-01_04h16.19.071,judgeSpeechMusic_20210919_logNormShiftAmp_detection_fixFreq,2020.1.2,Linux x86_64,60,,,,,,,,,,,,,,,,,,,,,,,,,,,,,,2,5.7232,,0,0,73,73,38,1,stimuli/stim_20210919_power2amp/equal_lnn_AM2Hz_s35_3.m4a,,,,,,,,,,,,
,,,,,41811,2021-10-01_04h16.19.071,judgeSpeechMusic_20210919_logNormShiftAmp_detection_fixFreq,2020.1.2,Linux x86_64,60,,,,,,,,,,,,,,,,,,,,,,,,,,,,,,2,6.1931,,0,0,74,74,19,1,stimuli/stim_20210919_power2amp/equal_lnn_AM2Hz_s25_11.m4a,,,,,,,,,,,,
,,,,,41811,2021-10-01_04h16.19.071,judgeSpeechMusic_20210919_logNormShiftAmp_detection_fixFreq,2020.1.2,Linux x86_64,60,,,,,,,,,,,,,,,,,,,,,,,,,,,,,,,,,,,,,,,,,,,1,1,3,1,1,SPEECH,stimuli/SPEECH.jpg,,
,,,,,41811,2021-10-01_04h16.19.071,judgeSpeechMusic_20210919_logNormShiftAmp_detection_fixFreq,2020.1.2,Linux x86_64,60,,,,,,,,,,,,,,,,,,,,,,,,,,,,,,,,,,,,,,,,,,,,,,,,,,space,3.006
