volAdjustRep.thisRepN,volAdjustRep.thisTrialN,volAdjustRep.thisN,volAdjustRep.thisIndex,volAdjustRep.ran,participant,date,expName,psychopyVersion,OS,frameRate,headphoneResponse.keys,headphoneResponse.corr,headphoneResponse.rt,headphoneTrial.thisRepN,headphoneTrial.thisTrialN,headphoneTrial.thisN,headphoneTrial.thisIndex,headphoneTrial.ran,headphone_sound1,headphone_sound2,headphone_sound3,corrAns,checkInstruKey.keys,checkInstruKey.rt,trainSlider.response,trainSlider.rt,beepTrainResponse.keys,beepTrainResponse.corr,trainingTrials.thisRepN,trainingTrials.thisTrialN,trainingTrials.thisN,trainingTrials.thisIndex,trainingTrials.ran,trainAudioFile,beepTrainResponse.rt,readyReal_resp.keys,readyReal_resp.rt,checkInstru2_key.keys,checkInstru2_key.rt,ratingSlider.response,ratingSlider.rt,beepResp.keys,beepResp.corr,expTrials.thisRepN,expTrials.thisTrialN,expTrials.thisN,expTrials.thisIndex,expTrials.ran,audioFile,beepResp.rt,switchBlock_space.keys,switchBlock_space.rt,block.thisRepN,block.thisTrialN,block.thisN,block.thisIndex,block.ran,blockName,blockImage,end_resp.keys,end_resp.rt
0,0,0,0,1,41843,2021-10-02_19h13.04.771,judgeSpeechMusic_20210919_logNormShiftAmp_detection_fixFreq,2020.1.2,MacIntel,60,,,,,,,,,,,,,,,,,,,,,,,,,,,,,,,,,,,,,,,,,,,,,,,,,,,
,,,,,41843,2021-10-02_19h13.04.771,judgeSpeechMusic_20210919_logNormShiftAmp_detection_fixFreq,2020.1.2,MacIntel,60,1,1,10.2666,0,0,0,5,1,stimuli/screen_quiet.wav,stimuli/screen_origin.wav,stimuli/screen_antiphase.wav,1,,,,,,,,,,,,,,,,,,,,,,,,,,,,,,,,,,,,,,,
,,,,,41843,2021-10-02_19h13.04.771,judgeSpeechMusic_20210919_logNormShiftAmp_detection_fixFreq,2020.1.2,MacIntel,60,2,1,6.6391,0,1,1,3,1,stimuli/screen_origin.wav,stimuli/screen_quiet.wav,stimuli/screen_antiphase.wav,2,,,,,,,,,,,,,,,,,,,,,,,,,,,,,,,,,,,,,,,
,,,,,41843,2021-10-02_19h13.04.771,judgeSpeechMusic_20210919_logNormShiftAmp_detection_fixFreq,2020.1.2,MacIntel,60,3,1,1.3898,0,2,2,0,1,stimuli/screen_antiphase.wav,stimuli/screen_origin.wav,stimuli/screen_quiet.wav,3,,,,,,,,,,,,,,,,,,,,,,,,,,,,,,,,,,,,,,,
,,,,,41843,2021-10-02_19h13.04.771,judgeSpeechMusic_20210919_logNormShiftAmp_detection_fixFreq,2020.1.2,MacIntel,60,1,1,1.4663,0,3,3,4,1,stimuli/screen_quiet.wav,stimuli/screen_antiphase.wav,stimuli/screen_origin.wav,1,,,,,,,,,,,,,,,,,,,,,,,,,,,,,,,,,,,,,,,
,,,,,41843,2021-10-02_19h13.04.771,judgeSpeechMusic_20210919_logNormShiftAmp_detection_fixFreq,2020.1.2,MacIntel,60,3,1,0.5004,0,4,4,2,1,stimuli/screen_origin.wav,stimuli/screen_antiphase.wav,stimuli/screen_quiet.wav,3,,,,,,,,,,,,,,,,,,,,,,,,,,,,,,,,,,,,,,,
,,,,,41843,2021-10-02_19h13.04.771,judgeSpeechMusic_20210919_logNormShiftAmp_detection_fixFreq,2020.1.2,MacIntel,60,2,1,0.8709,0,5,5,1,1,stimuli/screen_antiphase.wav,stimuli/screen_quiet.wav,stimuli/screen_origin.wav,2,,,,,,,,,,,,,,,,,,,,,,,,,,,,,,,,,,,,,,,
,,,,,41843,2021-10-02_19h13.04.771,judgeSpeechMusic_20210919_logNormShiftAmp_detection_fixFreq,2020.1.2,MacIntel,60,,,,,,,,,,,,,space,1.4385,1,14.0755,,0,0,0,0,3,1,stimuli/stim_20210919_power2amp/equal_lnn_AM_training2Hz_s50.m4a,,,,,,,,,,,,,,,,,,,,,,,,,,,
,,,,,41843,2021-10-02_19h13.04.771,judgeSpeechMusic_20210919_logNormShiftAmp_detection_fixFreq,2020.1.2,MacIntel,60,,,,,,,,,,,,,,,2,7.9672,,0,0,1,1,1,1,stimuli/stim_20210919_power2amp/equal_lnn_AM_training2Hz_s30.m4a,,,,,,,,,,,,,,,,,,,,,,,,,,,
,,,,,41843,2021-10-02_19h13.04.771,judgeSpeechMusic_20210919_logNormShiftAmp_detection_fixFreq,2020.1.2,MacIntel,60,,,,,,,,,,,,,,,2,12.673,2,1,0,2,2,2,1,stimuli/stim_20210919_power2amp/equal_lnn_AM_training2Hz_s40.m4a,4.2082,,,,,,,,,,,,,,,,,,,,,,,,,,
,,,,,41843,2021-10-02_19h13.04.771,judgeSpeechMusic_20210919_logNormShiftAmp_detection_fixFreq,2020.1.2,MacIntel,60,,,,,,,,,,,,,,,1,7.8886,,0,0,3,3,0,1,stimuli/stim_20210919_power2amp/equal_lnn_AM_training2Hz_s20.m4a,,,,,,,,,,,,,,,,,,,,,,,,,,,
,,,,,41843,2021-10-02_19h13.04.771,judgeSpeechMusic_20210919_logNormShiftAmp_detection_fixFreq,2020.1.2,MacIntel,60,,,,,,,,,,,,,space,0.799,2,8.2935,,0,1,0,4,2,1,stimuli/stim_20210919_power2amp/equal_lnn_AM_training2Hz_s40.m4a,,,,,,,,,,,,,,,,,,,,,,,,,,,
,,,,,41843,2021-10-02_19h13.04.771,judgeSpeechMusic_20210919_logNormShiftAmp_detection_fixFreq,2020.1.2,MacIntel,60,,,,,,,,,,,,,,,1,6.5848,,0,1,1,5,3,1,stimuli/stim_20210919_power2amp/equal_lnn_AM_training2Hz_s50.m4a,,,,,,,,,,,,,,,,,,,,,,,,,,,
,,,,,41843,2021-10-02_19h13.04.771,judgeSpeechMusic_20210919_logNormShiftAmp_detection_fixFreq,2020.1.2,MacIntel,60,,,,,,,,,,,,,,,1,7.4771,4,1,1,2,6,1,1,stimuli/stim_20210919_power2amp/equal_lnn_AM_training2Hz_s30.m4a,2.1245,,,,,,,,,,,,,,,,,,,,,,,,,,
,,,,,41843,2021-10-02_19h13.04.771,judgeSpeechMusic_20210919_logNormShiftAmp_detection_fixFreq,2020.1.2,MacIntel,60,,,,,,,,,,,,,,,2,6.4692,,0,1,3,7,0,1,stimuli/stim_20210919_power2amp/equal_lnn_AM_training2Hz_s20.m4a,,,,,,,,,,,,,,,,,,,,,,,,,,,
,,,,,41843,2021-10-02_19h13.04.771,judgeSpeechMusic_20210919_logNormShiftAmp_detection_fixFreq,2020.1.2,MacIntel,60,,,,,,,,,,,,,,,,,,,,,,,,,,space,10.7905,space,0.9843,1,6.5285,,0,0,0,0,7,1,stimuli/stim_20210919_power2amp/equal_lnn_AM2Hz_s15_21.m4a,,,,,,,,,,,,
,,,,,41843,2021-10-02_19h13.04.771,judgeSpeechMusic_20210919_logNormShiftAmp_detection_fixFreq,2020.1.2,MacIntel,60,,,,,,,,,,,,,,,,,,,,,,,,,,,,,,2,6.3416,,0,0,1,1,5,1,stimuli/stim_20210919_power2amp/equal_lnn_AM2Hz_s15_3.m4a,,,,,,,,,,,,
,,,,,41843,2021-10-02_19h13.04.771,judgeSpeechMusic_20210919_logNormShiftAmp_detection_fixFreq,2020.1.2,MacIntel,60,,,,,,,,,,,,,,,,,,,,,,,,,,,,,,1,6.4057,,0,0,2,2,10,1,stimuli/stim_20210919_power2amp/equal_lnn_AM2Hz_s15_15.m4a,,,,,,,,,,,,
,,,,,41843,2021-10-02_19h13.04.771,judgeSpeechMusic_20210919_logNormShiftAmp_detection_fixFreq,2020.1.2,MacIntel,60,,,,,,,,,,,,,,,,,,,,,,,,,,,,,,2,6.4726,,0,0,3,3,18,1,stimuli/stim_20210919_power2amp/equal_lnn_AM2Hz_s25_25.m4a,,,,,,,,,,,,
,,,,,41843,2021-10-02_19h13.04.771,judgeSpeechMusic_20210919_logNormShiftAmp_detection_fixFreq,2020.1.2,MacIntel,60,,,,,,,,,,,,,,,,,,,,,,,,,,,,,,1,8.6043,,0,0,4,4,56,1,stimuli/stim_20210919_power2amp/equal_lnn_AM2Hz_s45_6.m4a,,,,,,,,,,,,
,,,,,41843,2021-10-02_19h13.04.771,judgeSpeechMusic_20210919_logNormShiftAmp_detection_fixFreq,2020.1.2,MacIntel,60,,,,,,,,,,,,,,,,,,,,,,,,,,,,,,2,6.0979,,0,0,5,5,71,1,stimuli/stim_20210919_power2amp/equal_lnn_AM2Hz_s55_19.m4a,,,,,,,,,,,,
,,,,,41843,2021-10-02_19h13.04.771,judgeSpeechMusic_20210919_logNormShiftAmp_detection_fixFreq,2020.1.2,MacIntel,60,,,,,,,,,,,,,,,,,,,,,,,,,,,,,,2,9.303,,0,0,6,6,28,1,stimuli/stim_20210919_power2amp/equal_lnn_AM2Hz_s25_18.m4a,,,,,,,,,,,,
,,,,,41843,2021-10-02_19h13.04.771,judgeSpeechMusic_20210919_logNormShiftAmp_detection_fixFreq,2020.1.2,MacIntel,60,,,,,,,,,,,,,,,,,,,,,,,,,,,,,,1,6.2355,,0,0,7,7,24,1,stimuli/stim_20210919_power2amp/equal_lnn_AM2Hz_s25_33.m4a,,,,,,,,,,,,
,,,,,41843,2021-10-02_19h13.04.771,judgeSpeechMusic_20210919_logNormShiftAmp_detection_fixFreq,2020.1.2,MacIntel,60,,,,,,,,,,,,,,,,,,,,,,,,,,,,,,1,6.5772,,0,0,8,8,20,1,stimuli/stim_20210919_power2amp/equal_lnn_AM2Hz_s25_24.m4a,,,,,,,,,,,,
,,,,,41843,2021-10-02_19h13.04.771,judgeSpeechMusic_20210919_logNormShiftAmp_detection_fixFreq,2020.1.2,MacIntel,60,,,,,,,,,,,,,,,,,,,,,,,,,,,,,,2,6.5706,,0,0,9,9,72,1,stimuli/stim_20210919_power2amp/equal_lnn_AM2Hz_s55_50.m4a,,,,,,,,,,,,
,,,,,41843,2021-10-02_19h13.04.771,judgeSpeechMusic_20210919_logNormShiftAmp_detection_fixFreq,2020.1.2,MacIntel,60,,,,,,,,,,,,,,,,,,,,,,,,,,,,,,2,6.109,,0,0,10,10,63,1,stimuli/stim_20210919_power2amp/equal_lnn_AM2Hz_s55_49.m4a,,,,,,,,,,,,
,,,,,41843,2021-10-02_19h13.04.771,judgeSpeechMusic_20210919_logNormShiftAmp_detection_fixFreq,2020.1.2,MacIntel,60,,,,,,,,,,,,,,,,,,,,,,,,,,,,,,1,5.9716,,0,0,11,11,29,1,stimuli/stim_20210919_power2amp/equal_lnn_AM2Hz_s25_43.m4a,,,,,,,,,,,,
,,,,,41843,2021-10-02_19h13.04.771,judgeSpeechMusic_20210919_logNormShiftAmp_detection_fixFreq,2020.1.2,MacIntel,60,,,,,,,,,,,,,,,,,,,,,,,,,,,,,,2,6.6883,,0,0,12,12,57,1,stimuli/stim_20210919_power2amp/equal_lnn_AM2Hz_s45_2.m4a,,,,,,,,,,,,
,,,,,41843,2021-10-02_19h13.04.771,judgeSpeechMusic_20210919_logNormShiftAmp_detection_fixFreq,2020.1.2,MacIntel,60,,,,,,,,,,,,,,,,,,,,,,,,,,,,,,1,6.0887,,0,0,13,13,27,1,stimuli/stim_20210919_power2amp/equal_lnn_AM2Hz_s25_26.m4a,,,,,,,,,,,,
,,,,,41843,2021-10-02_19h13.04.771,judgeSpeechMusic_20210919_logNormShiftAmp_detection_fixFreq,2020.1.2,MacIntel,60,,,,,,,,,,,,,,,,,,,,,,,,,,,,,,1,7.1112,,0,0,14,14,48,1,stimuli/stim_20210919_power2amp/equal_lnn_AM2Hz_s45_15.m4a,,,,,,,,,,,,
,,,,,41843,2021-10-02_19h13.04.771,judgeSpeechMusic_20210919_logNormShiftAmp_detection_fixFreq,2020.1.2,MacIntel,60,,,,,,,,,,,,,,,,,,,,,,,,,,,,,,2,6.3581,,0,0,15,15,61,1,stimuli/stim_20210919_power2amp/equal_lnn_AM2Hz_s55_31.m4a,,,,,,,,,,,,
,,,,,41843,2021-10-02_19h13.04.771,judgeSpeechMusic_20210919_logNormShiftAmp_detection_fixFreq,2020.1.2,MacIntel,60,,,,,,,,,,,,,,,,,,,,,,,,,,,,,,1,6.2411,,0,0,16,16,22,1,stimuli/stim_20210919_power2amp/equal_lnn_AM2Hz_s25_12.m4a,,,,,,,,,,,,
,,,,,41843,2021-10-02_19h13.04.771,judgeSpeechMusic_20210919_logNormShiftAmp_detection_fixFreq,2020.1.2,MacIntel,60,,,,,,,,,,,,,,,,,,,,,,,,,,,,,,2,7.2255,,0,0,17,17,51,1,stimuli/stim_20210919_power2amp/equal_lnn_AM2Hz_s45_28.m4a,,,,,,,,,,,,
,,,,,41843,2021-10-02_19h13.04.771,judgeSpeechMusic_20210919_logNormShiftAmp_detection_fixFreq,2020.1.2,MacIntel,60,,,,,,,,,,,,,,,,,,,,,,,,,,,,,,2,6.4116,,0,0,18,18,50,1,stimuli/stim_20210919_power2amp/equal_lnn_AM2Hz_s45_14.m4a,,,,,,,,,,,,
,,,,,41843,2021-10-02_19h13.04.771,judgeSpeechMusic_20210919_logNormShiftAmp_detection_fixFreq,2020.1.2,MacIntel,60,,,,,,,,,,,,,,,,,,,,,,,,,,,,,,1,5.9061,4,1,0,19,19,16,1,stimuli/stim_20210919_power2amp/equal_lnn_AM2Hz_s25_35.m4a,1.7463,,,,,,,,,,,
,,,,,41843,2021-10-02_19h13.04.771,judgeSpeechMusic_20210919_logNormShiftAmp_detection_fixFreq,2020.1.2,MacIntel,60,,,,,,,,,,,,,,,,,,,,,,,,,,,,,,1,13.7557,,0,0,20,20,59,1,stimuli/stim_20210919_power2amp/equal_lnn_AM2Hz_s45_20.m4a,,,,,,,,,,,,
,,,,,41843,2021-10-02_19h13.04.771,judgeSpeechMusic_20210919_logNormShiftAmp_detection_fixFreq,2020.1.2,MacIntel,60,,,,,,,,,,,,,,,,,,,,,,,,,,,,,,1,6.4366,,0,0,21,21,2,1,stimuli/stim_20210919_power2amp/equal_lnn_AM2Hz_s15_13.m4a,,,,,,,,,,,,
,,,,,41843,2021-10-02_19h13.04.771,judgeSpeechMusic_20210919_logNormShiftAmp_detection_fixFreq,2020.1.2,MacIntel,60,,,,,,,,,,,,,,,,,,,,,,,,,,,,,,2,6.7584,,0,0,22,22,53,1,stimuli/stim_20210919_power2amp/equal_lnn_AM2Hz_s45_39.m4a,,,,,,,,,,,,
,,,,,41843,2021-10-02_19h13.04.771,judgeSpeechMusic_20210919_logNormShiftAmp_detection_fixFreq,2020.1.2,MacIntel,60,,,,,,,,,,,,,,,,,,,,,,,,,,,,,,2,6.1477,,0,0,23,23,46,1,stimuli/stim_20210919_power2amp/equal_lnn_AM2Hz_s45_16.m4a,,,,,,,,,,,,
,,,,,41843,2021-10-02_19h13.04.771,judgeSpeechMusic_20210919_logNormShiftAmp_detection_fixFreq,2020.1.2,MacIntel,60,,,,,,,,,,,,,,,,,,,,,,,,,,,,,,1,6.1894,,0,0,24,24,34,1,stimuli/stim_20210919_power2amp/equal_lnn_AM2Hz_s35_8.m4a,,,,,,,,,,,,
,,,,,41843,2021-10-02_19h13.04.771,judgeSpeechMusic_20210919_logNormShiftAmp_detection_fixFreq,2020.1.2,MacIntel,60,,,,,,,,,,,,,,,,,,,,,,,,,,,,,,1,8.6448,,0,0,25,25,23,1,stimuli/stim_20210919_power2amp/equal_lnn_AM2Hz_s25_16.m4a,,,,,,,,,,,,
,,,,,41843,2021-10-02_19h13.04.771,judgeSpeechMusic_20210919_logNormShiftAmp_detection_fixFreq,2020.1.2,MacIntel,60,,,,,,,,,,,,,,,,,,,,,,,,,,,,,,1,6.0718,,0,0,26,26,11,1,stimuli/stim_20210919_power2amp/equal_lnn_AM2Hz_s15_50.m4a,,,,,,,,,,,,
,,,,,41843,2021-10-02_19h13.04.771,judgeSpeechMusic_20210919_logNormShiftAmp_detection_fixFreq,2020.1.2,MacIntel,60,,,,,,,,,,,,,,,,,,,,,,,,,,,,,,2,8.3064,,0,0,27,27,36,1,stimuli/stim_20210919_power2amp/equal_lnn_AM2Hz_s35_25.m4a,,,,,,,,,,,,
,,,,,41843,2021-10-02_19h13.04.771,judgeSpeechMusic_20210919_logNormShiftAmp_detection_fixFreq,2020.1.2,MacIntel,60,,,,,,,,,,,,,,,,,,,,,,,,,,,,,,1,6.2222,,0,0,28,28,54,1,stimuli/stim_20210919_power2amp/equal_lnn_AM2Hz_s45_8.m4a,,,,,,,,,,,,
,,,,,41843,2021-10-02_19h13.04.771,judgeSpeechMusic_20210919_logNormShiftAmp_detection_fixFreq,2020.1.2,MacIntel,60,,,,,,,,,,,,,,,,,,,,,,,,,,,,,,1,6.0554,,0,0,29,29,38,1,stimuli/stim_20210919_power2amp/equal_lnn_AM2Hz_s35_43.m4a,,,,,,,,,,,,
,,,,,41843,2021-10-02_19h13.04.771,judgeSpeechMusic_20210919_logNormShiftAmp_detection_fixFreq,2020.1.2,MacIntel,60,,,,,,,,,,,,,,,,,,,,,,,,,,,,,,2,6.2265,,0,0,30,30,52,1,stimuli/stim_20210919_power2amp/equal_lnn_AM2Hz_s45_48.m4a,,,,,,,,,,,,
,,,,,41843,2021-10-02_19h13.04.771,judgeSpeechMusic_20210919_logNormShiftAmp_detection_fixFreq,2020.1.2,MacIntel,60,,,,,,,,,,,,,,,,,,,,,,,,,,,,,,1,5.8911,,0,0,31,31,1,1,stimuli/stim_20210919_power2amp/equal_lnn_AM2Hz_s15_48.m4a,,,,,,,,,,,,
,,,,,41843,2021-10-02_19h13.04.771,judgeSpeechMusic_20210919_logNormShiftAmp_detection_fixFreq,2020.1.2,MacIntel,60,,,,,,,,,,,,,,,,,,,,,,,,,,,,,,1,6.3123,,0,0,32,32,74,1,stimuli/stim_20210919_power2amp/equal_lnn_AM2Hz_s55_1.m4a,,,,,,,,,,,,
,,,,,41843,2021-10-02_19h13.04.771,judgeSpeechMusic_20210919_logNormShiftAmp_detection_fixFreq,2020.1.2,MacIntel,60,,,,,,,,,,,,,,,,,,,,,,,,,,,,,,1,5.8615,,0,0,33,33,19,1,stimuli/stim_20210919_power2amp/equal_lnn_AM2Hz_s25_1.m4a,,,,,,,,,,,,
,,,,,41843,2021-10-02_19h13.04.771,judgeSpeechMusic_20210919_logNormShiftAmp_detection_fixFreq,2020.1.2,MacIntel,60,,,,,,,,,,,,,,,,,,,,,,,,,,,,,,2,6.1073,,0,0,34,34,3,1,stimuli/stim_20210919_power2amp/equal_lnn_AM2Hz_s15_41.m4a,,,,,,,,,,,,
,,,,,41843,2021-10-02_19h13.04.771,judgeSpeechMusic_20210919_logNormShiftAmp_detection_fixFreq,2020.1.2,MacIntel,60,,,,,,,,,,,,,,,,,,,,,,,,,,,,,,2,5.8714,,0,0,35,35,39,1,stimuli/stim_20210919_power2amp/equal_lnn_AM2Hz_s35_42.m4a,,,,,,,,,,,,
,,,,,41843,2021-10-02_19h13.04.771,judgeSpeechMusic_20210919_logNormShiftAmp_detection_fixFreq,2020.1.2,MacIntel,60,,,,,,,,,,,,,,,,,,,,,,,,,,,,,,1,5.7957,,0,0,36,36,58,1,stimuli/stim_20210919_power2amp/equal_lnn_AM2Hz_s45_17.m4a,,,,,,,,,,,,
,,,,,41843,2021-10-02_19h13.04.771,judgeSpeechMusic_20210919_logNormShiftAmp_detection_fixFreq,2020.1.2,MacIntel,60,,,,,,,,,,,,,,,,,,,,,,,,,,,,,,2,5.9457,2,1,0,37,37,32,1,stimuli/stim_20210919_power2amp/equal_lnn_AM2Hz_s35_38.m4a,2.3441,,,,,,,,,,,
,,,,,41843,2021-10-02_19h13.04.771,judgeSpeechMusic_20210919_logNormShiftAmp_detection_fixFreq,2020.1.2,MacIntel,60,,,,,,,,,,,,,,,,,,,,,,,,,,,,,,2,6.2744,,0,0,38,38,13,1,stimuli/stim_20210919_power2amp/equal_lnn_AM2Hz_s15_27.m4a,,,,,,,,,,,,
,,,,,41843,2021-10-02_19h13.04.771,judgeSpeechMusic_20210919_logNormShiftAmp_detection_fixFreq,2020.1.2,MacIntel,60,,,,,,,,,,,,,,,,,,,,,,,,,,,,,,1,5.7781,,0,0,39,39,31,1,stimuli/stim_20210919_power2amp/equal_lnn_AM2Hz_s35_45.m4a,,,,,,,,,,,,
,,,,,41843,2021-10-02_19h13.04.771,judgeSpeechMusic_20210919_logNormShiftAmp_detection_fixFreq,2020.1.2,MacIntel,60,,,,,,,,,,,,,,,,,,,,,,,,,,,,,,2,5.8551,,0,0,40,40,43,1,stimuli/stim_20210919_power2amp/equal_lnn_AM2Hz_s35_26.m4a,,,,,,,,,,,,
,,,,,41843,2021-10-02_19h13.04.771,judgeSpeechMusic_20210919_logNormShiftAmp_detection_fixFreq,2020.1.2,MacIntel,60,,,,,,,,,,,,,,,,,,,,,,,,,,,,,,2,6.0037,,0,0,41,41,67,1,stimuli/stim_20210919_power2amp/equal_lnn_AM2Hz_s55_3.m4a,,,,,,,,,,,,
,,,,,41843,2021-10-02_19h13.04.771,judgeSpeechMusic_20210919_logNormShiftAmp_detection_fixFreq,2020.1.2,MacIntel,60,,,,,,,,,,,,,,,,,,,,,,,,,,,,,,1,5.9904,,0,0,42,42,41,1,stimuli/stim_20210919_power2amp/equal_lnn_AM2Hz_s35_17.m4a,,,,,,,,,,,,
,,,,,41843,2021-10-02_19h13.04.771,judgeSpeechMusic_20210919_logNormShiftAmp_detection_fixFreq,2020.1.2,MacIntel,60,,,,,,,,,,,,,,,,,,,,,,,,,,,,,,2,5.8769,,0,0,43,43,73,1,stimuli/stim_20210919_power2amp/equal_lnn_AM2Hz_s55_6.m4a,,,,,,,,,,,,
,,,,,41843,2021-10-02_19h13.04.771,judgeSpeechMusic_20210919_logNormShiftAmp_detection_fixFreq,2020.1.2,MacIntel,60,,,,,,,,,,,,,,,,,,,,,,,,,,,,,,1,6.7555,,0,0,44,44,44,1,stimuli/stim_20210919_power2amp/equal_lnn_AM2Hz_s35_32.m4a,,,,,,,,,,,,
,,,,,41843,2021-10-02_19h13.04.771,judgeSpeechMusic_20210919_logNormShiftAmp_detection_fixFreq,2020.1.2,MacIntel,60,,,,,,,,,,,,,,,,,,,,,,,,,,,,,,2,5.9217,,0,0,45,45,47,1,stimuli/stim_20210919_power2amp/equal_lnn_AM2Hz_s45_11.m4a,,,,,,,,,,,,
,,,,,41843,2021-10-02_19h13.04.771,judgeSpeechMusic_20210919_logNormShiftAmp_detection_fixFreq,2020.1.2,MacIntel,60,,,,,,,,,,,,,,,,,,,,,,,,,,,,,,1,5.8051,,0,0,46,46,12,1,stimuli/stim_20210919_power2amp/equal_lnn_AM2Hz_s15_28.m4a,,,,,,,,,,,,
,,,,,41843,2021-10-02_19h13.04.771,judgeSpeechMusic_20210919_logNormShiftAmp_detection_fixFreq,2020.1.2,MacIntel,60,,,,,,,,,,,,,,,,,,,,,,,,,,,,,,1,5.9066,,0,0,47,47,14,1,stimuli/stim_20210919_power2amp/equal_lnn_AM2Hz_s15_30.m4a,,,,,,,,,,,,
,,,,,41843,2021-10-02_19h13.04.771,judgeSpeechMusic_20210919_logNormShiftAmp_detection_fixFreq,2020.1.2,MacIntel,60,,,,,,,,,,,,,,,,,,,,,,,,,,,,,,1,8.0725,,0,0,48,48,4,1,stimuli/stim_20210919_power2amp/equal_lnn_AM2Hz_s15_2.m4a,,,,,,,,,,,,
,,,,,41843,2021-10-02_19h13.04.771,judgeSpeechMusic_20210919_logNormShiftAmp_detection_fixFreq,2020.1.2,MacIntel,60,,,,,,,,,,,,,,,,,,,,,,,,,,,,,,2,6.005,,0,0,49,49,65,1,stimuli/stim_20210919_power2amp/equal_lnn_AM2Hz_s55_22.m4a,,,,,,,,,,,,
,,,,,41843,2021-10-02_19h13.04.771,judgeSpeechMusic_20210919_logNormShiftAmp_detection_fixFreq,2020.1.2,MacIntel,60,,,,,,,,,,,,,,,,,,,,,,,,,,,,,,2,5.8392,,0,0,50,50,8,1,stimuli/stim_20210919_power2amp/equal_lnn_AM2Hz_s15_47.m4a,,,,,,,,,,,,
,,,,,41843,2021-10-02_19h13.04.771,judgeSpeechMusic_20210919_logNormShiftAmp_detection_fixFreq,2020.1.2,MacIntel,60,,,,,,,,,,,,,,,,,,,,,,,,,,,,,,2,5.7578,,0,0,51,51,66,1,stimuli/stim_20210919_power2amp/equal_lnn_AM2Hz_s55_24.m4a,,,,,,,,,,,,
,,,,,41843,2021-10-02_19h13.04.771,judgeSpeechMusic_20210919_logNormShiftAmp_detection_fixFreq,2020.1.2,MacIntel,60,,,,,,,,,,,,,,,,,,,,,,,,,,,,,,2,10.8446,,0,0,52,52,33,1,stimuli/stim_20210919_power2amp/equal_lnn_AM2Hz_s35_34.m4a,,,,,,,,,,,,
,,,,,41843,2021-10-02_19h13.04.771,judgeSpeechMusic_20210919_logNormShiftAmp_detection_fixFreq,2020.1.2,MacIntel,60,,,,,,,,,,,,,,,,,,,,,,,,,,,,,,1,5.7108,,0,0,53,53,25,1,stimuli/stim_20210919_power2amp/equal_lnn_AM2Hz_s25_2.m4a,,,,,,,,,,,,
,,,,,41843,2021-10-02_19h13.04.771,judgeSpeechMusic_20210919_logNormShiftAmp_detection_fixFreq,2020.1.2,MacIntel,60,,,,,,,,,,,,,,,,,,,,,,,,,,,,,,2,5.9292,,0,0,54,54,64,1,stimuli/stim_20210919_power2amp/equal_lnn_AM2Hz_s55_43.m4a,,,,,,,,,,,,
,,,,,41843,2021-10-02_19h13.04.771,judgeSpeechMusic_20210919_logNormShiftAmp_detection_fixFreq,2020.1.2,MacIntel,60,,,,,,,,,,,,,,,,,,,,,,,,,,,,,,2,5.8741,,0,0,55,55,62,1,stimuli/stim_20210919_power2amp/equal_lnn_AM2Hz_s55_30.m4a,,,,,,,,,,,,
,,,,,41843,2021-10-02_19h13.04.771,judgeSpeechMusic_20210919_logNormShiftAmp_detection_fixFreq,2020.1.2,MacIntel,60,,,,,,,,,,,,,,,,,,,,,,,,,,,,,,1,5.8606,,0,0,56,56,26,1,stimuli/stim_20210919_power2amp/equal_lnn_AM2Hz_s25_42.m4a,,,,,,,,,,,,
,,,,,41843,2021-10-02_19h13.04.771,judgeSpeechMusic_20210919_logNormShiftAmp_detection_fixFreq,2020.1.2,MacIntel,60,,,,,,,,,,,,,,,,,,,,,,,,,,,,,,1,6.0767,3,1,0,57,57,9,1,stimuli/stim_20210919_power2amp/equal_lnn_AM2Hz_s15_45.m4a,1.5412,,,,,,,,,,,
,,,,,41843,2021-10-02_19h13.04.771,judgeSpeechMusic_20210919_logNormShiftAmp_detection_fixFreq,2020.1.2,MacIntel,60,,,,,,,,,,,,,,,,,,,,,,,,,,,,,,1,5.7774,,0,0,58,58,42,1,stimuli/stim_20210919_power2amp/equal_lnn_AM2Hz_s35_2.m4a,,,,,,,,,,,,
,,,,,41843,2021-10-02_19h13.04.771,judgeSpeechMusic_20210919_logNormShiftAmp_detection_fixFreq,2020.1.2,MacIntel,60,,,,,,,,,,,,,,,,,,,,,,,,,,,,,,1,5.7227,,0,0,59,59,15,1,stimuli/stim_20210919_power2amp/equal_lnn_AM2Hz_s25_4.m4a,,,,,,,,,,,,
,,,,,41843,2021-10-02_19h13.04.771,judgeSpeechMusic_20210919_logNormShiftAmp_detection_fixFreq,2020.1.2,MacIntel,60,,,,,,,,,,,,,,,,,,,,,,,,,,,,,,2,5.8727,,0,0,60,60,69,1,stimuli/stim_20210919_power2amp/equal_lnn_AM2Hz_s55_41.m4a,,,,,,,,,,,,
,,,,,41843,2021-10-02_19h13.04.771,judgeSpeechMusic_20210919_logNormShiftAmp_detection_fixFreq,2020.1.2,MacIntel,60,,,,,,,,,,,,,,,,,,,,,,,,,,,,,,1,5.7786,,0,0,61,61,35,1,stimuli/stim_20210919_power2amp/equal_lnn_AM2Hz_s35_16.m4a,,,,,,,,,,,,
,,,,,41843,2021-10-02_19h13.04.771,judgeSpeechMusic_20210919_logNormShiftAmp_detection_fixFreq,2020.1.2,MacIntel,60,,,,,,,,,,,,,,,,,,,,,,,,,,,,,,1,5.8428,,0,0,62,62,0,1,stimuli/stim_20210919_power2amp/equal_lnn_AM2Hz_s15_5.m4a,,,,,,,,,,,,
,,,,,41843,2021-10-02_19h13.04.771,judgeSpeechMusic_20210919_logNormShiftAmp_detection_fixFreq,2020.1.2,MacIntel,60,,,,,,,,,,,,,,,,,,,,,,,,,,,,,,1,6.4405,,0,0,63,63,17,1,stimuli/stim_20210919_power2amp/equal_lnn_AM2Hz_s25_39.m4a,,,,,,,,,,,,
,,,,,41843,2021-10-02_19h13.04.771,judgeSpeechMusic_20210919_logNormShiftAmp_detection_fixFreq,2020.1.2,MacIntel,60,,,,,,,,,,,,,,,,,,,,,,,,,,,,,,2,6.1963,,0,0,64,64,40,1,stimuli/stim_20210919_power2amp/equal_lnn_AM2Hz_s35_15.m4a,,,,,,,,,,,,
,,,,,41843,2021-10-02_19h13.04.771,judgeSpeechMusic_20210919_logNormShiftAmp_detection_fixFreq,2020.1.2,MacIntel,60,,,,,,,,,,,,,,,,,,,,,,,,,,,,,,2,5.9893,,0,0,65,65,70,1,stimuli/stim_20210919_power2amp/equal_lnn_AM2Hz_s55_21.m4a,,,,,,,,,,,,
,,,,,41843,2021-10-02_19h13.04.771,judgeSpeechMusic_20210919_logNormShiftAmp_detection_fixFreq,2020.1.2,MacIntel,60,,,,,,,,,,,,,,,,,,,,,,,,,,,,,,2,6.7114,,0,0,66,66,45,1,stimuli/stim_20210919_power2amp/equal_lnn_AM2Hz_s45_30.m4a,,,,,,,,,,,,
,,,,,41843,2021-10-02_19h13.04.771,judgeSpeechMusic_20210919_logNormShiftAmp_detection_fixFreq,2020.1.2,MacIntel,60,,,,,,,,,,,,,,,,,,,,,,,,,,,,,,2,5.723,,0,0,67,67,55,1,stimuli/stim_20210919_power2amp/equal_lnn_AM2Hz_s45_1.m4a,,,,,,,,,,,,
,,,,,41843,2021-10-02_19h13.04.771,judgeSpeechMusic_20210919_logNormShiftAmp_detection_fixFreq,2020.1.2,MacIntel,60,,,,,,,,,,,,,,,,,,,,,,,,,,,,,,1,5.8298,,0,0,68,68,30,1,stimuli/stim_20210919_power2amp/equal_lnn_AM2Hz_s35_6.m4a,,,,,,,,,,,,
,,,,,41843,2021-10-02_19h13.04.771,judgeSpeechMusic_20210919_logNormShiftAmp_detection_fixFreq,2020.1.2,MacIntel,60,,,,,,,,,,,,,,,,,,,,,,,,,,,,,,1,7.4051,,0,0,69,69,6,1,stimuli/stim_20210919_power2amp/equal_lnn_AM2Hz_s15_16.m4a,,,,,,,,,,,,
,,,,,41843,2021-10-02_19h13.04.771,judgeSpeechMusic_20210919_logNormShiftAmp_detection_fixFreq,2020.1.2,MacIntel,60,,,,,,,,,,,,,,,,,,,,,,,,,,,,,,1,5.6888,,0,0,70,70,68,1,stimuli/stim_20210919_power2amp/equal_lnn_AM2Hz_s55_9.m4a,,,,,,,,,,,,
,,,,,41843,2021-10-02_19h13.04.771,judgeSpeechMusic_20210919_logNormShiftAmp_detection_fixFreq,2020.1.2,MacIntel,60,,,,,,,,,,,,,,,,,,,,,,,,,,,,,,2,5.7921,,0,0,71,71,37,1,stimuli/stim_20210919_power2amp/equal_lnn_AM2Hz_s35_12.m4a,,,,,,,,,,,,
,,,,,41843,2021-10-02_19h13.04.771,judgeSpeechMusic_20210919_logNormShiftAmp_detection_fixFreq,2020.1.2,MacIntel,60,,,,,,,,,,,,,,,,,,,,,,,,,,,,,,2,6.5392,,0,0,72,72,60,1,stimuli/stim_20210919_power2amp/equal_lnn_AM2Hz_s55_44.m4a,,,,,,,,,,,,
,,,,,41843,2021-10-02_19h13.04.771,judgeSpeechMusic_20210919_logNormShiftAmp_detection_fixFreq,2020.1.2,MacIntel,60,,,,,,,,,,,,,,,,,,,,,,,,,,,,,,2,6.3065,,0,0,73,73,21,1,stimuli/stim_20210919_power2amp/equal_lnn_AM2Hz_s25_20.m4a,,,,,,,,,,,,
,,,,,41843,2021-10-02_19h13.04.771,judgeSpeechMusic_20210919_logNormShiftAmp_detection_fixFreq,2020.1.2,MacIntel,60,,,,,,,,,,,,,,,,,,,,,,,,,,,,,,2,5.7943,,0,0,74,74,49,1,stimuli/stim_20210919_power2amp/equal_lnn_AM2Hz_s45_40.m4a,,,,,,,,,,,,
,,,,,41843,2021-10-02_19h13.04.771,judgeSpeechMusic_20210919_logNormShiftAmp_detection_fixFreq,2020.1.2,MacIntel,60,,,,,,,,,,,,,,,,,,,,,,,,,,,,,,,,,,,,,,,,,space,7.5261,0,0,0,1,1,SPEECH,stimuli/SPEECH.jpg,,
,,,,,41843,2021-10-02_19h13.04.771,judgeSpeechMusic_20210919_logNormShiftAmp_detection_fixFreq,2020.1.2,MacIntel,60,,,,,,,,,,,,,space,0.4161,2,8.0956,,0,0,0,0,0,1,stimuli/stim_20210919_power2amp/equal_lnn_AM_training2Hz_s20.m4a,,,,,,,,,,,,,,,,,,,,,,,,,,,
,,,,,41843,2021-10-02_19h13.04.771,judgeSpeechMusic_20210919_logNormShiftAmp_detection_fixFreq,2020.1.2,MacIntel,60,,,,,,,,,,,,,,,1,7.0505,,0,0,1,1,3,1,stimuli/stim_20210919_power2amp/equal_lnn_AM_training2Hz_s50.m4a,,,,,,,,,,,,,,,,,,,,,,,,,,,
,,,,,41843,2021-10-02_19h13.04.771,judgeSpeechMusic_20210919_logNormShiftAmp_detection_fixFreq,2020.1.2,MacIntel,60,,,,,,,,,,,,,,,2,6.2215,4,1,0,2,2,1,1,stimuli/stim_20210919_power2amp/equal_lnn_AM_training2Hz_s30.m4a,2.1604,,,,,,,,,,,,,,,,,,,,,,,,,,
,,,,,41843,2021-10-02_19h13.04.771,judgeSpeechMusic_20210919_logNormShiftAmp_detection_fixFreq,2020.1.2,MacIntel,60,,,,,,,,,,,,,,,2,5.8509,,0,0,3,3,2,1,stimuli/stim_20210919_power2amp/equal_lnn_AM_training2Hz_s40.m4a,,,,,,,,,,,,,,,,,,,,,,,,,,,
,,,,,41843,2021-10-02_19h13.04.771,judgeSpeechMusic_20210919_logNormShiftAmp_detection_fixFreq,2020.1.2,MacIntel,60,,,,,,,,,,,,,,,,,,,,,,,,,,space,10.0401,space,0.697,1,5.9267,,0,0,0,0,70,1,stimuli/stim_20210919_power2amp/equal_lnn_AM2Hz_s55_21.m4a,,,,,,,,,,,,
,,,,,41843,2021-10-02_19h13.04.771,judgeSpeechMusic_20210919_logNormShiftAmp_detection_fixFreq,2020.1.2,MacIntel,60,,,,,,,,,,,,,,,,,,,,,,,,,,,,,,1,5.9928,,0,0,1,1,51,1,stimuli/stim_20210919_power2amp/equal_lnn_AM2Hz_s45_28.m4a,,,,,,,,,,,,
,,,,,41843,2021-10-02_19h13.04.771,judgeSpeechMusic_20210919_logNormShiftAmp_detection_fixFreq,2020.1.2,MacIntel,60,,,,,,,,,,,,,,,,,,,,,,,,,,,,,,2,5.9606,,0,0,2,2,74,1,stimuli/stim_20210919_power2amp/equal_lnn_AM2Hz_s55_1.m4a,,,,,,,,,,,,
,,,,,41843,2021-10-02_19h13.04.771,judgeSpeechMusic_20210919_logNormShiftAmp_detection_fixFreq,2020.1.2,MacIntel,60,,,,,,,,,,,,,,,,,,,,,,,,,,,,,,1,6.2612,,0,0,3,3,46,1,stimuli/stim_20210919_power2amp/equal_lnn_AM2Hz_s45_16.m4a,,,,,,,,,,,,
,,,,,41843,2021-10-02_19h13.04.771,judgeSpeechMusic_20210919_logNormShiftAmp_detection_fixFreq,2020.1.2,MacIntel,60,,,,,,,,,,,,,,,,,,,,,,,,,,,,,,2,6.5859,,0,0,4,4,72,1,stimuli/stim_20210919_power2amp/equal_lnn_AM2Hz_s55_50.m4a,,,,,,,,,,,,
,,,,,41843,2021-10-02_19h13.04.771,judgeSpeechMusic_20210919_logNormShiftAmp_detection_fixFreq,2020.1.2,MacIntel,60,,,,,,,,,,,,,,,,,,,,,,,,,,,,,,1,5.8396,,0,0,5,5,28,1,stimuli/stim_20210919_power2amp/equal_lnn_AM2Hz_s25_18.m4a,,,,,,,,,,,,
,,,,,41843,2021-10-02_19h13.04.771,judgeSpeechMusic_20210919_logNormShiftAmp_detection_fixFreq,2020.1.2,MacIntel,60,,,,,,,,,,,,,,,,,,,,,,,,,,,,,,1,6.0055,,0,0,6,6,27,1,stimuli/stim_20210919_power2amp/equal_lnn_AM2Hz_s25_26.m4a,,,,,,,,,,,,
,,,,,41843,2021-10-02_19h13.04.771,judgeSpeechMusic_20210919_logNormShiftAmp_detection_fixFreq,2020.1.2,MacIntel,60,,,,,,,,,,,,,,,,,,,,,,,,,,,,,,2,6.0741,,0,0,7,7,34,1,stimuli/stim_20210919_power2amp/equal_lnn_AM2Hz_s35_8.m4a,,,,,,,,,,,,
,,,,,41843,2021-10-02_19h13.04.771,judgeSpeechMusic_20210919_logNormShiftAmp_detection_fixFreq,2020.1.2,MacIntel,60,,,,,,,,,,,,,,,,,,,,,,,,,,,,,,2,5.9414,,0,0,8,8,61,1,stimuli/stim_20210919_power2amp/equal_lnn_AM2Hz_s55_31.m4a,,,,,,,,,,,,
,,,,,41843,2021-10-02_19h13.04.771,judgeSpeechMusic_20210919_logNormShiftAmp_detection_fixFreq,2020.1.2,MacIntel,60,,,,,,,,,,,,,,,,,,,,,,,,,,,,,,2,5.6931,,0,0,9,9,58,1,stimuli/stim_20210919_power2amp/equal_lnn_AM2Hz_s45_17.m4a,,,,,,,,,,,,
,,,,,41843,2021-10-02_19h13.04.771,judgeSpeechMusic_20210919_logNormShiftAmp_detection_fixFreq,2020.1.2,MacIntel,60,,,,,,,,,,,,,,,,,,,,,,,,,,,,,,2,6.0041,,0,0,10,10,65,1,stimuli/stim_20210919_power2amp/equal_lnn_AM2Hz_s55_22.m4a,,,,,,,,,,,,
,,,,,41843,2021-10-02_19h13.04.771,judgeSpeechMusic_20210919_logNormShiftAmp_detection_fixFreq,2020.1.2,MacIntel,60,,,,,,,,,,,,,,,,,,,,,,,,,,,,,,1,5.7071,,0,0,11,11,52,1,stimuli/stim_20210919_power2amp/equal_lnn_AM2Hz_s45_48.m4a,,,,,,,,,,,,
,,,,,41843,2021-10-02_19h13.04.771,judgeSpeechMusic_20210919_logNormShiftAmp_detection_fixFreq,2020.1.2,MacIntel,60,,,,,,,,,,,,,,,,,,,,,,,,,,,,,,2,5.8215,,0,0,12,12,15,1,stimuli/stim_20210919_power2amp/equal_lnn_AM2Hz_s25_4.m4a,,,,,,,,,,,,
,,,,,41843,2021-10-02_19h13.04.771,judgeSpeechMusic_20210919_logNormShiftAmp_detection_fixFreq,2020.1.2,MacIntel,60,,,,,,,,,,,,,,,,,,,,,,,,,,,,,,2,5.8372,,0,0,13,13,9,1,stimuli/stim_20210919_power2amp/equal_lnn_AM2Hz_s15_45.m4a,,,,,,,,,,,,
,,,,,41843,2021-10-02_19h13.04.771,judgeSpeechMusic_20210919_logNormShiftAmp_detection_fixFreq,2020.1.2,MacIntel,60,,,,,,,,,,,,,,,,,,,,,,,,,,,,,,2,6.5116,,0,0,14,14,20,1,stimuli/stim_20210919_power2amp/equal_lnn_AM2Hz_s25_24.m4a,,,,,,,,,,,,
,,,,,41843,2021-10-02_19h13.04.771,judgeSpeechMusic_20210919_logNormShiftAmp_detection_fixFreq,2020.1.2,MacIntel,60,,,,,,,,,,,,,,,,,,,,,,,,,,,,,,1,5.7877,,0,0,15,15,8,1,stimuli/stim_20210919_power2amp/equal_lnn_AM2Hz_s15_47.m4a,,,,,,,,,,,,
,,,,,41843,2021-10-02_19h13.04.771,judgeSpeechMusic_20210919_logNormShiftAmp_detection_fixFreq,2020.1.2,MacIntel,60,,,,,,,,,,,,,,,,,,,,,,,,,,,,,,1,5.6587,,0,0,16,16,69,1,stimuli/stim_20210919_power2amp/equal_lnn_AM2Hz_s55_41.m4a,,,,,,,,,,,,
,,,,,41843,2021-10-02_19h13.04.771,judgeSpeechMusic_20210919_logNormShiftAmp_detection_fixFreq,2020.1.2,MacIntel,60,,,,,,,,,,,,,,,,,,,,,,,,,,,,,,1,7.0042,,0,0,17,17,6,1,stimuli/stim_20210919_power2amp/equal_lnn_AM2Hz_s15_16.m4a,,,,,,,,,,,,
,,,,,41843,2021-10-02_19h13.04.771,judgeSpeechMusic_20210919_logNormShiftAmp_detection_fixFreq,2020.1.2,MacIntel,60,,,,,,,,,,,,,,,,,,,,,,,,,,,,,,2,5.9894,,0,0,18,18,67,1,stimuli/stim_20210919_power2amp/equal_lnn_AM2Hz_s55_3.m4a,,,,,,,,,,,,
,,,,,41843,2021-10-02_19h13.04.771,judgeSpeechMusic_20210919_logNormShiftAmp_detection_fixFreq,2020.1.2,MacIntel,60,,,,,,,,,,,,,,,,,,,,,,,,,,,,,,2,5.7543,3,1,0,19,19,17,1,stimuli/stim_20210919_power2amp/equal_lnn_AM2Hz_s25_39.m4a,0.977,,,,,,,,,,,
,,,,,41843,2021-10-02_19h13.04.771,judgeSpeechMusic_20210919_logNormShiftAmp_detection_fixFreq,2020.1.2,MacIntel,60,,,,,,,,,,,,,,,,,,,,,,,,,,,,,,1,5.7737,,0,0,20,20,55,1,stimuli/stim_20210919_power2amp/equal_lnn_AM2Hz_s45_1.m4a,,,,,,,,,,,,
,,,,,41843,2021-10-02_19h13.04.771,judgeSpeechMusic_20210919_logNormShiftAmp_detection_fixFreq,2020.1.2,MacIntel,60,,,,,,,,,,,,,,,,,,,,,,,,,,,,,,2,5.7885,,0,0,21,21,14,1,stimuli/stim_20210919_power2amp/equal_lnn_AM2Hz_s15_30.m4a,,,,,,,,,,,,
,,,,,41843,2021-10-02_19h13.04.771,judgeSpeechMusic_20210919_logNormShiftAmp_detection_fixFreq,2020.1.2,MacIntel,60,,,,,,,,,,,,,,,,,,,,,,,,,,,,,,1,6.1053,,0,0,22,22,16,1,stimuli/stim_20210919_power2amp/equal_lnn_AM2Hz_s25_35.m4a,,,,,,,,,,,,
,,,,,41843,2021-10-02_19h13.04.771,judgeSpeechMusic_20210919_logNormShiftAmp_detection_fixFreq,2020.1.2,MacIntel,60,,,,,,,,,,,,,,,,,,,,,,,,,,,,,,1,5.8118,,0,0,23,23,18,1,stimuli/stim_20210919_power2amp/equal_lnn_AM2Hz_s25_25.m4a,,,,,,,,,,,,
,,,,,41843,2021-10-02_19h13.04.771,judgeSpeechMusic_20210919_logNormShiftAmp_detection_fixFreq,2020.1.2,MacIntel,60,,,,,,,,,,,,,,,,,,,,,,,,,,,,,,2,5.874,,0,0,24,24,68,1,stimuli/stim_20210919_power2amp/equal_lnn_AM2Hz_s55_9.m4a,,,,,,,,,,,,
,,,,,41843,2021-10-02_19h13.04.771,judgeSpeechMusic_20210919_logNormShiftAmp_detection_fixFreq,2020.1.2,MacIntel,60,,,,,,,,,,,,,,,,,,,,,,,,,,,,,,2,5.4893,,0,0,25,25,22,1,stimuli/stim_20210919_power2amp/equal_lnn_AM2Hz_s25_12.m4a,,,,,,,,,,,,
,,,,,41843,2021-10-02_19h13.04.771,judgeSpeechMusic_20210919_logNormShiftAmp_detection_fixFreq,2020.1.2,MacIntel,60,,,,,,,,,,,,,,,,,,,,,,,,,,,,,,2,5.8083,,0,0,26,26,41,1,stimuli/stim_20210919_power2amp/equal_lnn_AM2Hz_s35_17.m4a,,,,,,,,,,,,
,,,,,41843,2021-10-02_19h13.04.771,judgeSpeechMusic_20210919_logNormShiftAmp_detection_fixFreq,2020.1.2,MacIntel,60,,,,,,,,,,,,,,,,,,,,,,,,,,,,,,1,5.8292,,0,0,27,27,50,1,stimuli/stim_20210919_power2amp/equal_lnn_AM2Hz_s45_14.m4a,,,,,,,,,,,,
,,,,,41843,2021-10-02_19h13.04.771,judgeSpeechMusic_20210919_logNormShiftAmp_detection_fixFreq,2020.1.2,MacIntel,60,,,,,,,,,,,,,,,,,,,,,,,,,,,,,,1,6.6579,,0,0,28,28,0,1,stimuli/stim_20210919_power2amp/equal_lnn_AM2Hz_s15_5.m4a,,,,,,,,,,,,
,,,,,41843,2021-10-02_19h13.04.771,judgeSpeechMusic_20210919_logNormShiftAmp_detection_fixFreq,2020.1.2,MacIntel,60,,,,,,,,,,,,,,,,,,,,,,,,,,,,,,2,5.9056,,0,0,29,29,59,1,stimuli/stim_20210919_power2amp/equal_lnn_AM2Hz_s45_20.m4a,,,,,,,,,,,,
,,,,,41843,2021-10-02_19h13.04.771,judgeSpeechMusic_20210919_logNormShiftAmp_detection_fixFreq,2020.1.2,MacIntel,60,,,,,,,,,,,,,,,,,,,,,,,,,,,,,,1,6.6919,,0,0,30,30,3,1,stimuli/stim_20210919_power2amp/equal_lnn_AM2Hz_s15_41.m4a,,,,,,,,,,,,
,,,,,41843,2021-10-02_19h13.04.771,judgeSpeechMusic_20210919_logNormShiftAmp_detection_fixFreq,2020.1.2,MacIntel,60,,,,,,,,,,,,,,,,,,,,,,,,,,,,,,2,6.3598,,0,0,31,31,12,1,stimuli/stim_20210919_power2amp/equal_lnn_AM2Hz_s15_28.m4a,,,,,,,,,,,,
,,,,,41843,2021-10-02_19h13.04.771,judgeSpeechMusic_20210919_logNormShiftAmp_detection_fixFreq,2020.1.2,MacIntel,60,,,,,,,,,,,,,,,,,,,,,,,,,,,,,,2,5.7383,,0,0,32,32,1,1,stimuli/stim_20210919_power2amp/equal_lnn_AM2Hz_s15_48.m4a,,,,,,,,,,,,
,,,,,41843,2021-10-02_19h13.04.771,judgeSpeechMusic_20210919_logNormShiftAmp_detection_fixFreq,2020.1.2,MacIntel,60,,,,,,,,,,,,,,,,,,,,,,,,,,,,,,1,6.5062,,0,0,33,33,30,1,stimuli/stim_20210919_power2amp/equal_lnn_AM2Hz_s35_6.m4a,,,,,,,,,,,,
,,,,,41843,2021-10-02_19h13.04.771,judgeSpeechMusic_20210919_logNormShiftAmp_detection_fixFreq,2020.1.2,MacIntel,60,,,,,,,,,,,,,,,,,,,,,,,,,,,,,,1,5.7882,,0,0,34,34,19,1,stimuli/stim_20210919_power2amp/equal_lnn_AM2Hz_s25_1.m4a,,,,,,,,,,,,
,,,,,41843,2021-10-02_19h13.04.771,judgeSpeechMusic_20210919_logNormShiftAmp_detection_fixFreq,2020.1.2,MacIntel,60,,,,,,,,,,,,,,,,,,,,,,,,,,,,,,1,5.86,,0,0,35,35,66,1,stimuli/stim_20210919_power2amp/equal_lnn_AM2Hz_s55_24.m4a,,,,,,,,,,,,
,,,,,41843,2021-10-02_19h13.04.771,judgeSpeechMusic_20210919_logNormShiftAmp_detection_fixFreq,2020.1.2,MacIntel,60,,,,,,,,,,,,,,,,,,,,,,,,,,,,,,2,5.9045,,0,0,36,36,54,1,stimuli/stim_20210919_power2amp/equal_lnn_AM2Hz_s45_8.m4a,,,,,,,,,,,,
,,,,,41843,2021-10-02_19h13.04.771,judgeSpeechMusic_20210919_logNormShiftAmp_detection_fixFreq,2020.1.2,MacIntel,60,,,,,,,,,,,,,,,,,,,,,,,,,,,,,,2,6.5083,1,1,0,37,37,63,1,stimuli/stim_20210919_power2amp/equal_lnn_AM2Hz_s55_49.m4a,1.1265,,,,,,,,,,,
,,,,,41843,2021-10-02_19h13.04.771,judgeSpeechMusic_20210919_logNormShiftAmp_detection_fixFreq,2020.1.2,MacIntel,60,,,,,,,,,,,,,,,,,,,,,,,,,,,,,,1,6.0766,,0,0,38,38,57,1,stimuli/stim_20210919_power2amp/equal_lnn_AM2Hz_s45_2.m4a,,,,,,,,,,,,
,,,,,41843,2021-10-02_19h13.04.771,judgeSpeechMusic_20210919_logNormShiftAmp_detection_fixFreq,2020.1.2,MacIntel,60,,,,,,,,,,,,,,,,,,,,,,,,,,,,,,2,6.1095,,0,0,39,39,21,1,stimuli/stim_20210919_power2amp/equal_lnn_AM2Hz_s25_20.m4a,,,,,,,,,,,,
,,,,,41843,2021-10-02_19h13.04.771,judgeSpeechMusic_20210919_logNormShiftAmp_detection_fixFreq,2020.1.2,MacIntel,60,,,,,,,,,,,,,,,,,,,,,,,,,,,,,,2,5.8872,,0,0,40,40,40,1,stimuli/stim_20210919_power2amp/equal_lnn_AM2Hz_s35_15.m4a,,,,,,,,,,,,
,,,,,41843,2021-10-02_19h13.04.771,judgeSpeechMusic_20210919_logNormShiftAmp_detection_fixFreq,2020.1.2,MacIntel,60,,,,,,,,,,,,,,,,,,,,,,,,,,,,,,1,7.2594,,0,0,41,41,60,1,stimuli/stim_20210919_power2amp/equal_lnn_AM2Hz_s55_44.m4a,,,,,,,,,,,,
,,,,,41843,2021-10-02_19h13.04.771,judgeSpeechMusic_20210919_logNormShiftAmp_detection_fixFreq,2020.1.2,MacIntel,60,,,,,,,,,,,,,,,,,,,,,,,,,,,,,,2,6.3383,,0,0,42,42,64,1,stimuli/stim_20210919_power2amp/equal_lnn_AM2Hz_s55_43.m4a,,,,,,,,,,,,
,,,,,41843,2021-10-02_19h13.04.771,judgeSpeechMusic_20210919_logNormShiftAmp_detection_fixFreq,2020.1.2,MacIntel,60,,,,,,,,,,,,,,,,,,,,,,,,,,,,,,1,5.7767,,0,0,43,43,62,1,stimuli/stim_20210919_power2amp/equal_lnn_AM2Hz_s55_30.m4a,,,,,,,,,,,,
,,,,,41843,2021-10-02_19h13.04.771,judgeSpeechMusic_20210919_logNormShiftAmp_detection_fixFreq,2020.1.2,MacIntel,60,,,,,,,,,,,,,,,,,,,,,,,,,,,,,,2,6.0534,,0,0,44,44,48,1,stimuli/stim_20210919_power2amp/equal_lnn_AM2Hz_s45_15.m4a,,,,,,,,,,,,
,,,,,41843,2021-10-02_19h13.04.771,judgeSpeechMusic_20210919_logNormShiftAmp_detection_fixFreq,2020.1.2,MacIntel,60,,,,,,,,,,,,,,,,,,,,,,,,,,,,,,1,6.4057,,0,0,45,45,43,1,stimuli/stim_20210919_power2amp/equal_lnn_AM2Hz_s35_26.m4a,,,,,,,,,,,,
,,,,,41843,2021-10-02_19h13.04.771,judgeSpeechMusic_20210919_logNormShiftAmp_detection_fixFreq,2020.1.2,MacIntel,60,,,,,,,,,,,,,,,,,,,,,,,,,,,,,,2,6.8723,,0,0,46,46,39,1,stimuli/stim_20210919_power2amp/equal_lnn_AM2Hz_s35_42.m4a,,,,,,,,,,,,
,,,,,41843,2021-10-02_19h13.04.771,judgeSpeechMusic_20210919_logNormShiftAmp_detection_fixFreq,2020.1.2,MacIntel,60,,,,,,,,,,,,,,,,,,,,,,,,,,,,,,2,8.0111,,0,0,47,47,49,1,stimuli/stim_20210919_power2amp/equal_lnn_AM2Hz_s45_40.m4a,,,,,,,,,,,,
,,,,,41843,2021-10-02_19h13.04.771,judgeSpeechMusic_20210919_logNormShiftAmp_detection_fixFreq,2020.1.2,MacIntel,60,,,,,,,,,,,,,,,,,,,,,,,,,,,,,,1,7.894,,0,0,48,48,25,1,stimuli/stim_20210919_power2amp/equal_lnn_AM2Hz_s25_2.m4a,,,,,,,,,,,,
,,,,,41843,2021-10-02_19h13.04.771,judgeSpeechMusic_20210919_logNormShiftAmp_detection_fixFreq,2020.1.2,MacIntel,60,,,,,,,,,,,,,,,,,,,,,,,,,,,,,,2,6.7794,,0,0,49,49,35,1,stimuli/stim_20210919_power2amp/equal_lnn_AM2Hz_s35_16.m4a,,,,,,,,,,,,
,,,,,41843,2021-10-02_19h13.04.771,judgeSpeechMusic_20210919_logNormShiftAmp_detection_fixFreq,2020.1.2,MacIntel,60,,,,,,,,,,,,,,,,,,,,,,,,,,,,,,2,6.6614,,0,0,50,50,38,1,stimuli/stim_20210919_power2amp/equal_lnn_AM2Hz_s35_43.m4a,,,,,,,,,,,,
,,,,,41843,2021-10-02_19h13.04.771,judgeSpeechMusic_20210919_logNormShiftAmp_detection_fixFreq,2020.1.2,MacIntel,60,,,,,,,,,,,,,,,,,,,,,,,,,,,,,,1,8.1057,,0,0,51,51,26,1,stimuli/stim_20210919_power2amp/equal_lnn_AM2Hz_s25_42.m4a,,,,,,,,,,,,
,,,,,41843,2021-10-02_19h13.04.771,judgeSpeechMusic_20210919_logNormShiftAmp_detection_fixFreq,2020.1.2,MacIntel,60,,,,,,,,,,,,,,,,,,,,,,,,,,,,,,1,6.2449,,0,0,52,52,33,1,stimuli/stim_20210919_power2amp/equal_lnn_AM2Hz_s35_34.m4a,,,,,,,,,,,,
,,,,,41843,2021-10-02_19h13.04.771,judgeSpeechMusic_20210919_logNormShiftAmp_detection_fixFreq,2020.1.2,MacIntel,60,,,,,,,,,,,,,,,,,,,,,,,,,,,,,,2,7.3056,,0,0,53,53,31,1,stimuli/stim_20210919_power2amp/equal_lnn_AM2Hz_s35_45.m4a,,,,,,,,,,,,
,,,,,41843,2021-10-02_19h13.04.771,judgeSpeechMusic_20210919_logNormShiftAmp_detection_fixFreq,2020.1.2,MacIntel,60,,,,,,,,,,,,,,,,,,,,,,,,,,,,,,1,8.6773,,0,0,54,54,10,1,stimuli/stim_20210919_power2amp/equal_lnn_AM2Hz_s15_15.m4a,,,,,,,,,,,,
,,,,,41843,2021-10-02_19h13.04.771,judgeSpeechMusic_20210919_logNormShiftAmp_detection_fixFreq,2020.1.2,MacIntel,60,,,,,,,,,,,,,,,,,,,,,,,,,,,,,,1,6.4132,,0,0,55,55,7,1,stimuli/stim_20210919_power2amp/equal_lnn_AM2Hz_s15_21.m4a,,,,,,,,,,,,
,,,,,41843,2021-10-02_19h13.04.771,judgeSpeechMusic_20210919_logNormShiftAmp_detection_fixFreq,2020.1.2,MacIntel,60,,,,,,,,,,,,,,,,,,,,,,,,,,,,,,2,6.5102,,0,0,56,56,36,1,stimuli/stim_20210919_power2amp/equal_lnn_AM2Hz_s35_25.m4a,,,,,,,,,,,,
,,,,,41843,2021-10-02_19h13.04.771,judgeSpeechMusic_20210919_logNormShiftAmp_detection_fixFreq,2020.1.2,MacIntel,60,,,,,,,,,,,,,,,,,,,,,,,,,,,,,,1,5.9417,3,1,0,57,57,13,1,stimuli/stim_20210919_power2amp/equal_lnn_AM2Hz_s15_27.m4a,1.5736,,,,,,,,,,,
,,,,,41843,2021-10-02_19h13.04.771,judgeSpeechMusic_20210919_logNormShiftAmp_detection_fixFreq,2020.1.2,MacIntel,60,,,,,,,,,,,,,,,,,,,,,,,,,,,,,,2,5.9437,,0,0,58,58,42,1,stimuli/stim_20210919_power2amp/equal_lnn_AM2Hz_s35_2.m4a,,,,,,,,,,,,
,,,,,41843,2021-10-02_19h13.04.771,judgeSpeechMusic_20210919_logNormShiftAmp_detection_fixFreq,2020.1.2,MacIntel,60,,,,,,,,,,,,,,,,,,,,,,,,,,,,,,1,5.8548,,0,0,59,59,71,1,stimuli/stim_20210919_power2amp/equal_lnn_AM2Hz_s55_19.m4a,,,,,,,,,,,,
,,,,,41843,2021-10-02_19h13.04.771,judgeSpeechMusic_20210919_logNormShiftAmp_detection_fixFreq,2020.1.2,MacIntel,60,,,,,,,,,,,,,,,,,,,,,,,,,,,,,,1,6.6764,,0,0,60,60,24,1,stimuli/stim_20210919_power2amp/equal_lnn_AM2Hz_s25_33.m4a,,,,,,,,,,,,
,,,,,41843,2021-10-02_19h13.04.771,judgeSpeechMusic_20210919_logNormShiftAmp_detection_fixFreq,2020.1.2,MacIntel,60,,,,,,,,,,,,,,,,,,,,,,,,,,,,,,1,5.7124,,0,0,61,61,5,1,stimuli/stim_20210919_power2amp/equal_lnn_AM2Hz_s15_3.m4a,,,,,,,,,,,,
,,,,,41843,2021-10-02_19h13.04.771,judgeSpeechMusic_20210919_logNormShiftAmp_detection_fixFreq,2020.1.2,MacIntel,60,,,,,,,,,,,,,,,,,,,,,,,,,,,,,,2,6.2703,,0,0,62,62,45,1,stimuli/stim_20210919_power2amp/equal_lnn_AM2Hz_s45_30.m4a,,,,,,,,,,,,
,,,,,41843,2021-10-02_19h13.04.771,judgeSpeechMusic_20210919_logNormShiftAmp_detection_fixFreq,2020.1.2,MacIntel,60,,,,,,,,,,,,,,,,,,,,,,,,,,,,,,1,5.871,,0,0,63,63,23,1,stimuli/stim_20210919_power2amp/equal_lnn_AM2Hz_s25_16.m4a,,,,,,,,,,,,
,,,,,41843,2021-10-02_19h13.04.771,judgeSpeechMusic_20210919_logNormShiftAmp_detection_fixFreq,2020.1.2,MacIntel,60,,,,,,,,,,,,,,,,,,,,,,,,,,,,,,1,5.6085,,0,0,64,64,47,1,stimuli/stim_20210919_power2amp/equal_lnn_AM2Hz_s45_11.m4a,,,,,,,,,,,,
,,,,,41843,2021-10-02_19h13.04.771,judgeSpeechMusic_20210919_logNormShiftAmp_detection_fixFreq,2020.1.2,MacIntel,60,,,,,,,,,,,,,,,,,,,,,,,,,,,,,,2,6.022,,0,0,65,65,4,1,stimuli/stim_20210919_power2amp/equal_lnn_AM2Hz_s15_2.m4a,,,,,,,,,,,,
,,,,,41843,2021-10-02_19h13.04.771,judgeSpeechMusic_20210919_logNormShiftAmp_detection_fixFreq,2020.1.2,MacIntel,60,,,,,,,,,,,,,,,,,,,,,,,,,,,,,,2,5.7044,,0,0,66,66,2,1,stimuli/stim_20210919_power2amp/equal_lnn_AM2Hz_s15_13.m4a,,,,,,,,,,,,
,,,,,41843,2021-10-02_19h13.04.771,judgeSpeechMusic_20210919_logNormShiftAmp_detection_fixFreq,2020.1.2,MacIntel,60,,,,,,,,,,,,,,,,,,,,,,,,,,,,,,2,5.6778,,0,0,67,67,29,1,stimuli/stim_20210919_power2amp/equal_lnn_AM2Hz_s25_43.m4a,,,,,,,,,,,,
,,,,,41843,2021-10-02_19h13.04.771,judgeSpeechMusic_20210919_logNormShiftAmp_detection_fixFreq,2020.1.2,MacIntel,60,,,,,,,,,,,,,,,,,,,,,,,,,,,,,,2,5.9406,,0,0,68,68,11,1,stimuli/stim_20210919_power2amp/equal_lnn_AM2Hz_s15_50.m4a,,,,,,,,,,,,
,,,,,41843,2021-10-02_19h13.04.771,judgeSpeechMusic_20210919_logNormShiftAmp_detection_fixFreq,2020.1.2,MacIntel,60,,,,,,,,,,,,,,,,,,,,,,,,,,,,,,1,6.022,,0,0,69,69,56,1,stimuli/stim_20210919_power2amp/equal_lnn_AM2Hz_s45_6.m4a,,,,,,,,,,,,
,,,,,41843,2021-10-02_19h13.04.771,judgeSpeechMusic_20210919_logNormShiftAmp_detection_fixFreq,2020.1.2,MacIntel,60,,,,,,,,,,,,,,,,,,,,,,,,,,,,,,1,5.9415,,0,0,70,70,73,1,stimuli/stim_20210919_power2amp/equal_lnn_AM2Hz_s55_6.m4a,,,,,,,,,,,,
,,,,,41843,2021-10-02_19h13.04.771,judgeSpeechMusic_20210919_logNormShiftAmp_detection_fixFreq,2020.1.2,MacIntel,60,,,,,,,,,,,,,,,,,,,,,,,,,,,,,,1,5.7383,,0,0,71,71,44,1,stimuli/stim_20210919_power2amp/equal_lnn_AM2Hz_s35_32.m4a,,,,,,,,,,,,
,,,,,41843,2021-10-02_19h13.04.771,judgeSpeechMusic_20210919_logNormShiftAmp_detection_fixFreq,2020.1.2,MacIntel,60,,,,,,,,,,,,,,,,,,,,,,,,,,,,,,1,5.8589,,0,0,72,72,37,1,stimuli/stim_20210919_power2amp/equal_lnn_AM2Hz_s35_12.m4a,,,,,,,,,,,,
,,,,,41843,2021-10-02_19h13.04.771,judgeSpeechMusic_20210919_logNormShiftAmp_detection_fixFreq,2020.1.2,MacIntel,60,,,,,,,,,,,,,,,,,,,,,,,,,,,,,,1,5.7245,,0,0,73,73,53,1,stimuli/stim_20210919_power2amp/equal_lnn_AM2Hz_s45_39.m4a,,,,,,,,,,,,
,,,,,41843,2021-10-02_19h13.04.771,judgeSpeechMusic_20210919_logNormShiftAmp_detection_fixFreq,2020.1.2,MacIntel,60,,,,,,,,,,,,,,,,,,,,,,,,,,,,,,2,5.989,,0,0,74,74,32,1,stimuli/stim_20210919_power2amp/equal_lnn_AM2Hz_s35_38.m4a,,,,,,,,,,,,
,,,,,41843,2021-10-02_19h13.04.771,judgeSpeechMusic_20210919_logNormShiftAmp_detection_fixFreq,2020.1.2,MacIntel,60,,,,,,,,,,,,,,,,,,,,,,,,,,,,,,,,,,,,,,,,,space,0.7479,0,1,1,0,1,MUSIC,stimuli/MUSIC.jpg,,
,,,,,41843,2021-10-02_19h13.04.771,judgeSpeechMusic_20210919_logNormShiftAmp_detection_fixFreq,2020.1.2,MacIntel,60,,,,,,,,,,,,,,,,,,0,0,0,0,3,1,stimuli/stim_20210919_power2amp/equal_lnn_AM_training2Hz_s50.m4a,,,,,,,,,,,,,,,,,,,,,,,,,,,
,,,,,41843,2021-10-02_19h13.04.771,judgeSpeechMusic_20210919_logNormShiftAmp_detection_fixFreq,2020.1.2,MacIntel,60,,,,,,,,,,,,,,,,,,,,,,,,,,space,2.5444,space,3.919,2,6.8577,,0,0,0,0,20,1,stimuli/stim_20210919_power2amp/equal_lnn_AM2Hz_s25_24.m4a,,,,,,,,,,,,
,,,,,41843,2021-10-02_19h13.04.771,judgeSpeechMusic_20210919_logNormShiftAmp_detection_fixFreq,2020.1.2,MacIntel,60,,,,,,,,,,,,,,,,,,,,,,,,,,,,,,1,6.7258,,0,0,1,1,24,1,stimuli/stim_20210919_power2amp/equal_lnn_AM2Hz_s25_33.m4a,,,,,,,,,,,,
,,,,,41843,2021-10-02_19h13.04.771,judgeSpeechMusic_20210919_logNormShiftAmp_detection_fixFreq,2020.1.2,MacIntel,60,,,,,,,,,,,,,,,,,,,,,,,,,,,,,,2,6.9038,,0,0,2,2,40,1,stimuli/stim_20210919_power2amp/equal_lnn_AM2Hz_s35_15.m4a,,,,,,,,,,,,
,,,,,41843,2021-10-02_19h13.04.771,judgeSpeechMusic_20210919_logNormShiftAmp_detection_fixFreq,2020.1.2,MacIntel,60,,,,,,,,,,,,,,,,,,,,,,,,,,,,,,2,8.0207,,0,0,3,3,3,1,stimuli/stim_20210919_power2amp/equal_lnn_AM2Hz_s15_41.m4a,,,,,,,,,,,,
,,,,,41843,2021-10-02_19h13.04.771,judgeSpeechMusic_20210919_logNormShiftAmp_detection_fixFreq,2020.1.2,MacIntel,60,,,,,,,,,,,,,,,,,,,,,,,,,,,,,,1,8.2379,,0,0,4,4,58,1,stimuli/stim_20210919_power2amp/equal_lnn_AM2Hz_s45_17.m4a,,,,,,,,,,,,
,,,,,41843,2021-10-02_19h13.04.771,judgeSpeechMusic_20210919_logNormShiftAmp_detection_fixFreq,2020.1.2,MacIntel,60,,,,,,,,,,,,,,,,,,,,,,,,,,,,,,1,7.9706,,0,0,5,5,10,1,stimuli/stim_20210919_power2amp/equal_lnn_AM2Hz_s15_15.m4a,,,,,,,,,,,,
,,,,,41843,2021-10-02_19h13.04.771,judgeSpeechMusic_20210919_logNormShiftAmp_detection_fixFreq,2020.1.2,MacIntel,60,,,,,,,,,,,,,,,,,,,,,,,,,,,,,,2,6.8724,,0,0,6,6,22,1,stimuli/stim_20210919_power2amp/equal_lnn_AM2Hz_s25_12.m4a,,,,,,,,,,,,
,,,,,41843,2021-10-02_19h13.04.771,judgeSpeechMusic_20210919_logNormShiftAmp_detection_fixFreq,2020.1.2,MacIntel,60,,,,,,,,,,,,,,,,,,,,,,,,,,,,,,1,10.1394,,0,0,7,7,6,1,stimuli/stim_20210919_power2amp/equal_lnn_AM2Hz_s15_16.m4a,,,,,,,,,,,,
,,,,,41843,2021-10-02_19h13.04.771,judgeSpeechMusic_20210919_logNormShiftAmp_detection_fixFreq,2020.1.2,MacIntel,60,,,,,,,,,,,,,,,,,,,,,,,,,,,,,,1,6.4216,,0,0,8,8,49,1,stimuli/stim_20210919_power2amp/equal_lnn_AM2Hz_s45_40.m4a,,,,,,,,,,,,
,,,,,41843,2021-10-02_19h13.04.771,judgeSpeechMusic_20210919_logNormShiftAmp_detection_fixFreq,2020.1.2,MacIntel,60,,,,,,,,,,,,,,,,,,,,,,,,,,,,,,2,6.554,,0,0,9,9,34,1,stimuli/stim_20210919_power2amp/equal_lnn_AM2Hz_s35_8.m4a,,,,,,,,,,,,
,,,,,41843,2021-10-02_19h13.04.771,judgeSpeechMusic_20210919_logNormShiftAmp_detection_fixFreq,2020.1.2,MacIntel,60,,,,,,,,,,,,,,,,,,,,,,,,,,,,,,1,7.4735,,0,0,10,10,60,1,stimuli/stim_20210919_power2amp/equal_lnn_AM2Hz_s55_44.m4a,,,,,,,,,,,,
,,,,,41843,2021-10-02_19h13.04.771,judgeSpeechMusic_20210919_logNormShiftAmp_detection_fixFreq,2020.1.2,MacIntel,60,,,,,,,,,,,,,,,,,,,,,,,,,,,,,,2,6.3611,,0,0,11,11,61,1,stimuli/stim_20210919_power2amp/equal_lnn_AM2Hz_s55_31.m4a,,,,,,,,,,,,
,,,,,41843,2021-10-02_19h13.04.771,judgeSpeechMusic_20210919_logNormShiftAmp_detection_fixFreq,2020.1.2,MacIntel,60,,,,,,,,,,,,,,,,,,,,,,,,,,,,,,2,6.5606,,0,0,12,12,45,1,stimuli/stim_20210919_power2amp/equal_lnn_AM2Hz_s45_30.m4a,,,,,,,,,,,,
,,,,,41843,2021-10-02_19h13.04.771,judgeSpeechMusic_20210919_logNormShiftAmp_detection_fixFreq,2020.1.2,MacIntel,60,,,,,,,,,,,,,,,,,,,,,,,,,,,,,,1,7.7556,,0,0,13,13,33,1,stimuli/stim_20210919_power2amp/equal_lnn_AM2Hz_s35_34.m4a,,,,,,,,,,,,
,,,,,41843,2021-10-02_19h13.04.771,judgeSpeechMusic_20210919_logNormShiftAmp_detection_fixFreq,2020.1.2,MacIntel,60,,,,,,,,,,,,,,,,,,,,,,,,,,,,,,1,7.6446,,0,0,14,14,5,1,stimuli/stim_20210919_power2amp/equal_lnn_AM2Hz_s15_3.m4a,,,,,,,,,,,,
,,,,,41843,2021-10-02_19h13.04.771,judgeSpeechMusic_20210919_logNormShiftAmp_detection_fixFreq,2020.1.2,MacIntel,60,,,,,,,,,,,,,,,,,,,,,,,,,,,,,,2,8.5398,,0,0,15,15,41,1,stimuli/stim_20210919_power2amp/equal_lnn_AM2Hz_s35_17.m4a,,,,,,,,,,,,
,,,,,41843,2021-10-02_19h13.04.771,judgeSpeechMusic_20210919_logNormShiftAmp_detection_fixFreq,2020.1.2,MacIntel,60,,,,,,,,,,,,,,,,,,,,,,,,,,,,,,2,7.0573,,0,0,16,16,29,1,stimuli/stim_20210919_power2amp/equal_lnn_AM2Hz_s25_43.m4a,,,,,,,,,,,,
,,,,,41843,2021-10-02_19h13.04.771,judgeSpeechMusic_20210919_logNormShiftAmp_detection_fixFreq,2020.1.2,MacIntel,60,,,,,,,,,,,,,,,,,,,,,,,,,,,,,,1,6.9772,,0,0,17,17,53,1,stimuli/stim_20210919_power2amp/equal_lnn_AM2Hz_s45_39.m4a,,,,,,,,,,,,
,,,,,41843,2021-10-02_19h13.04.771,judgeSpeechMusic_20210919_logNormShiftAmp_detection_fixFreq,2020.1.2,MacIntel,60,,,,,,,,,,,,,,,,,,,,,,,,,,,,,,1,9.457,,0,0,18,18,66,1,stimuli/stim_20210919_power2amp/equal_lnn_AM2Hz_s55_24.m4a,,,,,,,,,,,,
,,,,,41843,2021-10-02_19h13.04.771,judgeSpeechMusic_20210919_logNormShiftAmp_detection_fixFreq,2020.1.2,MacIntel,60,,,,,,,,,,,,,,,,,,,,,,,,,,,,,,1,8.1961,2,1,0,19,19,39,1,stimuli/stim_20210919_power2amp/equal_lnn_AM2Hz_s35_42.m4a,0.9135,,,,,,,,,,,
,,,,,41843,2021-10-02_19h13.04.771,judgeSpeechMusic_20210919_logNormShiftAmp_detection_fixFreq,2020.1.2,MacIntel,60,,,,,,,,,,,,,,,,,,,,,,,,,,,,,,1,7.2213,,0,0,20,20,50,1,stimuli/stim_20210919_power2amp/equal_lnn_AM2Hz_s45_14.m4a,,,,,,,,,,,,
,,,,,41843,2021-10-02_19h13.04.771,judgeSpeechMusic_20210919_logNormShiftAmp_detection_fixFreq,2020.1.2,MacIntel,60,,,,,,,,,,,,,,,,,,,,,,,,,,,,,,2,7.6568,,0,0,21,21,47,1,stimuli/stim_20210919_power2amp/equal_lnn_AM2Hz_s45_11.m4a,,,,,,,,,,,,
,,,,,41843,2021-10-02_19h13.04.771,judgeSpeechMusic_20210919_logNormShiftAmp_detection_fixFreq,2020.1.2,MacIntel,60,,,,,,,,,,,,,,,,,,,,,,,,,,,,,,1,21.0927,,0,0,22,22,56,1,stimuli/stim_20210919_power2amp/equal_lnn_AM2Hz_s45_6.m4a,,,,,,,,,,,,
,,,,,41843,2021-10-02_19h13.04.771,judgeSpeechMusic_20210919_logNormShiftAmp_detection_fixFreq,2020.1.2,MacIntel,60,,,,,,,,,,,,,,,,,,,,,,,,,,,,,,2,5.9732,,0,0,23,23,63,1,stimuli/stim_20210919_power2amp/equal_lnn_AM2Hz_s55_49.m4a,,,,,,,,,,,,
,,,,,41843,2021-10-02_19h13.04.771,judgeSpeechMusic_20210919_logNormShiftAmp_detection_fixFreq,2020.1.2,MacIntel,60,,,,,,,,,,,,,,,,,,,,,,,,,,,,,,2,5.7247,,0,0,24,24,46,1,stimuli/stim_20210919_power2amp/equal_lnn_AM2Hz_s45_16.m4a,,,,,,,,,,,,
,,,,,41843,2021-10-02_19h13.04.771,judgeSpeechMusic_20210919_logNormShiftAmp_detection_fixFreq,2020.1.2,MacIntel,60,,,,,,,,,,,,,,,,,,,,,,,,,,,,,,1,8.6543,,0,0,25,25,62,1,stimuli/stim_20210919_power2amp/equal_lnn_AM2Hz_s55_30.m4a,,,,,,,,,,,,
,,,,,41843,2021-10-02_19h13.04.771,judgeSpeechMusic_20210919_logNormShiftAmp_detection_fixFreq,2020.1.2,MacIntel,60,,,,,,,,,,,,,,,,,,,,,,,,,,,,,,2,15.1451,,0,0,26,26,21,1,stimuli/stim_20210919_power2amp/equal_lnn_AM2Hz_s25_20.m4a,,,,,,,,,,,,
,,,,,41843,2021-10-02_19h13.04.771,judgeSpeechMusic_20210919_logNormShiftAmp_detection_fixFreq,2020.1.2,MacIntel,60,,,,,,,,,,,,,,,,,,,,,,,,,,,,,,2,6.5365,,0,0,27,27,54,1,stimuli/stim_20210919_power2amp/equal_lnn_AM2Hz_s45_8.m4a,,,,,,,,,,,,
,,,,,41843,2021-10-02_19h13.04.771,judgeSpeechMusic_20210919_logNormShiftAmp_detection_fixFreq,2020.1.2,MacIntel,60,,,,,,,,,,,,,,,,,,,,,,,,,,,,,,2,9.1943,,0,0,28,28,38,1,stimuli/stim_20210919_power2amp/equal_lnn_AM2Hz_s35_43.m4a,,,,,,,,,,,,
,,,,,41843,2021-10-02_19h13.04.771,judgeSpeechMusic_20210919_logNormShiftAmp_detection_fixFreq,2020.1.2,MacIntel,60,,,,,,,,,,,,,,,,,,,,,,,,,,,,,,1,10.0589,,0,0,29,29,9,1,stimuli/stim_20210919_power2amp/equal_lnn_AM2Hz_s15_45.m4a,,,,,,,,,,,,
,,,,,41843,2021-10-02_19h13.04.771,judgeSpeechMusic_20210919_logNormShiftAmp_detection_fixFreq,2020.1.2,MacIntel,60,,,,,,,,,,,,,,,,,,,,,,,,,,,,,,2,5.9907,,0,0,30,30,26,1,stimuli/stim_20210919_power2amp/equal_lnn_AM2Hz_s25_42.m4a,,,,,,,,,,,,
,,,,,41843,2021-10-02_19h13.04.771,judgeSpeechMusic_20210919_logNormShiftAmp_detection_fixFreq,2020.1.2,MacIntel,60,,,,,,,,,,,,,,,,,,,,,,,,,,,,,,1,6.0237,,0,0,31,31,4,1,stimuli/stim_20210919_power2amp/equal_lnn_AM2Hz_s15_2.m4a,,,,,,,,,,,,
,,,,,41843,2021-10-02_19h13.04.771,judgeSpeechMusic_20210919_logNormShiftAmp_detection_fixFreq,2020.1.2,MacIntel,60,,,,,,,,,,,,,,,,,,,,,,,,,,,,,,1,15.0701,,0,0,32,32,74,1,stimuli/stim_20210919_power2amp/equal_lnn_AM2Hz_s55_1.m4a,,,,,,,,,,,,
,,,,,41843,2021-10-02_19h13.04.771,judgeSpeechMusic_20210919_logNormShiftAmp_detection_fixFreq,2020.1.2,MacIntel,60,,,,,,,,,,,,,,,,,,,,,,,,,,,,,,2,5.7585,,0,0,33,33,70,1,stimuli/stim_20210919_power2amp/equal_lnn_AM2Hz_s55_21.m4a,,,,,,,,,,,,
,,,,,41843,2021-10-02_19h13.04.771,judgeSpeechMusic_20210919_logNormShiftAmp_detection_fixFreq,2020.1.2,MacIntel,60,,,,,,,,,,,,,,,,,,,,,,,,,,,,,,2,5.6922,,0,0,34,34,2,1,stimuli/stim_20210919_power2amp/equal_lnn_AM2Hz_s15_13.m4a,,,,,,,,,,,,
,,,,,41843,2021-10-02_19h13.04.771,judgeSpeechMusic_20210919_logNormShiftAmp_detection_fixFreq,2020.1.2,MacIntel,60,,,,,,,,,,,,,,,,,,,,,,,,,,,,,,2,5.6707,,0,0,35,35,11,1,stimuli/stim_20210919_power2amp/equal_lnn_AM2Hz_s15_50.m4a,,,,,,,,,,,,
,,,,,41843,2021-10-02_19h13.04.771,judgeSpeechMusic_20210919_logNormShiftAmp_detection_fixFreq,2020.1.2,MacIntel,60,,,,,,,,,,,,,,,,,,,,,,,,,,,,,,2,6.2889,,0,0,36,36,32,1,stimuli/stim_20210919_power2amp/equal_lnn_AM2Hz_s35_38.m4a,,,,,,,,,,,,
,,,,,41843,2021-10-02_19h13.04.771,judgeSpeechMusic_20210919_logNormShiftAmp_detection_fixFreq,2020.1.2,MacIntel,60,,,,,,,,,,,,,,,,,,,,,,,,,,,,,,1,13.5225,2,1,0,37,37,68,1,stimuli/stim_20210919_power2amp/equal_lnn_AM2Hz_s55_9.m4a,0.7769,,,,,,,,,,,
,,,,,41843,2021-10-02_19h13.04.771,judgeSpeechMusic_20210919_logNormShiftAmp_detection_fixFreq,2020.1.2,MacIntel,60,,,,,,,,,,,,,,,,,,,,,,,,,,,,,,1,5.9092,,0,0,38,38,13,1,stimuli/stim_20210919_power2amp/equal_lnn_AM2Hz_s15_27.m4a,,,,,,,,,,,,
,,,,,41843,2021-10-02_19h13.04.771,judgeSpeechMusic_20210919_logNormShiftAmp_detection_fixFreq,2020.1.2,MacIntel,60,,,,,,,,,,,,,,,,,,,,,,,,,,,,,,1,16.7746,,0,0,39,39,73,1,stimuli/stim_20210919_power2amp/equal_lnn_AM2Hz_s55_6.m4a,,,,,,,,,,,,
,,,,,41843,2021-10-02_19h13.04.771,judgeSpeechMusic_20210919_logNormShiftAmp_detection_fixFreq,2020.1.2,MacIntel,60,,,,,,,,,,,,,,,,,,,,,,,,,,,,,,2,5.9548,,0,0,40,40,19,1,stimuli/stim_20210919_power2amp/equal_lnn_AM2Hz_s25_1.m4a,,,,,,,,,,,,
,,,,,41843,2021-10-02_19h13.04.771,judgeSpeechMusic_20210919_logNormShiftAmp_detection_fixFreq,2020.1.2,MacIntel,60,,,,,,,,,,,,,,,,,,,,,,,,,,,,,,1,6.3756,,0,0,41,41,51,1,stimuli/stim_20210919_power2amp/equal_lnn_AM2Hz_s45_28.m4a,,,,,,,,,,,,
,,,,,41843,2021-10-02_19h13.04.771,judgeSpeechMusic_20210919_logNormShiftAmp_detection_fixFreq,2020.1.2,MacIntel,60,,,,,,,,,,,,,,,,,,,,,,,,,,,,,,2,7.5394,,0,0,42,42,28,1,stimuli/stim_20210919_power2amp/equal_lnn_AM2Hz_s25_18.m4a,,,,,,,,,,,,
,,,,,41843,2021-10-02_19h13.04.771,judgeSpeechMusic_20210919_logNormShiftAmp_detection_fixFreq,2020.1.2,MacIntel,60,,,,,,,,,,,,,,,,,,,,,,,,,,,,,,1,5.9422,,0,0,43,43,14,1,stimuli/stim_20210919_power2amp/equal_lnn_AM2Hz_s15_30.m4a,,,,,,,,,,,,
,,,,,41843,2021-10-02_19h13.04.771,judgeSpeechMusic_20210919_logNormShiftAmp_detection_fixFreq,2020.1.2,MacIntel,60,,,,,,,,,,,,,,,,,,,,,,,,,,,,,,2,5.9378,,0,0,44,44,44,1,stimuli/stim_20210919_power2amp/equal_lnn_AM2Hz_s35_32.m4a,,,,,,,,,,,,
,,,,,41843,2021-10-02_19h13.04.771,judgeSpeechMusic_20210919_logNormShiftAmp_detection_fixFreq,2020.1.2,MacIntel,60,,,,,,,,,,,,,,,,,,,,,,,,,,,,,,1,9.0246,,0,0,45,45,72,1,stimuli/stim_20210919_power2amp/equal_lnn_AM2Hz_s55_50.m4a,,,,,,,,,,,,
,,,,,41843,2021-10-02_19h13.04.771,judgeSpeechMusic_20210919_logNormShiftAmp_detection_fixFreq,2020.1.2,MacIntel,60,,,,,,,,,,,,,,,,,,,,,,,,,,,,,,1,6.5422,,0,0,46,46,1,1,stimuli/stim_20210919_power2amp/equal_lnn_AM2Hz_s15_48.m4a,,,,,,,,,,,,
,,,,,41843,2021-10-02_19h13.04.771,judgeSpeechMusic_20210919_logNormShiftAmp_detection_fixFreq,2020.1.2,MacIntel,60,,,,,,,,,,,,,,,,,,,,,,,,,,,,,,2,11.9724,,0,0,47,47,27,1,stimuli/stim_20210919_power2amp/equal_lnn_AM2Hz_s25_26.m4a,,,,,,,,,,,,
,,,,,41843,2021-10-02_19h13.04.771,judgeSpeechMusic_20210919_logNormShiftAmp_detection_fixFreq,2020.1.2,MacIntel,60,,,,,,,,,,,,,,,,,,,,,,,,,,,,,,1,6.472,,0,0,48,48,36,1,stimuli/stim_20210919_power2amp/equal_lnn_AM2Hz_s35_25.m4a,,,,,,,,,,,,
,,,,,41843,2021-10-02_19h13.04.771,judgeSpeechMusic_20210919_logNormShiftAmp_detection_fixFreq,2020.1.2,MacIntel,60,,,,,,,,,,,,,,,,,,,,,,,,,,,,,,1,6.2721,,0,0,49,49,25,1,stimuli/stim_20210919_power2amp/equal_lnn_AM2Hz_s25_2.m4a,,,,,,,,,,,,
,,,,,41843,2021-10-02_19h13.04.771,judgeSpeechMusic_20210919_logNormShiftAmp_detection_fixFreq,2020.1.2,MacIntel,60,,,,,,,,,,,,,,,,,,,,,,,,,,,,,,1,5.84,,0,0,50,50,37,1,stimuli/stim_20210919_power2amp/equal_lnn_AM2Hz_s35_12.m4a,,,,,,,,,,,,
,,,,,41843,2021-10-02_19h13.04.771,judgeSpeechMusic_20210919_logNormShiftAmp_detection_fixFreq,2020.1.2,MacIntel,60,,,,,,,,,,,,,,,,,,,,,,,,,,,,,,2,5.9584,,0,0,51,51,15,1,stimuli/stim_20210919_power2amp/equal_lnn_AM2Hz_s25_4.m4a,,,,,,,,,,,,
,,,,,41843,2021-10-02_19h13.04.771,judgeSpeechMusic_20210919_logNormShiftAmp_detection_fixFreq,2020.1.2,MacIntel,60,,,,,,,,,,,,,,,,,,,,,,,,,,,,,,1,6.5712,,0,0,52,52,57,1,stimuli/stim_20210919_power2amp/equal_lnn_AM2Hz_s45_2.m4a,,,,,,,,,,,,
,,,,,41843,2021-10-02_19h13.04.771,judgeSpeechMusic_20210919_logNormShiftAmp_detection_fixFreq,2020.1.2,MacIntel,60,,,,,,,,,,,,,,,,,,,,,,,,,,,,,,1,5.978,,0,0,53,53,23,1,stimuli/stim_20210919_power2amp/equal_lnn_AM2Hz_s25_16.m4a,,,,,,,,,,,,
,,,,,41843,2021-10-02_19h13.04.771,judgeSpeechMusic_20210919_logNormShiftAmp_detection_fixFreq,2020.1.2,MacIntel,60,,,,,,,,,,,,,,,,,,,,,,,,,,,,,,1,5.7094,,0,0,54,54,67,1,stimuli/stim_20210919_power2amp/equal_lnn_AM2Hz_s55_3.m4a,,,,,,,,,,,,
,,,,,41843,2021-10-02_19h13.04.771,judgeSpeechMusic_20210919_logNormShiftAmp_detection_fixFreq,2020.1.2,MacIntel,60,,,,,,,,,,,,,,,,,,,,,,,,,,,,,,2,5.9618,,0,0,55,55,59,1,stimuli/stim_20210919_power2amp/equal_lnn_AM2Hz_s45_20.m4a,,,,,,,,,,,,
,,,,,41843,2021-10-02_19h13.04.771,judgeSpeechMusic_20210919_logNormShiftAmp_detection_fixFreq,2020.1.2,MacIntel,60,,,,,,,,,,,,,,,,,,,,,,,,,,,,,,2,6.7265,,0,0,56,56,42,1,stimuli/stim_20210919_power2amp/equal_lnn_AM2Hz_s35_2.m4a,,,,,,,,,,,,
,,,,,41843,2021-10-02_19h13.04.771,judgeSpeechMusic_20210919_logNormShiftAmp_detection_fixFreq,2020.1.2,MacIntel,60,,,,,,,,,,,,,,,,,,,,,,,,,,,,,,2,6.789,1,1,0,57,57,71,1,stimuli/stim_20210919_power2amp/equal_lnn_AM2Hz_s55_19.m4a,1.5606,,,,,,,,,,,
,,,,,41843,2021-10-02_19h13.04.771,judgeSpeechMusic_20210919_logNormShiftAmp_detection_fixFreq,2020.1.2,MacIntel,60,,,,,,,,,,,,,,,,,,,,,,,,,,,,,,1,5.7576,,0,0,58,58,0,1,stimuli/stim_20210919_power2amp/equal_lnn_AM2Hz_s15_5.m4a,,,,,,,,,,,,
,,,,,41843,2021-10-02_19h13.04.771,judgeSpeechMusic_20210919_logNormShiftAmp_detection_fixFreq,2020.1.2,MacIntel,60,,,,,,,,,,,,,,,,,,,,,,,,,,,,,,2,8.1248,,0,0,59,59,48,1,stimuli/stim_20210919_power2amp/equal_lnn_AM2Hz_s45_15.m4a,,,,,,,,,,,,
,,,,,41843,2021-10-02_19h13.04.771,judgeSpeechMusic_20210919_logNormShiftAmp_detection_fixFreq,2020.1.2,MacIntel,60,,,,,,,,,,,,,,,,,,,,,,,,,,,,,,2,6.1053,,0,0,60,60,30,1,stimuli/stim_20210919_power2amp/equal_lnn_AM2Hz_s35_6.m4a,,,,,,,,,,,,
,,,,,41843,2021-10-02_19h13.04.771,judgeSpeechMusic_20210919_logNormShiftAmp_detection_fixFreq,2020.1.2,MacIntel,60,,,,,,,,,,,,,,,,,,,,,,,,,,,,,,1,5.7594,,0,0,61,61,16,1,stimuli/stim_20210919_power2amp/equal_lnn_AM2Hz_s25_35.m4a,,,,,,,,,,,,
,,,,,41843,2021-10-02_19h13.04.771,judgeSpeechMusic_20210919_logNormShiftAmp_detection_fixFreq,2020.1.2,MacIntel,60,,,,,,,,,,,,,,,,,,,,,,,,,,,,,,1,6.0613,,0,0,62,62,35,1,stimuli/stim_20210919_power2amp/equal_lnn_AM2Hz_s35_16.m4a,,,,,,,,,,,,
,,,,,41843,2021-10-02_19h13.04.771,judgeSpeechMusic_20210919_logNormShiftAmp_detection_fixFreq,2020.1.2,MacIntel,60,,,,,,,,,,,,,,,,,,,,,,,,,,,,,,1,5.6391,,0,0,63,63,69,1,stimuli/stim_20210919_power2amp/equal_lnn_AM2Hz_s55_41.m4a,,,,,,,,,,,,
,,,,,41843,2021-10-02_19h13.04.771,judgeSpeechMusic_20210919_logNormShiftAmp_detection_fixFreq,2020.1.2,MacIntel,60,,,,,,,,,,,,,,,,,,,,,,,,,,,,,,2,6.3738,,0,0,64,64,65,1,stimuli/stim_20210919_power2amp/equal_lnn_AM2Hz_s55_22.m4a,,,,,,,,,,,,
,,,,,41843,2021-10-02_19h13.04.771,judgeSpeechMusic_20210919_logNormShiftAmp_detection_fixFreq,2020.1.2,MacIntel,60,,,,,,,,,,,,,,,,,,,,,,,,,,,,,,1,7.7953,,0,0,65,65,8,1,stimuli/stim_20210919_power2amp/equal_lnn_AM2Hz_s15_47.m4a,,,,,,,,,,,,
,,,,,41843,2021-10-02_19h13.04.771,judgeSpeechMusic_20210919_logNormShiftAmp_detection_fixFreq,2020.1.2,MacIntel,60,,,,,,,,,,,,,,,,,,,,,,,,,,,,,,2,6.5422,,0,0,66,66,18,1,stimuli/stim_20210919_power2amp/equal_lnn_AM2Hz_s25_25.m4a,,,,,,,,,,,,
,,,,,41843,2021-10-02_19h13.04.771,judgeSpeechMusic_20210919_logNormShiftAmp_detection_fixFreq,2020.1.2,MacIntel,60,,,,,,,,,,,,,,,,,,,,,,,,,,,,,,2,5.6559,,0,0,67,67,12,1,stimuli/stim_20210919_power2amp/equal_lnn_AM2Hz_s15_28.m4a,,,,,,,,,,,,
,,,,,41843,2021-10-02_19h13.04.771,judgeSpeechMusic_20210919_logNormShiftAmp_detection_fixFreq,2020.1.2,MacIntel,60,,,,,,,,,,,,,,,,,,,,,,,,,,,,,,1,5.672,,0,0,68,68,52,1,stimuli/stim_20210919_power2amp/equal_lnn_AM2Hz_s45_48.m4a,,,,,,,,,,,,
,,,,,41843,2021-10-02_19h13.04.771,judgeSpeechMusic_20210919_logNormShiftAmp_detection_fixFreq,2020.1.2,MacIntel,60,,,,,,,,,,,,,,,,,,,,,,,,,,,,,,2,6.159,,0,0,69,69,7,1,stimuli/stim_20210919_power2amp/equal_lnn_AM2Hz_s15_21.m4a,,,,,,,,,,,,
,,,,,41843,2021-10-02_19h13.04.771,judgeSpeechMusic_20210919_logNormShiftAmp_detection_fixFreq,2020.1.2,MacIntel,60,,,,,,,,,,,,,,,,,,,,,,,,,,,,,,2,5.7626,,0,0,70,70,31,1,stimuli/stim_20210919_power2amp/equal_lnn_AM2Hz_s35_45.m4a,,,,,,,,,,,,
,,,,,41843,2021-10-02_19h13.04.771,judgeSpeechMusic_20210919_logNormShiftAmp_detection_fixFreq,2020.1.2,MacIntel,60,,,,,,,,,,,,,,,,,,,,,,,,,,,,,,2,5.6078,,0,0,71,71,43,1,stimuli/stim_20210919_power2amp/equal_lnn_AM2Hz_s35_26.m4a,,,,,,,,,,,,
,,,,,41843,2021-10-02_19h13.04.771,judgeSpeechMusic_20210919_logNormShiftAmp_detection_fixFreq,2020.1.2,MacIntel,60,,,,,,,,,,,,,,,,,,,,,,,,,,,,,,1,5.6432,,0,0,72,72,64,1,stimuli/stim_20210919_power2amp/equal_lnn_AM2Hz_s55_43.m4a,,,,,,,,,,,,
,,,,,41843,2021-10-02_19h13.04.771,judgeSpeechMusic_20210919_logNormShiftAmp_detection_fixFreq,2020.1.2,MacIntel,60,,,,,,,,,,,,,,,,,,,,,,,,,,,,,,1,5.5968,,0,0,73,73,55,1,stimuli/stim_20210919_power2amp/equal_lnn_AM2Hz_s45_1.m4a,,,,,,,,,,,,
,,,,,41843,2021-10-02_19h13.04.771,judgeSpeechMusic_20210919_logNormShiftAmp_detection_fixFreq,2020.1.2,MacIntel,60,,,,,,,,,,,,,,,,,,,,,,,,,,,,,,2,5.742,,0,0,74,74,17,1,stimuli/stim_20210919_power2amp/equal_lnn_AM2Hz_s25_39.m4a,,,,,,,,,,,,
,,,,,41843,2021-10-02_19h13.04.771,judgeSpeechMusic_20210919_logNormShiftAmp_detection_fixFreq,2020.1.2,MacIntel,60,,,,,,,,,,,,,,,,,,,,,,,,,,,,,,,,,,,,,,,,,space,0.7427,1,0,2,0,1,MUSIC,stimuli/MUSIC.jpg,,
,,,,,41843,2021-10-02_19h13.04.771,judgeSpeechMusic_20210919_logNormShiftAmp_detection_fixFreq,2020.1.2,MacIntel,60,,,,,,,,,,,,,,,,,,0,0,0,0,0,1,stimuli/stim_20210919_power2amp/equal_lnn_AM_training2Hz_s20.m4a,,,,,,,,,,,,,,,,,,,,,,,,,,,
,,,,,41843,2021-10-02_19h13.04.771,judgeSpeechMusic_20210919_logNormShiftAmp_detection_fixFreq,2020.1.2,MacIntel,60,,,,,,,,,,,,,,,,,,,,,,,,,,space,3.5583,space,0.398,1,6.8228,,0,0,0,0,30,1,stimuli/stim_20210919_power2amp/equal_lnn_AM2Hz_s35_6.m4a,,,,,,,,,,,,
,,,,,41843,2021-10-02_19h13.04.771,judgeSpeechMusic_20210919_logNormShiftAmp_detection_fixFreq,2020.1.2,MacIntel,60,,,,,,,,,,,,,,,,,,,,,,,,,,,,,,2,5.69,,0,0,1,1,71,1,stimuli/stim_20210919_power2amp/equal_lnn_AM2Hz_s55_19.m4a,,,,,,,,,,,,
,,,,,41843,2021-10-02_19h13.04.771,judgeSpeechMusic_20210919_logNormShiftAmp_detection_fixFreq,2020.1.2,MacIntel,60,,,,,,,,,,,,,,,,,,,,,,,,,,,,,,2,5.6412,,0,0,2,2,70,1,stimuli/stim_20210919_power2amp/equal_lnn_AM2Hz_s55_21.m4a,,,,,,,,,,,,
,,,,,41843,2021-10-02_19h13.04.771,judgeSpeechMusic_20210919_logNormShiftAmp_detection_fixFreq,2020.1.2,MacIntel,60,,,,,,,,,,,,,,,,,,,,,,,,,,,,,,1,5.7718,,0,0,3,3,5,1,stimuli/stim_20210919_power2amp/equal_lnn_AM2Hz_s15_3.m4a,,,,,,,,,,,,
,,,,,41843,2021-10-02_19h13.04.771,judgeSpeechMusic_20210919_logNormShiftAmp_detection_fixFreq,2020.1.2,MacIntel,60,,,,,,,,,,,,,,,,,,,,,,,,,,,,,,1,6.0707,,0,0,4,4,40,1,stimuli/stim_20210919_power2amp/equal_lnn_AM2Hz_s35_15.m4a,,,,,,,,,,,,
,,,,,41843,2021-10-02_19h13.04.771,judgeSpeechMusic_20210919_logNormShiftAmp_detection_fixFreq,2020.1.2,MacIntel,60,,,,,,,,,,,,,,,,,,,,,,,,,,,,,,2,5.9446,,0,0,5,5,34,1,stimuli/stim_20210919_power2amp/equal_lnn_AM2Hz_s35_8.m4a,,,,,,,,,,,,
,,,,,41843,2021-10-02_19h13.04.771,judgeSpeechMusic_20210919_logNormShiftAmp_detection_fixFreq,2020.1.2,MacIntel,60,,,,,,,,,,,,,,,,,,,,,,,,,,,,,,1,5.9911,,0,0,6,6,4,1,stimuli/stim_20210919_power2amp/equal_lnn_AM2Hz_s15_2.m4a,,,,,,,,,,,,
,,,,,41843,2021-10-02_19h13.04.771,judgeSpeechMusic_20210919_logNormShiftAmp_detection_fixFreq,2020.1.2,MacIntel,60,,,,,,,,,,,,,,,,,,,,,,,,,,,,,,2,5.6794,,0,0,7,7,66,1,stimuli/stim_20210919_power2amp/equal_lnn_AM2Hz_s55_24.m4a,,,,,,,,,,,,
,,,,,41843,2021-10-02_19h13.04.771,judgeSpeechMusic_20210919_logNormShiftAmp_detection_fixFreq,2020.1.2,MacIntel,60,,,,,,,,,,,,,,,,,,,,,,,,,,,,,,1,7.0553,,0,0,8,8,31,1,stimuli/stim_20210919_power2amp/equal_lnn_AM2Hz_s35_45.m4a,,,,,,,,,,,,
,,,,,41843,2021-10-02_19h13.04.771,judgeSpeechMusic_20210919_logNormShiftAmp_detection_fixFreq,2020.1.2,MacIntel,60,,,,,,,,,,,,,,,,,,,,,,,,,,,,,,1,5.8257,,0,0,9,9,28,1,stimuli/stim_20210919_power2amp/equal_lnn_AM2Hz_s25_18.m4a,,,,,,,,,,,,
,,,,,41843,2021-10-02_19h13.04.771,judgeSpeechMusic_20210919_logNormShiftAmp_detection_fixFreq,2020.1.2,MacIntel,60,,,,,,,,,,,,,,,,,,,,,,,,,,,,,,2,5.6419,,0,0,10,10,33,1,stimuli/stim_20210919_power2amp/equal_lnn_AM2Hz_s35_34.m4a,,,,,,,,,,,,
,,,,,41843,2021-10-02_19h13.04.771,judgeSpeechMusic_20210919_logNormShiftAmp_detection_fixFreq,2020.1.2,MacIntel,60,,,,,,,,,,,,,,,,,,,,,,,,,,,,,,2,5.8894,,0,0,11,11,27,1,stimuli/stim_20210919_power2amp/equal_lnn_AM2Hz_s25_26.m4a,,,,,,,,,,,,
,,,,,41843,2021-10-02_19h13.04.771,judgeSpeechMusic_20210919_logNormShiftAmp_detection_fixFreq,2020.1.2,MacIntel,60,,,,,,,,,,,,,,,,,,,,,,,,,,,,,,2,5.7704,,0,0,12,12,47,1,stimuli/stim_20210919_power2amp/equal_lnn_AM2Hz_s45_11.m4a,,,,,,,,,,,,
,,,,,41843,2021-10-02_19h13.04.771,judgeSpeechMusic_20210919_logNormShiftAmp_detection_fixFreq,2020.1.2,MacIntel,60,,,,,,,,,,,,,,,,,,,,,,,,,,,,,,1,5.6379,,0,0,13,13,38,1,stimuli/stim_20210919_power2amp/equal_lnn_AM2Hz_s35_43.m4a,,,,,,,,,,,,
,,,,,41843,2021-10-02_19h13.04.771,judgeSpeechMusic_20210919_logNormShiftAmp_detection_fixFreq,2020.1.2,MacIntel,60,,,,,,,,,,,,,,,,,,,,,,,,,,,,,,1,6.6247,,0,0,14,14,72,1,stimuli/stim_20210919_power2amp/equal_lnn_AM2Hz_s55_50.m4a,,,,,,,,,,,,
,,,,,41843,2021-10-02_19h13.04.771,judgeSpeechMusic_20210919_logNormShiftAmp_detection_fixFreq,2020.1.2,MacIntel,60,,,,,,,,,,,,,,,,,,,,,,,,,,,,,,1,6.0422,,0,0,15,15,49,1,stimuli/stim_20210919_power2amp/equal_lnn_AM2Hz_s45_40.m4a,,,,,,,,,,,,
,,,,,41843,2021-10-02_19h13.04.771,judgeSpeechMusic_20210919_logNormShiftAmp_detection_fixFreq,2020.1.2,MacIntel,60,,,,,,,,,,,,,,,,,,,,,,,,,,,,,,2,5.7581,,0,0,16,16,73,1,stimuli/stim_20210919_power2amp/equal_lnn_AM2Hz_s55_6.m4a,,,,,,,,,,,,
,,,,,41843,2021-10-02_19h13.04.771,judgeSpeechMusic_20210919_logNormShiftAmp_detection_fixFreq,2020.1.2,MacIntel,60,,,,,,,,,,,,,,,,,,,,,,,,,,,,,,2,6.5724,,0,0,17,17,56,1,stimuli/stim_20210919_power2amp/equal_lnn_AM2Hz_s45_6.m4a,,,,,,,,,,,,
,,,,,41843,2021-10-02_19h13.04.771,judgeSpeechMusic_20210919_logNormShiftAmp_detection_fixFreq,2020.1.2,MacIntel,60,,,,,,,,,,,,,,,,,,,,,,,,,,,,,,2,5.8399,,0,0,18,18,51,1,stimuli/stim_20210919_power2amp/equal_lnn_AM2Hz_s45_28.m4a,,,,,,,,,,,,
,,,,,41843,2021-10-02_19h13.04.771,judgeSpeechMusic_20210919_logNormShiftAmp_detection_fixFreq,2020.1.2,MacIntel,60,,,,,,,,,,,,,,,,,,,,,,,,,,,,,,1,5.7466,1,1,0,19,19,14,1,stimuli/stim_20210919_power2amp/equal_lnn_AM2Hz_s15_30.m4a,0.5787,,,,,,,,,,,
,,,,,41843,2021-10-02_19h13.04.771,judgeSpeechMusic_20210919_logNormShiftAmp_detection_fixFreq,2020.1.2,MacIntel,60,,,,,,,,,,,,,,,,,,,,,,,,,,,,,,1,5.659,,0,0,20,20,17,1,stimuli/stim_20210919_power2amp/equal_lnn_AM2Hz_s25_39.m4a,,,,,,,,,,,,
,,,,,41843,2021-10-02_19h13.04.771,judgeSpeechMusic_20210919_logNormShiftAmp_detection_fixFreq,2020.1.2,MacIntel,60,,,,,,,,,,,,,,,,,,,,,,,,,,,,,,2,5.7588,,0,0,21,21,43,1,stimuli/stim_20210919_power2amp/equal_lnn_AM2Hz_s35_26.m4a,,,,,,,,,,,,
,,,,,41843,2021-10-02_19h13.04.771,judgeSpeechMusic_20210919_logNormShiftAmp_detection_fixFreq,2020.1.2,MacIntel,60,,,,,,,,,,,,,,,,,,,,,,,,,,,,,,1,5.871,,0,0,22,22,44,1,stimuli/stim_20210919_power2amp/equal_lnn_AM2Hz_s35_32.m4a,,,,,,,,,,,,
,,,,,41843,2021-10-02_19h13.04.771,judgeSpeechMusic_20210919_logNormShiftAmp_detection_fixFreq,2020.1.2,MacIntel,60,,,,,,,,,,,,,,,,,,,,,,,,,,,,,,1,6.3262,,0,0,23,23,61,1,stimuli/stim_20210919_power2amp/equal_lnn_AM2Hz_s55_31.m4a,,,,,,,,,,,,
,,,,,41843,2021-10-02_19h13.04.771,judgeSpeechMusic_20210919_logNormShiftAmp_detection_fixFreq,2020.1.2,MacIntel,60,,,,,,,,,,,,,,,,,,,,,,,,,,,,,,1,6.038,,0,0,24,24,10,1,stimuli/stim_20210919_power2amp/equal_lnn_AM2Hz_s15_15.m4a,,,,,,,,,,,,
,,,,,41843,2021-10-02_19h13.04.771,judgeSpeechMusic_20210919_logNormShiftAmp_detection_fixFreq,2020.1.2,MacIntel,60,,,,,,,,,,,,,,,,,,,,,,,,,,,,,,1,5.5912,,0,0,25,25,74,1,stimuli/stim_20210919_power2amp/equal_lnn_AM2Hz_s55_1.m4a,,,,,,,,,,,,
,,,,,41843,2021-10-02_19h13.04.771,judgeSpeechMusic_20210919_logNormShiftAmp_detection_fixFreq,2020.1.2,MacIntel,60,,,,,,,,,,,,,,,,,,,,,,,,,,,,,,2,5.7243,,0,0,26,26,57,1,stimuli/stim_20210919_power2amp/equal_lnn_AM2Hz_s45_2.m4a,,,,,,,,,,,,
,,,,,41843,2021-10-02_19h13.04.771,judgeSpeechMusic_20210919_logNormShiftAmp_detection_fixFreq,2020.1.2,MacIntel,60,,,,,,,,,,,,,,,,,,,,,,,,,,,,,,2,5.8882,,0,0,27,27,67,1,stimuli/stim_20210919_power2amp/equal_lnn_AM2Hz_s55_3.m4a,,,,,,,,,,,,
,,,,,41843,2021-10-02_19h13.04.771,judgeSpeechMusic_20210919_logNormShiftAmp_detection_fixFreq,2020.1.2,MacIntel,60,,,,,,,,,,,,,,,,,,,,,,,,,,,,,,2,6.2448,,0,0,28,28,53,1,stimuli/stim_20210919_power2amp/equal_lnn_AM2Hz_s45_39.m4a,,,,,,,,,,,,
,,,,,41843,2021-10-02_19h13.04.771,judgeSpeechMusic_20210919_logNormShiftAmp_detection_fixFreq,2020.1.2,MacIntel,60,,,,,,,,,,,,,,,,,,,,,,,,,,,,,,1,5.742,,0,0,29,29,7,1,stimuli/stim_20210919_power2amp/equal_lnn_AM2Hz_s15_21.m4a,,,,,,,,,,,,
,,,,,41843,2021-10-02_19h13.04.771,judgeSpeechMusic_20210919_logNormShiftAmp_detection_fixFreq,2020.1.2,MacIntel,60,,,,,,,,,,,,,,,,,,,,,,,,,,,,,,2,6.5235,,0,0,30,30,59,1,stimuli/stim_20210919_power2amp/equal_lnn_AM2Hz_s45_20.m4a,,,,,,,,,,,,
,,,,,41843,2021-10-02_19h13.04.771,judgeSpeechMusic_20210919_logNormShiftAmp_detection_fixFreq,2020.1.2,MacIntel,60,,,,,,,,,,,,,,,,,,,,,,,,,,,,,,1,5.99,,0,0,31,31,19,1,stimuli/stim_20210919_power2amp/equal_lnn_AM2Hz_s25_1.m4a,,,,,,,,,,,,
,,,,,41843,2021-10-02_19h13.04.771,judgeSpeechMusic_20210919_logNormShiftAmp_detection_fixFreq,2020.1.2,MacIntel,60,,,,,,,,,,,,,,,,,,,,,,,,,,,,,,2,5.7951,,0,0,32,32,46,1,stimuli/stim_20210919_power2amp/equal_lnn_AM2Hz_s45_16.m4a,,,,,,,,,,,,
,,,,,41843,2021-10-02_19h13.04.771,judgeSpeechMusic_20210919_logNormShiftAmp_detection_fixFreq,2020.1.2,MacIntel,60,,,,,,,,,,,,,,,,,,,,,,,,,,,,,,1,6.4067,,0,0,33,33,26,1,stimuli/stim_20210919_power2amp/equal_lnn_AM2Hz_s25_42.m4a,,,,,,,,,,,,
,,,,,41843,2021-10-02_19h13.04.771,judgeSpeechMusic_20210919_logNormShiftAmp_detection_fixFreq,2020.1.2,MacIntel,60,,,,,,,,,,,,,,,,,,,,,,,,,,,,,,1,6.6108,,0,0,34,34,22,1,stimuli/stim_20210919_power2amp/equal_lnn_AM2Hz_s25_12.m4a,,,,,,,,,,,,
,,,,,41843,2021-10-02_19h13.04.771,judgeSpeechMusic_20210919_logNormShiftAmp_detection_fixFreq,2020.1.2,MacIntel,60,,,,,,,,,,,,,,,,,,,,,,,,,,,,,,2,5.7922,,0,0,35,35,13,1,stimuli/stim_20210919_power2amp/equal_lnn_AM2Hz_s15_27.m4a,,,,,,,,,,,,
,,,,,41843,2021-10-02_19h13.04.771,judgeSpeechMusic_20210919_logNormShiftAmp_detection_fixFreq,2020.1.2,MacIntel,60,,,,,,,,,,,,,,,,,,,,,,,,,,,,,,1,6.192,,0,0,36,36,9,1,stimuli/stim_20210919_power2amp/equal_lnn_AM2Hz_s15_45.m4a,,,,,,,,,,,,
,,,,,41843,2021-10-02_19h13.04.771,judgeSpeechMusic_20210919_logNormShiftAmp_detection_fixFreq,2020.1.2,MacIntel,60,,,,,,,,,,,,,,,,,,,,,,,,,,,,,,1,5.591,2,1,0,37,37,25,1,stimuli/stim_20210919_power2amp/equal_lnn_AM2Hz_s25_2.m4a,0.4084,,,,,,,,,,,
,,,,,41843,2021-10-02_19h13.04.771,judgeSpeechMusic_20210919_logNormShiftAmp_detection_fixFreq,2020.1.2,MacIntel,60,,,,,,,,,,,,,,,,,,,,,,,,,,,,,,1,7.4237,,0,0,38,38,12,1,stimuli/stim_20210919_power2amp/equal_lnn_AM2Hz_s15_28.m4a,,,,,,,,,,,,
,,,,,41843,2021-10-02_19h13.04.771,judgeSpeechMusic_20210919_logNormShiftAmp_detection_fixFreq,2020.1.2,MacIntel,60,,,,,,,,,,,,,,,,,,,,,,,,,,,,,,2,5.6726,,0,0,39,39,55,1,stimuli/stim_20210919_power2amp/equal_lnn_AM2Hz_s45_1.m4a,,,,,,,,,,,,
,,,,,41843,2021-10-02_19h13.04.771,judgeSpeechMusic_20210919_logNormShiftAmp_detection_fixFreq,2020.1.2,MacIntel,60,,,,,,,,,,,,,,,,,,,,,,,,,,,,,,1,5.6084,,0,0,40,40,2,1,stimuli/stim_20210919_power2amp/equal_lnn_AM2Hz_s15_13.m4a,,,,,,,,,,,,
,,,,,41843,2021-10-02_19h13.04.771,judgeSpeechMusic_20210919_logNormShiftAmp_detection_fixFreq,2020.1.2,MacIntel,60,,,,,,,,,,,,,,,,,,,,,,,,,,,,,,1,5.5755,,0,0,41,41,0,1,stimuli/stim_20210919_power2amp/equal_lnn_AM2Hz_s15_5.m4a,,,,,,,,,,,,
,,,,,41843,2021-10-02_19h13.04.771,judgeSpeechMusic_20210919_logNormShiftAmp_detection_fixFreq,2020.1.2,MacIntel,60,,,,,,,,,,,,,,,,,,,,,,,,,,,,,,1,5.5776,,0,0,42,42,21,1,stimuli/stim_20210919_power2amp/equal_lnn_AM2Hz_s25_20.m4a,,,,,,,,,,,,
,,,,,41843,2021-10-02_19h13.04.771,judgeSpeechMusic_20210919_logNormShiftAmp_detection_fixFreq,2020.1.2,MacIntel,60,,,,,,,,,,,,,,,,,,,,,,,,,,,,,,2,5.5906,,0,0,43,43,60,1,stimuli/stim_20210919_power2amp/equal_lnn_AM2Hz_s55_44.m4a,,,,,,,,,,,,
,,,,,41843,2021-10-02_19h13.04.771,judgeSpeechMusic_20210919_logNormShiftAmp_detection_fixFreq,2020.1.2,MacIntel,60,,,,,,,,,,,,,,,,,,,,,,,,,,,,,,2,6.038,,0,0,44,44,32,1,stimuli/stim_20210919_power2amp/equal_lnn_AM2Hz_s35_38.m4a,,,,,,,,,,,,
,,,,,41843,2021-10-02_19h13.04.771,judgeSpeechMusic_20210919_logNormShiftAmp_detection_fixFreq,2020.1.2,MacIntel,60,,,,,,,,,,,,,,,,,,,,,,,,,,,,,,2,7.1105,,0,0,45,45,23,1,stimuli/stim_20210919_power2amp/equal_lnn_AM2Hz_s25_16.m4a,,,,,,,,,,,,
,,,,,41843,2021-10-02_19h13.04.771,judgeSpeechMusic_20210919_logNormShiftAmp_detection_fixFreq,2020.1.2,MacIntel,60,,,,,,,,,,,,,,,,,,,,,,,,,,,,,,2,5.7742,,0,0,46,46,8,1,stimuli/stim_20210919_power2amp/equal_lnn_AM2Hz_s15_47.m4a,,,,,,,,,,,,
,,,,,41843,2021-10-02_19h13.04.771,judgeSpeechMusic_20210919_logNormShiftAmp_detection_fixFreq,2020.1.2,MacIntel,60,,,,,,,,,,,,,,,,,,,,,,,,,,,,,,1,5.7736,,0,0,47,47,45,1,stimuli/stim_20210919_power2amp/equal_lnn_AM2Hz_s45_30.m4a,,,,,,,,,,,,
,,,,,41843,2021-10-02_19h13.04.771,judgeSpeechMusic_20210919_logNormShiftAmp_detection_fixFreq,2020.1.2,MacIntel,60,,,,,,,,,,,,,,,,,,,,,,,,,,,,,,1,5.7638,,0,0,48,48,68,1,stimuli/stim_20210919_power2amp/equal_lnn_AM2Hz_s55_9.m4a,,,,,,,,,,,,
,,,,,41843,2021-10-02_19h13.04.771,judgeSpeechMusic_20210919_logNormShiftAmp_detection_fixFreq,2020.1.2,MacIntel,60,,,,,,,,,,,,,,,,,,,,,,,,,,,,,,1,5.6515,,0,0,49,49,29,1,stimuli/stim_20210919_power2amp/equal_lnn_AM2Hz_s25_43.m4a,,,,,,,,,,,,
,,,,,41843,2021-10-02_19h13.04.771,judgeSpeechMusic_20210919_logNormShiftAmp_detection_fixFreq,2020.1.2,MacIntel,60,,,,,,,,,,,,,,,,,,,,,,,,,,,,,,2,5.7281,,0,0,50,50,36,1,stimuli/stim_20210919_power2amp/equal_lnn_AM2Hz_s35_25.m4a,,,,,,,,,,,,
,,,,,41843,2021-10-02_19h13.04.771,judgeSpeechMusic_20210919_logNormShiftAmp_detection_fixFreq,2020.1.2,MacIntel,60,,,,,,,,,,,,,,,,,,,,,,,,,,,,,,2,6.6241,,0,0,51,51,18,1,stimuli/stim_20210919_power2amp/equal_lnn_AM2Hz_s25_25.m4a,,,,,,,,,,,,
,,,,,41843,2021-10-02_19h13.04.771,judgeSpeechMusic_20210919_logNormShiftAmp_detection_fixFreq,2020.1.2,MacIntel,60,,,,,,,,,,,,,,,,,,,,,,,,,,,,,,2,5.5214,,0,0,52,52,52,1,stimuli/stim_20210919_power2amp/equal_lnn_AM2Hz_s45_48.m4a,,,,,,,,,,,,
,,,,,41843,2021-10-02_19h13.04.771,judgeSpeechMusic_20210919_logNormShiftAmp_detection_fixFreq,2020.1.2,MacIntel,60,,,,,,,,,,,,,,,,,,,,,,,,,,,,,,1,5.7253,,0,0,53,53,20,1,stimuli/stim_20210919_power2amp/equal_lnn_AM2Hz_s25_24.m4a,,,,,,,,,,,,
,,,,,41843,2021-10-02_19h13.04.771,judgeSpeechMusic_20210919_logNormShiftAmp_detection_fixFreq,2020.1.2,MacIntel,60,,,,,,,,,,,,,,,,,,,,,,,,,,,,,,1,6.3904,,0,0,54,54,63,1,stimuli/stim_20210919_power2amp/equal_lnn_AM2Hz_s55_49.m4a,,,,,,,,,,,,
,,,,,41843,2021-10-02_19h13.04.771,judgeSpeechMusic_20210919_logNormShiftAmp_detection_fixFreq,2020.1.2,MacIntel,60,,,,,,,,,,,,,,,,,,,,,,,,,,,,,,1,5.6542,,0,0,55,55,16,1,stimuli/stim_20210919_power2amp/equal_lnn_AM2Hz_s25_35.m4a,,,,,,,,,,,,
,,,,,41843,2021-10-02_19h13.04.771,judgeSpeechMusic_20210919_logNormShiftAmp_detection_fixFreq,2020.1.2,MacIntel,60,,,,,,,,,,,,,,,,,,,,,,,,,,,,,,1,6.2115,,0,0,56,56,3,1,stimuli/stim_20210919_power2amp/equal_lnn_AM2Hz_s15_41.m4a,,,,,,,,,,,,
,,,,,41843,2021-10-02_19h13.04.771,judgeSpeechMusic_20210919_logNormShiftAmp_detection_fixFreq,2020.1.2,MacIntel,60,,,,,,,,,,,,,,,,,,,,,,,,,,,,,,2,6.4267,4,1,0,57,57,35,1,stimuli/stim_20210919_power2amp/equal_lnn_AM2Hz_s35_16.m4a,0.513,,,,,,,,,,,
,,,,,41843,2021-10-02_19h13.04.771,judgeSpeechMusic_20210919_logNormShiftAmp_detection_fixFreq,2020.1.2,MacIntel,60,,,,,,,,,,,,,,,,,,,,,,,,,,,,,,2,5.6399,,0,0,58,58,37,1,stimuli/stim_20210919_power2amp/equal_lnn_AM2Hz_s35_12.m4a,,,,,,,,,,,,
,,,,,41843,2021-10-02_19h13.04.771,judgeSpeechMusic_20210919_logNormShiftAmp_detection_fixFreq,2020.1.2,MacIntel,60,,,,,,,,,,,,,,,,,,,,,,,,,,,,,,2,5.6093,,0,0,59,59,6,1,stimuli/stim_20210919_power2amp/equal_lnn_AM2Hz_s15_16.m4a,,,,,,,,,,,,
,,,,,41843,2021-10-02_19h13.04.771,judgeSpeechMusic_20210919_logNormShiftAmp_detection_fixFreq,2020.1.2,MacIntel,60,,,,,,,,,,,,,,,,,,,,,,,,,,,,,,2,6.1967,,0,0,60,60,39,1,stimuli/stim_20210919_power2amp/equal_lnn_AM2Hz_s35_42.m4a,,,,,,,,,,,,
,,,,,41843,2021-10-02_19h13.04.771,judgeSpeechMusic_20210919_logNormShiftAmp_detection_fixFreq,2020.1.2,MacIntel,60,,,,,,,,,,,,,,,,,,,,,,,,,,,,,,1,7.1898,,0,0,61,61,58,1,stimuli/stim_20210919_power2amp/equal_lnn_AM2Hz_s45_17.m4a,,,,,,,,,,,,
,,,,,41843,2021-10-02_19h13.04.771,judgeSpeechMusic_20210919_logNormShiftAmp_detection_fixFreq,2020.1.2,MacIntel,60,,,,,,,,,,,,,,,,,,,,,,,,,,,,,,2,6.6241,,0,0,62,62,62,1,stimuli/stim_20210919_power2amp/equal_lnn_AM2Hz_s55_30.m4a,,,,,,,,,,,,
,,,,,41843,2021-10-02_19h13.04.771,judgeSpeechMusic_20210919_logNormShiftAmp_detection_fixFreq,2020.1.2,MacIntel,60,,,,,,,,,,,,,,,,,,,,,,,,,,,,,,1,6.524,,0,0,63,63,54,1,stimuli/stim_20210919_power2amp/equal_lnn_AM2Hz_s45_8.m4a,,,,,,,,,,,,
,,,,,41843,2021-10-02_19h13.04.771,judgeSpeechMusic_20210919_logNormShiftAmp_detection_fixFreq,2020.1.2,MacIntel,60,,,,,,,,,,,,,,,,,,,,,,,,,,,,,,1,5.6739,,0,0,64,64,24,1,stimuli/stim_20210919_power2amp/equal_lnn_AM2Hz_s25_33.m4a,,,,,,,,,,,,
,,,,,41843,2021-10-02_19h13.04.771,judgeSpeechMusic_20210919_logNormShiftAmp_detection_fixFreq,2020.1.2,MacIntel,60,,,,,,,,,,,,,,,,,,,,,,,,,,,,,,1,6.0403,,0,0,65,65,15,1,stimuli/stim_20210919_power2amp/equal_lnn_AM2Hz_s25_4.m4a,,,,,,,,,,,,
,,,,,41843,2021-10-02_19h13.04.771,judgeSpeechMusic_20210919_logNormShiftAmp_detection_fixFreq,2020.1.2,MacIntel,60,,,,,,,,,,,,,,,,,,,,,,,,,,,,,,1,5.6908,,0,0,66,66,11,1,stimuli/stim_20210919_power2amp/equal_lnn_AM2Hz_s15_50.m4a,,,,,,,,,,,,
,,,,,41843,2021-10-02_19h13.04.771,judgeSpeechMusic_20210919_logNormShiftAmp_detection_fixFreq,2020.1.2,MacIntel,60,,,,,,,,,,,,,,,,,,,,,,,,,,,,,,2,5.6467,,0,0,67,67,69,1,stimuli/stim_20210919_power2amp/equal_lnn_AM2Hz_s55_41.m4a,,,,,,,,,,,,
,,,,,41843,2021-10-02_19h13.04.771,judgeSpeechMusic_20210919_logNormShiftAmp_detection_fixFreq,2020.1.2,MacIntel,60,,,,,,,,,,,,,,,,,,,,,,,,,,,,,,2,5.6178,,0,0,68,68,50,1,stimuli/stim_20210919_power2amp/equal_lnn_AM2Hz_s45_14.m4a,,,,,,,,,,,,
,,,,,41843,2021-10-02_19h13.04.771,judgeSpeechMusic_20210919_logNormShiftAmp_detection_fixFreq,2020.1.2,MacIntel,60,,,,,,,,,,,,,,,,,,,,,,,,,,,,,,1,5.7748,,0,0,69,69,42,1,stimuli/stim_20210919_power2amp/equal_lnn_AM2Hz_s35_2.m4a,,,,,,,,,,,,
,,,,,41843,2021-10-02_19h13.04.771,judgeSpeechMusic_20210919_logNormShiftAmp_detection_fixFreq,2020.1.2,MacIntel,60,,,,,,,,,,,,,,,,,,,,,,,,,,,,,,1,5.5764,,0,0,70,70,1,1,stimuli/stim_20210919_power2amp/equal_lnn_AM2Hz_s15_48.m4a,,,,,,,,,,,,
,,,,,41843,2021-10-02_19h13.04.771,judgeSpeechMusic_20210919_logNormShiftAmp_detection_fixFreq,2020.1.2,MacIntel,60,,,,,,,,,,,,,,,,,,,,,,,,,,,,,,2,5.6738,,0,0,71,71,65,1,stimuli/stim_20210919_power2amp/equal_lnn_AM2Hz_s55_22.m4a,,,,,,,,,,,,
,,,,,41843,2021-10-02_19h13.04.771,judgeSpeechMusic_20210919_logNormShiftAmp_detection_fixFreq,2020.1.2,MacIntel,60,,,,,,,,,,,,,,,,,,,,,,,,,,,,,,2,5.7408,,0,0,72,72,64,1,stimuli/stim_20210919_power2amp/equal_lnn_AM2Hz_s55_43.m4a,,,,,,,,,,,,
,,,,,41843,2021-10-02_19h13.04.771,judgeSpeechMusic_20210919_logNormShiftAmp_detection_fixFreq,2020.1.2,MacIntel,60,,,,,,,,,,,,,,,,,,,,,,,,,,,,,,1,5.8614,,0,0,73,73,48,1,stimuli/stim_20210919_power2amp/equal_lnn_AM2Hz_s45_15.m4a,,,,,,,,,,,,
,,,,,41843,2021-10-02_19h13.04.771,judgeSpeechMusic_20210919_logNormShiftAmp_detection_fixFreq,2020.1.2,MacIntel,60,,,,,,,,,,,,,,,,,,,,,,,,,,,,,,1,5.595,,0,0,74,74,41,1,stimuli/stim_20210919_power2amp/equal_lnn_AM2Hz_s35_17.m4a,,,,,,,,,,,,
,,,,,41843,2021-10-02_19h13.04.771,judgeSpeechMusic_20210919_logNormShiftAmp_detection_fixFreq,2020.1.2,MacIntel,60,,,,,,,,,,,,,,,,,,,,,,,,,,,,,,,,,,,,,,,,,,,1,1,3,1,1,SPEECH,stimuli/SPEECH.jpg,,
,,,,,41843,2021-10-02_19h13.04.771,judgeSpeechMusic_20210919_logNormShiftAmp_detection_fixFreq,2020.1.2,MacIntel,60,,,,,,,,,,,,,,,,,,,,,,,,,,,,,,,,,,,,,,,,,,,,,,,,,,space,15.7065
