volAdjustRep.thisRepN,volAdjustRep.thisTrialN,volAdjustRep.thisN,volAdjustRep.thisIndex,volAdjustRep.ran,participant,date,expName,psychopyVersion,OS,frameRate,headphoneResponse.keys,headphoneResponse.corr,headphoneResponse.rt,headphoneTrial.thisRepN,headphoneTrial.thisTrialN,headphoneTrial.thisN,headphoneTrial.thisIndex,headphoneTrial.ran,headphone_sound1,headphone_sound2,headphone_sound3,corrAns,checkInstruKey.keys,checkInstruKey.rt,trainSlider.response,trainSlider.rt,beepTrainResponse.keys,beepTrainResponse.corr,trainingTrials.thisRepN,trainingTrials.thisTrialN,trainingTrials.thisN,trainingTrials.thisIndex,trainingTrials.ran,trainAudioFile,beepTrainResponse.rt,readyReal_resp.keys,readyReal_resp.rt,checkInstru2_key.keys,checkInstru2_key.rt,ratingSlider.response,ratingSlider.rt,beepResp.keys,beepResp.corr,expTrials.thisRepN,expTrials.thisTrialN,expTrials.thisN,expTrials.thisIndex,expTrials.ran,audioFile,beepResp.rt,switchBlock_space.keys,switchBlock_space.rt,block.thisRepN,block.thisTrialN,block.thisN,block.thisIndex,block.ran,blockName,blockImage,end_resp.keys,end_resp.rt
0,0,0,0,1,41911,2021-09-29_21h25.12.235,judgeSpeechMusic_20210919_logNormShiftAmp_detection_fixFreq,2020.1.2,MacIntel,60,,,,,,,,,,,,,,,,,,,,,,,,,,,,,,,,,,,,,,,,,,,,,,,,,,,
,,,,,41911,2021-09-29_21h25.12.235,judgeSpeechMusic_20210919_logNormShiftAmp_detection_fixFreq,2020.1.2,MacIntel,60,2,1,0.7663,0,0,0,3,1,stimuli/screen_origin.wav,stimuli/screen_quiet.wav,stimuli/screen_antiphase.wav,2,,,,,,,,,,,,,,,,,,,,,,,,,,,,,,,,,,,,,,,
,,,,,41911,2021-09-29_21h25.12.235,judgeSpeechMusic_20210919_logNormShiftAmp_detection_fixFreq,2020.1.2,MacIntel,60,3,1,0.8351,0,1,1,0,1,stimuli/screen_antiphase.wav,stimuli/screen_origin.wav,stimuli/screen_quiet.wav,3,,,,,,,,,,,,,,,,,,,,,,,,,,,,,,,,,,,,,,,
,,,,,41911,2021-09-29_21h25.12.235,judgeSpeechMusic_20210919_logNormShiftAmp_detection_fixFreq,2020.1.2,MacIntel,60,2,1,0.7876,0,2,2,1,1,stimuli/screen_antiphase.wav,stimuli/screen_quiet.wav,stimuli/screen_origin.wav,2,,,,,,,,,,,,,,,,,,,,,,,,,,,,,,,,,,,,,,,
,,,,,41911,2021-09-29_21h25.12.235,judgeSpeechMusic_20210919_logNormShiftAmp_detection_fixFreq,2020.1.2,MacIntel,60,1,1,0.8666,0,3,3,4,1,stimuli/screen_quiet.wav,stimuli/screen_antiphase.wav,stimuli/screen_origin.wav,1,,,,,,,,,,,,,,,,,,,,,,,,,,,,,,,,,,,,,,,
,,,,,41911,2021-09-29_21h25.12.235,judgeSpeechMusic_20210919_logNormShiftAmp_detection_fixFreq,2020.1.2,MacIntel,60,3,1,0.8209,0,4,4,2,1,stimuli/screen_origin.wav,stimuli/screen_antiphase.wav,stimuli/screen_quiet.wav,3,,,,,,,,,,,,,,,,,,,,,,,,,,,,,,,,,,,,,,,
,,,,,41911,2021-09-29_21h25.12.235,judgeSpeechMusic_20210919_logNormShiftAmp_detection_fixFreq,2020.1.2,MacIntel,60,1,1,1.3508,0,5,5,5,1,stimuli/screen_quiet.wav,stimuli/screen_origin.wav,stimuli/screen_antiphase.wav,1,,,,,,,,,,,,,,,,,,,,,,,,,,,,,,,,,,,,,,,
,,,,,41911,2021-09-29_21h25.12.235,judgeSpeechMusic_20210919_logNormShiftAmp_detection_fixFreq,2020.1.2,MacIntel,60,,,,,,,,,,,,,space,1.8943,1,10.1058,,0,0,0,0,0,1,stimuli/stim_20210919_power2amp/equal_lnn_AM_training2Hz_s20.m4a,,,,,,,,,,,,,,,,,,,,,,,,,,,
,,,,,41911,2021-09-29_21h25.12.235,judgeSpeechMusic_20210919_logNormShiftAmp_detection_fixFreq,2020.1.2,MacIntel,60,,,,,,,,,,,,,,,1,7.156,,0,0,1,1,2,1,stimuli/stim_20210919_power2amp/equal_lnn_AM_training2Hz_s40.m4a,,,,,,,,,,,,,,,,,,,,,,,,,,,
,,,,,41911,2021-09-29_21h25.12.235,judgeSpeechMusic_20210919_logNormShiftAmp_detection_fixFreq,2020.1.2,MacIntel,60,,,,,,,,,,,,,,,1,7.7715,4,1,0,2,2,1,1,stimuli/stim_20210919_power2amp/equal_lnn_AM_training2Hz_s30.m4a,4.7743,,,,,,,,,,,,,,,,,,,,,,,,,,
,,,,,41911,2021-09-29_21h25.12.235,judgeSpeechMusic_20210919_logNormShiftAmp_detection_fixFreq,2020.1.2,MacIntel,60,,,,,,,,,,,,,,,2,8.0733,,0,0,3,3,3,1,stimuli/stim_20210919_power2amp/equal_lnn_AM_training2Hz_s50.m4a,,,,,,,,,,,,,,,,,,,,,,,,,,,
,,,,,41911,2021-09-29_21h25.12.235,judgeSpeechMusic_20210919_logNormShiftAmp_detection_fixFreq,2020.1.2,MacIntel,60,,,,,,,,,,,,,,,,,,,,,,,,,,space,4.1626,space,0.7492,1,8.4042,,0,0,0,0,59,1,stimuli/stim_20210919_power2amp/equal_lnn_AM2Hz_s45_18.m4a,,,,,,,,,,,,
,,,,,41911,2021-09-29_21h25.12.235,judgeSpeechMusic_20210919_logNormShiftAmp_detection_fixFreq,2020.1.2,MacIntel,60,,,,,,,,,,,,,,,,,,,,,,,,,,,,,,1,6.0111,,0,0,1,1,35,1,stimuli/stim_20210919_power2amp/equal_lnn_AM2Hz_s35_4.m4a,,,,,,,,,,,,
,,,,,41911,2021-09-29_21h25.12.235,judgeSpeechMusic_20210919_logNormShiftAmp_detection_fixFreq,2020.1.2,MacIntel,60,,,,,,,,,,,,,,,,,,,,,,,,,,,,,,2,6.489,,0,0,2,2,4,1,stimuli/stim_20210919_power2amp/equal_lnn_AM2Hz_s15_7.m4a,,,,,,,,,,,,
,,,,,41911,2021-09-29_21h25.12.235,judgeSpeechMusic_20210919_logNormShiftAmp_detection_fixFreq,2020.1.2,MacIntel,60,,,,,,,,,,,,,,,,,,,,,,,,,,,,,,2,6.0603,,0,0,3,3,13,1,stimuli/stim_20210919_power2amp/equal_lnn_AM2Hz_s15_25.m4a,,,,,,,,,,,,
,,,,,41911,2021-09-29_21h25.12.235,judgeSpeechMusic_20210919_logNormShiftAmp_detection_fixFreq,2020.1.2,MacIntel,60,,,,,,,,,,,,,,,,,,,,,,,,,,,,,,2,6.2728,,0,0,4,4,54,1,stimuli/stim_20210919_power2amp/equal_lnn_AM2Hz_s45_46.m4a,,,,,,,,,,,,
,,,,,41911,2021-09-29_21h25.12.235,judgeSpeechMusic_20210919_logNormShiftAmp_detection_fixFreq,2020.1.2,MacIntel,60,,,,,,,,,,,,,,,,,,,,,,,,,,,,,,2,6.5721,,0,0,5,5,55,1,stimuli/stim_20210919_power2amp/equal_lnn_AM2Hz_s45_27.m4a,,,,,,,,,,,,
,,,,,41911,2021-09-29_21h25.12.235,judgeSpeechMusic_20210919_logNormShiftAmp_detection_fixFreq,2020.1.2,MacIntel,60,,,,,,,,,,,,,,,,,,,,,,,,,,,,,,2,7.3567,,0,0,6,6,32,1,stimuli/stim_20210919_power2amp/equal_lnn_AM2Hz_s35_28.m4a,,,,,,,,,,,,
,,,,,41911,2021-09-29_21h25.12.235,judgeSpeechMusic_20210919_logNormShiftAmp_detection_fixFreq,2020.1.2,MacIntel,60,,,,,,,,,,,,,,,,,,,,,,,,,,,,,,1,5.7899,,0,0,7,7,31,1,stimuli/stim_20210919_power2amp/equal_lnn_AM2Hz_s35_20.m4a,,,,,,,,,,,,
,,,,,41911,2021-09-29_21h25.12.235,judgeSpeechMusic_20210919_logNormShiftAmp_detection_fixFreq,2020.1.2,MacIntel,60,,,,,,,,,,,,,,,,,,,,,,,,,,,,,,1,5.8073,,0,0,8,8,49,1,stimuli/stim_20210919_power2amp/equal_lnn_AM2Hz_s45_31.m4a,,,,,,,,,,,,
,,,,,41911,2021-09-29_21h25.12.235,judgeSpeechMusic_20210919_logNormShiftAmp_detection_fixFreq,2020.1.2,MacIntel,60,,,,,,,,,,,,,,,,,,,,,,,,,,,,,,2,6.1903,,0,0,9,9,41,1,stimuli/stim_20210919_power2amp/equal_lnn_AM2Hz_s35_14.m4a,,,,,,,,,,,,
,,,,,41911,2021-09-29_21h25.12.235,judgeSpeechMusic_20210919_logNormShiftAmp_detection_fixFreq,2020.1.2,MacIntel,60,,,,,,,,,,,,,,,,,,,,,,,,,,,,,,1,6.3061,,0,0,10,10,50,1,stimuli/stim_20210919_power2amp/equal_lnn_AM2Hz_s45_11.m4a,,,,,,,,,,,,
,,,,,41911,2021-09-29_21h25.12.235,judgeSpeechMusic_20210919_logNormShiftAmp_detection_fixFreq,2020.1.2,MacIntel,60,,,,,,,,,,,,,,,,,,,,,,,,,,,,,,1,5.3558,,0,0,11,11,69,1,stimuli/stim_20210919_power2amp/equal_lnn_AM2Hz_s55_26.m4a,,,,,,,,,,,,
,,,,,41911,2021-09-29_21h25.12.235,judgeSpeechMusic_20210919_logNormShiftAmp_detection_fixFreq,2020.1.2,MacIntel,60,,,,,,,,,,,,,,,,,,,,,,,,,,,,,,2,6.2407,,0,0,12,12,2,1,stimuli/stim_20210919_power2amp/equal_lnn_AM2Hz_s15_12.m4a,,,,,,,,,,,,
,,,,,41911,2021-09-29_21h25.12.235,judgeSpeechMusic_20210919_logNormShiftAmp_detection_fixFreq,2020.1.2,MacIntel,60,,,,,,,,,,,,,,,,,,,,,,,,,,,,,,2,5.8425,,0,0,13,13,66,1,stimuli/stim_20210919_power2amp/equal_lnn_AM2Hz_s55_36.m4a,,,,,,,,,,,,
,,,,,41911,2021-09-29_21h25.12.235,judgeSpeechMusic_20210919_logNormShiftAmp_detection_fixFreq,2020.1.2,MacIntel,60,,,,,,,,,,,,,,,,,,,,,,,,,,,,,,2,7.4073,,0,0,14,14,72,1,stimuli/stim_20210919_power2amp/equal_lnn_AM2Hz_s55_23.m4a,,,,,,,,,,,,
,,,,,41911,2021-09-29_21h25.12.235,judgeSpeechMusic_20210919_logNormShiftAmp_detection_fixFreq,2020.1.2,MacIntel,60,,,,,,,,,,,,,,,,,,,,,,,,,,,,,,1,6.3562,,0,0,15,15,30,1,stimuli/stim_20210919_power2amp/equal_lnn_AM2Hz_s35_42.m4a,,,,,,,,,,,,
,,,,,41911,2021-09-29_21h25.12.235,judgeSpeechMusic_20210919_logNormShiftAmp_detection_fixFreq,2020.1.2,MacIntel,60,,,,,,,,,,,,,,,,,,,,,,,,,,,,,,1,8.1172,,0,0,16,16,67,1,stimuli/stim_20210919_power2amp/equal_lnn_AM2Hz_s55_32.m4a,,,,,,,,,,,,
,,,,,41911,2021-09-29_21h25.12.235,judgeSpeechMusic_20210919_logNormShiftAmp_detection_fixFreq,2020.1.2,MacIntel,60,,,,,,,,,,,,,,,,,,,,,,,,,,,,,,2,7.5697,,0,0,17,17,5,1,stimuli/stim_20210919_power2amp/equal_lnn_AM2Hz_s15_49.m4a,,,,,,,,,,,,
,,,,,41911,2021-09-29_21h25.12.235,judgeSpeechMusic_20210919_logNormShiftAmp_detection_fixFreq,2020.1.2,MacIntel,60,,,,,,,,,,,,,,,,,,,,,,,,,,,,,,1,6.7216,,0,0,18,18,6,1,stimuli/stim_20210919_power2amp/equal_lnn_AM2Hz_s15_45.m4a,,,,,,,,,,,,
,,,,,41911,2021-09-29_21h25.12.235,judgeSpeechMusic_20210919_logNormShiftAmp_detection_fixFreq,2020.1.2,MacIntel,60,,,,,,,,,,,,,,,,,,,,,,,,,,,,,,1,6.4413,,0,0,19,19,36,1,stimuli/stim_20210919_power2amp/equal_lnn_AM2Hz_s35_9.m4a,,,,,,,,,,,,
,,,,,41911,2021-09-29_21h25.12.235,judgeSpeechMusic_20210919_logNormShiftAmp_detection_fixFreq,2020.1.2,MacIntel,60,,,,,,,,,,,,,,,,,,,,,,,,,,,,,,1,6.5791,,0,0,20,20,7,1,stimuli/stim_20210919_power2amp/equal_lnn_AM2Hz_s15_21.m4a,,,,,,,,,,,,
,,,,,41911,2021-09-29_21h25.12.235,judgeSpeechMusic_20210919_logNormShiftAmp_detection_fixFreq,2020.1.2,MacIntel,60,,,,,,,,,,,,,,,,,,,,,,,,,,,,,,2,9.2881,,0,0,21,21,20,1,stimuli/stim_20210919_power2amp/equal_lnn_AM2Hz_s25_49.m4a,,,,,,,,,,,,
,,,,,41911,2021-09-29_21h25.12.235,judgeSpeechMusic_20210919_logNormShiftAmp_detection_fixFreq,2020.1.2,MacIntel,60,,,,,,,,,,,,,,,,,,,,,,,,,,,,,,1,6.0725,1,1,0,22,22,21,1,stimuli/stim_20210919_power2amp/equal_lnn_AM2Hz_s25_34.m4a,2.0226,,,,,,,,,,,
,,,,,41911,2021-09-29_21h25.12.235,judgeSpeechMusic_20210919_logNormShiftAmp_detection_fixFreq,2020.1.2,MacIntel,60,,,,,,,,,,,,,,,,,,,,,,,,,,,,,,2,20.7048,,0,0,23,23,16,1,stimuli/stim_20210919_power2amp/equal_lnn_AM2Hz_s25_7.m4a,,,,,,,,,,,,
,,,,,41911,2021-09-29_21h25.12.235,judgeSpeechMusic_20210919_logNormShiftAmp_detection_fixFreq,2020.1.2,MacIntel,60,,,,,,,,,,,,,,,,,,,,,,,,,,,,,,1,10.0391,,0,0,24,24,9,1,stimuli/stim_20210919_power2amp/equal_lnn_AM2Hz_s15_32.m4a,,,,,,,,,,,,
,,,,,41911,2021-09-29_21h25.12.235,judgeSpeechMusic_20210919_logNormShiftAmp_detection_fixFreq,2020.1.2,MacIntel,60,,,,,,,,,,,,,,,,,,,,,,,,,,,,,,2,7.7428,,0,0,25,25,44,1,stimuli/stim_20210919_power2amp/equal_lnn_AM2Hz_s35_33.m4a,,,,,,,,,,,,
,,,,,41911,2021-09-29_21h25.12.235,judgeSpeechMusic_20210919_logNormShiftAmp_detection_fixFreq,2020.1.2,MacIntel,60,,,,,,,,,,,,,,,,,,,,,,,,,,,,,,1,16.2049,,0,0,26,26,40,1,stimuli/stim_20210919_power2amp/equal_lnn_AM2Hz_s35_22.m4a,,,,,,,,,,,,
,,,,,41911,2021-09-29_21h25.12.235,judgeSpeechMusic_20210919_logNormShiftAmp_detection_fixFreq,2020.1.2,MacIntel,60,,,,,,,,,,,,,,,,,,,,,,,,,,,,,,2,8.2452,,0,0,27,27,71,1,stimuli/stim_20210919_power2amp/equal_lnn_AM2Hz_s55_28.m4a,,,,,,,,,,,,
,,,,,41911,2021-09-29_21h25.12.235,judgeSpeechMusic_20210919_logNormShiftAmp_detection_fixFreq,2020.1.2,MacIntel,60,,,,,,,,,,,,,,,,,,,,,,,,,,,,,,1,7.6551,,0,0,28,28,26,1,stimuli/stim_20210919_power2amp/equal_lnn_AM2Hz_s25_46.m4a,,,,,,,,,,,,
,,,,,41911,2021-09-29_21h25.12.235,judgeSpeechMusic_20210919_logNormShiftAmp_detection_fixFreq,2020.1.2,MacIntel,60,,,,,,,,,,,,,,,,,,,,,,,,,,,,,,2,11.2732,,0,0,29,29,11,1,stimuli/stim_20210919_power2amp/equal_lnn_AM2Hz_s15_18.m4a,,,,,,,,,,,,
,,,,,41911,2021-09-29_21h25.12.235,judgeSpeechMusic_20210919_logNormShiftAmp_detection_fixFreq,2020.1.2,MacIntel,60,,,,,,,,,,,,,,,,,,,,,,,,,,,,,,2,7.173,,0,0,30,30,19,1,stimuli/stim_20210919_power2amp/equal_lnn_AM2Hz_s25_23.m4a,,,,,,,,,,,,
,,,,,41911,2021-09-29_21h25.12.235,judgeSpeechMusic_20210919_logNormShiftAmp_detection_fixFreq,2020.1.2,MacIntel,60,,,,,,,,,,,,,,,,,,,,,,,,,,,,,,1,6.7742,,0,0,31,31,42,1,stimuli/stim_20210919_power2amp/equal_lnn_AM2Hz_s35_23.m4a,,,,,,,,,,,,
,,,,,41911,2021-09-29_21h25.12.235,judgeSpeechMusic_20210919_logNormShiftAmp_detection_fixFreq,2020.1.2,MacIntel,60,,,,,,,,,,,,,,,,,,,,,,,,,,,,,,2,6.1733,,0,0,32,32,57,1,stimuli/stim_20210919_power2amp/equal_lnn_AM2Hz_s45_37.m4a,,,,,,,,,,,,
,,,,,41911,2021-09-29_21h25.12.235,judgeSpeechMusic_20210919_logNormShiftAmp_detection_fixFreq,2020.1.2,MacIntel,60,,,,,,,,,,,,,,,,,,,,,,,,,,,,,,1,5.9893,,0,0,33,33,8,1,stimuli/stim_20210919_power2amp/equal_lnn_AM2Hz_s15_30.m4a,,,,,,,,,,,,
,,,,,41911,2021-09-29_21h25.12.235,judgeSpeechMusic_20210919_logNormShiftAmp_detection_fixFreq,2020.1.2,MacIntel,60,,,,,,,,,,,,,,,,,,,,,,,,,,,,,,1,5.4111,,0,0,34,34,34,1,stimuli/stim_20210919_power2amp/equal_lnn_AM2Hz_s35_37.m4a,,,,,,,,,,,,
,,,,,41911,2021-09-29_21h25.12.235,judgeSpeechMusic_20210919_logNormShiftAmp_detection_fixFreq,2020.1.2,MacIntel,60,,,,,,,,,,,,,,,,,,,,,,,,,,,,,,2,6.3107,,0,0,35,35,17,1,stimuli/stim_20210919_power2amp/equal_lnn_AM2Hz_s25_40.m4a,,,,,,,,,,,,
,,,,,41911,2021-09-29_21h25.12.235,judgeSpeechMusic_20210919_logNormShiftAmp_detection_fixFreq,2020.1.2,MacIntel,60,,,,,,,,,,,,,,,,,,,,,,,,,,,,,,1,6.2726,,0,0,36,36,45,1,stimuli/stim_20210919_power2amp/equal_lnn_AM2Hz_s45_7.m4a,,,,,,,,,,,,
,,,,,41911,2021-09-29_21h25.12.235,judgeSpeechMusic_20210919_logNormShiftAmp_detection_fixFreq,2020.1.2,MacIntel,60,,,,,,,,,,,,,,,,,,,,,,,,,,,,,,1,6.6557,,0,0,37,37,53,1,stimuli/stim_20210919_power2amp/equal_lnn_AM2Hz_s45_2.m4a,,,,,,,,,,,,
,,,,,41911,2021-09-29_21h25.12.235,judgeSpeechMusic_20210919_logNormShiftAmp_detection_fixFreq,2020.1.2,MacIntel,60,,,,,,,,,,,,,,,,,,,,,,,,,,,,,,2,8.9902,,0,0,38,38,18,1,stimuli/stim_20210919_power2amp/equal_lnn_AM2Hz_s25_43.m4a,,,,,,,,,,,,
,,,,,41911,2021-09-29_21h25.12.235,judgeSpeechMusic_20210919_logNormShiftAmp_detection_fixFreq,2020.1.2,MacIntel,60,,,,,,,,,,,,,,,,,,,,,,,,,,,,,,1,6.8394,,0,0,39,39,65,1,stimuli/stim_20210919_power2amp/equal_lnn_AM2Hz_s55_43.m4a,,,,,,,,,,,,
,,,,,41911,2021-09-29_21h25.12.235,judgeSpeechMusic_20210919_logNormShiftAmp_detection_fixFreq,2020.1.2,MacIntel,60,,,,,,,,,,,,,,,,,,,,,,,,,,,,,,1,8.1076,,0,0,40,40,22,1,stimuli/stim_20210919_power2amp/equal_lnn_AM2Hz_s25_38.m4a,,,,,,,,,,,,
,,,,,41911,2021-09-29_21h25.12.235,judgeSpeechMusic_20210919_logNormShiftAmp_detection_fixFreq,2020.1.2,MacIntel,60,,,,,,,,,,,,,,,,,,,,,,,,,,,,,,2,6.8393,4,1,0,41,41,52,1,stimuli/stim_20210919_power2amp/equal_lnn_AM2Hz_s45_43.m4a,2.2449,,,,,,,,,,,
,,,,,41911,2021-09-29_21h25.12.235,judgeSpeechMusic_20210919_logNormShiftAmp_detection_fixFreq,2020.1.2,MacIntel,60,,,,,,,,,,,,,,,,,,,,,,,,,,,,,,1,17.7727,,0,0,42,42,24,1,stimuli/stim_20210919_power2amp/equal_lnn_AM2Hz_s25_33.m4a,,,,,,,,,,,,
,,,,,41911,2021-09-29_21h25.12.235,judgeSpeechMusic_20210919_logNormShiftAmp_detection_fixFreq,2020.1.2,MacIntel,60,,,,,,,,,,,,,,,,,,,,,,,,,,,,,,2,6.1727,,0,0,43,43,33,1,stimuli/stim_20210919_power2amp/equal_lnn_AM2Hz_s35_5.m4a,,,,,,,,,,,,
,,,,,41911,2021-09-29_21h25.12.235,judgeSpeechMusic_20210919_logNormShiftAmp_detection_fixFreq,2020.1.2,MacIntel,60,,,,,,,,,,,,,,,,,,,,,,,,,,,,,,1,7.3893,,0,0,44,44,27,1,stimuli/stim_20210919_power2amp/equal_lnn_AM2Hz_s25_47.m4a,,,,,,,,,,,,
,,,,,41911,2021-09-29_21h25.12.235,judgeSpeechMusic_20210919_logNormShiftAmp_detection_fixFreq,2020.1.2,MacIntel,60,,,,,,,,,,,,,,,,,,,,,,,,,,,,,,2,7.441,,0,0,45,45,10,1,stimuli/stim_20210919_power2amp/equal_lnn_AM2Hz_s15_31.m4a,,,,,,,,,,,,
,,,,,41911,2021-09-29_21h25.12.235,judgeSpeechMusic_20210919_logNormShiftAmp_detection_fixFreq,2020.1.2,MacIntel,60,,,,,,,,,,,,,,,,,,,,,,,,,,,,,,1,7.6564,,0,0,46,46,61,1,stimuli/stim_20210919_power2amp/equal_lnn_AM2Hz_s55_15.m4a,,,,,,,,,,,,
,,,,,41911,2021-09-29_21h25.12.235,judgeSpeechMusic_20210919_logNormShiftAmp_detection_fixFreq,2020.1.2,MacIntel,60,,,,,,,,,,,,,,,,,,,,,,,,,,,,,,2,6.9411,,0,0,47,47,56,1,stimuli/stim_20210919_power2amp/equal_lnn_AM2Hz_s45_32.m4a,,,,,,,,,,,,
,,,,,41911,2021-09-29_21h25.12.235,judgeSpeechMusic_20210919_logNormShiftAmp_detection_fixFreq,2020.1.2,MacIntel,60,,,,,,,,,,,,,,,,,,,,,,,,,,,,,,1,7.988,,0,0,48,48,15,1,stimuli/stim_20210919_power2amp/equal_lnn_AM2Hz_s25_50.m4a,,,,,,,,,,,,
,,,,,41911,2021-09-29_21h25.12.235,judgeSpeechMusic_20210919_logNormShiftAmp_detection_fixFreq,2020.1.2,MacIntel,60,,,,,,,,,,,,,,,,,,,,,,,,,,,,,,2,7.8917,,0,0,49,49,12,1,stimuli/stim_20210919_power2amp/equal_lnn_AM2Hz_s15_34.m4a,,,,,,,,,,,,
,,,,,41911,2021-09-29_21h25.12.235,judgeSpeechMusic_20210919_logNormShiftAmp_detection_fixFreq,2020.1.2,MacIntel,60,,,,,,,,,,,,,,,,,,,,,,,,,,,,,,2,8.8608,,0,0,50,50,51,1,stimuli/stim_20210919_power2amp/equal_lnn_AM2Hz_s45_16.m4a,,,,,,,,,,,,
,,,,,41911,2021-09-29_21h25.12.235,judgeSpeechMusic_20210919_logNormShiftAmp_detection_fixFreq,2020.1.2,MacIntel,60,,,,,,,,,,,,,,,,,,,,,,,,,,,,,,1,7.5929,,0,0,51,51,25,1,stimuli/stim_20210919_power2amp/equal_lnn_AM2Hz_s25_4.m4a,,,,,,,,,,,,
,,,,,41911,2021-09-29_21h25.12.235,judgeSpeechMusic_20210919_logNormShiftAmp_detection_fixFreq,2020.1.2,MacIntel,60,,,,,,,,,,,,,,,,,,,,,,,,,,,,,,2,11.7229,,0,0,52,52,46,1,stimuli/stim_20210919_power2amp/equal_lnn_AM2Hz_s45_40.m4a,,,,,,,,,,,,
,,,,,41911,2021-09-29_21h25.12.235,judgeSpeechMusic_20210919_logNormShiftAmp_detection_fixFreq,2020.1.2,MacIntel,60,,,,,,,,,,,,,,,,,,,,,,,,,,,,,,1,7.2232,,0,0,53,53,60,1,stimuli/stim_20210919_power2amp/equal_lnn_AM2Hz_s55_29.m4a,,,,,,,,,,,,
,,,,,41911,2021-09-29_21h25.12.235,judgeSpeechMusic_20210919_logNormShiftAmp_detection_fixFreq,2020.1.2,MacIntel,60,,,,,,,,,,,,,,,,,,,,,,,,,,,,,,1,6.6896,,0,0,54,54,48,1,stimuli/stim_20210919_power2amp/equal_lnn_AM2Hz_s45_34.m4a,,,,,,,,,,,,
,,,,,41911,2021-09-29_21h25.12.235,judgeSpeechMusic_20210919_logNormShiftAmp_detection_fixFreq,2020.1.2,MacIntel,60,,,,,,,,,,,,,,,,,,,,,,,,,,,,,,2,5.993,,0,0,55,55,74,1,stimuli/stim_20210919_power2amp/equal_lnn_AM2Hz_s55_30.m4a,,,,,,,,,,,,
,,,,,41911,2021-09-29_21h25.12.235,judgeSpeechMusic_20210919_logNormShiftAmp_detection_fixFreq,2020.1.2,MacIntel,60,,,,,,,,,,,,,,,,,,,,,,,,,,,,,,1,7.6563,,0,0,56,56,68,1,stimuli/stim_20210919_power2amp/equal_lnn_AM2Hz_s55_2.m4a,,,,,,,,,,,,
,,,,,41911,2021-09-29_21h25.12.235,judgeSpeechMusic_20210919_logNormShiftAmp_detection_fixFreq,2020.1.2,MacIntel,60,,,,,,,,,,,,,,,,,,,,,,,,,,,,,,1,6.9904,,0,0,57,57,23,1,stimuli/stim_20210919_power2amp/equal_lnn_AM2Hz_s25_17.m4a,,,,,,,,,,,,
,,,,,41911,2021-09-29_21h25.12.235,judgeSpeechMusic_20210919_logNormShiftAmp_detection_fixFreq,2020.1.2,MacIntel,60,,,,,,,,,,,,,,,,,,,,,,,,,,,,,,2,6.496,,0,0,58,58,58,1,stimuli/stim_20210919_power2amp/equal_lnn_AM2Hz_s45_1.m4a,,,,,,,,,,,,
,,,,,41911,2021-09-29_21h25.12.235,judgeSpeechMusic_20210919_logNormShiftAmp_detection_fixFreq,2020.1.2,MacIntel,60,,,,,,,,,,,,,,,,,,,,,,,,,,,,,,2,38.6253,,0,0,59,59,43,1,stimuli/stim_20210919_power2amp/equal_lnn_AM2Hz_s35_18.m4a,,,,,,,,,,,,
,,,,,41911,2021-09-29_21h25.12.235,judgeSpeechMusic_20210919_logNormShiftAmp_detection_fixFreq,2020.1.2,MacIntel,60,,,,,,,,,,,,,,,,,,,,,,,,,,,,,,1,12.3383,,0,0,60,60,3,1,stimuli/stim_20210919_power2amp/equal_lnn_AM2Hz_s15_9.m4a,,,,,,,,,,,,
,,,,,41911,2021-09-29_21h25.12.235,judgeSpeechMusic_20210919_logNormShiftAmp_detection_fixFreq,2020.1.2,MacIntel,60,,,,,,,,,,,,,,,,,,,,,,,,,,,,,,1,18.8086,3,1,0,61,61,39,1,stimuli/stim_20210919_power2amp/equal_lnn_AM2Hz_s35_10.m4a,1.7934,,,,,,,,,,,
,,,,,41911,2021-09-29_21h25.12.235,judgeSpeechMusic_20210919_logNormShiftAmp_detection_fixFreq,2020.1.2,MacIntel,60,,,,,,,,,,,,,,,,,,,,,,,,,,,,,,1,18.7886,,0,0,62,62,63,1,stimuli/stim_20210919_power2amp/equal_lnn_AM2Hz_s55_25.m4a,,,,,,,,,,,,
,,,,,41911,2021-09-29_21h25.12.235,judgeSpeechMusic_20210919_logNormShiftAmp_detection_fixFreq,2020.1.2,MacIntel,60,,,,,,,,,,,,,,,,,,,,,,,,,,,,,,1,7.9099,,0,0,63,63,62,1,stimuli/stim_20210919_power2amp/equal_lnn_AM2Hz_s55_34.m4a,,,,,,,,,,,,
,,,,,41911,2021-09-29_21h25.12.235,judgeSpeechMusic_20210919_logNormShiftAmp_detection_fixFreq,2020.1.2,MacIntel,60,,,,,,,,,,,,,,,,,,,,,,,,,,,,,,1,7.139,,0,0,64,64,70,1,stimuli/stim_20210919_power2amp/equal_lnn_AM2Hz_s55_31.m4a,,,,,,,,,,,,
,,,,,41911,2021-09-29_21h25.12.235,judgeSpeechMusic_20210919_logNormShiftAmp_detection_fixFreq,2020.1.2,MacIntel,60,,,,,,,,,,,,,,,,,,,,,,,,,,,,,,1,7.9131,,0,0,65,65,14,1,stimuli/stim_20210919_power2amp/equal_lnn_AM2Hz_s15_42.m4a,,,,,,,,,,,,
,,,,,41911,2021-09-29_21h25.12.235,judgeSpeechMusic_20210919_logNormShiftAmp_detection_fixFreq,2020.1.2,MacIntel,60,,,,,,,,,,,,,,,,,,,,,,,,,,,,,,2,7.6389,,0,0,66,66,47,1,stimuli/stim_20210919_power2amp/equal_lnn_AM2Hz_s45_29.m4a,,,,,,,,,,,,
,,,,,41911,2021-09-29_21h25.12.235,judgeSpeechMusic_20210919_logNormShiftAmp_detection_fixFreq,2020.1.2,MacIntel,60,,,,,,,,,,,,,,,,,,,,,,,,,,,,,,1,12.5901,,0,0,67,67,29,1,stimuli/stim_20210919_power2amp/equal_lnn_AM2Hz_s25_36.m4a,,,,,,,,,,,,
,,,,,41911,2021-09-29_21h25.12.235,judgeSpeechMusic_20210919_logNormShiftAmp_detection_fixFreq,2020.1.2,MacIntel,60,,,,,,,,,,,,,,,,,,,,,,,,,,,,,,2,6.8245,,0,0,68,68,28,1,stimuli/stim_20210919_power2amp/equal_lnn_AM2Hz_s25_2.m4a,,,,,,,,,,,,
,,,,,41911,2021-09-29_21h25.12.235,judgeSpeechMusic_20210919_logNormShiftAmp_detection_fixFreq,2020.1.2,MacIntel,60,,,,,,,,,,,,,,,,,,,,,,,,,,,,,,2,9.6236,,0,0,69,69,37,1,stimuli/stim_20210919_power2amp/equal_lnn_AM2Hz_s35_39.m4a,,,,,,,,,,,,
,,,,,41911,2021-09-29_21h25.12.235,judgeSpeechMusic_20210919_logNormShiftAmp_detection_fixFreq,2020.1.2,MacIntel,60,,,,,,,,,,,,,,,,,,,,,,,,,,,,,,1,17.9597,,0,0,70,70,1,1,stimuli/stim_20210919_power2amp/equal_lnn_AM2Hz_s15_50.m4a,,,,,,,,,,,,
,,,,,41911,2021-09-29_21h25.12.235,judgeSpeechMusic_20210919_logNormShiftAmp_detection_fixFreq,2020.1.2,MacIntel,60,,,,,,,,,,,,,,,,,,,,,,,,,,,,,,1,21.4637,,0,0,71,71,73,1,stimuli/stim_20210919_power2amp/equal_lnn_AM2Hz_s55_5.m4a,,,,,,,,,,,,
,,,,,41911,2021-09-29_21h25.12.235,judgeSpeechMusic_20210919_logNormShiftAmp_detection_fixFreq,2020.1.2,MacIntel,60,,,,,,,,,,,,,,,,,,,,,,,,,,,,,,2,7.2553,,0,0,72,72,38,1,stimuli/stim_20210919_power2amp/equal_lnn_AM2Hz_s35_24.m4a,,,,,,,,,,,,
,,,,,41911,2021-09-29_21h25.12.235,judgeSpeechMusic_20210919_logNormShiftAmp_detection_fixFreq,2020.1.2,MacIntel,60,,,,,,,,,,,,,,,,,,,,,,,,,,,,,,1,24.6624,,0,0,73,73,0,1,stimuli/stim_20210919_power2amp/equal_lnn_AM2Hz_s15_35.m4a,,,,,,,,,,,,
,,,,,41911,2021-09-29_21h25.12.235,judgeSpeechMusic_20210919_logNormShiftAmp_detection_fixFreq,2020.1.2,MacIntel,60,,,,,,,,,,,,,,,,,,,,,,,,,,,,,,1,6.9561,,0,0,74,74,64,1,stimuli/stim_20210919_power2amp/equal_lnn_AM2Hz_s55_40.m4a,,,,,,,,,,,,
,,,,,41911,2021-09-29_21h25.12.235,judgeSpeechMusic_20210919_logNormShiftAmp_detection_fixFreq,2020.1.2,MacIntel,60,,,,,,,,,,,,,,,,,,,,,,,,,,,,,,,,,,,,,,,,,space,1.1921,0,0,0,1,1,SPEECH,stimuli/SPEECH.jpg,,
,,,,,41911,2021-09-29_21h25.12.235,judgeSpeechMusic_20210919_logNormShiftAmp_detection_fixFreq,2020.1.2,MacIntel,60,,,,,,,,,,,,,space,23.2817,1,6.742,,0,0,0,0,2,1,stimuli/stim_20210919_power2amp/equal_lnn_AM_training2Hz_s40.m4a,,,,,,,,,,,,,,,,,,,,,,,,,,,
,,,,,41911,2021-09-29_21h25.12.235,judgeSpeechMusic_20210919_logNormShiftAmp_detection_fixFreq,2020.1.2,MacIntel,60,,,,,,,,,,,,,,,2,6.6701,,0,0,1,1,0,1,stimuli/stim_20210919_power2amp/equal_lnn_AM_training2Hz_s20.m4a,,,,,,,,,,,,,,,,,,,,,,,,,,,
,,,,,41911,2021-09-29_21h25.12.235,judgeSpeechMusic_20210919_logNormShiftAmp_detection_fixFreq,2020.1.2,MacIntel,60,,,,,,,,,,,,,,,1,6.8375,1,1,0,2,2,3,1,stimuli/stim_20210919_power2amp/equal_lnn_AM_training2Hz_s50.m4a,1.3972,,,,,,,,,,,,,,,,,,,,,,,,,,
,,,,,41911,2021-09-29_21h25.12.235,judgeSpeechMusic_20210919_logNormShiftAmp_detection_fixFreq,2020.1.2,MacIntel,60,,,,,,,,,,,,,,,1,7.1713,,0,0,3,3,1,1,stimuli/stim_20210919_power2amp/equal_lnn_AM_training2Hz_s30.m4a,,,,,,,,,,,,,,,,,,,,,,,,,,,
,,,,,41911,2021-09-29_21h25.12.235,judgeSpeechMusic_20210919_logNormShiftAmp_detection_fixFreq,2020.1.2,MacIntel,60,,,,,,,,,,,,,,,,,,,,,,,,,,space,3.1442,space,0.3364,1,7.2171,,0,0,0,0,17,1,stimuli/stim_20210919_power2amp/equal_lnn_AM2Hz_s25_40.m4a,,,,,,,,,,,,
,,,,,41911,2021-09-29_21h25.12.235,judgeSpeechMusic_20210919_logNormShiftAmp_detection_fixFreq,2020.1.2,MacIntel,60,,,,,,,,,,,,,,,,,,,,,,,,,,,,,,1,6.8265,,0,0,1,1,52,1,stimuli/stim_20210919_power2amp/equal_lnn_AM2Hz_s45_43.m4a,,,,,,,,,,,,
,,,,,41911,2021-09-29_21h25.12.235,judgeSpeechMusic_20210919_logNormShiftAmp_detection_fixFreq,2020.1.2,MacIntel,60,,,,,,,,,,,,,,,,,,,,,,,,,,,,,,2,6.7215,,0,0,2,2,64,1,stimuli/stim_20210919_power2amp/equal_lnn_AM2Hz_s55_40.m4a,,,,,,,,,,,,
,,,,,41911,2021-09-29_21h25.12.235,judgeSpeechMusic_20210919_logNormShiftAmp_detection_fixFreq,2020.1.2,MacIntel,60,,,,,,,,,,,,,,,,,,,,,,,,,,,,,,1,8.5917,,0,0,3,3,48,1,stimuli/stim_20210919_power2amp/equal_lnn_AM2Hz_s45_34.m4a,,,,,,,,,,,,
,,,,,41911,2021-09-29_21h25.12.235,judgeSpeechMusic_20210919_logNormShiftAmp_detection_fixFreq,2020.1.2,MacIntel,60,,,,,,,,,,,,,,,,,,,,,,,,,,,,,,1,17.9897,,0,0,4,4,58,1,stimuli/stim_20210919_power2amp/equal_lnn_AM2Hz_s45_1.m4a,,,,,,,,,,,,
,,,,,41911,2021-09-29_21h25.12.235,judgeSpeechMusic_20210919_logNormShiftAmp_detection_fixFreq,2020.1.2,MacIntel,60,,,,,,,,,,,,,,,,,,,,,,,,,,,,,,2,7.9929,,0,0,5,5,70,1,stimuli/stim_20210919_power2amp/equal_lnn_AM2Hz_s55_31.m4a,,,,,,,,,,,,
,,,,,41911,2021-09-29_21h25.12.235,judgeSpeechMusic_20210919_logNormShiftAmp_detection_fixFreq,2020.1.2,MacIntel,60,,,,,,,,,,,,,,,,,,,,,,,,,,,,,,2,11.2881,,0,0,6,6,27,1,stimuli/stim_20210919_power2amp/equal_lnn_AM2Hz_s25_47.m4a,,,,,,,,,,,,
,,,,,41911,2021-09-29_21h25.12.235,judgeSpeechMusic_20210919_logNormShiftAmp_detection_fixFreq,2020.1.2,MacIntel,60,,,,,,,,,,,,,,,,,,,,,,,,,,,,,,1,6.7445,,0,0,7,7,45,1,stimuli/stim_20210919_power2amp/equal_lnn_AM2Hz_s45_7.m4a,,,,,,,,,,,,
,,,,,41911,2021-09-29_21h25.12.235,judgeSpeechMusic_20210919_logNormShiftAmp_detection_fixFreq,2020.1.2,MacIntel,60,,,,,,,,,,,,,,,,,,,,,,,,,,,,,,1,20.0891,,0,0,8,8,50,1,stimuli/stim_20210919_power2amp/equal_lnn_AM2Hz_s45_11.m4a,,,,,,,,,,,,
,,,,,41911,2021-09-29_21h25.12.235,judgeSpeechMusic_20210919_logNormShiftAmp_detection_fixFreq,2020.1.2,MacIntel,60,,,,,,,,,,,,,,,,,,,,,,,,,,,,,,2,6.8559,,0,0,9,9,71,1,stimuli/stim_20210919_power2amp/equal_lnn_AM2Hz_s55_28.m4a,,,,,,,,,,,,
,,,,,41911,2021-09-29_21h25.12.235,judgeSpeechMusic_20210919_logNormShiftAmp_detection_fixFreq,2020.1.2,MacIntel,60,,,,,,,,,,,,,,,,,,,,,,,,,,,,,,1,5.958,,0,0,10,10,55,1,stimuli/stim_20210919_power2amp/equal_lnn_AM2Hz_s45_27.m4a,,,,,,,,,,,,
,,,,,41911,2021-09-29_21h25.12.235,judgeSpeechMusic_20210919_logNormShiftAmp_detection_fixFreq,2020.1.2,MacIntel,60,,,,,,,,,,,,,,,,,,,,,,,,,,,,,,1,5.6775,,0,0,11,11,32,1,stimuli/stim_20210919_power2amp/equal_lnn_AM2Hz_s35_28.m4a,,,,,,,,,,,,
,,,,,41911,2021-09-29_21h25.12.235,judgeSpeechMusic_20210919_logNormShiftAmp_detection_fixFreq,2020.1.2,MacIntel,60,,,,,,,,,,,,,,,,,,,,,,,,,,,,,,2,5.6959,,0,0,12,12,23,1,stimuli/stim_20210919_power2amp/equal_lnn_AM2Hz_s25_17.m4a,,,,,,,,,,,,
,,,,,41911,2021-09-29_21h25.12.235,judgeSpeechMusic_20210919_logNormShiftAmp_detection_fixFreq,2020.1.2,MacIntel,60,,,,,,,,,,,,,,,,,,,,,,,,,,,,,,2,5.2398,,0,0,13,13,59,1,stimuli/stim_20210919_power2amp/equal_lnn_AM2Hz_s45_18.m4a,,,,,,,,,,,,
,,,,,41911,2021-09-29_21h25.12.235,judgeSpeechMusic_20210919_logNormShiftAmp_detection_fixFreq,2020.1.2,MacIntel,60,,,,,,,,,,,,,,,,,,,,,,,,,,,,,,2,6.0904,,0,0,14,14,0,1,stimuli/stim_20210919_power2amp/equal_lnn_AM2Hz_s15_35.m4a,,,,,,,,,,,,
,,,,,41911,2021-09-29_21h25.12.235,judgeSpeechMusic_20210919_logNormShiftAmp_detection_fixFreq,2020.1.2,MacIntel,60,,,,,,,,,,,,,,,,,,,,,,,,,,,,,,2,5.8108,,0,0,15,15,66,1,stimuli/stim_20210919_power2amp/equal_lnn_AM2Hz_s55_36.m4a,,,,,,,,,,,,
,,,,,41911,2021-09-29_21h25.12.235,judgeSpeechMusic_20210919_logNormShiftAmp_detection_fixFreq,2020.1.2,MacIntel,60,,,,,,,,,,,,,,,,,,,,,,,,,,,,,,1,5.607,,0,0,16,16,56,1,stimuli/stim_20210919_power2amp/equal_lnn_AM2Hz_s45_32.m4a,,,,,,,,,,,,
,,,,,41911,2021-09-29_21h25.12.235,judgeSpeechMusic_20210919_logNormShiftAmp_detection_fixFreq,2020.1.2,MacIntel,60,,,,,,,,,,,,,,,,,,,,,,,,,,,,,,1,5.3568,,0,0,17,17,29,1,stimuli/stim_20210919_power2amp/equal_lnn_AM2Hz_s25_36.m4a,,,,,,,,,,,,
,,,,,41911,2021-09-29_21h25.12.235,judgeSpeechMusic_20210919_logNormShiftAmp_detection_fixFreq,2020.1.2,MacIntel,60,,,,,,,,,,,,,,,,,,,,,,,,,,,,,,1,5.8227,,0,0,18,18,57,1,stimuli/stim_20210919_power2amp/equal_lnn_AM2Hz_s45_37.m4a,,,,,,,,,,,,
,,,,,41911,2021-09-29_21h25.12.235,judgeSpeechMusic_20210919_logNormShiftAmp_detection_fixFreq,2020.1.2,MacIntel,60,,,,,,,,,,,,,,,,,,,,,,,,,,,,,,2,5.9252,,0,0,19,19,25,1,stimuli/stim_20210919_power2amp/equal_lnn_AM2Hz_s25_4.m4a,,,,,,,,,,,,
,,,,,41911,2021-09-29_21h25.12.235,judgeSpeechMusic_20210919_logNormShiftAmp_detection_fixFreq,2020.1.2,MacIntel,60,,,,,,,,,,,,,,,,,,,,,,,,,,,,,,1,6.4419,,0,0,20,20,69,1,stimuli/stim_20210919_power2amp/equal_lnn_AM2Hz_s55_26.m4a,,,,,,,,,,,,
,,,,,41911,2021-09-29_21h25.12.235,judgeSpeechMusic_20210919_logNormShiftAmp_detection_fixFreq,2020.1.2,MacIntel,60,,,,,,,,,,,,,,,,,,,,,,,,,,,,,,1,6.523,,0,0,21,21,5,1,stimuli/stim_20210919_power2amp/equal_lnn_AM2Hz_s15_49.m4a,,,,,,,,,,,,
,,,,,41911,2021-09-29_21h25.12.235,judgeSpeechMusic_20210919_logNormShiftAmp_detection_fixFreq,2020.1.2,MacIntel,60,,,,,,,,,,,,,,,,,,,,,,,,,,,,,,1,12.2071,4,1,0,22,22,67,1,stimuli/stim_20210919_power2amp/equal_lnn_AM2Hz_s55_32.m4a,1.8287,,,,,,,,,,,
,,,,,41911,2021-09-29_21h25.12.235,judgeSpeechMusic_20210919_logNormShiftAmp_detection_fixFreq,2020.1.2,MacIntel,60,,,,,,,,,,,,,,,,,,,,,,,,,,,,,,1,18.3572,,0,0,23,23,36,1,stimuli/stim_20210919_power2amp/equal_lnn_AM2Hz_s35_9.m4a,,,,,,,,,,,,
,,,,,41911,2021-09-29_21h25.12.235,judgeSpeechMusic_20210919_logNormShiftAmp_detection_fixFreq,2020.1.2,MacIntel,60,,,,,,,,,,,,,,,,,,,,,,,,,,,,,,1,28.0896,,0,0,24,24,35,1,stimuli/stim_20210919_power2amp/equal_lnn_AM2Hz_s35_4.m4a,,,,,,,,,,,,
,,,,,41911,2021-09-29_21h25.12.235,judgeSpeechMusic_20210919_logNormShiftAmp_detection_fixFreq,2020.1.2,MacIntel,60,,,,,,,,,,,,,,,,,,,,,,,,,,,,,,2,17.2903,,0,0,25,25,41,1,stimuli/stim_20210919_power2amp/equal_lnn_AM2Hz_s35_14.m4a,,,,,,,,,,,,
,,,,,41911,2021-09-29_21h25.12.235,judgeSpeechMusic_20210919_logNormShiftAmp_detection_fixFreq,2020.1.2,MacIntel,60,,,,,,,,,,,,,,,,,,,,,,,,,,,,,,1,6.3208,,0,0,26,26,4,1,stimuli/stim_20210919_power2amp/equal_lnn_AM2Hz_s15_7.m4a,,,,,,,,,,,,
,,,,,41911,2021-09-29_21h25.12.235,judgeSpeechMusic_20210919_logNormShiftAmp_detection_fixFreq,2020.1.2,MacIntel,60,,,,,,,,,,,,,,,,,,,,,,,,,,,,,,1,10.179,,0,0,27,27,40,1,stimuli/stim_20210919_power2amp/equal_lnn_AM2Hz_s35_22.m4a,,,,,,,,,,,,
,,,,,41911,2021-09-29_21h25.12.235,judgeSpeechMusic_20210919_logNormShiftAmp_detection_fixFreq,2020.1.2,MacIntel,60,,,,,,,,,,,,,,,,,,,,,,,,,,,,,,1,9.2711,,0,0,28,28,22,1,stimuli/stim_20210919_power2amp/equal_lnn_AM2Hz_s25_38.m4a,,,,,,,,,,,,
,,,,,41911,2021-09-29_21h25.12.235,judgeSpeechMusic_20210919_logNormShiftAmp_detection_fixFreq,2020.1.2,MacIntel,60,,,,,,,,,,,,,,,,,,,,,,,,,,,,,,2,16.1462,,0,0,29,29,19,1,stimuli/stim_20210919_power2amp/equal_lnn_AM2Hz_s25_23.m4a,,,,,,,,,,,,
,,,,,41911,2021-09-29_21h25.12.235,judgeSpeechMusic_20210919_logNormShiftAmp_detection_fixFreq,2020.1.2,MacIntel,60,,,,,,,,,,,,,,,,,,,,,,,,,,,,,,1,8.0096,,0,0,30,30,26,1,stimuli/stim_20210919_power2amp/equal_lnn_AM2Hz_s25_46.m4a,,,,,,,,,,,,
,,,,,41911,2021-09-29_21h25.12.235,judgeSpeechMusic_20210919_logNormShiftAmp_detection_fixFreq,2020.1.2,MacIntel,60,,,,,,,,,,,,,,,,,,,,,,,,,,,,,,1,6.0938,,0,0,31,31,8,1,stimuli/stim_20210919_power2amp/equal_lnn_AM2Hz_s15_30.m4a,,,,,,,,,,,,
,,,,,41911,2021-09-29_21h25.12.235,judgeSpeechMusic_20210919_logNormShiftAmp_detection_fixFreq,2020.1.2,MacIntel,60,,,,,,,,,,,,,,,,,,,,,,,,,,,,,,2,6.557,,0,0,32,32,33,1,stimuli/stim_20210919_power2amp/equal_lnn_AM2Hz_s35_5.m4a,,,,,,,,,,,,
,,,,,41911,2021-09-29_21h25.12.235,judgeSpeechMusic_20210919_logNormShiftAmp_detection_fixFreq,2020.1.2,MacIntel,60,,,,,,,,,,,,,,,,,,,,,,,,,,,,,,1,6.8617,,0,0,33,33,24,1,stimuli/stim_20210919_power2amp/equal_lnn_AM2Hz_s25_33.m4a,,,,,,,,,,,,
,,,,,41911,2021-09-29_21h25.12.235,judgeSpeechMusic_20210919_logNormShiftAmp_detection_fixFreq,2020.1.2,MacIntel,60,,,,,,,,,,,,,,,,,,,,,,,,,,,,,,2,6.0038,,0,0,34,34,7,1,stimuli/stim_20210919_power2amp/equal_lnn_AM2Hz_s15_21.m4a,,,,,,,,,,,,
,,,,,41911,2021-09-29_21h25.12.235,judgeSpeechMusic_20210919_logNormShiftAmp_detection_fixFreq,2020.1.2,MacIntel,60,,,,,,,,,,,,,,,,,,,,,,,,,,,,,,2,6.4405,,0,0,35,35,6,1,stimuli/stim_20210919_power2amp/equal_lnn_AM2Hz_s15_45.m4a,,,,,,,,,,,,
,,,,,41911,2021-09-29_21h25.12.235,judgeSpeechMusic_20210919_logNormShiftAmp_detection_fixFreq,2020.1.2,MacIntel,60,,,,,,,,,,,,,,,,,,,,,,,,,,,,,,2,5.8761,,0,0,36,36,34,1,stimuli/stim_20210919_power2amp/equal_lnn_AM2Hz_s35_37.m4a,,,,,,,,,,,,
,,,,,41911,2021-09-29_21h25.12.235,judgeSpeechMusic_20210919_logNormShiftAmp_detection_fixFreq,2020.1.2,MacIntel,60,,,,,,,,,,,,,,,,,,,,,,,,,,,,,,2,5.4562,,0,0,37,37,30,1,stimuli/stim_20210919_power2amp/equal_lnn_AM2Hz_s35_42.m4a,,,,,,,,,,,,
,,,,,41911,2021-09-29_21h25.12.235,judgeSpeechMusic_20210919_logNormShiftAmp_detection_fixFreq,2020.1.2,MacIntel,60,,,,,,,,,,,,,,,,,,,,,,,,,,,,,,1,7.239,,0,0,38,38,43,1,stimuli/stim_20210919_power2amp/equal_lnn_AM2Hz_s35_18.m4a,,,,,,,,,,,,
,,,,,41911,2021-09-29_21h25.12.235,judgeSpeechMusic_20210919_logNormShiftAmp_detection_fixFreq,2020.1.2,MacIntel,60,,,,,,,,,,,,,,,,,,,,,,,,,,,,,,1,6.2387,,0,0,39,39,31,1,stimuli/stim_20210919_power2amp/equal_lnn_AM2Hz_s35_20.m4a,,,,,,,,,,,,
,,,,,41911,2021-09-29_21h25.12.235,judgeSpeechMusic_20210919_logNormShiftAmp_detection_fixFreq,2020.1.2,MacIntel,60,,,,,,,,,,,,,,,,,,,,,,,,,,,,,,2,7.5237,,0,0,40,40,16,1,stimuli/stim_20210919_power2amp/equal_lnn_AM2Hz_s25_7.m4a,,,,,,,,,,,,
,,,,,41911,2021-09-29_21h25.12.235,judgeSpeechMusic_20210919_logNormShiftAmp_detection_fixFreq,2020.1.2,MacIntel,60,,,,,,,,,,,,,,,,,,,,,,,,,,,,,,1,6.7764,2,1,0,41,41,49,1,stimuli/stim_20210919_power2amp/equal_lnn_AM2Hz_s45_31.m4a,1.2958,,,,,,,,,,,
,,,,,41911,2021-09-29_21h25.12.235,judgeSpeechMusic_20210919_logNormShiftAmp_detection_fixFreq,2020.1.2,MacIntel,60,,,,,,,,,,,,,,,,,,,,,,,,,,,,,,1,10.8073,,0,0,42,42,74,1,stimuli/stim_20210919_power2amp/equal_lnn_AM2Hz_s55_30.m4a,,,,,,,,,,,,
,,,,,41911,2021-09-29_21h25.12.235,judgeSpeechMusic_20210919_logNormShiftAmp_detection_fixFreq,2020.1.2,MacIntel,60,,,,,,,,,,,,,,,,,,,,,,,,,,,,,,1,6.8063,,0,0,43,43,11,1,stimuli/stim_20210919_power2amp/equal_lnn_AM2Hz_s15_18.m4a,,,,,,,,,,,,
,,,,,41911,2021-09-29_21h25.12.235,judgeSpeechMusic_20210919_logNormShiftAmp_detection_fixFreq,2020.1.2,MacIntel,60,,,,,,,,,,,,,,,,,,,,,,,,,,,,,,2,6.6061,,0,0,44,44,53,1,stimuli/stim_20210919_power2amp/equal_lnn_AM2Hz_s45_2.m4a,,,,,,,,,,,,
,,,,,41911,2021-09-29_21h25.12.235,judgeSpeechMusic_20210919_logNormShiftAmp_detection_fixFreq,2020.1.2,MacIntel,60,,,,,,,,,,,,,,,,,,,,,,,,,,,,,,2,6.2411,,0,0,45,45,68,1,stimuli/stim_20210919_power2amp/equal_lnn_AM2Hz_s55_2.m4a,,,,,,,,,,,,
,,,,,41911,2021-09-29_21h25.12.235,judgeSpeechMusic_20210919_logNormShiftAmp_detection_fixFreq,2020.1.2,MacIntel,60,,,,,,,,,,,,,,,,,,,,,,,,,,,,,,1,6.5764,,0,0,46,46,46,1,stimuli/stim_20210919_power2amp/equal_lnn_AM2Hz_s45_40.m4a,,,,,,,,,,,,
,,,,,41911,2021-09-29_21h25.12.235,judgeSpeechMusic_20210919_logNormShiftAmp_detection_fixFreq,2020.1.2,MacIntel,60,,,,,,,,,,,,,,,,,,,,,,,,,,,,,,1,16.9568,,0,0,47,47,61,1,stimuli/stim_20210919_power2amp/equal_lnn_AM2Hz_s55_15.m4a,,,,,,,,,,,,
,,,,,41911,2021-09-29_21h25.12.235,judgeSpeechMusic_20210919_logNormShiftAmp_detection_fixFreq,2020.1.2,MacIntel,60,,,,,,,,,,,,,,,,,,,,,,,,,,,,,,1,7.6409,,0,0,48,48,28,1,stimuli/stim_20210919_power2amp/equal_lnn_AM2Hz_s25_2.m4a,,,,,,,,,,,,
,,,,,41911,2021-09-29_21h25.12.235,judgeSpeechMusic_20210919_logNormShiftAmp_detection_fixFreq,2020.1.2,MacIntel,60,,,,,,,,,,,,,,,,,,,,,,,,,,,,,,2,8.0412,,0,0,49,49,60,1,stimuli/stim_20210919_power2amp/equal_lnn_AM2Hz_s55_29.m4a,,,,,,,,,,,,
,,,,,41911,2021-09-29_21h25.12.235,judgeSpeechMusic_20210919_logNormShiftAmp_detection_fixFreq,2020.1.2,MacIntel,60,,,,,,,,,,,,,,,,,,,,,,,,,,,,,,1,6.7083,,0,0,50,50,54,1,stimuli/stim_20210919_power2amp/equal_lnn_AM2Hz_s45_46.m4a,,,,,,,,,,,,
,,,,,41911,2021-09-29_21h25.12.235,judgeSpeechMusic_20210919_logNormShiftAmp_detection_fixFreq,2020.1.2,MacIntel,60,,,,,,,,,,,,,,,,,,,,,,,,,,,,,,2,6.4272,,0,0,51,51,15,1,stimuli/stim_20210919_power2amp/equal_lnn_AM2Hz_s25_50.m4a,,,,,,,,,,,,
,,,,,41911,2021-09-29_21h25.12.235,judgeSpeechMusic_20210919_logNormShiftAmp_detection_fixFreq,2020.1.2,MacIntel,60,,,,,,,,,,,,,,,,,,,,,,,,,,,,,,1,6.5439,,0,0,52,52,14,1,stimuli/stim_20210919_power2amp/equal_lnn_AM2Hz_s15_42.m4a,,,,,,,,,,,,
,,,,,41911,2021-09-29_21h25.12.235,judgeSpeechMusic_20210919_logNormShiftAmp_detection_fixFreq,2020.1.2,MacIntel,60,,,,,,,,,,,,,,,,,,,,,,,,,,,,,,1,6.4226,,0,0,53,53,47,1,stimuli/stim_20210919_power2amp/equal_lnn_AM2Hz_s45_29.m4a,,,,,,,,,,,,
,,,,,41911,2021-09-29_21h25.12.235,judgeSpeechMusic_20210919_logNormShiftAmp_detection_fixFreq,2020.1.2,MacIntel,60,,,,,,,,,,,,,,,,,,,,,,,,,,,,,,2,5.9233,,0,0,54,54,18,1,stimuli/stim_20210919_power2amp/equal_lnn_AM2Hz_s25_43.m4a,,,,,,,,,,,,
,,,,,41911,2021-09-29_21h25.12.235,judgeSpeechMusic_20210919_logNormShiftAmp_detection_fixFreq,2020.1.2,MacIntel,60,,,,,,,,,,,,,,,,,,,,,,,,,,,,,,2,5.9738,,0,0,55,55,39,1,stimuli/stim_20210919_power2amp/equal_lnn_AM2Hz_s35_10.m4a,,,,,,,,,,,,
,,,,,41911,2021-09-29_21h25.12.235,judgeSpeechMusic_20210919_logNormShiftAmp_detection_fixFreq,2020.1.2,MacIntel,60,,,,,,,,,,,,,,,,,,,,,,,,,,,,,,2,5.6934,,0,0,56,56,37,1,stimuli/stim_20210919_power2amp/equal_lnn_AM2Hz_s35_39.m4a,,,,,,,,,,,,
,,,,,41911,2021-09-29_21h25.12.235,judgeSpeechMusic_20210919_logNormShiftAmp_detection_fixFreq,2020.1.2,MacIntel,60,,,,,,,,,,,,,,,,,,,,,,,,,,,,,,1,7.823,,0,0,57,57,21,1,stimuli/stim_20210919_power2amp/equal_lnn_AM2Hz_s25_34.m4a,,,,,,,,,,,,
,,,,,41911,2021-09-29_21h25.12.235,judgeSpeechMusic_20210919_logNormShiftAmp_detection_fixFreq,2020.1.2,MacIntel,60,,,,,,,,,,,,,,,,,,,,,,,,,,,,,,2,10.0062,,0,0,58,58,10,1,stimuli/stim_20210919_power2amp/equal_lnn_AM2Hz_s15_31.m4a,,,,,,,,,,,,
,,,,,41911,2021-09-29_21h25.12.235,judgeSpeechMusic_20210919_logNormShiftAmp_detection_fixFreq,2020.1.2,MacIntel,60,,,,,,,,,,,,,,,,,,,,,,,,,,,,,,1,7.4743,,0,0,59,59,2,1,stimuli/stim_20210919_power2amp/equal_lnn_AM2Hz_s15_12.m4a,,,,,,,,,,,,
,,,,,41911,2021-09-29_21h25.12.235,judgeSpeechMusic_20210919_logNormShiftAmp_detection_fixFreq,2020.1.2,MacIntel,60,,,,,,,,,,,,,,,,,,,,,,,,,,,,,,1,28.3378,,0,0,60,60,12,1,stimuli/stim_20210919_power2amp/equal_lnn_AM2Hz_s15_34.m4a,,,,,,,,,,,,
,,,,,41911,2021-09-29_21h25.12.235,judgeSpeechMusic_20210919_logNormShiftAmp_detection_fixFreq,2020.1.2,MacIntel,60,,,,,,,,,,,,,,,,,,,,,,,,,,,,,,2,13.756,4,1,0,61,61,73,1,stimuli/stim_20210919_power2amp/equal_lnn_AM2Hz_s55_5.m4a,1.1501,,,,,,,,,,,
,,,,,41911,2021-09-29_21h25.12.235,judgeSpeechMusic_20210919_logNormShiftAmp_detection_fixFreq,2020.1.2,MacIntel,60,,,,,,,,,,,,,,,,,,,,,,,,,,,,,,1,7.2386,,0,0,62,62,1,1,stimuli/stim_20210919_power2amp/equal_lnn_AM2Hz_s15_50.m4a,,,,,,,,,,,,
,,,,,41911,2021-09-29_21h25.12.235,judgeSpeechMusic_20210919_logNormShiftAmp_detection_fixFreq,2020.1.2,MacIntel,60,,,,,,,,,,,,,,,,,,,,,,,,,,,,,,1,5.2246,,0,0,63,63,38,1,stimuli/stim_20210919_power2amp/equal_lnn_AM2Hz_s35_24.m4a,,,,,,,,,,,,
,,,,,41911,2021-09-29_21h25.12.235,judgeSpeechMusic_20210919_logNormShiftAmp_detection_fixFreq,2020.1.2,MacIntel,60,,,,,,,,,,,,,,,,,,,,,,,,,,,,,,2,7.0741,,0,0,64,64,13,1,stimuli/stim_20210919_power2amp/equal_lnn_AM2Hz_s15_25.m4a,,,,,,,,,,,,
,,,,,41911,2021-09-29_21h25.12.235,judgeSpeechMusic_20210919_logNormShiftAmp_detection_fixFreq,2020.1.2,MacIntel,60,,,,,,,,,,,,,,,,,,,,,,,,,,,,,,2,10.9577,,0,0,65,65,42,1,stimuli/stim_20210919_power2amp/equal_lnn_AM2Hz_s35_23.m4a,,,,,,,,,,,,
,,,,,41911,2021-09-29_21h25.12.235,judgeSpeechMusic_20210919_logNormShiftAmp_detection_fixFreq,2020.1.2,MacIntel,60,,,,,,,,,,,,,,,,,,,,,,,,,,,,,,1,7.2078,,0,0,66,66,65,1,stimuli/stim_20210919_power2amp/equal_lnn_AM2Hz_s55_43.m4a,,,,,,,,,,,,
,,,,,41911,2021-09-29_21h25.12.235,judgeSpeechMusic_20210919_logNormShiftAmp_detection_fixFreq,2020.1.2,MacIntel,60,,,,,,,,,,,,,,,,,,,,,,,,,,,,,,1,10.1065,,0,0,67,67,20,1,stimuli/stim_20210919_power2amp/equal_lnn_AM2Hz_s25_49.m4a,,,,,,,,,,,,
,,,,,41911,2021-09-29_21h25.12.235,judgeSpeechMusic_20210919_logNormShiftAmp_detection_fixFreq,2020.1.2,MacIntel,60,,,,,,,,,,,,,,,,,,,,,,,,,,,,,,2,7.9218,,0,0,68,68,51,1,stimuli/stim_20210919_power2amp/equal_lnn_AM2Hz_s45_16.m4a,,,,,,,,,,,,
,,,,,41911,2021-09-29_21h25.12.235,judgeSpeechMusic_20210919_logNormShiftAmp_detection_fixFreq,2020.1.2,MacIntel,60,,,,,,,,,,,,,,,,,,,,,,,,,,,,,,2,6.3398,,0,0,69,69,63,1,stimuli/stim_20210919_power2amp/equal_lnn_AM2Hz_s55_25.m4a,,,,,,,,,,,,
,,,,,41911,2021-09-29_21h25.12.235,judgeSpeechMusic_20210919_logNormShiftAmp_detection_fixFreq,2020.1.2,MacIntel,60,,,,,,,,,,,,,,,,,,,,,,,,,,,,,,1,6.8073,,0,0,70,70,9,1,stimuli/stim_20210919_power2amp/equal_lnn_AM2Hz_s15_32.m4a,,,,,,,,,,,,
,,,,,41911,2021-09-29_21h25.12.235,judgeSpeechMusic_20210919_logNormShiftAmp_detection_fixFreq,2020.1.2,MacIntel,60,,,,,,,,,,,,,,,,,,,,,,,,,,,,,,1,6.3725,,0,0,71,71,44,1,stimuli/stim_20210919_power2amp/equal_lnn_AM2Hz_s35_33.m4a,,,,,,,,,,,,
,,,,,41911,2021-09-29_21h25.12.235,judgeSpeechMusic_20210919_logNormShiftAmp_detection_fixFreq,2020.1.2,MacIntel,60,,,,,,,,,,,,,,,,,,,,,,,,,,,,,,1,9.8396,,0,0,72,72,72,1,stimuli/stim_20210919_power2amp/equal_lnn_AM2Hz_s55_23.m4a,,,,,,,,,,,,
,,,,,41911,2021-09-29_21h25.12.235,judgeSpeechMusic_20210919_logNormShiftAmp_detection_fixFreq,2020.1.2,MacIntel,60,,,,,,,,,,,,,,,,,,,,,,,,,,,,,,2,6.6585,,0,0,73,73,3,1,stimuli/stim_20210919_power2amp/equal_lnn_AM2Hz_s15_9.m4a,,,,,,,,,,,,
,,,,,41911,2021-09-29_21h25.12.235,judgeSpeechMusic_20210919_logNormShiftAmp_detection_fixFreq,2020.1.2,MacIntel,60,,,,,,,,,,,,,,,,,,,,,,,,,,,,,,2,8.8962,,0,0,74,74,62,1,stimuli/stim_20210919_power2amp/equal_lnn_AM2Hz_s55_34.m4a,,,,,,,,,,,,
,,,,,41911,2021-09-29_21h25.12.235,judgeSpeechMusic_20210919_logNormShiftAmp_detection_fixFreq,2020.1.2,MacIntel,60,,,,,,,,,,,,,,,,,,,,,,,,,,,,,,,,,,,,,,,,,space,0.4283,0,1,1,0,1,MUSIC,stimuli/MUSIC.jpg,,
,,,,,41911,2021-09-29_21h25.12.235,judgeSpeechMusic_20210919_logNormShiftAmp_detection_fixFreq,2020.1.2,MacIntel,60,,,,,,,,,,,,,,,,,,0,0,0,0,2,1,stimuli/stim_20210919_power2amp/equal_lnn_AM_training2Hz_s40.m4a,,,,,,,,,,,,,,,,,,,,,,,,,,,
,,,,,41911,2021-09-29_21h25.12.235,judgeSpeechMusic_20210919_logNormShiftAmp_detection_fixFreq,2020.1.2,MacIntel,60,,,,,,,,,,,,,,,,,,,,,,,,,,space,4.4457,space,1.8216,2,8.3552,,0,0,0,0,59,1,stimuli/stim_20210919_power2amp/equal_lnn_AM2Hz_s45_18.m4a,,,,,,,,,,,,
,,,,,41911,2021-09-29_21h25.12.235,judgeSpeechMusic_20210919_logNormShiftAmp_detection_fixFreq,2020.1.2,MacIntel,60,,,,,,,,,,,,,,,,,,,,,,,,,,,,,,2,5.9395,,0,0,1,1,20,1,stimuli/stim_20210919_power2amp/equal_lnn_AM2Hz_s25_49.m4a,,,,,,,,,,,,
,,,,,41911,2021-09-29_21h25.12.235,judgeSpeechMusic_20210919_logNormShiftAmp_detection_fixFreq,2020.1.2,MacIntel,60,,,,,,,,,,,,,,,,,,,,,,,,,,,,,,2,14.6409,,0,0,2,2,68,1,stimuli/stim_20210919_power2amp/equal_lnn_AM2Hz_s55_2.m4a,,,,,,,,,,,,
,,,,,41911,2021-09-29_21h25.12.235,judgeSpeechMusic_20210919_logNormShiftAmp_detection_fixFreq,2020.1.2,MacIntel,60,,,,,,,,,,,,,,,,,,,,,,,,,,,,,,1,23.3576,,0,0,3,3,47,1,stimuli/stim_20210919_power2amp/equal_lnn_AM2Hz_s45_29.m4a,,,,,,,,,,,,
,,,,,41911,2021-09-29_21h25.12.235,judgeSpeechMusic_20210919_logNormShiftAmp_detection_fixFreq,2020.1.2,MacIntel,60,,,,,,,,,,,,,,,,,,,,,,,,,,,,,,2,5.9904,,0,0,4,4,49,1,stimuli/stim_20210919_power2amp/equal_lnn_AM2Hz_s45_31.m4a,,,,,,,,,,,,
,,,,,41911,2021-09-29_21h25.12.235,judgeSpeechMusic_20210919_logNormShiftAmp_detection_fixFreq,2020.1.2,MacIntel,60,,,,,,,,,,,,,,,,,,,,,,,,,,,,,,1,5.9256,,0,0,5,5,2,1,stimuli/stim_20210919_power2amp/equal_lnn_AM2Hz_s15_12.m4a,,,,,,,,,,,,
,,,,,41911,2021-09-29_21h25.12.235,judgeSpeechMusic_20210919_logNormShiftAmp_detection_fixFreq,2020.1.2,MacIntel,60,,,,,,,,,,,,,,,,,,,,,,,,,,,,,,1,5.8245,,0,0,6,6,64,1,stimuli/stim_20210919_power2amp/equal_lnn_AM2Hz_s55_40.m4a,,,,,,,,,,,,
,,,,,41911,2021-09-29_21h25.12.235,judgeSpeechMusic_20210919_logNormShiftAmp_detection_fixFreq,2020.1.2,MacIntel,60,,,,,,,,,,,,,,,,,,,,,,,,,,,,,,1,5.2619,,0,0,7,7,62,1,stimuli/stim_20210919_power2amp/equal_lnn_AM2Hz_s55_34.m4a,,,,,,,,,,,,
,,,,,41911,2021-09-29_21h25.12.235,judgeSpeechMusic_20210919_logNormShiftAmp_detection_fixFreq,2020.1.2,MacIntel,60,,,,,,,,,,,,,,,,,,,,,,,,,,,,,,2,6.3386,,0,0,8,8,36,1,stimuli/stim_20210919_power2amp/equal_lnn_AM2Hz_s35_9.m4a,,,,,,,,,,,,
,,,,,41911,2021-09-29_21h25.12.235,judgeSpeechMusic_20210919_logNormShiftAmp_detection_fixFreq,2020.1.2,MacIntel,60,,,,,,,,,,,,,,,,,,,,,,,,,,,,,,1,5.3723,,0,0,9,9,54,1,stimuli/stim_20210919_power2amp/equal_lnn_AM2Hz_s45_46.m4a,,,,,,,,,,,,
,,,,,41911,2021-09-29_21h25.12.235,judgeSpeechMusic_20210919_logNormShiftAmp_detection_fixFreq,2020.1.2,MacIntel,60,,,,,,,,,,,,,,,,,,,,,,,,,,,,,,1,7.0434,,0,0,10,10,44,1,stimuli/stim_20210919_power2amp/equal_lnn_AM2Hz_s35_33.m4a,,,,,,,,,,,,
,,,,,41911,2021-09-29_21h25.12.235,judgeSpeechMusic_20210919_logNormShiftAmp_detection_fixFreq,2020.1.2,MacIntel,60,,,,,,,,,,,,,,,,,,,,,,,,,,,,,,2,14.4571,,0,0,11,11,0,1,stimuli/stim_20210919_power2amp/equal_lnn_AM2Hz_s15_35.m4a,,,,,,,,,,,,
,,,,,41911,2021-09-29_21h25.12.235,judgeSpeechMusic_20210919_logNormShiftAmp_detection_fixFreq,2020.1.2,MacIntel,60,,,,,,,,,,,,,,,,,,,,,,,,,,,,,,1,8.243,,0,0,12,12,60,1,stimuli/stim_20210919_power2amp/equal_lnn_AM2Hz_s55_29.m4a,,,,,,,,,,,,
,,,,,41911,2021-09-29_21h25.12.235,judgeSpeechMusic_20210919_logNormShiftAmp_detection_fixFreq,2020.1.2,MacIntel,60,,,,,,,,,,,,,,,,,,,,,,,,,,,,,,1,5.24,,0,0,13,13,38,1,stimuli/stim_20210919_power2amp/equal_lnn_AM2Hz_s35_24.m4a,,,,,,,,,,,,
,,,,,41911,2021-09-29_21h25.12.235,judgeSpeechMusic_20210919_logNormShiftAmp_detection_fixFreq,2020.1.2,MacIntel,60,,,,,,,,,,,,,,,,,,,,,,,,,,,,,,2,7.2412,,0,0,14,14,28,1,stimuli/stim_20210919_power2amp/equal_lnn_AM2Hz_s25_2.m4a,,,,,,,,,,,,
,,,,,41911,2021-09-29_21h25.12.235,judgeSpeechMusic_20210919_logNormShiftAmp_detection_fixFreq,2020.1.2,MacIntel,60,,,,,,,,,,,,,,,,,,,,,,,,,,,,,,2,5.2557,,0,0,15,15,65,1,stimuli/stim_20210919_power2amp/equal_lnn_AM2Hz_s55_43.m4a,,,,,,,,,,,,
,,,,,41911,2021-09-29_21h25.12.235,judgeSpeechMusic_20210919_logNormShiftAmp_detection_fixFreq,2020.1.2,MacIntel,60,,,,,,,,,,,,,,,,,,,,,,,,,,,,,,2,5.39,,0,0,16,16,26,1,stimuli/stim_20210919_power2amp/equal_lnn_AM2Hz_s25_46.m4a,,,,,,,,,,,,
,,,,,41911,2021-09-29_21h25.12.235,judgeSpeechMusic_20210919_logNormShiftAmp_detection_fixFreq,2020.1.2,MacIntel,60,,,,,,,,,,,,,,,,,,,,,,,,,,,,,,2,5.3413,,0,0,17,17,12,1,stimuli/stim_20210919_power2amp/equal_lnn_AM2Hz_s15_34.m4a,,,,,,,,,,,,
,,,,,41911,2021-09-29_21h25.12.235,judgeSpeechMusic_20210919_logNormShiftAmp_detection_fixFreq,2020.1.2,MacIntel,60,,,,,,,,,,,,,,,,,,,,,,,,,,,,,,2,5.5277,,0,0,18,18,50,1,stimuli/stim_20210919_power2amp/equal_lnn_AM2Hz_s45_11.m4a,,,,,,,,,,,,
,,,,,41911,2021-09-29_21h25.12.235,judgeSpeechMusic_20210919_logNormShiftAmp_detection_fixFreq,2020.1.2,MacIntel,60,,,,,,,,,,,,,,,,,,,,,,,,,,,,,,2,5.2558,,0,0,19,19,48,1,stimuli/stim_20210919_power2amp/equal_lnn_AM2Hz_s45_34.m4a,,,,,,,,,,,,
,,,,,41911,2021-09-29_21h25.12.235,judgeSpeechMusic_20210919_logNormShiftAmp_detection_fixFreq,2020.1.2,MacIntel,60,,,,,,,,,,,,,,,,,,,,,,,,,,,,,,1,7.1232,,0,0,20,20,13,1,stimuli/stim_20210919_power2amp/equal_lnn_AM2Hz_s15_25.m4a,,,,,,,,,,,,
,,,,,41911,2021-09-29_21h25.12.235,judgeSpeechMusic_20210919_logNormShiftAmp_detection_fixFreq,2020.1.2,MacIntel,60,,,,,,,,,,,,,,,,,,,,,,,,,,,,,,2,6.8216,,0,0,21,21,9,1,stimuli/stim_20210919_power2amp/equal_lnn_AM2Hz_s15_32.m4a,,,,,,,,,,,,
,,,,,41911,2021-09-29_21h25.12.235,judgeSpeechMusic_20210919_logNormShiftAmp_detection_fixFreq,2020.1.2,MacIntel,60,,,,,,,,,,,,,,,,,,,,,,,,,,,,,,1,20.0576,3,1,0,22,22,15,1,stimuli/stim_20210919_power2amp/equal_lnn_AM2Hz_s25_50.m4a,1.665,,,,,,,,,,,
,,,,,41911,2021-09-29_21h25.12.235,judgeSpeechMusic_20210919_logNormShiftAmp_detection_fixFreq,2020.1.2,MacIntel,60,,,,,,,,,,,,,,,,,,,,,,,,,,,,,,1,6.0405,,0,0,23,23,17,1,stimuli/stim_20210919_power2amp/equal_lnn_AM2Hz_s25_40.m4a,,,,,,,,,,,,
,,,,,41911,2021-09-29_21h25.12.235,judgeSpeechMusic_20210919_logNormShiftAmp_detection_fixFreq,2020.1.2,MacIntel,60,,,,,,,,,,,,,,,,,,,,,,,,,,,,,,1,5.4741,,0,0,24,24,18,1,stimuli/stim_20210919_power2amp/equal_lnn_AM2Hz_s25_43.m4a,,,,,,,,,,,,
,,,,,41911,2021-09-29_21h25.12.235,judgeSpeechMusic_20210919_logNormShiftAmp_detection_fixFreq,2020.1.2,MacIntel,60,,,,,,,,,,,,,,,,,,,,,,,,,,,,,,1,6.4609,,0,0,25,25,56,1,stimuli/stim_20210919_power2amp/equal_lnn_AM2Hz_s45_32.m4a,,,,,,,,,,,,
,,,,,41911,2021-09-29_21h25.12.235,judgeSpeechMusic_20210919_logNormShiftAmp_detection_fixFreq,2020.1.2,MacIntel,60,,,,,,,,,,,,,,,,,,,,,,,,,,,,,,2,9.3069,,0,0,26,26,45,1,stimuli/stim_20210919_power2amp/equal_lnn_AM2Hz_s45_7.m4a,,,,,,,,,,,,
,,,,,41911,2021-09-29_21h25.12.235,judgeSpeechMusic_20210919_logNormShiftAmp_detection_fixFreq,2020.1.2,MacIntel,60,,,,,,,,,,,,,,,,,,,,,,,,,,,,,,2,5.3728,,0,0,27,27,63,1,stimuli/stim_20210919_power2amp/equal_lnn_AM2Hz_s55_25.m4a,,,,,,,,,,,,
,,,,,41911,2021-09-29_21h25.12.235,judgeSpeechMusic_20210919_logNormShiftAmp_detection_fixFreq,2020.1.2,MacIntel,60,,,,,,,,,,,,,,,,,,,,,,,,,,,,,,1,8.4892,,0,0,28,28,27,1,stimuli/stim_20210919_power2amp/equal_lnn_AM2Hz_s25_47.m4a,,,,,,,,,,,,
,,,,,41911,2021-09-29_21h25.12.235,judgeSpeechMusic_20210919_logNormShiftAmp_detection_fixFreq,2020.1.2,MacIntel,60,,,,,,,,,,,,,,,,,,,,,,,,,,,,,,1,6.7737,,0,0,29,29,19,1,stimuli/stim_20210919_power2amp/equal_lnn_AM2Hz_s25_23.m4a,,,,,,,,,,,,
,,,,,41911,2021-09-29_21h25.12.235,judgeSpeechMusic_20210919_logNormShiftAmp_detection_fixFreq,2020.1.2,MacIntel,60,,,,,,,,,,,,,,,,,,,,,,,,,,,,,,1,5.4285,,0,0,30,30,11,1,stimuli/stim_20210919_power2amp/equal_lnn_AM2Hz_s15_18.m4a,,,,,,,,,,,,
,,,,,41911,2021-09-29_21h25.12.235,judgeSpeechMusic_20210919_logNormShiftAmp_detection_fixFreq,2020.1.2,MacIntel,60,,,,,,,,,,,,,,,,,,,,,,,,,,,,,,2,6.7254,,0,0,31,31,46,1,stimuli/stim_20210919_power2amp/equal_lnn_AM2Hz_s45_40.m4a,,,,,,,,,,,,
,,,,,41911,2021-09-29_21h25.12.235,judgeSpeechMusic_20210919_logNormShiftAmp_detection_fixFreq,2020.1.2,MacIntel,60,,,,,,,,,,,,,,,,,,,,,,,,,,,,,,2,9.5878,,0,0,32,32,29,1,stimuli/stim_20210919_power2amp/equal_lnn_AM2Hz_s25_36.m4a,,,,,,,,,,,,
,,,,,41911,2021-09-29_21h25.12.235,judgeSpeechMusic_20210919_logNormShiftAmp_detection_fixFreq,2020.1.2,MacIntel,60,,,,,,,,,,,,,,,,,,,,,,,,,,,,,,2,5.2589,,0,0,33,33,61,1,stimuli/stim_20210919_power2amp/equal_lnn_AM2Hz_s55_15.m4a,,,,,,,,,,,,
,,,,,41911,2021-09-29_21h25.12.235,judgeSpeechMusic_20210919_logNormShiftAmp_detection_fixFreq,2020.1.2,MacIntel,60,,,,,,,,,,,,,,,,,,,,,,,,,,,,,,1,7.0943,,0,0,34,34,67,1,stimuli/stim_20210919_power2amp/equal_lnn_AM2Hz_s55_32.m4a,,,,,,,,,,,,
,,,,,41911,2021-09-29_21h25.12.235,judgeSpeechMusic_20210919_logNormShiftAmp_detection_fixFreq,2020.1.2,MacIntel,60,,,,,,,,,,,,,,,,,,,,,,,,,,,,,,1,11.6405,,0,0,35,35,32,1,stimuli/stim_20210919_power2amp/equal_lnn_AM2Hz_s35_28.m4a,,,,,,,,,,,,
,,,,,41911,2021-09-29_21h25.12.235,judgeSpeechMusic_20210919_logNormShiftAmp_detection_fixFreq,2020.1.2,MacIntel,60,,,,,,,,,,,,,,,,,,,,,,,,,,,,,,1,5.8728,,0,0,36,36,14,1,stimuli/stim_20210919_power2amp/equal_lnn_AM2Hz_s15_42.m4a,,,,,,,,,,,,
,,,,,41911,2021-09-29_21h25.12.235,judgeSpeechMusic_20210919_logNormShiftAmp_detection_fixFreq,2020.1.2,MacIntel,60,,,,,,,,,,,,,,,,,,,,,,,,,,,,,,1,8.1069,,0,0,37,37,35,1,stimuli/stim_20210919_power2amp/equal_lnn_AM2Hz_s35_4.m4a,,,,,,,,,,,,
,,,,,41911,2021-09-29_21h25.12.235,judgeSpeechMusic_20210919_logNormShiftAmp_detection_fixFreq,2020.1.2,MacIntel,60,,,,,,,,,,,,,,,,,,,,,,,,,,,,,,2,6.906,,0,0,38,38,40,1,stimuli/stim_20210919_power2amp/equal_lnn_AM2Hz_s35_22.m4a,,,,,,,,,,,,
,,,,,41911,2021-09-29_21h25.12.235,judgeSpeechMusic_20210919_logNormShiftAmp_detection_fixFreq,2020.1.2,MacIntel,60,,,,,,,,,,,,,,,,,,,,,,,,,,,,,,2,5.4732,,0,0,39,39,74,1,stimuli/stim_20210919_power2amp/equal_lnn_AM2Hz_s55_30.m4a,,,,,,,,,,,,
,,,,,41911,2021-09-29_21h25.12.235,judgeSpeechMusic_20210919_logNormShiftAmp_detection_fixFreq,2020.1.2,MacIntel,60,,,,,,,,,,,,,,,,,,,,,,,,,,,,,,2,6.2739,,0,0,40,40,21,1,stimuli/stim_20210919_power2amp/equal_lnn_AM2Hz_s25_34.m4a,,,,,,,,,,,,
,,,,,41911,2021-09-29_21h25.12.235,judgeSpeechMusic_20210919_logNormShiftAmp_detection_fixFreq,2020.1.2,MacIntel,60,,,,,,,,,,,,,,,,,,,,,,,,,,,,,,2,7.1725,2,1,0,41,41,24,1,stimuli/stim_20210919_power2amp/equal_lnn_AM2Hz_s25_33.m4a,3.1607,,,,,,,,,,,
,,,,,41911,2021-09-29_21h25.12.235,judgeSpeechMusic_20210919_logNormShiftAmp_detection_fixFreq,2020.1.2,MacIntel,60,,,,,,,,,,,,,,,,,,,,,,,,,,,,,,1,8.4405,,0,0,42,42,57,1,stimuli/stim_20210919_power2amp/equal_lnn_AM2Hz_s45_37.m4a,,,,,,,,,,,,
,,,,,41911,2021-09-29_21h25.12.235,judgeSpeechMusic_20210919_logNormShiftAmp_detection_fixFreq,2020.1.2,MacIntel,60,,,,,,,,,,,,,,,,,,,,,,,,,,,,,,2,10.5571,,0,0,43,43,55,1,stimuli/stim_20210919_power2amp/equal_lnn_AM2Hz_s45_27.m4a,,,,,,,,,,,,
,,,,,41911,2021-09-29_21h25.12.235,judgeSpeechMusic_20210919_logNormShiftAmp_detection_fixFreq,2020.1.2,MacIntel,60,,,,,,,,,,,,,,,,,,,,,,,,,,,,,,1,11.1102,,0,0,44,44,3,1,stimuli/stim_20210919_power2amp/equal_lnn_AM2Hz_s15_9.m4a,,,,,,,,,,,,
,,,,,41911,2021-09-29_21h25.12.235,judgeSpeechMusic_20210919_logNormShiftAmp_detection_fixFreq,2020.1.2,MacIntel,60,,,,,,,,,,,,,,,,,,,,,,,,,,,,,,2,8.4219,,0,0,45,45,71,1,stimuli/stim_20210919_power2amp/equal_lnn_AM2Hz_s55_28.m4a,,,,,,,,,,,,
,,,,,41911,2021-09-29_21h25.12.235,judgeSpeechMusic_20210919_logNormShiftAmp_detection_fixFreq,2020.1.2,MacIntel,60,,,,,,,,,,,,,,,,,,,,,,,,,,,,,,2,7.8415,,0,0,46,46,7,1,stimuli/stim_20210919_power2amp/equal_lnn_AM2Hz_s15_21.m4a,,,,,,,,,,,,
,,,,,41911,2021-09-29_21h25.12.235,judgeSpeechMusic_20210919_logNormShiftAmp_detection_fixFreq,2020.1.2,MacIntel,60,,,,,,,,,,,,,,,,,,,,,,,,,,,,,,1,8.9234,,0,0,47,47,22,1,stimuli/stim_20210919_power2amp/equal_lnn_AM2Hz_s25_38.m4a,,,,,,,,,,,,
,,,,,41911,2021-09-29_21h25.12.235,judgeSpeechMusic_20210919_logNormShiftAmp_detection_fixFreq,2020.1.2,MacIntel,60,,,,,,,,,,,,,,,,,,,,,,,,,,,,,,1,6.0941,,0,0,48,48,5,1,stimuli/stim_20210919_power2amp/equal_lnn_AM2Hz_s15_49.m4a,,,,,,,,,,,,
,,,,,41911,2021-09-29_21h25.12.235,judgeSpeechMusic_20210919_logNormShiftAmp_detection_fixFreq,2020.1.2,MacIntel,60,,,,,,,,,,,,,,,,,,,,,,,,,,,,,,2,7.5474,,0,0,49,49,4,1,stimuli/stim_20210919_power2amp/equal_lnn_AM2Hz_s15_7.m4a,,,,,,,,,,,,
,,,,,41911,2021-09-29_21h25.12.235,judgeSpeechMusic_20210919_logNormShiftAmp_detection_fixFreq,2020.1.2,MacIntel,60,,,,,,,,,,,,,,,,,,,,,,,,,,,,,,2,6.0085,,0,0,50,50,8,1,stimuli/stim_20210919_power2amp/equal_lnn_AM2Hz_s15_30.m4a,,,,,,,,,,,,
,,,,,41911,2021-09-29_21h25.12.235,judgeSpeechMusic_20210919_logNormShiftAmp_detection_fixFreq,2020.1.2,MacIntel,60,,,,,,,,,,,,,,,,,,,,,,,,,,,,,,2,6.0066,,0,0,51,51,1,1,stimuli/stim_20210919_power2amp/equal_lnn_AM2Hz_s15_50.m4a,,,,,,,,,,,,
,,,,,41911,2021-09-29_21h25.12.235,judgeSpeechMusic_20210919_logNormShiftAmp_detection_fixFreq,2020.1.2,MacIntel,60,,,,,,,,,,,,,,,,,,,,,,,,,,,,,,2,6.3897,,0,0,52,52,10,1,stimuli/stim_20210919_power2amp/equal_lnn_AM2Hz_s15_31.m4a,,,,,,,,,,,,
,,,,,41911,2021-09-29_21h25.12.235,judgeSpeechMusic_20210919_logNormShiftAmp_detection_fixFreq,2020.1.2,MacIntel,60,,,,,,,,,,,,,,,,,,,,,,,,,,,,,,2,6.792,,0,0,53,53,73,1,stimuli/stim_20210919_power2amp/equal_lnn_AM2Hz_s55_5.m4a,,,,,,,,,,,,
,,,,,41911,2021-09-29_21h25.12.235,judgeSpeechMusic_20210919_logNormShiftAmp_detection_fixFreq,2020.1.2,MacIntel,60,,,,,,,,,,,,,,,,,,,,,,,,,,,,,,2,8.1455,,0,0,54,54,34,1,stimuli/stim_20210919_power2amp/equal_lnn_AM2Hz_s35_37.m4a,,,,,,,,,,,,
,,,,,41911,2021-09-29_21h25.12.235,judgeSpeechMusic_20210919_logNormShiftAmp_detection_fixFreq,2020.1.2,MacIntel,60,,,,,,,,,,,,,,,,,,,,,,,,,,,,,,2,8.5608,,0,0,55,55,53,1,stimuli/stim_20210919_power2amp/equal_lnn_AM2Hz_s45_2.m4a,,,,,,,,,,,,
,,,,,41911,2021-09-29_21h25.12.235,judgeSpeechMusic_20210919_logNormShiftAmp_detection_fixFreq,2020.1.2,MacIntel,60,,,,,,,,,,,,,,,,,,,,,,,,,,,,,,2,6.5565,,0,0,56,56,69,1,stimuli/stim_20210919_power2amp/equal_lnn_AM2Hz_s55_26.m4a,,,,,,,,,,,,
,,,,,41911,2021-09-29_21h25.12.235,judgeSpeechMusic_20210919_logNormShiftAmp_detection_fixFreq,2020.1.2,MacIntel,60,,,,,,,,,,,,,,,,,,,,,,,,,,,,,,1,7.1444,,0,0,57,57,51,1,stimuli/stim_20210919_power2amp/equal_lnn_AM2Hz_s45_16.m4a,,,,,,,,,,,,
,,,,,41911,2021-09-29_21h25.12.235,judgeSpeechMusic_20210919_logNormShiftAmp_detection_fixFreq,2020.1.2,MacIntel,60,,,,,,,,,,,,,,,,,,,,,,,,,,,,,,1,6.1716,,0,0,58,58,31,1,stimuli/stim_20210919_power2amp/equal_lnn_AM2Hz_s35_20.m4a,,,,,,,,,,,,
,,,,,41911,2021-09-29_21h25.12.235,judgeSpeechMusic_20210919_logNormShiftAmp_detection_fixFreq,2020.1.2,MacIntel,60,,,,,,,,,,,,,,,,,,,,,,,,,,,,,,2,6.4604,,0,0,59,59,33,1,stimuli/stim_20210919_power2amp/equal_lnn_AM2Hz_s35_5.m4a,,,,,,,,,,,,
,,,,,41911,2021-09-29_21h25.12.235,judgeSpeechMusic_20210919_logNormShiftAmp_detection_fixFreq,2020.1.2,MacIntel,60,,,,,,,,,,,,,,,,,,,,,,,,,,,,,,2,6.9745,,0,0,60,60,25,1,stimuli/stim_20210919_power2amp/equal_lnn_AM2Hz_s25_4.m4a,,,,,,,,,,,,
,,,,,41911,2021-09-29_21h25.12.235,judgeSpeechMusic_20210919_logNormShiftAmp_detection_fixFreq,2020.1.2,MacIntel,60,,,,,,,,,,,,,,,,,,,,,,,,,,,,,,1,7.2911,4,1,0,61,61,72,1,stimuli/stim_20210919_power2amp/equal_lnn_AM2Hz_s55_23.m4a,2.5936,,,,,,,,,,,
,,,,,41911,2021-09-29_21h25.12.235,judgeSpeechMusic_20210919_logNormShiftAmp_detection_fixFreq,2020.1.2,MacIntel,60,,,,,,,,,,,,,,,,,,,,,,,,,,,,,,2,9.4564,,0,0,62,62,6,1,stimuli/stim_20210919_power2amp/equal_lnn_AM2Hz_s15_45.m4a,,,,,,,,,,,,
,,,,,41911,2021-09-29_21h25.12.235,judgeSpeechMusic_20210919_logNormShiftAmp_detection_fixFreq,2020.1.2,MacIntel,60,,,,,,,,,,,,,,,,,,,,,,,,,,,,,,2,5.8056,,0,0,63,63,37,1,stimuli/stim_20210919_power2amp/equal_lnn_AM2Hz_s35_39.m4a,,,,,,,,,,,,
,,,,,41911,2021-09-29_21h25.12.235,judgeSpeechMusic_20210919_logNormShiftAmp_detection_fixFreq,2020.1.2,MacIntel,60,,,,,,,,,,,,,,,,,,,,,,,,,,,,,,2,7.2427,,0,0,64,64,43,1,stimuli/stim_20210919_power2amp/equal_lnn_AM2Hz_s35_18.m4a,,,,,,,,,,,,
,,,,,41911,2021-09-29_21h25.12.235,judgeSpeechMusic_20210919_logNormShiftAmp_detection_fixFreq,2020.1.2,MacIntel,60,,,,,,,,,,,,,,,,,,,,,,,,,,,,,,1,7.3256,,0,0,65,65,23,1,stimuli/stim_20210919_power2amp/equal_lnn_AM2Hz_s25_17.m4a,,,,,,,,,,,,
,,,,,41911,2021-09-29_21h25.12.235,judgeSpeechMusic_20210919_logNormShiftAmp_detection_fixFreq,2020.1.2,MacIntel,60,,,,,,,,,,,,,,,,,,,,,,,,,,,,,,2,9.75,,0,0,66,66,41,1,stimuli/stim_20210919_power2amp/equal_lnn_AM2Hz_s35_14.m4a,,,,,,,,,,,,
,,,,,41911,2021-09-29_21h25.12.235,judgeSpeechMusic_20210919_logNormShiftAmp_detection_fixFreq,2020.1.2,MacIntel,60,,,,,,,,,,,,,,,,,,,,,,,,,,,,,,1,6.0558,,0,0,67,67,16,1,stimuli/stim_20210919_power2amp/equal_lnn_AM2Hz_s25_7.m4a,,,,,,,,,,,,
,,,,,41911,2021-09-29_21h25.12.235,judgeSpeechMusic_20210919_logNormShiftAmp_detection_fixFreq,2020.1.2,MacIntel,60,,,,,,,,,,,,,,,,,,,,,,,,,,,,,,2,6.5225,,0,0,68,68,52,1,stimuli/stim_20210919_power2amp/equal_lnn_AM2Hz_s45_43.m4a,,,,,,,,,,,,
,,,,,41911,2021-09-29_21h25.12.235,judgeSpeechMusic_20210919_logNormShiftAmp_detection_fixFreq,2020.1.2,MacIntel,60,,,,,,,,,,,,,,,,,,,,,,,,,,,,,,2,12.7898,,0,0,69,69,66,1,stimuli/stim_20210919_power2amp/equal_lnn_AM2Hz_s55_36.m4a,,,,,,,,,,,,
,,,,,41911,2021-09-29_21h25.12.235,judgeSpeechMusic_20210919_logNormShiftAmp_detection_fixFreq,2020.1.2,MacIntel,60,,,,,,,,,,,,,,,,,,,,,,,,,,,,,,2,6.7743,,0,0,70,70,39,1,stimuli/stim_20210919_power2amp/equal_lnn_AM2Hz_s35_10.m4a,,,,,,,,,,,,
,,,,,41911,2021-09-29_21h25.12.235,judgeSpeechMusic_20210919_logNormShiftAmp_detection_fixFreq,2020.1.2,MacIntel,60,,,,,,,,,,,,,,,,,,,,,,,,,,,,,,2,5.2567,,0,0,71,71,42,1,stimuli/stim_20210919_power2amp/equal_lnn_AM2Hz_s35_23.m4a,,,,,,,,,,,,
,,,,,41911,2021-09-29_21h25.12.235,judgeSpeechMusic_20210919_logNormShiftAmp_detection_fixFreq,2020.1.2,MacIntel,60,,,,,,,,,,,,,,,,,,,,,,,,,,,,,,2,5.6407,,0,0,72,72,58,1,stimuli/stim_20210919_power2amp/equal_lnn_AM2Hz_s45_1.m4a,,,,,,,,,,,,
,,,,,41911,2021-09-29_21h25.12.235,judgeSpeechMusic_20210919_logNormShiftAmp_detection_fixFreq,2020.1.2,MacIntel,60,,,,,,,,,,,,,,,,,,,,,,,,,,,,,,2,6.506,,0,0,73,73,30,1,stimuli/stim_20210919_power2amp/equal_lnn_AM2Hz_s35_42.m4a,,,,,,,,,,,,
,,,,,41911,2021-09-29_21h25.12.235,judgeSpeechMusic_20210919_logNormShiftAmp_detection_fixFreq,2020.1.2,MacIntel,60,,,,,,,,,,,,,,,,,,,,,,,,,,,,,,2,5.9564,,0,0,74,74,70,1,stimuli/stim_20210919_power2amp/equal_lnn_AM2Hz_s55_31.m4a,,,,,,,,,,,,
,,,,,41911,2021-09-29_21h25.12.235,judgeSpeechMusic_20210919_logNormShiftAmp_detection_fixFreq,2020.1.2,MacIntel,60,,,,,,,,,,,,,,,,,,,,,,,,,,,,,,,,,,,,,,,,,space,0.6096,1,0,2,1,1,SPEECH,stimuli/SPEECH.jpg,,
,,,,,41911,2021-09-29_21h25.12.235,judgeSpeechMusic_20210919_logNormShiftAmp_detection_fixFreq,2020.1.2,MacIntel,60,,,,,,,,,,,,,,,,,,0,0,0,0,1,1,stimuli/stim_20210919_power2amp/equal_lnn_AM_training2Hz_s30.m4a,,,,,,,,,,,,,,,,,,,,,,,,,,,
,,,,,41911,2021-09-29_21h25.12.235,judgeSpeechMusic_20210919_logNormShiftAmp_detection_fixFreq,2020.1.2,MacIntel,60,,,,,,,,,,,,,,,,,,,,,,,,,,space,1.2605,space,0.156,1,6.8874,,0,0,0,0,43,1,stimuli/stim_20210919_power2amp/equal_lnn_AM2Hz_s35_18.m4a,,,,,,,,,,,,
,,,,,41911,2021-09-29_21h25.12.235,judgeSpeechMusic_20210919_logNormShiftAmp_detection_fixFreq,2020.1.2,MacIntel,60,,,,,,,,,,,,,,,,,,,,,,,,,,,,,,1,5.8629,,0,0,1,1,13,1,stimuli/stim_20210919_power2amp/equal_lnn_AM2Hz_s15_25.m4a,,,,,,,,,,,,
,,,,,41911,2021-09-29_21h25.12.235,judgeSpeechMusic_20210919_logNormShiftAmp_detection_fixFreq,2020.1.2,MacIntel,60,,,,,,,,,,,,,,,,,,,,,,,,,,,,,,1,5.387,,0,0,2,2,27,1,stimuli/stim_20210919_power2amp/equal_lnn_AM2Hz_s25_47.m4a,,,,,,,,,,,,
,,,,,41911,2021-09-29_21h25.12.235,judgeSpeechMusic_20210919_logNormShiftAmp_detection_fixFreq,2020.1.2,MacIntel,60,,,,,,,,,,,,,,,,,,,,,,,,,,,,,,2,5.9938,,0,0,3,3,31,1,stimuli/stim_20210919_power2amp/equal_lnn_AM2Hz_s35_20.m4a,,,,,,,,,,,,
,,,,,41911,2021-09-29_21h25.12.235,judgeSpeechMusic_20210919_logNormShiftAmp_detection_fixFreq,2020.1.2,MacIntel,60,,,,,,,,,,,,,,,,,,,,,,,,,,,,,,2,5.3411,,0,0,4,4,9,1,stimuli/stim_20210919_power2amp/equal_lnn_AM2Hz_s15_32.m4a,,,,,,,,,,,,
,,,,,41911,2021-09-29_21h25.12.235,judgeSpeechMusic_20210919_logNormShiftAmp_detection_fixFreq,2020.1.2,MacIntel,60,,,,,,,,,,,,,,,,,,,,,,,,,,,,,,2,5.375,,0,0,5,5,5,1,stimuli/stim_20210919_power2amp/equal_lnn_AM2Hz_s15_49.m4a,,,,,,,,,,,,
,,,,,41911,2021-09-29_21h25.12.235,judgeSpeechMusic_20210919_logNormShiftAmp_detection_fixFreq,2020.1.2,MacIntel,60,,,,,,,,,,,,,,,,,,,,,,,,,,,,,,2,6.4564,,0,0,6,6,36,1,stimuli/stim_20210919_power2amp/equal_lnn_AM2Hz_s35_9.m4a,,,,,,,,,,,,
,,,,,41911,2021-09-29_21h25.12.235,judgeSpeechMusic_20210919_logNormShiftAmp_detection_fixFreq,2020.1.2,MacIntel,60,,,,,,,,,,,,,,,,,,,,,,,,,,,,,,2,6.7745,,0,0,7,7,50,1,stimuli/stim_20210919_power2amp/equal_lnn_AM2Hz_s45_11.m4a,,,,,,,,,,,,
,,,,,41911,2021-09-29_21h25.12.235,judgeSpeechMusic_20210919_logNormShiftAmp_detection_fixFreq,2020.1.2,MacIntel,60,,,,,,,,,,,,,,,,,,,,,,,,,,,,,,2,6.9561,,0,0,8,8,42,1,stimuli/stim_20210919_power2amp/equal_lnn_AM2Hz_s35_23.m4a,,,,,,,,,,,,
,,,,,41911,2021-09-29_21h25.12.235,judgeSpeechMusic_20210919_logNormShiftAmp_detection_fixFreq,2020.1.2,MacIntel,60,,,,,,,,,,,,,,,,,,,,,,,,,,,,,,1,7.4794,,0,0,9,9,21,1,stimuli/stim_20210919_power2amp/equal_lnn_AM2Hz_s25_34.m4a,,,,,,,,,,,,
,,,,,41911,2021-09-29_21h25.12.235,judgeSpeechMusic_20210919_logNormShiftAmp_detection_fixFreq,2020.1.2,MacIntel,60,,,,,,,,,,,,,,,,,,,,,,,,,,,,,,1,6.5616,,0,0,10,10,61,1,stimuli/stim_20210919_power2amp/equal_lnn_AM2Hz_s55_15.m4a,,,,,,,,,,,,
,,,,,41911,2021-09-29_21h25.12.235,judgeSpeechMusic_20210919_logNormShiftAmp_detection_fixFreq,2020.1.2,MacIntel,60,,,,,,,,,,,,,,,,,,,,,,,,,,,,,,1,5.2886,,0,0,11,11,62,1,stimuli/stim_20210919_power2amp/equal_lnn_AM2Hz_s55_34.m4a,,,,,,,,,,,,
,,,,,41911,2021-09-29_21h25.12.235,judgeSpeechMusic_20210919_logNormShiftAmp_detection_fixFreq,2020.1.2,MacIntel,60,,,,,,,,,,,,,,,,,,,,,,,,,,,,,,2,5.3244,,0,0,12,12,44,1,stimuli/stim_20210919_power2amp/equal_lnn_AM2Hz_s35_33.m4a,,,,,,,,,,,,
,,,,,41911,2021-09-29_21h25.12.235,judgeSpeechMusic_20210919_logNormShiftAmp_detection_fixFreq,2020.1.2,MacIntel,60,,,,,,,,,,,,,,,,,,,,,,,,,,,,,,1,5.2898,,0,0,13,13,60,1,stimuli/stim_20210919_power2amp/equal_lnn_AM2Hz_s55_29.m4a,,,,,,,,,,,,
,,,,,41911,2021-09-29_21h25.12.235,judgeSpeechMusic_20210919_logNormShiftAmp_detection_fixFreq,2020.1.2,MacIntel,60,,,,,,,,,,,,,,,,,,,,,,,,,,,,,,2,7.1222,,0,0,14,14,8,1,stimuli/stim_20210919_power2amp/equal_lnn_AM2Hz_s15_30.m4a,,,,,,,,,,,,
,,,,,41911,2021-09-29_21h25.12.235,judgeSpeechMusic_20210919_logNormShiftAmp_detection_fixFreq,2020.1.2,MacIntel,60,,,,,,,,,,,,,,,,,,,,,,,,,,,,,,2,6.5089,,0,0,15,15,63,1,stimuli/stim_20210919_power2amp/equal_lnn_AM2Hz_s55_25.m4a,,,,,,,,,,,,
,,,,,41911,2021-09-29_21h25.12.235,judgeSpeechMusic_20210919_logNormShiftAmp_detection_fixFreq,2020.1.2,MacIntel,60,,,,,,,,,,,,,,,,,,,,,,,,,,,,,,2,5.806,,0,0,16,16,40,1,stimuli/stim_20210919_power2amp/equal_lnn_AM2Hz_s35_22.m4a,,,,,,,,,,,,
,,,,,41911,2021-09-29_21h25.12.235,judgeSpeechMusic_20210919_logNormShiftAmp_detection_fixFreq,2020.1.2,MacIntel,60,,,,,,,,,,,,,,,,,,,,,,,,,,,,,,1,12.6776,,0,0,17,17,25,1,stimuli/stim_20210919_power2amp/equal_lnn_AM2Hz_s25_4.m4a,,,,,,,,,,,,
,,,,,41911,2021-09-29_21h25.12.235,judgeSpeechMusic_20210919_logNormShiftAmp_detection_fixFreq,2020.1.2,MacIntel,60,,,,,,,,,,,,,,,,,,,,,,,,,,,,,,1,10.8518,,0,0,18,18,1,1,stimuli/stim_20210919_power2amp/equal_lnn_AM2Hz_s15_50.m4a,,,,,,,,,,,,
,,,,,41911,2021-09-29_21h25.12.235,judgeSpeechMusic_20210919_logNormShiftAmp_detection_fixFreq,2020.1.2,MacIntel,60,,,,,,,,,,,,,,,,,,,,,,,,,,,,,,2,7.2135,,0,0,19,19,3,1,stimuli/stim_20210919_power2amp/equal_lnn_AM2Hz_s15_9.m4a,,,,,,,,,,,,
,,,,,41911,2021-09-29_21h25.12.235,judgeSpeechMusic_20210919_logNormShiftAmp_detection_fixFreq,2020.1.2,MacIntel,60,,,,,,,,,,,,,,,,,,,,,,,,,,,,,,2,9.7414,,0,0,20,20,58,1,stimuli/stim_20210919_power2amp/equal_lnn_AM2Hz_s45_1.m4a,,,,,,,,,,,,
,,,,,41911,2021-09-29_21h25.12.235,judgeSpeechMusic_20210919_logNormShiftAmp_detection_fixFreq,2020.1.2,MacIntel,60,,,,,,,,,,,,,,,,,,,,,,,,,,,,,,1,11.9924,,0,0,21,21,41,1,stimuli/stim_20210919_power2amp/equal_lnn_AM2Hz_s35_14.m4a,,,,,,,,,,,,
,,,,,41911,2021-09-29_21h25.12.235,judgeSpeechMusic_20210919_logNormShiftAmp_detection_fixFreq,2020.1.2,MacIntel,60,,,,,,,,,,,,,,,,,,,,,,,,,,,,,,1,10.1216,3,0,0,22,22,28,1,stimuli/stim_20210919_power2amp/equal_lnn_AM2Hz_s25_2.m4a,4.4331,,,,,,,,,,,
,,,,,41911,2021-09-29_21h25.12.235,judgeSpeechMusic_20210919_logNormShiftAmp_detection_fixFreq,2020.1.2,MacIntel,60,,,,,,,,,,,,,,,,,,,,,,,,,,,,,,1,7.3243,,0,0,23,23,66,1,stimuli/stim_20210919_power2amp/equal_lnn_AM2Hz_s55_36.m4a,,,,,,,,,,,,
,,,,,41911,2021-09-29_21h25.12.235,judgeSpeechMusic_20210919_logNormShiftAmp_detection_fixFreq,2020.1.2,MacIntel,60,,,,,,,,,,,,,,,,,,,,,,,,,,,,,,1,5.8154,,0,0,24,24,38,1,stimuli/stim_20210919_power2amp/equal_lnn_AM2Hz_s35_24.m4a,,,,,,,,,,,,
,,,,,41911,2021-09-29_21h25.12.235,judgeSpeechMusic_20210919_logNormShiftAmp_detection_fixFreq,2020.1.2,MacIntel,60,,,,,,,,,,,,,,,,,,,,,,,,,,,,,,1,5.2265,,0,0,25,25,14,1,stimuli/stim_20210919_power2amp/equal_lnn_AM2Hz_s15_42.m4a,,,,,,,,,,,,
,,,,,41911,2021-09-29_21h25.12.235,judgeSpeechMusic_20210919_logNormShiftAmp_detection_fixFreq,2020.1.2,MacIntel,60,,,,,,,,,,,,,,,,,,,,,,,,,,,,,,1,5.6462,,0,0,26,26,32,1,stimuli/stim_20210919_power2amp/equal_lnn_AM2Hz_s35_28.m4a,,,,,,,,,,,,
,,,,,41911,2021-09-29_21h25.12.235,judgeSpeechMusic_20210919_logNormShiftAmp_detection_fixFreq,2020.1.2,MacIntel,60,,,,,,,,,,,,,,,,,,,,,,,,,,,,,,2,6.5384,,0,0,27,27,10,1,stimuli/stim_20210919_power2amp/equal_lnn_AM2Hz_s15_31.m4a,,,,,,,,,,,,
,,,,,41911,2021-09-29_21h25.12.235,judgeSpeechMusic_20210919_logNormShiftAmp_detection_fixFreq,2020.1.2,MacIntel,60,,,,,,,,,,,,,,,,,,,,,,,,,,,,,,2,6.3725,,0,0,28,28,37,1,stimuli/stim_20210919_power2amp/equal_lnn_AM2Hz_s35_39.m4a,,,,,,,,,,,,
,,,,,41911,2021-09-29_21h25.12.235,judgeSpeechMusic_20210919_logNormShiftAmp_detection_fixFreq,2020.1.2,MacIntel,60,,,,,,,,,,,,,,,,,,,,,,,,,,,,,,1,6.1745,,0,0,29,29,19,1,stimuli/stim_20210919_power2amp/equal_lnn_AM2Hz_s25_23.m4a,,,,,,,,,,,,
,,,,,41911,2021-09-29_21h25.12.235,judgeSpeechMusic_20210919_logNormShiftAmp_detection_fixFreq,2020.1.2,MacIntel,60,,,,,,,,,,,,,,,,,,,,,,,,,,,,,,1,6.741,,0,0,30,30,52,1,stimuli/stim_20210919_power2amp/equal_lnn_AM2Hz_s45_43.m4a,,,,,,,,,,,,
,,,,,41911,2021-09-29_21h25.12.235,judgeSpeechMusic_20210919_logNormShiftAmp_detection_fixFreq,2020.1.2,MacIntel,60,,,,,,,,,,,,,,,,,,,,,,,,,,,,,,1,6.6247,,0,0,31,31,69,1,stimuli/stim_20210919_power2amp/equal_lnn_AM2Hz_s55_26.m4a,,,,,,,,,,,,
,,,,,41911,2021-09-29_21h25.12.235,judgeSpeechMusic_20210919_logNormShiftAmp_detection_fixFreq,2020.1.2,MacIntel,60,,,,,,,,,,,,,,,,,,,,,,,,,,,,,,2,7.0562,,0,0,32,32,39,1,stimuli/stim_20210919_power2amp/equal_lnn_AM2Hz_s35_10.m4a,,,,,,,,,,,,
,,,,,41911,2021-09-29_21h25.12.235,judgeSpeechMusic_20210919_logNormShiftAmp_detection_fixFreq,2020.1.2,MacIntel,60,,,,,,,,,,,,,,,,,,,,,,,,,,,,,,1,6.3726,,0,0,33,33,15,1,stimuli/stim_20210919_power2amp/equal_lnn_AM2Hz_s25_50.m4a,,,,,,,,,,,,
,,,,,41911,2021-09-29_21h25.12.235,judgeSpeechMusic_20210919_logNormShiftAmp_detection_fixFreq,2020.1.2,MacIntel,60,,,,,,,,,,,,,,,,,,,,,,,,,,,,,,2,7.1415,,0,0,34,34,55,1,stimuli/stim_20210919_power2amp/equal_lnn_AM2Hz_s45_27.m4a,,,,,,,,,,,,
,,,,,41911,2021-09-29_21h25.12.235,judgeSpeechMusic_20210919_logNormShiftAmp_detection_fixFreq,2020.1.2,MacIntel,60,,,,,,,,,,,,,,,,,,,,,,,,,,,,,,2,6.1062,,0,0,35,35,46,1,stimuli/stim_20210919_power2amp/equal_lnn_AM2Hz_s45_40.m4a,,,,,,,,,,,,
,,,,,41911,2021-09-29_21h25.12.235,judgeSpeechMusic_20210919_logNormShiftAmp_detection_fixFreq,2020.1.2,MacIntel,60,,,,,,,,,,,,,,,,,,,,,,,,,,,,,,1,6.5601,,0,0,36,36,67,1,stimuli/stim_20210919_power2amp/equal_lnn_AM2Hz_s55_32.m4a,,,,,,,,,,,,
,,,,,41911,2021-09-29_21h25.12.235,judgeSpeechMusic_20210919_logNormShiftAmp_detection_fixFreq,2020.1.2,MacIntel,60,,,,,,,,,,,,,,,,,,,,,,,,,,,,,,2,6.9917,,0,0,37,37,47,1,stimuli/stim_20210919_power2amp/equal_lnn_AM2Hz_s45_29.m4a,,,,,,,,,,,,
,,,,,41911,2021-09-29_21h25.12.235,judgeSpeechMusic_20210919_logNormShiftAmp_detection_fixFreq,2020.1.2,MacIntel,60,,,,,,,,,,,,,,,,,,,,,,,,,,,,,,2,5.9065,,0,0,38,38,51,1,stimuli/stim_20210919_power2amp/equal_lnn_AM2Hz_s45_16.m4a,,,,,,,,,,,,
,,,,,41911,2021-09-29_21h25.12.235,judgeSpeechMusic_20210919_logNormShiftAmp_detection_fixFreq,2020.1.2,MacIntel,60,,,,,,,,,,,,,,,,,,,,,,,,,,,,,,2,6.1737,,0,0,39,39,23,1,stimuli/stim_20210919_power2amp/equal_lnn_AM2Hz_s25_17.m4a,,,,,,,,,,,,
,,,,,41911,2021-09-29_21h25.12.235,judgeSpeechMusic_20210919_logNormShiftAmp_detection_fixFreq,2020.1.2,MacIntel,60,,,,,,,,,,,,,,,,,,,,,,,,,,,,,,1,7.2241,,0,0,40,40,11,1,stimuli/stim_20210919_power2amp/equal_lnn_AM2Hz_s15_18.m4a,,,,,,,,,,,,
,,,,,41911,2021-09-29_21h25.12.235,judgeSpeechMusic_20210919_logNormShiftAmp_detection_fixFreq,2020.1.2,MacIntel,60,,,,,,,,,,,,,,,,,,,,,,,,,,,,,,2,6.4058,4,1,0,41,41,64,1,stimuli/stim_20210919_power2amp/equal_lnn_AM2Hz_s55_40.m4a,1.0376,,,,,,,,,,,
,,,,,41911,2021-09-29_21h25.12.235,judgeSpeechMusic_20210919_logNormShiftAmp_detection_fixFreq,2020.1.2,MacIntel,60,,,,,,,,,,,,,,,,,,,,,,,,,,,,,,2,7.286,,0,0,42,42,4,1,stimuli/stim_20210919_power2amp/equal_lnn_AM2Hz_s15_7.m4a,,,,,,,,,,,,
,,,,,41911,2021-09-29_21h25.12.235,judgeSpeechMusic_20210919_logNormShiftAmp_detection_fixFreq,2020.1.2,MacIntel,60,,,,,,,,,,,,,,,,,,,,,,,,,,,,,,2,5.9907,,0,0,43,43,30,1,stimuli/stim_20210919_power2amp/equal_lnn_AM2Hz_s35_42.m4a,,,,,,,,,,,,
,,,,,41911,2021-09-29_21h25.12.235,judgeSpeechMusic_20210919_logNormShiftAmp_detection_fixFreq,2020.1.2,MacIntel,60,,,,,,,,,,,,,,,,,,,,,,,,,,,,,,2,6.3233,,0,0,44,44,49,1,stimuli/stim_20210919_power2amp/equal_lnn_AM2Hz_s45_31.m4a,,,,,,,,,,,,
,,,,,41911,2021-09-29_21h25.12.235,judgeSpeechMusic_20210919_logNormShiftAmp_detection_fixFreq,2020.1.2,MacIntel,60,,,,,,,,,,,,,,,,,,,,,,,,,,,,,,2,18.3901,,0,0,45,45,33,1,stimuli/stim_20210919_power2amp/equal_lnn_AM2Hz_s35_5.m4a,,,,,,,,,,,,
,,,,,41911,2021-09-29_21h25.12.235,judgeSpeechMusic_20210919_logNormShiftAmp_detection_fixFreq,2020.1.2,MacIntel,60,,,,,,,,,,,,,,,,,,,,,,,,,,,,,,2,17.6062,,0,0,46,46,35,1,stimuli/stim_20210919_power2amp/equal_lnn_AM2Hz_s35_4.m4a,,,,,,,,,,,,
,,,,,41911,2021-09-29_21h25.12.235,judgeSpeechMusic_20210919_logNormShiftAmp_detection_fixFreq,2020.1.2,MacIntel,60,,,,,,,,,,,,,,,,,,,,,,,,,,,,,,2,8.4561,,0,0,47,47,12,1,stimuli/stim_20210919_power2amp/equal_lnn_AM2Hz_s15_34.m4a,,,,,,,,,,,,
,,,,,41911,2021-09-29_21h25.12.235,judgeSpeechMusic_20210919_logNormShiftAmp_detection_fixFreq,2020.1.2,MacIntel,60,,,,,,,,,,,,,,,,,,,,,,,,,,,,,,1,7.6728,,0,0,48,48,7,1,stimuli/stim_20210919_power2amp/equal_lnn_AM2Hz_s15_21.m4a,,,,,,,,,,,,
,,,,,41911,2021-09-29_21h25.12.235,judgeSpeechMusic_20210919_logNormShiftAmp_detection_fixFreq,2020.1.2,MacIntel,60,,,,,,,,,,,,,,,,,,,,,,,,,,,,,,1,6.3896,,0,0,49,49,48,1,stimuli/stim_20210919_power2amp/equal_lnn_AM2Hz_s45_34.m4a,,,,,,,,,,,,
,,,,,41911,2021-09-29_21h25.12.235,judgeSpeechMusic_20210919_logNormShiftAmp_detection_fixFreq,2020.1.2,MacIntel,60,,,,,,,,,,,,,,,,,,,,,,,,,,,,,,2,7.5627,,0,0,50,50,70,1,stimuli/stim_20210919_power2amp/equal_lnn_AM2Hz_s55_31.m4a,,,,,,,,,,,,
,,,,,41911,2021-09-29_21h25.12.235,judgeSpeechMusic_20210919_logNormShiftAmp_detection_fixFreq,2020.1.2,MacIntel,60,,,,,,,,,,,,,,,,,,,,,,,,,,,,,,1,6.9391,,0,0,51,51,59,1,stimuli/stim_20210919_power2amp/equal_lnn_AM2Hz_s45_18.m4a,,,,,,,,,,,,
,,,,,41911,2021-09-29_21h25.12.235,judgeSpeechMusic_20210919_logNormShiftAmp_detection_fixFreq,2020.1.2,MacIntel,60,,,,,,,,,,,,,,,,,,,,,,,,,,,,,,1,5.4235,,0,0,52,52,24,1,stimuli/stim_20210919_power2amp/equal_lnn_AM2Hz_s25_33.m4a,,,,,,,,,,,,
,,,,,41911,2021-09-29_21h25.12.235,judgeSpeechMusic_20210919_logNormShiftAmp_detection_fixFreq,2020.1.2,MacIntel,60,,,,,,,,,,,,,,,,,,,,,,,,,,,,,,1,5.3395,,0,0,53,53,71,1,stimuli/stim_20210919_power2amp/equal_lnn_AM2Hz_s55_28.m4a,,,,,,,,,,,,
,,,,,41911,2021-09-29_21h25.12.235,judgeSpeechMusic_20210919_logNormShiftAmp_detection_fixFreq,2020.1.2,MacIntel,60,,,,,,,,,,,,,,,,,,,,,,,,,,,,,,2,6.5071,,0,0,54,54,54,1,stimuli/stim_20210919_power2amp/equal_lnn_AM2Hz_s45_46.m4a,,,,,,,,,,,,
,,,,,41911,2021-09-29_21h25.12.235,judgeSpeechMusic_20210919_logNormShiftAmp_detection_fixFreq,2020.1.2,MacIntel,60,,,,,,,,,,,,,,,,,,,,,,,,,,,,,,2,10.7251,,0,0,55,55,72,1,stimuli/stim_20210919_power2amp/equal_lnn_AM2Hz_s55_23.m4a,,,,,,,,,,,,
,,,,,41911,2021-09-29_21h25.12.235,judgeSpeechMusic_20210919_logNormShiftAmp_detection_fixFreq,2020.1.2,MacIntel,60,,,,,,,,,,,,,,,,,,,,,,,,,,,,,,1,10.0551,,0,0,56,56,34,1,stimuli/stim_20210919_power2amp/equal_lnn_AM2Hz_s35_37.m4a,,,,,,,,,,,,
,,,,,41911,2021-09-29_21h25.12.235,judgeSpeechMusic_20210919_logNormShiftAmp_detection_fixFreq,2020.1.2,MacIntel,60,,,,,,,,,,,,,,,,,,,,,,,,,,,,,,1,6.1741,,0,0,57,57,17,1,stimuli/stim_20210919_power2amp/equal_lnn_AM2Hz_s25_40.m4a,,,,,,,,,,,,
,,,,,41911,2021-09-29_21h25.12.235,judgeSpeechMusic_20210919_logNormShiftAmp_detection_fixFreq,2020.1.2,MacIntel,60,,,,,,,,,,,,,,,,,,,,,,,,,,,,,,1,6.291,,0,0,58,58,29,1,stimuli/stim_20210919_power2amp/equal_lnn_AM2Hz_s25_36.m4a,,,,,,,,,,,,
,,,,,41911,2021-09-29_21h25.12.235,judgeSpeechMusic_20210919_logNormShiftAmp_detection_fixFreq,2020.1.2,MacIntel,60,,,,,,,,,,,,,,,,,,,,,,,,,,,,,,2,7.2073,,0,0,59,59,65,1,stimuli/stim_20210919_power2amp/equal_lnn_AM2Hz_s55_43.m4a,,,,,,,,,,,,
,,,,,41911,2021-09-29_21h25.12.235,judgeSpeechMusic_20210919_logNormShiftAmp_detection_fixFreq,2020.1.2,MacIntel,60,,,,,,,,,,,,,,,,,,,,,,,,,,,,,,1,7.6399,,0,0,60,60,45,1,stimuli/stim_20210919_power2amp/equal_lnn_AM2Hz_s45_7.m4a,,,,,,,,,,,,
,,,,,41911,2021-09-29_21h25.12.235,judgeSpeechMusic_20210919_logNormShiftAmp_detection_fixFreq,2020.1.2,MacIntel,60,,,,,,,,,,,,,,,,,,,,,,,,,,,,,,2,6.8226,4,1,0,61,61,20,1,stimuli/stim_20210919_power2amp/equal_lnn_AM2Hz_s25_49.m4a,1.0087,,,,,,,,,,,
,,,,,41911,2021-09-29_21h25.12.235,judgeSpeechMusic_20210919_logNormShiftAmp_detection_fixFreq,2020.1.2,MacIntel,60,,,,,,,,,,,,,,,,,,,,,,,,,,,,,,2,10.5901,,0,0,62,62,22,1,stimuli/stim_20210919_power2amp/equal_lnn_AM2Hz_s25_38.m4a,,,,,,,,,,,,
,,,,,41911,2021-09-29_21h25.12.235,judgeSpeechMusic_20210919_logNormShiftAmp_detection_fixFreq,2020.1.2,MacIntel,60,,,,,,,,,,,,,,,,,,,,,,,,,,,,,,2,10.5889,,0,0,63,63,2,1,stimuli/stim_20210919_power2amp/equal_lnn_AM2Hz_s15_12.m4a,,,,,,,,,,,,
,,,,,41911,2021-09-29_21h25.12.235,judgeSpeechMusic_20210919_logNormShiftAmp_detection_fixFreq,2020.1.2,MacIntel,60,,,,,,,,,,,,,,,,,,,,,,,,,,,,,,2,7.5568,,0,0,64,64,26,1,stimuli/stim_20210919_power2amp/equal_lnn_AM2Hz_s25_46.m4a,,,,,,,,,,,,
,,,,,41911,2021-09-29_21h25.12.235,judgeSpeechMusic_20210919_logNormShiftAmp_detection_fixFreq,2020.1.2,MacIntel,60,,,,,,,,,,,,,,,,,,,,,,,,,,,,,,1,10.1558,,0,0,65,65,18,1,stimuli/stim_20210919_power2amp/equal_lnn_AM2Hz_s25_43.m4a,,,,,,,,,,,,
,,,,,41911,2021-09-29_21h25.12.235,judgeSpeechMusic_20210919_logNormShiftAmp_detection_fixFreq,2020.1.2,MacIntel,60,,,,,,,,,,,,,,,,,,,,,,,,,,,,,,1,7.745,,0,0,66,66,73,1,stimuli/stim_20210919_power2amp/equal_lnn_AM2Hz_s55_5.m4a,,,,,,,,,,,,
,,,,,41911,2021-09-29_21h25.12.235,judgeSpeechMusic_20210919_logNormShiftAmp_detection_fixFreq,2020.1.2,MacIntel,60,,,,,,,,,,,,,,,,,,,,,,,,,,,,,,1,5.8398,,0,0,67,67,0,1,stimuli/stim_20210919_power2amp/equal_lnn_AM2Hz_s15_35.m4a,,,,,,,,,,,,
,,,,,41911,2021-09-29_21h25.12.235,judgeSpeechMusic_20210919_logNormShiftAmp_detection_fixFreq,2020.1.2,MacIntel,60,,,,,,,,,,,,,,,,,,,,,,,,,,,,,,2,6.723,,0,0,68,68,68,1,stimuli/stim_20210919_power2amp/equal_lnn_AM2Hz_s55_2.m4a,,,,,,,,,,,,
,,,,,41911,2021-09-29_21h25.12.235,judgeSpeechMusic_20210919_logNormShiftAmp_detection_fixFreq,2020.1.2,MacIntel,60,,,,,,,,,,,,,,,,,,,,,,,,,,,,,,2,6.8101,,0,0,69,69,53,1,stimuli/stim_20210919_power2amp/equal_lnn_AM2Hz_s45_2.m4a,,,,,,,,,,,,
,,,,,41911,2021-09-29_21h25.12.235,judgeSpeechMusic_20210919_logNormShiftAmp_detection_fixFreq,2020.1.2,MacIntel,60,,,,,,,,,,,,,,,,,,,,,,,,,,,,,,1,8.7394,,0,0,70,70,6,1,stimuli/stim_20210919_power2amp/equal_lnn_AM2Hz_s15_45.m4a,,,,,,,,,,,,
,,,,,41911,2021-09-29_21h25.12.235,judgeSpeechMusic_20210919_logNormShiftAmp_detection_fixFreq,2020.1.2,MacIntel,60,,,,,,,,,,,,,,,,,,,,,,,,,,,,,,1,6.2906,,0,0,71,71,16,1,stimuli/stim_20210919_power2amp/equal_lnn_AM2Hz_s25_7.m4a,,,,,,,,,,,,
,,,,,41911,2021-09-29_21h25.12.235,judgeSpeechMusic_20210919_logNormShiftAmp_detection_fixFreq,2020.1.2,MacIntel,60,,,,,,,,,,,,,,,,,,,,,,,,,,,,,,1,5.6436,,0,0,72,72,56,1,stimuli/stim_20210919_power2amp/equal_lnn_AM2Hz_s45_32.m4a,,,,,,,,,,,,
,,,,,41911,2021-09-29_21h25.12.235,judgeSpeechMusic_20210919_logNormShiftAmp_detection_fixFreq,2020.1.2,MacIntel,60,,,,,,,,,,,,,,,,,,,,,,,,,,,,,,2,5.8405,,0,0,73,73,74,1,stimuli/stim_20210919_power2amp/equal_lnn_AM2Hz_s55_30.m4a,,,,,,,,,,,,
,,,,,41911,2021-09-29_21h25.12.235,judgeSpeechMusic_20210919_logNormShiftAmp_detection_fixFreq,2020.1.2,MacIntel,60,,,,,,,,,,,,,,,,,,,,,,,,,,,,,,2,5.9229,,0,0,74,74,57,1,stimuli/stim_20210919_power2amp/equal_lnn_AM2Hz_s45_37.m4a,,,,,,,,,,,,
,,,,,41911,2021-09-29_21h25.12.235,judgeSpeechMusic_20210919_logNormShiftAmp_detection_fixFreq,2020.1.2,MacIntel,60,,,,,,,,,,,,,,,,,,,,,,,,,,,,,,,,,,,,,,,,,,,1,1,3,0,1,MUSIC,stimuli/MUSIC.jpg,,
,,,,,41911,2021-09-29_21h25.12.235,judgeSpeechMusic_20210919_logNormShiftAmp_detection_fixFreq,2020.1.2,MacIntel,60,,,,,,,,,,,,,,,,,,,,,,,,,,,,,,,,,,,,,,,,,,,,,,,,,,space,4.88
