headphoneResponse.keys,headphoneResponse.corr,headphoneResponse.rt,headphoneTrial.thisRepN,headphoneTrial.thisTrialN,headphoneTrial.thisN,headphoneTrial.thisIndex,headphoneTrial.ran,headphone_sound1,headphone_sound2,headphone_sound3,corrAns,participant,date,expName,psychopyVersion,OS,frameRate,checkInstruKey.keys,checkInstruKey.rt,trainSlider.response,trainSlider.rt,beepTrainResponse.keys,beepTrainResponse.corr,trainingTrials.thisRepN,trainingTrials.thisTrialN,trainingTrials.thisN,trainingTrials.thisIndex,trainingTrials.ran,trainAudioFile,beepTrainResponse.rt,readyReal_resp.keys,readyReal_resp.rt,checkInstru2_key.keys,checkInstru2_key.rt,ratingSlider.response,ratingSlider.rt,beepResp.keys,beepResp.corr,expTrials.thisRepN,expTrials.thisTrialN,expTrials.thisN,expTrials.thisIndex,expTrials.ran,audioFile,beepResp.rt,switchBlock_space.keys,switchBlock_space.rt,block.thisRepN,block.thisTrialN,block.thisN,block.thisIndex,block.ran,blockName,blockImage,end_resp.keys,end_resp.rt
2,1,1.3312,0,0,0,1,1,stimuli/screen_antiphase.wav,stimuli/screen_quiet.wav,stimuli/screen_origin.wav,2,41956,2021-10-03_20h54.35.954,judgeSpeechMusic_20210919_logNormShiftAmp_detection_fixFreq,2020.1.2,MacIntel,60,,,,,,,,,,,,,,,,,,,,,,,,,,,,,,,,,,,,,,,
3,0,1.8682,0,1,1,5,1,stimuli/screen_quiet.wav,stimuli/screen_origin.wav,stimuli/screen_antiphase.wav,1,41956,2021-10-03_20h54.35.954,judgeSpeechMusic_20210919_logNormShiftAmp_detection_fixFreq,2020.1.2,MacIntel,60,,,,,,,,,,,,,,,,,,,,,,,,,,,,,,,,,,,,,,,
3,1,0.6116,0,2,2,0,1,stimuli/screen_antiphase.wav,stimuli/screen_origin.wav,stimuli/screen_quiet.wav,3,41956,2021-10-03_20h54.35.954,judgeSpeechMusic_20210919_logNormShiftAmp_detection_fixFreq,2020.1.2,MacIntel,60,,,,,,,,,,,,,,,,,,,,,,,,,,,,,,,,,,,,,,,
3,1,0.5159,0,3,3,2,1,stimuli/screen_origin.wav,stimuli/screen_antiphase.wav,stimuli/screen_quiet.wav,3,41956,2021-10-03_20h54.35.954,judgeSpeechMusic_20210919_logNormShiftAmp_detection_fixFreq,2020.1.2,MacIntel,60,,,,,,,,,,,,,,,,,,,,,,,,,,,,,,,,,,,,,,,
1,1,0.4841,0,4,4,4,1,stimuli/screen_quiet.wav,stimuli/screen_antiphase.wav,stimuli/screen_origin.wav,1,41956,2021-10-03_20h54.35.954,judgeSpeechMusic_20210919_logNormShiftAmp_detection_fixFreq,2020.1.2,MacIntel,60,,,,,,,,,,,,,,,,,,,,,,,,,,,,,,,,,,,,,,,
2,1,0.4174,0,5,5,3,1,stimuli/screen_origin.wav,stimuli/screen_quiet.wav,stimuli/screen_antiphase.wav,2,41956,2021-10-03_20h54.35.954,judgeSpeechMusic_20210919_logNormShiftAmp_detection_fixFreq,2020.1.2,MacIntel,60,,,,,,,,,,,,,,,,,,,,,,,,,,,,,,,,,,,,,,,
,,,,,,,,,,,,41956,2021-10-03_20h54.35.954,judgeSpeechMusic_20210919_logNormShiftAmp_detection_fixFreq,2020.1.2,MacIntel,60,space,0.6496,1,11.2033,,0,0,0,0,2,1,stimuli/stim_20210919_power2amp/equal_lnn_AM_training2Hz_s40.m4a,,,,,,,,,,,,,,,,,,,,,,,,,,,
,,,,,,,,,,,,41956,2021-10-03_20h54.35.954,judgeSpeechMusic_20210919_logNormShiftAmp_detection_fixFreq,2020.1.2,MacIntel,60,,,1,6.5257,,0,0,1,1,0,1,stimuli/stim_20210919_power2amp/equal_lnn_AM_training2Hz_s20.m4a,,,,,,,,,,,,,,,,,,,,,,,,,,,
,,,,,,,,,,,,41956,2021-10-03_20h54.35.954,judgeSpeechMusic_20210919_logNormShiftAmp_detection_fixFreq,2020.1.2,MacIntel,60,,,1,8.0584,4,1,0,2,2,3,1,stimuli/stim_20210919_power2amp/equal_lnn_AM_training2Hz_s50.m4a,5.2,,,,,,,,,,,,,,,,,,,,,,,,,,
,,,,,,,,,,,,41956,2021-10-03_20h54.35.954,judgeSpeechMusic_20210919_logNormShiftAmp_detection_fixFreq,2020.1.2,MacIntel,60,,,1,7.8768,,0,0,3,3,1,1,stimuli/stim_20210919_power2amp/equal_lnn_AM_training2Hz_s30.m4a,,,,,,,,,,,,,,,,,,,,,,,,,,,
,,,,,,,,,,,,41956,2021-10-03_20h54.35.954,judgeSpeechMusic_20210919_logNormShiftAmp_detection_fixFreq,2020.1.2,MacIntel,60,,,,,,,,,,,,,,space,7.4067,space,0.5559,1,7.2202,,0,0,0,0,9,1,stimuli/stim_20210919_power2amp/equal_lnn_AM2Hz_s15_35.m4a,,,,,,,,,,,,
,,,,,,,,,,,,41956,2021-10-03_20h54.35.954,judgeSpeechMusic_20210919_logNormShiftAmp_detection_fixFreq,2020.1.2,MacIntel,60,,,,,,,,,,,,,,,,,,1,6.7944,,0,0,1,1,26,1,stimuli/stim_20210919_power2amp/equal_lnn_AM2Hz_s25_13.m4a,,,,,,,,,,,,
,,,,,,,,,,,,41956,2021-10-03_20h54.35.954,judgeSpeechMusic_20210919_logNormShiftAmp_detection_fixFreq,2020.1.2,MacIntel,60,,,,,,,,,,,,,,,,,,1,6.8467,,0,0,2,2,61,1,stimuli/stim_20210919_power2amp/equal_lnn_AM2Hz_s55_42.m4a,,,,,,,,,,,,
,,,,,,,,,,,,41956,2021-10-03_20h54.35.954,judgeSpeechMusic_20210919_logNormShiftAmp_detection_fixFreq,2020.1.2,MacIntel,60,,,,,,,,,,,,,,,,,,1,6.4608,,0,0,3,3,71,1,stimuli/stim_20210919_power2amp/equal_lnn_AM2Hz_s55_35.m4a,,,,,,,,,,,,
,,,,,,,,,,,,41956,2021-10-03_20h54.35.954,judgeSpeechMusic_20210919_logNormShiftAmp_detection_fixFreq,2020.1.2,MacIntel,60,,,,,,,,,,,,,,,,,,1,7.8467,,0,0,4,4,62,1,stimuli/stim_20210919_power2amp/equal_lnn_AM2Hz_s55_9.m4a,,,,,,,,,,,,
,,,,,,,,,,,,41956,2021-10-03_20h54.35.954,judgeSpeechMusic_20210919_logNormShiftAmp_detection_fixFreq,2020.1.2,MacIntel,60,,,,,,,,,,,,,,,,,,2,8.8953,,0,0,5,5,32,1,stimuli/stim_20210919_power2amp/equal_lnn_AM2Hz_s35_38.m4a,,,,,,,,,,,,
,,,,,,,,,,,,41956,2021-10-03_20h54.35.954,judgeSpeechMusic_20210919_logNormShiftAmp_detection_fixFreq,2020.1.2,MacIntel,60,,,,,,,,,,,,,,,,,,1,7.1303,,0,0,6,6,17,1,stimuli/stim_20210919_power2amp/equal_lnn_AM2Hz_s25_47.m4a,,,,,,,,,,,,
,,,,,,,,,,,,41956,2021-10-03_20h54.35.954,judgeSpeechMusic_20210919_logNormShiftAmp_detection_fixFreq,2020.1.2,MacIntel,60,,,,,,,,,,,,,,,,,,1,6.2301,,0,0,7,7,31,1,stimuli/stim_20210919_power2amp/equal_lnn_AM2Hz_s35_5.m4a,,,,,,,,,,,,
,,,,,,,,,,,,41956,2021-10-03_20h54.35.954,judgeSpeechMusic_20210919_logNormShiftAmp_detection_fixFreq,2020.1.2,MacIntel,60,,,,,,,,,,,,,,,,,,1,6.596,,0,0,8,8,51,1,stimuli/stim_20210919_power2amp/equal_lnn_AM2Hz_s45_16.m4a,,,,,,,,,,,,
,,,,,,,,,,,,41956,2021-10-03_20h54.35.954,judgeSpeechMusic_20210919_logNormShiftAmp_detection_fixFreq,2020.1.2,MacIntel,60,,,,,,,,,,,,,,,,,,1,6.1315,,0,0,9,9,57,1,stimuli/stim_20210919_power2amp/equal_lnn_AM2Hz_s45_28.m4a,,,,,,,,,,,,
,,,,,,,,,,,,41956,2021-10-03_20h54.35.954,judgeSpeechMusic_20210919_logNormShiftAmp_detection_fixFreq,2020.1.2,MacIntel,60,,,,,,,,,,,,,,,,,,1,21.412,,0,0,10,10,4,1,stimuli/stim_20210919_power2amp/equal_lnn_AM2Hz_s15_18.m4a,,,,,,,,,,,,
,,,,,,,,,,,,41956,2021-10-03_20h54.35.954,judgeSpeechMusic_20210919_logNormShiftAmp_detection_fixFreq,2020.1.2,MacIntel,60,,,,,,,,,,,,,,,,,,1,6.9277,,0,0,11,11,73,1,stimuli/stim_20210919_power2amp/equal_lnn_AM2Hz_s55_44.m4a,,,,,,,,,,,,
,,,,,,,,,,,,41956,2021-10-03_20h54.35.954,judgeSpeechMusic_20210919_logNormShiftAmp_detection_fixFreq,2020.1.2,MacIntel,60,,,,,,,,,,,,,,,,,,1,10.0308,,0,0,12,12,30,1,stimuli/stim_20210919_power2amp/equal_lnn_AM2Hz_s35_37.m4a,,,,,,,,,,,,
,,,,,,,,,,,,41956,2021-10-03_20h54.35.954,judgeSpeechMusic_20210919_logNormShiftAmp_detection_fixFreq,2020.1.2,MacIntel,60,,,,,,,,,,,,,,,,,,1,7.4297,,0,0,13,13,12,1,stimuli/stim_20210919_power2amp/equal_lnn_AM2Hz_s15_40.m4a,,,,,,,,,,,,
,,,,,,,,,,,,41956,2021-10-03_20h54.35.954,judgeSpeechMusic_20210919_logNormShiftAmp_detection_fixFreq,2020.1.2,MacIntel,60,,,,,,,,,,,,,,,,,,1,16.6633,,0,0,14,14,25,1,stimuli/stim_20210919_power2amp/equal_lnn_AM2Hz_s25_45.m4a,,,,,,,,,,,,
,,,,,,,,,,,,41956,2021-10-03_20h54.35.954,judgeSpeechMusic_20210919_logNormShiftAmp_detection_fixFreq,2020.1.2,MacIntel,60,,,,,,,,,,,,,,,,,,1,6.662,,0,0,15,15,22,1,stimuli/stim_20210919_power2amp/equal_lnn_AM2Hz_s25_22.m4a,,,,,,,,,,,,
,,,,,,,,,,,,41956,2021-10-03_20h54.35.954,judgeSpeechMusic_20210919_logNormShiftAmp_detection_fixFreq,2020.1.2,MacIntel,60,,,,,,,,,,,,,,,,,,1,6.4461,,0,0,16,16,0,1,stimuli/stim_20210919_power2amp/equal_lnn_AM2Hz_s15_4.m4a,,,,,,,,,,,,
,,,,,,,,,,,,41956,2021-10-03_20h54.35.954,judgeSpeechMusic_20210919_logNormShiftAmp_detection_fixFreq,2020.1.2,MacIntel,60,,,,,,,,,,,,,,,,,,1,6.7126,,0,0,17,17,13,1,stimuli/stim_20210919_power2amp/equal_lnn_AM2Hz_s15_6.m4a,,,,,,,,,,,,
,,,,,,,,,,,,41956,2021-10-03_20h54.35.954,judgeSpeechMusic_20210919_logNormShiftAmp_detection_fixFreq,2020.1.2,MacIntel,60,,,,,,,,,,,,,,,,,,1,8.6127,2,1,0,18,18,14,1,stimuli/stim_20210919_power2amp/equal_lnn_AM2Hz_s15_19.m4a,1.5649,,,,,,,,,,,
,,,,,,,,,,,,41956,2021-10-03_20h54.35.954,judgeSpeechMusic_20210919_logNormShiftAmp_detection_fixFreq,2020.1.2,MacIntel,60,,,,,,,,,,,,,,,,,,1,8.296,,0,0,19,19,7,1,stimuli/stim_20210919_power2amp/equal_lnn_AM2Hz_s15_10.m4a,,,,,,,,,,,,
,,,,,,,,,,,,41956,2021-10-03_20h54.35.954,judgeSpeechMusic_20210919_logNormShiftAmp_detection_fixFreq,2020.1.2,MacIntel,60,,,,,,,,,,,,,,,,,,1,7.9135,,0,0,20,20,33,1,stimuli/stim_20210919_power2amp/equal_lnn_AM2Hz_s35_10.m4a,,,,,,,,,,,,
,,,,,,,,,,,,41956,2021-10-03_20h54.35.954,judgeSpeechMusic_20210919_logNormShiftAmp_detection_fixFreq,2020.1.2,MacIntel,60,,,,,,,,,,,,,,,,,,1,10.0127,,0,0,21,21,70,1,stimuli/stim_20210919_power2amp/equal_lnn_AM2Hz_s55_18.m4a,,,,,,,,,,,,
,,,,,,,,,,,,41956,2021-10-03_20h54.35.954,judgeSpeechMusic_20210919_logNormShiftAmp_detection_fixFreq,2020.1.2,MacIntel,60,,,,,,,,,,,,,,,,,,1,13.5126,,0,0,22,22,59,1,stimuli/stim_20210919_power2amp/equal_lnn_AM2Hz_s45_17.m4a,,,,,,,,,,,,
,,,,,,,,,,,,41956,2021-10-03_20h54.35.954,judgeSpeechMusic_20210919_logNormShiftAmp_detection_fixFreq,2020.1.2,MacIntel,60,,,,,,,,,,,,,,,,,,1,6.5864,,0,0,23,23,68,1,stimuli/stim_20210919_power2amp/equal_lnn_AM2Hz_s55_15.m4a,,,,,,,,,,,,
,,,,,,,,,,,,41956,2021-10-03_20h54.35.954,judgeSpeechMusic_20210919_logNormShiftAmp_detection_fixFreq,2020.1.2,MacIntel,60,,,,,,,,,,,,,,,,,,1,10.8642,,0,0,24,24,29,1,stimuli/stim_20210919_power2amp/equal_lnn_AM2Hz_s25_26.m4a,,,,,,,,,,,,
,,,,,,,,,,,,41956,2021-10-03_20h54.35.954,judgeSpeechMusic_20210919_logNormShiftAmp_detection_fixFreq,2020.1.2,MacIntel,60,,,,,,,,,,,,,,,,,,1,7.0321,,0,0,25,25,50,1,stimuli/stim_20210919_power2amp/equal_lnn_AM2Hz_s45_26.m4a,,,,,,,,,,,,
,,,,,,,,,,,,41956,2021-10-03_20h54.35.954,judgeSpeechMusic_20210919_logNormShiftAmp_detection_fixFreq,2020.1.2,MacIntel,60,,,,,,,,,,,,,,,,,,1,27.4951,,0,0,26,26,28,1,stimuli/stim_20210919_power2amp/equal_lnn_AM2Hz_s25_21.m4a,,,,,,,,,,,,
,,,,,,,,,,,,41956,2021-10-03_20h54.35.954,judgeSpeechMusic_20210919_logNormShiftAmp_detection_fixFreq,2020.1.2,MacIntel,60,,,,,,,,,,,,,,,,,,1,9.5132,,0,0,27,27,16,1,stimuli/stim_20210919_power2amp/equal_lnn_AM2Hz_s25_25.m4a,,,,,,,,,,,,
,,,,,,,,,,,,41956,2021-10-03_20h54.35.954,judgeSpeechMusic_20210919_logNormShiftAmp_detection_fixFreq,2020.1.2,MacIntel,60,,,,,,,,,,,,,,,,,,1,7.0635,,0,0,28,28,48,1,stimuli/stim_20210919_power2amp/equal_lnn_AM2Hz_s45_30.m4a,,,,,,,,,,,,
,,,,,,,,,,,,41956,2021-10-03_20h54.35.954,judgeSpeechMusic_20210919_logNormShiftAmp_detection_fixFreq,2020.1.2,MacIntel,60,,,,,,,,,,,,,,,,,,2,6.9292,,0,0,29,29,38,1,stimuli/stim_20210919_power2amp/equal_lnn_AM2Hz_s35_21.m4a,,,,,,,,,,,,
,,,,,,,,,,,,41956,2021-10-03_20h54.35.954,judgeSpeechMusic_20210919_logNormShiftAmp_detection_fixFreq,2020.1.2,MacIntel,60,,,,,,,,,,,,,,,,,,1,7.9135,,0,0,30,30,21,1,stimuli/stim_20210919_power2amp/equal_lnn_AM2Hz_s25_42.m4a,,,,,,,,,,,,
,,,,,,,,,,,,41956,2021-10-03_20h54.35.954,judgeSpeechMusic_20210919_logNormShiftAmp_detection_fixFreq,2020.1.2,MacIntel,60,,,,,,,,,,,,,,,,,,1,37.8822,,0,0,31,31,45,1,stimuli/stim_20210919_power2amp/equal_lnn_AM2Hz_s45_9.m4a,,,,,,,,,,,,
,,,,,,,,,,,,41956,2021-10-03_20h54.35.954,judgeSpeechMusic_20210919_logNormShiftAmp_detection_fixFreq,2020.1.2,MacIntel,60,,,,,,,,,,,,,,,,,,1,37.4461,,0,0,32,32,27,1,stimuli/stim_20210919_power2amp/equal_lnn_AM2Hz_s25_36.m4a,,,,,,,,,,,,
,,,,,,,,,,,,41956,2021-10-03_20h54.35.954,judgeSpeechMusic_20210919_logNormShiftAmp_detection_fixFreq,2020.1.2,MacIntel,60,,,,,,,,,,,,,,,,,,1,7.9296,,0,0,33,33,52,1,stimuli/stim_20210919_power2amp/equal_lnn_AM2Hz_s45_18.m4a,,,,,,,,,,,,
,,,,,,,,,,,,41956,2021-10-03_20h54.35.954,judgeSpeechMusic_20210919_logNormShiftAmp_detection_fixFreq,2020.1.2,MacIntel,60,,,,,,,,,,,,,,,,,,1,6.3639,,0,0,34,34,41,1,stimuli/stim_20210919_power2amp/equal_lnn_AM2Hz_s35_50.m4a,,,,,,,,,,,,
,,,,,,,,,,,,41956,2021-10-03_20h54.35.954,judgeSpeechMusic_20210919_logNormShiftAmp_detection_fixFreq,2020.1.2,MacIntel,60,,,,,,,,,,,,,,,,,,1,6.4796,,0,0,35,35,8,1,stimuli/stim_20210919_power2amp/equal_lnn_AM2Hz_s15_14.m4a,,,,,,,,,,,,
,,,,,,,,,,,,41956,2021-10-03_20h54.35.954,judgeSpeechMusic_20210919_logNormShiftAmp_detection_fixFreq,2020.1.2,MacIntel,60,,,,,,,,,,,,,,,,,,1,8.0305,,0,0,36,36,46,1,stimuli/stim_20210919_power2amp/equal_lnn_AM2Hz_s45_44.m4a,,,,,,,,,,,,
,,,,,,,,,,,,41956,2021-10-03_20h54.35.954,judgeSpeechMusic_20210919_logNormShiftAmp_detection_fixFreq,2020.1.2,MacIntel,60,,,,,,,,,,,,,,,,,,1,12.9309,4,1,0,37,37,49,1,stimuli/stim_20210919_power2amp/equal_lnn_AM2Hz_s45_34.m4a,3.4314,,,,,,,,,,,
,,,,,,,,,,,,41956,2021-10-03_20h54.35.954,judgeSpeechMusic_20210919_logNormShiftAmp_detection_fixFreq,2020.1.2,MacIntel,60,,,,,,,,,,,,,,,,,,2,6.8301,,0,0,38,38,66,1,stimuli/stim_20210919_power2amp/equal_lnn_AM2Hz_s55_32.m4a,,,,,,,,,,,,
,,,,,,,,,,,,41956,2021-10-03_20h54.35.954,judgeSpeechMusic_20210919_logNormShiftAmp_detection_fixFreq,2020.1.2,MacIntel,60,,,,,,,,,,,,,,,,,,1,6.6298,,0,0,39,39,54,1,stimuli/stim_20210919_power2amp/equal_lnn_AM2Hz_s45_3.m4a,,,,,,,,,,,,
,,,,,,,,,,,,41956,2021-10-03_20h54.35.954,judgeSpeechMusic_20210919_logNormShiftAmp_detection_fixFreq,2020.1.2,MacIntel,60,,,,,,,,,,,,,,,,,,1,10.3126,,0,0,40,40,64,1,stimuli/stim_20210919_power2amp/equal_lnn_AM2Hz_s55_41.m4a,,,,,,,,,,,,
,,,,,,,,,,,,41956,2021-10-03_20h54.35.954,judgeSpeechMusic_20210919_logNormShiftAmp_detection_fixFreq,2020.1.2,MacIntel,60,,,,,,,,,,,,,,,,,,1,16.9636,,0,0,41,41,47,1,stimuli/stim_20210919_power2amp/equal_lnn_AM2Hz_s45_29.m4a,,,,,,,,,,,,
,,,,,,,,,,,,41956,2021-10-03_20h54.35.954,judgeSpeechMusic_20210919_logNormShiftAmp_detection_fixFreq,2020.1.2,MacIntel,60,,,,,,,,,,,,,,,,,,2,6.8626,,0,0,42,42,55,1,stimuli/stim_20210919_power2amp/equal_lnn_AM2Hz_s45_13.m4a,,,,,,,,,,,,
,,,,,,,,,,,,41956,2021-10-03_20h54.35.954,judgeSpeechMusic_20210919_logNormShiftAmp_detection_fixFreq,2020.1.2,MacIntel,60,,,,,,,,,,,,,,,,,,1,6.5652,,0,0,43,43,53,1,stimuli/stim_20210919_power2amp/equal_lnn_AM2Hz_s45_25.m4a,,,,,,,,,,,,
,,,,,,,,,,,,41956,2021-10-03_20h54.35.954,judgeSpeechMusic_20210919_logNormShiftAmp_detection_fixFreq,2020.1.2,MacIntel,60,,,,,,,,,,,,,,,,,,2,6.9797,,0,0,44,44,42,1,stimuli/stim_20210919_power2amp/equal_lnn_AM2Hz_s35_30.m4a,,,,,,,,,,,,
,,,,,,,,,,,,41956,2021-10-03_20h54.35.954,judgeSpeechMusic_20210919_logNormShiftAmp_detection_fixFreq,2020.1.2,MacIntel,60,,,,,,,,,,,,,,,,,,2,5.8126,,0,0,45,45,36,1,stimuli/stim_20210919_power2amp/equal_lnn_AM2Hz_s35_31.m4a,,,,,,,,,,,,
,,,,,,,,,,,,41956,2021-10-03_20h54.35.954,judgeSpeechMusic_20210919_logNormShiftAmp_detection_fixFreq,2020.1.2,MacIntel,60,,,,,,,,,,,,,,,,,,1,7.2123,,0,0,46,46,60,1,stimuli/stim_20210919_power2amp/equal_lnn_AM2Hz_s55_39.m4a,,,,,,,,,,,,
,,,,,,,,,,,,41956,2021-10-03_20h54.35.954,judgeSpeechMusic_20210919_logNormShiftAmp_detection_fixFreq,2020.1.2,MacIntel,60,,,,,,,,,,,,,,,,,,1,6.1467,,0,0,47,47,65,1,stimuli/stim_20210919_power2amp/equal_lnn_AM2Hz_s55_50.m4a,,,,,,,,,,,,
,,,,,,,,,,,,41956,2021-10-03_20h54.35.954,judgeSpeechMusic_20210919_logNormShiftAmp_detection_fixFreq,2020.1.2,MacIntel,60,,,,,,,,,,,,,,,,,,2,6.4789,,0,0,48,48,2,1,stimuli/stim_20210919_power2amp/equal_lnn_AM2Hz_s15_34.m4a,,,,,,,,,,,,
,,,,,,,,,,,,41956,2021-10-03_20h54.35.954,judgeSpeechMusic_20210919_logNormShiftAmp_detection_fixFreq,2020.1.2,MacIntel,60,,,,,,,,,,,,,,,,,,2,6.1298,,0,0,49,49,23,1,stimuli/stim_20210919_power2amp/equal_lnn_AM2Hz_s25_3.m4a,,,,,,,,,,,,
,,,,,,,,,,,,41956,2021-10-03_20h54.35.954,judgeSpeechMusic_20210919_logNormShiftAmp_detection_fixFreq,2020.1.2,MacIntel,60,,,,,,,,,,,,,,,,,,2,7.629,,0,0,50,50,58,1,stimuli/stim_20210919_power2amp/equal_lnn_AM2Hz_s45_45.m4a,,,,,,,,,,,,
,,,,,,,,,,,,41956,2021-10-03_20h54.35.954,judgeSpeechMusic_20210919_logNormShiftAmp_detection_fixFreq,2020.1.2,MacIntel,60,,,,,,,,,,,,,,,,,,1,6.0117,,0,0,51,51,11,1,stimuli/stim_20210919_power2amp/equal_lnn_AM2Hz_s15_28.m4a,,,,,,,,,,,,
,,,,,,,,,,,,41956,2021-10-03_20h54.35.954,judgeSpeechMusic_20210919_logNormShiftAmp_detection_fixFreq,2020.1.2,MacIntel,60,,,,,,,,,,,,,,,,,,1,12.5137,,0,0,52,52,6,1,stimuli/stim_20210919_power2amp/equal_lnn_AM2Hz_s15_49.m4a,,,,,,,,,,,,
,,,,,,,,,,,,41956,2021-10-03_20h54.35.954,judgeSpeechMusic_20210919_logNormShiftAmp_detection_fixFreq,2020.1.2,MacIntel,60,,,,,,,,,,,,,,,,,,2,6.6793,,0,0,53,53,56,1,stimuli/stim_20210919_power2amp/equal_lnn_AM2Hz_s45_8.m4a,,,,,,,,,,,,
,,,,,,,,,,,,41956,2021-10-03_20h54.35.954,judgeSpeechMusic_20210919_logNormShiftAmp_detection_fixFreq,2020.1.2,MacIntel,60,,,,,,,,,,,,,,,,,,2,15.1967,,0,0,54,54,39,1,stimuli/stim_20210919_power2amp/equal_lnn_AM2Hz_s35_6.m4a,,,,,,,,,,,,
,,,,,,,,,,,,41956,2021-10-03_20h54.35.954,judgeSpeechMusic_20210919_logNormShiftAmp_detection_fixFreq,2020.1.2,MacIntel,60,,,,,,,,,,,,,,,,,,2,7.2981,,0,0,55,55,43,1,stimuli/stim_20210919_power2amp/equal_lnn_AM2Hz_s35_27.m4a,,,,,,,,,,,,
,,,,,,,,,,,,41956,2021-10-03_20h54.35.954,judgeSpeechMusic_20210919_logNormShiftAmp_detection_fixFreq,2020.1.2,MacIntel,60,,,,,,,,,,,,,,,,,,1,6.5615,,0,0,56,56,19,1,stimuli/stim_20210919_power2amp/equal_lnn_AM2Hz_s25_12.m4a,,,,,,,,,,,,
,,,,,,,,,,,,41956,2021-10-03_20h54.35.954,judgeSpeechMusic_20210919_logNormShiftAmp_detection_fixFreq,2020.1.2,MacIntel,60,,,,,,,,,,,,,,,,,,1,6.5639,,0,0,57,57,34,1,stimuli/stim_20210919_power2amp/equal_lnn_AM2Hz_s35_15.m4a,,,,,,,,,,,,
,,,,,,,,,,,,41956,2021-10-03_20h54.35.954,judgeSpeechMusic_20210919_logNormShiftAmp_detection_fixFreq,2020.1.2,MacIntel,60,,,,,,,,,,,,,,,,,,1,6.2792,2,1,0,58,58,5,1,stimuli/stim_20210919_power2amp/equal_lnn_AM2Hz_s15_25.m4a,1.8657,,,,,,,,,,,
,,,,,,,,,,,,41956,2021-10-03_20h54.35.954,judgeSpeechMusic_20210919_logNormShiftAmp_detection_fixFreq,2020.1.2,MacIntel,60,,,,,,,,,,,,,,,,,,1,9.3954,,0,0,59,59,24,1,stimuli/stim_20210919_power2amp/equal_lnn_AM2Hz_s25_32.m4a,,,,,,,,,,,,
,,,,,,,,,,,,41956,2021-10-03_20h54.35.954,judgeSpeechMusic_20210919_logNormShiftAmp_detection_fixFreq,2020.1.2,MacIntel,60,,,,,,,,,,,,,,,,,,1,7.4299,,0,0,60,60,67,1,stimuli/stim_20210919_power2amp/equal_lnn_AM2Hz_s55_21.m4a,,,,,,,,,,,,
,,,,,,,,,,,,41956,2021-10-03_20h54.35.954,judgeSpeechMusic_20210919_logNormShiftAmp_detection_fixFreq,2020.1.2,MacIntel,60,,,,,,,,,,,,,,,,,,2,6.63,,0,0,61,61,72,1,stimuli/stim_20210919_power2amp/equal_lnn_AM2Hz_s55_47.m4a,,,,,,,,,,,,
,,,,,,,,,,,,41956,2021-10-03_20h54.35.954,judgeSpeechMusic_20210919_logNormShiftAmp_detection_fixFreq,2020.1.2,MacIntel,60,,,,,,,,,,,,,,,,,,2,7.4745,,0,0,62,62,37,1,stimuli/stim_20210919_power2amp/equal_lnn_AM2Hz_s35_43.m4a,,,,,,,,,,,,
,,,,,,,,,,,,41956,2021-10-03_20h54.35.954,judgeSpeechMusic_20210919_logNormShiftAmp_detection_fixFreq,2020.1.2,MacIntel,60,,,,,,,,,,,,,,,,,,2,9.0725,,0,0,63,63,35,1,stimuli/stim_20210919_power2amp/equal_lnn_AM2Hz_s35_39.m4a,,,,,,,,,,,,
,,,,,,,,,,,,41956,2021-10-03_20h54.35.954,judgeSpeechMusic_20210919_logNormShiftAmp_detection_fixFreq,2020.1.2,MacIntel,60,,,,,,,,,,,,,,,,,,1,7.7973,,0,0,64,64,3,1,stimuli/stim_20210919_power2amp/equal_lnn_AM2Hz_s15_43.m4a,,,,,,,,,,,,
,,,,,,,,,,,,41956,2021-10-03_20h54.35.954,judgeSpeechMusic_20210919_logNormShiftAmp_detection_fixFreq,2020.1.2,MacIntel,60,,,,,,,,,,,,,,,,,,2,14.8962,,0,0,65,65,1,1,stimuli/stim_20210919_power2amp/equal_lnn_AM2Hz_s15_24.m4a,,,,,,,,,,,,
,,,,,,,,,,,,41956,2021-10-03_20h54.35.954,judgeSpeechMusic_20210919_logNormShiftAmp_detection_fixFreq,2020.1.2,MacIntel,60,,,,,,,,,,,,,,,,,,2,33.2646,,0,0,66,66,44,1,stimuli/stim_20210919_power2amp/equal_lnn_AM2Hz_s35_40.m4a,,,,,,,,,,,,
,,,,,,,,,,,,41956,2021-10-03_20h54.35.954,judgeSpeechMusic_20210919_logNormShiftAmp_detection_fixFreq,2020.1.2,MacIntel,60,,,,,,,,,,,,,,,,,,2,6.5967,,0,0,67,67,74,1,stimuli/stim_20210919_power2amp/equal_lnn_AM2Hz_s55_12.m4a,,,,,,,,,,,,
,,,,,,,,,,,,41956,2021-10-03_20h54.35.954,judgeSpeechMusic_20210919_logNormShiftAmp_detection_fixFreq,2020.1.2,MacIntel,60,,,,,,,,,,,,,,,,,,2,6.2989,,0,0,68,68,10,1,stimuli/stim_20210919_power2amp/equal_lnn_AM2Hz_s15_5.m4a,,,,,,,,,,,,
,,,,,,,,,,,,41956,2021-10-03_20h54.35.954,judgeSpeechMusic_20210919_logNormShiftAmp_detection_fixFreq,2020.1.2,MacIntel,60,,,,,,,,,,,,,,,,,,1,7.8129,,0,0,69,69,40,1,stimuli/stim_20210919_power2amp/equal_lnn_AM2Hz_s35_14.m4a,,,,,,,,,,,,
,,,,,,,,,,,,41956,2021-10-03_20h54.35.954,judgeSpeechMusic_20210919_logNormShiftAmp_detection_fixFreq,2020.1.2,MacIntel,60,,,,,,,,,,,,,,,,,,1,7.5417,,0,0,70,70,20,1,stimuli/stim_20210919_power2amp/equal_lnn_AM2Hz_s25_48.m4a,,,,,,,,,,,,
,,,,,,,,,,,,41956,2021-10-03_20h54.35.954,judgeSpeechMusic_20210919_logNormShiftAmp_detection_fixFreq,2020.1.2,MacIntel,60,,,,,,,,,,,,,,,,,,2,6.446,,0,0,71,71,63,1,stimuli/stim_20210919_power2amp/equal_lnn_AM2Hz_s55_14.m4a,,,,,,,,,,,,
,,,,,,,,,,,,41956,2021-10-03_20h54.35.954,judgeSpeechMusic_20210919_logNormShiftAmp_detection_fixFreq,2020.1.2,MacIntel,60,,,,,,,,,,,,,,,,,,2,6.2464,,0,0,72,72,15,1,stimuli/stim_20210919_power2amp/equal_lnn_AM2Hz_s25_29.m4a,,,,,,,,,,,,
,,,,,,,,,,,,41956,2021-10-03_20h54.35.954,judgeSpeechMusic_20210919_logNormShiftAmp_detection_fixFreq,2020.1.2,MacIntel,60,,,,,,,,,,,,,,,,,,1,6.7961,,0,0,73,73,18,1,stimuli/stim_20210919_power2amp/equal_lnn_AM2Hz_s25_14.m4a,,,,,,,,,,,,
,,,,,,,,,,,,41956,2021-10-03_20h54.35.954,judgeSpeechMusic_20210919_logNormShiftAmp_detection_fixFreq,2020.1.2,MacIntel,60,,,,,,,,,,,,,,,,,,2,7.8965,,0,0,74,74,69,1,stimuli/stim_20210919_power2amp/equal_lnn_AM2Hz_s55_7.m4a,,,,,,,,,,,,
,,,,,,,,,,,,41956,2021-10-03_20h54.35.954,judgeSpeechMusic_20210919_logNormShiftAmp_detection_fixFreq,2020.1.2,MacIntel,60,,,,,,,,,,,,,,,,,,,,,,,,,,,,,space,0.8638,0,0,0,1,1,SPEECH,stimuli/SPEECH.jpg,,
,,,,,,,,,,,,41956,2021-10-03_20h54.35.954,judgeSpeechMusic_20210919_logNormShiftAmp_detection_fixFreq,2020.1.2,MacIntel,60,space,0.6024,1,9.9783,,0,0,0,0,3,1,stimuli/stim_20210919_power2amp/equal_lnn_AM_training2Hz_s50.m4a,,,,,,,,,,,,,,,,,,,,,,,,,,,
,,,,,,,,,,,,41956,2021-10-03_20h54.35.954,judgeSpeechMusic_20210919_logNormShiftAmp_detection_fixFreq,2020.1.2,MacIntel,60,,,2,6.4224,,0,0,1,1,0,1,stimuli/stim_20210919_power2amp/equal_lnn_AM_training2Hz_s20.m4a,,,,,,,,,,,,,,,,,,,,,,,,,,,
,,,,,,,,,,,,41956,2021-10-03_20h54.35.954,judgeSpeechMusic_20210919_logNormShiftAmp_detection_fixFreq,2020.1.2,MacIntel,60,,,1,7.2942,1,1,0,2,2,2,1,stimuli/stim_20210919_power2amp/equal_lnn_AM_training2Hz_s40.m4a,1.3313,,,,,,,,,,,,,,,,,,,,,,,,,,
,,,,,,,,,,,,41956,2021-10-03_20h54.35.954,judgeSpeechMusic_20210919_logNormShiftAmp_detection_fixFreq,2020.1.2,MacIntel,60,,,2,7.1778,,0,0,3,3,1,1,stimuli/stim_20210919_power2amp/equal_lnn_AM_training2Hz_s30.m4a,,,,,,,,,,,,,,,,,,,,,,,,,,,
,,,,,,,,,,,,41956,2021-10-03_20h54.35.954,judgeSpeechMusic_20210919_logNormShiftAmp_detection_fixFreq,2020.1.2,MacIntel,60,,,,,,,,,,,,,,space,6.8186,space,0.9656,1,7.9711,,0,0,0,0,20,1,stimuli/stim_20210919_power2amp/equal_lnn_AM2Hz_s25_48.m4a,,,,,,,,,,,,
,,,,,,,,,,,,41956,2021-10-03_20h54.35.954,judgeSpeechMusic_20210919_logNormShiftAmp_detection_fixFreq,2020.1.2,MacIntel,60,,,,,,,,,,,,,,,,,,2,8.0439,,0,0,1,1,70,1,stimuli/stim_20210919_power2amp/equal_lnn_AM2Hz_s55_18.m4a,,,,,,,,,,,,
,,,,,,,,,,,,41956,2021-10-03_20h54.35.954,judgeSpeechMusic_20210919_logNormShiftAmp_detection_fixFreq,2020.1.2,MacIntel,60,,,,,,,,,,,,,,,,,,2,6.6977,,0,0,2,2,39,1,stimuli/stim_20210919_power2amp/equal_lnn_AM2Hz_s35_6.m4a,,,,,,,,,,,,
,,,,,,,,,,,,41956,2021-10-03_20h54.35.954,judgeSpeechMusic_20210919_logNormShiftAmp_detection_fixFreq,2020.1.2,MacIntel,60,,,,,,,,,,,,,,,,,,2,8.0302,,0,0,3,3,31,1,stimuli/stim_20210919_power2amp/equal_lnn_AM2Hz_s35_5.m4a,,,,,,,,,,,,
,,,,,,,,,,,,41956,2021-10-03_20h54.35.954,judgeSpeechMusic_20210919_logNormShiftAmp_detection_fixFreq,2020.1.2,MacIntel,60,,,,,,,,,,,,,,,,,,2,5.9137,,0,0,4,4,18,1,stimuli/stim_20210919_power2amp/equal_lnn_AM2Hz_s25_14.m4a,,,,,,,,,,,,
,,,,,,,,,,,,41956,2021-10-03_20h54.35.954,judgeSpeechMusic_20210919_logNormShiftAmp_detection_fixFreq,2020.1.2,MacIntel,60,,,,,,,,,,,,,,,,,,2,6.13,,0,0,5,5,38,1,stimuli/stim_20210919_power2amp/equal_lnn_AM2Hz_s35_21.m4a,,,,,,,,,,,,
,,,,,,,,,,,,41956,2021-10-03_20h54.35.954,judgeSpeechMusic_20210919_logNormShiftAmp_detection_fixFreq,2020.1.2,MacIntel,60,,,,,,,,,,,,,,,,,,1,6.4969,,0,0,6,6,28,1,stimuli/stim_20210919_power2amp/equal_lnn_AM2Hz_s25_21.m4a,,,,,,,,,,,,
,,,,,,,,,,,,41956,2021-10-03_20h54.35.954,judgeSpeechMusic_20210919_logNormShiftAmp_detection_fixFreq,2020.1.2,MacIntel,60,,,,,,,,,,,,,,,,,,1,6.4799,,0,0,7,7,51,1,stimuli/stim_20210919_power2amp/equal_lnn_AM2Hz_s45_16.m4a,,,,,,,,,,,,
,,,,,,,,,,,,41956,2021-10-03_20h54.35.954,judgeSpeechMusic_20210919_logNormShiftAmp_detection_fixFreq,2020.1.2,MacIntel,60,,,,,,,,,,,,,,,,,,2,10.63,,0,0,8,8,4,1,stimuli/stim_20210919_power2amp/equal_lnn_AM2Hz_s15_18.m4a,,,,,,,,,,,,
,,,,,,,,,,,,41956,2021-10-03_20h54.35.954,judgeSpeechMusic_20210919_logNormShiftAmp_detection_fixFreq,2020.1.2,MacIntel,60,,,,,,,,,,,,,,,,,,2,6.9299,,0,0,9,9,74,1,stimuli/stim_20210919_power2amp/equal_lnn_AM2Hz_s55_12.m4a,,,,,,,,,,,,
,,,,,,,,,,,,41956,2021-10-03_20h54.35.954,judgeSpeechMusic_20210919_logNormShiftAmp_detection_fixFreq,2020.1.2,MacIntel,60,,,,,,,,,,,,,,,,,,2,6.479,,0,0,10,10,22,1,stimuli/stim_20210919_power2amp/equal_lnn_AM2Hz_s25_22.m4a,,,,,,,,,,,,
,,,,,,,,,,,,41956,2021-10-03_20h54.35.954,judgeSpeechMusic_20210919_logNormShiftAmp_detection_fixFreq,2020.1.2,MacIntel,60,,,,,,,,,,,,,,,,,,1,5.9139,,0,0,11,11,27,1,stimuli/stim_20210919_power2amp/equal_lnn_AM2Hz_s25_36.m4a,,,,,,,,,,,,
,,,,,,,,,,,,41956,2021-10-03_20h54.35.954,judgeSpeechMusic_20210919_logNormShiftAmp_detection_fixFreq,2020.1.2,MacIntel,60,,,,,,,,,,,,,,,,,,1,6.9103,,0,0,12,12,48,1,stimuli/stim_20210919_power2amp/equal_lnn_AM2Hz_s45_30.m4a,,,,,,,,,,,,
,,,,,,,,,,,,41956,2021-10-03_20h54.35.954,judgeSpeechMusic_20210919_logNormShiftAmp_detection_fixFreq,2020.1.2,MacIntel,60,,,,,,,,,,,,,,,,,,1,7.6119,,0,0,13,13,7,1,stimuli/stim_20210919_power2amp/equal_lnn_AM2Hz_s15_10.m4a,,,,,,,,,,,,
,,,,,,,,,,,,41956,2021-10-03_20h54.35.954,judgeSpeechMusic_20210919_logNormShiftAmp_detection_fixFreq,2020.1.2,MacIntel,60,,,,,,,,,,,,,,,,,,1,6.4803,,0,0,14,14,19,1,stimuli/stim_20210919_power2amp/equal_lnn_AM2Hz_s25_12.m4a,,,,,,,,,,,,
,,,,,,,,,,,,41956,2021-10-03_20h54.35.954,judgeSpeechMusic_20210919_logNormShiftAmp_detection_fixFreq,2020.1.2,MacIntel,60,,,,,,,,,,,,,,,,,,1,6.4451,,0,0,15,15,2,1,stimuli/stim_20210919_power2amp/equal_lnn_AM2Hz_s15_34.m4a,,,,,,,,,,,,
,,,,,,,,,,,,41956,2021-10-03_20h54.35.954,judgeSpeechMusic_20210919_logNormShiftAmp_detection_fixFreq,2020.1.2,MacIntel,60,,,,,,,,,,,,,,,,,,2,6.997,,0,0,16,16,63,1,stimuli/stim_20210919_power2amp/equal_lnn_AM2Hz_s55_14.m4a,,,,,,,,,,,,
,,,,,,,,,,,,41956,2021-10-03_20h54.35.954,judgeSpeechMusic_20210919_logNormShiftAmp_detection_fixFreq,2020.1.2,MacIntel,60,,,,,,,,,,,,,,,,,,1,7.8133,,0,0,17,17,62,1,stimuli/stim_20210919_power2amp/equal_lnn_AM2Hz_s55_9.m4a,,,,,,,,,,,,
,,,,,,,,,,,,41956,2021-10-03_20h54.35.954,judgeSpeechMusic_20210919_logNormShiftAmp_detection_fixFreq,2020.1.2,MacIntel,60,,,,,,,,,,,,,,,,,,2,5.8808,3,1,0,18,18,0,1,stimuli/stim_20210919_power2amp/equal_lnn_AM2Hz_s15_4.m4a,1.3635,,,,,,,,,,,
,,,,,,,,,,,,41956,2021-10-03_20h54.35.954,judgeSpeechMusic_20210919_logNormShiftAmp_detection_fixFreq,2020.1.2,MacIntel,60,,,,,,,,,,,,,,,,,,2,6.6953,,0,0,19,19,60,1,stimuli/stim_20210919_power2amp/equal_lnn_AM2Hz_s55_39.m4a,,,,,,,,,,,,
,,,,,,,,,,,,41956,2021-10-03_20h54.35.954,judgeSpeechMusic_20210919_logNormShiftAmp_detection_fixFreq,2020.1.2,MacIntel,60,,,,,,,,,,,,,,,,,,1,7.0638,,0,0,20,20,47,1,stimuli/stim_20210919_power2amp/equal_lnn_AM2Hz_s45_29.m4a,,,,,,,,,,,,
,,,,,,,,,,,,41956,2021-10-03_20h54.35.954,judgeSpeechMusic_20210919_logNormShiftAmp_detection_fixFreq,2020.1.2,MacIntel,60,,,,,,,,,,,,,,,,,,2,8.5131,,0,0,21,21,69,1,stimuli/stim_20210919_power2amp/equal_lnn_AM2Hz_s55_7.m4a,,,,,,,,,,,,
,,,,,,,,,,,,41956,2021-10-03_20h54.35.954,judgeSpeechMusic_20210919_logNormShiftAmp_detection_fixFreq,2020.1.2,MacIntel,60,,,,,,,,,,,,,,,,,,2,7.2627,,0,0,22,22,45,1,stimuli/stim_20210919_power2amp/equal_lnn_AM2Hz_s45_9.m4a,,,,,,,,,,,,
,,,,,,,,,,,,41956,2021-10-03_20h54.35.954,judgeSpeechMusic_20210919_logNormShiftAmp_detection_fixFreq,2020.1.2,MacIntel,60,,,,,,,,,,,,,,,,,,2,7.8301,,0,0,23,23,57,1,stimuli/stim_20210919_power2amp/equal_lnn_AM2Hz_s45_28.m4a,,,,,,,,,,,,
,,,,,,,,,,,,41956,2021-10-03_20h54.35.954,judgeSpeechMusic_20210919_logNormShiftAmp_detection_fixFreq,2020.1.2,MacIntel,60,,,,,,,,,,,,,,,,,,2,9.0973,,0,0,24,24,61,1,stimuli/stim_20210919_power2amp/equal_lnn_AM2Hz_s55_42.m4a,,,,,,,,,,,,
,,,,,,,,,,,,41956,2021-10-03_20h54.35.954,judgeSpeechMusic_20210919_logNormShiftAmp_detection_fixFreq,2020.1.2,MacIntel,60,,,,,,,,,,,,,,,,,,1,8.6634,,0,0,25,25,68,1,stimuli/stim_20210919_power2amp/equal_lnn_AM2Hz_s55_15.m4a,,,,,,,,,,,,
,,,,,,,,,,,,41956,2021-10-03_20h54.35.954,judgeSpeechMusic_20210919_logNormShiftAmp_detection_fixFreq,2020.1.2,MacIntel,60,,,,,,,,,,,,,,,,,,1,7.2134,,0,0,26,26,43,1,stimuli/stim_20210919_power2amp/equal_lnn_AM2Hz_s35_27.m4a,,,,,,,,,,,,
,,,,,,,,,,,,41956,2021-10-03_20h54.35.954,judgeSpeechMusic_20210919_logNormShiftAmp_detection_fixFreq,2020.1.2,MacIntel,60,,,,,,,,,,,,,,,,,,1,11.0134,,0,0,27,27,35,1,stimuli/stim_20210919_power2amp/equal_lnn_AM2Hz_s35_39.m4a,,,,,,,,,,,,
,,,,,,,,,,,,41956,2021-10-03_20h54.35.954,judgeSpeechMusic_20210919_logNormShiftAmp_detection_fixFreq,2020.1.2,MacIntel,60,,,,,,,,,,,,,,,,,,2,7.7127,,0,0,28,28,14,1,stimuli/stim_20210919_power2amp/equal_lnn_AM2Hz_s15_19.m4a,,,,,,,,,,,,
,,,,,,,,,,,,41956,2021-10-03_20h54.35.954,judgeSpeechMusic_20210919_logNormShiftAmp_detection_fixFreq,2020.1.2,MacIntel,60,,,,,,,,,,,,,,,,,,2,6.7287,,0,0,29,29,71,1,stimuli/stim_20210919_power2amp/equal_lnn_AM2Hz_s55_35.m4a,,,,,,,,,,,,
,,,,,,,,,,,,41956,2021-10-03_20h54.35.954,judgeSpeechMusic_20210919_logNormShiftAmp_detection_fixFreq,2020.1.2,MacIntel,60,,,,,,,,,,,,,,,,,,2,7.1898,,0,0,30,30,52,1,stimuli/stim_20210919_power2amp/equal_lnn_AM2Hz_s45_18.m4a,,,,,,,,,,,,
,,,,,,,,,,,,41956,2021-10-03_20h54.35.954,judgeSpeechMusic_20210919_logNormShiftAmp_detection_fixFreq,2020.1.2,MacIntel,60,,,,,,,,,,,,,,,,,,2,6.4463,,0,0,31,31,73,1,stimuli/stim_20210919_power2amp/equal_lnn_AM2Hz_s55_44.m4a,,,,,,,,,,,,
,,,,,,,,,,,,41956,2021-10-03_20h54.35.954,judgeSpeechMusic_20210919_logNormShiftAmp_detection_fixFreq,2020.1.2,MacIntel,60,,,,,,,,,,,,,,,,,,1,6.567,,0,0,32,32,37,1,stimuli/stim_20210919_power2amp/equal_lnn_AM2Hz_s35_43.m4a,,,,,,,,,,,,
,,,,,,,,,,,,41956,2021-10-03_20h54.35.954,judgeSpeechMusic_20210919_logNormShiftAmp_detection_fixFreq,2020.1.2,MacIntel,60,,,,,,,,,,,,,,,,,,1,6.2299,,0,0,33,33,15,1,stimuli/stim_20210919_power2amp/equal_lnn_AM2Hz_s25_29.m4a,,,,,,,,,,,,
,,,,,,,,,,,,41956,2021-10-03_20h54.35.954,judgeSpeechMusic_20210919_logNormShiftAmp_detection_fixFreq,2020.1.2,MacIntel,60,,,,,,,,,,,,,,,,,,1,6.0307,,0,0,34,34,58,1,stimuli/stim_20210919_power2amp/equal_lnn_AM2Hz_s45_45.m4a,,,,,,,,,,,,
,,,,,,,,,,,,41956,2021-10-03_20h54.35.954,judgeSpeechMusic_20210919_logNormShiftAmp_detection_fixFreq,2020.1.2,MacIntel,60,,,,,,,,,,,,,,,,,,1,7.383,,0,0,35,35,24,1,stimuli/stim_20210919_power2amp/equal_lnn_AM2Hz_s25_32.m4a,,,,,,,,,,,,
,,,,,,,,,,,,41956,2021-10-03_20h54.35.954,judgeSpeechMusic_20210919_logNormShiftAmp_detection_fixFreq,2020.1.2,MacIntel,60,,,,,,,,,,,,,,,,,,1,12.6109,,0,0,36,36,64,1,stimuli/stim_20210919_power2amp/equal_lnn_AM2Hz_s55_41.m4a,,,,,,,,,,,,
,,,,,,,,,,,,41956,2021-10-03_20h54.35.954,judgeSpeechMusic_20210919_logNormShiftAmp_detection_fixFreq,2020.1.2,MacIntel,60,,,,,,,,,,,,,,,,,,2,8.3464,3,1,0,37,37,40,1,stimuli/stim_20210919_power2amp/equal_lnn_AM2Hz_s35_14.m4a,1.4315,,,,,,,,,,,
,,,,,,,,,,,,41956,2021-10-03_20h54.35.954,judgeSpeechMusic_20210919_logNormShiftAmp_detection_fixFreq,2020.1.2,MacIntel,60,,,,,,,,,,,,,,,,,,2,6.4296,,0,0,38,38,65,1,stimuli/stim_20210919_power2amp/equal_lnn_AM2Hz_s55_50.m4a,,,,,,,,,,,,
,,,,,,,,,,,,41956,2021-10-03_20h54.35.954,judgeSpeechMusic_20210919_logNormShiftAmp_detection_fixFreq,2020.1.2,MacIntel,60,,,,,,,,,,,,,,,,,,1,6.2469,,0,0,39,39,17,1,stimuli/stim_20210919_power2amp/equal_lnn_AM2Hz_s25_47.m4a,,,,,,,,,,,,
,,,,,,,,,,,,41956,2021-10-03_20h54.35.954,judgeSpeechMusic_20210919_logNormShiftAmp_detection_fixFreq,2020.1.2,MacIntel,60,,,,,,,,,,,,,,,,,,1,6.813,,0,0,40,40,26,1,stimuli/stim_20210919_power2amp/equal_lnn_AM2Hz_s25_13.m4a,,,,,,,,,,,,
,,,,,,,,,,,,41956,2021-10-03_20h54.35.954,judgeSpeechMusic_20210919_logNormShiftAmp_detection_fixFreq,2020.1.2,MacIntel,60,,,,,,,,,,,,,,,,,,2,7.4119,,0,0,41,41,41,1,stimuli/stim_20210919_power2amp/equal_lnn_AM2Hz_s35_50.m4a,,,,,,,,,,,,
,,,,,,,,,,,,41956,2021-10-03_20h54.35.954,judgeSpeechMusic_20210919_logNormShiftAmp_detection_fixFreq,2020.1.2,MacIntel,60,,,,,,,,,,,,,,,,,,2,6.5632,,0,0,42,42,50,1,stimuli/stim_20210919_power2amp/equal_lnn_AM2Hz_s45_26.m4a,,,,,,,,,,,,
,,,,,,,,,,,,41956,2021-10-03_20h54.35.954,judgeSpeechMusic_20210919_logNormShiftAmp_detection_fixFreq,2020.1.2,MacIntel,60,,,,,,,,,,,,,,,,,,1,6.1463,,0,0,43,43,29,1,stimuli/stim_20210919_power2amp/equal_lnn_AM2Hz_s25_26.m4a,,,,,,,,,,,,
,,,,,,,,,,,,41956,2021-10-03_20h54.35.954,judgeSpeechMusic_20210919_logNormShiftAmp_detection_fixFreq,2020.1.2,MacIntel,60,,,,,,,,,,,,,,,,,,2,6.6468,,0,0,44,44,13,1,stimuli/stim_20210919_power2amp/equal_lnn_AM2Hz_s15_6.m4a,,,,,,,,,,,,
,,,,,,,,,,,,41956,2021-10-03_20h54.35.954,judgeSpeechMusic_20210919_logNormShiftAmp_detection_fixFreq,2020.1.2,MacIntel,60,,,,,,,,,,,,,,,,,,2,5.8642,,0,0,45,45,34,1,stimuli/stim_20210919_power2amp/equal_lnn_AM2Hz_s35_15.m4a,,,,,,,,,,,,
,,,,,,,,,,,,41956,2021-10-03_20h54.35.954,judgeSpeechMusic_20210919_logNormShiftAmp_detection_fixFreq,2020.1.2,MacIntel,60,,,,,,,,,,,,,,,,,,2,6.446,,0,0,46,46,21,1,stimuli/stim_20210919_power2amp/equal_lnn_AM2Hz_s25_42.m4a,,,,,,,,,,,,
,,,,,,,,,,,,41956,2021-10-03_20h54.35.954,judgeSpeechMusic_20210919_logNormShiftAmp_detection_fixFreq,2020.1.2,MacIntel,60,,,,,,,,,,,,,,,,,,2,6.3471,,0,0,47,47,12,1,stimuli/stim_20210919_power2amp/equal_lnn_AM2Hz_s15_40.m4a,,,,,,,,,,,,
,,,,,,,,,,,,41956,2021-10-03_20h54.35.954,judgeSpeechMusic_20210919_logNormShiftAmp_detection_fixFreq,2020.1.2,MacIntel,60,,,,,,,,,,,,,,,,,,1,6.8289,,0,0,48,48,72,1,stimuli/stim_20210919_power2amp/equal_lnn_AM2Hz_s55_47.m4a,,,,,,,,,,,,
,,,,,,,,,,,,41956,2021-10-03_20h54.35.954,judgeSpeechMusic_20210919_logNormShiftAmp_detection_fixFreq,2020.1.2,MacIntel,60,,,,,,,,,,,,,,,,,,2,6.8805,,0,0,49,49,55,1,stimuli/stim_20210919_power2amp/equal_lnn_AM2Hz_s45_13.m4a,,,,,,,,,,,,
,,,,,,,,,,,,41956,2021-10-03_20h54.35.954,judgeSpeechMusic_20210919_logNormShiftAmp_detection_fixFreq,2020.1.2,MacIntel,60,,,,,,,,,,,,,,,,,,2,6.8804,,0,0,50,50,30,1,stimuli/stim_20210919_power2amp/equal_lnn_AM2Hz_s35_37.m4a,,,,,,,,,,,,
,,,,,,,,,,,,41956,2021-10-03_20h54.35.954,judgeSpeechMusic_20210919_logNormShiftAmp_detection_fixFreq,2020.1.2,MacIntel,60,,,,,,,,,,,,,,,,,,2,5.7641,,0,0,51,51,16,1,stimuli/stim_20210919_power2amp/equal_lnn_AM2Hz_s25_25.m4a,,,,,,,,,,,,
,,,,,,,,,,,,41956,2021-10-03_20h54.35.954,judgeSpeechMusic_20210919_logNormShiftAmp_detection_fixFreq,2020.1.2,MacIntel,60,,,,,,,,,,,,,,,,,,1,6.03,,0,0,52,52,66,1,stimuli/stim_20210919_power2amp/equal_lnn_AM2Hz_s55_32.m4a,,,,,,,,,,,,
,,,,,,,,,,,,41956,2021-10-03_20h54.35.954,judgeSpeechMusic_20210919_logNormShiftAmp_detection_fixFreq,2020.1.2,MacIntel,60,,,,,,,,,,,,,,,,,,2,6.6961,,0,0,53,53,32,1,stimuli/stim_20210919_power2amp/equal_lnn_AM2Hz_s35_38.m4a,,,,,,,,,,,,
,,,,,,,,,,,,41956,2021-10-03_20h54.35.954,judgeSpeechMusic_20210919_logNormShiftAmp_detection_fixFreq,2020.1.2,MacIntel,60,,,,,,,,,,,,,,,,,,2,5.6477,,0,0,54,54,36,1,stimuli/stim_20210919_power2amp/equal_lnn_AM2Hz_s35_31.m4a,,,,,,,,,,,,
,,,,,,,,,,,,41956,2021-10-03_20h54.35.954,judgeSpeechMusic_20210919_logNormShiftAmp_detection_fixFreq,2020.1.2,MacIntel,60,,,,,,,,,,,,,,,,,,2,6.263,,0,0,55,55,46,1,stimuli/stim_20210919_power2amp/equal_lnn_AM2Hz_s45_44.m4a,,,,,,,,,,,,
,,,,,,,,,,,,41956,2021-10-03_20h54.35.954,judgeSpeechMusic_20210919_logNormShiftAmp_detection_fixFreq,2020.1.2,MacIntel,60,,,,,,,,,,,,,,,,,,2,6.1319,,0,0,56,56,33,1,stimuli/stim_20210919_power2amp/equal_lnn_AM2Hz_s35_10.m4a,,,,,,,,,,,,
,,,,,,,,,,,,41956,2021-10-03_20h54.35.954,judgeSpeechMusic_20210919_logNormShiftAmp_detection_fixFreq,2020.1.2,MacIntel,60,,,,,,,,,,,,,,,,,,2,6.2625,,0,0,57,57,53,1,stimuli/stim_20210919_power2amp/equal_lnn_AM2Hz_s45_25.m4a,,,,,,,,,,,,
,,,,,,,,,,,,41956,2021-10-03_20h54.35.954,judgeSpeechMusic_20210919_logNormShiftAmp_detection_fixFreq,2020.1.2,MacIntel,60,,,,,,,,,,,,,,,,,,2,6.1457,1,1,0,58,58,6,1,stimuli/stim_20210919_power2amp/equal_lnn_AM2Hz_s15_49.m4a,1.5317,,,,,,,,,,,
,,,,,,,,,,,,41956,2021-10-03_20h54.35.954,judgeSpeechMusic_20210919_logNormShiftAmp_detection_fixFreq,2020.1.2,MacIntel,60,,,,,,,,,,,,,,,,,,2,5.7462,,0,0,59,59,42,1,stimuli/stim_20210919_power2amp/equal_lnn_AM2Hz_s35_30.m4a,,,,,,,,,,,,
,,,,,,,,,,,,41956,2021-10-03_20h54.35.954,judgeSpeechMusic_20210919_logNormShiftAmp_detection_fixFreq,2020.1.2,MacIntel,60,,,,,,,,,,,,,,,,,,1,7.3299,,0,0,60,60,11,1,stimuli/stim_20210919_power2amp/equal_lnn_AM2Hz_s15_28.m4a,,,,,,,,,,,,
,,,,,,,,,,,,41956,2021-10-03_20h54.35.954,judgeSpeechMusic_20210919_logNormShiftAmp_detection_fixFreq,2020.1.2,MacIntel,60,,,,,,,,,,,,,,,,,,1,6.5461,,0,0,61,61,8,1,stimuli/stim_20210919_power2amp/equal_lnn_AM2Hz_s15_14.m4a,,,,,,,,,,,,
,,,,,,,,,,,,41956,2021-10-03_20h54.35.954,judgeSpeechMusic_20210919_logNormShiftAmp_detection_fixFreq,2020.1.2,MacIntel,60,,,,,,,,,,,,,,,,,,2,5.647,,0,0,62,62,5,1,stimuli/stim_20210919_power2amp/equal_lnn_AM2Hz_s15_25.m4a,,,,,,,,,,,,
,,,,,,,,,,,,41956,2021-10-03_20h54.35.954,judgeSpeechMusic_20210919_logNormShiftAmp_detection_fixFreq,2020.1.2,MacIntel,60,,,,,,,,,,,,,,,,,,2,7.1627,,0,0,63,63,56,1,stimuli/stim_20210919_power2amp/equal_lnn_AM2Hz_s45_8.m4a,,,,,,,,,,,,
,,,,,,,,,,,,41956,2021-10-03_20h54.35.954,judgeSpeechMusic_20210919_logNormShiftAmp_detection_fixFreq,2020.1.2,MacIntel,60,,,,,,,,,,,,,,,,,,2,6.18,,0,0,64,64,23,1,stimuli/stim_20210919_power2amp/equal_lnn_AM2Hz_s25_3.m4a,,,,,,,,,,,,
,,,,,,,,,,,,41956,2021-10-03_20h54.35.954,judgeSpeechMusic_20210919_logNormShiftAmp_detection_fixFreq,2020.1.2,MacIntel,60,,,,,,,,,,,,,,,,,,2,7.7298,,0,0,65,65,10,1,stimuli/stim_20210919_power2amp/equal_lnn_AM2Hz_s15_5.m4a,,,,,,,,,,,,
,,,,,,,,,,,,41956,2021-10-03_20h54.35.954,judgeSpeechMusic_20210919_logNormShiftAmp_detection_fixFreq,2020.1.2,MacIntel,60,,,,,,,,,,,,,,,,,,2,6.1465,,0,0,66,66,9,1,stimuli/stim_20210919_power2amp/equal_lnn_AM2Hz_s15_35.m4a,,,,,,,,,,,,
,,,,,,,,,,,,41956,2021-10-03_20h54.35.954,judgeSpeechMusic_20210919_logNormShiftAmp_detection_fixFreq,2020.1.2,MacIntel,60,,,,,,,,,,,,,,,,,,1,35.8131,,0,0,67,67,44,1,stimuli/stim_20210919_power2amp/equal_lnn_AM2Hz_s35_40.m4a,,,,,,,,,,,,
,,,,,,,,,,,,41956,2021-10-03_20h54.35.954,judgeSpeechMusic_20210919_logNormShiftAmp_detection_fixFreq,2020.1.2,MacIntel,60,,,,,,,,,,,,,,,,,,2,7.3133,,0,0,68,68,3,1,stimuli/stim_20210919_power2amp/equal_lnn_AM2Hz_s15_43.m4a,,,,,,,,,,,,
,,,,,,,,,,,,41956,2021-10-03_20h54.35.954,judgeSpeechMusic_20210919_logNormShiftAmp_detection_fixFreq,2020.1.2,MacIntel,60,,,,,,,,,,,,,,,,,,2,7.3297,,0,0,69,69,25,1,stimuli/stim_20210919_power2amp/equal_lnn_AM2Hz_s25_45.m4a,,,,,,,,,,,,
,,,,,,,,,,,,41956,2021-10-03_20h54.35.954,judgeSpeechMusic_20210919_logNormShiftAmp_detection_fixFreq,2020.1.2,MacIntel,60,,,,,,,,,,,,,,,,,,1,11.3299,,0,0,70,70,1,1,stimuli/stim_20210919_power2amp/equal_lnn_AM2Hz_s15_24.m4a,,,,,,,,,,,,
,,,,,,,,,,,,41956,2021-10-03_20h54.35.954,judgeSpeechMusic_20210919_logNormShiftAmp_detection_fixFreq,2020.1.2,MacIntel,60,,,,,,,,,,,,,,,,,,2,44.0246,,0,0,71,71,49,1,stimuli/stim_20210919_power2amp/equal_lnn_AM2Hz_s45_34.m4a,,,,,,,,,,,,
,,,,,,,,,,,,41956,2021-10-03_20h54.35.954,judgeSpeechMusic_20210919_logNormShiftAmp_detection_fixFreq,2020.1.2,MacIntel,60,,,,,,,,,,,,,,,,,,1,6.0624,,0,0,72,72,67,1,stimuli/stim_20210919_power2amp/equal_lnn_AM2Hz_s55_21.m4a,,,,,,,,,,,,
,,,,,,,,,,,,41956,2021-10-03_20h54.35.954,judgeSpeechMusic_20210919_logNormShiftAmp_detection_fixFreq,2020.1.2,MacIntel,60,,,,,,,,,,,,,,,,,,2,6.0964,,0,0,73,73,54,1,stimuli/stim_20210919_power2amp/equal_lnn_AM2Hz_s45_3.m4a,,,,,,,,,,,,
,,,,,,,,,,,,41956,2021-10-03_20h54.35.954,judgeSpeechMusic_20210919_logNormShiftAmp_detection_fixFreq,2020.1.2,MacIntel,60,,,,,,,,,,,,,,,,,,2,17.4624,,0,0,74,74,59,1,stimuli/stim_20210919_power2amp/equal_lnn_AM2Hz_s45_17.m4a,,,,,,,,,,,,
,,,,,,,,,,,,41956,2021-10-03_20h54.35.954,judgeSpeechMusic_20210919_logNormShiftAmp_detection_fixFreq,2020.1.2,MacIntel,60,,,,,,,,,,,,,,,,,,,,,,,,,,,,,space,16.1832,0,1,1,0,1,MUSIC,stimuli/MUSIC.jpg,,
,,,,,,,,,,,,41956,2021-10-03_20h54.35.954,judgeSpeechMusic_20210919_logNormShiftAmp_detection_fixFreq,2020.1.2,MacIntel,60,,,,,,0,0,0,0,3,1,stimuli/stim_20210919_power2amp/equal_lnn_AM_training2Hz_s50.m4a,,,,,,,,,,,,,,,,,,,,,,,,,,,
,,,,,,,,,,,,41956,2021-10-03_20h54.35.954,judgeSpeechMusic_20210919_logNormShiftAmp_detection_fixFreq,2020.1.2,MacIntel,60,,,,,,,,,,,,,,space,5.9937,space,1.2834,2,6.628,,0,0,0,0,20,1,stimuli/stim_20210919_power2amp/equal_lnn_AM2Hz_s25_48.m4a,,,,,,,,,,,,
,,,,,,,,,,,,41956,2021-10-03_20h54.35.954,judgeSpeechMusic_20210919_logNormShiftAmp_detection_fixFreq,2020.1.2,MacIntel,60,,,,,,,,,,,,,,,,,,1,6.6129,,0,0,1,1,29,1,stimuli/stim_20210919_power2amp/equal_lnn_AM2Hz_s25_26.m4a,,,,,,,,,,,,
,,,,,,,,,,,,41956,2021-10-03_20h54.35.954,judgeSpeechMusic_20210919_logNormShiftAmp_detection_fixFreq,2020.1.2,MacIntel,60,,,,,,,,,,,,,,,,,,2,6.7304,,0,0,2,2,72,1,stimuli/stim_20210919_power2amp/equal_lnn_AM2Hz_s55_47.m4a,,,,,,,,,,,,
,,,,,,,,,,,,41956,2021-10-03_20h54.35.954,judgeSpeechMusic_20210919_logNormShiftAmp_detection_fixFreq,2020.1.2,MacIntel,60,,,,,,,,,,,,,,,,,,2,6.7144,,0,0,3,3,38,1,stimuli/stim_20210919_power2amp/equal_lnn_AM2Hz_s35_21.m4a,,,,,,,,,,,,
,,,,,,,,,,,,41956,2021-10-03_20h54.35.954,judgeSpeechMusic_20210919_logNormShiftAmp_detection_fixFreq,2020.1.2,MacIntel,60,,,,,,,,,,,,,,,,,,2,6.5789,,0,0,4,4,44,1,stimuli/stim_20210919_power2amp/equal_lnn_AM2Hz_s35_40.m4a,,,,,,,,,,,,
,,,,,,,,,,,,41956,2021-10-03_20h54.35.954,judgeSpeechMusic_20210919_logNormShiftAmp_detection_fixFreq,2020.1.2,MacIntel,60,,,,,,,,,,,,,,,,,,1,6.8636,,0,0,5,5,1,1,stimuli/stim_20210919_power2amp/equal_lnn_AM2Hz_s15_24.m4a,,,,,,,,,,,,
,,,,,,,,,,,,41956,2021-10-03_20h54.35.954,judgeSpeechMusic_20210919_logNormShiftAmp_detection_fixFreq,2020.1.2,MacIntel,60,,,,,,,,,,,,,,,,,,2,6.4797,,0,0,6,6,3,1,stimuli/stim_20210919_power2amp/equal_lnn_AM2Hz_s15_43.m4a,,,,,,,,,,,,
,,,,,,,,,,,,41956,2021-10-03_20h54.35.954,judgeSpeechMusic_20210919_logNormShiftAmp_detection_fixFreq,2020.1.2,MacIntel,60,,,,,,,,,,,,,,,,,,2,6.88,,0,0,7,7,69,1,stimuli/stim_20210919_power2amp/equal_lnn_AM2Hz_s55_7.m4a,,,,,,,,,,,,
,,,,,,,,,,,,41956,2021-10-03_20h54.35.954,judgeSpeechMusic_20210919_logNormShiftAmp_detection_fixFreq,2020.1.2,MacIntel,60,,,,,,,,,,,,,,,,,,1,6.9313,,0,0,8,8,56,1,stimuli/stim_20210919_power2amp/equal_lnn_AM2Hz_s45_8.m4a,,,,,,,,,,,,
,,,,,,,,,,,,41956,2021-10-03_20h54.35.954,judgeSpeechMusic_20210919_logNormShiftAmp_detection_fixFreq,2020.1.2,MacIntel,60,,,,,,,,,,,,,,,,,,1,6.7639,,0,0,9,9,36,1,stimuli/stim_20210919_power2amp/equal_lnn_AM2Hz_s35_31.m4a,,,,,,,,,,,,
,,,,,,,,,,,,41956,2021-10-03_20h54.35.954,judgeSpeechMusic_20210919_logNormShiftAmp_detection_fixFreq,2020.1.2,MacIntel,60,,,,,,,,,,,,,,,,,,2,6.3473,,0,0,10,10,23,1,stimuli/stim_20210919_power2amp/equal_lnn_AM2Hz_s25_3.m4a,,,,,,,,,,,,
,,,,,,,,,,,,41956,2021-10-03_20h54.35.954,judgeSpeechMusic_20210919_logNormShiftAmp_detection_fixFreq,2020.1.2,MacIntel,60,,,,,,,,,,,,,,,,,,2,5.9462,,0,0,11,11,65,1,stimuli/stim_20210919_power2amp/equal_lnn_AM2Hz_s55_50.m4a,,,,,,,,,,,,
,,,,,,,,,,,,41956,2021-10-03_20h54.35.954,judgeSpeechMusic_20210919_logNormShiftAmp_detection_fixFreq,2020.1.2,MacIntel,60,,,,,,,,,,,,,,,,,,1,8.147,,0,0,12,12,15,1,stimuli/stim_20210919_power2amp/equal_lnn_AM2Hz_s25_29.m4a,,,,,,,,,,,,
,,,,,,,,,,,,41956,2021-10-03_20h54.35.954,judgeSpeechMusic_20210919_logNormShiftAmp_detection_fixFreq,2020.1.2,MacIntel,60,,,,,,,,,,,,,,,,,,1,5.5798,,0,0,13,13,68,1,stimuli/stim_20210919_power2amp/equal_lnn_AM2Hz_s55_15.m4a,,,,,,,,,,,,
,,,,,,,,,,,,41956,2021-10-03_20h54.35.954,judgeSpeechMusic_20210919_logNormShiftAmp_detection_fixFreq,2020.1.2,MacIntel,60,,,,,,,,,,,,,,,,,,2,6.5957,,0,0,14,14,41,1,stimuli/stim_20210919_power2amp/equal_lnn_AM2Hz_s35_50.m4a,,,,,,,,,,,,
,,,,,,,,,,,,41956,2021-10-03_20h54.35.954,judgeSpeechMusic_20210919_logNormShiftAmp_detection_fixFreq,2020.1.2,MacIntel,60,,,,,,,,,,,,,,,,,,2,6.3464,,0,0,15,15,5,1,stimuli/stim_20210919_power2amp/equal_lnn_AM2Hz_s15_25.m4a,,,,,,,,,,,,
,,,,,,,,,,,,41956,2021-10-03_20h54.35.954,judgeSpeechMusic_20210919_logNormShiftAmp_detection_fixFreq,2020.1.2,MacIntel,60,,,,,,,,,,,,,,,,,,1,5.6801,,0,0,16,16,16,1,stimuli/stim_20210919_power2amp/equal_lnn_AM2Hz_s25_25.m4a,,,,,,,,,,,,
,,,,,,,,,,,,41956,2021-10-03_20h54.35.954,judgeSpeechMusic_20210919_logNormShiftAmp_detection_fixFreq,2020.1.2,MacIntel,60,,,,,,,,,,,,,,,,,,2,6.3641,,0,0,17,17,33,1,stimuli/stim_20210919_power2amp/equal_lnn_AM2Hz_s35_10.m4a,,,,,,,,,,,,
,,,,,,,,,,,,41956,2021-10-03_20h54.35.954,judgeSpeechMusic_20210919_logNormShiftAmp_detection_fixFreq,2020.1.2,MacIntel,60,,,,,,,,,,,,,,,,,,2,8.1453,3,1,0,18,18,50,1,stimuli/stim_20210919_power2amp/equal_lnn_AM2Hz_s45_26.m4a,1.0657,,,,,,,,,,,
,,,,,,,,,,,,41956,2021-10-03_20h54.35.954,judgeSpeechMusic_20210919_logNormShiftAmp_detection_fixFreq,2020.1.2,MacIntel,60,,,,,,,,,,,,,,,,,,2,6.6624,,0,0,19,19,35,1,stimuli/stim_20210919_power2amp/equal_lnn_AM2Hz_s35_39.m4a,,,,,,,,,,,,
,,,,,,,,,,,,41956,2021-10-03_20h54.35.954,judgeSpeechMusic_20210919_logNormShiftAmp_detection_fixFreq,2020.1.2,MacIntel,60,,,,,,,,,,,,,,,,,,1,7.3968,,0,0,20,20,61,1,stimuli/stim_20210919_power2amp/equal_lnn_AM2Hz_s55_42.m4a,,,,,,,,,,,,
,,,,,,,,,,,,41956,2021-10-03_20h54.35.954,judgeSpeechMusic_20210919_logNormShiftAmp_detection_fixFreq,2020.1.2,MacIntel,60,,,,,,,,,,,,,,,,,,1,7.0139,,0,0,21,21,31,1,stimuli/stim_20210919_power2amp/equal_lnn_AM2Hz_s35_5.m4a,,,,,,,,,,,,
,,,,,,,,,,,,41956,2021-10-03_20h54.35.954,judgeSpeechMusic_20210919_logNormShiftAmp_detection_fixFreq,2020.1.2,MacIntel,60,,,,,,,,,,,,,,,,,,2,6.0798,,0,0,22,22,32,1,stimuli/stim_20210919_power2amp/equal_lnn_AM2Hz_s35_38.m4a,,,,,,,,,,,,
,,,,,,,,,,,,41956,2021-10-03_20h54.35.954,judgeSpeechMusic_20210919_logNormShiftAmp_detection_fixFreq,2020.1.2,MacIntel,60,,,,,,,,,,,,,,,,,,2,6.7961,,0,0,23,23,63,1,stimuli/stim_20210919_power2amp/equal_lnn_AM2Hz_s55_14.m4a,,,,,,,,,,,,
,,,,,,,,,,,,41956,2021-10-03_20h54.35.954,judgeSpeechMusic_20210919_logNormShiftAmp_detection_fixFreq,2020.1.2,MacIntel,60,,,,,,,,,,,,,,,,,,2,5.7469,,0,0,24,24,8,1,stimuli/stim_20210919_power2amp/equal_lnn_AM2Hz_s15_14.m4a,,,,,,,,,,,,
,,,,,,,,,,,,41956,2021-10-03_20h54.35.954,judgeSpeechMusic_20210919_logNormShiftAmp_detection_fixFreq,2020.1.2,MacIntel,60,,,,,,,,,,,,,,,,,,2,7.7286,,0,0,25,25,70,1,stimuli/stim_20210919_power2amp/equal_lnn_AM2Hz_s55_18.m4a,,,,,,,,,,,,
,,,,,,,,,,,,41956,2021-10-03_20h54.35.954,judgeSpeechMusic_20210919_logNormShiftAmp_detection_fixFreq,2020.1.2,MacIntel,60,,,,,,,,,,,,,,,,,,1,8.1974,,0,0,26,26,59,1,stimuli/stim_20210919_power2amp/equal_lnn_AM2Hz_s45_17.m4a,,,,,,,,,,,,
,,,,,,,,,,,,41956,2021-10-03_20h54.35.954,judgeSpeechMusic_20210919_logNormShiftAmp_detection_fixFreq,2020.1.2,MacIntel,60,,,,,,,,,,,,,,,,,,1,12.514,,0,0,27,27,71,1,stimuli/stim_20210919_power2amp/equal_lnn_AM2Hz_s55_35.m4a,,,,,,,,,,,,
,,,,,,,,,,,,41956,2021-10-03_20h54.35.954,judgeSpeechMusic_20210919_logNormShiftAmp_detection_fixFreq,2020.1.2,MacIntel,60,,,,,,,,,,,,,,,,,,2,88.3807,,0,0,28,28,67,1,stimuli/stim_20210919_power2amp/equal_lnn_AM2Hz_s55_21.m4a,,,,,,,,,,,,
,,,,,,,,,,,,41956,2021-10-03_20h54.35.954,judgeSpeechMusic_20210919_logNormShiftAmp_detection_fixFreq,2020.1.2,MacIntel,60,,,,,,,,,,,,,,,,,,1,7.8453,,0,0,29,29,39,1,stimuli/stim_20210919_power2amp/equal_lnn_AM2Hz_s35_6.m4a,,,,,,,,,,,,
,,,,,,,,,,,,41956,2021-10-03_20h54.35.954,judgeSpeechMusic_20210919_logNormShiftAmp_detection_fixFreq,2020.1.2,MacIntel,60,,,,,,,,,,,,,,,,,,2,7.6792,,0,0,30,30,45,1,stimuli/stim_20210919_power2amp/equal_lnn_AM2Hz_s45_9.m4a,,,,,,,,,,,,
,,,,,,,,,,,,41956,2021-10-03_20h54.35.954,judgeSpeechMusic_20210919_logNormShiftAmp_detection_fixFreq,2020.1.2,MacIntel,60,,,,,,,,,,,,,,,,,,2,6.0298,,0,0,31,31,74,1,stimuli/stim_20210919_power2amp/equal_lnn_AM2Hz_s55_12.m4a,,,,,,,,,,,,
,,,,,,,,,,,,41956,2021-10-03_20h54.35.954,judgeSpeechMusic_20210919_logNormShiftAmp_detection_fixFreq,2020.1.2,MacIntel,60,,,,,,,,,,,,,,,,,,1,6.0117,,0,0,32,32,47,1,stimuli/stim_20210919_power2amp/equal_lnn_AM2Hz_s45_29.m4a,,,,,,,,,,,,
,,,,,,,,,,,,41956,2021-10-03_20h54.35.954,judgeSpeechMusic_20210919_logNormShiftAmp_detection_fixFreq,2020.1.2,MacIntel,60,,,,,,,,,,,,,,,,,,1,6.7802,,0,0,33,33,19,1,stimuli/stim_20210919_power2amp/equal_lnn_AM2Hz_s25_12.m4a,,,,,,,,,,,,
,,,,,,,,,,,,41956,2021-10-03_20h54.35.954,judgeSpeechMusic_20210919_logNormShiftAmp_detection_fixFreq,2020.1.2,MacIntel,60,,,,,,,,,,,,,,,,,,1,5.9793,,0,0,34,34,54,1,stimuli/stim_20210919_power2amp/equal_lnn_AM2Hz_s45_3.m4a,,,,,,,,,,,,
,,,,,,,,,,,,41956,2021-10-03_20h54.35.954,judgeSpeechMusic_20210919_logNormShiftAmp_detection_fixFreq,2020.1.2,MacIntel,60,,,,,,,,,,,,,,,,,,1,5.9475,,0,0,35,35,13,1,stimuli/stim_20210919_power2amp/equal_lnn_AM2Hz_s15_6.m4a,,,,,,,,,,,,
,,,,,,,,,,,,41956,2021-10-03_20h54.35.954,judgeSpeechMusic_20210919_logNormShiftAmp_detection_fixFreq,2020.1.2,MacIntel,60,,,,,,,,,,,,,,,,,,1,6.6791,,0,0,36,36,11,1,stimuli/stim_20210919_power2amp/equal_lnn_AM2Hz_s15_28.m4a,,,,,,,,,,,,
,,,,,,,,,,,,41956,2021-10-03_20h54.35.954,judgeSpeechMusic_20210919_logNormShiftAmp_detection_fixFreq,2020.1.2,MacIntel,60,,,,,,,,,,,,,,,,,,1,6.4282,3,1,0,37,37,49,1,stimuli/stim_20210919_power2amp/equal_lnn_AM2Hz_s45_34.m4a,1.0832,,,,,,,,,,,
,,,,,,,,,,,,41956,2021-10-03_20h54.35.954,judgeSpeechMusic_20210919_logNormShiftAmp_detection_fixFreq,2020.1.2,MacIntel,60,,,,,,,,,,,,,,,,,,1,10.8952,,0,0,38,38,6,1,stimuli/stim_20210919_power2amp/equal_lnn_AM2Hz_s15_49.m4a,,,,,,,,,,,,
,,,,,,,,,,,,41956,2021-10-03_20h54.35.954,judgeSpeechMusic_20210919_logNormShiftAmp_detection_fixFreq,2020.1.2,MacIntel,60,,,,,,,,,,,,,,,,,,2,8.9458,,0,0,39,39,43,1,stimuli/stim_20210919_power2amp/equal_lnn_AM2Hz_s35_27.m4a,,,,,,,,,,,,
,,,,,,,,,,,,41956,2021-10-03_20h54.35.954,judgeSpeechMusic_20210919_logNormShiftAmp_detection_fixFreq,2020.1.2,MacIntel,60,,,,,,,,,,,,,,,,,,1,12.0244,,0,0,40,40,46,1,stimuli/stim_20210919_power2amp/equal_lnn_AM2Hz_s45_44.m4a,,,,,,,,,,,,
,,,,,,,,,,,,41956,2021-10-03_20h54.35.954,judgeSpeechMusic_20210919_logNormShiftAmp_detection_fixFreq,2020.1.2,MacIntel,60,,,,,,,,,,,,,,,,,,1,15.446,,0,0,41,41,48,1,stimuli/stim_20210919_power2amp/equal_lnn_AM2Hz_s45_30.m4a,,,,,,,,,,,,
,,,,,,,,,,,,41956,2021-10-03_20h54.35.954,judgeSpeechMusic_20210919_logNormShiftAmp_detection_fixFreq,2020.1.2,MacIntel,60,,,,,,,,,,,,,,,,,,2,9.0748,,0,0,42,42,37,1,stimuli/stim_20210919_power2amp/equal_lnn_AM2Hz_s35_43.m4a,,,,,,,,,,,,
,,,,,,,,,,,,41956,2021-10-03_20h54.35.954,judgeSpeechMusic_20210919_logNormShiftAmp_detection_fixFreq,2020.1.2,MacIntel,60,,,,,,,,,,,,,,,,,,2,7.4108,,0,0,43,43,24,1,stimuli/stim_20210919_power2amp/equal_lnn_AM2Hz_s25_32.m4a,,,,,,,,,,,,
,,,,,,,,,,,,41956,2021-10-03_20h54.35.954,judgeSpeechMusic_20210919_logNormShiftAmp_detection_fixFreq,2020.1.2,MacIntel,60,,,,,,,,,,,,,,,,,,2,6.9134,,0,0,44,44,53,1,stimuli/stim_20210919_power2amp/equal_lnn_AM2Hz_s45_25.m4a,,,,,,,,,,,,
,,,,,,,,,,,,41956,2021-10-03_20h54.35.954,judgeSpeechMusic_20210919_logNormShiftAmp_detection_fixFreq,2020.1.2,MacIntel,60,,,,,,,,,,,,,,,,,,2,6.9135,,0,0,45,45,21,1,stimuli/stim_20210919_power2amp/equal_lnn_AM2Hz_s25_42.m4a,,,,,,,,,,,,
,,,,,,,,,,,,41956,2021-10-03_20h54.35.954,judgeSpeechMusic_20210919_logNormShiftAmp_detection_fixFreq,2020.1.2,MacIntel,60,,,,,,,,,,,,,,,,,,1,7.9291,,0,0,46,46,62,1,stimuli/stim_20210919_power2amp/equal_lnn_AM2Hz_s55_9.m4a,,,,,,,,,,,,
,,,,,,,,,,,,41956,2021-10-03_20h54.35.954,judgeSpeechMusic_20210919_logNormShiftAmp_detection_fixFreq,2020.1.2,MacIntel,60,,,,,,,,,,,,,,,,,,1,7.0628,,0,0,47,47,10,1,stimuli/stim_20210919_power2amp/equal_lnn_AM2Hz_s15_5.m4a,,,,,,,,,,,,
,,,,,,,,,,,,41956,2021-10-03_20h54.35.954,judgeSpeechMusic_20210919_logNormShiftAmp_detection_fixFreq,2020.1.2,MacIntel,60,,,,,,,,,,,,,,,,,,1,23.3802,,0,0,48,48,4,1,stimuli/stim_20210919_power2amp/equal_lnn_AM2Hz_s15_18.m4a,,,,,,,,,,,,
,,,,,,,,,,,,41956,2021-10-03_20h54.35.954,judgeSpeechMusic_20210919_logNormShiftAmp_detection_fixFreq,2020.1.2,MacIntel,60,,,,,,,,,,,,,,,,,,2,7.6811,,0,0,49,49,57,1,stimuli/stim_20210919_power2amp/equal_lnn_AM2Hz_s45_28.m4a,,,,,,,,,,,,
,,,,,,,,,,,,41956,2021-10-03_20h54.35.954,judgeSpeechMusic_20210919_logNormShiftAmp_detection_fixFreq,2020.1.2,MacIntel,60,,,,,,,,,,,,,,,,,,2,40.813,,0,0,50,50,18,1,stimuli/stim_20210919_power2amp/equal_lnn_AM2Hz_s25_14.m4a,,,,,,,,,,,,
,,,,,,,,,,,,41956,2021-10-03_20h54.35.954,judgeSpeechMusic_20210919_logNormShiftAmp_detection_fixFreq,2020.1.2,MacIntel,60,,,,,,,,,,,,,,,,,,2,6.2139,,0,0,51,51,51,1,stimuli/stim_20210919_power2amp/equal_lnn_AM2Hz_s45_16.m4a,,,,,,,,,,,,
,,,,,,,,,,,,41956,2021-10-03_20h54.35.954,judgeSpeechMusic_20210919_logNormShiftAmp_detection_fixFreq,2020.1.2,MacIntel,60,,,,,,,,,,,,,,,,,,1,7.647,,0,0,52,52,7,1,stimuli/stim_20210919_power2amp/equal_lnn_AM2Hz_s15_10.m4a,,,,,,,,,,,,
,,,,,,,,,,,,41956,2021-10-03_20h54.35.954,judgeSpeechMusic_20210919_logNormShiftAmp_detection_fixFreq,2020.1.2,MacIntel,60,,,,,,,,,,,,,,,,,,2,7.4138,,0,0,53,53,58,1,stimuli/stim_20210919_power2amp/equal_lnn_AM2Hz_s45_45.m4a,,,,,,,,,,,,
,,,,,,,,,,,,41956,2021-10-03_20h54.35.954,judgeSpeechMusic_20210919_logNormShiftAmp_detection_fixFreq,2020.1.2,MacIntel,60,,,,,,,,,,,,,,,,,,2,8.1454,,0,0,54,54,64,1,stimuli/stim_20210919_power2amp/equal_lnn_AM2Hz_s55_41.m4a,,,,,,,,,,,,
,,,,,,,,,,,,41956,2021-10-03_20h54.35.954,judgeSpeechMusic_20210919_logNormShiftAmp_detection_fixFreq,2020.1.2,MacIntel,60,,,,,,,,,,,,,,,,,,2,6.8634,,0,0,55,55,0,1,stimuli/stim_20210919_power2amp/equal_lnn_AM2Hz_s15_4.m4a,,,,,,,,,,,,
,,,,,,,,,,,,41956,2021-10-03_20h54.35.954,judgeSpeechMusic_20210919_logNormShiftAmp_detection_fixFreq,2020.1.2,MacIntel,60,,,,,,,,,,,,,,,,,,2,5.8646,,0,0,56,56,40,1,stimuli/stim_20210919_power2amp/equal_lnn_AM2Hz_s35_14.m4a,,,,,,,,,,,,
,,,,,,,,,,,,41956,2021-10-03_20h54.35.954,judgeSpeechMusic_20210919_logNormShiftAmp_detection_fixFreq,2020.1.2,MacIntel,60,,,,,,,,,,,,,,,,,,1,7.2782,,0,0,57,57,27,1,stimuli/stim_20210919_power2amp/equal_lnn_AM2Hz_s25_36.m4a,,,,,,,,,,,,
,,,,,,,,,,,,41956,2021-10-03_20h54.35.954,judgeSpeechMusic_20210919_logNormShiftAmp_detection_fixFreq,2020.1.2,MacIntel,60,,,,,,,,,,,,,,,,,,1,7.18,3,1,0,58,58,26,1,stimuli/stim_20210919_power2amp/equal_lnn_AM2Hz_s25_13.m4a,1.8506,,,,,,,,,,,
,,,,,,,,,,,,41956,2021-10-03_20h54.35.954,judgeSpeechMusic_20210919_logNormShiftAmp_detection_fixFreq,2020.1.2,MacIntel,60,,,,,,,,,,,,,,,,,,1,6.4271,,0,0,59,59,2,1,stimuli/stim_20210919_power2amp/equal_lnn_AM2Hz_s15_34.m4a,,,,,,,,,,,,
,,,,,,,,,,,,41956,2021-10-03_20h54.35.954,judgeSpeechMusic_20210919_logNormShiftAmp_detection_fixFreq,2020.1.2,MacIntel,60,,,,,,,,,,,,,,,,,,1,10.3787,,0,0,60,60,60,1,stimuli/stim_20210919_power2amp/equal_lnn_AM2Hz_s55_39.m4a,,,,,,,,,,,,
,,,,,,,,,,,,41956,2021-10-03_20h54.35.954,judgeSpeechMusic_20210919_logNormShiftAmp_detection_fixFreq,2020.1.2,MacIntel,60,,,,,,,,,,,,,,,,,,1,9.5966,,0,0,61,61,73,1,stimuli/stim_20210919_power2amp/equal_lnn_AM2Hz_s55_44.m4a,,,,,,,,,,,,
,,,,,,,,,,,,41956,2021-10-03_20h54.35.954,judgeSpeechMusic_20210919_logNormShiftAmp_detection_fixFreq,2020.1.2,MacIntel,60,,,,,,,,,,,,,,,,,,2,10.8305,,0,0,62,62,30,1,stimuli/stim_20210919_power2amp/equal_lnn_AM2Hz_s35_37.m4a,,,,,,,,,,,,
,,,,,,,,,,,,41956,2021-10-03_20h54.35.954,judgeSpeechMusic_20210919_logNormShiftAmp_detection_fixFreq,2020.1.2,MacIntel,60,,,,,,,,,,,,,,,,,,2,6.0133,,0,0,63,63,28,1,stimuli/stim_20210919_power2amp/equal_lnn_AM2Hz_s25_21.m4a,,,,,,,,,,,,
,,,,,,,,,,,,41956,2021-10-03_20h54.35.954,judgeSpeechMusic_20210919_logNormShiftAmp_detection_fixFreq,2020.1.2,MacIntel,60,,,,,,,,,,,,,,,,,,2,6.063,,0,0,64,64,12,1,stimuli/stim_20210919_power2amp/equal_lnn_AM2Hz_s15_40.m4a,,,,,,,,,,,,
,,,,,,,,,,,,41956,2021-10-03_20h54.35.954,judgeSpeechMusic_20210919_logNormShiftAmp_detection_fixFreq,2020.1.2,MacIntel,60,,,,,,,,,,,,,,,,,,2,5.6303,,0,0,65,65,22,1,stimuli/stim_20210919_power2amp/equal_lnn_AM2Hz_s25_22.m4a,,,,,,,,,,,,
,,,,,,,,,,,,41956,2021-10-03_20h54.35.954,judgeSpeechMusic_20210919_logNormShiftAmp_detection_fixFreq,2020.1.2,MacIntel,60,,,,,,,,,,,,,,,,,,2,6.3305,,0,0,66,66,52,1,stimuli/stim_20210919_power2amp/equal_lnn_AM2Hz_s45_18.m4a,,,,,,,,,,,,
,,,,,,,,,,,,41956,2021-10-03_20h54.35.954,judgeSpeechMusic_20210919_logNormShiftAmp_detection_fixFreq,2020.1.2,MacIntel,60,,,,,,,,,,,,,,,,,,1,7.6966,,0,0,67,67,42,1,stimuli/stim_20210919_power2amp/equal_lnn_AM2Hz_s35_30.m4a,,,,,,,,,,,,
,,,,,,,,,,,,41956,2021-10-03_20h54.35.954,judgeSpeechMusic_20210919_logNormShiftAmp_detection_fixFreq,2020.1.2,MacIntel,60,,,,,,,,,,,,,,,,,,2,7.9791,,0,0,68,68,17,1,stimuli/stim_20210919_power2amp/equal_lnn_AM2Hz_s25_47.m4a,,,,,,,,,,,,
,,,,,,,,,,,,41956,2021-10-03_20h54.35.954,judgeSpeechMusic_20210919_logNormShiftAmp_detection_fixFreq,2020.1.2,MacIntel,60,,,,,,,,,,,,,,,,,,2,14.2298,,0,0,69,69,25,1,stimuli/stim_20210919_power2amp/equal_lnn_AM2Hz_s25_45.m4a,,,,,,,,,,,,
,,,,,,,,,,,,41956,2021-10-03_20h54.35.954,judgeSpeechMusic_20210919_logNormShiftAmp_detection_fixFreq,2020.1.2,MacIntel,60,,,,,,,,,,,,,,,,,,1,7.5795,,0,0,70,70,9,1,stimuli/stim_20210919_power2amp/equal_lnn_AM2Hz_s15_35.m4a,,,,,,,,,,,,
,,,,,,,,,,,,41956,2021-10-03_20h54.35.954,judgeSpeechMusic_20210919_logNormShiftAmp_detection_fixFreq,2020.1.2,MacIntel,60,,,,,,,,,,,,,,,,,,1,9.813,,0,0,71,71,34,1,stimuli/stim_20210919_power2amp/equal_lnn_AM2Hz_s35_15.m4a,,,,,,,,,,,,
,,,,,,,,,,,,41956,2021-10-03_20h54.35.954,judgeSpeechMusic_20210919_logNormShiftAmp_detection_fixFreq,2020.1.2,MacIntel,60,,,,,,,,,,,,,,,,,,2,5.8629,,0,0,72,72,66,1,stimuli/stim_20210919_power2amp/equal_lnn_AM2Hz_s55_32.m4a,,,,,,,,,,,,
,,,,,,,,,,,,41956,2021-10-03_20h54.35.954,judgeSpeechMusic_20210919_logNormShiftAmp_detection_fixFreq,2020.1.2,MacIntel,60,,,,,,,,,,,,,,,,,,2,6.5624,,0,0,73,73,14,1,stimuli/stim_20210919_power2amp/equal_lnn_AM2Hz_s15_19.m4a,,,,,,,,,,,,
,,,,,,,,,,,,41956,2021-10-03_20h54.35.954,judgeSpeechMusic_20210919_logNormShiftAmp_detection_fixFreq,2020.1.2,MacIntel,60,,,,,,,,,,,,,,,,,,2,6.3786,,0,0,74,74,55,1,stimuli/stim_20210919_power2amp/equal_lnn_AM2Hz_s45_13.m4a,,,,,,,,,,,,
,,,,,,,,,,,,41956,2021-10-03_20h54.35.954,judgeSpeechMusic_20210919_logNormShiftAmp_detection_fixFreq,2020.1.2,MacIntel,60,,,,,,,,,,,,,,,,,,,,,,,,,,,,,space,1.0479,1,0,2,1,1,SPEECH,stimuli/SPEECH.jpg,,
,,,,,,,,,,,,41956,2021-10-03_20h54.35.954,judgeSpeechMusic_20210919_logNormShiftAmp_detection_fixFreq,2020.1.2,MacIntel,60,,,,,,0,0,0,0,2,1,stimuli/stim_20210919_power2amp/equal_lnn_AM_training2Hz_s40.m4a,,,,,,,,,,,,,,,,,,,,,,,,,,,
,,,,,,,,,,,,41956,2021-10-03_20h54.35.954,judgeSpeechMusic_20210919_logNormShiftAmp_detection_fixFreq,2020.1.2,MacIntel,60,,,,,,,,,,,,,,space,9.3735,space,1.3339,2,6.376,,0,0,0,0,23,1,stimuli/stim_20210919_power2amp/equal_lnn_AM2Hz_s25_3.m4a,,,,,,,,,,,,
,,,,,,,,,,,,41956,2021-10-03_20h54.35.954,judgeSpeechMusic_20210919_logNormShiftAmp_detection_fixFreq,2020.1.2,MacIntel,60,,,,,,,,,,,,,,,,,,2,8.2138,,0,0,1,1,44,1,stimuli/stim_20210919_power2amp/equal_lnn_AM2Hz_s35_40.m4a,,,,,,,,,,,,
,,,,,,,,,,,,41956,2021-10-03_20h54.35.954,judgeSpeechMusic_20210919_logNormShiftAmp_detection_fixFreq,2020.1.2,MacIntel,60,,,,,,,,,,,,,,,,,,2,12.0143,,0,0,2,2,66,1,stimuli/stim_20210919_power2amp/equal_lnn_AM2Hz_s55_32.m4a,,,,,,,,,,,,
,,,,,,,,,,,,41956,2021-10-03_20h54.35.954,judgeSpeechMusic_20210919_logNormShiftAmp_detection_fixFreq,2020.1.2,MacIntel,60,,,,,,,,,,,,,,,,,,1,6.4122,,0,0,3,3,13,1,stimuli/stim_20210919_power2amp/equal_lnn_AM2Hz_s15_6.m4a,,,,,,,,,,,,
,,,,,,,,,,,,41956,2021-10-03_20h54.35.954,judgeSpeechMusic_20210919_logNormShiftAmp_detection_fixFreq,2020.1.2,MacIntel,60,,,,,,,,,,,,,,,,,,1,6.2806,,0,0,4,4,8,1,stimuli/stim_20210919_power2amp/equal_lnn_AM2Hz_s15_14.m4a,,,,,,,,,,,,
,,,,,,,,,,,,41956,2021-10-03_20h54.35.954,judgeSpeechMusic_20210919_logNormShiftAmp_detection_fixFreq,2020.1.2,MacIntel,60,,,,,,,,,,,,,,,,,,1,6.297,,0,0,5,5,4,1,stimuli/stim_20210919_power2amp/equal_lnn_AM2Hz_s15_18.m4a,,,,,,,,,,,,
,,,,,,,,,,,,41956,2021-10-03_20h54.35.954,judgeSpeechMusic_20210919_logNormShiftAmp_detection_fixFreq,2020.1.2,MacIntel,60,,,,,,,,,,,,,,,,,,1,6.4296,,0,0,6,6,39,1,stimuli/stim_20210919_power2amp/equal_lnn_AM2Hz_s35_6.m4a,,,,,,,,,,,,
,,,,,,,,,,,,41956,2021-10-03_20h54.35.954,judgeSpeechMusic_20210919_logNormShiftAmp_detection_fixFreq,2020.1.2,MacIntel,60,,,,,,,,,,,,,,,,,,1,5.7989,,0,0,7,7,15,1,stimuli/stim_20210919_power2amp/equal_lnn_AM2Hz_s25_29.m4a,,,,,,,,,,,,
,,,,,,,,,,,,41956,2021-10-03_20h54.35.954,judgeSpeechMusic_20210919_logNormShiftAmp_detection_fixFreq,2020.1.2,MacIntel,60,,,,,,,,,,,,,,,,,,2,6.5612,,0,0,8,8,41,1,stimuli/stim_20210919_power2amp/equal_lnn_AM2Hz_s35_50.m4a,,,,,,,,,,,,
,,,,,,,,,,,,41956,2021-10-03_20h54.35.954,judgeSpeechMusic_20210919_logNormShiftAmp_detection_fixFreq,2020.1.2,MacIntel,60,,,,,,,,,,,,,,,,,,2,8.2965,,0,0,9,9,3,1,stimuli/stim_20210919_power2amp/equal_lnn_AM2Hz_s15_43.m4a,,,,,,,,,,,,
,,,,,,,,,,,,41956,2021-10-03_20h54.35.954,judgeSpeechMusic_20210919_logNormShiftAmp_detection_fixFreq,2020.1.2,MacIntel,60,,,,,,,,,,,,,,,,,,2,31.1258,,0,0,10,10,61,1,stimuli/stim_20210919_power2amp/equal_lnn_AM2Hz_s55_42.m4a,,,,,,,,,,,,
,,,,,,,,,,,,41956,2021-10-03_20h54.35.954,judgeSpeechMusic_20210919_logNormShiftAmp_detection_fixFreq,2020.1.2,MacIntel,60,,,,,,,,,,,,,,,,,,2,6.6964,,0,0,11,11,31,1,stimuli/stim_20210919_power2amp/equal_lnn_AM2Hz_s35_5.m4a,,,,,,,,,,,,
,,,,,,,,,,,,41956,2021-10-03_20h54.35.954,judgeSpeechMusic_20210919_logNormShiftAmp_detection_fixFreq,2020.1.2,MacIntel,60,,,,,,,,,,,,,,,,,,1,8.4297,,0,0,12,12,32,1,stimuli/stim_20210919_power2amp/equal_lnn_AM2Hz_s35_38.m4a,,,,,,,,,,,,
,,,,,,,,,,,,41956,2021-10-03_20h54.35.954,judgeSpeechMusic_20210919_logNormShiftAmp_detection_fixFreq,2020.1.2,MacIntel,60,,,,,,,,,,,,,,,,,,2,8.1625,,0,0,13,13,46,1,stimuli/stim_20210919_power2amp/equal_lnn_AM2Hz_s45_44.m4a,,,,,,,,,,,,
,,,,,,,,,,,,41956,2021-10-03_20h54.35.954,judgeSpeechMusic_20210919_logNormShiftAmp_detection_fixFreq,2020.1.2,MacIntel,60,,,,,,,,,,,,,,,,,,2,8.2811,,0,0,14,14,53,1,stimuli/stim_20210919_power2amp/equal_lnn_AM2Hz_s45_25.m4a,,,,,,,,,,,,
,,,,,,,,,,,,41956,2021-10-03_20h54.35.954,judgeSpeechMusic_20210919_logNormShiftAmp_detection_fixFreq,2020.1.2,MacIntel,60,,,,,,,,,,,,,,,,,,1,7.1117,,0,0,15,15,48,1,stimuli/stim_20210919_power2amp/equal_lnn_AM2Hz_s45_30.m4a,,,,,,,,,,,,
,,,,,,,,,,,,41956,2021-10-03_20h54.35.954,judgeSpeechMusic_20210919_logNormShiftAmp_detection_fixFreq,2020.1.2,MacIntel,60,,,,,,,,,,,,,,,,,,2,7.6958,,0,0,16,16,51,1,stimuli/stim_20210919_power2amp/equal_lnn_AM2Hz_s45_16.m4a,,,,,,,,,,,,
,,,,,,,,,,,,41956,2021-10-03_20h54.35.954,judgeSpeechMusic_20210919_logNormShiftAmp_detection_fixFreq,2020.1.2,MacIntel,60,,,,,,,,,,,,,,,,,,2,6.5807,,0,0,17,17,58,1,stimuli/stim_20210919_power2amp/equal_lnn_AM2Hz_s45_45.m4a,,,,,,,,,,,,
,,,,,,,,,,,,41956,2021-10-03_20h54.35.954,judgeSpeechMusic_20210919_logNormShiftAmp_detection_fixFreq,2020.1.2,MacIntel,60,,,,,,,,,,,,,,,,,,2,6.5785,2,1,0,18,18,7,1,stimuli/stim_20210919_power2amp/equal_lnn_AM2Hz_s15_10.m4a,1.0996,,,,,,,,,,,
,,,,,,,,,,,,41956,2021-10-03_20h54.35.954,judgeSpeechMusic_20210919_logNormShiftAmp_detection_fixFreq,2020.1.2,MacIntel,60,,,,,,,,,,,,,,,,,,1,7.512,,0,0,19,19,10,1,stimuli/stim_20210919_power2amp/equal_lnn_AM2Hz_s15_5.m4a,,,,,,,,,,,,
,,,,,,,,,,,,41956,2021-10-03_20h54.35.954,judgeSpeechMusic_20210919_logNormShiftAmp_detection_fixFreq,2020.1.2,MacIntel,60,,,,,,,,,,,,,,,,,,2,7.4295,,0,0,20,20,34,1,stimuli/stim_20210919_power2amp/equal_lnn_AM2Hz_s35_15.m4a,,,,,,,,,,,,
,,,,,,,,,,,,41956,2021-10-03_20h54.35.954,judgeSpeechMusic_20210919_logNormShiftAmp_detection_fixFreq,2020.1.2,MacIntel,60,,,,,,,,,,,,,,,,,,2,18.5301,,0,0,21,21,73,1,stimuli/stim_20210919_power2amp/equal_lnn_AM2Hz_s55_44.m4a,,,,,,,,,,,,
,,,,,,,,,,,,41956,2021-10-03_20h54.35.954,judgeSpeechMusic_20210919_logNormShiftAmp_detection_fixFreq,2020.1.2,MacIntel,60,,,,,,,,,,,,,,,,,,1,9.8293,,0,0,22,22,52,1,stimuli/stim_20210919_power2amp/equal_lnn_AM2Hz_s45_18.m4a,,,,,,,,,,,,
,,,,,,,,,,,,41956,2021-10-03_20h54.35.954,judgeSpeechMusic_20210919_logNormShiftAmp_detection_fixFreq,2020.1.2,MacIntel,60,,,,,,,,,,,,,,,,,,1,6.5965,,0,0,23,23,19,1,stimuli/stim_20210919_power2amp/equal_lnn_AM2Hz_s25_12.m4a,,,,,,,,,,,,
,,,,,,,,,,,,41956,2021-10-03_20h54.35.954,judgeSpeechMusic_20210919_logNormShiftAmp_detection_fixFreq,2020.1.2,MacIntel,60,,,,,,,,,,,,,,,,,,2,6.0293,,0,0,24,24,40,1,stimuli/stim_20210919_power2amp/equal_lnn_AM2Hz_s35_14.m4a,,,,,,,,,,,,
,,,,,,,,,,,,41956,2021-10-03_20h54.35.954,judgeSpeechMusic_20210919_logNormShiftAmp_detection_fixFreq,2020.1.2,MacIntel,60,,,,,,,,,,,,,,,,,,2,5.8811,,0,0,25,25,38,1,stimuli/stim_20210919_power2amp/equal_lnn_AM2Hz_s35_21.m4a,,,,,,,,,,,,
,,,,,,,,,,,,41956,2021-10-03_20h54.35.954,judgeSpeechMusic_20210919_logNormShiftAmp_detection_fixFreq,2020.1.2,MacIntel,60,,,,,,,,,,,,,,,,,,2,6.1453,,0,0,26,26,2,1,stimuli/stim_20210919_power2amp/equal_lnn_AM2Hz_s15_34.m4a,,,,,,,,,,,,
,,,,,,,,,,,,41956,2021-10-03_20h54.35.954,judgeSpeechMusic_20210919_logNormShiftAmp_detection_fixFreq,2020.1.2,MacIntel,60,,,,,,,,,,,,,,,,,,2,6.1805,,0,0,27,27,36,1,stimuli/stim_20210919_power2amp/equal_lnn_AM2Hz_s35_31.m4a,,,,,,,,,,,,
,,,,,,,,,,,,41956,2021-10-03_20h54.35.954,judgeSpeechMusic_20210919_logNormShiftAmp_detection_fixFreq,2020.1.2,MacIntel,60,,,,,,,,,,,,,,,,,,2,5.7637,,0,0,28,28,70,1,stimuli/stim_20210919_power2amp/equal_lnn_AM2Hz_s55_18.m4a,,,,,,,,,,,,
,,,,,,,,,,,,41956,2021-10-03_20h54.35.954,judgeSpeechMusic_20210919_logNormShiftAmp_detection_fixFreq,2020.1.2,MacIntel,60,,,,,,,,,,,,,,,,,,2,5.6809,,0,0,29,29,55,1,stimuli/stim_20210919_power2amp/equal_lnn_AM2Hz_s45_13.m4a,,,,,,,,,,,,
,,,,,,,,,,,,41956,2021-10-03_20h54.35.954,judgeSpeechMusic_20210919_logNormShiftAmp_detection_fixFreq,2020.1.2,MacIntel,60,,,,,,,,,,,,,,,,,,1,8.6288,,0,0,30,30,54,1,stimuli/stim_20210919_power2amp/equal_lnn_AM2Hz_s45_3.m4a,,,,,,,,,,,,
,,,,,,,,,,,,41956,2021-10-03_20h54.35.954,judgeSpeechMusic_20210919_logNormShiftAmp_detection_fixFreq,2020.1.2,MacIntel,60,,,,,,,,,,,,,,,,,,2,5.6965,,0,0,31,31,29,1,stimuli/stim_20210919_power2amp/equal_lnn_AM2Hz_s25_26.m4a,,,,,,,,,,,,
,,,,,,,,,,,,41956,2021-10-03_20h54.35.954,judgeSpeechMusic_20210919_logNormShiftAmp_detection_fixFreq,2020.1.2,MacIntel,60,,,,,,,,,,,,,,,,,,2,5.6304,,0,0,32,32,28,1,stimuli/stim_20210919_power2amp/equal_lnn_AM2Hz_s25_21.m4a,,,,,,,,,,,,
,,,,,,,,,,,,41956,2021-10-03_20h54.35.954,judgeSpeechMusic_20210919_logNormShiftAmp_detection_fixFreq,2020.1.2,MacIntel,60,,,,,,,,,,,,,,,,,,1,6.1458,,0,0,33,33,56,1,stimuli/stim_20210919_power2amp/equal_lnn_AM2Hz_s45_8.m4a,,,,,,,,,,,,
,,,,,,,,,,,,41956,2021-10-03_20h54.35.954,judgeSpeechMusic_20210919_logNormShiftAmp_detection_fixFreq,2020.1.2,MacIntel,60,,,,,,,,,,,,,,,,,,2,6.0133,,0,0,34,34,71,1,stimuli/stim_20210919_power2amp/equal_lnn_AM2Hz_s55_35.m4a,,,,,,,,,,,,
,,,,,,,,,,,,41956,2021-10-03_20h54.35.954,judgeSpeechMusic_20210919_logNormShiftAmp_detection_fixFreq,2020.1.2,MacIntel,60,,,,,,,,,,,,,,,,,,2,5.98,,0,0,35,35,9,1,stimuli/stim_20210919_power2amp/equal_lnn_AM2Hz_s15_35.m4a,,,,,,,,,,,,
,,,,,,,,,,,,41956,2021-10-03_20h54.35.954,judgeSpeechMusic_20210919_logNormShiftAmp_detection_fixFreq,2020.1.2,MacIntel,60,,,,,,,,,,,,,,,,,,1,9.8797,,0,0,36,36,49,1,stimuli/stim_20210919_power2amp/equal_lnn_AM2Hz_s45_34.m4a,,,,,,,,,,,,
,,,,,,,,,,,,41956,2021-10-03_20h54.35.954,judgeSpeechMusic_20210919_logNormShiftAmp_detection_fixFreq,2020.1.2,MacIntel,60,,,,,,,,,,,,,,,,,,1,5.8118,2,0,0,37,37,68,1,stimuli/stim_20210919_power2amp/equal_lnn_AM2Hz_s55_15.m4a,1.0503,,,,,,,,,,,
,,,,,,,,,,,,41956,2021-10-03_20h54.35.954,judgeSpeechMusic_20210919_logNormShiftAmp_detection_fixFreq,2020.1.2,MacIntel,60,,,,,,,,,,,,,,,,,,1,16.7626,,0,0,38,38,43,1,stimuli/stim_20210919_power2amp/equal_lnn_AM2Hz_s35_27.m4a,,,,,,,,,,,,
,,,,,,,,,,,,41956,2021-10-03_20h54.35.954,judgeSpeechMusic_20210919_logNormShiftAmp_detection_fixFreq,2020.1.2,MacIntel,60,,,,,,,,,,,,,,,,,,2,8.9644,,0,0,39,39,1,1,stimuli/stim_20210919_power2amp/equal_lnn_AM2Hz_s15_24.m4a,,,,,,,,,,,,
,,,,,,,,,,,,41956,2021-10-03_20h54.35.954,judgeSpeechMusic_20210919_logNormShiftAmp_detection_fixFreq,2020.1.2,MacIntel,60,,,,,,,,,,,,,,,,,,2,6.6489,,0,0,40,40,69,1,stimuli/stim_20210919_power2amp/equal_lnn_AM2Hz_s55_7.m4a,,,,,,,,,,,,
,,,,,,,,,,,,41956,2021-10-03_20h54.35.954,judgeSpeechMusic_20210919_logNormShiftAmp_detection_fixFreq,2020.1.2,MacIntel,60,,,,,,,,,,,,,,,,,,2,5.6616,,0,0,41,41,45,1,stimuli/stim_20210919_power2amp/equal_lnn_AM2Hz_s45_9.m4a,,,,,,,,,,,,
,,,,,,,,,,,,41956,2021-10-03_20h54.35.954,judgeSpeechMusic_20210919_logNormShiftAmp_detection_fixFreq,2020.1.2,MacIntel,60,,,,,,,,,,,,,,,,,,1,5.6802,,0,0,42,42,14,1,stimuli/stim_20210919_power2amp/equal_lnn_AM2Hz_s15_19.m4a,,,,,,,,,,,,
,,,,,,,,,,,,41956,2021-10-03_20h54.35.954,judgeSpeechMusic_20210919_logNormShiftAmp_detection_fixFreq,2020.1.2,MacIntel,60,,,,,,,,,,,,,,,,,,1,5.9635,,0,0,43,43,37,1,stimuli/stim_20210919_power2amp/equal_lnn_AM2Hz_s35_43.m4a,,,,,,,,,,,,
,,,,,,,,,,,,41956,2021-10-03_20h54.35.954,judgeSpeechMusic_20210919_logNormShiftAmp_detection_fixFreq,2020.1.2,MacIntel,60,,,,,,,,,,,,,,,,,,1,6.1966,,0,0,44,44,5,1,stimuli/stim_20210919_power2amp/equal_lnn_AM2Hz_s15_25.m4a,,,,,,,,,,,,
,,,,,,,,,,,,41956,2021-10-03_20h54.35.954,judgeSpeechMusic_20210919_logNormShiftAmp_detection_fixFreq,2020.1.2,MacIntel,60,,,,,,,,,,,,,,,,,,1,7.0301,,0,0,45,45,62,1,stimuli/stim_20210919_power2amp/equal_lnn_AM2Hz_s55_9.m4a,,,,,,,,,,,,
,,,,,,,,,,,,41956,2021-10-03_20h54.35.954,judgeSpeechMusic_20210919_logNormShiftAmp_detection_fixFreq,2020.1.2,MacIntel,60,,,,,,,,,,,,,,,,,,2,7.0467,,0,0,46,46,57,1,stimuli/stim_20210919_power2amp/equal_lnn_AM2Hz_s45_28.m4a,,,,,,,,,,,,
,,,,,,,,,,,,41956,2021-10-03_20h54.35.954,judgeSpeechMusic_20210919_logNormShiftAmp_detection_fixFreq,2020.1.2,MacIntel,60,,,,,,,,,,,,,,,,,,2,5.7462,,0,0,47,47,11,1,stimuli/stim_20210919_power2amp/equal_lnn_AM2Hz_s15_28.m4a,,,,,,,,,,,,
,,,,,,,,,,,,41956,2021-10-03_20h54.35.954,judgeSpeechMusic_20210919_logNormShiftAmp_detection_fixFreq,2020.1.2,MacIntel,60,,,,,,,,,,,,,,,,,,2,5.862,,0,0,48,48,20,1,stimuli/stim_20210919_power2amp/equal_lnn_AM2Hz_s25_48.m4a,,,,,,,,,,,,
,,,,,,,,,,,,41956,2021-10-03_20h54.35.954,judgeSpeechMusic_20210919_logNormShiftAmp_detection_fixFreq,2020.1.2,MacIntel,60,,,,,,,,,,,,,,,,,,2,5.8804,,0,0,49,49,16,1,stimuli/stim_20210919_power2amp/equal_lnn_AM2Hz_s25_25.m4a,,,,,,,,,,,,
,,,,,,,,,,,,41956,2021-10-03_20h54.35.954,judgeSpeechMusic_20210919_logNormShiftAmp_detection_fixFreq,2020.1.2,MacIntel,60,,,,,,,,,,,,,,,,,,1,5.7125,,0,0,50,50,65,1,stimuli/stim_20210919_power2amp/equal_lnn_AM2Hz_s55_50.m4a,,,,,,,,,,,,
,,,,,,,,,,,,41956,2021-10-03_20h54.35.954,judgeSpeechMusic_20210919_logNormShiftAmp_detection_fixFreq,2020.1.2,MacIntel,60,,,,,,,,,,,,,,,,,,2,13.863,,0,0,51,51,67,1,stimuli/stim_20210919_power2amp/equal_lnn_AM2Hz_s55_21.m4a,,,,,,,,,,,,
,,,,,,,,,,,,41956,2021-10-03_20h54.35.954,judgeSpeechMusic_20210919_logNormShiftAmp_detection_fixFreq,2020.1.2,MacIntel,60,,,,,,,,,,,,,,,,,,2,5.9779,,0,0,52,52,35,1,stimuli/stim_20210919_power2amp/equal_lnn_AM2Hz_s35_39.m4a,,,,,,,,,,,,
,,,,,,,,,,,,41956,2021-10-03_20h54.35.954,judgeSpeechMusic_20210919_logNormShiftAmp_detection_fixFreq,2020.1.2,MacIntel,60,,,,,,,,,,,,,,,,,,2,5.7805,,0,0,53,53,21,1,stimuli/stim_20210919_power2amp/equal_lnn_AM2Hz_s25_42.m4a,,,,,,,,,,,,
,,,,,,,,,,,,41956,2021-10-03_20h54.35.954,judgeSpeechMusic_20210919_logNormShiftAmp_detection_fixFreq,2020.1.2,MacIntel,60,,,,,,,,,,,,,,,,,,2,6.6618,,0,0,54,54,18,1,stimuli/stim_20210919_power2amp/equal_lnn_AM2Hz_s25_14.m4a,,,,,,,,,,,,
,,,,,,,,,,,,41956,2021-10-03_20h54.35.954,judgeSpeechMusic_20210919_logNormShiftAmp_detection_fixFreq,2020.1.2,MacIntel,60,,,,,,,,,,,,,,,,,,2,6.1309,,0,0,55,55,64,1,stimuli/stim_20210919_power2amp/equal_lnn_AM2Hz_s55_41.m4a,,,,,,,,,,,,
,,,,,,,,,,,,41956,2021-10-03_20h54.35.954,judgeSpeechMusic_20210919_logNormShiftAmp_detection_fixFreq,2020.1.2,MacIntel,60,,,,,,,,,,,,,,,,,,1,7.597,,0,0,56,56,27,1,stimuli/stim_20210919_power2amp/equal_lnn_AM2Hz_s25_36.m4a,,,,,,,,,,,,
,,,,,,,,,,,,41956,2021-10-03_20h54.35.954,judgeSpeechMusic_20210919_logNormShiftAmp_detection_fixFreq,2020.1.2,MacIntel,60,,,,,,,,,,,,,,,,,,1,6.527,,0,0,57,57,74,1,stimuli/stim_20210919_power2amp/equal_lnn_AM2Hz_s55_12.m4a,,,,,,,,,,,,
,,,,,,,,,,,,41956,2021-10-03_20h54.35.954,judgeSpeechMusic_20210919_logNormShiftAmp_detection_fixFreq,2020.1.2,MacIntel,60,,,,,,,,,,,,,,,,,,2,6.8635,3,1,0,58,58,0,1,stimuli/stim_20210919_power2amp/equal_lnn_AM2Hz_s15_4.m4a,0.4417,,,,,,,,,,,
,,,,,,,,,,,,41956,2021-10-03_20h54.35.954,judgeSpeechMusic_20210919_logNormShiftAmp_detection_fixFreq,2020.1.2,MacIntel,60,,,,,,,,,,,,,,,,,,1,5.9115,,0,0,59,59,59,1,stimuli/stim_20210919_power2amp/equal_lnn_AM2Hz_s45_17.m4a,,,,,,,,,,,,
,,,,,,,,,,,,41956,2021-10-03_20h54.35.954,judgeSpeechMusic_20210919_logNormShiftAmp_detection_fixFreq,2020.1.2,MacIntel,60,,,,,,,,,,,,,,,,,,2,7.0124,,0,0,60,60,24,1,stimuli/stim_20210919_power2amp/equal_lnn_AM2Hz_s25_32.m4a,,,,,,,,,,,,
,,,,,,,,,,,,41956,2021-10-03_20h54.35.954,judgeSpeechMusic_20210919_logNormShiftAmp_detection_fixFreq,2020.1.2,MacIntel,60,,,,,,,,,,,,,,,,,,2,6.4489,,0,0,61,61,26,1,stimuli/stim_20210919_power2amp/equal_lnn_AM2Hz_s25_13.m4a,,,,,,,,,,,,
,,,,,,,,,,,,41956,2021-10-03_20h54.35.954,judgeSpeechMusic_20210919_logNormShiftAmp_detection_fixFreq,2020.1.2,MacIntel,60,,,,,,,,,,,,,,,,,,2,6.5446,,0,0,62,62,60,1,stimuli/stim_20210919_power2amp/equal_lnn_AM2Hz_s55_39.m4a,,,,,,,,,,,,
,,,,,,,,,,,,41956,2021-10-03_20h54.35.954,judgeSpeechMusic_20210919_logNormShiftAmp_detection_fixFreq,2020.1.2,MacIntel,60,,,,,,,,,,,,,,,,,,2,6.8642,,0,0,63,63,50,1,stimuli/stim_20210919_power2amp/equal_lnn_AM2Hz_s45_26.m4a,,,,,,,,,,,,
,,,,,,,,,,,,41956,2021-10-03_20h54.35.954,judgeSpeechMusic_20210919_logNormShiftAmp_detection_fixFreq,2020.1.2,MacIntel,60,,,,,,,,,,,,,,,,,,2,6.579,,0,0,64,64,47,1,stimuli/stim_20210919_power2amp/equal_lnn_AM2Hz_s45_29.m4a,,,,,,,,,,,,
,,,,,,,,,,,,41956,2021-10-03_20h54.35.954,judgeSpeechMusic_20210919_logNormShiftAmp_detection_fixFreq,2020.1.2,MacIntel,60,,,,,,,,,,,,,,,,,,2,6.0795,,0,0,65,65,33,1,stimuli/stim_20210919_power2amp/equal_lnn_AM2Hz_s35_10.m4a,,,,,,,,,,,,
,,,,,,,,,,,,41956,2021-10-03_20h54.35.954,judgeSpeechMusic_20210919_logNormShiftAmp_detection_fixFreq,2020.1.2,MacIntel,60,,,,,,,,,,,,,,,,,,2,6.3471,,0,0,66,66,17,1,stimuli/stim_20210919_power2amp/equal_lnn_AM2Hz_s25_47.m4a,,,,,,,,,,,,
,,,,,,,,,,,,41956,2021-10-03_20h54.35.954,judgeSpeechMusic_20210919_logNormShiftAmp_detection_fixFreq,2020.1.2,MacIntel,60,,,,,,,,,,,,,,,,,,2,6.7966,,0,0,67,67,22,1,stimuli/stim_20210919_power2amp/equal_lnn_AM2Hz_s25_22.m4a,,,,,,,,,,,,
,,,,,,,,,,,,41956,2021-10-03_20h54.35.954,judgeSpeechMusic_20210919_logNormShiftAmp_detection_fixFreq,2020.1.2,MacIntel,60,,,,,,,,,,,,,,,,,,1,6.7629,,0,0,68,68,30,1,stimuli/stim_20210919_power2amp/equal_lnn_AM2Hz_s35_37.m4a,,,,,,,,,,,,
,,,,,,,,,,,,41956,2021-10-03_20h54.35.954,judgeSpeechMusic_20210919_logNormShiftAmp_detection_fixFreq,2020.1.2,MacIntel,60,,,,,,,,,,,,,,,,,,1,6.5299,,0,0,69,69,63,1,stimuli/stim_20210919_power2amp/equal_lnn_AM2Hz_s55_14.m4a,,,,,,,,,,,,
,,,,,,,,,,,,41956,2021-10-03_20h54.35.954,judgeSpeechMusic_20210919_logNormShiftAmp_detection_fixFreq,2020.1.2,MacIntel,60,,,,,,,,,,,,,,,,,,1,5.9477,,0,0,70,70,25,1,stimuli/stim_20210919_power2amp/equal_lnn_AM2Hz_s25_45.m4a,,,,,,,,,,,,
,,,,,,,,,,,,41956,2021-10-03_20h54.35.954,judgeSpeechMusic_20210919_logNormShiftAmp_detection_fixFreq,2020.1.2,MacIntel,60,,,,,,,,,,,,,,,,,,1,5.411,,0,0,71,71,42,1,stimuli/stim_20210919_power2amp/equal_lnn_AM2Hz_s35_30.m4a,,,,,,,,,,,,
,,,,,,,,,,,,41956,2021-10-03_20h54.35.954,judgeSpeechMusic_20210919_logNormShiftAmp_detection_fixFreq,2020.1.2,MacIntel,60,,,,,,,,,,,,,,,,,,2,5.9131,,0,0,72,72,12,1,stimuli/stim_20210919_power2amp/equal_lnn_AM2Hz_s15_40.m4a,,,,,,,,,,,,
,,,,,,,,,,,,41956,2021-10-03_20h54.35.954,judgeSpeechMusic_20210919_logNormShiftAmp_detection_fixFreq,2020.1.2,MacIntel,60,,,,,,,,,,,,,,,,,,2,6.5615,,0,0,73,73,6,1,stimuli/stim_20210919_power2amp/equal_lnn_AM2Hz_s15_49.m4a,,,,,,,,,,,,
,,,,,,,,,,,,41956,2021-10-03_20h54.35.954,judgeSpeechMusic_20210919_logNormShiftAmp_detection_fixFreq,2020.1.2,MacIntel,60,,,,,,,,,,,,,,,,,,2,6.4461,,0,0,74,74,72,1,stimuli/stim_20210919_power2amp/equal_lnn_AM2Hz_s55_47.m4a,,,,,,,,,,,,
,,,,,,,,,,,,41956,2021-10-03_20h54.35.954,judgeSpeechMusic_20210919_logNormShiftAmp_detection_fixFreq,2020.1.2,MacIntel,60,,,,,,,,,,,,,,,,,,,,,,,,,,,,,,,1,1,3,0,1,MUSIC,stimuli/MUSIC.jpg,,
,,,,,,,,,,,,41956,2021-10-03_20h54.35.954,judgeSpeechMusic_20210919_logNormShiftAmp_detection_fixFreq,2020.1.2,MacIntel,60,,,,,,,,,,,,,,,,,,,,,,,,,,,,,,,,,,,,,,space,3.7752
