headphoneResponse.keys,headphoneResponse.corr,headphoneResponse.rt,headphoneTrial.thisRepN,headphoneTrial.thisTrialN,headphoneTrial.thisN,headphoneTrial.thisIndex,headphoneTrial.ran,headphone_sound1,headphone_sound2,headphone_sound3,corrAns,participant,date,expName,psychopyVersion,OS,frameRate,checkInstruKey.keys,checkInstruKey.rt,trainSlider.response,trainSlider.rt,beepTrainResponse.keys,beepTrainResponse.corr,trainingTrials.thisRepN,trainingTrials.thisTrialN,trainingTrials.thisN,trainingTrials.thisIndex,trainingTrials.ran,trainAudioFile,beepTrainResponse.rt,readyReal_resp.keys,readyReal_resp.rt,checkInstru2_key.keys,checkInstru2_key.rt,ratingSlider.response,ratingSlider.rt,beepResp.keys,beepResp.corr,expTrials.thisRepN,expTrials.thisTrialN,expTrials.thisN,expTrials.thisIndex,expTrials.ran,audioFile,beepResp.rt,switchBlock_space.keys,switchBlock_space.rt,block.thisRepN,block.thisTrialN,block.thisN,block.thisIndex,block.ran,blockName,blockImage,end_resp.keys,end_resp.rt
2,1,0.9833,0,0,0,3,1,stimuli/screen_origin.wav,stimuli/screen_quiet.wav,stimuli/screen_antiphase.wav,2,41993,2021-10-01_13h12.27.637,judgeSpeechMusic_20210919_logNormShiftAmp_detection_fixFreq,2020.1.2,Win32,60,,,,,,,,,,,,,,,,,,,,,,,,,,,,,,,,,,,,,,,
2,1,1.3304,0,1,1,1,1,stimuli/screen_antiphase.wav,stimuli/screen_quiet.wav,stimuli/screen_origin.wav,2,41993,2021-10-01_13h12.27.637,judgeSpeechMusic_20210919_logNormShiftAmp_detection_fixFreq,2020.1.2,Win32,60,,,,,,,,,,,,,,,,,,,,,,,,,,,,,,,,,,,,,,,
3,1,0.3051,0,2,2,2,1,stimuli/screen_origin.wav,stimuli/screen_antiphase.wav,stimuli/screen_quiet.wav,3,41993,2021-10-01_13h12.27.637,judgeSpeechMusic_20210919_logNormShiftAmp_detection_fixFreq,2020.1.2,Win32,60,,,,,,,,,,,,,,,,,,,,,,,,,,,,,,,,,,,,,,,
3,1,0.3289,0,3,3,0,1,stimuli/screen_antiphase.wav,stimuli/screen_origin.wav,stimuli/screen_quiet.wav,3,41993,2021-10-01_13h12.27.637,judgeSpeechMusic_20210919_logNormShiftAmp_detection_fixFreq,2020.1.2,Win32,60,,,,,,,,,,,,,,,,,,,,,,,,,,,,,,,,,,,,,,,
1,1,0.3822,0,4,4,4,1,stimuli/screen_quiet.wav,stimuli/screen_antiphase.wav,stimuli/screen_origin.wav,1,41993,2021-10-01_13h12.27.637,judgeSpeechMusic_20210919_logNormShiftAmp_detection_fixFreq,2020.1.2,Win32,60,,,,,,,,,,,,,,,,,,,,,,,,,,,,,,,,,,,,,,,
1,1,0.2315,0,5,5,5,1,stimuli/screen_quiet.wav,stimuli/screen_origin.wav,stimuli/screen_antiphase.wav,1,41993,2021-10-01_13h12.27.637,judgeSpeechMusic_20210919_logNormShiftAmp_detection_fixFreq,2020.1.2,Win32,60,,,,,,,,,,,,,,,,,,,,,,,,,,,,,,,,,,,,,,,
,,,,,,,,,,,,41993,2021-10-01_13h12.27.637,judgeSpeechMusic_20210919_logNormShiftAmp_detection_fixFreq,2020.1.2,Win32,60,space,0.8658,1,7.2601,,0,0,0,0,2,1,stimuli/stim_20210919_power2amp/equal_lnn_AM_training2Hz_s40.m4a,,,,,,,,,,,,,,,,,,,,,,,,,,,
,,,,,,,,,,,,41993,2021-10-01_13h12.27.637,judgeSpeechMusic_20210919_logNormShiftAmp_detection_fixFreq,2020.1.2,Win32,60,,,1,6.769,,0,0,1,1,3,1,stimuli/stim_20210919_power2amp/equal_lnn_AM_training2Hz_s50.m4a,,,,,,,,,,,,,,,,,,,,,,,,,,,
,,,,,,,,,,,,41993,2021-10-01_13h12.27.637,judgeSpeechMusic_20210919_logNormShiftAmp_detection_fixFreq,2020.1.2,Win32,60,,,1,6.44,2,1,0,2,2,0,1,stimuli/stim_20210919_power2amp/equal_lnn_AM_training2Hz_s20.m4a,1.3206,,,,,,,,,,,,,,,,,,,,,,,,,,
,,,,,,,,,,,,41993,2021-10-01_13h12.27.637,judgeSpeechMusic_20210919_logNormShiftAmp_detection_fixFreq,2020.1.2,Win32,60,,,1,6.1245,,0,0,3,3,1,1,stimuli/stim_20210919_power2amp/equal_lnn_AM_training2Hz_s30.m4a,,,,,,,,,,,,,,,,,,,,,,,,,,,
,,,,,,,,,,,,41993,2021-10-01_13h12.27.637,judgeSpeechMusic_20210919_logNormShiftAmp_detection_fixFreq,2020.1.2,Win32,60,,,,,,,,,,,,,,space,3.0186,space,3.6487,1,7.7079,,0,0,0,0,72,1,stimuli/stim_20210919_power2amp/equal_lnn_AM2Hz_s55_37.m4a,,,,,,,,,,,,
,,,,,,,,,,,,41993,2021-10-01_13h12.27.637,judgeSpeechMusic_20210919_logNormShiftAmp_detection_fixFreq,2020.1.2,Win32,60,,,,,,,,,,,,,,,,,,1,6.2348,,0,0,1,1,12,1,stimuli/stim_20210919_power2amp/equal_lnn_AM2Hz_s15_30.m4a,,,,,,,,,,,,
,,,,,,,,,,,,41993,2021-10-01_13h12.27.637,judgeSpeechMusic_20210919_logNormShiftAmp_detection_fixFreq,2020.1.2,Win32,60,,,,,,,,,,,,,,,,,,1,6.9592,,0,0,2,2,59,1,stimuli/stim_20210919_power2amp/equal_lnn_AM2Hz_s45_3.m4a,,,,,,,,,,,,
,,,,,,,,,,,,41993,2021-10-01_13h12.27.637,judgeSpeechMusic_20210919_logNormShiftAmp_detection_fixFreq,2020.1.2,Win32,60,,,,,,,,,,,,,,,,,,1,5.8124,,0,0,3,3,40,1,stimuli/stim_20210919_power2amp/equal_lnn_AM2Hz_s35_2.m4a,,,,,,,,,,,,
,,,,,,,,,,,,41993,2021-10-01_13h12.27.637,judgeSpeechMusic_20210919_logNormShiftAmp_detection_fixFreq,2020.1.2,Win32,60,,,,,,,,,,,,,,,,,,1,5.7597,,0,0,4,4,73,1,stimuli/stim_20210919_power2amp/equal_lnn_AM2Hz_s55_6.m4a,,,,,,,,,,,,
,,,,,,,,,,,,41993,2021-10-01_13h12.27.637,judgeSpeechMusic_20210919_logNormShiftAmp_detection_fixFreq,2020.1.2,Win32,60,,,,,,,,,,,,,,,,,,1,5.7374,,0,0,5,5,20,1,stimuli/stim_20210919_power2amp/equal_lnn_AM2Hz_s25_20.m4a,,,,,,,,,,,,
,,,,,,,,,,,,41993,2021-10-01_13h12.27.637,judgeSpeechMusic_20210919_logNormShiftAmp_detection_fixFreq,2020.1.2,Win32,60,,,,,,,,,,,,,,,,,,1,5.8307,,0,0,6,6,43,1,stimuli/stim_20210919_power2amp/equal_lnn_AM2Hz_s35_38.m4a,,,,,,,,,,,,
,,,,,,,,,,,,41993,2021-10-01_13h12.27.637,judgeSpeechMusic_20210919_logNormShiftAmp_detection_fixFreq,2020.1.2,Win32,60,,,,,,,,,,,,,,,,,,1,8.3753,,0,0,7,7,14,1,stimuli/stim_20210919_power2amp/equal_lnn_AM2Hz_s15_18.m4a,,,,,,,,,,,,
,,,,,,,,,,,,41993,2021-10-01_13h12.27.637,judgeSpeechMusic_20210919_logNormShiftAmp_detection_fixFreq,2020.1.2,Win32,60,,,,,,,,,,,,,,,,,,1,6.7124,,0,0,8,8,54,1,stimuli/stim_20210919_power2amp/equal_lnn_AM2Hz_s45_8.m4a,,,,,,,,,,,,
,,,,,,,,,,,,41993,2021-10-01_13h12.27.637,judgeSpeechMusic_20210919_logNormShiftAmp_detection_fixFreq,2020.1.2,Win32,60,,,,,,,,,,,,,,,,,,1,6.1628,,0,0,9,9,21,1,stimuli/stim_20210919_power2amp/equal_lnn_AM2Hz_s25_49.m4a,,,,,,,,,,,,
,,,,,,,,,,,,41993,2021-10-01_13h12.27.637,judgeSpeechMusic_20210919_logNormShiftAmp_detection_fixFreq,2020.1.2,Win32,60,,,,,,,,,,,,,,,,,,1,6.0187,,0,0,10,10,52,1,stimuli/stim_20210919_power2amp/equal_lnn_AM2Hz_s45_25.m4a,,,,,,,,,,,,
,,,,,,,,,,,,41993,2021-10-01_13h12.27.637,judgeSpeechMusic_20210919_logNormShiftAmp_detection_fixFreq,2020.1.2,Win32,60,,,,,,,,,,,,,,,,,,1,6.0838,,0,0,11,11,34,1,stimuli/stim_20210919_power2amp/equal_lnn_AM2Hz_s35_47.m4a,,,,,,,,,,,,
,,,,,,,,,,,,41993,2021-10-01_13h12.27.637,judgeSpeechMusic_20210919_logNormShiftAmp_detection_fixFreq,2020.1.2,Win32,60,,,,,,,,,,,,,,,,,,1,5.7461,,0,0,12,12,32,1,stimuli/stim_20210919_power2amp/equal_lnn_AM2Hz_s35_11.m4a,,,,,,,,,,,,
,,,,,,,,,,,,41993,2021-10-01_13h12.27.637,judgeSpeechMusic_20210919_logNormShiftAmp_detection_fixFreq,2020.1.2,Win32,60,,,,,,,,,,,,,,,,,,1,5.6177,,0,0,13,13,28,1,stimuli/stim_20210919_power2amp/equal_lnn_AM2Hz_s25_46.m4a,,,,,,,,,,,,
,,,,,,,,,,,,41993,2021-10-01_13h12.27.637,judgeSpeechMusic_20210919_logNormShiftAmp_detection_fixFreq,2020.1.2,Win32,60,,,,,,,,,,,,,,,,,,1,5.9855,,0,0,14,14,50,1,stimuli/stim_20210919_power2amp/equal_lnn_AM2Hz_s45_19.m4a,,,,,,,,,,,,
,,,,,,,,,,,,41993,2021-10-01_13h12.27.637,judgeSpeechMusic_20210919_logNormShiftAmp_detection_fixFreq,2020.1.2,Win32,60,,,,,,,,,,,,,,,,,,1,5.8109,,0,0,15,15,49,1,stimuli/stim_20210919_power2amp/equal_lnn_AM2Hz_s45_35.m4a,,,,,,,,,,,,
,,,,,,,,,,,,41993,2021-10-01_13h12.27.637,judgeSpeechMusic_20210919_logNormShiftAmp_detection_fixFreq,2020.1.2,Win32,60,,,,,,,,,,,,,,,,,,1,5.8298,,0,0,16,16,39,1,stimuli/stim_20210919_power2amp/equal_lnn_AM2Hz_s35_14.m4a,,,,,,,,,,,,
,,,,,,,,,,,,41993,2021-10-01_13h12.27.637,judgeSpeechMusic_20210919_logNormShiftAmp_detection_fixFreq,2020.1.2,Win32,60,,,,,,,,,,,,,,,,,,1,7.864,,0,0,17,17,16,1,stimuli/stim_20210919_power2amp/equal_lnn_AM2Hz_s25_30.m4a,,,,,,,,,,,,
,,,,,,,,,,,,41993,2021-10-01_13h12.27.637,judgeSpeechMusic_20210919_logNormShiftAmp_detection_fixFreq,2020.1.2,Win32,60,,,,,,,,,,,,,,,,,,1,6.0913,,0,0,18,18,13,1,stimuli/stim_20210919_power2amp/equal_lnn_AM2Hz_s15_23.m4a,,,,,,,,,,,,
,,,,,,,,,,,,41993,2021-10-01_13h12.27.637,judgeSpeechMusic_20210919_logNormShiftAmp_detection_fixFreq,2020.1.2,Win32,60,,,,,,,,,,,,,,,,,,1,5.9727,,0,0,19,19,24,1,stimuli/stim_20210919_power2amp/equal_lnn_AM2Hz_s25_33.m4a,,,,,,,,,,,,
,,,,,,,,,,,,41993,2021-10-01_13h12.27.637,judgeSpeechMusic_20210919_logNormShiftAmp_detection_fixFreq,2020.1.2,Win32,60,,,,,,,,,,,,,,,,,,1,6.1505,,0,0,20,20,65,1,stimuli/stim_20210919_power2amp/equal_lnn_AM2Hz_s55_47.m4a,,,,,,,,,,,,
,,,,,,,,,,,,41993,2021-10-01_13h12.27.637,judgeSpeechMusic_20210919_logNormShiftAmp_detection_fixFreq,2020.1.2,Win32,60,,,,,,,,,,,,,,,,,,1,5.7384,,0,0,21,21,55,1,stimuli/stim_20210919_power2amp/equal_lnn_AM2Hz_s45_26.m4a,,,,,,,,,,,,
,,,,,,,,,,,,41993,2021-10-01_13h12.27.637,judgeSpeechMusic_20210919_logNormShiftAmp_detection_fixFreq,2020.1.2,Win32,60,,,,,,,,,,,,,,,,,,1,6.5084,3,1,0,22,22,18,1,stimuli/stim_20210919_power2amp/equal_lnn_AM2Hz_s25_23.m4a,1.2557,,,,,,,,,,,
,,,,,,,,,,,,41993,2021-10-01_13h12.27.637,judgeSpeechMusic_20210919_logNormShiftAmp_detection_fixFreq,2020.1.2,Win32,60,,,,,,,,,,,,,,,,,,1,5.6771,,0,0,23,23,57,1,stimuli/stim_20210919_power2amp/equal_lnn_AM2Hz_s45_15.m4a,,,,,,,,,,,,
,,,,,,,,,,,,41993,2021-10-01_13h12.27.637,judgeSpeechMusic_20210919_logNormShiftAmp_detection_fixFreq,2020.1.2,Win32,60,,,,,,,,,,,,,,,,,,1,5.8024,,0,0,24,24,44,1,stimuli/stim_20210919_power2amp/equal_lnn_AM2Hz_s35_50.m4a,,,,,,,,,,,,
,,,,,,,,,,,,41993,2021-10-01_13h12.27.637,judgeSpeechMusic_20210919_logNormShiftAmp_detection_fixFreq,2020.1.2,Win32,60,,,,,,,,,,,,,,,,,,1,5.7639,,0,0,25,25,71,1,stimuli/stim_20210919_power2amp/equal_lnn_AM2Hz_s55_15.m4a,,,,,,,,,,,,
,,,,,,,,,,,,41993,2021-10-01_13h12.27.637,judgeSpeechMusic_20210919_logNormShiftAmp_detection_fixFreq,2020.1.2,Win32,60,,,,,,,,,,,,,,,,,,1,5.8736,,0,0,26,26,66,1,stimuli/stim_20210919_power2amp/equal_lnn_AM2Hz_s55_13.m4a,,,,,,,,,,,,
,,,,,,,,,,,,41993,2021-10-01_13h12.27.637,judgeSpeechMusic_20210919_logNormShiftAmp_detection_fixFreq,2020.1.2,Win32,60,,,,,,,,,,,,,,,,,,1,6.0493,,0,0,27,27,31,1,stimuli/stim_20210919_power2amp/equal_lnn_AM2Hz_s35_10.m4a,,,,,,,,,,,,
,,,,,,,,,,,,41993,2021-10-01_13h12.27.637,judgeSpeechMusic_20210919_logNormShiftAmp_detection_fixFreq,2020.1.2,Win32,60,,,,,,,,,,,,,,,,,,1,6.3056,,0,0,28,28,37,1,stimuli/stim_20210919_power2amp/equal_lnn_AM2Hz_s35_32.m4a,,,,,,,,,,,,
,,,,,,,,,,,,41993,2021-10-01_13h12.27.637,judgeSpeechMusic_20210919_logNormShiftAmp_detection_fixFreq,2020.1.2,Win32,60,,,,,,,,,,,,,,,,,,1,6.1697,,0,0,29,29,62,1,stimuli/stim_20210919_power2amp/equal_lnn_AM2Hz_s55_25.m4a,,,,,,,,,,,,
,,,,,,,,,,,,41993,2021-10-01_13h12.27.637,judgeSpeechMusic_20210919_logNormShiftAmp_detection_fixFreq,2020.1.2,Win32,60,,,,,,,,,,,,,,,,,,1,6.8683,,0,0,30,30,33,1,stimuli/stim_20210919_power2amp/equal_lnn_AM2Hz_s35_13.m4a,,,,,,,,,,,,
,,,,,,,,,,,,41993,2021-10-01_13h12.27.637,judgeSpeechMusic_20210919_logNormShiftAmp_detection_fixFreq,2020.1.2,Win32,60,,,,,,,,,,,,,,,,,,1,6.7967,,0,0,31,31,0,1,stimuli/stim_20210919_power2amp/equal_lnn_AM2Hz_s15_7.m4a,,,,,,,,,,,,
,,,,,,,,,,,,41993,2021-10-01_13h12.27.637,judgeSpeechMusic_20210919_logNormShiftAmp_detection_fixFreq,2020.1.2,Win32,60,,,,,,,,,,,,,,,,,,1,6.4866,,0,0,32,32,70,1,stimuli/stim_20210919_power2amp/equal_lnn_AM2Hz_s55_5.m4a,,,,,,,,,,,,
,,,,,,,,,,,,41993,2021-10-01_13h12.27.637,judgeSpeechMusic_20210919_logNormShiftAmp_detection_fixFreq,2020.1.2,Win32,60,,,,,,,,,,,,,,,,,,1,6.017,,0,0,33,33,67,1,stimuli/stim_20210919_power2amp/equal_lnn_AM2Hz_s55_44.m4a,,,,,,,,,,,,
,,,,,,,,,,,,41993,2021-10-01_13h12.27.637,judgeSpeechMusic_20210919_logNormShiftAmp_detection_fixFreq,2020.1.2,Win32,60,,,,,,,,,,,,,,,,,,1,6.721,,0,0,34,34,8,1,stimuli/stim_20210919_power2amp/equal_lnn_AM2Hz_s15_48.m4a,,,,,,,,,,,,
,,,,,,,,,,,,41993,2021-10-01_13h12.27.637,judgeSpeechMusic_20210919_logNormShiftAmp_detection_fixFreq,2020.1.2,Win32,60,,,,,,,,,,,,,,,,,,1,6.5834,,0,0,35,35,9,1,stimuli/stim_20210919_power2amp/equal_lnn_AM2Hz_s15_29.m4a,,,,,,,,,,,,
,,,,,,,,,,,,41993,2021-10-01_13h12.27.637,judgeSpeechMusic_20210919_logNormShiftAmp_detection_fixFreq,2020.1.2,Win32,60,,,,,,,,,,,,,,,,,,1,6.8533,,0,0,36,36,19,1,stimuli/stim_20210919_power2amp/equal_lnn_AM2Hz_s25_45.m4a,,,,,,,,,,,,
,,,,,,,,,,,,41993,2021-10-01_13h12.27.637,judgeSpeechMusic_20210919_logNormShiftAmp_detection_fixFreq,2020.1.2,Win32,60,,,,,,,,,,,,,,,,,,1,6.031,,0,0,37,37,45,1,stimuli/stim_20210919_power2amp/equal_lnn_AM2Hz_s45_21.m4a,,,,,,,,,,,,
,,,,,,,,,,,,41993,2021-10-01_13h12.27.637,judgeSpeechMusic_20210919_logNormShiftAmp_detection_fixFreq,2020.1.2,Win32,60,,,,,,,,,,,,,,,,,,1,6.1183,,0,0,38,38,56,1,stimuli/stim_20210919_power2amp/equal_lnn_AM2Hz_s45_42.m4a,,,,,,,,,,,,
,,,,,,,,,,,,41993,2021-10-01_13h12.27.637,judgeSpeechMusic_20210919_logNormShiftAmp_detection_fixFreq,2020.1.2,Win32,60,,,,,,,,,,,,,,,,,,1,5.846,,0,0,39,39,25,1,stimuli/stim_20210919_power2amp/equal_lnn_AM2Hz_s25_17.m4a,,,,,,,,,,,,
,,,,,,,,,,,,41993,2021-10-01_13h12.27.637,judgeSpeechMusic_20210919_logNormShiftAmp_detection_fixFreq,2020.1.2,Win32,60,,,,,,,,,,,,,,,,,,1,6.0862,2,1,0,40,40,4,1,stimuli/stim_20210919_power2amp/equal_lnn_AM2Hz_s15_4.m4a,4.3738,,,,,,,,,,,
,,,,,,,,,,,,41993,2021-10-01_13h12.27.637,judgeSpeechMusic_20210919_logNormShiftAmp_detection_fixFreq,2020.1.2,Win32,60,,,,,,,,,,,,,,,,,,1,7.1363,,0,0,41,41,61,1,stimuli/stim_20210919_power2amp/equal_lnn_AM2Hz_s55_8.m4a,,,,,,,,,,,,
,,,,,,,,,,,,41993,2021-10-01_13h12.27.637,judgeSpeechMusic_20210919_logNormShiftAmp_detection_fixFreq,2020.1.2,Win32,60,,,,,,,,,,,,,,,,,,1,6.8469,,0,0,42,42,29,1,stimuli/stim_20210919_power2amp/equal_lnn_AM2Hz_s25_1.m4a,,,,,,,,,,,,
,,,,,,,,,,,,41993,2021-10-01_13h12.27.637,judgeSpeechMusic_20210919_logNormShiftAmp_detection_fixFreq,2020.1.2,Win32,60,,,,,,,,,,,,,,,,,,1,6.7916,,0,0,43,43,60,1,stimuli/stim_20210919_power2amp/equal_lnn_AM2Hz_s55_35.m4a,,,,,,,,,,,,
,,,,,,,,,,,,41993,2021-10-01_13h12.27.637,judgeSpeechMusic_20210919_logNormShiftAmp_detection_fixFreq,2020.1.2,Win32,60,,,,,,,,,,,,,,,,,,1,7.5203,,0,0,44,44,22,1,stimuli/stim_20210919_power2amp/equal_lnn_AM2Hz_s25_18.m4a,,,,,,,,,,,,
,,,,,,,,,,,,41993,2021-10-01_13h12.27.637,judgeSpeechMusic_20210919_logNormShiftAmp_detection_fixFreq,2020.1.2,Win32,60,,,,,,,,,,,,,,,,,,1,10.2297,,0,0,45,45,10,1,stimuli/stim_20210919_power2amp/equal_lnn_AM2Hz_s15_27.m4a,,,,,,,,,,,,
,,,,,,,,,,,,41993,2021-10-01_13h12.27.637,judgeSpeechMusic_20210919_logNormShiftAmp_detection_fixFreq,2020.1.2,Win32,60,,,,,,,,,,,,,,,,,,1,7.0345,,0,0,46,46,58,1,stimuli/stim_20210919_power2amp/equal_lnn_AM2Hz_s45_5.m4a,,,,,,,,,,,,
,,,,,,,,,,,,41993,2021-10-01_13h12.27.637,judgeSpeechMusic_20210919_logNormShiftAmp_detection_fixFreq,2020.1.2,Win32,60,,,,,,,,,,,,,,,,,,1,7.0526,,0,0,47,47,6,1,stimuli/stim_20210919_power2amp/equal_lnn_AM2Hz_s15_50.m4a,,,,,,,,,,,,
,,,,,,,,,,,,41993,2021-10-01_13h12.27.637,judgeSpeechMusic_20210919_logNormShiftAmp_detection_fixFreq,2020.1.2,Win32,60,,,,,,,,,,,,,,,,,,1,6.2712,,0,0,48,48,5,1,stimuli/stim_20210919_power2amp/equal_lnn_AM2Hz_s15_9.m4a,,,,,,,,,,,,
,,,,,,,,,,,,41993,2021-10-01_13h12.27.637,judgeSpeechMusic_20210919_logNormShiftAmp_detection_fixFreq,2020.1.2,Win32,60,,,,,,,,,,,,,,,,,,1,5.5975,,0,0,49,49,63,1,stimuli/stim_20210919_power2amp/equal_lnn_AM2Hz_s55_14.m4a,,,,,,,,,,,,
,,,,,,,,,,,,41993,2021-10-01_13h12.27.637,judgeSpeechMusic_20210919_logNormShiftAmp_detection_fixFreq,2020.1.2,Win32,60,,,,,,,,,,,,,,,,,,1,6.0732,,0,0,50,50,46,1,stimuli/stim_20210919_power2amp/equal_lnn_AM2Hz_s45_36.m4a,,,,,,,,,,,,
,,,,,,,,,,,,41993,2021-10-01_13h12.27.637,judgeSpeechMusic_20210919_logNormShiftAmp_detection_fixFreq,2020.1.2,Win32,60,,,,,,,,,,,,,,,,,,1,5.6804,,0,0,51,51,11,1,stimuli/stim_20210919_power2amp/equal_lnn_AM2Hz_s15_44.m4a,,,,,,,,,,,,
,,,,,,,,,,,,41993,2021-10-01_13h12.27.637,judgeSpeechMusic_20210919_logNormShiftAmp_detection_fixFreq,2020.1.2,Win32,60,,,,,,,,,,,,,,,,,,1,5.7508,,0,0,52,52,64,1,stimuli/stim_20210919_power2amp/equal_lnn_AM2Hz_s55_31.m4a,,,,,,,,,,,,
,,,,,,,,,,,,41993,2021-10-01_13h12.27.637,judgeSpeechMusic_20210919_logNormShiftAmp_detection_fixFreq,2020.1.2,Win32,60,,,,,,,,,,,,,,,,,,1,6.0564,,0,0,53,53,3,1,stimuli/stim_20210919_power2amp/equal_lnn_AM2Hz_s15_2.m4a,,,,,,,,,,,,
,,,,,,,,,,,,41993,2021-10-01_13h12.27.637,judgeSpeechMusic_20210919_logNormShiftAmp_detection_fixFreq,2020.1.2,Win32,60,,,,,,,,,,,,,,,,,,1,7.1228,,0,0,54,54,68,1,stimuli/stim_20210919_power2amp/equal_lnn_AM2Hz_s55_29.m4a,,,,,,,,,,,,
,,,,,,,,,,,,41993,2021-10-01_13h12.27.637,judgeSpeechMusic_20210919_logNormShiftAmp_detection_fixFreq,2020.1.2,Win32,60,,,,,,,,,,,,,,,,,,1,6.5689,,0,0,55,55,69,1,stimuli/stim_20210919_power2amp/equal_lnn_AM2Hz_s55_50.m4a,,,,,,,,,,,,
,,,,,,,,,,,,41993,2021-10-01_13h12.27.637,judgeSpeechMusic_20210919_logNormShiftAmp_detection_fixFreq,2020.1.2,Win32,60,,,,,,,,,,,,,,,,,,1,6.0173,,0,0,56,56,38,1,stimuli/stim_20210919_power2amp/equal_lnn_AM2Hz_s35_19.m4a,,,,,,,,,,,,
,,,,,,,,,,,,41993,2021-10-01_13h12.27.637,judgeSpeechMusic_20210919_logNormShiftAmp_detection_fixFreq,2020.1.2,Win32,60,,,,,,,,,,,,,,,,,,1,6.6012,,0,0,57,57,47,1,stimuli/stim_20210919_power2amp/equal_lnn_AM2Hz_s45_29.m4a,,,,,,,,,,,,
,,,,,,,,,,,,41993,2021-10-01_13h12.27.637,judgeSpeechMusic_20210919_logNormShiftAmp_detection_fixFreq,2020.1.2,Win32,60,,,,,,,,,,,,,,,,,,1,8.297,,0,0,58,58,53,1,stimuli/stim_20210919_power2amp/equal_lnn_AM2Hz_s45_49.m4a,,,,,,,,,,,,
,,,,,,,,,,,,41993,2021-10-01_13h12.27.637,judgeSpeechMusic_20210919_logNormShiftAmp_detection_fixFreq,2020.1.2,Win32,60,,,,,,,,,,,,,,,,,,1,7.7446,,0,0,59,59,1,1,stimuli/stim_20210919_power2amp/equal_lnn_AM2Hz_s15_20.m4a,,,,,,,,,,,,
,,,,,,,,,,,,41993,2021-10-01_13h12.27.637,judgeSpeechMusic_20210919_logNormShiftAmp_detection_fixFreq,2020.1.2,Win32,60,,,,,,,,,,,,,,,,,,1,6.2667,2,1,0,60,60,2,1,stimuli/stim_20210919_power2amp/equal_lnn_AM2Hz_s15_41.m4a,1.1345,,,,,,,,,,,
,,,,,,,,,,,,41993,2021-10-01_13h12.27.637,judgeSpeechMusic_20210919_logNormShiftAmp_detection_fixFreq,2020.1.2,Win32,60,,,,,,,,,,,,,,,,,,1,6.2711,,0,0,61,61,74,1,stimuli/stim_20210919_power2amp/equal_lnn_AM2Hz_s55_24.m4a,,,,,,,,,,,,
,,,,,,,,,,,,41993,2021-10-01_13h12.27.637,judgeSpeechMusic_20210919_logNormShiftAmp_detection_fixFreq,2020.1.2,Win32,60,,,,,,,,,,,,,,,,,,1,9.5418,,0,0,62,62,36,1,stimuli/stim_20210919_power2amp/equal_lnn_AM2Hz_s35_49.m4a,,,,,,,,,,,,
,,,,,,,,,,,,41993,2021-10-01_13h12.27.637,judgeSpeechMusic_20210919_logNormShiftAmp_detection_fixFreq,2020.1.2,Win32,60,,,,,,,,,,,,,,,,,,1,5.9085,,0,0,63,63,42,1,stimuli/stim_20210919_power2amp/equal_lnn_AM2Hz_s35_35.m4a,,,,,,,,,,,,
,,,,,,,,,,,,41993,2021-10-01_13h12.27.637,judgeSpeechMusic_20210919_logNormShiftAmp_detection_fixFreq,2020.1.2,Win32,60,,,,,,,,,,,,,,,,,,1,5.9386,,0,0,64,64,26,1,stimuli/stim_20210919_power2amp/equal_lnn_AM2Hz_s25_16.m4a,,,,,,,,,,,,
,,,,,,,,,,,,41993,2021-10-01_13h12.27.637,judgeSpeechMusic_20210919_logNormShiftAmp_detection_fixFreq,2020.1.2,Win32,60,,,,,,,,,,,,,,,,,,1,6.1786,,0,0,65,65,15,1,stimuli/stim_20210919_power2amp/equal_lnn_AM2Hz_s25_14.m4a,,,,,,,,,,,,
,,,,,,,,,,,,41993,2021-10-01_13h12.27.637,judgeSpeechMusic_20210919_logNormShiftAmp_detection_fixFreq,2020.1.2,Win32,60,,,,,,,,,,,,,,,,,,1,6.155,,0,0,66,66,48,1,stimuli/stim_20210919_power2amp/equal_lnn_AM2Hz_s45_39.m4a,,,,,,,,,,,,
,,,,,,,,,,,,41993,2021-10-01_13h12.27.637,judgeSpeechMusic_20210919_logNormShiftAmp_detection_fixFreq,2020.1.2,Win32,60,,,,,,,,,,,,,,,,,,1,5.9094,,0,0,67,67,27,1,stimuli/stim_20210919_power2amp/equal_lnn_AM2Hz_s25_35.m4a,,,,,,,,,,,,
,,,,,,,,,,,,41993,2021-10-01_13h12.27.637,judgeSpeechMusic_20210919_logNormShiftAmp_detection_fixFreq,2020.1.2,Win32,60,,,,,,,,,,,,,,,,,,1,7.3365,,0,0,68,68,23,1,stimuli/stim_20210919_power2amp/equal_lnn_AM2Hz_s25_22.m4a,,,,,,,,,,,,
,,,,,,,,,,,,41993,2021-10-01_13h12.27.637,judgeSpeechMusic_20210919_logNormShiftAmp_detection_fixFreq,2020.1.2,Win32,60,,,,,,,,,,,,,,,,,,1,6.164,,0,0,69,69,7,1,stimuli/stim_20210919_power2amp/equal_lnn_AM2Hz_s15_39.m4a,,,,,,,,,,,,
,,,,,,,,,,,,41993,2021-10-01_13h12.27.637,judgeSpeechMusic_20210919_logNormShiftAmp_detection_fixFreq,2020.1.2,Win32,60,,,,,,,,,,,,,,,,,,1,5.7072,,0,0,70,70,51,1,stimuli/stim_20210919_power2amp/equal_lnn_AM2Hz_s45_10.m4a,,,,,,,,,,,,
,,,,,,,,,,,,41993,2021-10-01_13h12.27.637,judgeSpeechMusic_20210919_logNormShiftAmp_detection_fixFreq,2020.1.2,Win32,60,,,,,,,,,,,,,,,,,,1,6.8234,,0,0,71,71,17,1,stimuli/stim_20210919_power2amp/equal_lnn_AM2Hz_s25_25.m4a,,,,,,,,,,,,
,,,,,,,,,,,,41993,2021-10-01_13h12.27.637,judgeSpeechMusic_20210919_logNormShiftAmp_detection_fixFreq,2020.1.2,Win32,60,,,,,,,,,,,,,,,,,,1,6.1447,,0,0,72,72,35,1,stimuli/stim_20210919_power2amp/equal_lnn_AM2Hz_s35_26.m4a,,,,,,,,,,,,
,,,,,,,,,,,,41993,2021-10-01_13h12.27.637,judgeSpeechMusic_20210919_logNormShiftAmp_detection_fixFreq,2020.1.2,Win32,60,,,,,,,,,,,,,,,,,,1,6.4519,,0,0,73,73,30,1,stimuli/stim_20210919_power2amp/equal_lnn_AM2Hz_s35_37.m4a,,,,,,,,,,,,
,,,,,,,,,,,,41993,2021-10-01_13h12.27.637,judgeSpeechMusic_20210919_logNormShiftAmp_detection_fixFreq,2020.1.2,Win32,60,,,,,,,,,,,,,,,,,,1,6.4064,,0,0,74,74,41,1,stimuli/stim_20210919_power2amp/equal_lnn_AM2Hz_s35_4.m4a,,,,,,,,,,,,
,,,,,,,,,,,,41993,2021-10-01_13h12.27.637,judgeSpeechMusic_20210919_logNormShiftAmp_detection_fixFreq,2020.1.2,Win32,60,,,,,,,,,,,,,,,,,,,,,,,,,,,,,space,3.6569,0,0,0,1,1,SPEECH,stimuli/SPEECH.jpg,,
,,,,,,,,,,,,41993,2021-10-01_13h12.27.637,judgeSpeechMusic_20210919_logNormShiftAmp_detection_fixFreq,2020.1.2,Win32,60,space,0.8288,1,5.99,,0,0,0,0,2,1,stimuli/stim_20210919_power2amp/equal_lnn_AM_training2Hz_s40.m4a,,,,,,,,,,,,,,,,,,,,,,,,,,,
,,,,,,,,,,,,41993,2021-10-01_13h12.27.637,judgeSpeechMusic_20210919_logNormShiftAmp_detection_fixFreq,2020.1.2,Win32,60,,,1,7.5015,,0,0,1,1,0,1,stimuli/stim_20210919_power2amp/equal_lnn_AM_training2Hz_s20.m4a,,,,,,,,,,,,,,,,,,,,,,,,,,,
,,,,,,,,,,,,41993,2021-10-01_13h12.27.637,judgeSpeechMusic_20210919_logNormShiftAmp_detection_fixFreq,2020.1.2,Win32,60,,,1,6.7244,1,1,0,2,2,3,1,stimuli/stim_20210919_power2amp/equal_lnn_AM_training2Hz_s50.m4a,2.4189,,,,,,,,,,,,,,,,,,,,,,,,,,
,,,,,,,,,,,,41993,2021-10-01_13h12.27.637,judgeSpeechMusic_20210919_logNormShiftAmp_detection_fixFreq,2020.1.2,Win32,60,,,1,6.6192,,0,0,3,3,1,1,stimuli/stim_20210919_power2amp/equal_lnn_AM_training2Hz_s30.m4a,,,,,,,,,,,,,,,,,,,,,,,,,,,
,,,,,,,,,,,,41993,2021-10-01_13h12.27.637,judgeSpeechMusic_20210919_logNormShiftAmp_detection_fixFreq,2020.1.2,Win32,60,,,,,,,,,,,,,,space,1.1516,space,2.5136,1,6.6143,,0,0,0,0,36,1,stimuli/stim_20210919_power2amp/equal_lnn_AM2Hz_s35_49.m4a,,,,,,,,,,,,
,,,,,,,,,,,,41993,2021-10-01_13h12.27.637,judgeSpeechMusic_20210919_logNormShiftAmp_detection_fixFreq,2020.1.2,Win32,60,,,,,,,,,,,,,,,,,,1,6.3761,,0,0,1,1,59,1,stimuli/stim_20210919_power2amp/equal_lnn_AM2Hz_s45_3.m4a,,,,,,,,,,,,
,,,,,,,,,,,,41993,2021-10-01_13h12.27.637,judgeSpeechMusic_20210919_logNormShiftAmp_detection_fixFreq,2020.1.2,Win32,60,,,,,,,,,,,,,,,,,,1,10.6903,,0,0,2,2,63,1,stimuli/stim_20210919_power2amp/equal_lnn_AM2Hz_s55_14.m4a,,,,,,,,,,,,
,,,,,,,,,,,,41993,2021-10-01_13h12.27.637,judgeSpeechMusic_20210919_logNormShiftAmp_detection_fixFreq,2020.1.2,Win32,60,,,,,,,,,,,,,,,,,,1,5.9361,,0,0,3,3,9,1,stimuli/stim_20210919_power2amp/equal_lnn_AM2Hz_s15_29.m4a,,,,,,,,,,,,
,,,,,,,,,,,,41993,2021-10-01_13h12.27.637,judgeSpeechMusic_20210919_logNormShiftAmp_detection_fixFreq,2020.1.2,Win32,60,,,,,,,,,,,,,,,,,,1,6.1022,,0,0,4,4,65,1,stimuli/stim_20210919_power2amp/equal_lnn_AM2Hz_s55_47.m4a,,,,,,,,,,,,
,,,,,,,,,,,,41993,2021-10-01_13h12.27.637,judgeSpeechMusic_20210919_logNormShiftAmp_detection_fixFreq,2020.1.2,Win32,60,,,,,,,,,,,,,,,,,,1,7.2801,,0,0,5,5,15,1,stimuli/stim_20210919_power2amp/equal_lnn_AM2Hz_s25_14.m4a,,,,,,,,,,,,
,,,,,,,,,,,,41993,2021-10-01_13h12.27.637,judgeSpeechMusic_20210919_logNormShiftAmp_detection_fixFreq,2020.1.2,Win32,60,,,,,,,,,,,,,,,,,,1,7.2931,,0,0,6,6,70,1,stimuli/stim_20210919_power2amp/equal_lnn_AM2Hz_s55_5.m4a,,,,,,,,,,,,
,,,,,,,,,,,,41993,2021-10-01_13h12.27.637,judgeSpeechMusic_20210919_logNormShiftAmp_detection_fixFreq,2020.1.2,Win32,60,,,,,,,,,,,,,,,,,,1,6.107,,0,0,7,7,53,1,stimuli/stim_20210919_power2amp/equal_lnn_AM2Hz_s45_49.m4a,,,,,,,,,,,,
,,,,,,,,,,,,41993,2021-10-01_13h12.27.637,judgeSpeechMusic_20210919_logNormShiftAmp_detection_fixFreq,2020.1.2,Win32,60,,,,,,,,,,,,,,,,,,1,6.4786,,0,0,8,8,40,1,stimuli/stim_20210919_power2amp/equal_lnn_AM2Hz_s35_2.m4a,,,,,,,,,,,,
,,,,,,,,,,,,41993,2021-10-01_13h12.27.637,judgeSpeechMusic_20210919_logNormShiftAmp_detection_fixFreq,2020.1.2,Win32,60,,,,,,,,,,,,,,,,,,1,5.7389,,0,0,9,9,67,1,stimuli/stim_20210919_power2amp/equal_lnn_AM2Hz_s55_44.m4a,,,,,,,,,,,,
,,,,,,,,,,,,41993,2021-10-01_13h12.27.637,judgeSpeechMusic_20210919_logNormShiftAmp_detection_fixFreq,2020.1.2,Win32,60,,,,,,,,,,,,,,,,,,1,5.5363,,0,0,10,10,66,1,stimuli/stim_20210919_power2amp/equal_lnn_AM2Hz_s55_13.m4a,,,,,,,,,,,,
,,,,,,,,,,,,41993,2021-10-01_13h12.27.637,judgeSpeechMusic_20210919_logNormShiftAmp_detection_fixFreq,2020.1.2,Win32,60,,,,,,,,,,,,,,,,,,1,8.4175,,0,0,11,11,58,1,stimuli/stim_20210919_power2amp/equal_lnn_AM2Hz_s45_5.m4a,,,,,,,,,,,,
,,,,,,,,,,,,41993,2021-10-01_13h12.27.637,judgeSpeechMusic_20210919_logNormShiftAmp_detection_fixFreq,2020.1.2,Win32,60,,,,,,,,,,,,,,,,,,1,12.1308,,0,0,12,12,55,1,stimuli/stim_20210919_power2amp/equal_lnn_AM2Hz_s45_26.m4a,,,,,,,,,,,,
,,,,,,,,,,,,41993,2021-10-01_13h12.27.637,judgeSpeechMusic_20210919_logNormShiftAmp_detection_fixFreq,2020.1.2,Win32,60,,,,,,,,,,,,,,,,,,1,6.5413,,0,0,13,13,28,1,stimuli/stim_20210919_power2amp/equal_lnn_AM2Hz_s25_46.m4a,,,,,,,,,,,,
,,,,,,,,,,,,41993,2021-10-01_13h12.27.637,judgeSpeechMusic_20210919_logNormShiftAmp_detection_fixFreq,2020.1.2,Win32,60,,,,,,,,,,,,,,,,,,1,5.9825,,0,0,14,14,61,1,stimuli/stim_20210919_power2amp/equal_lnn_AM2Hz_s55_8.m4a,,,,,,,,,,,,
,,,,,,,,,,,,41993,2021-10-01_13h12.27.637,judgeSpeechMusic_20210919_logNormShiftAmp_detection_fixFreq,2020.1.2,Win32,60,,,,,,,,,,,,,,,,,,1,5.7556,,0,0,15,15,60,1,stimuli/stim_20210919_power2amp/equal_lnn_AM2Hz_s55_35.m4a,,,,,,,,,,,,
,,,,,,,,,,,,41993,2021-10-01_13h12.27.637,judgeSpeechMusic_20210919_logNormShiftAmp_detection_fixFreq,2020.1.2,Win32,60,,,,,,,,,,,,,,,,,,1,6.2412,,0,0,16,16,19,1,stimuli/stim_20210919_power2amp/equal_lnn_AM2Hz_s25_45.m4a,,,,,,,,,,,,
,,,,,,,,,,,,41993,2021-10-01_13h12.27.637,judgeSpeechMusic_20210919_logNormShiftAmp_detection_fixFreq,2020.1.2,Win32,60,,,,,,,,,,,,,,,,,,1,5.4844,,0,0,17,17,39,1,stimuli/stim_20210919_power2amp/equal_lnn_AM2Hz_s35_14.m4a,,,,,,,,,,,,
,,,,,,,,,,,,41993,2021-10-01_13h12.27.637,judgeSpeechMusic_20210919_logNormShiftAmp_detection_fixFreq,2020.1.2,Win32,60,,,,,,,,,,,,,,,,,,1,5.5458,,0,0,18,18,73,1,stimuli/stim_20210919_power2amp/equal_lnn_AM2Hz_s55_6.m4a,,,,,,,,,,,,
,,,,,,,,,,,,41993,2021-10-01_13h12.27.637,judgeSpeechMusic_20210919_logNormShiftAmp_detection_fixFreq,2020.1.2,Win32,60,,,,,,,,,,,,,,,,,,1,5.8489,,0,0,19,19,71,1,stimuli/stim_20210919_power2amp/equal_lnn_AM2Hz_s55_15.m4a,,,,,,,,,,,,
,,,,,,,,,,,,41993,2021-10-01_13h12.27.637,judgeSpeechMusic_20210919_logNormShiftAmp_detection_fixFreq,2020.1.2,Win32,60,,,,,,,,,,,,,,,,,,1,6.0677,,0,0,20,20,69,1,stimuli/stim_20210919_power2amp/equal_lnn_AM2Hz_s55_50.m4a,,,,,,,,,,,,
,,,,,,,,,,,,41993,2021-10-01_13h12.27.637,judgeSpeechMusic_20210919_logNormShiftAmp_detection_fixFreq,2020.1.2,Win32,60,,,,,,,,,,,,,,,,,,1,5.6987,,0,0,21,21,50,1,stimuli/stim_20210919_power2amp/equal_lnn_AM2Hz_s45_19.m4a,,,,,,,,,,,,
,,,,,,,,,,,,41993,2021-10-01_13h12.27.637,judgeSpeechMusic_20210919_logNormShiftAmp_detection_fixFreq,2020.1.2,Win32,60,,,,,,,,,,,,,,,,,,1,5.6097,1,1,0,22,22,62,1,stimuli/stim_20210919_power2amp/equal_lnn_AM2Hz_s55_25.m4a,1.2504,,,,,,,,,,,
,,,,,,,,,,,,41993,2021-10-01_13h12.27.637,judgeSpeechMusic_20210919_logNormShiftAmp_detection_fixFreq,2020.1.2,Win32,60,,,,,,,,,,,,,,,,,,1,5.6,,0,0,23,23,8,1,stimuli/stim_20210919_power2amp/equal_lnn_AM2Hz_s15_48.m4a,,,,,,,,,,,,
,,,,,,,,,,,,41993,2021-10-01_13h12.27.637,judgeSpeechMusic_20210919_logNormShiftAmp_detection_fixFreq,2020.1.2,Win32,60,,,,,,,,,,,,,,,,,,1,6.3399,,0,0,24,24,51,1,stimuli/stim_20210919_power2amp/equal_lnn_AM2Hz_s45_10.m4a,,,,,,,,,,,,
,,,,,,,,,,,,41993,2021-10-01_13h12.27.637,judgeSpeechMusic_20210919_logNormShiftAmp_detection_fixFreq,2020.1.2,Win32,60,,,,,,,,,,,,,,,,,,1,5.9195,,0,0,25,25,49,1,stimuli/stim_20210919_power2amp/equal_lnn_AM2Hz_s45_35.m4a,,,,,,,,,,,,
,,,,,,,,,,,,41993,2021-10-01_13h12.27.637,judgeSpeechMusic_20210919_logNormShiftAmp_detection_fixFreq,2020.1.2,Win32,60,,,,,,,,,,,,,,,,,,1,5.6265,,0,0,26,26,29,1,stimuli/stim_20210919_power2amp/equal_lnn_AM2Hz_s25_1.m4a,,,,,,,,,,,,
,,,,,,,,,,,,41993,2021-10-01_13h12.27.637,judgeSpeechMusic_20210919_logNormShiftAmp_detection_fixFreq,2020.1.2,Win32,60,,,,,,,,,,,,,,,,,,1,5.6029,,0,0,27,27,16,1,stimuli/stim_20210919_power2amp/equal_lnn_AM2Hz_s25_30.m4a,,,,,,,,,,,,
,,,,,,,,,,,,41993,2021-10-01_13h12.27.637,judgeSpeechMusic_20210919_logNormShiftAmp_detection_fixFreq,2020.1.2,Win32,60,,,,,,,,,,,,,,,,,,1,7.52,,0,0,28,28,22,1,stimuli/stim_20210919_power2amp/equal_lnn_AM2Hz_s25_18.m4a,,,,,,,,,,,,
,,,,,,,,,,,,41993,2021-10-01_13h12.27.637,judgeSpeechMusic_20210919_logNormShiftAmp_detection_fixFreq,2020.1.2,Win32,60,,,,,,,,,,,,,,,,,,1,11.5355,,0,0,29,29,4,1,stimuli/stim_20210919_power2amp/equal_lnn_AM2Hz_s15_4.m4a,,,,,,,,,,,,
,,,,,,,,,,,,41993,2021-10-01_13h12.27.637,judgeSpeechMusic_20210919_logNormShiftAmp_detection_fixFreq,2020.1.2,Win32,60,,,,,,,,,,,,,,,,,,1,6.3785,,0,0,30,30,26,1,stimuli/stim_20210919_power2amp/equal_lnn_AM2Hz_s25_16.m4a,,,,,,,,,,,,
,,,,,,,,,,,,41993,2021-10-01_13h12.27.637,judgeSpeechMusic_20210919_logNormShiftAmp_detection_fixFreq,2020.1.2,Win32,60,,,,,,,,,,,,,,,,,,1,6.1941,,0,0,31,31,13,1,stimuli/stim_20210919_power2amp/equal_lnn_AM2Hz_s15_23.m4a,,,,,,,,,,,,
,,,,,,,,,,,,41993,2021-10-01_13h12.27.637,judgeSpeechMusic_20210919_logNormShiftAmp_detection_fixFreq,2020.1.2,Win32,60,,,,,,,,,,,,,,,,,,1,6.1339,,0,0,32,32,35,1,stimuli/stim_20210919_power2amp/equal_lnn_AM2Hz_s35_26.m4a,,,,,,,,,,,,
,,,,,,,,,,,,41993,2021-10-01_13h12.27.637,judgeSpeechMusic_20210919_logNormShiftAmp_detection_fixFreq,2020.1.2,Win32,60,,,,,,,,,,,,,,,,,,1,5.7822,,0,0,33,33,74,1,stimuli/stim_20210919_power2amp/equal_lnn_AM2Hz_s55_24.m4a,,,,,,,,,,,,
,,,,,,,,,,,,41993,2021-10-01_13h12.27.637,judgeSpeechMusic_20210919_logNormShiftAmp_detection_fixFreq,2020.1.2,Win32,60,,,,,,,,,,,,,,,,,,1,6.2131,,0,0,34,34,24,1,stimuli/stim_20210919_power2amp/equal_lnn_AM2Hz_s25_33.m4a,,,,,,,,,,,,
,,,,,,,,,,,,41993,2021-10-01_13h12.27.637,judgeSpeechMusic_20210919_logNormShiftAmp_detection_fixFreq,2020.1.2,Win32,60,,,,,,,,,,,,,,,,,,1,5.6828,,0,0,35,35,57,1,stimuli/stim_20210919_power2amp/equal_lnn_AM2Hz_s45_15.m4a,,,,,,,,,,,,
,,,,,,,,,,,,41993,2021-10-01_13h12.27.637,judgeSpeechMusic_20210919_logNormShiftAmp_detection_fixFreq,2020.1.2,Win32,60,,,,,,,,,,,,,,,,,,1,5.6716,,0,0,36,36,42,1,stimuli/stim_20210919_power2amp/equal_lnn_AM2Hz_s35_35.m4a,,,,,,,,,,,,
,,,,,,,,,,,,41993,2021-10-01_13h12.27.637,judgeSpeechMusic_20210919_logNormShiftAmp_detection_fixFreq,2020.1.2,Win32,60,,,,,,,,,,,,,,,,,,1,5.6691,,0,0,37,37,12,1,stimuli/stim_20210919_power2amp/equal_lnn_AM2Hz_s15_30.m4a,,,,,,,,,,,,
,,,,,,,,,,,,41993,2021-10-01_13h12.27.637,judgeSpeechMusic_20210919_logNormShiftAmp_detection_fixFreq,2020.1.2,Win32,60,,,,,,,,,,,,,,,,,,1,6.3048,,0,0,38,38,2,1,stimuli/stim_20210919_power2amp/equal_lnn_AM2Hz_s15_41.m4a,,,,,,,,,,,,
,,,,,,,,,,,,41993,2021-10-01_13h12.27.637,judgeSpeechMusic_20210919_logNormShiftAmp_detection_fixFreq,2020.1.2,Win32,60,,,,,,,,,,,,,,,,,,1,6.1585,,0,0,39,39,34,1,stimuli/stim_20210919_power2amp/equal_lnn_AM2Hz_s35_47.m4a,,,,,,,,,,,,
,,,,,,,,,,,,41993,2021-10-01_13h12.27.637,judgeSpeechMusic_20210919_logNormShiftAmp_detection_fixFreq,2020.1.2,Win32,60,,,,,,,,,,,,,,,,,,1,6.2864,3,1,0,40,40,27,1,stimuli/stim_20210919_power2amp/equal_lnn_AM2Hz_s25_35.m4a,0.8948,,,,,,,,,,,
,,,,,,,,,,,,41993,2021-10-01_13h12.27.637,judgeSpeechMusic_20210919_logNormShiftAmp_detection_fixFreq,2020.1.2,Win32,60,,,,,,,,,,,,,,,,,,1,6.0673,,0,0,41,41,52,1,stimuli/stim_20210919_power2amp/equal_lnn_AM2Hz_s45_25.m4a,,,,,,,,,,,,
,,,,,,,,,,,,41993,2021-10-01_13h12.27.637,judgeSpeechMusic_20210919_logNormShiftAmp_detection_fixFreq,2020.1.2,Win32,60,,,,,,,,,,,,,,,,,,1,6.049,,0,0,42,42,54,1,stimuli/stim_20210919_power2amp/equal_lnn_AM2Hz_s45_8.m4a,,,,,,,,,,,,
,,,,,,,,,,,,41993,2021-10-01_13h12.27.637,judgeSpeechMusic_20210919_logNormShiftAmp_detection_fixFreq,2020.1.2,Win32,60,,,,,,,,,,,,,,,,,,1,6.7425,,0,0,43,43,23,1,stimuli/stim_20210919_power2amp/equal_lnn_AM2Hz_s25_22.m4a,,,,,,,,,,,,
,,,,,,,,,,,,41993,2021-10-01_13h12.27.637,judgeSpeechMusic_20210919_logNormShiftAmp_detection_fixFreq,2020.1.2,Win32,60,,,,,,,,,,,,,,,,,,1,6.1561,,0,0,44,44,48,1,stimuli/stim_20210919_power2amp/equal_lnn_AM2Hz_s45_39.m4a,,,,,,,,,,,,
,,,,,,,,,,,,41993,2021-10-01_13h12.27.637,judgeSpeechMusic_20210919_logNormShiftAmp_detection_fixFreq,2020.1.2,Win32,60,,,,,,,,,,,,,,,,,,1,6.6433,,0,0,45,45,6,1,stimuli/stim_20210919_power2amp/equal_lnn_AM2Hz_s15_50.m4a,,,,,,,,,,,,
,,,,,,,,,,,,41993,2021-10-01_13h12.27.637,judgeSpeechMusic_20210919_logNormShiftAmp_detection_fixFreq,2020.1.2,Win32,60,,,,,,,,,,,,,,,,,,1,6.0376,,0,0,46,46,10,1,stimuli/stim_20210919_power2amp/equal_lnn_AM2Hz_s15_27.m4a,,,,,,,,,,,,
,,,,,,,,,,,,41993,2021-10-01_13h12.27.637,judgeSpeechMusic_20210919_logNormShiftAmp_detection_fixFreq,2020.1.2,Win32,60,,,,,,,,,,,,,,,,,,1,8.1682,,0,0,47,47,21,1,stimuli/stim_20210919_power2amp/equal_lnn_AM2Hz_s25_49.m4a,,,,,,,,,,,,
,,,,,,,,,,,,41993,2021-10-01_13h12.27.637,judgeSpeechMusic_20210919_logNormShiftAmp_detection_fixFreq,2020.1.2,Win32,60,,,,,,,,,,,,,,,,,,1,6.268,,0,0,48,48,30,1,stimuli/stim_20210919_power2amp/equal_lnn_AM2Hz_s35_37.m4a,,,,,,,,,,,,
,,,,,,,,,,,,41993,2021-10-01_13h12.27.637,judgeSpeechMusic_20210919_logNormShiftAmp_detection_fixFreq,2020.1.2,Win32,60,,,,,,,,,,,,,,,,,,1,6.7823,,0,0,49,49,44,1,stimuli/stim_20210919_power2amp/equal_lnn_AM2Hz_s35_50.m4a,,,,,,,,,,,,
,,,,,,,,,,,,41993,2021-10-01_13h12.27.637,judgeSpeechMusic_20210919_logNormShiftAmp_detection_fixFreq,2020.1.2,Win32,60,,,,,,,,,,,,,,,,,,1,5.7845,,0,0,50,50,46,1,stimuli/stim_20210919_power2amp/equal_lnn_AM2Hz_s45_36.m4a,,,,,,,,,,,,
,,,,,,,,,,,,41993,2021-10-01_13h12.27.637,judgeSpeechMusic_20210919_logNormShiftAmp_detection_fixFreq,2020.1.2,Win32,60,,,,,,,,,,,,,,,,,,1,8.9947,,0,0,51,51,5,1,stimuli/stim_20210919_power2amp/equal_lnn_AM2Hz_s15_9.m4a,,,,,,,,,,,,
,,,,,,,,,,,,41993,2021-10-01_13h12.27.637,judgeSpeechMusic_20210919_logNormShiftAmp_detection_fixFreq,2020.1.2,Win32,60,,,,,,,,,,,,,,,,,,1,11.4379,,0,0,52,52,43,1,stimuli/stim_20210919_power2amp/equal_lnn_AM2Hz_s35_38.m4a,,,,,,,,,,,,
,,,,,,,,,,,,41993,2021-10-01_13h12.27.637,judgeSpeechMusic_20210919_logNormShiftAmp_detection_fixFreq,2020.1.2,Win32,60,,,,,,,,,,,,,,,,,,1,5.8253,,0,0,53,53,41,1,stimuli/stim_20210919_power2amp/equal_lnn_AM2Hz_s35_4.m4a,,,,,,,,,,,,
,,,,,,,,,,,,41993,2021-10-01_13h12.27.637,judgeSpeechMusic_20210919_logNormShiftAmp_detection_fixFreq,2020.1.2,Win32,60,,,,,,,,,,,,,,,,,,1,5.638,,0,0,54,54,11,1,stimuli/stim_20210919_power2amp/equal_lnn_AM2Hz_s15_44.m4a,,,,,,,,,,,,
,,,,,,,,,,,,41993,2021-10-01_13h12.27.637,judgeSpeechMusic_20210919_logNormShiftAmp_detection_fixFreq,2020.1.2,Win32,60,,,,,,,,,,,,,,,,,,1,5.7232,,0,0,55,55,1,1,stimuli/stim_20210919_power2amp/equal_lnn_AM2Hz_s15_20.m4a,,,,,,,,,,,,
,,,,,,,,,,,,41993,2021-10-01_13h12.27.637,judgeSpeechMusic_20210919_logNormShiftAmp_detection_fixFreq,2020.1.2,Win32,60,,,,,,,,,,,,,,,,,,1,6.2914,,0,0,56,56,37,1,stimuli/stim_20210919_power2amp/equal_lnn_AM2Hz_s35_32.m4a,,,,,,,,,,,,
,,,,,,,,,,,,41993,2021-10-01_13h12.27.637,judgeSpeechMusic_20210919_logNormShiftAmp_detection_fixFreq,2020.1.2,Win32,60,,,,,,,,,,,,,,,,,,1,5.7074,,0,0,57,57,45,1,stimuli/stim_20210919_power2amp/equal_lnn_AM2Hz_s45_21.m4a,,,,,,,,,,,,
,,,,,,,,,,,,41993,2021-10-01_13h12.27.637,judgeSpeechMusic_20210919_logNormShiftAmp_detection_fixFreq,2020.1.2,Win32,60,,,,,,,,,,,,,,,,,,1,6.0323,,0,0,58,58,33,1,stimuli/stim_20210919_power2amp/equal_lnn_AM2Hz_s35_13.m4a,,,,,,,,,,,,
,,,,,,,,,,,,41993,2021-10-01_13h12.27.637,judgeSpeechMusic_20210919_logNormShiftAmp_detection_fixFreq,2020.1.2,Win32,60,,,,,,,,,,,,,,,,,,1,5.7934,,0,0,59,59,18,1,stimuli/stim_20210919_power2amp/equal_lnn_AM2Hz_s25_23.m4a,,,,,,,,,,,,
,,,,,,,,,,,,41993,2021-10-01_13h12.27.637,judgeSpeechMusic_20210919_logNormShiftAmp_detection_fixFreq,2020.1.2,Win32,60,,,,,,,,,,,,,,,,,,1,5.7217,3,1,0,60,60,14,1,stimuli/stim_20210919_power2amp/equal_lnn_AM2Hz_s15_18.m4a,1.9606,,,,,,,,,,,
,,,,,,,,,,,,41993,2021-10-01_13h12.27.637,judgeSpeechMusic_20210919_logNormShiftAmp_detection_fixFreq,2020.1.2,Win32,60,,,,,,,,,,,,,,,,,,1,5.9047,,0,0,61,61,72,1,stimuli/stim_20210919_power2amp/equal_lnn_AM2Hz_s55_37.m4a,,,,,,,,,,,,
,,,,,,,,,,,,41993,2021-10-01_13h12.27.637,judgeSpeechMusic_20210919_logNormShiftAmp_detection_fixFreq,2020.1.2,Win32,60,,,,,,,,,,,,,,,,,,1,7.1216,,0,0,62,62,25,1,stimuli/stim_20210919_power2amp/equal_lnn_AM2Hz_s25_17.m4a,,,,,,,,,,,,
,,,,,,,,,,,,41993,2021-10-01_13h12.27.637,judgeSpeechMusic_20210919_logNormShiftAmp_detection_fixFreq,2020.1.2,Win32,60,,,,,,,,,,,,,,,,,,1,5.9444,,0,0,63,63,68,1,stimuli/stim_20210919_power2amp/equal_lnn_AM2Hz_s55_29.m4a,,,,,,,,,,,,
,,,,,,,,,,,,41993,2021-10-01_13h12.27.637,judgeSpeechMusic_20210919_logNormShiftAmp_detection_fixFreq,2020.1.2,Win32,60,,,,,,,,,,,,,,,,,,1,5.7026,,0,0,64,64,17,1,stimuli/stim_20210919_power2amp/equal_lnn_AM2Hz_s25_25.m4a,,,,,,,,,,,,
,,,,,,,,,,,,41993,2021-10-01_13h12.27.637,judgeSpeechMusic_20210919_logNormShiftAmp_detection_fixFreq,2020.1.2,Win32,60,,,,,,,,,,,,,,,,,,1,5.8926,,0,0,65,65,7,1,stimuli/stim_20210919_power2amp/equal_lnn_AM2Hz_s15_39.m4a,,,,,,,,,,,,
,,,,,,,,,,,,41993,2021-10-01_13h12.27.637,judgeSpeechMusic_20210919_logNormShiftAmp_detection_fixFreq,2020.1.2,Win32,60,,,,,,,,,,,,,,,,,,1,6.1272,,0,0,66,66,20,1,stimuli/stim_20210919_power2amp/equal_lnn_AM2Hz_s25_20.m4a,,,,,,,,,,,,
,,,,,,,,,,,,41993,2021-10-01_13h12.27.637,judgeSpeechMusic_20210919_logNormShiftAmp_detection_fixFreq,2020.1.2,Win32,60,,,,,,,,,,,,,,,,,,1,8.1889,,0,0,67,67,0,1,stimuli/stim_20210919_power2amp/equal_lnn_AM2Hz_s15_7.m4a,,,,,,,,,,,,
,,,,,,,,,,,,41993,2021-10-01_13h12.27.637,judgeSpeechMusic_20210919_logNormShiftAmp_detection_fixFreq,2020.1.2,Win32,60,,,,,,,,,,,,,,,,,,1,6.1412,,0,0,68,68,47,1,stimuli/stim_20210919_power2amp/equal_lnn_AM2Hz_s45_29.m4a,,,,,,,,,,,,
,,,,,,,,,,,,41993,2021-10-01_13h12.27.637,judgeSpeechMusic_20210919_logNormShiftAmp_detection_fixFreq,2020.1.2,Win32,60,,,,,,,,,,,,,,,,,,1,8.2993,,0,0,69,69,38,1,stimuli/stim_20210919_power2amp/equal_lnn_AM2Hz_s35_19.m4a,,,,,,,,,,,,
,,,,,,,,,,,,41993,2021-10-01_13h12.27.637,judgeSpeechMusic_20210919_logNormShiftAmp_detection_fixFreq,2020.1.2,Win32,60,,,,,,,,,,,,,,,,,,1,6.346,,0,0,70,70,3,1,stimuli/stim_20210919_power2amp/equal_lnn_AM2Hz_s15_2.m4a,,,,,,,,,,,,
,,,,,,,,,,,,41993,2021-10-01_13h12.27.637,judgeSpeechMusic_20210919_logNormShiftAmp_detection_fixFreq,2020.1.2,Win32,60,,,,,,,,,,,,,,,,,,1,6.3981,,0,0,71,71,56,1,stimuli/stim_20210919_power2amp/equal_lnn_AM2Hz_s45_42.m4a,,,,,,,,,,,,
,,,,,,,,,,,,41993,2021-10-01_13h12.27.637,judgeSpeechMusic_20210919_logNormShiftAmp_detection_fixFreq,2020.1.2,Win32,60,,,,,,,,,,,,,,,,,,1,5.9445,,0,0,72,72,64,1,stimuli/stim_20210919_power2amp/equal_lnn_AM2Hz_s55_31.m4a,,,,,,,,,,,,
,,,,,,,,,,,,41993,2021-10-01_13h12.27.637,judgeSpeechMusic_20210919_logNormShiftAmp_detection_fixFreq,2020.1.2,Win32,60,,,,,,,,,,,,,,,,,,1,6.1284,,0,0,73,73,31,1,stimuli/stim_20210919_power2amp/equal_lnn_AM2Hz_s35_10.m4a,,,,,,,,,,,,
,,,,,,,,,,,,41993,2021-10-01_13h12.27.637,judgeSpeechMusic_20210919_logNormShiftAmp_detection_fixFreq,2020.1.2,Win32,60,,,,,,,,,,,,,,,,,,1,6.0372,,0,0,74,74,32,1,stimuli/stim_20210919_power2amp/equal_lnn_AM2Hz_s35_11.m4a,,,,,,,,,,,,
,,,,,,,,,,,,41993,2021-10-01_13h12.27.637,judgeSpeechMusic_20210919_logNormShiftAmp_detection_fixFreq,2020.1.2,Win32,60,,,,,,,,,,,,,,,,,,,,,,,,,,,,,space,5.4104,0,1,1,0,1,MUSIC,stimuli/MUSIC.jpg,,
,,,,,,,,,,,,41993,2021-10-01_13h12.27.637,judgeSpeechMusic_20210919_logNormShiftAmp_detection_fixFreq,2020.1.2,Win32,60,,,,,,0,0,0,0,3,1,stimuli/stim_20210919_power2amp/equal_lnn_AM_training2Hz_s50.m4a,,,,,,,,,,,,,,,,,,,,,,,,,,,
,,,,,,,,,,,,41993,2021-10-01_13h12.27.637,judgeSpeechMusic_20210919_logNormShiftAmp_detection_fixFreq,2020.1.2,Win32,60,,,,,,,,,,,,,,space,10.1367,space,0.8835,1,6.1826,,0,0,0,0,74,1,stimuli/stim_20210919_power2amp/equal_lnn_AM2Hz_s55_24.m4a,,,,,,,,,,,,
,,,,,,,,,,,,41993,2021-10-01_13h12.27.637,judgeSpeechMusic_20210919_logNormShiftAmp_detection_fixFreq,2020.1.2,Win32,60,,,,,,,,,,,,,,,,,,1,5.8236,,0,0,1,1,70,1,stimuli/stim_20210919_power2amp/equal_lnn_AM2Hz_s55_5.m4a,,,,,,,,,,,,
,,,,,,,,,,,,41993,2021-10-01_13h12.27.637,judgeSpeechMusic_20210919_logNormShiftAmp_detection_fixFreq,2020.1.2,Win32,60,,,,,,,,,,,,,,,,,,1,7.218,,0,0,2,2,1,1,stimuli/stim_20210919_power2amp/equal_lnn_AM2Hz_s15_20.m4a,,,,,,,,,,,,
,,,,,,,,,,,,41993,2021-10-01_13h12.27.637,judgeSpeechMusic_20210919_logNormShiftAmp_detection_fixFreq,2020.1.2,Win32,60,,,,,,,,,,,,,,,,,,1,6.3366,,0,0,3,3,45,1,stimuli/stim_20210919_power2amp/equal_lnn_AM2Hz_s45_21.m4a,,,,,,,,,,,,
,,,,,,,,,,,,41993,2021-10-01_13h12.27.637,judgeSpeechMusic_20210919_logNormShiftAmp_detection_fixFreq,2020.1.2,Win32,60,,,,,,,,,,,,,,,,,,1,5.785,,0,0,4,4,72,1,stimuli/stim_20210919_power2amp/equal_lnn_AM2Hz_s55_37.m4a,,,,,,,,,,,,
,,,,,,,,,,,,41993,2021-10-01_13h12.27.637,judgeSpeechMusic_20210919_logNormShiftAmp_detection_fixFreq,2020.1.2,Win32,60,,,,,,,,,,,,,,,,,,1,6.0382,,0,0,5,5,57,1,stimuli/stim_20210919_power2amp/equal_lnn_AM2Hz_s45_15.m4a,,,,,,,,,,,,
,,,,,,,,,,,,41993,2021-10-01_13h12.27.637,judgeSpeechMusic_20210919_logNormShiftAmp_detection_fixFreq,2020.1.2,Win32,60,,,,,,,,,,,,,,,,,,1,6.0576,,0,0,6,6,43,1,stimuli/stim_20210919_power2amp/equal_lnn_AM2Hz_s35_38.m4a,,,,,,,,,,,,
,,,,,,,,,,,,41993,2021-10-01_13h12.27.637,judgeSpeechMusic_20210919_logNormShiftAmp_detection_fixFreq,2020.1.2,Win32,60,,,,,,,,,,,,,,,,,,1,6.5279,,0,0,7,7,26,1,stimuli/stim_20210919_power2amp/equal_lnn_AM2Hz_s25_16.m4a,,,,,,,,,,,,
,,,,,,,,,,,,41993,2021-10-01_13h12.27.637,judgeSpeechMusic_20210919_logNormShiftAmp_detection_fixFreq,2020.1.2,Win32,60,,,,,,,,,,,,,,,,,,1,6.1843,,0,0,8,8,8,1,stimuli/stim_20210919_power2amp/equal_lnn_AM2Hz_s15_48.m4a,,,,,,,,,,,,
,,,,,,,,,,,,41993,2021-10-01_13h12.27.637,judgeSpeechMusic_20210919_logNormShiftAmp_detection_fixFreq,2020.1.2,Win32,60,,,,,,,,,,,,,,,,,,1,5.7649,,0,0,9,9,37,1,stimuli/stim_20210919_power2amp/equal_lnn_AM2Hz_s35_32.m4a,,,,,,,,,,,,
,,,,,,,,,,,,41993,2021-10-01_13h12.27.637,judgeSpeechMusic_20210919_logNormShiftAmp_detection_fixFreq,2020.1.2,Win32,60,,,,,,,,,,,,,,,,,,1,6.219,,0,0,10,10,5,1,stimuli/stim_20210919_power2amp/equal_lnn_AM2Hz_s15_9.m4a,,,,,,,,,,,,
,,,,,,,,,,,,41993,2021-10-01_13h12.27.637,judgeSpeechMusic_20210919_logNormShiftAmp_detection_fixFreq,2020.1.2,Win32,60,,,,,,,,,,,,,,,,,,1,6.2581,,0,0,11,11,36,1,stimuli/stim_20210919_power2amp/equal_lnn_AM2Hz_s35_49.m4a,,,,,,,,,,,,
,,,,,,,,,,,,41993,2021-10-01_13h12.27.637,judgeSpeechMusic_20210919_logNormShiftAmp_detection_fixFreq,2020.1.2,Win32,60,,,,,,,,,,,,,,,,,,1,6.0851,,0,0,12,12,34,1,stimuli/stim_20210919_power2amp/equal_lnn_AM2Hz_s35_47.m4a,,,,,,,,,,,,
,,,,,,,,,,,,41993,2021-10-01_13h12.27.637,judgeSpeechMusic_20210919_logNormShiftAmp_detection_fixFreq,2020.1.2,Win32,60,,,,,,,,,,,,,,,,,,1,6.0084,,0,0,13,13,38,1,stimuli/stim_20210919_power2amp/equal_lnn_AM2Hz_s35_19.m4a,,,,,,,,,,,,
,,,,,,,,,,,,41993,2021-10-01_13h12.27.637,judgeSpeechMusic_20210919_logNormShiftAmp_detection_fixFreq,2020.1.2,Win32,60,,,,,,,,,,,,,,,,,,1,6.2093,,0,0,14,14,44,1,stimuli/stim_20210919_power2amp/equal_lnn_AM2Hz_s35_50.m4a,,,,,,,,,,,,
,,,,,,,,,,,,41993,2021-10-01_13h12.27.637,judgeSpeechMusic_20210919_logNormShiftAmp_detection_fixFreq,2020.1.2,Win32,60,,,,,,,,,,,,,,,,,,1,5.9591,,0,0,15,15,13,1,stimuli/stim_20210919_power2amp/equal_lnn_AM2Hz_s15_23.m4a,,,,,,,,,,,,
,,,,,,,,,,,,41993,2021-10-01_13h12.27.637,judgeSpeechMusic_20210919_logNormShiftAmp_detection_fixFreq,2020.1.2,Win32,60,,,,,,,,,,,,,,,,,,1,5.8799,,0,0,16,16,54,1,stimuli/stim_20210919_power2amp/equal_lnn_AM2Hz_s45_8.m4a,,,,,,,,,,,,
,,,,,,,,,,,,41993,2021-10-01_13h12.27.637,judgeSpeechMusic_20210919_logNormShiftAmp_detection_fixFreq,2020.1.2,Win32,60,,,,,,,,,,,,,,,,,,1,6.9311,,0,0,17,17,60,1,stimuli/stim_20210919_power2amp/equal_lnn_AM2Hz_s55_35.m4a,,,,,,,,,,,,
,,,,,,,,,,,,41993,2021-10-01_13h12.27.637,judgeSpeechMusic_20210919_logNormShiftAmp_detection_fixFreq,2020.1.2,Win32,60,,,,,,,,,,,,,,,,,,1,6.4314,,0,0,18,18,63,1,stimuli/stim_20210919_power2amp/equal_lnn_AM2Hz_s55_14.m4a,,,,,,,,,,,,
,,,,,,,,,,,,41993,2021-10-01_13h12.27.637,judgeSpeechMusic_20210919_logNormShiftAmp_detection_fixFreq,2020.1.2,Win32,60,,,,,,,,,,,,,,,,,,1,6.014,,0,0,19,19,16,1,stimuli/stim_20210919_power2amp/equal_lnn_AM2Hz_s25_30.m4a,,,,,,,,,,,,
,,,,,,,,,,,,41993,2021-10-01_13h12.27.637,judgeSpeechMusic_20210919_logNormShiftAmp_detection_fixFreq,2020.1.2,Win32,60,,,,,,,,,,,,,,,,,,1,6.1889,,0,0,20,20,3,1,stimuli/stim_20210919_power2amp/equal_lnn_AM2Hz_s15_2.m4a,,,,,,,,,,,,
,,,,,,,,,,,,41993,2021-10-01_13h12.27.637,judgeSpeechMusic_20210919_logNormShiftAmp_detection_fixFreq,2020.1.2,Win32,60,,,,,,,,,,,,,,,,,,1,6.3219,,0,0,21,21,2,1,stimuli/stim_20210919_power2amp/equal_lnn_AM2Hz_s15_41.m4a,,,,,,,,,,,,
,,,,,,,,,,,,41993,2021-10-01_13h12.27.637,judgeSpeechMusic_20210919_logNormShiftAmp_detection_fixFreq,2020.1.2,Win32,60,,,,,,,,,,,,,,,,,,1,5.7166,1,1,0,22,22,51,1,stimuli/stim_20210919_power2amp/equal_lnn_AM2Hz_s45_10.m4a,1.0448,,,,,,,,,,,
,,,,,,,,,,,,41993,2021-10-01_13h12.27.637,judgeSpeechMusic_20210919_logNormShiftAmp_detection_fixFreq,2020.1.2,Win32,60,,,,,,,,,,,,,,,,,,1,5.7154,,0,0,23,23,49,1,stimuli/stim_20210919_power2amp/equal_lnn_AM2Hz_s45_35.m4a,,,,,,,,,,,,
,,,,,,,,,,,,41993,2021-10-01_13h12.27.637,judgeSpeechMusic_20210919_logNormShiftAmp_detection_fixFreq,2020.1.2,Win32,60,,,,,,,,,,,,,,,,,,1,6.1627,,0,0,24,24,32,1,stimuli/stim_20210919_power2amp/equal_lnn_AM2Hz_s35_11.m4a,,,,,,,,,,,,
,,,,,,,,,,,,41993,2021-10-01_13h12.27.637,judgeSpeechMusic_20210919_logNormShiftAmp_detection_fixFreq,2020.1.2,Win32,60,,,,,,,,,,,,,,,,,,1,5.6419,,0,0,25,25,15,1,stimuli/stim_20210919_power2amp/equal_lnn_AM2Hz_s25_14.m4a,,,,,,,,,,,,
,,,,,,,,,,,,41993,2021-10-01_13h12.27.637,judgeSpeechMusic_20210919_logNormShiftAmp_detection_fixFreq,2020.1.2,Win32,60,,,,,,,,,,,,,,,,,,1,5.6722,,0,0,26,26,50,1,stimuli/stim_20210919_power2amp/equal_lnn_AM2Hz_s45_19.m4a,,,,,,,,,,,,
,,,,,,,,,,,,41993,2021-10-01_13h12.27.637,judgeSpeechMusic_20210919_logNormShiftAmp_detection_fixFreq,2020.1.2,Win32,60,,,,,,,,,,,,,,,,,,1,5.8517,,0,0,27,27,73,1,stimuli/stim_20210919_power2amp/equal_lnn_AM2Hz_s55_6.m4a,,,,,,,,,,,,
,,,,,,,,,,,,41993,2021-10-01_13h12.27.637,judgeSpeechMusic_20210919_logNormShiftAmp_detection_fixFreq,2020.1.2,Win32,60,,,,,,,,,,,,,,,,,,1,5.5036,,0,0,28,28,62,1,stimuli/stim_20210919_power2amp/equal_lnn_AM2Hz_s55_25.m4a,,,,,,,,,,,,
,,,,,,,,,,,,41993,2021-10-01_13h12.27.637,judgeSpeechMusic_20210919_logNormShiftAmp_detection_fixFreq,2020.1.2,Win32,60,,,,,,,,,,,,,,,,,,1,5.8898,,0,0,29,29,6,1,stimuli/stim_20210919_power2amp/equal_lnn_AM2Hz_s15_50.m4a,,,,,,,,,,,,
,,,,,,,,,,,,41993,2021-10-01_13h12.27.637,judgeSpeechMusic_20210919_logNormShiftAmp_detection_fixFreq,2020.1.2,Win32,60,,,,,,,,,,,,,,,,,,1,5.9359,,0,0,30,30,46,1,stimuli/stim_20210919_power2amp/equal_lnn_AM2Hz_s45_36.m4a,,,,,,,,,,,,
,,,,,,,,,,,,41993,2021-10-01_13h12.27.637,judgeSpeechMusic_20210919_logNormShiftAmp_detection_fixFreq,2020.1.2,Win32,60,,,,,,,,,,,,,,,,,,1,5.4728,,0,0,31,31,0,1,stimuli/stim_20210919_power2amp/equal_lnn_AM2Hz_s15_7.m4a,,,,,,,,,,,,
,,,,,,,,,,,,41993,2021-10-01_13h12.27.637,judgeSpeechMusic_20210919_logNormShiftAmp_detection_fixFreq,2020.1.2,Win32,60,,,,,,,,,,,,,,,,,,1,10.8252,,0,0,32,32,30,1,stimuli/stim_20210919_power2amp/equal_lnn_AM2Hz_s35_37.m4a,,,,,,,,,,,,
,,,,,,,,,,,,41993,2021-10-01_13h12.27.637,judgeSpeechMusic_20210919_logNormShiftAmp_detection_fixFreq,2020.1.2,Win32,60,,,,,,,,,,,,,,,,,,1,7.0542,,0,0,33,33,68,1,stimuli/stim_20210919_power2amp/equal_lnn_AM2Hz_s55_29.m4a,,,,,,,,,,,,
,,,,,,,,,,,,41993,2021-10-01_13h12.27.637,judgeSpeechMusic_20210919_logNormShiftAmp_detection_fixFreq,2020.1.2,Win32,60,,,,,,,,,,,,,,,,,,1,8.8671,,0,0,34,34,22,1,stimuli/stim_20210919_power2amp/equal_lnn_AM2Hz_s25_18.m4a,,,,,,,,,,,,
,,,,,,,,,,,,41993,2021-10-01_13h12.27.637,judgeSpeechMusic_20210919_logNormShiftAmp_detection_fixFreq,2020.1.2,Win32,60,,,,,,,,,,,,,,,,,,1,6.5158,,0,0,35,35,67,1,stimuli/stim_20210919_power2amp/equal_lnn_AM2Hz_s55_44.m4a,,,,,,,,,,,,
,,,,,,,,,,,,41993,2021-10-01_13h12.27.637,judgeSpeechMusic_20210919_logNormShiftAmp_detection_fixFreq,2020.1.2,Win32,60,,,,,,,,,,,,,,,,,,1,8.631,,0,0,36,36,11,1,stimuli/stim_20210919_power2amp/equal_lnn_AM2Hz_s15_44.m4a,,,,,,,,,,,,
,,,,,,,,,,,,41993,2021-10-01_13h12.27.637,judgeSpeechMusic_20210919_logNormShiftAmp_detection_fixFreq,2020.1.2,Win32,60,,,,,,,,,,,,,,,,,,1,5.9674,,0,0,37,37,61,1,stimuli/stim_20210919_power2amp/equal_lnn_AM2Hz_s55_8.m4a,,,,,,,,,,,,
,,,,,,,,,,,,41993,2021-10-01_13h12.27.637,judgeSpeechMusic_20210919_logNormShiftAmp_detection_fixFreq,2020.1.2,Win32,60,,,,,,,,,,,,,,,,,,1,5.7002,,0,0,38,38,29,1,stimuli/stim_20210919_power2amp/equal_lnn_AM2Hz_s25_1.m4a,,,,,,,,,,,,
,,,,,,,,,,,,41993,2021-10-01_13h12.27.637,judgeSpeechMusic_20210919_logNormShiftAmp_detection_fixFreq,2020.1.2,Win32,60,,,,,,,,,,,,,,,,,,1,6.0433,,0,0,39,39,64,1,stimuli/stim_20210919_power2amp/equal_lnn_AM2Hz_s55_31.m4a,,,,,,,,,,,,
,,,,,,,,,,,,41993,2021-10-01_13h12.27.637,judgeSpeechMusic_20210919_logNormShiftAmp_detection_fixFreq,2020.1.2,Win32,60,,,,,,,,,,,,,,,,,,1,7.3086,4,1,0,40,40,4,1,stimuli/stim_20210919_power2amp/equal_lnn_AM2Hz_s15_4.m4a,3.0142,,,,,,,,,,,
,,,,,,,,,,,,41993,2021-10-01_13h12.27.637,judgeSpeechMusic_20210919_logNormShiftAmp_detection_fixFreq,2020.1.2,Win32,60,,,,,,,,,,,,,,,,,,1,6.2059,,0,0,41,41,52,1,stimuli/stim_20210919_power2amp/equal_lnn_AM2Hz_s45_25.m4a,,,,,,,,,,,,
,,,,,,,,,,,,41993,2021-10-01_13h12.27.637,judgeSpeechMusic_20210919_logNormShiftAmp_detection_fixFreq,2020.1.2,Win32,60,,,,,,,,,,,,,,,,,,1,6.0693,,0,0,42,42,14,1,stimuli/stim_20210919_power2amp/equal_lnn_AM2Hz_s15_18.m4a,,,,,,,,,,,,
,,,,,,,,,,,,41993,2021-10-01_13h12.27.637,judgeSpeechMusic_20210919_logNormShiftAmp_detection_fixFreq,2020.1.2,Win32,60,,,,,,,,,,,,,,,,,,1,6.3396,,0,0,43,43,21,1,stimuli/stim_20210919_power2amp/equal_lnn_AM2Hz_s25_49.m4a,,,,,,,,,,,,
,,,,,,,,,,,,41993,2021-10-01_13h12.27.637,judgeSpeechMusic_20210919_logNormShiftAmp_detection_fixFreq,2020.1.2,Win32,60,,,,,,,,,,,,,,,,,,1,6.3311,,0,0,44,44,19,1,stimuli/stim_20210919_power2amp/equal_lnn_AM2Hz_s25_45.m4a,,,,,,,,,,,,
,,,,,,,,,,,,41993,2021-10-01_13h12.27.637,judgeSpeechMusic_20210919_logNormShiftAmp_detection_fixFreq,2020.1.2,Win32,60,,,,,,,,,,,,,,,,,,1,6.7844,,0,0,45,45,66,1,stimuli/stim_20210919_power2amp/equal_lnn_AM2Hz_s55_13.m4a,,,,,,,,,,,,
,,,,,,,,,,,,41993,2021-10-01_13h12.27.637,judgeSpeechMusic_20210919_logNormShiftAmp_detection_fixFreq,2020.1.2,Win32,60,,,,,,,,,,,,,,,,,,1,6.34,,0,0,46,46,69,1,stimuli/stim_20210919_power2amp/equal_lnn_AM2Hz_s55_50.m4a,,,,,,,,,,,,
,,,,,,,,,,,,41993,2021-10-01_13h12.27.637,judgeSpeechMusic_20210919_logNormShiftAmp_detection_fixFreq,2020.1.2,Win32,60,,,,,,,,,,,,,,,,,,1,5.6935,,0,0,47,47,53,1,stimuli/stim_20210919_power2amp/equal_lnn_AM2Hz_s45_49.m4a,,,,,,,,,,,,
,,,,,,,,,,,,41993,2021-10-01_13h12.27.637,judgeSpeechMusic_20210919_logNormShiftAmp_detection_fixFreq,2020.1.2,Win32,60,,,,,,,,,,,,,,,,,,1,7.5809,,0,0,48,48,12,1,stimuli/stim_20210919_power2amp/equal_lnn_AM2Hz_s15_30.m4a,,,,,,,,,,,,
,,,,,,,,,,,,41993,2021-10-01_13h12.27.637,judgeSpeechMusic_20210919_logNormShiftAmp_detection_fixFreq,2020.1.2,Win32,60,,,,,,,,,,,,,,,,,,1,5.7185,,0,0,49,49,71,1,stimuli/stim_20210919_power2amp/equal_lnn_AM2Hz_s55_15.m4a,,,,,,,,,,,,
,,,,,,,,,,,,41993,2021-10-01_13h12.27.637,judgeSpeechMusic_20210919_logNormShiftAmp_detection_fixFreq,2020.1.2,Win32,60,,,,,,,,,,,,,,,,,,1,5.7207,,0,0,50,50,41,1,stimuli/stim_20210919_power2amp/equal_lnn_AM2Hz_s35_4.m4a,,,,,,,,,,,,
,,,,,,,,,,,,41993,2021-10-01_13h12.27.637,judgeSpeechMusic_20210919_logNormShiftAmp_detection_fixFreq,2020.1.2,Win32,60,,,,,,,,,,,,,,,,,,1,5.8181,,0,0,51,51,35,1,stimuli/stim_20210919_power2amp/equal_lnn_AM2Hz_s35_26.m4a,,,,,,,,,,,,
,,,,,,,,,,,,41993,2021-10-01_13h12.27.637,judgeSpeechMusic_20210919_logNormShiftAmp_detection_fixFreq,2020.1.2,Win32,60,,,,,,,,,,,,,,,,,,1,5.9246,,0,0,52,52,59,1,stimuli/stim_20210919_power2amp/equal_lnn_AM2Hz_s45_3.m4a,,,,,,,,,,,,
,,,,,,,,,,,,41993,2021-10-01_13h12.27.637,judgeSpeechMusic_20210919_logNormShiftAmp_detection_fixFreq,2020.1.2,Win32,60,,,,,,,,,,,,,,,,,,1,6.1187,,0,0,53,53,24,1,stimuli/stim_20210919_power2amp/equal_lnn_AM2Hz_s25_33.m4a,,,,,,,,,,,,
,,,,,,,,,,,,41993,2021-10-01_13h12.27.637,judgeSpeechMusic_20210919_logNormShiftAmp_detection_fixFreq,2020.1.2,Win32,60,,,,,,,,,,,,,,,,,,1,6.2538,,0,0,54,54,20,1,stimuli/stim_20210919_power2amp/equal_lnn_AM2Hz_s25_20.m4a,,,,,,,,,,,,
,,,,,,,,,,,,41993,2021-10-01_13h12.27.637,judgeSpeechMusic_20210919_logNormShiftAmp_detection_fixFreq,2020.1.2,Win32,60,,,,,,,,,,,,,,,,,,1,6.2184,,0,0,55,55,31,1,stimuli/stim_20210919_power2amp/equal_lnn_AM2Hz_s35_10.m4a,,,,,,,,,,,,
,,,,,,,,,,,,41993,2021-10-01_13h12.27.637,judgeSpeechMusic_20210919_logNormShiftAmp_detection_fixFreq,2020.1.2,Win32,60,,,,,,,,,,,,,,,,,,1,6.0217,,0,0,56,56,65,1,stimuli/stim_20210919_power2amp/equal_lnn_AM2Hz_s55_47.m4a,,,,,,,,,,,,
,,,,,,,,,,,,41993,2021-10-01_13h12.27.637,judgeSpeechMusic_20210919_logNormShiftAmp_detection_fixFreq,2020.1.2,Win32,60,,,,,,,,,,,,,,,,,,1,6.4714,,0,0,57,57,55,1,stimuli/stim_20210919_power2amp/equal_lnn_AM2Hz_s45_26.m4a,,,,,,,,,,,,
,,,,,,,,,,,,41993,2021-10-01_13h12.27.637,judgeSpeechMusic_20210919_logNormShiftAmp_detection_fixFreq,2020.1.2,Win32,60,,,,,,,,,,,,,,,,,,1,5.657,,0,0,58,58,47,1,stimuli/stim_20210919_power2amp/equal_lnn_AM2Hz_s45_29.m4a,,,,,,,,,,,,
,,,,,,,,,,,,41993,2021-10-01_13h12.27.637,judgeSpeechMusic_20210919_logNormShiftAmp_detection_fixFreq,2020.1.2,Win32,60,,,,,,,,,,,,,,,,,,1,8.5462,,0,0,59,59,40,1,stimuli/stim_20210919_power2amp/equal_lnn_AM2Hz_s35_2.m4a,,,,,,,,,,,,
,,,,,,,,,,,,41993,2021-10-01_13h12.27.637,judgeSpeechMusic_20210919_logNormShiftAmp_detection_fixFreq,2020.1.2,Win32,60,,,,,,,,,,,,,,,,,,1,5.7042,3,1,0,60,60,25,1,stimuli/stim_20210919_power2amp/equal_lnn_AM2Hz_s25_17.m4a,3.8697,,,,,,,,,,,
,,,,,,,,,,,,41993,2021-10-01_13h12.27.637,judgeSpeechMusic_20210919_logNormShiftAmp_detection_fixFreq,2020.1.2,Win32,60,,,,,,,,,,,,,,,,,,1,6.4819,,0,0,61,61,17,1,stimuli/stim_20210919_power2amp/equal_lnn_AM2Hz_s25_25.m4a,,,,,,,,,,,,
,,,,,,,,,,,,41993,2021-10-01_13h12.27.637,judgeSpeechMusic_20210919_logNormShiftAmp_detection_fixFreq,2020.1.2,Win32,60,,,,,,,,,,,,,,,,,,1,7.7109,,0,0,62,62,27,1,stimuli/stim_20210919_power2amp/equal_lnn_AM2Hz_s25_35.m4a,,,,,,,,,,,,
,,,,,,,,,,,,41993,2021-10-01_13h12.27.637,judgeSpeechMusic_20210919_logNormShiftAmp_detection_fixFreq,2020.1.2,Win32,60,,,,,,,,,,,,,,,,,,1,8.6349,,0,0,63,63,18,1,stimuli/stim_20210919_power2amp/equal_lnn_AM2Hz_s25_23.m4a,,,,,,,,,,,,
,,,,,,,,,,,,41993,2021-10-01_13h12.27.637,judgeSpeechMusic_20210919_logNormShiftAmp_detection_fixFreq,2020.1.2,Win32,60,,,,,,,,,,,,,,,,,,1,6.4373,,0,0,64,64,39,1,stimuli/stim_20210919_power2amp/equal_lnn_AM2Hz_s35_14.m4a,,,,,,,,,,,,
,,,,,,,,,,,,41993,2021-10-01_13h12.27.637,judgeSpeechMusic_20210919_logNormShiftAmp_detection_fixFreq,2020.1.2,Win32,60,,,,,,,,,,,,,,,,,,1,7.1236,,0,0,65,65,48,1,stimuli/stim_20210919_power2amp/equal_lnn_AM2Hz_s45_39.m4a,,,,,,,,,,,,
,,,,,,,,,,,,41993,2021-10-01_13h12.27.637,judgeSpeechMusic_20210919_logNormShiftAmp_detection_fixFreq,2020.1.2,Win32,60,,,,,,,,,,,,,,,,,,1,5.6611,,0,0,66,66,7,1,stimuli/stim_20210919_power2amp/equal_lnn_AM2Hz_s15_39.m4a,,,,,,,,,,,,
,,,,,,,,,,,,41993,2021-10-01_13h12.27.637,judgeSpeechMusic_20210919_logNormShiftAmp_detection_fixFreq,2020.1.2,Win32,60,,,,,,,,,,,,,,,,,,1,6.7036,,0,0,67,67,9,1,stimuli/stim_20210919_power2amp/equal_lnn_AM2Hz_s15_29.m4a,,,,,,,,,,,,
,,,,,,,,,,,,41993,2021-10-01_13h12.27.637,judgeSpeechMusic_20210919_logNormShiftAmp_detection_fixFreq,2020.1.2,Win32,60,,,,,,,,,,,,,,,,,,1,5.6312,,0,0,68,68,10,1,stimuli/stim_20210919_power2amp/equal_lnn_AM2Hz_s15_27.m4a,,,,,,,,,,,,
,,,,,,,,,,,,41993,2021-10-01_13h12.27.637,judgeSpeechMusic_20210919_logNormShiftAmp_detection_fixFreq,2020.1.2,Win32,60,,,,,,,,,,,,,,,,,,1,5.7165,,0,0,69,69,28,1,stimuli/stim_20210919_power2amp/equal_lnn_AM2Hz_s25_46.m4a,,,,,,,,,,,,
,,,,,,,,,,,,41993,2021-10-01_13h12.27.637,judgeSpeechMusic_20210919_logNormShiftAmp_detection_fixFreq,2020.1.2,Win32,60,,,,,,,,,,,,,,,,,,1,10.76,,0,0,70,70,56,1,stimuli/stim_20210919_power2amp/equal_lnn_AM2Hz_s45_42.m4a,,,,,,,,,,,,
,,,,,,,,,,,,41993,2021-10-01_13h12.27.637,judgeSpeechMusic_20210919_logNormShiftAmp_detection_fixFreq,2020.1.2,Win32,60,,,,,,,,,,,,,,,,,,1,5.9098,,0,0,71,71,42,1,stimuli/stim_20210919_power2amp/equal_lnn_AM2Hz_s35_35.m4a,,,,,,,,,,,,
,,,,,,,,,,,,41993,2021-10-01_13h12.27.637,judgeSpeechMusic_20210919_logNormShiftAmp_detection_fixFreq,2020.1.2,Win32,60,,,,,,,,,,,,,,,,,,1,5.8948,,0,0,72,72,58,1,stimuli/stim_20210919_power2amp/equal_lnn_AM2Hz_s45_5.m4a,,,,,,,,,,,,
,,,,,,,,,,,,41993,2021-10-01_13h12.27.637,judgeSpeechMusic_20210919_logNormShiftAmp_detection_fixFreq,2020.1.2,Win32,60,,,,,,,,,,,,,,,,,,1,6.1159,,0,0,73,73,33,1,stimuli/stim_20210919_power2amp/equal_lnn_AM2Hz_s35_13.m4a,,,,,,,,,,,,
,,,,,,,,,,,,41993,2021-10-01_13h12.27.637,judgeSpeechMusic_20210919_logNormShiftAmp_detection_fixFreq,2020.1.2,Win32,60,,,,,,,,,,,,,,,,,,1,5.723,,0,0,74,74,23,1,stimuli/stim_20210919_power2amp/equal_lnn_AM2Hz_s25_22.m4a,,,,,,,,,,,,
,,,,,,,,,,,,41993,2021-10-01_13h12.27.637,judgeSpeechMusic_20210919_logNormShiftAmp_detection_fixFreq,2020.1.2,Win32,60,,,,,,,,,,,,,,,,,,,,,,,,,,,,,space,0.7993,1,0,2,1,1,SPEECH,stimuli/SPEECH.jpg,,
,,,,,,,,,,,,41993,2021-10-01_13h12.27.637,judgeSpeechMusic_20210919_logNormShiftAmp_detection_fixFreq,2020.1.2,Win32,60,,,,,,0,0,0,0,3,1,stimuli/stim_20210919_power2amp/equal_lnn_AM_training2Hz_s50.m4a,,,,,,,,,,,,,,,,,,,,,,,,,,,
,,,,,,,,,,,,41993,2021-10-01_13h12.27.637,judgeSpeechMusic_20210919_logNormShiftAmp_detection_fixFreq,2020.1.2,Win32,60,,,,,,,,,,,,,,space,1.9918,space,4.2987,1,6.7861,,0,0,0,0,17,1,stimuli/stim_20210919_power2amp/equal_lnn_AM2Hz_s25_25.m4a,,,,,,,,,,,,
,,,,,,,,,,,,41993,2021-10-01_13h12.27.637,judgeSpeechMusic_20210919_logNormShiftAmp_detection_fixFreq,2020.1.2,Win32,60,,,,,,,,,,,,,,,,,,1,5.7177,,0,0,1,1,19,1,stimuli/stim_20210919_power2amp/equal_lnn_AM2Hz_s25_45.m4a,,,,,,,,,,,,
,,,,,,,,,,,,41993,2021-10-01_13h12.27.637,judgeSpeechMusic_20210919_logNormShiftAmp_detection_fixFreq,2020.1.2,Win32,60,,,,,,,,,,,,,,,,,,1,6.1581,,0,0,2,2,39,1,stimuli/stim_20210919_power2amp/equal_lnn_AM2Hz_s35_14.m4a,,,,,,,,,,,,
,,,,,,,,,,,,41993,2021-10-01_13h12.27.637,judgeSpeechMusic_20210919_logNormShiftAmp_detection_fixFreq,2020.1.2,Win32,60,,,,,,,,,,,,,,,,,,1,6.0294,,0,0,3,3,15,1,stimuli/stim_20210919_power2amp/equal_lnn_AM2Hz_s25_14.m4a,,,,,,,,,,,,
,,,,,,,,,,,,41993,2021-10-01_13h12.27.637,judgeSpeechMusic_20210919_logNormShiftAmp_detection_fixFreq,2020.1.2,Win32,60,,,,,,,,,,,,,,,,,,1,5.7157,,0,0,4,4,49,1,stimuli/stim_20210919_power2amp/equal_lnn_AM2Hz_s45_35.m4a,,,,,,,,,,,,
,,,,,,,,,,,,41993,2021-10-01_13h12.27.637,judgeSpeechMusic_20210919_logNormShiftAmp_detection_fixFreq,2020.1.2,Win32,60,,,,,,,,,,,,,,,,,,1,5.6123,,0,0,5,5,43,1,stimuli/stim_20210919_power2amp/equal_lnn_AM2Hz_s35_38.m4a,,,,,,,,,,,,
,,,,,,,,,,,,41993,2021-10-01_13h12.27.637,judgeSpeechMusic_20210919_logNormShiftAmp_detection_fixFreq,2020.1.2,Win32,60,,,,,,,,,,,,,,,,,,1,5.9094,,0,0,6,6,36,1,stimuli/stim_20210919_power2amp/equal_lnn_AM2Hz_s35_49.m4a,,,,,,,,,,,,
,,,,,,,,,,,,41993,2021-10-01_13h12.27.637,judgeSpeechMusic_20210919_logNormShiftAmp_detection_fixFreq,2020.1.2,Win32,60,,,,,,,,,,,,,,,,,,1,6.7883,,0,0,7,7,6,1,stimuli/stim_20210919_power2amp/equal_lnn_AM2Hz_s15_50.m4a,,,,,,,,,,,,
,,,,,,,,,,,,41993,2021-10-01_13h12.27.637,judgeSpeechMusic_20210919_logNormShiftAmp_detection_fixFreq,2020.1.2,Win32,60,,,,,,,,,,,,,,,,,,1,6.146,,0,0,8,8,11,1,stimuli/stim_20210919_power2amp/equal_lnn_AM2Hz_s15_44.m4a,,,,,,,,,,,,
,,,,,,,,,,,,41993,2021-10-01_13h12.27.637,judgeSpeechMusic_20210919_logNormShiftAmp_detection_fixFreq,2020.1.2,Win32,60,,,,,,,,,,,,,,,,,,1,5.8438,,0,0,9,9,74,1,stimuli/stim_20210919_power2amp/equal_lnn_AM2Hz_s55_24.m4a,,,,,,,,,,,,
,,,,,,,,,,,,41993,2021-10-01_13h12.27.637,judgeSpeechMusic_20210919_logNormShiftAmp_detection_fixFreq,2020.1.2,Win32,60,,,,,,,,,,,,,,,,,,1,8.6774,,0,0,10,10,56,1,stimuli/stim_20210919_power2amp/equal_lnn_AM2Hz_s45_42.m4a,,,,,,,,,,,,
,,,,,,,,,,,,41993,2021-10-01_13h12.27.637,judgeSpeechMusic_20210919_logNormShiftAmp_detection_fixFreq,2020.1.2,Win32,60,,,,,,,,,,,,,,,,,,1,8.6801,,0,0,11,11,64,1,stimuli/stim_20210919_power2amp/equal_lnn_AM2Hz_s55_31.m4a,,,,,,,,,,,,
,,,,,,,,,,,,41993,2021-10-01_13h12.27.637,judgeSpeechMusic_20210919_logNormShiftAmp_detection_fixFreq,2020.1.2,Win32,60,,,,,,,,,,,,,,,,,,1,6.9521,,0,0,12,12,13,1,stimuli/stim_20210919_power2amp/equal_lnn_AM2Hz_s15_23.m4a,,,,,,,,,,,,
,,,,,,,,,,,,41993,2021-10-01_13h12.27.637,judgeSpeechMusic_20210919_logNormShiftAmp_detection_fixFreq,2020.1.2,Win32,60,,,,,,,,,,,,,,,,,,1,5.8944,,0,0,13,13,55,1,stimuli/stim_20210919_power2amp/equal_lnn_AM2Hz_s45_26.m4a,,,,,,,,,,,,
,,,,,,,,,,,,41993,2021-10-01_13h12.27.637,judgeSpeechMusic_20210919_logNormShiftAmp_detection_fixFreq,2020.1.2,Win32,60,,,,,,,,,,,,,,,,,,1,6.3594,,0,0,14,14,35,1,stimuli/stim_20210919_power2amp/equal_lnn_AM2Hz_s35_26.m4a,,,,,,,,,,,,
,,,,,,,,,,,,41993,2021-10-01_13h12.27.637,judgeSpeechMusic_20210919_logNormShiftAmp_detection_fixFreq,2020.1.2,Win32,60,,,,,,,,,,,,,,,,,,1,6.8143,,0,0,15,15,44,1,stimuli/stim_20210919_power2amp/equal_lnn_AM2Hz_s35_50.m4a,,,,,,,,,,,,
,,,,,,,,,,,,41993,2021-10-01_13h12.27.637,judgeSpeechMusic_20210919_logNormShiftAmp_detection_fixFreq,2020.1.2,Win32,60,,,,,,,,,,,,,,,,,,1,9.6729,,0,0,16,16,3,1,stimuli/stim_20210919_power2amp/equal_lnn_AM2Hz_s15_2.m4a,,,,,,,,,,,,
,,,,,,,,,,,,41993,2021-10-01_13h12.27.637,judgeSpeechMusic_20210919_logNormShiftAmp_detection_fixFreq,2020.1.2,Win32,60,,,,,,,,,,,,,,,,,,1,6.2701,,0,0,17,17,34,1,stimuli/stim_20210919_power2amp/equal_lnn_AM2Hz_s35_47.m4a,,,,,,,,,,,,
,,,,,,,,,,,,41993,2021-10-01_13h12.27.637,judgeSpeechMusic_20210919_logNormShiftAmp_detection_fixFreq,2020.1.2,Win32,60,,,,,,,,,,,,,,,,,,1,7.2163,,0,0,18,18,37,1,stimuli/stim_20210919_power2amp/equal_lnn_AM2Hz_s35_32.m4a,,,,,,,,,,,,
,,,,,,,,,,,,41993,2021-10-01_13h12.27.637,judgeSpeechMusic_20210919_logNormShiftAmp_detection_fixFreq,2020.1.2,Win32,60,,,,,,,,,,,,,,,,,,1,7.331,,0,0,19,19,54,1,stimuli/stim_20210919_power2amp/equal_lnn_AM2Hz_s45_8.m4a,,,,,,,,,,,,
,,,,,,,,,,,,41993,2021-10-01_13h12.27.637,judgeSpeechMusic_20210919_logNormShiftAmp_detection_fixFreq,2020.1.2,Win32,60,,,,,,,,,,,,,,,,,,1,6.0604,,0,0,20,20,25,1,stimuli/stim_20210919_power2amp/equal_lnn_AM2Hz_s25_17.m4a,,,,,,,,,,,,
,,,,,,,,,,,,41993,2021-10-01_13h12.27.637,judgeSpeechMusic_20210919_logNormShiftAmp_detection_fixFreq,2020.1.2,Win32,60,,,,,,,,,,,,,,,,,,1,5.7001,,0,0,21,21,38,1,stimuli/stim_20210919_power2amp/equal_lnn_AM2Hz_s35_19.m4a,,,,,,,,,,,,
,,,,,,,,,,,,41993,2021-10-01_13h12.27.637,judgeSpeechMusic_20210919_logNormShiftAmp_detection_fixFreq,2020.1.2,Win32,60,,,,,,,,,,,,,,,,,,1,5.9316,1,1,0,22,22,18,1,stimuli/stim_20210919_power2amp/equal_lnn_AM2Hz_s25_23.m4a,1.1212,,,,,,,,,,,
,,,,,,,,,,,,41993,2021-10-01_13h12.27.637,judgeSpeechMusic_20210919_logNormShiftAmp_detection_fixFreq,2020.1.2,Win32,60,,,,,,,,,,,,,,,,,,1,5.6994,,0,0,23,23,12,1,stimuli/stim_20210919_power2amp/equal_lnn_AM2Hz_s15_30.m4a,,,,,,,,,,,,
,,,,,,,,,,,,41993,2021-10-01_13h12.27.637,judgeSpeechMusic_20210919_logNormShiftAmp_detection_fixFreq,2020.1.2,Win32,60,,,,,,,,,,,,,,,,,,1,5.7037,,0,0,24,24,71,1,stimuli/stim_20210919_power2amp/equal_lnn_AM2Hz_s55_15.m4a,,,,,,,,,,,,
,,,,,,,,,,,,41993,2021-10-01_13h12.27.637,judgeSpeechMusic_20210919_logNormShiftAmp_detection_fixFreq,2020.1.2,Win32,60,,,,,,,,,,,,,,,,,,1,5.9318,,0,0,25,25,50,1,stimuli/stim_20210919_power2amp/equal_lnn_AM2Hz_s45_19.m4a,,,,,,,,,,,,
,,,,,,,,,,,,41993,2021-10-01_13h12.27.637,judgeSpeechMusic_20210919_logNormShiftAmp_detection_fixFreq,2020.1.2,Win32,60,,,,,,,,,,,,,,,,,,1,6.327,,0,0,26,26,68,1,stimuli/stim_20210919_power2amp/equal_lnn_AM2Hz_s55_29.m4a,,,,,,,,,,,,
,,,,,,,,,,,,41993,2021-10-01_13h12.27.637,judgeSpeechMusic_20210919_logNormShiftAmp_detection_fixFreq,2020.1.2,Win32,60,,,,,,,,,,,,,,,,,,1,6.1809,,0,0,27,27,23,1,stimuli/stim_20210919_power2amp/equal_lnn_AM2Hz_s25_22.m4a,,,,,,,,,,,,
,,,,,,,,,,,,41993,2021-10-01_13h12.27.637,judgeSpeechMusic_20210919_logNormShiftAmp_detection_fixFreq,2020.1.2,Win32,60,,,,,,,,,,,,,,,,,,1,7.0241,,0,0,28,28,22,1,stimuli/stim_20210919_power2amp/equal_lnn_AM2Hz_s25_18.m4a,,,,,,,,,,,,
,,,,,,,,,,,,41993,2021-10-01_13h12.27.637,judgeSpeechMusic_20210919_logNormShiftAmp_detection_fixFreq,2020.1.2,Win32,60,,,,,,,,,,,,,,,,,,1,5.979,,0,0,29,29,16,1,stimuli/stim_20210919_power2amp/equal_lnn_AM2Hz_s25_30.m4a,,,,,,,,,,,,
,,,,,,,,,,,,41993,2021-10-01_13h12.27.637,judgeSpeechMusic_20210919_logNormShiftAmp_detection_fixFreq,2020.1.2,Win32,60,,,,,,,,,,,,,,,,,,1,6.6607,,0,0,30,30,0,1,stimuli/stim_20210919_power2amp/equal_lnn_AM2Hz_s15_7.m4a,,,,,,,,,,,,
,,,,,,,,,,,,41993,2021-10-01_13h12.27.637,judgeSpeechMusic_20210919_logNormShiftAmp_detection_fixFreq,2020.1.2,Win32,60,,,,,,,,,,,,,,,,,,1,6.0316,,0,0,31,31,69,1,stimuli/stim_20210919_power2amp/equal_lnn_AM2Hz_s55_50.m4a,,,,,,,,,,,,
,,,,,,,,,,,,41993,2021-10-01_13h12.27.637,judgeSpeechMusic_20210919_logNormShiftAmp_detection_fixFreq,2020.1.2,Win32,60,,,,,,,,,,,,,,,,,,1,8.1861,,0,0,32,32,5,1,stimuli/stim_20210919_power2amp/equal_lnn_AM2Hz_s15_9.m4a,,,,,,,,,,,,
,,,,,,,,,,,,41993,2021-10-01_13h12.27.637,judgeSpeechMusic_20210919_logNormShiftAmp_detection_fixFreq,2020.1.2,Win32,60,,,,,,,,,,,,,,,,,,1,5.8074,,0,0,33,33,72,1,stimuli/stim_20210919_power2amp/equal_lnn_AM2Hz_s55_37.m4a,,,,,,,,,,,,
,,,,,,,,,,,,41993,2021-10-01_13h12.27.637,judgeSpeechMusic_20210919_logNormShiftAmp_detection_fixFreq,2020.1.2,Win32,60,,,,,,,,,,,,,,,,,,1,6.6371,,0,0,34,34,70,1,stimuli/stim_20210919_power2amp/equal_lnn_AM2Hz_s55_5.m4a,,,,,,,,,,,,
,,,,,,,,,,,,41993,2021-10-01_13h12.27.637,judgeSpeechMusic_20210919_logNormShiftAmp_detection_fixFreq,2020.1.2,Win32,60,,,,,,,,,,,,,,,,,,1,5.7054,,0,0,35,35,2,1,stimuli/stim_20210919_power2amp/equal_lnn_AM2Hz_s15_41.m4a,,,,,,,,,,,,
,,,,,,,,,,,,41993,2021-10-01_13h12.27.637,judgeSpeechMusic_20210919_logNormShiftAmp_detection_fixFreq,2020.1.2,Win32,60,,,,,,,,,,,,,,,,,,1,7.5099,,0,0,36,36,59,1,stimuli/stim_20210919_power2amp/equal_lnn_AM2Hz_s45_3.m4a,,,,,,,,,,,,
,,,,,,,,,,,,41993,2021-10-01_13h12.27.637,judgeSpeechMusic_20210919_logNormShiftAmp_detection_fixFreq,2020.1.2,Win32,60,,,,,,,,,,,,,,,,,,1,6.1552,,0,0,37,37,9,1,stimuli/stim_20210919_power2amp/equal_lnn_AM2Hz_s15_29.m4a,,,,,,,,,,,,
,,,,,,,,,,,,41993,2021-10-01_13h12.27.637,judgeSpeechMusic_20210919_logNormShiftAmp_detection_fixFreq,2020.1.2,Win32,60,,,,,,,,,,,,,,,,,,1,9.8974,,0,0,38,38,1,1,stimuli/stim_20210919_power2amp/equal_lnn_AM2Hz_s15_20.m4a,,,,,,,,,,,,
,,,,,,,,,,,,41993,2021-10-01_13h12.27.637,judgeSpeechMusic_20210919_logNormShiftAmp_detection_fixFreq,2020.1.2,Win32,60,,,,,,,,,,,,,,,,,,1,6.5458,,0,0,39,39,53,1,stimuli/stim_20210919_power2amp/equal_lnn_AM2Hz_s45_49.m4a,,,,,,,,,,,,
,,,,,,,,,,,,41993,2021-10-01_13h12.27.637,judgeSpeechMusic_20210919_logNormShiftAmp_detection_fixFreq,2020.1.2,Win32,60,,,,,,,,,,,,,,,,,,1,6.2076,2,1,0,40,40,47,1,stimuli/stim_20210919_power2amp/equal_lnn_AM2Hz_s45_29.m4a,1.1498,,,,,,,,,,,
,,,,,,,,,,,,41993,2021-10-01_13h12.27.637,judgeSpeechMusic_20210919_logNormShiftAmp_detection_fixFreq,2020.1.2,Win32,60,,,,,,,,,,,,,,,,,,1,6.4103,,0,0,41,41,32,1,stimuli/stim_20210919_power2amp/equal_lnn_AM2Hz_s35_11.m4a,,,,,,,,,,,,
,,,,,,,,,,,,41993,2021-10-01_13h12.27.637,judgeSpeechMusic_20210919_logNormShiftAmp_detection_fixFreq,2020.1.2,Win32,60,,,,,,,,,,,,,,,,,,1,6.1225,,0,0,42,42,66,1,stimuli/stim_20210919_power2amp/equal_lnn_AM2Hz_s55_13.m4a,,,,,,,,,,,,
,,,,,,,,,,,,41993,2021-10-01_13h12.27.637,judgeSpeechMusic_20210919_logNormShiftAmp_detection_fixFreq,2020.1.2,Win32,60,,,,,,,,,,,,,,,,,,1,6.7213,,0,0,43,43,46,1,stimuli/stim_20210919_power2amp/equal_lnn_AM2Hz_s45_36.m4a,,,,,,,,,,,,
,,,,,,,,,,,,41993,2021-10-01_13h12.27.637,judgeSpeechMusic_20210919_logNormShiftAmp_detection_fixFreq,2020.1.2,Win32,60,,,,,,,,,,,,,,,,,,1,5.812,,0,0,44,44,14,1,stimuli/stim_20210919_power2amp/equal_lnn_AM2Hz_s15_18.m4a,,,,,,,,,,,,
,,,,,,,,,,,,41993,2021-10-01_13h12.27.637,judgeSpeechMusic_20210919_logNormShiftAmp_detection_fixFreq,2020.1.2,Win32,60,,,,,,,,,,,,,,,,,,1,7.2739,,0,0,45,45,7,1,stimuli/stim_20210919_power2amp/equal_lnn_AM2Hz_s15_39.m4a,,,,,,,,,,,,
,,,,,,,,,,,,41993,2021-10-01_13h12.27.637,judgeSpeechMusic_20210919_logNormShiftAmp_detection_fixFreq,2020.1.2,Win32,60,,,,,,,,,,,,,,,,,,1,6.1052,,0,0,46,46,65,1,stimuli/stim_20210919_power2amp/equal_lnn_AM2Hz_s55_47.m4a,,,,,,,,,,,,
,,,,,,,,,,,,41993,2021-10-01_13h12.27.637,judgeSpeechMusic_20210919_logNormShiftAmp_detection_fixFreq,2020.1.2,Win32,60,,,,,,,,,,,,,,,,,,1,9.1485,,0,0,47,47,20,1,stimuli/stim_20210919_power2amp/equal_lnn_AM2Hz_s25_20.m4a,,,,,,,,,,,,
,,,,,,,,,,,,41993,2021-10-01_13h12.27.637,judgeSpeechMusic_20210919_logNormShiftAmp_detection_fixFreq,2020.1.2,Win32,60,,,,,,,,,,,,,,,,,,1,6.1533,,0,0,48,48,51,1,stimuli/stim_20210919_power2amp/equal_lnn_AM2Hz_s45_10.m4a,,,,,,,,,,,,
,,,,,,,,,,,,41993,2021-10-01_13h12.27.637,judgeSpeechMusic_20210919_logNormShiftAmp_detection_fixFreq,2020.1.2,Win32,60,,,,,,,,,,,,,,,,,,1,7.0803,,0,0,49,49,62,1,stimuli/stim_20210919_power2amp/equal_lnn_AM2Hz_s55_25.m4a,,,,,,,,,,,,
,,,,,,,,,,,,41993,2021-10-01_13h12.27.637,judgeSpeechMusic_20210919_logNormShiftAmp_detection_fixFreq,2020.1.2,Win32,60,,,,,,,,,,,,,,,,,,1,6.0193,,0,0,50,50,27,1,stimuli/stim_20210919_power2amp/equal_lnn_AM2Hz_s25_35.m4a,,,,,,,,,,,,
,,,,,,,,,,,,41993,2021-10-01_13h12.27.637,judgeSpeechMusic_20210919_logNormShiftAmp_detection_fixFreq,2020.1.2,Win32,60,,,,,,,,,,,,,,,,,,1,7.8476,,0,0,51,51,63,1,stimuli/stim_20210919_power2amp/equal_lnn_AM2Hz_s55_14.m4a,,,,,,,,,,,,
,,,,,,,,,,,,41993,2021-10-01_13h12.27.637,judgeSpeechMusic_20210919_logNormShiftAmp_detection_fixFreq,2020.1.2,Win32,60,,,,,,,,,,,,,,,,,,1,5.982,,0,0,52,52,40,1,stimuli/stim_20210919_power2amp/equal_lnn_AM2Hz_s35_2.m4a,,,,,,,,,,,,
,,,,,,,,,,,,41993,2021-10-01_13h12.27.637,judgeSpeechMusic_20210919_logNormShiftAmp_detection_fixFreq,2020.1.2,Win32,60,,,,,,,,,,,,,,,,,,1,10.4055,,0,0,53,53,52,1,stimuli/stim_20210919_power2amp/equal_lnn_AM2Hz_s45_25.m4a,,,,,,,,,,,,
,,,,,,,,,,,,41993,2021-10-01_13h12.27.637,judgeSpeechMusic_20210919_logNormShiftAmp_detection_fixFreq,2020.1.2,Win32,60,,,,,,,,,,,,,,,,,,1,5.9239,,0,0,54,54,73,1,stimuli/stim_20210919_power2amp/equal_lnn_AM2Hz_s55_6.m4a,,,,,,,,,,,,
,,,,,,,,,,,,41993,2021-10-01_13h12.27.637,judgeSpeechMusic_20210919_logNormShiftAmp_detection_fixFreq,2020.1.2,Win32,60,,,,,,,,,,,,,,,,,,1,6.3239,,0,0,55,55,60,1,stimuli/stim_20210919_power2amp/equal_lnn_AM2Hz_s55_35.m4a,,,,,,,,,,,,
,,,,,,,,,,,,41993,2021-10-01_13h12.27.637,judgeSpeechMusic_20210919_logNormShiftAmp_detection_fixFreq,2020.1.2,Win32,60,,,,,,,,,,,,,,,,,,1,7.8051,,0,0,56,56,29,1,stimuli/stim_20210919_power2amp/equal_lnn_AM2Hz_s25_1.m4a,,,,,,,,,,,,
,,,,,,,,,,,,41993,2021-10-01_13h12.27.637,judgeSpeechMusic_20210919_logNormShiftAmp_detection_fixFreq,2020.1.2,Win32,60,,,,,,,,,,,,,,,,,,1,8.2369,,0,0,57,57,57,1,stimuli/stim_20210919_power2amp/equal_lnn_AM2Hz_s45_15.m4a,,,,,,,,,,,,
,,,,,,,,,,,,41993,2021-10-01_13h12.27.637,judgeSpeechMusic_20210919_logNormShiftAmp_detection_fixFreq,2020.1.2,Win32,60,,,,,,,,,,,,,,,,,,1,7.5245,,0,0,58,58,30,1,stimuli/stim_20210919_power2amp/equal_lnn_AM2Hz_s35_37.m4a,,,,,,,,,,,,
,,,,,,,,,,,,41993,2021-10-01_13h12.27.637,judgeSpeechMusic_20210919_logNormShiftAmp_detection_fixFreq,2020.1.2,Win32,60,,,,,,,,,,,,,,,,,,1,8.0193,,0,0,59,59,58,1,stimuli/stim_20210919_power2amp/equal_lnn_AM2Hz_s45_5.m4a,,,,,,,,,,,,
,,,,,,,,,,,,41993,2021-10-01_13h12.27.637,judgeSpeechMusic_20210919_logNormShiftAmp_detection_fixFreq,2020.1.2,Win32,60,,,,,,,,,,,,,,,,,,1,6.0694,4,1,0,60,60,4,1,stimuli/stim_20210919_power2amp/equal_lnn_AM2Hz_s15_4.m4a,2.6239,,,,,,,,,,,
,,,,,,,,,,,,41993,2021-10-01_13h12.27.637,judgeSpeechMusic_20210919_logNormShiftAmp_detection_fixFreq,2020.1.2,Win32,60,,,,,,,,,,,,,,,,,,1,6.2128,,0,0,61,61,61,1,stimuli/stim_20210919_power2amp/equal_lnn_AM2Hz_s55_8.m4a,,,,,,,,,,,,
,,,,,,,,,,,,41993,2021-10-01_13h12.27.637,judgeSpeechMusic_20210919_logNormShiftAmp_detection_fixFreq,2020.1.2,Win32,60,,,,,,,,,,,,,,,,,,1,6.1419,,0,0,62,62,67,1,stimuli/stim_20210919_power2amp/equal_lnn_AM2Hz_s55_44.m4a,,,,,,,,,,,,
,,,,,,,,,,,,41993,2021-10-01_13h12.27.637,judgeSpeechMusic_20210919_logNormShiftAmp_detection_fixFreq,2020.1.2,Win32,60,,,,,,,,,,,,,,,,,,1,6.4249,,0,0,63,63,8,1,stimuli/stim_20210919_power2amp/equal_lnn_AM2Hz_s15_48.m4a,,,,,,,,,,,,
,,,,,,,,,,,,41993,2021-10-01_13h12.27.637,judgeSpeechMusic_20210919_logNormShiftAmp_detection_fixFreq,2020.1.2,Win32,60,,,,,,,,,,,,,,,,,,1,8.1522,,0,0,64,64,26,1,stimuli/stim_20210919_power2amp/equal_lnn_AM2Hz_s25_16.m4a,,,,,,,,,,,,
,,,,,,,,,,,,41993,2021-10-01_13h12.27.637,judgeSpeechMusic_20210919_logNormShiftAmp_detection_fixFreq,2020.1.2,Win32,60,,,,,,,,,,,,,,,,,,1,6.0751,,0,0,65,65,45,1,stimuli/stim_20210919_power2amp/equal_lnn_AM2Hz_s45_21.m4a,,,,,,,,,,,,
,,,,,,,,,,,,41993,2021-10-01_13h12.27.637,judgeSpeechMusic_20210919_logNormShiftAmp_detection_fixFreq,2020.1.2,Win32,60,,,,,,,,,,,,,,,,,,1,10.5014,,0,0,66,66,42,1,stimuli/stim_20210919_power2amp/equal_lnn_AM2Hz_s35_35.m4a,,,,,,,,,,,,
,,,,,,,,,,,,41993,2021-10-01_13h12.27.637,judgeSpeechMusic_20210919_logNormShiftAmp_detection_fixFreq,2020.1.2,Win32,60,,,,,,,,,,,,,,,,,,1,14.4468,,0,0,67,67,10,1,stimuli/stim_20210919_power2amp/equal_lnn_AM2Hz_s15_27.m4a,,,,,,,,,,,,
,,,,,,,,,,,,41993,2021-10-01_13h12.27.637,judgeSpeechMusic_20210919_logNormShiftAmp_detection_fixFreq,2020.1.2,Win32,60,,,,,,,,,,,,,,,,,,1,11.2054,,0,0,68,68,48,1,stimuli/stim_20210919_power2amp/equal_lnn_AM2Hz_s45_39.m4a,,,,,,,,,,,,
,,,,,,,,,,,,41993,2021-10-01_13h12.27.637,judgeSpeechMusic_20210919_logNormShiftAmp_detection_fixFreq,2020.1.2,Win32,60,,,,,,,,,,,,,,,,,,1,17.1487,,0,0,69,69,41,1,stimuli/stim_20210919_power2amp/equal_lnn_AM2Hz_s35_4.m4a,,,,,,,,,,,,
,,,,,,,,,,,,41993,2021-10-01_13h12.27.637,judgeSpeechMusic_20210919_logNormShiftAmp_detection_fixFreq,2020.1.2,Win32,60,,,,,,,,,,,,,,,,,,1,7.0584,,0,0,70,70,24,1,stimuli/stim_20210919_power2amp/equal_lnn_AM2Hz_s25_33.m4a,,,,,,,,,,,,
,,,,,,,,,,,,41993,2021-10-01_13h12.27.637,judgeSpeechMusic_20210919_logNormShiftAmp_detection_fixFreq,2020.1.2,Win32,60,,,,,,,,,,,,,,,,,,1,7.8558,,0,0,71,71,33,1,stimuli/stim_20210919_power2amp/equal_lnn_AM2Hz_s35_13.m4a,,,,,,,,,,,,
,,,,,,,,,,,,41993,2021-10-01_13h12.27.637,judgeSpeechMusic_20210919_logNormShiftAmp_detection_fixFreq,2020.1.2,Win32,60,,,,,,,,,,,,,,,,,,1,5.9433,,0,0,72,72,21,1,stimuli/stim_20210919_power2amp/equal_lnn_AM2Hz_s25_49.m4a,,,,,,,,,,,,
,,,,,,,,,,,,41993,2021-10-01_13h12.27.637,judgeSpeechMusic_20210919_logNormShiftAmp_detection_fixFreq,2020.1.2,Win32,60,,,,,,,,,,,,,,,,,,1,9.4582,,0,0,73,73,28,1,stimuli/stim_20210919_power2amp/equal_lnn_AM2Hz_s25_46.m4a,,,,,,,,,,,,
,,,,,,,,,,,,41993,2021-10-01_13h12.27.637,judgeSpeechMusic_20210919_logNormShiftAmp_detection_fixFreq,2020.1.2,Win32,60,,,,,,,,,,,,,,,,,,1,7.3897,,0,0,74,74,31,1,stimuli/stim_20210919_power2amp/equal_lnn_AM2Hz_s35_10.m4a,,,,,,,,,,,,
,,,,,,,,,,,,41993,2021-10-01_13h12.27.637,judgeSpeechMusic_20210919_logNormShiftAmp_detection_fixFreq,2020.1.2,Win32,60,,,,,,,,,,,,,,,,,,,,,,,,,,,,,,,1,1,3,0,1,MUSIC,stimuli/MUSIC.jpg,,
,,,,,,,,,,,,41993,2021-10-01_13h12.27.637,judgeSpeechMusic_20210919_logNormShiftAmp_detection_fixFreq,2020.1.2,Win32,60,,,,,,,,,,,,,,,,,,,,,,,,,,,,,,,,,,,,,,space,24.4684
