volAdjustRep.thisRepN,volAdjustRep.thisTrialN,volAdjustRep.thisN,volAdjustRep.thisIndex,volAdjustRep.ran,participant,date,expName,psychopyVersion,OS,frameRate,headphoneResponse.keys,headphoneResponse.corr,headphoneResponse.rt,headphoneTrial.thisRepN,headphoneTrial.thisTrialN,headphoneTrial.thisN,headphoneTrial.thisIndex,headphoneTrial.ran,headphone_sound1,headphone_sound2,headphone_sound3,corrAns,checkInstruKey.keys,checkInstruKey.rt,trainSlider.response,trainSlider.rt,beepTrainResponse.keys,beepTrainResponse.corr,trainingTrials.thisRepN,trainingTrials.thisTrialN,trainingTrials.thisN,trainingTrials.thisIndex,trainingTrials.ran,trainAudioFile,beepTrainResponse.rt,readyReal_resp.keys,readyReal_resp.rt,checkInstru2_key.keys,checkInstru2_key.rt,ratingSlider.response,ratingSlider.rt,beepResp.keys,beepResp.corr,expTrials.thisRepN,expTrials.thisTrialN,expTrials.thisN,expTrials.thisIndex,expTrials.ran,audioFile,beepResp.rt,switchBlock_space.keys,switchBlock_space.rt,block.thisRepN,block.thisTrialN,block.thisN,block.thisIndex,block.ran,blockName,blockImage,end_resp.keys,end_resp.rt
0,0,0,0,1,42027,2021-10-10_20h37.06.387,judgeSpeechMusic_20210919_logNormShiftAmp_detection_fixFreq,2020.1.2,MacIntel,60,,,,,,,,,,,,,,,,,,,,,,,,,,,,,,,,,,,,,,,,,,,,,,,,,,,
,,,,,42027,2021-10-10_20h37.06.387,judgeSpeechMusic_20210919_logNormShiftAmp_detection_fixFreq,2020.1.2,MacIntel,60,3,1,1.3079,0,0,0,2,1,stimuli/screen_origin.wav,stimuli/screen_antiphase.wav,stimuli/screen_quiet.wav,3,,,,,,,,,,,,,,,,,,,,,,,,,,,,,,,,,,,,,,,
,,,,,42027,2021-10-10_20h37.06.387,judgeSpeechMusic_20210919_logNormShiftAmp_detection_fixFreq,2020.1.2,MacIntel,60,2,1,0.7681,0,1,1,3,1,stimuli/screen_origin.wav,stimuli/screen_quiet.wav,stimuli/screen_antiphase.wav,2,,,,,,,,,,,,,,,,,,,,,,,,,,,,,,,,,,,,,,,
,,,,,42027,2021-10-10_20h37.06.387,judgeSpeechMusic_20210919_logNormShiftAmp_detection_fixFreq,2020.1.2,MacIntel,60,2,1,0.6064,0,2,2,1,1,stimuli/screen_antiphase.wav,stimuli/screen_quiet.wav,stimuli/screen_origin.wav,2,,,,,,,,,,,,,,,,,,,,,,,,,,,,,,,,,,,,,,,
,,,,,42027,2021-10-10_20h37.06.387,judgeSpeechMusic_20210919_logNormShiftAmp_detection_fixFreq,2020.1.2,MacIntel,60,1,1,0.3902,0,3,3,5,1,stimuli/screen_quiet.wav,stimuli/screen_origin.wav,stimuli/screen_antiphase.wav,1,,,,,,,,,,,,,,,,,,,,,,,,,,,,,,,,,,,,,,,
,,,,,42027,2021-10-10_20h37.06.387,judgeSpeechMusic_20210919_logNormShiftAmp_detection_fixFreq,2020.1.2,MacIntel,60,3,1,0.4665,0,4,4,0,1,stimuli/screen_antiphase.wav,stimuli/screen_origin.wav,stimuli/screen_quiet.wav,3,,,,,,,,,,,,,,,,,,,,,,,,,,,,,,,,,,,,,,,
,,,,,42027,2021-10-10_20h37.06.387,judgeSpeechMusic_20210919_logNormShiftAmp_detection_fixFreq,2020.1.2,MacIntel,60,1,1,0.3118,0,5,5,4,1,stimuli/screen_quiet.wav,stimuli/screen_antiphase.wav,stimuli/screen_origin.wav,1,,,,,,,,,,,,,,,,,,,,,,,,,,,,,,,,,,,,,,,
,,,,,42027,2021-10-10_20h37.06.387,judgeSpeechMusic_20210919_logNormShiftAmp_detection_fixFreq,2020.1.2,MacIntel,60,,,,,,,,,,,,,space,2.8333,1,12.4348,,0,0,0,0,2,1,stimuli/stim_20210919_power2amp/equal_lnn_AM_training2Hz_s40.m4a,,,,,,,,,,,,,,,,,,,,,,,,,,,
,,,,,42027,2021-10-10_20h37.06.387,judgeSpeechMusic_20210919_logNormShiftAmp_detection_fixFreq,2020.1.2,MacIntel,60,,,,,,,,,,,,,,,2,8.7911,,0,0,1,1,1,1,stimuli/stim_20210919_power2amp/equal_lnn_AM_training2Hz_s30.m4a,,,,,,,,,,,,,,,,,,,,,,,,,,,
,,,,,42027,2021-10-10_20h37.06.387,judgeSpeechMusic_20210919_logNormShiftAmp_detection_fixFreq,2020.1.2,MacIntel,60,,,,,,,,,,,,,,,2,7.0451,4,0,0,2,2,3,1,stimuli/stim_20210919_power2amp/equal_lnn_AM_training2Hz_s50.m4a,3.7653,,,,,,,,,,,,,,,,,,,,,,,,,,
,,,,,42027,2021-10-10_20h37.06.387,judgeSpeechMusic_20210919_logNormShiftAmp_detection_fixFreq,2020.1.2,MacIntel,60,,,,,,,,,,,,,,,1,7.1249,,0,0,3,3,0,1,stimuli/stim_20210919_power2amp/equal_lnn_AM_training2Hz_s20.m4a,,,,,,,,,,,,,,,,,,,,,,,,,,,
,,,,,42027,2021-10-10_20h37.06.387,judgeSpeechMusic_20210919_logNormShiftAmp_detection_fixFreq,2020.1.2,MacIntel,60,,,,,,,,,,,,,,,,,,,,,,,,,,space,5.4535,space,0.7149,1,5.9688,,0,0,0,0,53,1,stimuli/stim_20210919_power2amp/equal_lnn_AM2Hz_s45_26.m4a,,,,,,,,,,,,
,,,,,42027,2021-10-10_20h37.06.387,judgeSpeechMusic_20210919_logNormShiftAmp_detection_fixFreq,2020.1.2,MacIntel,60,,,,,,,,,,,,,,,,,,,,,,,,,,,,,,1,5.9257,,0,0,1,1,43,1,stimuli/stim_20210919_power2amp/equal_lnn_AM2Hz_s35_1.m4a,,,,,,,,,,,,
,,,,,42027,2021-10-10_20h37.06.387,judgeSpeechMusic_20210919_logNormShiftAmp_detection_fixFreq,2020.1.2,MacIntel,60,,,,,,,,,,,,,,,,,,,,,,,,,,,,,,2,6.6569,,0,0,2,2,21,1,stimuli/stim_20210919_power2amp/equal_lnn_AM2Hz_s25_11.m4a,,,,,,,,,,,,
,,,,,42027,2021-10-10_20h37.06.387,judgeSpeechMusic_20210919_logNormShiftAmp_detection_fixFreq,2020.1.2,MacIntel,60,,,,,,,,,,,,,,,,,,,,,,,,,,,,,,2,6.0109,,0,0,3,3,11,1,stimuli/stim_20210919_power2amp/equal_lnn_AM2Hz_s15_32.m4a,,,,,,,,,,,,
,,,,,42027,2021-10-10_20h37.06.387,judgeSpeechMusic_20210919_logNormShiftAmp_detection_fixFreq,2020.1.2,MacIntel,60,,,,,,,,,,,,,,,,,,,,,,,,,,,,,,1,10.0798,,0,0,4,4,66,1,stimuli/stim_20210919_power2amp/equal_lnn_AM2Hz_s55_23.m4a,,,,,,,,,,,,
,,,,,42027,2021-10-10_20h37.06.387,judgeSpeechMusic_20210919_logNormShiftAmp_detection_fixFreq,2020.1.2,MacIntel,60,,,,,,,,,,,,,,,,,,,,,,,,,,,,,,2,6.1429,,0,0,5,5,63,1,stimuli/stim_20210919_power2amp/equal_lnn_AM2Hz_s55_37.m4a,,,,,,,,,,,,
,,,,,42027,2021-10-10_20h37.06.387,judgeSpeechMusic_20210919_logNormShiftAmp_detection_fixFreq,2020.1.2,MacIntel,60,,,,,,,,,,,,,,,,,,,,,,,,,,,,,,1,6.1578,,0,0,6,6,44,1,stimuli/stim_20210919_power2amp/equal_lnn_AM2Hz_s35_13.m4a,,,,,,,,,,,,
,,,,,42027,2021-10-10_20h37.06.387,judgeSpeechMusic_20210919_logNormShiftAmp_detection_fixFreq,2020.1.2,MacIntel,60,,,,,,,,,,,,,,,,,,,,,,,,,,,,,,1,6.4775,,0,0,7,7,72,1,stimuli/stim_20210919_power2amp/equal_lnn_AM2Hz_s55_31.m4a,,,,,,,,,,,,
,,,,,42027,2021-10-10_20h37.06.387,judgeSpeechMusic_20210919_logNormShiftAmp_detection_fixFreq,2020.1.2,MacIntel,60,,,,,,,,,,,,,,,,,,,,,,,,,,,,,,2,19.9384,,0,0,8,8,10,1,stimuli/stim_20210919_power2amp/equal_lnn_AM2Hz_s15_28.m4a,,,,,,,,,,,,
,,,,,42027,2021-10-10_20h37.06.387,judgeSpeechMusic_20210919_logNormShiftAmp_detection_fixFreq,2020.1.2,MacIntel,60,,,,,,,,,,,,,,,,,,,,,,,,,,,,,,2,26.3311,,0,0,9,9,73,1,stimuli/stim_20210919_power2amp/equal_lnn_AM2Hz_s55_45.m4a,,,,,,,,,,,,
,,,,,42027,2021-10-10_20h37.06.387,judgeSpeechMusic_20210919_logNormShiftAmp_detection_fixFreq,2020.1.2,MacIntel,60,,,,,,,,,,,,,,,,,,,,,,,,,,,,,,1,6.6778,,0,0,10,10,30,1,stimuli/stim_20210919_power2amp/equal_lnn_AM2Hz_s35_24.m4a,,,,,,,,,,,,
,,,,,42027,2021-10-10_20h37.06.387,judgeSpeechMusic_20210919_logNormShiftAmp_detection_fixFreq,2020.1.2,MacIntel,60,,,,,,,,,,,,,,,,,,,,,,,,,,,,,,1,8.6447,,0,0,11,11,5,1,stimuli/stim_20210919_power2amp/equal_lnn_AM2Hz_s15_25.m4a,,,,,,,,,,,,
,,,,,42027,2021-10-10_20h37.06.387,judgeSpeechMusic_20210919_logNormShiftAmp_detection_fixFreq,2020.1.2,MacIntel,60,,,,,,,,,,,,,,,,,,,,,,,,,,,,,,2,6.4749,,0,0,12,12,24,1,stimuli/stim_20210919_power2amp/equal_lnn_AM2Hz_s25_18.m4a,,,,,,,,,,,,
,,,,,42027,2021-10-10_20h37.06.387,judgeSpeechMusic_20210919_logNormShiftAmp_detection_fixFreq,2020.1.2,MacIntel,60,,,,,,,,,,,,,,,,,,,,,,,,,,,,,,2,5.9273,,0,0,13,13,29,1,stimuli/stim_20210919_power2amp/equal_lnn_AM2Hz_s25_49.m4a,,,,,,,,,,,,
,,,,,42027,2021-10-10_20h37.06.387,judgeSpeechMusic_20210919_logNormShiftAmp_detection_fixFreq,2020.1.2,MacIntel,60,,,,,,,,,,,,,,,,,,,,,,,,,,,,,,2,5.8645,,0,0,14,14,35,1,stimuli/stim_20210919_power2amp/equal_lnn_AM2Hz_s35_47.m4a,,,,,,,,,,,,
,,,,,42027,2021-10-10_20h37.06.387,judgeSpeechMusic_20210919_logNormShiftAmp_detection_fixFreq,2020.1.2,MacIntel,60,,,,,,,,,,,,,,,,,,,,,,,,,,,,,,1,5.874,,0,0,15,15,46,1,stimuli/stim_20210919_power2amp/equal_lnn_AM2Hz_s45_32.m4a,,,,,,,,,,,,
,,,,,42027,2021-10-10_20h37.06.387,judgeSpeechMusic_20210919_logNormShiftAmp_detection_fixFreq,2020.1.2,MacIntel,60,,,,,,,,,,,,,,,,,,,,,,,,,,,,,,1,5.9643,,0,0,16,16,25,1,stimuli/stim_20210919_power2amp/equal_lnn_AM2Hz_s25_22.m4a,,,,,,,,,,,,
,,,,,42027,2021-10-10_20h37.06.387,judgeSpeechMusic_20210919_logNormShiftAmp_detection_fixFreq,2020.1.2,MacIntel,60,,,,,,,,,,,,,,,,,,,,,,,,,,,,,,1,6.317,,0,0,17,17,0,1,stimuli/stim_20210919_power2amp/equal_lnn_AM2Hz_s15_13.m4a,,,,,,,,,,,,
,,,,,42027,2021-10-10_20h37.06.387,judgeSpeechMusic_20210919_logNormShiftAmp_detection_fixFreq,2020.1.2,MacIntel,60,,,,,,,,,,,,,,,,,,,,,,,,,,,,,,2,6.1645,4,1,0,18,18,34,1,stimuli/stim_20210919_power2amp/equal_lnn_AM2Hz_s35_21.m4a,2.1712,,,,,,,,,,,
,,,,,42027,2021-10-10_20h37.06.387,judgeSpeechMusic_20210919_logNormShiftAmp_detection_fixFreq,2020.1.2,MacIntel,60,,,,,,,,,,,,,,,,,,,,,,,,,,,,,,2,5.9935,,0,0,19,19,26,1,stimuli/stim_20210919_power2amp/equal_lnn_AM2Hz_s25_33.m4a,,,,,,,,,,,,
,,,,,42027,2021-10-10_20h37.06.387,judgeSpeechMusic_20210919_logNormShiftAmp_detection_fixFreq,2020.1.2,MacIntel,60,,,,,,,,,,,,,,,,,,,,,,,,,,,,,,1,6.9973,,0,0,20,20,14,1,stimuli/stim_20210919_power2amp/equal_lnn_AM2Hz_s15_50.m4a,,,,,,,,,,,,
,,,,,42027,2021-10-10_20h37.06.387,judgeSpeechMusic_20210919_logNormShiftAmp_detection_fixFreq,2020.1.2,MacIntel,60,,,,,,,,,,,,,,,,,,,,,,,,,,,,,,2,7.005,,0,0,21,21,9,1,stimuli/stim_20210919_power2amp/equal_lnn_AM2Hz_s15_5.m4a,,,,,,,,,,,,
,,,,,42027,2021-10-10_20h37.06.387,judgeSpeechMusic_20210919_logNormShiftAmp_detection_fixFreq,2020.1.2,MacIntel,60,,,,,,,,,,,,,,,,,,,,,,,,,,,,,,2,6.0133,,0,0,22,22,23,1,stimuli/stim_20210919_power2amp/equal_lnn_AM2Hz_s25_13.m4a,,,,,,,,,,,,
,,,,,42027,2021-10-10_20h37.06.387,judgeSpeechMusic_20210919_logNormShiftAmp_detection_fixFreq,2020.1.2,MacIntel,60,,,,,,,,,,,,,,,,,,,,,,,,,,,,,,2,6.3653,,0,0,23,23,12,1,stimuli/stim_20210919_power2amp/equal_lnn_AM2Hz_s15_9.m4a,,,,,,,,,,,,
,,,,,42027,2021-10-10_20h37.06.387,judgeSpeechMusic_20210919_logNormShiftAmp_detection_fixFreq,2020.1.2,MacIntel,60,,,,,,,,,,,,,,,,,,,,,,,,,,,,,,1,8.5533,,0,0,24,24,55,1,stimuli/stim_20210919_power2amp/equal_lnn_AM2Hz_s45_39.m4a,,,,,,,,,,,,
,,,,,42027,2021-10-10_20h37.06.387,judgeSpeechMusic_20210919_logNormShiftAmp_detection_fixFreq,2020.1.2,MacIntel,60,,,,,,,,,,,,,,,,,,,,,,,,,,,,,,1,6.8358,,0,0,25,25,18,1,stimuli/stim_20210919_power2amp/equal_lnn_AM2Hz_s25_32.m4a,,,,,,,,,,,,
,,,,,42027,2021-10-10_20h37.06.387,judgeSpeechMusic_20210919_logNormShiftAmp_detection_fixFreq,2020.1.2,MacIntel,60,,,,,,,,,,,,,,,,,,,,,,,,,,,,,,2,7.0506,,0,0,26,26,45,1,stimuli/stim_20210919_power2amp/equal_lnn_AM2Hz_s45_6.m4a,,,,,,,,,,,,
,,,,,42027,2021-10-10_20h37.06.387,judgeSpeechMusic_20210919_logNormShiftAmp_detection_fixFreq,2020.1.2,MacIntel,60,,,,,,,,,,,,,,,,,,,,,,,,,,,,,,1,7.0796,,0,0,27,27,33,1,stimuli/stim_20210919_power2amp/equal_lnn_AM2Hz_s35_25.m4a,,,,,,,,,,,,
,,,,,42027,2021-10-10_20h37.06.387,judgeSpeechMusic_20210919_logNormShiftAmp_detection_fixFreq,2020.1.2,MacIntel,60,,,,,,,,,,,,,,,,,,,,,,,,,,,,,,1,9.9861,,0,0,28,28,37,1,stimuli/stim_20210919_power2amp/equal_lnn_AM2Hz_s35_45.m4a,,,,,,,,,,,,
,,,,,42027,2021-10-10_20h37.06.387,judgeSpeechMusic_20210919_logNormShiftAmp_detection_fixFreq,2020.1.2,MacIntel,60,,,,,,,,,,,,,,,,,,,,,,,,,,,,,,2,6.4417,,0,0,29,29,61,1,stimuli/stim_20210919_power2amp/equal_lnn_AM2Hz_s55_36.m4a,,,,,,,,,,,,
,,,,,42027,2021-10-10_20h37.06.387,judgeSpeechMusic_20210919_logNormShiftAmp_detection_fixFreq,2020.1.2,MacIntel,60,,,,,,,,,,,,,,,,,,,,,,,,,,,,,,1,6.1663,,0,0,30,30,19,1,stimuli/stim_20210919_power2amp/equal_lnn_AM2Hz_s25_12.m4a,,,,,,,,,,,,
,,,,,42027,2021-10-10_20h37.06.387,judgeSpeechMusic_20210919_logNormShiftAmp_detection_fixFreq,2020.1.2,MacIntel,60,,,,,,,,,,,,,,,,,,,,,,,,,,,,,,1,7.6639,,0,0,31,31,74,1,stimuli/stim_20210919_power2amp/equal_lnn_AM2Hz_s55_25.m4a,,,,,,,,,,,,
,,,,,42027,2021-10-10_20h37.06.387,judgeSpeechMusic_20210919_logNormShiftAmp_detection_fixFreq,2020.1.2,MacIntel,60,,,,,,,,,,,,,,,,,,,,,,,,,,,,,,1,23.8814,,0,0,32,32,22,1,stimuli/stim_20210919_power2amp/equal_lnn_AM2Hz_s25_2.m4a,,,,,,,,,,,,
,,,,,42027,2021-10-10_20h37.06.387,judgeSpeechMusic_20210919_logNormShiftAmp_detection_fixFreq,2020.1.2,MacIntel,60,,,,,,,,,,,,,,,,,,,,,,,,,,,,,,2,6.2691,,0,0,33,33,52,1,stimuli/stim_20210919_power2amp/equal_lnn_AM2Hz_s45_49.m4a,,,,,,,,,,,,
,,,,,42027,2021-10-10_20h37.06.387,judgeSpeechMusic_20210919_logNormShiftAmp_detection_fixFreq,2020.1.2,MacIntel,60,,,,,,,,,,,,,,,,,,,,,,,,,,,,,,2,5.9304,,0,0,34,34,3,1,stimuli/stim_20210919_power2amp/equal_lnn_AM2Hz_s15_46.m4a,,,,,,,,,,,,
,,,,,42027,2021-10-10_20h37.06.387,judgeSpeechMusic_20210919_logNormShiftAmp_detection_fixFreq,2020.1.2,MacIntel,60,,,,,,,,,,,,,,,,,,,,,,,,,,,,,,2,5.8947,,0,0,35,35,71,1,stimuli/stim_20210919_power2amp/equal_lnn_AM2Hz_s55_14.m4a,,,,,,,,,,,,
,,,,,42027,2021-10-10_20h37.06.387,judgeSpeechMusic_20210919_logNormShiftAmp_detection_fixFreq,2020.1.2,MacIntel,60,,,,,,,,,,,,,,,,,,,,,,,,,,,,,,1,6.6457,,0,0,36,36,62,1,stimuli/stim_20210919_power2amp/equal_lnn_AM2Hz_s55_35.m4a,,,,,,,,,,,,
,,,,,42027,2021-10-10_20h37.06.387,judgeSpeechMusic_20210919_logNormShiftAmp_detection_fixFreq,2020.1.2,MacIntel,60,,,,,,,,,,,,,,,,,,,,,,,,,,,,,,1,5.7833,4,1,0,37,37,70,1,stimuli/stim_20210919_power2amp/equal_lnn_AM2Hz_s55_7.m4a,1.2461,,,,,,,,,,,
,,,,,42027,2021-10-10_20h37.06.387,judgeSpeechMusic_20210919_logNormShiftAmp_detection_fixFreq,2020.1.2,MacIntel,60,,,,,,,,,,,,,,,,,,,,,,,,,,,,,,1,5.5906,,0,0,38,38,7,1,stimuli/stim_20210919_power2amp/equal_lnn_AM2Hz_s15_8.m4a,,,,,,,,,,,,
,,,,,42027,2021-10-10_20h37.06.387,judgeSpeechMusic_20210919_logNormShiftAmp_detection_fixFreq,2020.1.2,MacIntel,60,,,,,,,,,,,,,,,,,,,,,,,,,,,,,,1,6.5018,,0,0,39,39,20,1,stimuli/stim_20210919_power2amp/equal_lnn_AM2Hz_s25_47.m4a,,,,,,,,,,,,
,,,,,42027,2021-10-10_20h37.06.387,judgeSpeechMusic_20210919_logNormShiftAmp_detection_fixFreq,2020.1.2,MacIntel,60,,,,,,,,,,,,,,,,,,,,,,,,,,,,,,2,5.9544,,0,0,40,40,68,1,stimuli/stim_20210919_power2amp/equal_lnn_AM2Hz_s55_19.m4a,,,,,,,,,,,,
,,,,,42027,2021-10-10_20h37.06.387,judgeSpeechMusic_20210919_logNormShiftAmp_detection_fixFreq,2020.1.2,MacIntel,60,,,,,,,,,,,,,,,,,,,,,,,,,,,,,,2,5.6791,,0,0,41,41,38,1,stimuli/stim_20210919_power2amp/equal_lnn_AM2Hz_s35_10.m4a,,,,,,,,,,,,
,,,,,42027,2021-10-10_20h37.06.387,judgeSpeechMusic_20210919_logNormShiftAmp_detection_fixFreq,2020.1.2,MacIntel,60,,,,,,,,,,,,,,,,,,,,,,,,,,,,,,2,6.3639,,0,0,42,42,1,1,stimuli/stim_20210919_power2amp/equal_lnn_AM2Hz_s15_19.m4a,,,,,,,,,,,,
,,,,,42027,2021-10-10_20h37.06.387,judgeSpeechMusic_20210919_logNormShiftAmp_detection_fixFreq,2020.1.2,MacIntel,60,,,,,,,,,,,,,,,,,,,,,,,,,,,,,,1,6.6288,,0,0,43,43,48,1,stimuli/stim_20210919_power2amp/equal_lnn_AM2Hz_s45_40.m4a,,,,,,,,,,,,
,,,,,42027,2021-10-10_20h37.06.387,judgeSpeechMusic_20210919_logNormShiftAmp_detection_fixFreq,2020.1.2,MacIntel,60,,,,,,,,,,,,,,,,,,,,,,,,,,,,,,1,5.6633,,0,0,44,44,54,1,stimuli/stim_20210919_power2amp/equal_lnn_AM2Hz_s45_13.m4a,,,,,,,,,,,,
,,,,,42027,2021-10-10_20h37.06.387,judgeSpeechMusic_20210919_logNormShiftAmp_detection_fixFreq,2020.1.2,MacIntel,60,,,,,,,,,,,,,,,,,,,,,,,,,,,,,,1,5.8774,,0,0,45,45,50,1,stimuli/stim_20210919_power2amp/equal_lnn_AM2Hz_s45_29.m4a,,,,,,,,,,,,
,,,,,42027,2021-10-10_20h37.06.387,judgeSpeechMusic_20210919_logNormShiftAmp_detection_fixFreq,2020.1.2,MacIntel,60,,,,,,,,,,,,,,,,,,,,,,,,,,,,,,2,7.7421,,0,0,46,46,41,1,stimuli/stim_20210919_power2amp/equal_lnn_AM2Hz_s35_19.m4a,,,,,,,,,,,,
,,,,,42027,2021-10-10_20h37.06.387,judgeSpeechMusic_20210919_logNormShiftAmp_detection_fixFreq,2020.1.2,MacIntel,60,,,,,,,,,,,,,,,,,,,,,,,,,,,,,,1,6.6866,,0,0,47,47,36,1,stimuli/stim_20210919_power2amp/equal_lnn_AM2Hz_s35_9.m4a,,,,,,,,,,,,
,,,,,42027,2021-10-10_20h37.06.387,judgeSpeechMusic_20210919_logNormShiftAmp_detection_fixFreq,2020.1.2,MacIntel,60,,,,,,,,,,,,,,,,,,,,,,,,,,,,,,1,5.9619,,0,0,48,48,67,1,stimuli/stim_20210919_power2amp/equal_lnn_AM2Hz_s55_47.m4a,,,,,,,,,,,,
,,,,,42027,2021-10-10_20h37.06.387,judgeSpeechMusic_20210919_logNormShiftAmp_detection_fixFreq,2020.1.2,MacIntel,60,,,,,,,,,,,,,,,,,,,,,,,,,,,,,,2,8.2159,,0,0,49,49,49,1,stimuli/stim_20210919_power2amp/equal_lnn_AM2Hz_s45_27.m4a,,,,,,,,,,,,
,,,,,42027,2021-10-10_20h37.06.387,judgeSpeechMusic_20210919_logNormShiftAmp_detection_fixFreq,2020.1.2,MacIntel,60,,,,,,,,,,,,,,,,,,,,,,,,,,,,,,2,5.5942,,0,0,50,50,4,1,stimuli/stim_20210919_power2amp/equal_lnn_AM2Hz_s15_20.m4a,,,,,,,,,,,,
,,,,,42027,2021-10-10_20h37.06.387,judgeSpeechMusic_20210919_logNormShiftAmp_detection_fixFreq,2020.1.2,MacIntel,60,,,,,,,,,,,,,,,,,,,,,,,,,,,,,,2,5.8257,,0,0,51,51,60,1,stimuli/stim_20210919_power2amp/equal_lnn_AM2Hz_s55_29.m4a,,,,,,,,,,,,
,,,,,42027,2021-10-10_20h37.06.387,judgeSpeechMusic_20210919_logNormShiftAmp_detection_fixFreq,2020.1.2,MacIntel,60,,,,,,,,,,,,,,,,,,,,,,,,,,,,,,1,6.2815,,0,0,52,52,31,1,stimuli/stim_20210919_power2amp/equal_lnn_AM2Hz_s35_34.m4a,,,,,,,,,,,,
,,,,,42027,2021-10-10_20h37.06.387,judgeSpeechMusic_20210919_logNormShiftAmp_detection_fixFreq,2020.1.2,MacIntel,60,,,,,,,,,,,,,,,,,,,,,,,,,,,,,,1,5.5998,,0,0,53,53,65,1,stimuli/stim_20210919_power2amp/equal_lnn_AM2Hz_s55_48.m4a,,,,,,,,,,,,
,,,,,42027,2021-10-10_20h37.06.387,judgeSpeechMusic_20210919_logNormShiftAmp_detection_fixFreq,2020.1.2,MacIntel,60,,,,,,,,,,,,,,,,,,,,,,,,,,,,,,2,6.6666,,0,0,54,54,58,1,stimuli/stim_20210919_power2amp/equal_lnn_AM2Hz_s45_37.m4a,,,,,,,,,,,,
,,,,,42027,2021-10-10_20h37.06.387,judgeSpeechMusic_20210919_logNormShiftAmp_detection_fixFreq,2020.1.2,MacIntel,60,,,,,,,,,,,,,,,,,,,,,,,,,,,,,,1,6.0467,1,1,0,55,55,56,1,stimuli/stim_20210919_power2amp/equal_lnn_AM2Hz_s45_17.m4a,1.4016,,,,,,,,,,,
,,,,,42027,2021-10-10_20h37.06.387,judgeSpeechMusic_20210919_logNormShiftAmp_detection_fixFreq,2020.1.2,MacIntel,60,,,,,,,,,,,,,,,,,,,,,,,,,,,,,,1,5.7152,,0,0,56,56,17,1,stimuli/stim_20210919_power2amp/equal_lnn_AM2Hz_s25_35.m4a,,,,,,,,,,,,
,,,,,42027,2021-10-10_20h37.06.387,judgeSpeechMusic_20210919_logNormShiftAmp_detection_fixFreq,2020.1.2,MacIntel,60,,,,,,,,,,,,,,,,,,,,,,,,,,,,,,2,6.7813,,0,0,57,57,8,1,stimuli/stim_20210919_power2amp/equal_lnn_AM2Hz_s15_23.m4a,,,,,,,,,,,,
,,,,,42027,2021-10-10_20h37.06.387,judgeSpeechMusic_20210919_logNormShiftAmp_detection_fixFreq,2020.1.2,MacIntel,60,,,,,,,,,,,,,,,,,,,,,,,,,,,,,,1,6.5318,,0,0,58,58,39,1,stimuli/stim_20210919_power2amp/equal_lnn_AM2Hz_s35_17.m4a,,,,,,,,,,,,
,,,,,42027,2021-10-10_20h37.06.387,judgeSpeechMusic_20210919_logNormShiftAmp_detection_fixFreq,2020.1.2,MacIntel,60,,,,,,,,,,,,,,,,,,,,,,,,,,,,,,1,14.4477,,0,0,59,59,47,1,stimuli/stim_20210919_power2amp/equal_lnn_AM2Hz_s45_22.m4a,,,,,,,,,,,,
,,,,,42027,2021-10-10_20h37.06.387,judgeSpeechMusic_20210919_logNormShiftAmp_detection_fixFreq,2020.1.2,MacIntel,60,,,,,,,,,,,,,,,,,,,,,,,,,,,,,,1,22.8406,,0,0,60,60,16,1,stimuli/stim_20210919_power2amp/equal_lnn_AM2Hz_s25_46.m4a,,,,,,,,,,,,
,,,,,42027,2021-10-10_20h37.06.387,judgeSpeechMusic_20210919_logNormShiftAmp_detection_fixFreq,2020.1.2,MacIntel,60,,,,,,,,,,,,,,,,,,,,,,,,,,,,,,1,7.0921,,0,0,61,61,64,1,stimuli/stim_20210919_power2amp/equal_lnn_AM2Hz_s55_41.m4a,,,,,,,,,,,,
,,,,,42027,2021-10-10_20h37.06.387,judgeSpeechMusic_20210919_logNormShiftAmp_detection_fixFreq,2020.1.2,MacIntel,60,,,,,,,,,,,,,,,,,,,,,,,,,,,,,,1,7.1525,,0,0,62,62,40,1,stimuli/stim_20210919_power2amp/equal_lnn_AM2Hz_s35_48.m4a,,,,,,,,,,,,
,,,,,42027,2021-10-10_20h37.06.387,judgeSpeechMusic_20210919_logNormShiftAmp_detection_fixFreq,2020.1.2,MacIntel,60,,,,,,,,,,,,,,,,,,,,,,,,,,,,,,1,6.1114,,0,0,63,63,6,1,stimuli/stim_20210919_power2amp/equal_lnn_AM2Hz_s15_42.m4a,,,,,,,,,,,,
,,,,,42027,2021-10-10_20h37.06.387,judgeSpeechMusic_20210919_logNormShiftAmp_detection_fixFreq,2020.1.2,MacIntel,60,,,,,,,,,,,,,,,,,,,,,,,,,,,,,,1,6.2078,,0,0,64,64,57,1,stimuli/stim_20210919_power2amp/equal_lnn_AM2Hz_s45_12.m4a,,,,,,,,,,,,
,,,,,42027,2021-10-10_20h37.06.387,judgeSpeechMusic_20210919_logNormShiftAmp_detection_fixFreq,2020.1.2,MacIntel,60,,,,,,,,,,,,,,,,,,,,,,,,,,,,,,2,6.1268,,0,0,65,65,15,1,stimuli/stim_20210919_power2amp/equal_lnn_AM2Hz_s25_8.m4a,,,,,,,,,,,,
,,,,,42027,2021-10-10_20h37.06.387,judgeSpeechMusic_20210919_logNormShiftAmp_detection_fixFreq,2020.1.2,MacIntel,60,,,,,,,,,,,,,,,,,,,,,,,,,,,,,,2,5.5591,,0,0,66,66,42,1,stimuli/stim_20210919_power2amp/equal_lnn_AM2Hz_s35_35.m4a,,,,,,,,,,,,
,,,,,42027,2021-10-10_20h37.06.387,judgeSpeechMusic_20210919_logNormShiftAmp_detection_fixFreq,2020.1.2,MacIntel,60,,,,,,,,,,,,,,,,,,,,,,,,,,,,,,1,6.9034,,0,0,67,67,2,1,stimuli/stim_20210919_power2amp/equal_lnn_AM2Hz_s15_27.m4a,,,,,,,,,,,,
,,,,,42027,2021-10-10_20h37.06.387,judgeSpeechMusic_20210919_logNormShiftAmp_detection_fixFreq,2020.1.2,MacIntel,60,,,,,,,,,,,,,,,,,,,,,,,,,,,,,,2,6.4478,,0,0,68,68,59,1,stimuli/stim_20210919_power2amp/equal_lnn_AM2Hz_s45_44.m4a,,,,,,,,,,,,
,,,,,42027,2021-10-10_20h37.06.387,judgeSpeechMusic_20210919_logNormShiftAmp_detection_fixFreq,2020.1.2,MacIntel,60,,,,,,,,,,,,,,,,,,,,,,,,,,,,,,2,6.0457,,0,0,69,69,69,1,stimuli/stim_20210919_power2amp/equal_lnn_AM2Hz_s55_10.m4a,,,,,,,,,,,,
,,,,,42027,2021-10-10_20h37.06.387,judgeSpeechMusic_20210919_logNormShiftAmp_detection_fixFreq,2020.1.2,MacIntel,60,,,,,,,,,,,,,,,,,,,,,,,,,,,,,,1,6.4994,,0,0,70,70,27,1,stimuli/stim_20210919_power2amp/equal_lnn_AM2Hz_s25_9.m4a,,,,,,,,,,,,
,,,,,42027,2021-10-10_20h37.06.387,judgeSpeechMusic_20210919_logNormShiftAmp_detection_fixFreq,2020.1.2,MacIntel,60,,,,,,,,,,,,,,,,,,,,,,,,,,,,,,2,7.1617,,0,0,71,71,32,1,stimuli/stim_20210919_power2amp/equal_lnn_AM2Hz_s35_39.m4a,,,,,,,,,,,,
,,,,,42027,2021-10-10_20h37.06.387,judgeSpeechMusic_20210919_logNormShiftAmp_detection_fixFreq,2020.1.2,MacIntel,60,,,,,,,,,,,,,,,,,,,,,,,,,,,,,,2,5.3997,,0,0,72,72,13,1,stimuli/stim_20210919_power2amp/equal_lnn_AM2Hz_s15_34.m4a,,,,,,,,,,,,
,,,,,42027,2021-10-10_20h37.06.387,judgeSpeechMusic_20210919_logNormShiftAmp_detection_fixFreq,2020.1.2,MacIntel,60,,,,,,,,,,,,,,,,,,,,,,,,,,,,,,1,5.6098,,0,0,73,73,28,1,stimuli/stim_20210919_power2amp/equal_lnn_AM2Hz_s25_42.m4a,,,,,,,,,,,,
,,,,,42027,2021-10-10_20h37.06.387,judgeSpeechMusic_20210919_logNormShiftAmp_detection_fixFreq,2020.1.2,MacIntel,60,,,,,,,,,,,,,,,,,,,,,,,,,,,,,,1,5.5963,,0,0,74,74,51,1,stimuli/stim_20210919_power2amp/equal_lnn_AM2Hz_s45_14.m4a,,,,,,,,,,,,
,,,,,42027,2021-10-10_20h37.06.387,judgeSpeechMusic_20210919_logNormShiftAmp_detection_fixFreq,2020.1.2,MacIntel,60,,,,,,,,,,,,,,,,,,,,,,,,,,,,,,,,,,,,,,,,,space,0.713,0,0,0,1,1,SPEECH,stimuli/SPEECH.jpg,,
,,,,,42027,2021-10-10_20h37.06.387,judgeSpeechMusic_20210919_logNormShiftAmp_detection_fixFreq,2020.1.2,MacIntel,60,,,,,,,,,,,,,space,1.0071,2,11.0616,,0,0,0,0,0,1,stimuli/stim_20210919_power2amp/equal_lnn_AM_training2Hz_s20.m4a,,,,,,,,,,,,,,,,,,,,,,,,,,,
,,,,,42027,2021-10-10_20h37.06.387,judgeSpeechMusic_20210919_logNormShiftAmp_detection_fixFreq,2020.1.2,MacIntel,60,,,,,,,,,,,,,,,1,6.0645,,0,0,1,1,3,1,stimuli/stim_20210919_power2amp/equal_lnn_AM_training2Hz_s50.m4a,,,,,,,,,,,,,,,,,,,,,,,,,,,
,,,,,42027,2021-10-10_20h37.06.387,judgeSpeechMusic_20210919_logNormShiftAmp_detection_fixFreq,2020.1.2,MacIntel,60,,,,,,,,,,,,,,,1,5.8603,2,1,0,2,2,2,1,stimuli/stim_20210919_power2amp/equal_lnn_AM_training2Hz_s40.m4a,0.3662,,,,,,,,,,,,,,,,,,,,,,,,,,
,,,,,42027,2021-10-10_20h37.06.387,judgeSpeechMusic_20210919_logNormShiftAmp_detection_fixFreq,2020.1.2,MacIntel,60,,,,,,,,,,,,,,,1,6.3989,,0,0,3,3,1,1,stimuli/stim_20210919_power2amp/equal_lnn_AM_training2Hz_s30.m4a,,,,,,,,,,,,,,,,,,,,,,,,,,,
,,,,,42027,2021-10-10_20h37.06.387,judgeSpeechMusic_20210919_logNormShiftAmp_detection_fixFreq,2020.1.2,MacIntel,60,,,,,,,,,,,,,,,,,,,,,,,,,,space,1.3145,space,0.3171,1,6.5045,,0,0,0,0,55,1,stimuli/stim_20210919_power2amp/equal_lnn_AM2Hz_s45_39.m4a,,,,,,,,,,,,
,,,,,42027,2021-10-10_20h37.06.387,judgeSpeechMusic_20210919_logNormShiftAmp_detection_fixFreq,2020.1.2,MacIntel,60,,,,,,,,,,,,,,,,,,,,,,,,,,,,,,1,12.6159,,0,0,1,1,65,1,stimuli/stim_20210919_power2amp/equal_lnn_AM2Hz_s55_48.m4a,,,,,,,,,,,,
,,,,,42027,2021-10-10_20h37.06.387,judgeSpeechMusic_20210919_logNormShiftAmp_detection_fixFreq,2020.1.2,MacIntel,60,,,,,,,,,,,,,,,,,,,,,,,,,,,,,,2,12.3334,,0,0,2,2,53,1,stimuli/stim_20210919_power2amp/equal_lnn_AM2Hz_s45_26.m4a,,,,,,,,,,,,
,,,,,42027,2021-10-10_20h37.06.387,judgeSpeechMusic_20210919_logNormShiftAmp_detection_fixFreq,2020.1.2,MacIntel,60,,,,,,,,,,,,,,,,,,,,,,,,,,,,,,2,8.5094,,0,0,3,3,52,1,stimuli/stim_20210919_power2amp/equal_lnn_AM2Hz_s45_49.m4a,,,,,,,,,,,,
,,,,,42027,2021-10-10_20h37.06.387,judgeSpeechMusic_20210919_logNormShiftAmp_detection_fixFreq,2020.1.2,MacIntel,60,,,,,,,,,,,,,,,,,,,,,,,,,,,,,,1,6.8969,,0,0,4,4,11,1,stimuli/stim_20210919_power2amp/equal_lnn_AM2Hz_s15_32.m4a,,,,,,,,,,,,
,,,,,42027,2021-10-10_20h37.06.387,judgeSpeechMusic_20210919_logNormShiftAmp_detection_fixFreq,2020.1.2,MacIntel,60,,,,,,,,,,,,,,,,,,,,,,,,,,,,,,1,37.3975,,0,0,5,5,20,1,stimuli/stim_20210919_power2amp/equal_lnn_AM2Hz_s25_47.m4a,,,,,,,,,,,,
,,,,,42027,2021-10-10_20h37.06.387,judgeSpeechMusic_20210919_logNormShiftAmp_detection_fixFreq,2020.1.2,MacIntel,60,,,,,,,,,,,,,,,,,,,,,,,,,,,,,,1,7.0708,,0,0,6,6,33,1,stimuli/stim_20210919_power2amp/equal_lnn_AM2Hz_s35_25.m4a,,,,,,,,,,,,
,,,,,42027,2021-10-10_20h37.06.387,judgeSpeechMusic_20210919_logNormShiftAmp_detection_fixFreq,2020.1.2,MacIntel,60,,,,,,,,,,,,,,,,,,,,,,,,,,,,,,1,5.7858,,0,0,7,7,42,1,stimuli/stim_20210919_power2amp/equal_lnn_AM2Hz_s35_35.m4a,,,,,,,,,,,,
,,,,,42027,2021-10-10_20h37.06.387,judgeSpeechMusic_20210919_logNormShiftAmp_detection_fixFreq,2020.1.2,MacIntel,60,,,,,,,,,,,,,,,,,,,,,,,,,,,,,,2,6.6761,,0,0,8,8,0,1,stimuli/stim_20210919_power2amp/equal_lnn_AM2Hz_s15_13.m4a,,,,,,,,,,,,
,,,,,42027,2021-10-10_20h37.06.387,judgeSpeechMusic_20210919_logNormShiftAmp_detection_fixFreq,2020.1.2,MacIntel,60,,,,,,,,,,,,,,,,,,,,,,,,,,,,,,2,5.4594,,0,0,9,9,66,1,stimuli/stim_20210919_power2amp/equal_lnn_AM2Hz_s55_23.m4a,,,,,,,,,,,,
,,,,,42027,2021-10-10_20h37.06.387,judgeSpeechMusic_20210919_logNormShiftAmp_detection_fixFreq,2020.1.2,MacIntel,60,,,,,,,,,,,,,,,,,,,,,,,,,,,,,,2,5.9485,,0,0,10,10,51,1,stimuli/stim_20210919_power2amp/equal_lnn_AM2Hz_s45_14.m4a,,,,,,,,,,,,
,,,,,42027,2021-10-10_20h37.06.387,judgeSpeechMusic_20210919_logNormShiftAmp_detection_fixFreq,2020.1.2,MacIntel,60,,,,,,,,,,,,,,,,,,,,,,,,,,,,,,1,6.3585,,0,0,11,11,48,1,stimuli/stim_20210919_power2amp/equal_lnn_AM2Hz_s45_40.m4a,,,,,,,,,,,,
,,,,,42027,2021-10-10_20h37.06.387,judgeSpeechMusic_20210919_logNormShiftAmp_detection_fixFreq,2020.1.2,MacIntel,60,,,,,,,,,,,,,,,,,,,,,,,,,,,,,,2,5.7316,,0,0,12,12,8,1,stimuli/stim_20210919_power2amp/equal_lnn_AM2Hz_s15_23.m4a,,,,,,,,,,,,
,,,,,42027,2021-10-10_20h37.06.387,judgeSpeechMusic_20210919_logNormShiftAmp_detection_fixFreq,2020.1.2,MacIntel,60,,,,,,,,,,,,,,,,,,,,,,,,,,,,,,1,6.3789,,0,0,13,13,49,1,stimuli/stim_20210919_power2amp/equal_lnn_AM2Hz_s45_27.m4a,,,,,,,,,,,,
,,,,,42027,2021-10-10_20h37.06.387,judgeSpeechMusic_20210919_logNormShiftAmp_detection_fixFreq,2020.1.2,MacIntel,60,,,,,,,,,,,,,,,,,,,,,,,,,,,,,,2,5.8297,,0,0,14,14,36,1,stimuli/stim_20210919_power2amp/equal_lnn_AM2Hz_s35_9.m4a,,,,,,,,,,,,
,,,,,42027,2021-10-10_20h37.06.387,judgeSpeechMusic_20210919_logNormShiftAmp_detection_fixFreq,2020.1.2,MacIntel,60,,,,,,,,,,,,,,,,,,,,,,,,,,,,,,2,14.118,,0,0,15,15,72,1,stimuli/stim_20210919_power2amp/equal_lnn_AM2Hz_s55_31.m4a,,,,,,,,,,,,
,,,,,42027,2021-10-10_20h37.06.387,judgeSpeechMusic_20210919_logNormShiftAmp_detection_fixFreq,2020.1.2,MacIntel,60,,,,,,,,,,,,,,,,,,,,,,,,,,,,,,2,10.9761,,0,0,16,16,35,1,stimuli/stim_20210919_power2amp/equal_lnn_AM2Hz_s35_47.m4a,,,,,,,,,,,,
,,,,,42027,2021-10-10_20h37.06.387,judgeSpeechMusic_20210919_logNormShiftAmp_detection_fixFreq,2020.1.2,MacIntel,60,,,,,,,,,,,,,,,,,,,,,,,,,,,,,,1,6.9987,,0,0,17,17,28,1,stimuli/stim_20210919_power2amp/equal_lnn_AM2Hz_s25_42.m4a,,,,,,,,,,,,
,,,,,42027,2021-10-10_20h37.06.387,judgeSpeechMusic_20210919_logNormShiftAmp_detection_fixFreq,2020.1.2,MacIntel,60,,,,,,,,,,,,,,,,,,,,,,,,,,,,,,1,7.2297,3,1,0,18,18,3,1,stimuli/stim_20210919_power2amp/equal_lnn_AM2Hz_s15_46.m4a,1.3622,,,,,,,,,,,
,,,,,42027,2021-10-10_20h37.06.387,judgeSpeechMusic_20210919_logNormShiftAmp_detection_fixFreq,2020.1.2,MacIntel,60,,,,,,,,,,,,,,,,,,,,,,,,,,,,,,1,9.3872,,0,0,19,19,34,1,stimuli/stim_20210919_power2amp/equal_lnn_AM2Hz_s35_21.m4a,,,,,,,,,,,,
,,,,,42027,2021-10-10_20h37.06.387,judgeSpeechMusic_20210919_logNormShiftAmp_detection_fixFreq,2020.1.2,MacIntel,60,,,,,,,,,,,,,,,,,,,,,,,,,,,,,,2,5.7448,,0,0,20,20,9,1,stimuli/stim_20210919_power2amp/equal_lnn_AM2Hz_s15_5.m4a,,,,,,,,,,,,
,,,,,42027,2021-10-10_20h37.06.387,judgeSpeechMusic_20210919_logNormShiftAmp_detection_fixFreq,2020.1.2,MacIntel,60,,,,,,,,,,,,,,,,,,,,,,,,,,,,,,2,5.5373,,0,0,21,21,6,1,stimuli/stim_20210919_power2amp/equal_lnn_AM2Hz_s15_42.m4a,,,,,,,,,,,,
,,,,,42027,2021-10-10_20h37.06.387,judgeSpeechMusic_20210919_logNormShiftAmp_detection_fixFreq,2020.1.2,MacIntel,60,,,,,,,,,,,,,,,,,,,,,,,,,,,,,,2,5.6477,,0,0,22,22,18,1,stimuli/stim_20210919_power2amp/equal_lnn_AM2Hz_s25_32.m4a,,,,,,,,,,,,
,,,,,42027,2021-10-10_20h37.06.387,judgeSpeechMusic_20210919_logNormShiftAmp_detection_fixFreq,2020.1.2,MacIntel,60,,,,,,,,,,,,,,,,,,,,,,,,,,,,,,1,6.0107,,0,0,23,23,43,1,stimuli/stim_20210919_power2amp/equal_lnn_AM2Hz_s35_1.m4a,,,,,,,,,,,,
,,,,,42027,2021-10-10_20h37.06.387,judgeSpeechMusic_20210919_logNormShiftAmp_detection_fixFreq,2020.1.2,MacIntel,60,,,,,,,,,,,,,,,,,,,,,,,,,,,,,,1,5.8126,,0,0,24,24,58,1,stimuli/stim_20210919_power2amp/equal_lnn_AM2Hz_s45_37.m4a,,,,,,,,,,,,
,,,,,42027,2021-10-10_20h37.06.387,judgeSpeechMusic_20210919_logNormShiftAmp_detection_fixFreq,2020.1.2,MacIntel,60,,,,,,,,,,,,,,,,,,,,,,,,,,,,,,2,6.462,,0,0,25,25,21,1,stimuli/stim_20210919_power2amp/equal_lnn_AM2Hz_s25_11.m4a,,,,,,,,,,,,
,,,,,42027,2021-10-10_20h37.06.387,judgeSpeechMusic_20210919_logNormShiftAmp_detection_fixFreq,2020.1.2,MacIntel,60,,,,,,,,,,,,,,,,,,,,,,,,,,,,,,1,7.3121,,0,0,26,26,44,1,stimuli/stim_20210919_power2amp/equal_lnn_AM2Hz_s35_13.m4a,,,,,,,,,,,,
,,,,,42027,2021-10-10_20h37.06.387,judgeSpeechMusic_20210919_logNormShiftAmp_detection_fixFreq,2020.1.2,MacIntel,60,,,,,,,,,,,,,,,,,,,,,,,,,,,,,,2,9.174,,0,0,27,27,30,1,stimuli/stim_20210919_power2amp/equal_lnn_AM2Hz_s35_24.m4a,,,,,,,,,,,,
,,,,,42027,2021-10-10_20h37.06.387,judgeSpeechMusic_20210919_logNormShiftAmp_detection_fixFreq,2020.1.2,MacIntel,60,,,,,,,,,,,,,,,,,,,,,,,,,,,,,,1,5.9133,,0,0,28,28,1,1,stimuli/stim_20210919_power2amp/equal_lnn_AM2Hz_s15_19.m4a,,,,,,,,,,,,
,,,,,42027,2021-10-10_20h37.06.387,judgeSpeechMusic_20210919_logNormShiftAmp_detection_fixFreq,2020.1.2,MacIntel,60,,,,,,,,,,,,,,,,,,,,,,,,,,,,,,2,7.527,,0,0,29,29,31,1,stimuli/stim_20210919_power2amp/equal_lnn_AM2Hz_s35_34.m4a,,,,,,,,,,,,
,,,,,42027,2021-10-10_20h37.06.387,judgeSpeechMusic_20210919_logNormShiftAmp_detection_fixFreq,2020.1.2,MacIntel,60,,,,,,,,,,,,,,,,,,,,,,,,,,,,,,1,6.7229,,0,0,30,30,67,1,stimuli/stim_20210919_power2amp/equal_lnn_AM2Hz_s55_47.m4a,,,,,,,,,,,,
,,,,,42027,2021-10-10_20h37.06.387,judgeSpeechMusic_20210919_logNormShiftAmp_detection_fixFreq,2020.1.2,MacIntel,60,,,,,,,,,,,,,,,,,,,,,,,,,,,,,,2,6.1108,,0,0,31,31,14,1,stimuli/stim_20210919_power2amp/equal_lnn_AM2Hz_s15_50.m4a,,,,,,,,,,,,
,,,,,42027,2021-10-10_20h37.06.387,judgeSpeechMusic_20210919_logNormShiftAmp_detection_fixFreq,2020.1.2,MacIntel,60,,,,,,,,,,,,,,,,,,,,,,,,,,,,,,1,7.2837,,0,0,32,32,2,1,stimuli/stim_20210919_power2amp/equal_lnn_AM2Hz_s15_27.m4a,,,,,,,,,,,,
,,,,,42027,2021-10-10_20h37.06.387,judgeSpeechMusic_20210919_logNormShiftAmp_detection_fixFreq,2020.1.2,MacIntel,60,,,,,,,,,,,,,,,,,,,,,,,,,,,,,,1,6.1888,,0,0,33,33,74,1,stimuli/stim_20210919_power2amp/equal_lnn_AM2Hz_s55_25.m4a,,,,,,,,,,,,
,,,,,42027,2021-10-10_20h37.06.387,judgeSpeechMusic_20210919_logNormShiftAmp_detection_fixFreq,2020.1.2,MacIntel,60,,,,,,,,,,,,,,,,,,,,,,,,,,,,,,2,8.3165,,0,0,34,34,12,1,stimuli/stim_20210919_power2amp/equal_lnn_AM2Hz_s15_9.m4a,,,,,,,,,,,,
,,,,,42027,2021-10-10_20h37.06.387,judgeSpeechMusic_20210919_logNormShiftAmp_detection_fixFreq,2020.1.2,MacIntel,60,,,,,,,,,,,,,,,,,,,,,,,,,,,,,,2,10.3008,,0,0,35,35,16,1,stimuli/stim_20210919_power2amp/equal_lnn_AM2Hz_s25_46.m4a,,,,,,,,,,,,
,,,,,42027,2021-10-10_20h37.06.387,judgeSpeechMusic_20210919_logNormShiftAmp_detection_fixFreq,2020.1.2,MacIntel,60,,,,,,,,,,,,,,,,,,,,,,,,,,,,,,1,6.7135,,0,0,36,36,70,1,stimuli/stim_20210919_power2amp/equal_lnn_AM2Hz_s55_7.m4a,,,,,,,,,,,,
,,,,,42027,2021-10-10_20h37.06.387,judgeSpeechMusic_20210919_logNormShiftAmp_detection_fixFreq,2020.1.2,MacIntel,60,,,,,,,,,,,,,,,,,,,,,,,,,,,,,,1,5.628,2,1,0,37,37,26,1,stimuli/stim_20210919_power2amp/equal_lnn_AM2Hz_s25_33.m4a,0.4013,,,,,,,,,,,
,,,,,42027,2021-10-10_20h37.06.387,judgeSpeechMusic_20210919_logNormShiftAmp_detection_fixFreq,2020.1.2,MacIntel,60,,,,,,,,,,,,,,,,,,,,,,,,,,,,,,1,6.4172,,0,0,38,38,68,1,stimuli/stim_20210919_power2amp/equal_lnn_AM2Hz_s55_19.m4a,,,,,,,,,,,,
,,,,,42027,2021-10-10_20h37.06.387,judgeSpeechMusic_20210919_logNormShiftAmp_detection_fixFreq,2020.1.2,MacIntel,60,,,,,,,,,,,,,,,,,,,,,,,,,,,,,,2,6.8408,,0,0,39,39,47,1,stimuli/stim_20210919_power2amp/equal_lnn_AM2Hz_s45_22.m4a,,,,,,,,,,,,
,,,,,42027,2021-10-10_20h37.06.387,judgeSpeechMusic_20210919_logNormShiftAmp_detection_fixFreq,2020.1.2,MacIntel,60,,,,,,,,,,,,,,,,,,,,,,,,,,,,,,1,9.0499,,0,0,40,40,24,1,stimuli/stim_20210919_power2amp/equal_lnn_AM2Hz_s25_18.m4a,,,,,,,,,,,,
,,,,,42027,2021-10-10_20h37.06.387,judgeSpeechMusic_20210919_logNormShiftAmp_detection_fixFreq,2020.1.2,MacIntel,60,,,,,,,,,,,,,,,,,,,,,,,,,,,,,,1,9.2501,,0,0,41,41,59,1,stimuli/stim_20210919_power2amp/equal_lnn_AM2Hz_s45_44.m4a,,,,,,,,,,,,
,,,,,42027,2021-10-10_20h37.06.387,judgeSpeechMusic_20210919_logNormShiftAmp_detection_fixFreq,2020.1.2,MacIntel,60,,,,,,,,,,,,,,,,,,,,,,,,,,,,,,2,8.8194,,0,0,42,42,7,1,stimuli/stim_20210919_power2amp/equal_lnn_AM2Hz_s15_8.m4a,,,,,,,,,,,,
,,,,,42027,2021-10-10_20h37.06.387,judgeSpeechMusic_20210919_logNormShiftAmp_detection_fixFreq,2020.1.2,MacIntel,60,,,,,,,,,,,,,,,,,,,,,,,,,,,,,,2,12.5366,,0,0,43,43,13,1,stimuli/stim_20210919_power2amp/equal_lnn_AM2Hz_s15_34.m4a,,,,,,,,,,,,
,,,,,42027,2021-10-10_20h37.06.387,judgeSpeechMusic_20210919_logNormShiftAmp_detection_fixFreq,2020.1.2,MacIntel,60,,,,,,,,,,,,,,,,,,,,,,,,,,,,,,1,8.1759,,0,0,44,44,73,1,stimuli/stim_20210919_power2amp/equal_lnn_AM2Hz_s55_45.m4a,,,,,,,,,,,,
,,,,,42027,2021-10-10_20h37.06.387,judgeSpeechMusic_20210919_logNormShiftAmp_detection_fixFreq,2020.1.2,MacIntel,60,,,,,,,,,,,,,,,,,,,,,,,,,,,,,,1,17.4826,,0,0,45,45,25,1,stimuli/stim_20210919_power2amp/equal_lnn_AM2Hz_s25_22.m4a,,,,,,,,,,,,
,,,,,42027,2021-10-10_20h37.06.387,judgeSpeechMusic_20210919_logNormShiftAmp_detection_fixFreq,2020.1.2,MacIntel,60,,,,,,,,,,,,,,,,,,,,,,,,,,,,,,1,11.0741,,0,0,46,46,63,1,stimuli/stim_20210919_power2amp/equal_lnn_AM2Hz_s55_37.m4a,,,,,,,,,,,,
,,,,,42027,2021-10-10_20h37.06.387,judgeSpeechMusic_20210919_logNormShiftAmp_detection_fixFreq,2020.1.2,MacIntel,60,,,,,,,,,,,,,,,,,,,,,,,,,,,,,,2,5.6468,,0,0,47,47,10,1,stimuli/stim_20210919_power2amp/equal_lnn_AM2Hz_s15_28.m4a,,,,,,,,,,,,
,,,,,42027,2021-10-10_20h37.06.387,judgeSpeechMusic_20210919_logNormShiftAmp_detection_fixFreq,2020.1.2,MacIntel,60,,,,,,,,,,,,,,,,,,,,,,,,,,,,,,1,7.528,,0,0,48,48,37,1,stimuli/stim_20210919_power2amp/equal_lnn_AM2Hz_s35_45.m4a,,,,,,,,,,,,
,,,,,42027,2021-10-10_20h37.06.387,judgeSpeechMusic_20210919_logNormShiftAmp_detection_fixFreq,2020.1.2,MacIntel,60,,,,,,,,,,,,,,,,,,,,,,,,,,,,,,1,11.0094,,0,0,49,49,56,1,stimuli/stim_20210919_power2amp/equal_lnn_AM2Hz_s45_17.m4a,,,,,,,,,,,,
,,,,,42027,2021-10-10_20h37.06.387,judgeSpeechMusic_20210919_logNormShiftAmp_detection_fixFreq,2020.1.2,MacIntel,60,,,,,,,,,,,,,,,,,,,,,,,,,,,,,,1,6.909,,0,0,50,50,71,1,stimuli/stim_20210919_power2amp/equal_lnn_AM2Hz_s55_14.m4a,,,,,,,,,,,,
,,,,,42027,2021-10-10_20h37.06.387,judgeSpeechMusic_20210919_logNormShiftAmp_detection_fixFreq,2020.1.2,MacIntel,60,,,,,,,,,,,,,,,,,,,,,,,,,,,,,,2,5.6317,,0,0,51,51,5,1,stimuli/stim_20210919_power2amp/equal_lnn_AM2Hz_s15_25.m4a,,,,,,,,,,,,
,,,,,42027,2021-10-10_20h37.06.387,judgeSpeechMusic_20210919_logNormShiftAmp_detection_fixFreq,2020.1.2,MacIntel,60,,,,,,,,,,,,,,,,,,,,,,,,,,,,,,1,7.7325,,0,0,52,52,22,1,stimuli/stim_20210919_power2amp/equal_lnn_AM2Hz_s25_2.m4a,,,,,,,,,,,,
,,,,,42027,2021-10-10_20h37.06.387,judgeSpeechMusic_20210919_logNormShiftAmp_detection_fixFreq,2020.1.2,MacIntel,60,,,,,,,,,,,,,,,,,,,,,,,,,,,,,,1,9.056,,0,0,53,53,19,1,stimuli/stim_20210919_power2amp/equal_lnn_AM2Hz_s25_12.m4a,,,,,,,,,,,,
,,,,,42027,2021-10-10_20h37.06.387,judgeSpeechMusic_20210919_logNormShiftAmp_detection_fixFreq,2020.1.2,MacIntel,60,,,,,,,,,,,,,,,,,,,,,,,,,,,,,,2,6.6059,,0,0,54,54,61,1,stimuli/stim_20210919_power2amp/equal_lnn_AM2Hz_s55_36.m4a,,,,,,,,,,,,
,,,,,42027,2021-10-10_20h37.06.387,judgeSpeechMusic_20210919_logNormShiftAmp_detection_fixFreq,2020.1.2,MacIntel,60,,,,,,,,,,,,,,,,,,,,,,,,,,,,,,2,15.0123,3,1,0,55,55,64,1,stimuli/stim_20210919_power2amp/equal_lnn_AM2Hz_s55_41.m4a,1.8304,,,,,,,,,,,
,,,,,42027,2021-10-10_20h37.06.387,judgeSpeechMusic_20210919_logNormShiftAmp_detection_fixFreq,2020.1.2,MacIntel,60,,,,,,,,,,,,,,,,,,,,,,,,,,,,,,1,6.4329,,0,0,56,56,17,1,stimuli/stim_20210919_power2amp/equal_lnn_AM2Hz_s25_35.m4a,,,,,,,,,,,,
,,,,,42027,2021-10-10_20h37.06.387,judgeSpeechMusic_20210919_logNormShiftAmp_detection_fixFreq,2020.1.2,MacIntel,60,,,,,,,,,,,,,,,,,,,,,,,,,,,,,,1,8.7825,,0,0,57,57,50,1,stimuli/stim_20210919_power2amp/equal_lnn_AM2Hz_s45_29.m4a,,,,,,,,,,,,
,,,,,42027,2021-10-10_20h37.06.387,judgeSpeechMusic_20210919_logNormShiftAmp_detection_fixFreq,2020.1.2,MacIntel,60,,,,,,,,,,,,,,,,,,,,,,,,,,,,,,1,837.8672,,0,0,58,58,62,1,stimuli/stim_20210919_power2amp/equal_lnn_AM2Hz_s55_35.m4a,,,,,,,,,,,,
,,,,,42027,2021-10-10_20h37.06.387,judgeSpeechMusic_20210919_logNormShiftAmp_detection_fixFreq,2020.1.2,MacIntel,60,,,,,,,,,,,,,,,,,,,,,,,,,,,,,,1,8.2921,,0,0,59,59,29,1,stimuli/stim_20210919_power2amp/equal_lnn_AM2Hz_s25_49.m4a,,,,,,,,,,,,
,,,,,42027,2021-10-10_20h37.06.387,judgeSpeechMusic_20210919_logNormShiftAmp_detection_fixFreq,2020.1.2,MacIntel,60,,,,,,,,,,,,,,,,,,,,,,,,,,,,,,1,6.2148,,0,0,60,60,60,1,stimuli/stim_20210919_power2amp/equal_lnn_AM2Hz_s55_29.m4a,,,,,,,,,,,,
,,,,,42027,2021-10-10_20h37.06.387,judgeSpeechMusic_20210919_logNormShiftAmp_detection_fixFreq,2020.1.2,MacIntel,60,,,,,,,,,,,,,,,,,,,,,,,,,,,,,,2,6.165,,0,0,61,61,41,1,stimuli/stim_20210919_power2amp/equal_lnn_AM2Hz_s35_19.m4a,,,,,,,,,,,,
,,,,,42027,2021-10-10_20h37.06.387,judgeSpeechMusic_20210919_logNormShiftAmp_detection_fixFreq,2020.1.2,MacIntel,60,,,,,,,,,,,,,,,,,,,,,,,,,,,,,,1,5.9407,,0,0,62,62,69,1,stimuli/stim_20210919_power2amp/equal_lnn_AM2Hz_s55_10.m4a,,,,,,,,,,,,
,,,,,42027,2021-10-10_20h37.06.387,judgeSpeechMusic_20210919_logNormShiftAmp_detection_fixFreq,2020.1.2,MacIntel,60,,,,,,,,,,,,,,,,,,,,,,,,,,,,,,1,5.8257,,0,0,63,63,45,1,stimuli/stim_20210919_power2amp/equal_lnn_AM2Hz_s45_6.m4a,,,,,,,,,,,,
,,,,,42027,2021-10-10_20h37.06.387,judgeSpeechMusic_20210919_logNormShiftAmp_detection_fixFreq,2020.1.2,MacIntel,60,,,,,,,,,,,,,,,,,,,,,,,,,,,,,,1,5.8144,,0,0,64,64,15,1,stimuli/stim_20210919_power2amp/equal_lnn_AM2Hz_s25_8.m4a,,,,,,,,,,,,
,,,,,42027,2021-10-10_20h37.06.387,judgeSpeechMusic_20210919_logNormShiftAmp_detection_fixFreq,2020.1.2,MacIntel,60,,,,,,,,,,,,,,,,,,,,,,,,,,,,,,2,6.2119,,0,0,65,65,23,1,stimuli/stim_20210919_power2amp/equal_lnn_AM2Hz_s25_13.m4a,,,,,,,,,,,,
,,,,,42027,2021-10-10_20h37.06.387,judgeSpeechMusic_20210919_logNormShiftAmp_detection_fixFreq,2020.1.2,MacIntel,60,,,,,,,,,,,,,,,,,,,,,,,,,,,,,,1,5.997,,0,0,66,66,4,1,stimuli/stim_20210919_power2amp/equal_lnn_AM2Hz_s15_20.m4a,,,,,,,,,,,,
,,,,,42027,2021-10-10_20h37.06.387,judgeSpeechMusic_20210919_logNormShiftAmp_detection_fixFreq,2020.1.2,MacIntel,60,,,,,,,,,,,,,,,,,,,,,,,,,,,,,,1,5.9809,,0,0,67,67,38,1,stimuli/stim_20210919_power2amp/equal_lnn_AM2Hz_s35_10.m4a,,,,,,,,,,,,
,,,,,42027,2021-10-10_20h37.06.387,judgeSpeechMusic_20210919_logNormShiftAmp_detection_fixFreq,2020.1.2,MacIntel,60,,,,,,,,,,,,,,,,,,,,,,,,,,,,,,1,5.7929,,0,0,68,68,46,1,stimuli/stim_20210919_power2amp/equal_lnn_AM2Hz_s45_32.m4a,,,,,,,,,,,,
,,,,,42027,2021-10-10_20h37.06.387,judgeSpeechMusic_20210919_logNormShiftAmp_detection_fixFreq,2020.1.2,MacIntel,60,,,,,,,,,,,,,,,,,,,,,,,,,,,,,,1,16.4351,,0,0,69,69,54,1,stimuli/stim_20210919_power2amp/equal_lnn_AM2Hz_s45_13.m4a,,,,,,,,,,,,
,,,,,42027,2021-10-10_20h37.06.387,judgeSpeechMusic_20210919_logNormShiftAmp_detection_fixFreq,2020.1.2,MacIntel,60,,,,,,,,,,,,,,,,,,,,,,,,,,,,,,1,8.1193,,0,0,70,70,27,1,stimuli/stim_20210919_power2amp/equal_lnn_AM2Hz_s25_9.m4a,,,,,,,,,,,,
,,,,,42027,2021-10-10_20h37.06.387,judgeSpeechMusic_20210919_logNormShiftAmp_detection_fixFreq,2020.1.2,MacIntel,60,,,,,,,,,,,,,,,,,,,,,,,,,,,,,,1,12.4857,,0,0,71,71,32,1,stimuli/stim_20210919_power2amp/equal_lnn_AM2Hz_s35_39.m4a,,,,,,,,,,,,
,,,,,42027,2021-10-10_20h37.06.387,judgeSpeechMusic_20210919_logNormShiftAmp_detection_fixFreq,2020.1.2,MacIntel,60,,,,,,,,,,,,,,,,,,,,,,,,,,,,,,2,16.0394,,0,0,72,72,39,1,stimuli/stim_20210919_power2amp/equal_lnn_AM2Hz_s35_17.m4a,,,,,,,,,,,,
,,,,,42027,2021-10-10_20h37.06.387,judgeSpeechMusic_20210919_logNormShiftAmp_detection_fixFreq,2020.1.2,MacIntel,60,,,,,,,,,,,,,,,,,,,,,,,,,,,,,,2,6.5024,,0,0,73,73,57,1,stimuli/stim_20210919_power2amp/equal_lnn_AM2Hz_s45_12.m4a,,,,,,,,,,,,
,,,,,42027,2021-10-10_20h37.06.387,judgeSpeechMusic_20210919_logNormShiftAmp_detection_fixFreq,2020.1.2,MacIntel,60,,,,,,,,,,,,,,,,,,,,,,,,,,,,,,1,7.0935,,0,0,74,74,40,1,stimuli/stim_20210919_power2amp/equal_lnn_AM2Hz_s35_48.m4a,,,,,,,,,,,,
,,,,,42027,2021-10-10_20h37.06.387,judgeSpeechMusic_20210919_logNormShiftAmp_detection_fixFreq,2020.1.2,MacIntel,60,,,,,,,,,,,,,,,,,,,,,,,,,,,,,,,,,,,,,,,,,space,5.6013,0,1,1,0,1,MUSIC,stimuli/MUSIC.jpg,,
,,,,,42027,2021-10-10_20h37.06.387,judgeSpeechMusic_20210919_logNormShiftAmp_detection_fixFreq,2020.1.2,MacIntel,60,,,,,,,,,,,,,,,,,,0,0,0,0,0,1,stimuli/stim_20210919_power2amp/equal_lnn_AM_training2Hz_s20.m4a,,,,,,,,,,,,,,,,,,,,,,,,,,,
,,,,,42027,2021-10-10_20h37.06.387,judgeSpeechMusic_20210919_logNormShiftAmp_detection_fixFreq,2020.1.2,MacIntel,60,,,,,,,,,,,,,,,,,,,,,,,,,,space,3.0431,space,6.7514,2,8.0937,,0,0,0,0,49,1,stimuli/stim_20210919_power2amp/equal_lnn_AM2Hz_s45_27.m4a,,,,,,,,,,,,
,,,,,42027,2021-10-10_20h37.06.387,judgeSpeechMusic_20210919_logNormShiftAmp_detection_fixFreq,2020.1.2,MacIntel,60,,,,,,,,,,,,,,,,,,,,,,,,,,,,,,1,6.9138,,0,0,1,1,35,1,stimuli/stim_20210919_power2amp/equal_lnn_AM2Hz_s35_47.m4a,,,,,,,,,,,,
,,,,,42027,2021-10-10_20h37.06.387,judgeSpeechMusic_20210919_logNormShiftAmp_detection_fixFreq,2020.1.2,MacIntel,60,,,,,,,,,,,,,,,,,,,,,,,,,,,,,,1,8.3804,,0,0,2,2,58,1,stimuli/stim_20210919_power2amp/equal_lnn_AM2Hz_s45_37.m4a,,,,,,,,,,,,
,,,,,42027,2021-10-10_20h37.06.387,judgeSpeechMusic_20210919_logNormShiftAmp_detection_fixFreq,2020.1.2,MacIntel,60,,,,,,,,,,,,,,,,,,,,,,,,,,,,,,2,6.142,,0,0,3,3,61,1,stimuli/stim_20210919_power2amp/equal_lnn_AM2Hz_s55_36.m4a,,,,,,,,,,,,
,,,,,42027,2021-10-10_20h37.06.387,judgeSpeechMusic_20210919_logNormShiftAmp_detection_fixFreq,2020.1.2,MacIntel,60,,,,,,,,,,,,,,,,,,,,,,,,,,,,,,1,6.7842,,0,0,4,4,69,1,stimuli/stim_20210919_power2amp/equal_lnn_AM2Hz_s55_10.m4a,,,,,,,,,,,,
,,,,,42027,2021-10-10_20h37.06.387,judgeSpeechMusic_20210919_logNormShiftAmp_detection_fixFreq,2020.1.2,MacIntel,60,,,,,,,,,,,,,,,,,,,,,,,,,,,,,,1,6.4209,,0,0,5,5,45,1,stimuli/stim_20210919_power2amp/equal_lnn_AM2Hz_s45_6.m4a,,,,,,,,,,,,
,,,,,42027,2021-10-10_20h37.06.387,judgeSpeechMusic_20210919_logNormShiftAmp_detection_fixFreq,2020.1.2,MacIntel,60,,,,,,,,,,,,,,,,,,,,,,,,,,,,,,1,5.84,,0,0,6,6,3,1,stimuli/stim_20210919_power2amp/equal_lnn_AM2Hz_s15_46.m4a,,,,,,,,,,,,
,,,,,42027,2021-10-10_20h37.06.387,judgeSpeechMusic_20210919_logNormShiftAmp_detection_fixFreq,2020.1.2,MacIntel,60,,,,,,,,,,,,,,,,,,,,,,,,,,,,,,2,17.5233,,0,0,7,7,56,1,stimuli/stim_20210919_power2amp/equal_lnn_AM2Hz_s45_17.m4a,,,,,,,,,,,,
,,,,,42027,2021-10-10_20h37.06.387,judgeSpeechMusic_20210919_logNormShiftAmp_detection_fixFreq,2020.1.2,MacIntel,60,,,,,,,,,,,,,,,,,,,,,,,,,,,,,,1,59.4183,,0,0,8,8,68,1,stimuli/stim_20210919_power2amp/equal_lnn_AM2Hz_s55_19.m4a,,,,,,,,,,,,
,,,,,42027,2021-10-10_20h37.06.387,judgeSpeechMusic_20210919_logNormShiftAmp_detection_fixFreq,2020.1.2,MacIntel,60,,,,,,,,,,,,,,,,,,,,,,,,,,,,,,1,7.1694,,0,0,9,9,46,1,stimuli/stim_20210919_power2amp/equal_lnn_AM2Hz_s45_32.m4a,,,,,,,,,,,,
,,,,,42027,2021-10-10_20h37.06.387,judgeSpeechMusic_20210919_logNormShiftAmp_detection_fixFreq,2020.1.2,MacIntel,60,,,,,,,,,,,,,,,,,,,,,,,,,,,,,,1,6.646,,0,0,10,10,67,1,stimuli/stim_20210919_power2amp/equal_lnn_AM2Hz_s55_47.m4a,,,,,,,,,,,,
,,,,,42027,2021-10-10_20h37.06.387,judgeSpeechMusic_20210919_logNormShiftAmp_detection_fixFreq,2020.1.2,MacIntel,60,,,,,,,,,,,,,,,,,,,,,,,,,,,,,,1,16.6835,,0,0,11,11,21,1,stimuli/stim_20210919_power2amp/equal_lnn_AM2Hz_s25_11.m4a,,,,,,,,,,,,
,,,,,42027,2021-10-10_20h37.06.387,judgeSpeechMusic_20210919_logNormShiftAmp_detection_fixFreq,2020.1.2,MacIntel,60,,,,,,,,,,,,,,,,,,,,,,,,,,,,,,1,6.8095,,0,0,12,12,19,1,stimuli/stim_20210919_power2amp/equal_lnn_AM2Hz_s25_12.m4a,,,,,,,,,,,,
,,,,,42027,2021-10-10_20h37.06.387,judgeSpeechMusic_20210919_logNormShiftAmp_detection_fixFreq,2020.1.2,MacIntel,60,,,,,,,,,,,,,,,,,,,,,,,,,,,,,,2,10.5173,,0,0,13,13,5,1,stimuli/stim_20210919_power2amp/equal_lnn_AM2Hz_s15_25.m4a,,,,,,,,,,,,
,,,,,42027,2021-10-10_20h37.06.387,judgeSpeechMusic_20210919_logNormShiftAmp_detection_fixFreq,2020.1.2,MacIntel,60,,,,,,,,,,,,,,,,,,,,,,,,,,,,,,1,10.3011,,0,0,14,14,28,1,stimuli/stim_20210919_power2amp/equal_lnn_AM2Hz_s25_42.m4a,,,,,,,,,,,,
,,,,,42027,2021-10-10_20h37.06.387,judgeSpeechMusic_20210919_logNormShiftAmp_detection_fixFreq,2020.1.2,MacIntel,60,,,,,,,,,,,,,,,,,,,,,,,,,,,,,,1,13.5115,,0,0,15,15,12,1,stimuli/stim_20210919_power2amp/equal_lnn_AM2Hz_s15_9.m4a,,,,,,,,,,,,
,,,,,42027,2021-10-10_20h37.06.387,judgeSpeechMusic_20210919_logNormShiftAmp_detection_fixFreq,2020.1.2,MacIntel,60,,,,,,,,,,,,,,,,,,,,,,,,,,,,,,1,7.7645,,0,0,16,16,63,1,stimuli/stim_20210919_power2amp/equal_lnn_AM2Hz_s55_37.m4a,,,,,,,,,,,,
,,,,,42027,2021-10-10_20h37.06.387,judgeSpeechMusic_20210919_logNormShiftAmp_detection_fixFreq,2020.1.2,MacIntel,60,,,,,,,,,,,,,,,,,,,,,,,,,,,,,,2,9.8912,,0,0,17,17,30,1,stimuli/stim_20210919_power2amp/equal_lnn_AM2Hz_s35_24.m4a,,,,,,,,,,,,
,,,,,42027,2021-10-10_20h37.06.387,judgeSpeechMusic_20210919_logNormShiftAmp_detection_fixFreq,2020.1.2,MacIntel,60,,,,,,,,,,,,,,,,,,,,,,,,,,,,,,1,8.5516,3,1,0,18,18,1,1,stimuli/stim_20210919_power2amp/equal_lnn_AM2Hz_s15_19.m4a,5.0213,,,,,,,,,,,
,,,,,42027,2021-10-10_20h37.06.387,judgeSpeechMusic_20210919_logNormShiftAmp_detection_fixFreq,2020.1.2,MacIntel,60,,,,,,,,,,,,,,,,,,,,,,,,,,,,,,1,7.1607,,0,0,19,19,23,1,stimuli/stim_20210919_power2amp/equal_lnn_AM2Hz_s25_13.m4a,,,,,,,,,,,,
,,,,,42027,2021-10-10_20h37.06.387,judgeSpeechMusic_20210919_logNormShiftAmp_detection_fixFreq,2020.1.2,MacIntel,60,,,,,,,,,,,,,,,,,,,,,,,,,,,,,,1,21.8339,,0,0,20,20,60,1,stimuli/stim_20210919_power2amp/equal_lnn_AM2Hz_s55_29.m4a,,,,,,,,,,,,
,,,,,42027,2021-10-10_20h37.06.387,judgeSpeechMusic_20210919_logNormShiftAmp_detection_fixFreq,2020.1.2,MacIntel,60,,,,,,,,,,,,,,,,,,,,,,,,,,,,,,1,11.0819,,0,0,21,21,65,1,stimuli/stim_20210919_power2amp/equal_lnn_AM2Hz_s55_48.m4a,,,,,,,,,,,,
,,,,,42027,2021-10-10_20h37.06.387,judgeSpeechMusic_20210919_logNormShiftAmp_detection_fixFreq,2020.1.2,MacIntel,60,,,,,,,,,,,,,,,,,,,,,,,,,,,,,,2,8.2939,,0,0,22,22,6,1,stimuli/stim_20210919_power2amp/equal_lnn_AM2Hz_s15_42.m4a,,,,,,,,,,,,
,,,,,42027,2021-10-10_20h37.06.387,judgeSpeechMusic_20210919_logNormShiftAmp_detection_fixFreq,2020.1.2,MacIntel,60,,,,,,,,,,,,,,,,,,,,,,,,,,,,,,1,6.3337,,0,0,23,23,55,1,stimuli/stim_20210919_power2amp/equal_lnn_AM2Hz_s45_39.m4a,,,,,,,,,,,,
,,,,,42027,2021-10-10_20h37.06.387,judgeSpeechMusic_20210919_logNormShiftAmp_detection_fixFreq,2020.1.2,MacIntel,60,,,,,,,,,,,,,,,,,,,,,,,,,,,,,,1,7.9183,,0,0,24,24,10,1,stimuli/stim_20210919_power2amp/equal_lnn_AM2Hz_s15_28.m4a,,,,,,,,,,,,
,,,,,42027,2021-10-10_20h37.06.387,judgeSpeechMusic_20210919_logNormShiftAmp_detection_fixFreq,2020.1.2,MacIntel,60,,,,,,,,,,,,,,,,,,,,,,,,,,,,,,2,7.7962,,0,0,25,25,18,1,stimuli/stim_20210919_power2amp/equal_lnn_AM2Hz_s25_32.m4a,,,,,,,,,,,,
,,,,,42027,2021-10-10_20h37.06.387,judgeSpeechMusic_20210919_logNormShiftAmp_detection_fixFreq,2020.1.2,MacIntel,60,,,,,,,,,,,,,,,,,,,,,,,,,,,,,,1,6.5606,,0,0,26,26,42,1,stimuli/stim_20210919_power2amp/equal_lnn_AM2Hz_s35_35.m4a,,,,,,,,,,,,
,,,,,42027,2021-10-10_20h37.06.387,judgeSpeechMusic_20210919_logNormShiftAmp_detection_fixFreq,2020.1.2,MacIntel,60,,,,,,,,,,,,,,,,,,,,,,,,,,,,,,2,7.128,,0,0,27,27,33,1,stimuli/stim_20210919_power2amp/equal_lnn_AM2Hz_s35_25.m4a,,,,,,,,,,,,
,,,,,42027,2021-10-10_20h37.06.387,judgeSpeechMusic_20210919_logNormShiftAmp_detection_fixFreq,2020.1.2,MacIntel,60,,,,,,,,,,,,,,,,,,,,,,,,,,,,,,1,6.2975,,0,0,28,28,72,1,stimuli/stim_20210919_power2amp/equal_lnn_AM2Hz_s55_31.m4a,,,,,,,,,,,,
,,,,,42027,2021-10-10_20h37.06.387,judgeSpeechMusic_20210919_logNormShiftAmp_detection_fixFreq,2020.1.2,MacIntel,60,,,,,,,,,,,,,,,,,,,,,,,,,,,,,,1,6.2641,,0,0,29,29,8,1,stimuli/stim_20210919_power2amp/equal_lnn_AM2Hz_s15_23.m4a,,,,,,,,,,,,
,,,,,42027,2021-10-10_20h37.06.387,judgeSpeechMusic_20210919_logNormShiftAmp_detection_fixFreq,2020.1.2,MacIntel,60,,,,,,,,,,,,,,,,,,,,,,,,,,,,,,1,20.5295,,0,0,30,30,2,1,stimuli/stim_20210919_power2amp/equal_lnn_AM2Hz_s15_27.m4a,,,,,,,,,,,,
,,,,,42027,2021-10-10_20h37.06.387,judgeSpeechMusic_20210919_logNormShiftAmp_detection_fixFreq,2020.1.2,MacIntel,60,,,,,,,,,,,,,,,,,,,,,,,,,,,,,,1,9.9264,,0,0,31,31,50,1,stimuli/stim_20210919_power2amp/equal_lnn_AM2Hz_s45_29.m4a,,,,,,,,,,,,
,,,,,42027,2021-10-10_20h37.06.387,judgeSpeechMusic_20210919_logNormShiftAmp_detection_fixFreq,2020.1.2,MacIntel,60,,,,,,,,,,,,,,,,,,,,,,,,,,,,,,1,23.7609,,0,0,32,32,39,1,stimuli/stim_20210919_power2amp/equal_lnn_AM2Hz_s35_17.m4a,,,,,,,,,,,,
,,,,,42027,2021-10-10_20h37.06.387,judgeSpeechMusic_20210919_logNormShiftAmp_detection_fixFreq,2020.1.2,MacIntel,60,,,,,,,,,,,,,,,,,,,,,,,,,,,,,,2,7.8436,,0,0,33,33,70,1,stimuli/stim_20210919_power2amp/equal_lnn_AM2Hz_s55_7.m4a,,,,,,,,,,,,
,,,,,42027,2021-10-10_20h37.06.387,judgeSpeechMusic_20210919_logNormShiftAmp_detection_fixFreq,2020.1.2,MacIntel,60,,,,,,,,,,,,,,,,,,,,,,,,,,,,,,1,16.5613,,0,0,34,34,52,1,stimuli/stim_20210919_power2amp/equal_lnn_AM2Hz_s45_49.m4a,,,,,,,,,,,,
,,,,,42027,2021-10-10_20h37.06.387,judgeSpeechMusic_20210919_logNormShiftAmp_detection_fixFreq,2020.1.2,MacIntel,60,,,,,,,,,,,,,,,,,,,,,,,,,,,,,,1,10.3313,,0,0,35,35,14,1,stimuli/stim_20210919_power2amp/equal_lnn_AM2Hz_s15_50.m4a,,,,,,,,,,,,
,,,,,42027,2021-10-10_20h37.06.387,judgeSpeechMusic_20210919_logNormShiftAmp_detection_fixFreq,2020.1.2,MacIntel,60,,,,,,,,,,,,,,,,,,,,,,,,,,,,,,1,10.8725,,0,0,36,36,9,1,stimuli/stim_20210919_power2amp/equal_lnn_AM2Hz_s15_5.m4a,,,,,,,,,,,,
,,,,,42027,2021-10-10_20h37.06.387,judgeSpeechMusic_20210919_logNormShiftAmp_detection_fixFreq,2020.1.2,MacIntel,60,,,,,,,,,,,,,,,,,,,,,,,,,,,,,,1,10.2178,3,1,0,37,37,22,1,stimuli/stim_20210919_power2amp/equal_lnn_AM2Hz_s25_2.m4a,0.7675,,,,,,,,,,,
,,,,,42027,2021-10-10_20h37.06.387,judgeSpeechMusic_20210919_logNormShiftAmp_detection_fixFreq,2020.1.2,MacIntel,60,,,,,,,,,,,,,,,,,,,,,,,,,,,,,,1,6.1031,,0,0,38,38,44,1,stimuli/stim_20210919_power2amp/equal_lnn_AM2Hz_s35_13.m4a,,,,,,,,,,,,
,,,,,42027,2021-10-10_20h37.06.387,judgeSpeechMusic_20210919_logNormShiftAmp_detection_fixFreq,2020.1.2,MacIntel,60,,,,,,,,,,,,,,,,,,,,,,,,,,,,,,1,10.3147,,0,0,39,39,31,1,stimuli/stim_20210919_power2amp/equal_lnn_AM2Hz_s35_34.m4a,,,,,,,,,,,,
,,,,,42027,2021-10-10_20h37.06.387,judgeSpeechMusic_20210919_logNormShiftAmp_detection_fixFreq,2020.1.2,MacIntel,60,,,,,,,,,,,,,,,,,,,,,,,,,,,,,,2,7.2177,,0,0,40,40,26,1,stimuli/stim_20210919_power2amp/equal_lnn_AM2Hz_s25_33.m4a,,,,,,,,,,,,
,,,,,42027,2021-10-10_20h37.06.387,judgeSpeechMusic_20210919_logNormShiftAmp_detection_fixFreq,2020.1.2,MacIntel,60,,,,,,,,,,,,,,,,,,,,,,,,,,,,,,1,19.7337,,0,0,41,41,17,1,stimuli/stim_20210919_power2amp/equal_lnn_AM2Hz_s25_35.m4a,,,,,,,,,,,,
,,,,,42027,2021-10-10_20h37.06.387,judgeSpeechMusic_20210919_logNormShiftAmp_detection_fixFreq,2020.1.2,MacIntel,60,,,,,,,,,,,,,,,,,,,,,,,,,,,,,,2,6.7133,,0,0,42,42,62,1,stimuli/stim_20210919_power2amp/equal_lnn_AM2Hz_s55_35.m4a,,,,,,,,,,,,
,,,,,42027,2021-10-10_20h37.06.387,judgeSpeechMusic_20210919_logNormShiftAmp_detection_fixFreq,2020.1.2,MacIntel,60,,,,,,,,,,,,,,,,,,,,,,,,,,,,,,1,6.8669,,0,0,43,43,29,1,stimuli/stim_20210919_power2amp/equal_lnn_AM2Hz_s25_49.m4a,,,,,,,,,,,,
,,,,,42027,2021-10-10_20h37.06.387,judgeSpeechMusic_20210919_logNormShiftAmp_detection_fixFreq,2020.1.2,MacIntel,60,,,,,,,,,,,,,,,,,,,,,,,,,,,,,,2,24.8397,,0,0,44,44,51,1,stimuli/stim_20210919_power2amp/equal_lnn_AM2Hz_s45_14.m4a,,,,,,,,,,,,
,,,,,42027,2021-10-10_20h37.06.387,judgeSpeechMusic_20210919_logNormShiftAmp_detection_fixFreq,2020.1.2,MacIntel,60,,,,,,,,,,,,,,,,,,,,,,,,,,,,,,1,7.3647,,0,0,45,45,32,1,stimuli/stim_20210919_power2amp/equal_lnn_AM2Hz_s35_39.m4a,,,,,,,,,,,,
,,,,,42027,2021-10-10_20h37.06.387,judgeSpeechMusic_20210919_logNormShiftAmp_detection_fixFreq,2020.1.2,MacIntel,60,,,,,,,,,,,,,,,,,,,,,,,,,,,,,,1,6.6625,,0,0,46,46,73,1,stimuli/stim_20210919_power2amp/equal_lnn_AM2Hz_s55_45.m4a,,,,,,,,,,,,
,,,,,42027,2021-10-10_20h37.06.387,judgeSpeechMusic_20210919_logNormShiftAmp_detection_fixFreq,2020.1.2,MacIntel,60,,,,,,,,,,,,,,,,,,,,,,,,,,,,,,2,8.6166,,0,0,47,47,37,1,stimuli/stim_20210919_power2amp/equal_lnn_AM2Hz_s35_45.m4a,,,,,,,,,,,,
,,,,,42027,2021-10-10_20h37.06.387,judgeSpeechMusic_20210919_logNormShiftAmp_detection_fixFreq,2020.1.2,MacIntel,60,,,,,,,,,,,,,,,,,,,,,,,,,,,,,,1,6.1533,,0,0,48,48,47,1,stimuli/stim_20210919_power2amp/equal_lnn_AM2Hz_s45_22.m4a,,,,,,,,,,,,
,,,,,42027,2021-10-10_20h37.06.387,judgeSpeechMusic_20210919_logNormShiftAmp_detection_fixFreq,2020.1.2,MacIntel,60,,,,,,,,,,,,,,,,,,,,,,,,,,,,,,2,6.9454,,0,0,49,49,48,1,stimuli/stim_20210919_power2amp/equal_lnn_AM2Hz_s45_40.m4a,,,,,,,,,,,,
,,,,,42027,2021-10-10_20h37.06.387,judgeSpeechMusic_20210919_logNormShiftAmp_detection_fixFreq,2020.1.2,MacIntel,60,,,,,,,,,,,,,,,,,,,,,,,,,,,,,,1,7.6564,,0,0,50,50,15,1,stimuli/stim_20210919_power2amp/equal_lnn_AM2Hz_s25_8.m4a,,,,,,,,,,,,
,,,,,42027,2021-10-10_20h37.06.387,judgeSpeechMusic_20210919_logNormShiftAmp_detection_fixFreq,2020.1.2,MacIntel,60,,,,,,,,,,,,,,,,,,,,,,,,,,,,,,2,5.9868,,0,0,51,51,27,1,stimuli/stim_20210919_power2amp/equal_lnn_AM2Hz_s25_9.m4a,,,,,,,,,,,,
,,,,,42027,2021-10-10_20h37.06.387,judgeSpeechMusic_20210919_logNormShiftAmp_detection_fixFreq,2020.1.2,MacIntel,60,,,,,,,,,,,,,,,,,,,,,,,,,,,,,,1,6.363,,0,0,52,52,74,1,stimuli/stim_20210919_power2amp/equal_lnn_AM2Hz_s55_25.m4a,,,,,,,,,,,,
,,,,,42027,2021-10-10_20h37.06.387,judgeSpeechMusic_20210919_logNormShiftAmp_detection_fixFreq,2020.1.2,MacIntel,60,,,,,,,,,,,,,,,,,,,,,,,,,,,,,,2,6.5738,,0,0,53,53,7,1,stimuli/stim_20210919_power2amp/equal_lnn_AM2Hz_s15_8.m4a,,,,,,,,,,,,
,,,,,42027,2021-10-10_20h37.06.387,judgeSpeechMusic_20210919_logNormShiftAmp_detection_fixFreq,2020.1.2,MacIntel,60,,,,,,,,,,,,,,,,,,,,,,,,,,,,,,1,6.2871,,0,0,54,54,53,1,stimuli/stim_20210919_power2amp/equal_lnn_AM2Hz_s45_26.m4a,,,,,,,,,,,,
,,,,,42027,2021-10-10_20h37.06.387,judgeSpeechMusic_20210919_logNormShiftAmp_detection_fixFreq,2020.1.2,MacIntel,60,,,,,,,,,,,,,,,,,,,,,,,,,,,,,,1,6.7287,4,0,0,55,55,54,1,stimuli/stim_20210919_power2amp/equal_lnn_AM2Hz_s45_13.m4a,4.3381,,,,,,,,,,,
,,,,,42027,2021-10-10_20h37.06.387,judgeSpeechMusic_20210919_logNormShiftAmp_detection_fixFreq,2020.1.2,MacIntel,60,,,,,,,,,,,,,,,,,,,,,,,,,,,,,,1,81.2342,,0,0,56,56,11,1,stimuli/stim_20210919_power2amp/equal_lnn_AM2Hz_s15_32.m4a,,,,,,,,,,,,
,,,,,42027,2021-10-10_20h37.06.387,judgeSpeechMusic_20210919_logNormShiftAmp_detection_fixFreq,2020.1.2,MacIntel,60,,,,,,,,,,,,,,,,,,,,,,,,,,,,,,1,19.2136,,0,0,57,57,41,1,stimuli/stim_20210919_power2amp/equal_lnn_AM2Hz_s35_19.m4a,,,,,,,,,,,,
,,,,,42027,2021-10-10_20h37.06.387,judgeSpeechMusic_20210919_logNormShiftAmp_detection_fixFreq,2020.1.2,MacIntel,60,,,,,,,,,,,,,,,,,,,,,,,,,,,,,,2,8.0081,,0,0,58,58,71,1,stimuli/stim_20210919_power2amp/equal_lnn_AM2Hz_s55_14.m4a,,,,,,,,,,,,
,,,,,42027,2021-10-10_20h37.06.387,judgeSpeechMusic_20210919_logNormShiftAmp_detection_fixFreq,2020.1.2,MacIntel,60,,,,,,,,,,,,,,,,,,,,,,,,,,,,,,1,6.5819,,0,0,59,59,13,1,stimuli/stim_20210919_power2amp/equal_lnn_AM2Hz_s15_34.m4a,,,,,,,,,,,,
,,,,,42027,2021-10-10_20h37.06.387,judgeSpeechMusic_20210919_logNormShiftAmp_detection_fixFreq,2020.1.2,MacIntel,60,,,,,,,,,,,,,,,,,,,,,,,,,,,,,,1,6.7879,,0,0,60,60,59,1,stimuli/stim_20210919_power2amp/equal_lnn_AM2Hz_s45_44.m4a,,,,,,,,,,,,
,,,,,42027,2021-10-10_20h37.06.387,judgeSpeechMusic_20210919_logNormShiftAmp_detection_fixFreq,2020.1.2,MacIntel,60,,,,,,,,,,,,,,,,,,,,,,,,,,,,,,1,19.9179,,0,0,61,61,16,1,stimuli/stim_20210919_power2amp/equal_lnn_AM2Hz_s25_46.m4a,,,,,,,,,,,,
,,,,,42027,2021-10-10_20h37.06.387,judgeSpeechMusic_20210919_logNormShiftAmp_detection_fixFreq,2020.1.2,MacIntel,60,,,,,,,,,,,,,,,,,,,,,,,,,,,,,,1,113.0657,,0,0,62,62,43,1,stimuli/stim_20210919_power2amp/equal_lnn_AM2Hz_s35_1.m4a,,,,,,,,,,,,
,,,,,42027,2021-10-10_20h37.06.387,judgeSpeechMusic_20210919_logNormShiftAmp_detection_fixFreq,2020.1.2,MacIntel,60,,,,,,,,,,,,,,,,,,,,,,,,,,,,,,2,9.6689,,0,0,63,63,34,1,stimuli/stim_20210919_power2amp/equal_lnn_AM2Hz_s35_21.m4a,,,,,,,,,,,,
,,,,,42027,2021-10-10_20h37.06.387,judgeSpeechMusic_20210919_logNormShiftAmp_detection_fixFreq,2020.1.2,MacIntel,60,,,,,,,,,,,,,,,,,,,,,,,,,,,,,,1,7.7267,,0,0,64,64,40,1,stimuli/stim_20210919_power2amp/equal_lnn_AM2Hz_s35_48.m4a,,,,,,,,,,,,
,,,,,42027,2021-10-10_20h37.06.387,judgeSpeechMusic_20210919_logNormShiftAmp_detection_fixFreq,2020.1.2,MacIntel,60,,,,,,,,,,,,,,,,,,,,,,,,,,,,,,1,74.0898,,0,0,65,65,57,1,stimuli/stim_20210919_power2amp/equal_lnn_AM2Hz_s45_12.m4a,,,,,,,,,,,,
,,,,,42027,2021-10-10_20h37.06.387,judgeSpeechMusic_20210919_logNormShiftAmp_detection_fixFreq,2020.1.2,MacIntel,60,,,,,,,,,,,,,,,,,,,,,,,,,,,,,,2,9.517,,0,0,66,66,64,1,stimuli/stim_20210919_power2amp/equal_lnn_AM2Hz_s55_41.m4a,,,,,,,,,,,,
,,,,,42027,2021-10-10_20h37.06.387,judgeSpeechMusic_20210919_logNormShiftAmp_detection_fixFreq,2020.1.2,MacIntel,60,,,,,,,,,,,,,,,,,,,,,,,,,,,,,,1,6.6069,,0,0,67,67,38,1,stimuli/stim_20210919_power2amp/equal_lnn_AM2Hz_s35_10.m4a,,,,,,,,,,,,
,,,,,42027,2021-10-10_20h37.06.387,judgeSpeechMusic_20210919_logNormShiftAmp_detection_fixFreq,2020.1.2,MacIntel,60,,,,,,,,,,,,,,,,,,,,,,,,,,,,,,1,13.695,,0,0,68,68,66,1,stimuli/stim_20210919_power2amp/equal_lnn_AM2Hz_s55_23.m4a,,,,,,,,,,,,
,,,,,42027,2021-10-10_20h37.06.387,judgeSpeechMusic_20210919_logNormShiftAmp_detection_fixFreq,2020.1.2,MacIntel,60,,,,,,,,,,,,,,,,,,,,,,,,,,,,,,1,9.229,,0,0,69,69,25,1,stimuli/stim_20210919_power2amp/equal_lnn_AM2Hz_s25_22.m4a,,,,,,,,,,,,
,,,,,42027,2021-10-10_20h37.06.387,judgeSpeechMusic_20210919_logNormShiftAmp_detection_fixFreq,2020.1.2,MacIntel,60,,,,,,,,,,,,,,,,,,,,,,,,,,,,,,1,6.4101,,0,0,70,70,24,1,stimuli/stim_20210919_power2amp/equal_lnn_AM2Hz_s25_18.m4a,,,,,,,,,,,,
,,,,,42027,2021-10-10_20h37.06.387,judgeSpeechMusic_20210919_logNormShiftAmp_detection_fixFreq,2020.1.2,MacIntel,60,,,,,,,,,,,,,,,,,,,,,,,,,,,,,,2,7.3044,,0,0,71,71,0,1,stimuli/stim_20210919_power2amp/equal_lnn_AM2Hz_s15_13.m4a,,,,,,,,,,,,
,,,,,42027,2021-10-10_20h37.06.387,judgeSpeechMusic_20210919_logNormShiftAmp_detection_fixFreq,2020.1.2,MacIntel,60,,,,,,,,,,,,,,,,,,,,,,,,,,,,,,1,12.6811,,0,0,72,72,4,1,stimuli/stim_20210919_power2amp/equal_lnn_AM2Hz_s15_20.m4a,,,,,,,,,,,,
,,,,,42027,2021-10-10_20h37.06.387,judgeSpeechMusic_20210919_logNormShiftAmp_detection_fixFreq,2020.1.2,MacIntel,60,,,,,,,,,,,,,,,,,,,,,,,,,,,,,,2,10.0086,,0,0,73,73,20,1,stimuli/stim_20210919_power2amp/equal_lnn_AM2Hz_s25_47.m4a,,,,,,,,,,,,
,,,,,42027,2021-10-10_20h37.06.387,judgeSpeechMusic_20210919_logNormShiftAmp_detection_fixFreq,2020.1.2,MacIntel,60,,,,,,,,,,,,,,,,,,,,,,,,,,,,,,1,15.056,,0,0,74,74,36,1,stimuli/stim_20210919_power2amp/equal_lnn_AM2Hz_s35_9.m4a,,,,,,,,,,,,
,,,,,42027,2021-10-10_20h37.06.387,judgeSpeechMusic_20210919_logNormShiftAmp_detection_fixFreq,2020.1.2,MacIntel,60,,,,,,,,,,,,,,,,,,,,,,,,,,,,,,,,,,,,,,,,,space,292.2716,1,0,2,1,1,SPEECH,stimuli/SPEECH.jpg,,
,,,,,42027,2021-10-10_20h37.06.387,judgeSpeechMusic_20210919_logNormShiftAmp_detection_fixFreq,2020.1.2,MacIntel,60,,,,,,,,,,,,,,,,,,0,0,0,0,2,1,stimuli/stim_20210919_power2amp/equal_lnn_AM_training2Hz_s40.m4a,,,,,,,,,,,,,,,,,,,,,,,,,,,
,,,,,42027,2021-10-10_20h37.06.387,judgeSpeechMusic_20210919_logNormShiftAmp_detection_fixFreq,2020.1.2,MacIntel,60,,,,,,,,,,,,,,,,,,,,,,,,,,space,1.2717,space,7.6177,1,6.7059,,0,0,0,0,66,1,stimuli/stim_20210919_power2amp/equal_lnn_AM2Hz_s55_23.m4a,,,,,,,,,,,,
,,,,,42027,2021-10-10_20h37.06.387,judgeSpeechMusic_20210919_logNormShiftAmp_detection_fixFreq,2020.1.2,MacIntel,60,,,,,,,,,,,,,,,,,,,,,,,,,,,,,,1,5.9817,,0,0,1,1,21,1,stimuli/stim_20210919_power2amp/equal_lnn_AM2Hz_s25_11.m4a,,,,,,,,,,,,
,,,,,42027,2021-10-10_20h37.06.387,judgeSpeechMusic_20210919_logNormShiftAmp_detection_fixFreq,2020.1.2,MacIntel,60,,,,,,,,,,,,,,,,,,,,,,,,,,,,,,1,5.8396,,0,0,2,2,58,1,stimuli/stim_20210919_power2amp/equal_lnn_AM2Hz_s45_37.m4a,,,,,,,,,,,,
,,,,,42027,2021-10-10_20h37.06.387,judgeSpeechMusic_20210919_logNormShiftAmp_detection_fixFreq,2020.1.2,MacIntel,60,,,,,,,,,,,,,,,,,,,,,,,,,,,,,,1,5.9223,,0,0,3,3,6,1,stimuli/stim_20210919_power2amp/equal_lnn_AM2Hz_s15_42.m4a,,,,,,,,,,,,
,,,,,42027,2021-10-10_20h37.06.387,judgeSpeechMusic_20210919_logNormShiftAmp_detection_fixFreq,2020.1.2,MacIntel,60,,,,,,,,,,,,,,,,,,,,,,,,,,,,,,2,5.7049,,0,0,4,4,63,1,stimuli/stim_20210919_power2amp/equal_lnn_AM2Hz_s55_37.m4a,,,,,,,,,,,,
,,,,,42027,2021-10-10_20h37.06.387,judgeSpeechMusic_20210919_logNormShiftAmp_detection_fixFreq,2020.1.2,MacIntel,60,,,,,,,,,,,,,,,,,,,,,,,,,,,,,,1,6.3999,,0,0,5,5,9,1,stimuli/stim_20210919_power2amp/equal_lnn_AM2Hz_s15_5.m4a,,,,,,,,,,,,
,,,,,42027,2021-10-10_20h37.06.387,judgeSpeechMusic_20210919_logNormShiftAmp_detection_fixFreq,2020.1.2,MacIntel,60,,,,,,,,,,,,,,,,,,,,,,,,,,,,,,1,11.6941,,0,0,6,6,30,1,stimuli/stim_20210919_power2amp/equal_lnn_AM2Hz_s35_24.m4a,,,,,,,,,,,,
,,,,,42027,2021-10-10_20h37.06.387,judgeSpeechMusic_20210919_logNormShiftAmp_detection_fixFreq,2020.1.2,MacIntel,60,,,,,,,,,,,,,,,,,,,,,,,,,,,,,,1,5.9652,,0,0,7,7,0,1,stimuli/stim_20210919_power2amp/equal_lnn_AM2Hz_s15_13.m4a,,,,,,,,,,,,
,,,,,42027,2021-10-10_20h37.06.387,judgeSpeechMusic_20210919_logNormShiftAmp_detection_fixFreq,2020.1.2,MacIntel,60,,,,,,,,,,,,,,,,,,,,,,,,,,,,,,1,5.8983,,0,0,8,8,62,1,stimuli/stim_20210919_power2amp/equal_lnn_AM2Hz_s55_35.m4a,,,,,,,,,,,,
,,,,,42027,2021-10-10_20h37.06.387,judgeSpeechMusic_20210919_logNormShiftAmp_detection_fixFreq,2020.1.2,MacIntel,60,,,,,,,,,,,,,,,,,,,,,,,,,,,,,,2,6.9179,,0,0,9,9,50,1,stimuli/stim_20210919_power2amp/equal_lnn_AM2Hz_s45_29.m4a,,,,,,,,,,,,
,,,,,42027,2021-10-10_20h37.06.387,judgeSpeechMusic_20210919_logNormShiftAmp_detection_fixFreq,2020.1.2,MacIntel,60,,,,,,,,,,,,,,,,,,,,,,,,,,,,,,1,33.3081,,0,0,10,10,20,1,stimuli/stim_20210919_power2amp/equal_lnn_AM2Hz_s25_47.m4a,,,,,,,,,,,,
,,,,,42027,2021-10-10_20h37.06.387,judgeSpeechMusic_20210919_logNormShiftAmp_detection_fixFreq,2020.1.2,MacIntel,60,,,,,,,,,,,,,,,,,,,,,,,,,,,,,,1,6.9774,,0,0,11,11,3,1,stimuli/stim_20210919_power2amp/equal_lnn_AM2Hz_s15_46.m4a,,,,,,,,,,,,
,,,,,42027,2021-10-10_20h37.06.387,judgeSpeechMusic_20210919_logNormShiftAmp_detection_fixFreq,2020.1.2,MacIntel,60,,,,,,,,,,,,,,,,,,,,,,,,,,,,,,1,5.6686,,0,0,12,12,15,1,stimuli/stim_20210919_power2amp/equal_lnn_AM2Hz_s25_8.m4a,,,,,,,,,,,,
,,,,,42027,2021-10-10_20h37.06.387,judgeSpeechMusic_20210919_logNormShiftAmp_detection_fixFreq,2020.1.2,MacIntel,60,,,,,,,,,,,,,,,,,,,,,,,,,,,,,,2,6.6435,,0,0,13,13,38,1,stimuli/stim_20210919_power2amp/equal_lnn_AM2Hz_s35_10.m4a,,,,,,,,,,,,
,,,,,42027,2021-10-10_20h37.06.387,judgeSpeechMusic_20210919_logNormShiftAmp_detection_fixFreq,2020.1.2,MacIntel,60,,,,,,,,,,,,,,,,,,,,,,,,,,,,,,1,7.1898,,0,0,14,14,42,1,stimuli/stim_20210919_power2amp/equal_lnn_AM2Hz_s35_35.m4a,,,,,,,,,,,,
,,,,,42027,2021-10-10_20h37.06.387,judgeSpeechMusic_20210919_logNormShiftAmp_detection_fixFreq,2020.1.2,MacIntel,60,,,,,,,,,,,,,,,,,,,,,,,,,,,,,,1,6.0143,,0,0,15,15,70,1,stimuli/stim_20210919_power2amp/equal_lnn_AM2Hz_s55_7.m4a,,,,,,,,,,,,
,,,,,42027,2021-10-10_20h37.06.387,judgeSpeechMusic_20210919_logNormShiftAmp_detection_fixFreq,2020.1.2,MacIntel,60,,,,,,,,,,,,,,,,,,,,,,,,,,,,,,1,8.3676,,0,0,16,16,7,1,stimuli/stim_20210919_power2amp/equal_lnn_AM2Hz_s15_8.m4a,,,,,,,,,,,,
,,,,,42027,2021-10-10_20h37.06.387,judgeSpeechMusic_20210919_logNormShiftAmp_detection_fixFreq,2020.1.2,MacIntel,60,,,,,,,,,,,,,,,,,,,,,,,,,,,,,,2,18.9662,,0,0,17,17,26,1,stimuli/stim_20210919_power2amp/equal_lnn_AM2Hz_s25_33.m4a,,,,,,,,,,,,
,,,,,42027,2021-10-10_20h37.06.387,judgeSpeechMusic_20210919_logNormShiftAmp_detection_fixFreq,2020.1.2,MacIntel,60,,,,,,,,,,,,,,,,,,,,,,,,,,,,,,1,7.3423,1,1,0,18,18,31,1,stimuli/stim_20210919_power2amp/equal_lnn_AM2Hz_s35_34.m4a,0.9904,,,,,,,,,,,
,,,,,42027,2021-10-10_20h37.06.387,judgeSpeechMusic_20210919_logNormShiftAmp_detection_fixFreq,2020.1.2,MacIntel,60,,,,,,,,,,,,,,,,,,,,,,,,,,,,,,1,8.0884,,0,0,19,19,44,1,stimuli/stim_20210919_power2amp/equal_lnn_AM2Hz_s35_13.m4a,,,,,,,,,,,,
,,,,,42027,2021-10-10_20h37.06.387,judgeSpeechMusic_20210919_logNormShiftAmp_detection_fixFreq,2020.1.2,MacIntel,60,,,,,,,,,,,,,,,,,,,,,,,,,,,,,,1,6.3608,,0,0,20,20,46,1,stimuli/stim_20210919_power2amp/equal_lnn_AM2Hz_s45_32.m4a,,,,,,,,,,,,
,,,,,42027,2021-10-10_20h37.06.387,judgeSpeechMusic_20210919_logNormShiftAmp_detection_fixFreq,2020.1.2,MacIntel,60,,,,,,,,,,,,,,,,,,,,,,,,,,,,,,1,6.1358,,0,0,21,21,14,1,stimuli/stim_20210919_power2amp/equal_lnn_AM2Hz_s15_50.m4a,,,,,,,,,,,,
,,,,,42027,2021-10-10_20h37.06.387,judgeSpeechMusic_20210919_logNormShiftAmp_detection_fixFreq,2020.1.2,MacIntel,60,,,,,,,,,,,,,,,,,,,,,,,,,,,,,,1,9.3662,,0,0,22,22,11,1,stimuli/stim_20210919_power2amp/equal_lnn_AM2Hz_s15_32.m4a,,,,,,,,,,,,
,,,,,42027,2021-10-10_20h37.06.387,judgeSpeechMusic_20210919_logNormShiftAmp_detection_fixFreq,2020.1.2,MacIntel,60,,,,,,,,,,,,,,,,,,,,,,,,,,,,,,1,6.5849,,0,0,23,23,51,1,stimuli/stim_20210919_power2amp/equal_lnn_AM2Hz_s45_14.m4a,,,,,,,,,,,,
,,,,,42027,2021-10-10_20h37.06.387,judgeSpeechMusic_20210919_logNormShiftAmp_detection_fixFreq,2020.1.2,MacIntel,60,,,,,,,,,,,,,,,,,,,,,,,,,,,,,,2,6.9372,,0,0,24,24,18,1,stimuli/stim_20210919_power2amp/equal_lnn_AM2Hz_s25_32.m4a,,,,,,,,,,,,
,,,,,42027,2021-10-10_20h37.06.387,judgeSpeechMusic_20210919_logNormShiftAmp_detection_fixFreq,2020.1.2,MacIntel,60,,,,,,,,,,,,,,,,,,,,,,,,,,,,,,1,6.8996,,0,0,25,25,13,1,stimuli/stim_20210919_power2amp/equal_lnn_AM2Hz_s15_34.m4a,,,,,,,,,,,,
,,,,,42027,2021-10-10_20h37.06.387,judgeSpeechMusic_20210919_logNormShiftAmp_detection_fixFreq,2020.1.2,MacIntel,60,,,,,,,,,,,,,,,,,,,,,,,,,,,,,,1,6.1612,,0,0,26,26,23,1,stimuli/stim_20210919_power2amp/equal_lnn_AM2Hz_s25_13.m4a,,,,,,,,,,,,
,,,,,42027,2021-10-10_20h37.06.387,judgeSpeechMusic_20210919_logNormShiftAmp_detection_fixFreq,2020.1.2,MacIntel,60,,,,,,,,,,,,,,,,,,,,,,,,,,,,,,2,9.4715,,0,0,27,27,65,1,stimuli/stim_20210919_power2amp/equal_lnn_AM2Hz_s55_48.m4a,,,,,,,,,,,,
,,,,,42027,2021-10-10_20h37.06.387,judgeSpeechMusic_20210919_logNormShiftAmp_detection_fixFreq,2020.1.2,MacIntel,60,,,,,,,,,,,,,,,,,,,,,,,,,,,,,,1,10.3571,,0,0,28,28,19,1,stimuli/stim_20210919_power2amp/equal_lnn_AM2Hz_s25_12.m4a,,,,,,,,,,,,
,,,,,42027,2021-10-10_20h37.06.387,judgeSpeechMusic_20210919_logNormShiftAmp_detection_fixFreq,2020.1.2,MacIntel,60,,,,,,,,,,,,,,,,,,,,,,,,,,,,,,1,6.3585,,0,0,29,29,34,1,stimuli/stim_20210919_power2amp/equal_lnn_AM2Hz_s35_21.m4a,,,,,,,,,,,,
,,,,,42027,2021-10-10_20h37.06.387,judgeSpeechMusic_20210919_logNormShiftAmp_detection_fixFreq,2020.1.2,MacIntel,60,,,,,,,,,,,,,,,,,,,,,,,,,,,,,,1,8.5282,,0,0,30,30,22,1,stimuli/stim_20210919_power2amp/equal_lnn_AM2Hz_s25_2.m4a,,,,,,,,,,,,
,,,,,42027,2021-10-10_20h37.06.387,judgeSpeechMusic_20210919_logNormShiftAmp_detection_fixFreq,2020.1.2,MacIntel,60,,,,,,,,,,,,,,,,,,,,,,,,,,,,,,1,5.8743,,0,0,31,31,39,1,stimuli/stim_20210919_power2amp/equal_lnn_AM2Hz_s35_17.m4a,,,,,,,,,,,,
,,,,,42027,2021-10-10_20h37.06.387,judgeSpeechMusic_20210919_logNormShiftAmp_detection_fixFreq,2020.1.2,MacIntel,60,,,,,,,,,,,,,,,,,,,,,,,,,,,,,,2,5.7316,,0,0,32,32,56,1,stimuli/stim_20210919_power2amp/equal_lnn_AM2Hz_s45_17.m4a,,,,,,,,,,,,
,,,,,42027,2021-10-10_20h37.06.387,judgeSpeechMusic_20210919_logNormShiftAmp_detection_fixFreq,2020.1.2,MacIntel,60,,,,,,,,,,,,,,,,,,,,,,,,,,,,,,1,7.1109,,0,0,33,33,35,1,stimuli/stim_20210919_power2amp/equal_lnn_AM2Hz_s35_47.m4a,,,,,,,,,,,,
,,,,,42027,2021-10-10_20h37.06.387,judgeSpeechMusic_20210919_logNormShiftAmp_detection_fixFreq,2020.1.2,MacIntel,60,,,,,,,,,,,,,,,,,,,,,,,,,,,,,,1,5.6946,,0,0,34,34,36,1,stimuli/stim_20210919_power2amp/equal_lnn_AM2Hz_s35_9.m4a,,,,,,,,,,,,
,,,,,42027,2021-10-10_20h37.06.387,judgeSpeechMusic_20210919_logNormShiftAmp_detection_fixFreq,2020.1.2,MacIntel,60,,,,,,,,,,,,,,,,,,,,,,,,,,,,,,1,5.9543,,0,0,35,35,33,1,stimuli/stim_20210919_power2amp/equal_lnn_AM2Hz_s35_25.m4a,,,,,,,,,,,,
,,,,,42027,2021-10-10_20h37.06.387,judgeSpeechMusic_20210919_logNormShiftAmp_detection_fixFreq,2020.1.2,MacIntel,60,,,,,,,,,,,,,,,,,,,,,,,,,,,,,,2,7.002,,0,0,36,36,57,1,stimuli/stim_20210919_power2amp/equal_lnn_AM2Hz_s45_12.m4a,,,,,,,,,,,,
,,,,,42027,2021-10-10_20h37.06.387,judgeSpeechMusic_20210919_logNormShiftAmp_detection_fixFreq,2020.1.2,MacIntel,60,,,,,,,,,,,,,,,,,,,,,,,,,,,,,,1,6.5374,4,1,0,37,37,29,1,stimuli/stim_20210919_power2amp/equal_lnn_AM2Hz_s25_49.m4a,0.7484,,,,,,,,,,,
,,,,,42027,2021-10-10_20h37.06.387,judgeSpeechMusic_20210919_logNormShiftAmp_detection_fixFreq,2020.1.2,MacIntel,60,,,,,,,,,,,,,,,,,,,,,,,,,,,,,,1,5.8629,,0,0,38,38,53,1,stimuli/stim_20210919_power2amp/equal_lnn_AM2Hz_s45_26.m4a,,,,,,,,,,,,
,,,,,42027,2021-10-10_20h37.06.387,judgeSpeechMusic_20210919_logNormShiftAmp_detection_fixFreq,2020.1.2,MacIntel,60,,,,,,,,,,,,,,,,,,,,,,,,,,,,,,1,5.9386,,0,0,39,39,73,1,stimuli/stim_20210919_power2amp/equal_lnn_AM2Hz_s55_45.m4a,,,,,,,,,,,,
,,,,,42027,2021-10-10_20h37.06.387,judgeSpeechMusic_20210919_logNormShiftAmp_detection_fixFreq,2020.1.2,MacIntel,60,,,,,,,,,,,,,,,,,,,,,,,,,,,,,,1,8.2469,,0,0,40,40,52,1,stimuli/stim_20210919_power2amp/equal_lnn_AM2Hz_s45_49.m4a,,,,,,,,,,,,
,,,,,42027,2021-10-10_20h37.06.387,judgeSpeechMusic_20210919_logNormShiftAmp_detection_fixFreq,2020.1.2,MacIntel,60,,,,,,,,,,,,,,,,,,,,,,,,,,,,,,1,6.2993,,0,0,41,41,2,1,stimuli/stim_20210919_power2amp/equal_lnn_AM2Hz_s15_27.m4a,,,,,,,,,,,,
,,,,,42027,2021-10-10_20h37.06.387,judgeSpeechMusic_20210919_logNormShiftAmp_detection_fixFreq,2020.1.2,MacIntel,60,,,,,,,,,,,,,,,,,,,,,,,,,,,,,,1,5.3996,,0,0,42,42,40,1,stimuli/stim_20210919_power2amp/equal_lnn_AM2Hz_s35_48.m4a,,,,,,,,,,,,
,,,,,42027,2021-10-10_20h37.06.387,judgeSpeechMusic_20210919_logNormShiftAmp_detection_fixFreq,2020.1.2,MacIntel,60,,,,,,,,,,,,,,,,,,,,,,,,,,,,,,2,6.0616,,0,0,43,43,25,1,stimuli/stim_20210919_power2amp/equal_lnn_AM2Hz_s25_22.m4a,,,,,,,,,,,,
,,,,,42027,2021-10-10_20h37.06.387,judgeSpeechMusic_20210919_logNormShiftAmp_detection_fixFreq,2020.1.2,MacIntel,60,,,,,,,,,,,,,,,,,,,,,,,,,,,,,,1,6.1491,,0,0,44,44,64,1,stimuli/stim_20210919_power2amp/equal_lnn_AM2Hz_s55_41.m4a,,,,,,,,,,,,
,,,,,42027,2021-10-10_20h37.06.387,judgeSpeechMusic_20210919_logNormShiftAmp_detection_fixFreq,2020.1.2,MacIntel,60,,,,,,,,,,,,,,,,,,,,,,,,,,,,,,1,5.5726,,0,0,45,45,41,1,stimuli/stim_20210919_power2amp/equal_lnn_AM2Hz_s35_19.m4a,,,,,,,,,,,,
,,,,,42027,2021-10-10_20h37.06.387,judgeSpeechMusic_20210919_logNormShiftAmp_detection_fixFreq,2020.1.2,MacIntel,60,,,,,,,,,,,,,,,,,,,,,,,,,,,,,,1,7.0259,,0,0,46,46,61,1,stimuli/stim_20210919_power2amp/equal_lnn_AM2Hz_s55_36.m4a,,,,,,,,,,,,
,,,,,42027,2021-10-10_20h37.06.387,judgeSpeechMusic_20210919_logNormShiftAmp_detection_fixFreq,2020.1.2,MacIntel,60,,,,,,,,,,,,,,,,,,,,,,,,,,,,,,1,8.5612,,0,0,47,47,1,1,stimuli/stim_20210919_power2amp/equal_lnn_AM2Hz_s15_19.m4a,,,,,,,,,,,,
,,,,,42027,2021-10-10_20h37.06.387,judgeSpeechMusic_20210919_logNormShiftAmp_detection_fixFreq,2020.1.2,MacIntel,60,,,,,,,,,,,,,,,,,,,,,,,,,,,,,,1,25.705,,0,0,48,48,17,1,stimuli/stim_20210919_power2amp/equal_lnn_AM2Hz_s25_35.m4a,,,,,,,,,,,,
,,,,,42027,2021-10-10_20h37.06.387,judgeSpeechMusic_20210919_logNormShiftAmp_detection_fixFreq,2020.1.2,MacIntel,60,,,,,,,,,,,,,,,,,,,,,,,,,,,,,,2,7.2764,,0,0,49,49,45,1,stimuli/stim_20210919_power2amp/equal_lnn_AM2Hz_s45_6.m4a,,,,,,,,,,,,
,,,,,42027,2021-10-10_20h37.06.387,judgeSpeechMusic_20210919_logNormShiftAmp_detection_fixFreq,2020.1.2,MacIntel,60,,,,,,,,,,,,,,,,,,,,,,,,,,,,,,1,6.299,,0,0,50,50,69,1,stimuli/stim_20210919_power2amp/equal_lnn_AM2Hz_s55_10.m4a,,,,,,,,,,,,
,,,,,42027,2021-10-10_20h37.06.387,judgeSpeechMusic_20210919_logNormShiftAmp_detection_fixFreq,2020.1.2,MacIntel,60,,,,,,,,,,,,,,,,,,,,,,,,,,,,,,1,5.966,,0,0,51,51,67,1,stimuli/stim_20210919_power2amp/equal_lnn_AM2Hz_s55_47.m4a,,,,,,,,,,,,
,,,,,42027,2021-10-10_20h37.06.387,judgeSpeechMusic_20210919_logNormShiftAmp_detection_fixFreq,2020.1.2,MacIntel,60,,,,,,,,,,,,,,,,,,,,,,,,,,,,,,1,5.9252,,0,0,52,52,49,1,stimuli/stim_20210919_power2amp/equal_lnn_AM2Hz_s45_27.m4a,,,,,,,,,,,,
,,,,,42027,2021-10-10_20h37.06.387,judgeSpeechMusic_20210919_logNormShiftAmp_detection_fixFreq,2020.1.2,MacIntel,60,,,,,,,,,,,,,,,,,,,,,,,,,,,,,,2,7.0243,,0,0,53,53,28,1,stimuli/stim_20210919_power2amp/equal_lnn_AM2Hz_s25_42.m4a,,,,,,,,,,,,
,,,,,42027,2021-10-10_20h37.06.387,judgeSpeechMusic_20210919_logNormShiftAmp_detection_fixFreq,2020.1.2,MacIntel,60,,,,,,,,,,,,,,,,,,,,,,,,,,,,,,1,6.878,,0,0,54,54,4,1,stimuli/stim_20210919_power2amp/equal_lnn_AM2Hz_s15_20.m4a,,,,,,,,,,,,
,,,,,42027,2021-10-10_20h37.06.387,judgeSpeechMusic_20210919_logNormShiftAmp_detection_fixFreq,2020.1.2,MacIntel,60,,,,,,,,,,,,,,,,,,,,,,,,,,,,,,2,7.6024,2,1,0,55,55,71,1,stimuli/stim_20210919_power2amp/equal_lnn_AM2Hz_s55_14.m4a,2.0522,,,,,,,,,,,
,,,,,42027,2021-10-10_20h37.06.387,judgeSpeechMusic_20210919_logNormShiftAmp_detection_fixFreq,2020.1.2,MacIntel,60,,,,,,,,,,,,,,,,,,,,,,,,,,,,,,1,7.5645,,0,0,56,56,55,1,stimuli/stim_20210919_power2amp/equal_lnn_AM2Hz_s45_39.m4a,,,,,,,,,,,,
,,,,,42027,2021-10-10_20h37.06.387,judgeSpeechMusic_20210919_logNormShiftAmp_detection_fixFreq,2020.1.2,MacIntel,60,,,,,,,,,,,,,,,,,,,,,,,,,,,,,,2,7.3808,,0,0,57,57,54,1,stimuli/stim_20210919_power2amp/equal_lnn_AM2Hz_s45_13.m4a,,,,,,,,,,,,
,,,,,42027,2021-10-10_20h37.06.387,judgeSpeechMusic_20210919_logNormShiftAmp_detection_fixFreq,2020.1.2,MacIntel,60,,,,,,,,,,,,,,,,,,,,,,,,,,,,,,1,29.724,,0,0,58,58,10,1,stimuli/stim_20210919_power2amp/equal_lnn_AM2Hz_s15_28.m4a,,,,,,,,,,,,
,,,,,42027,2021-10-10_20h37.06.387,judgeSpeechMusic_20210919_logNormShiftAmp_detection_fixFreq,2020.1.2,MacIntel,60,,,,,,,,,,,,,,,,,,,,,,,,,,,,,,1,39.1611,,0,0,59,59,68,1,stimuli/stim_20210919_power2amp/equal_lnn_AM2Hz_s55_19.m4a,,,,,,,,,,,,
,,,,,42027,2021-10-10_20h37.06.387,judgeSpeechMusic_20210919_logNormShiftAmp_detection_fixFreq,2020.1.2,MacIntel,60,,,,,,,,,,,,,,,,,,,,,,,,,,,,,,2,8.9164,,0,0,60,60,59,1,stimuli/stim_20210919_power2amp/equal_lnn_AM2Hz_s45_44.m4a,,,,,,,,,,,,
,,,,,42027,2021-10-10_20h37.06.387,judgeSpeechMusic_20210919_logNormShiftAmp_detection_fixFreq,2020.1.2,MacIntel,60,,,,,,,,,,,,,,,,,,,,,,,,,,,,,,1,12.7596,,0,0,61,61,27,1,stimuli/stim_20210919_power2amp/equal_lnn_AM2Hz_s25_9.m4a,,,,,,,,,,,,
,,,,,42027,2021-10-10_20h37.06.387,judgeSpeechMusic_20210919_logNormShiftAmp_detection_fixFreq,2020.1.2,MacIntel,60,,,,,,,,,,,,,,,,,,,,,,,,,,,,,,1,64.1348,,0,0,62,62,48,1,stimuli/stim_20210919_power2amp/equal_lnn_AM2Hz_s45_40.m4a,,,,,,,,,,,,
,,,,,42027,2021-10-10_20h37.06.387,judgeSpeechMusic_20210919_logNormShiftAmp_detection_fixFreq,2020.1.2,MacIntel,60,,,,,,,,,,,,,,,,,,,,,,,,,,,,,,2,7.6452,,0,0,63,63,47,1,stimuli/stim_20210919_power2amp/equal_lnn_AM2Hz_s45_22.m4a,,,,,,,,,,,,
,,,,,42027,2021-10-10_20h37.06.387,judgeSpeechMusic_20210919_logNormShiftAmp_detection_fixFreq,2020.1.2,MacIntel,60,,,,,,,,,,,,,,,,,,,,,,,,,,,,,,1,13.2274,,0,0,64,64,43,1,stimuli/stim_20210919_power2amp/equal_lnn_AM2Hz_s35_1.m4a,,,,,,,,,,,,
,,,,,42027,2021-10-10_20h37.06.387,judgeSpeechMusic_20210919_logNormShiftAmp_detection_fixFreq,2020.1.2,MacIntel,60,,,,,,,,,,,,,,,,,,,,,,,,,,,,,,1,17.6491,,0,0,65,65,8,1,stimuli/stim_20210919_power2amp/equal_lnn_AM2Hz_s15_23.m4a,,,,,,,,,,,,
,,,,,42027,2021-10-10_20h37.06.387,judgeSpeechMusic_20210919_logNormShiftAmp_detection_fixFreq,2020.1.2,MacIntel,60,,,,,,,,,,,,,,,,,,,,,,,,,,,,,,1,10.6592,,0,0,66,66,12,1,stimuli/stim_20210919_power2amp/equal_lnn_AM2Hz_s15_9.m4a,,,,,,,,,,,,
,,,,,42027,2021-10-10_20h37.06.387,judgeSpeechMusic_20210919_logNormShiftAmp_detection_fixFreq,2020.1.2,MacIntel,60,,,,,,,,,,,,,,,,,,,,,,,,,,,,,,1,6.264,,0,0,67,67,5,1,stimuli/stim_20210919_power2amp/equal_lnn_AM2Hz_s15_25.m4a,,,,,,,,,,,,
,,,,,42027,2021-10-10_20h37.06.387,judgeSpeechMusic_20210919_logNormShiftAmp_detection_fixFreq,2020.1.2,MacIntel,60,,,,,,,,,,,,,,,,,,,,,,,,,,,,,,2,11.8631,,0,0,68,68,60,1,stimuli/stim_20210919_power2amp/equal_lnn_AM2Hz_s55_29.m4a,,,,,,,,,,,,
,,,,,42027,2021-10-10_20h37.06.387,judgeSpeechMusic_20210919_logNormShiftAmp_detection_fixFreq,2020.1.2,MacIntel,60,,,,,,,,,,,,,,,,,,,,,,,,,,,,,,1,11.3159,,0,0,69,69,32,1,stimuli/stim_20210919_power2amp/equal_lnn_AM2Hz_s35_39.m4a,,,,,,,,,,,,
,,,,,42027,2021-10-10_20h37.06.387,judgeSpeechMusic_20210919_logNormShiftAmp_detection_fixFreq,2020.1.2,MacIntel,60,,,,,,,,,,,,,,,,,,,,,,,,,,,,,,1,7.1962,,0,0,70,70,37,1,stimuli/stim_20210919_power2amp/equal_lnn_AM2Hz_s35_45.m4a,,,,,,,,,,,,
,,,,,42027,2021-10-10_20h37.06.387,judgeSpeechMusic_20210919_logNormShiftAmp_detection_fixFreq,2020.1.2,MacIntel,60,,,,,,,,,,,,,,,,,,,,,,,,,,,,,,2,6.2924,,0,0,71,71,16,1,stimuli/stim_20210919_power2amp/equal_lnn_AM2Hz_s25_46.m4a,,,,,,,,,,,,
,,,,,42027,2021-10-10_20h37.06.387,judgeSpeechMusic_20210919_logNormShiftAmp_detection_fixFreq,2020.1.2,MacIntel,60,,,,,,,,,,,,,,,,,,,,,,,,,,,,,,1,6.244,,0,0,72,72,24,1,stimuli/stim_20210919_power2amp/equal_lnn_AM2Hz_s25_18.m4a,,,,,,,,,,,,
,,,,,42027,2021-10-10_20h37.06.387,judgeSpeechMusic_20210919_logNormShiftAmp_detection_fixFreq,2020.1.2,MacIntel,60,,,,,,,,,,,,,,,,,,,,,,,,,,,,,,1,5.6633,,0,0,73,73,74,1,stimuli/stim_20210919_power2amp/equal_lnn_AM2Hz_s55_25.m4a,,,,,,,,,,,,
,,,,,42027,2021-10-10_20h37.06.387,judgeSpeechMusic_20210919_logNormShiftAmp_detection_fixFreq,2020.1.2,MacIntel,60,,,,,,,,,,,,,,,,,,,,,,,,,,,,,,1,5.8616,,0,0,74,74,72,1,stimuli/stim_20210919_power2amp/equal_lnn_AM2Hz_s55_31.m4a,,,,,,,,,,,,
,,,,,42027,2021-10-10_20h37.06.387,judgeSpeechMusic_20210919_logNormShiftAmp_detection_fixFreq,2020.1.2,MacIntel,60,,,,,,,,,,,,,,,,,,,,,,,,,,,,,,,,,,,,,,,,,,,1,1,3,0,1,MUSIC,stimuli/MUSIC.jpg,,
,,,,,42027,2021-10-10_20h37.06.387,judgeSpeechMusic_20210919_logNormShiftAmp_detection_fixFreq,2020.1.2,MacIntel,60,,,,,,,,,,,,,,,,,,,,,,,,,,,,,,,,,,,,,,,,,,,,,,,,,,space,3.9291
