volAdjustRep.thisRepN,volAdjustRep.thisTrialN,volAdjustRep.thisN,volAdjustRep.thisIndex,volAdjustRep.ran,participant,date,expName,psychopyVersion,OS,frameRate,headphoneResponse.keys,headphoneResponse.corr,headphoneResponse.rt,headphoneTrial.thisRepN,headphoneTrial.thisTrialN,headphoneTrial.thisN,headphoneTrial.thisIndex,headphoneTrial.ran,headphone_sound1,headphone_sound2,headphone_sound3,corrAns,checkInstruKey.keys,checkInstruKey.rt,trainSlider.response,trainSlider.rt,beepTrainResponse.keys,beepTrainResponse.corr,trainingTrials.thisRepN,trainingTrials.thisTrialN,trainingTrials.thisN,trainingTrials.thisIndex,trainingTrials.ran,trainAudioFile,beepTrainResponse.rt,readyReal_resp.keys,readyReal_resp.rt,checkInstru2_key.keys,checkInstru2_key.rt,ratingSlider.response,ratingSlider.rt,beepResp.keys,beepResp.corr,expTrials.thisRepN,expTrials.thisTrialN,expTrials.thisN,expTrials.thisIndex,expTrials.ran,audioFile,beepResp.rt,switchBlock_space.keys,switchBlock_space.rt,block.thisRepN,block.thisTrialN,block.thisN,block.thisIndex,block.ran,blockName,blockImage,end_resp.keys,end_resp.rt
0,0,0,0,1,42144,2021-10-06_15h33.06.163,judgeSpeechMusic_20210919_logNormShiftAmp_detection_fixFreq,2020.1.2,MacIntel,60,,,,,,,,,,,,,,,,,,,,,,,,,,,,,,,,,,,,,,,,,,,,,,,,,,,
,,,,,42144,2021-10-06_15h33.06.163,judgeSpeechMusic_20210919_logNormShiftAmp_detection_fixFreq,2020.1.2,MacIntel,60,3,0,5.1141,0,0,0,4,1,stimuli/screen_quiet.wav,stimuli/screen_antiphase.wav,stimuli/screen_origin.wav,1,,,,,,,,,,,,,,,,,,,,,,,,,,,,,,,,,,,,,,,
,,,,,42144,2021-10-06_15h33.06.163,judgeSpeechMusic_20210919_logNormShiftAmp_detection_fixFreq,2020.1.2,MacIntel,60,2,1,0.8874,0,1,1,3,1,stimuli/screen_origin.wav,stimuli/screen_quiet.wav,stimuli/screen_antiphase.wav,2,,,,,,,,,,,,,,,,,,,,,,,,,,,,,,,,,,,,,,,
,,,,,42144,2021-10-06_15h33.06.163,judgeSpeechMusic_20210919_logNormShiftAmp_detection_fixFreq,2020.1.2,MacIntel,60,3,1,1.3666,0,2,2,0,1,stimuli/screen_antiphase.wav,stimuli/screen_origin.wav,stimuli/screen_quiet.wav,3,,,,,,,,,,,,,,,,,,,,,,,,,,,,,,,,,,,,,,,
,,,,,42144,2021-10-06_15h33.06.163,judgeSpeechMusic_20210919_logNormShiftAmp_detection_fixFreq,2020.1.2,MacIntel,60,1,1,0.4304,0,3,3,5,1,stimuli/screen_quiet.wav,stimuli/screen_origin.wav,stimuli/screen_antiphase.wav,1,,,,,,,,,,,,,,,,,,,,,,,,,,,,,,,,,,,,,,,
,,,,,42144,2021-10-06_15h33.06.163,judgeSpeechMusic_20210919_logNormShiftAmp_detection_fixFreq,2020.1.2,MacIntel,60,3,1,0.4332,0,4,4,2,1,stimuli/screen_origin.wav,stimuli/screen_antiphase.wav,stimuli/screen_quiet.wav,3,,,,,,,,,,,,,,,,,,,,,,,,,,,,,,,,,,,,,,,
,,,,,42144,2021-10-06_15h33.06.163,judgeSpeechMusic_20210919_logNormShiftAmp_detection_fixFreq,2020.1.2,MacIntel,60,2,1,0.2692,0,5,5,1,1,stimuli/screen_antiphase.wav,stimuli/screen_quiet.wav,stimuli/screen_origin.wav,2,,,,,,,,,,,,,,,,,,,,,,,,,,,,,,,,,,,,,,,
,,,,,42144,2021-10-06_15h33.06.163,judgeSpeechMusic_20210919_logNormShiftAmp_detection_fixFreq,2020.1.2,MacIntel,60,,,,,,,,,,,,,space,1.4291,1,8.1588,,0,0,0,0,1,1,stimuli/stim_20210919_power2amp/equal_lnn_AM_training2Hz_s30.m4a,,,,,,,,,,,,,,,,,,,,,,,,,,,
,,,,,42144,2021-10-06_15h33.06.163,judgeSpeechMusic_20210919_logNormShiftAmp_detection_fixFreq,2020.1.2,MacIntel,60,,,,,,,,,,,,,,,1,5.6838,,0,0,1,1,3,1,stimuli/stim_20210919_power2amp/equal_lnn_AM_training2Hz_s50.m4a,,,,,,,,,,,,,,,,,,,,,,,,,,,
,,,,,42144,2021-10-06_15h33.06.163,judgeSpeechMusic_20210919_logNormShiftAmp_detection_fixFreq,2020.1.2,MacIntel,60,,,,,,,,,,,,,,,1,6.4252,2,1,0,2,2,2,1,stimuli/stim_20210919_power2amp/equal_lnn_AM_training2Hz_s40.m4a,1.3264,,,,,,,,,,,,,,,,,,,,,,,,,,
,,,,,42144,2021-10-06_15h33.06.163,judgeSpeechMusic_20210919_logNormShiftAmp_detection_fixFreq,2020.1.2,MacIntel,60,,,,,,,,,,,,,,,1,6.7747,,0,0,3,3,0,1,stimuli/stim_20210919_power2amp/equal_lnn_AM_training2Hz_s20.m4a,,,,,,,,,,,,,,,,,,,,,,,,,,,
,,,,,42144,2021-10-06_15h33.06.163,judgeSpeechMusic_20210919_logNormShiftAmp_detection_fixFreq,2020.1.2,MacIntel,60,,,,,,,,,,,,,,,,,,,,,,,,,,space,3.895,space,0.9142,1,6.5233,,0,0,0,0,57,1,stimuli/stim_20210919_power2amp/equal_lnn_AM2Hz_s45_13.m4a,,,,,,,,,,,,
,,,,,42144,2021-10-06_15h33.06.163,judgeSpeechMusic_20210919_logNormShiftAmp_detection_fixFreq,2020.1.2,MacIntel,60,,,,,,,,,,,,,,,,,,,,,,,,,,,,,,1,6.0244,,0,0,1,1,40,1,stimuli/stim_20210919_power2amp/equal_lnn_AM2Hz_s35_26.m4a,,,,,,,,,,,,
,,,,,42144,2021-10-06_15h33.06.163,judgeSpeechMusic_20210919_logNormShiftAmp_detection_fixFreq,2020.1.2,MacIntel,60,,,,,,,,,,,,,,,,,,,,,,,,,,,,,,1,5.8702,,0,0,2,2,29,1,stimuli/stim_20210919_power2amp/equal_lnn_AM2Hz_s25_26.m4a,,,,,,,,,,,,
,,,,,42144,2021-10-06_15h33.06.163,judgeSpeechMusic_20210919_logNormShiftAmp_detection_fixFreq,2020.1.2,MacIntel,60,,,,,,,,,,,,,,,,,,,,,,,,,,,,,,2,6.0614,,0,0,3,3,66,1,stimuli/stim_20210919_power2amp/equal_lnn_AM2Hz_s55_18.m4a,,,,,,,,,,,,
,,,,,42144,2021-10-06_15h33.06.163,judgeSpeechMusic_20210919_logNormShiftAmp_detection_fixFreq,2020.1.2,MacIntel,60,,,,,,,,,,,,,,,,,,,,,,,,,,,,,,2,6.0102,,0,0,4,4,50,1,stimuli/stim_20210919_power2amp/equal_lnn_AM2Hz_s45_26.m4a,,,,,,,,,,,,
,,,,,42144,2021-10-06_15h33.06.163,judgeSpeechMusic_20210919_logNormShiftAmp_detection_fixFreq,2020.1.2,MacIntel,60,,,,,,,,,,,,,,,,,,,,,,,,,,,,,,2,7.959,,0,0,5,5,0,1,stimuli/stim_20210919_power2amp/equal_lnn_AM2Hz_s15_7.m4a,,,,,,,,,,,,
,,,,,42144,2021-10-06_15h33.06.163,judgeSpeechMusic_20210919_logNormShiftAmp_detection_fixFreq,2020.1.2,MacIntel,60,,,,,,,,,,,,,,,,,,,,,,,,,,,,,,1,7.5084,,0,0,6,6,33,1,stimuli/stim_20210919_power2amp/equal_lnn_AM2Hz_s35_34.m4a,,,,,,,,,,,,
,,,,,42144,2021-10-06_15h33.06.163,judgeSpeechMusic_20210919_logNormShiftAmp_detection_fixFreq,2020.1.2,MacIntel,60,,,,,,,,,,,,,,,,,,,,,,,,,,,,,,2,5.7736,,0,0,7,7,45,1,stimuli/stim_20210919_power2amp/equal_lnn_AM2Hz_s45_39.m4a,,,,,,,,,,,,
,,,,,42144,2021-10-06_15h33.06.163,judgeSpeechMusic_20210919_logNormShiftAmp_detection_fixFreq,2020.1.2,MacIntel,60,,,,,,,,,,,,,,,,,,,,,,,,,,,,,,1,5.708,,0,0,8,8,53,1,stimuli/stim_20210919_power2amp/equal_lnn_AM2Hz_s45_30.m4a,,,,,,,,,,,,
,,,,,42144,2021-10-06_15h33.06.163,judgeSpeechMusic_20210919_logNormShiftAmp_detection_fixFreq,2020.1.2,MacIntel,60,,,,,,,,,,,,,,,,,,,,,,,,,,,,,,1,6.0254,,0,0,9,9,2,1,stimuli/stim_20210919_power2amp/equal_lnn_AM2Hz_s15_28.m4a,,,,,,,,,,,,
,,,,,42144,2021-10-06_15h33.06.163,judgeSpeechMusic_20210919_logNormShiftAmp_detection_fixFreq,2020.1.2,MacIntel,60,,,,,,,,,,,,,,,,,,,,,,,,,,,,,,2,6.2272,,0,0,10,10,8,1,stimuli/stim_20210919_power2amp/equal_lnn_AM2Hz_s15_38.m4a,,,,,,,,,,,,
,,,,,42144,2021-10-06_15h33.06.163,judgeSpeechMusic_20210919_logNormShiftAmp_detection_fixFreq,2020.1.2,MacIntel,60,,,,,,,,,,,,,,,,,,,,,,,,,,,,,,2,5.6765,,0,0,11,11,10,1,stimuli/stim_20210919_power2amp/equal_lnn_AM2Hz_s15_36.m4a,,,,,,,,,,,,
,,,,,42144,2021-10-06_15h33.06.163,judgeSpeechMusic_20210919_logNormShiftAmp_detection_fixFreq,2020.1.2,MacIntel,60,,,,,,,,,,,,,,,,,,,,,,,,,,,,,,1,6.1405,,0,0,12,12,34,1,stimuli/stim_20210919_power2amp/equal_lnn_AM2Hz_s35_49.m4a,,,,,,,,,,,,
,,,,,42144,2021-10-06_15h33.06.163,judgeSpeechMusic_20210919_logNormShiftAmp_detection_fixFreq,2020.1.2,MacIntel,60,,,,,,,,,,,,,,,,,,,,,,,,,,,,,,2,6.9075,,0,0,13,13,65,1,stimuli/stim_20210919_power2amp/equal_lnn_AM2Hz_s55_14.m4a,,,,,,,,,,,,
,,,,,42144,2021-10-06_15h33.06.163,judgeSpeechMusic_20210919_logNormShiftAmp_detection_fixFreq,2020.1.2,MacIntel,60,,,,,,,,,,,,,,,,,,,,,,,,,,,,,,1,6.4436,,0,0,14,14,1,1,stimuli/stim_20210919_power2amp/equal_lnn_AM2Hz_s15_27.m4a,,,,,,,,,,,,
,,,,,42144,2021-10-06_15h33.06.163,judgeSpeechMusic_20210919_logNormShiftAmp_detection_fixFreq,2020.1.2,MacIntel,60,,,,,,,,,,,,,,,,,,,,,,,,,,,,,,2,6.8093,,0,0,15,15,9,1,stimuli/stim_20210919_power2amp/equal_lnn_AM2Hz_s15_17.m4a,,,,,,,,,,,,
,,,,,42144,2021-10-06_15h33.06.163,judgeSpeechMusic_20210919_logNormShiftAmp_detection_fixFreq,2020.1.2,MacIntel,60,,,,,,,,,,,,,,,,,,,,,,,,,,,,,,1,7.2092,,0,0,16,16,59,1,stimuli/stim_20210919_power2amp/equal_lnn_AM2Hz_s45_12.m4a,,,,,,,,,,,,
,,,,,42144,2021-10-06_15h33.06.163,judgeSpeechMusic_20210919_logNormShiftAmp_detection_fixFreq,2020.1.2,MacIntel,60,,,,,,,,,,,,,,,,,,,,,,,,,,,,,,1,6.5432,,0,0,17,17,27,1,stimuli/stim_20210919_power2amp/equal_lnn_AM2Hz_s25_31.m4a,,,,,,,,,,,,
,,,,,42144,2021-10-06_15h33.06.163,judgeSpeechMusic_20210919_logNormShiftAmp_detection_fixFreq,2020.1.2,MacIntel,60,,,,,,,,,,,,,,,,,,,,,,,,,,,,,,2,7.5437,4,1,0,18,18,67,1,stimuli/stim_20210919_power2amp/equal_lnn_AM2Hz_s55_35.m4a,1.6763,,,,,,,,,,,
,,,,,42144,2021-10-06_15h33.06.163,judgeSpeechMusic_20210919_logNormShiftAmp_detection_fixFreq,2020.1.2,MacIntel,60,,,,,,,,,,,,,,,,,,,,,,,,,,,,,,1,5.7901,,0,0,19,19,72,1,stimuli/stim_20210919_power2amp/equal_lnn_AM2Hz_s55_3.m4a,,,,,,,,,,,,
,,,,,42144,2021-10-06_15h33.06.163,judgeSpeechMusic_20210919_logNormShiftAmp_detection_fixFreq,2020.1.2,MacIntel,60,,,,,,,,,,,,,,,,,,,,,,,,,,,,,,2,7.4632,,0,0,20,20,7,1,stimuli/stim_20210919_power2amp/equal_lnn_AM2Hz_s15_15.m4a,,,,,,,,,,,,
,,,,,42144,2021-10-06_15h33.06.163,judgeSpeechMusic_20210919_logNormShiftAmp_detection_fixFreq,2020.1.2,MacIntel,60,,,,,,,,,,,,,,,,,,,,,,,,,,,,,,1,6.8417,,0,0,21,21,64,1,stimuli/stim_20210919_power2amp/equal_lnn_AM2Hz_s55_34.m4a,,,,,,,,,,,,
,,,,,42144,2021-10-06_15h33.06.163,judgeSpeechMusic_20210919_logNormShiftAmp_detection_fixFreq,2020.1.2,MacIntel,60,,,,,,,,,,,,,,,,,,,,,,,,,,,,,,1,6.5722,,0,0,22,22,36,1,stimuli/stim_20210919_power2amp/equal_lnn_AM2Hz_s35_5.m4a,,,,,,,,,,,,
,,,,,42144,2021-10-06_15h33.06.163,judgeSpeechMusic_20210919_logNormShiftAmp_detection_fixFreq,2020.1.2,MacIntel,60,,,,,,,,,,,,,,,,,,,,,,,,,,,,,,1,6.9241,,0,0,23,23,35,1,stimuli/stim_20210919_power2amp/equal_lnn_AM2Hz_s35_27.m4a,,,,,,,,,,,,
,,,,,42144,2021-10-06_15h33.06.163,judgeSpeechMusic_20210919_logNormShiftAmp_detection_fixFreq,2020.1.2,MacIntel,60,,,,,,,,,,,,,,,,,,,,,,,,,,,,,,1,5.9897,,0,0,24,24,48,1,stimuli/stim_20210919_power2amp/equal_lnn_AM2Hz_s45_40.m4a,,,,,,,,,,,,
,,,,,42144,2021-10-06_15h33.06.163,judgeSpeechMusic_20210919_logNormShiftAmp_detection_fixFreq,2020.1.2,MacIntel,60,,,,,,,,,,,,,,,,,,,,,,,,,,,,,,2,6.0777,,0,0,25,25,6,1,stimuli/stim_20210919_power2amp/equal_lnn_AM2Hz_s15_12.m4a,,,,,,,,,,,,
,,,,,42144,2021-10-06_15h33.06.163,judgeSpeechMusic_20210919_logNormShiftAmp_detection_fixFreq,2020.1.2,MacIntel,60,,,,,,,,,,,,,,,,,,,,,,,,,,,,,,1,6.7373,,0,0,26,26,70,1,stimuli/stim_20210919_power2amp/equal_lnn_AM2Hz_s55_1.m4a,,,,,,,,,,,,
,,,,,42144,2021-10-06_15h33.06.163,judgeSpeechMusic_20210919_logNormShiftAmp_detection_fixFreq,2020.1.2,MacIntel,60,,,,,,,,,,,,,,,,,,,,,,,,,,,,,,1,6.3675,,0,0,27,27,43,1,stimuli/stim_20210919_power2amp/equal_lnn_AM2Hz_s35_12.m4a,,,,,,,,,,,,
,,,,,42144,2021-10-06_15h33.06.163,judgeSpeechMusic_20210919_logNormShiftAmp_detection_fixFreq,2020.1.2,MacIntel,60,,,,,,,,,,,,,,,,,,,,,,,,,,,,,,2,5.7581,,0,0,28,28,13,1,stimuli/stim_20210919_power2amp/equal_lnn_AM2Hz_s15_25.m4a,,,,,,,,,,,,
,,,,,42144,2021-10-06_15h33.06.163,judgeSpeechMusic_20210919_logNormShiftAmp_detection_fixFreq,2020.1.2,MacIntel,60,,,,,,,,,,,,,,,,,,,,,,,,,,,,,,1,5.765,,0,0,29,29,46,1,stimuli/stim_20210919_power2amp/equal_lnn_AM2Hz_s45_34.m4a,,,,,,,,,,,,
,,,,,42144,2021-10-06_15h33.06.163,judgeSpeechMusic_20210919_logNormShiftAmp_detection_fixFreq,2020.1.2,MacIntel,60,,,,,,,,,,,,,,,,,,,,,,,,,,,,,,2,5.6256,,0,0,30,30,17,1,stimuli/stim_20210919_power2amp/equal_lnn_AM2Hz_s25_22.m4a,,,,,,,,,,,,
,,,,,42144,2021-10-06_15h33.06.163,judgeSpeechMusic_20210919_logNormShiftAmp_detection_fixFreq,2020.1.2,MacIntel,60,,,,,,,,,,,,,,,,,,,,,,,,,,,,,,2,5.5418,,0,0,31,31,69,1,stimuli/stim_20210919_power2amp/equal_lnn_AM2Hz_s55_40.m4a,,,,,,,,,,,,
,,,,,42144,2021-10-06_15h33.06.163,judgeSpeechMusic_20210919_logNormShiftAmp_detection_fixFreq,2020.1.2,MacIntel,60,,,,,,,,,,,,,,,,,,,,,,,,,,,,,,1,5.4765,,0,0,32,32,12,1,stimuli/stim_20210919_power2amp/equal_lnn_AM2Hz_s15_18.m4a,,,,,,,,,,,,
,,,,,42144,2021-10-06_15h33.06.163,judgeSpeechMusic_20210919_logNormShiftAmp_detection_fixFreq,2020.1.2,MacIntel,60,,,,,,,,,,,,,,,,,,,,,,,,,,,,,,1,6.7083,,0,0,33,33,18,1,stimuli/stim_20210919_power2amp/equal_lnn_AM2Hz_s25_6.m4a,,,,,,,,,,,,
,,,,,42144,2021-10-06_15h33.06.163,judgeSpeechMusic_20210919_logNormShiftAmp_detection_fixFreq,2020.1.2,MacIntel,60,,,,,,,,,,,,,,,,,,,,,,,,,,,,,,2,5.8438,,0,0,34,34,71,1,stimuli/stim_20210919_power2amp/equal_lnn_AM2Hz_s55_30.m4a,,,,,,,,,,,,
,,,,,42144,2021-10-06_15h33.06.163,judgeSpeechMusic_20210919_logNormShiftAmp_detection_fixFreq,2020.1.2,MacIntel,60,,,,,,,,,,,,,,,,,,,,,,,,,,,,,,2,7.0107,,0,0,35,35,16,1,stimuli/stim_20210919_power2amp/equal_lnn_AM2Hz_s25_49.m4a,,,,,,,,,,,,
,,,,,42144,2021-10-06_15h33.06.163,judgeSpeechMusic_20210919_logNormShiftAmp_detection_fixFreq,2020.1.2,MacIntel,60,,,,,,,,,,,,,,,,,,,,,,,,,,,,,,1,6.8021,3,1,0,36,36,56,1,stimuli/stim_20210919_power2amp/equal_lnn_AM2Hz_s45_47.m4a,0.7442,,,,,,,,,,,
,,,,,42144,2021-10-06_15h33.06.163,judgeSpeechMusic_20210919_logNormShiftAmp_detection_fixFreq,2020.1.2,MacIntel,60,,,,,,,,,,,,,,,,,,,,,,,,,,,,,,1,7.2098,,0,0,37,37,31,1,stimuli/stim_20210919_power2amp/equal_lnn_AM2Hz_s35_19.m4a,,,,,,,,,,,,
,,,,,42144,2021-10-06_15h33.06.163,judgeSpeechMusic_20210919_logNormShiftAmp_detection_fixFreq,2020.1.2,MacIntel,60,,,,,,,,,,,,,,,,,,,,,,,,,,,,,,2,6.9624,,0,0,38,38,73,1,stimuli/stim_20210919_power2amp/equal_lnn_AM2Hz_s55_42.m4a,,,,,,,,,,,,
,,,,,42144,2021-10-06_15h33.06.163,judgeSpeechMusic_20210919_logNormShiftAmp_detection_fixFreq,2020.1.2,MacIntel,60,,,,,,,,,,,,,,,,,,,,,,,,,,,,,,1,6.6638,,0,0,39,39,3,1,stimuli/stim_20210919_power2amp/equal_lnn_AM2Hz_s15_10.m4a,,,,,,,,,,,,
,,,,,42144,2021-10-06_15h33.06.163,judgeSpeechMusic_20210919_logNormShiftAmp_detection_fixFreq,2020.1.2,MacIntel,60,,,,,,,,,,,,,,,,,,,,,,,,,,,,,,1,6.7319,,0,0,40,40,49,1,stimuli/stim_20210919_power2amp/equal_lnn_AM2Hz_s45_24.m4a,,,,,,,,,,,,
,,,,,42144,2021-10-06_15h33.06.163,judgeSpeechMusic_20210919_logNormShiftAmp_detection_fixFreq,2020.1.2,MacIntel,60,,,,,,,,,,,,,,,,,,,,,,,,,,,,,,1,6.8866,,0,0,41,41,21,1,stimuli/stim_20210919_power2amp/equal_lnn_AM2Hz_s25_36.m4a,,,,,,,,,,,,
,,,,,42144,2021-10-06_15h33.06.163,judgeSpeechMusic_20210919_logNormShiftAmp_detection_fixFreq,2020.1.2,MacIntel,60,,,,,,,,,,,,,,,,,,,,,,,,,,,,,,2,7.1215,,0,0,42,42,42,1,stimuli/stim_20210919_power2amp/equal_lnn_AM2Hz_s35_13.m4a,,,,,,,,,,,,
,,,,,42144,2021-10-06_15h33.06.163,judgeSpeechMusic_20210919_logNormShiftAmp_detection_fixFreq,2020.1.2,MacIntel,60,,,,,,,,,,,,,,,,,,,,,,,,,,,,,,1,6.6589,,0,0,43,43,19,1,stimuli/stim_20210919_power2amp/equal_lnn_AM2Hz_s25_9.m4a,,,,,,,,,,,,
,,,,,42144,2021-10-06_15h33.06.163,judgeSpeechMusic_20210919_logNormShiftAmp_detection_fixFreq,2020.1.2,MacIntel,60,,,,,,,,,,,,,,,,,,,,,,,,,,,,,,1,8.225,,0,0,44,44,26,1,stimuli/stim_20210919_power2amp/equal_lnn_AM2Hz_s25_28.m4a,,,,,,,,,,,,
,,,,,42144,2021-10-06_15h33.06.163,judgeSpeechMusic_20210919_logNormShiftAmp_detection_fixFreq,2020.1.2,MacIntel,60,,,,,,,,,,,,,,,,,,,,,,,,,,,,,,2,7.8075,,0,0,45,45,25,1,stimuli/stim_20210919_power2amp/equal_lnn_AM2Hz_s25_21.m4a,,,,,,,,,,,,
,,,,,42144,2021-10-06_15h33.06.163,judgeSpeechMusic_20210919_logNormShiftAmp_detection_fixFreq,2020.1.2,MacIntel,60,,,,,,,,,,,,,,,,,,,,,,,,,,,,,,1,15.2259,,0,0,46,46,20,1,stimuli/stim_20210919_power2amp/equal_lnn_AM2Hz_s25_8.m4a,,,,,,,,,,,,
,,,,,42144,2021-10-06_15h33.06.163,judgeSpeechMusic_20210919_logNormShiftAmp_detection_fixFreq,2020.1.2,MacIntel,60,,,,,,,,,,,,,,,,,,,,,,,,,,,,,,1,7.3981,,0,0,47,47,30,1,stimuli/stim_20210919_power2amp/equal_lnn_AM2Hz_s35_6.m4a,,,,,,,,,,,,
,,,,,42144,2021-10-06_15h33.06.163,judgeSpeechMusic_20210919_logNormShiftAmp_detection_fixFreq,2020.1.2,MacIntel,60,,,,,,,,,,,,,,,,,,,,,,,,,,,,,,2,6.2533,,0,0,48,48,15,1,stimuli/stim_20210919_power2amp/equal_lnn_AM2Hz_s25_3.m4a,,,,,,,,,,,,
,,,,,42144,2021-10-06_15h33.06.163,judgeSpeechMusic_20210919_logNormShiftAmp_detection_fixFreq,2020.1.2,MacIntel,60,,,,,,,,,,,,,,,,,,,,,,,,,,,,,,1,6.1713,,0,0,49,49,51,1,stimuli/stim_20210919_power2amp/equal_lnn_AM2Hz_s45_20.m4a,,,,,,,,,,,,
,,,,,42144,2021-10-06_15h33.06.163,judgeSpeechMusic_20210919_logNormShiftAmp_detection_fixFreq,2020.1.2,MacIntel,60,,,,,,,,,,,,,,,,,,,,,,,,,,,,,,1,6.5937,,0,0,50,50,61,1,stimuli/stim_20210919_power2amp/equal_lnn_AM2Hz_s55_2.m4a,,,,,,,,,,,,
,,,,,42144,2021-10-06_15h33.06.163,judgeSpeechMusic_20210919_logNormShiftAmp_detection_fixFreq,2020.1.2,MacIntel,60,,,,,,,,,,,,,,,,,,,,,,,,,,,,,,2,7.5923,,0,0,51,51,14,1,stimuli/stim_20210919_power2amp/equal_lnn_AM2Hz_s15_37.m4a,,,,,,,,,,,,
,,,,,42144,2021-10-06_15h33.06.163,judgeSpeechMusic_20210919_logNormShiftAmp_detection_fixFreq,2020.1.2,MacIntel,60,,,,,,,,,,,,,,,,,,,,,,,,,,,,,,2,6.0566,,0,0,52,52,23,1,stimuli/stim_20210919_power2amp/equal_lnn_AM2Hz_s25_4.m4a,,,,,,,,,,,,
,,,,,42144,2021-10-06_15h33.06.163,judgeSpeechMusic_20210919_logNormShiftAmp_detection_fixFreq,2020.1.2,MacIntel,60,,,,,,,,,,,,,,,,,,,,,,,,,,,,,,1,6.0569,,0,0,53,53,32,1,stimuli/stim_20210919_power2amp/equal_lnn_AM2Hz_s35_40.m4a,,,,,,,,,,,,
,,,,,42144,2021-10-06_15h33.06.163,judgeSpeechMusic_20210919_logNormShiftAmp_detection_fixFreq,2020.1.2,MacIntel,60,,,,,,,,,,,,,,,,,,,,,,,,,,,,,,1,6.8913,,0,0,54,54,44,1,stimuli/stim_20210919_power2amp/equal_lnn_AM2Hz_s35_28.m4a,,,,,,,,,,,,
,,,,,42144,2021-10-06_15h33.06.163,judgeSpeechMusic_20210919_logNormShiftAmp_detection_fixFreq,2020.1.2,MacIntel,60,,,,,,,,,,,,,,,,,,,,,,,,,,,,,,1,6.1744,4,1,0,55,55,5,1,stimuli/stim_20210919_power2amp/equal_lnn_AM2Hz_s15_40.m4a,1.1104,,,,,,,,,,,
,,,,,42144,2021-10-06_15h33.06.163,judgeSpeechMusic_20210919_logNormShiftAmp_detection_fixFreq,2020.1.2,MacIntel,60,,,,,,,,,,,,,,,,,,,,,,,,,,,,,,1,6.5686,,0,0,56,56,38,1,stimuli/stim_20210919_power2amp/equal_lnn_AM2Hz_s35_24.m4a,,,,,,,,,,,,
,,,,,42144,2021-10-06_15h33.06.163,judgeSpeechMusic_20210919_logNormShiftAmp_detection_fixFreq,2020.1.2,MacIntel,60,,,,,,,,,,,,,,,,,,,,,,,,,,,,,,1,7.1237,,0,0,57,57,55,1,stimuli/stim_20210919_power2amp/equal_lnn_AM2Hz_s45_9.m4a,,,,,,,,,,,,
,,,,,42144,2021-10-06_15h33.06.163,judgeSpeechMusic_20210919_logNormShiftAmp_detection_fixFreq,2020.1.2,MacIntel,60,,,,,,,,,,,,,,,,,,,,,,,,,,,,,,2,7.1904,,0,0,58,58,11,1,stimuli/stim_20210919_power2amp/equal_lnn_AM2Hz_s15_11.m4a,,,,,,,,,,,,
,,,,,42144,2021-10-06_15h33.06.163,judgeSpeechMusic_20210919_logNormShiftAmp_detection_fixFreq,2020.1.2,MacIntel,60,,,,,,,,,,,,,,,,,,,,,,,,,,,,,,2,6.3928,,0,0,59,59,22,1,stimuli/stim_20210919_power2amp/equal_lnn_AM2Hz_s25_13.m4a,,,,,,,,,,,,
,,,,,42144,2021-10-06_15h33.06.163,judgeSpeechMusic_20210919_logNormShiftAmp_detection_fixFreq,2020.1.2,MacIntel,60,,,,,,,,,,,,,,,,,,,,,,,,,,,,,,1,6.144,,0,0,60,60,58,1,stimuli/stim_20210919_power2amp/equal_lnn_AM2Hz_s45_33.m4a,,,,,,,,,,,,
,,,,,42144,2021-10-06_15h33.06.163,judgeSpeechMusic_20210919_logNormShiftAmp_detection_fixFreq,2020.1.2,MacIntel,60,,,,,,,,,,,,,,,,,,,,,,,,,,,,,,1,6.9212,,0,0,61,61,4,1,stimuli/stim_20210919_power2amp/equal_lnn_AM2Hz_s15_46.m4a,,,,,,,,,,,,
,,,,,42144,2021-10-06_15h33.06.163,judgeSpeechMusic_20210919_logNormShiftAmp_detection_fixFreq,2020.1.2,MacIntel,60,,,,,,,,,,,,,,,,,,,,,,,,,,,,,,1,6.141,,0,0,62,62,74,1,stimuli/stim_20210919_power2amp/equal_lnn_AM2Hz_s55_22.m4a,,,,,,,,,,,,
,,,,,42144,2021-10-06_15h33.06.163,judgeSpeechMusic_20210919_logNormShiftAmp_detection_fixFreq,2020.1.2,MacIntel,60,,,,,,,,,,,,,,,,,,,,,,,,,,,,,,2,9.9893,,0,0,63,63,47,1,stimuli/stim_20210919_power2amp/equal_lnn_AM2Hz_s45_41.m4a,,,,,,,,,,,,
,,,,,42144,2021-10-06_15h33.06.163,judgeSpeechMusic_20210919_logNormShiftAmp_detection_fixFreq,2020.1.2,MacIntel,60,,,,,,,,,,,,,,,,,,,,,,,,,,,,,,1,6.6518,,0,0,64,64,63,1,stimuli/stim_20210919_power2amp/equal_lnn_AM2Hz_s55_39.m4a,,,,,,,,,,,,
,,,,,42144,2021-10-06_15h33.06.163,judgeSpeechMusic_20210919_logNormShiftAmp_detection_fixFreq,2020.1.2,MacIntel,60,,,,,,,,,,,,,,,,,,,,,,,,,,,,,,1,6.6421,,0,0,65,65,39,1,stimuli/stim_20210919_power2amp/equal_lnn_AM2Hz_s35_15.m4a,,,,,,,,,,,,
,,,,,42144,2021-10-06_15h33.06.163,judgeSpeechMusic_20210919_logNormShiftAmp_detection_fixFreq,2020.1.2,MacIntel,60,,,,,,,,,,,,,,,,,,,,,,,,,,,,,,1,6.5736,,0,0,66,66,41,1,stimuli/stim_20210919_power2amp/equal_lnn_AM2Hz_s35_50.m4a,,,,,,,,,,,,
,,,,,42144,2021-10-06_15h33.06.163,judgeSpeechMusic_20210919_logNormShiftAmp_detection_fixFreq,2020.1.2,MacIntel,60,,,,,,,,,,,,,,,,,,,,,,,,,,,,,,2,6.5064,,0,0,67,67,68,1,stimuli/stim_20210919_power2amp/equal_lnn_AM2Hz_s55_28.m4a,,,,,,,,,,,,
,,,,,42144,2021-10-06_15h33.06.163,judgeSpeechMusic_20210919_logNormShiftAmp_detection_fixFreq,2020.1.2,MacIntel,60,,,,,,,,,,,,,,,,,,,,,,,,,,,,,,1,6.7411,,0,0,68,68,60,1,stimuli/stim_20210919_power2amp/equal_lnn_AM2Hz_s55_9.m4a,,,,,,,,,,,,
,,,,,42144,2021-10-06_15h33.06.163,judgeSpeechMusic_20210919_logNormShiftAmp_detection_fixFreq,2020.1.2,MacIntel,60,,,,,,,,,,,,,,,,,,,,,,,,,,,,,,2,6.3975,,0,0,69,69,54,1,stimuli/stim_20210919_power2amp/equal_lnn_AM2Hz_s45_15.m4a,,,,,,,,,,,,
,,,,,42144,2021-10-06_15h33.06.163,judgeSpeechMusic_20210919_logNormShiftAmp_detection_fixFreq,2020.1.2,MacIntel,60,,,,,,,,,,,,,,,,,,,,,,,,,,,,,,1,6.9305,,0,0,70,70,37,1,stimuli/stim_20210919_power2amp/equal_lnn_AM2Hz_s35_31.m4a,,,,,,,,,,,,
,,,,,42144,2021-10-06_15h33.06.163,judgeSpeechMusic_20210919_logNormShiftAmp_detection_fixFreq,2020.1.2,MacIntel,60,,,,,,,,,,,,,,,,,,,,,,,,,,,,,,2,7.432,,0,0,71,71,52,1,stimuli/stim_20210919_power2amp/equal_lnn_AM2Hz_s45_22.m4a,,,,,,,,,,,,
,,,,,42144,2021-10-06_15h33.06.163,judgeSpeechMusic_20210919_logNormShiftAmp_detection_fixFreq,2020.1.2,MacIntel,60,,,,,,,,,,,,,,,,,,,,,,,,,,,,,,1,6.5631,,0,0,72,72,24,1,stimuli/stim_20210919_power2amp/equal_lnn_AM2Hz_s25_50.m4a,,,,,,,,,,,,
,,,,,42144,2021-10-06_15h33.06.163,judgeSpeechMusic_20210919_logNormShiftAmp_detection_fixFreq,2020.1.2,MacIntel,60,,,,,,,,,,,,,,,,,,,,,,,,,,,,,,1,6.3317,,0,0,73,73,28,1,stimuli/stim_20210919_power2amp/equal_lnn_AM2Hz_s25_34.m4a,,,,,,,,,,,,
,,,,,42144,2021-10-06_15h33.06.163,judgeSpeechMusic_20210919_logNormShiftAmp_detection_fixFreq,2020.1.2,MacIntel,60,,,,,,,,,,,,,,,,,,,,,,,,,,,,,,2,6.8248,,0,0,74,74,62,1,stimuli/stim_20210919_power2amp/equal_lnn_AM2Hz_s55_4.m4a,,,,,,,,,,,,
,,,,,42144,2021-10-06_15h33.06.163,judgeSpeechMusic_20210919_logNormShiftAmp_detection_fixFreq,2020.1.2,MacIntel,60,,,,,,,,,,,,,,,,,,,,,,,,,,,,,,,,,,,,,,,,,space,0.9905,0,0,0,0,1,MUSIC,stimuli/MUSIC.jpg,,
,,,,,42144,2021-10-06_15h33.06.163,judgeSpeechMusic_20210919_logNormShiftAmp_detection_fixFreq,2020.1.2,MacIntel,60,,,,,,,,,,,,,space,0.7467,2,7.6752,,0,0,0,0,1,1,stimuli/stim_20210919_power2amp/equal_lnn_AM_training2Hz_s30.m4a,,,,,,,,,,,,,,,,,,,,,,,,,,,
,,,,,42144,2021-10-06_15h33.06.163,judgeSpeechMusic_20210919_logNormShiftAmp_detection_fixFreq,2020.1.2,MacIntel,60,,,,,,,,,,,,,,,2,5.6062,,0,0,1,1,2,1,stimuli/stim_20210919_power2amp/equal_lnn_AM_training2Hz_s40.m4a,,,,,,,,,,,,,,,,,,,,,,,,,,,
,,,,,42144,2021-10-06_15h33.06.163,judgeSpeechMusic_20210919_logNormShiftAmp_detection_fixFreq,2020.1.2,MacIntel,60,,,,,,,,,,,,,,,2,5.6546,4,1,0,2,2,3,1,stimuli/stim_20210919_power2amp/equal_lnn_AM_training2Hz_s50.m4a,1.1613,,,,,,,,,,,,,,,,,,,,,,,,,,
,,,,,42144,2021-10-06_15h33.06.163,judgeSpeechMusic_20210919_logNormShiftAmp_detection_fixFreq,2020.1.2,MacIntel,60,,,,,,,,,,,,,,,1,6.2828,,0,0,3,3,0,1,stimuli/stim_20210919_power2amp/equal_lnn_AM_training2Hz_s20.m4a,,,,,,,,,,,,,,,,,,,,,,,,,,,
,,,,,42144,2021-10-06_15h33.06.163,judgeSpeechMusic_20210919_logNormShiftAmp_detection_fixFreq,2020.1.2,MacIntel,60,,,,,,,,,,,,,,,,,,,,,,,,,,space,3.3915,space,9.5438,1,7.0526,,0,0,0,0,11,1,stimuli/stim_20210919_power2amp/equal_lnn_AM2Hz_s15_11.m4a,,,,,,,,,,,,
,,,,,42144,2021-10-06_15h33.06.163,judgeSpeechMusic_20210919_logNormShiftAmp_detection_fixFreq,2020.1.2,MacIntel,60,,,,,,,,,,,,,,,,,,,,,,,,,,,,,,1,8.9949,,0,0,1,1,39,1,stimuli/stim_20210919_power2amp/equal_lnn_AM2Hz_s35_15.m4a,,,,,,,,,,,,
,,,,,42144,2021-10-06_15h33.06.163,judgeSpeechMusic_20210919_logNormShiftAmp_detection_fixFreq,2020.1.2,MacIntel,60,,,,,,,,,,,,,,,,,,,,,,,,,,,,,,2,6.6185,,0,0,2,2,42,1,stimuli/stim_20210919_power2amp/equal_lnn_AM2Hz_s35_13.m4a,,,,,,,,,,,,
,,,,,42144,2021-10-06_15h33.06.163,judgeSpeechMusic_20210919_logNormShiftAmp_detection_fixFreq,2020.1.2,MacIntel,60,,,,,,,,,,,,,,,,,,,,,,,,,,,,,,2,7.2421,,0,0,3,3,66,1,stimuli/stim_20210919_power2amp/equal_lnn_AM2Hz_s55_18.m4a,,,,,,,,,,,,
,,,,,42144,2021-10-06_15h33.06.163,judgeSpeechMusic_20210919_logNormShiftAmp_detection_fixFreq,2020.1.2,MacIntel,60,,,,,,,,,,,,,,,,,,,,,,,,,,,,,,1,7.3271,,0,0,4,4,4,1,stimuli/stim_20210919_power2amp/equal_lnn_AM2Hz_s15_46.m4a,,,,,,,,,,,,
,,,,,42144,2021-10-06_15h33.06.163,judgeSpeechMusic_20210919_logNormShiftAmp_detection_fixFreq,2020.1.2,MacIntel,60,,,,,,,,,,,,,,,,,,,,,,,,,,,,,,1,6.8192,,0,0,5,5,12,1,stimuli/stim_20210919_power2amp/equal_lnn_AM2Hz_s15_18.m4a,,,,,,,,,,,,
,,,,,42144,2021-10-06_15h33.06.163,judgeSpeechMusic_20210919_logNormShiftAmp_detection_fixFreq,2020.1.2,MacIntel,60,,,,,,,,,,,,,,,,,,,,,,,,,,,,,,1,5.8587,,0,0,6,6,36,1,stimuli/stim_20210919_power2amp/equal_lnn_AM2Hz_s35_5.m4a,,,,,,,,,,,,
,,,,,42144,2021-10-06_15h33.06.163,judgeSpeechMusic_20210919_logNormShiftAmp_detection_fixFreq,2020.1.2,MacIntel,60,,,,,,,,,,,,,,,,,,,,,,,,,,,,,,2,7.2766,,0,0,7,7,43,1,stimuli/stim_20210919_power2amp/equal_lnn_AM2Hz_s35_12.m4a,,,,,,,,,,,,
,,,,,42144,2021-10-06_15h33.06.163,judgeSpeechMusic_20210919_logNormShiftAmp_detection_fixFreq,2020.1.2,MacIntel,60,,,,,,,,,,,,,,,,,,,,,,,,,,,,,,1,6.8177,,0,0,8,8,26,1,stimuli/stim_20210919_power2amp/equal_lnn_AM2Hz_s25_28.m4a,,,,,,,,,,,,
,,,,,42144,2021-10-06_15h33.06.163,judgeSpeechMusic_20210919_logNormShiftAmp_detection_fixFreq,2020.1.2,MacIntel,60,,,,,,,,,,,,,,,,,,,,,,,,,,,,,,1,5.8279,,0,0,9,9,25,1,stimuli/stim_20210919_power2amp/equal_lnn_AM2Hz_s25_21.m4a,,,,,,,,,,,,
,,,,,42144,2021-10-06_15h33.06.163,judgeSpeechMusic_20210919_logNormShiftAmp_detection_fixFreq,2020.1.2,MacIntel,60,,,,,,,,,,,,,,,,,,,,,,,,,,,,,,2,5.7235,,0,0,10,10,45,1,stimuli/stim_20210919_power2amp/equal_lnn_AM2Hz_s45_39.m4a,,,,,,,,,,,,
,,,,,42144,2021-10-06_15h33.06.163,judgeSpeechMusic_20210919_logNormShiftAmp_detection_fixFreq,2020.1.2,MacIntel,60,,,,,,,,,,,,,,,,,,,,,,,,,,,,,,1,5.6447,,0,0,11,11,38,1,stimuli/stim_20210919_power2amp/equal_lnn_AM2Hz_s35_24.m4a,,,,,,,,,,,,
,,,,,42144,2021-10-06_15h33.06.163,judgeSpeechMusic_20210919_logNormShiftAmp_detection_fixFreq,2020.1.2,MacIntel,60,,,,,,,,,,,,,,,,,,,,,,,,,,,,,,1,6.4921,,0,0,12,12,10,1,stimuli/stim_20210919_power2amp/equal_lnn_AM2Hz_s15_36.m4a,,,,,,,,,,,,
,,,,,42144,2021-10-06_15h33.06.163,judgeSpeechMusic_20210919_logNormShiftAmp_detection_fixFreq,2020.1.2,MacIntel,60,,,,,,,,,,,,,,,,,,,,,,,,,,,,,,2,6.5762,,0,0,13,13,28,1,stimuli/stim_20210919_power2amp/equal_lnn_AM2Hz_s25_34.m4a,,,,,,,,,,,,
,,,,,42144,2021-10-06_15h33.06.163,judgeSpeechMusic_20210919_logNormShiftAmp_detection_fixFreq,2020.1.2,MacIntel,60,,,,,,,,,,,,,,,,,,,,,,,,,,,,,,1,7.6692,,0,0,14,14,16,1,stimuli/stim_20210919_power2amp/equal_lnn_AM2Hz_s25_49.m4a,,,,,,,,,,,,
,,,,,42144,2021-10-06_15h33.06.163,judgeSpeechMusic_20210919_logNormShiftAmp_detection_fixFreq,2020.1.2,MacIntel,60,,,,,,,,,,,,,,,,,,,,,,,,,,,,,,2,7.7121,,0,0,15,15,22,1,stimuli/stim_20210919_power2amp/equal_lnn_AM2Hz_s25_13.m4a,,,,,,,,,,,,
,,,,,42144,2021-10-06_15h33.06.163,judgeSpeechMusic_20210919_logNormShiftAmp_detection_fixFreq,2020.1.2,MacIntel,60,,,,,,,,,,,,,,,,,,,,,,,,,,,,,,1,6.6078,,0,0,16,16,72,1,stimuli/stim_20210919_power2amp/equal_lnn_AM2Hz_s55_3.m4a,,,,,,,,,,,,
,,,,,42144,2021-10-06_15h33.06.163,judgeSpeechMusic_20210919_logNormShiftAmp_detection_fixFreq,2020.1.2,MacIntel,60,,,,,,,,,,,,,,,,,,,,,,,,,,,,,,1,6.043,,0,0,17,17,9,1,stimuli/stim_20210919_power2amp/equal_lnn_AM2Hz_s15_17.m4a,,,,,,,,,,,,
,,,,,42144,2021-10-06_15h33.06.163,judgeSpeechMusic_20210919_logNormShiftAmp_detection_fixFreq,2020.1.2,MacIntel,60,,,,,,,,,,,,,,,,,,,,,,,,,,,,,,2,5.6744,2,1,0,18,18,67,1,stimuli/stim_20210919_power2amp/equal_lnn_AM2Hz_s55_35.m4a,1.1075,,,,,,,,,,,
,,,,,42144,2021-10-06_15h33.06.163,judgeSpeechMusic_20210919_logNormShiftAmp_detection_fixFreq,2020.1.2,MacIntel,60,,,,,,,,,,,,,,,,,,,,,,,,,,,,,,2,6.0361,,0,0,19,19,63,1,stimuli/stim_20210919_power2amp/equal_lnn_AM2Hz_s55_39.m4a,,,,,,,,,,,,
,,,,,42144,2021-10-06_15h33.06.163,judgeSpeechMusic_20210919_logNormShiftAmp_detection_fixFreq,2020.1.2,MacIntel,60,,,,,,,,,,,,,,,,,,,,,,,,,,,,,,1,7.7542,,0,0,20,20,59,1,stimuli/stim_20210919_power2amp/equal_lnn_AM2Hz_s45_12.m4a,,,,,,,,,,,,
,,,,,42144,2021-10-06_15h33.06.163,judgeSpeechMusic_20210919_logNormShiftAmp_detection_fixFreq,2020.1.2,MacIntel,60,,,,,,,,,,,,,,,,,,,,,,,,,,,,,,1,13.2619,,0,0,21,21,48,1,stimuli/stim_20210919_power2amp/equal_lnn_AM2Hz_s45_40.m4a,,,,,,,,,,,,
,,,,,42144,2021-10-06_15h33.06.163,judgeSpeechMusic_20210919_logNormShiftAmp_detection_fixFreq,2020.1.2,MacIntel,60,,,,,,,,,,,,,,,,,,,,,,,,,,,,,,2,6.0573,,0,0,22,22,52,1,stimuli/stim_20210919_power2amp/equal_lnn_AM2Hz_s45_22.m4a,,,,,,,,,,,,
,,,,,42144,2021-10-06_15h33.06.163,judgeSpeechMusic_20210919_logNormShiftAmp_detection_fixFreq,2020.1.2,MacIntel,60,,,,,,,,,,,,,,,,,,,,,,,,,,,,,,1,6.3122,,0,0,23,23,70,1,stimuli/stim_20210919_power2amp/equal_lnn_AM2Hz_s55_1.m4a,,,,,,,,,,,,
,,,,,42144,2021-10-06_15h33.06.163,judgeSpeechMusic_20210919_logNormShiftAmp_detection_fixFreq,2020.1.2,MacIntel,60,,,,,,,,,,,,,,,,,,,,,,,,,,,,,,2,6.1712,,0,0,24,24,18,1,stimuli/stim_20210919_power2amp/equal_lnn_AM2Hz_s25_6.m4a,,,,,,,,,,,,
,,,,,42144,2021-10-06_15h33.06.163,judgeSpeechMusic_20210919_logNormShiftAmp_detection_fixFreq,2020.1.2,MacIntel,60,,,,,,,,,,,,,,,,,,,,,,,,,,,,,,1,6.9744,,0,0,25,25,64,1,stimuli/stim_20210919_power2amp/equal_lnn_AM2Hz_s55_34.m4a,,,,,,,,,,,,
,,,,,42144,2021-10-06_15h33.06.163,judgeSpeechMusic_20210919_logNormShiftAmp_detection_fixFreq,2020.1.2,MacIntel,60,,,,,,,,,,,,,,,,,,,,,,,,,,,,,,1,6.0086,,0,0,26,26,7,1,stimuli/stim_20210919_power2amp/equal_lnn_AM2Hz_s15_15.m4a,,,,,,,,,,,,
,,,,,42144,2021-10-06_15h33.06.163,judgeSpeechMusic_20210919_logNormShiftAmp_detection_fixFreq,2020.1.2,MacIntel,60,,,,,,,,,,,,,,,,,,,,,,,,,,,,,,1,7.193,,0,0,27,27,20,1,stimuli/stim_20210919_power2amp/equal_lnn_AM2Hz_s25_8.m4a,,,,,,,,,,,,
,,,,,42144,2021-10-06_15h33.06.163,judgeSpeechMusic_20210919_logNormShiftAmp_detection_fixFreq,2020.1.2,MacIntel,60,,,,,,,,,,,,,,,,,,,,,,,,,,,,,,2,5.7527,,0,0,28,28,24,1,stimuli/stim_20210919_power2amp/equal_lnn_AM2Hz_s25_50.m4a,,,,,,,,,,,,
,,,,,42144,2021-10-06_15h33.06.163,judgeSpeechMusic_20210919_logNormShiftAmp_detection_fixFreq,2020.1.2,MacIntel,60,,,,,,,,,,,,,,,,,,,,,,,,,,,,,,1,5.6568,,0,0,29,29,68,1,stimuli/stim_20210919_power2amp/equal_lnn_AM2Hz_s55_28.m4a,,,,,,,,,,,,
,,,,,42144,2021-10-06_15h33.06.163,judgeSpeechMusic_20210919_logNormShiftAmp_detection_fixFreq,2020.1.2,MacIntel,60,,,,,,,,,,,,,,,,,,,,,,,,,,,,,,2,6.8432,,0,0,30,30,47,1,stimuli/stim_20210919_power2amp/equal_lnn_AM2Hz_s45_41.m4a,,,,,,,,,,,,
,,,,,42144,2021-10-06_15h33.06.163,judgeSpeechMusic_20210919_logNormShiftAmp_detection_fixFreq,2020.1.2,MacIntel,60,,,,,,,,,,,,,,,,,,,,,,,,,,,,,,1,5.6922,,0,0,31,31,62,1,stimuli/stim_20210919_power2amp/equal_lnn_AM2Hz_s55_4.m4a,,,,,,,,,,,,
,,,,,42144,2021-10-06_15h33.06.163,judgeSpeechMusic_20210919_logNormShiftAmp_detection_fixFreq,2020.1.2,MacIntel,60,,,,,,,,,,,,,,,,,,,,,,,,,,,,,,1,7.3984,,0,0,32,32,5,1,stimuli/stim_20210919_power2amp/equal_lnn_AM2Hz_s15_40.m4a,,,,,,,,,,,,
,,,,,42144,2021-10-06_15h33.06.163,judgeSpeechMusic_20210919_logNormShiftAmp_detection_fixFreq,2020.1.2,MacIntel,60,,,,,,,,,,,,,,,,,,,,,,,,,,,,,,2,5.573,,0,0,33,33,14,1,stimuli/stim_20210919_power2amp/equal_lnn_AM2Hz_s15_37.m4a,,,,,,,,,,,,
,,,,,42144,2021-10-06_15h33.06.163,judgeSpeechMusic_20210919_logNormShiftAmp_detection_fixFreq,2020.1.2,MacIntel,60,,,,,,,,,,,,,,,,,,,,,,,,,,,,,,2,30.5116,,0,0,34,34,19,1,stimuli/stim_20210919_power2amp/equal_lnn_AM2Hz_s25_9.m4a,,,,,,,,,,,,
,,,,,42144,2021-10-06_15h33.06.163,judgeSpeechMusic_20210919_logNormShiftAmp_detection_fixFreq,2020.1.2,MacIntel,60,,,,,,,,,,,,,,,,,,,,,,,,,,,,,,1,6.024,,0,0,35,35,35,1,stimuli/stim_20210919_power2amp/equal_lnn_AM2Hz_s35_27.m4a,,,,,,,,,,,,
,,,,,42144,2021-10-06_15h33.06.163,judgeSpeechMusic_20210919_logNormShiftAmp_detection_fixFreq,2020.1.2,MacIntel,60,,,,,,,,,,,,,,,,,,,,,,,,,,,,,,1,6.9257,4,1,0,36,36,69,1,stimuli/stim_20210919_power2amp/equal_lnn_AM2Hz_s55_40.m4a,1.045,,,,,,,,,,,
,,,,,42144,2021-10-06_15h33.06.163,judgeSpeechMusic_20210919_logNormShiftAmp_detection_fixFreq,2020.1.2,MacIntel,60,,,,,,,,,,,,,,,,,,,,,,,,,,,,,,1,5.7092,,0,0,37,37,1,1,stimuli/stim_20210919_power2amp/equal_lnn_AM2Hz_s15_27.m4a,,,,,,,,,,,,
,,,,,42144,2021-10-06_15h33.06.163,judgeSpeechMusic_20210919_logNormShiftAmp_detection_fixFreq,2020.1.2,MacIntel,60,,,,,,,,,,,,,,,,,,,,,,,,,,,,,,2,6.2434,,0,0,38,38,51,1,stimuli/stim_20210919_power2amp/equal_lnn_AM2Hz_s45_20.m4a,,,,,,,,,,,,
,,,,,42144,2021-10-06_15h33.06.163,judgeSpeechMusic_20210919_logNormShiftAmp_detection_fixFreq,2020.1.2,MacIntel,60,,,,,,,,,,,,,,,,,,,,,,,,,,,,,,2,6.4612,,0,0,39,39,50,1,stimuli/stim_20210919_power2amp/equal_lnn_AM2Hz_s45_26.m4a,,,,,,,,,,,,
,,,,,42144,2021-10-06_15h33.06.163,judgeSpeechMusic_20210919_logNormShiftAmp_detection_fixFreq,2020.1.2,MacIntel,60,,,,,,,,,,,,,,,,,,,,,,,,,,,,,,2,7.6447,,0,0,40,40,30,1,stimuli/stim_20210919_power2amp/equal_lnn_AM2Hz_s35_6.m4a,,,,,,,,,,,,
,,,,,42144,2021-10-06_15h33.06.163,judgeSpeechMusic_20210919_logNormShiftAmp_detection_fixFreq,2020.1.2,MacIntel,60,,,,,,,,,,,,,,,,,,,,,,,,,,,,,,2,5.992,,0,0,41,41,17,1,stimuli/stim_20210919_power2amp/equal_lnn_AM2Hz_s25_22.m4a,,,,,,,,,,,,
,,,,,42144,2021-10-06_15h33.06.163,judgeSpeechMusic_20210919_logNormShiftAmp_detection_fixFreq,2020.1.2,MacIntel,60,,,,,,,,,,,,,,,,,,,,,,,,,,,,,,1,6.7272,,0,0,42,42,44,1,stimuli/stim_20210919_power2amp/equal_lnn_AM2Hz_s35_28.m4a,,,,,,,,,,,,
,,,,,42144,2021-10-06_15h33.06.163,judgeSpeechMusic_20210919_logNormShiftAmp_detection_fixFreq,2020.1.2,MacIntel,60,,,,,,,,,,,,,,,,,,,,,,,,,,,,,,2,6.5445,,0,0,43,43,31,1,stimuli/stim_20210919_power2amp/equal_lnn_AM2Hz_s35_19.m4a,,,,,,,,,,,,
,,,,,42144,2021-10-06_15h33.06.163,judgeSpeechMusic_20210919_logNormShiftAmp_detection_fixFreq,2020.1.2,MacIntel,60,,,,,,,,,,,,,,,,,,,,,,,,,,,,,,1,8.4741,,0,0,44,44,56,1,stimuli/stim_20210919_power2amp/equal_lnn_AM2Hz_s45_47.m4a,,,,,,,,,,,,
,,,,,42144,2021-10-06_15h33.06.163,judgeSpeechMusic_20210919_logNormShiftAmp_detection_fixFreq,2020.1.2,MacIntel,60,,,,,,,,,,,,,,,,,,,,,,,,,,,,,,1,6.5727,,0,0,45,45,40,1,stimuli/stim_20210919_power2amp/equal_lnn_AM2Hz_s35_26.m4a,,,,,,,,,,,,
,,,,,42144,2021-10-06_15h33.06.163,judgeSpeechMusic_20210919_logNormShiftAmp_detection_fixFreq,2020.1.2,MacIntel,60,,,,,,,,,,,,,,,,,,,,,,,,,,,,,,1,6.4759,,0,0,46,46,46,1,stimuli/stim_20210919_power2amp/equal_lnn_AM2Hz_s45_34.m4a,,,,,,,,,,,,
,,,,,42144,2021-10-06_15h33.06.163,judgeSpeechMusic_20210919_logNormShiftAmp_detection_fixFreq,2020.1.2,MacIntel,60,,,,,,,,,,,,,,,,,,,,,,,,,,,,,,2,6.1251,,0,0,47,47,54,1,stimuli/stim_20210919_power2amp/equal_lnn_AM2Hz_s45_15.m4a,,,,,,,,,,,,
,,,,,42144,2021-10-06_15h33.06.163,judgeSpeechMusic_20210919_logNormShiftAmp_detection_fixFreq,2020.1.2,MacIntel,60,,,,,,,,,,,,,,,,,,,,,,,,,,,,,,2,7.0753,,0,0,48,48,60,1,stimuli/stim_20210919_power2amp/equal_lnn_AM2Hz_s55_9.m4a,,,,,,,,,,,,
,,,,,42144,2021-10-06_15h33.06.163,judgeSpeechMusic_20210919_logNormShiftAmp_detection_fixFreq,2020.1.2,MacIntel,60,,,,,,,,,,,,,,,,,,,,,,,,,,,,,,1,6.26,,0,0,49,49,41,1,stimuli/stim_20210919_power2amp/equal_lnn_AM2Hz_s35_50.m4a,,,,,,,,,,,,
,,,,,42144,2021-10-06_15h33.06.163,judgeSpeechMusic_20210919_logNormShiftAmp_detection_fixFreq,2020.1.2,MacIntel,60,,,,,,,,,,,,,,,,,,,,,,,,,,,,,,2,6.4372,,0,0,50,50,21,1,stimuli/stim_20210919_power2amp/equal_lnn_AM2Hz_s25_36.m4a,,,,,,,,,,,,
,,,,,42144,2021-10-06_15h33.06.163,judgeSpeechMusic_20210919_logNormShiftAmp_detection_fixFreq,2020.1.2,MacIntel,60,,,,,,,,,,,,,,,,,,,,,,,,,,,,,,1,6.5083,,0,0,51,51,61,1,stimuli/stim_20210919_power2amp/equal_lnn_AM2Hz_s55_2.m4a,,,,,,,,,,,,
,,,,,42144,2021-10-06_15h33.06.163,judgeSpeechMusic_20210919_logNormShiftAmp_detection_fixFreq,2020.1.2,MacIntel,60,,,,,,,,,,,,,,,,,,,,,,,,,,,,,,1,6.8934,,0,0,52,52,2,1,stimuli/stim_20210919_power2amp/equal_lnn_AM2Hz_s15_28.m4a,,,,,,,,,,,,
,,,,,42144,2021-10-06_15h33.06.163,judgeSpeechMusic_20210919_logNormShiftAmp_detection_fixFreq,2020.1.2,MacIntel,60,,,,,,,,,,,,,,,,,,,,,,,,,,,,,,1,8.1707,,0,0,53,53,58,1,stimuli/stim_20210919_power2amp/equal_lnn_AM2Hz_s45_33.m4a,,,,,,,,,,,,
,,,,,42144,2021-10-06_15h33.06.163,judgeSpeechMusic_20210919_logNormShiftAmp_detection_fixFreq,2020.1.2,MacIntel,60,,,,,,,,,,,,,,,,,,,,,,,,,,,,,,2,6.1989,,0,0,54,54,57,1,stimuli/stim_20210919_power2amp/equal_lnn_AM2Hz_s45_13.m4a,,,,,,,,,,,,
,,,,,42144,2021-10-06_15h33.06.163,judgeSpeechMusic_20210919_logNormShiftAmp_detection_fixFreq,2020.1.2,MacIntel,60,,,,,,,,,,,,,,,,,,,,,,,,,,,,,,1,8.1068,3,1,0,55,55,3,1,stimuli/stim_20210919_power2amp/equal_lnn_AM2Hz_s15_10.m4a,1.0907,,,,,,,,,,,
,,,,,42144,2021-10-06_15h33.06.163,judgeSpeechMusic_20210919_logNormShiftAmp_detection_fixFreq,2020.1.2,MacIntel,60,,,,,,,,,,,,,,,,,,,,,,,,,,,,,,2,7.1978,,0,0,56,56,0,1,stimuli/stim_20210919_power2amp/equal_lnn_AM2Hz_s15_7.m4a,,,,,,,,,,,,
,,,,,42144,2021-10-06_15h33.06.163,judgeSpeechMusic_20210919_logNormShiftAmp_detection_fixFreq,2020.1.2,MacIntel,60,,,,,,,,,,,,,,,,,,,,,,,,,,,,,,1,7.5902,,0,0,57,57,53,1,stimuli/stim_20210919_power2amp/equal_lnn_AM2Hz_s45_30.m4a,,,,,,,,,,,,
,,,,,42144,2021-10-06_15h33.06.163,judgeSpeechMusic_20210919_logNormShiftAmp_detection_fixFreq,2020.1.2,MacIntel,60,,,,,,,,,,,,,,,,,,,,,,,,,,,,,,2,6.4538,,0,0,58,58,55,1,stimuli/stim_20210919_power2amp/equal_lnn_AM2Hz_s45_9.m4a,,,,,,,,,,,,
,,,,,42144,2021-10-06_15h33.06.163,judgeSpeechMusic_20210919_logNormShiftAmp_detection_fixFreq,2020.1.2,MacIntel,60,,,,,,,,,,,,,,,,,,,,,,,,,,,,,,2,7.5993,,0,0,59,59,8,1,stimuli/stim_20210919_power2amp/equal_lnn_AM2Hz_s15_38.m4a,,,,,,,,,,,,
,,,,,42144,2021-10-06_15h33.06.163,judgeSpeechMusic_20210919_logNormShiftAmp_detection_fixFreq,2020.1.2,MacIntel,60,,,,,,,,,,,,,,,,,,,,,,,,,,,,,,1,6.6535,,0,0,60,60,29,1,stimuli/stim_20210919_power2amp/equal_lnn_AM2Hz_s25_26.m4a,,,,,,,,,,,,
,,,,,42144,2021-10-06_15h33.06.163,judgeSpeechMusic_20210919_logNormShiftAmp_detection_fixFreq,2020.1.2,MacIntel,60,,,,,,,,,,,,,,,,,,,,,,,,,,,,,,2,6.4786,,0,0,61,61,37,1,stimuli/stim_20210919_power2amp/equal_lnn_AM2Hz_s35_31.m4a,,,,,,,,,,,,
,,,,,42144,2021-10-06_15h33.06.163,judgeSpeechMusic_20210919_logNormShiftAmp_detection_fixFreq,2020.1.2,MacIntel,60,,,,,,,,,,,,,,,,,,,,,,,,,,,,,,1,6.2403,,0,0,62,62,49,1,stimuli/stim_20210919_power2amp/equal_lnn_AM2Hz_s45_24.m4a,,,,,,,,,,,,
,,,,,42144,2021-10-06_15h33.06.163,judgeSpeechMusic_20210919_logNormShiftAmp_detection_fixFreq,2020.1.2,MacIntel,60,,,,,,,,,,,,,,,,,,,,,,,,,,,,,,2,7.6054,,0,0,63,63,13,1,stimuli/stim_20210919_power2amp/equal_lnn_AM2Hz_s15_25.m4a,,,,,,,,,,,,
,,,,,42144,2021-10-06_15h33.06.163,judgeSpeechMusic_20210919_logNormShiftAmp_detection_fixFreq,2020.1.2,MacIntel,60,,,,,,,,,,,,,,,,,,,,,,,,,,,,,,2,7.0495,,0,0,64,64,71,1,stimuli/stim_20210919_power2amp/equal_lnn_AM2Hz_s55_30.m4a,,,,,,,,,,,,
,,,,,42144,2021-10-06_15h33.06.163,judgeSpeechMusic_20210919_logNormShiftAmp_detection_fixFreq,2020.1.2,MacIntel,60,,,,,,,,,,,,,,,,,,,,,,,,,,,,,,1,6.7655,,0,0,65,65,73,1,stimuli/stim_20210919_power2amp/equal_lnn_AM2Hz_s55_42.m4a,,,,,,,,,,,,
,,,,,42144,2021-10-06_15h33.06.163,judgeSpeechMusic_20210919_logNormShiftAmp_detection_fixFreq,2020.1.2,MacIntel,60,,,,,,,,,,,,,,,,,,,,,,,,,,,,,,2,6.75,,0,0,66,66,32,1,stimuli/stim_20210919_power2amp/equal_lnn_AM2Hz_s35_40.m4a,,,,,,,,,,,,
,,,,,42144,2021-10-06_15h33.06.163,judgeSpeechMusic_20210919_logNormShiftAmp_detection_fixFreq,2020.1.2,MacIntel,60,,,,,,,,,,,,,,,,,,,,,,,,,,,,,,1,7.2089,,0,0,67,67,33,1,stimuli/stim_20210919_power2amp/equal_lnn_AM2Hz_s35_34.m4a,,,,,,,,,,,,
,,,,,42144,2021-10-06_15h33.06.163,judgeSpeechMusic_20210919_logNormShiftAmp_detection_fixFreq,2020.1.2,MacIntel,60,,,,,,,,,,,,,,,,,,,,,,,,,,,,,,1,6.2329,,0,0,68,68,34,1,stimuli/stim_20210919_power2amp/equal_lnn_AM2Hz_s35_49.m4a,,,,,,,,,,,,
,,,,,42144,2021-10-06_15h33.06.163,judgeSpeechMusic_20210919_logNormShiftAmp_detection_fixFreq,2020.1.2,MacIntel,60,,,,,,,,,,,,,,,,,,,,,,,,,,,,,,2,6.8109,,0,0,69,69,27,1,stimuli/stim_20210919_power2amp/equal_lnn_AM2Hz_s25_31.m4a,,,,,,,,,,,,
,,,,,42144,2021-10-06_15h33.06.163,judgeSpeechMusic_20210919_logNormShiftAmp_detection_fixFreq,2020.1.2,MacIntel,60,,,,,,,,,,,,,,,,,,,,,,,,,,,,,,1,6.074,,0,0,70,70,74,1,stimuli/stim_20210919_power2amp/equal_lnn_AM2Hz_s55_22.m4a,,,,,,,,,,,,
,,,,,42144,2021-10-06_15h33.06.163,judgeSpeechMusic_20210919_logNormShiftAmp_detection_fixFreq,2020.1.2,MacIntel,60,,,,,,,,,,,,,,,,,,,,,,,,,,,,,,2,6.1584,,0,0,71,71,23,1,stimuli/stim_20210919_power2amp/equal_lnn_AM2Hz_s25_4.m4a,,,,,,,,,,,,
,,,,,42144,2021-10-06_15h33.06.163,judgeSpeechMusic_20210919_logNormShiftAmp_detection_fixFreq,2020.1.2,MacIntel,60,,,,,,,,,,,,,,,,,,,,,,,,,,,,,,2,6.5704,,0,0,72,72,6,1,stimuli/stim_20210919_power2amp/equal_lnn_AM2Hz_s15_12.m4a,,,,,,,,,,,,
,,,,,42144,2021-10-06_15h33.06.163,judgeSpeechMusic_20210919_logNormShiftAmp_detection_fixFreq,2020.1.2,MacIntel,60,,,,,,,,,,,,,,,,,,,,,,,,,,,,,,2,7.1422,,0,0,73,73,65,1,stimuli/stim_20210919_power2amp/equal_lnn_AM2Hz_s55_14.m4a,,,,,,,,,,,,
,,,,,42144,2021-10-06_15h33.06.163,judgeSpeechMusic_20210919_logNormShiftAmp_detection_fixFreq,2020.1.2,MacIntel,60,,,,,,,,,,,,,,,,,,,,,,,,,,,,,,2,8.1438,,0,0,74,74,15,1,stimuli/stim_20210919_power2amp/equal_lnn_AM2Hz_s25_3.m4a,,,,,,,,,,,,
,,,,,42144,2021-10-06_15h33.06.163,judgeSpeechMusic_20210919_logNormShiftAmp_detection_fixFreq,2020.1.2,MacIntel,60,,,,,,,,,,,,,,,,,,,,,,,,,,,,,,,,,,,,,,,,,space,1.3124,0,1,1,1,1,SPEECH,stimuli/SPEECH.jpg,,
,,,,,42144,2021-10-06_15h33.06.163,judgeSpeechMusic_20210919_logNormShiftAmp_detection_fixFreq,2020.1.2,MacIntel,60,,,,,,,,,,,,,,,,,,0,0,0,0,1,1,stimuli/stim_20210919_power2amp/equal_lnn_AM_training2Hz_s30.m4a,,,,,,,,,,,,,,,,,,,,,,,,,,,
,,,,,42144,2021-10-06_15h33.06.163,judgeSpeechMusic_20210919_logNormShiftAmp_detection_fixFreq,2020.1.2,MacIntel,60,,,,,,,,,,,,,,,,,,,,,,,,,,space,0.9756,space,2.133,2,6.4233,,0,0,0,0,36,1,stimuli/stim_20210919_power2amp/equal_lnn_AM2Hz_s35_5.m4a,,,,,,,,,,,,
,,,,,42144,2021-10-06_15h33.06.163,judgeSpeechMusic_20210919_logNormShiftAmp_detection_fixFreq,2020.1.2,MacIntel,60,,,,,,,,,,,,,,,,,,,,,,,,,,,,,,1,6.7098,,0,0,1,1,66,1,stimuli/stim_20210919_power2amp/equal_lnn_AM2Hz_s55_18.m4a,,,,,,,,,,,,
,,,,,42144,2021-10-06_15h33.06.163,judgeSpeechMusic_20210919_logNormShiftAmp_detection_fixFreq,2020.1.2,MacIntel,60,,,,,,,,,,,,,,,,,,,,,,,,,,,,,,2,6.5489,,0,0,2,2,34,1,stimuli/stim_20210919_power2amp/equal_lnn_AM2Hz_s35_49.m4a,,,,,,,,,,,,
,,,,,42144,2021-10-06_15h33.06.163,judgeSpeechMusic_20210919_logNormShiftAmp_detection_fixFreq,2020.1.2,MacIntel,60,,,,,,,,,,,,,,,,,,,,,,,,,,,,,,1,6.0775,,0,0,3,3,74,1,stimuli/stim_20210919_power2amp/equal_lnn_AM2Hz_s55_22.m4a,,,,,,,,,,,,
,,,,,42144,2021-10-06_15h33.06.163,judgeSpeechMusic_20210919_logNormShiftAmp_detection_fixFreq,2020.1.2,MacIntel,60,,,,,,,,,,,,,,,,,,,,,,,,,,,,,,1,5.9934,,0,0,4,4,30,1,stimuli/stim_20210919_power2amp/equal_lnn_AM2Hz_s35_6.m4a,,,,,,,,,,,,
,,,,,42144,2021-10-06_15h33.06.163,judgeSpeechMusic_20210919_logNormShiftAmp_detection_fixFreq,2020.1.2,MacIntel,60,,,,,,,,,,,,,,,,,,,,,,,,,,,,,,2,9.5716,,0,0,5,5,37,1,stimuli/stim_20210919_power2amp/equal_lnn_AM2Hz_s35_31.m4a,,,,,,,,,,,,
,,,,,42144,2021-10-06_15h33.06.163,judgeSpeechMusic_20210919_logNormShiftAmp_detection_fixFreq,2020.1.2,MacIntel,60,,,,,,,,,,,,,,,,,,,,,,,,,,,,,,1,9.1983,,0,0,6,6,54,1,stimuli/stim_20210919_power2amp/equal_lnn_AM2Hz_s45_15.m4a,,,,,,,,,,,,
,,,,,42144,2021-10-06_15h33.06.163,judgeSpeechMusic_20210919_logNormShiftAmp_detection_fixFreq,2020.1.2,MacIntel,60,,,,,,,,,,,,,,,,,,,,,,,,,,,,,,2,7.2016,,0,0,7,7,63,1,stimuli/stim_20210919_power2amp/equal_lnn_AM2Hz_s55_39.m4a,,,,,,,,,,,,
,,,,,42144,2021-10-06_15h33.06.163,judgeSpeechMusic_20210919_logNormShiftAmp_detection_fixFreq,2020.1.2,MacIntel,60,,,,,,,,,,,,,,,,,,,,,,,,,,,,,,1,7.2867,,0,0,8,8,69,1,stimuli/stim_20210919_power2amp/equal_lnn_AM2Hz_s55_40.m4a,,,,,,,,,,,,
,,,,,42144,2021-10-06_15h33.06.163,judgeSpeechMusic_20210919_logNormShiftAmp_detection_fixFreq,2020.1.2,MacIntel,60,,,,,,,,,,,,,,,,,,,,,,,,,,,,,,2,8.2173,,0,0,9,9,58,1,stimuli/stim_20210919_power2amp/equal_lnn_AM2Hz_s45_33.m4a,,,,,,,,,,,,
,,,,,42144,2021-10-06_15h33.06.163,judgeSpeechMusic_20210919_logNormShiftAmp_detection_fixFreq,2020.1.2,MacIntel,60,,,,,,,,,,,,,,,,,,,,,,,,,,,,,,1,7.9857,,0,0,10,10,42,1,stimuli/stim_20210919_power2amp/equal_lnn_AM2Hz_s35_13.m4a,,,,,,,,,,,,
,,,,,42144,2021-10-06_15h33.06.163,judgeSpeechMusic_20210919_logNormShiftAmp_detection_fixFreq,2020.1.2,MacIntel,60,,,,,,,,,,,,,,,,,,,,,,,,,,,,,,1,9.353,,0,0,11,11,64,1,stimuli/stim_20210919_power2amp/equal_lnn_AM2Hz_s55_34.m4a,,,,,,,,,,,,
,,,,,42144,2021-10-06_15h33.06.163,judgeSpeechMusic_20210919_logNormShiftAmp_detection_fixFreq,2020.1.2,MacIntel,60,,,,,,,,,,,,,,,,,,,,,,,,,,,,,,2,10.3589,,0,0,12,12,27,1,stimuli/stim_20210919_power2amp/equal_lnn_AM2Hz_s25_31.m4a,,,,,,,,,,,,
,,,,,42144,2021-10-06_15h33.06.163,judgeSpeechMusic_20210919_logNormShiftAmp_detection_fixFreq,2020.1.2,MacIntel,60,,,,,,,,,,,,,,,,,,,,,,,,,,,,,,1,6.8418,,0,0,13,13,38,1,stimuli/stim_20210919_power2amp/equal_lnn_AM2Hz_s35_24.m4a,,,,,,,,,,,,
,,,,,42144,2021-10-06_15h33.06.163,judgeSpeechMusic_20210919_logNormShiftAmp_detection_fixFreq,2020.1.2,MacIntel,60,,,,,,,,,,,,,,,,,,,,,,,,,,,,,,1,7.6257,,0,0,14,14,21,1,stimuli/stim_20210919_power2amp/equal_lnn_AM2Hz_s25_36.m4a,,,,,,,,,,,,
,,,,,42144,2021-10-06_15h33.06.163,judgeSpeechMusic_20210919_logNormShiftAmp_detection_fixFreq,2020.1.2,MacIntel,60,,,,,,,,,,,,,,,,,,,,,,,,,,,,,,2,6.6587,,0,0,15,15,56,1,stimuli/stim_20210919_power2amp/equal_lnn_AM2Hz_s45_47.m4a,,,,,,,,,,,,
,,,,,42144,2021-10-06_15h33.06.163,judgeSpeechMusic_20210919_logNormShiftAmp_detection_fixFreq,2020.1.2,MacIntel,60,,,,,,,,,,,,,,,,,,,,,,,,,,,,,,1,8.7931,,0,0,16,16,68,1,stimuli/stim_20210919_power2amp/equal_lnn_AM2Hz_s55_28.m4a,,,,,,,,,,,,
,,,,,42144,2021-10-06_15h33.06.163,judgeSpeechMusic_20210919_logNormShiftAmp_detection_fixFreq,2020.1.2,MacIntel,60,,,,,,,,,,,,,,,,,,,,,,,,,,,,,,1,8.6595,,0,0,17,17,48,1,stimuli/stim_20210919_power2amp/equal_lnn_AM2Hz_s45_40.m4a,,,,,,,,,,,,
,,,,,42144,2021-10-06_15h33.06.163,judgeSpeechMusic_20210919_logNormShiftAmp_detection_fixFreq,2020.1.2,MacIntel,60,,,,,,,,,,,,,,,,,,,,,,,,,,,,,,2,9.4971,2,1,0,18,18,47,1,stimuli/stim_20210919_power2amp/equal_lnn_AM2Hz_s45_41.m4a,0.9428,,,,,,,,,,,
,,,,,42144,2021-10-06_15h33.06.163,judgeSpeechMusic_20210919_logNormShiftAmp_detection_fixFreq,2020.1.2,MacIntel,60,,,,,,,,,,,,,,,,,,,,,,,,,,,,,,1,8.0679,,0,0,19,19,67,1,stimuli/stim_20210919_power2amp/equal_lnn_AM2Hz_s55_35.m4a,,,,,,,,,,,,
,,,,,42144,2021-10-06_15h33.06.163,judgeSpeechMusic_20210919_logNormShiftAmp_detection_fixFreq,2020.1.2,MacIntel,60,,,,,,,,,,,,,,,,,,,,,,,,,,,,,,1,6.7937,,0,0,20,20,70,1,stimuli/stim_20210919_power2amp/equal_lnn_AM2Hz_s55_1.m4a,,,,,,,,,,,,
,,,,,42144,2021-10-06_15h33.06.163,judgeSpeechMusic_20210919_logNormShiftAmp_detection_fixFreq,2020.1.2,MacIntel,60,,,,,,,,,,,,,,,,,,,,,,,,,,,,,,2,6.0229,,0,0,21,21,25,1,stimuli/stim_20210919_power2amp/equal_lnn_AM2Hz_s25_21.m4a,,,,,,,,,,,,
,,,,,42144,2021-10-06_15h33.06.163,judgeSpeechMusic_20210919_logNormShiftAmp_detection_fixFreq,2020.1.2,MacIntel,60,,,,,,,,,,,,,,,,,,,,,,,,,,,,,,1,6.3457,,0,0,22,22,32,1,stimuli/stim_20210919_power2amp/equal_lnn_AM2Hz_s35_40.m4a,,,,,,,,,,,,
,,,,,42144,2021-10-06_15h33.06.163,judgeSpeechMusic_20210919_logNormShiftAmp_detection_fixFreq,2020.1.2,MacIntel,60,,,,,,,,,,,,,,,,,,,,,,,,,,,,,,1,6.472,,0,0,23,23,17,1,stimuli/stim_20210919_power2amp/equal_lnn_AM2Hz_s25_22.m4a,,,,,,,,,,,,
,,,,,42144,2021-10-06_15h33.06.163,judgeSpeechMusic_20210919_logNormShiftAmp_detection_fixFreq,2020.1.2,MacIntel,60,,,,,,,,,,,,,,,,,,,,,,,,,,,,,,2,7.8089,,0,0,24,24,12,1,stimuli/stim_20210919_power2amp/equal_lnn_AM2Hz_s15_18.m4a,,,,,,,,,,,,
,,,,,42144,2021-10-06_15h33.06.163,judgeSpeechMusic_20210919_logNormShiftAmp_detection_fixFreq,2020.1.2,MacIntel,60,,,,,,,,,,,,,,,,,,,,,,,,,,,,,,1,6.02,,0,0,25,25,72,1,stimuli/stim_20210919_power2amp/equal_lnn_AM2Hz_s55_3.m4a,,,,,,,,,,,,
,,,,,42144,2021-10-06_15h33.06.163,judgeSpeechMusic_20210919_logNormShiftAmp_detection_fixFreq,2020.1.2,MacIntel,60,,,,,,,,,,,,,,,,,,,,,,,,,,,,,,2,9.7987,,0,0,26,26,4,1,stimuli/stim_20210919_power2amp/equal_lnn_AM2Hz_s15_46.m4a,,,,,,,,,,,,
,,,,,42144,2021-10-06_15h33.06.163,judgeSpeechMusic_20210919_logNormShiftAmp_detection_fixFreq,2020.1.2,MacIntel,60,,,,,,,,,,,,,,,,,,,,,,,,,,,,,,1,7.5944,,0,0,27,27,35,1,stimuli/stim_20210919_power2amp/equal_lnn_AM2Hz_s35_27.m4a,,,,,,,,,,,,
,,,,,42144,2021-10-06_15h33.06.163,judgeSpeechMusic_20210919_logNormShiftAmp_detection_fixFreq,2020.1.2,MacIntel,60,,,,,,,,,,,,,,,,,,,,,,,,,,,,,,1,7.9432,,0,0,28,28,50,1,stimuli/stim_20210919_power2amp/equal_lnn_AM2Hz_s45_26.m4a,,,,,,,,,,,,
,,,,,42144,2021-10-06_15h33.06.163,judgeSpeechMusic_20210919_logNormShiftAmp_detection_fixFreq,2020.1.2,MacIntel,60,,,,,,,,,,,,,,,,,,,,,,,,,,,,,,1,6.0846,,0,0,29,29,65,1,stimuli/stim_20210919_power2amp/equal_lnn_AM2Hz_s55_14.m4a,,,,,,,,,,,,
,,,,,42144,2021-10-06_15h33.06.163,judgeSpeechMusic_20210919_logNormShiftAmp_detection_fixFreq,2020.1.2,MacIntel,60,,,,,,,,,,,,,,,,,,,,,,,,,,,,,,2,6.1719,,0,0,30,30,26,1,stimuli/stim_20210919_power2amp/equal_lnn_AM2Hz_s25_28.m4a,,,,,,,,,,,,
,,,,,42144,2021-10-06_15h33.06.163,judgeSpeechMusic_20210919_logNormShiftAmp_detection_fixFreq,2020.1.2,MacIntel,60,,,,,,,,,,,,,,,,,,,,,,,,,,,,,,1,6.4863,,0,0,31,31,1,1,stimuli/stim_20210919_power2amp/equal_lnn_AM2Hz_s15_27.m4a,,,,,,,,,,,,
,,,,,42144,2021-10-06_15h33.06.163,judgeSpeechMusic_20210919_logNormShiftAmp_detection_fixFreq,2020.1.2,MacIntel,60,,,,,,,,,,,,,,,,,,,,,,,,,,,,,,2,7.0192,,0,0,32,32,31,1,stimuli/stim_20210919_power2amp/equal_lnn_AM2Hz_s35_19.m4a,,,,,,,,,,,,
,,,,,42144,2021-10-06_15h33.06.163,judgeSpeechMusic_20210919_logNormShiftAmp_detection_fixFreq,2020.1.2,MacIntel,60,,,,,,,,,,,,,,,,,,,,,,,,,,,,,,1,6.2733,,0,0,33,33,73,1,stimuli/stim_20210919_power2amp/equal_lnn_AM2Hz_s55_42.m4a,,,,,,,,,,,,
,,,,,42144,2021-10-06_15h33.06.163,judgeSpeechMusic_20210919_logNormShiftAmp_detection_fixFreq,2020.1.2,MacIntel,60,,,,,,,,,,,,,,,,,,,,,,,,,,,,,,1,6.7199,,0,0,34,34,7,1,stimuli/stim_20210919_power2amp/equal_lnn_AM2Hz_s15_15.m4a,,,,,,,,,,,,
,,,,,42144,2021-10-06_15h33.06.163,judgeSpeechMusic_20210919_logNormShiftAmp_detection_fixFreq,2020.1.2,MacIntel,60,,,,,,,,,,,,,,,,,,,,,,,,,,,,,,1,7.3365,,0,0,35,35,28,1,stimuli/stim_20210919_power2amp/equal_lnn_AM2Hz_s25_34.m4a,,,,,,,,,,,,
,,,,,42144,2021-10-06_15h33.06.163,judgeSpeechMusic_20210919_logNormShiftAmp_detection_fixFreq,2020.1.2,MacIntel,60,,,,,,,,,,,,,,,,,,,,,,,,,,,,,,2,7.0358,4,1,0,36,36,71,1,stimuli/stim_20210919_power2amp/equal_lnn_AM2Hz_s55_30.m4a,1.521,,,,,,,,,,,
,,,,,42144,2021-10-06_15h33.06.163,judgeSpeechMusic_20210919_logNormShiftAmp_detection_fixFreq,2020.1.2,MacIntel,60,,,,,,,,,,,,,,,,,,,,,,,,,,,,,,1,7.1039,,0,0,37,37,39,1,stimuli/stim_20210919_power2amp/equal_lnn_AM2Hz_s35_15.m4a,,,,,,,,,,,,
,,,,,42144,2021-10-06_15h33.06.163,judgeSpeechMusic_20210919_logNormShiftAmp_detection_fixFreq,2020.1.2,MacIntel,60,,,,,,,,,,,,,,,,,,,,,,,,,,,,,,2,6.6337,,0,0,38,38,55,1,stimuli/stim_20210919_power2amp/equal_lnn_AM2Hz_s45_9.m4a,,,,,,,,,,,,
,,,,,42144,2021-10-06_15h33.06.163,judgeSpeechMusic_20210919_logNormShiftAmp_detection_fixFreq,2020.1.2,MacIntel,60,,,,,,,,,,,,,,,,,,,,,,,,,,,,,,1,8.9218,,0,0,39,39,59,1,stimuli/stim_20210919_power2amp/equal_lnn_AM2Hz_s45_12.m4a,,,,,,,,,,,,
,,,,,42144,2021-10-06_15h33.06.163,judgeSpeechMusic_20210919_logNormShiftAmp_detection_fixFreq,2020.1.2,MacIntel,60,,,,,,,,,,,,,,,,,,,,,,,,,,,,,,1,6.3983,,0,0,40,40,45,1,stimuli/stim_20210919_power2amp/equal_lnn_AM2Hz_s45_39.m4a,,,,,,,,,,,,
,,,,,42144,2021-10-06_15h33.06.163,judgeSpeechMusic_20210919_logNormShiftAmp_detection_fixFreq,2020.1.2,MacIntel,60,,,,,,,,,,,,,,,,,,,,,,,,,,,,,,1,11.3846,,0,0,41,41,22,1,stimuli/stim_20210919_power2amp/equal_lnn_AM2Hz_s25_13.m4a,,,,,,,,,,,,
,,,,,42144,2021-10-06_15h33.06.163,judgeSpeechMusic_20210919_logNormShiftAmp_detection_fixFreq,2020.1.2,MacIntel,60,,,,,,,,,,,,,,,,,,,,,,,,,,,,,,2,6.5509,,0,0,42,42,8,1,stimuli/stim_20210919_power2amp/equal_lnn_AM2Hz_s15_38.m4a,,,,,,,,,,,,
,,,,,42144,2021-10-06_15h33.06.163,judgeSpeechMusic_20210919_logNormShiftAmp_detection_fixFreq,2020.1.2,MacIntel,60,,,,,,,,,,,,,,,,,,,,,,,,,,,,,,1,6.2895,,0,0,43,43,5,1,stimuli/stim_20210919_power2amp/equal_lnn_AM2Hz_s15_40.m4a,,,,,,,,,,,,
,,,,,42144,2021-10-06_15h33.06.163,judgeSpeechMusic_20210919_logNormShiftAmp_detection_fixFreq,2020.1.2,MacIntel,60,,,,,,,,,,,,,,,,,,,,,,,,,,,,,,1,6.4203,,0,0,44,44,9,1,stimuli/stim_20210919_power2amp/equal_lnn_AM2Hz_s15_17.m4a,,,,,,,,,,,,
,,,,,42144,2021-10-06_15h33.06.163,judgeSpeechMusic_20210919_logNormShiftAmp_detection_fixFreq,2020.1.2,MacIntel,60,,,,,,,,,,,,,,,,,,,,,,,,,,,,,,2,10.9036,,0,0,45,45,14,1,stimuli/stim_20210919_power2amp/equal_lnn_AM2Hz_s15_37.m4a,,,,,,,,,,,,
,,,,,42144,2021-10-06_15h33.06.163,judgeSpeechMusic_20210919_logNormShiftAmp_detection_fixFreq,2020.1.2,MacIntel,60,,,,,,,,,,,,,,,,,,,,,,,,,,,,,,1,6.0551,,0,0,46,46,18,1,stimuli/stim_20210919_power2amp/equal_lnn_AM2Hz_s25_6.m4a,,,,,,,,,,,,
,,,,,42144,2021-10-06_15h33.06.163,judgeSpeechMusic_20210919_logNormShiftAmp_detection_fixFreq,2020.1.2,MacIntel,60,,,,,,,,,,,,,,,,,,,,,,,,,,,,,,1,7.693,,0,0,47,47,43,1,stimuli/stim_20210919_power2amp/equal_lnn_AM2Hz_s35_12.m4a,,,,,,,,,,,,
,,,,,42144,2021-10-06_15h33.06.163,judgeSpeechMusic_20210919_logNormShiftAmp_detection_fixFreq,2020.1.2,MacIntel,60,,,,,,,,,,,,,,,,,,,,,,,,,,,,,,1,6.6621,,0,0,48,48,16,1,stimuli/stim_20210919_power2amp/equal_lnn_AM2Hz_s25_49.m4a,,,,,,,,,,,,
,,,,,42144,2021-10-06_15h33.06.163,judgeSpeechMusic_20210919_logNormShiftAmp_detection_fixFreq,2020.1.2,MacIntel,60,,,,,,,,,,,,,,,,,,,,,,,,,,,,,,2,9.2915,,0,0,49,49,6,1,stimuli/stim_20210919_power2amp/equal_lnn_AM2Hz_s15_12.m4a,,,,,,,,,,,,
,,,,,42144,2021-10-06_15h33.06.163,judgeSpeechMusic_20210919_logNormShiftAmp_detection_fixFreq,2020.1.2,MacIntel,60,,,,,,,,,,,,,,,,,,,,,,,,,,,,,,1,7.2384,,0,0,50,50,46,1,stimuli/stim_20210919_power2amp/equal_lnn_AM2Hz_s45_34.m4a,,,,,,,,,,,,
,,,,,42144,2021-10-06_15h33.06.163,judgeSpeechMusic_20210919_logNormShiftAmp_detection_fixFreq,2020.1.2,MacIntel,60,,,,,,,,,,,,,,,,,,,,,,,,,,,,,,2,10.009,,0,0,51,51,29,1,stimuli/stim_20210919_power2amp/equal_lnn_AM2Hz_s25_26.m4a,,,,,,,,,,,,
,,,,,42144,2021-10-06_15h33.06.163,judgeSpeechMusic_20210919_logNormShiftAmp_detection_fixFreq,2020.1.2,MacIntel,60,,,,,,,,,,,,,,,,,,,,,,,,,,,,,,2,7.76,,0,0,52,52,2,1,stimuli/stim_20210919_power2amp/equal_lnn_AM2Hz_s15_28.m4a,,,,,,,,,,,,
,,,,,42144,2021-10-06_15h33.06.163,judgeSpeechMusic_20210919_logNormShiftAmp_detection_fixFreq,2020.1.2,MacIntel,60,,,,,,,,,,,,,,,,,,,,,,,,,,,,,,1,7.3535,,0,0,53,53,49,1,stimuli/stim_20210919_power2amp/equal_lnn_AM2Hz_s45_24.m4a,,,,,,,,,,,,
,,,,,42144,2021-10-06_15h33.06.163,judgeSpeechMusic_20210919_logNormShiftAmp_detection_fixFreq,2020.1.2,MacIntel,60,,,,,,,,,,,,,,,,,,,,,,,,,,,,,,1,7.0307,,0,0,54,54,61,1,stimuli/stim_20210919_power2amp/equal_lnn_AM2Hz_s55_2.m4a,,,,,,,,,,,,
,,,,,42144,2021-10-06_15h33.06.163,judgeSpeechMusic_20210919_logNormShiftAmp_detection_fixFreq,2020.1.2,MacIntel,60,,,,,,,,,,,,,,,,,,,,,,,,,,,,,,1,8.7783,4,1,0,55,55,52,1,stimuli/stim_20210919_power2amp/equal_lnn_AM2Hz_s45_22.m4a,2.2539,,,,,,,,,,,
,,,,,42144,2021-10-06_15h33.06.163,judgeSpeechMusic_20210919_logNormShiftAmp_detection_fixFreq,2020.1.2,MacIntel,60,,,,,,,,,,,,,,,,,,,,,,,,,,,,,,2,7.4697,,0,0,56,56,33,1,stimuli/stim_20210919_power2amp/equal_lnn_AM2Hz_s35_34.m4a,,,,,,,,,,,,
,,,,,42144,2021-10-06_15h33.06.163,judgeSpeechMusic_20210919_logNormShiftAmp_detection_fixFreq,2020.1.2,MacIntel,60,,,,,,,,,,,,,,,,,,,,,,,,,,,,,,2,7.8425,,0,0,57,57,13,1,stimuli/stim_20210919_power2amp/equal_lnn_AM2Hz_s15_25.m4a,,,,,,,,,,,,
,,,,,42144,2021-10-06_15h33.06.163,judgeSpeechMusic_20210919_logNormShiftAmp_detection_fixFreq,2020.1.2,MacIntel,60,,,,,,,,,,,,,,,,,,,,,,,,,,,,,,1,8.3606,,0,0,58,58,60,1,stimuli/stim_20210919_power2amp/equal_lnn_AM2Hz_s55_9.m4a,,,,,,,,,,,,
,,,,,42144,2021-10-06_15h33.06.163,judgeSpeechMusic_20210919_logNormShiftAmp_detection_fixFreq,2020.1.2,MacIntel,60,,,,,,,,,,,,,,,,,,,,,,,,,,,,,,2,6.4268,,0,0,59,59,10,1,stimuli/stim_20210919_power2amp/equal_lnn_AM2Hz_s15_36.m4a,,,,,,,,,,,,
,,,,,42144,2021-10-06_15h33.06.163,judgeSpeechMusic_20210919_logNormShiftAmp_detection_fixFreq,2020.1.2,MacIntel,60,,,,,,,,,,,,,,,,,,,,,,,,,,,,,,2,8.0411,,0,0,60,60,40,1,stimuli/stim_20210919_power2amp/equal_lnn_AM2Hz_s35_26.m4a,,,,,,,,,,,,
,,,,,42144,2021-10-06_15h33.06.163,judgeSpeechMusic_20210919_logNormShiftAmp_detection_fixFreq,2020.1.2,MacIntel,60,,,,,,,,,,,,,,,,,,,,,,,,,,,,,,1,7.4085,,0,0,61,61,19,1,stimuli/stim_20210919_power2amp/equal_lnn_AM2Hz_s25_9.m4a,,,,,,,,,,,,
,,,,,42144,2021-10-06_15h33.06.163,judgeSpeechMusic_20210919_logNormShiftAmp_detection_fixFreq,2020.1.2,MacIntel,60,,,,,,,,,,,,,,,,,,,,,,,,,,,,,,1,6.1742,,0,0,62,62,44,1,stimuli/stim_20210919_power2amp/equal_lnn_AM2Hz_s35_28.m4a,,,,,,,,,,,,
,,,,,42144,2021-10-06_15h33.06.163,judgeSpeechMusic_20210919_logNormShiftAmp_detection_fixFreq,2020.1.2,MacIntel,60,,,,,,,,,,,,,,,,,,,,,,,,,,,,,,2,6.1061,,0,0,63,63,11,1,stimuli/stim_20210919_power2amp/equal_lnn_AM2Hz_s15_11.m4a,,,,,,,,,,,,
,,,,,42144,2021-10-06_15h33.06.163,judgeSpeechMusic_20210919_logNormShiftAmp_detection_fixFreq,2020.1.2,MacIntel,60,,,,,,,,,,,,,,,,,,,,,,,,,,,,,,2,6.7248,,0,0,64,64,41,1,stimuli/stim_20210919_power2amp/equal_lnn_AM2Hz_s35_50.m4a,,,,,,,,,,,,
,,,,,42144,2021-10-06_15h33.06.163,judgeSpeechMusic_20210919_logNormShiftAmp_detection_fixFreq,2020.1.2,MacIntel,60,,,,,,,,,,,,,,,,,,,,,,,,,,,,,,1,5.655,,0,0,65,65,57,1,stimuli/stim_20210919_power2amp/equal_lnn_AM2Hz_s45_13.m4a,,,,,,,,,,,,
,,,,,42144,2021-10-06_15h33.06.163,judgeSpeechMusic_20210919_logNormShiftAmp_detection_fixFreq,2020.1.2,MacIntel,60,,,,,,,,,,,,,,,,,,,,,,,,,,,,,,2,7.3689,,0,0,66,66,24,1,stimuli/stim_20210919_power2amp/equal_lnn_AM2Hz_s25_50.m4a,,,,,,,,,,,,
,,,,,42144,2021-10-06_15h33.06.163,judgeSpeechMusic_20210919_logNormShiftAmp_detection_fixFreq,2020.1.2,MacIntel,60,,,,,,,,,,,,,,,,,,,,,,,,,,,,,,1,6.2694,,0,0,67,67,62,1,stimuli/stim_20210919_power2amp/equal_lnn_AM2Hz_s55_4.m4a,,,,,,,,,,,,
,,,,,42144,2021-10-06_15h33.06.163,judgeSpeechMusic_20210919_logNormShiftAmp_detection_fixFreq,2020.1.2,MacIntel,60,,,,,,,,,,,,,,,,,,,,,,,,,,,,,,1,8.7745,,0,0,68,68,0,1,stimuli/stim_20210919_power2amp/equal_lnn_AM2Hz_s15_7.m4a,,,,,,,,,,,,
,,,,,42144,2021-10-06_15h33.06.163,judgeSpeechMusic_20210919_logNormShiftAmp_detection_fixFreq,2020.1.2,MacIntel,60,,,,,,,,,,,,,,,,,,,,,,,,,,,,,,2,8.7676,,0,0,69,69,15,1,stimuli/stim_20210919_power2amp/equal_lnn_AM2Hz_s25_3.m4a,,,,,,,,,,,,
,,,,,42144,2021-10-06_15h33.06.163,judgeSpeechMusic_20210919_logNormShiftAmp_detection_fixFreq,2020.1.2,MacIntel,60,,,,,,,,,,,,,,,,,,,,,,,,,,,,,,1,6.3403,,0,0,70,70,51,1,stimuli/stim_20210919_power2amp/equal_lnn_AM2Hz_s45_20.m4a,,,,,,,,,,,,
,,,,,42144,2021-10-06_15h33.06.163,judgeSpeechMusic_20210919_logNormShiftAmp_detection_fixFreq,2020.1.2,MacIntel,60,,,,,,,,,,,,,,,,,,,,,,,,,,,,,,1,6.6193,,0,0,71,71,3,1,stimuli/stim_20210919_power2amp/equal_lnn_AM2Hz_s15_10.m4a,,,,,,,,,,,,
,,,,,42144,2021-10-06_15h33.06.163,judgeSpeechMusic_20210919_logNormShiftAmp_detection_fixFreq,2020.1.2,MacIntel,60,,,,,,,,,,,,,,,,,,,,,,,,,,,,,,2,9.1741,,0,0,72,72,20,1,stimuli/stim_20210919_power2amp/equal_lnn_AM2Hz_s25_8.m4a,,,,,,,,,,,,
,,,,,42144,2021-10-06_15h33.06.163,judgeSpeechMusic_20210919_logNormShiftAmp_detection_fixFreq,2020.1.2,MacIntel,60,,,,,,,,,,,,,,,,,,,,,,,,,,,,,,1,12.1224,,0,0,73,73,23,1,stimuli/stim_20210919_power2amp/equal_lnn_AM2Hz_s25_4.m4a,,,,,,,,,,,,
,,,,,42144,2021-10-06_15h33.06.163,judgeSpeechMusic_20210919_logNormShiftAmp_detection_fixFreq,2020.1.2,MacIntel,60,,,,,,,,,,,,,,,,,,,,,,,,,,,,,,2,6.5444,,0,0,74,74,53,1,stimuli/stim_20210919_power2amp/equal_lnn_AM2Hz_s45_30.m4a,,,,,,,,,,,,
,,,,,42144,2021-10-06_15h33.06.163,judgeSpeechMusic_20210919_logNormShiftAmp_detection_fixFreq,2020.1.2,MacIntel,60,,,,,,,,,,,,,,,,,,,,,,,,,,,,,,,,,,,,,,,,,space,1.6228,1,0,2,0,1,MUSIC,stimuli/MUSIC.jpg,,
,,,,,42144,2021-10-06_15h33.06.163,judgeSpeechMusic_20210919_logNormShiftAmp_detection_fixFreq,2020.1.2,MacIntel,60,,,,,,,,,,,,,,,,,,0,0,0,0,0,1,stimuli/stim_20210919_power2amp/equal_lnn_AM_training2Hz_s20.m4a,,,,,,,,,,,,,,,,,,,,,,,,,,,
,,,,,42144,2021-10-06_15h33.06.163,judgeSpeechMusic_20210919_logNormShiftAmp_detection_fixFreq,2020.1.2,MacIntel,60,,,,,,,,,,,,,,,,,,,,,,,,,,space,1.008,space,4.0307,1,8.367,,0,0,0,0,25,1,stimuli/stim_20210919_power2amp/equal_lnn_AM2Hz_s25_21.m4a,,,,,,,,,,,,
,,,,,42144,2021-10-06_15h33.06.163,judgeSpeechMusic_20210919_logNormShiftAmp_detection_fixFreq,2020.1.2,MacIntel,60,,,,,,,,,,,,,,,,,,,,,,,,,,,,,,1,7.3661,,0,0,1,1,47,1,stimuli/stim_20210919_power2amp/equal_lnn_AM2Hz_s45_41.m4a,,,,,,,,,,,,
,,,,,42144,2021-10-06_15h33.06.163,judgeSpeechMusic_20210919_logNormShiftAmp_detection_fixFreq,2020.1.2,MacIntel,60,,,,,,,,,,,,,,,,,,,,,,,,,,,,,,1,6.5579,,0,0,2,2,70,1,stimuli/stim_20210919_power2amp/equal_lnn_AM2Hz_s55_1.m4a,,,,,,,,,,,,
,,,,,42144,2021-10-06_15h33.06.163,judgeSpeechMusic_20210919_logNormShiftAmp_detection_fixFreq,2020.1.2,MacIntel,60,,,,,,,,,,,,,,,,,,,,,,,,,,,,,,2,5.638,,0,0,3,3,67,1,stimuli/stim_20210919_power2amp/equal_lnn_AM2Hz_s55_35.m4a,,,,,,,,,,,,
,,,,,42144,2021-10-06_15h33.06.163,judgeSpeechMusic_20210919_logNormShiftAmp_detection_fixFreq,2020.1.2,MacIntel,60,,,,,,,,,,,,,,,,,,,,,,,,,,,,,,2,5.8939,,0,0,4,4,38,1,stimuli/stim_20210919_power2amp/equal_lnn_AM2Hz_s35_24.m4a,,,,,,,,,,,,
,,,,,42144,2021-10-06_15h33.06.163,judgeSpeechMusic_20210919_logNormShiftAmp_detection_fixFreq,2020.1.2,MacIntel,60,,,,,,,,,,,,,,,,,,,,,,,,,,,,,,1,7.3416,,0,0,5,5,4,1,stimuli/stim_20210919_power2amp/equal_lnn_AM2Hz_s15_46.m4a,,,,,,,,,,,,
,,,,,42144,2021-10-06_15h33.06.163,judgeSpeechMusic_20210919_logNormShiftAmp_detection_fixFreq,2020.1.2,MacIntel,60,,,,,,,,,,,,,,,,,,,,,,,,,,,,,,1,11.6198,,0,0,6,6,58,1,stimuli/stim_20210919_power2amp/equal_lnn_AM2Hz_s45_33.m4a,,,,,,,,,,,,
,,,,,42144,2021-10-06_15h33.06.163,judgeSpeechMusic_20210919_logNormShiftAmp_detection_fixFreq,2020.1.2,MacIntel,60,,,,,,,,,,,,,,,,,,,,,,,,,,,,,,2,6.7256,,0,0,7,7,22,1,stimuli/stim_20210919_power2amp/equal_lnn_AM2Hz_s25_13.m4a,,,,,,,,,,,,
,,,,,42144,2021-10-06_15h33.06.163,judgeSpeechMusic_20210919_logNormShiftAmp_detection_fixFreq,2020.1.2,MacIntel,60,,,,,,,,,,,,,,,,,,,,,,,,,,,,,,2,7.9259,,0,0,8,8,71,1,stimuli/stim_20210919_power2amp/equal_lnn_AM2Hz_s55_30.m4a,,,,,,,,,,,,
,,,,,42144,2021-10-06_15h33.06.163,judgeSpeechMusic_20210919_logNormShiftAmp_detection_fixFreq,2020.1.2,MacIntel,60,,,,,,,,,,,,,,,,,,,,,,,,,,,,,,1,8.2734,,0,0,9,9,26,1,stimuli/stim_20210919_power2amp/equal_lnn_AM2Hz_s25_28.m4a,,,,,,,,,,,,
,,,,,42144,2021-10-06_15h33.06.163,judgeSpeechMusic_20210919_logNormShiftAmp_detection_fixFreq,2020.1.2,MacIntel,60,,,,,,,,,,,,,,,,,,,,,,,,,,,,,,2,7.1443,,0,0,10,10,68,1,stimuli/stim_20210919_power2amp/equal_lnn_AM2Hz_s55_28.m4a,,,,,,,,,,,,
,,,,,42144,2021-10-06_15h33.06.163,judgeSpeechMusic_20210919_logNormShiftAmp_detection_fixFreq,2020.1.2,MacIntel,60,,,,,,,,,,,,,,,,,,,,,,,,,,,,,,1,44.157,,0,0,11,11,62,1,stimuli/stim_20210919_power2amp/equal_lnn_AM2Hz_s55_4.m4a,,,,,,,,,,,,
,,,,,42144,2021-10-06_15h33.06.163,judgeSpeechMusic_20210919_logNormShiftAmp_detection_fixFreq,2020.1.2,MacIntel,60,,,,,,,,,,,,,,,,,,,,,,,,,,,,,,2,5.9921,,0,0,12,12,11,1,stimuli/stim_20210919_power2amp/equal_lnn_AM2Hz_s15_11.m4a,,,,,,,,,,,,
,,,,,42144,2021-10-06_15h33.06.163,judgeSpeechMusic_20210919_logNormShiftAmp_detection_fixFreq,2020.1.2,MacIntel,60,,,,,,,,,,,,,,,,,,,,,,,,,,,,,,1,7.9445,,0,0,13,13,16,1,stimuli/stim_20210919_power2amp/equal_lnn_AM2Hz_s25_49.m4a,,,,,,,,,,,,
,,,,,42144,2021-10-06_15h33.06.163,judgeSpeechMusic_20210919_logNormShiftAmp_detection_fixFreq,2020.1.2,MacIntel,60,,,,,,,,,,,,,,,,,,,,,,,,,,,,,,2,7.2221,,0,0,14,14,54,1,stimuli/stim_20210919_power2amp/equal_lnn_AM2Hz_s45_15.m4a,,,,,,,,,,,,
,,,,,42144,2021-10-06_15h33.06.163,judgeSpeechMusic_20210919_logNormShiftAmp_detection_fixFreq,2020.1.2,MacIntel,60,,,,,,,,,,,,,,,,,,,,,,,,,,,,,,1,11.1751,,0,0,15,15,72,1,stimuli/stim_20210919_power2amp/equal_lnn_AM2Hz_s55_3.m4a,,,,,,,,,,,,
,,,,,42144,2021-10-06_15h33.06.163,judgeSpeechMusic_20210919_logNormShiftAmp_detection_fixFreq,2020.1.2,MacIntel,60,,,,,,,,,,,,,,,,,,,,,,,,,,,,,,2,7.9858,,0,0,16,16,17,1,stimuli/stim_20210919_power2amp/equal_lnn_AM2Hz_s25_22.m4a,,,,,,,,,,,,
,,,,,42144,2021-10-06_15h33.06.163,judgeSpeechMusic_20210919_logNormShiftAmp_detection_fixFreq,2020.1.2,MacIntel,60,,,,,,,,,,,,,,,,,,,,,,,,,,,,,,1,13.309,,0,0,17,17,73,1,stimuli/stim_20210919_power2amp/equal_lnn_AM2Hz_s55_42.m4a,,,,,,,,,,,,
,,,,,42144,2021-10-06_15h33.06.163,judgeSpeechMusic_20210919_logNormShiftAmp_detection_fixFreq,2020.1.2,MacIntel,60,,,,,,,,,,,,,,,,,,,,,,,,,,,,,,1,5.9728,3,1,0,18,18,57,1,stimuli/stim_20210919_power2amp/equal_lnn_AM2Hz_s45_13.m4a,1.2789,,,,,,,,,,,
,,,,,42144,2021-10-06_15h33.06.163,judgeSpeechMusic_20210919_logNormShiftAmp_detection_fixFreq,2020.1.2,MacIntel,60,,,,,,,,,,,,,,,,,,,,,,,,,,,,,,2,6.7849,,0,0,19,19,30,1,stimuli/stim_20210919_power2amp/equal_lnn_AM2Hz_s35_6.m4a,,,,,,,,,,,,
,,,,,42144,2021-10-06_15h33.06.163,judgeSpeechMusic_20210919_logNormShiftAmp_detection_fixFreq,2020.1.2,MacIntel,60,,,,,,,,,,,,,,,,,,,,,,,,,,,,,,2,7.4317,,0,0,20,20,28,1,stimuli/stim_20210919_power2amp/equal_lnn_AM2Hz_s25_34.m4a,,,,,,,,,,,,
,,,,,42144,2021-10-06_15h33.06.163,judgeSpeechMusic_20210919_logNormShiftAmp_detection_fixFreq,2020.1.2,MacIntel,60,,,,,,,,,,,,,,,,,,,,,,,,,,,,,,2,6.999,,0,0,21,21,14,1,stimuli/stim_20210919_power2amp/equal_lnn_AM2Hz_s15_37.m4a,,,,,,,,,,,,
,,,,,42144,2021-10-06_15h33.06.163,judgeSpeechMusic_20210919_logNormShiftAmp_detection_fixFreq,2020.1.2,MacIntel,60,,,,,,,,,,,,,,,,,,,,,,,,,,,,,,1,8.1075,,0,0,22,22,31,1,stimuli/stim_20210919_power2amp/equal_lnn_AM2Hz_s35_19.m4a,,,,,,,,,,,,
,,,,,42144,2021-10-06_15h33.06.163,judgeSpeechMusic_20210919_logNormShiftAmp_detection_fixFreq,2020.1.2,MacIntel,60,,,,,,,,,,,,,,,,,,,,,,,,,,,,,,1,8.1255,,0,0,23,23,46,1,stimuli/stim_20210919_power2amp/equal_lnn_AM2Hz_s45_34.m4a,,,,,,,,,,,,
,,,,,42144,2021-10-06_15h33.06.163,judgeSpeechMusic_20210919_logNormShiftAmp_detection_fixFreq,2020.1.2,MacIntel,60,,,,,,,,,,,,,,,,,,,,,,,,,,,,,,2,7.1406,,0,0,24,24,3,1,stimuli/stim_20210919_power2amp/equal_lnn_AM2Hz_s15_10.m4a,,,,,,,,,,,,
,,,,,42144,2021-10-06_15h33.06.163,judgeSpeechMusic_20210919_logNormShiftAmp_detection_fixFreq,2020.1.2,MacIntel,60,,,,,,,,,,,,,,,,,,,,,,,,,,,,,,2,6.2257,,0,0,25,25,69,1,stimuli/stim_20210919_power2amp/equal_lnn_AM2Hz_s55_40.m4a,,,,,,,,,,,,
,,,,,42144,2021-10-06_15h33.06.163,judgeSpeechMusic_20210919_logNormShiftAmp_detection_fixFreq,2020.1.2,MacIntel,60,,,,,,,,,,,,,,,,,,,,,,,,,,,,,,1,6.1349,,0,0,26,26,42,1,stimuli/stim_20210919_power2amp/equal_lnn_AM2Hz_s35_13.m4a,,,,,,,,,,,,
,,,,,42144,2021-10-06_15h33.06.163,judgeSpeechMusic_20210919_logNormShiftAmp_detection_fixFreq,2020.1.2,MacIntel,60,,,,,,,,,,,,,,,,,,,,,,,,,,,,,,1,7.0915,,0,0,27,27,64,1,stimuli/stim_20210919_power2amp/equal_lnn_AM2Hz_s55_34.m4a,,,,,,,,,,,,
,,,,,42144,2021-10-06_15h33.06.163,judgeSpeechMusic_20210919_logNormShiftAmp_detection_fixFreq,2020.1.2,MacIntel,60,,,,,,,,,,,,,,,,,,,,,,,,,,,,,,1,6.5921,,0,0,28,28,8,1,stimuli/stim_20210919_power2amp/equal_lnn_AM2Hz_s15_38.m4a,,,,,,,,,,,,
,,,,,42144,2021-10-06_15h33.06.163,judgeSpeechMusic_20210919_logNormShiftAmp_detection_fixFreq,2020.1.2,MacIntel,60,,,,,,,,,,,,,,,,,,,,,,,,,,,,,,2,6.4175,,0,0,29,29,34,1,stimuli/stim_20210919_power2amp/equal_lnn_AM2Hz_s35_49.m4a,,,,,,,,,,,,
,,,,,42144,2021-10-06_15h33.06.163,judgeSpeechMusic_20210919_logNormShiftAmp_detection_fixFreq,2020.1.2,MacIntel,60,,,,,,,,,,,,,,,,,,,,,,,,,,,,,,1,6.1722,,0,0,30,30,61,1,stimuli/stim_20210919_power2amp/equal_lnn_AM2Hz_s55_2.m4a,,,,,,,,,,,,
,,,,,42144,2021-10-06_15h33.06.163,judgeSpeechMusic_20210919_logNormShiftAmp_detection_fixFreq,2020.1.2,MacIntel,60,,,,,,,,,,,,,,,,,,,,,,,,,,,,,,2,8.1611,,0,0,31,31,53,1,stimuli/stim_20210919_power2amp/equal_lnn_AM2Hz_s45_30.m4a,,,,,,,,,,,,
,,,,,42144,2021-10-06_15h33.06.163,judgeSpeechMusic_20210919_logNormShiftAmp_detection_fixFreq,2020.1.2,MacIntel,60,,,,,,,,,,,,,,,,,,,,,,,,,,,,,,1,8.0667,,0,0,32,32,29,1,stimuli/stim_20210919_power2amp/equal_lnn_AM2Hz_s25_26.m4a,,,,,,,,,,,,
,,,,,42144,2021-10-06_15h33.06.163,judgeSpeechMusic_20210919_logNormShiftAmp_detection_fixFreq,2020.1.2,MacIntel,60,,,,,,,,,,,,,,,,,,,,,,,,,,,,,,1,6.3301,,0,0,33,33,66,1,stimuli/stim_20210919_power2amp/equal_lnn_AM2Hz_s55_18.m4a,,,,,,,,,,,,
,,,,,42144,2021-10-06_15h33.06.163,judgeSpeechMusic_20210919_logNormShiftAmp_detection_fixFreq,2020.1.2,MacIntel,60,,,,,,,,,,,,,,,,,,,,,,,,,,,,,,2,5.9827,,0,0,34,34,9,1,stimuli/stim_20210919_power2amp/equal_lnn_AM2Hz_s15_17.m4a,,,,,,,,,,,,
,,,,,42144,2021-10-06_15h33.06.163,judgeSpeechMusic_20210919_logNormShiftAmp_detection_fixFreq,2020.1.2,MacIntel,60,,,,,,,,,,,,,,,,,,,,,,,,,,,,,,2,7.6493,,0,0,35,35,21,1,stimuli/stim_20210919_power2amp/equal_lnn_AM2Hz_s25_36.m4a,,,,,,,,,,,,
,,,,,42144,2021-10-06_15h33.06.163,judgeSpeechMusic_20210919_logNormShiftAmp_detection_fixFreq,2020.1.2,MacIntel,60,,,,,,,,,,,,,,,,,,,,,,,,,,,,,,1,7.0918,3,1,0,36,36,37,1,stimuli/stim_20210919_power2amp/equal_lnn_AM2Hz_s35_31.m4a,2.5455,,,,,,,,,,,
,,,,,42144,2021-10-06_15h33.06.163,judgeSpeechMusic_20210919_logNormShiftAmp_detection_fixFreq,2020.1.2,MacIntel,60,,,,,,,,,,,,,,,,,,,,,,,,,,,,,,2,10.844,,0,0,37,37,7,1,stimuli/stim_20210919_power2amp/equal_lnn_AM2Hz_s15_15.m4a,,,,,,,,,,,,
,,,,,42144,2021-10-06_15h33.06.163,judgeSpeechMusic_20210919_logNormShiftAmp_detection_fixFreq,2020.1.2,MacIntel,60,,,,,,,,,,,,,,,,,,,,,,,,,,,,,,1,6.427,,0,0,38,38,45,1,stimuli/stim_20210919_power2amp/equal_lnn_AM2Hz_s45_39.m4a,,,,,,,,,,,,
,,,,,42144,2021-10-06_15h33.06.163,judgeSpeechMusic_20210919_logNormShiftAmp_detection_fixFreq,2020.1.2,MacIntel,60,,,,,,,,,,,,,,,,,,,,,,,,,,,,,,2,7.0885,,0,0,39,39,19,1,stimuli/stim_20210919_power2amp/equal_lnn_AM2Hz_s25_9.m4a,,,,,,,,,,,,
,,,,,42144,2021-10-06_15h33.06.163,judgeSpeechMusic_20210919_logNormShiftAmp_detection_fixFreq,2020.1.2,MacIntel,60,,,,,,,,,,,,,,,,,,,,,,,,,,,,,,2,6.9886,,0,0,40,40,10,1,stimuli/stim_20210919_power2amp/equal_lnn_AM2Hz_s15_36.m4a,,,,,,,,,,,,
,,,,,42144,2021-10-06_15h33.06.163,judgeSpeechMusic_20210919_logNormShiftAmp_detection_fixFreq,2020.1.2,MacIntel,60,,,,,,,,,,,,,,,,,,,,,,,,,,,,,,1,6.3624,,0,0,41,41,59,1,stimuli/stim_20210919_power2amp/equal_lnn_AM2Hz_s45_12.m4a,,,,,,,,,,,,
,,,,,42144,2021-10-06_15h33.06.163,judgeSpeechMusic_20210919_logNormShiftAmp_detection_fixFreq,2020.1.2,MacIntel,60,,,,,,,,,,,,,,,,,,,,,,,,,,,,,,2,8.2585,,0,0,42,42,36,1,stimuli/stim_20210919_power2amp/equal_lnn_AM2Hz_s35_5.m4a,,,,,,,,,,,,
,,,,,42144,2021-10-06_15h33.06.163,judgeSpeechMusic_20210919_logNormShiftAmp_detection_fixFreq,2020.1.2,MacIntel,60,,,,,,,,,,,,,,,,,,,,,,,,,,,,,,1,7.2259,,0,0,43,43,13,1,stimuli/stim_20210919_power2amp/equal_lnn_AM2Hz_s15_25.m4a,,,,,,,,,,,,
,,,,,42144,2021-10-06_15h33.06.163,judgeSpeechMusic_20210919_logNormShiftAmp_detection_fixFreq,2020.1.2,MacIntel,60,,,,,,,,,,,,,,,,,,,,,,,,,,,,,,2,7.7767,,0,0,44,44,63,1,stimuli/stim_20210919_power2amp/equal_lnn_AM2Hz_s55_39.m4a,,,,,,,,,,,,
,,,,,42144,2021-10-06_15h33.06.163,judgeSpeechMusic_20210919_logNormShiftAmp_detection_fixFreq,2020.1.2,MacIntel,60,,,,,,,,,,,,,,,,,,,,,,,,,,,,,,1,9.9508,,0,0,45,45,20,1,stimuli/stim_20210919_power2amp/equal_lnn_AM2Hz_s25_8.m4a,,,,,,,,,,,,
,,,,,42144,2021-10-06_15h33.06.163,judgeSpeechMusic_20210919_logNormShiftAmp_detection_fixFreq,2020.1.2,MacIntel,60,,,,,,,,,,,,,,,,,,,,,,,,,,,,,,1,6.9511,,0,0,46,46,56,1,stimuli/stim_20210919_power2amp/equal_lnn_AM2Hz_s45_47.m4a,,,,,,,,,,,,
,,,,,42144,2021-10-06_15h33.06.163,judgeSpeechMusic_20210919_logNormShiftAmp_detection_fixFreq,2020.1.2,MacIntel,60,,,,,,,,,,,,,,,,,,,,,,,,,,,,,,2,7.7919,,0,0,47,47,65,1,stimuli/stim_20210919_power2amp/equal_lnn_AM2Hz_s55_14.m4a,,,,,,,,,,,,
,,,,,42144,2021-10-06_15h33.06.163,judgeSpeechMusic_20210919_logNormShiftAmp_detection_fixFreq,2020.1.2,MacIntel,60,,,,,,,,,,,,,,,,,,,,,,,,,,,,,,1,6.508,,0,0,48,48,35,1,stimuli/stim_20210919_power2amp/equal_lnn_AM2Hz_s35_27.m4a,,,,,,,,,,,,
,,,,,42144,2021-10-06_15h33.06.163,judgeSpeechMusic_20210919_logNormShiftAmp_detection_fixFreq,2020.1.2,MacIntel,60,,,,,,,,,,,,,,,,,,,,,,,,,,,,,,1,7.386,,0,0,49,49,43,1,stimuli/stim_20210919_power2amp/equal_lnn_AM2Hz_s35_12.m4a,,,,,,,,,,,,
,,,,,42144,2021-10-06_15h33.06.163,judgeSpeechMusic_20210919_logNormShiftAmp_detection_fixFreq,2020.1.2,MacIntel,60,,,,,,,,,,,,,,,,,,,,,,,,,,,,,,2,7.1264,,0,0,50,50,41,1,stimuli/stim_20210919_power2amp/equal_lnn_AM2Hz_s35_50.m4a,,,,,,,,,,,,
,,,,,42144,2021-10-06_15h33.06.163,judgeSpeechMusic_20210919_logNormShiftAmp_detection_fixFreq,2020.1.2,MacIntel,60,,,,,,,,,,,,,,,,,,,,,,,,,,,,,,1,5.8437,,0,0,51,51,0,1,stimuli/stim_20210919_power2amp/equal_lnn_AM2Hz_s15_7.m4a,,,,,,,,,,,,
,,,,,42144,2021-10-06_15h33.06.163,judgeSpeechMusic_20210919_logNormShiftAmp_detection_fixFreq,2020.1.2,MacIntel,60,,,,,,,,,,,,,,,,,,,,,,,,,,,,,,2,6.9436,,0,0,52,52,60,1,stimuli/stim_20210919_power2amp/equal_lnn_AM2Hz_s55_9.m4a,,,,,,,,,,,,
,,,,,42144,2021-10-06_15h33.06.163,judgeSpeechMusic_20210919_logNormShiftAmp_detection_fixFreq,2020.1.2,MacIntel,60,,,,,,,,,,,,,,,,,,,,,,,,,,,,,,1,7.6756,,0,0,53,53,12,1,stimuli/stim_20210919_power2amp/equal_lnn_AM2Hz_s15_18.m4a,,,,,,,,,,,,
,,,,,42144,2021-10-06_15h33.06.163,judgeSpeechMusic_20210919_logNormShiftAmp_detection_fixFreq,2020.1.2,MacIntel,60,,,,,,,,,,,,,,,,,,,,,,,,,,,,,,2,7.8077,,0,0,54,54,74,1,stimuli/stim_20210919_power2amp/equal_lnn_AM2Hz_s55_22.m4a,,,,,,,,,,,,
,,,,,42144,2021-10-06_15h33.06.163,judgeSpeechMusic_20210919_logNormShiftAmp_detection_fixFreq,2020.1.2,MacIntel,60,,,,,,,,,,,,,,,,,,,,,,,,,,,,,,2,6.376,4,1,0,55,55,2,1,stimuli/stim_20210919_power2amp/equal_lnn_AM2Hz_s15_28.m4a,0.596,,,,,,,,,,,
,,,,,42144,2021-10-06_15h33.06.163,judgeSpeechMusic_20210919_logNormShiftAmp_detection_fixFreq,2020.1.2,MacIntel,60,,,,,,,,,,,,,,,,,,,,,,,,,,,,,,2,7.6399,,0,0,56,56,24,1,stimuli/stim_20210919_power2amp/equal_lnn_AM2Hz_s25_50.m4a,,,,,,,,,,,,
,,,,,42144,2021-10-06_15h33.06.163,judgeSpeechMusic_20210919_logNormShiftAmp_detection_fixFreq,2020.1.2,MacIntel,60,,,,,,,,,,,,,,,,,,,,,,,,,,,,,,1,7.5061,,0,0,57,57,27,1,stimuli/stim_20210919_power2amp/equal_lnn_AM2Hz_s25_31.m4a,,,,,,,,,,,,
,,,,,42144,2021-10-06_15h33.06.163,judgeSpeechMusic_20210919_logNormShiftAmp_detection_fixFreq,2020.1.2,MacIntel,60,,,,,,,,,,,,,,,,,,,,,,,,,,,,,,1,10.307,,0,0,58,58,23,1,stimuli/stim_20210919_power2amp/equal_lnn_AM2Hz_s25_4.m4a,,,,,,,,,,,,
,,,,,42144,2021-10-06_15h33.06.163,judgeSpeechMusic_20210919_logNormShiftAmp_detection_fixFreq,2020.1.2,MacIntel,60,,,,,,,,,,,,,,,,,,,,,,,,,,,,,,2,6.9699,,0,0,59,59,15,1,stimuli/stim_20210919_power2amp/equal_lnn_AM2Hz_s25_3.m4a,,,,,,,,,,,,
,,,,,42144,2021-10-06_15h33.06.163,judgeSpeechMusic_20210919_logNormShiftAmp_detection_fixFreq,2020.1.2,MacIntel,60,,,,,,,,,,,,,,,,,,,,,,,,,,,,,,2,6.261,,0,0,60,60,52,1,stimuli/stim_20210919_power2amp/equal_lnn_AM2Hz_s45_22.m4a,,,,,,,,,,,,
,,,,,42144,2021-10-06_15h33.06.163,judgeSpeechMusic_20210919_logNormShiftAmp_detection_fixFreq,2020.1.2,MacIntel,60,,,,,,,,,,,,,,,,,,,,,,,,,,,,,,2,10.0986,,0,0,61,61,55,1,stimuli/stim_20210919_power2amp/equal_lnn_AM2Hz_s45_9.m4a,,,,,,,,,,,,
,,,,,42144,2021-10-06_15h33.06.163,judgeSpeechMusic_20210919_logNormShiftAmp_detection_fixFreq,2020.1.2,MacIntel,60,,,,,,,,,,,,,,,,,,,,,,,,,,,,,,2,6.2701,,0,0,62,62,48,1,stimuli/stim_20210919_power2amp/equal_lnn_AM2Hz_s45_40.m4a,,,,,,,,,,,,
,,,,,42144,2021-10-06_15h33.06.163,judgeSpeechMusic_20210919_logNormShiftAmp_detection_fixFreq,2020.1.2,MacIntel,60,,,,,,,,,,,,,,,,,,,,,,,,,,,,,,1,7.9138,,0,0,63,63,18,1,stimuli/stim_20210919_power2amp/equal_lnn_AM2Hz_s25_6.m4a,,,,,,,,,,,,
,,,,,42144,2021-10-06_15h33.06.163,judgeSpeechMusic_20210919_logNormShiftAmp_detection_fixFreq,2020.1.2,MacIntel,60,,,,,,,,,,,,,,,,,,,,,,,,,,,,,,1,7.1046,,0,0,64,64,39,1,stimuli/stim_20210919_power2amp/equal_lnn_AM2Hz_s35_15.m4a,,,,,,,,,,,,
,,,,,42144,2021-10-06_15h33.06.163,judgeSpeechMusic_20210919_logNormShiftAmp_detection_fixFreq,2020.1.2,MacIntel,60,,,,,,,,,,,,,,,,,,,,,,,,,,,,,,2,8.8642,,0,0,65,65,33,1,stimuli/stim_20210919_power2amp/equal_lnn_AM2Hz_s35_34.m4a,,,,,,,,,,,,
,,,,,42144,2021-10-06_15h33.06.163,judgeSpeechMusic_20210919_logNormShiftAmp_detection_fixFreq,2020.1.2,MacIntel,60,,,,,,,,,,,,,,,,,,,,,,,,,,,,,,2,8.5198,,0,0,66,66,1,1,stimuli/stim_20210919_power2amp/equal_lnn_AM2Hz_s15_27.m4a,,,,,,,,,,,,
,,,,,42144,2021-10-06_15h33.06.163,judgeSpeechMusic_20210919_logNormShiftAmp_detection_fixFreq,2020.1.2,MacIntel,60,,,,,,,,,,,,,,,,,,,,,,,,,,,,,,1,6.6957,,0,0,67,67,40,1,stimuli/stim_20210919_power2amp/equal_lnn_AM2Hz_s35_26.m4a,,,,,,,,,,,,
,,,,,42144,2021-10-06_15h33.06.163,judgeSpeechMusic_20210919_logNormShiftAmp_detection_fixFreq,2020.1.2,MacIntel,60,,,,,,,,,,,,,,,,,,,,,,,,,,,,,,1,6.2922,,0,0,68,68,49,1,stimuli/stim_20210919_power2amp/equal_lnn_AM2Hz_s45_24.m4a,,,,,,,,,,,,
,,,,,42144,2021-10-06_15h33.06.163,judgeSpeechMusic_20210919_logNormShiftAmp_detection_fixFreq,2020.1.2,MacIntel,60,,,,,,,,,,,,,,,,,,,,,,,,,,,,,,2,6.6217,,0,0,69,69,44,1,stimuli/stim_20210919_power2amp/equal_lnn_AM2Hz_s35_28.m4a,,,,,,,,,,,,
,,,,,42144,2021-10-06_15h33.06.163,judgeSpeechMusic_20210919_logNormShiftAmp_detection_fixFreq,2020.1.2,MacIntel,60,,,,,,,,,,,,,,,,,,,,,,,,,,,,,,2,6.1293,,0,0,70,70,6,1,stimuli/stim_20210919_power2amp/equal_lnn_AM2Hz_s15_12.m4a,,,,,,,,,,,,
,,,,,42144,2021-10-06_15h33.06.163,judgeSpeechMusic_20210919_logNormShiftAmp_detection_fixFreq,2020.1.2,MacIntel,60,,,,,,,,,,,,,,,,,,,,,,,,,,,,,,1,50.0769,,0,0,71,71,5,1,stimuli/stim_20210919_power2amp/equal_lnn_AM2Hz_s15_40.m4a,,,,,,,,,,,,
,,,,,42144,2021-10-06_15h33.06.163,judgeSpeechMusic_20210919_logNormShiftAmp_detection_fixFreq,2020.1.2,MacIntel,60,,,,,,,,,,,,,,,,,,,,,,,,,,,,,,2,5.8746,,0,0,72,72,32,1,stimuli/stim_20210919_power2amp/equal_lnn_AM2Hz_s35_40.m4a,,,,,,,,,,,,
,,,,,42144,2021-10-06_15h33.06.163,judgeSpeechMusic_20210919_logNormShiftAmp_detection_fixFreq,2020.1.2,MacIntel,60,,,,,,,,,,,,,,,,,,,,,,,,,,,,,,2,5.8206,,0,0,73,73,51,1,stimuli/stim_20210919_power2amp/equal_lnn_AM2Hz_s45_20.m4a,,,,,,,,,,,,
,,,,,42144,2021-10-06_15h33.06.163,judgeSpeechMusic_20210919_logNormShiftAmp_detection_fixFreq,2020.1.2,MacIntel,60,,,,,,,,,,,,,,,,,,,,,,,,,,,,,,1,9.9104,,0,0,74,74,50,1,stimuli/stim_20210919_power2amp/equal_lnn_AM2Hz_s45_26.m4a,,,,,,,,,,,,
,,,,,42144,2021-10-06_15h33.06.163,judgeSpeechMusic_20210919_logNormShiftAmp_detection_fixFreq,2020.1.2,MacIntel,60,,,,,,,,,,,,,,,,,,,,,,,,,,,,,,,,,,,,,,,,,,,1,1,3,1,1,SPEECH,stimuli/SPEECH.jpg,,
,,,,,42144,2021-10-06_15h33.06.163,judgeSpeechMusic_20210919_logNormShiftAmp_detection_fixFreq,2020.1.2,MacIntel,60,,,,,,,,,,,,,,,,,,,,,,,,,,,,,,,,,,,,,,,,,,,,,,,,,,space,4.5812
