headphoneResponse.keys,headphoneResponse.corr,headphoneResponse.rt,headphoneTrial.thisRepN,headphoneTrial.thisTrialN,headphoneTrial.thisN,headphoneTrial.thisIndex,headphoneTrial.ran,headphone_sound1,headphone_sound2,headphone_sound3,corrAns,participant,date,expName,psychopyVersion,OS,frameRate,checkInstruKey.keys,checkInstruKey.rt,trainSlider.response,trainSlider.rt,beepTrainResponse.keys,beepTrainResponse.corr,trainingTrials.thisRepN,trainingTrials.thisTrialN,trainingTrials.thisN,trainingTrials.thisIndex,trainingTrials.ran,trainAudioFile,beepTrainResponse.rt,readyReal_resp.keys,readyReal_resp.rt,checkInstru2_key.keys,checkInstru2_key.rt,ratingSlider.response,ratingSlider.rt,beepResp.keys,beepResp.corr,expTrials.thisRepN,expTrials.thisTrialN,expTrials.thisN,expTrials.thisIndex,expTrials.ran,audioFile,beepResp.rt,switchBlock_space.keys,switchBlock_space.rt,block.thisRepN,block.thisTrialN,block.thisN,block.thisIndex,block.ran,blockName,blockImage,end_resp.keys,end_resp.rt
2,1,0.448,0,0,0,1,1,stimuli/screen_antiphase.wav,stimuli/screen_quiet.wav,stimuli/screen_origin.wav,2,42154,2021-10-10_19h13.37.427,judgeSpeechMusic_20210919_logNormShiftAmp_detection_fixFreq,2020.1.2,MacIntel,60,,,,,,,,,,,,,,,,,,,,,,,,,,,,,,,,,,,,,,,
1,1,0.2179,0,1,1,4,1,stimuli/screen_quiet.wav,stimuli/screen_antiphase.wav,stimuli/screen_origin.wav,1,42154,2021-10-10_19h13.37.427,judgeSpeechMusic_20210919_logNormShiftAmp_detection_fixFreq,2020.1.2,MacIntel,60,,,,,,,,,,,,,,,,,,,,,,,,,,,,,,,,,,,,,,,
2,1,0.4005,0,2,2,3,1,stimuli/screen_origin.wav,stimuli/screen_quiet.wav,stimuli/screen_antiphase.wav,2,42154,2021-10-10_19h13.37.427,judgeSpeechMusic_20210919_logNormShiftAmp_detection_fixFreq,2020.1.2,MacIntel,60,,,,,,,,,,,,,,,,,,,,,,,,,,,,,,,,,,,,,,,
1,1,0.3836,0,3,3,5,1,stimuli/screen_quiet.wav,stimuli/screen_origin.wav,stimuli/screen_antiphase.wav,1,42154,2021-10-10_19h13.37.427,judgeSpeechMusic_20210919_logNormShiftAmp_detection_fixFreq,2020.1.2,MacIntel,60,,,,,,,,,,,,,,,,,,,,,,,,,,,,,,,,,,,,,,,
3,1,0.4178,0,4,4,0,1,stimuli/screen_antiphase.wav,stimuli/screen_origin.wav,stimuli/screen_quiet.wav,3,42154,2021-10-10_19h13.37.427,judgeSpeechMusic_20210919_logNormShiftAmp_detection_fixFreq,2020.1.2,MacIntel,60,,,,,,,,,,,,,,,,,,,,,,,,,,,,,,,,,,,,,,,
3,1,0.6174,0,5,5,2,1,stimuli/screen_origin.wav,stimuli/screen_antiphase.wav,stimuli/screen_quiet.wav,3,42154,2021-10-10_19h13.37.427,judgeSpeechMusic_20210919_logNormShiftAmp_detection_fixFreq,2020.1.2,MacIntel,60,,,,,,,,,,,,,,,,,,,,,,,,,,,,,,,,,,,,,,,
,,,,,,,,,,,,42154,2021-10-10_19h13.37.427,judgeSpeechMusic_20210919_logNormShiftAmp_detection_fixFreq,2020.1.2,MacIntel,60,space,2.467,1,11.1985,,0,0,0,0,2,1,stimuli/stim_20210919_power2amp/equal_lnn_AM_training2Hz_s40.m4a,,,,,,,,,,,,,,,,,,,,,,,,,,,
,,,,,,,,,,,,42154,2021-10-10_19h13.37.427,judgeSpeechMusic_20210919_logNormShiftAmp_detection_fixFreq,2020.1.2,MacIntel,60,,,1,6.6424,,0,0,1,1,1,1,stimuli/stim_20210919_power2amp/equal_lnn_AM_training2Hz_s30.m4a,,,,,,,,,,,,,,,,,,,,,,,,,,,
,,,,,,,,,,,,42154,2021-10-10_19h13.37.427,judgeSpeechMusic_20210919_logNormShiftAmp_detection_fixFreq,2020.1.2,MacIntel,60,,,1,9.1115,1,1,0,2,2,3,1,stimuli/stim_20210919_power2amp/equal_lnn_AM_training2Hz_s50.m4a,1.6981,,,,,,,,,,,,,,,,,,,,,,,,,,
,,,,,,,,,,,,42154,2021-10-10_19h13.37.427,judgeSpeechMusic_20210919_logNormShiftAmp_detection_fixFreq,2020.1.2,MacIntel,60,,,2,6.7774,,0,0,3,3,0,1,stimuli/stim_20210919_power2amp/equal_lnn_AM_training2Hz_s20.m4a,,,,,,,,,,,,,,,,,,,,,,,,,,,
,,,,,,,,,,,,42154,2021-10-10_19h13.37.427,judgeSpeechMusic_20210919_logNormShiftAmp_detection_fixFreq,2020.1.2,MacIntel,60,,,,,,,,,,,,,,space,9.6943,space,0.9858,1,6.9728,,0,0,0,0,49,1,stimuli/stim_20210919_power2amp/equal_lnn_AM2Hz_s45_25.m4a,,,,,,,,,,,,
,,,,,,,,,,,,42154,2021-10-10_19h13.37.427,judgeSpeechMusic_20210919_logNormShiftAmp_detection_fixFreq,2020.1.2,MacIntel,60,,,,,,,,,,,,,,,,,,1,5.9786,,0,0,1,1,56,1,stimuli/stim_20210919_power2amp/equal_lnn_AM2Hz_s45_18.m4a,,,,,,,,,,,,
,,,,,,,,,,,,42154,2021-10-10_19h13.37.427,judgeSpeechMusic_20210919_logNormShiftAmp_detection_fixFreq,2020.1.2,MacIntel,60,,,,,,,,,,,,,,,,,,1,6.0297,,0,0,2,2,57,1,stimuli/stim_20210919_power2amp/equal_lnn_AM2Hz_s45_7.m4a,,,,,,,,,,,,
,,,,,,,,,,,,42154,2021-10-10_19h13.37.427,judgeSpeechMusic_20210919_logNormShiftAmp_detection_fixFreq,2020.1.2,MacIntel,60,,,,,,,,,,,,,,,,,,1,6.7553,,0,0,3,3,27,1,stimuli/stim_20210919_power2amp/equal_lnn_AM2Hz_s25_45.m4a,,,,,,,,,,,,
,,,,,,,,,,,,42154,2021-10-10_19h13.37.427,judgeSpeechMusic_20210919_logNormShiftAmp_detection_fixFreq,2020.1.2,MacIntel,60,,,,,,,,,,,,,,,,,,1,7.0117,,0,0,4,4,48,1,stimuli/stim_20210919_power2amp/equal_lnn_AM2Hz_s45_46.m4a,,,,,,,,,,,,
,,,,,,,,,,,,42154,2021-10-10_19h13.37.427,judgeSpeechMusic_20210919_logNormShiftAmp_detection_fixFreq,2020.1.2,MacIntel,60,,,,,,,,,,,,,,,,,,1,8.0133,,0,0,5,5,58,1,stimuli/stim_20210919_power2amp/equal_lnn_AM2Hz_s45_26.m4a,,,,,,,,,,,,
,,,,,,,,,,,,42154,2021-10-10_19h13.37.427,judgeSpeechMusic_20210919_logNormShiftAmp_detection_fixFreq,2020.1.2,MacIntel,60,,,,,,,,,,,,,,,,,,2,9.5295,,0,0,6,6,36,1,stimuli/stim_20210919_power2amp/equal_lnn_AM2Hz_s35_18.m4a,,,,,,,,,,,,
,,,,,,,,,,,,42154,2021-10-10_19h13.37.427,judgeSpeechMusic_20210919_logNormShiftAmp_detection_fixFreq,2020.1.2,MacIntel,60,,,,,,,,,,,,,,,,,,1,7.6969,,0,0,7,7,43,1,stimuli/stim_20210919_power2amp/equal_lnn_AM2Hz_s35_35.m4a,,,,,,,,,,,,
,,,,,,,,,,,,42154,2021-10-10_19h13.37.427,judgeSpeechMusic_20210919_logNormShiftAmp_detection_fixFreq,2020.1.2,MacIntel,60,,,,,,,,,,,,,,,,,,2,6.7122,,0,0,8,8,40,1,stimuli/stim_20210919_power2amp/equal_lnn_AM2Hz_s35_27.m4a,,,,,,,,,,,,
,,,,,,,,,,,,42154,2021-10-10_19h13.37.427,judgeSpeechMusic_20210919_logNormShiftAmp_detection_fixFreq,2020.1.2,MacIntel,60,,,,,,,,,,,,,,,,,,1,6.8584,,0,0,9,9,13,1,stimuli/stim_20210919_power2amp/equal_lnn_AM2Hz_s15_39.m4a,,,,,,,,,,,,
,,,,,,,,,,,,42154,2021-10-10_19h13.37.427,judgeSpeechMusic_20210919_logNormShiftAmp_detection_fixFreq,2020.1.2,MacIntel,60,,,,,,,,,,,,,,,,,,1,6.3956,,0,0,10,10,64,1,stimuli/stim_20210919_power2amp/equal_lnn_AM2Hz_s55_49.m4a,,,,,,,,,,,,
,,,,,,,,,,,,42154,2021-10-10_19h13.37.427,judgeSpeechMusic_20210919_logNormShiftAmp_detection_fixFreq,2020.1.2,MacIntel,60,,,,,,,,,,,,,,,,,,1,7.5106,,0,0,11,11,47,1,stimuli/stim_20210919_power2amp/equal_lnn_AM2Hz_s45_5.m4a,,,,,,,,,,,,
,,,,,,,,,,,,42154,2021-10-10_19h13.37.427,judgeSpeechMusic_20210919_logNormShiftAmp_detection_fixFreq,2020.1.2,MacIntel,60,,,,,,,,,,,,,,,,,,2,6.5462,,0,0,12,12,44,1,stimuli/stim_20210919_power2amp/equal_lnn_AM2Hz_s35_47.m4a,,,,,,,,,,,,
,,,,,,,,,,,,42154,2021-10-10_19h13.37.427,judgeSpeechMusic_20210919_logNormShiftAmp_detection_fixFreq,2020.1.2,MacIntel,60,,,,,,,,,,,,,,,,,,2,6.0241,,0,0,13,13,61,1,stimuli/stim_20210919_power2amp/equal_lnn_AM2Hz_s55_38.m4a,,,,,,,,,,,,
,,,,,,,,,,,,42154,2021-10-10_19h13.37.427,judgeSpeechMusic_20210919_logNormShiftAmp_detection_fixFreq,2020.1.2,MacIntel,60,,,,,,,,,,,,,,,,,,2,6.2146,,0,0,14,14,17,1,stimuli/stim_20210919_power2amp/equal_lnn_AM2Hz_s25_20.m4a,,,,,,,,,,,,
,,,,,,,,,,,,42154,2021-10-10_19h13.37.427,judgeSpeechMusic_20210919_logNormShiftAmp_detection_fixFreq,2020.1.2,MacIntel,60,,,,,,,,,,,,,,,,,,1,8.3305,,0,0,15,15,71,1,stimuli/stim_20210919_power2amp/equal_lnn_AM2Hz_s55_29.m4a,,,,,,,,,,,,
,,,,,,,,,,,,42154,2021-10-10_19h13.37.427,judgeSpeechMusic_20210919_logNormShiftAmp_detection_fixFreq,2020.1.2,MacIntel,60,,,,,,,,,,,,,,,,,,2,6.0967,,0,0,16,16,19,1,stimuli/stim_20210919_power2amp/equal_lnn_AM2Hz_s25_15.m4a,,,,,,,,,,,,
,,,,,,,,,,,,42154,2021-10-10_19h13.37.427,judgeSpeechMusic_20210919_logNormShiftAmp_detection_fixFreq,2020.1.2,MacIntel,60,,,,,,,,,,,,,,,,,,2,7.3967,,0,0,17,17,32,1,stimuli/stim_20210919_power2amp/equal_lnn_AM2Hz_s35_46.m4a,,,,,,,,,,,,
,,,,,,,,,,,,42154,2021-10-10_19h13.37.427,judgeSpeechMusic_20210919_logNormShiftAmp_detection_fixFreq,2020.1.2,MacIntel,60,,,,,,,,,,,,,,,,,,2,5.7293,,0,0,18,18,62,1,stimuli/stim_20210919_power2amp/equal_lnn_AM2Hz_s55_37.m4a,,,,,,,,,,,,
,,,,,,,,,,,,42154,2021-10-10_19h13.37.427,judgeSpeechMusic_20210919_logNormShiftAmp_detection_fixFreq,2020.1.2,MacIntel,60,,,,,,,,,,,,,,,,,,1,7.5477,,0,0,19,19,73,1,stimuli/stim_20210919_power2amp/equal_lnn_AM2Hz_s55_40.m4a,,,,,,,,,,,,
,,,,,,,,,,,,42154,2021-10-10_19h13.37.427,judgeSpeechMusic_20210919_logNormShiftAmp_detection_fixFreq,2020.1.2,MacIntel,60,,,,,,,,,,,,,,,,,,1,6.9307,,0,0,20,20,28,1,stimuli/stim_20210919_power2amp/equal_lnn_AM2Hz_s25_41.m4a,,,,,,,,,,,,
,,,,,,,,,,,,42154,2021-10-10_19h13.37.427,judgeSpeechMusic_20210919_logNormShiftAmp_detection_fixFreq,2020.1.2,MacIntel,60,,,,,,,,,,,,,,,,,,2,7.4809,4,1,0,21,21,50,1,stimuli/stim_20210919_power2amp/equal_lnn_AM2Hz_s45_37.m4a,6.4474,,,,,,,,,,,
,,,,,,,,,,,,42154,2021-10-10_19h13.37.427,judgeSpeechMusic_20210919_logNormShiftAmp_detection_fixFreq,2020.1.2,MacIntel,60,,,,,,,,,,,,,,,,,,1,8.2634,,0,0,22,22,7,1,stimuli/stim_20210919_power2amp/equal_lnn_AM2Hz_s15_31.m4a,,,,,,,,,,,,
,,,,,,,,,,,,42154,2021-10-10_19h13.37.427,judgeSpeechMusic_20210919_logNormShiftAmp_detection_fixFreq,2020.1.2,MacIntel,60,,,,,,,,,,,,,,,,,,2,10.6964,,0,0,23,23,21,1,stimuli/stim_20210919_power2amp/equal_lnn_AM2Hz_s25_48.m4a,,,,,,,,,,,,
,,,,,,,,,,,,42154,2021-10-10_19h13.37.427,judgeSpeechMusic_20210919_logNormShiftAmp_detection_fixFreq,2020.1.2,MacIntel,60,,,,,,,,,,,,,,,,,,1,8.8305,,0,0,24,24,1,1,stimuli/stim_20210919_power2amp/equal_lnn_AM2Hz_s15_13.m4a,,,,,,,,,,,,
,,,,,,,,,,,,42154,2021-10-10_19h13.37.427,judgeSpeechMusic_20210919_logNormShiftAmp_detection_fixFreq,2020.1.2,MacIntel,60,,,,,,,,,,,,,,,,,,2,6.1301,,0,0,25,25,37,1,stimuli/stim_20210919_power2amp/equal_lnn_AM2Hz_s35_34.m4a,,,,,,,,,,,,
,,,,,,,,,,,,42154,2021-10-10_19h13.37.427,judgeSpeechMusic_20210919_logNormShiftAmp_detection_fixFreq,2020.1.2,MacIntel,60,,,,,,,,,,,,,,,,,,2,7.2473,,0,0,26,26,52,1,stimuli/stim_20210919_power2amp/equal_lnn_AM2Hz_s45_14.m4a,,,,,,,,,,,,
,,,,,,,,,,,,42154,2021-10-10_19h13.37.427,judgeSpeechMusic_20210919_logNormShiftAmp_detection_fixFreq,2020.1.2,MacIntel,60,,,,,,,,,,,,,,,,,,1,7.4102,,0,0,27,27,51,1,stimuli/stim_20210919_power2amp/equal_lnn_AM2Hz_s45_1.m4a,,,,,,,,,,,,
,,,,,,,,,,,,42154,2021-10-10_19h13.37.427,judgeSpeechMusic_20210919_logNormShiftAmp_detection_fixFreq,2020.1.2,MacIntel,60,,,,,,,,,,,,,,,,,,1,7.1631,,0,0,28,28,10,1,stimuli/stim_20210919_power2amp/equal_lnn_AM2Hz_s15_42.m4a,,,,,,,,,,,,
,,,,,,,,,,,,42154,2021-10-10_19h13.37.427,judgeSpeechMusic_20210919_logNormShiftAmp_detection_fixFreq,2020.1.2,MacIntel,60,,,,,,,,,,,,,,,,,,1,6.397,,0,0,29,29,15,1,stimuli/stim_20210919_power2amp/equal_lnn_AM2Hz_s25_28.m4a,,,,,,,,,,,,
,,,,,,,,,,,,42154,2021-10-10_19h13.37.427,judgeSpeechMusic_20210919_logNormShiftAmp_detection_fixFreq,2020.1.2,MacIntel,60,,,,,,,,,,,,,,,,,,2,7.7398,,0,0,30,30,2,1,stimuli/stim_20210919_power2amp/equal_lnn_AM2Hz_s15_23.m4a,,,,,,,,,,,,
,,,,,,,,,,,,42154,2021-10-10_19h13.37.427,judgeSpeechMusic_20210919_logNormShiftAmp_detection_fixFreq,2020.1.2,MacIntel,60,,,,,,,,,,,,,,,,,,1,6.5463,,0,0,31,31,39,1,stimuli/stim_20210919_power2amp/equal_lnn_AM2Hz_s35_30.m4a,,,,,,,,,,,,
,,,,,,,,,,,,42154,2021-10-10_19h13.37.427,judgeSpeechMusic_20210919_logNormShiftAmp_detection_fixFreq,2020.1.2,MacIntel,60,,,,,,,,,,,,,,,,,,2,5.8976,,0,0,32,32,18,1,stimuli/stim_20210919_power2amp/equal_lnn_AM2Hz_s25_25.m4a,,,,,,,,,,,,
,,,,,,,,,,,,42154,2021-10-10_19h13.37.427,judgeSpeechMusic_20210919_logNormShiftAmp_detection_fixFreq,2020.1.2,MacIntel,60,,,,,,,,,,,,,,,,,,2,8.6469,,0,0,33,33,9,1,stimuli/stim_20210919_power2amp/equal_lnn_AM2Hz_s15_49.m4a,,,,,,,,,,,,
,,,,,,,,,,,,42154,2021-10-10_19h13.37.427,judgeSpeechMusic_20210919_logNormShiftAmp_detection_fixFreq,2020.1.2,MacIntel,60,,,,,,,,,,,,,,,,,,2,6.897,,0,0,34,34,42,1,stimuli/stim_20210919_power2amp/equal_lnn_AM2Hz_s35_20.m4a,,,,,,,,,,,,
,,,,,,,,,,,,42154,2021-10-10_19h13.37.427,judgeSpeechMusic_20210919_logNormShiftAmp_detection_fixFreq,2020.1.2,MacIntel,60,,,,,,,,,,,,,,,,,,2,6.0885,,0,0,35,35,35,1,stimuli/stim_20210919_power2amp/equal_lnn_AM2Hz_s35_39.m4a,,,,,,,,,,,,
,,,,,,,,,,,,42154,2021-10-10_19h13.37.427,judgeSpeechMusic_20210919_logNormShiftAmp_detection_fixFreq,2020.1.2,MacIntel,60,,,,,,,,,,,,,,,,,,1,7.1463,,0,0,36,36,65,1,stimuli/stim_20210919_power2amp/equal_lnn_AM2Hz_s55_27.m4a,,,,,,,,,,,,
,,,,,,,,,,,,42154,2021-10-10_19h13.37.427,judgeSpeechMusic_20210919_logNormShiftAmp_detection_fixFreq,2020.1.2,MacIntel,60,,,,,,,,,,,,,,,,,,2,9.4796,,0,0,37,37,22,1,stimuli/stim_20210919_power2amp/equal_lnn_AM2Hz_s25_2.m4a,,,,,,,,,,,,
,,,,,,,,,,,,42154,2021-10-10_19h13.37.427,judgeSpeechMusic_20210919_logNormShiftAmp_detection_fixFreq,2020.1.2,MacIntel,60,,,,,,,,,,,,,,,,,,2,7.9304,,0,0,38,38,55,1,stimuli/stim_20210919_power2amp/equal_lnn_AM2Hz_s45_2.m4a,,,,,,,,,,,,
,,,,,,,,,,,,42154,2021-10-10_19h13.37.427,judgeSpeechMusic_20210919_logNormShiftAmp_detection_fixFreq,2020.1.2,MacIntel,60,,,,,,,,,,,,,,,,,,2,6.78,2,1,0,39,39,0,1,stimuli/stim_20210919_power2amp/equal_lnn_AM2Hz_s15_15.m4a,0.4497,,,,,,,,,,,
,,,,,,,,,,,,42154,2021-10-10_19h13.37.427,judgeSpeechMusic_20210919_logNormShiftAmp_detection_fixFreq,2020.1.2,MacIntel,60,,,,,,,,,,,,,,,,,,2,10.1603,,0,0,40,40,70,1,stimuli/stim_20210919_power2amp/equal_lnn_AM2Hz_s55_12.m4a,,,,,,,,,,,,
,,,,,,,,,,,,42154,2021-10-10_19h13.37.427,judgeSpeechMusic_20210919_logNormShiftAmp_detection_fixFreq,2020.1.2,MacIntel,60,,,,,,,,,,,,,,,,,,2,6.2138,,0,0,41,41,41,1,stimuli/stim_20210919_power2amp/equal_lnn_AM2Hz_s35_13.m4a,,,,,,,,,,,,
,,,,,,,,,,,,42154,2021-10-10_19h13.37.427,judgeSpeechMusic_20210919_logNormShiftAmp_detection_fixFreq,2020.1.2,MacIntel,60,,,,,,,,,,,,,,,,,,2,6.8472,,0,0,42,42,23,1,stimuli/stim_20210919_power2amp/equal_lnn_AM2Hz_s25_6.m4a,,,,,,,,,,,,
,,,,,,,,,,,,42154,2021-10-10_19h13.37.427,judgeSpeechMusic_20210919_logNormShiftAmp_detection_fixFreq,2020.1.2,MacIntel,60,,,,,,,,,,,,,,,,,,2,9.9969,,0,0,43,43,45,1,stimuli/stim_20210919_power2amp/equal_lnn_AM2Hz_s45_31.m4a,,,,,,,,,,,,
,,,,,,,,,,,,42154,2021-10-10_19h13.37.427,judgeSpeechMusic_20210919_logNormShiftAmp_detection_fixFreq,2020.1.2,MacIntel,60,,,,,,,,,,,,,,,,,,2,5.6645,,0,0,44,44,60,1,stimuli/stim_20210919_power2amp/equal_lnn_AM2Hz_s55_30.m4a,,,,,,,,,,,,
,,,,,,,,,,,,42154,2021-10-10_19h13.37.427,judgeSpeechMusic_20210919_logNormShiftAmp_detection_fixFreq,2020.1.2,MacIntel,60,,,,,,,,,,,,,,,,,,2,7.2799,,0,0,45,45,20,1,stimuli/stim_20210919_power2amp/equal_lnn_AM2Hz_s25_33.m4a,,,,,,,,,,,,
,,,,,,,,,,,,42154,2021-10-10_19h13.37.427,judgeSpeechMusic_20210919_logNormShiftAmp_detection_fixFreq,2020.1.2,MacIntel,60,,,,,,,,,,,,,,,,,,2,6.2302,,0,0,46,46,6,1,stimuli/stim_20210919_power2amp/equal_lnn_AM2Hz_s15_16.m4a,,,,,,,,,,,,
,,,,,,,,,,,,42154,2021-10-10_19h13.37.427,judgeSpeechMusic_20210919_logNormShiftAmp_detection_fixFreq,2020.1.2,MacIntel,60,,,,,,,,,,,,,,,,,,2,5.6802,,0,0,47,47,12,1,stimuli/stim_20210919_power2amp/equal_lnn_AM2Hz_s15_47.m4a,,,,,,,,,,,,
,,,,,,,,,,,,42154,2021-10-10_19h13.37.427,judgeSpeechMusic_20210919_logNormShiftAmp_detection_fixFreq,2020.1.2,MacIntel,60,,,,,,,,,,,,,,,,,,1,6.3466,,0,0,48,48,14,1,stimuli/stim_20210919_power2amp/equal_lnn_AM2Hz_s15_8.m4a,,,,,,,,,,,,
,,,,,,,,,,,,42154,2021-10-10_19h13.37.427,judgeSpeechMusic_20210919_logNormShiftAmp_detection_fixFreq,2020.1.2,MacIntel,60,,,,,,,,,,,,,,,,,,1,6.0305,,0,0,49,49,66,1,stimuli/stim_20210919_power2amp/equal_lnn_AM2Hz_s55_18.m4a,,,,,,,,,,,,
,,,,,,,,,,,,42154,2021-10-10_19h13.37.427,judgeSpeechMusic_20210919_logNormShiftAmp_detection_fixFreq,2020.1.2,MacIntel,60,,,,,,,,,,,,,,,,,,1,6.7633,,0,0,50,50,72,1,stimuli/stim_20210919_power2amp/equal_lnn_AM2Hz_s55_3.m4a,,,,,,,,,,,,
,,,,,,,,,,,,42154,2021-10-10_19h13.37.427,judgeSpeechMusic_20210919_logNormShiftAmp_detection_fixFreq,2020.1.2,MacIntel,60,,,,,,,,,,,,,,,,,,2,5.9977,,0,0,51,51,31,1,stimuli/stim_20210919_power2amp/equal_lnn_AM2Hz_s35_48.m4a,,,,,,,,,,,,
,,,,,,,,,,,,42154,2021-10-10_19h13.37.427,judgeSpeechMusic_20210919_logNormShiftAmp_detection_fixFreq,2020.1.2,MacIntel,60,,,,,,,,,,,,,,,,,,2,6.0965,,0,0,52,52,25,1,stimuli/stim_20210919_power2amp/equal_lnn_AM2Hz_s25_47.m4a,,,,,,,,,,,,
,,,,,,,,,,,,42154,2021-10-10_19h13.37.427,judgeSpeechMusic_20210919_logNormShiftAmp_detection_fixFreq,2020.1.2,MacIntel,60,,,,,,,,,,,,,,,,,,1,5.9946,,0,0,53,53,38,1,stimuli/stim_20210919_power2amp/equal_lnn_AM2Hz_s35_37.m4a,,,,,,,,,,,,
,,,,,,,,,,,,42154,2021-10-10_19h13.37.427,judgeSpeechMusic_20210919_logNormShiftAmp_detection_fixFreq,2020.1.2,MacIntel,60,,,,,,,,,,,,,,,,,,1,6.4298,,0,0,54,54,3,1,stimuli/stim_20210919_power2amp/equal_lnn_AM2Hz_s15_6.m4a,,,,,,,,,,,,
,,,,,,,,,,,,42154,2021-10-10_19h13.37.427,judgeSpeechMusic_20210919_logNormShiftAmp_detection_fixFreq,2020.1.2,MacIntel,60,,,,,,,,,,,,,,,,,,2,6.1304,,0,0,55,55,16,1,stimuli/stim_20210919_power2amp/equal_lnn_AM2Hz_s25_11.m4a,,,,,,,,,,,,
,,,,,,,,,,,,42154,2021-10-10_19h13.37.427,judgeSpeechMusic_20210919_logNormShiftAmp_detection_fixFreq,2020.1.2,MacIntel,60,,,,,,,,,,,,,,,,,,2,5.9643,,0,0,56,56,30,1,stimuli/stim_20210919_power2amp/equal_lnn_AM2Hz_s35_26.m4a,,,,,,,,,,,,
,,,,,,,,,,,,42154,2021-10-10_19h13.37.427,judgeSpeechMusic_20210919_logNormShiftAmp_detection_fixFreq,2020.1.2,MacIntel,60,,,,,,,,,,,,,,,,,,1,6.5805,,0,0,57,57,67,1,stimuli/stim_20210919_power2amp/equal_lnn_AM2Hz_s55_2.m4a,,,,,,,,,,,,
,,,,,,,,,,,,42154,2021-10-10_19h13.37.427,judgeSpeechMusic_20210919_logNormShiftAmp_detection_fixFreq,2020.1.2,MacIntel,60,,,,,,,,,,,,,,,,,,2,6.0295,4,1,0,58,58,74,1,stimuli/stim_20210919_power2amp/equal_lnn_AM2Hz_s55_15.m4a,0.731,,,,,,,,,,,
,,,,,,,,,,,,42154,2021-10-10_19h13.37.427,judgeSpeechMusic_20210919_logNormShiftAmp_detection_fixFreq,2020.1.2,MacIntel,60,,,,,,,,,,,,,,,,,,1,11.0796,,0,0,59,59,46,1,stimuli/stim_20210919_power2amp/equal_lnn_AM2Hz_s45_45.m4a,,,,,,,,,,,,
,,,,,,,,,,,,42154,2021-10-10_19h13.37.427,judgeSpeechMusic_20210919_logNormShiftAmp_detection_fixFreq,2020.1.2,MacIntel,60,,,,,,,,,,,,,,,,,,1,8.8811,,0,0,60,60,11,1,stimuli/stim_20210919_power2amp/equal_lnn_AM2Hz_s15_40.m4a,,,,,,,,,,,,
,,,,,,,,,,,,42154,2021-10-10_19h13.37.427,judgeSpeechMusic_20210919_logNormShiftAmp_detection_fixFreq,2020.1.2,MacIntel,60,,,,,,,,,,,,,,,,,,1,10.9793,,0,0,61,61,33,1,stimuli/stim_20210919_power2amp/equal_lnn_AM2Hz_s35_12.m4a,,,,,,,,,,,,
,,,,,,,,,,,,42154,2021-10-10_19h13.37.427,judgeSpeechMusic_20210919_logNormShiftAmp_detection_fixFreq,2020.1.2,MacIntel,60,,,,,,,,,,,,,,,,,,2,6.6804,,0,0,62,62,54,1,stimuli/stim_20210919_power2amp/equal_lnn_AM2Hz_s45_28.m4a,,,,,,,,,,,,
,,,,,,,,,,,,42154,2021-10-10_19h13.37.427,judgeSpeechMusic_20210919_logNormShiftAmp_detection_fixFreq,2020.1.2,MacIntel,60,,,,,,,,,,,,,,,,,,2,5.8456,,0,0,63,63,8,1,stimuli/stim_20210919_power2amp/equal_lnn_AM2Hz_s15_41.m4a,,,,,,,,,,,,
,,,,,,,,,,,,42154,2021-10-10_19h13.37.427,judgeSpeechMusic_20210919_logNormShiftAmp_detection_fixFreq,2020.1.2,MacIntel,60,,,,,,,,,,,,,,,,,,2,8.2971,,0,0,64,64,24,1,stimuli/stim_20210919_power2amp/equal_lnn_AM2Hz_s25_43.m4a,,,,,,,,,,,,
,,,,,,,,,,,,42154,2021-10-10_19h13.37.427,judgeSpeechMusic_20210919_logNormShiftAmp_detection_fixFreq,2020.1.2,MacIntel,60,,,,,,,,,,,,,,,,,,1,18.4471,,0,0,65,65,34,1,stimuli/stim_20210919_power2amp/equal_lnn_AM2Hz_s35_49.m4a,,,,,,,,,,,,
,,,,,,,,,,,,42154,2021-10-10_19h13.37.427,judgeSpeechMusic_20210919_logNormShiftAmp_detection_fixFreq,2020.1.2,MacIntel,60,,,,,,,,,,,,,,,,,,1,42.9802,,0,0,66,66,68,1,stimuli/stim_20210919_power2amp/equal_lnn_AM2Hz_s55_13.m4a,,,,,,,,,,,,
,,,,,,,,,,,,42154,2021-10-10_19h13.37.427,judgeSpeechMusic_20210919_logNormShiftAmp_detection_fixFreq,2020.1.2,MacIntel,60,,,,,,,,,,,,,,,,,,1,7.1135,,0,0,67,67,69,1,stimuli/stim_20210919_power2amp/equal_lnn_AM2Hz_s55_46.m4a,,,,,,,,,,,,
,,,,,,,,,,,,42154,2021-10-10_19h13.37.427,judgeSpeechMusic_20210919_logNormShiftAmp_detection_fixFreq,2020.1.2,MacIntel,60,,,,,,,,,,,,,,,,,,1,6.4586,,0,0,68,68,53,1,stimuli/stim_20210919_power2amp/equal_lnn_AM2Hz_s45_35.m4a,,,,,,,,,,,,
,,,,,,,,,,,,42154,2021-10-10_19h13.37.427,judgeSpeechMusic_20210919_logNormShiftAmp_detection_fixFreq,2020.1.2,MacIntel,60,,,,,,,,,,,,,,,,,,2,5.73,,0,0,69,69,29,1,stimuli/stim_20210919_power2amp/equal_lnn_AM2Hz_s25_18.m4a,,,,,,,,,,,,
,,,,,,,,,,,,42154,2021-10-10_19h13.37.427,judgeSpeechMusic_20210919_logNormShiftAmp_detection_fixFreq,2020.1.2,MacIntel,60,,,,,,,,,,,,,,,,,,2,5.7468,,0,0,70,70,5,1,stimuli/stim_20210919_power2amp/equal_lnn_AM2Hz_s15_2.m4a,,,,,,,,,,,,
,,,,,,,,,,,,42154,2021-10-10_19h13.37.427,judgeSpeechMusic_20210919_logNormShiftAmp_detection_fixFreq,2020.1.2,MacIntel,60,,,,,,,,,,,,,,,,,,2,5.7634,,0,0,71,71,26,1,stimuli/stim_20210919_power2amp/equal_lnn_AM2Hz_s25_21.m4a,,,,,,,,,,,,
,,,,,,,,,,,,42154,2021-10-10_19h13.37.427,judgeSpeechMusic_20210919_logNormShiftAmp_detection_fixFreq,2020.1.2,MacIntel,60,,,,,,,,,,,,,,,,,,2,5.7643,,0,0,72,72,59,1,stimuli/stim_20210919_power2amp/equal_lnn_AM2Hz_s45_41.m4a,,,,,,,,,,,,
,,,,,,,,,,,,42154,2021-10-10_19h13.37.427,judgeSpeechMusic_20210919_logNormShiftAmp_detection_fixFreq,2020.1.2,MacIntel,60,,,,,,,,,,,,,,,,,,2,5.8634,,0,0,73,73,63,1,stimuli/stim_20210919_power2amp/equal_lnn_AM2Hz_s55_10.m4a,,,,,,,,,,,,
,,,,,,,,,,,,42154,2021-10-10_19h13.37.427,judgeSpeechMusic_20210919_logNormShiftAmp_detection_fixFreq,2020.1.2,MacIntel,60,,,,,,,,,,,,,,,,,,1,6.5811,,0,0,74,74,4,1,stimuli/stim_20210919_power2amp/equal_lnn_AM2Hz_s15_44.m4a,,,,,,,,,,,,
,,,,,,,,,,,,42154,2021-10-10_19h13.37.427,judgeSpeechMusic_20210919_logNormShiftAmp_detection_fixFreq,2020.1.2,MacIntel,60,,,,,,,,,,,,,,,,,,,,,,,,,,,,,space,1.1484,0,0,0,0,1,MUSIC,stimuli/MUSIC.jpg,,
,,,,,,,,,,,,42154,2021-10-10_19h13.37.427,judgeSpeechMusic_20210919_logNormShiftAmp_detection_fixFreq,2020.1.2,MacIntel,60,space,0.85,2,10.4639,,0,0,0,0,0,1,stimuli/stim_20210919_power2amp/equal_lnn_AM_training2Hz_s20.m4a,,,,,,,,,,,,,,,,,,,,,,,,,,,
,,,,,,,,,,,,42154,2021-10-10_19h13.37.427,judgeSpeechMusic_20210919_logNormShiftAmp_detection_fixFreq,2020.1.2,MacIntel,60,,,2,5.8266,,0,0,1,1,1,1,stimuli/stim_20210919_power2amp/equal_lnn_AM_training2Hz_s30.m4a,,,,,,,,,,,,,,,,,,,,,,,,,,,
,,,,,,,,,,,,42154,2021-10-10_19h13.37.427,judgeSpeechMusic_20210919_logNormShiftAmp_detection_fixFreq,2020.1.2,MacIntel,60,,,1,6.5772,4,1,0,2,2,2,1,stimuli/stim_20210919_power2amp/equal_lnn_AM_training2Hz_s40.m4a,2.2001,,,,,,,,,,,,,,,,,,,,,,,,,,
,,,,,,,,,,,,42154,2021-10-10_19h13.37.427,judgeSpeechMusic_20210919_logNormShiftAmp_detection_fixFreq,2020.1.2,MacIntel,60,,,2,6.761,,0,0,3,3,3,1,stimuli/stim_20210919_power2amp/equal_lnn_AM_training2Hz_s50.m4a,,,,,,,,,,,,,,,,,,,,,,,,,,,
,,,,,,,,,,,,42154,2021-10-10_19h13.37.427,judgeSpeechMusic_20210919_logNormShiftAmp_detection_fixFreq,2020.1.2,MacIntel,60,,,,,,,,,,,,,,space,2.4504,space,0.6325,2,6.2901,,0,0,0,0,34,1,stimuli/stim_20210919_power2amp/equal_lnn_AM2Hz_s35_49.m4a,,,,,,,,,,,,
,,,,,,,,,,,,42154,2021-10-10_19h13.37.427,judgeSpeechMusic_20210919_logNormShiftAmp_detection_fixFreq,2020.1.2,MacIntel,60,,,,,,,,,,,,,,,,,,1,8.0811,,0,0,1,1,65,1,stimuli/stim_20210919_power2amp/equal_lnn_AM2Hz_s55_27.m4a,,,,,,,,,,,,
,,,,,,,,,,,,42154,2021-10-10_19h13.37.427,judgeSpeechMusic_20210919_logNormShiftAmp_detection_fixFreq,2020.1.2,MacIntel,60,,,,,,,,,,,,,,,,,,1,9.7072,,0,0,2,2,14,1,stimuli/stim_20210919_power2amp/equal_lnn_AM2Hz_s15_8.m4a,,,,,,,,,,,,
,,,,,,,,,,,,42154,2021-10-10_19h13.37.427,judgeSpeechMusic_20210919_logNormShiftAmp_detection_fixFreq,2020.1.2,MacIntel,60,,,,,,,,,,,,,,,,,,2,6.0464,,0,0,3,3,22,1,stimuli/stim_20210919_power2amp/equal_lnn_AM2Hz_s25_2.m4a,,,,,,,,,,,,
,,,,,,,,,,,,42154,2021-10-10_19h13.37.427,judgeSpeechMusic_20210919_logNormShiftAmp_detection_fixFreq,2020.1.2,MacIntel,60,,,,,,,,,,,,,,,,,,2,6.0142,,0,0,4,4,40,1,stimuli/stim_20210919_power2amp/equal_lnn_AM2Hz_s35_27.m4a,,,,,,,,,,,,
,,,,,,,,,,,,42154,2021-10-10_19h13.37.427,judgeSpeechMusic_20210919_logNormShiftAmp_detection_fixFreq,2020.1.2,MacIntel,60,,,,,,,,,,,,,,,,,,2,5.8293,,0,0,5,5,17,1,stimuli/stim_20210919_power2amp/equal_lnn_AM2Hz_s25_20.m4a,,,,,,,,,,,,
,,,,,,,,,,,,42154,2021-10-10_19h13.37.427,judgeSpeechMusic_20210919_logNormShiftAmp_detection_fixFreq,2020.1.2,MacIntel,60,,,,,,,,,,,,,,,,,,1,5.8972,,0,0,6,6,12,1,stimuli/stim_20210919_power2amp/equal_lnn_AM2Hz_s15_47.m4a,,,,,,,,,,,,
,,,,,,,,,,,,42154,2021-10-10_19h13.37.427,judgeSpeechMusic_20210919_logNormShiftAmp_detection_fixFreq,2020.1.2,MacIntel,60,,,,,,,,,,,,,,,,,,2,5.9471,,0,0,7,7,28,1,stimuli/stim_20210919_power2amp/equal_lnn_AM2Hz_s25_41.m4a,,,,,,,,,,,,
,,,,,,,,,,,,42154,2021-10-10_19h13.37.427,judgeSpeechMusic_20210919_logNormShiftAmp_detection_fixFreq,2020.1.2,MacIntel,60,,,,,,,,,,,,,,,,,,2,344.2329,,0,0,8,8,45,1,stimuli/stim_20210919_power2amp/equal_lnn_AM2Hz_s45_31.m4a,,,,,,,,,,,,
,,,,,,,,,,,,42154,2021-10-10_19h13.37.427,judgeSpeechMusic_20210919_logNormShiftAmp_detection_fixFreq,2020.1.2,MacIntel,60,,,,,,,,,,,,,,,,,,2,9.4255,,0,0,9,9,49,1,stimuli/stim_20210919_power2amp/equal_lnn_AM2Hz_s45_25.m4a,,,,,,,,,,,,
,,,,,,,,,,,,42154,2021-10-10_19h13.37.427,judgeSpeechMusic_20210919_logNormShiftAmp_detection_fixFreq,2020.1.2,MacIntel,60,,,,,,,,,,,,,,,,,,2,41.2793,,0,0,10,10,11,1,stimuli/stim_20210919_power2amp/equal_lnn_AM2Hz_s15_40.m4a,,,,,,,,,,,,
,,,,,,,,,,,,42154,2021-10-10_19h13.37.427,judgeSpeechMusic_20210919_logNormShiftAmp_detection_fixFreq,2020.1.2,MacIntel,60,,,,,,,,,,,,,,,,,,1,17.0806,,0,0,11,11,58,1,stimuli/stim_20210919_power2amp/equal_lnn_AM2Hz_s45_26.m4a,,,,,,,,,,,,
,,,,,,,,,,,,42154,2021-10-10_19h13.37.427,judgeSpeechMusic_20210919_logNormShiftAmp_detection_fixFreq,2020.1.2,MacIntel,60,,,,,,,,,,,,,,,,,,2,8.9972,,0,0,12,12,68,1,stimuli/stim_20210919_power2amp/equal_lnn_AM2Hz_s55_13.m4a,,,,,,,,,,,,
,,,,,,,,,,,,42154,2021-10-10_19h13.37.427,judgeSpeechMusic_20210919_logNormShiftAmp_detection_fixFreq,2020.1.2,MacIntel,60,,,,,,,,,,,,,,,,,,1,7.4291,,0,0,13,13,52,1,stimuli/stim_20210919_power2amp/equal_lnn_AM2Hz_s45_14.m4a,,,,,,,,,,,,
,,,,,,,,,,,,42154,2021-10-10_19h13.37.427,judgeSpeechMusic_20210919_logNormShiftAmp_detection_fixFreq,2020.1.2,MacIntel,60,,,,,,,,,,,,,,,,,,2,6.7137,,0,0,14,14,46,1,stimuli/stim_20210919_power2amp/equal_lnn_AM2Hz_s45_45.m4a,,,,,,,,,,,,
,,,,,,,,,,,,42154,2021-10-10_19h13.37.427,judgeSpeechMusic_20210919_logNormShiftAmp_detection_fixFreq,2020.1.2,MacIntel,60,,,,,,,,,,,,,,,,,,2,5.8818,,0,0,15,15,26,1,stimuli/stim_20210919_power2amp/equal_lnn_AM2Hz_s25_21.m4a,,,,,,,,,,,,
,,,,,,,,,,,,42154,2021-10-10_19h13.37.427,judgeSpeechMusic_20210919_logNormShiftAmp_detection_fixFreq,2020.1.2,MacIntel,60,,,,,,,,,,,,,,,,,,1,5.8458,,0,0,16,16,7,1,stimuli/stim_20210919_power2amp/equal_lnn_AM2Hz_s15_31.m4a,,,,,,,,,,,,
,,,,,,,,,,,,42154,2021-10-10_19h13.37.427,judgeSpeechMusic_20210919_logNormShiftAmp_detection_fixFreq,2020.1.2,MacIntel,60,,,,,,,,,,,,,,,,,,1,5.9144,,0,0,17,17,51,1,stimuli/stim_20210919_power2amp/equal_lnn_AM2Hz_s45_1.m4a,,,,,,,,,,,,
,,,,,,,,,,,,42154,2021-10-10_19h13.37.427,judgeSpeechMusic_20210919_logNormShiftAmp_detection_fixFreq,2020.1.2,MacIntel,60,,,,,,,,,,,,,,,,,,2,5.7964,,0,0,18,18,35,1,stimuli/stim_20210919_power2amp/equal_lnn_AM2Hz_s35_39.m4a,,,,,,,,,,,,
,,,,,,,,,,,,42154,2021-10-10_19h13.37.427,judgeSpeechMusic_20210919_logNormShiftAmp_detection_fixFreq,2020.1.2,MacIntel,60,,,,,,,,,,,,,,,,,,2,6.9637,,0,0,19,19,31,1,stimuli/stim_20210919_power2amp/equal_lnn_AM2Hz_s35_48.m4a,,,,,,,,,,,,
,,,,,,,,,,,,42154,2021-10-10_19h13.37.427,judgeSpeechMusic_20210919_logNormShiftAmp_detection_fixFreq,2020.1.2,MacIntel,60,,,,,,,,,,,,,,,,,,1,6.281,,0,0,20,20,5,1,stimuli/stim_20210919_power2amp/equal_lnn_AM2Hz_s15_2.m4a,,,,,,,,,,,,
,,,,,,,,,,,,42154,2021-10-10_19h13.37.427,judgeSpeechMusic_20210919_logNormShiftAmp_detection_fixFreq,2020.1.2,MacIntel,60,,,,,,,,,,,,,,,,,,2,5.8973,1,1,0,21,21,48,1,stimuli/stim_20210919_power2amp/equal_lnn_AM2Hz_s45_46.m4a,1.0773,,,,,,,,,,,
,,,,,,,,,,,,42154,2021-10-10_19h13.37.427,judgeSpeechMusic_20210919_logNormShiftAmp_detection_fixFreq,2020.1.2,MacIntel,60,,,,,,,,,,,,,,,,,,1,7.9442,,0,0,22,22,62,1,stimuli/stim_20210919_power2amp/equal_lnn_AM2Hz_s55_37.m4a,,,,,,,,,,,,
,,,,,,,,,,,,42154,2021-10-10_19h13.37.427,judgeSpeechMusic_20210919_logNormShiftAmp_detection_fixFreq,2020.1.2,MacIntel,60,,,,,,,,,,,,,,,,,,1,8.1805,,0,0,23,23,50,1,stimuli/stim_20210919_power2amp/equal_lnn_AM2Hz_s45_37.m4a,,,,,,,,,,,,
,,,,,,,,,,,,42154,2021-10-10_19h13.37.427,judgeSpeechMusic_20210919_logNormShiftAmp_detection_fixFreq,2020.1.2,MacIntel,60,,,,,,,,,,,,,,,,,,2,5.7304,,0,0,24,24,53,1,stimuli/stim_20210919_power2amp/equal_lnn_AM2Hz_s45_35.m4a,,,,,,,,,,,,
,,,,,,,,,,,,42154,2021-10-10_19h13.37.427,judgeSpeechMusic_20210919_logNormShiftAmp_detection_fixFreq,2020.1.2,MacIntel,60,,,,,,,,,,,,,,,,,,2,10.0638,,0,0,25,25,44,1,stimuli/stim_20210919_power2amp/equal_lnn_AM2Hz_s35_47.m4a,,,,,,,,,,,,
,,,,,,,,,,,,42154,2021-10-10_19h13.37.427,judgeSpeechMusic_20210919_logNormShiftAmp_detection_fixFreq,2020.1.2,MacIntel,60,,,,,,,,,,,,,,,,,,2,7.5248,,0,0,26,26,16,1,stimuli/stim_20210919_power2amp/equal_lnn_AM2Hz_s25_11.m4a,,,,,,,,,,,,
,,,,,,,,,,,,42154,2021-10-10_19h13.37.427,judgeSpeechMusic_20210919_logNormShiftAmp_detection_fixFreq,2020.1.2,MacIntel,60,,,,,,,,,,,,,,,,,,2,5.6742,,0,0,27,27,71,1,stimuli/stim_20210919_power2amp/equal_lnn_AM2Hz_s55_29.m4a,,,,,,,,,,,,
,,,,,,,,,,,,42154,2021-10-10_19h13.37.427,judgeSpeechMusic_20210919_logNormShiftAmp_detection_fixFreq,2020.1.2,MacIntel,60,,,,,,,,,,,,,,,,,,2,8.8286,,0,0,28,28,57,1,stimuli/stim_20210919_power2amp/equal_lnn_AM2Hz_s45_7.m4a,,,,,,,,,,,,
,,,,,,,,,,,,42154,2021-10-10_19h13.37.427,judgeSpeechMusic_20210919_logNormShiftAmp_detection_fixFreq,2020.1.2,MacIntel,60,,,,,,,,,,,,,,,,,,1,7.292,,0,0,29,29,2,1,stimuli/stim_20210919_power2amp/equal_lnn_AM2Hz_s15_23.m4a,,,,,,,,,,,,
,,,,,,,,,,,,42154,2021-10-10_19h13.37.427,judgeSpeechMusic_20210919_logNormShiftAmp_detection_fixFreq,2020.1.2,MacIntel,60,,,,,,,,,,,,,,,,,,1,6.8792,,0,0,30,30,74,1,stimuli/stim_20210919_power2amp/equal_lnn_AM2Hz_s55_15.m4a,,,,,,,,,,,,
,,,,,,,,,,,,42154,2021-10-10_19h13.37.427,judgeSpeechMusic_20210919_logNormShiftAmp_detection_fixFreq,2020.1.2,MacIntel,60,,,,,,,,,,,,,,,,,,2,9.076,,0,0,31,31,6,1,stimuli/stim_20210919_power2amp/equal_lnn_AM2Hz_s15_16.m4a,,,,,,,,,,,,
,,,,,,,,,,,,42154,2021-10-10_19h13.37.427,judgeSpeechMusic_20210919_logNormShiftAmp_detection_fixFreq,2020.1.2,MacIntel,60,,,,,,,,,,,,,,,,,,1,6.9963,,0,0,32,32,25,1,stimuli/stim_20210919_power2amp/equal_lnn_AM2Hz_s25_47.m4a,,,,,,,,,,,,
,,,,,,,,,,,,42154,2021-10-10_19h13.37.427,judgeSpeechMusic_20210919_logNormShiftAmp_detection_fixFreq,2020.1.2,MacIntel,60,,,,,,,,,,,,,,,,,,2,5.8139,,0,0,33,33,59,1,stimuli/stim_20210919_power2amp/equal_lnn_AM2Hz_s45_41.m4a,,,,,,,,,,,,
,,,,,,,,,,,,42154,2021-10-10_19h13.37.427,judgeSpeechMusic_20210919_logNormShiftAmp_detection_fixFreq,2020.1.2,MacIntel,60,,,,,,,,,,,,,,,,,,1,7.9641,,0,0,34,34,37,1,stimuli/stim_20210919_power2amp/equal_lnn_AM2Hz_s35_34.m4a,,,,,,,,,,,,
,,,,,,,,,,,,42154,2021-10-10_19h13.37.427,judgeSpeechMusic_20210919_logNormShiftAmp_detection_fixFreq,2020.1.2,MacIntel,60,,,,,,,,,,,,,,,,,,1,8.1647,,0,0,35,35,4,1,stimuli/stim_20210919_power2amp/equal_lnn_AM2Hz_s15_44.m4a,,,,,,,,,,,,
,,,,,,,,,,,,42154,2021-10-10_19h13.37.427,judgeSpeechMusic_20210919_logNormShiftAmp_detection_fixFreq,2020.1.2,MacIntel,60,,,,,,,,,,,,,,,,,,1,7.0963,,0,0,36,36,47,1,stimuli/stim_20210919_power2amp/equal_lnn_AM2Hz_s45_5.m4a,,,,,,,,,,,,
,,,,,,,,,,,,42154,2021-10-10_19h13.37.427,judgeSpeechMusic_20210919_logNormShiftAmp_detection_fixFreq,2020.1.2,MacIntel,60,,,,,,,,,,,,,,,,,,2,6.3073,,0,0,37,37,24,1,stimuli/stim_20210919_power2amp/equal_lnn_AM2Hz_s25_43.m4a,,,,,,,,,,,,
,,,,,,,,,,,,42154,2021-10-10_19h13.37.427,judgeSpeechMusic_20210919_logNormShiftAmp_detection_fixFreq,2020.1.2,MacIntel,60,,,,,,,,,,,,,,,,,,2,5.9789,,0,0,38,38,19,1,stimuli/stim_20210919_power2amp/equal_lnn_AM2Hz_s25_15.m4a,,,,,,,,,,,,
,,,,,,,,,,,,42154,2021-10-10_19h13.37.427,judgeSpeechMusic_20210919_logNormShiftAmp_detection_fixFreq,2020.1.2,MacIntel,60,,,,,,,,,,,,,,,,,,2,7.6311,3,1,0,39,39,9,1,stimuli/stim_20210919_power2amp/equal_lnn_AM2Hz_s15_49.m4a,0.9642,,,,,,,,,,,
,,,,,,,,,,,,42154,2021-10-10_19h13.37.427,judgeSpeechMusic_20210919_logNormShiftAmp_detection_fixFreq,2020.1.2,MacIntel,60,,,,,,,,,,,,,,,,,,1,7.1632,,0,0,40,40,3,1,stimuli/stim_20210919_power2amp/equal_lnn_AM2Hz_s15_6.m4a,,,,,,,,,,,,
,,,,,,,,,,,,42154,2021-10-10_19h13.37.427,judgeSpeechMusic_20210919_logNormShiftAmp_detection_fixFreq,2020.1.2,MacIntel,60,,,,,,,,,,,,,,,,,,1,5.7815,,0,0,41,41,61,1,stimuli/stim_20210919_power2amp/equal_lnn_AM2Hz_s55_38.m4a,,,,,,,,,,,,
,,,,,,,,,,,,42154,2021-10-10_19h13.37.427,judgeSpeechMusic_20210919_logNormShiftAmp_detection_fixFreq,2020.1.2,MacIntel,60,,,,,,,,,,,,,,,,,,2,6.4738,,0,0,42,42,42,1,stimuli/stim_20210919_power2amp/equal_lnn_AM2Hz_s35_20.m4a,,,,,,,,,,,,
,,,,,,,,,,,,42154,2021-10-10_19h13.37.427,judgeSpeechMusic_20210919_logNormShiftAmp_detection_fixFreq,2020.1.2,MacIntel,60,,,,,,,,,,,,,,,,,,1,6.779,,0,0,43,43,64,1,stimuli/stim_20210919_power2amp/equal_lnn_AM2Hz_s55_49.m4a,,,,,,,,,,,,
,,,,,,,,,,,,42154,2021-10-10_19h13.37.427,judgeSpeechMusic_20210919_logNormShiftAmp_detection_fixFreq,2020.1.2,MacIntel,60,,,,,,,,,,,,,,,,,,1,6.2975,,0,0,44,44,32,1,stimuli/stim_20210919_power2amp/equal_lnn_AM2Hz_s35_46.m4a,,,,,,,,,,,,
,,,,,,,,,,,,42154,2021-10-10_19h13.37.427,judgeSpeechMusic_20210919_logNormShiftAmp_detection_fixFreq,2020.1.2,MacIntel,60,,,,,,,,,,,,,,,,,,1,8.8305,,0,0,45,45,15,1,stimuli/stim_20210919_power2amp/equal_lnn_AM2Hz_s25_28.m4a,,,,,,,,,,,,
,,,,,,,,,,,,42154,2021-10-10_19h13.37.427,judgeSpeechMusic_20210919_logNormShiftAmp_detection_fixFreq,2020.1.2,MacIntel,60,,,,,,,,,,,,,,,,,,2,6.2221,,0,0,46,46,18,1,stimuli/stim_20210919_power2amp/equal_lnn_AM2Hz_s25_25.m4a,,,,,,,,,,,,
,,,,,,,,,,,,42154,2021-10-10_19h13.37.427,judgeSpeechMusic_20210919_logNormShiftAmp_detection_fixFreq,2020.1.2,MacIntel,60,,,,,,,,,,,,,,,,,,1,10.2915,,0,0,47,47,60,1,stimuli/stim_20210919_power2amp/equal_lnn_AM2Hz_s55_30.m4a,,,,,,,,,,,,
,,,,,,,,,,,,42154,2021-10-10_19h13.37.427,judgeSpeechMusic_20210919_logNormShiftAmp_detection_fixFreq,2020.1.2,MacIntel,60,,,,,,,,,,,,,,,,,,2,5.7306,,0,0,48,48,72,1,stimuli/stim_20210919_power2amp/equal_lnn_AM2Hz_s55_3.m4a,,,,,,,,,,,,
,,,,,,,,,,,,42154,2021-10-10_19h13.37.427,judgeSpeechMusic_20210919_logNormShiftAmp_detection_fixFreq,2020.1.2,MacIntel,60,,,,,,,,,,,,,,,,,,2,6.2236,,0,0,49,49,38,1,stimuli/stim_20210919_power2amp/equal_lnn_AM2Hz_s35_37.m4a,,,,,,,,,,,,
,,,,,,,,,,,,42154,2021-10-10_19h13.37.427,judgeSpeechMusic_20210919_logNormShiftAmp_detection_fixFreq,2020.1.2,MacIntel,60,,,,,,,,,,,,,,,,,,2,6.8462,,0,0,50,50,1,1,stimuli/stim_20210919_power2amp/equal_lnn_AM2Hz_s15_13.m4a,,,,,,,,,,,,
,,,,,,,,,,,,42154,2021-10-10_19h13.37.427,judgeSpeechMusic_20210919_logNormShiftAmp_detection_fixFreq,2020.1.2,MacIntel,60,,,,,,,,,,,,,,,,,,1,5.8137,,0,0,51,51,23,1,stimuli/stim_20210919_power2amp/equal_lnn_AM2Hz_s25_6.m4a,,,,,,,,,,,,
,,,,,,,,,,,,42154,2021-10-10_19h13.37.427,judgeSpeechMusic_20210919_logNormShiftAmp_detection_fixFreq,2020.1.2,MacIntel,60,,,,,,,,,,,,,,,,,,2,6.4145,,0,0,52,52,43,1,stimuli/stim_20210919_power2amp/equal_lnn_AM2Hz_s35_35.m4a,,,,,,,,,,,,
,,,,,,,,,,,,42154,2021-10-10_19h13.37.427,judgeSpeechMusic_20210919_logNormShiftAmp_detection_fixFreq,2020.1.2,MacIntel,60,,,,,,,,,,,,,,,,,,1,6.4134,,0,0,53,53,54,1,stimuli/stim_20210919_power2amp/equal_lnn_AM2Hz_s45_28.m4a,,,,,,,,,,,,
,,,,,,,,,,,,42154,2021-10-10_19h13.37.427,judgeSpeechMusic_20210919_logNormShiftAmp_detection_fixFreq,2020.1.2,MacIntel,60,,,,,,,,,,,,,,,,,,2,5.9637,,0,0,54,54,27,1,stimuli/stim_20210919_power2amp/equal_lnn_AM2Hz_s25_45.m4a,,,,,,,,,,,,
,,,,,,,,,,,,42154,2021-10-10_19h13.37.427,judgeSpeechMusic_20210919_logNormShiftAmp_detection_fixFreq,2020.1.2,MacIntel,60,,,,,,,,,,,,,,,,,,2,6.2303,,0,0,55,55,67,1,stimuli/stim_20210919_power2amp/equal_lnn_AM2Hz_s55_2.m4a,,,,,,,,,,,,
,,,,,,,,,,,,42154,2021-10-10_19h13.37.427,judgeSpeechMusic_20210919_logNormShiftAmp_detection_fixFreq,2020.1.2,MacIntel,60,,,,,,,,,,,,,,,,,,1,6.2145,,0,0,56,56,69,1,stimuli/stim_20210919_power2amp/equal_lnn_AM2Hz_s55_46.m4a,,,,,,,,,,,,
,,,,,,,,,,,,42154,2021-10-10_19h13.37.427,judgeSpeechMusic_20210919_logNormShiftAmp_detection_fixFreq,2020.1.2,MacIntel,60,,,,,,,,,,,,,,,,,,2,6.3128,,0,0,57,57,70,1,stimuli/stim_20210919_power2amp/equal_lnn_AM2Hz_s55_12.m4a,,,,,,,,,,,,
,,,,,,,,,,,,42154,2021-10-10_19h13.37.427,judgeSpeechMusic_20210919_logNormShiftAmp_detection_fixFreq,2020.1.2,MacIntel,60,,,,,,,,,,,,,,,,,,1,6.2135,1,1,0,58,58,41,1,stimuli/stim_20210919_power2amp/equal_lnn_AM2Hz_s35_13.m4a,1.0977,,,,,,,,,,,
,,,,,,,,,,,,42154,2021-10-10_19h13.37.427,judgeSpeechMusic_20210919_logNormShiftAmp_detection_fixFreq,2020.1.2,MacIntel,60,,,,,,,,,,,,,,,,,,1,6.1797,,0,0,59,59,13,1,stimuli/stim_20210919_power2amp/equal_lnn_AM2Hz_s15_39.m4a,,,,,,,,,,,,
,,,,,,,,,,,,42154,2021-10-10_19h13.37.427,judgeSpeechMusic_20210919_logNormShiftAmp_detection_fixFreq,2020.1.2,MacIntel,60,,,,,,,,,,,,,,,,,,2,5.7314,,0,0,60,60,33,1,stimuli/stim_20210919_power2amp/equal_lnn_AM2Hz_s35_12.m4a,,,,,,,,,,,,
,,,,,,,,,,,,42154,2021-10-10_19h13.37.427,judgeSpeechMusic_20210919_logNormShiftAmp_detection_fixFreq,2020.1.2,MacIntel,60,,,,,,,,,,,,,,,,,,2,5.7803,,0,0,61,61,66,1,stimuli/stim_20210919_power2amp/equal_lnn_AM2Hz_s55_18.m4a,,,,,,,,,,,,
,,,,,,,,,,,,42154,2021-10-10_19h13.37.427,judgeSpeechMusic_20210919_logNormShiftAmp_detection_fixFreq,2020.1.2,MacIntel,60,,,,,,,,,,,,,,,,,,2,5.7474,,0,0,62,62,36,1,stimuli/stim_20210919_power2amp/equal_lnn_AM2Hz_s35_18.m4a,,,,,,,,,,,,
,,,,,,,,,,,,42154,2021-10-10_19h13.37.427,judgeSpeechMusic_20210919_logNormShiftAmp_detection_fixFreq,2020.1.2,MacIntel,60,,,,,,,,,,,,,,,,,,2,6.6627,,0,0,63,63,20,1,stimuli/stim_20210919_power2amp/equal_lnn_AM2Hz_s25_33.m4a,,,,,,,,,,,,
,,,,,,,,,,,,42154,2021-10-10_19h13.37.427,judgeSpeechMusic_20210919_logNormShiftAmp_detection_fixFreq,2020.1.2,MacIntel,60,,,,,,,,,,,,,,,,,,1,5.9959,,0,0,64,64,29,1,stimuli/stim_20210919_power2amp/equal_lnn_AM2Hz_s25_18.m4a,,,,,,,,,,,,
,,,,,,,,,,,,42154,2021-10-10_19h13.37.427,judgeSpeechMusic_20210919_logNormShiftAmp_detection_fixFreq,2020.1.2,MacIntel,60,,,,,,,,,,,,,,,,,,1,7.0637,,0,0,65,65,30,1,stimuli/stim_20210919_power2amp/equal_lnn_AM2Hz_s35_26.m4a,,,,,,,,,,,,
,,,,,,,,,,,,42154,2021-10-10_19h13.37.427,judgeSpeechMusic_20210919_logNormShiftAmp_detection_fixFreq,2020.1.2,MacIntel,60,,,,,,,,,,,,,,,,,,2,5.8969,,0,0,66,66,21,1,stimuli/stim_20210919_power2amp/equal_lnn_AM2Hz_s25_48.m4a,,,,,,,,,,,,
,,,,,,,,,,,,42154,2021-10-10_19h13.37.427,judgeSpeechMusic_20210919_logNormShiftAmp_detection_fixFreq,2020.1.2,MacIntel,60,,,,,,,,,,,,,,,,,,2,5.614,,0,0,67,67,56,1,stimuli/stim_20210919_power2amp/equal_lnn_AM2Hz_s45_18.m4a,,,,,,,,,,,,
,,,,,,,,,,,,42154,2021-10-10_19h13.37.427,judgeSpeechMusic_20210919_logNormShiftAmp_detection_fixFreq,2020.1.2,MacIntel,60,,,,,,,,,,,,,,,,,,1,5.8598,,0,0,68,68,39,1,stimuli/stim_20210919_power2amp/equal_lnn_AM2Hz_s35_30.m4a,,,,,,,,,,,,
,,,,,,,,,,,,42154,2021-10-10_19h13.37.427,judgeSpeechMusic_20210919_logNormShiftAmp_detection_fixFreq,2020.1.2,MacIntel,60,,,,,,,,,,,,,,,,,,1,6.4301,,0,0,69,69,10,1,stimuli/stim_20210919_power2amp/equal_lnn_AM2Hz_s15_42.m4a,,,,,,,,,,,,
,,,,,,,,,,,,42154,2021-10-10_19h13.37.427,judgeSpeechMusic_20210919_logNormShiftAmp_detection_fixFreq,2020.1.2,MacIntel,60,,,,,,,,,,,,,,,,,,1,7.2467,,0,0,70,70,63,1,stimuli/stim_20210919_power2amp/equal_lnn_AM2Hz_s55_10.m4a,,,,,,,,,,,,
,,,,,,,,,,,,42154,2021-10-10_19h13.37.427,judgeSpeechMusic_20210919_logNormShiftAmp_detection_fixFreq,2020.1.2,MacIntel,60,,,,,,,,,,,,,,,,,,2,5.9299,,0,0,71,71,73,1,stimuli/stim_20210919_power2amp/equal_lnn_AM2Hz_s55_40.m4a,,,,,,,,,,,,
,,,,,,,,,,,,42154,2021-10-10_19h13.37.427,judgeSpeechMusic_20210919_logNormShiftAmp_detection_fixFreq,2020.1.2,MacIntel,60,,,,,,,,,,,,,,,,,,1,7.1966,,0,0,72,72,8,1,stimuli/stim_20210919_power2amp/equal_lnn_AM2Hz_s15_41.m4a,,,,,,,,,,,,
,,,,,,,,,,,,42154,2021-10-10_19h13.37.427,judgeSpeechMusic_20210919_logNormShiftAmp_detection_fixFreq,2020.1.2,MacIntel,60,,,,,,,,,,,,,,,,,,2,6.5583,,0,0,73,73,55,1,stimuli/stim_20210919_power2amp/equal_lnn_AM2Hz_s45_2.m4a,,,,,,,,,,,,
,,,,,,,,,,,,42154,2021-10-10_19h13.37.427,judgeSpeechMusic_20210919_logNormShiftAmp_detection_fixFreq,2020.1.2,MacIntel,60,,,,,,,,,,,,,,,,,,1,6.5459,,0,0,74,74,0,1,stimuli/stim_20210919_power2amp/equal_lnn_AM2Hz_s15_15.m4a,,,,,,,,,,,,
,,,,,,,,,,,,42154,2021-10-10_19h13.37.427,judgeSpeechMusic_20210919_logNormShiftAmp_detection_fixFreq,2020.1.2,MacIntel,60,,,,,,,,,,,,,,,,,,,,,,,,,,,,,space,3.4746,0,1,1,1,1,SPEECH,stimuli/SPEECH.jpg,,
,,,,,,,,,,,,42154,2021-10-10_19h13.37.427,judgeSpeechMusic_20210919_logNormShiftAmp_detection_fixFreq,2020.1.2,MacIntel,60,,,,,,0,0,0,0,0,1,stimuli/stim_20210919_power2amp/equal_lnn_AM_training2Hz_s20.m4a,,,,,,,,,,,,,,,,,,,,,,,,,,,
,,,,,,,,,,,,42154,2021-10-10_19h13.37.427,judgeSpeechMusic_20210919_logNormShiftAmp_detection_fixFreq,2020.1.2,MacIntel,60,,,,,,,,,,,,,,space,0.8762,space,1.6823,2,6.896,,0,0,0,0,34,1,stimuli/stim_20210919_power2amp/equal_lnn_AM2Hz_s35_49.m4a,,,,,,,,,,,,
,,,,,,,,,,,,42154,2021-10-10_19h13.37.427,judgeSpeechMusic_20210919_logNormShiftAmp_detection_fixFreq,2020.1.2,MacIntel,60,,,,,,,,,,,,,,,,,,2,6.1955,,0,0,1,1,71,1,stimuli/stim_20210919_power2amp/equal_lnn_AM2Hz_s55_29.m4a,,,,,,,,,,,,
,,,,,,,,,,,,42154,2021-10-10_19h13.37.427,judgeSpeechMusic_20210919_logNormShiftAmp_detection_fixFreq,2020.1.2,MacIntel,60,,,,,,,,,,,,,,,,,,1,6.4574,,0,0,2,2,57,1,stimuli/stim_20210919_power2amp/equal_lnn_AM2Hz_s45_7.m4a,,,,,,,,,,,,
,,,,,,,,,,,,42154,2021-10-10_19h13.37.427,judgeSpeechMusic_20210919_logNormShiftAmp_detection_fixFreq,2020.1.2,MacIntel,60,,,,,,,,,,,,,,,,,,1,13.2635,,0,0,3,3,61,1,stimuli/stim_20210919_power2amp/equal_lnn_AM2Hz_s55_38.m4a,,,,,,,,,,,,
,,,,,,,,,,,,42154,2021-10-10_19h13.37.427,judgeSpeechMusic_20210919_logNormShiftAmp_detection_fixFreq,2020.1.2,MacIntel,60,,,,,,,,,,,,,,,,,,2,5.9969,,0,0,4,4,69,1,stimuli/stim_20210919_power2amp/equal_lnn_AM2Hz_s55_46.m4a,,,,,,,,,,,,
,,,,,,,,,,,,42154,2021-10-10_19h13.37.427,judgeSpeechMusic_20210919_logNormShiftAmp_detection_fixFreq,2020.1.2,MacIntel,60,,,,,,,,,,,,,,,,,,1,5.7469,,0,0,5,5,19,1,stimuli/stim_20210919_power2amp/equal_lnn_AM2Hz_s25_15.m4a,,,,,,,,,,,,
,,,,,,,,,,,,42154,2021-10-10_19h13.37.427,judgeSpeechMusic_20210919_logNormShiftAmp_detection_fixFreq,2020.1.2,MacIntel,60,,,,,,,,,,,,,,,,,,2,6.3474,,0,0,6,6,32,1,stimuli/stim_20210919_power2amp/equal_lnn_AM2Hz_s35_46.m4a,,,,,,,,,,,,
,,,,,,,,,,,,42154,2021-10-10_19h13.37.427,judgeSpeechMusic_20210919_logNormShiftAmp_detection_fixFreq,2020.1.2,MacIntel,60,,,,,,,,,,,,,,,,,,2,5.6463,,0,0,7,7,55,1,stimuli/stim_20210919_power2amp/equal_lnn_AM2Hz_s45_2.m4a,,,,,,,,,,,,
,,,,,,,,,,,,42154,2021-10-10_19h13.37.427,judgeSpeechMusic_20210919_logNormShiftAmp_detection_fixFreq,2020.1.2,MacIntel,60,,,,,,,,,,,,,,,,,,2,6.9798,,0,0,8,8,68,1,stimuli/stim_20210919_power2amp/equal_lnn_AM2Hz_s55_13.m4a,,,,,,,,,,,,
,,,,,,,,,,,,42154,2021-10-10_19h13.37.427,judgeSpeechMusic_20210919_logNormShiftAmp_detection_fixFreq,2020.1.2,MacIntel,60,,,,,,,,,,,,,,,,,,1,6.124,,0,0,9,9,30,1,stimuli/stim_20210919_power2amp/equal_lnn_AM2Hz_s35_26.m4a,,,,,,,,,,,,
,,,,,,,,,,,,42154,2021-10-10_19h13.37.427,judgeSpeechMusic_20210919_logNormShiftAmp_detection_fixFreq,2020.1.2,MacIntel,60,,,,,,,,,,,,,,,,,,1,5.9305,,0,0,10,10,23,1,stimuli/stim_20210919_power2amp/equal_lnn_AM2Hz_s25_6.m4a,,,,,,,,,,,,
,,,,,,,,,,,,42154,2021-10-10_19h13.37.427,judgeSpeechMusic_20210919_logNormShiftAmp_detection_fixFreq,2020.1.2,MacIntel,60,,,,,,,,,,,,,,,,,,1,6.5637,,0,0,11,11,5,1,stimuli/stim_20210919_power2amp/equal_lnn_AM2Hz_s15_2.m4a,,,,,,,,,,,,
,,,,,,,,,,,,42154,2021-10-10_19h13.37.427,judgeSpeechMusic_20210919_logNormShiftAmp_detection_fixFreq,2020.1.2,MacIntel,60,,,,,,,,,,,,,,,,,,2,5.8296,,0,0,12,12,24,1,stimuli/stim_20210919_power2amp/equal_lnn_AM2Hz_s25_43.m4a,,,,,,,,,,,,
,,,,,,,,,,,,42154,2021-10-10_19h13.37.427,judgeSpeechMusic_20210919_logNormShiftAmp_detection_fixFreq,2020.1.2,MacIntel,60,,,,,,,,,,,,,,,,,,2,8.212,,0,0,13,13,67,1,stimuli/stim_20210919_power2amp/equal_lnn_AM2Hz_s55_2.m4a,,,,,,,,,,,,
,,,,,,,,,,,,42154,2021-10-10_19h13.37.427,judgeSpeechMusic_20210919_logNormShiftAmp_detection_fixFreq,2020.1.2,MacIntel,60,,,,,,,,,,,,,,,,,,2,8.1131,,0,0,14,14,44,1,stimuli/stim_20210919_power2amp/equal_lnn_AM2Hz_s35_47.m4a,,,,,,,,,,,,
,,,,,,,,,,,,42154,2021-10-10_19h13.37.427,judgeSpeechMusic_20210919_logNormShiftAmp_detection_fixFreq,2020.1.2,MacIntel,60,,,,,,,,,,,,,,,,,,1,6.4973,,0,0,15,15,28,1,stimuli/stim_20210919_power2amp/equal_lnn_AM2Hz_s25_41.m4a,,,,,,,,,,,,
,,,,,,,,,,,,42154,2021-10-10_19h13.37.427,judgeSpeechMusic_20210919_logNormShiftAmp_detection_fixFreq,2020.1.2,MacIntel,60,,,,,,,,,,,,,,,,,,2,6.1967,,0,0,16,16,35,1,stimuli/stim_20210919_power2amp/equal_lnn_AM2Hz_s35_39.m4a,,,,,,,,,,,,
,,,,,,,,,,,,42154,2021-10-10_19h13.37.427,judgeSpeechMusic_20210919_logNormShiftAmp_detection_fixFreq,2020.1.2,MacIntel,60,,,,,,,,,,,,,,,,,,2,6.5978,,0,0,17,17,53,1,stimuli/stim_20210919_power2amp/equal_lnn_AM2Hz_s45_35.m4a,,,,,,,,,,,,
,,,,,,,,,,,,42154,2021-10-10_19h13.37.427,judgeSpeechMusic_20210919_logNormShiftAmp_detection_fixFreq,2020.1.2,MacIntel,60,,,,,,,,,,,,,,,,,,2,6.3622,,0,0,18,18,48,1,stimuli/stim_20210919_power2amp/equal_lnn_AM2Hz_s45_46.m4a,,,,,,,,,,,,
,,,,,,,,,,,,42154,2021-10-10_19h13.37.427,judgeSpeechMusic_20210919_logNormShiftAmp_detection_fixFreq,2020.1.2,MacIntel,60,,,,,,,,,,,,,,,,,,1,6.4307,,0,0,19,19,31,1,stimuli/stim_20210919_power2amp/equal_lnn_AM2Hz_s35_48.m4a,,,,,,,,,,,,
,,,,,,,,,,,,42154,2021-10-10_19h13.37.427,judgeSpeechMusic_20210919_logNormShiftAmp_detection_fixFreq,2020.1.2,MacIntel,60,,,,,,,,,,,,,,,,,,1,9.2634,,0,0,20,20,12,1,stimuli/stim_20210919_power2amp/equal_lnn_AM2Hz_s15_47.m4a,,,,,,,,,,,,
,,,,,,,,,,,,42154,2021-10-10_19h13.37.427,judgeSpeechMusic_20210919_logNormShiftAmp_detection_fixFreq,2020.1.2,MacIntel,60,,,,,,,,,,,,,,,,,,1,6.7808,4,1,0,21,21,41,1,stimuli/stim_20210919_power2amp/equal_lnn_AM2Hz_s35_13.m4a,0.5409,,,,,,,,,,,
,,,,,,,,,,,,42154,2021-10-10_19h13.37.427,judgeSpeechMusic_20210919_logNormShiftAmp_detection_fixFreq,2020.1.2,MacIntel,60,,,,,,,,,,,,,,,,,,1,8.2285,,0,0,22,22,60,1,stimuli/stim_20210919_power2amp/equal_lnn_AM2Hz_s55_30.m4a,,,,,,,,,,,,
,,,,,,,,,,,,42154,2021-10-10_19h13.37.427,judgeSpeechMusic_20210919_logNormShiftAmp_detection_fixFreq,2020.1.2,MacIntel,60,,,,,,,,,,,,,,,,,,1,6.6988,,0,0,23,23,18,1,stimuli/stim_20210919_power2amp/equal_lnn_AM2Hz_s25_25.m4a,,,,,,,,,,,,
,,,,,,,,,,,,42154,2021-10-10_19h13.37.427,judgeSpeechMusic_20210919_logNormShiftAmp_detection_fixFreq,2020.1.2,MacIntel,60,,,,,,,,,,,,,,,,,,2,5.7288,,0,0,24,24,38,1,stimuli/stim_20210919_power2amp/equal_lnn_AM2Hz_s35_37.m4a,,,,,,,,,,,,
,,,,,,,,,,,,42154,2021-10-10_19h13.37.427,judgeSpeechMusic_20210919_logNormShiftAmp_detection_fixFreq,2020.1.2,MacIntel,60,,,,,,,,,,,,,,,,,,1,6.8139,,0,0,25,25,7,1,stimuli/stim_20210919_power2amp/equal_lnn_AM2Hz_s15_31.m4a,,,,,,,,,,,,
,,,,,,,,,,,,42154,2021-10-10_19h13.37.427,judgeSpeechMusic_20210919_logNormShiftAmp_detection_fixFreq,2020.1.2,MacIntel,60,,,,,,,,,,,,,,,,,,1,6.3302,,0,0,26,26,14,1,stimuli/stim_20210919_power2amp/equal_lnn_AM2Hz_s15_8.m4a,,,,,,,,,,,,
,,,,,,,,,,,,42154,2021-10-10_19h13.37.427,judgeSpeechMusic_20210919_logNormShiftAmp_detection_fixFreq,2020.1.2,MacIntel,60,,,,,,,,,,,,,,,,,,1,5.9291,,0,0,27,27,0,1,stimuli/stim_20210919_power2amp/equal_lnn_AM2Hz_s15_15.m4a,,,,,,,,,,,,
,,,,,,,,,,,,42154,2021-10-10_19h13.37.427,judgeSpeechMusic_20210919_logNormShiftAmp_detection_fixFreq,2020.1.2,MacIntel,60,,,,,,,,,,,,,,,,,,2,6.4783,,0,0,28,28,52,1,stimuli/stim_20210919_power2amp/equal_lnn_AM2Hz_s45_14.m4a,,,,,,,,,,,,
,,,,,,,,,,,,42154,2021-10-10_19h13.37.427,judgeSpeechMusic_20210919_logNormShiftAmp_detection_fixFreq,2020.1.2,MacIntel,60,,,,,,,,,,,,,,,,,,2,5.78,,0,0,29,29,54,1,stimuli/stim_20210919_power2amp/equal_lnn_AM2Hz_s45_28.m4a,,,,,,,,,,,,
,,,,,,,,,,,,42154,2021-10-10_19h13.37.427,judgeSpeechMusic_20210919_logNormShiftAmp_detection_fixFreq,2020.1.2,MacIntel,60,,,,,,,,,,,,,,,,,,1,6.1807,,0,0,30,30,16,1,stimuli/stim_20210919_power2amp/equal_lnn_AM2Hz_s25_11.m4a,,,,,,,,,,,,
,,,,,,,,,,,,42154,2021-10-10_19h13.37.427,judgeSpeechMusic_20210919_logNormShiftAmp_detection_fixFreq,2020.1.2,MacIntel,60,,,,,,,,,,,,,,,,,,2,5.6638,,0,0,31,31,66,1,stimuli/stim_20210919_power2amp/equal_lnn_AM2Hz_s55_18.m4a,,,,,,,,,,,,
,,,,,,,,,,,,42154,2021-10-10_19h13.37.427,judgeSpeechMusic_20210919_logNormShiftAmp_detection_fixFreq,2020.1.2,MacIntel,60,,,,,,,,,,,,,,,,,,2,5.6106,,0,0,32,32,2,1,stimuli/stim_20210919_power2amp/equal_lnn_AM2Hz_s15_23.m4a,,,,,,,,,,,,
,,,,,,,,,,,,42154,2021-10-10_19h13.37.427,judgeSpeechMusic_20210919_logNormShiftAmp_detection_fixFreq,2020.1.2,MacIntel,60,,,,,,,,,,,,,,,,,,2,5.8904,,0,0,33,33,43,1,stimuli/stim_20210919_power2amp/equal_lnn_AM2Hz_s35_35.m4a,,,,,,,,,,,,
,,,,,,,,,,,,42154,2021-10-10_19h13.37.427,judgeSpeechMusic_20210919_logNormShiftAmp_detection_fixFreq,2020.1.2,MacIntel,60,,,,,,,,,,,,,,,,,,1,5.8632,,0,0,34,34,1,1,stimuli/stim_20210919_power2amp/equal_lnn_AM2Hz_s15_13.m4a,,,,,,,,,,,,
,,,,,,,,,,,,42154,2021-10-10_19h13.37.427,judgeSpeechMusic_20210919_logNormShiftAmp_detection_fixFreq,2020.1.2,MacIntel,60,,,,,,,,,,,,,,,,,,1,6.7132,,0,0,35,35,13,1,stimuli/stim_20210919_power2amp/equal_lnn_AM2Hz_s15_39.m4a,,,,,,,,,,,,
,,,,,,,,,,,,42154,2021-10-10_19h13.37.427,judgeSpeechMusic_20210919_logNormShiftAmp_detection_fixFreq,2020.1.2,MacIntel,60,,,,,,,,,,,,,,,,,,2,5.8303,,0,0,36,36,4,1,stimuli/stim_20210919_power2amp/equal_lnn_AM2Hz_s15_44.m4a,,,,,,,,,,,,
,,,,,,,,,,,,42154,2021-10-10_19h13.37.427,judgeSpeechMusic_20210919_logNormShiftAmp_detection_fixFreq,2020.1.2,MacIntel,60,,,,,,,,,,,,,,,,,,2,5.7477,,0,0,37,37,40,1,stimuli/stim_20210919_power2amp/equal_lnn_AM2Hz_s35_27.m4a,,,,,,,,,,,,
,,,,,,,,,,,,42154,2021-10-10_19h13.37.427,judgeSpeechMusic_20210919_logNormShiftAmp_detection_fixFreq,2020.1.2,MacIntel,60,,,,,,,,,,,,,,,,,,2,5.8625,,0,0,38,38,46,1,stimuli/stim_20210919_power2amp/equal_lnn_AM2Hz_s45_45.m4a,,,,,,,,,,,,
,,,,,,,,,,,,42154,2021-10-10_19h13.37.427,judgeSpeechMusic_20210919_logNormShiftAmp_detection_fixFreq,2020.1.2,MacIntel,60,,,,,,,,,,,,,,,,,,1,5.7469,3,1,0,39,39,9,1,stimuli/stim_20210919_power2amp/equal_lnn_AM2Hz_s15_49.m4a,1.1992,,,,,,,,,,,
,,,,,,,,,,,,42154,2021-10-10_19h13.37.427,judgeSpeechMusic_20210919_logNormShiftAmp_detection_fixFreq,2020.1.2,MacIntel,60,,,,,,,,,,,,,,,,,,1,6.6976,,0,0,40,40,22,1,stimuli/stim_20210919_power2amp/equal_lnn_AM2Hz_s25_2.m4a,,,,,,,,,,,,
,,,,,,,,,,,,42154,2021-10-10_19h13.37.427,judgeSpeechMusic_20210919_logNormShiftAmp_detection_fixFreq,2020.1.2,MacIntel,60,,,,,,,,,,,,,,,,,,1,9.8801,,0,0,41,41,56,1,stimuli/stim_20210919_power2amp/equal_lnn_AM2Hz_s45_18.m4a,,,,,,,,,,,,
,,,,,,,,,,,,42154,2021-10-10_19h13.37.427,judgeSpeechMusic_20210919_logNormShiftAmp_detection_fixFreq,2020.1.2,MacIntel,60,,,,,,,,,,,,,,,,,,2,5.813,,0,0,42,42,64,1,stimuli/stim_20210919_power2amp/equal_lnn_AM2Hz_s55_49.m4a,,,,,,,,,,,,
,,,,,,,,,,,,42154,2021-10-10_19h13.37.427,judgeSpeechMusic_20210919_logNormShiftAmp_detection_fixFreq,2020.1.2,MacIntel,60,,,,,,,,,,,,,,,,,,2,18.4803,,0,0,43,43,65,1,stimuli/stim_20210919_power2amp/equal_lnn_AM2Hz_s55_27.m4a,,,,,,,,,,,,
,,,,,,,,,,,,42154,2021-10-10_19h13.37.427,judgeSpeechMusic_20210919_logNormShiftAmp_detection_fixFreq,2020.1.2,MacIntel,60,,,,,,,,,,,,,,,,,,2,5.8464,,0,0,44,44,39,1,stimuli/stim_20210919_power2amp/equal_lnn_AM2Hz_s35_30.m4a,,,,,,,,,,,,
,,,,,,,,,,,,42154,2021-10-10_19h13.37.427,judgeSpeechMusic_20210919_logNormShiftAmp_detection_fixFreq,2020.1.2,MacIntel,60,,,,,,,,,,,,,,,,,,1,5.813,,0,0,45,45,21,1,stimuli/stim_20210919_power2amp/equal_lnn_AM2Hz_s25_48.m4a,,,,,,,,,,,,
,,,,,,,,,,,,42154,2021-10-10_19h13.37.427,judgeSpeechMusic_20210919_logNormShiftAmp_detection_fixFreq,2020.1.2,MacIntel,60,,,,,,,,,,,,,,,,,,1,6.8969,,0,0,46,46,50,1,stimuli/stim_20210919_power2amp/equal_lnn_AM2Hz_s45_37.m4a,,,,,,,,,,,,
,,,,,,,,,,,,42154,2021-10-10_19h13.37.427,judgeSpeechMusic_20210919_logNormShiftAmp_detection_fixFreq,2020.1.2,MacIntel,60,,,,,,,,,,,,,,,,,,2,6.1961,,0,0,47,47,20,1,stimuli/stim_20210919_power2amp/equal_lnn_AM2Hz_s25_33.m4a,,,,,,,,,,,,
,,,,,,,,,,,,42154,2021-10-10_19h13.37.427,judgeSpeechMusic_20210919_logNormShiftAmp_detection_fixFreq,2020.1.2,MacIntel,60,,,,,,,,,,,,,,,,,,1,7.3904,,0,0,48,48,29,1,stimuli/stim_20210919_power2amp/equal_lnn_AM2Hz_s25_18.m4a,,,,,,,,,,,,
,,,,,,,,,,,,42154,2021-10-10_19h13.37.427,judgeSpeechMusic_20210919_logNormShiftAmp_detection_fixFreq,2020.1.2,MacIntel,60,,,,,,,,,,,,,,,,,,2,5.8125,,0,0,49,49,70,1,stimuli/stim_20210919_power2amp/equal_lnn_AM2Hz_s55_12.m4a,,,,,,,,,,,,
,,,,,,,,,,,,42154,2021-10-10_19h13.37.427,judgeSpeechMusic_20210919_logNormShiftAmp_detection_fixFreq,2020.1.2,MacIntel,60,,,,,,,,,,,,,,,,,,1,7.96,,0,0,50,50,45,1,stimuli/stim_20210919_power2amp/equal_lnn_AM2Hz_s45_31.m4a,,,,,,,,,,,,
,,,,,,,,,,,,42154,2021-10-10_19h13.37.427,judgeSpeechMusic_20210919_logNormShiftAmp_detection_fixFreq,2020.1.2,MacIntel,60,,,,,,,,,,,,,,,,,,2,5.6893,,0,0,51,51,36,1,stimuli/stim_20210919_power2amp/equal_lnn_AM2Hz_s35_18.m4a,,,,,,,,,,,,
,,,,,,,,,,,,42154,2021-10-10_19h13.37.427,judgeSpeechMusic_20210919_logNormShiftAmp_detection_fixFreq,2020.1.2,MacIntel,60,,,,,,,,,,,,,,,,,,1,6.491,,0,0,52,52,62,1,stimuli/stim_20210919_power2amp/equal_lnn_AM2Hz_s55_37.m4a,,,,,,,,,,,,
,,,,,,,,,,,,42154,2021-10-10_19h13.37.427,judgeSpeechMusic_20210919_logNormShiftAmp_detection_fixFreq,2020.1.2,MacIntel,60,,,,,,,,,,,,,,,,,,2,6.6641,,0,0,53,53,33,1,stimuli/stim_20210919_power2amp/equal_lnn_AM2Hz_s35_12.m4a,,,,,,,,,,,,
,,,,,,,,,,,,42154,2021-10-10_19h13.37.427,judgeSpeechMusic_20210919_logNormShiftAmp_detection_fixFreq,2020.1.2,MacIntel,60,,,,,,,,,,,,,,,,,,1,10.9629,,0,0,54,54,15,1,stimuli/stim_20210919_power2amp/equal_lnn_AM2Hz_s25_28.m4a,,,,,,,,,,,,
,,,,,,,,,,,,42154,2021-10-10_19h13.37.427,judgeSpeechMusic_20210919_logNormShiftAmp_detection_fixFreq,2020.1.2,MacIntel,60,,,,,,,,,,,,,,,,,,2,7.1137,,0,0,55,55,26,1,stimuli/stim_20210919_power2amp/equal_lnn_AM2Hz_s25_21.m4a,,,,,,,,,,,,
,,,,,,,,,,,,42154,2021-10-10_19h13.37.427,judgeSpeechMusic_20210919_logNormShiftAmp_detection_fixFreq,2020.1.2,MacIntel,60,,,,,,,,,,,,,,,,,,1,5.9136,,0,0,56,56,17,1,stimuli/stim_20210919_power2amp/equal_lnn_AM2Hz_s25_20.m4a,,,,,,,,,,,,
,,,,,,,,,,,,42154,2021-10-10_19h13.37.427,judgeSpeechMusic_20210919_logNormShiftAmp_detection_fixFreq,2020.1.2,MacIntel,60,,,,,,,,,,,,,,,,,,2,7.2315,,0,0,57,57,73,1,stimuli/stim_20210919_power2amp/equal_lnn_AM2Hz_s55_40.m4a,,,,,,,,,,,,
,,,,,,,,,,,,42154,2021-10-10_19h13.37.427,judgeSpeechMusic_20210919_logNormShiftAmp_detection_fixFreq,2020.1.2,MacIntel,60,,,,,,,,,,,,,,,,,,2,10.9635,3,1,0,58,58,10,1,stimuli/stim_20210919_power2amp/equal_lnn_AM2Hz_s15_42.m4a,2.0971,,,,,,,,,,,
,,,,,,,,,,,,42154,2021-10-10_19h13.37.427,judgeSpeechMusic_20210919_logNormShiftAmp_detection_fixFreq,2020.1.2,MacIntel,60,,,,,,,,,,,,,,,,,,1,8.1474,,0,0,59,59,47,1,stimuli/stim_20210919_power2amp/equal_lnn_AM2Hz_s45_5.m4a,,,,,,,,,,,,
,,,,,,,,,,,,42154,2021-10-10_19h13.37.427,judgeSpeechMusic_20210919_logNormShiftAmp_detection_fixFreq,2020.1.2,MacIntel,60,,,,,,,,,,,,,,,,,,1,6.2312,,0,0,60,60,11,1,stimuli/stim_20210919_power2amp/equal_lnn_AM2Hz_s15_40.m4a,,,,,,,,,,,,
,,,,,,,,,,,,42154,2021-10-10_19h13.37.427,judgeSpeechMusic_20210919_logNormShiftAmp_detection_fixFreq,2020.1.2,MacIntel,60,,,,,,,,,,,,,,,,,,1,6.4635,,0,0,61,61,6,1,stimuli/stim_20210919_power2amp/equal_lnn_AM2Hz_s15_16.m4a,,,,,,,,,,,,
,,,,,,,,,,,,42154,2021-10-10_19h13.37.427,judgeSpeechMusic_20210919_logNormShiftAmp_detection_fixFreq,2020.1.2,MacIntel,60,,,,,,,,,,,,,,,,,,2,5.5796,,0,0,62,62,27,1,stimuli/stim_20210919_power2amp/equal_lnn_AM2Hz_s25_45.m4a,,,,,,,,,,,,
,,,,,,,,,,,,42154,2021-10-10_19h13.37.427,judgeSpeechMusic_20210919_logNormShiftAmp_detection_fixFreq,2020.1.2,MacIntel,60,,,,,,,,,,,,,,,,,,1,7.6636,,0,0,63,63,49,1,stimuli/stim_20210919_power2amp/equal_lnn_AM2Hz_s45_25.m4a,,,,,,,,,,,,
,,,,,,,,,,,,42154,2021-10-10_19h13.37.427,judgeSpeechMusic_20210919_logNormShiftAmp_detection_fixFreq,2020.1.2,MacIntel,60,,,,,,,,,,,,,,,,,,2,6.4952,,0,0,64,64,59,1,stimuli/stim_20210919_power2amp/equal_lnn_AM2Hz_s45_41.m4a,,,,,,,,,,,,
,,,,,,,,,,,,42154,2021-10-10_19h13.37.427,judgeSpeechMusic_20210919_logNormShiftAmp_detection_fixFreq,2020.1.2,MacIntel,60,,,,,,,,,,,,,,,,,,2,6.2265,,0,0,65,65,3,1,stimuli/stim_20210919_power2amp/equal_lnn_AM2Hz_s15_6.m4a,,,,,,,,,,,,
,,,,,,,,,,,,42154,2021-10-10_19h13.37.427,judgeSpeechMusic_20210919_logNormShiftAmp_detection_fixFreq,2020.1.2,MacIntel,60,,,,,,,,,,,,,,,,,,2,6.9125,,0,0,66,66,74,1,stimuli/stim_20210919_power2amp/equal_lnn_AM2Hz_s55_15.m4a,,,,,,,,,,,,
,,,,,,,,,,,,42154,2021-10-10_19h13.37.427,judgeSpeechMusic_20210919_logNormShiftAmp_detection_fixFreq,2020.1.2,MacIntel,60,,,,,,,,,,,,,,,,,,2,5.5809,,0,0,67,67,72,1,stimuli/stim_20210919_power2amp/equal_lnn_AM2Hz_s55_3.m4a,,,,,,,,,,,,
,,,,,,,,,,,,42154,2021-10-10_19h13.37.427,judgeSpeechMusic_20210919_logNormShiftAmp_detection_fixFreq,2020.1.2,MacIntel,60,,,,,,,,,,,,,,,,,,2,5.6302,,0,0,68,68,63,1,stimuli/stim_20210919_power2amp/equal_lnn_AM2Hz_s55_10.m4a,,,,,,,,,,,,
,,,,,,,,,,,,42154,2021-10-10_19h13.37.427,judgeSpeechMusic_20210919_logNormShiftAmp_detection_fixFreq,2020.1.2,MacIntel,60,,,,,,,,,,,,,,,,,,1,5.9117,,0,0,69,69,58,1,stimuli/stim_20210919_power2amp/equal_lnn_AM2Hz_s45_26.m4a,,,,,,,,,,,,
,,,,,,,,,,,,42154,2021-10-10_19h13.37.427,judgeSpeechMusic_20210919_logNormShiftAmp_detection_fixFreq,2020.1.2,MacIntel,60,,,,,,,,,,,,,,,,,,2,5.7437,,0,0,70,70,37,1,stimuli/stim_20210919_power2amp/equal_lnn_AM2Hz_s35_34.m4a,,,,,,,,,,,,
,,,,,,,,,,,,42154,2021-10-10_19h13.37.427,judgeSpeechMusic_20210919_logNormShiftAmp_detection_fixFreq,2020.1.2,MacIntel,60,,,,,,,,,,,,,,,,,,2,6.5634,,0,0,71,71,25,1,stimuli/stim_20210919_power2amp/equal_lnn_AM2Hz_s25_47.m4a,,,,,,,,,,,,
,,,,,,,,,,,,42154,2021-10-10_19h13.37.427,judgeSpeechMusic_20210919_logNormShiftAmp_detection_fixFreq,2020.1.2,MacIntel,60,,,,,,,,,,,,,,,,,,1,6.6313,,0,0,72,72,51,1,stimuli/stim_20210919_power2amp/equal_lnn_AM2Hz_s45_1.m4a,,,,,,,,,,,,
,,,,,,,,,,,,42154,2021-10-10_19h13.37.427,judgeSpeechMusic_20210919_logNormShiftAmp_detection_fixFreq,2020.1.2,MacIntel,60,,,,,,,,,,,,,,,,,,2,7.3616,,0,0,73,73,8,1,stimuli/stim_20210919_power2amp/equal_lnn_AM2Hz_s15_41.m4a,,,,,,,,,,,,
,,,,,,,,,,,,42154,2021-10-10_19h13.37.427,judgeSpeechMusic_20210919_logNormShiftAmp_detection_fixFreq,2020.1.2,MacIntel,60,,,,,,,,,,,,,,,,,,1,5.9139,,0,0,74,74,42,1,stimuli/stim_20210919_power2amp/equal_lnn_AM2Hz_s35_20.m4a,,,,,,,,,,,,
,,,,,,,,,,,,42154,2021-10-10_19h13.37.427,judgeSpeechMusic_20210919_logNormShiftAmp_detection_fixFreq,2020.1.2,MacIntel,60,,,,,,,,,,,,,,,,,,,,,,,,,,,,,space,0.5822,1,0,2,1,1,SPEECH,stimuli/SPEECH.jpg,,
,,,,,,,,,,,,42154,2021-10-10_19h13.37.427,judgeSpeechMusic_20210919_logNormShiftAmp_detection_fixFreq,2020.1.2,MacIntel,60,,,,,,0,0,0,0,3,1,stimuli/stim_20210919_power2amp/equal_lnn_AM_training2Hz_s50.m4a,,,,,,,,,,,,,,,,,,,,,,,,,,,
,,,,,,,,,,,,42154,2021-10-10_19h13.37.427,judgeSpeechMusic_20210919_logNormShiftAmp_detection_fixFreq,2020.1.2,MacIntel,60,,,,,,,,,,,,,,space,0.7528,space,0.3918,2,7.1925,,0,0,0,0,6,1,stimuli/stim_20210919_power2amp/equal_lnn_AM2Hz_s15_16.m4a,,,,,,,,,,,,
,,,,,,,,,,,,42154,2021-10-10_19h13.37.427,judgeSpeechMusic_20210919_logNormShiftAmp_detection_fixFreq,2020.1.2,MacIntel,60,,,,,,,,,,,,,,,,,,1,5.8634,,0,0,1,1,62,1,stimuli/stim_20210919_power2amp/equal_lnn_AM2Hz_s55_37.m4a,,,,,,,,,,,,
,,,,,,,,,,,,42154,2021-10-10_19h13.37.427,judgeSpeechMusic_20210919_logNormShiftAmp_detection_fixFreq,2020.1.2,MacIntel,60,,,,,,,,,,,,,,,,,,1,6.7471,,0,0,2,2,55,1,stimuli/stim_20210919_power2amp/equal_lnn_AM2Hz_s45_2.m4a,,,,,,,,,,,,
,,,,,,,,,,,,42154,2021-10-10_19h13.37.427,judgeSpeechMusic_20210919_logNormShiftAmp_detection_fixFreq,2020.1.2,MacIntel,60,,,,,,,,,,,,,,,,,,1,6.2789,,0,0,3,3,66,1,stimuli/stim_20210919_power2amp/equal_lnn_AM2Hz_s55_18.m4a,,,,,,,,,,,,
,,,,,,,,,,,,42154,2021-10-10_19h13.37.427,judgeSpeechMusic_20210919_logNormShiftAmp_detection_fixFreq,2020.1.2,MacIntel,60,,,,,,,,,,,,,,,,,,2,6.4292,,0,0,4,4,27,1,stimuli/stim_20210919_power2amp/equal_lnn_AM2Hz_s25_45.m4a,,,,,,,,,,,,
,,,,,,,,,,,,42154,2021-10-10_19h13.37.427,judgeSpeechMusic_20210919_logNormShiftAmp_detection_fixFreq,2020.1.2,MacIntel,60,,,,,,,,,,,,,,,,,,2,5.6728,,0,0,5,5,0,1,stimuli/stim_20210919_power2amp/equal_lnn_AM2Hz_s15_15.m4a,,,,,,,,,,,,
,,,,,,,,,,,,42154,2021-10-10_19h13.37.427,judgeSpeechMusic_20210919_logNormShiftAmp_detection_fixFreq,2020.1.2,MacIntel,60,,,,,,,,,,,,,,,,,,1,6.5469,,0,0,6,6,38,1,stimuli/stim_20210919_power2amp/equal_lnn_AM2Hz_s35_37.m4a,,,,,,,,,,,,
,,,,,,,,,,,,42154,2021-10-10_19h13.37.427,judgeSpeechMusic_20210919_logNormShiftAmp_detection_fixFreq,2020.1.2,MacIntel,60,,,,,,,,,,,,,,,,,,2,6.5464,,0,0,7,7,51,1,stimuli/stim_20210919_power2amp/equal_lnn_AM2Hz_s45_1.m4a,,,,,,,,,,,,
,,,,,,,,,,,,42154,2021-10-10_19h13.37.427,judgeSpeechMusic_20210919_logNormShiftAmp_detection_fixFreq,2020.1.2,MacIntel,60,,,,,,,,,,,,,,,,,,1,7.5972,,0,0,8,8,22,1,stimuli/stim_20210919_power2amp/equal_lnn_AM2Hz_s25_2.m4a,,,,,,,,,,,,
,,,,,,,,,,,,42154,2021-10-10_19h13.37.427,judgeSpeechMusic_20210919_logNormShiftAmp_detection_fixFreq,2020.1.2,MacIntel,60,,,,,,,,,,,,,,,,,,1,11.9129,,0,0,9,9,24,1,stimuli/stim_20210919_power2amp/equal_lnn_AM2Hz_s25_43.m4a,,,,,,,,,,,,
,,,,,,,,,,,,42154,2021-10-10_19h13.37.427,judgeSpeechMusic_20210919_logNormShiftAmp_detection_fixFreq,2020.1.2,MacIntel,60,,,,,,,,,,,,,,,,,,2,6.496,,0,0,10,10,48,1,stimuli/stim_20210919_power2amp/equal_lnn_AM2Hz_s45_46.m4a,,,,,,,,,,,,
,,,,,,,,,,,,42154,2021-10-10_19h13.37.427,judgeSpeechMusic_20210919_logNormShiftAmp_detection_fixFreq,2020.1.2,MacIntel,60,,,,,,,,,,,,,,,,,,1,6.4641,,0,0,11,11,57,1,stimuli/stim_20210919_power2amp/equal_lnn_AM2Hz_s45_7.m4a,,,,,,,,,,,,
,,,,,,,,,,,,42154,2021-10-10_19h13.37.427,judgeSpeechMusic_20210919_logNormShiftAmp_detection_fixFreq,2020.1.2,MacIntel,60,,,,,,,,,,,,,,,,,,2,6.78,,0,0,12,12,8,1,stimuli/stim_20210919_power2amp/equal_lnn_AM2Hz_s15_41.m4a,,,,,,,,,,,,
,,,,,,,,,,,,42154,2021-10-10_19h13.37.427,judgeSpeechMusic_20210919_logNormShiftAmp_detection_fixFreq,2020.1.2,MacIntel,60,,,,,,,,,,,,,,,,,,2,5.7954,,0,0,13,13,52,1,stimuli/stim_20210919_power2amp/equal_lnn_AM2Hz_s45_14.m4a,,,,,,,,,,,,
,,,,,,,,,,,,42154,2021-10-10_19h13.37.427,judgeSpeechMusic_20210919_logNormShiftAmp_detection_fixFreq,2020.1.2,MacIntel,60,,,,,,,,,,,,,,,,,,2,9.0597,,0,0,14,14,50,1,stimuli/stim_20210919_power2amp/equal_lnn_AM2Hz_s45_37.m4a,,,,,,,,,,,,
,,,,,,,,,,,,42154,2021-10-10_19h13.37.427,judgeSpeechMusic_20210919_logNormShiftAmp_detection_fixFreq,2020.1.2,MacIntel,60,,,,,,,,,,,,,,,,,,1,6.579,,0,0,15,15,15,1,stimuli/stim_20210919_power2amp/equal_lnn_AM2Hz_s25_28.m4a,,,,,,,,,,,,
,,,,,,,,,,,,42154,2021-10-10_19h13.37.427,judgeSpeechMusic_20210919_logNormShiftAmp_detection_fixFreq,2020.1.2,MacIntel,60,,,,,,,,,,,,,,,,,,2,6.3811,,0,0,16,16,26,1,stimuli/stim_20210919_power2amp/equal_lnn_AM2Hz_s25_21.m4a,,,,,,,,,,,,
,,,,,,,,,,,,42154,2021-10-10_19h13.37.427,judgeSpeechMusic_20210919_logNormShiftAmp_detection_fixFreq,2020.1.2,MacIntel,60,,,,,,,,,,,,,,,,,,1,6.246,,0,0,17,17,28,1,stimuli/stim_20210919_power2amp/equal_lnn_AM2Hz_s25_41.m4a,,,,,,,,,,,,
,,,,,,,,,,,,42154,2021-10-10_19h13.37.427,judgeSpeechMusic_20210919_logNormShiftAmp_detection_fixFreq,2020.1.2,MacIntel,60,,,,,,,,,,,,,,,,,,2,6.5772,,0,0,18,18,36,1,stimuli/stim_20210919_power2amp/equal_lnn_AM2Hz_s35_18.m4a,,,,,,,,,,,,
,,,,,,,,,,,,42154,2021-10-10_19h13.37.427,judgeSpeechMusic_20210919_logNormShiftAmp_detection_fixFreq,2020.1.2,MacIntel,60,,,,,,,,,,,,,,,,,,2,5.6966,,0,0,19,19,70,1,stimuli/stim_20210919_power2amp/equal_lnn_AM2Hz_s55_12.m4a,,,,,,,,,,,,
,,,,,,,,,,,,42154,2021-10-10_19h13.37.427,judgeSpeechMusic_20210919_logNormShiftAmp_detection_fixFreq,2020.1.2,MacIntel,60,,,,,,,,,,,,,,,,,,2,5.8461,,0,0,20,20,18,1,stimuli/stim_20210919_power2amp/equal_lnn_AM2Hz_s25_25.m4a,,,,,,,,,,,,
,,,,,,,,,,,,42154,2021-10-10_19h13.37.427,judgeSpeechMusic_20210919_logNormShiftAmp_detection_fixFreq,2020.1.2,MacIntel,60,,,,,,,,,,,,,,,,,,1,5.9635,4,1,0,21,21,3,1,stimuli/stim_20210919_power2amp/equal_lnn_AM2Hz_s15_6.m4a,0.7647,,,,,,,,,,,
,,,,,,,,,,,,42154,2021-10-10_19h13.37.427,judgeSpeechMusic_20210919_logNormShiftAmp_detection_fixFreq,2020.1.2,MacIntel,60,,,,,,,,,,,,,,,,,,2,9.0622,,0,0,22,22,7,1,stimuli/stim_20210919_power2amp/equal_lnn_AM2Hz_s15_31.m4a,,,,,,,,,,,,
,,,,,,,,,,,,42154,2021-10-10_19h13.37.427,judgeSpeechMusic_20210919_logNormShiftAmp_detection_fixFreq,2020.1.2,MacIntel,60,,,,,,,,,,,,,,,,,,2,6.1304,,0,0,23,23,67,1,stimuli/stim_20210919_power2amp/equal_lnn_AM2Hz_s55_2.m4a,,,,,,,,,,,,
,,,,,,,,,,,,42154,2021-10-10_19h13.37.427,judgeSpeechMusic_20210919_logNormShiftAmp_detection_fixFreq,2020.1.2,MacIntel,60,,,,,,,,,,,,,,,,,,1,5.9476,,0,0,24,24,14,1,stimuli/stim_20210919_power2amp/equal_lnn_AM2Hz_s15_8.m4a,,,,,,,,,,,,
,,,,,,,,,,,,42154,2021-10-10_19h13.37.427,judgeSpeechMusic_20210919_logNormShiftAmp_detection_fixFreq,2020.1.2,MacIntel,60,,,,,,,,,,,,,,,,,,2,7.2796,,0,0,25,25,45,1,stimuli/stim_20210919_power2amp/equal_lnn_AM2Hz_s45_31.m4a,,,,,,,,,,,,
,,,,,,,,,,,,42154,2021-10-10_19h13.37.427,judgeSpeechMusic_20210919_logNormShiftAmp_detection_fixFreq,2020.1.2,MacIntel,60,,,,,,,,,,,,,,,,,,2,5.6304,,0,0,26,26,16,1,stimuli/stim_20210919_power2amp/equal_lnn_AM2Hz_s25_11.m4a,,,,,,,,,,,,
,,,,,,,,,,,,42154,2021-10-10_19h13.37.427,judgeSpeechMusic_20210919_logNormShiftAmp_detection_fixFreq,2020.1.2,MacIntel,60,,,,,,,,,,,,,,,,,,1,5.7323,,0,0,27,27,30,1,stimuli/stim_20210919_power2amp/equal_lnn_AM2Hz_s35_26.m4a,,,,,,,,,,,,
,,,,,,,,,,,,42154,2021-10-10_19h13.37.427,judgeSpeechMusic_20210919_logNormShiftAmp_detection_fixFreq,2020.1.2,MacIntel,60,,,,,,,,,,,,,,,,,,2,7.2117,,0,0,28,28,5,1,stimuli/stim_20210919_power2amp/equal_lnn_AM2Hz_s15_2.m4a,,,,,,,,,,,,
,,,,,,,,,,,,42154,2021-10-10_19h13.37.427,judgeSpeechMusic_20210919_logNormShiftAmp_detection_fixFreq,2020.1.2,MacIntel,60,,,,,,,,,,,,,,,,,,2,16.4137,,0,0,29,29,23,1,stimuli/stim_20210919_power2amp/equal_lnn_AM2Hz_s25_6.m4a,,,,,,,,,,,,
,,,,,,,,,,,,42154,2021-10-10_19h13.37.427,judgeSpeechMusic_20210919_logNormShiftAmp_detection_fixFreq,2020.1.2,MacIntel,60,,,,,,,,,,,,,,,,,,2,7.1634,,0,0,30,30,9,1,stimuli/stim_20210919_power2amp/equal_lnn_AM2Hz_s15_49.m4a,,,,,,,,,,,,
,,,,,,,,,,,,42154,2021-10-10_19h13.37.427,judgeSpeechMusic_20210919_logNormShiftAmp_detection_fixFreq,2020.1.2,MacIntel,60,,,,,,,,,,,,,,,,,,2,8.1471,,0,0,31,31,53,1,stimuli/stim_20210919_power2amp/equal_lnn_AM2Hz_s45_35.m4a,,,,,,,,,,,,
,,,,,,,,,,,,42154,2021-10-10_19h13.37.427,judgeSpeechMusic_20210919_logNormShiftAmp_detection_fixFreq,2020.1.2,MacIntel,60,,,,,,,,,,,,,,,,,,1,19.0312,,0,0,32,32,25,1,stimuli/stim_20210919_power2amp/equal_lnn_AM2Hz_s25_47.m4a,,,,,,,,,,,,
,,,,,,,,,,,,42154,2021-10-10_19h13.37.427,judgeSpeechMusic_20210919_logNormShiftAmp_detection_fixFreq,2020.1.2,MacIntel,60,,,,,,,,,,,,,,,,,,2,21.4796,,0,0,33,33,2,1,stimuli/stim_20210919_power2amp/equal_lnn_AM2Hz_s15_23.m4a,,,,,,,,,,,,
,,,,,,,,,,,,42154,2021-10-10_19h13.37.427,judgeSpeechMusic_20210919_logNormShiftAmp_detection_fixFreq,2020.1.2,MacIntel,60,,,,,,,,,,,,,,,,,,2,13.3805,,0,0,34,34,49,1,stimuli/stim_20210919_power2amp/equal_lnn_AM2Hz_s45_25.m4a,,,,,,,,,,,,
,,,,,,,,,,,,42154,2021-10-10_19h13.37.427,judgeSpeechMusic_20210919_logNormShiftAmp_detection_fixFreq,2020.1.2,MacIntel,60,,,,,,,,,,,,,,,,,,2,28.8139,,0,0,35,35,10,1,stimuli/stim_20210919_power2amp/equal_lnn_AM2Hz_s15_42.m4a,,,,,,,,,,,,
,,,,,,,,,,,,42154,2021-10-10_19h13.37.427,judgeSpeechMusic_20210919_logNormShiftAmp_detection_fixFreq,2020.1.2,MacIntel,60,,,,,,,,,,,,,,,,,,1,8.6635,,0,0,36,36,65,1,stimuli/stim_20210919_power2amp/equal_lnn_AM2Hz_s55_27.m4a,,,,,,,,,,,,
,,,,,,,,,,,,42154,2021-10-10_19h13.37.427,judgeSpeechMusic_20210919_logNormShiftAmp_detection_fixFreq,2020.1.2,MacIntel,60,,,,,,,,,,,,,,,,,,2,8.0966,,0,0,37,37,21,1,stimuli/stim_20210919_power2amp/equal_lnn_AM2Hz_s25_48.m4a,,,,,,,,,,,,
,,,,,,,,,,,,42154,2021-10-10_19h13.37.427,judgeSpeechMusic_20210919_logNormShiftAmp_detection_fixFreq,2020.1.2,MacIntel,60,,,,,,,,,,,,,,,,,,2,13.662,,0,0,38,38,11,1,stimuli/stim_20210919_power2amp/equal_lnn_AM2Hz_s15_40.m4a,,,,,,,,,,,,
,,,,,,,,,,,,42154,2021-10-10_19h13.37.427,judgeSpeechMusic_20210919_logNormShiftAmp_detection_fixFreq,2020.1.2,MacIntel,60,,,,,,,,,,,,,,,,,,1,10.8132,3,1,0,39,39,60,1,stimuli/stim_20210919_power2amp/equal_lnn_AM2Hz_s55_30.m4a,2.8484,,,,,,,,,,,
,,,,,,,,,,,,42154,2021-10-10_19h13.37.427,judgeSpeechMusic_20210919_logNormShiftAmp_detection_fixFreq,2020.1.2,MacIntel,60,,,,,,,,,,,,,,,,,,2,6.7444,,0,0,40,40,20,1,stimuli/stim_20210919_power2amp/equal_lnn_AM2Hz_s25_33.m4a,,,,,,,,,,,,
,,,,,,,,,,,,42154,2021-10-10_19h13.37.427,judgeSpeechMusic_20210919_logNormShiftAmp_detection_fixFreq,2020.1.2,MacIntel,60,,,,,,,,,,,,,,,,,,2,16.5316,,0,0,41,41,46,1,stimuli/stim_20210919_power2amp/equal_lnn_AM2Hz_s45_45.m4a,,,,,,,,,,,,
,,,,,,,,,,,,42154,2021-10-10_19h13.37.427,judgeSpeechMusic_20210919_logNormShiftAmp_detection_fixFreq,2020.1.2,MacIntel,60,,,,,,,,,,,,,,,,,,1,6.6791,,0,0,42,42,41,1,stimuli/stim_20210919_power2amp/equal_lnn_AM2Hz_s35_13.m4a,,,,,,,,,,,,
,,,,,,,,,,,,42154,2021-10-10_19h13.37.427,judgeSpeechMusic_20210919_logNormShiftAmp_detection_fixFreq,2020.1.2,MacIntel,60,,,,,,,,,,,,,,,,,,2,6.5297,,0,0,43,43,17,1,stimuli/stim_20210919_power2amp/equal_lnn_AM2Hz_s25_20.m4a,,,,,,,,,,,,
,,,,,,,,,,,,42154,2021-10-10_19h13.37.427,judgeSpeechMusic_20210919_logNormShiftAmp_detection_fixFreq,2020.1.2,MacIntel,60,,,,,,,,,,,,,,,,,,2,6.2967,,0,0,44,44,43,1,stimuli/stim_20210919_power2amp/equal_lnn_AM2Hz_s35_35.m4a,,,,,,,,,,,,
,,,,,,,,,,,,42154,2021-10-10_19h13.37.427,judgeSpeechMusic_20210919_logNormShiftAmp_detection_fixFreq,2020.1.2,MacIntel,60,,,,,,,,,,,,,,,,,,1,8.8473,,0,0,45,45,54,1,stimuli/stim_20210919_power2amp/equal_lnn_AM2Hz_s45_28.m4a,,,,,,,,,,,,
,,,,,,,,,,,,42154,2021-10-10_19h13.37.427,judgeSpeechMusic_20210919_logNormShiftAmp_detection_fixFreq,2020.1.2,MacIntel,60,,,,,,,,,,,,,,,,,,2,9.4238,,0,0,46,46,68,1,stimuli/stim_20210919_power2amp/equal_lnn_AM2Hz_s55_13.m4a,,,,,,,,,,,,
,,,,,,,,,,,,42154,2021-10-10_19h13.37.427,judgeSpeechMusic_20210919_logNormShiftAmp_detection_fixFreq,2020.1.2,MacIntel,60,,,,,,,,,,,,,,,,,,1,10.0306,,0,0,47,47,13,1,stimuli/stim_20210919_power2amp/equal_lnn_AM2Hz_s15_39.m4a,,,,,,,,,,,,
,,,,,,,,,,,,42154,2021-10-10_19h13.37.427,judgeSpeechMusic_20210919_logNormShiftAmp_detection_fixFreq,2020.1.2,MacIntel,60,,,,,,,,,,,,,,,,,,2,13.1471,,0,0,48,48,12,1,stimuli/stim_20210919_power2amp/equal_lnn_AM2Hz_s15_47.m4a,,,,,,,,,,,,
,,,,,,,,,,,,42154,2021-10-10_19h13.37.427,judgeSpeechMusic_20210919_logNormShiftAmp_detection_fixFreq,2020.1.2,MacIntel,60,,,,,,,,,,,,,,,,,,1,9.2745,,0,0,49,49,72,1,stimuli/stim_20210919_power2amp/equal_lnn_AM2Hz_s55_3.m4a,,,,,,,,,,,,
,,,,,,,,,,,,42154,2021-10-10_19h13.37.427,judgeSpeechMusic_20210919_logNormShiftAmp_detection_fixFreq,2020.1.2,MacIntel,60,,,,,,,,,,,,,,,,,,2,6.5374,,0,0,50,50,59,1,stimuli/stim_20210919_power2amp/equal_lnn_AM2Hz_s45_41.m4a,,,,,,,,,,,,
,,,,,,,,,,,,42154,2021-10-10_19h13.37.427,judgeSpeechMusic_20210919_logNormShiftAmp_detection_fixFreq,2020.1.2,MacIntel,60,,,,,,,,,,,,,,,,,,1,7.2461,,0,0,51,51,31,1,stimuli/stim_20210919_power2amp/equal_lnn_AM2Hz_s35_48.m4a,,,,,,,,,,,,
,,,,,,,,,,,,42154,2021-10-10_19h13.37.427,judgeSpeechMusic_20210919_logNormShiftAmp_detection_fixFreq,2020.1.2,MacIntel,60,,,,,,,,,,,,,,,,,,2,7.9963,,0,0,52,52,33,1,stimuli/stim_20210919_power2amp/equal_lnn_AM2Hz_s35_12.m4a,,,,,,,,,,,,
,,,,,,,,,,,,42154,2021-10-10_19h13.37.427,judgeSpeechMusic_20210919_logNormShiftAmp_detection_fixFreq,2020.1.2,MacIntel,60,,,,,,,,,,,,,,,,,,1,7.8136,,0,0,53,53,73,1,stimuli/stim_20210919_power2amp/equal_lnn_AM2Hz_s55_40.m4a,,,,,,,,,,,,
,,,,,,,,,,,,42154,2021-10-10_19h13.37.427,judgeSpeechMusic_20210919_logNormShiftAmp_detection_fixFreq,2020.1.2,MacIntel,60,,,,,,,,,,,,,,,,,,2,7.0961,,0,0,54,54,1,1,stimuli/stim_20210919_power2amp/equal_lnn_AM2Hz_s15_13.m4a,,,,,,,,,,,,
,,,,,,,,,,,,42154,2021-10-10_19h13.37.427,judgeSpeechMusic_20210919_logNormShiftAmp_detection_fixFreq,2020.1.2,MacIntel,60,,,,,,,,,,,,,,,,,,2,9.962,,0,0,55,55,4,1,stimuli/stim_20210919_power2amp/equal_lnn_AM2Hz_s15_44.m4a,,,,,,,,,,,,
,,,,,,,,,,,,42154,2021-10-10_19h13.37.427,judgeSpeechMusic_20210919_logNormShiftAmp_detection_fixFreq,2020.1.2,MacIntel,60,,,,,,,,,,,,,,,,,,1,6.9776,,0,0,56,56,35,1,stimuli/stim_20210919_power2amp/equal_lnn_AM2Hz_s35_39.m4a,,,,,,,,,,,,
,,,,,,,,,,,,42154,2021-10-10_19h13.37.427,judgeSpeechMusic_20210919_logNormShiftAmp_detection_fixFreq,2020.1.2,MacIntel,60,,,,,,,,,,,,,,,,,,2,7.8615,,0,0,57,57,32,1,stimuli/stim_20210919_power2amp/equal_lnn_AM2Hz_s35_46.m4a,,,,,,,,,,,,
,,,,,,,,,,,,42154,2021-10-10_19h13.37.427,judgeSpeechMusic_20210919_logNormShiftAmp_detection_fixFreq,2020.1.2,MacIntel,60,,,,,,,,,,,,,,,,,,2,10.0958,3,1,0,58,58,71,1,stimuli/stim_20210919_power2amp/equal_lnn_AM2Hz_s55_29.m4a,2.7814,,,,,,,,,,,
,,,,,,,,,,,,42154,2021-10-10_19h13.37.427,judgeSpeechMusic_20210919_logNormShiftAmp_detection_fixFreq,2020.1.2,MacIntel,60,,,,,,,,,,,,,,,,,,2,5.8467,,0,0,59,59,37,1,stimuli/stim_20210919_power2amp/equal_lnn_AM2Hz_s35_34.m4a,,,,,,,,,,,,
,,,,,,,,,,,,42154,2021-10-10_19h13.37.427,judgeSpeechMusic_20210919_logNormShiftAmp_detection_fixFreq,2020.1.2,MacIntel,60,,,,,,,,,,,,,,,,,,2,7.08,,0,0,60,60,56,1,stimuli/stim_20210919_power2amp/equal_lnn_AM2Hz_s45_18.m4a,,,,,,,,,,,,
,,,,,,,,,,,,42154,2021-10-10_19h13.37.427,judgeSpeechMusic_20210919_logNormShiftAmp_detection_fixFreq,2020.1.2,MacIntel,60,,,,,,,,,,,,,,,,,,1,11.3485,,0,0,61,61,74,1,stimuli/stim_20210919_power2amp/equal_lnn_AM2Hz_s55_15.m4a,,,,,,,,,,,,
,,,,,,,,,,,,42154,2021-10-10_19h13.37.427,judgeSpeechMusic_20210919_logNormShiftAmp_detection_fixFreq,2020.1.2,MacIntel,60,,,,,,,,,,,,,,,,,,2,8.6626,,0,0,62,62,61,1,stimuli/stim_20210919_power2amp/equal_lnn_AM2Hz_s55_38.m4a,,,,,,,,,,,,
,,,,,,,,,,,,42154,2021-10-10_19h13.37.427,judgeSpeechMusic_20210919_logNormShiftAmp_detection_fixFreq,2020.1.2,MacIntel,60,,,,,,,,,,,,,,,,,,2,9.0131,,0,0,63,63,19,1,stimuli/stim_20210919_power2amp/equal_lnn_AM2Hz_s25_15.m4a,,,,,,,,,,,,
,,,,,,,,,,,,42154,2021-10-10_19h13.37.427,judgeSpeechMusic_20210919_logNormShiftAmp_detection_fixFreq,2020.1.2,MacIntel,60,,,,,,,,,,,,,,,,,,1,14.0128,,0,0,64,64,29,1,stimuli/stim_20210919_power2amp/equal_lnn_AM2Hz_s25_18.m4a,,,,,,,,,,,,
,,,,,,,,,,,,42154,2021-10-10_19h13.37.427,judgeSpeechMusic_20210919_logNormShiftAmp_detection_fixFreq,2020.1.2,MacIntel,60,,,,,,,,,,,,,,,,,,2,7.9315,,0,0,65,65,64,1,stimuli/stim_20210919_power2amp/equal_lnn_AM2Hz_s55_49.m4a,,,,,,,,,,,,
,,,,,,,,,,,,42154,2021-10-10_19h13.37.427,judgeSpeechMusic_20210919_logNormShiftAmp_detection_fixFreq,2020.1.2,MacIntel,60,,,,,,,,,,,,,,,,,,1,8.7627,,0,0,66,66,34,1,stimuli/stim_20210919_power2amp/equal_lnn_AM2Hz_s35_49.m4a,,,,,,,,,,,,
,,,,,,,,,,,,42154,2021-10-10_19h13.37.427,judgeSpeechMusic_20210919_logNormShiftAmp_detection_fixFreq,2020.1.2,MacIntel,60,,,,,,,,,,,,,,,,,,2,7.6803,,0,0,67,67,39,1,stimuli/stim_20210919_power2amp/equal_lnn_AM2Hz_s35_30.m4a,,,,,,,,,,,,
,,,,,,,,,,,,42154,2021-10-10_19h13.37.427,judgeSpeechMusic_20210919_logNormShiftAmp_detection_fixFreq,2020.1.2,MacIntel,60,,,,,,,,,,,,,,,,,,2,9.4791,,0,0,68,68,63,1,stimuli/stim_20210919_power2amp/equal_lnn_AM2Hz_s55_10.m4a,,,,,,,,,,,,
,,,,,,,,,,,,42154,2021-10-10_19h13.37.427,judgeSpeechMusic_20210919_logNormShiftAmp_detection_fixFreq,2020.1.2,MacIntel,60,,,,,,,,,,,,,,,,,,2,6.6134,,0,0,69,69,42,1,stimuli/stim_20210919_power2amp/equal_lnn_AM2Hz_s35_20.m4a,,,,,,,,,,,,
,,,,,,,,,,,,42154,2021-10-10_19h13.37.427,judgeSpeechMusic_20210919_logNormShiftAmp_detection_fixFreq,2020.1.2,MacIntel,60,,,,,,,,,,,,,,,,,,2,10.6466,,0,0,70,70,69,1,stimuli/stim_20210919_power2amp/equal_lnn_AM2Hz_s55_46.m4a,,,,,,,,,,,,
,,,,,,,,,,,,42154,2021-10-10_19h13.37.427,judgeSpeechMusic_20210919_logNormShiftAmp_detection_fixFreq,2020.1.2,MacIntel,60,,,,,,,,,,,,,,,,,,2,8.2283,,0,0,71,71,44,1,stimuli/stim_20210919_power2amp/equal_lnn_AM2Hz_s35_47.m4a,,,,,,,,,,,,
,,,,,,,,,,,,42154,2021-10-10_19h13.37.427,judgeSpeechMusic_20210919_logNormShiftAmp_detection_fixFreq,2020.1.2,MacIntel,60,,,,,,,,,,,,,,,,,,1,7.1311,,0,0,72,72,47,1,stimuli/stim_20210919_power2amp/equal_lnn_AM2Hz_s45_5.m4a,,,,,,,,,,,,
,,,,,,,,,,,,42154,2021-10-10_19h13.37.427,judgeSpeechMusic_20210919_logNormShiftAmp_detection_fixFreq,2020.1.2,MacIntel,60,,,,,,,,,,,,,,,,,,1,7.4789,,0,0,73,73,40,1,stimuli/stim_20210919_power2amp/equal_lnn_AM2Hz_s35_27.m4a,,,,,,,,,,,,
,,,,,,,,,,,,42154,2021-10-10_19h13.37.427,judgeSpeechMusic_20210919_logNormShiftAmp_detection_fixFreq,2020.1.2,MacIntel,60,,,,,,,,,,,,,,,,,,2,5.8303,,0,0,74,74,58,1,stimuli/stim_20210919_power2amp/equal_lnn_AM2Hz_s45_26.m4a,,,,,,,,,,,,
,,,,,,,,,,,,42154,2021-10-10_19h13.37.427,judgeSpeechMusic_20210919_logNormShiftAmp_detection_fixFreq,2020.1.2,MacIntel,60,,,,,,,,,,,,,,,,,,,,,,,,,,,,,,,1,1,3,0,1,MUSIC,stimuli/MUSIC.jpg,,
,,,,,,,,,,,,42154,2021-10-10_19h13.37.427,judgeSpeechMusic_20210919_logNormShiftAmp_detection_fixFreq,2020.1.2,MacIntel,60,,,,,,,,,,,,,,,,,,,,,,,,,,,,,,,,,,,,,,space,1.7397
